PART_ID,Block_no,Trial_no,Block_type,Trial_type,CSI,Stim_letter,Key_pressed,letter_choose,Rt,Corr,Stimulus Time,Level,Reversal,Revs_count
Y2-S2-029M24,1,1,PS,train,30,↓,down,↓,0.9586401999695227,True,30,-,-,-
Y2-S2-029M24,1,2,PS,train,27,←,left,←,0.8144709999905899,True,30,-,-,-
Y2-S2-029M24,1,3,PS,train,45,↑,no_key,no_letter,-1.0,False,30,-,-,-
Y2-S2-029M24,1,4,PS,train,30,←,left,←,0.5838775000302121,True,30,-,-,-
Y2-S2-029M24,1,5,PS,train,42,→,left,←,0.7832646999740973,False,30,-,-,-
Y2-S2-029M24,1,6,PS,train,43,←,left,←,0.5507686999626458,True,30,-,-,-
Y2-S2-029M24,1,7,PS,train,27,→,right,→,0.5006191999418661,True,30,-,-,-
Y2-S2-029M24,1,8,PS,train,40,↑,up,↑,0.43441170000005513,True,30,-,-,-
Y2-S2-029M24,1,9,PS,train,25,←,left,←,0.40121590008493513,True,30,-,-,-
Y2-S2-029M24,1,10,PS,train,45,↓,down,↓,0.5844401000067592,True,30,-,-,-
Y2-S2-029M24,2,11,AS,train,38,↑,up,↑,0.6011631999863312,True,45,-,-,-
Y2-S2-029M24,2,12,AS,train,48,←,left,←,0.7009886000305414,True,45,-,-,-
Y2-S2-029M24,2,13,AS,train,47,↓,down,↓,0.8338782000355422,True,45,-,-,-
Y2-S2-029M24,2,14,AS,train,33,↑,no_key,no_letter,-1.0,False,45,-,-,-
Y2-S2-029M24,2,15,AS,train,35,→,down,↓,0.7010475998977199,False,45,-,-,-
Y2-S2-029M24,2,16,AS,train,39,←,left,←,0.6843561999266967,True,45,-,-,-
Y2-S2-029M24,2,17,AS,train,38,→,right,→,0.7010642000241205,True,45,-,-,-
Y2-S2-029M24,2,18,AS,train,29,←,left,←,0.534622700070031,True,45,-,-,-
Y2-S2-029M24,2,19,AS,train,28,↑,up,↑,0.7674199999310076,True,45,-,-,-
Y2-S2-029M24,2,20,AS,train,46,→,right,→,0.6511400999734178,True,45,-,-,-
Y2-S2-029M24,-,21,PS,adaptive,36,↓,left,←,1.5199187999824062,False,10,-1,0,0
Y2-S2-029M24,-,22,PS,adaptive,43,↑,up,↑,0.4215232999995351,True,11,-1,0,0
Y2-S2-029M24,-,23,PS,adaptive,37,→,right,→,0.45653019996825606,True,11,-1,0,0
Y2-S2-029M24,-,24,PS,adaptive,42,←,left,←,0.61167110002134,True,11,1,1,1
Y2-S2-029M24,-,25,PS,adaptive,47,↓,down,↓,0.4954175000311807,True,10,1,0,1
Y2-S2-029M24,-,26,PS,adaptive,49,←,down,↓,0.884677000110969,False,10,-1,1,2
Y2-S2-029M24,-,27,PS,adaptive,28,↓,down,↓,0.6093869000906125,True,11,-1,0,2
Y2-S2-029M24,-,28,PS,adaptive,44,→,right,→,0.4831283000530675,True,11,-1,0,2
Y2-S2-029M24,-,29,PS,adaptive,32,↑,down,↓,0.794212199980393,False,11,-1,0,2
Y2-S2-029M24,-,30,PS,adaptive,49,←,left,←,0.5385452000191435,True,12,-1,0,2
Y2-S2-029M24,-,31,PS,adaptive,28,→,right,→,0.6508311999496073,True,12,-1,0,2
Y2-S2-029M24,-,32,PS,adaptive,47,←,left,←,1.4907682000193745,True,12,1,1,3
Y2-S2-029M24,-,33,PS,adaptive,45,↓,down,↓,0.6851350000360981,True,11,1,0,3
Y2-S2-029M24,-,34,PS,adaptive,42,→,right,→,0.47053369996137917,True,11,1,0,3
Y2-S2-029M24,-,35,PS,adaptive,46,↓,down,↓,0.36241750000044703,True,11,1,0,3
Y2-S2-029M24,-,36,PS,adaptive,42,↑,right,→,0.702925999998115,False,10,-1,1,4
Y2-S2-029M24,-,37,AS,adaptive,33,↓,left,←,0.4340083999559283,False,20,-1,0,0
Y2-S2-029M24,-,38,AS,adaptive,50,↑,up,↑,0.724660599953495,True,21,-1,0,0
Y2-S2-029M24,-,39,AS,adaptive,37,↓,down,↓,1.0770485999528319,True,21,-1,0,0
Y2-S2-029M24,-,40,AS,adaptive,46,→,left,←,0.9972331000026315,False,21,-1,0,0
Y2-S2-029M24,-,41,AS,adaptive,35,↑,up,↑,0.9593649000162259,True,22,-1,0,0
Y2-S2-029M24,-,42,AS,adaptive,47,→,down,↓,0.8301947000436485,False,22,-1,0,0
Y2-S2-029M24,-,43,AS,adaptive,27,↑,down,↓,0.6392743999604136,False,23,-1,0,0
Y2-S2-029M24,-,44,AS,adaptive,27,↓,down,↓,0.8086891999701038,True,24,-1,0,0
Y2-S2-029M24,-,45,AS,adaptive,29,←,left,←,0.638366499915719,True,24,-1,0,0
Y2-S2-029M24,-,46,AS,adaptive,45,→,right,→,0.4673879999900237,True,24,1,1,1
Y2-S2-029M24,-,47,AS,adaptive,49,↑,up,↑,0.6531718999613076,True,23,1,0,1
Y2-S2-029M24,-,48,AS,adaptive,30,↓,right,→,0.80516530002933,False,23,-1,1,2
Y2-S2-029M24,-,49,AS,adaptive,49,←,left,←,0.7169999000616372,True,24,-1,0,2
Y2-S2-029M24,-,50,AS,adaptive,34,→,right,→,0.7147689999546856,True,24,-1,0,2
Y2-S2-029M24,-,51,AS,adaptive,34,↓,down,↓,0.8741046000504866,True,24,1,1,3
Y2-S2-029M24,-,52,AS,adaptive,41,←,left,←,0.994931299937889,True,23,1,0,3
Y2-S2-029M24,-,53,AS,adaptive,47,→,down,↓,1.1591933999443427,False,23,-1,1,4
Y2-S2-029M24,1,54,PS,intra_train,26,↑,up,↑,0.5980629000114277,True,16,-,-,-
Y2-S2-029M24,1,55,PS,intra_train,25,←,left,←,0.5312586000654846,True,16,-,-,-
Y2-S2-029M24,1,56,PS,intra_train,40,→,right,→,0.4353118999861181,True,16,-,-,-
Y2-S2-029M24,1,57,PS,intra_train,26,↑,up,↑,0.49855010001920164,True,16,-,-,-
Y2-S2-029M24,1,58,PS,intra_train,37,←,right,→,0.8864389000227675,False,16,-,-,-
Y2-S2-029M24,1,59,PS,exp,38,→,right,→,0.4868331999750808,True,11,0,0,0
Y2-S2-029M24,1,60,PS,exp,44,←,left,←,0.7914566999534145,True,11,0,0,0
Y2-S2-029M24,1,61,PS,exp,34,↑,up,↑,1.6629258999601007,True,11,1,0,0
Y2-S2-029M24,1,62,PS,exp,43,←,right,→,0.7560113999061286,False,10,-1,1,1
Y2-S2-029M24,1,63,PS,exp,45,↓,up,↑,0.5764309000223875,False,11,-1,0,1
Y2-S2-029M24,1,64,PS,exp,36,→,right,→,0.39865490002557635,True,12,-1,0,1
Y2-S2-029M24,1,65,PS,exp,36,↑,right,→,0.6970700999954715,False,12,-1,0,1
Y2-S2-029M24,1,66,PS,exp,48,←,left,←,0.5301395000424236,True,13,-1,0,1
Y2-S2-029M24,1,67,PS,exp,43,↑,down,↓,1.3147289999760687,False,13,-1,0,1
Y2-S2-029M24,1,68,PS,exp,31,↓,down,↓,0.8902294000145048,True,14,-1,0,1
Y2-S2-029M24,1,69,PS,exp,45,→,left,←,0.5936797999311239,False,14,-1,0,1
Y2-S2-029M24,1,70,PS,exp,32,←,left,←,0.5290072999196127,True,15,-1,0,1
Y2-S2-029M24,1,71,PS,exp,40,→,right,→,0.6376295000081882,True,15,-1,0,1
Y2-S2-029M24,1,72,PS,exp,34,←,left,←,0.8520687000127509,True,15,1,1,2
Y2-S2-029M24,1,73,PS,exp,31,↓,down,↓,0.4443459000904113,True,14,1,0,2
Y2-S2-029M24,1,74,PS,exp,39,←,left,←,0.5481307000154629,True,14,1,0,2
Y2-S2-029M24,1,75,PS,exp,38,→,down,↓,0.5375323999905959,False,14,-1,1,3
Y2-S2-029M24,1,76,PS,exp,30,↑,down,↓,0.5975388999795541,False,15,-1,0,3
Y2-S2-029M24,1,77,PS,exp,32,→,up,↑,1.0565467999549583,False,16,-1,0,3
Y2-S2-029M24,1,78,PS,exp,31,←,left,←,0.9404210000066087,True,17,-1,0,3
Y2-S2-029M24,1,79,PS,exp,34,→,right,→,0.5930538999382406,True,17,-1,0,3
Y2-S2-029M24,1,80,PS,exp,44,↓,down,↓,0.6059330001007766,True,17,1,1,4
Y2-S2-029M24,1,81,PS,exp,42,→,right,→,0.5781103000044823,True,16,1,0,4
Y2-S2-029M24,1,82,PS,exp,25,←,left,←,0.6279466000851244,True,16,1,0,4
Y2-S2-029M24,1,83,PS,exp,49,↓,down,↓,0.6716311000054702,True,16,1,0,4
Y2-S2-029M24,1,84,PS,exp,42,←,no_key,no_letter,-1.0,False,15,-1,1,5
Y2-S2-029M24,1,85,PS,exp,50,↓,left,←,0.8165058000013232,False,16,-1,0,5
Y2-S2-029M24,1,86,PS,exp,47,→,right,→,0.768872500048019,True,17,-1,0,5
Y2-S2-029M24,1,87,PS,exp,46,↑,left,←,0.7514839000068605,False,17,-1,0,5
Y2-S2-029M24,1,88,PS,exp,32,→,right,→,0.43403789994772524,True,18,-1,0,5
Y2-S2-029M24,1,89,PS,exp,28,↓,down,↓,0.532491400022991,True,18,-1,0,5
Y2-S2-029M24,1,90,PS,exp,40,↑,up,↑,0.5861784999724478,True,18,1,1,6
Y2-S2-029M24,1,91,PS,exp,48,↓,left,←,1.1128028000239283,False,17,-1,1,7
Y2-S2-029M24,1,92,PS,exp,35,↑,up,↑,0.6150027000112459,True,18,-1,0,7
Y2-S2-029M24,1,93,PS,exp,26,←,left,←,0.686211199965328,True,18,-1,0,7
Y2-S2-029M24,1,94,PS,exp,32,→,right,→,0.43383059999905527,True,18,1,1,8
Y2-S2-029M24,1,95,PS,exp,28,↓,down,↓,0.5217846999876201,True,17,1,0,8
Y2-S2-029M24,1,96,PS,exp,48,→,left,←,0.6282886000117287,False,17,-1,1,9
Y2-S2-029M24,1,97,PS,exp,27,←,left,←,0.7209766000742093,True,18,-1,0,9
Y2-S2-029M24,1,98,PS,exp,38,→,right,→,0.4006243000039831,True,18,-1,0,9
Y2-S2-029M24,1,99,PS,exp,46,↓,down,↓,0.4694575999164954,True,18,1,1,10
Y2-S2-029M24,1,100,PS,exp,40,↑,down,↓,0.5888396999798715,False,17,-1,1,11
Y2-S2-029M24,1,101,PS,exp,32,↓,left,←,1.147456599981524,False,18,-1,0,11
Y2-S2-029M24,1,102,PS,exp,38,↑,left,←,0.8829794999910519,False,19,-1,0,11
Y2-S2-029M24,1,103,PS,exp,46,←,left,←,1.128739699954167,True,20,-1,0,11
Y2-S2-029M24,1,104,PS,exp,37,↑,down,↓,1.0752429000567645,False,20,-1,0,11
Y2-S2-029M24,1,105,PS,exp,46,↓,down,↓,0.6237165000056848,True,21,-1,0,11
Y2-S2-029M24,1,106,PS,exp,38,↑,up,↑,0.6369025999447331,True,21,-1,0,11
Y2-S2-029M24,1,107,PS,exp,47,→,right,→,0.9880640000337735,True,21,1,1,12
Y2-S2-029M24,1,108,PS,exp,38,←,left,←,0.5924988000188023,True,20,1,0,12
Y2-S2-029M24,1,109,PS,exp,48,↑,left,←,0.23423910001292825,False,20,-1,1,13
Y2-S2-029M24,1,110,PS,exp,36,↓,down,↓,0.762538000009954,True,21,-1,0,13
Y2-S2-029M24,1,111,PS,exp,43,←,left,←,0.5691998000256717,True,21,-1,0,13
Y2-S2-029M24,1,112,PS,exp,41,↑,up,↑,0.5267376000992954,True,21,1,1,14
Y2-S2-029M24,1,113,PS,exp,50,↓,down,↓,0.7228738000849262,True,20,1,0,14
Y2-S2-029M24,1,114,PS,exp,34,↑,down,↓,0.40064779995009303,False,20,-1,1,15
Y2-S2-029M24,1,115,PS,exp,38,→,right,→,0.6633779000258073,True,21,-1,0,15
Y2-S2-029M24,1,116,PS,exp,44,↓,down,↓,0.5749277999857441,True,21,-1,0,15
Y2-S2-029M24,1,117,PS,exp,42,↑,up,↑,0.972140800091438,True,21,1,1,16
Y2-S2-029M24,2,118,AS,intra_train,27,↓,down,↓,0.7344481999753043,True,36,-,-,-
Y2-S2-029M24,2,119,AS,intra_train,40,→,right,→,0.6171305999159813,True,36,-,-,-
Y2-S2-029M24,2,120,AS,intra_train,28,↓,down,↓,0.48387039999943227,True,36,-,-,-
Y2-S2-029M24,2,121,AS,intra_train,49,→,right,→,0.5009967000223696,True,36,-,-,-
Y2-S2-029M24,2,122,AS,intra_train,43,↓,down,↓,0.7005505999550223,True,36,-,-,-
Y2-S2-029M24,2,123,AS,exp,37,↑,down,↓,0.5003793999785557,False,24,-1,0,0
Y2-S2-029M24,2,124,AS,exp,48,←,left,←,0.9459109000163153,True,25,-1,0,0
Y2-S2-029M24,2,125,AS,exp,43,↓,down,↓,0.5178610999137163,True,25,-1,0,0
Y2-S2-029M24,2,126,AS,exp,29,→,right,→,0.6547718999208882,True,25,1,1,1
Y2-S2-029M24,2,127,AS,exp,41,↑,up,↑,0.7980897000525147,True,24,1,0,1
Y2-S2-029M24,2,128,AS,exp,40,↓,down,↓,1.1467199999606237,True,24,1,0,1
Y2-S2-029M24,2,129,AS,exp,28,←,left,←,0.8713058999273926,True,24,1,0,1
Y2-S2-029M24,2,130,AS,exp,41,↓,right,→,1.632037700037472,False,23,-1,1,2
Y2-S2-029M24,2,131,AS,exp,49,↑,up,↑,0.6812186000170186,True,24,-1,0,2
Y2-S2-029M24,2,132,AS,exp,27,→,right,→,0.7225518999621272,True,24,-1,0,2
Y2-S2-029M24,2,133,AS,exp,44,←,left,←,0.7495137999067083,True,24,1,1,3
Y2-S2-029M24,2,134,AS,exp,30,→,right,→,0.48409990000072867,True,23,1,0,3
Y2-S2-029M24,2,135,AS,exp,49,←,left,←,0.6012765999184921,True,23,1,0,3
Y2-S2-029M24,2,136,AS,exp,42,↓,left,←,1.5159428999759257,False,23,-1,1,4
Y2-S2-029M24,2,137,AS,exp,43,↑,up,↑,0.8084183000028133,True,24,-1,0,4
Y2-S2-029M24,2,138,AS,exp,41,→,right,→,0.5347060000058264,True,24,-1,0,4
Y2-S2-029M24,2,139,AS,exp,35,←,left,←,0.6616944000124931,True,24,1,1,5
Y2-S2-029M24,2,140,AS,exp,48,→,right,→,0.6200252999551594,True,23,1,0,5
Y2-S2-029M24,2,141,AS,exp,40,←,left,←,0.702568499953486,True,23,1,0,5
Y2-S2-029M24,2,142,AS,exp,41,↓,down,↓,0.7866960000246763,True,23,1,0,5
Y2-S2-029M24,2,143,AS,exp,45,↑,up,↑,1.0478115000296384,True,22,1,0,5
Y2-S2-029M24,2,144,AS,exp,34,→,right,→,0.6500612000236288,True,22,1,0,5
Y2-S2-029M24,2,145,AS,exp,32,←,left,←,0.9329763000132516,True,22,1,0,5
Y2-S2-029M24,2,146,AS,exp,26,↓,up,↑,0.5368016000138596,False,21,-1,1,6
Y2-S2-029M24,2,147,AS,exp,32,←,up,↑,1.2076690000249073,False,22,-1,0,6
Y2-S2-029M24,2,148,AS,exp,34,↓,down,↓,0.5866934000514448,True,23,-1,0,6
Y2-S2-029M24,2,149,AS,exp,29,→,left,←,1.2345530999591574,False,23,-1,0,6
Y2-S2-029M24,2,150,AS,exp,34,↑,up,↑,0.7791906000347808,True,24,-1,0,6
Y2-S2-029M24,2,151,AS,exp,45,←,left,←,1.3818695000372827,True,24,-1,0,6
Y2-S2-029M24,2,152,AS,exp,50,→,right,→,0.8055254999781027,True,24,1,1,7
Y2-S2-029M24,2,153,AS,exp,46,←,left,←,0.766655300045386,True,23,1,0,7
Y2-S2-029M24,2,154,AS,exp,39,↑,up,↑,0.7865465000504628,True,23,1,0,7
Y2-S2-029M24,2,155,AS,exp,46,↓,down,↓,0.9173908000811934,True,23,1,0,7
Y2-S2-029M24,2,156,AS,exp,41,→,right,→,0.7900696001015604,True,22,1,0,7
Y2-S2-029M24,2,157,AS,exp,45,↓,right,→,0.9622811999870464,False,22,-1,1,8
Y2-S2-029M24,2,158,AS,exp,32,↑,up,↑,1.0072163000004366,True,23,-1,0,8
Y2-S2-029M24,2,159,AS,exp,42,↓,right,→,1.0814277000026777,False,23,-1,0,8
Y2-S2-029M24,2,160,AS,exp,25,↑,no_key,no_letter,-1.0,False,24,-1,0,8
Y2-S2-029M24,2,161,AS,exp,30,↓,down,↓,0.9829140000510961,True,25,-1,0,8
Y2-S2-029M24,2,162,AS,exp,31,↑,down,↓,0.7769495999673381,False,25,-1,0,8
Y2-S2-029M24,2,163,AS,exp,34,↓,down,↓,0.7873163999756798,True,26,-1,0,8
Y2-S2-029M24,2,164,AS,exp,48,←,down,↓,1.0575301999924704,False,26,-1,0,8
Y2-S2-029M24,2,165,AS,exp,30,↑,up,↑,0.9024211999494582,True,27,-1,0,8
Y2-S2-029M24,2,166,AS,exp,48,←,left,←,0.651568700093776,True,27,-1,0,8
Y2-S2-029M24,2,167,AS,exp,49,→,right,→,0.7277345999609679,True,27,1,1,9
Y2-S2-029M24,2,168,AS,exp,43,←,left,←,0.9251745999790728,True,26,1,0,9
Y2-S2-029M24,2,169,AS,exp,33,↑,right,→,1.8711770999943838,False,26,-1,1,10
Y2-S2-029M24,2,170,AS,exp,32,←,left,←,1.0374004999175668,True,27,-1,0,10
Y2-S2-029M24,2,171,AS,exp,44,→,right,→,0.6462928999681026,True,27,-1,0,10
Y2-S2-029M24,2,172,AS,exp,44,↑,up,↑,0.6692507000407204,True,27,1,1,11
Y2-S2-029M24,2,173,AS,exp,47,→,right,→,0.7264358999673277,True,26,1,0,11
Y2-S2-029M24,2,174,AS,exp,34,↑,left,←,1.4520446000387892,False,26,-1,1,12
Y2-S2-029M24,2,175,AS,exp,25,←,left,←,0.9021918999496847,True,27,-1,0,12
Y2-S2-029M24,2,176,AS,exp,40,→,right,→,0.7415293999947608,True,27,-1,0,12
Y2-S2-029M24,2,177,AS,exp,32,←,left,←,0.8045671000145376,True,27,1,1,13
Y2-S2-029M24,2,178,AS,exp,28,→,right,→,0.9473866000771523,True,26,1,0,13
Y2-S2-029M24,2,179,AS,exp,26,←,left,←,0.6051092999987304,True,26,1,0,13
Y2-S2-029M24,2,180,AS,exp,35,↑,up,↑,0.76898589998018,True,26,1,0,13
Y2-S2-029M24,2,181,AS,exp,32,↓,no_key,no_letter,-1.0,False,25,-1,1,14
Y2-S2-029M24,2,182,AS,exp,37,→,left,←,0.5672352999681607,False,26,-1,0,14
Y2-S2-029M24,2,183,AS,exp,34,↓,no_key,no_letter,-1.0,False,27,-1,0,14
Y2-S2-029M24,2,184,AS,exp,33,→,right,→,1.150569900055416,True,28,-1,0,14
Y2-S2-029M24,2,185,AS,exp,50,↑,up,↑,0.856272800010629,True,28,-1,0,14
Y2-S2-029M24,2,186,AS,exp,27,←,left,←,0.6604933999478817,True,28,1,1,15
Y2-S2-029M24,2,187,AS,exp,34,→,right,→,0.6798323000548407,True,27,1,0,15
Y2-S2-029M24,2,188,AS,exp,50,↑,no_key,no_letter,-1.0,False,27,-1,1,16
Y2-S2-029M24,3,189,AS,intra_train,48,←,no_key,no_letter,-1.0,False,36,-,-,-
Y2-S2-029M24,3,190,AS,intra_train,42,↑,up,↑,0.6840079000685364,True,36,-,-,-
Y2-S2-029M24,3,191,AS,intra_train,46,←,left,←,1.3780873999930918,True,36,-,-,-
Y2-S2-029M24,3,192,AS,intra_train,50,↓,down,↓,0.7746824000496417,True,36,-,-,-
Y2-S2-029M24,3,193,AS,intra_train,34,→,left,←,1.2984404999297112,False,36,-,-,-
Y2-S2-029M24,3,194,AS,exp,40,←,left,←,0.9246448000194505,True,24,0,0,0
Y2-S2-029M24,3,195,AS,exp,29,↑,up,↑,0.6956533000338823,True,24,0,0,0
Y2-S2-029M24,3,196,AS,exp,49,↓,down,↓,0.8464801000664011,True,24,1,0,0
Y2-S2-029M24,3,197,AS,exp,39,→,right,→,0.9523464000085369,True,23,1,0,0
Y2-S2-029M24,3,198,AS,exp,43,←,no_key,no_letter,-1.0,False,23,-1,1,1
Y2-S2-029M24,3,199,AS,exp,34,↓,down,↓,0.6066550998948514,True,24,-1,0,1
Y2-S2-029M24,3,200,AS,exp,42,↑,down,↓,0.6798358000814915,False,24,-1,0,1
Y2-S2-029M24,3,201,AS,exp,46,↓,up,↑,1.0781464000465348,False,25,-1,0,1
Y2-S2-029M24,3,202,AS,exp,44,↑,left,←,1.549700399977155,False,26,-1,0,1
Y2-S2-029M24,3,203,AS,exp,42,←,right,→,1.2183750999392942,False,27,-1,0,1
Y2-S2-029M24,3,204,AS,exp,46,→,right,→,0.9478844000259414,True,28,-1,0,1
Y2-S2-029M24,3,205,AS,exp,26,↑,up,↑,0.7816135999746621,True,28,-1,0,1
Y2-S2-029M24,3,206,AS,exp,39,←,right,→,0.7767709998879582,False,28,-1,0,1
Y2-S2-029M24,3,207,AS,exp,37,→,no_key,no_letter,-1.0,False,29,-1,0,1
Y2-S2-029M24,3,208,AS,exp,41,←,right,→,1.453796699992381,False,30,-1,0,1
Y2-S2-029M24,3,209,AS,exp,49,→,right,→,0.8979349998990074,True,31,-1,0,1
Y2-S2-029M24,3,210,AS,exp,44,↓,down,↓,0.5833205999806523,True,31,-1,0,1
Y2-S2-029M24,3,211,AS,exp,44,↑,up,↑,0.8525708001106977,True,31,1,1,2
Y2-S2-029M24,3,212,AS,exp,32,↓,down,↓,0.7299035999458283,True,30,1,0,2
Y2-S2-029M24,3,213,AS,exp,37,←,left,←,0.8320560000138357,True,30,1,0,2
Y2-S2-029M24,3,214,AS,exp,37,↓,down,↓,0.8300135999452323,True,30,1,0,2
Y2-S2-029M24,3,215,AS,exp,37,←,left,←,0.7932773000793532,True,29,1,0,2
Y2-S2-029M24,3,216,AS,exp,40,↑,right,→,1.562519900035113,False,29,-1,1,3
Y2-S2-029M24,3,217,AS,exp,28,←,left,←,1.6294282000744715,True,30,-1,0,3
Y2-S2-029M24,3,218,AS,exp,37,→,right,→,0.7101002000272274,True,30,-1,0,3
Y2-S2-029M24,3,219,AS,exp,48,↑,up,↑,0.7271606000140309,True,30,1,1,4
Y2-S2-029M24,3,220,AS,exp,26,→,right,→,0.6006279001012444,True,29,1,0,4
Y2-S2-029M24,3,221,AS,exp,41,↑,up,↑,0.6738727000774816,True,29,1,0,4
Y2-S2-029M24,3,222,AS,exp,31,←,left,←,0.5504980999976397,True,29,1,0,4
Y2-S2-029M24,3,223,AS,exp,36,↓,left,←,1.0320092000765726,False,28,-1,1,5
Y2-S2-029M24,3,224,AS,exp,30,↑,up,↑,0.7147409999743104,True,29,-1,0,5
Y2-S2-029M24,3,225,AS,exp,43,→,left,←,0.4014277000678703,False,29,-1,0,5
Y2-S2-029M24,3,226,AS,exp,36,↓,no_key,no_letter,-1.0,False,30,-1,0,5
Y2-S2-029M24,3,227,AS,exp,31,→,right,→,0.778650899999775,True,31,-1,0,5
Y2-S2-029M24,3,228,AS,exp,41,↑,up,↑,0.6970738000236452,True,31,-1,0,5
Y2-S2-029M24,3,229,AS,exp,45,←,left,←,0.6976934999693185,True,31,1,1,6
Y2-S2-029M24,3,230,AS,exp,50,↑,up,↑,0.7092700999928638,True,30,1,0,6
Y2-S2-029M24,3,231,AS,exp,36,←,left,←,1.013496599975042,True,30,1,0,6
Y2-S2-029M24,3,232,AS,exp,29,↓,down,↓,0.6004790000151843,True,30,1,0,6
Y2-S2-029M24,3,233,AS,exp,31,↑,up,↑,0.7617372999666259,True,29,1,0,6
Y2-S2-029M24,3,234,AS,exp,41,↓,down,↓,0.8634090999839827,True,29,1,0,6
Y2-S2-029M24,3,235,AS,exp,37,←,left,←,0.8920125999720767,True,29,1,0,6
Y2-S2-029M24,3,236,AS,exp,44,↑,up,↑,0.6939374000066891,True,28,1,0,6
Y2-S2-029M24,3,237,AS,exp,35,→,left,←,1.061338200001046,False,28,-1,1,7
Y2-S2-029M24,3,238,AS,exp,36,←,left,←,0.8517517000436783,True,29,-1,0,7
Y2-S2-029M24,3,239,AS,exp,32,↑,up,↑,1.4478347999975085,True,29,-1,0,7
Y2-S2-029M24,3,240,AS,exp,41,↓,down,↓,0.7046506999759004,True,29,1,1,8
Y2-S2-029M24,3,241,AS,exp,35,↑,up,↑,1.4594311999389902,True,28,1,0,8
Y2-S2-029M24,3,242,AS,exp,25,←,left,←,0.9063455000286922,True,28,1,0,8
Y2-S2-029M24,3,243,AS,exp,32,→,right,→,0.5837870000395924,True,28,1,0,8
Y2-S2-029M24,3,244,AS,exp,50,↓,down,↓,0.6563744000159204,True,27,1,0,8
Y2-S2-029M24,3,245,AS,exp,40,→,left,←,1.1075441999128088,False,27,-1,1,9
Y2-S2-029M24,3,246,AS,exp,36,↑,down,↓,0.7988610999891534,False,28,-1,0,9
Y2-S2-029M24,3,247,AS,exp,41,↓,down,↓,0.6923947000177577,True,29,-1,0,9
Y2-S2-029M24,3,248,AS,exp,32,←,left,←,0.9440060999477282,True,29,-1,0,9
Y2-S2-029M24,3,249,AS,exp,47,→,no_key,no_letter,-1.0,False,29,-1,0,9
Y2-S2-029M24,3,250,AS,exp,40,↓,left,←,2.0844270999077708,False,30,-1,0,9
Y2-S2-029M24,3,251,AS,exp,37,→,right,→,0.5172444999916479,True,31,-1,0,9
Y2-S2-029M24,3,252,AS,exp,43,↑,up,↑,0.9181891001062468,True,31,-1,0,9
Y2-S2-029M24,3,253,AS,exp,44,→,right,→,0.6504965000785887,True,31,1,1,10
Y2-S2-029M24,3,254,AS,exp,43,↑,up,↑,0.6824591999175027,True,30,1,0,10
Y2-S2-029M24,3,255,AS,exp,40,↓,right,→,2.0823944999137893,False,30,-1,1,11
Y2-S2-029M24,3,256,AS,exp,26,→,right,→,0.9544707000022754,True,31,-1,0,11
Y2-S2-029M24,3,257,AS,exp,48,↓,up,↑,1.4624561000382528,False,31,-1,0,11
Y2-S2-029M24,3,258,AS,exp,47,↑,up,↑,1.0225940000964329,True,32,-1,0,11
Y2-S2-029M24,3,259,AS,exp,27,↓,up,↑,1.0659105000086129,False,32,-1,0,11
Y2-S2-029M24,3,260,AS,exp,41,←,up,↑,1.633327699964866,False,33,-1,0,11
Y2-S2-029M24,3,261,AS,exp,36,↓,right,→,1.650268500088714,False,34,-1,0,11
Y2-S2-029M24,3,262,AS,exp,48,↑,up,↑,0.8850762998918071,True,35,-1,0,11
Y2-S2-029M24,3,263,AS,exp,27,→,no_key,no_letter,-1.0,False,35,-1,0,11
Y2-S2-029M24,3,264,AS,exp,31,↓,down,↓,0.6341138000134379,True,36,-1,0,11
Y2-S2-029M24,3,265,AS,exp,39,→,up,↑,1.4780832000542432,False,36,-1,0,11
Y2-S2-029M24,3,266,AS,exp,48,←,no_key,no_letter,-1.0,False,37,-1,0,11
Y2-S2-029M24,3,267,AS,exp,49,→,right,→,1.6078523999312893,True,38,-1,0,11
Y2-S2-029M24,3,268,AS,exp,47,↑,up,↑,0.8719625999219716,True,38,-1,0,11
Y2-S2-029M24,3,269,AS,exp,50,→,right,→,1.4621735999826342,True,38,1,1,12
Y2-S2-029M24,3,270,AS,exp,39,←,no_key,no_letter,-1.0,False,37,-1,1,13
Y2-S2-029M24,3,271,AS,exp,43,→,no_key,no_letter,-1.0,False,38,-1,0,13
Y2-S2-029M24,3,272,AS,exp,25,←,left,←,1.1065640000160784,True,39,-1,0,13
Y2-S2-029M24,3,273,AS,exp,25,↑,right,→,2.263983799959533,False,39,-1,0,13
Y2-S2-029M24,3,274,AS,exp,41,→,right,→,0.9341138999443501,True,40,-1,0,13
Y2-S2-029M24,3,275,AS,exp,29,↓,up,↑,2.1829342999262735,False,40,-1,0,13
Y2-S2-029M24,3,276,AS,exp,46,←,left,←,1.1824254000093788,True,41,-1,0,13
Y2-S2-029M24,3,277,AS,exp,48,↓,down,↓,0.862421500030905,True,41,-1,0,13
Y2-S2-029M24,3,278,AS,exp,46,→,right,→,0.7339364000363275,True,41,1,1,14
Y2-S2-029M24,3,279,AS,exp,34,↓,left,←,1.463924300041981,False,40,-1,1,15
Y2-S2-029M24,3,280,AS,exp,28,↑,left,←,1.5898747000610456,False,41,-1,0,15
Y2-S2-029M24,3,281,AS,exp,40,←,no_key,no_letter,-1.0,False,42,-1,0,15
Y2-S2-029M24,3,282,AS,exp,47,↑,up,↑,0.784070499939844,True,43,-1,0,15
Y2-S2-029M24,3,283,AS,exp,41,↓,down,↓,1.2572326000081375,True,43,-1,0,15
Y2-S2-029M24,3,284,AS,exp,45,←,left,←,0.9138402999378741,True,43,1,1,16
Y2-S2-029M24,4,285,PS,intra_train,40,→,left,←,0.8640433999244124,False,16,-,-,-
Y2-S2-029M24,4,286,PS,intra_train,33,↑,up,↑,0.5633946999441832,True,16,-,-,-
Y2-S2-029M24,4,287,PS,intra_train,48,←,left,←,0.4594712998950854,True,16,-,-,-
Y2-S2-029M24,4,288,PS,intra_train,37,→,right,→,0.5191490000579506,True,16,-,-,-
Y2-S2-029M24,4,289,PS,intra_train,37,↑,up,↑,0.5311781999189407,True,16,-,-,-
Y2-S2-029M24,4,290,PS,exp,50,←,left,←,0.4688967000693083,True,11,0,0,0
Y2-S2-029M24,4,291,PS,exp,39,→,right,→,0.4663194000022486,True,11,0,0,0
Y2-S2-029M24,4,292,PS,exp,47,↑,left,←,1.0842158000450581,False,11,-1,0,0
Y2-S2-029M24,4,293,PS,exp,34,→,right,→,0.46636079996824265,True,12,-1,0,0
Y2-S2-029M24,4,294,PS,exp,47,←,left,←,0.4431801000609994,True,12,-1,0,0
Y2-S2-029M24,4,295,PS,exp,27,↑,down,↓,0.962421300006099,False,12,-1,0,0
Y2-S2-029M24,4,296,PS,exp,48,←,up,↑,0.7278448999859393,False,13,-1,0,0
Y2-S2-029M24,4,297,PS,exp,38,↓,down,↓,0.5559890998993069,True,14,-1,0,0
Y2-S2-029M24,4,298,PS,exp,49,←,down,↓,0.7163654000032693,False,14,-1,0,0
Y2-S2-029M24,4,299,PS,exp,48,↑,up,↑,0.5739134999457747,True,15,-1,0,0
Y2-S2-029M24,4,300,PS,exp,40,→,up,↑,1.4997432000236586,False,15,-1,0,0
Y2-S2-029M24,4,301,PS,exp,34,↑,up,↑,0.5257777000078931,True,16,-1,0,0
Y2-S2-029M24,4,302,PS,exp,26,←,up,↑,1.617783300112933,False,16,-1,0,0
Y2-S2-029M24,4,303,PS,exp,38,→,right,→,0.7927466999972239,True,17,-1,0,0
Y2-S2-029M24,4,304,PS,exp,38,↓,no_key,no_letter,-1.0,False,17,-1,0,0
Y2-S2-029M24,4,305,PS,exp,37,↑,up,↑,1.8080440999474376,True,18,-1,0,0
Y2-S2-029M24,4,306,PS,exp,31,↓,up,↑,0.6549489999888465,False,18,-1,0,0
Y2-S2-029M24,4,307,PS,exp,44,←,up,↑,0.8370597999310121,False,19,-1,0,0
Y2-S2-029M24,4,308,PS,exp,48,↑,up,↑,0.4339820999884978,True,20,-1,0,0
Y2-S2-029M24,4,309,PS,exp,31,↓,right,→,1.2965391998877749,False,20,-1,0,0
Y2-S2-029M24,4,310,PS,exp,34,→,right,→,0.5850402999203652,True,21,-1,0,0
Y2-S2-029M24,4,311,PS,exp,39,↑,up,↑,0.5243047999683768,True,21,-1,0,0
Y2-S2-029M24,4,312,PS,exp,28,→,right,→,0.5907947000814602,True,21,1,1,1
Y2-S2-029M24,4,313,PS,exp,36,↑,up,↑,0.9341942999744788,True,20,1,0,1
Y2-S2-029M24,4,314,PS,exp,47,←,no_key,no_letter,-1.0,False,20,-1,1,2
Y2-S2-029M24,4,315,PS,exp,36,→,no_key,no_letter,-1.0,False,21,-1,0,2
Y2-S2-029M24,4,316,PS,exp,39,↑,up,↑,0.48410330002661794,True,22,-1,0,2
Y2-S2-029M24,4,317,PS,exp,48,↓,down,↓,0.6400553000858054,True,22,-1,0,2
Y2-S2-029M24,4,318,PS,exp,39,↑,no_key,no_letter,-1.0,False,22,-1,0,2
Y2-S2-029M24,4,319,PS,exp,50,←,no_key,no_letter,-1.0,False,23,-1,0,2
Y2-S2-029M24,4,320,PS,exp,31,→,right,→,0.5171900000423193,True,24,-1,0,2
Y2-S2-029M24,4,321,PS,exp,31,↑,left,←,1.0502946999622509,False,24,-1,0,2
Y2-S2-029M24,4,322,PS,exp,45,↓,down,↓,0.8258122000843287,True,25,-1,0,2
Y2-S2-029M24,4,323,PS,exp,49,←,left,←,0.8817935000406578,True,25,-1,0,2
Y2-S2-029M24,4,324,PS,exp,42,↓,no_key,no_letter,-1.0,False,25,-1,0,2
Y2-S2-029M24,4,325,PS,exp,25,→,down,↓,0.8549067999701947,False,26,-1,0,2
Y2-S2-029M24,4,326,PS,exp,35,↑,up,↑,0.5840405999915674,True,27,-1,0,2
Y2-S2-029M24,4,327,PS,exp,39,↓,up,↑,1.1605149999959394,False,27,-1,0,2
Y2-S2-029M24,4,328,PS,exp,43,↑,up,↑,0.6935502999695018,True,28,-1,0,2
Y2-S2-029M24,4,329,PS,exp,39,↓,down,↓,0.9219225998967886,True,28,-1,0,2
Y2-S2-029M24,4,330,PS,exp,28,↑,up,↑,0.8760664999717847,True,28,1,1,3
Y2-S2-029M24,4,331,PS,exp,38,←,left,←,0.6183940999908373,True,27,1,0,3
Y2-S2-029M24,4,332,PS,exp,44,↓,up,↑,1.2118280000286177,False,27,-1,1,4
Y2-S2-029M24,4,333,PS,exp,27,←,up,↑,1.6764311000006273,False,28,-1,0,4
Y2-S2-029M24,4,334,PS,exp,26,→,left,←,0.8056336001027375,False,29,-1,0,4
Y2-S2-029M24,4,335,PS,exp,28,↑,no_key,no_letter,-1.0,False,30,-1,0,4
Y2-S2-029M24,4,336,PS,exp,41,→,right,→,1.584746600012295,True,31,-1,0,4
Y2-S2-029M24,4,337,PS,exp,40,←,no_key,no_letter,-1.0,False,31,-1,0,4
Y2-S2-029M24,4,338,PS,exp,33,↑,up,↑,0.7387342000147328,True,32,-1,0,4
Y2-S2-029M24,4,339,PS,exp,25,←,no_key,no_letter,-1.0,False,32,-1,0,4
Y2-S2-029M24,4,340,PS,exp,37,→,right,→,0.6503422999521717,True,33,-1,0,4
Y2-S2-029M24,4,341,PS,exp,27,↓,down,↓,0.5507807000540197,True,33,-1,0,4
Y2-S2-029M24,4,342,PS,exp,45,↑,up,↑,0.8203679999569431,True,33,1,1,5
Y2-S2-029M24,4,343,PS,exp,48,→,right,→,0.5172302999999374,True,32,1,0,5
Y2-S2-029M24,4,344,PS,exp,50,↓,down,↓,0.5674883000319824,True,32,1,0,5
Y2-S2-029M24,4,345,PS,exp,50,→,right,→,0.5171819999814034,True,32,1,0,5
Y2-S2-029M24,4,346,PS,exp,47,←,left,←,0.5174247000832111,True,31,1,0,5
Y2-S2-029M24,4,347,PS,exp,29,↓,down,↓,0.5677779000252485,True,31,1,0,5
Y2-S2-029M24,4,348,PS,exp,40,←,left,←,0.5508229999104515,True,31,1,0,5
Y2-S2-029M24,4,349,PS,exp,28,→,right,→,0.43422430008649826,True,30,1,0,5
Y2-S2-029M24,4,350,PS,exp,30,↑,up,↑,0.4343972000060603,True,30,1,0,5
Y2-S2-029M24,4,351,PS,exp,33,←,left,←,0.48401410004589707,True,30,1,0,5
Y2-S2-029M24,4,352,PS,exp,28,↑,up,↑,0.5506240999093279,True,29,1,0,5
Y2-S2-029M24,4,353,PS,exp,27,→,right,→,0.5007552000461146,True,29,1,0,5
Y2-S2-029M24,4,354,PS,exp,26,↑,up,↑,0.46721109992358834,True,29,1,0,5
Y2-S2-029M24,4,355,PS,exp,25,→,right,→,0.6347507999744266,True,28,1,0,5
Y2-S2-029M24,4,356,PS,exp,38,↑,up,↑,0.4507171999430284,True,28,1,0,5
Y2-S2-029M24,4,357,PS,exp,39,←,left,←,1.0168920999858528,True,28,1,0,5
Y2-S2-029M24,4,358,PS,exp,30,→,no_key,no_letter,-1.0,False,27,-1,1,6
Y2-S2-029M24,4,359,PS,exp,46,↓,down,↓,0.6004571999656036,True,28,-1,0,6
Y2-S2-029M24,4,360,PS,exp,28,←,left,←,0.5837798999855295,True,28,-1,0,6
Y2-S2-029M24,4,361,PS,exp,27,→,right,→,0.5004195999354124,True,28,1,1,7
Y2-S2-029M24,4,362,PS,exp,41,←,left,←,0.4675860999850556,True,27,1,0,7
Y2-S2-029M24,4,363,PS,exp,45,↓,down,↓,0.5672719000140205,True,27,1,0,7
Y2-S2-029M24,4,364,PS,exp,32,↑,left,←,1.3923288999358192,False,27,-1,1,8
Y2-S2-029M24,4,365,PS,exp,30,→,right,→,0.5174751000013202,True,28,-1,0,8
Y2-S2-029M24,4,366,PS,exp,42,↑,up,↑,1.1075185000663623,True,28,-1,0,8
Y2-S2-029M24,4,367,PS,exp,48,↓,down,↓,0.8510902000125498,True,28,1,1,9
Y2-S2-029M24,4,368,PS,exp,34,→,right,→,0.48379600001499057,True,27,1,0,9
Y2-S2-029M24,4,369,PS,exp,44,←,left,←,0.644206199911423,True,27,1,0,9
Y2-S2-029M24,4,370,PS,exp,31,→,right,→,0.3845665999688208,True,27,1,0,9
Y2-S2-029M24,4,371,PS,exp,30,↓,right,→,0.6366422999417409,False,26,-1,1,10
Y2-S2-029M24,4,372,PS,exp,38,→,right,→,0.5841129999607801,True,27,-1,0,10
Y2-S2-029M24,4,373,PS,exp,36,↑,right,→,1.0310926999663934,False,27,-1,0,10
Y2-S2-029M24,4,374,PS,exp,36,←,left,←,0.5839055000105873,True,28,-1,0,10
Y2-S2-029M24,4,375,PS,exp,41,→,right,→,0.8253898000111803,True,28,-1,0,10
Y2-S2-029M24,4,376,PS,exp,40,↓,down,↓,0.5671742999693379,True,28,1,1,11
Y2-S2-029M24,4,377,PS,exp,40,←,left,←,0.7925957000115886,True,27,1,0,11
Y2-S2-029M24,4,378,PS,exp,29,↓,no_key,no_letter,-1.0,False,27,-1,1,12
Y2-S2-029M24,4,379,PS,exp,33,←,left,←,0.7092205999651924,True,28,-1,0,12
Y2-S2-029M24,4,380,PS,exp,30,↓,down,↓,0.8757940999930725,True,28,-1,0,12
Y2-S2-029M24,4,381,PS,exp,38,←,no_key,no_letter,-1.0,False,28,-1,0,12
Y2-S2-029M24,4,382,PS,exp,35,↑,down,↓,0.8839756000088528,False,29,-1,0,12
Y2-S2-029M24,4,383,PS,exp,49,←,left,←,0.5506966999964789,True,30,-1,0,12
Y2-S2-029M24,4,384,PS,exp,25,↓,down,↓,0.8520765999564901,True,30,-1,0,12
Y2-S2-029M24,4,385,PS,exp,30,→,right,→,0.8095270999474451,True,30,1,1,13
Y2-S2-029M24,4,386,PS,exp,26,↓,no_key,no_letter,-1.0,False,29,-1,1,14
Y2-S2-029M24,4,387,PS,exp,26,→,right,→,0.7950392999919131,True,30,-1,0,14
Y2-S2-029M24,4,388,PS,exp,41,↓,down,↓,0.5010161999380216,True,30,-1,0,14
Y2-S2-029M24,4,389,PS,exp,45,→,right,→,0.7582583000184968,True,30,1,1,15
Y2-S2-029M24,4,390,PS,exp,49,←,left,←,0.5836430001072586,True,29,1,0,15
Y2-S2-029M24,4,391,PS,exp,48,↓,down,↓,0.5845079000573605,True,29,1,0,15
Y2-S2-029M24,4,392,PS,exp,41,↑,up,↑,0.712513400008902,True,29,1,0,15
Y2-S2-029M24,4,393,PS,exp,35,→,right,→,0.46736759995110333,True,28,1,0,15
Y2-S2-029M24,4,394,PS,exp,39,←,left,←,0.5006968999514356,True,28,1,0,15
Y2-S2-029M24,4,395,PS,exp,27,↑,no_key,no_letter,-1.0,False,28,-1,1,16
Y2-S2-029M24,5,396,PS,intra_train,48,↓,down,↓,0.5963592999614775,True,16,-,-,-
Y2-S2-029M24,5,397,PS,intra_train,50,←,left,←,0.586810200009495,True,16,-,-,-
Y2-S2-029M24,5,398,PS,intra_train,28,↓,down,↓,0.601724199950695,True,16,-,-,-
Y2-S2-029M24,5,399,PS,intra_train,45,←,left,←,0.4636550999712199,True,16,-,-,-
Y2-S2-029M24,5,400,PS,intra_train,39,↓,down,↓,0.6335963000310585,True,16,-,-,-
Y2-S2-029M24,5,401,PS,exp,41,↑,up,↑,0.5525967000285164,True,11,0,0,0
Y2-S2-029M24,5,402,PS,exp,27,→,right,→,0.5007677000248805,True,11,0,0,0
Y2-S2-029M24,5,403,PS,exp,47,↑,up,↑,0.45187370001804084,True,11,1,0,0
Y2-S2-029M24,5,404,PS,exp,35,↓,right,→,0.6664404000621289,False,10,-1,1,1
Y2-S2-029M24,5,405,PS,exp,48,↑,up,↑,0.44753800006583333,True,11,-1,0,1
Y2-S2-029M24,5,406,PS,exp,36,←,left,←,0.5496963999466971,True,11,-1,0,1
Y2-S2-029M24,5,407,PS,exp,32,↑,right,→,0.5020786999957636,False,11,-1,0,1
Y2-S2-029M24,5,408,PS,exp,29,→,right,→,0.47709399997256696,True,12,-1,0,1
Y2-S2-029M24,5,409,PS,exp,32,↑,up,↑,0.497676600003615,True,12,-1,0,1
Y2-S2-029M24,5,410,PS,exp,42,↓,right,→,0.5918143000453711,False,12,-1,0,1
Y2-S2-029M24,5,411,PS,exp,39,←,left,←,0.8395622000098228,True,13,-1,0,1
Y2-S2-029M24,5,412,PS,exp,29,↓,right,→,0.7992888999870047,False,13,-1,0,1
Y2-S2-029M24,5,413,PS,exp,36,↑,up,↑,0.4629757000366226,True,14,-1,0,1
Y2-S2-029M24,5,414,PS,exp,34,↓,down,↓,0.9666547999950126,True,14,-1,0,1
Y2-S2-029M24,5,415,PS,exp,27,→,right,→,0.4515441000694409,True,14,1,1,2
Y2-S2-029M24,5,416,PS,exp,25,↓,up,↑,1.0551415999652818,False,13,-1,1,3
Y2-S2-029M24,5,417,PS,exp,43,↑,right,→,0.5516049000434577,False,14,-1,0,3
Y2-S2-029M24,5,418,PS,exp,47,←,left,←,0.6274086999474093,True,15,-1,0,3
Y2-S2-029M24,5,419,PS,exp,43,↓,down,↓,0.6894663999555632,True,15,-1,0,3
Y2-S2-029M24,5,420,PS,exp,34,↑,up,↑,0.5035566999576986,True,15,1,1,4
Y2-S2-029M24,5,421,PS,exp,30,←,right,→,1.0591172999702394,False,14,-1,1,5
Y2-S2-029M24,5,422,PS,exp,35,↑,up,↑,0.6073522999649867,True,15,-1,0,5
Y2-S2-029M24,5,423,PS,exp,44,↓,down,↓,0.6208549999864772,True,15,-1,0,5
Y2-S2-029M24,5,424,PS,exp,30,↑,up,↑,0.485708300024271,True,15,1,1,6
Y2-S2-029M24,5,425,PS,exp,34,↓,down,↓,0.7083542000036687,True,14,1,0,6
Y2-S2-029M24,5,426,PS,exp,38,↑,up,↑,0.5140938999829814,True,14,1,0,6
Y2-S2-029M24,5,427,PS,exp,39,←,up,↑,0.8299054000526667,False,14,-1,1,7
Y2-S2-029M24,5,428,PS,exp,50,→,right,→,0.6344790000002831,True,15,-1,0,7
Y2-S2-029M24,5,429,PS,exp,39,↓,down,↓,0.5683118000160903,True,15,-1,0,7
Y2-S2-029M24,5,430,PS,exp,25,↑,up,↑,0.6289762000087649,True,15,1,1,8
Y2-S2-029M24,5,431,PS,exp,49,→,up,↑,0.7667106000008062,False,14,-1,1,9
Y2-S2-029M24,5,432,PS,exp,36,←,right,→,0.9261482999427244,False,15,-1,0,9
Y2-S2-029M24,5,433,PS,exp,36,↓,up,↑,0.8774612999986857,False,16,-1,0,9
Y2-S2-029M24,5,434,PS,exp,29,↑,up,↑,0.5293424999108538,True,17,-1,0,9
Y2-S2-029M24,5,435,PS,exp,38,↓,up,↑,1.9386763999937102,False,17,-1,0,9
Y2-S2-029M24,5,436,PS,exp,36,→,right,→,0.5692721999948844,True,18,-1,0,9
Y2-S2-029M24,5,437,PS,exp,49,←,left,←,0.6525060000130907,True,18,-1,0,9
Y2-S2-029M24,5,438,PS,exp,37,↓,down,↓,0.6147456000326201,True,18,1,1,10
Y2-S2-029M24,5,439,PS,exp,27,←,left,←,0.6153252000221983,True,17,1,0,10
Y2-S2-029M24,5,440,PS,exp,25,↓,down,↓,0.607215299969539,True,17,1,0,10
Y2-S2-029M24,5,441,PS,exp,42,←,left,←,0.5376609000377357,True,17,1,0,10
Y2-S2-029M24,5,442,PS,exp,36,↑,up,↑,0.45006009994540364,True,16,1,0,10
Y2-S2-029M24,5,443,PS,exp,47,→,right,→,0.45967709994874895,True,16,1,0,10
Y2-S2-029M24,5,444,PS,exp,28,↓,down,↓,0.5524173999438062,True,16,1,0,10
Y2-S2-029M24,5,445,PS,exp,40,←,left,←,0.5315568000078201,True,15,1,0,10
Y2-S2-029M24,5,446,PS,exp,33,↑,up,↑,0.5817973000230268,True,15,1,0,10
Y2-S2-029M24,5,447,PS,exp,40,←,left,←,0.4842617999529466,True,15,1,0,10
Y2-S2-029M24,5,448,PS,exp,25,→,right,→,0.5388387000421062,True,14,1,0,10
Y2-S2-029M24,5,449,PS,exp,36,←,right,→,0.6456183000700548,False,14,-1,1,11
Y2-S2-029M24,5,450,PS,exp,25,↓,down,↓,0.5498499000677839,True,15,-1,0,11
Y2-S2-029M24,5,451,PS,exp,38,←,left,←,0.6177694000070915,True,15,-1,0,11
Y2-S2-029M24,5,452,PS,exp,36,→,left,←,0.619272300042212,False,15,-1,0,11
Y2-S2-029M24,5,453,PS,exp,50,↓,down,↓,0.5615289999404922,True,16,-1,0,11
Y2-S2-029M24,5,454,PS,exp,47,←,left,←,0.5178332000505179,True,16,-1,0,11
Y2-S2-029M24,5,455,PS,exp,39,↓,down,↓,0.5597343000117689,True,16,1,1,12
Y2-S2-029M24,5,456,PS,exp,33,←,left,←,0.5295200999826193,True,15,1,0,12
Y2-S2-029M24,5,457,PS,exp,44,↓,right,→,0.4989103999687359,False,15,-1,1,13
Y2-S2-029M24,5,458,PS,exp,31,→,right,→,1.2883074000710621,True,16,-1,0,13
Y2-S2-029M24,5,459,PS,exp,31,↑,left,←,0.48717480001505464,False,16,-1,0,13
Y2-S2-029M24,5,460,PS,exp,50,↓,down,↓,0.6261148999910802,True,17,-1,0,13
Y2-S2-029M24,5,461,PS,exp,36,↑,up,↑,0.5975868999958038,True,17,-1,0,13
Y2-S2-029M24,5,462,PS,exp,38,→,right,→,0.4734257999807596,True,17,1,1,14
Y2-S2-029M24,5,463,PS,exp,50,↑,up,↑,0.523742499994114,True,16,1,0,14
Y2-S2-029M24,5,464,PS,exp,36,→,right,→,0.5029399000341073,True,16,1,0,14
Y2-S2-029M24,5,465,PS,exp,47,←,left,←,0.6146520000183955,True,16,1,0,14
Y2-S2-029M24,5,466,PS,exp,36,↓,up,↑,0.38383060006890446,False,15,-1,1,15
Y2-S2-029M24,5,467,PS,exp,47,→,left,←,0.49565239995718,False,16,-1,0,15
Y2-S2-029M24,5,468,PS,exp,33,←,right,→,0.5506610000738874,False,17,-1,0,15
Y2-S2-029M24,5,469,PS,exp,26,↑,up,↑,0.5567713000345975,True,18,-1,0,15
Y2-S2-029M24,5,470,PS,exp,47,↓,up,↑,0.7484985000919551,False,18,-1,0,15
Y2-S2-029M24,5,471,PS,exp,44,↑,up,↑,0.8060388000449166,True,19,-1,0,15
Y2-S2-029M24,5,472,PS,exp,36,←,left,←,0.9817025000229478,True,19,-1,0,15
Y2-S2-029M24,5,473,PS,exp,48,↑,up,↑,0.6016830999869853,True,19,1,1,16
Y2-S2-029M24,6,474,AS,intra_train,31,←,right,→,1.3282193000195548,False,36,-,-,-
Y2-S2-029M24,6,475,AS,intra_train,47,→,right,→,0.6006024000234902,True,36,-,-,-
Y2-S2-029M24,6,476,AS,intra_train,37,↑,up,↑,0.5677210999419913,True,36,-,-,-
Y2-S2-029M24,6,477,AS,intra_train,37,←,left,←,0.6511606000130996,True,36,-,-,-
Y2-S2-029M24,6,478,AS,intra_train,34,↑,right,→,0.25091059994883835,False,36,-,-,-
Y2-S2-029M24,6,479,AS,exp,37,←,left,←,0.5173117999220267,True,24,0,0,0
Y2-S2-029M24,6,480,AS,exp,37,→,right,→,0.8190291000064462,True,24,0,0,0
Y2-S2-029M24,6,481,AS,exp,33,↓,up,↑,0.8902926999144256,False,24,-1,0,0
Y2-S2-029M24,6,482,AS,exp,26,↑,no_key,no_letter,-1.0,False,25,-1,0,0
Y2-S2-029M24,6,483,AS,exp,30,←,left,←,0.7744472000049427,True,26,-1,0,0
Y2-S2-029M24,6,484,AS,exp,38,↓,down,↓,0.7568571999436244,True,26,-1,0,0
Y2-S2-029M24,6,485,AS,exp,49,↑,up,↑,0.8483047999907285,True,26,1,1,1
Y2-S2-029M24,6,486,AS,exp,50,→,right,→,0.5174152000108734,True,25,1,0,1
Y2-S2-029M24,6,487,AS,exp,31,←,no_key,no_letter,-1.0,False,25,-1,1,2
Y2-S2-029M24,6,488,AS,exp,40,↑,right,→,0.9847938999300823,False,26,-1,0,2
Y2-S2-029M24,6,489,AS,exp,44,↓,down,↓,0.9049046000000089,True,27,-1,0,2
Y2-S2-029M24,6,490,AS,exp,27,→,left,←,1.2395028999308124,False,27,-1,0,2
Y2-S2-029M24,6,491,AS,exp,30,↓,right,→,1.0258059999905527,False,28,-1,0,2
Y2-S2-029M24,6,492,AS,exp,40,↑,no_key,no_letter,-1.0,False,29,-1,0,2
Y2-S2-029M24,6,493,AS,exp,37,↓,right,→,1.2451860000146553,False,30,-1,0,2
Y2-S2-029M24,6,494,AS,exp,41,↑,up,↑,0.8360720000928268,True,31,-1,0,2
Y2-S2-029M24,6,495,AS,exp,26,→,right,→,0.723634000052698,True,31,-1,0,2
Y2-S2-029M24,6,496,AS,exp,27,↓,down,↓,0.9301200999179855,True,31,1,1,3
Y2-S2-029M24,6,497,AS,exp,50,←,left,←,0.8710622999351472,True,30,1,0,3
Y2-S2-029M24,6,498,AS,exp,38,↑,up,↑,0.7641240999801084,True,30,1,0,3
Y2-S2-029M24,6,499,AS,exp,39,→,no_key,no_letter,-1.0,False,30,-1,1,4
Y2-S2-029M24,6,500,AS,exp,44,↓,down,↓,0.7961580000119284,True,31,-1,0,4
Y2-S2-029M24,6,501,AS,exp,25,→,right,→,1.0264298999682069,True,31,-1,0,4
Y2-S2-029M24,6,502,AS,exp,31,←,left,←,0.6938339000334963,True,31,1,1,5
Y2-S2-029M24,6,503,AS,exp,39,↑,up,↑,1.469510699971579,True,30,1,0,5
Y2-S2-029M24,6,504,AS,exp,31,←,left,←,1.023570999968797,True,30,1,0,5
Y2-S2-029M24,6,505,AS,exp,40,↓,right,→,2.1484273999230936,False,30,-1,1,6
Y2-S2-029M24,6,506,AS,exp,36,→,right,→,0.6012721000006422,True,31,-1,0,6
Y2-S2-029M24,6,507,AS,exp,39,↑,up,↑,0.876485800021328,True,31,-1,0,6
Y2-S2-029M24,6,508,AS,exp,47,↓,down,↓,0.9256367000052705,True,31,1,1,7
Y2-S2-029M24,6,509,AS,exp,25,↑,left,←,0.9438078000675887,False,30,-1,1,8
Y2-S2-029M24,6,510,AS,exp,26,←,left,←,0.768008999992162,True,31,-1,0,8
Y2-S2-029M24,6,511,AS,exp,50,→,right,→,0.7168222999898717,True,31,-1,0,8
Y2-S2-029M24,6,512,AS,exp,37,↑,up,↑,0.9732842000667006,True,31,1,1,9
Y2-S2-029M24,6,513,AS,exp,26,↓,right,→,1.4020708999596536,False,30,-1,1,10
Y2-S2-029M24,6,514,AS,exp,50,←,right,→,0.7388860000064597,False,31,-1,0,10
Y2-S2-029M24,6,515,AS,exp,31,↓,no_key,no_letter,-1.0,False,32,-1,0,10
Y2-S2-029M24,6,516,AS,exp,37,↑,up,↑,0.9484397999476641,True,33,-1,0,10
Y2-S2-029M24,6,517,AS,exp,37,↓,down,↓,0.7715391999809071,True,33,-1,0,10
Y2-S2-029M24,6,518,AS,exp,42,↑,up,↑,1.0714598998893052,True,33,1,1,11
Y2-S2-029M24,6,519,AS,exp,35,←,right,→,0.7972513999557123,False,32,-1,1,12
Y2-S2-029M24,6,520,AS,exp,50,→,no_key,no_letter,-1.0,False,33,-1,0,12
Y2-S2-029M24,6,521,AS,exp,31,↑,up,↑,0.9331254999851808,True,34,-1,0,12
Y2-S2-029M24,6,522,AS,exp,38,↓,down,↓,0.7685045000398532,True,34,-1,0,12
Y2-S2-029M24,6,523,AS,exp,43,→,right,→,0.7727918999735266,True,34,1,1,13
Y2-S2-029M24,6,524,AS,exp,44,↓,down,↓,0.8005599000025541,True,33,1,0,13
Y2-S2-029M24,6,525,AS,exp,30,←,left,←,0.9567928001051769,True,33,1,0,13
Y2-S2-029M24,6,526,AS,exp,45,↓,down,↓,0.8962845000205562,True,33,1,0,13
Y2-S2-029M24,6,527,AS,exp,35,→,no_key,no_letter,-1.0,False,32,-1,1,14
Y2-S2-029M24,6,528,AS,exp,26,↓,down,↓,1.3181142000248656,True,33,-1,0,14
Y2-S2-029M24,6,529,AS,exp,46,↑,up,↑,1.0604033999843523,True,33,-1,0,14
Y2-S2-029M24,6,530,AS,exp,49,←,up,↑,1.3284562999615446,False,33,-1,0,14
Y2-S2-029M24,6,531,AS,exp,41,↓,down,↓,0.8750423999736086,True,34,-1,0,14
Y2-S2-029M24,6,532,AS,exp,47,↑,up,↑,0.7872242000885308,True,34,-1,0,14
Y2-S2-029M24,6,533,AS,exp,41,←,left,←,0.825135700055398,True,34,1,1,15
Y2-S2-029M24,6,534,AS,exp,27,↑,up,↑,0.6338416999205947,True,33,1,0,15
Y2-S2-029M24,6,535,AS,exp,41,→,right,→,0.6004687000531703,True,33,1,0,15
Y2-S2-029M24,6,536,AS,exp,28,↓,up,↑,0.9679281000280753,False,33,-1,1,16
Y2-S2-029M24,7,537,AS,intra_train,43,←,left,←,0.4508608999894932,True,36,-,-,-
Y2-S2-029M24,7,538,AS,intra_train,47,↑,up,↑,2.193075399962254,True,36,-,-,-
Y2-S2-029M24,7,539,AS,intra_train,41,←,left,←,0.7004556999308988,True,36,-,-,-
Y2-S2-029M24,7,540,AS,intra_train,26,↑,no_key,no_letter,-1.0,False,36,-,-,-
Y2-S2-029M24,7,541,AS,intra_train,25,↓,down,↓,0.8789516999386251,True,36,-,-,-
Y2-S2-029M24,7,542,AS,exp,33,→,right,→,0.7994428999954835,True,24,0,0,0
Y2-S2-029M24,7,543,AS,exp,35,↓,right,→,0.8686881999019533,False,24,-1,0,0
Y2-S2-029M24,7,544,AS,exp,37,↑,down,↓,0.7443612999049947,False,25,-1,0,0
Y2-S2-029M24,7,545,AS,exp,46,↓,down,↓,0.6893078999128193,True,26,-1,0,0
Y2-S2-029M24,7,546,AS,exp,37,←,no_key,no_letter,-1.0,False,26,-1,0,0
Y2-S2-029M24,7,547,AS,exp,30,↑,up,↑,0.8450755000812933,True,27,-1,0,0
Y2-S2-029M24,7,548,AS,exp,44,→,right,→,0.7411180000053719,True,27,-1,0,0
Y2-S2-029M24,7,549,AS,exp,28,←,left,←,0.861264800070785,True,27,1,1,1
Y2-S2-029M24,7,550,AS,exp,35,→,no_key,no_letter,-1.0,False,26,-1,1,2
Y2-S2-029M24,7,551,AS,exp,44,↓,down,↓,0.9788900999119505,True,27,-1,0,2
Y2-S2-029M24,7,552,AS,exp,41,↑,up,↑,0.8152733000461012,True,27,-1,0,2
Y2-S2-029M24,7,553,AS,exp,25,→,no_key,no_letter,-1.0,False,27,-1,0,2
Y2-S2-029M24,7,554,AS,exp,37,←,left,←,0.00109629996586591,True,28,-1,0,2
Y2-S2-029M24,7,555,AS,exp,44,↑,no_key,no_letter,-1.0,False,28,-1,0,2
Y2-S2-029M24,7,556,AS,exp,49,←,no_key,no_letter,-1.0,False,29,-1,0,2
Y2-S2-029M24,7,557,AS,exp,48,↑,up,↑,0.7331632999703288,True,30,-1,0,2
Y2-S2-029M24,7,558,AS,exp,28,←,left,←,0.7594884000718594,True,30,-1,0,2
Y2-S2-029M24,7,559,AS,exp,25,↓,down,↓,0.9505553999915719,True,30,1,1,3
Y2-S2-029M24,7,560,AS,exp,41,↑,up,↑,0.5338905999669805,True,29,1,0,3
Y2-S2-029M24,7,561,AS,exp,42,↓,down,↓,0.8547199000604451,True,29,1,0,3
Y2-S2-029M24,7,562,AS,exp,41,←,left,←,0.48387360002379864,True,29,1,0,3
Y2-S2-029M24,7,563,AS,exp,46,→,right,→,0.550340999965556,True,28,1,0,3
Y2-S2-029M24,7,564,AS,exp,38,↑,up,↑,0.5674083000048995,True,28,1,0,3
Y2-S2-029M24,7,565,AS,exp,47,←,left,←,0.4837435999652371,True,28,1,0,3
Y2-S2-029M24,7,566,AS,exp,48,↓,down,↓,0.8839196000481024,True,27,1,0,3
Y2-S2-029M24,7,567,AS,exp,45,↑,up,↑,0.740936900023371,True,27,1,0,3
Y2-S2-029M24,7,568,AS,exp,41,←,left,←,0.688458799966611,True,27,1,0,3
Y2-S2-029M24,7,569,AS,exp,31,↑,up,↑,2.0009897999698296,True,26,1,0,3
Y2-S2-029M24,7,570,AS,exp,27,↓,down,↓,0.7894892999902368,True,26,1,0,3
Y2-S2-029M24,7,571,AS,exp,26,→,no_key,no_letter,-1.0,False,26,-1,1,4
Y2-S2-029M24,7,572,AS,exp,34,↓,down,↓,0.5005612999666482,True,27,-1,0,4
Y2-S2-029M24,7,573,AS,exp,41,←,left,←,0.7720515000401065,True,27,-1,0,4
Y2-S2-029M24,7,574,AS,exp,30,↓,down,↓,0.7059899000450969,True,27,1,1,5
Y2-S2-029M24,7,575,AS,exp,34,→,no_key,no_letter,-1.0,False,26,-1,1,6
Y2-S2-029M24,7,576,AS,exp,46,←,left,←,1.1023717999923974,True,27,-1,0,6
Y2-S2-029M24,7,577,AS,exp,25,→,right,→,0.7307403000304475,True,27,-1,0,6
Y2-S2-029M24,7,578,AS,exp,26,↑,no_key,no_letter,-1.0,False,27,-1,0,6
Y2-S2-029M24,7,579,AS,exp,42,→,left,←,0.957961400039494,False,28,-1,0,6
Y2-S2-029M24,7,580,AS,exp,30,↑,up,↑,0.7257316999603063,True,29,-1,0,6
Y2-S2-029M24,7,581,AS,exp,47,←,left,←,0.911963599966839,True,29,-1,0,6
Y2-S2-029M24,7,582,AS,exp,32,↓,up,↑,1.9353380999527872,False,29,-1,0,6
Y2-S2-029M24,7,583,AS,exp,50,←,right,→,0.8130670000100508,False,30,-1,0,6
Y2-S2-029M24,7,584,AS,exp,25,↑,down,↓,0.8400533999083564,False,31,-1,0,6
Y2-S2-029M24,7,585,AS,exp,36,→,right,→,0.7528263999847695,True,32,-1,0,6
Y2-S2-029M24,7,586,AS,exp,41,←,left,←,1.6120745999505743,True,32,-1,0,6
Y2-S2-029M24,7,587,AS,exp,31,↓,up,↑,1.34949960000813,False,32,-1,0,6
Y2-S2-029M24,7,588,AS,exp,33,←,no_key,no_letter,-1.0,False,33,-1,0,6
Y2-S2-029M24,7,589,AS,exp,33,↑,up,↑,0.517610099981539,True,34,-1,0,6
Y2-S2-029M24,7,590,AS,exp,30,↓,down,↓,0.9502208000048995,True,34,-1,0,6
Y2-S2-029M24,7,591,AS,exp,27,←,left,←,0.6674556999932975,True,34,1,1,7
Y2-S2-029M24,7,592,AS,exp,34,↓,no_key,no_letter,-1.0,False,33,-1,1,8
Y2-S2-029M24,7,593,AS,exp,39,→,right,→,0.9366394999669865,True,34,-1,0,8
Y2-S2-029M24,7,594,AS,exp,28,↑,up,↑,0.9462760000023991,True,34,-1,0,8
Y2-S2-029M24,7,595,AS,exp,45,←,left,←,0.6342036999994889,True,34,1,1,9
Y2-S2-029M24,7,596,AS,exp,29,↑,up,↑,0.7829461001092568,True,33,1,0,9
Y2-S2-029M24,7,597,AS,exp,46,↓,down,↓,0.6842470999108627,True,33,1,0,9
Y2-S2-029M24,7,598,AS,exp,45,→,right,→,0.6338407000293955,True,33,1,0,9
Y2-S2-029M24,7,599,AS,exp,47,↓,no_key,no_letter,-1.0,False,32,-1,1,10
Y2-S2-029M24,7,600,AS,exp,48,→,right,→,0.43441600003279746,True,33,-1,0,10
Y2-S2-029M24,7,601,AS,exp,40,↓,down,↓,0.8070080000907183,True,33,-1,0,10
Y2-S2-029M24,7,602,AS,exp,36,→,up,↑,0.8708875000011176,False,33,-1,0,10
Y2-S2-029M24,7,603,AS,exp,40,↓,down,↓,0.9701951000606641,True,34,-1,0,10
Y2-S2-029M24,7,604,AS,exp,49,↑,up,↑,0.5496922999154776,True,34,-1,0,10
Y2-S2-029M24,7,605,AS,exp,46,←,left,←,0.5837752999505028,True,34,1,1,11
Y2-S2-029M24,7,606,AS,exp,29,↓,no_key,no_letter,-1.0,False,33,-1,1,12
Y2-S2-029M24,7,607,AS,exp,49,↑,up,↑,0.9531852999934927,True,34,-1,0,12
Y2-S2-029M24,7,608,AS,exp,25,←,left,←,0.534358200035058,True,34,-1,0,12
Y2-S2-029M24,7,609,AS,exp,50,↓,up,↑,0.8455084000015631,False,34,-1,0,12
Y2-S2-029M24,7,610,AS,exp,31,↑,down,↓,0.7002836999017745,False,35,-1,0,12
Y2-S2-029M24,7,611,AS,exp,27,↓,down,↓,0.8021314000943676,True,36,-1,0,12
Y2-S2-029M24,7,612,AS,exp,39,↑,up,↑,0.7008813000284135,True,36,-1,0,12
Y2-S2-029M24,7,613,AS,exp,34,→,right,→,0.7171406999696046,True,36,1,1,13
Y2-S2-029M24,7,614,AS,exp,47,↓,down,↓,0.5011469000019133,True,35,1,0,13
Y2-S2-029M24,7,615,AS,exp,35,←,left,←,0.895059600006789,True,35,1,0,13
Y2-S2-029M24,7,616,AS,exp,42,↑,up,↑,0.7170465999515727,True,35,1,0,13
Y2-S2-029M24,7,617,AS,exp,44,→,left,←,0.7975004001054913,False,34,-1,1,14
Y2-S2-029M24,7,618,AS,exp,32,↑,up,↑,0.6505034000147134,True,35,-1,0,14
Y2-S2-029M24,7,619,AS,exp,43,↓,down,↓,0.9268665000563487,True,35,-1,0,14
Y2-S2-029M24,7,620,AS,exp,31,←,left,←,1.3515002001076937,True,35,1,1,15
Y2-S2-029M24,7,621,AS,exp,25,↑,up,↑,0.9016813000198454,True,34,1,0,15
Y2-S2-029M24,7,622,AS,exp,49,→,no_key,no_letter,-1.0,False,34,-1,1,16
Y2-S2-029M24,8,623,PS,intra_train,47,↓,down,↓,0.6537952000508085,True,16,-,-,-
Y2-S2-029M24,8,624,PS,intra_train,43,←,left,←,0.6617211999837309,True,16,-,-,-
Y2-S2-029M24,8,625,PS,intra_train,42,↑,up,↑,0.5279582999646664,True,16,-,-,-
Y2-S2-029M24,8,626,PS,intra_train,47,↓,down,↓,0.6087293999735266,True,16,-,-,-
Y2-S2-029M24,8,627,PS,intra_train,45,→,right,→,0.473766699898988,True,16,-,-,-
Y2-S2-029M24,8,628,PS,exp,35,↓,down,↓,0.7719870000146329,True,11,0,0,0
Y2-S2-029M24,8,629,PS,exp,40,←,left,←,0.581655599991791,True,11,0,0,0
Y2-S2-029M24,8,630,PS,exp,38,→,left,←,0.5047391999978572,False,11,-1,0,0
Y2-S2-029M24,8,631,PS,exp,30,↓,down,↓,0.5411476999288425,True,12,-1,0,0
Y2-S2-029M24,8,632,PS,exp,49,←,right,→,0.7273598000174388,False,12,-1,0,0
Y2-S2-029M24,8,633,PS,exp,26,↑,up,↑,0.6168609999585897,True,13,-1,0,0
Y2-S2-029M24,8,634,PS,exp,35,→,right,→,0.4120053999358788,True,13,-1,0,0
Y2-S2-029M24,8,635,PS,exp,37,↑,up,↑,0.5678420000476763,True,13,1,1,1
Y2-S2-029M24,8,636,PS,exp,28,↓,right,→,0.8539085999364033,False,12,-1,1,2
Y2-S2-029M24,8,637,PS,exp,29,↑,up,↑,0.46577150002121925,True,13,-1,0,2
Y2-S2-029M24,8,638,PS,exp,31,→,right,→,0.7017284000758082,True,13,-1,0,2
Y2-S2-029M24,8,639,PS,exp,26,↓,up,↑,0.7235293999547139,False,13,-1,0,2
Y2-S2-029M24,8,640,PS,exp,38,→,right,→,0.6225409000180662,True,14,-1,0,2
Y2-S2-029M24,8,641,PS,exp,31,←,left,←,0.47616219997871667,True,14,-1,0,2
Y2-S2-029M24,8,642,PS,exp,42,→,right,→,0.4629850999917835,True,14,1,1,3
Y2-S2-029M24,8,643,PS,exp,37,↓,down,↓,0.5507028999272734,True,13,1,0,3
Y2-S2-029M24,8,644,PS,exp,34,→,right,→,0.441899299970828,True,13,1,0,3
Y2-S2-029M24,8,645,PS,exp,28,↓,down,↓,0.5390811000252143,True,13,1,0,3
Y2-S2-029M24,8,646,PS,exp,29,←,left,←,0.47291079990100116,True,12,1,0,3
Y2-S2-029M24,8,647,PS,exp,30,↑,left,←,0.7845140999415889,False,12,-1,1,4
Y2-S2-029M24,8,648,PS,exp,33,←,left,←,0.5139776000287384,True,13,-1,0,4
Y2-S2-029M24,8,649,PS,exp,49,↑,up,↑,0.4634288999950513,True,13,-1,0,4
Y2-S2-029M24,8,650,PS,exp,49,←,left,←,0.4931736000580713,True,13,1,1,5
Y2-S2-029M24,8,651,PS,exp,49,↓,down,↓,0.6550437000114471,True,12,1,0,5
Y2-S2-029M24,8,652,PS,exp,31,←,left,←,0.4704872000729665,True,12,1,0,5
Y2-S2-029M24,8,653,PS,exp,34,↓,right,→,0.5169502000790089,False,12,-1,1,6
Y2-S2-029M24,8,654,PS,exp,35,←,left,←,0.464131599990651,True,13,-1,0,6
Y2-S2-029M24,8,655,PS,exp,33,↑,left,←,0.9361833999864757,False,13,-1,0,6
Y2-S2-029M24,8,656,PS,exp,29,→,right,→,0.47295870003290474,True,14,-1,0,6
Y2-S2-029M24,8,657,PS,exp,44,↑,left,←,0.6741467999527231,False,14,-1,0,6
Y2-S2-029M24,8,658,PS,exp,31,→,right,→,0.5161170999053866,True,15,-1,0,6
Y2-S2-029M24,8,659,PS,exp,28,↑,no_key,no_letter,-1.0,False,15,-1,0,6
Y2-S2-029M24,8,660,PS,exp,46,↓,left,←,0.46686980000231415,False,16,-1,0,6
Y2-S2-029M24,8,661,PS,exp,35,←,no_key,no_letter,-1.0,False,17,-1,0,6
Y2-S2-029M24,8,662,PS,exp,46,↓,right,→,0.40071349998470396,False,18,-1,0,6
Y2-S2-029M24,8,663,PS,exp,42,→,right,→,0.5528058001073077,True,19,-1,0,6
Y2-S2-029M24,8,664,PS,exp,43,↓,down,↓,0.6719070000108331,True,19,-1,0,6
Y2-S2-029M24,8,665,PS,exp,31,↑,up,↑,0.6991392999188974,True,19,1,1,7
Y2-S2-029M24,8,666,PS,exp,46,→,right,→,0.7667921000393108,True,18,1,0,7
Y2-S2-029M24,8,667,PS,exp,37,↓,down,↓,0.6558238000143319,True,18,1,0,7
Y2-S2-029M24,8,668,PS,exp,31,↑,right,→,0.8130454000784084,False,18,-1,1,8
Y2-S2-029M24,8,669,PS,exp,49,←,right,→,0.9452029999811202,False,19,-1,0,8
Y2-S2-029M24,8,670,PS,exp,28,↓,down,↓,1.039787600049749,True,20,-1,0,8
Y2-S2-029M24,8,671,PS,exp,25,→,up,↑,0.8359818999888375,False,20,-1,0,8
Y2-S2-029M24,8,672,PS,exp,46,↑,no_key,no_letter,-1.0,False,21,-1,0,8
Y2-S2-029M24,8,673,PS,exp,46,↓,no_key,no_letter,-1.0,False,22,-1,0,8
Y2-S2-029M24,8,674,PS,exp,38,←,left,←,0.517159300041385,True,23,-1,0,8
Y2-S2-029M24,8,675,PS,exp,46,↓,down,↓,0.6992957999464124,True,23,-1,0,8
Y2-S2-029M24,8,676,PS,exp,42,←,left,←,0.5004901000065729,True,23,1,1,9
Y2-S2-029M24,8,677,PS,exp,37,↓,down,↓,0.4840371999889612,True,22,1,0,9
Y2-S2-029M24,8,678,PS,exp,29,←,left,←,0.5005953999934718,True,22,1,0,9
Y2-S2-029M24,8,679,PS,exp,25,→,no_key,no_letter,-1.0,False,22,-1,1,10
Y2-S2-029M24,8,680,PS,exp,43,↓,down,↓,0.5173657999839634,True,23,-1,0,10
Y2-S2-029M24,8,681,PS,exp,37,→,right,→,0.5173582000425085,True,23,-1,0,10
Y2-S2-029M24,8,682,PS,exp,29,↑,up,↑,0.7173342000460252,True,23,1,1,11
Y2-S2-029M24,8,683,PS,exp,42,←,no_key,no_letter,-1.0,False,22,-1,1,12
Y2-S2-029M24,8,684,PS,exp,33,↓,down,↓,0.635842900024727,True,23,-1,0,12
Y2-S2-029M24,8,685,PS,exp,34,↑,up,↑,0.5006249999860302,True,23,-1,0,12
Y2-S2-029M24,8,686,PS,exp,30,→,right,→,0.4673989999573678,True,23,1,1,13
Y2-S2-029M24,8,687,PS,exp,49,←,left,←,0.5699849999509752,True,22,1,0,13
Y2-S2-029M24,8,688,PS,exp,29,↑,up,↑,0.7334450999042019,True,22,1,0,13
Y2-S2-029M24,8,689,PS,exp,41,↓,down,↓,0.5887010999722406,True,22,1,0,13
Y2-S2-029M24,8,690,PS,exp,40,↑,up,↑,0.6843599000712857,True,21,1,0,13
Y2-S2-029M24,8,691,PS,exp,41,↓,down,↓,0.5795211000367999,True,21,1,0,13
Y2-S2-029M24,8,692,PS,exp,31,↑,up,↑,0.5384500999934971,True,21,1,0,13
Y2-S2-029M24,8,693,PS,exp,43,←,left,←,0.7486963999690488,True,20,1,0,13
Y2-S2-029M24,8,694,PS,exp,36,→,left,←,0.6327937999740243,False,20,-1,1,14
Y2-S2-029M24,8,695,PS,exp,39,↓,down,↓,0.5827450000215322,True,21,-1,0,14
Y2-S2-029M24,8,696,PS,exp,48,←,left,←,0.5328709000023082,True,21,-1,0,14
Y2-S2-029M24,8,697,PS,exp,32,↑,up,↑,0.6851145999971777,True,21,1,1,15
Y2-S2-029M24,8,698,PS,exp,42,→,right,→,0.5010280000278726,True,20,1,0,15
Y2-S2-029M24,8,699,PS,exp,40,↑,down,↓,1.0076314000179991,False,20,-1,1,16
