PART_ID,Block_no,Trial_no,Block_type,Trial_type,CSI,Stim_letter,Key_pressed,letter_choose,Rt,Corr,Stimulus Time,Level,Reversal,Revs_count
Y2-S2-095M27,1,1,PS,train,38,↑,up,↑,0.9814000999904238,True,30,-,-,-
Y2-S2-095M27,1,2,PS,train,27,↓,down,↓,0.992431899998337,True,30,-,-,-
Y2-S2-095M27,1,3,PS,train,47,←,left,←,0.9791357000358403,True,30,-,-,-
Y2-S2-095M27,1,4,PS,train,35,↓,down,↓,0.8637604000396095,True,30,-,-,-
Y2-S2-095M27,1,5,PS,train,42,←,left,←,0.7729567000060342,True,30,-,-,-
Y2-S2-095M27,1,6,PS,train,36,↓,down,↓,1.0344265999738127,True,30,-,-,-
Y2-S2-095M27,1,7,PS,train,43,↑,up,↑,0.9345688999746926,True,30,-,-,-
Y2-S2-095M27,1,8,PS,train,48,←,left,←,0.7340670999838039,True,30,-,-,-
Y2-S2-095M27,1,9,PS,train,28,→,right,→,0.5511488000047393,True,30,-,-,-
Y2-S2-095M27,1,10,PS,train,28,↑,up,↑,0.679308199963998,True,30,-,-,-
Y2-S2-095M27,2,11,AS,train,42,→,right,→,0.7669134000316262,True,45,-,-,-
Y2-S2-095M27,2,12,AS,train,47,↑,up,↑,0.7011043000384234,True,45,-,-,-
Y2-S2-095M27,2,13,AS,train,42,←,left,←,0.6177615000051446,True,45,-,-,-
Y2-S2-095M27,2,14,AS,train,46,↓,down,↓,1.2005834000301547,True,45,-,-,-
Y2-S2-095M27,2,15,AS,train,40,←,left,←,0.9855443999986164,True,45,-,-,-
Y2-S2-095M27,2,16,AS,train,35,→,right,→,0.7839670999674127,True,45,-,-,-
Y2-S2-095M27,2,17,AS,train,30,↑,up,↑,0.7177089999895543,True,45,-,-,-
Y2-S2-095M27,2,18,AS,train,31,←,left,←,0.8170118000125512,True,45,-,-,-
Y2-S2-095M27,2,19,AS,train,26,→,right,→,0.8839697000221349,True,45,-,-,-
Y2-S2-095M27,2,20,AS,train,32,↑,up,↑,0.6010417999932542,True,45,-,-,-
Y2-S2-095M27,-,21,PS,adaptive,33,↓,down,↓,0.6772930000443012,True,10,0,0,0
Y2-S2-095M27,-,22,PS,adaptive,44,↑,up,↑,0.7029591000173241,True,10,0,0,0
Y2-S2-095M27,-,23,PS,adaptive,40,↓,down,↓,0.7079457000363618,True,10,1,0,0
Y2-S2-095M27,-,24,PS,adaptive,38,←,left,←,0.8049766999902204,True,9,1,0,0
Y2-S2-095M27,-,25,PS,adaptive,50,→,right,→,0.6002188000129536,True,9,1,0,0
Y2-S2-095M27,-,26,PS,adaptive,46,↑,right,→,0.6078187000239268,False,9,-1,1,1
Y2-S2-095M27,-,27,PS,adaptive,33,←,left,←,0.7459086999879219,True,10,-1,0,1
Y2-S2-095M27,-,28,PS,adaptive,30,↓,down,↓,0.6720471999724396,True,10,-1,0,1
Y2-S2-095M27,-,29,PS,adaptive,27,↑,up,↑,0.7315828000428155,True,10,1,1,2
Y2-S2-095M27,-,30,PS,adaptive,33,→,down,↓,0.7073866000282578,False,9,-1,1,3
Y2-S2-095M27,-,31,PS,adaptive,26,↓,down,↓,0.5291229999857023,True,10,-1,0,3
Y2-S2-095M27,-,32,PS,adaptive,45,↑,up,↑,0.5183714999584481,True,10,-1,0,3
Y2-S2-095M27,-,33,PS,adaptive,43,→,right,→,0.567680999985896,True,10,1,1,4
Y2-S2-095M27,-,34,AS,adaptive,39,↑,up,↑,0.5031898999586701,True,20,0,0,0
Y2-S2-095M27,-,35,AS,adaptive,49,↓,down,↓,1.0876996000297368,True,20,0,0,0
Y2-S2-095M27,-,36,AS,adaptive,44,←,left,←,0.5736698000109755,True,20,1,0,0
Y2-S2-095M27,-,37,AS,adaptive,42,→,right,→,0.5371272999909706,True,19,1,0,0
Y2-S2-095M27,-,38,AS,adaptive,40,↑,up,↑,0.6774622999946587,True,19,1,0,0
Y2-S2-095M27,-,39,AS,adaptive,49,→,right,→,0.7684399000136182,True,19,1,0,0
Y2-S2-095M27,-,40,AS,adaptive,48,↑,up,↑,0.6510162999620661,True,18,1,0,0
Y2-S2-095M27,-,41,AS,adaptive,35,↓,down,↓,0.6604074999922886,True,18,1,0,0
Y2-S2-095M27,-,42,AS,adaptive,50,←,left,←,0.5552201999817044,True,18,1,0,0
Y2-S2-095M27,-,43,AS,adaptive,29,→,right,→,0.6475105999852531,True,17,1,0,0
Y2-S2-095M27,-,44,AS,adaptive,32,↑,up,↑,0.6837545000016689,True,17,1,0,0
Y2-S2-095M27,-,45,AS,adaptive,41,→,right,→,0.5784389000036754,True,17,1,0,0
Y2-S2-095M27,-,46,AS,adaptive,44,←,left,←,0.6556405000155792,True,16,1,0,0
Y2-S2-095M27,-,47,AS,adaptive,32,→,right,→,0.6219689000281505,True,16,1,0,0
Y2-S2-095M27,-,48,AS,adaptive,37,↓,down,↓,0.7080431000213139,True,16,1,0,0
Y2-S2-095M27,-,49,AS,adaptive,49,→,right,→,0.6295938999974169,True,15,1,0,0
Y2-S2-095M27,-,50,AS,adaptive,38,↑,up,↑,0.5814436999498866,True,15,1,0,0
Y2-S2-095M27,-,51,AS,adaptive,50,→,right,→,0.5357847000123002,True,15,1,0,0
Y2-S2-095M27,-,52,AS,adaptive,32,↓,down,↓,0.7495196999516338,True,14,1,0,0
Y2-S2-095M27,-,53,AS,adaptive,45,←,left,←,0.5384889999986626,True,14,1,0,0
Y2-S2-095M27,-,54,AS,adaptive,43,↑,up,↑,0.6122128000133671,True,14,1,0,0
Y2-S2-095M27,-,55,AS,adaptive,42,←,left,←,0.5159470000071451,True,13,1,0,0
Y2-S2-095M27,-,56,AS,adaptive,38,↑,up,↑,0.6417124000145122,True,13,1,0,0
Y2-S2-095M27,-,57,AS,adaptive,48,↓,down,↓,0.6281125000095926,True,13,1,0,0
Y2-S2-095M27,-,58,AS,adaptive,44,→,right,→,0.5320078000077046,True,12,1,0,0
Y2-S2-095M27,-,59,AS,adaptive,45,←,left,←,0.5051151999505237,True,12,1,0,0
Y2-S2-095M27,-,60,AS,adaptive,39,→,right,→,0.5830719000077806,True,12,1,0,0
Y2-S2-095M27,-,61,AS,adaptive,25,↑,up,↑,0.7001968999975361,True,11,1,0,0
Y2-S2-095M27,-,62,AS,adaptive,34,→,right,→,0.9036498999921605,True,11,1,0,0
Y2-S2-095M27,-,63,AS,adaptive,38,←,left,←,0.589090000023134,True,11,1,0,0
Y2-S2-095M27,-,64,AS,adaptive,46,↑,up,↑,0.5859303000033833,True,10,1,0,0
Y2-S2-095M27,-,65,AS,adaptive,42,←,left,←,0.5107427000184543,True,10,1,0,0
Y2-S2-095M27,-,66,AS,adaptive,45,↑,right,→,0.5193506000214256,False,10,-1,1,1
Y2-S2-095M27,-,67,AS,adaptive,26,←,left,←,0.6726157999946736,True,11,-1,0,1
Y2-S2-095M27,-,68,AS,adaptive,31,↓,down,↓,0.6291160000255331,True,11,-1,0,1
Y2-S2-095M27,-,69,AS,adaptive,38,←,left,←,0.5221340000280179,True,11,1,1,2
Y2-S2-095M27,-,70,AS,adaptive,33,↑,up,↑,0.627673799986951,True,10,1,0,2
Y2-S2-095M27,-,71,AS,adaptive,37,→,left,←,0.4485164999496192,False,10,-1,1,3
Y2-S2-095M27,-,72,AS,adaptive,42,↑,up,↑,0.5440355000318959,True,11,-1,0,3
Y2-S2-095M27,-,73,AS,adaptive,47,→,right,→,0.574310099997092,True,11,-1,0,3
Y2-S2-095M27,-,74,AS,adaptive,29,↑,up,↑,0.4989585000439547,True,11,1,1,4
Y2-S2-095M27,1,75,PS,intra_train,31,→,right,→,0.5657573999487795,True,13,-,-,-
Y2-S2-095M27,1,76,PS,intra_train,48,←,left,←,0.49676650000037625,True,13,-,-,-
Y2-S2-095M27,1,77,PS,intra_train,42,↓,down,↓,0.6410700000124052,True,13,-,-,-
Y2-S2-095M27,1,78,PS,intra_train,25,→,right,→,0.6096212000120431,True,13,-,-,-
Y2-S2-095M27,1,79,PS,intra_train,34,↓,down,↓,0.4967472999705933,True,13,-,-,-
Y2-S2-095M27,1,80,PS,exp,29,←,left,←,0.7218132999842055,True,9,0,0,0
Y2-S2-095M27,1,81,PS,exp,43,↑,down,↓,0.74022530001821,False,9,-1,0,0
Y2-S2-095M27,1,82,PS,exp,45,→,right,→,0.4848669999628328,True,10,-1,0,0
Y2-S2-095M27,1,83,PS,exp,31,↑,right,→,0.7467752000084147,False,10,-1,0,0
Y2-S2-095M27,1,84,PS,exp,38,↓,down,↓,0.5452089000027627,True,11,-1,0,0
Y2-S2-095M27,1,85,PS,exp,40,↑,up,↑,0.6005996000021696,True,11,-1,0,0
Y2-S2-095M27,1,86,PS,exp,42,↓,down,↓,0.6258552000508644,True,11,1,1,1
Y2-S2-095M27,1,87,PS,exp,28,←,left,←,0.5590998999541625,True,10,1,0,1
Y2-S2-095M27,1,88,PS,exp,40,↓,down,↓,0.5844643000164069,True,10,1,0,1
Y2-S2-095M27,1,89,PS,exp,46,→,right,→,0.5149659999879077,True,10,1,0,1
Y2-S2-095M27,1,90,PS,exp,34,↓,down,↓,0.5929122999659739,True,9,1,0,1
Y2-S2-095M27,1,91,PS,exp,42,→,right,→,0.6590580000192858,True,9,1,0,1
Y2-S2-095M27,1,92,PS,exp,49,↑,up,↑,0.5858926000073552,True,9,1,0,1
Y2-S2-095M27,1,93,PS,exp,26,←,left,←,0.49371040001278743,True,8,1,0,1
Y2-S2-095M27,1,94,PS,exp,48,↓,down,↓,0.539680199988652,True,8,1,0,1
Y2-S2-095M27,1,95,PS,exp,41,←,left,←,0.4025171999819577,True,8,1,0,1
Y2-S2-095M27,1,96,PS,exp,45,↑,left,←,0.755600200034678,False,7,-1,1,2
Y2-S2-095M27,1,97,PS,exp,45,←,left,←,0.45029269997030497,True,8,-1,0,2
Y2-S2-095M27,1,98,PS,exp,33,↑,up,↑,0.6780588999972679,True,8,-1,0,2
Y2-S2-095M27,1,99,PS,exp,43,→,left,←,0.7322152000269853,False,8,-1,0,2
Y2-S2-095M27,1,100,PS,exp,43,↑,up,↑,0.8910656999796629,True,9,-1,0,2
Y2-S2-095M27,1,101,PS,exp,40,↓,down,↓,0.5524967999663204,True,9,-1,0,2
Y2-S2-095M27,1,102,PS,exp,47,→,right,→,0.6318500000052154,True,9,1,1,3
Y2-S2-095M27,1,103,PS,exp,39,←,right,→,0.675993200042285,False,8,-1,1,4
Y2-S2-095M27,1,104,PS,exp,50,↑,up,↑,0.7681068999809213,True,9,-1,0,4
Y2-S2-095M27,1,105,PS,exp,26,←,left,←,0.6429546999861486,True,9,-1,0,4
Y2-S2-095M27,1,106,PS,exp,28,↑,up,↑,0.5031680000247434,True,9,1,1,5
Y2-S2-095M27,1,107,PS,exp,34,←,left,←,0.5217996999854222,True,8,1,0,5
Y2-S2-095M27,1,108,PS,exp,37,→,right,→,0.5027633999707177,True,8,1,0,5
Y2-S2-095M27,1,109,PS,exp,38,←,left,←,0.5804971999605186,True,8,1,0,5
Y2-S2-095M27,1,110,PS,exp,39,↑,up,↑,0.6957548999926075,True,7,1,0,5
Y2-S2-095M27,1,111,PS,exp,33,→,right,→,0.5461251999950036,True,7,1,0,5
Y2-S2-095M27,1,112,PS,exp,28,↑,right,→,0.8164096000255086,False,7,-1,1,6
Y2-S2-095M27,1,113,PS,exp,43,←,left,←,0.8229245999827981,True,8,-1,0,6
Y2-S2-095M27,1,114,PS,exp,39,↑,right,→,0.7129908000351861,False,8,-1,0,6
Y2-S2-095M27,1,115,PS,exp,32,↓,up,↑,0.7899087999830954,False,9,-1,0,6
Y2-S2-095M27,1,116,PS,exp,27,←,left,←,1.1213114999700338,True,10,-1,0,6
Y2-S2-095M27,1,117,PS,exp,27,→,right,→,0.605532499961555,True,10,-1,0,6
Y2-S2-095M27,1,118,PS,exp,42,↑,up,↑,0.9934439999633469,True,10,1,1,7
Y2-S2-095M27,1,119,PS,exp,45,←,left,←,0.49007739999797195,True,9,1,0,7
Y2-S2-095M27,1,120,PS,exp,34,↓,down,↓,0.7641247000428848,True,9,1,0,7
Y2-S2-095M27,1,121,PS,exp,28,↑,up,↑,0.6085344000020996,True,9,1,0,7
Y2-S2-095M27,1,122,PS,exp,50,→,right,→,0.8206408999976702,True,8,1,0,7
Y2-S2-095M27,1,123,PS,exp,25,←,left,←,1.0849821000010706,True,8,1,0,7
Y2-S2-095M27,1,124,PS,exp,34,↑,left,←,1.1465915000298992,False,8,-1,1,8
Y2-S2-095M27,1,125,PS,exp,34,↓,down,↓,0.8372256999718957,True,9,-1,0,8
Y2-S2-095M27,1,126,PS,exp,31,↑,right,→,0.7525979999918491,False,9,-1,0,8
Y2-S2-095M27,1,127,PS,exp,50,↓,down,↓,0.6801795000210404,True,10,-1,0,8
Y2-S2-095M27,1,128,PS,exp,50,↑,up,↑,0.7193902999861166,True,10,-1,0,8
Y2-S2-095M27,1,129,PS,exp,28,↓,up,↑,0.9083347000414506,False,10,-1,0,8
Y2-S2-095M27,1,130,PS,exp,29,←,left,←,0.5194747999776155,True,11,-1,0,8
Y2-S2-095M27,1,131,PS,exp,38,↑,left,←,0.8232755999779329,False,11,-1,0,8
Y2-S2-095M27,1,132,PS,exp,39,←,left,←,0.539608999970369,True,12,-1,0,8
Y2-S2-095M27,1,133,PS,exp,28,↓,down,↓,0.6242170999757946,True,12,-1,0,8
Y2-S2-095M27,1,134,PS,exp,33,↑,down,↓,0.9915286999894306,False,12,-1,0,8
Y2-S2-095M27,1,135,PS,exp,37,↓,down,↓,0.6137824999750592,True,13,-1,0,8
Y2-S2-095M27,1,136,PS,exp,33,→,right,→,0.5817470999900252,True,13,-1,0,8
Y2-S2-095M27,1,137,PS,exp,41,←,right,→,0.6865256000310183,False,13,-1,0,8
Y2-S2-095M27,1,138,PS,exp,48,↑,up,↑,0.5907374999951571,True,14,-1,0,8
Y2-S2-095M27,1,139,PS,exp,46,←,left,←,0.4835355000104755,True,14,-1,0,8
Y2-S2-095M27,1,140,PS,exp,39,→,right,→,0.48468039999715984,True,14,1,1,9
Y2-S2-095M27,1,141,PS,exp,25,↑,right,→,0.7729620999889448,False,13,-1,1,10
Y2-S2-095M27,1,142,PS,exp,30,↓,down,↓,0.6825889000319876,True,14,-1,0,10
Y2-S2-095M27,1,143,PS,exp,34,↑,up,↑,0.7478770000161603,True,14,-1,0,10
Y2-S2-095M27,1,144,PS,exp,35,→,left,←,0.9166751999873668,False,14,-1,0,10
Y2-S2-095M27,1,145,PS,exp,48,↑,right,→,0.5404897999833338,False,15,-1,0,10
Y2-S2-095M27,1,146,PS,exp,33,↓,down,↓,0.9386707000085153,True,16,-1,0,10
Y2-S2-095M27,1,147,PS,exp,30,→,right,→,0.6331695000408217,True,16,-1,0,10
Y2-S2-095M27,1,148,PS,exp,31,←,left,←,0.7419870000449009,True,16,1,1,11
Y2-S2-095M27,1,149,PS,exp,47,↓,down,↓,0.6811994000454433,True,15,1,0,11
Y2-S2-095M27,1,150,PS,exp,35,↑,up,↑,0.6606696000089869,True,15,1,0,11
Y2-S2-095M27,1,151,PS,exp,31,↓,down,↓,0.7838706999900751,True,15,1,0,11
Y2-S2-095M27,1,152,PS,exp,34,↑,up,↑,0.6580913999932818,True,14,1,0,11
Y2-S2-095M27,1,153,PS,exp,49,→,right,→,0.6812913999892771,True,14,1,0,11
Y2-S2-095M27,1,154,PS,exp,33,←,left,←,0.6989979000063613,True,14,1,0,11
Y2-S2-095M27,1,155,PS,exp,36,→,right,→,0.7323478999896906,True,13,1,0,11
Y2-S2-095M27,1,156,PS,exp,45,↓,down,↓,0.6811864000046626,True,13,1,0,11
Y2-S2-095M27,1,157,PS,exp,50,↑,up,↑,0.6233724000048824,True,13,1,0,11
Y2-S2-095M27,1,158,PS,exp,37,→,right,→,0.6885089999996126,True,12,1,0,11
Y2-S2-095M27,1,159,PS,exp,28,↑,up,↑,0.7132996000000276,True,12,1,0,11
Y2-S2-095M27,1,160,PS,exp,35,←,left,←,0.5242383999866433,True,12,1,0,11
Y2-S2-095M27,1,161,PS,exp,34,→,right,→,0.5258964999811724,True,11,1,0,11
Y2-S2-095M27,1,162,PS,exp,35,↓,down,↓,0.7218709000153467,True,11,1,0,11
Y2-S2-095M27,1,163,PS,exp,48,→,right,→,0.5636551000061445,True,11,1,0,11
Y2-S2-095M27,1,164,PS,exp,29,↓,right,→,0.9484645999618806,False,10,-1,1,12
Y2-S2-095M27,1,165,PS,exp,42,↑,up,↑,0.6695837000152096,True,11,-1,0,12
Y2-S2-095M27,1,166,PS,exp,40,←,left,←,0.5630965000018477,True,11,-1,0,12
Y2-S2-095M27,1,167,PS,exp,43,→,right,→,0.7944765000138432,True,11,1,1,13
Y2-S2-095M27,1,168,PS,exp,44,↑,right,→,0.572165799967479,False,10,-1,1,14
Y2-S2-095M27,1,169,PS,exp,26,↓,down,↓,0.8752060999977402,True,11,-1,0,14
Y2-S2-095M27,1,170,PS,exp,28,←,left,←,0.5318076999974437,True,11,-1,0,14
Y2-S2-095M27,1,171,PS,exp,50,↑,up,↑,0.6129155000089668,True,11,1,1,15
Y2-S2-095M27,1,172,PS,exp,37,←,left,←,0.6417380000348203,True,10,1,0,15
Y2-S2-095M27,1,173,PS,exp,36,↑,up,↑,0.6027224999852479,True,10,1,0,15
Y2-S2-095M27,1,174,PS,exp,39,→,up,↑,0.6469407000113279,False,10,-1,1,16
Y2-S2-095M27,2,175,AS,intra_train,27,←,right,→,0.602026000036858,False,15,-,-,-
Y2-S2-095M27,2,176,AS,intra_train,34,↑,left,←,1.0174201999907382,False,15,-,-,-
Y2-S2-095M27,2,177,AS,intra_train,49,←,left,←,0.7495195000083186,True,15,-,-,-
Y2-S2-095M27,2,178,AS,intra_train,44,→,right,→,0.7195224000024609,True,15,-,-,-
Y2-S2-095M27,2,179,AS,intra_train,34,↑,up,↑,0.6832492999965325,True,15,-,-,-
Y2-S2-095M27,2,180,AS,exp,30,←,left,←,0.67062900000019,True,10,0,0,0
Y2-S2-095M27,2,181,AS,exp,46,↓,left,←,0.7054415000020526,False,10,-1,0,0
Y2-S2-095M27,2,182,AS,exp,26,←,right,→,1.4648050999967381,False,11,-1,0,0
Y2-S2-095M27,2,183,AS,exp,41,→,right,→,0.7006549999932759,True,12,-1,0,0
Y2-S2-095M27,2,184,AS,exp,25,↓,left,←,0.8525578000117093,False,12,-1,0,0
Y2-S2-095M27,2,185,AS,exp,39,↑,down,↓,1.1388458000146784,False,13,-1,0,0
Y2-S2-095M27,2,186,AS,exp,27,→,left,←,0.9551426999969408,False,14,-1,0,0
Y2-S2-095M27,2,187,AS,exp,30,↓,down,↓,0.5538973999791779,True,15,-1,0,0
Y2-S2-095M27,2,188,AS,exp,38,←,left,←,0.6173832999775186,True,15,-1,0,0
Y2-S2-095M27,2,189,AS,exp,37,→,right,→,0.6404908000258729,True,15,1,1,1
Y2-S2-095M27,2,190,AS,exp,29,←,left,←,0.6219982000184245,True,14,1,0,1
Y2-S2-095M27,2,191,AS,exp,25,↓,down,↓,0.7031221999786794,True,14,1,0,1
Y2-S2-095M27,2,192,AS,exp,38,→,right,→,0.8289688999648206,True,14,1,0,1
Y2-S2-095M27,2,193,AS,exp,32,↓,down,↓,0.6648624999797903,True,13,1,0,1
Y2-S2-095M27,2,194,AS,exp,29,→,right,→,0.51921219995711,True,13,1,0,1
Y2-S2-095M27,2,195,AS,exp,32,←,left,←,0.6074415000039153,True,13,1,0,1
Y2-S2-095M27,2,196,AS,exp,36,↓,down,↓,0.7631081999861635,True,12,1,0,1
Y2-S2-095M27,2,197,AS,exp,48,→,right,→,0.5772662000381388,True,12,1,0,1
Y2-S2-095M27,2,198,AS,exp,49,←,right,→,0.7263308999827132,False,12,-1,1,2
Y2-S2-095M27,2,199,AS,exp,32,↓,down,↓,0.7890145999845117,True,13,-1,0,2
Y2-S2-095M27,2,200,AS,exp,45,→,right,→,0.5384142000111751,True,13,-1,0,2
Y2-S2-095M27,2,201,AS,exp,49,←,left,←,0.6721808000002056,True,13,1,1,3
Y2-S2-095M27,2,202,AS,exp,42,↓,down,↓,0.9212518000276759,True,12,1,0,3
Y2-S2-095M27,2,203,AS,exp,45,→,right,→,0.753197000012733,True,12,1,0,3
Y2-S2-095M27,2,204,AS,exp,32,←,left,←,0.5823396000196226,True,12,1,0,3
Y2-S2-095M27,2,205,AS,exp,34,↑,right,→,0.8311079000122845,False,11,-1,1,4
Y2-S2-095M27,2,206,AS,exp,50,↓,down,↓,0.6163196000270545,True,12,-1,0,4
Y2-S2-095M27,2,207,AS,exp,49,↑,down,↓,0.6565492000081576,False,12,-1,0,4
Y2-S2-095M27,2,208,AS,exp,50,←,left,←,0.7276529000373557,True,13,-1,0,4
Y2-S2-095M27,2,209,AS,exp,50,→,right,→,0.5854255000012927,True,13,-1,0,4
Y2-S2-095M27,2,210,AS,exp,47,↑,right,→,0.6418671999708749,False,13,-1,0,4
Y2-S2-095M27,2,211,AS,exp,48,→,right,→,0.5951209999620914,True,14,-1,0,4
Y2-S2-095M27,2,212,AS,exp,45,←,right,→,0.6768548000254668,False,14,-1,0,4
Y2-S2-095M27,2,213,AS,exp,31,→,left,←,0.7326586999697611,False,15,-1,0,4
Y2-S2-095M27,2,214,AS,exp,44,←,left,←,0.577012800029479,True,16,-1,0,4
Y2-S2-095M27,2,215,AS,exp,47,→,right,→,0.6291130000026897,True,16,-1,0,4
Y2-S2-095M27,2,216,AS,exp,41,↓,down,↓,0.8065671999938786,True,16,1,1,5
Y2-S2-095M27,2,217,AS,exp,26,→,right,→,0.7098466000170447,True,15,1,0,5
Y2-S2-095M27,2,218,AS,exp,32,↓,down,↓,0.7163306000293233,True,15,1,0,5
Y2-S2-095M27,2,219,AS,exp,32,→,down,↓,1.233184800017625,False,15,-1,1,6
Y2-S2-095M27,2,220,AS,exp,35,↑,right,→,1.0404470000066794,False,16,-1,0,6
Y2-S2-095M27,2,221,AS,exp,44,←,left,←,0.6855234999675304,True,17,-1,0,6
Y2-S2-095M27,2,222,AS,exp,48,→,right,→,0.6323979999870062,True,17,-1,0,6
Y2-S2-095M27,2,223,AS,exp,35,←,left,←,0.5867497999570332,True,17,1,1,7
Y2-S2-095M27,2,224,AS,exp,32,↓,down,↓,0.7737265999894589,True,16,1,0,7
Y2-S2-095M27,2,225,AS,exp,49,→,right,→,0.6101443999796174,True,16,1,0,7
Y2-S2-095M27,2,226,AS,exp,42,↓,down,↓,0.7740853999857791,True,16,1,0,7
Y2-S2-095M27,2,227,AS,exp,45,→,down,↓,0.9120167000219226,False,15,-1,1,8
Y2-S2-095M27,2,228,AS,exp,45,↑,up,↑,0.8644395999726839,True,16,-1,0,8
Y2-S2-095M27,2,229,AS,exp,48,→,right,→,0.7686415999778546,True,16,-1,0,8
Y2-S2-095M27,2,230,AS,exp,41,↓,down,↓,0.6426540999673307,True,16,1,1,9
Y2-S2-095M27,2,231,AS,exp,27,→,right,→,0.8094149000244215,True,15,1,0,9
Y2-S2-095M27,2,232,AS,exp,37,↑,up,↑,0.86451860005036,True,15,1,0,9
Y2-S2-095M27,2,233,AS,exp,26,↓,down,↓,0.6283769000438042,True,15,1,0,9
Y2-S2-095M27,2,234,AS,exp,39,↑,down,↓,0.8768991999677382,False,14,-1,1,10
Y2-S2-095M27,2,235,AS,exp,30,↓,down,↓,0.6005630000145175,True,15,-1,0,10
Y2-S2-095M27,2,236,AS,exp,31,←,up,↑,0.7998426000121981,False,15,-1,0,10
Y2-S2-095M27,2,237,AS,exp,45,→,right,→,0.7165370999719016,True,16,-1,0,10
Y2-S2-095M27,2,238,AS,exp,32,↓,up,↑,0.8505464000045322,False,16,-1,0,10
Y2-S2-095M27,2,239,AS,exp,50,←,left,←,0.8803522000089288,True,17,-1,0,10
Y2-S2-095M27,2,240,AS,exp,32,↓,down,↓,0.7735553999664262,True,17,-1,0,10
Y2-S2-095M27,2,241,AS,exp,26,→,right,→,0.7268301000003703,True,17,1,1,11
Y2-S2-095M27,2,242,AS,exp,39,←,right,→,1.500802399998065,False,16,-1,1,12
Y2-S2-095M27,2,243,AS,exp,32,↓,down,↓,0.8134407000034116,True,17,-1,0,12
Y2-S2-095M27,2,244,AS,exp,46,→,right,→,0.7704441999667324,True,17,-1,0,12
Y2-S2-095M27,2,245,AS,exp,30,↓,down,↓,0.7055050000199117,True,17,1,1,13
Y2-S2-095M27,2,246,AS,exp,27,↑,down,↓,1.0562228000489995,False,16,-1,1,14
Y2-S2-095M27,2,247,AS,exp,43,←,down,↓,0.8120163999847136,False,17,-1,0,14
Y2-S2-095M27,2,248,AS,exp,40,↑,down,↓,0.30064800003310665,False,18,-1,0,14
Y2-S2-095M27,2,249,AS,exp,36,↓,down,↓,0.8933655999717303,True,19,-1,0,14
Y2-S2-095M27,2,250,AS,exp,26,→,right,→,0.7424426999641582,True,19,-1,0,14
Y2-S2-095M27,2,251,AS,exp,37,↑,up,↑,0.7585148999933153,True,19,1,1,15
Y2-S2-095M27,2,252,AS,exp,39,→,no_key,no_letter,-1.0,False,18,-1,1,16
Y2-S2-095M27,3,253,AS,intra_train,43,↑,up,↑,0.6961667999858037,True,15,-,-,-
Y2-S2-095M27,3,254,AS,intra_train,27,→,right,→,0.5795539999962784,True,15,-,-,-
Y2-S2-095M27,3,255,AS,intra_train,50,←,right,→,0.6899876999668777,False,15,-,-,-
Y2-S2-095M27,3,256,AS,intra_train,26,↓,down,↓,0.9097105999826454,True,15,-,-,-
Y2-S2-095M27,3,257,AS,intra_train,46,↑,right,→,0.9876390999997966,False,15,-,-,-
Y2-S2-095M27,3,258,AS,exp,34,↓,up,↑,0.7338185000116937,False,10,-1,0,0
Y2-S2-095M27,3,259,AS,exp,33,↑,right,→,0.9792737000389025,False,11,-1,0,0
Y2-S2-095M27,3,260,AS,exp,47,↓,down,↓,0.6621581999934278,True,12,-1,0,0
Y2-S2-095M27,3,261,AS,exp,49,↑,up,↑,0.5890849999850616,True,12,-1,0,0
Y2-S2-095M27,3,262,AS,exp,31,↓,down,↓,0.6883929000468925,True,12,1,1,1
Y2-S2-095M27,3,263,AS,exp,28,→,right,→,0.6348754999926314,True,11,1,0,1
Y2-S2-095M27,3,264,AS,exp,44,←,left,←,0.6022782999789342,True,11,1,0,1
Y2-S2-095M27,3,265,AS,exp,37,↑,up,↑,0.7586567999678664,True,11,1,0,1
Y2-S2-095M27,3,266,AS,exp,48,→,right,→,0.527035299979616,True,10,1,0,1
Y2-S2-095M27,3,267,AS,exp,28,↓,right,→,1.5909862999687903,False,10,-1,1,2
Y2-S2-095M27,3,268,AS,exp,25,↑,up,↑,0.666240899998229,True,11,-1,0,2
Y2-S2-095M27,3,269,AS,exp,46,←,up,↑,0.7826709999935701,False,11,-1,0,2
Y2-S2-095M27,3,270,AS,exp,36,→,right,→,0.5971372000058182,True,12,-1,0,2
Y2-S2-095M27,3,271,AS,exp,33,↓,down,↓,0.7283005000208504,True,12,-1,0,2
Y2-S2-095M27,3,272,AS,exp,33,↑,up,↑,0.582249499973841,True,12,1,1,3
Y2-S2-095M27,3,273,AS,exp,35,↓,down,↓,0.5998943999875337,True,11,1,0,3
Y2-S2-095M27,3,274,AS,exp,50,↑,up,↑,0.5652220000047237,True,11,1,0,3
Y2-S2-095M27,3,275,AS,exp,43,→,up,↑,0.6365368000115268,False,11,-1,1,4
Y2-S2-095M27,3,276,AS,exp,50,↑,up,↑,0.5238213000120595,True,12,-1,0,4
Y2-S2-095M27,3,277,AS,exp,38,↓,down,↓,0.6791326999664307,True,12,-1,0,4
Y2-S2-095M27,3,278,AS,exp,32,←,right,→,0.6837527000461705,False,12,-1,0,4
Y2-S2-095M27,3,279,AS,exp,32,↑,up,↑,0.5385060000116937,True,13,-1,0,4
Y2-S2-095M27,3,280,AS,exp,26,←,left,←,0.5805409000022337,True,13,-1,0,4
Y2-S2-095M27,3,281,AS,exp,46,↑,up,↑,0.5868235999951139,True,13,1,1,5
Y2-S2-095M27,3,282,AS,exp,38,↓,up,↑,0.6852243000175804,False,12,-1,1,6
Y2-S2-095M27,3,283,AS,exp,25,→,right,→,0.6301208999939263,True,13,-1,0,6
Y2-S2-095M27,3,284,AS,exp,42,↓,down,↓,0.6530032999580726,True,13,-1,0,6
Y2-S2-095M27,3,285,AS,exp,42,↑,up,↑,0.5922979000024498,True,13,1,1,7
Y2-S2-095M27,3,286,AS,exp,39,↓,up,↑,0.7874686000286601,False,12,-1,1,8
Y2-S2-095M27,3,287,AS,exp,42,→,right,→,0.8327530999667943,True,13,-1,0,8
Y2-S2-095M27,3,288,AS,exp,42,↑,up,↑,0.5174453999497928,True,13,-1,0,8
Y2-S2-095M27,3,289,AS,exp,45,→,up,↑,0.8052809000364505,False,13,-1,0,8
Y2-S2-095M27,3,290,AS,exp,26,↓,down,↓,0.6721398999798112,True,14,-1,0,8
Y2-S2-095M27,3,291,AS,exp,26,→,right,→,0.6366633999859914,True,14,-1,0,8
Y2-S2-095M27,3,292,AS,exp,46,↓,right,→,1.0281830000458285,False,14,-1,0,8
Y2-S2-095M27,3,293,AS,exp,50,←,left,←,0.6610178999835625,True,15,-1,0,8
Y2-S2-095M27,3,294,AS,exp,48,↓,down,↓,0.7874122000066563,True,15,-1,0,8
Y2-S2-095M27,3,295,AS,exp,26,→,right,→,0.688983800006099,True,15,1,1,9
Y2-S2-095M27,3,296,AS,exp,28,←,left,←,0.6094248000299558,True,14,1,0,9
Y2-S2-095M27,3,297,AS,exp,31,↓,down,↓,0.8241180999903008,True,14,1,0,9
Y2-S2-095M27,3,298,AS,exp,49,↑,up,↑,0.648505799996201,True,14,1,0,9
Y2-S2-095M27,3,299,AS,exp,44,↓,down,↓,0.8138053999864496,True,13,1,0,9
Y2-S2-095M27,3,300,AS,exp,27,←,left,←,0.5910933000268415,True,13,1,0,9
Y2-S2-095M27,3,301,AS,exp,48,↓,down,↓,0.6408377999905497,True,13,1,0,9
Y2-S2-095M27,3,302,AS,exp,25,↑,up,↑,0.9244460999616422,True,12,1,0,9
Y2-S2-095M27,3,303,AS,exp,30,←,up,↑,0.6942960000014864,False,12,-1,1,10
Y2-S2-095M27,3,304,AS,exp,48,→,up,↑,0.8056815000018105,False,13,-1,0,10
Y2-S2-095M27,3,305,AS,exp,32,↓,down,↓,0.6271884000161663,True,14,-1,0,10
Y2-S2-095M27,3,306,AS,exp,29,↑,up,↑,0.6601380999782123,True,14,-1,0,10
Y2-S2-095M27,3,307,AS,exp,43,←,left,←,0.5858165999525227,True,14,1,1,11
Y2-S2-095M27,3,308,AS,exp,26,↓,up,↑,0.7078251999919303,False,13,-1,1,12
Y2-S2-095M27,3,309,AS,exp,31,←,left,←,0.7542639999883249,True,14,-1,0,12
Y2-S2-095M27,3,310,AS,exp,30,→,right,→,0.8215943000395782,True,14,-1,0,12
Y2-S2-095M27,3,311,AS,exp,27,←,left,←,0.8065620999550447,True,14,1,1,13
Y2-S2-095M27,3,312,AS,exp,37,↑,left,←,1.1007840999518521,False,13,-1,1,14
Y2-S2-095M27,3,313,AS,exp,40,←,left,←,0.6786964000202715,True,14,-1,0,14
Y2-S2-095M27,3,314,AS,exp,37,↓,left,←,1.1646621999680065,False,14,-1,0,14
Y2-S2-095M27,3,315,AS,exp,49,↑,up,↑,0.7251090999925509,True,15,-1,0,14
Y2-S2-095M27,3,316,AS,exp,38,←,left,←,0.7033536999952048,True,15,-1,0,14
Y2-S2-095M27,3,317,AS,exp,34,→,right,→,0.6424904000014067,True,15,1,1,15
Y2-S2-095M27,3,318,AS,exp,26,↓,right,→,0.7104116000118665,False,14,-1,1,16
Y2-S2-095M27,4,319,PS,intra_train,30,↑,up,↑,0.7597937999526039,True,13,-,-,-
Y2-S2-095M27,4,320,PS,intra_train,46,←,left,←,0.7582317999913357,True,13,-,-,-
Y2-S2-095M27,4,321,PS,intra_train,25,→,right,→,0.884465699957218,True,13,-,-,-
Y2-S2-095M27,4,322,PS,intra_train,50,↑,up,↑,0.879733000008855,True,13,-,-,-
Y2-S2-095M27,4,323,PS,intra_train,38,←,left,←,0.6876942000235431,True,13,-,-,-
Y2-S2-095M27,4,324,PS,exp,41,↑,up,↑,0.49334700003964826,True,9,0,0,0
Y2-S2-095M27,4,325,PS,exp,43,↓,up,↑,0.664142899971921,False,9,-1,0,0
Y2-S2-095M27,4,326,PS,exp,33,→,right,→,0.5648785000084899,True,10,-1,0,0
Y2-S2-095M27,4,327,PS,exp,49,←,right,→,0.7208640000317246,False,10,-1,0,0
Y2-S2-095M27,4,328,PS,exp,30,↓,right,→,0.6958497000159696,False,11,-1,0,0
Y2-S2-095M27,4,329,PS,exp,31,←,left,←,0.5453465999453329,True,12,-1,0,0
Y2-S2-095M27,4,330,PS,exp,36,↑,up,↑,0.4568142000352964,True,12,-1,0,0
Y2-S2-095M27,4,331,PS,exp,41,↓,down,↓,0.7762008000281639,True,12,1,1,1
Y2-S2-095M27,4,332,PS,exp,50,↑,up,↑,0.562258500023745,True,11,1,0,1
Y2-S2-095M27,4,333,PS,exp,42,↓,down,↓,0.7573095999541692,True,11,1,0,1
Y2-S2-095M27,4,334,PS,exp,49,→,right,→,0.5439338000142016,True,11,1,0,1
Y2-S2-095M27,4,335,PS,exp,30,↑,down,↓,0.9463800999801606,False,10,-1,1,2
Y2-S2-095M27,4,336,PS,exp,42,→,right,→,0.5770645000156946,True,11,-1,0,2
Y2-S2-095M27,4,337,PS,exp,27,←,right,→,0.6465284000150859,False,11,-1,0,2
Y2-S2-095M27,4,338,PS,exp,29,↑,right,→,0.891350100049749,False,12,-1,0,2
Y2-S2-095M27,4,339,PS,exp,47,→,right,→,0.5802620999747887,True,13,-1,0,2
Y2-S2-095M27,4,340,PS,exp,47,↓,right,→,0.7692593000247143,False,13,-1,0,2
Y2-S2-095M27,4,341,PS,exp,37,←,left,←,0.6550992000265978,True,14,-1,0,2
Y2-S2-095M27,4,342,PS,exp,33,↑,up,↑,0.8260174000170082,True,14,-1,0,2
Y2-S2-095M27,4,343,PS,exp,48,←,left,←,0.7324350000126287,True,14,1,1,3
Y2-S2-095M27,4,344,PS,exp,46,→,right,→,0.7031205000239424,True,13,1,0,3
Y2-S2-095M27,4,345,PS,exp,26,←,left,←,0.6228154999553226,True,13,1,0,3
Y2-S2-095M27,4,346,PS,exp,33,↑,up,↑,0.7281520999968052,True,13,1,0,3
Y2-S2-095M27,4,347,PS,exp,37,↓,down,↓,0.6636743000126444,True,12,1,0,3
Y2-S2-095M27,4,348,PS,exp,28,←,left,←,0.5777137000113726,True,12,1,0,3
Y2-S2-095M27,4,349,PS,exp,39,↑,up,↑,0.7046343999681994,True,12,1,0,3
Y2-S2-095M27,4,350,PS,exp,49,←,left,←,0.6050552999950014,True,11,1,0,3
Y2-S2-095M27,4,351,PS,exp,35,↓,down,↓,0.7525982000515796,True,11,1,0,3
Y2-S2-095M27,4,352,PS,exp,49,↑,up,↑,0.5116281000082381,True,11,1,0,3
Y2-S2-095M27,4,353,PS,exp,32,→,right,→,0.5759757999912836,True,10,1,0,3
Y2-S2-095M27,4,354,PS,exp,38,↓,down,↓,0.7453262000344694,True,10,1,0,3
Y2-S2-095M27,4,355,PS,exp,34,←,right,→,1.4458257999503985,False,10,-1,1,4
Y2-S2-095M27,4,356,PS,exp,28,↓,down,↓,0.7428875000332482,True,11,-1,0,4
Y2-S2-095M27,4,357,PS,exp,25,→,right,→,0.45176509994780645,True,11,-1,0,4
Y2-S2-095M27,4,358,PS,exp,30,←,left,←,0.5209174000192434,True,11,1,1,5
Y2-S2-095M27,4,359,PS,exp,30,↓,down,↓,0.6560120999929495,True,10,1,0,5
Y2-S2-095M27,4,360,PS,exp,29,↑,up,↑,0.5937147999648005,True,10,1,0,5
Y2-S2-095M27,4,361,PS,exp,40,→,right,→,0.5315023000002839,True,10,1,0,5
Y2-S2-095M27,4,362,PS,exp,30,←,left,←,0.5805055000237189,True,9,1,0,5
Y2-S2-095M27,4,363,PS,exp,42,↓,up,↑,0.6242672000080347,False,9,-1,1,6
Y2-S2-095M27,4,364,PS,exp,38,→,right,→,0.9474742999882437,True,10,-1,0,6
Y2-S2-095M27,4,365,PS,exp,45,↑,up,↑,0.6906714999931864,True,10,-1,0,6
Y2-S2-095M27,4,366,PS,exp,29,←,left,←,0.5704111999948509,True,10,1,1,7
Y2-S2-095M27,4,367,PS,exp,26,→,right,→,0.4305896000005305,True,9,1,0,7
Y2-S2-095M27,4,368,PS,exp,45,↓,down,↓,0.831974100030493,True,9,1,0,7
Y2-S2-095M27,4,369,PS,exp,27,↑,up,↑,0.6394344000145793,True,9,1,0,7
Y2-S2-095M27,4,370,PS,exp,36,↓,down,↓,0.7322614999720827,True,8,1,0,7
Y2-S2-095M27,4,371,PS,exp,46,↑,down,↓,0.819338199973572,False,8,-1,1,8
Y2-S2-095M27,4,372,PS,exp,31,↓,down,↓,0.686275799991563,True,9,-1,0,8
Y2-S2-095M27,4,373,PS,exp,43,↑,up,↑,0.7597088999464177,True,9,-1,0,8
Y2-S2-095M27,4,374,PS,exp,37,→,up,↑,0.6137317000539042,False,9,-1,0,8
Y2-S2-095M27,4,375,PS,exp,34,↓,up,↑,1.0021406999439932,False,10,-1,0,8
Y2-S2-095M27,4,376,PS,exp,40,→,right,→,0.5602162000141107,True,11,-1,0,8
Y2-S2-095M27,4,377,PS,exp,25,↑,up,↑,0.7781966000329703,True,11,-1,0,8
Y2-S2-095M27,4,378,PS,exp,35,←,left,←,0.6733491999912076,True,11,1,1,9
Y2-S2-095M27,4,379,PS,exp,37,↑,up,↑,0.5093885000096634,True,10,1,0,9
Y2-S2-095M27,4,380,PS,exp,34,↓,down,↓,0.6666524999891408,True,10,1,0,9
Y2-S2-095M27,4,381,PS,exp,28,→,right,→,0.5806502000195906,True,10,1,0,9
Y2-S2-095M27,4,382,PS,exp,26,←,up,↑,0.9432727000094019,False,9,-1,1,10
Y2-S2-095M27,4,383,PS,exp,37,↓,down,↓,0.5302973999641836,True,10,-1,0,10
Y2-S2-095M27,4,384,PS,exp,43,↑,up,↑,0.5999141999636777,True,10,-1,0,10
Y2-S2-095M27,4,385,PS,exp,35,↓,down,↓,0.6062871000031009,True,10,1,1,11
Y2-S2-095M27,4,386,PS,exp,25,→,right,→,0.5167731000110507,True,9,1,0,11
Y2-S2-095M27,4,387,PS,exp,49,←,left,←,0.5264595999615267,True,9,1,0,11
Y2-S2-095M27,4,388,PS,exp,45,↑,left,←,0.6532129000406712,False,9,-1,1,12
Y2-S2-095M27,4,389,PS,exp,34,↓,down,↓,0.739935899968259,True,10,-1,0,12
Y2-S2-095M27,4,390,PS,exp,46,←,left,←,0.8280887000146322,True,10,-1,0,12
Y2-S2-095M27,4,391,PS,exp,50,↑,left,←,1.0703407999826595,False,10,-1,0,12
Y2-S2-095M27,4,392,PS,exp,49,←,left,←,0.5429493999690749,True,11,-1,0,12
Y2-S2-095M27,4,393,PS,exp,33,↑,up,↑,0.6664773000520654,True,11,-1,0,12
Y2-S2-095M27,4,394,PS,exp,49,←,left,←,0.5704795999918133,True,11,1,1,13
Y2-S2-095M27,4,395,PS,exp,31,↑,up,↑,0.5670605000341311,True,10,1,0,13
Y2-S2-095M27,4,396,PS,exp,39,→,left,←,0.734079500020016,False,10,-1,1,14
Y2-S2-095M27,4,397,PS,exp,27,↓,down,↓,0.703356200014241,True,11,-1,0,14
Y2-S2-095M27,4,398,PS,exp,25,↑,left,←,0.6354995999718085,False,11,-1,0,14
Y2-S2-095M27,4,399,PS,exp,35,←,left,←,0.5457504999940284,True,12,-1,0,14
Y2-S2-095M27,4,400,PS,exp,30,↑,up,↑,0.5656251999898814,True,12,-1,0,14
Y2-S2-095M27,4,401,PS,exp,43,←,left,←,0.5467595999944024,True,12,1,1,15
Y2-S2-095M27,4,402,PS,exp,30,↑,up,↑,0.5878252999973483,True,11,1,0,15
Y2-S2-095M27,4,403,PS,exp,43,→,right,→,0.5203248999896459,True,11,1,0,15
Y2-S2-095M27,4,404,PS,exp,34,←,left,←,0.6530998999951407,True,11,1,0,15
Y2-S2-095M27,4,405,PS,exp,37,↓,left,←,0.7235856999759562,False,10,-1,1,16
Y2-S2-095M27,5,406,PS,intra_train,32,→,right,→,0.7309951999923214,True,13,-,-,-
Y2-S2-095M27,5,407,PS,intra_train,44,↓,down,↓,1.2598311000037938,True,13,-,-,-
Y2-S2-095M27,5,408,PS,intra_train,31,←,left,←,0.6374896000488661,True,13,-,-,-
Y2-S2-095M27,5,409,PS,intra_train,39,→,right,→,0.616397199977655,True,13,-,-,-
Y2-S2-095M27,5,410,PS,intra_train,50,↓,down,↓,0.8168147000251338,True,13,-,-,-
Y2-S2-095M27,5,411,PS,exp,34,←,left,←,0.5261083000223152,True,9,0,0,0
Y2-S2-095M27,5,412,PS,exp,29,↑,left,←,0.8243071000324562,False,9,-1,0,0
Y2-S2-095M27,5,413,PS,exp,39,→,right,→,0.6739484999561682,True,10,-1,0,0
Y2-S2-095M27,5,414,PS,exp,32,↓,left,←,0.630738299980294,False,10,-1,0,0
Y2-S2-095M27,5,415,PS,exp,48,→,right,→,0.6496581000392325,True,11,-1,0,0
Y2-S2-095M27,5,416,PS,exp,39,↑,up,↑,0.6891955999890342,True,11,-1,0,0
Y2-S2-095M27,5,417,PS,exp,31,→,right,→,0.7038075000164099,True,11,1,1,1
Y2-S2-095M27,5,418,PS,exp,44,↓,down,↓,0.7435949000064284,True,10,1,0,1
Y2-S2-095M27,5,419,PS,exp,36,→,right,→,0.8020357000059448,True,10,1,0,1
Y2-S2-095M27,5,420,PS,exp,34,↓,down,↓,0.7759204999892972,True,10,1,0,1
Y2-S2-095M27,5,421,PS,exp,32,↑,up,↑,0.6312614000053145,True,9,1,0,1
Y2-S2-095M27,5,422,PS,exp,45,←,left,←,0.543058299983386,True,9,1,0,1
Y2-S2-095M27,5,423,PS,exp,32,→,up,↑,0.7163485999917611,False,9,-1,1,2
Y2-S2-095M27,5,424,PS,exp,40,↑,up,↑,0.575890900043305,True,10,-1,0,2
Y2-S2-095M27,5,425,PS,exp,41,→,up,↑,0.6489037999999709,False,10,-1,0,2
Y2-S2-095M27,5,426,PS,exp,48,↑,up,↑,0.655886999971699,True,11,-1,0,2
Y2-S2-095M27,5,427,PS,exp,30,→,right,→,0.6145199000020511,True,11,-1,0,2
Y2-S2-095M27,5,428,PS,exp,49,↓,down,↓,0.6316058000084013,True,11,1,1,3
Y2-S2-095M27,5,429,PS,exp,43,←,left,←,0.5718214000225998,True,10,1,0,3
Y2-S2-095M27,5,430,PS,exp,47,↑,up,↑,0.6239529000013135,True,10,1,0,3
Y2-S2-095M27,5,431,PS,exp,37,→,right,→,0.5546699000406079,True,10,1,0,3
Y2-S2-095M27,5,432,PS,exp,25,↓,right,→,0.7272909000166692,False,9,-1,1,4
Y2-S2-095M27,5,433,PS,exp,31,↑,up,↑,0.5572153000393882,True,10,-1,0,4
Y2-S2-095M27,5,434,PS,exp,31,←,left,←,0.48874980001710355,True,10,-1,0,4
Y2-S2-095M27,5,435,PS,exp,43,↓,down,↓,0.7529522000113502,True,10,1,1,5
Y2-S2-095M27,5,436,PS,exp,42,↑,left,←,0.656031999969855,False,9,-1,1,6
Y2-S2-095M27,5,437,PS,exp,32,→,right,→,0.8705444000079297,True,10,-1,0,6
Y2-S2-095M27,5,438,PS,exp,26,↑,down,↓,0.844798100006301,False,10,-1,0,6
Y2-S2-095M27,5,439,PS,exp,25,←,left,←,0.5635200000251643,True,11,-1,0,6
Y2-S2-095M27,5,440,PS,exp,47,↓,down,↓,0.6641246000071988,True,11,-1,0,6
Y2-S2-095M27,5,441,PS,exp,26,←,down,↓,0.9962315000011586,False,11,-1,0,6
Y2-S2-095M27,5,442,PS,exp,47,↑,up,↑,0.6509638000279665,True,12,-1,0,6
Y2-S2-095M27,5,443,PS,exp,30,→,right,→,0.6348431999795139,True,12,-1,0,6
Y2-S2-095M27,5,444,PS,exp,50,↓,down,↓,0.6791083000134677,True,12,1,1,7
Y2-S2-095M27,5,445,PS,exp,27,↑,up,↑,0.6236175000085495,True,11,1,0,7
Y2-S2-095M27,5,446,PS,exp,36,←,left,←,0.5910212000017054,True,11,1,0,7
Y2-S2-095M27,5,447,PS,exp,42,↓,down,↓,0.7206435999833047,True,11,1,0,7
Y2-S2-095M27,5,448,PS,exp,42,↑,up,↑,0.6420550000038929,True,10,1,0,7
Y2-S2-095M27,5,449,PS,exp,36,→,right,→,0.6512203000020236,True,10,1,0,7
Y2-S2-095M27,5,450,PS,exp,30,↑,up,↑,0.5262817000038922,True,10,1,0,7
Y2-S2-095M27,5,451,PS,exp,47,↓,down,↓,0.6970112000126392,True,9,1,0,7
Y2-S2-095M27,5,452,PS,exp,43,←,up,↑,0.7884141999529675,False,9,-1,1,8
Y2-S2-095M27,5,453,PS,exp,49,→,up,↑,0.6976259999792092,False,10,-1,0,8
Y2-S2-095M27,5,454,PS,exp,48,↑,up,↑,0.6329770000302233,True,11,-1,0,8
Y2-S2-095M27,5,455,PS,exp,37,↓,down,↓,0.6198851999943145,True,11,-1,0,8
Y2-S2-095M27,5,456,PS,exp,30,→,up,↑,0.6785092999925837,False,11,-1,0,8
Y2-S2-095M27,5,457,PS,exp,47,↑,up,↑,0.6527941999956965,True,12,-1,0,8
Y2-S2-095M27,5,458,PS,exp,26,→,right,→,1.268613499996718,True,12,-1,0,8
Y2-S2-095M27,5,459,PS,exp,50,↓,down,↓,0.6920754999737255,True,12,1,1,9
Y2-S2-095M27,5,460,PS,exp,45,←,left,←,0.6120659000007436,True,11,1,0,9
Y2-S2-095M27,5,461,PS,exp,44,→,right,→,0.9558789000147954,True,11,1,0,9
Y2-S2-095M27,5,462,PS,exp,31,↓,down,↓,0.5946945000323467,True,11,1,0,9
Y2-S2-095M27,5,463,PS,exp,37,→,right,→,0.6399341000360437,True,10,1,0,9
Y2-S2-095M27,5,464,PS,exp,29,↓,down,↓,0.6322503999690525,True,10,1,0,9
Y2-S2-095M27,5,465,PS,exp,50,←,left,←,0.6396496000234038,True,10,1,0,9
Y2-S2-095M27,5,466,PS,exp,25,↓,down,↓,0.6341574999969453,True,9,1,0,9
Y2-S2-095M27,5,467,PS,exp,30,↑,up,↑,0.5828275999519974,True,9,1,0,9
Y2-S2-095M27,5,468,PS,exp,48,↓,up,↑,0.6026694999891333,False,9,-1,1,10
Y2-S2-095M27,5,469,PS,exp,34,→,right,→,0.5516490000300109,True,10,-1,0,10
Y2-S2-095M27,5,470,PS,exp,40,←,left,←,0.5455091000185348,True,10,-1,0,10
Y2-S2-095M27,5,471,PS,exp,42,→,right,→,0.6342645999975502,True,10,1,1,11
Y2-S2-095M27,5,472,PS,exp,35,←,left,←,0.8327322999830358,True,9,1,0,11
Y2-S2-095M27,5,473,PS,exp,49,↑,up,↑,0.5618211000110023,True,9,1,0,11
Y2-S2-095M27,5,474,PS,exp,45,←,left,←,0.5803914999705739,True,9,1,0,11
Y2-S2-095M27,5,475,PS,exp,39,↓,down,↓,0.7781051000347361,True,8,1,0,11
Y2-S2-095M27,5,476,PS,exp,46,↑,up,↑,0.6290293000056408,True,8,1,0,11
Y2-S2-095M27,5,477,PS,exp,28,↓,down,↓,0.7811682000174187,True,8,1,0,11
Y2-S2-095M27,5,478,PS,exp,30,→,right,→,0.8428285999689251,True,7,1,0,11
Y2-S2-095M27,5,479,PS,exp,46,←,left,←,0.5605983000132255,True,7,1,0,11
Y2-S2-095M27,5,480,PS,exp,32,↓,down,↓,0.6698769999784417,True,7,1,0,11
Y2-S2-095M27,5,481,PS,exp,26,←,left,←,0.5213138000108302,True,6,1,0,11
Y2-S2-095M27,5,482,PS,exp,34,↓,down,↓,0.5651397000183351,True,6,1,0,11
Y2-S2-095M27,5,483,PS,exp,44,↑,down,↓,1.0856603999854997,False,6,-1,1,12
Y2-S2-095M27,5,484,PS,exp,33,↓,down,↓,0.5020348000107333,True,7,-1,0,12
Y2-S2-095M27,5,485,PS,exp,41,↑,down,↓,0.5811519999988377,False,7,-1,0,12
Y2-S2-095M27,5,486,PS,exp,48,↓,down,↓,0.5565420999773778,True,8,-1,0,12
Y2-S2-095M27,5,487,PS,exp,45,←,down,↓,0.5852675000205636,False,8,-1,0,12
Y2-S2-095M27,5,488,PS,exp,26,↓,down,↓,0.6677259999560192,True,9,-1,0,12
Y2-S2-095M27,5,489,PS,exp,37,→,right,→,0.7034608999965712,True,9,-1,0,12
Y2-S2-095M27,5,490,PS,exp,29,←,left,←,0.6225169999524951,True,9,1,1,13
Y2-S2-095M27,5,491,PS,exp,39,→,right,→,0.5619080999749713,True,8,1,0,13
Y2-S2-095M27,5,492,PS,exp,40,↑,up,↑,0.7484672999707982,True,8,1,0,13
Y2-S2-095M27,5,493,PS,exp,48,↓,up,↑,0.55334009998478,False,8,-1,1,14
Y2-S2-095M27,5,494,PS,exp,25,→,right,→,0.5017691999673843,True,9,-1,0,14
Y2-S2-095M27,5,495,PS,exp,47,←,left,←,0.5635428000241518,True,9,-1,0,14
Y2-S2-095M27,5,496,PS,exp,38,↑,right,→,0.6249198000296019,False,9,-1,0,14
Y2-S2-095M27,5,497,PS,exp,40,→,right,→,0.5117192000034265,True,10,-1,0,14
Y2-S2-095M27,5,498,PS,exp,44,←,left,←,0.5561289000324905,True,10,-1,0,14
Y2-S2-095M27,5,499,PS,exp,30,↓,right,→,0.7313124000211246,False,10,-1,0,14
Y2-S2-095M27,5,500,PS,exp,43,↑,up,↑,0.6040797999594361,True,11,-1,0,14
Y2-S2-095M27,5,501,PS,exp,46,←,left,←,0.6016019000089727,True,11,-1,0,14
Y2-S2-095M27,5,502,PS,exp,48,↑,up,↑,0.4918921999633312,True,11,1,1,15
Y2-S2-095M27,5,503,PS,exp,36,↓,down,↓,0.7068296000361443,True,10,1,0,15
Y2-S2-095M27,5,504,PS,exp,34,↑,up,↑,0.7510342000168748,True,10,1,0,15
Y2-S2-095M27,5,505,PS,exp,29,←,left,←,0.552546999999322,True,10,1,0,15
Y2-S2-095M27,5,506,PS,exp,39,↓,down,↓,0.712127499980852,True,9,1,0,15
Y2-S2-095M27,5,507,PS,exp,30,↑,down,↓,0.8937566999811679,False,9,-1,1,16
Y2-S2-095M27,6,508,AS,intra_train,26,→,right,→,0.6509943000273779,True,15,-,-,-
Y2-S2-095M27,6,509,AS,intra_train,30,↓,right,→,0.815747500048019,False,15,-,-,-
Y2-S2-095M27,6,510,AS,intra_train,34,↑,up,↑,0.6226598999928683,True,15,-,-,-
Y2-S2-095M27,6,511,AS,intra_train,25,←,right,→,0.5899276999989524,False,15,-,-,-
Y2-S2-095M27,6,512,AS,intra_train,46,↑,up,↑,0.5542336999787949,True,15,-,-,-
Y2-S2-095M27,6,513,AS,exp,34,←,right,→,0.613611500011757,False,10,-1,0,0
Y2-S2-095M27,6,514,AS,exp,28,↑,up,↑,0.7897510000038892,True,11,-1,0,0
Y2-S2-095M27,6,515,AS,exp,31,↓,down,↓,0.6832772999769077,True,11,-1,0,0
Y2-S2-095M27,6,516,AS,exp,35,→,up,↑,0.8104613000177778,False,11,-1,0,0
Y2-S2-095M27,6,517,AS,exp,37,↑,up,↑,0.6829058000002988,True,12,-1,0,0
Y2-S2-095M27,6,518,AS,exp,45,←,up,↑,0.6379340999992564,False,12,-1,0,0
Y2-S2-095M27,6,519,AS,exp,28,→,right,→,0.5618173999828286,True,13,-1,0,0
Y2-S2-095M27,6,520,AS,exp,40,↓,down,↓,0.6581432999810204,True,13,-1,0,0
Y2-S2-095M27,6,521,AS,exp,26,←,left,←,0.5795752000412904,True,13,1,1,1
Y2-S2-095M27,6,522,AS,exp,48,↑,up,↑,0.6948895000386983,True,12,1,0,1
Y2-S2-095M27,6,523,AS,exp,46,→,right,→,0.6404523000237532,True,12,1,0,1
Y2-S2-095M27,6,524,AS,exp,49,↑,up,↑,0.705633100005798,True,12,1,0,1
Y2-S2-095M27,6,525,AS,exp,34,→,right,→,0.6275944000226445,True,11,1,0,1
Y2-S2-095M27,6,526,AS,exp,26,↓,up,↑,0.89905920001911,False,11,-1,1,2
Y2-S2-095M27,6,527,AS,exp,42,↑,up,↑,0.5854124000179581,True,12,-1,0,2
Y2-S2-095M27,6,528,AS,exp,41,↓,down,↓,0.641207599954214,True,12,-1,0,2
Y2-S2-095M27,6,529,AS,exp,50,→,right,→,0.8236416000290774,True,12,1,1,3
Y2-S2-095M27,6,530,AS,exp,47,↓,down,↓,0.7233369000023231,True,11,1,0,3
Y2-S2-095M27,6,531,AS,exp,25,→,right,→,0.5997713999822736,True,11,1,0,3
Y2-S2-095M27,6,532,AS,exp,44,↑,up,↑,0.7061699000187218,True,11,1,0,3
Y2-S2-095M27,6,533,AS,exp,29,↓,right,→,0.7297266999958083,False,10,-1,1,4
Y2-S2-095M27,6,534,AS,exp,47,←,left,←,0.6868743000086397,True,11,-1,0,4
Y2-S2-095M27,6,535,AS,exp,46,→,right,→,0.753480400016997,True,11,-1,0,4
Y2-S2-095M27,6,536,AS,exp,26,←,left,←,0.539710599987302,True,11,1,1,5
Y2-S2-095M27,6,537,AS,exp,29,↓,right,→,0.6074133000220172,False,10,-1,1,6
Y2-S2-095M27,6,538,AS,exp,46,←,left,←,0.5926104999962263,True,11,-1,0,6
Y2-S2-095M27,6,539,AS,exp,35,→,right,→,0.6340881999931298,True,11,-1,0,6
Y2-S2-095M27,6,540,AS,exp,28,↓,down,↓,0.6638236000435427,True,11,1,1,7
Y2-S2-095M27,6,541,AS,exp,43,←,left,←,0.5221269999747165,True,10,1,0,7
Y2-S2-095M27,6,542,AS,exp,29,↓,left,←,0.6503013000474311,False,10,-1,1,8
Y2-S2-095M27,6,543,AS,exp,29,←,left,←,0.4768312999513,True,11,-1,0,8
Y2-S2-095M27,6,544,AS,exp,28,↑,up,↑,0.6494195999694057,True,11,-1,0,8
Y2-S2-095M27,6,545,AS,exp,36,←,left,←,0.9704327000072226,True,11,1,1,9
Y2-S2-095M27,6,546,AS,exp,30,↓,left,←,0.7578876999905333,False,10,-1,1,10
Y2-S2-095M27,6,547,AS,exp,25,→,right,→,0.5412028999999166,True,11,-1,0,10
Y2-S2-095M27,6,548,AS,exp,34,↓,right,→,0.7274000000325032,False,11,-1,0,10
Y2-S2-095M27,6,549,AS,exp,33,←,right,→,0.7105859000002965,False,12,-1,0,10
Y2-S2-095M27,6,550,AS,exp,28,↓,right,→,0.72954180004308,False,13,-1,0,10
Y2-S2-095M27,6,551,AS,exp,25,←,left,←,0.5486077999812551,True,14,-1,0,10
Y2-S2-095M27,6,552,AS,exp,42,↑,up,↑,0.5727373999543488,True,14,-1,0,10
Y2-S2-095M27,6,553,AS,exp,41,→,up,↑,0.7386925999890082,False,14,-1,0,10
Y2-S2-095M27,6,554,AS,exp,32,↓,up,↑,0.7111938000307418,False,15,-1,0,10
Y2-S2-095M27,6,555,AS,exp,26,↑,up,↑,0.4623988000093959,True,16,-1,0,10
Y2-S2-095M27,6,556,AS,exp,43,↓,down,↓,0.7518847999745049,True,16,-1,0,10
Y2-S2-095M27,6,557,AS,exp,36,←,left,←,0.5215704000438564,True,16,1,1,11
Y2-S2-095M27,6,558,AS,exp,30,↓,down,↓,0.7566021999809891,True,15,1,0,11
Y2-S2-095M27,6,559,AS,exp,33,→,left,←,0.9150197000126354,False,15,-1,1,12
Y2-S2-095M27,6,560,AS,exp,36,↓,down,↓,0.7186788999824785,True,16,-1,0,12
Y2-S2-095M27,6,561,AS,exp,49,←,left,←,0.6569053999846801,True,16,-1,0,12
Y2-S2-095M27,6,562,AS,exp,36,→,right,→,0.6737817000248469,True,16,1,1,13
Y2-S2-095M27,6,563,AS,exp,41,←,left,←,0.6004105000174604,True,15,1,0,13
Y2-S2-095M27,6,564,AS,exp,48,↓,down,↓,0.5947075000149198,True,15,1,0,13
Y2-S2-095M27,6,565,AS,exp,26,→,left,←,0.4466571000521071,False,15,-1,1,14
Y2-S2-095M27,6,566,AS,exp,47,↓,down,↓,0.7125021999818273,True,16,-1,0,14
Y2-S2-095M27,6,567,AS,exp,36,←,left,←,0.5862398999743164,True,16,-1,0,14
Y2-S2-095M27,6,568,AS,exp,50,↑,up,↑,0.7085570000344887,True,16,1,1,15
Y2-S2-095M27,6,569,AS,exp,39,↓,down,↓,0.7591643999912776,True,15,1,0,15
Y2-S2-095M27,6,570,AS,exp,27,→,right,→,0.6190262999734841,True,15,1,0,15
Y2-S2-095M27,6,571,AS,exp,39,←,left,←,0.6410858000162989,True,15,1,0,15
Y2-S2-095M27,6,572,AS,exp,36,↓,down,↓,0.6194852999760769,True,14,1,0,15
Y2-S2-095M27,6,573,AS,exp,47,↑,up,↑,0.685219099977985,True,14,1,0,15
Y2-S2-095M27,6,574,AS,exp,31,↓,down,↓,0.5805352000170387,True,14,1,0,15
Y2-S2-095M27,6,575,AS,exp,39,↑,up,↑,0.5767820000182837,True,13,1,0,15
Y2-S2-095M27,6,576,AS,exp,38,↓,down,↓,0.5818638000055216,True,13,1,0,15
Y2-S2-095M27,6,577,AS,exp,35,←,left,←,0.5162168000242673,True,13,1,0,15
Y2-S2-095M27,6,578,AS,exp,33,↓,down,↓,0.789752300013788,True,12,1,0,15
Y2-S2-095M27,6,579,AS,exp,29,↑,up,↑,0.4957443000166677,True,12,1,0,15
Y2-S2-095M27,6,580,AS,exp,48,←,left,←,0.5976447999710217,True,12,1,0,15
Y2-S2-095M27,6,581,AS,exp,38,→,right,→,0.7038990000146441,True,11,1,0,15
Y2-S2-095M27,6,582,AS,exp,38,←,right,→,0.7203440999728628,False,11,-1,1,16
Y2-S2-095M27,7,583,AS,intra_train,47,↓,down,↓,0.7750378999626264,True,15,-,-,-
Y2-S2-095M27,7,584,AS,intra_train,42,↑,up,↑,0.842694399994798,True,15,-,-,-
Y2-S2-095M27,7,585,AS,intra_train,32,↓,down,↓,0.6812848999979906,True,15,-,-,-
Y2-S2-095M27,7,586,AS,intra_train,43,→,right,→,0.6201351000345312,True,15,-,-,-
Y2-S2-095M27,7,587,AS,intra_train,36,←,left,←,0.5826017999788746,True,15,-,-,-
Y2-S2-095M27,7,588,AS,exp,37,→,right,→,0.475088799954392,True,10,0,0,0
Y2-S2-095M27,7,589,AS,exp,35,↓,right,→,1.1037681000307202,False,10,-1,0,0
Y2-S2-095M27,7,590,AS,exp,27,←,right,→,0.5141344000003301,False,11,-1,0,0
Y2-S2-095M27,7,591,AS,exp,31,↓,up,↑,0.7124227000167593,False,12,-1,0,0
Y2-S2-095M27,7,592,AS,exp,37,↑,up,↑,0.5890728000085801,True,13,-1,0,0
Y2-S2-095M27,7,593,AS,exp,25,↓,down,↓,0.6391201000078581,True,13,-1,0,0
Y2-S2-095M27,7,594,AS,exp,42,↑,up,↑,0.7168161000008695,True,13,1,1,1
Y2-S2-095M27,7,595,AS,exp,47,↓,up,↑,0.6093402000260539,False,12,-1,1,2
Y2-S2-095M27,7,596,AS,exp,27,→,right,→,0.5978534000460058,True,13,-1,0,2
Y2-S2-095M27,7,597,AS,exp,39,←,right,→,0.8816495999926701,False,13,-1,0,2
Y2-S2-095M27,7,598,AS,exp,27,↑,up,↑,0.525433799950406,True,14,-1,0,2
Y2-S2-095M27,7,599,AS,exp,36,→,right,→,0.5887486000428908,True,14,-1,0,2
Y2-S2-095M27,7,600,AS,exp,46,←,left,←,0.6728726000292227,True,14,1,1,3
Y2-S2-095M27,7,601,AS,exp,42,→,right,→,0.6198544999933802,True,13,1,0,3
Y2-S2-095M27,7,602,AS,exp,33,↑,up,↑,0.583092899993062,True,13,1,0,3
Y2-S2-095M27,7,603,AS,exp,45,←,left,←,0.8690531000029296,True,13,1,0,3
Y2-S2-095M27,7,604,AS,exp,25,↑,up,↑,0.604049900022801,True,12,1,0,3
Y2-S2-095M27,7,605,AS,exp,36,↓,up,↑,0.8737824999843724,False,12,-1,1,4
Y2-S2-095M27,7,606,AS,exp,28,←,left,←,0.6602378999814391,True,13,-1,0,4
Y2-S2-095M27,7,607,AS,exp,42,→,right,→,0.5624199000303634,True,13,-1,0,4
Y2-S2-095M27,7,608,AS,exp,35,↑,up,↑,0.5531622000271454,True,13,1,1,5
Y2-S2-095M27,7,609,AS,exp,38,↓,up,↑,0.7880193000310101,False,12,-1,1,6
Y2-S2-095M27,7,610,AS,exp,43,↑,down,↓,0.8633476999821141,False,13,-1,0,6
Y2-S2-095M27,7,611,AS,exp,37,→,right,→,0.6442661000182852,True,14,-1,0,6
Y2-S2-095M27,7,612,AS,exp,35,←,left,←,0.6053666999796405,True,14,-1,0,6
Y2-S2-095M27,7,613,AS,exp,45,→,up,↑,0.9449414999689907,False,14,-1,0,6
Y2-S2-095M27,7,614,AS,exp,37,↓,down,↓,0.6881923999753781,True,15,-1,0,6
Y2-S2-095M27,7,615,AS,exp,36,↑,up,↑,0.6688976000295952,True,15,-1,0,6
Y2-S2-095M27,7,616,AS,exp,32,↓,down,↓,0.6342428000061773,True,15,1,1,7
Y2-S2-095M27,7,617,AS,exp,37,→,right,→,0.5220104000181891,True,14,1,0,7
Y2-S2-095M27,7,618,AS,exp,28,↑,down,↓,0.8889208000036888,False,14,-1,1,8
Y2-S2-095M27,7,619,AS,exp,39,↓,down,↓,0.6705056999926455,True,15,-1,0,8
Y2-S2-095M27,7,620,AS,exp,41,→,right,→,0.6590442999731749,True,15,-1,0,8
Y2-S2-095M27,7,621,AS,exp,39,↑,up,↑,0.6615981999784708,True,15,1,1,9
Y2-S2-095M27,7,622,AS,exp,41,↓,up,↑,0.7028373999637552,False,14,-1,1,10
Y2-S2-095M27,7,623,AS,exp,42,←,left,←,0.5993226999999024,True,15,-1,0,10
Y2-S2-095M27,7,624,AS,exp,35,→,right,→,0.4569631000049412,True,15,-1,0,10
Y2-S2-095M27,7,625,AS,exp,42,←,left,←,0.4352751999977045,True,15,1,1,11
Y2-S2-095M27,7,626,AS,exp,49,↓,down,↓,0.7885308999684639,True,14,1,0,11
Y2-S2-095M27,7,627,AS,exp,40,←,left,←,0.5688591999933124,True,14,1,0,11
Y2-S2-095M27,7,628,AS,exp,38,↓,down,↓,0.7187799999956042,True,14,1,0,11
Y2-S2-095M27,7,629,AS,exp,47,↑,up,↑,0.5729992999695241,True,13,1,0,11
Y2-S2-095M27,7,630,AS,exp,47,←,left,←,0.507653400010895,True,13,1,0,11
Y2-S2-095M27,7,631,AS,exp,48,→,right,→,0.6855508000007831,True,13,1,0,11
Y2-S2-095M27,7,632,AS,exp,31,←,left,←,0.6649330999935046,True,12,1,0,11
Y2-S2-095M27,7,633,AS,exp,34,→,left,←,0.649759600055404,False,12,-1,1,12
Y2-S2-095M27,7,634,AS,exp,37,←,left,←,0.49567420000676066,True,13,-1,0,12
Y2-S2-095M27,7,635,AS,exp,45,↑,up,↑,0.5725305000087246,True,13,-1,0,12
Y2-S2-095M27,7,636,AS,exp,41,←,left,←,0.6201935000135563,True,13,1,1,13
Y2-S2-095M27,7,637,AS,exp,33,→,left,←,0.7225660000112839,False,12,-1,1,14
Y2-S2-095M27,7,638,AS,exp,29,↓,down,↓,0.6996088000014424,True,13,-1,0,14
Y2-S2-095M27,7,639,AS,exp,31,→,up,↑,0.6873990000458434,False,13,-1,0,14
Y2-S2-095M27,7,640,AS,exp,48,←,up,↑,0.6482466000015847,False,14,-1,0,14
Y2-S2-095M27,7,641,AS,exp,41,↓,down,↓,0.569198899960611,True,15,-1,0,14
Y2-S2-095M27,7,642,AS,exp,25,←,left,←,0.6485089999623597,True,15,-1,0,14
Y2-S2-095M27,7,643,AS,exp,32,↑,up,↑,0.5430349999805912,True,15,1,1,15
Y2-S2-095M27,7,644,AS,exp,31,→,right,→,0.629574800026603,True,14,1,0,15
Y2-S2-095M27,7,645,AS,exp,38,←,left,←,0.5102062000078149,True,14,1,0,15
Y2-S2-095M27,7,646,AS,exp,37,↓,down,↓,0.7224314999766648,True,14,1,0,15
Y2-S2-095M27,7,647,AS,exp,27,→,down,↓,0.8635453000315465,False,13,-1,1,16
Y2-S2-095M27,8,648,PS,intra_train,40,↓,down,↓,0.7904978999868035,True,13,-,-,-
Y2-S2-095M27,8,649,PS,intra_train,50,↑,up,↑,0.6979303999687545,True,13,-,-,-
Y2-S2-095M27,8,650,PS,intra_train,45,→,left,←,0.6393802000093274,False,13,-,-,-
Y2-S2-095M27,8,651,PS,intra_train,26,←,left,←,0.6335896999808028,True,13,-,-,-
Y2-S2-095M27,8,652,PS,intra_train,38,→,right,→,0.5394093000213616,True,13,-,-,-
Y2-S2-095M27,8,653,PS,exp,30,↑,up,↑,0.6542934000026435,True,9,0,0,0
Y2-S2-095M27,8,654,PS,exp,42,↓,left,←,0.6056576000410132,False,9,-1,0,0
Y2-S2-095M27,8,655,PS,exp,48,↑,left,←,0.6637719999998808,False,10,-1,0,0
Y2-S2-095M27,8,656,PS,exp,40,→,right,→,0.6608156000147574,True,11,-1,0,0
Y2-S2-095M27,8,657,PS,exp,48,↑,right,→,0.46056539996061474,False,11,-1,0,0
Y2-S2-095M27,8,658,PS,exp,30,↓,down,↓,0.8686539999907836,True,12,-1,0,0
Y2-S2-095M27,8,659,PS,exp,39,→,right,→,0.6122927000396885,True,12,-1,0,0
Y2-S2-095M27,8,660,PS,exp,26,↓,down,↓,0.6245342000038363,True,12,1,1,1
Y2-S2-095M27,8,661,PS,exp,29,↑,up,↑,0.5215477999881841,True,11,1,0,1
Y2-S2-095M27,8,662,PS,exp,50,←,left,←,0.5733261000132188,True,11,1,0,1
Y2-S2-095M27,8,663,PS,exp,41,↑,up,↑,0.602292999974452,True,11,1,0,1
Y2-S2-095M27,8,664,PS,exp,41,↓,down,↓,0.6156226000166498,True,10,1,0,1
Y2-S2-095M27,8,665,PS,exp,36,←,up,↑,0.6127780000097118,False,10,-1,1,2
Y2-S2-095M27,8,666,PS,exp,48,↑,up,↑,0.43949909997172654,True,11,-1,0,2
Y2-S2-095M27,8,667,PS,exp,36,→,right,→,0.6336391000077128,True,11,-1,0,2
Y2-S2-095M27,8,668,PS,exp,28,↓,down,↓,0.6053401000099257,True,11,1,1,3
Y2-S2-095M27,8,669,PS,exp,33,↑,up,↑,0.5222139999968931,True,10,1,0,3
Y2-S2-095M27,8,670,PS,exp,43,→,down,↓,0.6901486000278965,False,10,-1,1,4
Y2-S2-095M27,8,671,PS,exp,30,↑,up,↑,0.6342817000113428,True,11,-1,0,4
Y2-S2-095M27,8,672,PS,exp,49,→,right,→,0.9011192999896593,True,11,-1,0,4
Y2-S2-095M27,8,673,PS,exp,25,↑,up,↑,0.5941327000036836,True,11,1,1,5
Y2-S2-095M27,8,674,PS,exp,31,→,right,→,0.49744700000155717,True,10,1,0,5
Y2-S2-095M27,8,675,PS,exp,25,↑,right,→,0.5508559999871068,False,10,-1,1,6
Y2-S2-095M27,8,676,PS,exp,35,←,left,←,0.5402733000228181,True,11,-1,0,6
Y2-S2-095M27,8,677,PS,exp,44,↓,up,↑,0.7231217999942601,False,11,-1,0,6
Y2-S2-095M27,8,678,PS,exp,34,→,right,→,0.6547267999849282,True,12,-1,0,6
Y2-S2-095M27,8,679,PS,exp,39,↓,down,↓,0.6890447000041604,True,12,-1,0,6
Y2-S2-095M27,8,680,PS,exp,36,→,right,→,0.5037604999961331,True,12,1,1,7
Y2-S2-095M27,8,681,PS,exp,33,↑,down,↓,0.7999415999511257,False,11,-1,1,8
Y2-S2-095M27,8,682,PS,exp,29,↓,down,↓,0.6042652999749407,True,12,-1,0,8
Y2-S2-095M27,8,683,PS,exp,47,→,right,→,0.6449798999819905,True,12,-1,0,8
Y2-S2-095M27,8,684,PS,exp,47,←,left,←,0.5809321000124328,True,12,1,1,9
Y2-S2-095M27,8,685,PS,exp,27,→,left,←,0.7987533999839798,False,11,-1,1,10
Y2-S2-095M27,8,686,PS,exp,37,←,left,←,0.6268154000281356,True,12,-1,0,10
Y2-S2-095M27,8,687,PS,exp,38,↓,down,↓,0.6330454000271857,True,12,-1,0,10
Y2-S2-095M27,8,688,PS,exp,45,←,left,←,0.5592050999985076,True,12,1,1,11
Y2-S2-095M27,8,689,PS,exp,27,↓,down,↓,0.6649094999884255,True,11,1,0,11
Y2-S2-095M27,8,690,PS,exp,48,←,left,←,0.6607467000139877,True,11,1,0,11
Y2-S2-095M27,8,691,PS,exp,37,→,right,→,0.7293865000247024,True,11,1,0,11
Y2-S2-095M27,8,692,PS,exp,32,←,left,←,0.5263413999928162,True,10,1,0,11
Y2-S2-095M27,8,693,PS,exp,43,→,right,→,0.6601140000275336,True,10,1,0,11
Y2-S2-095M27,8,694,PS,exp,38,↑,up,↑,0.6370731000206433,True,10,1,0,11
Y2-S2-095M27,8,695,PS,exp,39,↓,down,↓,0.6294540999806486,True,9,1,0,11
Y2-S2-095M27,8,696,PS,exp,32,↑,up,↑,0.5379423999693245,True,9,1,0,11
Y2-S2-095M27,8,697,PS,exp,30,←,left,←,0.6822578000137582,True,9,1,0,11
Y2-S2-095M27,8,698,PS,exp,34,↓,down,↓,0.7020627000019886,True,8,1,0,11
Y2-S2-095M27,8,699,PS,exp,49,→,right,→,0.7022255000192672,True,8,1,0,11
Y2-S2-095M27,8,700,PS,exp,31,↑,up,↑,0.6758005000301637,True,8,1,0,11
Y2-S2-095M27,8,701,PS,exp,30,→,right,→,0.6444427000242285,True,7,1,0,11
Y2-S2-095M27,8,702,PS,exp,38,↑,right,→,0.8378989000339061,False,7,-1,1,12
Y2-S2-095M27,8,703,PS,exp,45,→,right,→,0.6148958000121638,True,8,-1,0,12
Y2-S2-095M27,8,704,PS,exp,34,←,right,→,0.6042643999680877,False,8,-1,0,12
Y2-S2-095M27,8,705,PS,exp,32,↑,right,→,0.8722439000266604,False,9,-1,0,12
Y2-S2-095M27,8,706,PS,exp,25,→,right,→,0.6432843999937177,True,10,-1,0,12
Y2-S2-095M27,8,707,PS,exp,47,↓,down,↓,0.7664547999738716,True,10,-1,0,12
Y2-S2-095M27,8,708,PS,exp,36,→,right,→,0.593690300011076,True,10,1,1,13
Y2-S2-095M27,8,709,PS,exp,31,↓,down,↓,0.6754120999830775,True,9,1,0,13
Y2-S2-095M27,8,710,PS,exp,49,←,left,←,0.5084943000110798,True,9,1,0,13
Y2-S2-095M27,8,711,PS,exp,48,→,right,→,0.5384969000006095,True,9,1,0,13
Y2-S2-095M27,8,712,PS,exp,31,↓,right,→,0.7078536000335589,False,8,-1,1,14
Y2-S2-095M27,8,713,PS,exp,31,→,right,→,0.42990930000087246,True,9,-1,0,14
Y2-S2-095M27,8,714,PS,exp,32,↓,down,↓,0.6096046000020579,True,9,-1,0,14
Y2-S2-095M27,8,715,PS,exp,38,←,down,↓,0.683618699957151,False,9,-1,0,14
Y2-S2-095M27,8,716,PS,exp,49,→,right,→,0.5311369000119157,True,10,-1,0,14
Y2-S2-095M27,8,717,PS,exp,46,↑,up,↑,0.5488986000418663,True,10,-1,0,14
Y2-S2-095M27,8,718,PS,exp,48,←,left,←,0.43826040002750233,True,10,1,1,15
Y2-S2-095M27,8,719,PS,exp,25,↑,up,↑,0.5693823000183329,True,9,1,0,15
Y2-S2-095M27,8,720,PS,exp,40,↓,down,↓,0.681909600039944,True,9,1,0,15
Y2-S2-095M27,8,721,PS,exp,50,↑,up,↑,0.5810182999703102,True,9,1,0,15
Y2-S2-095M27,8,722,PS,exp,30,←,left,←,0.48009049997199327,True,8,1,0,15
Y2-S2-095M27,8,723,PS,exp,33,↓,up,↑,0.5880187000147998,False,8,-1,1,16
