PART_ID,Block_no,Trial_no,Block_type,Trial_type,CSI,Stim_letter,Key_pressed,letter_choose,Rt,Corr,Stimulus Time,Level,Reversal,Revs_count
Y2-S2-028K24,1,1,PS,train,44,←,left,←,0.7549401000142097,True,30,-,-,-
Y2-S2-028K24,1,2,PS,train,27,↓,down,↓,0.6338261000346392,True,30,-,-,-
Y2-S2-028K24,1,3,PS,train,39,←,left,←,0.7190324000548571,True,30,-,-,-
Y2-S2-028K24,1,4,PS,train,36,→,right,→,0.7592821000143886,True,30,-,-,-
Y2-S2-028K24,1,5,PS,train,50,↓,down,↓,0.7005767000373453,True,30,-,-,-
Y2-S2-028K24,1,6,PS,train,47,←,left,←,0.633940999978222,True,30,-,-,-
Y2-S2-028K24,1,7,PS,train,37,↑,up,↑,0.5006704999832436,True,30,-,-,-
Y2-S2-028K24,1,8,PS,train,33,→,left,←,0.38423879991751164,False,30,-,-,-
Y2-S2-028K24,1,9,PS,train,44,↓,down,↓,1.6806669000070542,True,30,-,-,-
Y2-S2-028K24,1,10,PS,train,45,↑,up,↑,0.48398390004877,True,30,-,-,-
Y2-S2-028K24,2,11,AS,train,47,→,right,→,0.5177818000083789,True,45,-,-,-
Y2-S2-028K24,2,12,AS,train,47,←,left,←,0.517860799911432,True,45,-,-,-
Y2-S2-028K24,2,13,AS,train,25,→,right,→,0.7011752999387681,True,45,-,-,-
Y2-S2-028K24,2,14,AS,train,45,↓,down,↓,0.6675284000812098,True,45,-,-,-
Y2-S2-028K24,2,15,AS,train,28,→,right,→,0.6507839999394491,True,45,-,-,-
Y2-S2-028K24,2,16,AS,train,43,←,left,←,0.7339492000173777,True,45,-,-,-
Y2-S2-028K24,2,17,AS,train,43,↑,down,↓,0.5842716000042856,False,45,-,-,-
Y2-S2-028K24,2,18,AS,train,48,←,left,←,0.5511883000144735,True,45,-,-,-
Y2-S2-028K24,2,19,AS,train,30,↑,up,↑,0.5846758999396116,True,45,-,-,-
Y2-S2-028K24,2,20,AS,train,28,→,right,→,0.4509946999605745,True,45,-,-,-
Y2-S2-028K24,-,21,PS,adaptive,32,↓,down,↓,0.4764037999557331,True,10,0,0,0
Y2-S2-028K24,-,22,PS,adaptive,42,→,left,←,0.8400546000339091,False,10,-1,0,0
Y2-S2-028K24,-,23,PS,adaptive,27,↑,down,↓,0.7932480999734253,False,11,-1,0,0
Y2-S2-028K24,-,24,PS,adaptive,34,→,right,→,0.5195313000585884,True,12,-1,0,0
Y2-S2-028K24,-,25,PS,adaptive,30,↑,up,↑,0.4871895000105724,True,12,-1,0,0
Y2-S2-028K24,-,26,PS,adaptive,46,↓,down,↓,0.5474267000099644,True,12,1,1,1
Y2-S2-028K24,-,27,PS,adaptive,38,↑,up,↑,0.45918920007534325,True,11,1,0,1
Y2-S2-028K24,-,28,PS,adaptive,47,→,right,→,0.5012975999852642,True,11,1,0,1
Y2-S2-028K24,-,29,PS,adaptive,48,←,left,←,0.6549149000784382,True,11,1,0,1
Y2-S2-028K24,-,30,PS,adaptive,44,↓,down,↓,0.5031746999593452,True,10,1,0,1
Y2-S2-028K24,-,31,PS,adaptive,32,↑,up,↑,0.7271558999782428,True,10,1,0,1
Y2-S2-028K24,-,32,PS,adaptive,31,↓,down,↓,0.7798082999652252,True,10,1,0,1
Y2-S2-028K24,-,33,PS,adaptive,27,↑,down,↓,0.8546493999892846,False,9,-1,1,2
Y2-S2-028K24,-,34,PS,adaptive,34,→,right,→,0.5119303999235854,True,10,-1,0,2
Y2-S2-028K24,-,35,PS,adaptive,43,↓,down,↓,0.5002091000787914,True,10,-1,0,2
Y2-S2-028K24,-,36,PS,adaptive,42,←,left,←,0.5313393999822438,True,10,1,1,3
Y2-S2-028K24,-,37,PS,adaptive,38,→,right,→,0.5931350999744609,True,9,1,0,3
Y2-S2-028K24,-,38,PS,adaptive,40,←,left,←,0.5404582000337541,True,9,1,0,3
Y2-S2-028K24,-,39,PS,adaptive,33,↑,left,←,0.7526979999383911,False,9,-1,1,4
Y2-S2-028K24,-,40,AS,adaptive,36,→,right,→,1.9340580999851227,True,20,0,0,0
Y2-S2-028K24,-,41,AS,adaptive,33,↓,down,↓,0.7965595999266952,True,20,0,0,0
Y2-S2-028K24,-,42,AS,adaptive,49,→,right,→,0.5470945999259129,True,20,1,0,0
Y2-S2-028K24,-,43,AS,adaptive,49,↓,down,↓,0.5287460000254214,True,19,1,0,0
Y2-S2-028K24,-,44,AS,adaptive,42,→,right,→,0.5103736000601202,True,19,1,0,0
Y2-S2-028K24,-,45,AS,adaptive,36,↓,down,↓,0.5102351000532508,True,19,1,0,0
Y2-S2-028K24,-,46,AS,adaptive,32,←,left,←,0.5260777999646962,True,18,1,0,0
Y2-S2-028K24,-,47,AS,adaptive,33,↑,up,↑,0.5584536000387743,True,18,1,0,0
Y2-S2-028K24,-,48,AS,adaptive,38,←,left,←,0.5042805999983102,True,18,1,0,0
Y2-S2-028K24,-,49,AS,adaptive,42,↑,up,↑,0.5696059999754652,True,17,1,0,0
Y2-S2-028K24,-,50,AS,adaptive,49,↓,down,↓,0.6379265999421477,True,17,1,0,0
Y2-S2-028K24,-,51,AS,adaptive,44,→,right,→,0.6152472000103444,True,17,1,0,0
Y2-S2-028K24,-,52,AS,adaptive,39,↑,up,↑,0.7089684000238776,True,16,1,0,0
Y2-S2-028K24,-,53,AS,adaptive,28,↓,down,↓,0.672225599992089,True,16,1,0,0
Y2-S2-028K24,-,54,AS,adaptive,50,←,left,←,0.5022988000418991,True,16,1,0,0
Y2-S2-028K24,-,55,AS,adaptive,34,↓,down,↓,0.4641692000441253,True,15,1,0,0
Y2-S2-028K24,-,56,AS,adaptive,25,↑,up,↑,0.44908179994672537,True,15,1,0,0
Y2-S2-028K24,-,57,AS,adaptive,50,←,right,→,0.5631959999445826,False,15,-1,1,1
Y2-S2-028K24,-,58,AS,adaptive,45,↑,down,↓,0.484933799947612,False,16,-1,0,1
Y2-S2-028K24,-,59,AS,adaptive,33,←,left,←,0.592461199965328,True,17,-1,0,1
Y2-S2-028K24,-,60,AS,adaptive,30,↑,up,↑,0.5618456000229344,True,17,-1,0,1
Y2-S2-028K24,-,61,AS,adaptive,39,↓,up,↑,0.7637956999242306,False,17,-1,0,1
Y2-S2-028K24,-,62,AS,adaptive,49,→,right,→,0.490143800037913,True,18,-1,0,1
Y2-S2-028K24,-,63,AS,adaptive,50,↓,down,↓,0.5283704999601468,True,18,-1,0,1
Y2-S2-028K24,-,64,AS,adaptive,50,↑,up,↑,0.49574759998358786,True,18,1,1,2
Y2-S2-028K24,-,65,AS,adaptive,42,←,left,←,0.6608698000200093,True,17,1,0,2
Y2-S2-028K24,-,66,AS,adaptive,32,→,right,→,0.49176789994817227,True,17,1,0,2
Y2-S2-028K24,-,67,AS,adaptive,25,↓,down,↓,0.7059835999971256,True,17,1,0,2
Y2-S2-028K24,-,68,AS,adaptive,40,↑,down,↓,0.6285291999811307,False,16,-1,1,3
Y2-S2-028K24,-,69,AS,adaptive,27,→,right,→,0.5986954000545666,True,17,-1,0,3
Y2-S2-028K24,-,70,AS,adaptive,48,←,left,←,0.6672490999335423,True,17,-1,0,3
Y2-S2-028K24,-,71,AS,adaptive,40,↓,down,↓,0.6216487999772653,True,17,1,1,4
Y2-S2-028K24,1,72,PS,intra_train,49,←,left,←,0.5366349999094382,True,15,-,-,-
Y2-S2-028K24,1,73,PS,intra_train,34,↓,down,↓,0.5791616000933573,True,15,-,-,-
Y2-S2-028K24,1,74,PS,intra_train,49,↑,up,↑,0.4845079000806436,True,15,-,-,-
Y2-S2-028K24,1,75,PS,intra_train,43,↓,down,↓,0.4687228000257164,True,15,-,-,-
Y2-S2-028K24,1,76,PS,intra_train,41,→,right,→,0.4755218999926001,True,15,-,-,-
Y2-S2-028K24,1,77,PS,exp,46,←,right,→,0.7306343000382185,False,10,-1,0,0
Y2-S2-028K24,1,78,PS,exp,40,↑,up,↑,0.4457804000703618,True,11,-1,0,0
Y2-S2-028K24,1,79,PS,exp,43,←,left,←,0.5126904000062495,True,11,-1,0,0
Y2-S2-028K24,1,80,PS,exp,42,→,right,→,0.5657976999646053,True,11,1,1,1
Y2-S2-028K24,1,81,PS,exp,47,←,left,←,0.5266167999943718,True,10,1,0,1
Y2-S2-028K24,1,82,PS,exp,45,↓,down,↓,0.5329312999965623,True,10,1,0,1
Y2-S2-028K24,1,83,PS,exp,32,↑,up,↑,0.482831500004977,True,10,1,0,1
Y2-S2-028K24,1,84,PS,exp,34,↓,down,↓,0.5204249999951571,True,9,1,0,1
Y2-S2-028K24,1,85,PS,exp,32,←,left,←,0.4926245000679046,True,9,1,0,1
Y2-S2-028K24,1,86,PS,exp,41,→,right,→,0.4412422999739647,True,9,1,0,1
Y2-S2-028K24,1,87,PS,exp,40,←,left,←,0.6306500999489799,True,8,1,0,1
Y2-S2-028K24,1,88,PS,exp,39,↓,down,↓,0.5309430999914184,True,8,1,0,1
Y2-S2-028K24,1,89,PS,exp,26,↑,down,↓,0.6401520000072196,False,8,-1,1,2
Y2-S2-028K24,1,90,PS,exp,31,↓,down,↓,0.45024349994491786,True,9,-1,0,2
Y2-S2-028K24,1,91,PS,exp,47,→,right,→,0.48739740008022636,True,9,-1,0,2
Y2-S2-028K24,1,92,PS,exp,40,↑,right,→,0.6868276000022888,False,9,-1,0,2
Y2-S2-028K24,1,93,PS,exp,36,↓,down,↓,0.5012914999388158,True,10,-1,0,2
Y2-S2-028K24,1,94,PS,exp,31,↑,right,→,0.6891118999337777,False,10,-1,0,2
Y2-S2-028K24,1,95,PS,exp,40,←,left,←,0.627116399933584,True,11,-1,0,2
Y2-S2-028K24,1,96,PS,exp,50,→,right,→,0.5310148999560624,True,11,-1,0,2
Y2-S2-028K24,1,97,PS,exp,38,↓,down,↓,0.49569559993688017,True,11,1,1,3
Y2-S2-028K24,1,98,PS,exp,31,→,right,→,0.5003022999735549,True,10,1,0,3
Y2-S2-028K24,1,99,PS,exp,44,↓,down,↓,0.5086586000397801,True,10,1,0,3
Y2-S2-028K24,1,100,PS,exp,42,↑,up,↑,0.4126635999418795,True,10,1,0,3
Y2-S2-028K24,1,101,PS,exp,32,←,left,←,0.480005000019446,True,9,1,0,3
Y2-S2-028K24,1,102,PS,exp,47,→,right,→,0.6689093000022694,True,9,1,0,3
Y2-S2-028K24,1,103,PS,exp,30,←,left,←,0.5662356000393629,True,9,1,0,3
Y2-S2-028K24,1,104,PS,exp,46,→,right,→,0.5136434000451118,True,8,1,0,3
Y2-S2-028K24,1,105,PS,exp,41,↑,right,→,0.8650829999241978,False,8,-1,1,4
Y2-S2-028K24,1,106,PS,exp,36,→,right,→,0.4962428999133408,True,9,-1,0,4
Y2-S2-028K24,1,107,PS,exp,27,↑,left,←,0.76427759998478,False,9,-1,0,4
Y2-S2-028K24,1,108,PS,exp,28,→,right,→,0.6867919999640435,True,10,-1,0,4
Y2-S2-028K24,1,109,PS,exp,46,←,left,←,0.5524041999597102,True,10,-1,0,4
Y2-S2-028K24,1,110,PS,exp,34,↓,up,↑,0.6110256999963894,False,10,-1,0,4
Y2-S2-028K24,1,111,PS,exp,49,←,left,←,0.4552673000143841,True,11,-1,0,4
Y2-S2-028K24,1,112,PS,exp,32,↓,down,↓,0.5887575000524521,True,11,-1,0,4
Y2-S2-028K24,1,113,PS,exp,45,→,right,→,0.528985199984163,True,11,1,1,5
Y2-S2-028K24,1,114,PS,exp,37,←,left,←,0.5351334000006318,True,10,1,0,5
Y2-S2-028K24,1,115,PS,exp,35,↑,up,↑,0.4993886000011116,True,10,1,0,5
Y2-S2-028K24,1,116,PS,exp,34,↓,up,↑,0.6029776999494061,False,10,-1,1,6
Y2-S2-028K24,1,117,PS,exp,40,↑,up,↑,0.49637919990345836,True,11,-1,0,6
Y2-S2-028K24,1,118,PS,exp,27,←,left,←,0.5528241000138223,True,11,-1,0,6
Y2-S2-028K24,1,119,PS,exp,40,↓,down,↓,0.5295775999547914,True,11,1,1,7
Y2-S2-028K24,1,120,PS,exp,46,←,left,←,0.6365745000075549,True,10,1,0,7
Y2-S2-028K24,1,121,PS,exp,33,→,right,→,0.5842742999084294,True,10,1,0,7
Y2-S2-028K24,1,122,PS,exp,46,↑,up,↑,0.4634660000447184,True,10,1,0,7
Y2-S2-028K24,1,123,PS,exp,35,←,left,←,0.5188048999989405,True,9,1,0,7
Y2-S2-028K24,1,124,PS,exp,41,↑,right,→,0.7617812000680715,False,9,-1,1,8
Y2-S2-028K24,1,125,PS,exp,36,←,left,←,0.6146242000395432,True,10,-1,0,8
Y2-S2-028K24,1,126,PS,exp,50,→,right,→,0.5452722000190988,True,10,-1,0,8
Y2-S2-028K24,1,127,PS,exp,47,↓,down,↓,0.6118277999339625,True,10,1,1,9
Y2-S2-028K24,1,128,PS,exp,44,→,right,→,0.563002199982293,True,9,1,0,9
Y2-S2-028K24,1,129,PS,exp,49,↓,down,↓,0.5034700999967754,True,9,1,0,9
Y2-S2-028K24,1,130,PS,exp,38,←,left,←,0.5678029000991955,True,9,1,0,9
Y2-S2-028K24,1,131,PS,exp,44,↑,down,↓,0.505721400026232,False,8,-1,1,10
Y2-S2-028K24,1,132,PS,exp,32,→,right,→,0.5382429999299347,True,9,-1,0,10
Y2-S2-028K24,1,133,PS,exp,33,←,left,←,0.6424916000105441,True,9,-1,0,10
Y2-S2-028K24,1,134,PS,exp,27,↑,up,↑,0.5773793999105692,True,9,1,1,11
Y2-S2-028K24,1,135,PS,exp,30,↓,left,←,0.6599348000017926,False,8,-1,1,12
Y2-S2-028K24,1,136,PS,exp,48,←,left,←,0.6633707999717444,True,9,-1,0,12
Y2-S2-028K24,1,137,PS,exp,32,↓,right,→,0.5672464000526816,False,9,-1,0,12
Y2-S2-028K24,1,138,PS,exp,29,↑,up,↑,0.6243288998957723,True,10,-1,0,12
Y2-S2-028K24,1,139,PS,exp,36,→,right,→,0.46531390002928674,True,10,-1,0,12
Y2-S2-028K24,1,140,PS,exp,39,↑,left,←,0.497931299963966,False,10,-1,0,12
Y2-S2-028K24,1,141,PS,exp,49,↓,right,→,0.44353009993210435,False,11,-1,0,12
Y2-S2-028K24,1,142,PS,exp,46,↑,up,↑,0.60121390002314,True,12,-1,0,12
Y2-S2-028K24,1,143,PS,exp,30,↓,down,↓,0.5244867999572307,True,12,-1,0,12
Y2-S2-028K24,1,144,PS,exp,32,→,right,→,0.4757906999439001,True,12,1,1,13
Y2-S2-028K24,1,145,PS,exp,47,↑,up,↑,0.42643480002880096,True,11,1,0,13
Y2-S2-028K24,1,146,PS,exp,49,←,left,←,0.47457049996592104,True,11,1,0,13
Y2-S2-028K24,1,147,PS,exp,38,→,left,←,0.8565403999527916,False,11,-1,1,14
Y2-S2-028K24,1,148,PS,exp,35,↓,down,↓,0.5923063999507576,True,12,-1,0,14
Y2-S2-028K24,1,149,PS,exp,49,→,left,←,0.6399775999598205,False,12,-1,0,14
Y2-S2-028K24,1,150,PS,exp,45,↓,down,↓,0.5485252999933437,True,13,-1,0,14
Y2-S2-028K24,1,151,PS,exp,41,→,right,→,0.4596023000776768,True,13,-1,0,14
Y2-S2-028K24,1,152,PS,exp,46,↓,down,↓,0.5490042000310495,True,13,1,1,15
Y2-S2-028K24,1,153,PS,exp,41,↑,down,↓,0.7022298999363557,False,12,-1,1,16
Y2-S2-028K24,2,154,AS,intra_train,30,→,right,→,0.6381362000247464,True,24,-,-,-
Y2-S2-028K24,2,155,AS,intra_train,31,←,left,←,0.5174234000733122,True,24,-,-,-
Y2-S2-028K24,2,156,AS,intra_train,26,→,right,→,0.6105277000460774,True,24,-,-,-
Y2-S2-028K24,2,157,AS,intra_train,39,←,left,←,0.596780400024727,True,24,-,-,-
Y2-S2-028K24,2,158,AS,intra_train,50,→,right,→,0.6490668000187725,True,24,-,-,-
Y2-S2-028K24,2,159,AS,exp,37,↑,up,↑,0.6387246999656782,True,16,0,0,0
Y2-S2-028K24,2,160,AS,exp,32,→,up,↑,0.8039843000005931,False,16,-1,0,0
Y2-S2-028K24,2,161,AS,exp,29,↓,down,↓,0.7449991999892518,True,17,-1,0,0
Y2-S2-028K24,2,162,AS,exp,37,←,left,←,0.6953763999044895,True,17,-1,0,0
Y2-S2-028K24,2,163,AS,exp,30,↑,up,↑,0.5594703999813646,True,17,1,1,1
Y2-S2-028K24,2,164,AS,exp,27,←,left,←,0.5139509999426082,True,16,1,0,1
Y2-S2-028K24,2,165,AS,exp,34,↑,up,↑,1.7684169000713155,True,16,1,0,1
Y2-S2-028K24,2,166,AS,exp,46,↓,down,↓,0.4835791999939829,True,16,1,0,1
Y2-S2-028K24,2,167,AS,exp,26,↑,up,↑,0.5862713999813423,True,15,1,0,1
Y2-S2-028K24,2,168,AS,exp,45,←,left,←,0.5113249999703839,True,15,1,0,1
Y2-S2-028K24,2,169,AS,exp,47,→,right,→,0.6108851000899449,True,15,1,0,1
Y2-S2-028K24,2,170,AS,exp,48,↓,down,↓,0.6407523999223486,True,14,1,0,1
Y2-S2-028K24,2,171,AS,exp,31,→,right,→,0.6011858000420034,True,14,1,0,1
Y2-S2-028K24,2,172,AS,exp,49,↑,up,↑,0.5219625999452546,True,14,1,0,1
Y2-S2-028K24,2,173,AS,exp,26,↓,down,↓,0.6778196999803185,True,13,1,0,1
Y2-S2-028K24,2,174,AS,exp,29,←,left,←,0.7750543999718502,True,13,1,0,1
Y2-S2-028K24,2,175,AS,exp,50,↑,down,↓,0.5821270999731496,False,13,-1,1,2
Y2-S2-028K24,2,176,AS,exp,43,←,left,←,0.6020596000598744,True,14,-1,0,2
Y2-S2-028K24,2,177,AS,exp,28,↓,down,↓,0.5215864999918267,True,14,-1,0,2
Y2-S2-028K24,2,178,AS,exp,35,→,left,←,0.6074015999911353,False,14,-1,0,2
Y2-S2-028K24,2,179,AS,exp,35,←,left,←,0.5246573999756947,True,15,-1,0,2
Y2-S2-028K24,2,180,AS,exp,45,↑,up,↑,0.573816700023599,True,15,-1,0,2
Y2-S2-028K24,2,181,AS,exp,44,→,right,→,0.6135669000213966,True,15,1,1,3
Y2-S2-028K24,2,182,AS,exp,32,↑,up,↑,0.5838496999349445,True,14,1,0,3
Y2-S2-028K24,2,183,AS,exp,30,→,right,→,0.5373641999904066,True,14,1,0,3
Y2-S2-028K24,2,184,AS,exp,28,↓,down,↓,0.6765901999315247,True,14,1,0,3
Y2-S2-028K24,2,185,AS,exp,46,←,left,←,0.5801181000424549,True,13,1,0,3
Y2-S2-028K24,2,186,AS,exp,48,↑,right,→,0.6722310000332072,False,13,-1,1,4
Y2-S2-028K24,2,187,AS,exp,33,←,right,→,0.5768640000605956,False,14,-1,0,4
Y2-S2-028K24,2,188,AS,exp,28,→,right,→,0.550350199919194,True,15,-1,0,4
Y2-S2-028K24,2,189,AS,exp,33,↓,down,↓,0.6244076000293717,True,15,-1,0,4
Y2-S2-028K24,2,190,AS,exp,39,↑,down,↓,0.5396534000756219,False,15,-1,0,4
Y2-S2-028K24,2,191,AS,exp,42,←,left,←,0.6161118999589235,True,16,-1,0,4
Y2-S2-028K24,2,192,AS,exp,27,→,right,→,0.5550156999379396,True,16,-1,0,4
Y2-S2-028K24,2,193,AS,exp,26,↑,up,↑,0.4979219000088051,True,16,1,1,5
Y2-S2-028K24,2,194,AS,exp,26,←,left,←,0.6351351999910548,True,15,1,0,5
Y2-S2-028K24,2,195,AS,exp,49,↑,down,↓,0.6618845000630245,False,15,-1,1,6
Y2-S2-028K24,2,196,AS,exp,46,↓,down,↓,0.6659193999366835,True,16,-1,0,6
Y2-S2-028K24,2,197,AS,exp,50,←,left,←,0.5182610999327153,True,16,-1,0,6
Y2-S2-028K24,2,198,AS,exp,50,→,right,→,0.5458058000076562,True,16,1,1,7
Y2-S2-028K24,2,199,AS,exp,28,↑,up,↑,0.6250328000169247,True,15,1,0,7
Y2-S2-028K24,2,200,AS,exp,36,←,left,←,0.5779586000135168,True,15,1,0,7
Y2-S2-028K24,2,201,AS,exp,34,↑,up,↑,0.44091959996148944,True,15,1,0,7
Y2-S2-028K24,2,202,AS,exp,30,→,right,→,0.6139727999689057,True,14,1,0,7
Y2-S2-028K24,2,203,AS,exp,48,↓,up,↑,0.5692735998891294,False,14,-1,1,8
Y2-S2-028K24,2,204,AS,exp,27,←,left,←,0.5038027000846341,True,15,-1,0,8
Y2-S2-028K24,2,205,AS,exp,43,→,right,→,0.4814546999987215,True,15,-1,0,8
Y2-S2-028K24,2,206,AS,exp,29,↑,up,↑,0.47088629996869713,True,15,1,1,9
Y2-S2-028K24,2,207,AS,exp,41,↓,down,↓,0.7165143999736756,True,14,1,0,9
Y2-S2-028K24,2,208,AS,exp,50,←,left,←,0.5362154000904411,True,14,1,0,9
Y2-S2-028K24,2,209,AS,exp,32,↑,up,↑,0.46215869998559356,True,14,1,0,9
Y2-S2-028K24,2,210,AS,exp,27,→,left,←,0.6783849000930786,False,13,-1,1,10
Y2-S2-028K24,2,211,AS,exp,44,↑,up,↑,0.4746090000262484,True,14,-1,0,10
Y2-S2-028K24,2,212,AS,exp,40,↓,up,↑,0.4432935999939218,False,14,-1,0,10
Y2-S2-028K24,2,213,AS,exp,33,→,right,→,0.5204943000571802,True,15,-1,0,10
Y2-S2-028K24,2,214,AS,exp,50,↑,down,↓,0.6381143999751657,False,15,-1,0,10
Y2-S2-028K24,2,215,AS,exp,38,→,right,→,0.48093059996608645,True,16,-1,0,10
Y2-S2-028K24,2,216,AS,exp,43,↑,up,↑,0.4553494999418035,True,16,-1,0,10
Y2-S2-028K24,2,217,AS,exp,27,→,left,←,0.48174900002777576,False,16,-1,0,10
Y2-S2-028K24,2,218,AS,exp,48,↑,up,↑,0.5493022000882775,True,17,-1,0,10
Y2-S2-028K24,2,219,AS,exp,31,→,right,→,0.5033171999966726,True,17,-1,0,10
Y2-S2-028K24,2,220,AS,exp,46,↓,down,↓,0.6006874000886455,True,17,1,1,11
Y2-S2-028K24,2,221,AS,exp,42,→,right,→,0.5224065999500453,True,16,1,0,11
Y2-S2-028K24,2,222,AS,exp,40,↓,down,↓,0.6275436000432819,True,16,1,0,11
Y2-S2-028K24,2,223,AS,exp,34,→,right,→,0.5458705999189988,True,16,1,0,11
Y2-S2-028K24,2,224,AS,exp,39,←,left,←,0.5937215000158176,True,15,1,0,11
Y2-S2-028K24,2,225,AS,exp,46,→,right,→,0.4523697999538854,True,15,1,0,11
Y2-S2-028K24,2,226,AS,exp,38,↓,down,↓,0.7012375000631437,True,15,1,0,11
Y2-S2-028K24,2,227,AS,exp,43,←,left,←,0.5532073000213131,True,14,1,0,11
Y2-S2-028K24,2,228,AS,exp,26,↓,down,↓,0.5630212998948991,True,14,1,0,11
Y2-S2-028K24,2,229,AS,exp,43,→,right,→,0.49268199992366135,True,14,1,0,11
Y2-S2-028K24,2,230,AS,exp,31,←,left,←,0.5341075999895111,True,13,1,0,11
Y2-S2-028K24,2,231,AS,exp,47,↓,down,↓,0.5333622000180185,True,13,1,0,11
Y2-S2-028K24,2,232,AS,exp,37,→,right,→,0.5706745999632403,True,13,1,0,11
Y2-S2-028K24,2,233,AS,exp,39,↓,down,↓,0.5068643999984488,True,12,1,0,11
Y2-S2-028K24,2,234,AS,exp,41,→,right,→,0.6563424000050873,True,12,1,0,11
Y2-S2-028K24,2,235,AS,exp,37,↑,down,↓,0.8249806000385433,False,12,-1,1,12
Y2-S2-028K24,2,236,AS,exp,39,→,right,→,0.5271603000583127,True,13,-1,0,12
Y2-S2-028K24,2,237,AS,exp,34,↑,up,↑,0.5191631999332458,True,13,-1,0,12
Y2-S2-028K24,2,238,AS,exp,34,↓,down,↓,0.4731618999503553,True,13,1,1,13
Y2-S2-028K24,2,239,AS,exp,50,→,right,→,0.5255893999710679,True,12,1,0,13
Y2-S2-028K24,2,240,AS,exp,32,↑,down,↓,0.5877269000047818,False,12,-1,1,14
Y2-S2-028K24,2,241,AS,exp,49,↓,up,↑,0.6537657000590116,False,13,-1,0,14
Y2-S2-028K24,2,242,AS,exp,26,←,left,←,0.5301728999475017,True,14,-1,0,14
Y2-S2-028K24,2,243,AS,exp,44,↓,down,↓,0.4511152000632137,True,14,-1,0,14
Y2-S2-028K24,2,244,AS,exp,28,↑,down,↓,0.5766784000443295,False,14,-1,0,14
Y2-S2-028K24,2,245,AS,exp,26,←,left,←,0.6136219999752939,True,15,-1,0,14
Y2-S2-028K24,2,246,AS,exp,33,↑,up,↑,0.4505789000540972,True,15,-1,0,14
Y2-S2-028K24,2,247,AS,exp,40,→,right,→,0.5918517999816686,True,15,1,1,15
Y2-S2-028K24,2,248,AS,exp,27,←,left,←,0.575592799927108,True,14,1,0,15
Y2-S2-028K24,2,249,AS,exp,46,↑,up,↑,0.4603880000067875,True,14,1,0,15
Y2-S2-028K24,2,250,AS,exp,31,←,left,←,0.521176700014621,True,14,1,0,15
Y2-S2-028K24,2,251,AS,exp,35,↓,up,↑,0.5199733000481501,False,13,-1,1,16
Y2-S2-028K24,3,252,AS,intra_train,49,↑,up,↑,0.6412574999267235,True,24,-,-,-
Y2-S2-028K24,3,253,AS,intra_train,41,↓,down,↓,0.7159785999683663,True,24,-,-,-
Y2-S2-028K24,3,254,AS,intra_train,42,←,left,←,1.2245986999478191,True,24,-,-,-
Y2-S2-028K24,3,255,AS,intra_train,50,↓,down,↓,0.5339336999459192,True,24,-,-,-
Y2-S2-028K24,3,256,AS,intra_train,30,→,right,→,0.5338676000246778,True,24,-,-,-
Y2-S2-028K24,3,257,AS,exp,39,←,left,←,0.4650105000473559,True,16,0,0,0
Y2-S2-028K24,3,258,AS,exp,43,↓,up,↑,0.7780157000524923,False,16,-1,0,0
Y2-S2-028K24,3,259,AS,exp,50,→,right,→,0.6753996000625193,True,17,-1,0,0
Y2-S2-028K24,3,260,AS,exp,42,←,left,←,0.8744245000416413,True,17,-1,0,0
Y2-S2-028K24,3,261,AS,exp,46,↓,down,↓,0.6658917999593541,True,17,1,1,1
Y2-S2-028K24,3,262,AS,exp,42,↑,up,↑,0.6709545000921935,True,16,1,0,1
Y2-S2-028K24,3,263,AS,exp,28,↓,down,↓,0.5355201000347733,True,16,1,0,1
Y2-S2-028K24,3,264,AS,exp,34,↑,up,↑,0.7703357000136748,True,16,1,0,1
Y2-S2-028K24,3,265,AS,exp,30,↓,down,↓,0.576679400051944,True,15,1,0,1
Y2-S2-028K24,3,266,AS,exp,31,←,left,←,0.5175297999521717,True,15,1,0,1
Y2-S2-028K24,3,267,AS,exp,39,→,right,→,0.5312664000084624,True,15,1,0,1
Y2-S2-028K24,3,268,AS,exp,42,↑,up,↑,0.46728039998561144,True,14,1,0,1
Y2-S2-028K24,3,269,AS,exp,40,→,right,→,0.5830667999107391,True,14,1,0,1
Y2-S2-028K24,3,270,AS,exp,45,←,left,←,0.5116660000057891,True,14,1,0,1
Y2-S2-028K24,3,271,AS,exp,39,↓,down,↓,0.5408803999889642,True,13,1,0,1
Y2-S2-028K24,3,272,AS,exp,28,←,left,←,0.8007171000353992,True,13,1,0,1
Y2-S2-028K24,3,273,AS,exp,32,→,left,←,0.561417100019753,False,13,-1,1,2
Y2-S2-028K24,3,274,AS,exp,42,↑,up,↑,0.523576800012961,True,14,-1,0,2
Y2-S2-028K24,3,275,AS,exp,26,→,right,→,0.6315918000182137,True,14,-1,0,2
Y2-S2-028K24,3,276,AS,exp,30,↑,up,↑,0.48457590001635253,True,14,1,1,3
Y2-S2-028K24,3,277,AS,exp,42,→,right,→,0.5986920999130234,True,13,1,0,3
Y2-S2-028K24,3,278,AS,exp,47,↑,up,↑,0.5237113999901339,True,13,1,0,3
Y2-S2-028K24,3,279,AS,exp,48,←,left,←,0.7547665999736637,True,13,1,0,3
Y2-S2-028K24,3,280,AS,exp,49,↑,up,↑,0.5434317999752238,True,12,1,0,3
Y2-S2-028K24,3,281,AS,exp,46,→,right,→,0.528338799951598,True,12,1,0,3
Y2-S2-028K24,3,282,AS,exp,30,↑,up,↑,0.9146138000069186,True,12,1,0,3
Y2-S2-028K24,3,283,AS,exp,44,→,right,→,0.6973252999596298,True,11,1,0,3
Y2-S2-028K24,3,284,AS,exp,42,←,left,←,0.5188062000088394,True,11,1,0,3
Y2-S2-028K24,3,285,AS,exp,32,→,left,←,0.6592391000594944,False,11,-1,1,4
Y2-S2-028K24,3,286,AS,exp,36,↓,left,←,0.6445535999955609,False,12,-1,0,4
Y2-S2-028K24,3,287,AS,exp,35,←,left,←,0.5312170999823138,True,13,-1,0,4
Y2-S2-028K24,3,288,AS,exp,48,↑,up,↑,0.5511756000341848,True,13,-1,0,4
Y2-S2-028K24,3,289,AS,exp,44,←,right,→,0.4387148000532761,False,13,-1,0,4
Y2-S2-028K24,3,290,AS,exp,46,→,right,→,0.524222599924542,True,14,-1,0,4
Y2-S2-028K24,3,291,AS,exp,33,↓,down,↓,0.6572356999386102,True,14,-1,0,4
Y2-S2-028K24,3,292,AS,exp,45,←,left,←,0.5200709999771789,True,14,1,1,5
Y2-S2-028K24,3,293,AS,exp,27,↓,down,↓,0.7297298000194132,True,13,1,0,5
Y2-S2-028K24,3,294,AS,exp,47,↑,up,↑,0.4679596999194473,True,13,1,0,5
Y2-S2-028K24,3,295,AS,exp,28,→,right,→,0.6414785999804735,True,13,1,0,5
Y2-S2-028K24,3,296,AS,exp,28,↑,up,↑,0.7134588999906555,True,12,1,0,5
Y2-S2-028K24,3,297,AS,exp,34,↓,down,↓,0.6373976999893785,True,12,1,0,5
Y2-S2-028K24,3,298,AS,exp,31,→,right,→,0.5176740000024438,True,12,1,0,5
Y2-S2-028K24,3,299,AS,exp,34,←,left,←,0.5023973999777809,True,11,1,0,5
Y2-S2-028K24,3,300,AS,exp,39,↑,up,↑,0.5010793000692502,True,11,1,0,5
Y2-S2-028K24,3,301,AS,exp,28,←,left,←,0.5242807000176981,True,11,1,0,5
Y2-S2-028K24,3,302,AS,exp,45,→,right,→,0.4695860999636352,True,10,1,0,5
Y2-S2-028K24,3,303,AS,exp,38,↑,down,↓,0.6003539999946952,False,10,-1,1,6
Y2-S2-028K24,3,304,AS,exp,50,↓,down,↓,0.5196516999276355,True,11,-1,0,6
Y2-S2-028K24,3,305,AS,exp,36,←,left,←,0.6315198999363929,True,11,-1,0,6
Y2-S2-028K24,3,306,AS,exp,42,↓,down,↓,0.5129776999820024,True,11,1,1,7
Y2-S2-028K24,3,307,AS,exp,48,←,left,←,0.5614125999854878,True,10,1,0,7
Y2-S2-028K24,3,308,AS,exp,32,↑,down,↓,0.5145175000652671,False,10,-1,1,8
Y2-S2-028K24,3,309,AS,exp,47,←,right,→,0.5731630000518635,False,11,-1,0,8
Y2-S2-028K24,3,310,AS,exp,27,↑,up,↑,0.5814491000492126,True,12,-1,0,8
Y2-S2-028K24,3,311,AS,exp,42,↓,up,↑,0.6490959000075236,False,12,-1,0,8
Y2-S2-028K24,3,312,AS,exp,38,→,right,→,0.4543702000519261,True,13,-1,0,8
Y2-S2-028K24,3,313,AS,exp,31,↓,up,↑,0.7109092000173405,False,13,-1,0,8
Y2-S2-028K24,3,314,AS,exp,37,←,left,←,0.47225049999542534,True,14,-1,0,8
Y2-S2-028K24,3,315,AS,exp,33,↓,up,↑,0.6129212999949232,False,14,-1,0,8
Y2-S2-028K24,3,316,AS,exp,30,←,left,←,0.5049900999292731,True,15,-1,0,8
Y2-S2-028K24,3,317,AS,exp,30,↓,down,↓,0.5278906000312418,True,15,-1,0,8
Y2-S2-028K24,3,318,AS,exp,42,→,right,→,0.4777634999481961,True,15,1,1,9
Y2-S2-028K24,3,319,AS,exp,35,↓,down,↓,0.5659715998917818,True,14,1,0,9
Y2-S2-028K24,3,320,AS,exp,28,←,left,←,0.4810508000664413,True,14,1,0,9
Y2-S2-028K24,3,321,AS,exp,42,↓,down,↓,0.5705705999862403,True,14,1,0,9
Y2-S2-028K24,3,322,AS,exp,28,↑,up,↑,0.4710749000078067,True,13,1,0,9
Y2-S2-028K24,3,323,AS,exp,33,←,left,←,0.43991969991475344,True,13,1,0,9
Y2-S2-028K24,3,324,AS,exp,50,↑,up,↑,0.46343300002627075,True,13,1,0,9
Y2-S2-028K24,3,325,AS,exp,38,←,left,←,0.43646689993329346,True,12,1,0,9
Y2-S2-028K24,3,326,AS,exp,28,↑,up,↑,0.504393000039272,True,12,1,0,9
Y2-S2-028K24,3,327,AS,exp,31,→,left,←,0.4289900999283418,False,12,-1,1,10
Y2-S2-028K24,3,328,AS,exp,45,←,left,←,0.45600870007183403,True,13,-1,0,10
Y2-S2-028K24,3,329,AS,exp,46,↑,up,↑,0.4816275000339374,True,13,-1,0,10
Y2-S2-028K24,3,330,AS,exp,35,→,left,←,0.7354768000077456,False,13,-1,0,10
Y2-S2-028K24,3,331,AS,exp,29,↑,up,↑,0.6622488000430167,True,14,-1,0,10
Y2-S2-028K24,3,332,AS,exp,27,↓,down,↓,0.6304438000079244,True,14,-1,0,10
Y2-S2-028K24,3,333,AS,exp,35,↑,up,↑,0.6209136000834405,True,14,1,1,11
Y2-S2-028K24,3,334,AS,exp,38,←,right,→,0.5167621000437066,False,13,-1,1,12
Y2-S2-028K24,3,335,AS,exp,32,↓,up,↑,0.49664589995518327,False,14,-1,0,12
Y2-S2-028K24,3,336,AS,exp,33,↑,up,↑,0.4536047000437975,True,15,-1,0,12
Y2-S2-028K24,3,337,AS,exp,35,→,right,→,0.5400247999932617,True,15,-1,0,12
Y2-S2-028K24,3,338,AS,exp,42,↑,up,↑,0.5266834999201819,True,15,1,1,13
Y2-S2-028K24,3,339,AS,exp,47,→,right,→,0.4802631000056863,True,14,1,0,13
Y2-S2-028K24,3,340,AS,exp,37,↓,down,↓,0.6151490999618545,True,14,1,0,13
Y2-S2-028K24,3,341,AS,exp,35,←,left,←,0.5208639999618754,True,14,1,0,13
Y2-S2-028K24,3,342,AS,exp,43,→,right,→,0.43270140001550317,True,13,1,0,13
Y2-S2-028K24,3,343,AS,exp,37,←,left,←,0.4769485000288114,True,13,1,0,13
Y2-S2-028K24,3,344,AS,exp,36,↑,up,↑,0.6252835999475792,True,13,1,0,13
Y2-S2-028K24,3,345,AS,exp,48,←,right,→,0.6057478000875562,False,12,-1,1,14
Y2-S2-028K24,3,346,AS,exp,32,↑,up,↑,0.46785529993940145,True,13,-1,0,14
Y2-S2-028K24,3,347,AS,exp,45,↓,right,→,0.4312486000126228,False,13,-1,0,14
Y2-S2-028K24,3,348,AS,exp,40,↑,up,↑,0.4705610000528395,True,14,-1,0,14
Y2-S2-028K24,3,349,AS,exp,34,→,right,→,0.5779059000778943,True,14,-1,0,14
Y2-S2-028K24,3,350,AS,exp,50,←,right,→,0.8896565999602899,False,14,-1,0,14
Y2-S2-028K24,3,351,AS,exp,48,↓,down,↓,0.6051635999465361,True,15,-1,0,14
Y2-S2-028K24,3,352,AS,exp,27,→,right,→,0.5627771000145003,True,15,-1,0,14
Y2-S2-028K24,3,353,AS,exp,40,↑,up,↑,0.5857211000984535,True,15,1,1,15
Y2-S2-028K24,3,354,AS,exp,25,↓,down,↓,0.547366000013426,True,14,1,0,15
Y2-S2-028K24,3,355,AS,exp,49,↑,up,↑,0.508982100058347,True,14,1,0,15
Y2-S2-028K24,3,356,AS,exp,26,↓,down,↓,0.6299712000181898,True,14,1,0,15
Y2-S2-028K24,3,357,AS,exp,40,→,left,←,0.7700860999757424,False,13,-1,1,16
Y2-S2-028K24,4,358,PS,intra_train,40,←,right,→,0.44201340002473444,False,15,-,-,-
Y2-S2-028K24,4,359,PS,intra_train,28,→,right,→,0.7028337999945506,True,15,-,-,-
Y2-S2-028K24,4,360,PS,intra_train,33,↑,up,↑,0.5312023999867961,True,15,-,-,-
Y2-S2-028K24,4,361,PS,intra_train,50,→,right,→,0.5737099000252783,True,15,-,-,-
Y2-S2-028K24,4,362,PS,intra_train,40,↑,up,↑,0.5945127999875695,True,15,-,-,-
Y2-S2-028K24,4,363,PS,exp,50,←,left,←,0.5770487999543548,True,10,0,0,0
Y2-S2-028K24,4,364,PS,exp,26,↑,up,↑,0.5819726000772789,True,10,0,0,0
Y2-S2-028K24,4,365,PS,exp,39,→,right,→,0.39225799997802824,True,10,1,0,0
Y2-S2-028K24,4,366,PS,exp,50,↓,down,↓,0.5134565000189468,True,9,1,0,0
Y2-S2-028K24,4,367,PS,exp,42,←,left,←,0.5575488000176847,True,9,1,0,0
Y2-S2-028K24,4,368,PS,exp,50,↑,down,↓,0.542812499916181,False,9,-1,1,1
Y2-S2-028K24,4,369,PS,exp,34,→,right,→,0.43274199997540563,True,10,-1,0,1
Y2-S2-028K24,4,370,PS,exp,32,↓,down,↓,0.5433331000385806,True,10,-1,0,1
Y2-S2-028K24,4,371,PS,exp,38,↑,up,↑,0.5883262000279501,True,10,1,1,2
Y2-S2-028K24,4,372,PS,exp,44,→,right,→,0.5497521000215784,True,9,1,0,2
Y2-S2-028K24,4,373,PS,exp,40,←,left,←,0.5197444000514224,True,9,1,0,2
Y2-S2-028K24,4,374,PS,exp,27,→,left,←,0.5696438000304624,False,9,-1,1,3
Y2-S2-028K24,4,375,PS,exp,36,↓,right,→,0.8643355000531301,False,10,-1,0,3
Y2-S2-028K24,4,376,PS,exp,25,→,right,→,0.5411822999594733,True,11,-1,0,3
Y2-S2-028K24,4,377,PS,exp,40,←,left,←,0.5239854999817908,True,11,-1,0,3
Y2-S2-028K24,4,378,PS,exp,29,↑,up,↑,0.6835701999953017,True,11,1,1,4
Y2-S2-028K24,4,379,PS,exp,48,←,right,→,0.5266840000404045,False,10,-1,1,5
Y2-S2-028K24,4,380,PS,exp,43,→,right,→,0.40794130007270724,True,11,-1,0,5
Y2-S2-028K24,4,381,PS,exp,42,↓,down,↓,0.566691399901174,True,11,-1,0,5
Y2-S2-028K24,4,382,PS,exp,38,↑,up,↑,0.4305140000069514,True,11,1,1,6
Y2-S2-028K24,4,383,PS,exp,39,→,right,→,0.42433109995909035,True,10,1,0,6
Y2-S2-028K24,4,384,PS,exp,42,↓,up,↑,0.6567013000603765,False,10,-1,1,7
Y2-S2-028K24,4,385,PS,exp,26,←,left,←,0.4951006999472156,True,11,-1,0,7
Y2-S2-028K24,4,386,PS,exp,40,↓,down,↓,0.5402678999816999,True,11,-1,0,7
Y2-S2-028K24,4,387,PS,exp,48,←,left,←,0.43627700000070035,True,11,1,1,8
Y2-S2-028K24,4,388,PS,exp,46,↓,down,↓,0.5258541000075638,True,10,1,0,8
Y2-S2-028K24,4,389,PS,exp,48,→,right,→,0.5116434999508783,True,10,1,0,8
Y2-S2-028K24,4,390,PS,exp,42,←,left,←,0.5543216998921707,True,10,1,0,8
Y2-S2-028K24,4,391,PS,exp,29,↓,left,←,0.6785306999227032,False,9,-1,1,9
Y2-S2-028K24,4,392,PS,exp,37,↑,left,←,0.7562993000028655,False,10,-1,0,9
Y2-S2-028K24,4,393,PS,exp,50,←,left,←,0.5643506000051275,True,11,-1,0,9
Y2-S2-028K24,4,394,PS,exp,45,↑,right,→,0.4737637999933213,False,11,-1,0,9
Y2-S2-028K24,4,395,PS,exp,29,→,right,→,0.5133630000054836,True,12,-1,0,9
Y2-S2-028K24,4,396,PS,exp,38,↑,up,↑,0.5535294999135658,True,12,-1,0,9
Y2-S2-028K24,4,397,PS,exp,34,→,right,→,0.44545209989883006,True,12,1,1,10
Y2-S2-028K24,4,398,PS,exp,29,↑,up,↑,0.5337015999248251,True,11,1,0,10
Y2-S2-028K24,4,399,PS,exp,45,←,right,→,0.5629712999798357,False,11,-1,1,11
Y2-S2-028K24,4,400,PS,exp,50,↓,down,↓,0.5838192999362946,True,12,-1,0,11
Y2-S2-028K24,4,401,PS,exp,25,↑,down,↓,0.6046059000073001,False,12,-1,0,11
Y2-S2-028K24,4,402,PS,exp,39,↓,down,↓,0.4419295999687165,True,13,-1,0,11
Y2-S2-028K24,4,403,PS,exp,41,→,right,→,0.4424838999984786,True,13,-1,0,11
Y2-S2-028K24,4,404,PS,exp,45,↓,down,↓,0.5197973999893293,True,13,1,1,12
Y2-S2-028K24,4,405,PS,exp,37,←,left,←,0.542612100020051,True,12,1,0,12
Y2-S2-028K24,4,406,PS,exp,50,→,right,→,0.4263943999540061,True,12,1,0,12
Y2-S2-028K24,4,407,PS,exp,27,↓,down,↓,0.5575118999695405,True,12,1,0,12
Y2-S2-028K24,4,408,PS,exp,39,←,right,→,0.5570268000010401,False,11,-1,1,13
Y2-S2-028K24,4,409,PS,exp,36,→,right,→,0.42743040004279464,True,12,-1,0,13
Y2-S2-028K24,4,410,PS,exp,36,←,left,←,0.6932460000971332,True,12,-1,0,13
Y2-S2-028K24,4,411,PS,exp,34,↓,down,↓,0.5312796999933198,True,12,1,1,14
Y2-S2-028K24,4,412,PS,exp,47,→,right,→,0.4714086999883875,True,11,1,0,14
Y2-S2-028K24,4,413,PS,exp,27,←,right,→,0.5885456000687554,False,11,-1,1,15
Y2-S2-028K24,4,414,PS,exp,28,↓,left,←,0.6641629000660032,False,12,-1,0,15
Y2-S2-028K24,4,415,PS,exp,49,←,left,←,0.47749869991093874,True,13,-1,0,15
Y2-S2-028K24,4,416,PS,exp,46,↑,up,↑,0.5259568000910804,True,13,-1,0,15
Y2-S2-028K24,4,417,PS,exp,42,↓,down,↓,0.5262370000127703,True,13,1,1,16
Y2-S2-028K24,5,418,PS,intra_train,28,↑,up,↑,0.5721059000352398,True,15,-,-,-
Y2-S2-028K24,5,419,PS,intra_train,26,↓,down,↓,0.5592227999586612,True,15,-,-,-
Y2-S2-028K24,5,420,PS,intra_train,32,←,left,←,0.46324299997650087,True,15,-,-,-
Y2-S2-028K24,5,421,PS,intra_train,43,↑,up,↑,0.4410079000517726,True,15,-,-,-
Y2-S2-028K24,5,422,PS,intra_train,30,→,right,→,0.4816939999582246,True,15,-,-,-
Y2-S2-028K24,5,423,PS,exp,31,↓,down,↓,0.5790860999841243,True,10,0,0,0
Y2-S2-028K24,5,424,PS,exp,34,→,left,←,0.50688210001681,False,10,-1,0,0
Y2-S2-028K24,5,425,PS,exp,30,↓,down,↓,0.5705542999785393,True,11,-1,0,0
Y2-S2-028K24,5,426,PS,exp,43,←,left,←,0.39971739996690303,True,11,-1,0,0
Y2-S2-028K24,5,427,PS,exp,39,↑,up,↑,0.5159627000102773,True,11,1,1,1
Y2-S2-028K24,5,428,PS,exp,27,↓,up,↑,0.6159765999764204,False,10,-1,1,2
Y2-S2-028K24,5,429,PS,exp,30,↑,down,↓,0.5962585000088438,False,11,-1,0,2
Y2-S2-028K24,5,430,PS,exp,43,→,right,→,0.4638433000072837,True,12,-1,0,2
Y2-S2-028K24,5,431,PS,exp,40,↓,down,↓,0.5364131000824273,True,12,-1,0,2
Y2-S2-028K24,5,432,PS,exp,27,↑,up,↑,0.4728982999222353,True,12,1,1,3
Y2-S2-028K24,5,433,PS,exp,31,↓,down,↓,0.6731278999941424,True,11,1,0,3
Y2-S2-028K24,5,434,PS,exp,39,↑,up,↑,0.743593699997291,True,11,1,0,3
Y2-S2-028K24,5,435,PS,exp,47,↓,down,↓,0.7197711999760941,True,11,1,0,3
Y2-S2-028K24,5,436,PS,exp,42,↑,up,↑,0.7031290999148041,True,10,1,0,3
Y2-S2-028K24,5,437,PS,exp,47,↓,down,↓,0.4657880000304431,True,10,1,0,3
Y2-S2-028K24,5,438,PS,exp,27,←,left,←,0.750800299923867,True,10,1,0,3
Y2-S2-028K24,5,439,PS,exp,40,→,right,→,0.5413200000766665,True,9,1,0,3
Y2-S2-028K24,5,440,PS,exp,35,←,left,←,0.44872339989524335,True,9,1,0,3
Y2-S2-028K24,5,441,PS,exp,35,→,right,→,0.5725975000532344,True,9,1,0,3
Y2-S2-028K24,5,442,PS,exp,31,↓,left,←,0.6392548000440001,False,8,-1,1,4
Y2-S2-028K24,5,443,PS,exp,29,→,right,→,0.45228600001428276,True,9,-1,0,4
Y2-S2-028K24,5,444,PS,exp,42,←,right,→,0.4733434000518173,False,9,-1,0,4
Y2-S2-028K24,5,445,PS,exp,43,↑,up,↑,0.6999174000229686,True,10,-1,0,4
Y2-S2-028K24,5,446,PS,exp,48,↓,right,→,0.46379540010821074,False,10,-1,0,4
Y2-S2-028K24,5,447,PS,exp,33,←,left,←,0.45424370002001524,True,11,-1,0,4
Y2-S2-028K24,5,448,PS,exp,40,↓,left,←,0.6408019000664353,False,11,-1,0,4
Y2-S2-028K24,5,449,PS,exp,38,←,left,←,0.5512241000542417,True,12,-1,0,4
Y2-S2-028K24,5,450,PS,exp,38,↑,up,↑,0.4886452000355348,True,12,-1,0,4
Y2-S2-028K24,5,451,PS,exp,50,↓,down,↓,0.6207961000036448,True,12,1,1,5
Y2-S2-028K24,5,452,PS,exp,42,↑,up,↑,0.47819429996889085,True,11,1,0,5
Y2-S2-028K24,5,453,PS,exp,50,↓,down,↓,0.5373368000146002,True,11,1,0,5
Y2-S2-028K24,5,454,PS,exp,46,←,left,←,0.442243600031361,True,11,1,0,5
Y2-S2-028K24,5,455,PS,exp,27,↑,up,↑,0.5255754999816418,True,10,1,0,5
Y2-S2-028K24,5,456,PS,exp,26,↓,down,↓,0.5290300999768078,True,10,1,0,5
Y2-S2-028K24,5,457,PS,exp,30,↑,right,→,0.7649134999373928,False,10,-1,1,6
Y2-S2-028K24,5,458,PS,exp,38,→,right,→,0.5473868999397382,True,11,-1,0,6
Y2-S2-028K24,5,459,PS,exp,41,←,left,←,0.5366366000380367,True,11,-1,0,6
Y2-S2-028K24,5,460,PS,exp,36,↑,up,↑,0.5066187001066282,True,11,1,1,7
Y2-S2-028K24,5,461,PS,exp,29,←,right,→,0.5237555000931025,False,10,-1,1,8
Y2-S2-028K24,5,462,PS,exp,34,↓,down,↓,0.5625905999913812,True,11,-1,0,8
Y2-S2-028K24,5,463,PS,exp,32,←,left,←,0.48410110000986606,True,11,-1,0,8
Y2-S2-028K24,5,464,PS,exp,49,→,right,→,0.484517699922435,True,11,1,1,9
Y2-S2-028K24,5,465,PS,exp,30,←,right,→,0.5467691998928785,False,10,-1,1,10
Y2-S2-028K24,5,466,PS,exp,31,↓,right,→,0.5638096999609843,False,11,-1,0,10
Y2-S2-028K24,5,467,PS,exp,30,→,right,→,0.5653197000501677,True,12,-1,0,10
Y2-S2-028K24,5,468,PS,exp,49,↑,up,↑,0.6107162999687716,True,12,-1,0,10
Y2-S2-028K24,5,469,PS,exp,47,→,right,→,0.4566704999888316,True,12,1,1,11
Y2-S2-028K24,5,470,PS,exp,39,↑,up,↑,0.46946769999340177,True,11,1,0,11
Y2-S2-028K24,5,471,PS,exp,49,↓,right,→,0.5870555000146851,False,11,-1,1,12
Y2-S2-028K24,5,472,PS,exp,46,←,left,←,0.5243428000248969,True,12,-1,0,12
Y2-S2-028K24,5,473,PS,exp,44,↑,up,↑,0.464066999964416,True,12,-1,0,12
Y2-S2-028K24,5,474,PS,exp,34,←,left,←,0.4722648999886587,True,12,1,1,13
Y2-S2-028K24,5,475,PS,exp,41,→,right,→,0.47444000001996756,True,11,1,0,13
Y2-S2-028K24,5,476,PS,exp,32,↓,right,→,0.7637351000448689,False,11,-1,1,14
Y2-S2-028K24,5,477,PS,exp,27,↑,right,→,0.5354264000197873,False,12,-1,0,14
Y2-S2-028K24,5,478,PS,exp,42,↓,down,↓,0.6580857000080869,True,13,-1,0,14
Y2-S2-028K24,5,479,PS,exp,31,←,left,←,0.47983760002534837,True,13,-1,0,14
Y2-S2-028K24,5,480,PS,exp,47,↑,up,↑,0.44216219999361783,True,13,1,1,15
Y2-S2-028K24,5,481,PS,exp,50,→,right,→,0.4387420000275597,True,12,1,0,15
Y2-S2-028K24,5,482,PS,exp,30,↓,down,↓,0.5775564999785274,True,12,1,0,15
Y2-S2-028K24,5,483,PS,exp,47,←,left,←,0.4201471999986097,True,12,1,0,15
Y2-S2-028K24,5,484,PS,exp,35,↓,down,↓,0.5021314000478014,True,11,1,0,15
Y2-S2-028K24,5,485,PS,exp,44,←,left,←,0.4098447998985648,True,11,1,0,15
Y2-S2-028K24,5,486,PS,exp,25,↑,up,↑,0.4793970000464469,True,11,1,0,15
Y2-S2-028K24,5,487,PS,exp,50,↓,down,↓,0.5130924999248236,True,10,1,0,15
Y2-S2-028K24,5,488,PS,exp,31,→,right,→,0.6010644999332726,True,10,1,0,15
Y2-S2-028K24,5,489,PS,exp,43,↑,down,↓,0.6386829999973997,False,10,-1,1,16
Y2-S2-028K24,6,490,AS,intra_train,38,↓,down,↓,1.4543761999811977,True,24,-,-,-
Y2-S2-028K24,6,491,AS,intra_train,27,↑,up,↑,1.191330699948594,True,24,-,-,-
Y2-S2-028K24,6,492,AS,intra_train,27,→,right,→,0.7394849000265822,True,24,-,-,-
Y2-S2-028K24,6,493,AS,intra_train,37,↓,down,↓,0.8327247999841347,True,24,-,-,-
Y2-S2-028K24,6,494,AS,intra_train,28,→,right,→,1.2475507000926882,True,24,-,-,-
Y2-S2-028K24,6,495,AS,exp,42,↑,up,↑,0.8698891999665648,True,16,0,0,0
Y2-S2-028K24,6,496,AS,exp,42,↓,up,↑,0.6587791000492871,False,16,-1,0,0
Y2-S2-028K24,6,497,AS,exp,26,↑,up,↑,0.5124106999719515,True,17,-1,0,0
Y2-S2-028K24,6,498,AS,exp,39,→,right,→,0.49895239993929863,True,17,-1,0,0
Y2-S2-028K24,6,499,AS,exp,30,←,right,→,0.49575879995245486,False,17,-1,0,0
Y2-S2-028K24,6,500,AS,exp,39,→,right,→,0.6899966000346467,True,18,-1,0,0
Y2-S2-028K24,6,501,AS,exp,30,←,left,←,0.5261488000396639,True,18,-1,0,0
Y2-S2-028K24,6,502,AS,exp,41,↓,down,↓,0.5277713999385014,True,18,1,1,1
Y2-S2-028K24,6,503,AS,exp,27,←,left,←,0.48976169992238283,True,17,1,0,1
Y2-S2-028K24,6,504,AS,exp,32,↓,down,↓,0.574460000032559,True,17,1,0,1
Y2-S2-028K24,6,505,AS,exp,46,→,left,←,0.5752472999738529,False,17,-1,1,2
Y2-S2-028K24,6,506,AS,exp,40,↓,down,↓,0.4987581999739632,True,18,-1,0,2
Y2-S2-028K24,6,507,AS,exp,31,→,right,→,0.5390622999984771,True,18,-1,0,2
Y2-S2-028K24,6,508,AS,exp,41,←,right,→,0.5313048000680283,False,18,-1,0,2
Y2-S2-028K24,6,509,AS,exp,45,↑,up,↑,0.6885086999973282,True,19,-1,0,2
Y2-S2-028K24,6,510,AS,exp,32,↓,down,↓,0.6102748999837786,True,19,-1,0,2
Y2-S2-028K24,6,511,AS,exp,30,→,right,→,0.6163553000660613,True,19,1,1,3
Y2-S2-028K24,6,512,AS,exp,32,←,left,←,0.517409999971278,True,18,1,0,3
Y2-S2-028K24,6,513,AS,exp,34,→,right,→,0.5081317001022398,True,18,1,0,3
Y2-S2-028K24,6,514,AS,exp,31,←,left,←,0.48206080007366836,True,18,1,0,3
Y2-S2-028K24,6,515,AS,exp,43,↓,down,↓,0.5909788999706507,True,17,1,0,3
Y2-S2-028K24,6,516,AS,exp,34,→,right,→,0.626253499998711,True,17,1,0,3
Y2-S2-028K24,6,517,AS,exp,28,↓,up,↑,0.8385398999089375,False,17,-1,1,4
Y2-S2-028K24,6,518,AS,exp,39,↑,up,↑,0.6906827000202611,True,18,-1,0,4
Y2-S2-028K24,6,519,AS,exp,38,→,right,→,0.5133344999048859,True,18,-1,0,4
Y2-S2-028K24,6,520,AS,exp,34,↑,up,↑,0.4171413000440225,True,18,1,1,5
Y2-S2-028K24,6,521,AS,exp,38,↓,down,↓,0.46932399994693696,True,17,1,0,5
Y2-S2-028K24,6,522,AS,exp,32,←,right,→,0.6117828999413177,False,17,-1,1,6
Y2-S2-028K24,6,523,AS,exp,29,↑,up,↑,0.3673338999506086,True,18,-1,0,6
Y2-S2-028K24,6,524,AS,exp,30,↓,down,↓,0.7647716000210494,True,18,-1,0,6
Y2-S2-028K24,6,525,AS,exp,30,→,no_key,no_letter,-1.0,False,18,-1,0,6
Y2-S2-028K24,6,526,AS,exp,32,↑,up,↑,0.5932662000413984,True,19,-1,0,6
Y2-S2-028K24,6,527,AS,exp,35,→,right,→,0.4337377999909222,True,19,-1,0,6
Y2-S2-028K24,6,528,AS,exp,38,↓,down,↓,0.5642207000637427,True,19,1,1,7
Y2-S2-028K24,6,529,AS,exp,36,←,left,←,0.501630200073123,True,18,1,0,7
Y2-S2-028K24,6,530,AS,exp,46,↓,down,↓,0.7435226999223232,True,18,1,0,7
Y2-S2-028K24,6,531,AS,exp,35,→,right,→,0.4007063000462949,True,18,1,0,7
Y2-S2-028K24,6,532,AS,exp,28,↑,up,↑,0.48576770001091063,True,17,1,0,7
Y2-S2-028K24,6,533,AS,exp,47,→,right,→,0.5070001999847591,True,17,1,0,7
Y2-S2-028K24,6,534,AS,exp,27,←,left,←,0.49495709990151227,True,17,1,0,7
Y2-S2-028K24,6,535,AS,exp,34,↑,up,↑,0.4451614998979494,True,16,1,0,7
Y2-S2-028K24,6,536,AS,exp,47,←,left,←,0.5047930999426171,True,16,1,0,7
Y2-S2-028K24,6,537,AS,exp,35,↓,down,↓,0.547935500042513,True,16,1,0,7
Y2-S2-028K24,6,538,AS,exp,49,←,right,→,0.5040430999360979,False,15,-1,1,8
Y2-S2-028K24,6,539,AS,exp,50,↑,up,↑,0.4462818999309093,True,16,-1,0,8
Y2-S2-028K24,6,540,AS,exp,37,→,right,→,0.5212199999950826,True,16,-1,0,8
Y2-S2-028K24,6,541,AS,exp,42,←,left,←,0.4472583000315353,True,16,1,1,9
Y2-S2-028K24,6,542,AS,exp,32,→,left,←,0.8296353999758139,False,15,-1,1,10
Y2-S2-028K24,6,543,AS,exp,42,↑,up,↑,0.5439169000601396,True,16,-1,0,10
Y2-S2-028K24,6,544,AS,exp,30,←,left,←,0.4923597000306472,True,16,-1,0,10
Y2-S2-028K24,6,545,AS,exp,32,↑,up,↑,0.4779811999760568,True,16,1,1,11
Y2-S2-028K24,6,546,AS,exp,32,→,right,→,0.5815850000362843,True,15,1,0,11
Y2-S2-028K24,6,547,AS,exp,46,←,left,←,0.3838595999404788,True,15,1,0,11
Y2-S2-028K24,6,548,AS,exp,49,↓,down,↓,0.5644340000580996,True,15,1,0,11
Y2-S2-028K24,6,549,AS,exp,28,↑,up,↑,0.651908400002867,True,14,1,0,11
Y2-S2-028K24,6,550,AS,exp,36,↓,down,↓,0.4882322000339627,True,14,1,0,11
Y2-S2-028K24,6,551,AS,exp,49,→,left,←,0.4526960999937728,False,14,-1,1,12
Y2-S2-028K24,6,552,AS,exp,25,←,left,←,0.4992758999578655,True,15,-1,0,12
Y2-S2-028K24,6,553,AS,exp,44,↑,up,↑,0.5772518999874592,True,15,-1,0,12
Y2-S2-028K24,6,554,AS,exp,46,←,right,→,0.5471715999301523,False,15,-1,0,12
Y2-S2-028K24,6,555,AS,exp,27,↑,up,↑,0.5403427999699488,True,16,-1,0,12
Y2-S2-028K24,6,556,AS,exp,27,↓,down,↓,0.6232335999375209,True,16,-1,0,12
Y2-S2-028K24,6,557,AS,exp,36,←,left,←,0.5972677998943254,True,16,1,1,13
Y2-S2-028K24,6,558,AS,exp,37,↓,down,↓,0.5973305000225082,True,15,1,0,13
Y2-S2-028K24,6,559,AS,exp,33,←,left,←,0.6395840999903157,True,15,1,0,13
Y2-S2-028K24,6,560,AS,exp,32,↓,down,↓,0.6642148999962956,True,15,1,0,13
Y2-S2-028K24,6,561,AS,exp,36,←,left,←,0.6051379999844357,True,14,1,0,13
Y2-S2-028K24,6,562,AS,exp,40,↓,down,↓,0.5601350999204442,True,14,1,0,13
Y2-S2-028K24,6,563,AS,exp,29,→,right,→,0.6618379999417812,True,14,1,0,13
Y2-S2-028K24,6,564,AS,exp,27,↑,up,↑,0.6777144999941811,True,13,1,0,13
Y2-S2-028K24,6,565,AS,exp,32,←,left,←,0.5037685000570491,True,13,1,0,13
Y2-S2-028K24,6,566,AS,exp,45,↑,up,↑,0.5450985999777913,True,13,1,0,13
Y2-S2-028K24,6,567,AS,exp,48,→,right,→,0.5764203000580892,True,12,1,0,13
Y2-S2-028K24,6,568,AS,exp,47,↓,up,↑,0.7349128000205383,False,12,-1,1,14
Y2-S2-028K24,6,569,AS,exp,46,↑,up,↑,0.46360639994964004,True,13,-1,0,14
Y2-S2-028K24,6,570,AS,exp,39,→,left,←,0.6203595000552014,False,13,-1,0,14
Y2-S2-028K24,6,571,AS,exp,43,←,left,←,0.548071000026539,True,14,-1,0,14
Y2-S2-028K24,6,572,AS,exp,41,→,right,→,0.5548025000607595,True,14,-1,0,14
Y2-S2-028K24,6,573,AS,exp,25,←,left,←,0.5822197999805212,True,14,1,1,15
Y2-S2-028K24,6,574,AS,exp,42,↑,up,↑,0.47623710008338094,True,13,1,0,15
Y2-S2-028K24,6,575,AS,exp,36,↓,up,↑,0.5127741999458522,False,13,-1,1,16
Y2-S2-028K24,7,576,AS,intra_train,31,↑,up,↑,0.48420720000285655,True,24,-,-,-
Y2-S2-028K24,7,577,AS,intra_train,30,→,right,→,0.5170923999976367,True,24,-,-,-
Y2-S2-028K24,7,578,AS,intra_train,44,↑,up,↑,0.43405759998131543,True,24,-,-,-
Y2-S2-028K24,7,579,AS,intra_train,50,→,right,→,0.450798699981533,True,24,-,-,-
Y2-S2-028K24,7,580,AS,intra_train,45,↓,down,↓,1.1771799999987707,True,24,-,-,-
Y2-S2-028K24,7,581,AS,exp,45,↑,up,↑,0.46451079996768385,True,16,0,0,0
Y2-S2-028K24,7,582,AS,exp,35,←,left,←,0.5521718000527471,True,16,0,0,0
Y2-S2-028K24,7,583,AS,exp,29,↓,down,↓,0.7226003999821842,True,16,1,0,0
Y2-S2-028K24,7,584,AS,exp,40,→,right,→,0.5877260999986902,True,15,1,0,0
Y2-S2-028K24,7,585,AS,exp,43,↑,up,↑,0.44062100001610816,True,15,1,0,0
Y2-S2-028K24,7,586,AS,exp,35,→,left,←,0.7532947000581771,False,15,-1,1,1
Y2-S2-028K24,7,587,AS,exp,25,←,right,→,1.254613299970515,False,16,-1,0,1
Y2-S2-028K24,7,588,AS,exp,44,↓,down,↓,0.5750068000052124,True,17,-1,0,1
Y2-S2-028K24,7,589,AS,exp,30,↑,up,↑,0.5446326999226585,True,17,-1,0,1
Y2-S2-028K24,7,590,AS,exp,25,↓,down,↓,0.6165052999276668,True,17,1,1,2
Y2-S2-028K24,7,591,AS,exp,41,↑,up,↑,0.4645849000662565,True,16,1,0,2
Y2-S2-028K24,7,592,AS,exp,34,←,left,←,0.5176233999663964,True,16,1,0,2
Y2-S2-028K24,7,593,AS,exp,43,↓,down,↓,0.6741118999198079,True,16,1,0,2
Y2-S2-028K24,7,594,AS,exp,44,→,right,→,0.5635697999969125,True,15,1,0,2
Y2-S2-028K24,7,595,AS,exp,33,↓,down,↓,0.5777910000178963,True,15,1,0,2
Y2-S2-028K24,7,596,AS,exp,27,←,left,←,0.638303600018844,True,15,1,0,2
Y2-S2-028K24,7,597,AS,exp,48,→,left,←,0.5636547999456525,False,14,-1,1,3
Y2-S2-028K24,7,598,AS,exp,47,←,left,←,0.5718245999887586,True,15,-1,0,3
Y2-S2-028K24,7,599,AS,exp,45,→,right,→,0.47122880001552403,True,15,-1,0,3
Y2-S2-028K24,7,600,AS,exp,37,←,left,←,0.4787446999689564,True,15,1,1,4
Y2-S2-028K24,7,601,AS,exp,27,↓,down,↓,0.521539100096561,True,14,1,0,4
Y2-S2-028K24,7,602,AS,exp,47,←,left,←,0.4729407000122592,True,14,1,0,4
Y2-S2-028K24,7,603,AS,exp,27,→,left,←,0.5170155999949202,False,14,-1,1,5
Y2-S2-028K24,7,604,AS,exp,31,←,left,←,0.5813883999362588,True,15,-1,0,5
Y2-S2-028K24,7,605,AS,exp,35,→,right,→,0.4580531999235973,True,15,-1,0,5
Y2-S2-028K24,7,606,AS,exp,34,←,left,←,0.5120588999707252,True,15,1,1,6
Y2-S2-028K24,7,607,AS,exp,26,↓,down,↓,0.6941421000519767,True,14,1,0,6
Y2-S2-028K24,7,608,AS,exp,46,↑,up,↑,0.4722693000221625,True,14,1,0,6
Y2-S2-028K24,7,609,AS,exp,38,↓,down,↓,0.6114323999499902,True,14,1,0,6
Y2-S2-028K24,7,610,AS,exp,45,↑,up,↑,0.555428700055927,True,13,1,0,6
Y2-S2-028K24,7,611,AS,exp,25,←,left,←,0.48675929999444634,True,13,1,0,6
Y2-S2-028K24,7,612,AS,exp,34,→,right,→,0.5790346000576392,True,13,1,0,6
Y2-S2-028K24,7,613,AS,exp,46,↑,up,↑,0.5246331000234932,True,12,1,0,6
Y2-S2-028K24,7,614,AS,exp,46,→,right,→,0.6049249999923632,True,12,1,0,6
Y2-S2-028K24,7,615,AS,exp,30,↑,down,↓,0.6543318999465555,False,12,-1,1,7
Y2-S2-028K24,7,616,AS,exp,47,←,left,←,0.5353061000350863,True,13,-1,0,7
Y2-S2-028K24,7,617,AS,exp,25,↓,down,↓,0.6957182000624016,True,13,-1,0,7
Y2-S2-028K24,7,618,AS,exp,43,↑,down,↓,0.6371869998984039,False,13,-1,0,7
Y2-S2-028K24,7,619,AS,exp,42,←,left,←,0.5309962999308482,True,14,-1,0,7
Y2-S2-028K24,7,620,AS,exp,38,→,right,→,0.6100552000571042,True,14,-1,0,7
Y2-S2-028K24,7,621,AS,exp,42,↑,up,↑,0.5082694999873638,True,14,1,1,8
Y2-S2-028K24,7,622,AS,exp,37,←,left,←,0.5341520999791101,True,13,1,0,8
Y2-S2-028K24,7,623,AS,exp,49,→,right,→,0.4473263999680057,True,13,1,0,8
Y2-S2-028K24,7,624,AS,exp,39,↑,up,↑,0.47235110006295145,True,13,1,0,8
Y2-S2-028K24,7,625,AS,exp,42,←,right,→,0.49621859996113926,False,12,-1,1,9
Y2-S2-028K24,7,626,AS,exp,26,→,right,→,0.5573019000003114,True,13,-1,0,9
Y2-S2-028K24,7,627,AS,exp,50,←,left,←,0.5518191999290138,True,13,-1,0,9
Y2-S2-028K24,7,628,AS,exp,41,→,right,→,0.44471640000119805,True,13,1,1,10
Y2-S2-028K24,7,629,AS,exp,36,↑,up,↑,0.43810299993492663,True,12,1,0,10
Y2-S2-028K24,7,630,AS,exp,39,↓,down,↓,0.5681055999593809,True,12,1,0,10
Y2-S2-028K24,7,631,AS,exp,35,→,right,→,0.4844511999981478,True,12,1,0,10
Y2-S2-028K24,7,632,AS,exp,33,↑,up,↑,0.5960226999595761,True,11,1,0,10
Y2-S2-028K24,7,633,AS,exp,41,←,left,←,0.5221432999242097,True,11,1,0,10
Y2-S2-028K24,7,634,AS,exp,45,↑,up,↑,0.6221164999296889,True,11,1,0,10
Y2-S2-028K24,7,635,AS,exp,47,→,right,→,0.4581117000197992,True,10,1,0,10
Y2-S2-028K24,7,636,AS,exp,45,↓,right,→,0.640110999927856,False,10,-1,1,11
Y2-S2-028K24,7,637,AS,exp,25,↑,up,↑,0.49018329998943955,True,11,-1,0,11
Y2-S2-028K24,7,638,AS,exp,47,←,right,→,0.5131792000029236,False,11,-1,0,11
Y2-S2-028K24,7,639,AS,exp,37,↓,up,↑,0.5574022999498993,False,12,-1,0,11
Y2-S2-028K24,7,640,AS,exp,45,←,right,→,0.546560600050725,False,13,-1,0,11
Y2-S2-028K24,7,641,AS,exp,26,↑,up,↑,0.6191974999383092,True,14,-1,0,11
Y2-S2-028K24,7,642,AS,exp,44,↓,down,↓,0.6227409000275657,True,14,-1,0,11
Y2-S2-028K24,7,643,AS,exp,37,→,right,→,0.4776370999170467,True,14,1,1,12
Y2-S2-028K24,7,644,AS,exp,44,←,left,←,0.7465722999768332,True,13,1,0,12
Y2-S2-028K24,7,645,AS,exp,31,→,right,→,0.5049731000326574,True,13,1,0,12
Y2-S2-028K24,7,646,AS,exp,42,↓,down,↓,0.6300621000118554,True,13,1,0,12
Y2-S2-028K24,7,647,AS,exp,47,→,right,→,0.5746793000726029,True,12,1,0,12
Y2-S2-028K24,7,648,AS,exp,36,↓,down,↓,0.6356222999747843,True,12,1,0,12
Y2-S2-028K24,7,649,AS,exp,42,←,left,←,0.45472060004249215,True,12,1,0,12
Y2-S2-028K24,7,650,AS,exp,25,↑,up,↑,0.5315411000046879,True,11,1,0,12
Y2-S2-028K24,7,651,AS,exp,25,→,right,→,0.5421541000250727,True,11,1,0,12
Y2-S2-028K24,7,652,AS,exp,45,↑,down,↓,0.5752637999830768,False,11,-1,1,13
Y2-S2-028K24,7,653,AS,exp,49,↓,down,↓,0.5417487999657169,True,12,-1,0,13
Y2-S2-028K24,7,654,AS,exp,46,←,left,←,0.506807400030084,True,12,-1,0,13
Y2-S2-028K24,7,655,AS,exp,26,↓,down,↓,0.5819661000277847,True,12,1,1,14
Y2-S2-028K24,7,656,AS,exp,29,←,left,←,0.5361629999242723,True,11,1,0,14
Y2-S2-028K24,7,657,AS,exp,36,→,right,→,0.5127192999934778,True,11,1,0,14
Y2-S2-028K24,7,658,AS,exp,31,←,down,↓,0.5956757999956608,False,11,-1,1,15
Y2-S2-028K24,7,659,AS,exp,49,↓,down,↓,0.7742577999597415,True,12,-1,0,15
Y2-S2-028K24,7,660,AS,exp,31,↑,down,↓,0.532062100013718,False,12,-1,0,15
Y2-S2-028K24,7,661,AS,exp,35,→,right,→,0.5224752000067383,True,13,-1,0,15
Y2-S2-028K24,7,662,AS,exp,27,↑,up,↑,0.55349349998869,True,13,-1,0,15
Y2-S2-028K24,7,663,AS,exp,36,↓,down,↓,0.4822249999269843,True,13,1,1,16
Y2-S2-028K24,8,664,PS,intra_train,28,↑,up,↑,0.7512515999842435,True,15,-,-,-
Y2-S2-028K24,8,665,PS,intra_train,30,→,right,→,0.46485350001603365,True,15,-,-,-
Y2-S2-028K24,8,666,PS,intra_train,47,←,left,←,0.8933906999882311,True,15,-,-,-
Y2-S2-028K24,8,667,PS,intra_train,44,↓,down,↓,0.6119638999225572,True,15,-,-,-
Y2-S2-028K24,8,668,PS,intra_train,46,↑,up,↑,0.6239656999241561,True,15,-,-,-
Y2-S2-028K24,8,669,PS,exp,45,←,right,→,0.5436699000420049,False,10,-1,0,0
Y2-S2-028K24,8,670,PS,exp,48,↓,down,↓,0.5439821999752894,True,11,-1,0,0
Y2-S2-028K24,8,671,PS,exp,50,←,left,←,0.461663999943994,True,11,-1,0,0
Y2-S2-028K24,8,672,PS,exp,45,↓,down,↓,0.5731324000516906,True,11,1,1,1
Y2-S2-028K24,8,673,PS,exp,36,→,right,→,0.464201100054197,True,10,1,0,1
Y2-S2-028K24,8,674,PS,exp,32,←,right,→,0.4454799999948591,False,10,-1,1,2
Y2-S2-028K24,8,675,PS,exp,33,→,right,→,0.442100299987942,True,11,-1,0,2
Y2-S2-028K24,8,676,PS,exp,37,↑,up,↑,0.5421180999837816,True,11,-1,0,2
Y2-S2-028K24,8,677,PS,exp,41,←,right,→,0.4377530000638217,False,11,-1,0,2
Y2-S2-028K24,8,678,PS,exp,37,↑,up,↑,0.5580303999595344,True,12,-1,0,2
Y2-S2-028K24,8,679,PS,exp,32,←,left,←,0.4905981000047177,True,12,-1,0,2
Y2-S2-028K24,8,680,PS,exp,34,→,right,→,0.5071541999932379,True,12,1,1,3
Y2-S2-028K24,8,681,PS,exp,34,↓,down,↓,0.5068234999198467,True,11,1,0,3
Y2-S2-028K24,8,682,PS,exp,31,←,left,←,0.47991300001740456,True,11,1,0,3
Y2-S2-028K24,8,683,PS,exp,42,→,right,→,0.3935680000577122,True,11,1,0,3
Y2-S2-028K24,8,684,PS,exp,26,←,right,→,0.44181360001675785,False,10,-1,1,4
Y2-S2-028K24,8,685,PS,exp,30,↑,up,↑,0.5372473000315949,True,11,-1,0,4
Y2-S2-028K24,8,686,PS,exp,39,←,left,←,0.4324197000823915,True,11,-1,0,4
Y2-S2-028K24,8,687,PS,exp,34,↑,up,↑,0.4209346999414265,True,11,1,1,5
Y2-S2-028K24,8,688,PS,exp,32,↓,up,↑,0.5170686000492424,False,10,-1,1,6
Y2-S2-028K24,8,689,PS,exp,27,←,left,←,0.43225740001071244,True,11,-1,0,6
Y2-S2-028K24,8,690,PS,exp,50,↓,down,↓,0.5522072999738157,True,11,-1,0,6
Y2-S2-028K24,8,691,PS,exp,25,↑,down,↓,0.7045966999139637,False,11,-1,0,6
Y2-S2-028K24,8,692,PS,exp,29,↓,down,↓,0.6422195000341162,True,12,-1,0,6
Y2-S2-028K24,8,693,PS,exp,37,↑,up,↑,0.4526009999681264,True,12,-1,0,6
Y2-S2-028K24,8,694,PS,exp,46,→,right,→,0.43586759991012514,True,12,1,1,7
Y2-S2-028K24,8,695,PS,exp,38,↓,down,↓,0.4774459999753162,True,11,1,0,7
Y2-S2-028K24,8,696,PS,exp,48,→,right,→,0.5397597999544814,True,11,1,0,7
Y2-S2-028K24,8,697,PS,exp,37,←,right,→,0.464755899971351,False,11,-1,1,8
Y2-S2-028K24,8,698,PS,exp,31,→,right,→,0.5392278000945225,True,12,-1,0,8
Y2-S2-028K24,8,699,PS,exp,42,↓,down,↓,0.5666935000335798,True,12,-1,0,8
Y2-S2-028K24,8,700,PS,exp,36,←,left,←,0.49209140008315444,True,12,1,1,9
Y2-S2-028K24,8,701,PS,exp,32,↑,up,↑,0.5732936999993399,True,11,1,0,9
Y2-S2-028K24,8,702,PS,exp,40,↓,left,←,0.736750099924393,False,11,-1,1,10
Y2-S2-028K24,8,703,PS,exp,37,←,left,←,0.41934410005342215,True,12,-1,0,10
Y2-S2-028K24,8,704,PS,exp,31,↓,down,↓,0.5423308999743313,True,12,-1,0,10
Y2-S2-028K24,8,705,PS,exp,49,→,right,→,0.4374334999592975,True,12,1,1,11
Y2-S2-028K24,8,706,PS,exp,41,↓,down,↓,0.5800114000448957,True,11,1,0,11
Y2-S2-028K24,8,707,PS,exp,30,←,left,←,0.45981919998303056,True,11,1,0,11
Y2-S2-028K24,8,708,PS,exp,27,↓,down,↓,0.5361432998906821,True,11,1,0,11
Y2-S2-028K24,8,709,PS,exp,46,↑,up,↑,0.3894393000518903,True,10,1,0,11
Y2-S2-028K24,8,710,PS,exp,41,←,right,→,0.4399485000176355,False,10,-1,1,12
Y2-S2-028K24,8,711,PS,exp,30,↓,right,→,0.6262501999735832,False,11,-1,0,12
Y2-S2-028K24,8,712,PS,exp,25,→,right,→,0.44449989998247474,True,12,-1,0,12
Y2-S2-028K24,8,713,PS,exp,39,←,left,←,0.4524564000312239,True,12,-1,0,12
Y2-S2-028K24,8,714,PS,exp,35,↓,down,↓,0.601144399959594,True,12,1,1,13
Y2-S2-028K24,8,715,PS,exp,36,→,right,→,0.503608200000599,True,11,1,0,13
Y2-S2-028K24,8,716,PS,exp,39,↓,down,↓,0.683665500022471,True,11,1,0,13
Y2-S2-028K24,8,717,PS,exp,27,←,left,←,0.7693578000180423,True,11,1,0,13
Y2-S2-028K24,8,718,PS,exp,30,↓,down,↓,0.8185032999608666,True,10,1,0,13
Y2-S2-028K24,8,719,PS,exp,43,↑,up,↑,0.513827700051479,True,10,1,0,13
Y2-S2-028K24,8,720,PS,exp,49,↓,right,→,0.7644114000722766,False,10,-1,1,14
Y2-S2-028K24,8,721,PS,exp,25,←,right,→,0.49137289996724576,False,11,-1,0,14
Y2-S2-028K24,8,722,PS,exp,34,→,right,→,0.4165379999903962,True,12,-1,0,14
Y2-S2-028K24,8,723,PS,exp,28,↑,up,↑,0.5580437000608072,True,12,-1,0,14
Y2-S2-028K24,8,724,PS,exp,29,→,right,→,0.317411300027743,True,12,1,1,15
Y2-S2-028K24,8,725,PS,exp,50,↓,down,↓,0.6238991999998689,True,11,1,0,15
Y2-S2-028K24,8,726,PS,exp,37,←,right,→,0.374751599971205,False,11,-1,1,16
