PART_ID,Block_no,Trial_no,Block_type,Trial_type,CSI,Stim_letter,Key_pressed,letter_choose,Rt,Corr,Stimulus Time,Level,Reversal,Revs_count
Y2-S2-215M19,1,1,PS,train,42,↓,down,↓,1.2531849999213591,True,30,-,-,-
Y2-S2-215M19,1,2,PS,train,45,←,left,←,0.6885998999932781,True,30,-,-,-
Y2-S2-215M19,1,3,PS,train,40,↓,down,↓,0.7490641999756917,True,30,-,-,-
Y2-S2-215M19,1,4,PS,train,29,↑,up,↑,1.2142481999471784,True,30,-,-,-
Y2-S2-215M19,1,5,PS,train,42,→,right,→,0.821087499964051,True,30,-,-,-
Y2-S2-215M19,1,6,PS,train,29,↓,down,↓,0.9254580999258906,True,30,-,-,-
Y2-S2-215M19,1,7,PS,train,50,←,left,←,0.5339777000481263,True,30,-,-,-
Y2-S2-215M19,1,8,PS,train,29,→,right,→,1.0110547000076622,True,30,-,-,-
Y2-S2-215M19,1,9,PS,train,34,←,left,←,0.5505548999644816,True,30,-,-,-
Y2-S2-215M19,1,10,PS,train,29,→,right,→,0.6341818000655621,True,30,-,-,-
Y2-S2-215M19,2,11,AS,train,32,↑,up,↑,0.7176042000064626,True,45,-,-,-
Y2-S2-215M19,2,12,AS,train,48,→,right,→,0.6177931999554858,True,45,-,-,-
Y2-S2-215M19,2,13,AS,train,49,↓,down,↓,0.7010209000436589,True,45,-,-,-
Y2-S2-215M19,2,14,AS,train,35,↑,up,↑,0.7014543000841513,True,45,-,-,-
Y2-S2-215M19,2,15,AS,train,32,←,left,←,0.6843808999983594,True,45,-,-,-
Y2-S2-215M19,2,16,AS,train,31,↑,up,↑,0.7178060000296682,True,45,-,-,-
Y2-S2-215M19,2,17,AS,train,34,→,right,→,0.5344456000020728,True,45,-,-,-
Y2-S2-215M19,2,18,AS,train,38,↑,up,↑,0.8339511000085622,True,45,-,-,-
Y2-S2-215M19,2,19,AS,train,45,←,left,←,0.7506705999840051,True,45,-,-,-
Y2-S2-215M19,2,20,AS,train,32,↑,up,↑,0.5511948000639677,True,45,-,-,-
Y2-S2-215M19,-,21,PS,adaptive,47,→,right,→,0.568990399944596,True,10,0,0,0
Y2-S2-215M19,-,22,PS,adaptive,50,↓,no_key,no_letter,-1.0,False,10,-1,0,0
Y2-S2-215M19,-,23,PS,adaptive,47,→,left,←,0.846354499924928,False,11,-1,0,0
Y2-S2-215M19,-,24,PS,adaptive,43,↑,up,↑,0.6906347000040114,True,12,-1,0,0
Y2-S2-215M19,-,25,PS,adaptive,41,←,left,←,0.4955871000420302,True,12,-1,0,0
Y2-S2-215M19,-,26,PS,adaptive,27,↑,up,↑,0.7305749000515789,True,12,1,1,1
Y2-S2-215M19,-,27,PS,adaptive,28,→,right,→,0.8529475999530405,True,11,1,0,1
Y2-S2-215M19,-,28,PS,adaptive,45,←,left,←,0.48686359997373074,True,11,1,0,1
Y2-S2-215M19,-,29,PS,adaptive,33,→,right,→,0.5054627999197692,True,11,1,0,1
Y2-S2-215M19,-,30,PS,adaptive,39,←,left,←,1.2416083000134677,True,10,1,0,1
Y2-S2-215M19,-,31,PS,adaptive,42,↑,up,↑,0.47266640001907945,True,10,1,0,1
Y2-S2-215M19,-,32,PS,adaptive,43,↓,down,↓,0.8322966999839991,True,10,1,0,1
Y2-S2-215M19,-,33,PS,adaptive,49,←,up,↑,0.8996280999854207,False,9,-1,1,2
Y2-S2-215M19,-,34,PS,adaptive,36,→,right,→,0.4957830000203103,True,10,-1,0,2
Y2-S2-215M19,-,35,PS,adaptive,28,↑,up,↑,0.7181492999661714,True,10,-1,0,2
Y2-S2-215M19,-,36,PS,adaptive,45,←,left,←,0.4415555999148637,True,10,1,1,3
Y2-S2-215M19,-,37,PS,adaptive,29,↑,left,←,0.662854399997741,False,9,-1,1,4
Y2-S2-215M19,-,38,AS,adaptive,33,←,left,←,0.4669016000116244,True,20,0,0,0
Y2-S2-215M19,-,39,AS,adaptive,25,↑,no_key,no_letter,-1.0,False,20,-1,0,0
Y2-S2-215M19,-,40,AS,adaptive,26,↓,down,↓,0.6707431999966502,True,21,-1,0,0
Y2-S2-215M19,-,41,AS,adaptive,49,←,left,←,0.6627186000114307,True,21,-1,0,0
Y2-S2-215M19,-,42,AS,adaptive,44,↑,no_key,no_letter,-1.0,False,21,-1,0,0
Y2-S2-215M19,-,43,AS,adaptive,26,→,right,→,0.9483181000687182,True,22,-1,0,0
Y2-S2-215M19,-,44,AS,adaptive,39,↓,down,↓,0.7571645000716671,True,22,-1,0,0
Y2-S2-215M19,-,45,AS,adaptive,49,←,left,←,0.7051909000147134,True,22,1,1,1
Y2-S2-215M19,-,46,AS,adaptive,43,↓,down,↓,0.7394701999146491,True,21,1,0,1
Y2-S2-215M19,-,47,AS,adaptive,33,←,right,→,0.5563237000023946,False,21,-1,1,2
Y2-S2-215M19,-,48,AS,adaptive,36,→,right,→,0.8804450000170618,True,22,-1,0,2
Y2-S2-215M19,-,49,AS,adaptive,38,↓,down,↓,0.6791932000778615,True,22,-1,0,2
Y2-S2-215M19,-,50,AS,adaptive,31,→,right,→,0.6319905000273138,True,22,1,1,3
Y2-S2-215M19,-,51,AS,adaptive,36,↑,up,↑,0.7983428000006825,True,21,1,0,3
Y2-S2-215M19,-,52,AS,adaptive,46,→,right,→,0.6047617000294849,True,21,1,0,3
Y2-S2-215M19,-,53,AS,adaptive,40,↓,down,↓,0.9358639999991283,True,21,1,0,3
Y2-S2-215M19,-,54,AS,adaptive,35,←,left,←,0.6091645000269637,True,20,1,0,3
Y2-S2-215M19,-,55,AS,adaptive,39,↑,up,↑,0.680938700097613,True,20,1,0,3
Y2-S2-215M19,-,56,AS,adaptive,40,←,left,←,0.6167931000236422,True,20,1,0,3
Y2-S2-215M19,-,57,AS,adaptive,48,↓,down,↓,0.642300899955444,True,19,1,0,3
Y2-S2-215M19,-,58,AS,adaptive,33,↑,up,↑,0.7151950999395922,True,19,1,0,3
Y2-S2-215M19,-,59,AS,adaptive,32,↓,down,↓,0.6604355999734253,True,19,1,0,3
Y2-S2-215M19,-,60,AS,adaptive,28,←,left,←,0.5614022999070585,True,18,1,0,3
Y2-S2-215M19,-,61,AS,adaptive,28,↓,down,↓,0.7351944999536499,True,18,1,0,3
Y2-S2-215M19,-,62,AS,adaptive,42,←,left,←,0.6323277000337839,True,18,1,0,3
Y2-S2-215M19,-,63,AS,adaptive,40,↓,down,↓,1.045379100018181,True,17,1,0,3
Y2-S2-215M19,-,64,AS,adaptive,47,←,left,←,0.6294237000402063,True,17,1,0,3
Y2-S2-215M19,-,65,AS,adaptive,48,↑,up,↑,0.6615097000030801,True,17,1,0,3
Y2-S2-215M19,-,66,AS,adaptive,42,←,left,←,0.7052167999790981,True,16,1,0,3
Y2-S2-215M19,-,67,AS,adaptive,31,↓,up,↑,0.909244199981913,False,16,-1,1,4
Y2-S2-215M19,1,68,PS,intra_train,28,→,right,→,0.47913120000157505,True,15,-,-,-
Y2-S2-215M19,1,69,PS,intra_train,43,↓,down,↓,0.6371256000129506,True,15,-,-,-
Y2-S2-215M19,1,70,PS,intra_train,46,↑,up,↑,0.539043299970217,True,15,-,-,-
Y2-S2-215M19,1,71,PS,intra_train,30,→,right,→,0.45821249997243285,True,15,-,-,-
Y2-S2-215M19,1,72,PS,intra_train,46,↑,up,↑,0.6324399999575689,True,15,-,-,-
Y2-S2-215M19,1,73,PS,exp,40,←,left,←,0.4285611999221146,True,10,0,0,0
Y2-S2-215M19,1,74,PS,exp,34,→,left,←,0.6049094001064077,False,10,-1,0,0
Y2-S2-215M19,1,75,PS,exp,33,←,right,→,0.5827602000208572,False,11,-1,0,0
Y2-S2-215M19,1,76,PS,exp,39,↑,left,←,1.2355913000646979,False,12,-1,0,0
Y2-S2-215M19,1,77,PS,exp,31,↓,up,↑,0.9672522000037134,False,13,-1,0,0
Y2-S2-215M19,1,78,PS,exp,35,→,right,→,0.4578173999907449,True,14,-1,0,0
Y2-S2-215M19,1,79,PS,exp,32,↓,right,→,1.4523671000497416,False,14,-1,0,0
Y2-S2-215M19,1,80,PS,exp,42,↑,up,↑,0.4809137999545783,True,15,-1,0,0
Y2-S2-215M19,1,81,PS,exp,27,→,right,→,0.5853418000042439,True,15,-1,0,0
Y2-S2-215M19,1,82,PS,exp,49,↑,up,↑,0.5614652000367641,True,15,1,1,1
Y2-S2-215M19,1,83,PS,exp,33,↓,down,↓,0.5798597999382764,True,14,1,0,1
Y2-S2-215M19,1,84,PS,exp,50,←,right,→,0.6455505000194535,False,14,-1,1,2
Y2-S2-215M19,1,85,PS,exp,47,↑,up,↑,0.568872999981977,True,15,-1,0,2
Y2-S2-215M19,1,86,PS,exp,37,↓,down,↓,0.5477941998979077,True,15,-1,0,2
Y2-S2-215M19,1,87,PS,exp,27,→,left,←,0.7583148999838158,False,15,-1,0,2
Y2-S2-215M19,1,88,PS,exp,31,↑,up,↑,0.5322085999650881,True,16,-1,0,2
Y2-S2-215M19,1,89,PS,exp,33,→,right,→,0.6452407999895513,True,16,-1,0,2
Y2-S2-215M19,1,90,PS,exp,40,↓,down,↓,0.7742416000692174,True,16,1,1,3
Y2-S2-215M19,1,91,PS,exp,48,→,right,→,0.5735835999948904,True,15,1,0,3
Y2-S2-215M19,1,92,PS,exp,28,↓,down,↓,0.5858149999985471,True,15,1,0,3
Y2-S2-215M19,1,93,PS,exp,26,→,right,→,0.6721160999732092,True,15,1,0,3
Y2-S2-215M19,1,94,PS,exp,39,↓,down,↓,0.5248644999228418,True,14,1,0,3
Y2-S2-215M19,1,95,PS,exp,46,←,left,←,0.5960760999005288,True,14,1,0,3
Y2-S2-215M19,1,96,PS,exp,33,↑,up,↑,0.8786622999468818,True,14,1,0,3
Y2-S2-215M19,1,97,PS,exp,45,←,left,←,0.5049233000027016,True,13,1,0,3
Y2-S2-215M19,1,98,PS,exp,38,→,right,→,0.5838227000785992,True,13,1,0,3
Y2-S2-215M19,1,99,PS,exp,25,↑,down,↓,0.837196399923414,False,13,-1,1,4
Y2-S2-215M19,1,100,PS,exp,27,↓,down,↓,0.8525992000941187,True,14,-1,0,4
Y2-S2-215M19,1,101,PS,exp,37,↑,up,↑,0.7578864999813959,True,14,-1,0,4
Y2-S2-215M19,1,102,PS,exp,45,←,left,←,0.41277669998817146,True,14,1,1,5
Y2-S2-215M19,1,103,PS,exp,48,→,right,→,0.4199945000000298,True,13,1,0,5
Y2-S2-215M19,1,104,PS,exp,50,←,left,←,0.46804329997394234,True,13,1,0,5
Y2-S2-215M19,1,105,PS,exp,45,→,right,→,0.41382430004887283,True,13,1,0,5
Y2-S2-215M19,1,106,PS,exp,37,↑,up,↑,0.5273545999079943,True,12,1,0,5
Y2-S2-215M19,1,107,PS,exp,48,→,right,→,0.8370176000753418,True,12,1,0,5
Y2-S2-215M19,1,108,PS,exp,33,←,left,←,0.5446699999738485,True,12,1,0,5
Y2-S2-215M19,1,109,PS,exp,48,→,right,→,0.4659371000016108,True,11,1,0,5
Y2-S2-215M19,1,110,PS,exp,43,←,left,←,0.5704826000146568,True,11,1,0,5
Y2-S2-215M19,1,111,PS,exp,47,↓,down,↓,0.5441101000178605,True,11,1,0,5
Y2-S2-215M19,1,112,PS,exp,27,←,right,→,0.5421875999309123,False,10,-1,1,6
Y2-S2-215M19,1,113,PS,exp,39,→,right,→,0.6738074000459164,True,11,-1,0,6
Y2-S2-215M19,1,114,PS,exp,35,↑,up,↑,0.5318727000849321,True,11,-1,0,6
Y2-S2-215M19,1,115,PS,exp,32,→,down,↓,1.0722905000438914,False,11,-1,0,6
Y2-S2-215M19,1,116,PS,exp,26,←,left,←,0.4620965999783948,True,12,-1,0,6
Y2-S2-215M19,1,117,PS,exp,28,→,right,→,0.4839442999800667,True,12,-1,0,6
Y2-S2-215M19,1,118,PS,exp,30,↓,down,↓,0.5778703999239951,True,12,1,1,7
Y2-S2-215M19,1,119,PS,exp,50,↑,up,↑,0.472758200019598,True,11,1,0,7
Y2-S2-215M19,1,120,PS,exp,48,→,right,→,0.5541436000494286,True,11,1,0,7
Y2-S2-215M19,1,121,PS,exp,45,↑,up,↑,0.4593358999118209,True,11,1,0,7
Y2-S2-215M19,1,122,PS,exp,47,↓,left,←,1.140521000023,False,10,-1,1,8
Y2-S2-215M19,1,123,PS,exp,26,→,right,→,0.5735838999971747,True,11,-1,0,8
Y2-S2-215M19,1,124,PS,exp,48,↓,down,↓,0.5371446999488398,True,11,-1,0,8
Y2-S2-215M19,1,125,PS,exp,41,→,right,→,0.45379529998172075,True,11,1,1,9
Y2-S2-215M19,1,126,PS,exp,35,↓,down,↓,0.5138221000088379,True,10,1,0,9
Y2-S2-215M19,1,127,PS,exp,35,→,right,→,0.5442697999533266,True,10,1,0,9
Y2-S2-215M19,1,128,PS,exp,29,↓,down,↓,0.48134469997603446,True,10,1,0,9
Y2-S2-215M19,1,129,PS,exp,36,↑,up,↑,0.6094828000059351,True,9,1,0,9
Y2-S2-215M19,1,130,PS,exp,38,←,left,←,0.5291011999361217,True,9,1,0,9
Y2-S2-215M19,1,131,PS,exp,40,→,right,→,0.9486848000669852,True,9,1,0,9
Y2-S2-215M19,1,132,PS,exp,35,←,left,←,0.4797662999480963,True,8,1,0,9
Y2-S2-215M19,1,133,PS,exp,41,↓,down,↓,0.6859280000207946,True,8,1,0,9
Y2-S2-215M19,1,134,PS,exp,44,→,right,→,0.5585518999723718,True,8,1,0,9
Y2-S2-215M19,1,135,PS,exp,32,←,left,←,0.5849958999315277,True,7,1,0,9
Y2-S2-215M19,1,136,PS,exp,45,↓,down,↓,0.5678186999866739,True,7,1,0,9
Y2-S2-215M19,1,137,PS,exp,48,←,left,←,0.5549094999441877,True,7,1,0,9
Y2-S2-215M19,1,138,PS,exp,31,↓,right,→,0.5979241000022739,False,6,-1,1,10
Y2-S2-215M19,1,139,PS,exp,41,↑,right,→,0.5722967999754474,False,7,-1,0,10
Y2-S2-215M19,1,140,PS,exp,41,←,left,←,0.4963600999908522,True,8,-1,0,10
Y2-S2-215M19,1,141,PS,exp,30,↓,down,↓,0.8158135999692604,True,8,-1,0,10
Y2-S2-215M19,1,142,PS,exp,30,←,right,→,0.60865189996548,False,8,-1,0,10
Y2-S2-215M19,1,143,PS,exp,32,↑,up,↑,0.5396770000224933,True,9,-1,0,10
Y2-S2-215M19,1,144,PS,exp,47,←,left,←,0.5750071000074968,True,9,-1,0,10
Y2-S2-215M19,1,145,PS,exp,49,↓,down,↓,0.9333995999768376,True,9,1,1,11
Y2-S2-215M19,1,146,PS,exp,43,↑,up,↑,0.5072259000735357,True,8,1,0,11
Y2-S2-215M19,1,147,PS,exp,31,↓,up,↑,0.7247001000214368,False,8,-1,1,12
Y2-S2-215M19,1,148,PS,exp,27,←,left,←,0.4959631999954581,True,9,-1,0,12
Y2-S2-215M19,1,149,PS,exp,48,↑,right,→,0.8649264000123367,False,9,-1,0,12
Y2-S2-215M19,1,150,PS,exp,47,←,left,←,0.47065889998339117,True,10,-1,0,12
Y2-S2-215M19,1,151,PS,exp,32,↓,up,↑,0.8667483000317588,False,10,-1,0,12
Y2-S2-215M19,1,152,PS,exp,27,↑,right,→,0.898370600072667,False,11,-1,0,12
Y2-S2-215M19,1,153,PS,exp,25,↓,down,↓,0.5830284999683499,True,12,-1,0,12
Y2-S2-215M19,1,154,PS,exp,39,↑,up,↑,0.6235357999103144,True,12,-1,0,12
Y2-S2-215M19,1,155,PS,exp,35,↓,down,↓,0.45761600008700043,True,12,1,1,13
Y2-S2-215M19,1,156,PS,exp,45,→,right,→,0.5329779000021517,True,11,1,0,13
Y2-S2-215M19,1,157,PS,exp,38,↑,up,↑,0.6189162000082433,True,11,1,0,13
Y2-S2-215M19,1,158,PS,exp,50,←,left,←,0.5288211000151932,True,11,1,0,13
Y2-S2-215M19,1,159,PS,exp,41,→,right,→,0.49647160002496094,True,10,1,0,13
Y2-S2-215M19,1,160,PS,exp,29,↑,up,↑,0.559007800067775,True,10,1,0,13
Y2-S2-215M19,1,161,PS,exp,41,←,down,↓,1.2119642000179738,False,10,-1,1,14
Y2-S2-215M19,1,162,PS,exp,35,→,right,→,0.5629509000573307,True,11,-1,0,14
Y2-S2-215M19,1,163,PS,exp,33,←,left,←,0.5509568999987096,True,11,-1,0,14
Y2-S2-215M19,1,164,PS,exp,34,↓,down,↓,1.7986657000146806,True,11,1,1,15
Y2-S2-215M19,1,165,PS,exp,30,→,right,→,0.4755186999682337,True,10,1,0,15
Y2-S2-215M19,1,166,PS,exp,43,←,left,←,0.46672000002581626,True,10,1,0,15
Y2-S2-215M19,1,167,PS,exp,39,↓,left,←,0.8724864000687376,False,10,-1,1,16
Y2-S2-215M19,2,168,AS,intra_train,31,↑,up,↑,0.7672547000693157,True,25,-,-,-
Y2-S2-215M19,2,169,AS,intra_train,42,↓,down,↓,0.742613899987191,True,25,-,-,-
Y2-S2-215M19,2,170,AS,intra_train,31,→,right,→,0.624948599957861,True,25,-,-,-
Y2-S2-215M19,2,171,AS,intra_train,25,↑,up,↑,0.5171589000383392,True,25,-,-,-
Y2-S2-215M19,2,172,AS,intra_train,45,→,right,→,0.45067299995571375,True,25,-,-,-
Y2-S2-215M19,2,173,AS,exp,43,↑,up,↑,0.682901999913156,True,17,0,0,0
Y2-S2-215M19,2,174,AS,exp,40,←,left,←,0.6519214999862015,True,17,0,0,0
Y2-S2-215M19,2,175,AS,exp,39,→,right,→,0.5245107000228018,True,17,1,0,0
Y2-S2-215M19,2,176,AS,exp,31,↑,up,↑,0.9093529999954626,True,16,1,0,0
Y2-S2-215M19,2,177,AS,exp,26,↓,down,↓,0.6321485000662506,True,16,1,0,0
Y2-S2-215M19,2,178,AS,exp,30,→,right,→,0.4844320999691263,True,16,1,0,0
Y2-S2-215M19,2,179,AS,exp,25,←,left,←,0.5956383000593632,True,15,1,0,0
Y2-S2-215M19,2,180,AS,exp,39,↓,down,↓,0.6667099000187591,True,15,1,0,0
Y2-S2-215M19,2,181,AS,exp,46,↑,up,↑,0.48233420005999506,True,15,1,0,0
Y2-S2-215M19,2,182,AS,exp,33,↓,down,↓,0.5684155999915674,True,14,1,0,0
Y2-S2-215M19,2,183,AS,exp,27,↑,up,↑,0.4735231000231579,True,14,1,0,0
Y2-S2-215M19,2,184,AS,exp,25,←,left,←,0.9139579000184312,True,14,1,0,0
Y2-S2-215M19,2,185,AS,exp,44,↓,up,↑,0.9184946999885142,False,13,-1,1,1
Y2-S2-215M19,2,186,AS,exp,41,←,left,←,0.5789050000021234,True,14,-1,0,1
Y2-S2-215M19,2,187,AS,exp,43,↑,up,↑,0.7211144999600947,True,14,-1,0,1
Y2-S2-215M19,2,188,AS,exp,32,→,right,→,0.5042503000004217,True,14,1,1,2
Y2-S2-215M19,2,189,AS,exp,47,←,left,←,0.4888234999962151,True,13,1,0,2
Y2-S2-215M19,2,190,AS,exp,27,→,left,←,0.6500158999115229,False,13,-1,1,3
Y2-S2-215M19,2,191,AS,exp,33,←,left,←,0.6292806999990717,True,14,-1,0,3
Y2-S2-215M19,2,192,AS,exp,32,→,right,→,0.5482366000069305,True,14,-1,0,3
Y2-S2-215M19,2,193,AS,exp,29,←,right,→,1.3492182999616489,False,14,-1,0,3
Y2-S2-215M19,2,194,AS,exp,26,→,right,→,0.5466684000566602,True,15,-1,0,3
Y2-S2-215M19,2,195,AS,exp,39,←,left,←,0.5312763000838459,True,15,-1,0,3
Y2-S2-215M19,2,196,AS,exp,44,↓,down,↓,0.6215318000176921,True,15,1,1,4
Y2-S2-215M19,2,197,AS,exp,36,→,right,→,0.6329769999720156,True,14,1,0,4
Y2-S2-215M19,2,198,AS,exp,45,←,left,←,0.5507010000292212,True,14,1,0,4
Y2-S2-215M19,2,199,AS,exp,36,→,right,→,0.451282300055027,True,14,1,0,4
Y2-S2-215M19,2,200,AS,exp,40,↓,down,↓,0.6670223999535665,True,13,1,0,4
Y2-S2-215M19,2,201,AS,exp,31,←,left,←,0.6670513999415562,True,13,1,0,4
Y2-S2-215M19,2,202,AS,exp,45,→,left,←,0.5821135999867693,False,13,-1,1,5
Y2-S2-215M19,2,203,AS,exp,48,↑,down,↓,0.6974019000772387,False,14,-1,0,5
Y2-S2-215M19,2,204,AS,exp,27,←,left,←,0.5984459000173956,True,15,-1,0,5
Y2-S2-215M19,2,205,AS,exp,30,↑,up,↑,0.6835605999222025,True,15,-1,0,5
Y2-S2-215M19,2,206,AS,exp,41,←,left,←,0.6797680000308901,True,15,1,1,6
Y2-S2-215M19,2,207,AS,exp,43,↑,up,↑,0.7264156000455841,True,14,1,0,6
Y2-S2-215M19,2,208,AS,exp,37,↓,down,↓,0.571986100054346,True,14,1,0,6
Y2-S2-215M19,2,209,AS,exp,39,←,left,←,0.6917259999318048,True,14,1,0,6
Y2-S2-215M19,2,210,AS,exp,48,↑,up,↑,1.247313099913299,True,13,1,0,6
Y2-S2-215M19,2,211,AS,exp,37,↓,down,↓,0.68895589991007,True,13,1,0,6
Y2-S2-215M19,2,212,AS,exp,49,→,right,→,0.4891920000081882,True,13,1,0,6
Y2-S2-215M19,2,213,AS,exp,36,↑,up,↑,1.6517901999177411,True,12,1,0,6
Y2-S2-215M19,2,214,AS,exp,29,←,left,←,0.4698551999172196,True,12,1,0,6
Y2-S2-215M19,2,215,AS,exp,41,↑,down,↓,0.8218581000110134,False,12,-1,1,7
Y2-S2-215M19,2,216,AS,exp,40,←,left,←,0.4852995000546798,True,13,-1,0,7
Y2-S2-215M19,2,217,AS,exp,41,→,up,↑,0.7614848000230268,False,13,-1,0,7
Y2-S2-215M19,2,218,AS,exp,49,↑,up,↑,0.841990299988538,True,14,-1,0,7
Y2-S2-215M19,2,219,AS,exp,47,↓,down,↓,0.887040700064972,True,14,-1,0,7
Y2-S2-215M19,2,220,AS,exp,45,→,right,→,0.5692870999919251,True,14,1,1,8
Y2-S2-215M19,2,221,AS,exp,49,↑,up,↑,0.7867454999359325,True,13,1,0,8
Y2-S2-215M19,2,222,AS,exp,40,←,left,←,0.5975908000255004,True,13,1,0,8
Y2-S2-215M19,2,223,AS,exp,42,↑,up,↑,0.5353035000152886,True,13,1,0,8
Y2-S2-215M19,2,224,AS,exp,46,↓,down,↓,0.6355510000139475,True,12,1,0,8
Y2-S2-215M19,2,225,AS,exp,48,←,right,→,0.9091464000521228,False,12,-1,1,9
Y2-S2-215M19,2,226,AS,exp,33,↓,down,↓,0.6993223999161273,True,13,-1,0,9
Y2-S2-215M19,2,227,AS,exp,39,↑,up,↑,0.5679395999759436,True,13,-1,0,9
Y2-S2-215M19,2,228,AS,exp,30,←,left,←,0.6256337000522763,True,13,1,1,10
Y2-S2-215M19,2,229,AS,exp,27,↓,up,↑,0.7094834999879822,False,12,-1,1,11
Y2-S2-215M19,2,230,AS,exp,36,↑,up,↑,0.6799823000328615,True,13,-1,0,11
Y2-S2-215M19,2,231,AS,exp,47,→,right,→,0.5581905000144616,True,13,-1,0,11
Y2-S2-215M19,2,232,AS,exp,47,←,left,←,0.5704854000359774,True,13,1,1,12
Y2-S2-215M19,2,233,AS,exp,47,→,right,→,0.4527643999317661,True,12,1,0,12
Y2-S2-215M19,2,234,AS,exp,39,↑,up,↑,0.5203011999838054,True,12,1,0,12
Y2-S2-215M19,2,235,AS,exp,27,←,left,←,0.5029312999686226,True,12,1,0,12
Y2-S2-215M19,2,236,AS,exp,40,↓,up,↑,1.069593199994415,False,11,-1,1,13
Y2-S2-215M19,2,237,AS,exp,45,←,right,→,0.4895245999796316,False,12,-1,0,13
Y2-S2-215M19,2,238,AS,exp,46,→,right,→,0.40012140001636,True,13,-1,0,13
Y2-S2-215M19,2,239,AS,exp,50,↑,up,↑,0.49765939998906106,True,13,-1,0,13
Y2-S2-215M19,2,240,AS,exp,44,→,right,→,0.6657284999964759,True,13,1,1,14
Y2-S2-215M19,2,241,AS,exp,41,↓,up,↑,0.9503336000489071,False,12,-1,1,15
Y2-S2-215M19,2,242,AS,exp,35,→,right,→,0.3936578999273479,True,13,-1,0,15
Y2-S2-215M19,2,243,AS,exp,33,←,left,←,0.6047163000330329,True,13,-1,0,15
Y2-S2-215M19,2,244,AS,exp,37,→,right,→,0.2508502999553457,True,13,1,1,16
Y2-S2-215M19,3,245,AS,intra_train,30,↑,up,↑,0.6190168999601156,True,25,-,-,-
Y2-S2-215M19,3,246,AS,intra_train,46,→,right,→,1.4959997000405565,True,25,-,-,-
Y2-S2-215M19,3,247,AS,intra_train,45,↓,down,↓,0.6017130000982434,True,25,-,-,-
Y2-S2-215M19,3,248,AS,intra_train,50,←,left,←,0.5506846999051049,True,25,-,-,-
Y2-S2-215M19,3,249,AS,intra_train,41,→,right,→,0.4340400999644771,True,25,-,-,-
Y2-S2-215M19,3,250,AS,exp,38,←,left,←,0.5463121999055147,True,17,0,0,0
Y2-S2-215M19,3,251,AS,exp,25,→,right,→,0.5679035999346524,True,17,0,0,0
Y2-S2-215M19,3,252,AS,exp,31,↑,up,↑,0.8851579000474885,True,17,1,0,0
Y2-S2-215M19,3,253,AS,exp,34,→,left,←,0.5438205999089405,False,16,-1,1,1
Y2-S2-215M19,3,254,AS,exp,30,↓,down,↓,0.8369595999829471,True,17,-1,0,1
Y2-S2-215M19,3,255,AS,exp,31,↑,up,↑,0.5313343999441713,True,17,-1,0,1
Y2-S2-215M19,3,256,AS,exp,27,→,right,→,0.472203699988313,True,17,1,1,2
Y2-S2-215M19,3,257,AS,exp,49,↑,up,↑,0.48746059997938573,True,16,1,0,2
Y2-S2-215M19,3,258,AS,exp,33,→,right,→,0.5847916998900473,True,16,1,0,2
Y2-S2-215M19,3,259,AS,exp,37,←,right,→,0.4529257999965921,False,16,-1,1,3
Y2-S2-215M19,3,260,AS,exp,43,↑,up,↑,0.5139060000656173,True,17,-1,0,3
Y2-S2-215M19,3,261,AS,exp,25,↓,up,↑,0.4667007999960333,False,17,-1,0,3
Y2-S2-215M19,3,262,AS,exp,42,→,right,→,0.8546975000062957,True,18,-1,0,3
Y2-S2-215M19,3,263,AS,exp,40,↑,up,↑,0.4968391000293195,True,18,-1,0,3
Y2-S2-215M19,3,264,AS,exp,48,←,left,←,0.5915876999497414,True,18,1,1,4
Y2-S2-215M19,3,265,AS,exp,47,→,right,→,0.5033286000834778,True,17,1,0,4
Y2-S2-215M19,3,266,AS,exp,41,↓,down,↓,0.6648979999590665,True,17,1,0,4
Y2-S2-215M19,3,267,AS,exp,47,←,left,←,0.9520630999468267,True,17,1,0,4
Y2-S2-215M19,3,268,AS,exp,38,↑,up,↑,0.7920160000212491,True,16,1,0,4
Y2-S2-215M19,3,269,AS,exp,42,→,right,→,0.5555884999921545,True,16,1,0,4
Y2-S2-215M19,3,270,AS,exp,41,↑,up,↑,0.6136648000683635,True,16,1,0,4
Y2-S2-215M19,3,271,AS,exp,36,←,up,↑,1.013443199917674,False,15,-1,1,5
Y2-S2-215M19,3,272,AS,exp,33,↑,up,↑,0.7998596000252292,True,16,-1,0,5
Y2-S2-215M19,3,273,AS,exp,37,←,up,↑,0.655308699933812,False,16,-1,0,5
Y2-S2-215M19,3,274,AS,exp,40,↓,down,↓,0.8136782000074163,True,17,-1,0,5
Y2-S2-215M19,3,275,AS,exp,32,←,left,←,0.8028868999099359,True,17,-1,0,5
Y2-S2-215M19,3,276,AS,exp,38,↓,down,↓,0.5671581000788137,True,17,1,1,6
Y2-S2-215M19,3,277,AS,exp,47,↑,up,↑,0.6130586999934167,True,16,1,0,6
Y2-S2-215M19,3,278,AS,exp,44,→,right,→,0.8618336000945419,True,16,1,0,6
Y2-S2-215M19,3,279,AS,exp,46,↓,down,↓,0.6535283999983221,True,16,1,0,6
Y2-S2-215M19,3,280,AS,exp,26,↑,up,↑,0.8957707000663504,True,15,1,0,6
Y2-S2-215M19,3,281,AS,exp,37,↓,up,↑,0.9981481999857351,False,15,-1,1,7
Y2-S2-215M19,3,282,AS,exp,33,↑,up,↑,0.576609899988398,True,16,-1,0,7
Y2-S2-215M19,3,283,AS,exp,30,←,left,←,1.4217937000794336,True,16,-1,0,7
Y2-S2-215M19,3,284,AS,exp,42,↑,up,↑,0.4983518000226468,True,16,1,1,8
Y2-S2-215M19,3,285,AS,exp,33,↓,down,↓,0.5886504000518471,True,15,1,0,8
Y2-S2-215M19,3,286,AS,exp,42,↑,up,↑,0.5567214000038803,True,15,1,0,8
Y2-S2-215M19,3,287,AS,exp,26,↓,up,↑,1.2823796999873593,False,15,-1,1,9
Y2-S2-215M19,3,288,AS,exp,41,←,left,←,0.7887145000277087,True,16,-1,0,9
Y2-S2-215M19,3,289,AS,exp,30,↓,down,↓,0.7424175000051036,True,16,-1,0,9
Y2-S2-215M19,3,290,AS,exp,27,←,left,←,0.6523229000158608,True,16,1,1,10
Y2-S2-215M19,3,291,AS,exp,37,↑,up,↑,0.578641299973242,True,15,1,0,10
Y2-S2-215M19,3,292,AS,exp,48,↓,down,↓,0.6499458999605849,True,15,1,0,10
Y2-S2-215M19,3,293,AS,exp,49,↑,up,↑,0.6640419999603182,True,15,1,0,10
Y2-S2-215M19,3,294,AS,exp,25,→,right,→,0.8256716000614688,True,14,1,0,10
Y2-S2-215M19,3,295,AS,exp,37,↑,up,↑,0.5692121000029147,True,14,1,0,10
Y2-S2-215M19,3,296,AS,exp,27,←,left,←,0.5180209000827745,True,14,1,0,10
Y2-S2-215M19,3,297,AS,exp,38,↑,right,→,1.1080631000222638,False,13,-1,1,11
Y2-S2-215M19,3,298,AS,exp,32,↓,down,↓,0.6268690000288188,True,14,-1,0,11
Y2-S2-215M19,3,299,AS,exp,31,→,right,→,0.5474199999589473,True,14,-1,0,11
Y2-S2-215M19,3,300,AS,exp,31,←,left,←,0.9089364999672398,True,14,1,1,12
Y2-S2-215M19,3,301,AS,exp,40,↑,right,→,0.8000220999820158,False,13,-1,1,13
Y2-S2-215M19,3,302,AS,exp,30,→,right,→,0.5762569000944495,True,14,-1,0,13
Y2-S2-215M19,3,303,AS,exp,36,←,right,→,0.05112920003011823,False,14,-1,0,13
Y2-S2-215M19,3,304,AS,exp,31,→,right,→,0.4563780000898987,True,15,-1,0,13
Y2-S2-215M19,3,305,AS,exp,25,↑,up,↑,0.483649899950251,True,15,-1,0,13
Y2-S2-215M19,3,306,AS,exp,30,↓,down,↓,0.8466922000516206,True,15,1,1,14
Y2-S2-215M19,3,307,AS,exp,36,→,up,↑,0.6624084999784827,False,14,-1,1,15
Y2-S2-215M19,3,308,AS,exp,50,↑,no_key,no_letter,-1.0,False,15,-1,0,15
Y2-S2-215M19,3,309,AS,exp,44,←,up,↑,0.2837368999607861,False,16,-1,0,15
Y2-S2-215M19,3,310,AS,exp,46,↓,down,↓,0.5683433000231162,True,17,-1,0,15
Y2-S2-215M19,3,311,AS,exp,35,←,left,←,0.5842850999906659,True,17,-1,0,15
Y2-S2-215M19,3,312,AS,exp,45,↑,up,↑,0.5105789999943227,True,17,1,1,16
Y2-S2-215M19,4,313,PS,intra_train,39,→,up,↑,0.9901922000572085,False,15,-,-,-
Y2-S2-215M19,4,314,PS,intra_train,30,←,left,←,0.5150220999494195,True,15,-,-,-
Y2-S2-215M19,4,315,PS,intra_train,42,→,right,→,0.41920710005797446,True,15,-,-,-
Y2-S2-215M19,4,316,PS,intra_train,38,↓,left,←,0.5023791999556124,False,15,-,-,-
Y2-S2-215M19,4,317,PS,intra_train,50,→,right,→,0.49187170004006475,True,15,-,-,-
Y2-S2-215M19,4,318,PS,exp,46,↓,down,↓,0.5921625000191852,True,10,0,0,0
Y2-S2-215M19,4,319,PS,exp,26,→,right,→,0.5123705000150949,True,10,0,0,0
Y2-S2-215M19,4,320,PS,exp,48,↑,up,↑,0.45027699996717274,True,10,1,0,0
Y2-S2-215M19,4,321,PS,exp,25,←,right,→,0.805118800024502,False,9,-1,1,1
Y2-S2-215M19,4,322,PS,exp,49,↓,right,→,1.3799433000385761,False,10,-1,0,1
Y2-S2-215M19,4,323,PS,exp,27,←,right,→,0.6475274000549689,False,11,-1,0,1
Y2-S2-215M19,4,324,PS,exp,41,→,right,→,0.4127985999220982,True,12,-1,0,1
Y2-S2-215M19,4,325,PS,exp,26,←,left,←,0.47329510003328323,True,12,-1,0,1
Y2-S2-215M19,4,326,PS,exp,48,↓,down,↓,0.9744445999385789,True,12,1,1,2
Y2-S2-215M19,4,327,PS,exp,32,→,right,→,0.6248384000500664,True,11,1,0,2
Y2-S2-215M19,4,328,PS,exp,33,←,left,←,0.3901382000185549,True,11,1,0,2
Y2-S2-215M19,4,329,PS,exp,31,↓,down,↓,0.6852789999684319,True,11,1,0,2
Y2-S2-215M19,4,330,PS,exp,30,↑,up,↑,0.6020424999296665,True,10,1,0,2
Y2-S2-215M19,4,331,PS,exp,31,↓,down,↓,0.932913800003007,True,10,1,0,2
Y2-S2-215M19,4,332,PS,exp,25,→,right,→,0.6218649999937043,True,10,1,0,2
Y2-S2-215M19,4,333,PS,exp,29,↑,up,↑,0.815765899955295,True,9,1,0,2
Y2-S2-215M19,4,334,PS,exp,34,→,right,→,0.4006677999859676,True,9,1,0,2
Y2-S2-215M19,4,335,PS,exp,29,↑,up,↑,0.7569083999842405,True,9,1,0,2
Y2-S2-215M19,4,336,PS,exp,46,→,right,→,0.4246188000543043,True,8,1,0,2
Y2-S2-215M19,4,337,PS,exp,42,↑,right,→,0.5020811000140384,False,8,-1,1,3
Y2-S2-215M19,4,338,PS,exp,27,↓,down,↓,0.5565960999811068,True,9,-1,0,3
Y2-S2-215M19,4,339,PS,exp,40,→,up,↑,0.6615874998969957,False,9,-1,0,3
Y2-S2-215M19,4,340,PS,exp,26,↑,up,↑,0.4853277000365779,True,10,-1,0,3
Y2-S2-215M19,4,341,PS,exp,36,↓,down,↓,0.6137726999586448,True,10,-1,0,3
Y2-S2-215M19,4,342,PS,exp,49,↑,up,↑,0.5566924000158906,True,10,1,1,4
Y2-S2-215M19,4,343,PS,exp,48,→,right,→,0.4276061999844387,True,9,1,0,4
Y2-S2-215M19,4,344,PS,exp,30,←,right,→,0.47764689999166876,False,9,-1,1,5
Y2-S2-215M19,4,345,PS,exp,37,↓,down,↓,0.5394188999198377,True,10,-1,0,5
Y2-S2-215M19,4,346,PS,exp,43,←,up,↑,0.821472299983725,False,10,-1,0,5
Y2-S2-215M19,4,347,PS,exp,43,↑,up,↑,0.44423120003193617,True,11,-1,0,5
Y2-S2-215M19,4,348,PS,exp,38,↓,down,↓,0.5777868999866769,True,11,-1,0,5
Y2-S2-215M19,4,349,PS,exp,41,→,right,→,0.504134300048463,True,11,1,1,6
Y2-S2-215M19,4,350,PS,exp,30,↓,down,↓,0.4860888998955488,True,10,1,0,6
Y2-S2-215M19,4,351,PS,exp,26,→,right,→,0.8626982000423595,True,10,1,0,6
Y2-S2-215M19,4,352,PS,exp,48,↓,up,↑,0.46964330004993826,False,10,-1,1,7
Y2-S2-215M19,4,353,PS,exp,46,→,right,→,0.5013339000288397,True,11,-1,0,7
Y2-S2-215M19,4,354,PS,exp,30,↑,up,↑,0.5225226999027655,True,11,-1,0,7
Y2-S2-215M19,4,355,PS,exp,38,↓,down,↓,0.5875025999266654,True,11,1,1,8
Y2-S2-215M19,4,356,PS,exp,43,↑,up,↑,0.7955751999979839,True,10,1,0,8
Y2-S2-215M19,4,357,PS,exp,43,→,right,→,0.5595441999612376,True,10,1,0,8
Y2-S2-215M19,4,358,PS,exp,47,←,right,→,0.500564599991776,False,10,-1,1,9
Y2-S2-215M19,4,359,PS,exp,36,↑,up,↑,0.455088600050658,True,11,-1,0,9
Y2-S2-215M19,4,360,PS,exp,46,←,up,↑,0.8148975999793038,False,11,-1,0,9
Y2-S2-215M19,4,361,PS,exp,43,↑,up,↑,0.43531910004094243,True,12,-1,0,9
Y2-S2-215M19,4,362,PS,exp,38,↓,down,↓,0.6690385000547394,True,12,-1,0,9
Y2-S2-215M19,4,363,PS,exp,32,←,right,→,0.7146647999761626,False,12,-1,0,9
Y2-S2-215M19,4,364,PS,exp,25,→,right,→,1.2800965999485925,True,13,-1,0,9
Y2-S2-215M19,4,365,PS,exp,34,←,right,→,0.16809289995580912,False,13,-1,0,9
Y2-S2-215M19,4,366,PS,exp,33,→,right,→,0.6451651999959722,True,14,-1,0,9
Y2-S2-215M19,4,367,PS,exp,50,↑,up,↑,0.5299407000420615,True,14,-1,0,9
Y2-S2-215M19,4,368,PS,exp,48,→,right,→,1.5720704999985173,True,14,1,1,10
Y2-S2-215M19,4,369,PS,exp,39,↓,down,↓,0.5508770999731496,True,13,1,0,10
Y2-S2-215M19,4,370,PS,exp,28,↑,up,↑,0.4588855999754742,True,13,1,0,10
Y2-S2-215M19,4,371,PS,exp,26,→,right,→,0.4949638000689447,True,13,1,0,10
Y2-S2-215M19,4,372,PS,exp,45,↓,down,↓,0.5573782999999821,True,12,1,0,10
Y2-S2-215M19,4,373,PS,exp,47,→,right,→,0.42295879998710006,True,12,1,0,10
Y2-S2-215M19,4,374,PS,exp,30,↓,right,→,0.526103499927558,False,12,-1,1,11
Y2-S2-215M19,4,375,PS,exp,38,←,left,←,0.43006120005156845,True,13,-1,0,11
Y2-S2-215M19,4,376,PS,exp,47,→,left,←,1.0988419000059366,False,13,-1,0,11
Y2-S2-215M19,4,377,PS,exp,50,↓,down,↓,0.6372719000792131,True,14,-1,0,11
Y2-S2-215M19,4,378,PS,exp,34,→,right,→,0.6724485999438912,True,14,-1,0,11
Y2-S2-215M19,4,379,PS,exp,33,↓,down,↓,0.5560134999686852,True,14,1,1,12
Y2-S2-215M19,4,380,PS,exp,45,↑,up,↑,0.45299060002435,True,13,1,0,12
Y2-S2-215M19,4,381,PS,exp,47,→,right,→,0.504438400035724,True,13,1,0,12
Y2-S2-215M19,4,382,PS,exp,33,↑,up,↑,0.5740373000735417,True,13,1,0,12
Y2-S2-215M19,4,383,PS,exp,28,↓,down,↓,0.549700399977155,True,12,1,0,12
Y2-S2-215M19,4,384,PS,exp,26,↑,up,↑,1.1739944000728428,True,12,1,0,12
Y2-S2-215M19,4,385,PS,exp,49,↓,down,↓,0.5093792999396101,True,12,1,0,12
Y2-S2-215M19,4,386,PS,exp,29,←,left,←,0.5157560999505222,True,11,1,0,12
Y2-S2-215M19,4,387,PS,exp,50,↑,up,↑,0.5495210000080988,True,11,1,0,12
Y2-S2-215M19,4,388,PS,exp,46,↓,down,↓,0.5514609001111239,True,11,1,0,12
Y2-S2-215M19,4,389,PS,exp,31,↑,up,↑,0.4921826000791043,True,10,1,0,12
Y2-S2-215M19,4,390,PS,exp,38,←,left,←,0.5362972998991609,True,10,1,0,12
Y2-S2-215M19,4,391,PS,exp,43,→,right,→,0.5286619000835344,True,10,1,0,12
Y2-S2-215M19,4,392,PS,exp,45,←,left,←,0.5560917999828234,True,9,1,0,12
Y2-S2-215M19,4,393,PS,exp,46,↓,down,↓,0.5741467999760062,True,9,1,0,12
Y2-S2-215M19,4,394,PS,exp,26,↑,up,↑,0.5036071999929845,True,9,1,0,12
Y2-S2-215M19,4,395,PS,exp,49,→,up,↑,0.6763747000368312,False,8,-1,1,13
Y2-S2-215M19,4,396,PS,exp,34,←,right,→,0.5681308000348508,False,9,-1,0,13
Y2-S2-215M19,4,397,PS,exp,50,↓,up,↑,1.7426388999447227,False,10,-1,0,13
Y2-S2-215M19,4,398,PS,exp,48,←,right,→,0.5907460999442264,False,11,-1,0,13
Y2-S2-215M19,4,399,PS,exp,42,↑,up,↑,0.4739508000202477,True,12,-1,0,13
Y2-S2-215M19,4,400,PS,exp,47,←,left,←,0.5291172000579536,True,12,-1,0,13
Y2-S2-215M19,4,401,PS,exp,48,↓,down,↓,0.5939218000276014,True,12,1,1,14
Y2-S2-215M19,4,402,PS,exp,39,→,right,→,0.3876384000759572,True,11,1,0,14
Y2-S2-215M19,4,403,PS,exp,31,↑,up,↑,0.5047417000168934,True,11,1,0,14
Y2-S2-215M19,4,404,PS,exp,33,→,left,←,0.4970774999819696,False,11,-1,1,15
Y2-S2-215M19,4,405,PS,exp,33,←,left,←,0.4530965000158176,True,12,-1,0,15
Y2-S2-215M19,4,406,PS,exp,39,→,right,→,0.47321279998868704,True,12,-1,0,15
Y2-S2-215M19,4,407,PS,exp,43,←,left,←,0.46420200006105006,True,12,1,1,16
Y2-S2-215M19,5,408,PS,intra_train,27,↑,up,↑,0.5082844999851659,True,15,-,-,-
Y2-S2-215M19,5,409,PS,intra_train,50,→,right,→,0.4922269000671804,True,15,-,-,-
Y2-S2-215M19,5,410,PS,intra_train,50,↑,up,↑,0.4981963000027463,True,15,-,-,-
Y2-S2-215M19,5,411,PS,intra_train,43,↓,down,↓,0.5342911999905482,True,15,-,-,-
Y2-S2-215M19,5,412,PS,intra_train,47,←,left,←,0.4530938999960199,True,15,-,-,-
Y2-S2-215M19,5,413,PS,exp,41,→,up,↑,0.5577495000325143,False,10,-1,0,0
Y2-S2-215M19,5,414,PS,exp,46,←,left,←,0.4175766999833286,True,11,-1,0,0
Y2-S2-215M19,5,415,PS,exp,26,→,left,←,0.4634040000382811,False,11,-1,0,0
Y2-S2-215M19,5,416,PS,exp,29,↑,up,↑,0.438249500002712,True,12,-1,0,0
Y2-S2-215M19,5,417,PS,exp,26,↓,down,↓,0.5199447000632063,True,12,-1,0,0
Y2-S2-215M19,5,418,PS,exp,38,↑,up,↑,0.4398498999653384,True,12,1,1,1
Y2-S2-215M19,5,419,PS,exp,29,←,right,→,0.6087359000230208,False,11,-1,1,2
Y2-S2-215M19,5,420,PS,exp,46,↓,down,↓,0.4587012999691069,True,12,-1,0,2
Y2-S2-215M19,5,421,PS,exp,33,→,right,→,0.47366810007952154,True,12,-1,0,2
Y2-S2-215M19,5,422,PS,exp,32,←,left,←,0.4249316999921575,True,12,1,1,3
Y2-S2-215M19,5,423,PS,exp,33,→,right,→,0.4303148000035435,True,11,1,0,3
Y2-S2-215M19,5,424,PS,exp,42,↑,up,↑,0.7535957000218332,True,11,1,0,3
Y2-S2-215M19,5,425,PS,exp,38,→,down,↓,0.8455184999620542,False,11,-1,1,4
Y2-S2-215M19,5,426,PS,exp,43,↓,up,↑,0.8385332999750972,False,12,-1,0,4
Y2-S2-215M19,5,427,PS,exp,30,↑,down,↓,0.5761282999301329,False,13,-1,0,4
Y2-S2-215M19,5,428,PS,exp,49,→,right,→,0.615514500066638,True,14,-1,0,4
Y2-S2-215M19,5,429,PS,exp,49,↓,down,↓,0.4850006999913603,True,14,-1,0,4
Y2-S2-215M19,5,430,PS,exp,39,←,left,←,0.5452419000212103,True,14,1,1,5
Y2-S2-215M19,5,431,PS,exp,33,↓,down,↓,0.5553184000309557,True,13,1,0,5
Y2-S2-215M19,5,432,PS,exp,30,←,left,←,0.49941329995635897,True,13,1,0,5
Y2-S2-215M19,5,433,PS,exp,30,↑,left,←,0.8015861000167206,False,13,-1,1,6
Y2-S2-215M19,5,434,PS,exp,35,↓,down,↓,0.6396619000006467,True,14,-1,0,6
Y2-S2-215M19,5,435,PS,exp,26,↑,up,↑,0.46755200007464737,True,14,-1,0,6
Y2-S2-215M19,5,436,PS,exp,30,→,right,→,0.6038817999651656,True,14,1,1,7
Y2-S2-215M19,5,437,PS,exp,33,↑,up,↑,0.7994597000069916,True,13,1,0,7
Y2-S2-215M19,5,438,PS,exp,25,→,left,←,0.5484819000121206,False,13,-1,1,8
Y2-S2-215M19,5,439,PS,exp,40,←,left,←,0.48761549999471754,True,14,-1,0,8
Y2-S2-215M19,5,440,PS,exp,25,↓,down,↓,1.0027190999826416,True,14,-1,0,8
Y2-S2-215M19,5,441,PS,exp,49,↑,up,↑,0.5530404000310227,True,14,1,1,9
Y2-S2-215M19,5,442,PS,exp,48,←,right,→,0.72144410002511,False,13,-1,1,10
Y2-S2-215M19,5,443,PS,exp,44,↓,down,↓,0.5271093000192195,True,14,-1,0,10
Y2-S2-215M19,5,444,PS,exp,42,→,right,→,0.6538087000371888,True,14,-1,0,10
Y2-S2-215M19,5,445,PS,exp,32,↓,down,↓,0.5409984999569133,True,14,1,1,11
Y2-S2-215M19,5,446,PS,exp,32,↑,up,↑,0.535757299978286,True,13,1,0,11
Y2-S2-215M19,5,447,PS,exp,31,←,right,→,1.0114312999648973,False,13,-1,1,12
Y2-S2-215M19,5,448,PS,exp,26,↑,up,↑,0.5436553000472486,True,14,-1,0,12
Y2-S2-215M19,5,449,PS,exp,48,↓,down,↓,0.5302949000615627,True,14,-1,0,12
Y2-S2-215M19,5,450,PS,exp,40,→,right,→,0.42024199990555644,True,14,1,1,13
Y2-S2-215M19,5,451,PS,exp,36,←,left,←,0.5234689000062644,True,13,1,0,13
Y2-S2-215M19,5,452,PS,exp,27,→,left,←,1.2209849000209942,False,13,-1,1,14
Y2-S2-215M19,5,453,PS,exp,41,↓,down,↓,0.6651213999139145,True,14,-1,0,14
Y2-S2-215M19,5,454,PS,exp,46,→,right,→,0.4989344000350684,True,14,-1,0,14
Y2-S2-215M19,5,455,PS,exp,50,←,down,↓,1.163330900017172,False,14,-1,0,14
Y2-S2-215M19,5,456,PS,exp,38,↑,up,↑,0.7153359999647364,True,15,-1,0,14
Y2-S2-215M19,5,457,PS,exp,31,↓,down,↓,0.450317700044252,True,15,-1,0,14
Y2-S2-215M19,5,458,PS,exp,31,←,right,→,0.6172790999989957,False,15,-1,0,14
Y2-S2-215M19,5,459,PS,exp,42,→,right,→,0.5403953000204638,True,16,-1,0,14
Y2-S2-215M19,5,460,PS,exp,37,↓,down,↓,0.5582364000147209,True,16,-1,0,14
Y2-S2-215M19,5,461,PS,exp,35,←,left,←,0.5629177000373602,True,16,1,1,15
Y2-S2-215M19,5,462,PS,exp,49,↑,up,↑,0.6910978000378236,True,15,1,0,15
Y2-S2-215M19,5,463,PS,exp,26,↓,down,↓,0.9826138999778777,True,15,1,0,15
Y2-S2-215M19,5,464,PS,exp,48,←,left,←,1.110288199968636,True,15,1,0,15
Y2-S2-215M19,5,465,PS,exp,48,→,right,→,0.5529914000071585,True,14,1,0,15
Y2-S2-215M19,5,466,PS,exp,26,←,left,←,0.6492961999028921,True,14,1,0,15
Y2-S2-215M19,5,467,PS,exp,43,↓,down,↓,0.7642491000005975,True,14,1,0,15
Y2-S2-215M19,5,468,PS,exp,44,↑,right,→,0.8792697000317276,False,13,-1,1,16
Y2-S2-215M19,6,469,AS,intra_train,43,←,right,→,0.4838495999574661,False,25,-,-,-
Y2-S2-215M19,6,470,AS,intra_train,46,↑,up,↑,0.48374070005957037,True,25,-,-,-
Y2-S2-215M19,6,471,AS,intra_train,47,↓,down,↓,0.586355600040406,True,25,-,-,-
Y2-S2-215M19,6,472,AS,intra_train,39,↑,up,↑,0.6913773000705987,True,25,-,-,-
Y2-S2-215M19,6,473,AS,intra_train,45,←,right,→,0.45049800002016127,False,25,-,-,-
Y2-S2-215M19,6,474,AS,exp,45,→,up,↑,1.5033657000167295,False,17,-1,0,0
Y2-S2-215M19,6,475,AS,exp,30,↑,up,↑,0.6921492000110447,True,18,-1,0,0
Y2-S2-215M19,6,476,AS,exp,38,→,right,→,0.4860945000546053,True,18,-1,0,0
Y2-S2-215M19,6,477,AS,exp,37,↑,up,↑,0.4802551999455318,True,18,1,1,1
Y2-S2-215M19,6,478,AS,exp,36,↓,up,↑,0.8003836000571027,False,17,-1,1,2
Y2-S2-215M19,6,479,AS,exp,46,↑,up,↑,0.5960689000785351,True,18,-1,0,2
Y2-S2-215M19,6,480,AS,exp,35,↓,down,↓,0.6744712999789044,True,18,-1,0,2
Y2-S2-215M19,6,481,AS,exp,46,←,left,←,0.6735788999358192,True,18,1,1,3
Y2-S2-215M19,6,482,AS,exp,32,↓,down,↓,0.6217805999331176,True,17,1,0,3
Y2-S2-215M19,6,483,AS,exp,47,→,right,→,0.7445075999712572,True,17,1,0,3
Y2-S2-215M19,6,484,AS,exp,41,←,right,→,0.9524014999624342,False,17,-1,1,4
Y2-S2-215M19,6,485,AS,exp,49,↓,up,↑,1.1255816000048071,False,18,-1,0,4
Y2-S2-215M19,6,486,AS,exp,32,→,right,→,0.5824774999637157,True,19,-1,0,4
Y2-S2-215M19,6,487,AS,exp,47,←,right,→,1.0236094000283629,False,19,-1,0,4
Y2-S2-215M19,6,488,AS,exp,27,↑,up,↑,0.7472529000369832,True,20,-1,0,4
Y2-S2-215M19,6,489,AS,exp,48,↓,down,↓,0.6858683000318706,True,20,-1,0,4
Y2-S2-215M19,6,490,AS,exp,50,↑,up,↑,0.8162582999793813,True,20,1,1,5
Y2-S2-215M19,6,491,AS,exp,42,↓,down,↓,0.6472276999847963,True,19,1,0,5
Y2-S2-215M19,6,492,AS,exp,27,←,left,←,0.5442841000622138,True,19,1,0,5
Y2-S2-215M19,6,493,AS,exp,32,→,right,→,0.6182912000222132,True,19,1,0,5
Y2-S2-215M19,6,494,AS,exp,50,←,left,←,0.7661204999312758,True,18,1,0,5
Y2-S2-215M19,6,495,AS,exp,33,→,right,→,0.500173700042069,True,18,1,0,5
Y2-S2-215M19,6,496,AS,exp,38,↑,up,↑,0.7454101999755949,True,18,1,0,5
Y2-S2-215M19,6,497,AS,exp,36,←,left,←,0.5618501999415457,True,17,1,0,5
Y2-S2-215M19,6,498,AS,exp,28,→,up,↑,0.7795444000512362,False,17,-1,1,6
Y2-S2-215M19,6,499,AS,exp,34,↓,down,↓,0.659843200002797,True,18,-1,0,6
Y2-S2-215M19,6,500,AS,exp,32,←,right,→,0.8989178999327123,False,18,-1,0,6
Y2-S2-215M19,6,501,AS,exp,29,↓,down,↓,0.9208917999640107,True,19,-1,0,6
Y2-S2-215M19,6,502,AS,exp,44,→,right,→,0.4339599000522867,True,19,-1,0,6
Y2-S2-215M19,6,503,AS,exp,28,↓,down,↓,0.719928199891001,True,19,1,1,7
Y2-S2-215M19,6,504,AS,exp,47,↑,up,↑,0.5217214999720454,True,18,1,0,7
Y2-S2-215M19,6,505,AS,exp,34,→,right,→,0.5937504000030458,True,18,1,0,7
Y2-S2-215M19,6,506,AS,exp,32,↓,down,↓,0.7805111999623477,True,18,1,0,7
Y2-S2-215M19,6,507,AS,exp,38,↑,no_key,no_letter,-1.0,False,17,-1,1,8
Y2-S2-215M19,6,508,AS,exp,33,←,left,←,0.7832553999032825,True,18,-1,0,8
Y2-S2-215M19,6,509,AS,exp,40,↑,up,↑,0.5691926999716088,True,18,-1,0,8
Y2-S2-215M19,6,510,AS,exp,42,↓,no_key,no_letter,-1.0,False,18,-1,0,8
Y2-S2-215M19,6,511,AS,exp,40,←,left,←,0.6489084999775514,True,19,-1,0,8
Y2-S2-215M19,6,512,AS,exp,41,↓,down,↓,0.5814623000333086,True,19,-1,0,8
Y2-S2-215M19,6,513,AS,exp,47,→,right,→,0.43381389998830855,True,19,1,1,9
Y2-S2-215M19,6,514,AS,exp,47,←,left,←,0.4337733000284061,True,18,1,0,9
Y2-S2-215M19,6,515,AS,exp,25,↑,up,↑,0.6852567000314593,True,18,1,0,9
Y2-S2-215M19,6,516,AS,exp,43,↓,down,↓,0.757489399984479,True,18,1,0,9
Y2-S2-215M19,6,517,AS,exp,28,←,left,←,0.6571766000706702,True,17,1,0,9
Y2-S2-215M19,6,518,AS,exp,32,→,right,→,0.46164280001539737,True,17,1,0,9
Y2-S2-215M19,6,519,AS,exp,30,←,left,←,0.5353412999538705,True,17,1,0,9
Y2-S2-215M19,6,520,AS,exp,43,↑,up,↑,0.8002957999706268,True,16,1,0,9
Y2-S2-215M19,6,521,AS,exp,46,→,right,→,0.44747020001523197,True,16,1,0,9
Y2-S2-215M19,6,522,AS,exp,29,↓,down,↓,0.9060819000005722,True,16,1,0,9
Y2-S2-215M19,6,523,AS,exp,26,↑,up,↑,0.7585684000514448,True,15,1,0,9
Y2-S2-215M19,6,524,AS,exp,35,→,left,←,0.5622064999770373,False,15,-1,1,10
Y2-S2-215M19,6,525,AS,exp,40,←,up,↑,0.8867670999607071,False,16,-1,0,10
Y2-S2-215M19,6,526,AS,exp,27,↑,up,↑,0.8015480999602005,True,17,-1,0,10
Y2-S2-215M19,6,527,AS,exp,26,→,right,→,0.6558082998963073,True,17,-1,0,10
Y2-S2-215M19,6,528,AS,exp,28,↑,up,↑,0.4533522999845445,True,17,1,1,11
Y2-S2-215M19,6,529,AS,exp,28,→,right,→,0.5478708000155166,True,16,1,0,11
Y2-S2-215M19,6,530,AS,exp,34,←,left,←,0.5773910999996588,True,16,1,0,11
Y2-S2-215M19,6,531,AS,exp,28,↓,down,↓,0.6602301000384614,True,16,1,0,11
Y2-S2-215M19,6,532,AS,exp,34,→,right,→,0.5433331000385806,True,15,1,0,11
Y2-S2-215M19,6,533,AS,exp,32,↑,up,↑,0.47580800007563084,True,15,1,0,11
Y2-S2-215M19,6,534,AS,exp,44,↓,up,↑,0.8121648000087589,False,15,-1,1,12
Y2-S2-215M19,6,535,AS,exp,36,↑,up,↑,0.5263962000608444,True,16,-1,0,12
Y2-S2-215M19,6,536,AS,exp,32,↓,up,↑,1.3644898000638932,False,16,-1,0,12
Y2-S2-215M19,6,537,AS,exp,26,←,left,←,0.7058835999341682,True,17,-1,0,12
Y2-S2-215M19,6,538,AS,exp,41,→,right,→,0.9444824999663979,True,17,-1,0,12
Y2-S2-215M19,6,539,AS,exp,33,↑,up,↑,0.5140475999796763,True,17,1,1,13
Y2-S2-215M19,6,540,AS,exp,30,→,right,→,0.6300216999370605,True,16,1,0,13
Y2-S2-215M19,6,541,AS,exp,33,↑,up,↑,0.5592490000417456,True,16,1,0,13
Y2-S2-215M19,6,542,AS,exp,30,↓,down,↓,0.6116137000499293,True,16,1,0,13
Y2-S2-215M19,6,543,AS,exp,43,↑,up,↑,0.4322904999135062,True,15,1,0,13
Y2-S2-215M19,6,544,AS,exp,27,↓,down,↓,0.6227692000102252,True,15,1,0,13
Y2-S2-215M19,6,545,AS,exp,49,←,left,←,0.5406879999209195,True,15,1,0,13
Y2-S2-215M19,6,546,AS,exp,33,→,up,↑,1.282343199942261,False,14,-1,1,14
Y2-S2-215M19,6,547,AS,exp,44,↓,down,↓,0.8260876999702305,True,15,-1,0,14
Y2-S2-215M19,6,548,AS,exp,38,←,left,←,0.522944699972868,True,15,-1,0,14
Y2-S2-215M19,6,549,AS,exp,49,↓,up,↑,0.9647174999117851,False,15,-1,0,14
Y2-S2-215M19,6,550,AS,exp,34,←,left,←,0.6601021999958903,True,16,-1,0,14
Y2-S2-215M19,6,551,AS,exp,31,↓,left,←,1.6160087999887764,False,16,-1,0,14
Y2-S2-215M19,6,552,AS,exp,27,←,left,←,0.46052720001898706,True,17,-1,0,14
Y2-S2-215M19,6,553,AS,exp,49,↓,down,↓,0.8164562999736518,True,17,-1,0,14
Y2-S2-215M19,6,554,AS,exp,32,→,right,→,0.7631939999992028,True,17,1,1,15
Y2-S2-215M19,6,555,AS,exp,45,↓,down,↓,0.4522739000385627,True,16,1,0,15
Y2-S2-215M19,6,556,AS,exp,31,↑,up,↑,0.7662881999276578,True,16,1,0,15
Y2-S2-215M19,6,557,AS,exp,32,←,left,←,0.5767453000880778,True,16,1,0,15
Y2-S2-215M19,6,558,AS,exp,50,→,right,→,0.715140699991025,True,15,1,0,15
Y2-S2-215M19,6,559,AS,exp,29,←,left,←,0.5413116000127047,True,15,1,0,15
Y2-S2-215M19,6,560,AS,exp,29,→,right,→,0.5812462999019772,True,15,1,0,15
Y2-S2-215M19,6,561,AS,exp,27,↑,up,↑,0.43370550009422004,True,14,1,0,15
Y2-S2-215M19,6,562,AS,exp,36,→,right,→,0.4811667000176385,True,14,1,0,15
Y2-S2-215M19,6,563,AS,exp,29,↑,up,↑,0.45074230001773685,True,14,1,0,15
Y2-S2-215M19,6,564,AS,exp,40,→,right,→,0.6683867999818176,True,13,1,0,15
Y2-S2-215M19,6,565,AS,exp,41,↑,up,↑,0.5039875999791548,True,13,1,0,15
Y2-S2-215M19,6,566,AS,exp,29,↓,up,↑,0.6795909000793472,False,13,-1,1,16
Y2-S2-215M19,7,567,AS,intra_train,26,↑,no_key,no_letter,-1.0,False,25,-,-,-
Y2-S2-215M19,7,568,AS,intra_train,48,↓,down,↓,0.6338546000188217,True,25,-,-,-
Y2-S2-215M19,7,569,AS,intra_train,46,↑,up,↑,0.925587399979122,True,25,-,-,-
Y2-S2-215M19,7,570,AS,intra_train,36,↓,down,↓,0.6583599000005051,True,25,-,-,-
Y2-S2-215M19,7,571,AS,intra_train,38,↑,up,↑,0.8282859000610188,True,25,-,-,-
Y2-S2-215M19,7,572,AS,exp,36,←,left,←,0.5983553000260144,True,17,0,0,0
Y2-S2-215M19,7,573,AS,exp,44,↓,down,↓,0.6404060000786558,True,17,0,0,0
Y2-S2-215M19,7,574,AS,exp,38,←,right,→,1.03396759997122,False,17,-1,0,0
Y2-S2-215M19,7,575,AS,exp,42,↓,down,↓,0.8665503999218345,True,18,-1,0,0
Y2-S2-215M19,7,576,AS,exp,28,→,right,→,0.6543076999951154,True,18,-1,0,0
Y2-S2-215M19,7,577,AS,exp,42,←,left,←,0.4817407999653369,True,18,1,1,1
Y2-S2-215M19,7,578,AS,exp,27,↑,up,↑,0.6944729000097141,True,17,1,0,1
Y2-S2-215M19,7,579,AS,exp,50,↓,down,↓,0.5689940000884235,True,17,1,0,1
Y2-S2-215M19,7,580,AS,exp,28,←,left,←,0.5863932999782264,True,17,1,0,1
Y2-S2-215M19,7,581,AS,exp,44,↑,up,↑,0.47565399995073676,True,16,1,0,1
Y2-S2-215M19,7,582,AS,exp,49,→,right,→,0.5741542000323534,True,16,1,0,1
Y2-S2-215M19,7,583,AS,exp,28,↑,up,↑,0.9462607000023127,True,16,1,0,1
Y2-S2-215M19,7,584,AS,exp,39,←,left,←,0.6433144999900833,True,15,1,0,1
Y2-S2-215M19,7,585,AS,exp,42,↓,down,↓,0.6289198000449687,True,15,1,0,1
Y2-S2-215M19,7,586,AS,exp,27,←,left,←,0.5281006000004709,True,15,1,0,1
Y2-S2-215M19,7,587,AS,exp,33,→,right,→,0.4935184000059962,True,14,1,0,1
Y2-S2-215M19,7,588,AS,exp,49,↑,up,↑,0.5501270999666303,True,14,1,0,1
Y2-S2-215M19,7,589,AS,exp,26,←,left,←,0.7649415999185294,True,14,1,0,1
Y2-S2-215M19,7,590,AS,exp,39,→,left,←,0.7803660000208765,False,13,-1,1,2
Y2-S2-215M19,7,591,AS,exp,30,↑,up,↑,0.7992244999622926,True,14,-1,0,2
Y2-S2-215M19,7,592,AS,exp,37,←,left,←,0.5251055000117049,True,14,-1,0,2
Y2-S2-215M19,7,593,AS,exp,29,↑,right,→,0.6742603000020608,False,14,-1,0,2
Y2-S2-215M19,7,594,AS,exp,39,←,left,←,0.4559124999213964,True,15,-1,0,2
Y2-S2-215M19,7,595,AS,exp,45,→,right,→,0.449409699998796,True,15,-1,0,2
Y2-S2-215M19,7,596,AS,exp,33,↓,down,↓,0.594649099977687,True,15,1,1,3
Y2-S2-215M19,7,597,AS,exp,25,↑,up,↑,0.9957557999296114,True,14,1,0,3
Y2-S2-215M19,7,598,AS,exp,34,↓,up,↑,0.7155179999535903,False,14,-1,1,4
Y2-S2-215M19,7,599,AS,exp,32,→,right,→,0.5446255999850109,True,15,-1,0,4
Y2-S2-215M19,7,600,AS,exp,30,↑,up,↑,0.46249919990077615,True,15,-1,0,4
Y2-S2-215M19,7,601,AS,exp,49,←,left,←,0.5961699999170378,True,15,1,1,5
Y2-S2-215M19,7,602,AS,exp,28,↑,up,↑,0.453031099983491,True,14,1,0,5
Y2-S2-215M19,7,603,AS,exp,38,↓,down,↓,0.6868693999713287,True,14,1,0,5
Y2-S2-215M19,7,604,AS,exp,28,→,right,→,0.5397290999535471,True,14,1,0,5
Y2-S2-215M19,7,605,AS,exp,29,↑,up,↑,0.6101624000584707,True,13,1,0,5
Y2-S2-215M19,7,606,AS,exp,48,→,right,→,0.49251060001552105,True,13,1,0,5
Y2-S2-215M19,7,607,AS,exp,25,←,right,→,0.4946542999241501,False,13,-1,1,6
Y2-S2-215M19,7,608,AS,exp,43,↓,down,↓,0.5939807000104338,True,14,-1,0,6
Y2-S2-215M19,7,609,AS,exp,46,↑,up,↑,0.645304900011979,True,14,-1,0,6
Y2-S2-215M19,7,610,AS,exp,28,→,right,→,0.9445789000019431,True,14,1,1,7
Y2-S2-215M19,7,611,AS,exp,25,←,left,←,0.9705235000001267,True,13,1,0,7
Y2-S2-215M19,7,612,AS,exp,25,↓,up,↑,0.772919699898921,False,13,-1,1,8
Y2-S2-215M19,7,613,AS,exp,41,→,right,→,0.7803937999997288,True,14,-1,0,8
Y2-S2-215M19,7,614,AS,exp,45,↓,down,↓,0.6496741001028568,True,14,-1,0,8
Y2-S2-215M19,7,615,AS,exp,46,←,left,←,0.619596500066109,True,14,1,1,9
Y2-S2-215M19,7,616,AS,exp,40,↓,up,↑,0.8535496999975294,False,13,-1,1,10
Y2-S2-215M19,7,617,AS,exp,31,↑,up,↑,0.4584225000580773,True,14,-1,0,10
Y2-S2-215M19,7,618,AS,exp,41,→,right,→,0.5546873999992386,True,14,-1,0,10
Y2-S2-215M19,7,619,AS,exp,44,←,left,←,0.5120142999803647,True,14,1,1,11
Y2-S2-215M19,7,620,AS,exp,34,↓,down,↓,0.6349959000945091,True,13,1,0,11
Y2-S2-215M19,7,621,AS,exp,45,→,right,→,0.5520952000515535,True,13,1,0,11
Y2-S2-215M19,7,622,AS,exp,34,↓,down,↓,0.761074399924837,True,13,1,0,11
Y2-S2-215M19,7,623,AS,exp,38,→,down,↓,0.6122495000017807,False,12,-1,1,12
Y2-S2-215M19,7,624,AS,exp,45,↓,down,↓,0.5230639000656083,True,13,-1,0,12
Y2-S2-215M19,7,625,AS,exp,36,↑,up,↑,0.5847624000161886,True,13,-1,0,12
Y2-S2-215M19,7,626,AS,exp,50,→,right,→,0.5735397000098601,True,13,1,1,13
Y2-S2-215M19,7,627,AS,exp,31,←,right,→,0.5085059000412002,False,12,-1,1,14
Y2-S2-215M19,7,628,AS,exp,26,→,right,→,0.5131789000006393,True,13,-1,0,14
Y2-S2-215M19,7,629,AS,exp,47,↑,up,↑,0.6894581000087783,True,13,-1,0,14
Y2-S2-215M19,7,630,AS,exp,29,↓,up,↑,0.8488326999358833,False,13,-1,0,14
Y2-S2-215M19,7,631,AS,exp,44,←,left,←,0.8618243999080732,True,14,-1,0,14
Y2-S2-215M19,7,632,AS,exp,49,→,right,→,0.6766824000515044,True,14,-1,0,14
Y2-S2-215M19,7,633,AS,exp,45,←,down,↓,0.7603406000416726,False,14,-1,0,14
Y2-S2-215M19,7,634,AS,exp,47,↑,up,↑,0.779460999998264,True,15,-1,0,14
Y2-S2-215M19,7,635,AS,exp,40,←,left,←,0.5619716999353841,True,15,-1,0,14
Y2-S2-215M19,7,636,AS,exp,33,↑,up,↑,0.46165229997131974,True,15,1,1,15
Y2-S2-215M19,7,637,AS,exp,48,←,no_key,no_letter,-1.0,False,14,-1,1,16
Y2-S2-215M19,8,638,PS,intra_train,35,↓,right,→,1.2521808999590576,False,15,-,-,-
Y2-S2-215M19,8,639,PS,intra_train,31,↑,up,↑,1.4840846000006422,True,15,-,-,-
Y2-S2-215M19,8,640,PS,intra_train,31,↓,down,↓,0.5210924999555573,True,15,-,-,-
Y2-S2-215M19,8,641,PS,intra_train,42,↑,up,↑,0.48574680008459836,True,15,-,-,-
Y2-S2-215M19,8,642,PS,intra_train,32,←,left,←,0.44689550006296486,True,15,-,-,-
Y2-S2-215M19,8,643,PS,exp,42,↑,left,←,0.7237317999824882,False,10,-1,0,0
Y2-S2-215M19,8,644,PS,exp,38,↓,down,↓,0.5248221000656486,True,11,-1,0,0
Y2-S2-215M19,8,645,PS,exp,36,↑,up,↑,0.8806549001019448,True,11,-1,0,0
Y2-S2-215M19,8,646,PS,exp,29,→,right,→,0.4654226000420749,True,11,1,1,1
Y2-S2-215M19,8,647,PS,exp,40,↓,up,↑,1.2636999000096694,False,10,-1,1,2
Y2-S2-215M19,8,648,PS,exp,34,→,right,→,0.4371523999143392,True,11,-1,0,2
Y2-S2-215M19,8,649,PS,exp,36,↑,up,↑,0.6845775000983849,True,11,-1,0,2
Y2-S2-215M19,8,650,PS,exp,42,←,left,←,0.4653851999901235,True,11,1,1,3
Y2-S2-215M19,8,651,PS,exp,50,↓,down,↓,0.7656172000570223,True,10,1,0,3
Y2-S2-215M19,8,652,PS,exp,39,→,right,→,0.4651416999986395,True,10,1,0,3
Y2-S2-215M19,8,653,PS,exp,43,↑,right,→,0.8163880000356585,False,10,-1,1,4
Y2-S2-215M19,8,654,PS,exp,37,↓,down,↓,0.5818477000575513,True,11,-1,0,4
Y2-S2-215M19,8,655,PS,exp,30,←,left,←,0.4509613999398425,True,11,-1,0,4
Y2-S2-215M19,8,656,PS,exp,26,↑,up,↑,0.6774982999777421,True,11,1,1,5
Y2-S2-215M19,8,657,PS,exp,45,←,up,↑,0.6146229000296444,False,10,-1,1,6
Y2-S2-215M19,8,658,PS,exp,44,↑,up,↑,0.4675276998896152,True,11,-1,0,6
Y2-S2-215M19,8,659,PS,exp,25,↓,down,↓,0.49285169993527234,True,11,-1,0,6
Y2-S2-215M19,8,660,PS,exp,49,←,left,←,0.5431731999851763,True,11,1,1,7
Y2-S2-215M19,8,661,PS,exp,45,→,right,→,0.6081766999559477,True,10,1,0,7
Y2-S2-215M19,8,662,PS,exp,46,↑,up,↑,0.5162951999809593,True,10,1,0,7
Y2-S2-215M19,8,663,PS,exp,46,←,left,←,0.43356380006298423,True,10,1,0,7
Y2-S2-215M19,8,664,PS,exp,39,↑,up,↑,0.2681257000658661,True,9,1,0,7
Y2-S2-215M19,8,665,PS,exp,37,→,right,→,0.7395991999655962,True,9,1,0,7
Y2-S2-215M19,8,666,PS,exp,44,↓,right,→,0.5842679999768734,False,9,-1,1,8
Y2-S2-215M19,8,667,PS,exp,43,←,left,←,0.42965039995033294,True,10,-1,0,8
Y2-S2-215M19,8,668,PS,exp,35,→,right,→,0.6003383999923244,True,10,-1,0,8
Y2-S2-215M19,8,669,PS,exp,27,↑,right,→,0.7191682000411674,False,10,-1,0,8
Y2-S2-215M19,8,670,PS,exp,25,←,left,←,0.4103378999279812,True,11,-1,0,8
Y2-S2-215M19,8,671,PS,exp,43,↓,down,↓,0.7082923999987543,True,11,-1,0,8
Y2-S2-215M19,8,672,PS,exp,32,→,right,→,0.6837660999735817,True,11,1,1,9
Y2-S2-215M19,8,673,PS,exp,43,←,left,←,0.4275324000045657,True,10,1,0,9
Y2-S2-215M19,8,674,PS,exp,49,→,right,→,0.6081964999902993,True,10,1,0,9
Y2-S2-215M19,8,675,PS,exp,35,←,right,→,0.7022262000245973,False,10,-1,1,10
Y2-S2-215M19,8,676,PS,exp,49,↓,down,↓,0.6442024999996647,True,11,-1,0,10
Y2-S2-215M19,8,677,PS,exp,28,→,right,→,0.5596010000444949,True,11,-1,0,10
Y2-S2-215M19,8,678,PS,exp,46,↓,right,→,0.6343364000786096,False,11,-1,0,10
Y2-S2-215M19,8,679,PS,exp,37,→,right,→,0.4415622000815347,True,12,-1,0,10
Y2-S2-215M19,8,680,PS,exp,32,↓,down,↓,0.5536061000311747,True,12,-1,0,10
Y2-S2-215M19,8,681,PS,exp,32,←,right,→,0.779413599986583,False,12,-1,0,10
Y2-S2-215M19,8,682,PS,exp,32,↑,up,↑,0.7537171000149101,True,13,-1,0,10
Y2-S2-215M19,8,683,PS,exp,48,←,left,←,0.5255143999820575,True,13,-1,0,10
Y2-S2-215M19,8,684,PS,exp,49,→,right,→,0.6220558000495657,True,13,1,1,11
Y2-S2-215M19,8,685,PS,exp,35,←,left,←,0.46471670002210885,True,12,1,0,11
Y2-S2-215M19,8,686,PS,exp,50,→,right,→,0.3963855999754742,True,12,1,0,11
Y2-S2-215M19,8,687,PS,exp,40,↓,down,↓,0.6589115998940542,True,12,1,0,11
Y2-S2-215M19,8,688,PS,exp,25,↑,up,↑,0.46165269997436553,True,11,1,0,11
Y2-S2-215M19,8,689,PS,exp,44,←,left,←,0.42078639997635037,True,11,1,0,11
Y2-S2-215M19,8,690,PS,exp,34,↓,up,↑,0.6305219999048859,False,11,-1,1,12
Y2-S2-215M19,8,691,PS,exp,45,←,right,→,0.7628293000161648,False,12,-1,0,12
Y2-S2-215M19,8,692,PS,exp,28,↑,up,↑,0.44263850001152605,True,13,-1,0,12
Y2-S2-215M19,8,693,PS,exp,26,↓,down,↓,0.556918999995105,True,13,-1,0,12
Y2-S2-215M19,8,694,PS,exp,38,↑,up,↑,0.3866377000231296,True,13,1,1,13
Y2-S2-215M19,8,695,PS,exp,30,↓,left,←,0.6927774000214413,False,12,-1,1,14
Y2-S2-215M19,8,696,PS,exp,38,↑,left,←,0.3169873000588268,False,13,-1,0,14
Y2-S2-215M19,8,697,PS,exp,27,←,left,←,0.5002089999616146,True,14,-1,0,14
Y2-S2-215M19,8,698,PS,exp,50,↑,up,↑,0.3672849000431597,True,14,-1,0,14
Y2-S2-215M19,8,699,PS,exp,39,→,right,→,0.5205240999348462,True,14,1,1,15
Y2-S2-215M19,8,700,PS,exp,50,←,left,←,0.49617020005825907,True,13,1,0,15
Y2-S2-215M19,8,701,PS,exp,44,↓,up,↑,0.649098000023514,False,13,-1,1,16
