PART_ID,Block_no,Trial_no,Block_type,Trial_type,CSI,Stim_letter,Key_pressed,letter_choose,Rt,Corr,Stimulus Time,Level,Reversal,Revs_count
Y2-S2-228M20,1,1,PS,train,30,↓,down,↓,0.7710613999515772,True,30,-,-,-
Y2-S2-228M20,1,2,PS,train,49,↑,left,←,1.8983910998795182,False,30,-,-,-
Y2-S2-228M20,1,3,PS,train,33,↓,down,↓,0.851243699900806,True,30,-,-,-
Y2-S2-228M20,1,4,PS,train,25,→,right,→,0.8299768001306802,True,30,-,-,-
Y2-S2-228M20,1,5,PS,train,32,←,left,←,0.6702723999042064,True,30,-,-,-
Y2-S2-228M20,1,6,PS,train,46,↓,down,↓,0.9062323998659849,True,30,-,-,-
Y2-S2-228M20,1,7,PS,train,48,→,right,→,0.9366857998538762,True,30,-,-,-
Y2-S2-228M20,1,8,PS,train,40,↑,up,↑,0.6172515999060124,True,30,-,-,-
Y2-S2-228M20,1,9,PS,train,29,←,left,←,0.8905388999264687,True,30,-,-,-
Y2-S2-228M20,1,10,PS,train,25,↓,down,↓,0.8775625000707805,True,30,-,-,-
Y2-S2-228M20,2,11,AS,train,49,↑,up,↑,0.6183180999942124,True,45,-,-,-
Y2-S2-228M20,2,12,AS,train,39,→,right,→,0.7177863998804241,True,45,-,-,-
Y2-S2-228M20,2,13,AS,train,48,↑,up,↑,0.6511413000989705,True,45,-,-,-
Y2-S2-228M20,2,14,AS,train,47,←,left,←,0.5342262000776827,True,45,-,-,-
Y2-S2-228M20,2,15,AS,train,27,↓,down,↓,0.6679523999337107,True,45,-,-,-
Y2-S2-228M20,2,16,AS,train,32,←,left,←,0.7675093000289053,True,45,-,-,-
Y2-S2-228M20,2,17,AS,train,26,↓,down,↓,0.8841519001871347,True,45,-,-,-
Y2-S2-228M20,2,18,AS,train,39,↑,up,↑,0.8506293001119047,True,45,-,-,-
Y2-S2-228M20,2,19,AS,train,49,→,right,→,0.8008221001364291,True,45,-,-,-
Y2-S2-228M20,2,20,AS,train,35,←,left,←,0.6010364000685513,True,45,-,-,-
Y2-S2-228M20,-,21,PS,adaptive,44,→,left,←,1.4558342997916043,False,10,-1,0,0
Y2-S2-228M20,-,22,PS,adaptive,41,←,left,←,0.6646531999576837,True,11,-1,0,0
Y2-S2-228M20,-,23,PS,adaptive,41,↑,up,↑,0.5807129999157041,True,11,-1,0,0
Y2-S2-228M20,-,24,PS,adaptive,37,↓,down,↓,0.4965628997888416,True,11,1,1,1
Y2-S2-228M20,-,25,PS,adaptive,41,↑,up,↑,0.5818019998259842,True,10,1,0,1
Y2-S2-228M20,-,26,PS,adaptive,49,↓,down,↓,0.6907397001050413,True,10,1,0,1
Y2-S2-228M20,-,27,PS,adaptive,33,↑,up,↑,0.841099799843505,True,10,1,0,1
Y2-S2-228M20,-,28,PS,adaptive,32,↓,right,→,1.1094239999074489,False,9,-1,1,2
Y2-S2-228M20,-,29,PS,adaptive,32,→,right,→,0.5382907998282462,True,10,-1,0,2
Y2-S2-228M20,-,30,PS,adaptive,48,↑,right,→,0.7892469998914748,False,10,-1,0,2
Y2-S2-228M20,-,31,PS,adaptive,46,↓,up,↑,0.7113147000782192,False,11,-1,0,2
Y2-S2-228M20,-,32,PS,adaptive,49,←,down,↓,0.7148251000326127,False,12,-1,0,2
Y2-S2-228M20,-,33,PS,adaptive,46,↓,down,↓,0.5505690998397768,True,13,-1,0,2
Y2-S2-228M20,-,34,PS,adaptive,26,←,left,←,0.8749126999173313,True,13,-1,0,2
Y2-S2-228M20,-,35,PS,adaptive,40,↓,down,↓,0.700702799949795,True,13,1,1,3
Y2-S2-228M20,-,36,PS,adaptive,26,←,left,←,0.4662062998395413,True,12,1,0,3
Y2-S2-228M20,-,37,PS,adaptive,49,↓,down,↓,0.5541471000760794,True,12,1,0,3
Y2-S2-228M20,-,38,PS,adaptive,46,↑,up,↑,0.5488881999626756,True,12,1,0,3
Y2-S2-228M20,-,39,PS,adaptive,33,←,left,←,0.4159668998327106,True,11,1,0,3
Y2-S2-228M20,-,40,PS,adaptive,37,→,right,→,0.49659099988639355,True,11,1,0,3
Y2-S2-228M20,-,41,PS,adaptive,37,↓,left,←,0.9547845001798123,False,11,-1,1,4
Y2-S2-228M20,-,42,AS,adaptive,41,←,left,←,0.6076847000513226,True,20,0,0,0
Y2-S2-228M20,-,43,AS,adaptive,33,→,right,→,0.5743036998901516,True,20,0,0,0
Y2-S2-228M20,-,44,AS,adaptive,47,←,left,←,0.6041748998686671,True,20,1,0,0
Y2-S2-228M20,-,45,AS,adaptive,34,→,right,→,0.6075687000993639,True,19,1,0,0
Y2-S2-228M20,-,46,AS,adaptive,32,↑,up,↑,0.7719779999461025,True,19,1,0,0
Y2-S2-228M20,-,47,AS,adaptive,42,→,right,→,0.5268856999464333,True,19,1,0,0
Y2-S2-228M20,-,48,AS,adaptive,47,↓,up,↑,0.553145500132814,False,18,-1,1,1
Y2-S2-228M20,-,49,AS,adaptive,36,←,left,←,0.5477644000202417,True,19,-1,0,1
Y2-S2-228M20,-,50,AS,adaptive,50,↓,down,↓,0.5608107999432832,True,19,-1,0,1
Y2-S2-228M20,-,51,AS,adaptive,30,→,left,←,0.7793914000503719,False,19,-1,0,1
Y2-S2-228M20,-,52,AS,adaptive,29,←,left,←,0.5987599999643862,True,20,-1,0,1
Y2-S2-228M20,-,53,AS,adaptive,42,→,right,→,0.8155527000781149,True,20,-1,0,1
Y2-S2-228M20,-,54,AS,adaptive,46,↑,up,↑,1.0656148998532444,True,20,1,1,2
Y2-S2-228M20,-,55,AS,adaptive,40,→,right,→,0.606027799891308,True,19,1,0,2
Y2-S2-228M20,-,56,AS,adaptive,37,↑,up,↑,0.6862625000067055,True,19,1,0,2
Y2-S2-228M20,-,57,AS,adaptive,50,←,right,→,0.8667076998390257,False,19,-1,1,3
Y2-S2-228M20,-,58,AS,adaptive,37,↑,up,↑,0.7329508000984788,True,20,-1,0,3
Y2-S2-228M20,-,59,AS,adaptive,25,←,left,←,0.6982810001354665,True,20,-1,0,3
Y2-S2-228M20,-,60,AS,adaptive,41,→,right,→,0.6859810999594629,True,20,1,1,4
Y2-S2-228M20,1,61,PS,intra_train,38,↓,down,↓,0.9241072998847812,True,18,-,-,-
Y2-S2-228M20,1,62,PS,intra_train,26,→,right,→,0.5746607999317348,True,18,-,-,-
Y2-S2-228M20,1,63,PS,intra_train,41,←,left,←,0.4780352001544088,True,18,-,-,-
Y2-S2-228M20,1,64,PS,intra_train,28,↑,up,↑,0.6094827998895198,True,18,-,-,-
Y2-S2-228M20,1,65,PS,intra_train,39,↓,down,↓,0.5660642001312226,True,18,-,-,-
Y2-S2-228M20,1,66,PS,exp,49,→,right,→,0.5968863000161946,True,12,0,0,0
Y2-S2-228M20,1,67,PS,exp,48,↓,left,←,0.8950726001057774,False,12,-1,0,0
Y2-S2-228M20,1,68,PS,exp,37,←,left,←,0.6496272999793291,True,13,-1,0,0
Y2-S2-228M20,1,69,PS,exp,46,↑,up,↑,0.49589040013961494,True,13,-1,0,0
Y2-S2-228M20,1,70,PS,exp,41,↓,down,↓,0.6079704000148922,True,13,1,1,1
Y2-S2-228M20,1,71,PS,exp,25,→,left,←,0.725760499946773,False,12,-1,1,2
Y2-S2-228M20,1,72,PS,exp,45,←,left,←,0.5260908999480307,True,13,-1,0,2
Y2-S2-228M20,1,73,PS,exp,28,↓,down,↓,0.6453501000069082,True,13,-1,0,2
Y2-S2-228M20,1,74,PS,exp,27,→,right,→,0.5237670999485999,True,13,1,1,3
Y2-S2-228M20,1,75,PS,exp,36,↑,up,↑,0.4669687000568956,True,12,1,0,3
Y2-S2-228M20,1,76,PS,exp,40,←,left,←,0.5549623998813331,True,12,1,0,3
Y2-S2-228M20,1,77,PS,exp,31,↑,up,↑,0.4609444001689553,True,12,1,0,3
Y2-S2-228M20,1,78,PS,exp,47,↓,down,↓,0.6798604000359774,True,11,1,0,3
Y2-S2-228M20,1,79,PS,exp,26,→,left,←,0.7906505998689681,False,11,-1,1,4
Y2-S2-228M20,1,80,PS,exp,29,←,left,←,0.5562342000193894,True,12,-1,0,4
Y2-S2-228M20,1,81,PS,exp,32,↑,up,↑,0.5721336000133306,True,12,-1,0,4
Y2-S2-228M20,1,82,PS,exp,44,←,left,←,0.6737474999390543,True,12,1,1,5
Y2-S2-228M20,1,83,PS,exp,26,↓,down,↓,0.6521419999189675,True,11,1,0,5
Y2-S2-228M20,1,84,PS,exp,33,→,right,→,0.45955009991303086,True,11,1,0,5
Y2-S2-228M20,1,85,PS,exp,48,←,left,←,0.9578691001515836,True,11,1,0,5
Y2-S2-228M20,1,86,PS,exp,37,→,right,→,0.5884618000127375,True,10,1,0,5
Y2-S2-228M20,1,87,PS,exp,41,↓,down,↓,0.7448012998793274,True,10,1,0,5
Y2-S2-228M20,1,88,PS,exp,25,→,right,→,0.7315367001574486,True,10,1,0,5
Y2-S2-228M20,1,89,PS,exp,34,↑,down,↓,0.7462621999438852,False,9,-1,1,6
Y2-S2-228M20,1,90,PS,exp,35,→,right,→,0.5870699998922646,True,10,-1,0,6
Y2-S2-228M20,1,91,PS,exp,48,↓,up,↑,0.5952140998560935,False,10,-1,0,6
Y2-S2-228M20,1,92,PS,exp,49,→,right,→,0.4683853001333773,True,11,-1,0,6
Y2-S2-228M20,1,93,PS,exp,39,↑,down,↓,0.8855758998543024,False,11,-1,0,6
Y2-S2-228M20,1,94,PS,exp,45,↓,down,↓,0.4816703998949379,True,12,-1,0,6
Y2-S2-228M20,1,95,PS,exp,44,↑,up,↑,0.5016698001418263,True,12,-1,0,6
Y2-S2-228M20,1,96,PS,exp,26,→,right,→,0.5066309000831097,True,12,1,1,7
Y2-S2-228M20,1,97,PS,exp,34,←,no_key,no_letter,-1.0,False,11,-1,1,8
Y2-S2-228M20,1,98,PS,exp,37,↑,up,↑,0.48777060001157224,True,12,-1,0,8
Y2-S2-228M20,1,99,PS,exp,45,→,right,→,0.8665378999430686,True,12,-1,0,8
Y2-S2-228M20,1,100,PS,exp,48,↑,right,→,0.9669077999424189,False,12,-1,0,8
Y2-S2-228M20,1,101,PS,exp,25,←,left,←,0.5426779999397695,True,13,-1,0,8
Y2-S2-228M20,1,102,PS,exp,48,→,right,→,0.575961200054735,True,13,-1,0,8
Y2-S2-228M20,1,103,PS,exp,34,↓,down,↓,0.8994016000069678,True,13,1,1,9
Y2-S2-228M20,1,104,PS,exp,49,↑,down,↓,0.8442959000822157,False,12,-1,1,10
Y2-S2-228M20,1,105,PS,exp,32,→,right,→,0.5330514998640865,True,13,-1,0,10
Y2-S2-228M20,1,106,PS,exp,25,↓,down,↓,1.2478041001595557,True,13,-1,0,10
Y2-S2-228M20,1,107,PS,exp,42,→,right,→,0.5432956998702139,True,13,1,1,11
Y2-S2-228M20,1,108,PS,exp,45,↑,right,→,0.6721439999528229,False,12,-1,1,12
Y2-S2-228M20,1,109,PS,exp,26,↓,down,↓,0.6396086001768708,True,13,-1,0,12
Y2-S2-228M20,1,110,PS,exp,28,→,right,→,0.5229245000518858,True,13,-1,0,12
Y2-S2-228M20,1,111,PS,exp,36,↓,down,↓,0.651910699903965,True,13,1,1,13
Y2-S2-228M20,1,112,PS,exp,34,→,right,→,0.5603190998081118,True,12,1,0,13
Y2-S2-228M20,1,113,PS,exp,50,←,left,←,0.5601186000276357,True,12,1,0,13
Y2-S2-228M20,1,114,PS,exp,32,↓,down,↓,0.6577445999719203,True,12,1,0,13
Y2-S2-228M20,1,115,PS,exp,50,→,right,→,0.5287510000634938,True,11,1,0,13
Y2-S2-228M20,1,116,PS,exp,42,↓,no_key,no_letter,-1.0,False,11,-1,1,14
Y2-S2-228M20,1,117,PS,exp,40,←,left,←,0.49810170009732246,True,12,-1,0,14
Y2-S2-228M20,1,118,PS,exp,28,↓,down,↓,1.1344515001401305,True,12,-1,0,14
Y2-S2-228M20,1,119,PS,exp,33,←,left,←,1.0189253999851644,True,12,1,1,15
Y2-S2-228M20,1,120,PS,exp,38,↓,down,↓,0.6367502000648528,True,11,1,0,15
Y2-S2-228M20,1,121,PS,exp,38,→,right,→,0.5654865000396967,True,11,1,0,15
Y2-S2-228M20,1,122,PS,exp,34,←,left,←,0.5386556999292225,True,11,1,0,15
Y2-S2-228M20,1,123,PS,exp,41,↓,down,↓,0.6870722000021487,True,10,1,0,15
Y2-S2-228M20,1,124,PS,exp,36,←,down,↓,0.6687814998440444,False,10,-1,1,16
Y2-S2-228M20,2,125,AS,intra_train,31,→,right,→,0.5671150998678058,True,28,-,-,-
Y2-S2-228M20,2,126,AS,intra_train,40,←,left,←,0.6567907999269664,True,28,-,-,-
Y2-S2-228M20,2,127,AS,intra_train,31,↑,no_key,no_letter,-1.0,False,28,-,-,-
Y2-S2-228M20,2,128,AS,intra_train,28,→,right,→,0.6006024999078363,True,28,-,-,-
Y2-S2-228M20,2,129,AS,intra_train,48,↓,down,↓,0.8014000998809934,True,28,-,-,-
Y2-S2-228M20,2,130,AS,exp,42,←,left,←,0.588103299960494,True,19,0,0,0
Y2-S2-228M20,2,131,AS,exp,29,↑,down,↓,1.2708535001147538,False,19,-1,0,0
Y2-S2-228M20,2,132,AS,exp,42,→,right,→,0.7056341001298279,True,20,-1,0,0
Y2-S2-228M20,2,133,AS,exp,41,↓,down,↓,0.7779795001260936,True,20,-1,0,0
Y2-S2-228M20,2,134,AS,exp,41,→,right,→,0.628228300018236,True,20,1,1,1
Y2-S2-228M20,2,135,AS,exp,28,↑,up,↑,0.5429120000917464,True,19,1,0,1
Y2-S2-228M20,2,136,AS,exp,25,↓,down,↓,0.580452699912712,True,19,1,0,1
Y2-S2-228M20,2,137,AS,exp,26,←,left,←,0.8830376998521388,True,19,1,0,1
Y2-S2-228M20,2,138,AS,exp,42,↓,down,↓,0.6955035000573844,True,18,1,0,1
Y2-S2-228M20,2,139,AS,exp,31,↑,up,↑,0.6869014999829233,True,18,1,0,1
Y2-S2-228M20,2,140,AS,exp,30,↓,right,→,1.5753994998522103,False,18,-1,1,2
Y2-S2-228M20,2,141,AS,exp,48,←,left,←,0.6341584001202136,True,19,-1,0,2
Y2-S2-228M20,2,142,AS,exp,29,↑,up,↑,1.6230583998840302,True,19,-1,0,2
Y2-S2-228M20,2,143,AS,exp,26,↓,down,↓,0.7966175000183284,True,19,1,1,3
Y2-S2-228M20,2,144,AS,exp,45,←,left,←,0.6810760998632759,True,18,1,0,3
Y2-S2-228M20,2,145,AS,exp,25,↓,left,←,1.085897499928251,False,18,-1,1,4
Y2-S2-228M20,2,146,AS,exp,43,→,left,←,1.0219463999383152,False,19,-1,0,4
Y2-S2-228M20,2,147,AS,exp,46,←,left,←,1.0789050001185387,True,20,-1,0,4
Y2-S2-228M20,2,148,AS,exp,29,↓,down,↓,0.6573686001356691,True,20,-1,0,4
Y2-S2-228M20,2,149,AS,exp,43,→,right,→,0.7249610999133438,True,20,1,1,5
Y2-S2-228M20,2,150,AS,exp,39,←,left,←,0.528738500084728,True,19,1,0,5
Y2-S2-228M20,2,151,AS,exp,48,↓,down,↓,0.7221760000102222,True,19,1,0,5
Y2-S2-228M20,2,152,AS,exp,29,←,down,↓,0.9895818999502808,False,19,-1,1,6
Y2-S2-228M20,2,153,AS,exp,49,↓,down,↓,0.6613731998950243,True,20,-1,0,6
Y2-S2-228M20,2,154,AS,exp,44,→,right,→,0.7207891999278218,True,20,-1,0,6
Y2-S2-228M20,2,155,AS,exp,30,↑,up,↑,0.9537317999638617,True,20,1,1,7
Y2-S2-228M20,2,156,AS,exp,42,↓,up,↑,1.533656199928373,False,19,-1,1,8
Y2-S2-228M20,2,157,AS,exp,50,→,right,→,0.9160221999045461,True,20,-1,0,8
Y2-S2-228M20,2,158,AS,exp,44,←,left,←,0.6896834999788553,True,20,-1,0,8
Y2-S2-228M20,2,159,AS,exp,45,↑,up,↑,0.6722913000266999,True,20,1,1,9
Y2-S2-228M20,2,160,AS,exp,36,→,right,→,0.6613944000564516,True,19,1,0,9
Y2-S2-228M20,2,161,AS,exp,35,↑,up,↑,0.5728683001361787,True,19,1,0,9
Y2-S2-228M20,2,162,AS,exp,41,←,left,←,0.7052119001746178,True,19,1,0,9
Y2-S2-228M20,2,163,AS,exp,34,↓,down,↓,0.7940754001028836,True,18,1,0,9
Y2-S2-228M20,2,164,AS,exp,31,↑,up,↑,0.5506211000028998,True,18,1,0,9
Y2-S2-228M20,2,165,AS,exp,44,←,left,←,0.5721659001428634,True,18,1,0,9
Y2-S2-228M20,2,166,AS,exp,39,↑,up,↑,0.5507905001286417,True,17,1,0,9
Y2-S2-228M20,2,167,AS,exp,26,→,right,→,0.5491092999000102,True,17,1,0,9
Y2-S2-228M20,2,168,AS,exp,37,←,up,↑,1.5902012998703867,False,17,-1,1,10
Y2-S2-228M20,2,169,AS,exp,39,↓,down,↓,0.7456964000593871,True,18,-1,0,10
Y2-S2-228M20,2,170,AS,exp,38,→,right,→,0.5203199998941272,True,18,-1,0,10
Y2-S2-228M20,2,171,AS,exp,35,←,left,←,0.5842313000466675,True,18,1,1,11
Y2-S2-228M20,2,172,AS,exp,26,→,right,→,0.6180823999457061,True,17,1,0,11
Y2-S2-228M20,2,173,AS,exp,26,←,left,←,0.6214234998915344,True,17,1,0,11
Y2-S2-228M20,2,174,AS,exp,43,↑,up,↑,0.5224339000415057,True,17,1,0,11
Y2-S2-228M20,2,175,AS,exp,38,→,right,→,1.4523995998315513,True,16,1,0,11
Y2-S2-228M20,2,176,AS,exp,47,←,left,←,0.6343509999569505,True,16,1,0,11
Y2-S2-228M20,2,177,AS,exp,35,→,right,→,0.6911859000101686,True,16,1,0,11
Y2-S2-228M20,2,178,AS,exp,39,↑,up,↑,0.5014110999181867,True,15,1,0,11
Y2-S2-228M20,2,179,AS,exp,48,←,left,←,1.0428755001630634,True,15,1,0,11
Y2-S2-228M20,2,180,AS,exp,33,↓,down,↓,0.7009921001736075,True,15,1,0,11
Y2-S2-228M20,2,181,AS,exp,31,↑,up,↑,0.522607599850744,True,14,1,0,11
Y2-S2-228M20,2,182,AS,exp,30,↓,down,↓,1.0740424999967217,True,14,1,0,11
Y2-S2-228M20,2,183,AS,exp,50,↑,up,↑,0.492227999959141,True,14,1,0,11
Y2-S2-228M20,2,184,AS,exp,46,←,left,←,0.5839953999966383,True,13,1,0,11
Y2-S2-228M20,2,185,AS,exp,40,→,right,→,0.5545417999383062,True,13,1,0,11
Y2-S2-228M20,2,186,AS,exp,49,↓,down,↓,0.5969215000513941,True,13,1,0,11
Y2-S2-228M20,2,187,AS,exp,35,↑,up,↑,0.4834690000861883,True,12,1,0,11
Y2-S2-228M20,2,188,AS,exp,43,↓,down,↓,0.4492222999688238,True,12,1,0,11
Y2-S2-228M20,2,189,AS,exp,40,↑,no_key,no_letter,-1.0,False,12,-1,1,12
Y2-S2-228M20,2,190,AS,exp,39,↓,down,↓,0.5761979001108557,True,13,-1,0,12
Y2-S2-228M20,2,191,AS,exp,33,↑,down,↓,1.175834600115195,False,13,-1,0,12
Y2-S2-228M20,2,192,AS,exp,29,↓,down,↓,0.49104070011526346,True,14,-1,0,12
Y2-S2-228M20,2,193,AS,exp,43,→,right,→,0.6662022001110017,True,14,-1,0,12
Y2-S2-228M20,2,194,AS,exp,40,↑,right,→,1.222879899898544,False,14,-1,0,12
Y2-S2-228M20,2,195,AS,exp,37,→,right,→,1.0092191000003368,True,15,-1,0,12
Y2-S2-228M20,2,196,AS,exp,42,↑,up,↑,0.47467159992083907,True,15,-1,0,12
Y2-S2-228M20,2,197,AS,exp,40,↓,down,↓,0.7014996001962572,True,15,1,1,13
Y2-S2-228M20,2,198,AS,exp,28,→,left,←,1.222313400125131,False,14,-1,1,14
Y2-S2-228M20,2,199,AS,exp,43,↓,down,↓,0.7520578000694513,True,15,-1,0,14
Y2-S2-228M20,2,200,AS,exp,29,→,right,→,0.722501500044018,True,15,-1,0,14
Y2-S2-228M20,2,201,AS,exp,35,←,left,←,0.49563880008645356,True,15,1,1,15
Y2-S2-228M20,2,202,AS,exp,36,↓,left,←,0.9436347000300884,False,14,-1,1,16
Y2-S2-228M20,3,203,AS,intra_train,41,→,right,→,0.551033099880442,True,28,-,-,-
Y2-S2-228M20,3,204,AS,intra_train,38,←,left,←,0.4510149999987334,True,28,-,-,-
Y2-S2-228M20,3,205,AS,intra_train,40,↑,up,↑,1.1546060999389738,True,28,-,-,-
Y2-S2-228M20,3,206,AS,intra_train,43,↓,down,↓,0.778163000009954,True,28,-,-,-
Y2-S2-228M20,3,207,AS,intra_train,30,↑,up,↑,1.2770992000587285,True,28,-,-,-
Y2-S2-228M20,3,208,AS,exp,27,→,right,→,0.6772255999967456,True,19,0,0,0
Y2-S2-228M20,3,209,AS,exp,27,↓,right,→,1.1249746000394225,False,19,-1,0,0
Y2-S2-228M20,3,210,AS,exp,35,→,right,→,0.6101438000332564,True,20,-1,0,0
Y2-S2-228M20,3,211,AS,exp,25,↑,up,↑,0.6282232999801636,True,20,-1,0,0
Y2-S2-228M20,3,212,AS,exp,46,→,right,→,1.5817307999823242,True,20,1,1,1
Y2-S2-228M20,3,213,AS,exp,48,←,left,←,0.6248991000466049,True,19,1,0,1
Y2-S2-228M20,3,214,AS,exp,29,→,right,→,0.7350380001589656,True,19,1,0,1
Y2-S2-228M20,3,215,AS,exp,39,←,left,←,0.6442440999671817,True,19,1,0,1
Y2-S2-228M20,3,216,AS,exp,32,↓,down,↓,0.8154873999301344,True,18,1,0,1
Y2-S2-228M20,3,217,AS,exp,38,↑,up,↑,0.6092139000538737,True,18,1,0,1
Y2-S2-228M20,3,218,AS,exp,46,↓,down,↓,0.5617730999365449,True,18,1,0,1
Y2-S2-228M20,3,219,AS,exp,36,←,left,←,0.6313375998288393,True,17,1,0,1
Y2-S2-228M20,3,220,AS,exp,40,↓,down,↓,0.7227402999997139,True,17,1,0,1
Y2-S2-228M20,3,221,AS,exp,46,→,right,→,1.3434864999726415,True,17,1,0,1
Y2-S2-228M20,3,222,AS,exp,44,←,left,←,0.8041592000517994,True,16,1,0,1
Y2-S2-228M20,3,223,AS,exp,38,↑,down,↓,0.7879203998018056,False,16,-1,1,2
Y2-S2-228M20,3,224,AS,exp,43,←,left,←,0.5775808000471443,True,17,-1,0,2
Y2-S2-228M20,3,225,AS,exp,47,↓,down,↓,0.626444400055334,True,17,-1,0,2
Y2-S2-228M20,3,226,AS,exp,32,↑,up,↑,1.536278699990362,True,17,1,1,3
Y2-S2-228M20,3,227,AS,exp,38,→,right,→,0.7413502000272274,True,16,1,0,3
Y2-S2-228M20,3,228,AS,exp,42,↓,right,→,1.2456006999127567,False,16,-1,1,4
Y2-S2-228M20,3,229,AS,exp,44,↑,up,↑,0.7343995999544859,True,17,-1,0,4
Y2-S2-228M20,3,230,AS,exp,40,←,left,←,0.744041700148955,True,17,-1,0,4
Y2-S2-228M20,3,231,AS,exp,40,→,right,→,0.6293015000410378,True,17,1,1,5
Y2-S2-228M20,3,232,AS,exp,34,↓,down,↓,0.6656982998829335,True,16,1,0,5
Y2-S2-228M20,3,233,AS,exp,29,→,right,→,0.6736441999673843,True,16,1,0,5
Y2-S2-228M20,3,234,AS,exp,34,↑,down,↓,1.1032324999105185,False,16,-1,1,6
Y2-S2-228M20,3,235,AS,exp,48,→,right,→,0.7049534998368472,True,17,-1,0,6
Y2-S2-228M20,3,236,AS,exp,47,↓,down,↓,0.6276267000939697,True,17,-1,0,6
Y2-S2-228M20,3,237,AS,exp,33,↑,no_key,no_letter,-1.0,False,17,-1,0,6
Y2-S2-228M20,3,238,AS,exp,32,→,left,←,0.7698017000220716,False,18,-1,0,6
Y2-S2-228M20,3,239,AS,exp,42,↑,up,↑,0.4503891998901963,True,19,-1,0,6
Y2-S2-228M20,3,240,AS,exp,39,←,left,←,0.5704773000907153,True,19,-1,0,6
Y2-S2-228M20,3,241,AS,exp,35,↓,down,↓,0.6047387002035975,True,19,1,1,7
Y2-S2-228M20,3,242,AS,exp,41,→,no_key,no_letter,-1.0,False,18,-1,1,8
Y2-S2-228M20,3,243,AS,exp,48,↓,right,→,1.119738700101152,False,19,-1,0,8
Y2-S2-228M20,3,244,AS,exp,31,→,right,→,0.8846621999982744,True,20,-1,0,8
Y2-S2-228M20,3,245,AS,exp,45,↓,down,↓,0.7531244999263436,True,20,-1,0,8
Y2-S2-228M20,3,246,AS,exp,46,→,right,→,0.7433008998632431,True,20,1,1,9
Y2-S2-228M20,3,247,AS,exp,48,←,left,←,0.5076921000145376,True,19,1,0,9
Y2-S2-228M20,3,248,AS,exp,50,→,right,→,0.6461257000919431,True,19,1,0,9
Y2-S2-228M20,3,249,AS,exp,46,←,left,←,0.5864777001552284,True,19,1,0,9
Y2-S2-228M20,3,250,AS,exp,33,↓,down,↓,0.6033637998625636,True,18,1,0,9
Y2-S2-228M20,3,251,AS,exp,47,↑,up,↑,0.777035899925977,True,18,1,0,9
Y2-S2-228M20,3,252,AS,exp,40,→,right,→,0.6360673001036048,True,18,1,0,9
Y2-S2-228M20,3,253,AS,exp,34,↑,up,↑,0.597151700174436,True,17,1,0,9
Y2-S2-228M20,3,254,AS,exp,34,↓,down,↓,0.7439156000036746,True,17,1,0,9
Y2-S2-228M20,3,255,AS,exp,50,→,right,→,0.7319724000990391,True,17,1,0,9
Y2-S2-228M20,3,256,AS,exp,38,↑,up,↑,0.7184945999179035,True,16,1,0,9
Y2-S2-228M20,3,257,AS,exp,25,←,left,←,0.6833760000299662,True,16,1,0,9
Y2-S2-228M20,3,258,AS,exp,44,↑,up,↑,0.5398776000365615,True,16,1,0,9
Y2-S2-228M20,3,259,AS,exp,41,↓,down,↓,1.1947202000301331,True,15,1,0,9
Y2-S2-228M20,3,260,AS,exp,43,↑,up,↑,0.4937947001308203,True,15,1,0,9
Y2-S2-228M20,3,261,AS,exp,47,←,left,←,1.0059406000655144,True,15,1,0,9
Y2-S2-228M20,3,262,AS,exp,38,↑,up,↑,0.46900010015815496,True,14,1,0,9
Y2-S2-228M20,3,263,AS,exp,37,→,right,→,0.5646079999860376,True,14,1,0,9
Y2-S2-228M20,3,264,AS,exp,27,↓,down,↓,0.7009779000654817,True,14,1,0,9
Y2-S2-228M20,3,265,AS,exp,30,↑,up,↑,0.5411346999462694,True,13,1,0,9
Y2-S2-228M20,3,266,AS,exp,30,↓,down,↓,0.978124599903822,True,13,1,0,9
Y2-S2-228M20,3,267,AS,exp,38,←,left,←,0.7196695997845381,True,13,1,0,9
Y2-S2-228M20,3,268,AS,exp,42,↑,up,↑,0.6298217000439763,True,12,1,0,9
Y2-S2-228M20,3,269,AS,exp,28,→,left,←,0.8292254998814315,False,12,-1,1,10
Y2-S2-228M20,3,270,AS,exp,36,↑,left,←,1.2726350999437273,False,13,-1,0,10
Y2-S2-228M20,3,271,AS,exp,42,↓,right,→,0.9160979001317173,False,14,-1,0,10
Y2-S2-228M20,3,272,AS,exp,46,←,left,←,0.5981793999671936,True,15,-1,0,10
Y2-S2-228M20,3,273,AS,exp,50,↓,down,↓,1.42477019992657,True,15,-1,0,10
Y2-S2-228M20,3,274,AS,exp,34,←,right,→,1.073829600121826,False,15,-1,0,10
Y2-S2-228M20,3,275,AS,exp,29,↑,left,←,0.8832241999916732,False,16,-1,0,10
Y2-S2-228M20,3,276,AS,exp,43,→,right,→,1.2186886998824775,True,17,-1,0,10
Y2-S2-228M20,3,277,AS,exp,27,↑,up,↑,1.2653656001202762,True,17,-1,0,10
Y2-S2-228M20,3,278,AS,exp,30,↓,down,↓,0.7599706000182778,True,17,1,1,11
Y2-S2-228M20,3,279,AS,exp,38,←,left,←,0.6989911999553442,True,16,1,0,11
Y2-S2-228M20,3,280,AS,exp,31,↑,right,→,1.1448488000314683,False,16,-1,1,12
Y2-S2-228M20,3,281,AS,exp,39,→,right,→,0.8556144998874515,True,17,-1,0,12
Y2-S2-228M20,3,282,AS,exp,48,←,left,←,0.9969100998714566,True,17,-1,0,12
Y2-S2-228M20,3,283,AS,exp,46,↓,down,↓,0.7190139000304043,True,17,1,1,13
Y2-S2-228M20,3,284,AS,exp,33,→,right,→,1.3448982001282275,True,16,1,0,13
Y2-S2-228M20,3,285,AS,exp,31,↓,left,←,0.9390378000680357,False,16,-1,1,14
Y2-S2-228M20,3,286,AS,exp,44,↑,right,→,1.0644139000214636,False,17,-1,0,14
Y2-S2-228M20,3,287,AS,exp,28,→,down,↓,1.163052599877119,False,18,-1,0,14
Y2-S2-228M20,3,288,AS,exp,32,←,left,←,0.5200362000614405,True,19,-1,0,14
Y2-S2-228M20,3,289,AS,exp,27,↑,up,↑,0.685635499889031,True,19,-1,0,14
Y2-S2-228M20,3,290,AS,exp,41,←,left,←,0.6735865001101047,True,19,1,1,15
Y2-S2-228M20,3,291,AS,exp,30,↓,down,↓,0.7366948002018034,True,18,1,0,15
Y2-S2-228M20,3,292,AS,exp,31,→,right,→,0.6880423000548035,True,18,1,0,15
Y2-S2-228M20,3,293,AS,exp,30,←,left,←,0.5464127000886947,True,18,1,0,15
Y2-S2-228M20,3,294,AS,exp,37,↑,down,↓,1.3313246998004615,False,17,-1,1,16
Y2-S2-228M20,4,295,PS,intra_train,46,↓,right,→,1.2670442999806255,False,18,-,-,-
Y2-S2-228M20,4,296,PS,intra_train,46,←,left,←,0.4997501999605447,True,18,-,-,-
Y2-S2-228M20,4,297,PS,intra_train,41,→,right,→,0.5468884999863803,True,18,-,-,-
Y2-S2-228M20,4,298,PS,intra_train,34,←,left,←,1.1058137998916209,True,18,-,-,-
Y2-S2-228M20,4,299,PS,intra_train,39,→,right,→,0.6318393000401556,True,18,-,-,-
Y2-S2-228M20,4,300,PS,exp,33,←,left,←,0.7806606001686305,True,12,0,0,0
Y2-S2-228M20,4,301,PS,exp,50,↓,down,↓,0.6936245998367667,True,12,0,0,0
Y2-S2-228M20,4,302,PS,exp,34,←,left,←,0.5088998000137508,True,12,1,0,0
Y2-S2-228M20,4,303,PS,exp,45,↑,up,↑,0.3955835998058319,True,11,1,0,0
Y2-S2-228M20,4,304,PS,exp,45,→,right,→,0.627242699963972,True,11,1,0,0
Y2-S2-228M20,4,305,PS,exp,37,←,left,←,0.5015215000603348,True,11,1,0,0
Y2-S2-228M20,4,306,PS,exp,39,↓,left,←,0.34654359985142946,False,10,-1,1,1
Y2-S2-228M20,4,307,PS,exp,32,←,left,←,0.43710089987143874,True,11,-1,0,1
Y2-S2-228M20,4,308,PS,exp,43,→,right,→,0.44667210010811687,True,11,-1,0,1
Y2-S2-228M20,4,309,PS,exp,38,↓,down,↓,0.566843899898231,True,11,1,1,2
Y2-S2-228M20,4,310,PS,exp,29,←,left,←,0.4265511999838054,True,10,1,0,2
Y2-S2-228M20,4,311,PS,exp,37,↓,left,←,1.0460787999909371,False,10,-1,1,3
Y2-S2-228M20,4,312,PS,exp,32,↑,up,↑,0.49805399985052645,True,11,-1,0,3
Y2-S2-228M20,4,313,PS,exp,36,←,left,←,0.46205569989979267,True,11,-1,0,3
Y2-S2-228M20,4,314,PS,exp,40,↓,down,↓,0.7146091999020427,True,11,1,1,4
Y2-S2-228M20,4,315,PS,exp,30,↑,up,↑,0.5166195000056177,True,10,1,0,4
Y2-S2-228M20,4,316,PS,exp,30,→,left,←,0.8744353000074625,False,10,-1,1,5
Y2-S2-228M20,4,317,PS,exp,26,←,left,←,0.47195470007136464,True,11,-1,0,5
Y2-S2-228M20,4,318,PS,exp,41,→,right,→,1.3519170999061316,True,11,-1,0,5
Y2-S2-228M20,4,319,PS,exp,36,←,left,←,0.534896100172773,True,11,1,1,6
Y2-S2-228M20,4,320,PS,exp,41,↓,down,↓,0.6519205998629332,True,10,1,0,6
Y2-S2-228M20,4,321,PS,exp,40,←,left,←,0.783784800209105,True,10,1,0,6
Y2-S2-228M20,4,322,PS,exp,30,↓,down,↓,0.6429691000375897,True,10,1,0,6
Y2-S2-228M20,4,323,PS,exp,43,↑,up,↑,0.5003595999442041,True,9,1,0,6
Y2-S2-228M20,4,324,PS,exp,40,↓,down,↓,0.6023665000684559,True,9,1,0,6
Y2-S2-228M20,4,325,PS,exp,50,←,left,←,0.49517659982666373,True,9,1,0,6
Y2-S2-228M20,4,326,PS,exp,35,↓,right,→,1.0492150001227856,False,8,-1,1,7
Y2-S2-228M20,4,327,PS,exp,42,←,left,←,0.5087687999475747,True,9,-1,0,7
Y2-S2-228M20,4,328,PS,exp,38,↑,up,↑,0.49123250017873943,True,9,-1,0,7
Y2-S2-228M20,4,329,PS,exp,49,→,right,→,0.5540158001240343,True,9,1,1,8
Y2-S2-228M20,4,330,PS,exp,50,←,left,←,0.5598830999806523,True,8,1,0,8
Y2-S2-228M20,4,331,PS,exp,48,→,right,→,1.1735385998617858,True,8,1,0,8
Y2-S2-228M20,4,332,PS,exp,46,←,up,↑,0.9417368001304567,False,8,-1,1,9
Y2-S2-228M20,4,333,PS,exp,41,→,right,→,0.6049487001728266,True,9,-1,0,9
Y2-S2-228M20,4,334,PS,exp,25,←,left,←,1.064763299888,True,9,-1,0,9
Y2-S2-228M20,4,335,PS,exp,50,↑,up,↑,0.5260663998778909,True,9,1,1,10
Y2-S2-228M20,4,336,PS,exp,33,↓,left,←,0.9034915000665933,False,8,-1,1,11
Y2-S2-228M20,4,337,PS,exp,30,↑,up,↑,0.9516409998759627,True,9,-1,0,11
Y2-S2-228M20,4,338,PS,exp,40,→,right,→,0.5490067000500858,True,9,-1,0,11
Y2-S2-228M20,4,339,PS,exp,48,←,left,←,0.44683940010145307,True,9,1,1,12
Y2-S2-228M20,4,340,PS,exp,38,↓,down,↓,0.6193545002024621,True,8,1,0,12
Y2-S2-228M20,4,341,PS,exp,41,←,down,↓,1.2643202000763267,False,8,-1,1,13
Y2-S2-228M20,4,342,PS,exp,25,↓,down,↓,0.8951129000633955,True,9,-1,0,13
Y2-S2-228M20,4,343,PS,exp,32,→,right,→,1.0296906000003219,True,9,-1,0,13
Y2-S2-228M20,4,344,PS,exp,41,←,left,←,0.48668329999782145,True,9,1,1,14
Y2-S2-228M20,4,345,PS,exp,39,↑,left,←,0.4453636999242008,False,8,-1,1,15
Y2-S2-228M20,4,346,PS,exp,39,←,left,←,0.4340715000871569,True,9,-1,0,15
Y2-S2-228M20,4,347,PS,exp,50,↓,right,→,0.9043993998784572,False,9,-1,0,15
Y2-S2-228M20,4,348,PS,exp,43,↑,up,↑,0.46201459993608296,True,10,-1,0,15
Y2-S2-228M20,4,349,PS,exp,47,→,right,→,0.5996442998293787,True,10,-1,0,15
Y2-S2-228M20,4,350,PS,exp,33,↓,down,↓,0.6296044001355767,True,10,1,1,16
Y2-S2-228M20,5,351,PS,intra_train,47,↑,up,↑,1.251881199888885,True,18,-,-,-
Y2-S2-228M20,5,352,PS,intra_train,31,↓,down,↓,0.6006276002153754,True,18,-,-,-
Y2-S2-228M20,5,353,PS,intra_train,41,↑,up,↑,0.433857100084424,True,18,-,-,-
Y2-S2-228M20,5,354,PS,intra_train,42,←,left,←,1.0995126001071185,True,18,-,-,-
Y2-S2-228M20,5,355,PS,intra_train,44,→,right,→,1.7353556000161916,True,18,-,-,-
Y2-S2-228M20,5,356,PS,exp,25,←,left,←,0.49282360007055104,True,12,0,0,0
Y2-S2-228M20,5,357,PS,exp,36,↓,down,↓,0.672139799920842,True,12,0,0,0
Y2-S2-228M20,5,358,PS,exp,34,←,left,←,0.411381000187248,True,12,1,0,0
Y2-S2-228M20,5,359,PS,exp,30,↓,up,↑,0.8300741999410093,False,11,-1,1,1
Y2-S2-228M20,5,360,PS,exp,37,→,right,→,0.5759584000334144,True,12,-1,0,1
Y2-S2-228M20,5,361,PS,exp,41,↑,up,↑,0.5095979999750853,True,12,-1,0,1
Y2-S2-228M20,5,362,PS,exp,50,↓,down,↓,0.709096800070256,True,12,1,1,2
Y2-S2-228M20,5,363,PS,exp,39,→,left,←,0.9792545000091195,False,11,-1,1,3
Y2-S2-228M20,5,364,PS,exp,50,←,left,←,0.9305918000172824,True,12,-1,0,3
Y2-S2-228M20,5,365,PS,exp,27,↑,right,→,0.8911062001716346,False,12,-1,0,3
Y2-S2-228M20,5,366,PS,exp,30,↓,down,↓,0.6107363998889923,True,13,-1,0,3
Y2-S2-228M20,5,367,PS,exp,45,→,right,→,0.6533615998923779,True,13,-1,0,3
Y2-S2-228M20,5,368,PS,exp,48,↓,down,↓,0.6099785999394953,True,13,1,1,4
Y2-S2-228M20,5,369,PS,exp,29,←,up,↑,1.2327174001839012,False,12,-1,1,5
Y2-S2-228M20,5,370,PS,exp,47,→,right,→,0.6060957999434322,True,13,-1,0,5
Y2-S2-228M20,5,371,PS,exp,46,↓,left,←,1.4455484000500292,False,13,-1,0,5
Y2-S2-228M20,5,372,PS,exp,45,↑,left,←,0.8235224999953061,False,14,-1,0,5
Y2-S2-228M20,5,373,PS,exp,32,↓,left,←,0.9269252999220043,False,15,-1,0,5
Y2-S2-228M20,5,374,PS,exp,26,→,right,→,0.5372995999641716,True,16,-1,0,5
Y2-S2-228M20,5,375,PS,exp,40,↑,up,↑,1.2425856001209468,True,16,-1,0,5
Y2-S2-228M20,5,376,PS,exp,39,←,left,←,0.5449381000362337,True,16,1,1,6
Y2-S2-228M20,5,377,PS,exp,28,↑,left,←,0.9664918000344187,False,15,-1,1,7
Y2-S2-228M20,5,378,PS,exp,49,↓,down,↓,0.6899955000262707,True,16,-1,0,7
Y2-S2-228M20,5,379,PS,exp,31,↑,up,↑,0.5091347999405116,True,16,-1,0,7
Y2-S2-228M20,5,380,PS,exp,33,←,left,←,0.7393271999899298,True,16,1,1,8
Y2-S2-228M20,5,381,PS,exp,26,↑,up,↑,1.4682233000639826,True,15,1,0,8
Y2-S2-228M20,5,382,PS,exp,40,↓,down,↓,0.48354300018399954,True,15,1,0,8
Y2-S2-228M20,5,383,PS,exp,38,↑,up,↑,1.1439912000205368,True,15,1,0,8
Y2-S2-228M20,5,384,PS,exp,44,↓,down,↓,0.5373593999538571,True,14,1,0,8
Y2-S2-228M20,5,385,PS,exp,29,→,down,↓,0.9885036000050604,False,14,-1,1,9
Y2-S2-228M20,5,386,PS,exp,37,↑,down,↓,0.8220788000617176,False,15,-1,0,9
Y2-S2-228M20,5,387,PS,exp,41,↓,down,↓,0.5210440999362618,True,16,-1,0,9
Y2-S2-228M20,5,388,PS,exp,38,←,left,←,0.5880376000422984,True,16,-1,0,9
Y2-S2-228M20,5,389,PS,exp,50,→,right,→,0.49965939996764064,True,16,1,1,10
Y2-S2-228M20,5,390,PS,exp,34,↓,down,↓,0.5167045001871884,True,15,1,0,10
Y2-S2-228M20,5,391,PS,exp,45,→,left,←,0.3841128000058234,False,15,-1,1,11
Y2-S2-228M20,5,392,PS,exp,47,↑,up,↑,0.5451037001330405,True,16,-1,0,11
Y2-S2-228M20,5,393,PS,exp,45,←,left,←,0.5682470998726785,True,16,-1,0,11
Y2-S2-228M20,5,394,PS,exp,30,→,left,←,0.7988503999076784,False,16,-1,0,11
Y2-S2-228M20,5,395,PS,exp,36,↓,down,↓,0.7201008999254555,True,17,-1,0,11
Y2-S2-228M20,5,396,PS,exp,45,↑,right,→,1.403783299960196,False,17,-1,0,11
Y2-S2-228M20,5,397,PS,exp,49,←,left,←,0.6335626000072807,True,18,-1,0,11
Y2-S2-228M20,5,398,PS,exp,44,↑,up,↑,0.5259322000201792,True,18,-1,0,11
Y2-S2-228M20,5,399,PS,exp,25,↓,down,↓,0.7720812999177724,True,18,1,1,12
Y2-S2-228M20,5,400,PS,exp,42,↑,up,↑,0.5409603000152856,True,17,1,0,12
Y2-S2-228M20,5,401,PS,exp,47,←,left,←,0.5365454000420868,True,17,1,0,12
Y2-S2-228M20,5,402,PS,exp,25,→,left,←,0.7375361998565495,False,17,-1,1,13
Y2-S2-228M20,5,403,PS,exp,30,↑,up,↑,1.1387181000318378,True,18,-1,0,13
Y2-S2-228M20,5,404,PS,exp,35,→,right,→,0.5873114999849349,True,18,-1,0,13
Y2-S2-228M20,5,405,PS,exp,46,↑,up,↑,0.4344915000256151,True,18,1,1,14
Y2-S2-228M20,5,406,PS,exp,28,→,left,←,0.9332538999151438,False,17,-1,1,15
Y2-S2-228M20,5,407,PS,exp,34,←,left,←,0.48979620006866753,True,18,-1,0,15
Y2-S2-228M20,5,408,PS,exp,36,↓,down,↓,0.8359155999496579,True,18,-1,0,15
Y2-S2-228M20,5,409,PS,exp,46,→,right,→,0.5925782001577318,True,18,1,1,16
Y2-S2-228M20,6,410,AS,intra_train,46,←,left,←,0.6495403998997062,True,28,-,-,-
Y2-S2-228M20,6,411,AS,intra_train,39,↓,down,↓,1.1826229998841882,True,28,-,-,-
Y2-S2-228M20,6,412,AS,intra_train,38,↑,up,↑,0.703308500116691,True,28,-,-,-
Y2-S2-228M20,6,413,AS,intra_train,31,→,right,→,0.6447900999337435,True,28,-,-,-
Y2-S2-228M20,6,414,AS,intra_train,30,←,left,←,0.7261366001330316,True,28,-,-,-
Y2-S2-228M20,6,415,AS,exp,38,↓,down,↓,0.6720714999828488,True,19,0,0,0
Y2-S2-228M20,6,416,AS,exp,50,←,left,←,0.6776443000417203,True,19,0,0,0
Y2-S2-228M20,6,417,AS,exp,36,↓,down,↓,0.5678409999236465,True,19,1,0,0
Y2-S2-228M20,6,418,AS,exp,50,→,right,→,0.7312543001025915,True,18,1,0,0
Y2-S2-228M20,6,419,AS,exp,39,↑,up,↑,0.7049193000420928,True,18,1,0,0
Y2-S2-228M20,6,420,AS,exp,38,→,right,→,0.5796872999053448,True,18,1,0,0
Y2-S2-228M20,6,421,AS,exp,33,←,left,←,0.8510634999256581,True,17,1,0,0
Y2-S2-228M20,6,422,AS,exp,43,→,right,→,0.8467935000080615,True,17,1,0,0
Y2-S2-228M20,6,423,AS,exp,35,↑,right,→,0.9595018997788429,False,17,-1,1,1
Y2-S2-228M20,6,424,AS,exp,44,↓,down,↓,0.8947359998710454,True,18,-1,0,1
Y2-S2-228M20,6,425,AS,exp,42,↑,up,↑,0.6434621000662446,True,18,-1,0,1
Y2-S2-228M20,6,426,AS,exp,43,↓,down,↓,0.7519263001158834,True,18,1,1,2
Y2-S2-228M20,6,427,AS,exp,49,↑,down,↓,1.1931431000120938,False,17,-1,1,3
Y2-S2-228M20,6,428,AS,exp,36,→,right,→,0.6752913000527769,True,18,-1,0,3
Y2-S2-228M20,6,429,AS,exp,32,↓,down,↓,0.7044701999984682,True,18,-1,0,3
Y2-S2-228M20,6,430,AS,exp,43,→,right,→,0.5113113999832422,True,18,1,1,4
Y2-S2-228M20,6,431,AS,exp,49,↑,down,↓,0.7814502997789532,False,17,-1,1,5
Y2-S2-228M20,6,432,AS,exp,47,↓,down,↓,1.3314167000353336,True,18,-1,0,5
Y2-S2-228M20,6,433,AS,exp,48,→,right,→,0.6246336998883635,True,18,-1,0,5
Y2-S2-228M20,6,434,AS,exp,36,↓,right,→,0.8450202001258731,False,18,-1,0,5
Y2-S2-228M20,6,435,AS,exp,43,↑,up,↑,0.5425275000743568,True,19,-1,0,5
Y2-S2-228M20,6,436,AS,exp,48,←,left,←,1.2401483999565244,True,19,-1,0,5
Y2-S2-228M20,6,437,AS,exp,44,↓,up,↑,0.9415659999940544,False,19,-1,0,5
Y2-S2-228M20,6,438,AS,exp,50,→,right,→,0.5152654000557959,True,20,-1,0,5
Y2-S2-228M20,6,439,AS,exp,49,←,left,←,0.6340171000920236,True,20,-1,0,5
Y2-S2-228M20,6,440,AS,exp,48,↑,up,↑,1.2375852998811752,True,20,1,1,6
Y2-S2-228M20,6,441,AS,exp,49,↓,down,↓,0.8064023999031633,True,19,1,0,6
Y2-S2-228M20,6,442,AS,exp,35,←,left,←,0.7191169001162052,True,19,1,0,6
Y2-S2-228M20,6,443,AS,exp,26,→,right,→,0.6638552998192608,True,19,1,0,6
Y2-S2-228M20,6,444,AS,exp,29,↓,down,↓,0.8089556000195444,True,18,1,0,6
Y2-S2-228M20,6,445,AS,exp,34,→,right,→,0.5537559001240879,True,18,1,0,6
Y2-S2-228M20,6,446,AS,exp,38,↓,down,↓,0.68122319993563,True,18,1,0,6
Y2-S2-228M20,6,447,AS,exp,48,→,right,→,0.5016085000243038,True,17,1,0,6
Y2-S2-228M20,6,448,AS,exp,34,↑,up,↑,0.47972499998286366,True,17,1,0,6
Y2-S2-228M20,6,449,AS,exp,27,←,left,←,0.5209005000069737,True,17,1,0,6
Y2-S2-228M20,6,450,AS,exp,39,→,right,→,0.45224209991283715,True,16,1,0,6
Y2-S2-228M20,6,451,AS,exp,42,↓,down,↓,0.6225246000103652,True,16,1,0,6
Y2-S2-228M20,6,452,AS,exp,41,→,right,→,0.4407754000276327,True,16,1,0,6
Y2-S2-228M20,6,453,AS,exp,38,↓,down,↓,0.6544340001419187,True,15,1,0,6
Y2-S2-228M20,6,454,AS,exp,48,↑,up,↑,0.5802025999873877,True,15,1,0,6
Y2-S2-228M20,6,455,AS,exp,49,→,right,→,0.518849499989301,True,15,1,0,6
Y2-S2-228M20,6,456,AS,exp,39,↓,left,←,0.9189730999059975,False,14,-1,1,7
Y2-S2-228M20,6,457,AS,exp,45,↑,up,↑,0.46895139990374446,True,15,-1,0,7
Y2-S2-228M20,6,458,AS,exp,47,↓,down,↓,0.6596825001761317,True,15,-1,0,7
Y2-S2-228M20,6,459,AS,exp,33,←,down,↓,0.8823307000566274,False,15,-1,0,7
Y2-S2-228M20,6,460,AS,exp,38,↓,down,↓,0.6530055000912398,True,16,-1,0,7
Y2-S2-228M20,6,461,AS,exp,37,←,left,←,0.6311892000958323,True,16,-1,0,7
Y2-S2-228M20,6,462,AS,exp,38,↓,down,↓,0.8426932999864221,True,16,1,1,8
Y2-S2-228M20,6,463,AS,exp,37,↑,up,↑,0.6302624999079853,True,15,1,0,8
Y2-S2-228M20,6,464,AS,exp,43,↓,down,↓,0.7448885999619961,True,15,1,0,8
Y2-S2-228M20,6,465,AS,exp,49,→,right,→,0.6968537999782711,True,15,1,0,8
Y2-S2-228M20,6,466,AS,exp,25,←,left,←,0.5625692999456078,True,14,1,0,8
Y2-S2-228M20,6,467,AS,exp,39,↑,right,→,1.0896325998473912,False,14,-1,1,9
Y2-S2-228M20,6,468,AS,exp,45,↓,right,→,0.8135182000696659,False,15,-1,0,9
Y2-S2-228M20,6,469,AS,exp,35,↑,up,↑,0.6644438998773694,True,16,-1,0,9
Y2-S2-228M20,6,470,AS,exp,46,↓,right,→,1.102879999903962,False,16,-1,0,9
Y2-S2-228M20,6,471,AS,exp,30,↑,right,→,1.5628442000597715,False,17,-1,0,9
Y2-S2-228M20,6,472,AS,exp,37,←,left,←,0.539143200032413,True,18,-1,0,9
Y2-S2-228M20,6,473,AS,exp,40,↑,up,↑,0.5763018999714404,True,18,-1,0,9
Y2-S2-228M20,6,474,AS,exp,47,↓,down,↓,0.6462749999482185,True,18,1,1,10
Y2-S2-228M20,6,475,AS,exp,50,←,left,←,0.4729768999386579,True,17,1,0,10
Y2-S2-228M20,6,476,AS,exp,25,↓,down,↓,0.6731129998806864,True,17,1,0,10
Y2-S2-228M20,6,477,AS,exp,46,→,left,←,0.7811783999204636,False,17,-1,1,11
Y2-S2-228M20,6,478,AS,exp,27,←,left,←,1.260453299852088,True,18,-1,0,11
Y2-S2-228M20,6,479,AS,exp,47,↑,up,↑,0.6035477998666465,True,18,-1,0,11
Y2-S2-228M20,6,480,AS,exp,28,→,right,→,0.6370946001261473,True,18,1,1,12
Y2-S2-228M20,6,481,AS,exp,45,←,left,←,0.5147910001687706,True,17,1,0,12
Y2-S2-228M20,6,482,AS,exp,40,↓,left,←,0.8457065001130104,False,17,-1,1,13
Y2-S2-228M20,6,483,AS,exp,50,↑,up,↑,0.6554409000091255,True,18,-1,0,13
Y2-S2-228M20,6,484,AS,exp,47,↓,down,↓,0.9079819000326097,True,18,-1,0,13
Y2-S2-228M20,6,485,AS,exp,45,↑,down,↓,0.939346699975431,False,18,-1,0,13
Y2-S2-228M20,6,486,AS,exp,43,↓,down,↓,0.8281135999131948,True,19,-1,0,13
Y2-S2-228M20,6,487,AS,exp,32,←,left,←,0.5263412999920547,True,19,-1,0,13
Y2-S2-228M20,6,488,AS,exp,42,↓,left,←,1.3385101999156177,False,19,-1,0,13
Y2-S2-228M20,6,489,AS,exp,47,←,left,←,0.7037178999744356,True,20,-1,0,13
Y2-S2-228M20,6,490,AS,exp,45,↑,up,↑,0.7315220001619309,True,20,-1,0,13
Y2-S2-228M20,6,491,AS,exp,49,→,right,→,0.8443980999290943,True,20,1,1,14
Y2-S2-228M20,6,492,AS,exp,30,↓,down,↓,0.7808141999412328,True,19,1,0,14
Y2-S2-228M20,6,493,AS,exp,48,→,right,→,0.6132968000601977,True,19,1,0,14
Y2-S2-228M20,6,494,AS,exp,34,←,right,→,0.5940576000139117,False,19,-1,1,15
Y2-S2-228M20,6,495,AS,exp,31,↓,left,←,0.6089681999292225,False,20,-1,0,15
Y2-S2-228M20,6,496,AS,exp,44,↑,up,↑,0.872442499967292,True,21,-1,0,15
Y2-S2-228M20,6,497,AS,exp,41,→,right,→,0.5647264998406172,True,21,-1,0,15
Y2-S2-228M20,6,498,AS,exp,33,↓,down,↓,0.7298045998904854,True,21,1,1,16
Y2-S2-228M20,7,499,AS,intra_train,46,↑,up,↑,1.1797575000673532,True,28,-,-,-
Y2-S2-228M20,7,500,AS,intra_train,40,→,right,→,0.6904096999205649,True,28,-,-,-
Y2-S2-228M20,7,501,AS,intra_train,48,←,left,←,0.5505705999676138,True,28,-,-,-
Y2-S2-228M20,7,502,AS,intra_train,48,↓,down,↓,0.6856364998966455,True,28,-,-,-
Y2-S2-228M20,7,503,AS,intra_train,44,→,right,→,1.2120473000686616,True,28,-,-,-
Y2-S2-228M20,7,504,AS,exp,49,↑,up,↑,0.7552360999397933,True,19,0,0,0
Y2-S2-228M20,7,505,AS,exp,30,↓,down,↓,0.7216568000148982,True,19,0,0,0
Y2-S2-228M20,7,506,AS,exp,44,←,left,←,0.7359807998873293,True,19,1,0,0
Y2-S2-228M20,7,507,AS,exp,49,→,right,→,0.6338482999708503,True,18,1,0,0
Y2-S2-228M20,7,508,AS,exp,29,↑,down,↓,1.0196161000058055,False,18,-1,1,1
Y2-S2-228M20,7,509,AS,exp,27,→,right,→,0.6370461999904364,True,19,-1,0,1
Y2-S2-228M20,7,510,AS,exp,48,←,left,←,0.6124523999169469,True,19,-1,0,1
Y2-S2-228M20,7,511,AS,exp,30,↓,down,↓,1.0832942998968065,True,19,1,1,2
Y2-S2-228M20,7,512,AS,exp,29,←,left,←,0.8942728999536484,True,18,1,0,2
Y2-S2-228M20,7,513,AS,exp,45,↑,up,↑,0.5162692999001592,True,18,1,0,2
Y2-S2-228M20,7,514,AS,exp,38,→,right,→,0.712107699830085,True,18,1,0,2
Y2-S2-228M20,7,515,AS,exp,46,↑,right,→,1.69144960003905,False,17,-1,1,3
Y2-S2-228M20,7,516,AS,exp,33,←,left,←,0.651326899882406,True,18,-1,0,3
Y2-S2-228M20,7,517,AS,exp,44,↑,left,←,0.4840328001882881,False,18,-1,0,3
Y2-S2-228M20,7,518,AS,exp,33,→,right,→,0.6445826999843121,True,19,-1,0,3
Y2-S2-228M20,7,519,AS,exp,27,↓,down,↓,0.6840876000933349,True,19,-1,0,3
Y2-S2-228M20,7,520,AS,exp,43,←,left,←,0.6213266998529434,True,19,1,1,4
Y2-S2-228M20,7,521,AS,exp,42,↑,up,↑,0.5983009000774473,True,18,1,0,4
Y2-S2-228M20,7,522,AS,exp,50,↓,down,↓,1.4430791998747736,True,18,1,0,4
Y2-S2-228M20,7,523,AS,exp,49,→,right,→,0.801165800075978,True,18,1,0,4
Y2-S2-228M20,7,524,AS,exp,42,←,left,←,0.5599076999351382,True,17,1,0,4
Y2-S2-228M20,7,525,AS,exp,35,↑,right,→,0.952246000058949,False,17,-1,1,5
Y2-S2-228M20,7,526,AS,exp,35,↓,down,↓,0.6583145000040531,True,18,-1,0,5
Y2-S2-228M20,7,527,AS,exp,39,→,right,→,0.5227799999993294,True,18,-1,0,5
Y2-S2-228M20,7,528,AS,exp,42,↓,left,←,1.2896638000383973,False,18,-1,0,5
Y2-S2-228M20,7,529,AS,exp,27,←,left,←,0.8780684999655932,True,19,-1,0,5
Y2-S2-228M20,7,530,AS,exp,28,→,right,→,0.6398684999439865,True,19,-1,0,5
Y2-S2-228M20,7,531,AS,exp,45,↓,left,←,1.3190881998743862,False,19,-1,0,5
Y2-S2-228M20,7,532,AS,exp,45,↑,up,↑,1.095875500002876,True,20,-1,0,5
Y2-S2-228M20,7,533,AS,exp,29,←,left,←,0.6524952999316156,True,20,-1,0,5
Y2-S2-228M20,7,534,AS,exp,39,→,right,→,0.5768764000386,True,20,1,1,6
Y2-S2-228M20,7,535,AS,exp,36,←,left,←,0.6435897999908775,True,19,1,0,6
Y2-S2-228M20,7,536,AS,exp,50,→,right,→,0.6689746000338346,True,19,1,0,6
Y2-S2-228M20,7,537,AS,exp,36,←,left,←,0.5704930000938475,True,19,1,0,6
Y2-S2-228M20,7,538,AS,exp,29,↓,down,↓,0.74448879994452,True,18,1,0,6
Y2-S2-228M20,7,539,AS,exp,27,↑,up,↑,0.5430920000653714,True,18,1,0,6
Y2-S2-228M20,7,540,AS,exp,34,↓,down,↓,0.6696395000908524,True,18,1,0,6
Y2-S2-228M20,7,541,AS,exp,35,↑,up,↑,1.1941571000497788,True,17,1,0,6
Y2-S2-228M20,7,542,AS,exp,39,↓,down,↓,0.6471086998935789,True,17,1,0,6
Y2-S2-228M20,7,543,AS,exp,43,←,left,←,1.0053112001623958,True,17,1,0,6
Y2-S2-228M20,7,544,AS,exp,36,↑,up,↑,0.43808129988610744,True,16,1,0,6
Y2-S2-228M20,7,545,AS,exp,25,→,right,→,0.6060528000816703,True,16,1,0,6
Y2-S2-228M20,7,546,AS,exp,45,←,right,→,1.8346764000598341,False,16,-1,1,7
Y2-S2-228M20,7,547,AS,exp,31,↑,right,→,0.8299161000177264,False,17,-1,0,7
Y2-S2-228M20,7,548,AS,exp,31,←,left,←,0.82912139990367,True,18,-1,0,7
Y2-S2-228M20,7,549,AS,exp,36,↓,right,→,0.8968383001629263,False,18,-1,0,7
Y2-S2-228M20,7,550,AS,exp,31,→,right,→,0.5335366998333484,True,19,-1,0,7
Y2-S2-228M20,7,551,AS,exp,25,←,left,←,0.6111013998743147,True,19,-1,0,7
Y2-S2-228M20,7,552,AS,exp,36,↓,down,↓,0.6672488001640886,True,19,1,1,8
Y2-S2-228M20,7,553,AS,exp,44,←,left,←,0.41741260001435876,True,18,1,0,8
Y2-S2-228M20,7,554,AS,exp,40,→,right,→,0.6059837997891009,True,18,1,0,8
Y2-S2-228M20,7,555,AS,exp,47,↑,up,↑,0.5083673000335693,True,18,1,0,8
Y2-S2-228M20,7,556,AS,exp,27,↓,down,↓,0.597911300137639,True,17,1,0,8
Y2-S2-228M20,7,557,AS,exp,34,→,right,→,0.7935854999814183,True,17,1,0,8
Y2-S2-228M20,7,558,AS,exp,43,↓,down,↓,0.6538342998828739,True,17,1,0,8
Y2-S2-228M20,7,559,AS,exp,50,→,left,←,0.8808918001595885,False,16,-1,1,9
Y2-S2-228M20,7,560,AS,exp,30,↓,down,↓,0.564683300210163,True,17,-1,0,9
Y2-S2-228M20,7,561,AS,exp,37,→,down,↓,0.7137017999775708,False,17,-1,0,9
Y2-S2-228M20,7,562,AS,exp,38,←,left,←,0.6385435000993311,True,18,-1,0,9
Y2-S2-228M20,7,563,AS,exp,27,↓,down,↓,0.8472412000410259,True,18,-1,0,9
Y2-S2-228M20,7,564,AS,exp,41,↑,up,↑,0.6198022000025958,True,18,1,1,10
Y2-S2-228M20,7,565,AS,exp,40,↓,left,←,0.7361445999704301,False,17,-1,1,11
Y2-S2-228M20,7,566,AS,exp,37,→,right,→,0.6186174999456853,True,18,-1,0,11
Y2-S2-228M20,7,567,AS,exp,48,↑,up,↑,0.6792942001484334,True,18,-1,0,11
Y2-S2-228M20,7,568,AS,exp,36,↓,down,↓,0.627800100017339,True,18,1,1,12
Y2-S2-228M20,7,569,AS,exp,38,→,right,→,0.5916891000233591,True,17,1,0,12
Y2-S2-228M20,7,570,AS,exp,36,←,left,←,0.5826709000393748,True,17,1,0,12
Y2-S2-228M20,7,571,AS,exp,39,→,right,→,0.640990599989891,True,17,1,0,12
Y2-S2-228M20,7,572,AS,exp,28,←,left,←,1.0588789000175893,True,16,1,0,12
Y2-S2-228M20,7,573,AS,exp,42,→,right,→,0.6262978001032025,True,16,1,0,12
Y2-S2-228M20,7,574,AS,exp,34,←,left,←,0.5685099000111222,True,16,1,0,12
Y2-S2-228M20,7,575,AS,exp,29,↑,up,↑,0.8070926000364125,True,15,1,0,12
Y2-S2-228M20,7,576,AS,exp,30,→,right,→,0.5351253000553697,True,15,1,0,12
Y2-S2-228M20,7,577,AS,exp,41,↓,down,↓,0.739922899985686,True,15,1,0,12
Y2-S2-228M20,7,578,AS,exp,26,→,right,→,0.5152542998548597,True,14,1,0,12
Y2-S2-228M20,7,579,AS,exp,41,↓,left,←,0.5876414999365807,False,14,-1,1,13
Y2-S2-228M20,7,580,AS,exp,45,→,right,→,0.5449208000209183,True,15,-1,0,13
Y2-S2-228M20,7,581,AS,exp,48,←,left,←,0.4571157000027597,True,15,-1,0,13
Y2-S2-228M20,7,582,AS,exp,46,→,right,→,0.44636719999834895,True,15,1,1,14
Y2-S2-228M20,7,583,AS,exp,38,←,left,←,0.4137667999602854,True,14,1,0,14
Y2-S2-228M20,7,584,AS,exp,29,→,right,→,0.5923796000424773,True,14,1,0,14
Y2-S2-228M20,7,585,AS,exp,41,←,left,←,0.49349300004541874,True,14,1,0,14
Y2-S2-228M20,7,586,AS,exp,46,→,right,→,0.5800415999256074,True,13,1,0,14
Y2-S2-228M20,7,587,AS,exp,46,←,left,←,0.44349980005063117,True,13,1,0,14
Y2-S2-228M20,7,588,AS,exp,41,→,right,→,0.5504071000032127,True,13,1,0,14
Y2-S2-228M20,7,589,AS,exp,25,←,left,←,0.8455827999860048,True,12,1,0,14
Y2-S2-228M20,7,590,AS,exp,28,↓,right,→,0.7007987999822944,False,12,-1,1,15
Y2-S2-228M20,7,591,AS,exp,29,→,right,→,0.5730250999331474,True,13,-1,0,15
Y2-S2-228M20,7,592,AS,exp,29,←,left,←,0.5350343999452889,True,13,-1,0,15
Y2-S2-228M20,7,593,AS,exp,49,↓,right,→,1.5250667999498546,False,13,-1,0,15
Y2-S2-228M20,7,594,AS,exp,25,←,left,←,0.4975751000456512,True,14,-1,0,15
Y2-S2-228M20,7,595,AS,exp,47,↑,right,→,0.9480351000092924,False,14,-1,0,15
Y2-S2-228M20,7,596,AS,exp,35,←,left,←,0.5445298000704497,True,15,-1,0,15
Y2-S2-228M20,7,597,AS,exp,49,↓,right,→,0.6902224998921156,False,15,-1,0,15
Y2-S2-228M20,7,598,AS,exp,44,→,right,→,0.7600927001331002,True,16,-1,0,15
Y2-S2-228M20,7,599,AS,exp,32,←,left,←,0.5804907002020627,True,16,-1,0,15
Y2-S2-228M20,7,600,AS,exp,39,↓,down,↓,0.6505366000346839,True,16,1,1,16
Y2-S2-228M20,8,601,PS,intra_train,37,↑,down,↓,1.164363200077787,False,18,-,-,-
Y2-S2-228M20,8,602,PS,intra_train,40,↓,down,↓,0.6915759998373687,True,18,-,-,-
Y2-S2-228M20,8,603,PS,intra_train,37,→,right,→,0.5437690999824554,True,18,-,-,-
Y2-S2-228M20,8,604,PS,intra_train,47,↓,left,←,1.4135165000334382,False,18,-,-,-
Y2-S2-228M20,8,605,PS,intra_train,32,→,right,→,1.0812838000711054,True,18,-,-,-
Y2-S2-228M20,8,606,PS,exp,46,↓,down,↓,0.6550425000023097,True,12,0,0,0
Y2-S2-228M20,8,607,PS,exp,48,→,down,↓,1.0787710999138653,False,12,-1,0,0
Y2-S2-228M20,8,608,PS,exp,40,←,left,←,0.4570597999263555,True,13,-1,0,0
Y2-S2-228M20,8,609,PS,exp,31,→,right,→,0.6248963000252843,True,13,-1,0,0
Y2-S2-228M20,8,610,PS,exp,35,↓,down,↓,0.7557868000585586,True,13,1,1,1
Y2-S2-228M20,8,611,PS,exp,27,→,down,↓,0.7659843999426812,False,12,-1,1,2
Y2-S2-228M20,8,612,PS,exp,46,↑,up,↑,0.49069100013002753,True,13,-1,0,2
Y2-S2-228M20,8,613,PS,exp,48,←,left,←,0.5283436998724937,True,13,-1,0,2
Y2-S2-228M20,8,614,PS,exp,32,↑,up,↑,0.5041330999229103,True,13,1,1,3
Y2-S2-228M20,8,615,PS,exp,44,↓,down,↓,0.6002894998528063,True,12,1,0,3
Y2-S2-228M20,8,616,PS,exp,34,↑,up,↑,0.37195260007865727,True,12,1,0,3
Y2-S2-228M20,8,617,PS,exp,42,←,left,←,0.40337820001877844,True,12,1,0,3
Y2-S2-228M20,8,618,PS,exp,31,→,right,→,0.4132222000043839,True,11,1,0,3
Y2-S2-228M20,8,619,PS,exp,35,↑,up,↑,0.4765898999758065,True,11,1,0,3
Y2-S2-228M20,8,620,PS,exp,45,←,left,←,0.48757810005918145,True,11,1,0,3
Y2-S2-228M20,8,621,PS,exp,39,↓,down,↓,0.6414857001509517,True,10,1,0,3
Y2-S2-228M20,8,622,PS,exp,42,↑,up,↑,0.5114255999214947,True,10,1,0,3
Y2-S2-228M20,8,623,PS,exp,33,↓,down,↓,0.5212625998537987,True,10,1,0,3
Y2-S2-228M20,8,624,PS,exp,35,→,down,↓,0.734686000039801,False,9,-1,1,4
Y2-S2-228M20,8,625,PS,exp,30,↑,up,↑,0.7709127000998706,True,10,-1,0,4
Y2-S2-228M20,8,626,PS,exp,50,↓,down,↓,0.5572200999595225,True,10,-1,0,4
Y2-S2-228M20,8,627,PS,exp,25,↑,left,←,0.7606556999962777,False,10,-1,0,4
Y2-S2-228M20,8,628,PS,exp,37,←,left,←,0.5010804000776261,True,11,-1,0,4
Y2-S2-228M20,8,629,PS,exp,47,↑,up,↑,0.4106495000887662,True,11,-1,0,4
Y2-S2-228M20,8,630,PS,exp,42,↓,down,↓,0.558845299994573,True,11,1,1,5
Y2-S2-228M20,8,631,PS,exp,43,←,left,←,0.7188945000525564,True,10,1,0,5
Y2-S2-228M20,8,632,PS,exp,38,↓,up,↑,0.5571398998145014,False,10,-1,1,6
Y2-S2-228M20,8,633,PS,exp,39,→,right,→,0.4433925999328494,True,11,-1,0,6
Y2-S2-228M20,8,634,PS,exp,26,↑,right,→,0.9489587000571191,False,11,-1,0,6
Y2-S2-228M20,8,635,PS,exp,34,↓,down,↓,0.621099199866876,True,12,-1,0,6
Y2-S2-228M20,8,636,PS,exp,36,→,right,→,0.4434588998556137,True,12,-1,0,6
Y2-S2-228M20,8,637,PS,exp,26,↓,right,→,0.9073093000333756,False,12,-1,0,6
Y2-S2-228M20,8,638,PS,exp,33,←,left,←,0.474838700145483,True,13,-1,0,6
Y2-S2-228M20,8,639,PS,exp,36,↑,up,↑,0.46273009991273284,True,13,-1,0,6
Y2-S2-228M20,8,640,PS,exp,35,↓,left,←,0.4565928000956774,False,13,-1,0,6
Y2-S2-228M20,8,641,PS,exp,31,↑,down,↓,0.9250832998659462,False,14,-1,0,6
Y2-S2-228M20,8,642,PS,exp,45,←,left,←,0.4467527999076992,True,15,-1,0,6
Y2-S2-228M20,8,643,PS,exp,40,↓,down,↓,0.6620005997829139,True,15,-1,0,6
Y2-S2-228M20,8,644,PS,exp,45,←,left,←,0.45645510009489954,True,15,1,1,7
Y2-S2-228M20,8,645,PS,exp,32,→,right,→,0.4495582999661565,True,14,1,0,7
Y2-S2-228M20,8,646,PS,exp,30,↑,left,←,0.3340330000501126,False,14,-1,1,8
Y2-S2-228M20,8,647,PS,exp,48,↓,down,↓,0.46509159984998405,True,15,-1,0,8
Y2-S2-228M20,8,648,PS,exp,28,←,left,←,1.223932399880141,True,15,-1,0,8
Y2-S2-228M20,8,649,PS,exp,39,→,right,→,0.5328142999205738,True,15,1,1,9
Y2-S2-228M20,8,650,PS,exp,31,↑,up,↑,0.492565399967134,True,14,1,0,9
Y2-S2-228M20,8,651,PS,exp,27,→,right,→,0.41364059993065894,True,14,1,0,9
Y2-S2-228M20,8,652,PS,exp,44,←,left,←,0.35048529994674027,True,14,1,0,9
Y2-S2-228M20,8,653,PS,exp,31,→,right,→,0.3340835999697447,True,13,1,0,9
Y2-S2-228M20,8,654,PS,exp,46,←,left,←,0.33406480005942285,True,13,1,0,9
Y2-S2-228M20,8,655,PS,exp,35,↑,up,↑,0.42775969998911023,True,13,1,0,9
Y2-S2-228M20,8,656,PS,exp,39,→,right,→,0.4007306001149118,True,12,1,0,9
Y2-S2-228M20,8,657,PS,exp,44,←,left,←,0.7640184001065791,True,12,1,0,9
Y2-S2-228M20,8,658,PS,exp,45,→,right,→,0.5401329000014812,True,12,1,0,9
Y2-S2-228M20,8,659,PS,exp,39,←,left,←,0.47944689984433353,True,11,1,0,9
Y2-S2-228M20,8,660,PS,exp,25,→,right,→,0.3636495000682771,True,11,1,0,9
Y2-S2-228M20,8,661,PS,exp,34,←,right,→,0.49313100008293986,False,11,-1,1,10
Y2-S2-228M20,8,662,PS,exp,34,↓,down,↓,0.5508793999906629,True,12,-1,0,10
Y2-S2-228M20,8,663,PS,exp,25,←,left,←,0.4186179998796433,True,12,-1,0,10
Y2-S2-228M20,8,664,PS,exp,25,→,right,→,0.4744161998387426,True,12,1,1,11
Y2-S2-228M20,8,665,PS,exp,47,↓,down,↓,0.7389831999316812,True,11,1,0,11
Y2-S2-228M20,8,666,PS,exp,37,←,left,←,0.3997186999768019,True,11,1,0,11
Y2-S2-228M20,8,667,PS,exp,29,↑,right,→,0.565443400060758,False,11,-1,1,12
Y2-S2-228M20,8,668,PS,exp,27,←,no_key,no_letter,-1.0,False,12,-1,0,12
Y2-S2-228M20,8,669,PS,exp,34,↓,down,↓,0.5326936000492424,True,13,-1,0,12
Y2-S2-228M20,8,670,PS,exp,44,→,right,→,0.5069532000925392,True,13,-1,0,12
Y2-S2-228M20,8,671,PS,exp,38,↓,down,↓,0.6134001000318676,True,13,1,1,13
Y2-S2-228M20,8,672,PS,exp,42,→,right,→,0.5899864002130926,True,12,1,0,13
Y2-S2-228M20,8,673,PS,exp,50,←,left,←,0.3843374999705702,True,12,1,0,13
Y2-S2-228M20,8,674,PS,exp,38,↓,down,↓,0.5875199001748115,True,12,1,0,13
Y2-S2-228M20,8,675,PS,exp,40,→,right,→,0.5129368000198156,True,11,1,0,13
Y2-S2-228M20,8,676,PS,exp,41,↑,up,↑,0.399504299974069,True,11,1,0,13
Y2-S2-228M20,8,677,PS,exp,29,→,right,→,0.44892219989560544,True,11,1,0,13
Y2-S2-228M20,8,678,PS,exp,33,↓,up,↑,1.0065633999183774,False,10,-1,1,14
Y2-S2-228M20,8,679,PS,exp,42,←,left,←,0.4775650999508798,True,11,-1,0,14
Y2-S2-228M20,8,680,PS,exp,32,→,right,→,0.6029077998828143,True,11,-1,0,14
Y2-S2-228M20,8,681,PS,exp,28,←,left,←,0.4112595000769943,True,11,1,1,15
Y2-S2-228M20,8,682,PS,exp,37,↑,up,↑,0.5027462998405099,True,10,1,0,15
Y2-S2-228M20,8,683,PS,exp,32,→,right,→,0.5200730999931693,True,10,1,0,15
Y2-S2-228M20,8,684,PS,exp,25,↑,up,↑,0.4418980001937598,True,10,1,0,15
Y2-S2-228M20,8,685,PS,exp,44,←,left,←,0.4180779999587685,True,9,1,0,15
Y2-S2-228M20,8,686,PS,exp,47,→,left,←,0.5319540998898447,False,9,-1,1,16
