PART_ID,Block_no,Trial_no,Block_type,Trial_type,CSI,Stim_letter,Key_pressed,letter_choose,Rt,Corr,Stimulus Time,Level,Reversal,Revs_count
Y2-S2-205K20,1,1,PS,train,29,←,left,←,1.0558164999820292,True,30,-,-,-
Y2-S2-205K20,1,2,PS,train,44,→,right,→,0.8509426997043192,True,30,-,-,-
Y2-S2-205K20,1,3,PS,train,35,↑,up,↑,0.7248897003009915,True,30,-,-,-
Y2-S2-205K20,1,4,PS,train,48,←,left,←,0.8046627999283373,True,30,-,-,-
Y2-S2-205K20,1,5,PS,train,25,↑,up,↑,1.320754500105977,True,30,-,-,-
Y2-S2-205K20,1,6,PS,train,47,←,no_key,no_letter,-1.0,False,30,-,-,-
Y2-S2-205K20,1,7,PS,train,37,→,right,→,0.8460245002061129,True,30,-,-,-
Y2-S2-205K20,1,8,PS,train,44,←,left,←,0.841712100431323,True,30,-,-,-
Y2-S2-205K20,1,9,PS,train,46,→,right,→,0.8676458997651935,True,30,-,-,-
Y2-S2-205K20,1,10,PS,train,26,↑,up,↑,0.9603535002097487,True,30,-,-,-
Y2-S2-205K20,2,11,AS,train,30,←,left,←,0.684448900166899,True,45,-,-,-
Y2-S2-205K20,2,12,AS,train,36,↓,down,↓,1.2229088000021875,True,45,-,-,-
Y2-S2-205K20,2,13,AS,train,44,←,left,←,0.8672050000168383,True,45,-,-,-
Y2-S2-205K20,2,14,AS,train,34,↓,no_key,no_letter,-1.0,False,45,-,-,-
Y2-S2-205K20,2,15,AS,train,39,→,right,→,0.9801798001863062,True,45,-,-,-
Y2-S2-205K20,2,16,AS,train,34,↓,down,↓,1.0694094998762012,True,45,-,-,-
Y2-S2-205K20,2,17,AS,train,31,←,left,←,0.7179999002255499,True,45,-,-,-
Y2-S2-205K20,2,18,AS,train,48,↑,up,↑,0.7011902001686394,True,45,-,-,-
Y2-S2-205K20,2,19,AS,train,36,→,right,→,0.8671675999648869,True,45,-,-,-
Y2-S2-205K20,2,20,AS,train,31,↓,down,↓,1.0775045999325812,True,45,-,-,-
Y2-S2-205K20,-,21,PS,adaptive,38,→,right,→,0.5884462003596127,True,10,0,0,0
Y2-S2-205K20,-,22,PS,adaptive,44,↓,down,↓,0.6714306999929249,True,10,0,0,0
Y2-S2-205K20,-,23,PS,adaptive,27,→,right,→,0.7183993998914957,True,10,1,0,0
Y2-S2-205K20,-,24,PS,adaptive,31,↓,up,↑,1.6283852998167276,False,9,-1,1,1
Y2-S2-205K20,-,25,PS,adaptive,47,↑,up,↑,0.6677709999494255,True,10,-1,0,1
Y2-S2-205K20,-,26,PS,adaptive,28,→,right,→,0.6705614998936653,True,10,-1,0,1
Y2-S2-205K20,-,27,PS,adaptive,50,↓,down,↓,0.5956800999119878,True,10,1,1,2
Y2-S2-205K20,-,28,PS,adaptive,26,←,left,←,0.5210143001750112,True,9,1,0,2
Y2-S2-205K20,-,29,PS,adaptive,29,→,right,→,0.6832739999517798,True,9,1,0,2
Y2-S2-205K20,-,30,PS,adaptive,47,↑,up,↑,0.5202216999605298,True,9,1,0,2
Y2-S2-205K20,-,31,PS,adaptive,45,↓,down,↓,0.9504564004018903,True,8,1,0,2
Y2-S2-205K20,-,32,PS,adaptive,43,←,up,↑,0.6671299999579787,False,8,-1,1,3
Y2-S2-205K20,-,33,PS,adaptive,25,↓,down,↓,1.028942999895662,True,9,-1,0,3
Y2-S2-205K20,-,34,PS,adaptive,25,→,right,→,0.582795700058341,True,9,-1,0,3
Y2-S2-205K20,-,35,PS,adaptive,25,↓,down,↓,0.8859260999597609,True,9,1,1,4
Y2-S2-205K20,-,36,AS,adaptive,27,←,left,←,0.8777338997460902,True,20,0,0,0
Y2-S2-205K20,-,37,AS,adaptive,39,↑,up,↑,0.8056017998605967,True,20,0,0,0
Y2-S2-205K20,-,38,AS,adaptive,42,↓,down,↓,0.9330519996583462,True,20,1,0,0
Y2-S2-205K20,-,39,AS,adaptive,27,←,left,←,0.7793870000168681,True,19,1,0,0
Y2-S2-205K20,-,40,AS,adaptive,44,↓,down,↓,1.007617199793458,True,19,1,0,0
Y2-S2-205K20,-,41,AS,adaptive,25,←,left,←,0.8018558002077043,True,19,1,0,0
Y2-S2-205K20,-,42,AS,adaptive,32,→,right,→,0.8178885001689196,True,18,1,0,0
Y2-S2-205K20,-,43,AS,adaptive,26,←,up,↑,0.8226048997603357,False,18,-1,1,1
Y2-S2-205K20,-,44,AS,adaptive,36,↓,down,↓,0.832948200404644,True,19,-1,0,1
Y2-S2-205K20,-,45,AS,adaptive,42,←,left,←,0.6823899000883102,True,19,-1,0,1
Y2-S2-205K20,-,46,AS,adaptive,36,↑,up,↑,0.6868564998731017,True,19,1,1,2
Y2-S2-205K20,-,47,AS,adaptive,41,→,up,↑,1.1234071999788284,False,18,-1,1,3
Y2-S2-205K20,-,48,AS,adaptive,29,↑,up,↑,0.8794517000205815,True,19,-1,0,3
Y2-S2-205K20,-,49,AS,adaptive,46,→,right,→,0.9676616000942886,True,19,-1,0,3
Y2-S2-205K20,-,50,AS,adaptive,42,←,left,←,0.6540791997686028,True,19,1,1,4
Y2-S2-205K20,1,51,PS,intra_train,43,↑,up,↑,0.5709917000494897,True,12,-,-,-
Y2-S2-205K20,1,52,PS,intra_train,42,↓,down,↓,0.6804186999797821,True,12,-,-,-
Y2-S2-205K20,1,53,PS,intra_train,36,←,right,→,1.2024868000298738,False,12,-,-,-
Y2-S2-205K20,1,54,PS,intra_train,30,↓,down,↓,0.7576129999943078,True,12,-,-,-
Y2-S2-205K20,1,55,PS,intra_train,33,↑,up,↑,0.6612415998242795,True,12,-,-,-
Y2-S2-205K20,1,56,PS,exp,36,→,right,→,0.6535152997821569,True,8,0,0,0
Y2-S2-205K20,1,57,PS,exp,27,↑,up,↑,0.5535083999857306,True,8,0,0,0
Y2-S2-205K20,1,58,PS,exp,47,→,up,↑,0.6881228000856936,False,8,-1,0,0
Y2-S2-205K20,1,59,PS,exp,33,↑,up,↑,0.5091921002604067,True,9,-1,0,0
Y2-S2-205K20,1,60,PS,exp,43,←,left,←,0.6872640000656247,True,9,-1,0,0
Y2-S2-205K20,1,61,PS,exp,39,↓,up,↑,0.6739762001670897,False,9,-1,0,0
Y2-S2-205K20,1,62,PS,exp,25,←,up,↑,1.2448505996726453,False,10,-1,0,0
Y2-S2-205K20,1,63,PS,exp,39,↓,up,↑,1.575802500359714,False,11,-1,0,0
Y2-S2-205K20,1,64,PS,exp,27,→,right,→,0.6854011001996696,True,12,-1,0,0
Y2-S2-205K20,1,65,PS,exp,40,↑,up,↑,0.563650700263679,True,12,-1,0,0
Y2-S2-205K20,1,66,PS,exp,41,↓,down,↓,0.8372131995856762,True,12,1,1,1
Y2-S2-205K20,1,67,PS,exp,26,↑,up,↑,0.4922515000216663,True,11,1,0,1
Y2-S2-205K20,1,68,PS,exp,30,↓,down,↓,0.6487865997478366,True,11,1,0,1
Y2-S2-205K20,1,69,PS,exp,45,↑,up,↑,0.5907372999936342,True,11,1,0,1
Y2-S2-205K20,1,70,PS,exp,42,→,right,→,0.5392413004301488,True,10,1,0,1
Y2-S2-205K20,1,71,PS,exp,47,↑,up,↑,0.7788458000868559,True,10,1,0,1
Y2-S2-205K20,1,72,PS,exp,35,↓,down,↓,0.7277818997390568,True,10,1,0,1
Y2-S2-205K20,1,73,PS,exp,43,←,left,←,0.6871099001727998,True,9,1,0,1
Y2-S2-205K20,1,74,PS,exp,45,→,right,→,0.6620090999640524,True,9,1,0,1
Y2-S2-205K20,1,75,PS,exp,43,↑,up,↑,0.5107102999463677,True,9,1,0,1
Y2-S2-205K20,1,76,PS,exp,49,↓,down,↓,0.7032917998731136,True,8,1,0,1
Y2-S2-205K20,1,77,PS,exp,39,←,left,←,0.70099369995296,True,8,1,0,1
Y2-S2-205K20,1,78,PS,exp,25,↑,up,↑,0.5461212997324765,True,8,1,0,1
Y2-S2-205K20,1,79,PS,exp,35,→,right,→,0.6134263998828828,True,7,1,0,1
Y2-S2-205K20,1,80,PS,exp,28,←,left,←,0.7001263001002371,True,7,1,0,1
Y2-S2-205K20,1,81,PS,exp,27,→,right,→,0.6197155998088419,True,7,1,0,1
Y2-S2-205K20,1,82,PS,exp,45,↑,up,↑,0.5109969000332057,True,6,1,0,1
Y2-S2-205K20,1,83,PS,exp,47,→,right,→,0.6658083000220358,True,6,1,0,1
Y2-S2-205K20,1,84,PS,exp,50,↑,up,↑,0.561731300316751,True,6,1,0,1
Y2-S2-205K20,1,85,PS,exp,36,←,left,←,0.6540223998017609,True,5,1,0,1
Y2-S2-205K20,1,86,PS,exp,43,↓,up,↑,0.6914093997329473,False,5,-1,1,2
Y2-S2-205K20,1,87,PS,exp,34,→,no_key,no_letter,-1.0,False,6,-1,0,2
Y2-S2-205K20,1,88,PS,exp,48,↓,down,↓,0.7705343002453446,True,7,-1,0,2
Y2-S2-205K20,1,89,PS,exp,46,←,left,←,0.5528549998998642,True,7,-1,0,2
Y2-S2-205K20,1,90,PS,exp,44,↓,down,↓,0.6762471999973059,True,7,1,1,3
Y2-S2-205K20,1,91,PS,exp,35,↑,up,↑,0.5406096996739507,True,6,1,0,3
Y2-S2-205K20,1,92,PS,exp,30,←,down,↓,0.8089506002143025,False,6,-1,1,4
Y2-S2-205K20,1,93,PS,exp,38,→,left,←,0.9917536997236311,False,7,-1,0,4
Y2-S2-205K20,1,94,PS,exp,25,↓,down,↓,0.8426342001184821,True,8,-1,0,4
Y2-S2-205K20,1,95,PS,exp,39,→,down,↓,1.1637483998201787,False,8,-1,0,4
Y2-S2-205K20,1,96,PS,exp,47,↓,down,↓,0.8883340996690094,True,9,-1,0,4
Y2-S2-205K20,1,97,PS,exp,40,←,left,←,0.6681777001358569,True,9,-1,0,4
Y2-S2-205K20,1,98,PS,exp,37,→,right,→,0.839697000104934,True,9,1,1,5
Y2-S2-205K20,1,99,PS,exp,46,↓,down,↓,0.7475374997593462,True,8,1,0,5
Y2-S2-205K20,1,100,PS,exp,45,←,left,←,0.5469515998847783,True,8,1,0,5
Y2-S2-205K20,1,101,PS,exp,50,→,right,→,0.6008787001483142,True,8,1,0,5
Y2-S2-205K20,1,102,PS,exp,47,←,left,←,0.5917810001410544,True,7,1,0,5
Y2-S2-205K20,1,103,PS,exp,43,→,down,↓,1.630433099810034,False,7,-1,1,6
Y2-S2-205K20,1,104,PS,exp,29,↓,up,↑,0.9063420998863876,False,8,-1,0,6
Y2-S2-205K20,1,105,PS,exp,39,↑,up,↑,0.6379138003103435,True,9,-1,0,6
Y2-S2-205K20,1,106,PS,exp,49,→,right,→,0.670945500023663,True,9,-1,0,6
Y2-S2-205K20,1,107,PS,exp,47,↓,down,↓,0.8120973003096879,True,9,1,1,7
Y2-S2-205K20,1,108,PS,exp,26,←,left,←,0.8264109999872744,True,8,1,0,7
Y2-S2-205K20,1,109,PS,exp,38,→,right,→,0.6253104996867478,True,8,1,0,7
Y2-S2-205K20,1,110,PS,exp,36,←,left,←,1.3086055000312626,True,8,1,0,7
Y2-S2-205K20,1,111,PS,exp,39,→,right,→,0.5236403001472354,True,7,1,0,7
Y2-S2-205K20,1,112,PS,exp,47,↑,up,↑,0.5223937998525798,True,7,1,0,7
Y2-S2-205K20,1,113,PS,exp,30,↓,down,↓,0.6005147001706064,True,7,1,0,7
Y2-S2-205K20,1,114,PS,exp,39,↑,up,↑,0.6481642997823656,True,6,1,0,7
Y2-S2-205K20,1,115,PS,exp,32,↓,down,↓,0.7149096997454762,True,6,1,0,7
Y2-S2-205K20,1,116,PS,exp,50,→,right,→,0.6389959999360144,True,6,1,0,7
Y2-S2-205K20,1,117,PS,exp,40,↑,left,←,0.6200806000269949,False,5,-1,1,8
Y2-S2-205K20,1,118,PS,exp,30,←,left,←,0.6346897999756038,True,6,-1,0,8
Y2-S2-205K20,1,119,PS,exp,27,↓,up,↑,0.5313678998500109,False,6,-1,0,8
Y2-S2-205K20,1,120,PS,exp,25,←,left,←,0.614256199914962,True,7,-1,0,8
Y2-S2-205K20,1,121,PS,exp,39,↑,up,↑,0.7537974999286234,True,7,-1,0,8
Y2-S2-205K20,1,122,PS,exp,44,→,right,→,0.7295307000167668,True,7,1,1,9
Y2-S2-205K20,1,123,PS,exp,30,↓,down,↓,0.7658930998295546,True,6,1,0,9
Y2-S2-205K20,1,124,PS,exp,46,←,left,←,0.5217391001060605,True,6,1,0,9
Y2-S2-205K20,1,125,PS,exp,50,↑,left,←,1.7136760000139475,False,6,-1,1,10
Y2-S2-205K20,1,126,PS,exp,42,↓,down,↓,0.5704117002896965,True,7,-1,0,10
Y2-S2-205K20,1,127,PS,exp,40,↑,up,↑,0.5609786002896726,True,7,-1,0,10
Y2-S2-205K20,1,128,PS,exp,39,↓,down,↓,0.7034407998435199,True,7,1,1,11
Y2-S2-205K20,1,129,PS,exp,42,→,right,→,0.5421822001226246,True,6,1,0,11
Y2-S2-205K20,1,130,PS,exp,36,←,left,←,0.42002470046281815,True,6,1,0,11
Y2-S2-205K20,1,131,PS,exp,25,→,right,→,0.46298859966918826,True,6,1,0,11
Y2-S2-205K20,1,132,PS,exp,31,↓,down,↓,0.7307275999337435,True,5,1,0,11
Y2-S2-205K20,1,133,PS,exp,48,↑,down,↓,0.607899600174278,False,5,-1,1,12
Y2-S2-205K20,1,134,PS,exp,29,→,up,↑,0.9057467002421618,False,6,-1,0,12
Y2-S2-205K20,1,135,PS,exp,47,↓,left,←,0.5111739998683333,False,7,-1,0,12
Y2-S2-205K20,1,136,PS,exp,37,→,right,→,0.6159160998649895,True,8,-1,0,12
Y2-S2-205K20,1,137,PS,exp,38,↑,up,↑,0.5238858996890485,True,8,-1,0,12
Y2-S2-205K20,1,138,PS,exp,39,←,left,←,0.5282381996512413,True,8,1,1,13
Y2-S2-205K20,1,139,PS,exp,37,↑,up,↑,0.545968399848789,True,7,1,0,13
Y2-S2-205K20,1,140,PS,exp,32,←,left,←,0.45505410013720393,True,7,1,0,13
Y2-S2-205K20,1,141,PS,exp,46,↓,down,↓,0.7237567999400198,True,7,1,0,13
Y2-S2-205K20,1,142,PS,exp,39,↑,up,↑,0.5847925995476544,True,6,1,0,13
Y2-S2-205K20,1,143,PS,exp,50,→,up,↑,0.6241073999553919,False,6,-1,1,14
Y2-S2-205K20,1,144,PS,exp,40,←,right,→,1.047007900197059,False,7,-1,0,14
Y2-S2-205K20,1,145,PS,exp,43,→,up,↑,0.6928943996317685,False,8,-1,0,14
Y2-S2-205K20,1,146,PS,exp,39,←,left,←,0.55055409995839,True,9,-1,0,14
Y2-S2-205K20,1,147,PS,exp,28,↓,down,↓,0.5636831000447273,True,9,-1,0,14
Y2-S2-205K20,1,148,PS,exp,44,←,left,←,0.5324351000599563,True,9,1,1,15
Y2-S2-205K20,1,149,PS,exp,33,↓,down,↓,0.6874377997592092,True,8,1,0,15
Y2-S2-205K20,1,150,PS,exp,47,←,left,←,0.6158235999755561,True,8,1,0,15
Y2-S2-205K20,1,151,PS,exp,41,↑,up,↑,0.6576688997447491,True,8,1,0,15
Y2-S2-205K20,1,152,PS,exp,34,→,right,→,0.5520099997520447,True,7,1,0,15
Y2-S2-205K20,1,153,PS,exp,29,↓,up,↑,1.1368741001933813,False,7,-1,1,16
Y2-S2-205K20,2,154,AS,intra_train,39,←,left,←,0.6856691003777087,True,27,-,-,-
Y2-S2-205K20,2,155,AS,intra_train,44,↓,right,→,0.6459952001459897,False,27,-,-,-
Y2-S2-205K20,2,156,AS,intra_train,49,←,left,←,0.8322155997157097,True,27,-,-,-
Y2-S2-205K20,2,157,AS,intra_train,41,→,right,→,0.7517518000677228,True,27,-,-,-
Y2-S2-205K20,2,158,AS,intra_train,39,↑,up,↑,0.8236110000871122,True,27,-,-,-
Y2-S2-205K20,2,159,AS,exp,25,→,down,↓,0.9251883998513222,False,18,-1,0,0
Y2-S2-205K20,2,160,AS,exp,44,↓,down,↓,0.8424422000534832,True,19,-1,0,0
Y2-S2-205K20,2,161,AS,exp,26,↑,up,↑,1.0259043001569808,True,19,-1,0,0
Y2-S2-205K20,2,162,AS,exp,38,←,left,←,0.7588228997774422,True,19,1,1,1
Y2-S2-205K20,2,163,AS,exp,35,↑,up,↑,0.7183678997680545,True,18,1,0,1
Y2-S2-205K20,2,164,AS,exp,26,←,up,↑,0.7912747003138065,False,18,-1,1,2
Y2-S2-205K20,2,165,AS,exp,36,↑,up,↑,0.8286250000819564,True,19,-1,0,2
Y2-S2-205K20,2,166,AS,exp,47,→,right,→,0.8303074999712408,True,19,-1,0,2
Y2-S2-205K20,2,167,AS,exp,33,←,left,←,0.7880369001068175,True,19,1,1,3
Y2-S2-205K20,2,168,AS,exp,37,→,right,→,1.1442001997493207,True,18,1,0,3
Y2-S2-205K20,2,169,AS,exp,49,←,left,←,0.7096560997888446,True,18,1,0,3
Y2-S2-205K20,2,170,AS,exp,46,↑,up,↑,0.7146304999478161,True,18,1,0,3
Y2-S2-205K20,2,171,AS,exp,48,→,up,↑,0.8801565999165177,False,17,-1,1,4
Y2-S2-205K20,2,172,AS,exp,43,↑,up,↑,0.640911600086838,True,18,-1,0,4
Y2-S2-205K20,2,173,AS,exp,45,←,left,←,0.6773934001103044,True,18,-1,0,4
Y2-S2-205K20,2,174,AS,exp,32,→,right,→,0.779538500122726,True,18,1,1,5
Y2-S2-205K20,2,175,AS,exp,36,↑,up,↑,0.6925578000955284,True,17,1,0,5
Y2-S2-205K20,2,176,AS,exp,37,↓,down,↓,1.2613425003364682,True,17,1,0,5
Y2-S2-205K20,2,177,AS,exp,33,↑,up,↑,0.5451647001318634,True,17,1,0,5
Y2-S2-205K20,2,178,AS,exp,33,↓,down,↓,0.8181664003059268,True,16,1,0,5
Y2-S2-205K20,2,179,AS,exp,44,↑,up,↑,0.5461996998637915,True,16,1,0,5
Y2-S2-205K20,2,180,AS,exp,41,↓,down,↓,0.8073908998630941,True,16,1,0,5
Y2-S2-205K20,2,181,AS,exp,27,←,left,←,0.4581818003207445,True,15,1,0,5
Y2-S2-205K20,2,182,AS,exp,25,↑,up,↑,0.8480381001718342,True,15,1,0,5
Y2-S2-205K20,2,183,AS,exp,50,→,left,←,0.6161561999469995,False,15,-1,1,6
Y2-S2-205K20,2,184,AS,exp,39,←,left,←,0.7160522998310626,True,16,-1,0,6
Y2-S2-205K20,2,185,AS,exp,29,→,right,→,0.8689724002033472,True,16,-1,0,6
Y2-S2-205K20,2,186,AS,exp,27,↓,down,↓,0.7528192000463605,True,16,1,1,7
Y2-S2-205K20,2,187,AS,exp,31,↑,up,↑,0.7819345002062619,True,15,1,0,7
Y2-S2-205K20,2,188,AS,exp,38,→,left,←,0.8512981999665499,False,15,-1,1,8
Y2-S2-205K20,2,189,AS,exp,34,←,left,←,0.698736300226301,True,16,-1,0,8
Y2-S2-205K20,2,190,AS,exp,49,↑,up,↑,0.7008818001486361,True,16,-1,0,8
Y2-S2-205K20,2,191,AS,exp,44,→,right,→,0.595435299910605,True,16,1,1,9
Y2-S2-205K20,2,192,AS,exp,25,←,left,←,0.6174721997231245,True,15,1,0,9
Y2-S2-205K20,2,193,AS,exp,37,↑,up,↑,0.570255299564451,True,15,1,0,9
Y2-S2-205K20,2,194,AS,exp,49,→,left,←,1.2485742000862956,False,15,-1,1,10
Y2-S2-205K20,2,195,AS,exp,29,↑,up,↑,0.6625798000022769,True,16,-1,0,10
Y2-S2-205K20,2,196,AS,exp,30,↓,down,↓,0.8073101998306811,True,16,-1,0,10
Y2-S2-205K20,2,197,AS,exp,32,→,up,↑,0.9343377999030054,False,16,-1,0,10
Y2-S2-205K20,2,198,AS,exp,40,↓,down,↓,0.9683634000830352,True,17,-1,0,10
Y2-S2-205K20,2,199,AS,exp,38,→,right,→,0.9672134998254478,True,17,-1,0,10
Y2-S2-205K20,2,200,AS,exp,49,↑,up,↑,0.625197000335902,True,17,1,1,11
Y2-S2-205K20,2,201,AS,exp,40,→,right,→,0.6280270996503532,True,16,1,0,11
Y2-S2-205K20,2,202,AS,exp,33,↑,up,↑,0.6999134002253413,True,16,1,0,11
Y2-S2-205K20,2,203,AS,exp,27,↓,down,↓,0.6667312998324633,True,16,1,0,11
Y2-S2-205K20,2,204,AS,exp,41,←,right,→,0.9773021000437438,False,15,-1,1,12
Y2-S2-205K20,2,205,AS,exp,29,↓,down,↓,0.695722300093621,True,16,-1,0,12
Y2-S2-205K20,2,206,AS,exp,45,↑,up,↑,0.7258053999394178,True,16,-1,0,12
Y2-S2-205K20,2,207,AS,exp,39,←,left,←,0.6217815997079015,True,16,1,1,13
Y2-S2-205K20,2,208,AS,exp,37,↓,down,↓,0.7137058000080287,True,15,1,0,13
Y2-S2-205K20,2,209,AS,exp,33,→,down,↓,1.0019241999834776,False,15,-1,1,14
Y2-S2-205K20,2,210,AS,exp,42,↓,up,↑,0.7336579998955131,False,16,-1,0,14
Y2-S2-205K20,2,211,AS,exp,45,→,up,↑,0.9549198998138309,False,17,-1,0,14
Y2-S2-205K20,2,212,AS,exp,32,↑,up,↑,0.614466399885714,True,18,-1,0,14
Y2-S2-205K20,2,213,AS,exp,30,↓,down,↓,0.9157182001508772,True,18,-1,0,14
Y2-S2-205K20,2,214,AS,exp,38,→,right,→,0.660344600211829,True,18,1,1,15
Y2-S2-205K20,2,215,AS,exp,42,↑,up,↑,0.6774237998761237,True,17,1,0,15
Y2-S2-205K20,2,216,AS,exp,36,→,right,→,0.8722287998534739,True,17,1,0,15
Y2-S2-205K20,2,217,AS,exp,26,↑,up,↑,0.6676122997887433,True,17,1,0,15
Y2-S2-205K20,2,218,AS,exp,32,←,left,←,1.3379714000038803,True,16,1,0,15
Y2-S2-205K20,2,219,AS,exp,48,→,up,↑,1.2367241997271776,False,16,-1,1,16
Y2-S2-205K20,3,220,AS,intra_train,40,↓,down,↓,1.180716299917549,True,27,-,-,-
Y2-S2-205K20,3,221,AS,intra_train,31,→,right,→,0.8657394996844232,True,27,-,-,-
Y2-S2-205K20,3,222,AS,intra_train,44,↓,down,↓,0.7423000996932387,True,27,-,-,-
Y2-S2-205K20,3,223,AS,intra_train,48,←,left,←,0.6675578998401761,True,27,-,-,-
Y2-S2-205K20,3,224,AS,intra_train,45,↑,up,↑,0.48402180010452867,True,27,-,-,-
Y2-S2-205K20,3,225,AS,exp,30,↓,down,↓,0.9187603001482785,True,18,0,0,0
Y2-S2-205K20,3,226,AS,exp,45,→,right,→,0.7282480001449585,True,18,0,0,0
Y2-S2-205K20,3,227,AS,exp,32,↓,down,↓,0.7430110001005232,True,18,1,0,0
Y2-S2-205K20,3,228,AS,exp,41,↑,up,↑,0.8391183000057936,True,17,1,0,0
Y2-S2-205K20,3,229,AS,exp,33,←,left,←,0.575777200050652,True,17,1,0,0
Y2-S2-205K20,3,230,AS,exp,43,↑,up,↑,0.6312830997630954,True,17,1,0,0
Y2-S2-205K20,3,231,AS,exp,29,←,left,←,0.5609974996186793,True,16,1,0,0
Y2-S2-205K20,3,232,AS,exp,37,↑,up,↑,0.577581699937582,True,16,1,0,0
Y2-S2-205K20,3,233,AS,exp,26,←,right,→,1.2491311002522707,False,16,-1,1,1
Y2-S2-205K20,3,234,AS,exp,50,↓,down,↓,0.7311722002923489,True,17,-1,0,1
Y2-S2-205K20,3,235,AS,exp,27,→,right,→,0.9089334001764655,True,17,-1,0,1
Y2-S2-205K20,3,236,AS,exp,44,↓,down,↓,0.9420734997838736,True,17,1,1,2
Y2-S2-205K20,3,237,AS,exp,28,←,right,→,0.829252100083977,False,16,-1,1,3
Y2-S2-205K20,3,238,AS,exp,31,↑,up,↑,0.6800984996370971,True,17,-1,0,3
Y2-S2-205K20,3,239,AS,exp,50,↓,down,↓,0.8984615001827478,True,17,-1,0,3
Y2-S2-205K20,3,240,AS,exp,42,←,left,←,0.7433616002090275,True,17,1,1,4
Y2-S2-205K20,3,241,AS,exp,26,→,right,→,0.7206848999485373,True,16,1,0,4
Y2-S2-205K20,3,242,AS,exp,43,↓,down,↓,0.9329098998568952,True,16,1,0,4
Y2-S2-205K20,3,243,AS,exp,49,←,left,←,0.741388900205493,True,16,1,0,4
Y2-S2-205K20,3,244,AS,exp,27,↑,up,↑,0.6848261002451181,True,15,1,0,4
Y2-S2-205K20,3,245,AS,exp,26,→,right,→,0.7712695002555847,True,15,1,0,4
Y2-S2-205K20,3,246,AS,exp,40,←,left,←,0.7211786000989377,True,15,1,0,4
Y2-S2-205K20,3,247,AS,exp,38,↓,up,↑,0.7202005996368825,False,14,-1,1,5
Y2-S2-205K20,3,248,AS,exp,49,→,left,←,1.0275563998147845,False,15,-1,0,5
Y2-S2-205K20,3,249,AS,exp,27,←,up,↑,0.7663879999890924,False,16,-1,0,5
Y2-S2-205K20,3,250,AS,exp,43,→,left,←,0.6847180998884141,False,17,-1,0,5
Y2-S2-205K20,3,251,AS,exp,43,←,left,←,0.6361911999993026,True,18,-1,0,5
Y2-S2-205K20,3,252,AS,exp,28,↓,down,↓,0.7662114999257028,True,18,-1,0,5
Y2-S2-205K20,3,253,AS,exp,49,→,right,→,0.7809949000366032,True,18,1,1,6
Y2-S2-205K20,3,254,AS,exp,26,↑,up,↑,0.7461184002459049,True,17,1,0,6
Y2-S2-205K20,3,255,AS,exp,27,→,right,→,0.7282611997798085,True,17,1,0,6
Y2-S2-205K20,3,256,AS,exp,38,↓,down,↓,0.8322677002288401,True,17,1,0,6
Y2-S2-205K20,3,257,AS,exp,32,↑,down,↓,0.7529437998309731,False,16,-1,1,7
Y2-S2-205K20,3,258,AS,exp,35,←,right,→,0.7705653999000788,False,17,-1,0,7
Y2-S2-205K20,3,259,AS,exp,29,↓,up,↑,0.7081261002458632,False,18,-1,0,7
Y2-S2-205K20,3,260,AS,exp,33,←,left,←,0.6360599999316037,True,19,-1,0,7
Y2-S2-205K20,3,261,AS,exp,36,↑,up,↑,0.6752593000419438,True,19,-1,0,7
Y2-S2-205K20,3,262,AS,exp,26,←,left,←,0.6663403999991715,True,19,1,1,8
Y2-S2-205K20,3,263,AS,exp,48,→,left,←,1.055142099969089,False,18,-1,1,9
Y2-S2-205K20,3,264,AS,exp,46,←,left,←,0.6329322000965476,True,19,-1,0,9
Y2-S2-205K20,3,265,AS,exp,26,→,up,↑,0.9860656000673771,False,19,-1,0,9
Y2-S2-205K20,3,266,AS,exp,42,↑,up,↑,0.7057292996905744,True,20,-1,0,9
Y2-S2-205K20,3,267,AS,exp,31,↓,down,↓,0.8092318000271916,True,20,-1,0,9
Y2-S2-205K20,3,268,AS,exp,41,←,left,←,0.7961703999899328,True,20,1,1,10
Y2-S2-205K20,3,269,AS,exp,35,↑,up,↑,0.6639116001315415,True,19,1,0,10
Y2-S2-205K20,3,270,AS,exp,41,←,left,←,0.7740795002318919,True,19,1,0,10
Y2-S2-205K20,3,271,AS,exp,29,↓,down,↓,0.9397089998237789,True,19,1,0,10
Y2-S2-205K20,3,272,AS,exp,48,↑,up,↑,0.5894185001961887,True,18,1,0,10
Y2-S2-205K20,3,273,AS,exp,47,→,right,→,0.8379774000495672,True,18,1,0,10
Y2-S2-205K20,3,274,AS,exp,38,↓,down,↓,0.7863814998418093,True,18,1,0,10
Y2-S2-205K20,3,275,AS,exp,49,←,left,←,0.7488202000968158,True,17,1,0,10
Y2-S2-205K20,3,276,AS,exp,29,↑,up,↑,1.1128739998675883,True,17,1,0,10
Y2-S2-205K20,3,277,AS,exp,31,↓,down,↓,0.7249047001823783,True,17,1,0,10
Y2-S2-205K20,3,278,AS,exp,33,→,right,→,0.5946891997009516,True,16,1,0,10
Y2-S2-205K20,3,279,AS,exp,29,↑,down,↓,0.9913138002157211,False,16,-1,1,11
Y2-S2-205K20,3,280,AS,exp,36,↓,down,↓,0.7729819999076426,True,17,-1,0,11
Y2-S2-205K20,3,281,AS,exp,36,↑,down,↓,0.7070745001547039,False,17,-1,0,11
Y2-S2-205K20,3,282,AS,exp,44,→,right,→,1.1761635998263955,True,18,-1,0,11
Y2-S2-205K20,3,283,AS,exp,30,←,right,→,1.0348155996762216,False,18,-1,0,11
Y2-S2-205K20,3,284,AS,exp,26,→,right,→,1.263623199891299,True,19,-1,0,11
Y2-S2-205K20,3,285,AS,exp,47,↑,up,↑,0.5869651003740728,True,19,-1,0,11
Y2-S2-205K20,3,286,AS,exp,25,→,right,→,0.7617851998656988,True,19,1,1,12
Y2-S2-205K20,3,287,AS,exp,38,←,left,←,1.0576386000029743,True,18,1,0,12
Y2-S2-205K20,3,288,AS,exp,29,→,right,→,0.7551249000243843,True,18,1,0,12
Y2-S2-205K20,3,289,AS,exp,34,↑,up,↑,0.7793470001779497,True,18,1,0,12
Y2-S2-205K20,3,290,AS,exp,43,→,right,→,0.5457729999907315,True,17,1,0,12
Y2-S2-205K20,3,291,AS,exp,30,↓,down,↓,0.679943900089711,True,17,1,0,12
Y2-S2-205K20,3,292,AS,exp,29,←,left,←,0.5458327000960708,True,17,1,0,12
Y2-S2-205K20,3,293,AS,exp,31,→,down,↓,0.8561159996315837,False,16,-1,1,13
Y2-S2-205K20,3,294,AS,exp,31,↓,down,↓,0.6857052999548614,True,17,-1,0,13
Y2-S2-205K20,3,295,AS,exp,41,↑,up,↑,0.8423580001108348,True,17,-1,0,13
Y2-S2-205K20,3,296,AS,exp,31,←,left,←,0.6264232001267374,True,17,1,1,14
Y2-S2-205K20,3,297,AS,exp,25,↑,up,↑,0.6511570997536182,True,16,1,0,14
Y2-S2-205K20,3,298,AS,exp,30,←,up,↑,1.2362747001461685,False,16,-1,1,15
Y2-S2-205K20,3,299,AS,exp,28,↑,up,↑,0.5742216999642551,True,17,-1,0,15
Y2-S2-205K20,3,300,AS,exp,40,→,right,→,0.7184901000000536,True,17,-1,0,15
Y2-S2-205K20,3,301,AS,exp,42,↓,up,↑,1.2122676996514201,False,17,-1,0,15
Y2-S2-205K20,3,302,AS,exp,44,→,right,→,0.8335644002072513,True,18,-1,0,15
Y2-S2-205K20,3,303,AS,exp,46,↑,left,←,0.9594111000187695,False,18,-1,0,15
Y2-S2-205K20,3,304,AS,exp,28,←,left,←,0.7393151996657252,True,19,-1,0,15
Y2-S2-205K20,3,305,AS,exp,28,→,right,→,0.8911512000486255,True,19,-1,0,15
Y2-S2-205K20,3,306,AS,exp,43,↓,down,↓,0.8524329997599125,True,19,1,1,16
Y2-S2-205K20,4,307,PS,intra_train,29,←,left,←,0.6750661004334688,True,12,-,-,-
Y2-S2-205K20,4,308,PS,intra_train,32,→,right,→,0.5743363997898996,True,12,-,-,-
Y2-S2-205K20,4,309,PS,intra_train,47,↑,up,↑,0.5965112997218966,True,12,-,-,-
Y2-S2-205K20,4,310,PS,intra_train,26,↓,left,←,0.8312266999855638,False,12,-,-,-
Y2-S2-205K20,4,311,PS,intra_train,45,→,right,→,0.7814186001196504,True,12,-,-,-
Y2-S2-205K20,4,312,PS,exp,32,↓,down,↓,0.6484933998435736,True,8,0,0,0
Y2-S2-205K20,4,313,PS,exp,35,←,up,↑,0.6116562997922301,False,8,-1,0,0
Y2-S2-205K20,4,314,PS,exp,26,↑,up,↑,0.5043808002956212,True,9,-1,0,0
Y2-S2-205K20,4,315,PS,exp,31,←,left,←,0.5343785998411477,True,9,-1,0,0
Y2-S2-205K20,4,316,PS,exp,49,↑,left,←,0.6094760997220874,False,9,-1,0,0
Y2-S2-205K20,4,317,PS,exp,41,→,right,→,0.5174112999811769,True,10,-1,0,0
Y2-S2-205K20,4,318,PS,exp,32,↓,down,↓,0.8607185003347695,True,10,-1,0,0
Y2-S2-205K20,4,319,PS,exp,34,↑,up,↑,0.45639090007171035,True,10,1,1,1
Y2-S2-205K20,4,320,PS,exp,35,←,up,↑,0.5924289999529719,False,9,-1,1,2
Y2-S2-205K20,4,321,PS,exp,40,↑,up,↑,0.48280120035633445,True,10,-1,0,2
Y2-S2-205K20,4,322,PS,exp,30,←,left,←,0.5385969001799822,True,10,-1,0,2
Y2-S2-205K20,4,323,PS,exp,48,↓,up,↑,0.4538754001259804,False,10,-1,0,2
Y2-S2-205K20,4,324,PS,exp,28,←,left,←,0.5990769998170435,True,11,-1,0,2
Y2-S2-205K20,4,325,PS,exp,43,↓,down,↓,0.5629198998212814,True,11,-1,0,2
Y2-S2-205K20,4,326,PS,exp,27,↑,down,↓,0.8581174002029002,False,11,-1,0,2
Y2-S2-205K20,4,327,PS,exp,40,→,right,→,0.7239058003760874,True,12,-1,0,2
Y2-S2-205K20,4,328,PS,exp,50,←,left,←,0.6687427996657789,True,12,-1,0,2
Y2-S2-205K20,4,329,PS,exp,40,→,down,↓,0.7554432000033557,False,12,-1,0,2
Y2-S2-205K20,4,330,PS,exp,46,←,left,←,0.5723201003856957,True,13,-1,0,2
Y2-S2-205K20,4,331,PS,exp,41,↓,down,↓,0.5475010997615755,True,13,-1,0,2
Y2-S2-205K20,4,332,PS,exp,34,←,right,→,0.6203339002095163,False,13,-1,0,2
Y2-S2-205K20,4,333,PS,exp,39,→,right,→,0.5386071000248194,True,14,-1,0,2
Y2-S2-205K20,4,334,PS,exp,42,↑,up,↑,0.8158157002180815,True,14,-1,0,2
Y2-S2-205K20,4,335,PS,exp,32,→,right,→,0.6589097999967635,True,14,1,1,3
Y2-S2-205K20,4,336,PS,exp,41,←,right,→,0.764801500365138,False,13,-1,1,4
Y2-S2-205K20,4,337,PS,exp,48,↓,down,↓,0.6903693000786006,True,14,-1,0,4
Y2-S2-205K20,4,338,PS,exp,40,↑,up,↑,0.7474345997907221,True,14,-1,0,4
Y2-S2-205K20,4,339,PS,exp,44,←,left,←,0.6707599000073969,True,14,1,1,5
Y2-S2-205K20,4,340,PS,exp,25,→,right,→,0.650564800016582,True,13,1,0,5
Y2-S2-205K20,4,341,PS,exp,35,↓,down,↓,0.6476429998874664,True,13,1,0,5
Y2-S2-205K20,4,342,PS,exp,31,→,right,→,0.5052867000922561,True,13,1,0,5
Y2-S2-205K20,4,343,PS,exp,34,↓,down,↓,0.5197062003426254,True,12,1,0,5
Y2-S2-205K20,4,344,PS,exp,43,→,right,→,0.442852099891752,True,12,1,0,5
Y2-S2-205K20,4,345,PS,exp,48,←,left,←,0.5278050000779331,True,12,1,0,5
Y2-S2-205K20,4,346,PS,exp,34,↓,down,↓,0.44025069987401366,True,11,1,0,5
Y2-S2-205K20,4,347,PS,exp,45,→,right,→,0.429163399618119,True,11,1,0,5
Y2-S2-205K20,4,348,PS,exp,42,↑,down,↓,0.5922323004342616,False,11,-1,1,6
Y2-S2-205K20,4,349,PS,exp,50,↓,down,↓,0.7068304000422359,True,12,-1,0,6
Y2-S2-205K20,4,350,PS,exp,44,↑,up,↑,0.5717815002426505,True,12,-1,0,6
Y2-S2-205K20,4,351,PS,exp,31,↓,down,↓,0.513219399843365,True,12,1,1,7
Y2-S2-205K20,4,352,PS,exp,26,↑,down,↓,0.8045911001972854,False,11,-1,1,8
Y2-S2-205K20,4,353,PS,exp,37,→,right,→,0.4193304004147649,True,12,-1,0,8
Y2-S2-205K20,4,354,PS,exp,39,↓,down,↓,0.6067694998346269,True,12,-1,0,8
Y2-S2-205K20,4,355,PS,exp,38,↑,up,↑,0.587930700276047,True,12,1,1,9
Y2-S2-205K20,4,356,PS,exp,34,←,left,←,0.497454599943012,True,11,1,0,9
Y2-S2-205K20,4,357,PS,exp,33,↓,down,↓,0.6216239999048412,True,11,1,0,9
Y2-S2-205K20,4,358,PS,exp,40,↑,up,↑,0.8337842999026179,True,11,1,0,9
Y2-S2-205K20,4,359,PS,exp,29,←,left,←,0.5160636999644339,True,10,1,0,9
Y2-S2-205K20,4,360,PS,exp,25,↑,down,↓,0.9127164003439248,False,10,-1,1,10
Y2-S2-205K20,4,361,PS,exp,48,←,left,←,0.5957887000404298,True,11,-1,0,10
Y2-S2-205K20,4,362,PS,exp,43,↓,up,↑,0.8948360998183489,False,11,-1,0,10
Y2-S2-205K20,4,363,PS,exp,33,↑,up,↑,0.47841589991003275,True,12,-1,0,10
Y2-S2-205K20,4,364,PS,exp,33,←,left,←,0.47726549999788404,True,12,-1,0,10
Y2-S2-205K20,4,365,PS,exp,25,↑,up,↑,0.6799586000852287,True,12,1,1,11
Y2-S2-205K20,4,366,PS,exp,40,↓,down,↓,0.7211731998249888,True,11,1,0,11
Y2-S2-205K20,4,367,PS,exp,34,←,left,←,0.47003589989617467,True,11,1,0,11
Y2-S2-205K20,4,368,PS,exp,34,↑,left,←,0.6752758999355137,False,11,-1,1,12
Y2-S2-205K20,4,369,PS,exp,44,→,left,←,1.0127001996152103,False,12,-1,0,12
Y2-S2-205K20,4,370,PS,exp,47,↓,down,↓,0.8092279001139104,True,13,-1,0,12
Y2-S2-205K20,4,371,PS,exp,48,←,left,←,0.6768316002562642,True,13,-1,0,12
Y2-S2-205K20,4,372,PS,exp,46,↑,up,↑,0.5914272000081837,True,13,1,1,13
Y2-S2-205K20,4,373,PS,exp,46,↓,down,↓,0.9928689999505877,True,12,1,0,13
Y2-S2-205K20,4,374,PS,exp,42,↑,up,↑,0.4986155000515282,True,12,1,0,13
Y2-S2-205K20,4,375,PS,exp,48,→,right,→,1.1859035999514163,True,12,1,0,13
Y2-S2-205K20,4,376,PS,exp,50,↑,up,↑,0.7207057997584343,True,11,1,0,13
Y2-S2-205K20,4,377,PS,exp,49,←,left,←,0.5550962002016604,True,11,1,0,13
Y2-S2-205K20,4,378,PS,exp,31,↑,up,↑,0.49636130034923553,True,11,1,0,13
Y2-S2-205K20,4,379,PS,exp,39,→,right,→,0.5679362998344004,True,10,1,0,13
Y2-S2-205K20,4,380,PS,exp,45,↓,down,↓,0.8316266997717321,True,10,1,0,13
Y2-S2-205K20,4,381,PS,exp,36,→,right,→,0.6139301001094282,True,10,1,0,13
Y2-S2-205K20,4,382,PS,exp,47,↑,up,↑,0.5702101998031139,True,9,1,0,13
Y2-S2-205K20,4,383,PS,exp,44,→,right,→,0.5980561999604106,True,9,1,0,13
Y2-S2-205K20,4,384,PS,exp,39,←,left,←,0.4963599001057446,True,9,1,0,13
Y2-S2-205K20,4,385,PS,exp,48,→,right,→,0.5745582999661565,True,8,1,0,13
Y2-S2-205K20,4,386,PS,exp,34,←,left,←,0.45188619988039136,True,8,1,0,13
Y2-S2-205K20,4,387,PS,exp,44,↑,up,↑,0.5559435002505779,True,8,1,0,13
Y2-S2-205K20,4,388,PS,exp,43,←,left,←,0.8503681002184749,True,7,1,0,13
Y2-S2-205K20,4,389,PS,exp,26,↑,down,↓,0.9862585999071598,False,7,-1,1,14
Y2-S2-205K20,4,390,PS,exp,47,↓,down,↓,0.5580599000677466,True,8,-1,0,14
Y2-S2-205K20,4,391,PS,exp,35,↑,up,↑,0.7337222001515329,True,8,-1,0,14
Y2-S2-205K20,4,392,PS,exp,26,↓,up,↑,0.8147555999457836,False,8,-1,0,14
Y2-S2-205K20,4,393,PS,exp,30,→,right,→,0.5459928996860981,True,9,-1,0,14
Y2-S2-205K20,4,394,PS,exp,29,↓,down,↓,0.9052045000717044,True,9,-1,0,14
Y2-S2-205K20,4,395,PS,exp,41,→,right,→,0.5137915001250803,True,9,1,1,15
Y2-S2-205K20,4,396,PS,exp,44,←,down,↓,0.8930413001216948,False,8,-1,1,16
Y2-S2-205K20,5,397,PS,intra_train,41,→,right,→,0.6141055002808571,True,12,-,-,-
Y2-S2-205K20,5,398,PS,intra_train,43,↓,down,↓,0.7757282997481525,True,12,-,-,-
Y2-S2-205K20,5,399,PS,intra_train,31,→,right,→,0.6661717998795211,True,12,-,-,-
Y2-S2-205K20,5,400,PS,intra_train,46,↑,up,↑,0.6061808997765183,True,12,-,-,-
Y2-S2-205K20,5,401,PS,intra_train,27,↓,down,↓,0.8627438000403345,True,12,-,-,-
Y2-S2-205K20,5,402,PS,exp,32,↑,up,↑,0.6851210002787411,True,8,0,0,0
Y2-S2-205K20,5,403,PS,exp,45,→,right,→,0.9967693998478353,True,8,0,0,0
Y2-S2-205K20,5,404,PS,exp,33,←,left,←,0.9105752999894321,True,8,1,0,0
Y2-S2-205K20,5,405,PS,exp,32,↓,right,→,0.7867604000493884,False,7,-1,1,1
Y2-S2-205K20,5,406,PS,exp,49,→,up,↑,1.38339430000633,False,8,-1,0,1
Y2-S2-205K20,5,407,PS,exp,44,↓,left,←,1.2307737995870411,False,9,-1,0,1
Y2-S2-205K20,5,408,PS,exp,31,←,left,←,0.72029779991135,True,10,-1,0,1
Y2-S2-205K20,5,409,PS,exp,48,↑,up,↑,0.7128934999927878,True,10,-1,0,1
Y2-S2-205K20,5,410,PS,exp,49,←,left,←,0.8938214001245797,True,10,1,1,2
Y2-S2-205K20,5,411,PS,exp,40,↑,up,↑,0.7943074000068009,True,9,1,0,2
Y2-S2-205K20,5,412,PS,exp,29,←,right,→,1.113876299932599,False,9,-1,1,3
Y2-S2-205K20,5,413,PS,exp,32,↑,up,↑,1.2392183002084494,True,10,-1,0,3
Y2-S2-205K20,5,414,PS,exp,47,↓,down,↓,0.8895792001858354,True,10,-1,0,3
Y2-S2-205K20,5,415,PS,exp,34,↑,up,↑,0.5863351002335548,True,10,1,1,4
Y2-S2-205K20,5,416,PS,exp,32,↓,right,→,0.9535521999932826,False,9,-1,1,5
Y2-S2-205K20,5,417,PS,exp,39,↑,up,↑,0.6917314003221691,True,10,-1,0,5
Y2-S2-205K20,5,418,PS,exp,27,→,up,↑,0.8377855001017451,False,10,-1,0,5
Y2-S2-205K20,5,419,PS,exp,27,↑,up,↑,0.5223940000869334,True,11,-1,0,5
Y2-S2-205K20,5,420,PS,exp,37,→,right,→,0.42258460028097034,True,11,-1,0,5
Y2-S2-205K20,5,421,PS,exp,43,↓,down,↓,0.7464924999512732,True,11,1,1,6
Y2-S2-205K20,5,422,PS,exp,39,→,right,→,0.6521833003498614,True,10,1,0,6
Y2-S2-205K20,5,423,PS,exp,25,↑,up,↑,0.8287893002852798,True,10,1,0,6
Y2-S2-205K20,5,424,PS,exp,45,→,left,←,0.5972512997686863,False,10,-1,1,7
Y2-S2-205K20,5,425,PS,exp,45,←,left,←,0.5951549001038074,True,11,-1,0,7
Y2-S2-205K20,5,426,PS,exp,31,↓,down,↓,0.7252709995955229,True,11,-1,0,7
Y2-S2-205K20,5,427,PS,exp,42,↑,up,↑,0.6084344000555575,True,11,1,1,8
Y2-S2-205K20,5,428,PS,exp,41,←,left,←,0.5317326001822948,True,10,1,0,8
Y2-S2-205K20,5,429,PS,exp,36,→,right,→,0.6094423001632094,True,10,1,0,8
Y2-S2-205K20,5,430,PS,exp,50,←,left,←,0.5350991999730468,True,10,1,0,8
Y2-S2-205K20,5,431,PS,exp,40,↑,up,↑,0.6330082998611033,True,9,1,0,8
Y2-S2-205K20,5,432,PS,exp,36,↓,down,↓,0.8289215001277626,True,9,1,0,8
Y2-S2-205K20,5,433,PS,exp,44,↑,up,↑,0.5753162000328302,True,9,1,0,8
Y2-S2-205K20,5,434,PS,exp,49,→,right,→,0.5895827999338508,True,8,1,0,8
Y2-S2-205K20,5,435,PS,exp,29,↓,down,↓,0.6942966999486089,True,8,1,0,8
Y2-S2-205K20,5,436,PS,exp,44,←,left,←,0.5530754001811147,True,8,1,0,8
Y2-S2-205K20,5,437,PS,exp,37,↑,up,↑,0.7033865000121295,True,7,1,0,8
Y2-S2-205K20,5,438,PS,exp,39,→,right,→,0.5689938999712467,True,7,1,0,8
Y2-S2-205K20,5,439,PS,exp,40,←,left,←,0.5118267997168005,True,7,1,0,8
Y2-S2-205K20,5,440,PS,exp,46,→,left,←,0.6862298003397882,False,6,-1,1,9
Y2-S2-205K20,5,441,PS,exp,41,←,up,↑,1.074377799872309,False,7,-1,0,9
Y2-S2-205K20,5,442,PS,exp,50,→,left,←,0.952619600109756,False,8,-1,0,9
Y2-S2-205K20,5,443,PS,exp,43,←,left,←,0.6489567998796701,True,9,-1,0,9
Y2-S2-205K20,5,444,PS,exp,30,↑,up,↑,0.5767864999361336,True,9,-1,0,9
Y2-S2-205K20,5,445,PS,exp,37,↓,down,↓,0.7132349000312388,True,9,1,1,10
Y2-S2-205K20,5,446,PS,exp,45,↑,up,↑,0.7761222003027797,True,8,1,0,10
Y2-S2-205K20,5,447,PS,exp,36,←,left,←,0.5752220000140369,True,8,1,0,10
Y2-S2-205K20,5,448,PS,exp,37,↓,down,↓,0.6660891002975404,True,8,1,0,10
Y2-S2-205K20,5,449,PS,exp,46,→,right,→,0.6320501998998225,True,7,1,0,10
Y2-S2-205K20,5,450,PS,exp,48,←,left,←,0.5635596001520753,True,7,1,0,10
Y2-S2-205K20,5,451,PS,exp,48,↑,up,↑,0.5715196998789907,True,7,1,0,10
Y2-S2-205K20,5,452,PS,exp,48,←,left,←,0.5509625002741814,True,6,1,0,10
Y2-S2-205K20,5,453,PS,exp,30,→,right,→,0.8013467998243868,True,6,1,0,10
Y2-S2-205K20,5,454,PS,exp,36,↑,up,↑,0.43700340017676353,True,6,1,0,10
Y2-S2-205K20,5,455,PS,exp,36,←,left,←,0.4415274001657963,True,5,1,0,10
Y2-S2-205K20,5,456,PS,exp,46,↓,down,↓,0.7751499000005424,True,5,1,0,10
Y2-S2-205K20,5,457,PS,exp,38,↑,left,←,0.4463502001017332,False,5,-1,1,11
Y2-S2-205K20,5,458,PS,exp,39,←,left,←,0.5005908999592066,True,6,-1,0,11
Y2-S2-205K20,5,459,PS,exp,35,→,right,→,0.5198450000025332,True,6,-1,0,11
Y2-S2-205K20,5,460,PS,exp,45,↓,right,→,0.9178673001006246,False,6,-1,0,11
Y2-S2-205K20,5,461,PS,exp,25,←,right,→,0.8482560003176332,False,7,-1,0,11
Y2-S2-205K20,5,462,PS,exp,45,↓,up,↑,0.7141925999894738,False,8,-1,0,11
Y2-S2-205K20,5,463,PS,exp,42,↑,up,↑,0.5452006002888083,True,9,-1,0,11
Y2-S2-205K20,5,464,PS,exp,37,→,right,→,0.593796799890697,True,9,-1,0,11
Y2-S2-205K20,5,465,PS,exp,33,↓,down,↓,0.6244215001352131,True,9,1,1,12
Y2-S2-205K20,5,466,PS,exp,40,←,left,←,0.7414861000142992,True,8,1,0,12
Y2-S2-205K20,5,467,PS,exp,50,↑,up,↑,0.5619374997913837,True,8,1,0,12
Y2-S2-205K20,5,468,PS,exp,49,→,right,→,0.329927199985832,True,8,1,0,12
Y2-S2-205K20,5,469,PS,exp,31,↓,down,↓,0.5658971001394093,True,7,1,0,12
Y2-S2-205K20,5,470,PS,exp,46,→,left,←,0.4381482000462711,False,7,-1,1,13
Y2-S2-205K20,5,471,PS,exp,26,←,left,←,0.5735188000835478,True,8,-1,0,13
Y2-S2-205K20,5,472,PS,exp,30,→,right,→,0.6300611002370715,True,8,-1,0,13
Y2-S2-205K20,5,473,PS,exp,30,↓,right,→,0.9698001998476684,False,8,-1,0,13
Y2-S2-205K20,5,474,PS,exp,41,→,right,→,0.7861655000597239,True,9,-1,0,13
Y2-S2-205K20,5,475,PS,exp,40,↑,up,↑,0.5807213997468352,True,9,-1,0,13
Y2-S2-205K20,5,476,PS,exp,28,←,left,←,0.5580696002580225,True,9,1,1,14
Y2-S2-205K20,5,477,PS,exp,37,↑,up,↑,0.8360282997600734,True,8,1,0,14
Y2-S2-205K20,5,478,PS,exp,32,↓,down,↓,0.8589320997707546,True,8,1,0,14
Y2-S2-205K20,5,479,PS,exp,50,←,left,←,0.6813719002529979,True,8,1,0,14
Y2-S2-205K20,5,480,PS,exp,50,↑,down,↓,0.9900715998373926,False,7,-1,1,15
Y2-S2-205K20,5,481,PS,exp,40,←,left,←,0.7280597998760641,True,8,-1,0,15
Y2-S2-205K20,5,482,PS,exp,49,↓,down,↓,0.6664688000455499,True,8,-1,0,15
Y2-S2-205K20,5,483,PS,exp,32,↑,up,↑,0.5521282004192472,True,8,1,1,16
Y2-S2-205K20,6,484,AS,intra_train,26,←,left,←,0.8287229002453387,True,27,-,-,-
Y2-S2-205K20,6,485,AS,intra_train,45,↓,down,↓,0.9495437000878155,True,27,-,-,-
Y2-S2-205K20,6,486,AS,intra_train,29,↑,up,↑,1.7779986998066306,True,27,-,-,-
Y2-S2-205K20,6,487,AS,intra_train,44,←,left,←,0.864725099876523,True,27,-,-,-
Y2-S2-205K20,6,488,AS,intra_train,42,→,right,→,0.9106481997296214,True,27,-,-,-
Y2-S2-205K20,6,489,AS,exp,42,←,left,←,0.7311807000078261,True,18,0,0,0
Y2-S2-205K20,6,490,AS,exp,27,↑,up,↑,0.7355917999520898,True,18,0,0,0
Y2-S2-205K20,6,491,AS,exp,40,←,left,←,0.761237199883908,True,18,1,0,0
Y2-S2-205K20,6,492,AS,exp,34,→,up,↑,1.1754985000006855,False,17,-1,1,1
Y2-S2-205K20,6,493,AS,exp,41,←,left,←,0.6530912001617253,True,18,-1,0,1
Y2-S2-205K20,6,494,AS,exp,48,↓,down,↓,0.8814317998476326,True,18,-1,0,1
Y2-S2-205K20,6,495,AS,exp,42,↑,up,↑,0.8209366002120078,True,18,1,1,2
Y2-S2-205K20,6,496,AS,exp,44,←,up,↑,0.7682859003543854,False,17,-1,1,3
Y2-S2-205K20,6,497,AS,exp,33,↓,left,←,1.9631554000079632,False,18,-1,0,3
Y2-S2-205K20,6,498,AS,exp,29,↑,up,↑,1.072292000055313,True,19,-1,0,3
Y2-S2-205K20,6,499,AS,exp,50,→,up,↑,1.1718474999070168,False,19,-1,0,3
Y2-S2-205K20,6,500,AS,exp,34,↑,no_key,no_letter,-1.0,False,20,-1,0,3
Y2-S2-205K20,6,501,AS,exp,49,→,right,→,0.8808392998762429,True,21,-1,0,3
Y2-S2-205K20,6,502,AS,exp,48,←,left,←,0.6525016999803483,True,21,-1,0,3
Y2-S2-205K20,6,503,AS,exp,27,↓,down,↓,0.829712999984622,True,21,1,1,4
Y2-S2-205K20,6,504,AS,exp,33,←,left,←,0.5717381001450121,True,20,1,0,4
Y2-S2-205K20,6,505,AS,exp,45,↑,up,↑,0.7753106001764536,True,20,1,0,4
Y2-S2-205K20,6,506,AS,exp,27,→,right,→,0.891669100150466,True,20,1,0,4
Y2-S2-205K20,6,507,AS,exp,36,←,left,←,0.5516474000178277,True,19,1,0,4
Y2-S2-205K20,6,508,AS,exp,33,↑,down,↓,0.9942582999356091,False,19,-1,1,5
Y2-S2-205K20,6,509,AS,exp,46,←,left,←,0.8599229999817908,True,20,-1,0,5
Y2-S2-205K20,6,510,AS,exp,46,↓,down,↓,0.6066160998307168,True,20,-1,0,5
Y2-S2-205K20,6,511,AS,exp,48,←,left,←,0.7061197999864817,True,20,1,1,6
Y2-S2-205K20,6,512,AS,exp,46,↓,down,↓,0.6176959001459181,True,19,1,0,6
Y2-S2-205K20,6,513,AS,exp,50,↑,down,↓,0.9739407999441028,False,19,-1,1,7
Y2-S2-205K20,6,514,AS,exp,27,←,left,←,0.5108725000172853,True,20,-1,0,7
Y2-S2-205K20,6,515,AS,exp,32,↑,up,↑,0.8951595001854002,True,20,-1,0,7
Y2-S2-205K20,6,516,AS,exp,44,←,left,←,1.2956127999350429,True,20,1,1,8
Y2-S2-205K20,6,517,AS,exp,30,↑,up,↑,0.538185500074178,True,19,1,0,8
Y2-S2-205K20,6,518,AS,exp,45,←,left,←,0.8228269997052848,True,19,1,0,8
Y2-S2-205K20,6,519,AS,exp,50,↓,down,↓,0.8149235001765192,True,19,1,0,8
Y2-S2-205K20,6,520,AS,exp,39,←,left,←,0.7287914999760687,True,18,1,0,8
Y2-S2-205K20,6,521,AS,exp,38,→,right,→,0.9313860000111163,True,18,1,0,8
Y2-S2-205K20,6,522,AS,exp,43,←,left,←,0.5925263999961317,True,18,1,0,8
Y2-S2-205K20,6,523,AS,exp,49,→,right,→,0.7691147001460195,True,17,1,0,8
Y2-S2-205K20,6,524,AS,exp,28,↓,down,↓,0.6986299999989569,True,17,1,0,8
Y2-S2-205K20,6,525,AS,exp,42,→,right,→,0.5683172000572085,True,17,1,0,8
Y2-S2-205K20,6,526,AS,exp,44,←,left,←,0.5003368002362549,True,16,1,0,8
Y2-S2-205K20,6,527,AS,exp,33,→,right,→,0.7067435001954436,True,16,1,0,8
Y2-S2-205K20,6,528,AS,exp,28,↓,right,→,1.258876800071448,False,16,-1,1,9
Y2-S2-205K20,6,529,AS,exp,34,←,left,←,0.6490714000537992,True,17,-1,0,9
Y2-S2-205K20,6,530,AS,exp,34,↑,up,↑,0.8878644001670182,True,17,-1,0,9
Y2-S2-205K20,6,531,AS,exp,45,→,right,→,0.5573021001182497,True,17,1,1,10
Y2-S2-205K20,6,532,AS,exp,36,↑,up,↑,0.6861859997734427,True,16,1,0,10
Y2-S2-205K20,6,533,AS,exp,38,→,right,→,0.9291754001751542,True,16,1,0,10
Y2-S2-205K20,6,534,AS,exp,39,←,right,→,1.2756245001219213,False,16,-1,1,11
Y2-S2-205K20,6,535,AS,exp,33,↓,down,↓,1.248794499784708,True,17,-1,0,11
Y2-S2-205K20,6,536,AS,exp,47,↑,up,↑,0.611209699884057,True,17,-1,0,11
Y2-S2-205K20,6,537,AS,exp,42,↓,up,↑,0.8550132997334003,False,17,-1,0,11
Y2-S2-205K20,6,538,AS,exp,44,→,right,→,0.6669024997390807,True,18,-1,0,11
Y2-S2-205K20,6,539,AS,exp,34,↑,up,↑,0.5805826000869274,True,18,-1,0,11
Y2-S2-205K20,6,540,AS,exp,44,←,right,→,0.7962617999874055,False,18,-1,0,11
Y2-S2-205K20,6,541,AS,exp,40,→,right,→,0.5836376002989709,True,19,-1,0,11
Y2-S2-205K20,6,542,AS,exp,28,↓,down,↓,1.015493799932301,True,19,-1,0,11
Y2-S2-205K20,6,543,AS,exp,27,↑,up,↑,0.7347389999777079,True,19,1,1,12
Y2-S2-205K20,6,544,AS,exp,35,←,right,→,0.8365569999441504,False,18,-1,1,13
Y2-S2-205K20,6,545,AS,exp,49,↓,up,↑,0.9551051999442279,False,19,-1,0,13
Y2-S2-205K20,6,546,AS,exp,49,→,right,→,0.6743402001447976,True,20,-1,0,13
Y2-S2-205K20,6,547,AS,exp,29,↑,up,↑,0.9884652001783252,True,20,-1,0,13
Y2-S2-205K20,6,548,AS,exp,43,→,right,→,0.8018269999884069,True,20,1,1,14
Y2-S2-205K20,6,549,AS,exp,37,←,left,←,0.7251196997240186,True,19,1,0,14
Y2-S2-205K20,6,550,AS,exp,41,↓,down,↓,0.7947786999866366,True,19,1,0,14
Y2-S2-205K20,6,551,AS,exp,49,↑,up,↑,0.5896607995964587,True,19,1,0,14
Y2-S2-205K20,6,552,AS,exp,35,←,left,←,0.5425825002603233,True,18,1,0,14
Y2-S2-205K20,6,553,AS,exp,41,→,right,→,0.774942500051111,True,18,1,0,14
Y2-S2-205K20,6,554,AS,exp,50,↑,up,↑,0.821743099950254,True,18,1,0,14
Y2-S2-205K20,6,555,AS,exp,25,→,right,→,0.7731009996496141,True,17,1,0,14
Y2-S2-205K20,6,556,AS,exp,41,↑,up,↑,0.5149883003905416,True,17,1,0,14
Y2-S2-205K20,6,557,AS,exp,37,↓,up,↑,0.8404214000329375,False,17,-1,1,15
Y2-S2-205K20,6,558,AS,exp,35,→,right,→,0.4909314000979066,True,18,-1,0,15
Y2-S2-205K20,6,559,AS,exp,38,←,left,←,0.5731019000522792,True,18,-1,0,15
Y2-S2-205K20,6,560,AS,exp,29,↑,up,↑,0.5440353997983038,True,18,1,1,16
Y2-S2-205K20,7,561,AS,intra_train,33,←,left,←,1.3492322000674903,True,27,-,-,-
Y2-S2-205K20,7,562,AS,intra_train,25,↓,down,↓,0.8643752001225948,True,27,-,-,-
Y2-S2-205K20,7,563,AS,intra_train,39,↑,up,↑,0.7529942002147436,True,27,-,-,-
Y2-S2-205K20,7,564,AS,intra_train,33,←,left,←,0.7939510997384787,True,27,-,-,-
Y2-S2-205K20,7,565,AS,intra_train,34,↓,down,↓,0.8061302001588047,True,27,-,-,-
Y2-S2-205K20,7,566,AS,exp,25,←,left,←,0.5182647998444736,True,18,0,0,0
Y2-S2-205K20,7,567,AS,exp,47,↓,down,↓,0.7773211998865008,True,18,0,0,0
Y2-S2-205K20,7,568,AS,exp,30,→,right,→,0.8101868000812829,True,18,1,0,0
Y2-S2-205K20,7,569,AS,exp,28,↑,up,↑,0.6920920996926725,True,17,1,0,0
Y2-S2-205K20,7,570,AS,exp,47,←,left,←,0.6267995000816882,True,17,1,0,0
Y2-S2-205K20,7,571,AS,exp,46,↑,up,↑,0.7562157004140317,True,17,1,0,0
Y2-S2-205K20,7,572,AS,exp,43,→,right,→,0.8033042000606656,True,16,1,0,0
Y2-S2-205K20,7,573,AS,exp,48,↑,up,↑,0.6546571999788284,True,16,1,0,0
Y2-S2-205K20,7,574,AS,exp,36,←,left,←,0.5664399000816047,True,16,1,0,0
Y2-S2-205K20,7,575,AS,exp,29,→,right,→,0.7775310999713838,True,15,1,0,0
Y2-S2-205K20,7,576,AS,exp,36,↓,down,↓,0.8547520996071398,True,15,1,0,0
Y2-S2-205K20,7,577,AS,exp,47,↑,up,↑,0.8615574003197253,True,15,1,0,0
Y2-S2-205K20,7,578,AS,exp,48,←,left,←,0.6970238997600973,True,14,1,0,0
Y2-S2-205K20,7,579,AS,exp,46,↓,down,↓,0.9213243997655809,True,14,1,0,0
Y2-S2-205K20,7,580,AS,exp,42,↑,up,↑,0.8155338000506163,True,14,1,0,0
Y2-S2-205K20,7,581,AS,exp,40,→,left,←,0.7828286001458764,False,13,-1,1,1
Y2-S2-205K20,7,582,AS,exp,43,↓,down,↓,0.6902258996851742,True,14,-1,0,1
Y2-S2-205K20,7,583,AS,exp,45,↑,up,↑,0.9123315997421741,True,14,-1,0,1
Y2-S2-205K20,7,584,AS,exp,31,←,up,↑,0.6656390000134706,False,14,-1,0,1
Y2-S2-205K20,7,585,AS,exp,44,↑,up,↑,0.8568194000981748,True,15,-1,0,1
Y2-S2-205K20,7,586,AS,exp,44,→,right,→,0.7425077999942005,True,15,-1,0,1
Y2-S2-205K20,7,587,AS,exp,36,←,right,→,0.9185025999322534,False,15,-1,0,1
Y2-S2-205K20,7,588,AS,exp,26,↑,up,↑,0.6827109004370868,True,16,-1,0,1
Y2-S2-205K20,7,589,AS,exp,45,←,up,↑,1.0511674000881612,False,16,-1,0,1
Y2-S2-205K20,7,590,AS,exp,50,→,right,→,0.6886685001663864,True,17,-1,0,1
Y2-S2-205K20,7,591,AS,exp,28,↑,up,↑,0.9361771000549197,True,17,-1,0,1
Y2-S2-205K20,7,592,AS,exp,43,→,right,→,0.8360039000399411,True,17,1,1,2
Y2-S2-205K20,7,593,AS,exp,32,↓,down,↓,0.9962595999240875,True,16,1,0,2
Y2-S2-205K20,7,594,AS,exp,50,→,right,→,0.8222337998449802,True,16,1,0,2
Y2-S2-205K20,7,595,AS,exp,31,←,left,←,1.0490107997320592,True,16,1,0,2
Y2-S2-205K20,7,596,AS,exp,49,↓,down,↓,0.6428038999438286,True,15,1,0,2
Y2-S2-205K20,7,597,AS,exp,47,→,down,↓,0.8972092000767589,False,15,-1,1,3
Y2-S2-205K20,7,598,AS,exp,39,↑,down,↓,0.8190291998907924,False,16,-1,0,3
Y2-S2-205K20,7,599,AS,exp,50,→,left,←,0.7197052999399602,False,17,-1,0,3
Y2-S2-205K20,7,600,AS,exp,25,↓,up,↑,1.5573721998371184,False,18,-1,0,3
Y2-S2-205K20,7,601,AS,exp,32,←,left,←,0.8304844996891916,True,19,-1,0,3
Y2-S2-205K20,7,602,AS,exp,38,→,right,→,0.7150987996719778,True,19,-1,0,3
Y2-S2-205K20,7,603,AS,exp,26,←,left,←,0.7056913999840617,True,19,1,1,4
Y2-S2-205K20,7,604,AS,exp,31,→,right,→,0.7218221998773515,True,18,1,0,4
Y2-S2-205K20,7,605,AS,exp,43,↓,down,↓,0.6901461002416909,True,18,1,0,4
Y2-S2-205K20,7,606,AS,exp,41,→,right,→,0.6759834997355938,True,18,1,0,4
Y2-S2-205K20,7,607,AS,exp,27,↓,down,↓,0.6628391998820007,True,17,1,0,4
Y2-S2-205K20,7,608,AS,exp,38,↑,up,↑,0.6905386997386813,True,17,1,0,4
Y2-S2-205K20,7,609,AS,exp,49,→,right,→,0.645665000192821,True,17,1,0,4
Y2-S2-205K20,7,610,AS,exp,32,←,right,→,0.5694962996058166,False,16,-1,1,5
Y2-S2-205K20,7,611,AS,exp,35,↓,down,↓,0.6417930996976793,True,17,-1,0,5
Y2-S2-205K20,7,612,AS,exp,29,→,right,→,0.5835315003059804,True,17,-1,0,5
Y2-S2-205K20,7,613,AS,exp,45,←,left,←,0.5504602999426425,True,17,1,1,6
Y2-S2-205K20,7,614,AS,exp,35,→,right,→,0.6016298998147249,True,16,1,0,6
Y2-S2-205K20,7,615,AS,exp,41,←,up,↑,0.9871327998116612,False,16,-1,1,7
Y2-S2-205K20,7,616,AS,exp,37,↑,up,↑,0.801159500144422,True,17,-1,0,7
Y2-S2-205K20,7,617,AS,exp,34,→,up,↑,0.8726386004127562,False,17,-1,0,7
Y2-S2-205K20,7,618,AS,exp,36,←,left,←,0.7124997000209987,True,18,-1,0,7
Y2-S2-205K20,7,619,AS,exp,34,↑,up,↑,0.9161724001169205,True,18,-1,0,7
Y2-S2-205K20,7,620,AS,exp,26,↓,down,↓,0.7903649001382291,True,18,1,1,8
Y2-S2-205K20,7,621,AS,exp,35,↑,up,↑,0.6810184000059962,True,17,1,0,8
Y2-S2-205K20,7,622,AS,exp,38,↓,down,↓,0.7246904000639915,True,17,1,0,8
Y2-S2-205K20,7,623,AS,exp,38,→,right,→,0.7564999000169337,True,17,1,0,8
Y2-S2-205K20,7,624,AS,exp,38,↑,down,↓,0.7086515002883971,False,16,-1,1,9
Y2-S2-205K20,7,625,AS,exp,34,↓,down,↓,0.6322999000549316,True,17,-1,0,9
Y2-S2-205K20,7,626,AS,exp,45,→,up,↑,1.045745300129056,False,17,-1,0,9
Y2-S2-205K20,7,627,AS,exp,49,↓,up,↑,0.7744420003145933,False,18,-1,0,9
Y2-S2-205K20,7,628,AS,exp,34,↑,up,↑,0.8530008001253009,True,19,-1,0,9
Y2-S2-205K20,7,629,AS,exp,25,→,right,→,0.912680999841541,True,19,-1,0,9
Y2-S2-205K20,7,630,AS,exp,31,↓,down,↓,1.0211466001346707,True,19,1,1,10
Y2-S2-205K20,7,631,AS,exp,46,→,left,←,0.856303300242871,False,18,-1,1,11
Y2-S2-205K20,7,632,AS,exp,27,↓,down,↓,0.9560976000502706,True,19,-1,0,11
Y2-S2-205K20,7,633,AS,exp,26,→,right,→,0.9541760999709368,True,19,-1,0,11
Y2-S2-205K20,7,634,AS,exp,46,←,right,→,0.7293210001662374,False,19,-1,0,11
Y2-S2-205K20,7,635,AS,exp,26,↓,down,↓,0.7066216999664903,True,20,-1,0,11
Y2-S2-205K20,7,636,AS,exp,29,→,right,→,0.6457572001963854,True,20,-1,0,11
Y2-S2-205K20,7,637,AS,exp,37,←,left,←,0.55778650008142,True,20,1,1,12
Y2-S2-205K20,7,638,AS,exp,29,↑,up,↑,1.1025821999646723,True,19,1,0,12
Y2-S2-205K20,7,639,AS,exp,34,←,left,←,0.6327089997939765,True,19,1,0,12
Y2-S2-205K20,7,640,AS,exp,26,↓,down,↓,0.7041101003997028,True,19,1,0,12
Y2-S2-205K20,7,641,AS,exp,38,←,left,←,0.6664789998903871,True,18,1,0,12
Y2-S2-205K20,7,642,AS,exp,37,↓,right,→,0.7242962997406721,False,18,-1,1,13
Y2-S2-205K20,7,643,AS,exp,38,↑,up,↑,0.7116895001381636,True,19,-1,0,13
Y2-S2-205K20,7,644,AS,exp,28,↓,down,↓,0.8234915998764336,True,19,-1,0,13
Y2-S2-205K20,7,645,AS,exp,31,←,left,←,0.5517464000731707,True,19,1,1,14
Y2-S2-205K20,7,646,AS,exp,35,→,right,→,0.4789169002324343,True,18,1,0,14
Y2-S2-205K20,7,647,AS,exp,34,↓,down,↓,0.7567428001202643,True,18,1,0,14
Y2-S2-205K20,7,648,AS,exp,32,←,left,←,0.47148549975827336,True,18,1,0,14
Y2-S2-205K20,7,649,AS,exp,29,↑,up,↑,0.6386543000116944,True,17,1,0,14
Y2-S2-205K20,7,650,AS,exp,43,→,up,↑,0.9141895999200642,False,17,-1,1,15
Y2-S2-205K20,7,651,AS,exp,42,←,left,←,0.6818498000502586,True,18,-1,0,15
Y2-S2-205K20,7,652,AS,exp,41,↑,up,↑,0.6391777000389993,True,18,-1,0,15
Y2-S2-205K20,7,653,AS,exp,37,←,left,←,0.7758734999224544,True,18,1,1,16
Y2-S2-205K20,8,654,PS,intra_train,36,↑,up,↑,1.0903122001327574,True,12,-,-,-
Y2-S2-205K20,8,655,PS,intra_train,29,→,right,→,0.7097885999828577,True,12,-,-,-
Y2-S2-205K20,8,656,PS,intra_train,36,↑,up,↑,0.6715823002159595,True,12,-,-,-
Y2-S2-205K20,8,657,PS,intra_train,45,←,left,←,0.5643046000041068,True,12,-,-,-
Y2-S2-205K20,8,658,PS,intra_train,48,↑,up,↑,0.7184493001550436,True,12,-,-,-
Y2-S2-205K20,8,659,PS,exp,38,←,left,←,0.832749200053513,True,8,0,0,0
Y2-S2-205K20,8,660,PS,exp,43,→,right,→,0.673915300052613,True,8,0,0,0
Y2-S2-205K20,8,661,PS,exp,28,←,left,←,0.46165060019120574,True,8,1,0,0
Y2-S2-205K20,8,662,PS,exp,49,→,right,→,0.516501700039953,True,7,1,0,0
Y2-S2-205K20,8,663,PS,exp,27,↑,up,↑,0.518425699789077,True,7,1,0,0
Y2-S2-205K20,8,664,PS,exp,40,↓,down,↓,0.859258099924773,True,7,1,0,0
Y2-S2-205K20,8,665,PS,exp,46,→,left,←,0.6630529998801649,False,6,-1,1,1
Y2-S2-205K20,8,666,PS,exp,48,↑,up,↑,0.7133036996237934,True,7,-1,0,1
Y2-S2-205K20,8,667,PS,exp,43,↓,down,↓,0.8184131998568773,True,7,-1,0,1
Y2-S2-205K20,8,668,PS,exp,31,→,down,↓,1.0107216998003423,False,7,-1,0,1
Y2-S2-205K20,8,669,PS,exp,41,←,right,→,0.6896913996897638,False,8,-1,0,1
Y2-S2-205K20,8,670,PS,exp,47,→,right,→,0.7273892997764051,True,9,-1,0,1
Y2-S2-205K20,8,671,PS,exp,34,↓,down,↓,0.7068211999721825,True,9,-1,0,1
Y2-S2-205K20,8,672,PS,exp,47,←,down,↓,0.6229970999993384,False,9,-1,0,1
Y2-S2-205K20,8,673,PS,exp,38,↑,up,↑,0.6628376999869943,True,10,-1,0,1
Y2-S2-205K20,8,674,PS,exp,25,←,left,←,0.7513015996664762,True,10,-1,0,1
Y2-S2-205K20,8,675,PS,exp,42,↓,down,↓,0.9966845000162721,True,10,1,1,2
Y2-S2-205K20,8,676,PS,exp,46,↑,up,↑,0.6889277999289334,True,9,1,0,2
Y2-S2-205K20,8,677,PS,exp,45,→,right,→,0.6125564998947084,True,9,1,0,2
Y2-S2-205K20,8,678,PS,exp,49,←,up,↑,0.9965383000671864,False,9,-1,1,3
Y2-S2-205K20,8,679,PS,exp,30,→,right,→,0.6974730999208987,True,10,-1,0,3
Y2-S2-205K20,8,680,PS,exp,45,←,left,←,0.5694550001062453,True,10,-1,0,3
Y2-S2-205K20,8,681,PS,exp,31,→,right,→,0.5884752999991179,True,10,1,1,4
Y2-S2-205K20,8,682,PS,exp,37,←,up,↑,1.020744699984789,False,9,-1,1,5
Y2-S2-205K20,8,683,PS,exp,47,↓,up,↑,0.736380800139159,False,10,-1,0,5
Y2-S2-205K20,8,684,PS,exp,29,→,right,→,0.7079187999479473,True,11,-1,0,5
Y2-S2-205K20,8,685,PS,exp,49,←,up,↑,1.0894015999510884,False,11,-1,0,5
Y2-S2-205K20,8,686,PS,exp,35,↓,down,↓,0.7744506997987628,True,12,-1,0,5
Y2-S2-205K20,8,687,PS,exp,38,→,down,↓,1.429604500066489,False,12,-1,0,5
Y2-S2-205K20,8,688,PS,exp,48,↑,up,↑,0.7264328999444842,True,13,-1,0,5
Y2-S2-205K20,8,689,PS,exp,29,↓,right,→,0.47389639960601926,False,13,-1,0,5
Y2-S2-205K20,8,690,PS,exp,48,←,left,←,0.5434844000265002,True,14,-1,0,5
Y2-S2-205K20,8,691,PS,exp,29,→,right,→,0.7462029000744224,True,14,-1,0,5
Y2-S2-205K20,8,692,PS,exp,31,↓,up,↑,1.0483723999932408,False,14,-1,0,5
Y2-S2-205K20,8,693,PS,exp,47,→,right,→,0.46963040018454194,True,15,-1,0,5
Y2-S2-205K20,8,694,PS,exp,44,←,left,←,0.5987251000478864,True,15,-1,0,5
Y2-S2-205K20,8,695,PS,exp,30,↓,down,↓,0.7491142996586859,True,15,1,1,6
Y2-S2-205K20,8,696,PS,exp,31,←,right,→,0.747374499682337,False,14,-1,1,7
Y2-S2-205K20,8,697,PS,exp,45,↑,up,↑,0.7540945997461677,True,15,-1,0,7
Y2-S2-205K20,8,698,PS,exp,32,→,right,→,0.5417777998372912,True,15,-1,0,7
Y2-S2-205K20,8,699,PS,exp,35,↑,up,↑,0.6034379000775516,True,15,1,1,8
Y2-S2-205K20,8,700,PS,exp,36,↓,down,↓,0.8092624000273645,True,14,1,0,8
Y2-S2-205K20,8,701,PS,exp,45,↑,right,→,0.43510839994996786,False,14,-1,1,9
Y2-S2-205K20,8,702,PS,exp,50,↓,down,↓,0.65721429977566,True,15,-1,0,9
Y2-S2-205K20,8,703,PS,exp,31,↑,up,↑,0.6764658996835351,True,15,-1,0,9
Y2-S2-205K20,8,704,PS,exp,29,←,left,←,0.5094208996742964,True,15,1,1,10
Y2-S2-205K20,8,705,PS,exp,50,↑,up,↑,0.7125586997717619,True,14,1,0,10
Y2-S2-205K20,8,706,PS,exp,36,←,left,←,0.59078019997105,True,14,1,0,10
Y2-S2-205K20,8,707,PS,exp,50,↓,down,↓,0.7105633998289704,True,14,1,0,10
Y2-S2-205K20,8,708,PS,exp,39,↑,up,↑,0.6303333998657763,True,13,1,0,10
Y2-S2-205K20,8,709,PS,exp,27,→,right,→,0.6353279002942145,True,13,1,0,10
Y2-S2-205K20,8,710,PS,exp,40,↑,left,←,0.9905249001458287,False,13,-1,1,11
Y2-S2-205K20,8,711,PS,exp,33,↓,down,↓,0.9395216000266373,True,14,-1,0,11
Y2-S2-205K20,8,712,PS,exp,38,←,left,←,0.516495100222528,True,14,-1,0,11
Y2-S2-205K20,8,713,PS,exp,38,↑,up,↑,0.7336609000340104,True,14,1,1,12
Y2-S2-205K20,8,714,PS,exp,43,↓,down,↓,0.7624397999607027,True,13,1,0,12
Y2-S2-205K20,8,715,PS,exp,32,→,right,→,0.5662533999420702,True,13,1,0,12
Y2-S2-205K20,8,716,PS,exp,28,↓,down,↓,0.64902100013569,True,13,1,0,12
Y2-S2-205K20,8,717,PS,exp,42,↑,down,↓,0.7081323000602424,False,12,-1,1,13
Y2-S2-205K20,8,718,PS,exp,28,→,right,→,0.5367211000993848,True,13,-1,0,13
Y2-S2-205K20,8,719,PS,exp,34,↑,up,↑,0.6926621003076434,True,13,-1,0,13
Y2-S2-205K20,8,720,PS,exp,50,←,left,←,0.6081675998866558,True,13,1,1,14
Y2-S2-205K20,8,721,PS,exp,42,↑,up,↑,0.5138643002137542,True,12,1,0,14
Y2-S2-205K20,8,722,PS,exp,26,→,right,→,0.5958714000880718,True,12,1,0,14
Y2-S2-205K20,8,723,PS,exp,47,↑,up,↑,0.6326582999899983,True,12,1,0,14
Y2-S2-205K20,8,724,PS,exp,48,↓,down,↓,0.7264985996298492,True,11,1,0,14
Y2-S2-205K20,8,725,PS,exp,33,←,left,←,0.5684217000380158,True,11,1,0,14
Y2-S2-205K20,8,726,PS,exp,25,↓,down,↓,0.6649354002438486,True,11,1,0,14
Y2-S2-205K20,8,727,PS,exp,32,↑,right,→,0.9288600999861956,False,10,-1,1,15
Y2-S2-205K20,8,728,PS,exp,31,→,right,→,0.5111522995866835,True,11,-1,0,15
Y2-S2-205K20,8,729,PS,exp,25,↑,up,↑,0.913512900006026,True,11,-1,0,15
Y2-S2-205K20,8,730,PS,exp,47,→,right,→,0.5964727001264691,True,11,1,1,16
