PART_ID,Block_no,Trial_no,Block_type,Trial_type,CSI,Stim_letter,Key_pressed,letter_choose,Rt,Corr,Stimulus Time,Level,Reversal,Revs_count
 Y2-S2-113K19,1,1,PS,train,35,↑,up,↑,0.48407040000893176,True,30,-,-,-
 Y2-S2-113K19,1,2,PS,train,38,→,no_key,no_letter,-1.0,False,30,-,-,-
 Y2-S2-113K19,1,3,PS,train,28,↑,up,↑,0.5337001000298187,True,30,-,-,-
 Y2-S2-113K19,1,4,PS,train,29,←,left,←,0.5006934000412002,True,30,-,-,-
 Y2-S2-113K19,1,5,PS,train,40,↑,up,↑,0.4834430000046268,True,30,-,-,-
 Y2-S2-113K19,1,6,PS,train,43,←,left,←,0.5340130999684334,True,30,-,-,-
 Y2-S2-113K19,1,7,PS,train,45,→,right,→,0.5503250999609008,True,30,-,-,-
 Y2-S2-113K19,1,8,PS,train,25,↑,up,↑,1.4020674999337643,True,30,-,-,-
 Y2-S2-113K19,1,9,PS,train,50,←,left,←,0.4671632999088615,True,30,-,-,-
 Y2-S2-113K19,1,10,PS,train,33,→,right,→,0.5503348999191076,True,30,-,-,-
 Y2-S2-113K19,2,11,AS,train,49,←,left,←,0.6172626999905333,True,45,-,-,-
 Y2-S2-113K19,2,12,AS,train,41,↓,down,↓,0.8507227000081912,True,45,-,-,-
 Y2-S2-113K19,2,13,AS,train,25,←,left,←,0.46736419992521405,True,45,-,-,-
 Y2-S2-113K19,2,14,AS,train,40,↓,down,↓,0.6170903999591246,True,45,-,-,-
 Y2-S2-113K19,2,15,AS,train,29,↑,up,↑,0.7502842000685632,True,45,-,-,-
 Y2-S2-113K19,2,16,AS,train,27,↓,down,↓,0.46695879998151213,True,45,-,-,-
 Y2-S2-113K19,2,17,AS,train,35,↑,up,↑,0.7011432000435889,True,45,-,-,-
 Y2-S2-113K19,2,18,AS,train,33,↓,down,↓,0.7670804000226781,True,45,-,-,-
 Y2-S2-113K19,2,19,AS,train,30,←,left,←,0.4172783000394702,True,45,-,-,-
 Y2-S2-113K19,2,20,AS,train,50,↑,up,↑,0.7341262999689206,True,45,-,-,-
 Y2-S2-113K19,-,21,PS,adaptive,27,→,right,→,1.3926092999754474,True,10,0,0,0
 Y2-S2-113K19,-,22,PS,adaptive,44,←,up,↑,1.0615962999872863,False,10,-1,0,0
 Y2-S2-113K19,-,23,PS,adaptive,29,→,right,→,0.5115691999671981,True,11,-1,0,0
 Y2-S2-113K19,-,24,PS,adaptive,42,↑,up,↑,0.40891500003635883,True,11,-1,0,0
 Y2-S2-113K19,-,25,PS,adaptive,47,←,left,←,0.4400142999365926,True,11,1,1,1
 Y2-S2-113K19,-,26,PS,adaptive,49,→,up,↑,0.2839672000845894,False,10,-1,1,2
 Y2-S2-113K19,-,27,PS,adaptive,33,↓,down,↓,0.8643924000207335,True,11,-1,0,2
 Y2-S2-113K19,-,28,PS,adaptive,30,↑,up,↑,0.6134856999851763,True,11,-1,0,2
 Y2-S2-113K19,-,29,PS,adaptive,31,↓,up,↑,0.6821286000777036,False,11,-1,0,2
 Y2-S2-113K19,-,30,PS,adaptive,42,→,right,→,0.47377440007403493,True,12,-1,0,2
 Y2-S2-113K19,-,31,PS,adaptive,46,↑,no_key,no_letter,-1.0,False,12,-1,0,2
 Y2-S2-113K19,-,32,PS,adaptive,26,→,right,→,0.5813862999202684,True,13,-1,0,2
 Y2-S2-113K19,-,33,PS,adaptive,40,↑,up,↑,0.7055532999802381,True,13,-1,0,2
 Y2-S2-113K19,-,34,PS,adaptive,28,↓,down,↓,0.5343276999192312,True,13,1,1,3
 Y2-S2-113K19,-,35,PS,adaptive,26,↑,up,↑,0.36889049992896616,True,12,1,0,3
 Y2-S2-113K19,-,36,PS,adaptive,26,→,right,→,0.5138523998903111,True,12,1,0,3
 Y2-S2-113K19,-,37,PS,adaptive,32,↑,up,↑,0.4335094999987632,True,12,1,0,3
 Y2-S2-113K19,-,38,PS,adaptive,31,→,up,↑,0.7187587000662461,False,11,-1,1,4
 Y2-S2-113K19,-,39,AS,adaptive,48,↓,down,↓,0.4675350000616163,True,20,0,0,0
 Y2-S2-113K19,-,40,AS,adaptive,43,→,right,→,0.6087805000133812,True,20,0,0,0
 Y2-S2-113K19,-,41,AS,adaptive,42,↑,up,↑,0.5446424999972805,True,20,1,0,0
 Y2-S2-113K19,-,42,AS,adaptive,28,↓,down,↓,0.450193400029093,True,19,1,0,0
 Y2-S2-113K19,-,43,AS,adaptive,35,↑,up,↑,0.5780035000061616,True,19,1,0,0
 Y2-S2-113K19,-,44,AS,adaptive,50,→,right,→,0.6561835999600589,True,19,1,0,0
 Y2-S2-113K19,-,45,AS,adaptive,32,↓,no_key,no_letter,-1.0,False,18,-1,1,1
 Y2-S2-113K19,-,46,AS,adaptive,38,→,right,→,1.2305770999519154,True,19,-1,0,1
 Y2-S2-113K19,-,47,AS,adaptive,46,↓,down,↓,0.43402689998038113,True,19,-1,0,1
 Y2-S2-113K19,-,48,AS,adaptive,50,→,right,→,0.62467489996925,True,19,1,1,2
 Y2-S2-113K19,-,49,AS,adaptive,38,←,right,→,0.5348379999632016,False,18,-1,1,3
 Y2-S2-113K19,-,50,AS,adaptive,31,↑,up,↑,0.7072978999931365,True,19,-1,0,3
 Y2-S2-113K19,-,51,AS,adaptive,43,↓,down,↓,0.8343137999763712,True,19,-1,0,3
 Y2-S2-113K19,-,52,AS,adaptive,25,←,left,←,0.4842229000059888,True,19,1,1,4
 Y2-S2-113K19,1,53,AS,intra_train,50,↑,up,↑,0.41728779999539256,True,27,-,-,-
 Y2-S2-113K19,1,54,AS,intra_train,29,→,right,→,0.500793099985458,True,27,-,-,-
 Y2-S2-113K19,1,55,AS,intra_train,47,←,left,←,0.4011257999809459,True,27,-,-,-
 Y2-S2-113K19,1,56,AS,intra_train,38,→,right,→,0.5836294000037014,True,27,-,-,-
 Y2-S2-113K19,1,57,AS,intra_train,32,↑,up,↑,0.5168712000595406,True,27,-,-,-
 Y2-S2-113K19,1,58,AS,exp,41,→,up,↑,0.5159861999563873,False,18,-1,0,0
 Y2-S2-113K19,1,59,AS,exp,27,↑,up,↑,0.5794759000418708,True,19,-1,0,0
 Y2-S2-113K19,1,60,AS,exp,42,←,left,←,0.6869442999595776,True,19,-1,0,0
 Y2-S2-113K19,1,61,AS,exp,48,↑,up,↑,0.6301019000820816,True,19,1,1,1
 Y2-S2-113K19,1,62,AS,exp,42,→,right,→,0.6696627999190241,True,18,1,0,1
 Y2-S2-113K19,1,63,AS,exp,40,←,left,←,0.5413846001029015,True,18,1,0,1
 Y2-S2-113K19,1,64,AS,exp,29,→,right,→,0.6174912999849766,True,18,1,0,1
 Y2-S2-113K19,1,65,AS,exp,31,←,left,←,0.7382860999787226,True,17,1,0,1
 Y2-S2-113K19,1,66,AS,exp,45,→,right,→,0.6160161000443622,True,17,1,0,1
 Y2-S2-113K19,1,67,AS,exp,28,↓,down,↓,0.6514179999940097,True,17,1,0,1
 Y2-S2-113K19,1,68,AS,exp,38,←,left,←,0.49306550004985183,True,16,1,0,1
 Y2-S2-113K19,1,69,AS,exp,40,→,right,→,0.6239098999649286,True,16,1,0,1
 Y2-S2-113K19,1,70,AS,exp,47,↑,up,↑,0.5922241000225767,True,16,1,0,1
 Y2-S2-113K19,1,71,AS,exp,38,←,left,←,0.6082913000136614,True,15,1,0,1
 Y2-S2-113K19,1,72,AS,exp,33,→,no_key,no_letter,-1.0,False,15,-1,1,2
 Y2-S2-113K19,1,73,AS,exp,44,↑,up,↑,1.1931905000237748,True,16,-1,0,2
 Y2-S2-113K19,1,74,AS,exp,39,→,right,→,0.4993460000259802,True,16,-1,0,2
 Y2-S2-113K19,1,75,AS,exp,34,↓,down,↓,0.5724233000073582,True,16,1,1,3
 Y2-S2-113K19,1,76,AS,exp,34,←,left,←,0.6068008999573067,True,15,1,0,3
 Y2-S2-113K19,1,77,AS,exp,29,→,right,→,1.0913642999948934,True,15,1,0,3
 Y2-S2-113K19,1,78,AS,exp,32,←,left,←,0.4853486999636516,True,15,1,0,3
 Y2-S2-113K19,1,79,AS,exp,48,→,right,→,0.6117820999352261,True,14,1,0,3
 Y2-S2-113K19,1,80,AS,exp,44,↓,down,↓,0.5265068000881001,True,14,1,0,3
 Y2-S2-113K19,1,81,AS,exp,29,↑,up,↑,0.7787874999921769,True,14,1,0,3
 Y2-S2-113K19,1,82,AS,exp,30,←,right,→,0.8498677000170574,False,13,-1,1,4
 Y2-S2-113K19,1,83,AS,exp,36,↓,down,↓,0.42266720009502023,True,14,-1,0,4
 Y2-S2-113K19,1,84,AS,exp,48,←,left,←,0.4381498999428004,True,14,-1,0,4
 Y2-S2-113K19,1,85,AS,exp,45,↓,down,↓,0.669563899980858,True,14,1,1,5
 Y2-S2-113K19,1,86,AS,exp,27,↑,up,↑,0.4509460999397561,True,13,1,0,5
 Y2-S2-113K19,1,87,AS,exp,47,←,right,→,0.6443696999922395,False,13,-1,1,6
 Y2-S2-113K19,1,88,AS,exp,42,↓,down,↓,0.4344400999834761,True,14,-1,0,6
 Y2-S2-113K19,1,89,AS,exp,47,→,right,→,0.47337259992491454,True,14,-1,0,6
 Y2-S2-113K19,1,90,AS,exp,29,↑,up,↑,0.4140844000503421,True,14,1,1,7
 Y2-S2-113K19,1,91,AS,exp,40,←,left,←,1.1306850999826565,True,13,1,0,7
 Y2-S2-113K19,1,92,AS,exp,41,↑,left,←,0.7435772999888286,False,13,-1,1,8
 Y2-S2-113K19,1,93,AS,exp,46,↓,down,↓,0.7250619999831542,True,14,-1,0,8
 Y2-S2-113K19,1,94,AS,exp,44,←,left,←,0.6029048000928015,True,14,-1,0,8
 Y2-S2-113K19,1,95,AS,exp,42,↓,up,↑,0.618797899922356,False,14,-1,0,8
 Y2-S2-113K19,1,96,AS,exp,38,→,right,→,0.5485133999027312,True,15,-1,0,8
 Y2-S2-113K19,1,97,AS,exp,26,↓,down,↓,0.6088949999539182,True,15,-1,0,8
 Y2-S2-113K19,1,98,AS,exp,50,↑,down,↓,0.7822888999944553,False,15,-1,0,8
 Y2-S2-113K19,1,99,AS,exp,33,←,left,←,0.48510079993866384,True,16,-1,0,8
 Y2-S2-113K19,1,100,AS,exp,41,↓,down,↓,0.5542425999883562,True,16,-1,0,8
 Y2-S2-113K19,1,101,AS,exp,32,↑,up,↑,1.4491776999784634,True,16,1,1,9
 Y2-S2-113K19,1,102,AS,exp,36,↓,down,↓,1.2494040998863056,True,15,1,0,9
 Y2-S2-113K19,1,103,AS,exp,39,↑,up,↑,0.43871280003804713,True,15,1,0,9
 Y2-S2-113K19,1,104,AS,exp,27,←,right,→,0.6621987000107765,False,15,-1,1,10
 Y2-S2-113K19,1,105,AS,exp,49,↑,up,↑,0.5066710999235511,True,16,-1,0,10
 Y2-S2-113K19,1,106,AS,exp,37,↓,down,↓,0.5631816999521106,True,16,-1,0,10
 Y2-S2-113K19,1,107,AS,exp,35,←,left,←,0.5165976999560371,True,16,1,1,11
 Y2-S2-113K19,1,108,AS,exp,26,↑,down,↓,0.5549574999604374,False,15,-1,1,12
 Y2-S2-113K19,1,109,AS,exp,50,↓,left,←,0.5309439999982715,False,16,-1,0,12
 Y2-S2-113K19,1,110,AS,exp,43,↑,up,↑,0.4572995000053197,True,17,-1,0,12
 Y2-S2-113K19,1,111,AS,exp,36,→,right,→,0.625665899948217,True,17,-1,0,12
 Y2-S2-113K19,1,112,AS,exp,36,↑,up,↑,0.6524997999658808,True,17,1,1,13
 Y2-S2-113K19,1,113,AS,exp,47,←,left,←,0.493270399980247,True,16,1,0,13
 Y2-S2-113K19,1,114,AS,exp,47,→,right,→,0.5139174000360072,True,16,1,0,13
 Y2-S2-113K19,1,115,AS,exp,42,↓,down,↓,1.1013973000226542,True,16,1,0,13
 Y2-S2-113K19,1,116,AS,exp,25,→,left,←,0.7308987999567762,False,15,-1,1,14
 Y2-S2-113K19,1,117,AS,exp,36,↓,up,↑,0.9284511000150815,False,16,-1,0,14
 Y2-S2-113K19,1,118,AS,exp,46,↑,no_key,no_letter,-1.0,False,17,-1,0,14
 Y2-S2-113K19,1,119,AS,exp,29,↓,down,↓,0.7037137999432161,True,18,-1,0,14
 Y2-S2-113K19,1,120,AS,exp,30,→,right,→,0.6550704000983387,True,18,-1,0,14
 Y2-S2-113K19,1,121,AS,exp,36,↓,down,↓,0.8248690000036731,True,18,1,1,15
 Y2-S2-113K19,1,122,AS,exp,42,↑,up,↑,0.6321388001088053,True,17,1,0,15
 Y2-S2-113K19,1,123,AS,exp,29,→,right,→,0.5815140000777319,True,17,1,0,15
 Y2-S2-113K19,1,124,AS,exp,47,↑,no_key,no_letter,-1.0,False,17,-1,1,16
 Y2-S2-113K19,2,125,PS,intra_train,36,←,right,→,0.8027711999602616,False,18,-,-,-
 Y2-S2-113K19,2,126,PS,intra_train,35,→,right,→,0.6101106000132859,True,18,-,-,-
 Y2-S2-113K19,2,127,PS,intra_train,33,↑,up,↑,0.5266196000156924,True,18,-,-,-
 Y2-S2-113K19,2,128,PS,intra_train,35,←,up,↑,0.6720200999407098,False,18,-,-,-
 Y2-S2-113K19,2,129,PS,intra_train,37,↑,no_key,no_letter,-1.0,False,18,-,-,-
 Y2-S2-113K19,2,130,PS,exp,40,→,right,→,0.7660155999474227,True,12,0,0,0
 Y2-S2-113K19,2,131,PS,exp,34,↓,right,→,0.7611809000372887,False,12,-1,0,0
 Y2-S2-113K19,2,132,PS,exp,42,↑,up,↑,0.46223900001496077,True,13,-1,0,0
 Y2-S2-113K19,2,133,PS,exp,35,←,left,←,0.46117480006068945,True,13,-1,0,0
 Y2-S2-113K19,2,134,PS,exp,48,↑,up,↑,0.4980794000439346,True,13,1,1,1
 Y2-S2-113K19,2,135,PS,exp,26,↓,up,↑,1.0062513999873772,False,12,-1,1,2
 Y2-S2-113K19,2,136,PS,exp,32,←,left,←,0.4595947000198066,True,13,-1,0,2
 Y2-S2-113K19,2,137,PS,exp,41,↓,up,↑,0.6329507000045851,False,13,-1,0,2
 Y2-S2-113K19,2,138,PS,exp,37,←,no_key,no_letter,-1.0,False,14,-1,0,2
 Y2-S2-113K19,2,139,PS,exp,26,→,right,→,0.43894969997927547,True,15,-1,0,2
 Y2-S2-113K19,2,140,PS,exp,33,↑,up,↑,0.42272159992717206,True,15,-1,0,2
 Y2-S2-113K19,2,141,PS,exp,36,←,right,→,0.591489200014621,False,15,-1,0,2
 Y2-S2-113K19,2,142,PS,exp,36,→,right,→,0.40087280003353953,True,16,-1,0,2
 Y2-S2-113K19,2,143,PS,exp,33,↑,up,↑,0.5541466000722721,True,16,-1,0,2
 Y2-S2-113K19,2,144,PS,exp,32,←,left,←,0.47903889999724925,True,16,1,1,3
 Y2-S2-113K19,2,145,PS,exp,31,→,no_key,no_letter,-1.0,False,15,-1,1,4
 Y2-S2-113K19,2,146,PS,exp,48,←,right,→,0.8707113000564277,False,16,-1,0,4
 Y2-S2-113K19,2,147,PS,exp,29,↑,up,↑,1.7001617000205442,True,17,-1,0,4
 Y2-S2-113K19,2,148,PS,exp,43,←,right,→,0.7933605998987332,False,17,-1,0,4
 Y2-S2-113K19,2,149,PS,exp,50,→,right,→,0.9126264000078663,True,18,-1,0,4
 Y2-S2-113K19,2,150,PS,exp,34,↑,up,↑,0.8071839000331238,True,18,-1,0,4
 Y2-S2-113K19,2,151,PS,exp,30,↓,down,↓,0.8274747999384999,True,18,1,1,5
 Y2-S2-113K19,2,152,PS,exp,37,←,left,←,0.48656130000017583,True,17,1,0,5
 Y2-S2-113K19,2,153,PS,exp,26,↑,up,↑,0.5084473999449983,True,17,1,0,5
 Y2-S2-113K19,2,154,PS,exp,48,←,left,←,0.5189674000721425,True,17,1,0,5
 Y2-S2-113K19,2,155,PS,exp,27,↑,up,↑,0.4655581000261009,True,16,1,0,5
 Y2-S2-113K19,2,156,PS,exp,35,↓,left,←,0.7967592999339104,False,16,-1,1,6
 Y2-S2-113K19,2,157,PS,exp,46,↑,up,↑,0.41728839999996126,True,17,-1,0,6
 Y2-S2-113K19,2,158,PS,exp,39,↓,down,↓,0.6031667999923229,True,17,-1,0,6
 Y2-S2-113K19,2,159,PS,exp,50,←,left,←,0.48672639997676015,True,17,1,1,7
 Y2-S2-113K19,2,160,PS,exp,49,↓,down,↓,0.615303699974902,True,16,1,0,7
 Y2-S2-113K19,2,161,PS,exp,33,→,up,↑,0.46588289993815124,False,16,-1,1,8
 Y2-S2-113K19,2,162,PS,exp,46,↑,no_key,no_letter,-1.0,False,17,-1,0,8
 Y2-S2-113K19,2,163,PS,exp,30,↓,down,↓,0.6816503000445664,True,18,-1,0,8
 Y2-S2-113K19,2,164,PS,exp,35,→,right,→,0.5350465999217704,True,18,-1,0,8
 Y2-S2-113K19,2,165,PS,exp,32,↑,down,↓,1.840261199977249,False,18,-1,0,8
 Y2-S2-113K19,2,166,PS,exp,32,→,right,→,0.4340665000490844,True,19,-1,0,8
 Y2-S2-113K19,2,167,PS,exp,44,↑,up,↑,0.4507361000869423,True,19,-1,0,8
 Y2-S2-113K19,2,168,PS,exp,44,→,right,→,1.1047235999722034,True,19,1,1,9
 Y2-S2-113K19,2,169,PS,exp,32,↓,down,↓,0.7688834000146016,True,18,1,0,9
 Y2-S2-113K19,2,170,PS,exp,29,→,right,→,0.49399020010605454,True,18,1,0,9
 Y2-S2-113K19,2,171,PS,exp,40,←,left,←,0.6451180999865755,True,18,1,0,9
 Y2-S2-113K19,2,172,PS,exp,48,→,right,→,0.5701614000136033,True,17,1,0,9
 Y2-S2-113K19,2,173,PS,exp,35,←,left,←,0.6190287000499666,True,17,1,0,9
 Y2-S2-113K19,2,174,PS,exp,34,↑,down,↓,1.2464844998903573,False,17,-1,1,10
 Y2-S2-113K19,2,175,PS,exp,27,→,no_key,no_letter,-1.0,False,18,-1,0,10
 Y2-S2-113K19,2,176,PS,exp,49,↑,up,↑,0.9284329999936745,True,19,-1,0,10
 Y2-S2-113K19,2,177,PS,exp,44,→,right,→,0.519591600052081,True,19,-1,0,10
 Y2-S2-113K19,2,178,PS,exp,41,↓,down,↓,0.7452680000569671,True,19,1,1,11
 Y2-S2-113K19,2,179,PS,exp,32,↑,up,↑,0.7640970000065863,True,18,1,0,11
 Y2-S2-113K19,2,180,PS,exp,28,→,right,→,0.48572060000151396,True,18,1,0,11
 Y2-S2-113K19,2,181,PS,exp,29,↓,left,←,0.8178990999003872,False,18,-1,1,12
 Y2-S2-113K19,2,182,PS,exp,31,→,right,→,1.7960832000244409,True,19,-1,0,12
 Y2-S2-113K19,2,183,PS,exp,38,↓,up,↑,0.707121100043878,False,19,-1,0,12
 Y2-S2-113K19,2,184,PS,exp,50,←,left,←,0.43397409992758185,True,20,-1,0,12
 Y2-S2-113K19,2,185,PS,exp,49,↓,down,↓,0.6366730999434367,True,20,-1,0,12
 Y2-S2-113K19,2,186,PS,exp,25,←,left,←,0.590992399957031,True,20,1,1,13
 Y2-S2-113K19,2,187,PS,exp,50,↓,down,↓,0.6450737999984995,True,19,1,0,13
 Y2-S2-113K19,2,188,PS,exp,28,↑,up,↑,0.6065846999408677,True,19,1,0,13
 Y2-S2-113K19,2,189,PS,exp,43,→,right,→,0.4505868999985978,True,19,1,0,13
 Y2-S2-113K19,2,190,PS,exp,41,↑,up,↑,0.4884121000068262,True,18,1,0,13
 Y2-S2-113K19,2,191,PS,exp,49,→,right,→,0.6719145000679418,True,18,1,0,13
 Y2-S2-113K19,2,192,PS,exp,37,←,left,←,0.5086580999195576,True,18,1,0,13
 Y2-S2-113K19,2,193,PS,exp,37,→,right,→,0.533888400066644,True,17,1,0,13
 Y2-S2-113K19,2,194,PS,exp,35,↑,up,↑,0.5158866998972371,True,17,1,0,13
 Y2-S2-113K19,2,195,PS,exp,48,↓,down,↓,0.6427153000840917,True,17,1,0,13
 Y2-S2-113K19,2,196,PS,exp,46,→,right,→,0.5175139999482781,True,16,1,0,13
 Y2-S2-113K19,2,197,PS,exp,44,↓,down,↓,0.5325395000400022,True,16,1,0,13
 Y2-S2-113K19,2,198,PS,exp,33,←,right,→,0.5173403000226244,False,16,-1,1,14
 Y2-S2-113K19,2,199,PS,exp,49,↑,up,↑,1.5646376999793574,True,17,-1,0,14
 Y2-S2-113K19,2,200,PS,exp,27,←,left,←,0.4174442000221461,True,17,-1,0,14
 Y2-S2-113K19,2,201,PS,exp,25,↑,up,↑,1.1130856000818312,True,17,1,1,15
 Y2-S2-113K19,2,202,PS,exp,42,←,right,→,0.43788270000368357,False,16,-1,1,16
 Y2-S2-113K19,3,203,PS,intra_train,47,↑,up,↑,0.4717186000198126,True,18,-,-,-
 Y2-S2-113K19,3,204,PS,intra_train,38,→,right,→,0.4976526000536978,True,18,-,-,-
 Y2-S2-113K19,3,205,PS,intra_train,44,↓,down,↓,0.624601099989377,True,18,-,-,-
 Y2-S2-113K19,3,206,PS,intra_train,41,↑,up,↑,0.5521718999370933,True,18,-,-,-
 Y2-S2-113K19,3,207,PS,intra_train,38,→,right,→,0.5097175999544561,True,18,-,-,-
 Y2-S2-113K19,3,208,PS,exp,31,↑,up,↑,0.4496252000099048,True,12,0,0,0
 Y2-S2-113K19,3,209,PS,exp,44,←,left,←,0.5831894000293687,True,12,0,0,0
 Y2-S2-113K19,3,210,PS,exp,37,→,up,↑,0.7482478000456467,False,12,-1,0,0
 Y2-S2-113K19,3,211,PS,exp,36,←,left,←,1.7294487999752164,True,13,-1,0,0
 Y2-S2-113K19,3,212,PS,exp,45,↑,up,↑,0.5056420000037178,True,13,-1,0,0
 Y2-S2-113K19,3,213,PS,exp,40,↓,down,↓,0.7984187999973074,True,13,1,1,1
 Y2-S2-113K19,3,214,PS,exp,28,←,left,←,0.6101759999291971,True,12,1,0,1
 Y2-S2-113K19,3,215,PS,exp,25,↑,up,↑,0.4644321999512613,True,12,1,0,1
 Y2-S2-113K19,3,216,PS,exp,47,←,left,←,0.5888677999610081,True,12,1,0,1
 Y2-S2-113K19,3,217,PS,exp,47,↑,up,↑,0.41163039999082685,True,11,1,0,1
 Y2-S2-113K19,3,218,PS,exp,32,→,right,→,0.6612642999971285,True,11,1,0,1
 Y2-S2-113K19,3,219,PS,exp,38,↑,up,↑,0.44126460002735257,True,11,1,0,1
 Y2-S2-113K19,3,220,PS,exp,49,↓,down,↓,0.601418900070712,True,10,1,0,1
 Y2-S2-113K19,3,221,PS,exp,50,←,left,←,0.5031073000282049,True,10,1,0,1
 Y2-S2-113K19,3,222,PS,exp,39,↓,down,↓,0.49331530008930713,True,10,1,0,1
 Y2-S2-113K19,3,223,PS,exp,31,←,left,←,0.5883400000166148,True,9,1,0,1
 Y2-S2-113K19,3,224,PS,exp,34,→,right,→,0.47978229995351285,True,9,1,0,1
 Y2-S2-113K19,3,225,PS,exp,26,↑,up,↑,0.44624789990484715,True,9,1,0,1
 Y2-S2-113K19,3,226,PS,exp,34,←,up,↑,0.8621395999798551,False,8,-1,1,2
 Y2-S2-113K19,3,227,PS,exp,49,↑,up,↑,0.43523050006479025,True,9,-1,0,2
 Y2-S2-113K19,3,228,PS,exp,37,→,right,→,0.5955166999483481,True,9,-1,0,2
 Y2-S2-113K19,3,229,PS,exp,25,←,left,←,0.45170340000186116,True,9,1,1,3
 Y2-S2-113K19,3,230,PS,exp,31,↓,up,↑,0.6034275999991223,False,8,-1,1,4
 Y2-S2-113K19,3,231,PS,exp,42,←,right,→,0.5426687999861315,False,9,-1,0,4
 Y2-S2-113K19,3,232,PS,exp,31,↓,down,↓,0.6074464999837801,True,10,-1,0,4
 Y2-S2-113K19,3,233,PS,exp,46,←,left,←,0.5484253999311477,True,10,-1,0,4
 Y2-S2-113K19,3,234,PS,exp,43,↓,down,↓,0.4624371000099927,True,10,1,1,5
 Y2-S2-113K19,3,235,PS,exp,35,←,left,←,0.4298964000772685,True,9,1,0,5
 Y2-S2-113K19,3,236,PS,exp,45,→,right,→,0.5886057999450713,True,9,1,0,5
 Y2-S2-113K19,3,237,PS,exp,32,↓,down,↓,0.5339194999542087,True,9,1,0,5
 Y2-S2-113K19,3,238,PS,exp,41,←,right,→,0.6570800000336021,False,8,-1,1,6
 Y2-S2-113K19,3,239,PS,exp,26,→,right,→,0.7606353999581188,True,9,-1,0,6
 Y2-S2-113K19,3,240,PS,exp,32,↓,up,↑,0.6280966999474913,False,9,-1,0,6
 Y2-S2-113K19,3,241,PS,exp,26,←,left,←,0.427598400041461,True,10,-1,0,6
 Y2-S2-113K19,3,242,PS,exp,25,↓,down,↓,0.6581739000976086,True,10,-1,0,6
 Y2-S2-113K19,3,243,PS,exp,50,↑,up,↑,0.5064966999925673,True,10,1,1,7
 Y2-S2-113K19,3,244,PS,exp,40,→,right,→,0.4955860000336543,True,9,1,0,7
 Y2-S2-113K19,3,245,PS,exp,50,↑,up,↑,0.4287583000259474,True,9,1,0,7
 Y2-S2-113K19,3,246,PS,exp,31,←,left,←,0.5520215999567881,True,9,1,0,7
 Y2-S2-113K19,3,247,PS,exp,48,→,right,→,0.5825865999795496,True,8,1,0,7
 Y2-S2-113K19,3,248,PS,exp,32,↓,down,↓,0.5693107000552118,True,8,1,0,7
 Y2-S2-113K19,3,249,PS,exp,47,↑,up,↑,0.4330236000241712,True,8,1,0,7
 Y2-S2-113K19,3,250,PS,exp,39,↓,down,↓,0.6683372000698,True,7,1,0,7
 Y2-S2-113K19,3,251,PS,exp,27,↑,right,→,0.7279218999901786,False,7,-1,1,8
 Y2-S2-113K19,3,252,PS,exp,31,←,left,←,0.535962300025858,True,8,-1,0,8
 Y2-S2-113K19,3,253,PS,exp,49,↓,down,↓,0.5955554000101984,True,8,-1,0,8
 Y2-S2-113K19,3,254,PS,exp,45,→,right,→,0.5877490999409929,True,8,1,1,9
 Y2-S2-113K19,3,255,PS,exp,29,↑,left,←,0.7782087000086904,False,7,-1,1,10
 Y2-S2-113K19,3,256,PS,exp,49,→,right,→,0.578169499989599,True,8,-1,0,10
 Y2-S2-113K19,3,257,PS,exp,25,←,right,→,0.6537048999452963,False,8,-1,0,10
 Y2-S2-113K19,3,258,PS,exp,42,↓,left,←,0.7318180000875145,False,9,-1,0,10
 Y2-S2-113K19,3,259,PS,exp,44,←,left,←,0.5663772999541834,True,10,-1,0,10
 Y2-S2-113K19,3,260,PS,exp,30,↑,up,↑,0.704207899980247,True,10,-1,0,10
 Y2-S2-113K19,3,261,PS,exp,46,↓,down,↓,0.5338898000773042,True,10,1,1,11
 Y2-S2-113K19,3,262,PS,exp,49,↑,up,↑,0.5271869000280276,True,9,1,0,11
 Y2-S2-113K19,3,263,PS,exp,38,←,left,←,0.3964614999713376,True,9,1,0,11
 Y2-S2-113K19,3,264,PS,exp,42,→,right,→,0.7604807999450713,True,9,1,0,11
 Y2-S2-113K19,3,265,PS,exp,50,↓,down,↓,0.5347566999262199,True,8,1,0,11
 Y2-S2-113K19,3,266,PS,exp,26,→,left,←,1.1870105999987572,False,8,-1,1,12
 Y2-S2-113K19,3,267,PS,exp,43,←,left,←,0.43821010005194694,True,9,-1,0,12
 Y2-S2-113K19,3,268,PS,exp,31,↑,up,↑,0.5183671000413597,True,9,-1,0,12
 Y2-S2-113K19,3,269,PS,exp,45,→,left,←,0.7651208000024781,False,9,-1,0,12
 Y2-S2-113K19,3,270,PS,exp,33,↑,up,↑,0.43784080003388226,True,10,-1,0,12
 Y2-S2-113K19,3,271,PS,exp,28,→,left,←,0.5843171998858452,False,10,-1,0,12
 Y2-S2-113K19,3,272,PS,exp,47,↑,up,↑,0.6795700000366196,True,11,-1,0,12
 Y2-S2-113K19,3,273,PS,exp,30,↓,down,↓,0.6000906000845134,True,11,-1,0,12
 Y2-S2-113K19,3,274,PS,exp,46,←,left,←,0.419902199995704,True,11,1,1,13
 Y2-S2-113K19,3,275,PS,exp,39,↑,up,↑,0.471916800015606,True,10,1,0,13
 Y2-S2-113K19,3,276,PS,exp,32,↓,down,↓,0.5410272000590339,True,10,1,0,13
 Y2-S2-113K19,3,277,PS,exp,36,↑,up,↑,0.4534599999897182,True,10,1,0,13
 Y2-S2-113K19,3,278,PS,exp,25,↓,down,↓,0.5176221000729129,True,9,1,0,13
 Y2-S2-113K19,3,279,PS,exp,25,←,left,←,0.4343745999503881,True,9,1,0,13
 Y2-S2-113K19,3,280,PS,exp,43,↓,down,↓,0.507522500003688,True,9,1,0,13
 Y2-S2-113K19,3,281,PS,exp,49,→,right,→,0.5976311999838799,True,8,1,0,13
 Y2-S2-113K19,3,282,PS,exp,46,↑,up,↑,0.40771980001591146,True,8,1,0,13
 Y2-S2-113K19,3,283,PS,exp,48,→,right,→,0.45267849997617304,True,8,1,0,13
 Y2-S2-113K19,3,284,PS,exp,38,↑,up,↑,0.4445380000397563,True,7,1,0,13
 Y2-S2-113K19,3,285,PS,exp,31,↓,up,↑,0.5610312999924645,False,7,-1,1,14
 Y2-S2-113K19,3,286,PS,exp,31,→,right,→,0.6106193999294192,True,8,-1,0,14
 Y2-S2-113K19,3,287,PS,exp,35,↓,down,↓,0.5385082999709994,True,8,-1,0,14
 Y2-S2-113K19,3,288,PS,exp,49,↑,up,↑,0.46600160002708435,True,8,1,1,15
 Y2-S2-113K19,3,289,PS,exp,44,↓,down,↓,0.5649988999357447,True,7,1,0,15
 Y2-S2-113K19,3,290,PS,exp,42,←,left,←,1.0008511000778526,True,7,1,0,15
 Y2-S2-113K19,3,291,PS,exp,44,↑,up,↑,0.4238476000027731,True,7,1,0,15
 Y2-S2-113K19,3,292,PS,exp,49,↓,up,↑,1.4167497999733314,False,6,-1,1,16
 Y2-S2-113K19,4,293,AS,intra_train,31,→,right,→,1.4445845000445843,True,27,-,-,-
 Y2-S2-113K19,4,294,AS,intra_train,34,↑,up,↑,0.433635100023821,True,27,-,-,-
 Y2-S2-113K19,4,295,AS,intra_train,43,→,right,→,0.642143200035207,True,27,-,-,-
 Y2-S2-113K19,4,296,AS,intra_train,43,↓,down,↓,0.852505199960433,True,27,-,-,-
 Y2-S2-113K19,4,297,AS,intra_train,46,→,right,→,0.5670879000099376,True,27,-,-,-
 Y2-S2-113K19,4,298,AS,exp,28,←,left,←,0.7043226000387222,True,18,0,0,0
 Y2-S2-113K19,4,299,AS,exp,26,↑,up,↑,0.605009000049904,True,18,0,0,0
 Y2-S2-113K19,4,300,AS,exp,46,←,left,←,0.735129400040023,True,18,1,0,0
 Y2-S2-113K19,4,301,AS,exp,31,→,right,→,0.6334302999312058,True,17,1,0,0
 Y2-S2-113K19,4,302,AS,exp,38,↓,down,↓,0.7179250000044703,True,17,1,0,0
 Y2-S2-113K19,4,303,AS,exp,41,←,left,←,0.8334499999182299,True,17,1,0,0
 Y2-S2-113K19,4,304,AS,exp,25,→,right,→,0.6202392999548465,True,16,1,0,0
 Y2-S2-113K19,4,305,AS,exp,45,↓,down,↓,0.5228605000302196,True,16,1,0,0
 Y2-S2-113K19,4,306,AS,exp,49,←,left,←,0.5544191999360919,True,16,1,0,0
 Y2-S2-113K19,4,307,AS,exp,30,→,right,→,0.629609200055711,True,15,1,0,0
 Y2-S2-113K19,4,308,AS,exp,28,←,left,←,0.8030936999712139,True,15,1,0,0
 Y2-S2-113K19,4,309,AS,exp,32,↓,down,↓,0.5742860999889672,True,15,1,0,0
 Y2-S2-113K19,4,310,AS,exp,35,↑,down,↓,0.594339800067246,False,14,-1,1,1
 Y2-S2-113K19,4,311,AS,exp,43,→,down,↓,0.6209127000765875,False,15,-1,0,1
 Y2-S2-113K19,4,312,AS,exp,34,↓,down,↓,0.8169976000208408,True,16,-1,0,1
 Y2-S2-113K19,4,313,AS,exp,40,↑,up,↑,0.5102331000380218,True,16,-1,0,1
 Y2-S2-113K19,4,314,AS,exp,28,↓,down,↓,0.5212742999428883,True,16,1,1,2
 Y2-S2-113K19,4,315,AS,exp,41,↑,down,↓,0.758477000053972,False,15,-1,1,3
 Y2-S2-113K19,4,316,AS,exp,40,→,left,←,0.814049799926579,False,16,-1,0,3
 Y2-S2-113K19,4,317,AS,exp,29,↓,down,↓,0.5848514001118019,True,17,-1,0,3
 Y2-S2-113K19,4,318,AS,exp,46,↑,up,↑,0.6685077999718487,True,17,-1,0,3
 Y2-S2-113K19,4,319,AS,exp,26,↓,down,↓,0.4940404000226408,True,17,1,1,4
 Y2-S2-113K19,4,320,AS,exp,50,←,left,←,0.6519434999208897,True,16,1,0,4
 Y2-S2-113K19,4,321,AS,exp,41,→,left,←,0.6633502000477165,False,16,-1,1,5
 Y2-S2-113K19,4,322,AS,exp,34,↑,up,↑,0.4911658000200987,True,17,-1,0,5
 Y2-S2-113K19,4,323,AS,exp,29,←,left,←,0.5337039000587538,True,17,-1,0,5
 Y2-S2-113K19,4,324,AS,exp,28,→,right,→,1.4969173000426963,True,17,1,1,6
 Y2-S2-113K19,4,325,AS,exp,50,↑,up,↑,0.4736304999096319,True,16,1,0,6
 Y2-S2-113K19,4,326,AS,exp,34,↓,down,↓,0.7880441000452265,True,16,1,0,6
 Y2-S2-113K19,4,327,AS,exp,50,↑,down,↓,1.47451790003106,False,16,-1,1,7
 Y2-S2-113K19,4,328,AS,exp,40,←,left,←,0.7610260000219569,True,17,-1,0,7
 Y2-S2-113K19,4,329,AS,exp,29,↑,up,↑,0.5511850999901071,True,17,-1,0,7
 Y2-S2-113K19,4,330,AS,exp,44,→,right,→,0.5705704999854788,True,17,1,1,8
 Y2-S2-113K19,4,331,AS,exp,50,↓,left,←,0.8760591000318527,False,16,-1,1,9
 Y2-S2-113K19,4,332,AS,exp,33,←,left,←,0.7405180000932887,True,17,-1,0,9
 Y2-S2-113K19,4,333,AS,exp,50,↑,up,↑,0.49460370000451803,True,17,-1,0,9
 Y2-S2-113K19,4,334,AS,exp,50,→,right,→,0.5030322000384331,True,17,1,1,10
 Y2-S2-113K19,4,335,AS,exp,36,←,left,←,1.1194667998934165,True,16,1,0,10
 Y2-S2-113K19,4,336,AS,exp,38,↑,up,↑,1.037036499939859,True,16,1,0,10
 Y2-S2-113K19,4,337,AS,exp,42,→,right,→,0.9589233999140561,True,16,1,0,10
 Y2-S2-113K19,4,338,AS,exp,27,↑,up,↑,0.4977822999935597,True,15,1,0,10
 Y2-S2-113K19,4,339,AS,exp,30,↓,down,↓,0.6793701000278816,True,15,1,0,10
 Y2-S2-113K19,4,340,AS,exp,29,→,right,→,0.4627773999236524,True,15,1,0,10
 Y2-S2-113K19,4,341,AS,exp,45,←,left,←,0.46986549999564886,True,14,1,0,10
 Y2-S2-113K19,4,342,AS,exp,45,↑,up,↑,1.374152799951844,True,14,1,0,10
 Y2-S2-113K19,4,343,AS,exp,38,←,left,←,0.5823306000092998,True,14,1,0,10
 Y2-S2-113K19,4,344,AS,exp,38,↑,up,↑,0.42798270005732775,True,13,1,0,10
 Y2-S2-113K19,4,345,AS,exp,44,→,right,→,0.5033776999916881,True,13,1,0,10
 Y2-S2-113K19,4,346,AS,exp,27,↑,left,←,0.8042724999831989,False,13,-1,1,11
 Y2-S2-113K19,4,347,AS,exp,26,↓,down,↓,0.49794299993664026,True,14,-1,0,11
 Y2-S2-113K19,4,348,AS,exp,31,→,down,↓,0.1178835000609979,False,14,-1,0,11
 Y2-S2-113K19,4,349,AS,exp,48,↓,down,↓,0.7612423000391573,True,15,-1,0,11
 Y2-S2-113K19,4,350,AS,exp,31,→,right,→,0.4624307999620214,True,15,-1,0,11
 Y2-S2-113K19,4,351,AS,exp,36,←,left,←,0.7014049999415874,True,15,1,1,12
 Y2-S2-113K19,4,352,AS,exp,38,↓,up,↑,0.6011115000583231,False,14,-1,1,13
 Y2-S2-113K19,4,353,AS,exp,41,↑,up,↑,0.5474240999901667,True,15,-1,0,13
 Y2-S2-113K19,4,354,AS,exp,47,←,left,←,0.5878554000519216,True,15,-1,0,13
 Y2-S2-113K19,4,355,AS,exp,26,↓,down,↓,0.6668777000159025,True,15,1,1,14
 Y2-S2-113K19,4,356,AS,exp,41,→,right,→,0.4466358999488875,True,14,1,0,14
 Y2-S2-113K19,4,357,AS,exp,31,↓,down,↓,0.7055135000264272,True,14,1,0,14
 Y2-S2-113K19,4,358,AS,exp,28,↑,up,↑,0.5753442000132054,True,14,1,0,14
 Y2-S2-113K19,4,359,AS,exp,26,←,left,←,0.5724477000767365,True,13,1,0,14
 Y2-S2-113K19,4,360,AS,exp,41,→,right,→,0.8361846000188962,True,13,1,0,14
 Y2-S2-113K19,4,361,AS,exp,26,←,right,→,0.8202948999824002,False,13,-1,1,15
 Y2-S2-113K19,4,362,AS,exp,48,→,left,←,1.1928476999746636,False,14,-1,0,15
 Y2-S2-113K19,4,363,AS,exp,32,←,left,←,0.4307093999814242,True,15,-1,0,15
 Y2-S2-113K19,4,364,AS,exp,38,↑,up,↑,0.45387780002783984,True,15,-1,0,15
 Y2-S2-113K19,4,365,AS,exp,36,←,right,→,0.7403598999371752,False,15,-1,0,15
 Y2-S2-113K19,4,366,AS,exp,45,↓,down,↓,0.8744884999468923,True,16,-1,0,15
 Y2-S2-113K19,4,367,AS,exp,40,↑,up,↑,0.612923700013198,True,16,-1,0,15
 Y2-S2-113K19,4,368,AS,exp,48,←,left,←,0.7201671999646351,True,16,1,1,16
 Y2-S2-113K19,5,369,AS,intra_train,26,↑,up,↑,0.802820699987933,True,27,-,-,-
 Y2-S2-113K19,5,370,AS,intra_train,33,→,no_key,no_letter,-1.0,False,27,-,-,-
 Y2-S2-113K19,5,371,AS,intra_train,27,←,left,←,0.5670360000804067,True,27,-,-,-
 Y2-S2-113K19,5,372,AS,intra_train,35,→,right,→,0.46704869996756315,True,27,-,-,-
 Y2-S2-113K19,5,373,AS,intra_train,43,↑,up,↑,0.6454267000081018,True,27,-,-,-
 Y2-S2-113K19,5,374,AS,exp,49,←,left,←,0.57147610001266,True,18,0,0,0
 Y2-S2-113K19,5,375,AS,exp,46,↓,down,↓,0.6855156000237912,True,18,0,0,0
 Y2-S2-113K19,5,376,AS,exp,32,↑,up,↑,0.6243097999831662,True,18,1,0,0
 Y2-S2-113K19,5,377,AS,exp,36,←,left,←,0.5847207000479102,True,17,1,0,0
 Y2-S2-113K19,5,378,AS,exp,32,↓,down,↓,0.8673859999980778,True,17,1,0,0
 Y2-S2-113K19,5,379,AS,exp,50,→,right,→,0.4827044999692589,True,17,1,0,0
 Y2-S2-113K19,5,380,AS,exp,48,←,left,←,1.3122205999679863,True,16,1,0,0
 Y2-S2-113K19,5,381,AS,exp,43,↓,down,↓,0.5115945999277756,True,16,1,0,0
 Y2-S2-113K19,5,382,AS,exp,47,←,left,←,0.44182520010508597,True,16,1,0,0
 Y2-S2-113K19,5,383,AS,exp,47,↑,up,↑,0.5862512999447063,True,15,1,0,0
 Y2-S2-113K19,5,384,AS,exp,32,↓,down,↓,0.6512671000091359,True,15,1,0,0
 Y2-S2-113K19,5,385,AS,exp,50,↑,up,↑,0.6401158000808209,True,15,1,0,0
 Y2-S2-113K19,5,386,AS,exp,38,→,right,→,0.8457136999350041,True,14,1,0,0
 Y2-S2-113K19,5,387,AS,exp,44,↑,up,↑,0.5265172000508755,True,14,1,0,0
 Y2-S2-113K19,5,388,AS,exp,43,→,right,→,0.48883399995975196,True,14,1,0,0
 Y2-S2-113K19,5,389,AS,exp,25,↑,up,↑,0.49991799995768815,True,13,1,0,0
 Y2-S2-113K19,5,390,AS,exp,26,→,right,→,0.483026499976404,True,13,1,0,0
 Y2-S2-113K19,5,391,AS,exp,49,↓,down,↓,0.5654829000122845,True,13,1,0,0
 Y2-S2-113K19,5,392,AS,exp,28,→,down,↓,0.7228327000048012,False,12,-1,1,1
 Y2-S2-113K19,5,393,AS,exp,46,↑,down,↓,0.7841318999417126,False,13,-1,0,1
 Y2-S2-113K19,5,394,AS,exp,41,→,left,←,0.5475762999849394,False,14,-1,0,1
 Y2-S2-113K19,5,395,AS,exp,26,↑,up,↑,0.4460967000341043,True,15,-1,0,1
 Y2-S2-113K19,5,396,AS,exp,42,↓,down,↓,0.5657352999551222,True,15,-1,0,1
 Y2-S2-113K19,5,397,AS,exp,29,→,right,→,0.7053142000222579,True,15,1,1,2
 Y2-S2-113K19,5,398,AS,exp,31,↑,down,↓,0.8724466999992728,False,14,-1,1,3
 Y2-S2-113K19,5,399,AS,exp,31,→,right,→,0.621281799976714,True,15,-1,0,3
 Y2-S2-113K19,5,400,AS,exp,39,↓,down,↓,0.6496427999809384,True,15,-1,0,3
 Y2-S2-113K19,5,401,AS,exp,37,↑,left,←,0.8328290999634191,False,15,-1,0,3
 Y2-S2-113K19,5,402,AS,exp,36,←,left,←,0.6887216999894008,True,16,-1,0,3
 Y2-S2-113K19,5,403,AS,exp,33,↓,down,↓,0.47297190001700073,True,16,-1,0,3
 Y2-S2-113K19,5,404,AS,exp,27,←,left,←,0.4531278000213206,True,16,1,1,4
 Y2-S2-113K19,5,405,AS,exp,34,→,right,→,0.45147840003483,True,15,1,0,4
 Y2-S2-113K19,5,406,AS,exp,36,↓,down,↓,0.5579080999596044,True,15,1,0,4
 Y2-S2-113K19,5,407,AS,exp,46,↑,up,↑,0.9900674000382423,True,15,1,0,4
 Y2-S2-113K19,5,408,AS,exp,47,↓,down,↓,0.6805904000066221,True,14,1,0,4
 Y2-S2-113K19,5,409,AS,exp,31,→,right,→,0.4785253999289125,True,14,1,0,4
 Y2-S2-113K19,5,410,AS,exp,36,↑,down,↓,0.7796260999748483,False,14,-1,1,5
 Y2-S2-113K19,5,411,AS,exp,34,→,right,→,0.8186842000577599,True,15,-1,0,5
 Y2-S2-113K19,5,412,AS,exp,36,←,left,←,0.47282419994007796,True,15,-1,0,5
 Y2-S2-113K19,5,413,AS,exp,50,↓,down,↓,0.6756596000632271,True,15,1,1,6
 Y2-S2-113K19,5,414,AS,exp,31,←,left,←,0.5213545999722555,True,14,1,0,6
 Y2-S2-113K19,5,415,AS,exp,29,↑,down,↓,0.9574379000114277,False,14,-1,1,7
 Y2-S2-113K19,5,416,AS,exp,41,↓,down,↓,0.8215605999575928,True,15,-1,0,7
 Y2-S2-113K19,5,417,AS,exp,34,→,right,→,0.506187199964188,True,15,-1,0,7
 Y2-S2-113K19,5,418,AS,exp,39,↓,right,→,0.9354101000353694,False,15,-1,0,7
 Y2-S2-113K19,5,419,AS,exp,25,→,right,→,0.5017898000078276,True,16,-1,0,7
 Y2-S2-113K19,5,420,AS,exp,45,←,left,←,0.5109248000662774,True,16,-1,0,7
 Y2-S2-113K19,5,421,AS,exp,49,↓,down,↓,0.5146692999405786,True,16,1,1,8
 Y2-S2-113K19,5,422,AS,exp,49,←,right,→,0.9003170999931172,False,15,-1,1,9
 Y2-S2-113K19,5,423,AS,exp,30,↓,down,↓,0.5803367000771686,True,16,-1,0,9
 Y2-S2-113K19,5,424,AS,exp,34,↑,up,↑,0.716787000070326,True,16,-1,0,9
 Y2-S2-113K19,5,425,AS,exp,44,↓,down,↓,0.6446147999959067,True,16,1,1,10
 Y2-S2-113K19,5,426,AS,exp,39,←,down,↓,0.7022877000272274,False,15,-1,1,11
 Y2-S2-113K19,5,427,AS,exp,49,→,right,→,0.7455364000052214,True,16,-1,0,11
 Y2-S2-113K19,5,428,AS,exp,37,↓,down,↓,0.6035472999792546,True,16,-1,0,11
 Y2-S2-113K19,5,429,AS,exp,41,↑,up,↑,0.4872341000009328,True,16,1,1,12
 Y2-S2-113K19,5,430,AS,exp,27,→,right,→,0.5032327999360859,True,15,1,0,12
 Y2-S2-113K19,5,431,AS,exp,49,↓,left,←,0.7033317000605166,False,15,-1,1,13
 Y2-S2-113K19,5,432,AS,exp,37,←,left,←,0.6372870999621227,True,16,-1,0,13
 Y2-S2-113K19,5,433,AS,exp,49,→,right,→,0.7231116000330076,True,16,-1,0,13
 Y2-S2-113K19,5,434,AS,exp,31,←,right,→,0.8797471999423578,False,16,-1,0,13
 Y2-S2-113K19,5,435,AS,exp,40,↑,up,↑,0.48462330002803355,True,17,-1,0,13
 Y2-S2-113K19,5,436,AS,exp,41,↓,down,↓,0.7477180999703705,True,17,-1,0,13
 Y2-S2-113K19,5,437,AS,exp,36,↑,up,↑,0.5077148000709713,True,17,1,1,14
 Y2-S2-113K19,5,438,AS,exp,26,←,left,←,0.5559225000906736,True,16,1,0,14
 Y2-S2-113K19,5,439,AS,exp,34,→,right,→,0.5001970999874175,True,16,1,0,14
 Y2-S2-113K19,5,440,AS,exp,47,↓,down,↓,0.6291321000317112,True,16,1,0,14
 Y2-S2-113K19,5,441,AS,exp,30,←,left,←,0.5741572000551969,True,15,1,0,14
 Y2-S2-113K19,5,442,AS,exp,32,→,right,→,0.5091065000742674,True,15,1,0,14
 Y2-S2-113K19,5,443,AS,exp,49,↑,up,↑,0.44558619998861104,True,15,1,0,14
 Y2-S2-113K19,5,444,AS,exp,29,→,right,→,0.7434504000702873,True,14,1,0,14
 Y2-S2-113K19,5,445,AS,exp,48,←,left,←,0.7954824999906123,True,14,1,0,14
 Y2-S2-113K19,5,446,AS,exp,49,↑,up,↑,0.5207921999972314,True,14,1,0,14
 Y2-S2-113K19,5,447,AS,exp,27,↓,down,↓,0.729558699997142,True,13,1,0,14
 Y2-S2-113K19,5,448,AS,exp,36,→,right,→,0.6956767999799922,True,13,1,0,14
 Y2-S2-113K19,5,449,AS,exp,41,↑,up,↑,0.5001859000185505,True,13,1,0,14
 Y2-S2-113K19,5,450,AS,exp,39,↓,down,↓,0.641409800038673,True,12,1,0,14
 Y2-S2-113K19,5,451,AS,exp,37,←,left,←,0.6550491999369115,True,12,1,0,14
 Y2-S2-113K19,5,452,AS,exp,30,↑,up,↑,0.4616414000047371,True,12,1,0,14
 Y2-S2-113K19,5,453,AS,exp,45,↓,down,↓,0.9931105000432581,True,11,1,0,14
 Y2-S2-113K19,5,454,AS,exp,26,→,right,→,0.5843375999247655,True,11,1,0,14
 Y2-S2-113K19,5,455,AS,exp,38,↑,up,↑,0.6473115000408143,True,11,1,0,14
 Y2-S2-113K19,5,456,AS,exp,33,←,left,←,0.631207300000824,True,10,1,0,14
 Y2-S2-113K19,5,457,AS,exp,28,→,right,→,0.8001991000492126,True,10,1,0,14
 Y2-S2-113K19,5,458,AS,exp,25,←,left,←,0.7572530000470579,True,10,1,0,14
 Y2-S2-113K19,5,459,AS,exp,31,↑,left,←,0.7836456000804901,False,9,-1,1,15
 Y2-S2-113K19,5,460,AS,exp,31,↓,down,↓,0.6453187000006437,True,10,-1,0,15
 Y2-S2-113K19,5,461,AS,exp,37,→,left,←,0.7173783999169245,False,10,-1,0,15
 Y2-S2-113K19,5,462,AS,exp,45,↓,down,↓,0.625027900096029,True,11,-1,0,15
 Y2-S2-113K19,5,463,AS,exp,27,↑,up,↑,0.7983212999533862,True,11,-1,0,15
 Y2-S2-113K19,5,464,AS,exp,45,←,left,←,0.5009199999039993,True,11,1,1,16
 Y2-S2-113K19,6,465,PS,intra_train,45,→,right,→,0.7260247999802232,True,18,-,-,-
 Y2-S2-113K19,6,466,PS,intra_train,47,↓,down,↓,0.5542882001027465,True,18,-,-,-
 Y2-S2-113K19,6,467,PS,intra_train,49,→,right,→,0.4913467000005767,True,18,-,-,-
 Y2-S2-113K19,6,468,PS,intra_train,29,←,left,←,0.5317963999696076,True,18,-,-,-
 Y2-S2-113K19,6,469,PS,intra_train,50,↑,up,↑,0.5305323000065982,True,18,-,-,-
 Y2-S2-113K19,6,470,PS,exp,29,←,left,←,0.4860294999089092,True,12,0,0,0
 Y2-S2-113K19,6,471,PS,exp,44,↑,right,→,0.8227983999531716,False,12,-1,0,0
 Y2-S2-113K19,6,472,PS,exp,27,→,right,→,0.593521700007841,True,13,-1,0,0
 Y2-S2-113K19,6,473,PS,exp,40,↓,up,↑,0.4631169999483973,False,13,-1,0,0
 Y2-S2-113K19,6,474,PS,exp,48,↑,up,↑,0.4638139000162482,True,14,-1,0,0
 Y2-S2-113K19,6,475,PS,exp,25,←,left,←,0.763892799965106,True,14,-1,0,0
 Y2-S2-113K19,6,476,PS,exp,40,↑,up,↑,0.4272980000823736,True,14,1,1,1
 Y2-S2-113K19,6,477,PS,exp,33,→,right,→,0.7107836999930441,True,13,1,0,1
 Y2-S2-113K19,6,478,PS,exp,29,←,left,←,0.5794047999661416,True,13,1,0,1
 Y2-S2-113K19,6,479,PS,exp,42,↓,down,↓,0.5816226000897586,True,13,1,0,1
 Y2-S2-113K19,6,480,PS,exp,42,↑,up,↑,0.4751763000385836,True,12,1,0,1
 Y2-S2-113K19,6,481,PS,exp,29,→,right,→,0.7450088000623509,True,12,1,0,1
 Y2-S2-113K19,6,482,PS,exp,35,↑,up,↑,0.44529269996564835,True,12,1,0,1
 Y2-S2-113K19,6,483,PS,exp,40,→,left,←,0.8910616000648588,False,11,-1,1,2
 Y2-S2-113K19,6,484,PS,exp,29,↑,left,←,0.645636499975808,False,12,-1,0,2
 Y2-S2-113K19,6,485,PS,exp,33,←,left,←,0.4400986999971792,True,13,-1,0,2
 Y2-S2-113K19,6,486,PS,exp,46,↓,down,↓,0.5886342000449076,True,13,-1,0,2
 Y2-S2-113K19,6,487,PS,exp,48,↑,up,↑,0.48709129996132106,True,13,1,1,3
 Y2-S2-113K19,6,488,PS,exp,37,←,left,←,0.506987200002186,True,12,1,0,3
 Y2-S2-113K19,6,489,PS,exp,31,↓,down,↓,0.572791300015524,True,12,1,0,3
 Y2-S2-113K19,6,490,PS,exp,38,↑,left,←,1.5461631000507623,False,12,-1,1,4
 Y2-S2-113K19,6,491,PS,exp,41,→,right,→,0.5001902000512928,True,13,-1,0,4
 Y2-S2-113K19,6,492,PS,exp,44,↓,down,↓,0.5095581999048591,True,13,-1,0,4
 Y2-S2-113K19,6,493,PS,exp,49,↑,up,↑,0.5122218000469729,True,13,1,1,5
 Y2-S2-113K19,6,494,PS,exp,49,←,left,←,0.4830791000276804,True,12,1,0,5
 Y2-S2-113K19,6,495,PS,exp,39,↓,down,↓,0.7175760000245646,True,12,1,0,5
 Y2-S2-113K19,6,496,PS,exp,45,→,right,→,0.4729163999436423,True,12,1,0,5
 Y2-S2-113K19,6,497,PS,exp,42,←,left,←,0.5199955999851227,True,11,1,0,5
 Y2-S2-113K19,6,498,PS,exp,25,→,right,→,0.6256617000326514,True,11,1,0,5
 Y2-S2-113K19,6,499,PS,exp,30,←,left,←,0.6330867001088336,True,11,1,0,5
 Y2-S2-113K19,6,500,PS,exp,49,↓,down,↓,0.5576485000783578,True,10,1,0,5
 Y2-S2-113K19,6,501,PS,exp,48,↑,up,↑,0.392826099996455,True,10,1,0,5
 Y2-S2-113K19,6,502,PS,exp,27,←,left,←,0.4246240999782458,True,10,1,0,5
 Y2-S2-113K19,6,503,PS,exp,29,↑,up,↑,0.48877319996245205,True,9,1,0,5
 Y2-S2-113K19,6,504,PS,exp,45,←,left,←,0.5190388999180868,True,9,1,0,5
 Y2-S2-113K19,6,505,PS,exp,34,↑,up,↑,0.4105934000108391,True,9,1,0,5
 Y2-S2-113K19,6,506,PS,exp,37,→,right,→,0.5445387000218034,True,8,1,0,5
 Y2-S2-113K19,6,507,PS,exp,32,↑,right,→,0.7530571999959648,False,8,-1,1,6
 Y2-S2-113K19,6,508,PS,exp,50,→,right,→,0.48337330005597323,True,9,-1,0,6
 Y2-S2-113K19,6,509,PS,exp,45,↓,down,↓,0.7073354000458494,True,9,-1,0,6
 Y2-S2-113K19,6,510,PS,exp,45,→,right,→,0.5522522999672219,True,9,1,1,7
 Y2-S2-113K19,6,511,PS,exp,34,←,left,←,0.5646725000115111,True,8,1,0,7
 Y2-S2-113K19,6,512,PS,exp,42,↑,up,↑,0.4417665000073612,True,8,1,0,7
 Y2-S2-113K19,6,513,PS,exp,44,→,right,→,0.5169357000850141,True,8,1,0,7
 Y2-S2-113K19,6,514,PS,exp,39,↑,up,↑,0.6073541999794543,True,7,1,0,7
 Y2-S2-113K19,6,515,PS,exp,42,→,right,→,0.43023950001224875,True,7,1,0,7
 Y2-S2-113K19,6,516,PS,exp,37,↑,up,↑,0.4506267999531701,True,7,1,0,7
 Y2-S2-113K19,6,517,PS,exp,49,→,right,→,0.581262500025332,True,6,1,0,7
 Y2-S2-113K19,6,518,PS,exp,27,←,left,←,0.5833977999864146,True,6,1,0,7
 Y2-S2-113K19,6,519,PS,exp,46,→,right,→,0.5654019999783486,True,6,1,0,7
 Y2-S2-113K19,6,520,PS,exp,37,↑,up,↑,1.0381557000800967,True,5,1,0,7
 Y2-S2-113K19,6,521,PS,exp,41,↓,down,↓,0.7902083999942988,True,5,1,0,7
 Y2-S2-113K19,6,522,PS,exp,26,→,right,→,0.8486884000012651,True,5,1,0,7
 Y2-S2-113K19,6,523,PS,exp,32,←,left,←,1.2011093000182882,True,4,1,0,7
 Y2-S2-113K19,6,524,PS,exp,35,→,no_key,no_letter,-1.0,False,4,-1,1,8
 Y2-S2-113K19,6,525,PS,exp,30,↑,up,↑,0.5363419000059366,True,5,-1,0,8
 Y2-S2-113K19,6,526,PS,exp,30,←,left,←,0.5931136999279261,True,5,-1,0,8
 Y2-S2-113K19,6,527,PS,exp,45,→,no_key,no_letter,-1.0,False,5,-1,0,8
 Y2-S2-113K19,6,528,PS,exp,42,↑,left,←,0.6915120000485331,False,6,-1,0,8
 Y2-S2-113K19,6,529,PS,exp,40,→,up,↑,1.0845826000440866,False,7,-1,0,8
 Y2-S2-113K19,6,530,PS,exp,29,↓,down,↓,0.9308357000118122,True,8,-1,0,8
 Y2-S2-113K19,6,531,PS,exp,45,←,left,←,0.6387553999666125,True,8,-1,0,8
 Y2-S2-113K19,6,532,PS,exp,29,→,right,→,0.506676199962385,True,8,1,1,9
 Y2-S2-113K19,6,533,PS,exp,39,↑,up,↑,0.46727579995058477,True,7,1,0,9
 Y2-S2-113K19,6,534,PS,exp,36,↓,down,↓,0.5562279999721795,True,7,1,0,9
 Y2-S2-113K19,6,535,PS,exp,31,↑,left,←,1.413080899976194,False,7,-1,1,10
 Y2-S2-113K19,6,536,PS,exp,44,→,right,→,0.6732043999945745,True,8,-1,0,10
 Y2-S2-113K19,6,537,PS,exp,25,↑,down,↓,1.1872811999637634,False,8,-1,0,10
 Y2-S2-113K19,6,538,PS,exp,37,→,right,→,0.571409699972719,True,9,-1,0,10
 Y2-S2-113K19,6,539,PS,exp,41,↑,up,↑,0.44765660003758967,True,9,-1,0,10
 Y2-S2-113K19,6,540,PS,exp,48,←,right,→,0.4413581999251619,False,9,-1,0,10
 Y2-S2-113K19,6,541,PS,exp,44,↑,up,↑,0.41427139996085316,True,10,-1,0,10
 Y2-S2-113K19,6,542,PS,exp,36,↓,down,↓,0.5299867000430822,True,10,-1,0,10
 Y2-S2-113K19,6,543,PS,exp,28,←,left,←,0.5321920000715181,True,10,1,1,11
 Y2-S2-113K19,6,544,PS,exp,47,↓,right,→,0.521578999934718,False,9,-1,1,12
 Y2-S2-113K19,6,545,PS,exp,26,→,right,→,0.5108971999725327,True,10,-1,0,12
 Y2-S2-113K19,6,546,PS,exp,30,↑,up,↑,0.5045031000627205,True,10,-1,0,12
 Y2-S2-113K19,6,547,PS,exp,25,←,left,←,0.5027311999583617,True,10,1,1,13
 Y2-S2-113K19,6,548,PS,exp,39,↓,down,↓,0.637785300030373,True,9,1,0,13
 Y2-S2-113K19,6,549,PS,exp,30,→,right,→,0.7256165000144392,True,9,1,0,13
 Y2-S2-113K19,6,550,PS,exp,26,←,left,←,0.4941686000674963,True,9,1,0,13
 Y2-S2-113K19,6,551,PS,exp,40,→,left,←,0.6505673000356182,False,8,-1,1,14
 Y2-S2-113K19,6,552,PS,exp,30,↑,up,↑,0.515479699941352,True,9,-1,0,14
 Y2-S2-113K19,6,553,PS,exp,28,↓,down,↓,0.6070045999949798,True,9,-1,0,14
 Y2-S2-113K19,6,554,PS,exp,41,←,left,←,0.4213711000047624,True,9,1,1,15
 Y2-S2-113K19,6,555,PS,exp,45,→,right,→,0.5576226999983191,True,8,1,0,15
 Y2-S2-113K19,6,556,PS,exp,32,↓,down,↓,0.6297267000190914,True,8,1,0,15
 Y2-S2-113K19,6,557,PS,exp,32,←,left,←,0.5814863000996411,True,8,1,0,15
 Y2-S2-113K19,6,558,PS,exp,30,→,right,→,0.962406300008297,True,7,1,0,15
 Y2-S2-113K19,6,559,PS,exp,32,↑,right,→,0.559144499944523,False,7,-1,1,16
 Y2-S2-113K19,7,560,PS,intra_train,25,↓,down,↓,0.5167720000026748,True,18,-,-,-
 Y2-S2-113K19,7,561,PS,intra_train,29,←,left,←,0.6701494998997077,True,18,-,-,-
 Y2-S2-113K19,7,562,PS,intra_train,27,→,right,→,0.5074729999760166,True,18,-,-,-
 Y2-S2-113K19,7,563,PS,intra_train,47,↓,down,↓,0.5621723000658676,True,18,-,-,-
 Y2-S2-113K19,7,564,PS,intra_train,25,→,right,→,0.5989548000507057,True,18,-,-,-
 Y2-S2-113K19,7,565,PS,exp,33,↓,down,↓,0.46766480000223964,True,12,0,0,0
 Y2-S2-113K19,7,566,PS,exp,35,↑,up,↑,0.6783677000785246,True,12,0,0,0
 Y2-S2-113K19,7,567,PS,exp,26,→,right,→,0.5337843999732286,True,12,1,0,0
 Y2-S2-113K19,7,568,PS,exp,40,↓,down,↓,0.44565000000875443,True,11,1,0,0
 Y2-S2-113K19,7,569,PS,exp,25,↑,up,↑,0.3916824000189081,True,11,1,0,0
 Y2-S2-113K19,7,570,PS,exp,38,↓,down,↓,0.5183992999373004,True,11,1,0,0
 Y2-S2-113K19,7,571,PS,exp,47,→,right,→,0.4402302000671625,True,10,1,0,0
 Y2-S2-113K19,7,572,PS,exp,42,←,left,←,0.44900169991888106,True,10,1,0,0
 Y2-S2-113K19,7,573,PS,exp,36,↓,down,↓,1.1336516999872401,True,10,1,0,0
 Y2-S2-113K19,7,574,PS,exp,25,←,left,←,0.6214531000005081,True,9,1,0,0
 Y2-S2-113K19,7,575,PS,exp,50,→,right,→,0.5916103000054136,True,9,1,0,0
 Y2-S2-113K19,7,576,PS,exp,40,←,left,←,0.3899063999997452,True,9,1,0,0
 Y2-S2-113K19,7,577,PS,exp,49,→,right,→,0.5603550999658182,True,8,1,0,0
 Y2-S2-113K19,7,578,PS,exp,48,↓,down,↓,0.5964165999321267,True,8,1,0,0
 Y2-S2-113K19,7,579,PS,exp,26,←,left,←,0.5223352999892086,True,8,1,0,0
 Y2-S2-113K19,7,580,PS,exp,30,↑,up,↑,0.4369241000385955,True,7,1,0,0
 Y2-S2-113K19,7,581,PS,exp,30,→,left,←,0.6056499000405893,False,7,-1,1,1
 Y2-S2-113K19,7,582,PS,exp,49,↓,down,↓,0.5442470000125468,True,8,-1,0,1
 Y2-S2-113K19,7,583,PS,exp,34,→,right,→,1.7179802999598905,True,8,-1,0,1
 Y2-S2-113K19,7,584,PS,exp,32,↓,left,←,0.7746240999549627,False,8,-1,0,1
 Y2-S2-113K19,7,585,PS,exp,45,↑,up,↑,0.47420170006807894,True,9,-1,0,1
 Y2-S2-113K19,7,586,PS,exp,25,→,right,→,0.6629112999653444,True,9,-1,0,1
 Y2-S2-113K19,7,587,PS,exp,40,↓,down,↓,0.6152787999017164,True,9,1,1,2
 Y2-S2-113K19,7,588,PS,exp,46,←,down,↓,0.8514394999947399,False,8,-1,1,3
 Y2-S2-113K19,7,589,PS,exp,44,↑,up,↑,0.4728249000618234,True,9,-1,0,3
 Y2-S2-113K19,7,590,PS,exp,27,←,left,←,0.5271620999556035,True,9,-1,0,3
 Y2-S2-113K19,7,591,PS,exp,38,↓,up,↑,0.6296684999251738,False,9,-1,0,3
 Y2-S2-113K19,7,592,PS,exp,26,↑,up,↑,0.4999345999676734,True,10,-1,0,3
 Y2-S2-113K19,7,593,PS,exp,30,←,left,←,0.4325230000540614,True,10,-1,0,3
 Y2-S2-113K19,7,594,PS,exp,39,→,left,←,0.5791567999403924,False,10,-1,0,3
 Y2-S2-113K19,7,595,PS,exp,41,↓,down,↓,0.6201030999654904,True,11,-1,0,3
 Y2-S2-113K19,7,596,PS,exp,48,↑,up,↑,0.7473944999510422,True,11,-1,0,3
 Y2-S2-113K19,7,597,PS,exp,49,→,right,→,0.5225780999753624,True,11,1,1,4
 Y2-S2-113K19,7,598,PS,exp,45,↓,down,↓,0.5446838999632746,True,10,1,0,4
 Y2-S2-113K19,7,599,PS,exp,39,↑,up,↑,0.5010782000608742,True,10,1,0,4
 Y2-S2-113K19,7,600,PS,exp,26,↓,up,↑,0.514683400047943,False,10,-1,1,5
 Y2-S2-113K19,7,601,PS,exp,28,↑,up,↑,0.3890619999729097,True,11,-1,0,5
 Y2-S2-113K19,7,602,PS,exp,50,↓,right,→,0.6263550000730902,False,11,-1,0,5
 Y2-S2-113K19,7,603,PS,exp,40,→,right,→,0.43124900001566857,True,12,-1,0,5
 Y2-S2-113K19,7,604,PS,exp,45,←,left,←,0.5418136999942362,True,12,-1,0,5
 Y2-S2-113K19,7,605,PS,exp,30,→,right,→,0.6225341999670491,True,12,1,1,6
 Y2-S2-113K19,7,606,PS,exp,49,←,right,→,0.4972104000626132,False,11,-1,1,7
 Y2-S2-113K19,7,607,PS,exp,30,→,right,→,0.4523830999387428,True,12,-1,0,7
 Y2-S2-113K19,7,608,PS,exp,34,↑,up,↑,0.48723800003062934,True,12,-1,0,7
 Y2-S2-113K19,7,609,PS,exp,44,↓,down,↓,0.5963237000396475,True,12,1,1,8
 Y2-S2-113K19,7,610,PS,exp,44,↑,up,↑,0.4031529000494629,True,11,1,0,8
 Y2-S2-113K19,7,611,PS,exp,39,←,left,←,0.40095250005833805,True,11,1,0,8
 Y2-S2-113K19,7,612,PS,exp,37,→,right,→,0.4468324000481516,True,11,1,0,8
 Y2-S2-113K19,7,613,PS,exp,34,↑,left,←,0.7889409000054002,False,10,-1,1,9
 Y2-S2-113K19,7,614,PS,exp,42,←,left,←,0.508415500051342,True,11,-1,0,9
 Y2-S2-113K19,7,615,PS,exp,28,↑,up,↑,0.5946224998915568,True,11,-1,0,9
 Y2-S2-113K19,7,616,PS,exp,29,↓,down,↓,0.5451987999258563,True,11,1,1,10
 Y2-S2-113K19,7,617,PS,exp,25,←,right,→,0.6304862999822944,False,10,-1,1,11
 Y2-S2-113K19,7,618,PS,exp,33,→,right,→,0.7162310000276193,True,11,-1,0,11
 Y2-S2-113K19,7,619,PS,exp,39,←,left,←,0.5797942000208423,True,11,-1,0,11
 Y2-S2-113K19,7,620,PS,exp,32,↑,up,↑,0.47269990004133433,True,11,1,1,12
 Y2-S2-113K19,7,621,PS,exp,49,→,right,→,0.5699878999730572,True,10,1,0,12
 Y2-S2-113K19,7,622,PS,exp,41,↓,right,→,0.7231468000682071,False,10,-1,1,13
 Y2-S2-113K19,7,623,PS,exp,28,←,left,←,0.5791195000056177,True,11,-1,0,13
 Y2-S2-113K19,7,624,PS,exp,45,↑,up,↑,0.38146079995203763,True,11,-1,0,13
 Y2-S2-113K19,7,625,PS,exp,35,↓,up,↑,0.6121924000326544,False,11,-1,0,13
 Y2-S2-113K19,7,626,PS,exp,29,↑,left,←,1.331906299921684,False,12,-1,0,13
 Y2-S2-113K19,7,627,PS,exp,39,↓,down,↓,0.584512299974449,True,13,-1,0,13
 Y2-S2-113K19,7,628,PS,exp,43,→,right,→,0.5923138000071049,True,13,-1,0,13
 Y2-S2-113K19,7,629,PS,exp,47,←,left,←,0.6026162999914959,True,13,1,1,14
 Y2-S2-113K19,7,630,PS,exp,31,↑,up,↑,0.6594004000071436,True,12,1,0,14
 Y2-S2-113K19,7,631,PS,exp,25,←,left,←,0.5319179999642074,True,12,1,0,14
 Y2-S2-113K19,7,632,PS,exp,45,↑,up,↑,0.4381953999400139,True,12,1,0,14
 Y2-S2-113K19,7,633,PS,exp,31,←,left,←,0.4281208999454975,True,11,1,0,14
 Y2-S2-113K19,7,634,PS,exp,49,↑,left,←,1.7124245000304654,False,11,-1,1,15
 Y2-S2-113K19,7,635,PS,exp,37,←,left,←,0.4189191000768915,True,12,-1,0,15
 Y2-S2-113K19,7,636,PS,exp,42,→,right,→,0.5338812000118196,True,12,-1,0,15
 Y2-S2-113K19,7,637,PS,exp,50,↓,down,↓,0.5986553999828175,True,12,1,1,16
 Y2-S2-113K19,8,638,AS,intra_train,36,↑,up,↑,0.6950455000624061,True,27,-,-,-
 Y2-S2-113K19,8,639,AS,intra_train,36,→,right,→,0.5677438999991864,True,27,-,-,-
 Y2-S2-113K19,8,640,AS,intra_train,42,↓,down,↓,0.5672776000574231,True,27,-,-,-
 Y2-S2-113K19,8,641,AS,intra_train,38,←,left,←,0.6600738998968154,True,27,-,-,-
 Y2-S2-113K19,8,642,AS,intra_train,36,↑,up,↑,1.4122009000275284,True,27,-,-,-
 Y2-S2-113K19,8,643,AS,exp,45,←,left,←,0.5770989999873564,True,18,0,0,0
 Y2-S2-113K19,8,644,AS,exp,26,→,right,→,0.4792168999556452,True,18,0,0,0
 Y2-S2-113K19,8,645,AS,exp,43,↓,down,↓,0.6932677999138832,True,18,1,0,0
 Y2-S2-113K19,8,646,AS,exp,40,→,left,←,0.5424886000109836,False,17,-1,1,1
 Y2-S2-113K19,8,647,AS,exp,37,↑,up,↑,0.6636672000167891,True,18,-1,0,1
 Y2-S2-113K19,8,648,AS,exp,32,→,right,→,0.49672860000282526,True,18,-1,0,1
 Y2-S2-113K19,8,649,AS,exp,45,↓,down,↓,0.6084776000352576,True,18,1,1,2
 Y2-S2-113K19,8,650,AS,exp,32,←,left,←,0.7273845000891015,True,17,1,0,2
 Y2-S2-113K19,8,651,AS,exp,36,↓,down,↓,0.6126504000276327,True,17,1,0,2
 Y2-S2-113K19,8,652,AS,exp,34,←,left,←,0.6109454999677837,True,17,1,0,2
 Y2-S2-113K19,8,653,AS,exp,38,↑,up,↑,0.6343551999889314,True,16,1,0,2
 Y2-S2-113K19,8,654,AS,exp,39,↓,down,↓,0.6186725000152364,True,16,1,0,2
 Y2-S2-113K19,8,655,AS,exp,36,→,right,→,0.688012299942784,True,16,1,0,2
 Y2-S2-113K19,8,656,AS,exp,30,↓,down,↓,0.6050367000279948,True,15,1,0,2
 Y2-S2-113K19,8,657,AS,exp,46,→,left,←,0.5567848000209779,False,15,-1,1,3
 Y2-S2-113K19,8,658,AS,exp,37,↓,down,↓,0.5770630999468267,True,16,-1,0,3
 Y2-S2-113K19,8,659,AS,exp,37,→,left,←,0.5812152998987585,False,16,-1,0,3
 Y2-S2-113K19,8,660,AS,exp,34,←,left,←,0.4840009000618011,True,17,-1,0,3
 Y2-S2-113K19,8,661,AS,exp,28,↑,up,↑,0.5906189000234008,True,17,-1,0,3
 Y2-S2-113K19,8,662,AS,exp,28,←,left,←,0.478774799965322,True,17,1,1,4
 Y2-S2-113K19,8,663,AS,exp,26,↑,up,↑,1.390442300005816,True,16,1,0,4
 Y2-S2-113K19,8,664,AS,exp,35,←,left,←,0.5212976000038907,True,16,1,0,4
 Y2-S2-113K19,8,665,AS,exp,49,→,right,→,0.5294344999128953,True,16,1,0,4
 Y2-S2-113K19,8,666,AS,exp,33,↓,down,↓,0.7023682000581175,True,15,1,0,4
 Y2-S2-113K19,8,667,AS,exp,26,←,left,←,1.278677299967967,True,15,1,0,4
 Y2-S2-113K19,8,668,AS,exp,48,↓,up,↑,0.7598648999119177,False,15,-1,1,5
 Y2-S2-113K19,8,669,AS,exp,42,↑,up,↑,0.49456330004613847,True,16,-1,0,5
 Y2-S2-113K19,8,670,AS,exp,44,←,left,←,0.4989992999471724,True,16,-1,0,5
 Y2-S2-113K19,8,671,AS,exp,45,↑,up,↑,0.542217499925755,True,16,1,1,6
 Y2-S2-113K19,8,672,AS,exp,46,→,right,→,0.5954247999470681,True,15,1,0,6
 Y2-S2-113K19,8,673,AS,exp,47,←,right,→,0.69793889997527,False,15,-1,1,7
 Y2-S2-113K19,8,674,AS,exp,41,↑,up,↑,0.5034869000082836,True,16,-1,0,7
 Y2-S2-113K19,8,675,AS,exp,49,←,left,←,1.1113741000881419,True,16,-1,0,7
 Y2-S2-113K19,8,676,AS,exp,48,↑,up,↑,0.454390799975954,True,16,1,1,8
 Y2-S2-113K19,8,677,AS,exp,34,↓,down,↓,0.6567012000596151,True,15,1,0,8
 Y2-S2-113K19,8,678,AS,exp,45,↑,up,↑,0.5526194999692962,True,15,1,0,8
 Y2-S2-113K19,8,679,AS,exp,34,→,right,→,0.46590119996108115,True,15,1,0,8
 Y2-S2-113K19,8,680,AS,exp,42,←,left,←,0.48259360005613416,True,14,1,0,8
 Y2-S2-113K19,8,681,AS,exp,39,↑,up,↑,0.43553509993944317,True,14,1,0,8
 Y2-S2-113K19,8,682,AS,exp,27,→,right,→,0.5326987999724224,True,14,1,0,8
 Y2-S2-113K19,8,683,AS,exp,26,←,left,←,1.5527233999455348,True,13,1,0,8
 Y2-S2-113K19,8,684,AS,exp,49,→,right,→,0.49458300007972866,True,13,1,0,8
 Y2-S2-113K19,8,685,AS,exp,39,↓,down,↓,0.9736607999075204,True,13,1,0,8
 Y2-S2-113K19,8,686,AS,exp,46,→,left,←,0.743217800045386,False,12,-1,1,9
 Y2-S2-113K19,8,687,AS,exp,39,←,left,←,0.5627917000092566,True,13,-1,0,9
 Y2-S2-113K19,8,688,AS,exp,47,↓,down,↓,0.6177458999445662,True,13,-1,0,9
 Y2-S2-113K19,8,689,AS,exp,33,→,left,←,0.9013280000071973,False,13,-1,0,9
 Y2-S2-113K19,8,690,AS,exp,26,←,left,←,0.6023065999615937,True,14,-1,0,9
 Y2-S2-113K19,8,691,AS,exp,41,↑,up,↑,0.6308738000225276,True,14,-1,0,9
 Y2-S2-113K19,8,692,AS,exp,29,↓,down,↓,0.8271808999124914,True,14,1,1,10
 Y2-S2-113K19,8,693,AS,exp,34,←,left,←,0.5005428999429569,True,13,1,0,10
 Y2-S2-113K19,8,694,AS,exp,40,→,right,→,0.48945330001879483,True,13,1,0,10
 Y2-S2-113K19,8,695,AS,exp,43,↑,up,↑,0.4744668999919668,True,13,1,0,10
 Y2-S2-113K19,8,696,AS,exp,37,↓,down,↓,0.6961036000866443,True,12,1,0,10
 Y2-S2-113K19,8,697,AS,exp,30,→,right,→,0.5054986999602988,True,12,1,0,10
 Y2-S2-113K19,8,698,AS,exp,43,←,left,←,0.5651008000131696,True,12,1,0,10
 Y2-S2-113K19,8,699,AS,exp,39,↑,up,↑,0.4280602999497205,True,11,1,0,10
 Y2-S2-113K19,8,700,AS,exp,32,→,left,←,0.5584172999951988,False,11,-1,1,11
 Y2-S2-113K19,8,701,AS,exp,38,↓,up,↑,0.7408658999484032,False,12,-1,0,11
 Y2-S2-113K19,8,702,AS,exp,38,↑,down,↓,0.5915054000215605,False,13,-1,0,11
 Y2-S2-113K19,8,703,AS,exp,26,←,left,←,0.5446910000173375,True,14,-1,0,11
 Y2-S2-113K19,8,704,AS,exp,48,↓,down,↓,0.6001972000813112,True,14,-1,0,11
 Y2-S2-113K19,8,705,AS,exp,33,←,left,←,0.612780399969779,True,14,1,1,12
 Y2-S2-113K19,8,706,AS,exp,30,↑,up,↑,0.5585504999617115,True,13,1,0,12
 Y2-S2-113K19,8,707,AS,exp,44,→,right,→,0.5216684000333771,True,13,1,0,12
 Y2-S2-113K19,8,708,AS,exp,31,↑,down,↓,1.0279616999905556,False,13,-1,1,13
 Y2-S2-113K19,8,709,AS,exp,31,←,left,←,0.5638822000473738,True,14,-1,0,13
 Y2-S2-113K19,8,710,AS,exp,35,↑,up,↑,0.6889402999076992,True,14,-1,0,13
 Y2-S2-113K19,8,711,AS,exp,43,←,left,←,0.46552069997414947,True,14,1,1,14
 Y2-S2-113K19,8,712,AS,exp,39,↑,up,↑,0.45403130003251135,True,13,1,0,14
 Y2-S2-113K19,8,713,AS,exp,36,↓,down,↓,0.6229111000429839,True,13,1,0,14
 Y2-S2-113K19,8,714,AS,exp,37,←,right,→,1.1840303000062704,False,13,-1,1,15
 Y2-S2-113K19,8,715,AS,exp,50,↓,down,↓,0.5315637000603601,True,14,-1,0,15
 Y2-S2-113K19,8,716,AS,exp,29,←,left,←,0.5428121999138966,True,14,-1,0,15
 Y2-S2-113K19,8,717,AS,exp,32,↑,down,↓,0.7072350999806076,False,14,-1,0,15
 Y2-S2-113K19,8,718,AS,exp,29,↓,up,↑,0.6288552999030799,False,15,-1,0,15
 Y2-S2-113K19,8,719,AS,exp,38,→,right,→,0.6079872000264004,True,16,-1,0,15
 Y2-S2-113K19,8,720,AS,exp,48,←,left,←,0.5334889000514522,True,16,-1,0,15
 Y2-S2-113K19,8,721,AS,exp,43,↑,up,↑,0.6798300000373274,True,16,1,1,16
