PART_ID,Block_no,Trial_no,Block_type,Trial_type,CSI,Stim_letter,Key_pressed,letter_choose,Rt,Corr,Stimulus Time,Level,Reversal,Revs_count
Y2-S2-074M24,1,1,PS,train,39,↑,up,↑,0.745834699831903,True,30,-,-,-
Y2-S2-074M24,1,2,PS,train,46,↓,down,↓,1.2201390000991523,True,30,-,-,-
Y2-S2-074M24,1,3,PS,train,29,→,right,→,1.1905546002089977,True,30,-,-,-
Y2-S2-074M24,1,4,PS,train,41,↓,down,↓,1.1358391996473074,True,30,-,-,-
Y2-S2-074M24,1,5,PS,train,45,↑,up,↑,1.022071999963373,True,30,-,-,-
Y2-S2-074M24,1,6,PS,train,49,↓,down,↓,0.9194540996104479,True,30,-,-,-
Y2-S2-074M24,1,7,PS,train,26,↑,up,↑,0.8115105000324547,True,30,-,-,-
Y2-S2-074M24,1,8,PS,train,32,→,right,→,1.6599260000512004,True,30,-,-,-
Y2-S2-074M24,1,9,PS,train,50,↓,down,↓,0.9820451000705361,True,30,-,-,-
Y2-S2-074M24,1,10,PS,train,33,←,left,←,1.193771599791944,True,30,-,-,-
Y2-S2-074M24,2,11,AS,train,46,↓,down,↓,0.9524978999979794,True,45,-,-,-
Y2-S2-074M24,2,12,AS,train,33,←,left,←,1.1751468000002205,True,45,-,-,-
Y2-S2-074M24,2,13,AS,train,47,→,right,→,0.9797902000136673,True,45,-,-,-
Y2-S2-074M24,2,14,AS,train,50,↓,down,↓,1.09230550006032,True,45,-,-,-
Y2-S2-074M24,2,15,AS,train,34,→,right,→,1.1945052999071777,True,45,-,-,-
Y2-S2-074M24,2,16,AS,train,41,↓,down,↓,1.4306822000071406,True,45,-,-,-
Y2-S2-074M24,2,17,AS,train,26,↑,up,↑,1.1090064002200961,True,45,-,-,-
Y2-S2-074M24,2,18,AS,train,31,←,left,←,1.0649582999758422,True,45,-,-,-
Y2-S2-074M24,2,19,AS,train,34,↑,up,↑,1.6114525999873877,True,45,-,-,-
Y2-S2-074M24,2,20,AS,train,42,→,right,→,1.2185571999289095,True,45,-,-,-
Y2-S2-074M24,-,21,PS,adaptive,29,↑,no_key,no_letter,-1.0,False,10,-1,0,0
Y2-S2-074M24,-,22,PS,adaptive,29,↓,down,↓,0.8740660003386438,True,11,-1,0,0
Y2-S2-074M24,-,23,PS,adaptive,38,→,right,→,0.6452481998130679,True,11,-1,0,0
Y2-S2-074M24,-,24,PS,adaptive,30,↓,down,↓,0.7174337999895215,True,11,1,1,1
Y2-S2-074M24,-,25,PS,adaptive,28,↑,up,↑,0.5654746000654995,True,10,1,0,1
Y2-S2-074M24,-,26,PS,adaptive,29,←,left,←,1.0631881998851895,True,10,1,0,1
Y2-S2-074M24,-,27,PS,adaptive,33,↓,down,↓,0.7590088997967541,True,10,1,0,1
Y2-S2-074M24,-,28,PS,adaptive,41,↑,up,↑,0.7526664002798498,True,9,1,0,1
Y2-S2-074M24,-,29,PS,adaptive,43,→,right,→,0.7927923002280295,True,9,1,0,1
Y2-S2-074M24,-,30,PS,adaptive,33,←,left,←,0.868307700380683,True,9,1,0,1
Y2-S2-074M24,-,31,PS,adaptive,29,↑,up,↑,0.6107943998649716,True,8,1,0,1
Y2-S2-074M24,-,32,PS,adaptive,45,←,left,←,0.6286953999660909,True,8,1,0,1
Y2-S2-074M24,-,33,PS,adaptive,25,→,left,←,0.805281899869442,False,8,-1,1,2
Y2-S2-074M24,-,34,PS,adaptive,43,↓,left,←,0.7930405996739864,False,9,-1,0,2
Y2-S2-074M24,-,35,PS,adaptive,41,→,left,←,0.8289930997416377,False,10,-1,0,2
Y2-S2-074M24,-,36,PS,adaptive,35,←,left,←,0.6212582001462579,True,11,-1,0,2
Y2-S2-074M24,-,37,PS,adaptive,48,↓,down,↓,0.7892187000252306,True,11,-1,0,2
Y2-S2-074M24,-,38,PS,adaptive,45,→,left,←,0.798802999779582,False,11,-1,0,2
Y2-S2-074M24,-,39,PS,adaptive,28,↓,left,←,1.5932510998100042,False,12,-1,0,2
Y2-S2-074M24,-,40,PS,adaptive,26,↑,up,↑,0.6634737998247147,True,13,-1,0,2
Y2-S2-074M24,-,41,PS,adaptive,42,→,right,→,0.6000100001692772,True,13,-1,0,2
Y2-S2-074M24,-,42,PS,adaptive,43,↓,down,↓,0.6845913999713957,True,13,1,1,3
Y2-S2-074M24,-,43,PS,adaptive,25,↑,right,→,0.9477846999652684,False,12,-1,1,4
Y2-S2-074M24,-,44,AS,adaptive,34,←,left,←,0.6615060996264219,True,20,0,0,0
Y2-S2-074M24,-,45,AS,adaptive,39,→,right,→,0.724898399785161,True,20,0,0,0
Y2-S2-074M24,-,46,AS,adaptive,32,↓,down,↓,0.7128952001221478,True,20,1,0,0
Y2-S2-074M24,-,47,AS,adaptive,37,↑,up,↑,0.7088581002317369,True,19,1,0,0
Y2-S2-074M24,-,48,AS,adaptive,26,←,left,←,0.6805278998799622,True,19,1,0,0
Y2-S2-074M24,-,49,AS,adaptive,35,→,right,→,0.5694264001213014,True,19,1,0,0
Y2-S2-074M24,-,50,AS,adaptive,39,↓,down,↓,0.881436700001359,True,18,1,0,0
Y2-S2-074M24,-,51,AS,adaptive,35,→,right,→,0.6524828998371959,True,18,1,0,0
Y2-S2-074M24,-,52,AS,adaptive,50,↑,up,↑,0.7733757998794317,True,18,1,0,0
Y2-S2-074M24,-,53,AS,adaptive,27,←,left,←,0.5909913000650704,True,17,1,0,0
Y2-S2-074M24,-,54,AS,adaptive,41,↓,down,↓,0.690295500215143,True,17,1,0,0
Y2-S2-074M24,-,55,AS,adaptive,25,→,right,→,0.6049822997301817,True,17,1,0,0
Y2-S2-074M24,-,56,AS,adaptive,36,↓,down,↓,0.552296900190413,True,16,1,0,0
Y2-S2-074M24,-,57,AS,adaptive,35,→,right,→,0.5754309999756515,True,16,1,0,0
Y2-S2-074M24,-,58,AS,adaptive,45,↑,up,↑,0.6290791998617351,True,16,1,0,0
Y2-S2-074M24,-,59,AS,adaptive,32,→,left,←,0.8067137999460101,False,15,-1,1,1
Y2-S2-074M24,-,60,AS,adaptive,34,↑,up,↑,0.597445999737829,True,16,-1,0,1
Y2-S2-074M24,-,61,AS,adaptive,38,↓,up,↑,0.7378940000198781,False,16,-1,0,1
Y2-S2-074M24,-,62,AS,adaptive,44,↑,up,↑,0.6251711002551019,True,17,-1,0,1
Y2-S2-074M24,-,63,AS,adaptive,31,←,left,←,1.8422400997951627,True,17,-1,0,1
Y2-S2-074M24,-,64,AS,adaptive,44,↑,up,↑,0.6168907997198403,True,17,1,1,2
Y2-S2-074M24,-,65,AS,adaptive,34,↓,down,↓,0.681574400048703,True,16,1,0,2
Y2-S2-074M24,-,66,AS,adaptive,25,↑,up,↑,0.7095250003039837,True,16,1,0,2
Y2-S2-074M24,-,67,AS,adaptive,37,↓,down,↓,0.7077826000750065,True,16,1,0,2
Y2-S2-074M24,-,68,AS,adaptive,29,→,right,→,0.6370244002901018,True,15,1,0,2
Y2-S2-074M24,-,69,AS,adaptive,39,←,right,→,0.6968967001885176,False,15,-1,1,3
Y2-S2-074M24,-,70,AS,adaptive,25,↓,down,↓,0.8253402998670936,True,16,-1,0,3
Y2-S2-074M24,-,71,AS,adaptive,28,←,left,←,0.6503889001905918,True,16,-1,0,3
Y2-S2-074M24,-,72,AS,adaptive,33,↓,down,↓,0.7926998999901116,True,16,1,1,4
Y2-S2-074M24,1,73,PS,intra_train,43,↑,up,↑,0.844756199978292,True,19,-,-,-
Y2-S2-074M24,1,74,PS,intra_train,48,←,left,←,0.74293929990381,True,19,-,-,-
Y2-S2-074M24,1,75,PS,intra_train,30,→,right,→,0.7046952000819147,True,19,-,-,-
Y2-S2-074M24,1,76,PS,intra_train,49,↓,down,↓,0.7358000003732741,True,19,-,-,-
Y2-S2-074M24,1,77,PS,intra_train,41,←,left,←,0.6611528000794351,True,19,-,-,-
Y2-S2-074M24,1,78,PS,exp,37,↑,up,↑,0.780118599999696,True,13,0,0,0
Y2-S2-074M24,1,79,PS,exp,44,→,right,→,1.0593726998195052,True,13,0,0,0
Y2-S2-074M24,1,80,PS,exp,38,↑,down,↓,0.9237072998657823,False,13,-1,0,0
Y2-S2-074M24,1,81,PS,exp,50,↓,down,↓,0.8620682000182569,True,14,-1,0,0
Y2-S2-074M24,1,82,PS,exp,47,→,right,→,0.6425892002880573,True,14,-1,0,0
Y2-S2-074M24,1,83,PS,exp,37,↓,down,↓,0.9521884000860155,True,14,1,1,1
Y2-S2-074M24,1,84,PS,exp,31,←,left,←,0.5298947999253869,True,13,1,0,1
Y2-S2-074M24,1,85,PS,exp,30,↓,down,↓,0.8524313997477293,True,13,1,0,1
Y2-S2-074M24,1,86,PS,exp,27,↑,right,→,0.9954827004112303,False,13,-1,1,2
Y2-S2-074M24,1,87,PS,exp,34,→,right,→,0.6831493997015059,True,14,-1,0,2
Y2-S2-074M24,1,88,PS,exp,29,←,left,←,0.7101753000169992,True,14,-1,0,2
Y2-S2-074M24,1,89,PS,exp,31,→,right,→,0.6849561999551952,True,14,1,1,3
Y2-S2-074M24,1,90,PS,exp,39,↑,up,↑,0.6711159995757043,True,13,1,0,3
Y2-S2-074M24,1,91,PS,exp,34,↓,right,→,0.8846821002662182,False,13,-1,1,4
Y2-S2-074M24,1,92,PS,exp,39,→,right,→,0.6776809999719262,True,14,-1,0,4
Y2-S2-074M24,1,93,PS,exp,45,←,left,←,0.662537899799645,True,14,-1,0,4
Y2-S2-074M24,1,94,PS,exp,28,↓,down,↓,1.0179236996918917,True,14,1,1,5
Y2-S2-074M24,1,95,PS,exp,43,→,right,→,0.6642680000513792,True,13,1,0,5
Y2-S2-074M24,1,96,PS,exp,29,←,left,←,0.7136315000243485,True,13,1,0,5
Y2-S2-074M24,1,97,PS,exp,44,→,right,→,0.5443794000893831,True,13,1,0,5
Y2-S2-074M24,1,98,PS,exp,45,↓,down,↓,0.8255059998482466,True,12,1,0,5
Y2-S2-074M24,1,99,PS,exp,41,↑,right,→,1.0415807999670506,False,12,-1,1,6
Y2-S2-074M24,1,100,PS,exp,44,↓,down,↓,0.7391233001835644,True,13,-1,0,6
Y2-S2-074M24,1,101,PS,exp,35,→,right,→,0.6076453998684883,True,13,-1,0,6
Y2-S2-074M24,1,102,PS,exp,32,↓,down,↓,0.6782082999125123,True,13,1,1,7
Y2-S2-074M24,1,103,PS,exp,42,→,right,→,0.7820974998176098,True,12,1,0,7
Y2-S2-074M24,1,104,PS,exp,42,←,left,←,0.6327263000421226,True,12,1,0,7
Y2-S2-074M24,1,105,PS,exp,43,↑,up,↑,0.5255322000011802,True,12,1,0,7
Y2-S2-074M24,1,106,PS,exp,34,↓,down,↓,0.718034700024873,True,11,1,0,7
Y2-S2-074M24,1,107,PS,exp,45,→,right,→,0.9737633001059294,True,11,1,0,7
Y2-S2-074M24,1,108,PS,exp,47,↓,down,↓,0.7933078999631107,True,11,1,0,7
Y2-S2-074M24,1,109,PS,exp,40,→,right,→,0.8827611999586225,True,10,1,0,7
Y2-S2-074M24,1,110,PS,exp,27,↑,up,↑,0.5646301000379026,True,10,1,0,7
Y2-S2-074M24,1,111,PS,exp,30,↓,down,↓,0.7236262001097202,True,10,1,0,7
Y2-S2-074M24,1,112,PS,exp,50,→,right,→,0.6353631997480989,True,9,1,0,7
Y2-S2-074M24,1,113,PS,exp,25,↓,down,↓,0.778687700163573,True,9,1,0,7
Y2-S2-074M24,1,114,PS,exp,36,↑,up,↑,0.5692231999710202,True,9,1,0,7
Y2-S2-074M24,1,115,PS,exp,27,↓,down,↓,1.7335361000150442,True,8,1,0,7
Y2-S2-074M24,1,116,PS,exp,28,→,right,→,0.7269708998501301,True,8,1,0,7
Y2-S2-074M24,1,117,PS,exp,40,←,left,←,0.6268350002355874,True,8,1,0,7
Y2-S2-074M24,1,118,PS,exp,40,↓,left,←,0.9465498998761177,False,7,-1,1,8
Y2-S2-074M24,1,119,PS,exp,50,←,right,→,1.246327499859035,False,8,-1,0,8
Y2-S2-074M24,1,120,PS,exp,26,↑,down,↓,0.8875728999264538,False,9,-1,0,8
Y2-S2-074M24,1,121,PS,exp,26,→,right,→,0.6279251999221742,True,10,-1,0,8
Y2-S2-074M24,1,122,PS,exp,35,↑,up,↑,0.6878821002319455,True,10,-1,0,8
Y2-S2-074M24,1,123,PS,exp,47,←,no_key,no_letter,-1.0,False,10,-1,0,8
Y2-S2-074M24,1,124,PS,exp,48,↓,down,↓,0.7917138999328017,True,11,-1,0,8
Y2-S2-074M24,1,125,PS,exp,42,→,right,→,0.6499212998896837,True,11,-1,0,8
Y2-S2-074M24,1,126,PS,exp,44,←,left,←,0.5632152003236115,True,11,1,1,9
Y2-S2-074M24,1,127,PS,exp,35,↑,up,↑,0.4863046002574265,True,10,1,0,9
Y2-S2-074M24,1,128,PS,exp,27,↓,down,↓,0.7601713999174535,True,10,1,0,9
Y2-S2-074M24,1,129,PS,exp,47,←,left,←,0.6304956995882094,True,10,1,0,9
Y2-S2-074M24,1,130,PS,exp,34,↑,left,←,0.8153941002674401,False,9,-1,1,10
Y2-S2-074M24,1,131,PS,exp,38,↓,down,↓,0.6896307002753019,True,10,-1,0,10
Y2-S2-074M24,1,132,PS,exp,44,→,right,→,0.6417517000809312,True,10,-1,0,10
Y2-S2-074M24,1,133,PS,exp,26,←,left,←,0.5994307002983987,True,10,1,1,11
Y2-S2-074M24,1,134,PS,exp,25,↑,left,←,0.8934598001651466,False,9,-1,1,12
Y2-S2-074M24,1,135,PS,exp,49,←,left,←,0.5878547998145223,True,10,-1,0,12
Y2-S2-074M24,1,136,PS,exp,48,↑,up,↑,0.6903696996159852,True,10,-1,0,12
Y2-S2-074M24,1,137,PS,exp,31,→,right,→,0.7063501002267003,True,10,1,1,13
Y2-S2-074M24,1,138,PS,exp,43,↓,down,↓,0.7377037000842392,True,9,1,0,13
Y2-S2-074M24,1,139,PS,exp,44,↑,no_key,no_letter,-1.0,False,9,-1,1,14
Y2-S2-074M24,1,140,PS,exp,42,↓,down,↓,0.7820730996318161,True,10,-1,0,14
Y2-S2-074M24,1,141,PS,exp,47,→,right,→,0.6690161000005901,True,10,-1,0,14
Y2-S2-074M24,1,142,PS,exp,32,↑,no_key,no_letter,-1.0,False,10,-1,0,14
Y2-S2-074M24,1,143,PS,exp,32,←,left,←,0.5743804001249373,True,11,-1,0,14
Y2-S2-074M24,1,144,PS,exp,28,↓,right,→,1.726255299989134,False,11,-1,0,14
Y2-S2-074M24,1,145,PS,exp,35,←,left,←,0.5703144003637135,True,12,-1,0,14
Y2-S2-074M24,1,146,PS,exp,45,→,right,→,0.7301690001040697,True,12,-1,0,14
Y2-S2-074M24,1,147,PS,exp,25,↑,up,↑,0.5053652003407478,True,12,1,1,15
Y2-S2-074M24,1,148,PS,exp,28,↓,down,↓,1.2609466002322733,True,11,1,0,15
Y2-S2-074M24,1,149,PS,exp,39,←,left,←,0.4803488999605179,True,11,1,0,15
Y2-S2-074M24,1,150,PS,exp,27,→,right,→,0.4401059001684189,True,11,1,0,15
Y2-S2-074M24,1,151,PS,exp,50,↓,down,↓,0.8998398003168404,True,10,1,0,15
Y2-S2-074M24,1,152,PS,exp,33,↑,up,↑,0.478192700073123,True,10,1,0,15
Y2-S2-074M24,1,153,PS,exp,44,←,left,←,0.739778000395745,True,10,1,0,15
Y2-S2-074M24,1,154,PS,exp,39,→,right,→,0.6428804998286068,True,9,1,0,15
Y2-S2-074M24,1,155,PS,exp,29,↓,up,↑,0.7362702996470034,False,9,-1,1,16
Y2-S2-074M24,2,156,AS,intra_train,40,→,right,→,0.6772449999116361,True,22,-,-,-
Y2-S2-074M24,2,157,AS,intra_train,45,↑,up,↑,0.9165471997112036,True,22,-,-,-
Y2-S2-074M24,2,158,AS,intra_train,50,↓,down,↓,0.8702245000749826,True,22,-,-,-
Y2-S2-074M24,2,159,AS,intra_train,44,→,right,→,0.688798800110817,True,22,-,-,-
Y2-S2-074M24,2,160,AS,intra_train,45,↓,down,↓,0.8156389999203384,True,22,-,-,-
Y2-S2-074M24,2,161,AS,exp,37,↑,up,↑,0.7222243999131024,True,15,0,0,0
Y2-S2-074M24,2,162,AS,exp,30,↓,down,↓,0.7361480998806655,True,15,0,0,0
Y2-S2-074M24,2,163,AS,exp,33,←,left,←,0.7369046001695096,True,15,1,0,0
Y2-S2-074M24,2,164,AS,exp,49,↑,up,↑,0.748840999789536,True,14,1,0,0
Y2-S2-074M24,2,165,AS,exp,38,↓,down,↓,0.7061892999336123,True,14,1,0,0
Y2-S2-074M24,2,166,AS,exp,26,↑,up,↑,0.6349456999450922,True,14,1,0,0
Y2-S2-074M24,2,167,AS,exp,26,↓,down,↓,0.7125392998568714,True,13,1,0,0
Y2-S2-074M24,2,168,AS,exp,49,←,left,←,0.5732531999237835,True,13,1,0,0
Y2-S2-074M24,2,169,AS,exp,35,↑,up,↑,0.5908429999835789,True,13,1,0,0
Y2-S2-074M24,2,170,AS,exp,46,↓,down,↓,0.6370454002171755,True,12,1,0,0
Y2-S2-074M24,2,171,AS,exp,28,→,right,→,0.8194345999509096,True,12,1,0,0
Y2-S2-074M24,2,172,AS,exp,27,↓,down,↓,0.6952650998719037,True,12,1,0,0
Y2-S2-074M24,2,173,AS,exp,31,→,right,→,0.764958799816668,True,11,1,0,0
Y2-S2-074M24,2,174,AS,exp,35,↑,up,↑,1.0947819002903998,True,11,1,0,0
Y2-S2-074M24,2,175,AS,exp,35,↓,down,↓,0.8123968001455069,True,11,1,0,0
Y2-S2-074M24,2,176,AS,exp,31,↑,up,↑,1.3909698999486864,True,10,1,0,0
Y2-S2-074M24,2,177,AS,exp,44,→,right,→,0.5169310998171568,True,10,1,0,0
Y2-S2-074M24,2,178,AS,exp,47,←,right,→,0.6548423999920487,False,10,-1,1,1
Y2-S2-074M24,2,179,AS,exp,45,→,right,→,0.7660659998655319,True,11,-1,0,1
Y2-S2-074M24,2,180,AS,exp,34,←,left,←,0.6453816001303494,True,11,-1,0,1
Y2-S2-074M24,2,181,AS,exp,30,→,right,→,0.6418464998714626,True,11,1,1,2
Y2-S2-074M24,2,182,AS,exp,35,←,right,→,0.7061242000199854,False,10,-1,1,3
Y2-S2-074M24,2,183,AS,exp,48,↓,down,↓,0.6737726996652782,True,11,-1,0,3
Y2-S2-074M24,2,184,AS,exp,26,↑,up,↑,0.8031965000554919,True,11,-1,0,3
Y2-S2-074M24,2,185,AS,exp,43,←,left,←,0.8642985997721553,True,11,1,1,4
Y2-S2-074M24,2,186,AS,exp,48,→,left,←,1.722937600221485,False,10,-1,1,5
Y2-S2-074M24,2,187,AS,exp,25,↓,down,↓,0.7603589002974331,True,11,-1,0,5
Y2-S2-074M24,2,188,AS,exp,50,↑,up,↑,0.7820346998050809,True,11,-1,0,5
Y2-S2-074M24,2,189,AS,exp,26,→,right,→,1.0326326000504196,True,11,1,1,6
Y2-S2-074M24,2,190,AS,exp,31,↓,down,↓,0.8152299001812935,True,10,1,0,6
Y2-S2-074M24,2,191,AS,exp,41,→,left,←,0.7009872002527118,False,10,-1,1,7
Y2-S2-074M24,2,192,AS,exp,27,↓,no_key,no_letter,-1.0,False,11,-1,0,7
Y2-S2-074M24,2,193,AS,exp,41,←,no_key,no_letter,-1.0,False,12,-1,0,7
Y2-S2-074M24,2,194,AS,exp,37,↓,no_key,no_letter,-1.0,False,13,-1,0,7
Y2-S2-074M24,2,195,AS,exp,43,→,right,→,0.6066246000118554,True,14,-1,0,7
Y2-S2-074M24,2,196,AS,exp,37,↓,down,↓,0.7037492003291845,True,14,-1,0,7
Y2-S2-074M24,2,197,AS,exp,41,←,left,←,0.6223402000032365,True,14,1,1,8
Y2-S2-074M24,2,198,AS,exp,41,↓,down,↓,0.646367400418967,True,13,1,0,8
Y2-S2-074M24,2,199,AS,exp,28,↑,down,↓,0.6809882000088692,False,13,-1,1,9
Y2-S2-074M24,2,200,AS,exp,41,↓,down,↓,0.7433163998648524,True,14,-1,0,9
Y2-S2-074M24,2,201,AS,exp,28,↑,up,↑,0.787045800127089,True,14,-1,0,9
Y2-S2-074M24,2,202,AS,exp,44,→,right,→,0.6233285996131599,True,14,1,1,10
Y2-S2-074M24,2,203,AS,exp,48,←,left,←,0.6098524001426995,True,13,1,0,10
Y2-S2-074M24,2,204,AS,exp,30,↓,down,↓,0.7184317000210285,True,13,1,0,10
Y2-S2-074M24,2,205,AS,exp,30,←,right,→,0.7032109997235239,False,13,-1,1,11
Y2-S2-074M24,2,206,AS,exp,30,↑,up,↑,0.6570943002589047,True,14,-1,0,11
Y2-S2-074M24,2,207,AS,exp,29,←,right,→,0.7432295996695757,False,14,-1,0,11
Y2-S2-074M24,2,208,AS,exp,39,↓,down,↓,0.7188297999091446,True,15,-1,0,11
Y2-S2-074M24,2,209,AS,exp,26,↑,up,↑,0.657177499961108,True,15,-1,0,11
Y2-S2-074M24,2,210,AS,exp,49,↓,down,↓,0.7815041998401284,True,15,1,1,12
Y2-S2-074M24,2,211,AS,exp,43,↑,up,↑,0.7035266999155283,True,14,1,0,12
Y2-S2-074M24,2,212,AS,exp,32,↓,down,↓,0.671624899841845,True,14,1,0,12
Y2-S2-074M24,2,213,AS,exp,44,↑,up,↑,0.6857269001193345,True,14,1,0,12
Y2-S2-074M24,2,214,AS,exp,35,←,right,→,0.5393777000717819,False,13,-1,1,13
Y2-S2-074M24,2,215,AS,exp,47,↑,up,↑,0.568558800034225,True,14,-1,0,13
Y2-S2-074M24,2,216,AS,exp,33,↓,down,↓,0.7176761999726295,True,14,-1,0,13
Y2-S2-074M24,2,217,AS,exp,38,←,right,→,0.5931906001642346,False,14,-1,0,13
Y2-S2-074M24,2,218,AS,exp,34,↑,down,↓,0.7193845002911985,False,15,-1,0,13
Y2-S2-074M24,2,219,AS,exp,25,↓,down,↓,0.6293655000627041,True,16,-1,0,13
Y2-S2-074M24,2,220,AS,exp,33,↑,up,↑,0.6418972997926176,True,16,-1,0,13
Y2-S2-074M24,2,221,AS,exp,38,↓,down,↓,0.5729499999433756,True,16,1,1,14
Y2-S2-074M24,2,222,AS,exp,39,↑,up,↑,0.6569452001713216,True,15,1,0,14
Y2-S2-074M24,2,223,AS,exp,39,↓,down,↓,0.5605971999466419,True,15,1,0,14
Y2-S2-074M24,2,224,AS,exp,30,↑,down,↓,1.1993226995691657,False,15,-1,1,15
Y2-S2-074M24,2,225,AS,exp,25,←,left,←,0.5973769002594054,True,16,-1,0,15
Y2-S2-074M24,2,226,AS,exp,34,↓,down,↓,0.6496537001803517,True,16,-1,0,15
Y2-S2-074M24,2,227,AS,exp,45,←,left,←,0.5422334000468254,True,16,1,1,16
Y2-S2-074M24,3,228,AS,intra_train,39,↑,up,↑,0.9248532997444272,True,22,-,-,-
Y2-S2-074M24,3,229,AS,intra_train,37,↓,down,↓,0.8740131999365985,True,22,-,-,-
Y2-S2-074M24,3,230,AS,intra_train,32,←,left,←,0.6670808000490069,True,22,-,-,-
Y2-S2-074M24,3,231,AS,intra_train,37,↓,down,↓,0.7286271997727454,True,22,-,-,-
Y2-S2-074M24,3,232,AS,intra_train,28,→,right,→,0.5915250997059047,True,22,-,-,-
Y2-S2-074M24,3,233,AS,exp,29,←,left,←,0.5226771999150515,True,15,0,0,0
Y2-S2-074M24,3,234,AS,exp,26,↑,down,↓,0.7780050998553634,False,15,-1,0,0
Y2-S2-074M24,3,235,AS,exp,28,→,right,→,0.5379018001258373,True,16,-1,0,0
Y2-S2-074M24,3,236,AS,exp,44,↑,up,↑,0.565999099984765,True,16,-1,0,0
Y2-S2-074M24,3,237,AS,exp,48,←,right,→,0.5725479000248015,False,16,-1,0,0
Y2-S2-074M24,3,238,AS,exp,33,↑,no_key,no_letter,-1.0,False,17,-1,0,0
Y2-S2-074M24,3,239,AS,exp,45,→,right,→,0.5273830001242459,True,18,-1,0,0
Y2-S2-074M24,3,240,AS,exp,27,↓,down,↓,0.8099933001212776,True,18,-1,0,0
Y2-S2-074M24,3,241,AS,exp,31,←,left,←,0.6285713999532163,True,18,1,1,1
Y2-S2-074M24,3,242,AS,exp,27,↑,up,↑,0.6147785000503063,True,17,1,0,1
Y2-S2-074M24,3,243,AS,exp,37,←,left,←,0.6829498000442982,True,17,1,0,1
Y2-S2-074M24,3,244,AS,exp,30,↓,down,↓,0.7246570000424981,True,17,1,0,1
Y2-S2-074M24,3,245,AS,exp,50,→,left,←,1.5875518997199833,False,16,-1,1,2
Y2-S2-074M24,3,246,AS,exp,32,←,left,←,0.6685796999372542,True,17,-1,0,2
Y2-S2-074M24,3,247,AS,exp,35,→,right,→,0.577687700279057,True,17,-1,0,2
Y2-S2-074M24,3,248,AS,exp,50,←,left,←,0.5919690998271108,True,17,1,1,3
Y2-S2-074M24,3,249,AS,exp,47,↓,down,↓,0.7020716001279652,True,16,1,0,3
Y2-S2-074M24,3,250,AS,exp,48,→,right,→,0.5057180998846889,True,16,1,0,3
Y2-S2-074M24,3,251,AS,exp,36,↑,up,↑,0.7959591001272202,True,16,1,0,3
Y2-S2-074M24,3,252,AS,exp,42,↓,down,↓,0.642468299716711,True,15,1,0,3
Y2-S2-074M24,3,253,AS,exp,46,→,left,←,0.985558099579066,False,15,-1,1,4
Y2-S2-074M24,3,254,AS,exp,45,↓,down,↓,0.6534319999627769,True,16,-1,0,4
Y2-S2-074M24,3,255,AS,exp,45,→,right,→,0.5996489999815822,True,16,-1,0,4
Y2-S2-074M24,3,256,AS,exp,49,←,left,←,0.5549312997609377,True,16,1,1,5
Y2-S2-074M24,3,257,AS,exp,43,↓,down,↓,0.6465716999955475,True,15,1,0,5
Y2-S2-074M24,3,258,AS,exp,50,←,left,←,0.5343996002338827,True,15,1,0,5
Y2-S2-074M24,3,259,AS,exp,27,↓,down,↓,0.6401293999515474,True,15,1,0,5
Y2-S2-074M24,3,260,AS,exp,49,→,down,↓,1.3688805000856519,False,14,-1,1,6
Y2-S2-074M24,3,261,AS,exp,25,↑,up,↑,0.9968296000733972,True,15,-1,0,6
Y2-S2-074M24,3,262,AS,exp,41,←,left,←,0.5721669001504779,True,15,-1,0,6
Y2-S2-074M24,3,263,AS,exp,48,↓,down,↓,0.6701751002110541,True,15,1,1,7
Y2-S2-074M24,3,264,AS,exp,49,←,left,←,0.8305238001048565,True,14,1,0,7
Y2-S2-074M24,3,265,AS,exp,38,↑,up,↑,0.6725190002471209,True,14,1,0,7
Y2-S2-074M24,3,266,AS,exp,50,→,right,→,0.6019904999993742,True,14,1,0,7
Y2-S2-074M24,3,267,AS,exp,41,↓,down,↓,1.0318753998726606,True,13,1,0,7
Y2-S2-074M24,3,268,AS,exp,33,↑,down,↓,0.7485374002717435,False,13,-1,1,8
Y2-S2-074M24,3,269,AS,exp,43,←,left,←,0.5070648002438247,True,14,-1,0,8
Y2-S2-074M24,3,270,AS,exp,31,↓,down,↓,0.7647851002402604,True,14,-1,0,8
Y2-S2-074M24,3,271,AS,exp,44,→,right,→,0.5521919000893831,True,14,1,1,9
Y2-S2-074M24,3,272,AS,exp,34,↑,down,↓,0.7059512999840081,False,13,-1,1,10
Y2-S2-074M24,3,273,AS,exp,50,←,left,←,0.5446687000803649,True,14,-1,0,10
Y2-S2-074M24,3,274,AS,exp,49,↓,down,↓,0.6323497998528183,True,14,-1,0,10
Y2-S2-074M24,3,275,AS,exp,29,→,right,→,0.5235795001499355,True,14,1,1,11
Y2-S2-074M24,3,276,AS,exp,38,↑,up,↑,0.5997868999838829,True,13,1,0,11
Y2-S2-074M24,3,277,AS,exp,38,→,right,→,0.5872310996055603,True,13,1,0,11
Y2-S2-074M24,3,278,AS,exp,42,←,left,←,0.6387829002924263,True,13,1,0,11
Y2-S2-074M24,3,279,AS,exp,28,↓,down,↓,0.6496356003917754,True,12,1,0,11
Y2-S2-074M24,3,280,AS,exp,34,→,right,→,0.5692218001931906,True,12,1,0,11
Y2-S2-074M24,3,281,AS,exp,26,↑,up,↑,0.5395261999219656,True,12,1,0,11
Y2-S2-074M24,3,282,AS,exp,36,←,left,←,0.6777192000299692,True,11,1,0,11
Y2-S2-074M24,3,283,AS,exp,48,↑,up,↑,1.7615979998372495,True,11,1,0,11
Y2-S2-074M24,3,284,AS,exp,29,→,right,→,0.5667248000390828,True,11,1,0,11
Y2-S2-074M24,3,285,AS,exp,47,↓,up,↑,0.8582136002369225,False,10,-1,1,12
Y2-S2-074M24,3,286,AS,exp,31,↑,up,↑,0.610311099793762,True,11,-1,0,12
Y2-S2-074M24,3,287,AS,exp,39,→,right,→,0.4429570003412664,True,11,-1,0,12
Y2-S2-074M24,3,288,AS,exp,31,↑,up,↑,0.5397554999217391,True,11,1,1,13
Y2-S2-074M24,3,289,AS,exp,34,↓,down,↓,0.7096138000488281,True,10,1,0,13
Y2-S2-074M24,3,290,AS,exp,26,↑,up,↑,0.6241239998489618,True,10,1,0,13
Y2-S2-074M24,3,291,AS,exp,48,↓,up,↑,0.7053650002926588,False,10,-1,1,14
Y2-S2-074M24,3,292,AS,exp,35,↑,up,↑,0.5492781000211835,True,11,-1,0,14
Y2-S2-074M24,3,293,AS,exp,32,←,right,→,0.599271500017494,False,11,-1,0,14
Y2-S2-074M24,3,294,AS,exp,39,→,right,→,0.5303047997877002,True,12,-1,0,14
Y2-S2-074M24,3,295,AS,exp,27,↑,up,↑,0.5183982001617551,True,12,-1,0,14
Y2-S2-074M24,3,296,AS,exp,39,↓,down,↓,0.7289216998033226,True,12,1,1,15
Y2-S2-074M24,3,297,AS,exp,40,←,left,←,0.5803270996548235,True,11,1,0,15
Y2-S2-074M24,3,298,AS,exp,45,↓,right,→,1.3451849999837577,False,11,-1,1,16
Y2-S2-074M24,4,299,PS,intra_train,29,↑,up,↑,0.7206512000411749,True,19,-,-,-
Y2-S2-074M24,4,300,PS,intra_train,36,→,left,←,1.2581975003704429,False,19,-,-,-
Y2-S2-074M24,4,301,PS,intra_train,49,↓,down,↓,0.8567793997935951,True,19,-,-,-
Y2-S2-074M24,4,302,PS,intra_train,41,→,right,→,0.5614134999923408,True,19,-,-,-
Y2-S2-074M24,4,303,PS,intra_train,46,←,left,←,0.5946773998439312,True,19,-,-,-
Y2-S2-074M24,4,304,PS,exp,32,→,right,→,0.5466092000715435,True,13,0,0,0
Y2-S2-074M24,4,305,PS,exp,32,↑,up,↑,0.5876665003597736,True,13,0,0,0
Y2-S2-074M24,4,306,PS,exp,45,↓,down,↓,0.6345240003429353,True,13,1,0,0
Y2-S2-074M24,4,307,PS,exp,38,↑,left,←,0.6594494003802538,False,12,-1,1,1
Y2-S2-074M24,4,308,PS,exp,31,→,right,→,0.5004408000968397,True,13,-1,0,1
Y2-S2-074M24,4,309,PS,exp,40,↑,up,↑,0.5444886996410787,True,13,-1,0,1
Y2-S2-074M24,4,310,PS,exp,26,←,left,←,0.5458941999822855,True,13,1,1,2
Y2-S2-074M24,4,311,PS,exp,28,↓,down,↓,0.7458183998242021,True,12,1,0,2
Y2-S2-074M24,4,312,PS,exp,49,↑,right,→,0.6261217999272048,False,12,-1,1,3
Y2-S2-074M24,4,313,PS,exp,34,→,right,→,0.6673852000385523,True,13,-1,0,3
Y2-S2-074M24,4,314,PS,exp,42,↓,down,↓,0.7053963001817465,True,13,-1,0,3
Y2-S2-074M24,4,315,PS,exp,29,→,right,→,0.5567420003935695,True,13,1,1,4
Y2-S2-074M24,4,316,PS,exp,32,↓,down,↓,0.6359524996951222,True,12,1,0,4
Y2-S2-074M24,4,317,PS,exp,30,↑,up,↑,0.5590522000566125,True,12,1,0,4
Y2-S2-074M24,4,318,PS,exp,33,↓,down,↓,0.5756851998157799,True,12,1,0,4
Y2-S2-074M24,4,319,PS,exp,42,←,left,←,0.5498301000334322,True,11,1,0,4
Y2-S2-074M24,4,320,PS,exp,40,↓,down,↓,0.8995322003029287,True,11,1,0,4
Y2-S2-074M24,4,321,PS,exp,28,←,left,←,0.5461591999046504,True,11,1,0,4
Y2-S2-074M24,4,322,PS,exp,29,→,right,→,0.5076643000356853,True,10,1,0,4
Y2-S2-074M24,4,323,PS,exp,39,↓,down,↓,0.7148269000463188,True,10,1,0,4
Y2-S2-074M24,4,324,PS,exp,36,→,right,→,0.4761895998381078,True,10,1,0,4
Y2-S2-074M24,4,325,PS,exp,35,↑,up,↑,0.5037369001656771,True,9,1,0,4
Y2-S2-074M24,4,326,PS,exp,37,←,left,←,0.47755399998277426,True,9,1,0,4
Y2-S2-074M24,4,327,PS,exp,29,→,right,→,0.5238228002563119,True,9,1,0,4
Y2-S2-074M24,4,328,PS,exp,31,↑,up,↑,0.6651479001156986,True,8,1,0,4
Y2-S2-074M24,4,329,PS,exp,40,↓,up,↑,1.238373199943453,False,8,-1,1,5
Y2-S2-074M24,4,330,PS,exp,37,↑,up,↑,0.5090656001120806,True,9,-1,0,5
Y2-S2-074M24,4,331,PS,exp,35,←,left,←,0.5096444003283978,True,9,-1,0,5
Y2-S2-074M24,4,332,PS,exp,34,↓,left,←,1.0428268001414835,False,9,-1,0,5
Y2-S2-074M24,4,333,PS,exp,29,→,right,→,0.5328073003329337,True,10,-1,0,5
Y2-S2-074M24,4,334,PS,exp,39,←,left,←,0.5335031002759933,True,10,-1,0,5
Y2-S2-074M24,4,335,PS,exp,26,→,right,→,0.5478359996341169,True,10,1,1,6
Y2-S2-074M24,4,336,PS,exp,28,↓,down,↓,0.5931248003616929,True,9,1,0,6
Y2-S2-074M24,4,337,PS,exp,38,←,right,→,0.7558590997941792,False,9,-1,1,7
Y2-S2-074M24,4,338,PS,exp,45,↑,up,↑,0.6195472003892064,True,10,-1,0,7
Y2-S2-074M24,4,339,PS,exp,45,→,right,→,0.46555740013718605,True,10,-1,0,7
Y2-S2-074M24,4,340,PS,exp,32,←,left,←,0.6088219000957906,True,10,1,1,8
Y2-S2-074M24,4,341,PS,exp,28,→,left,←,0.9156272998079658,False,9,-1,1,9
Y2-S2-074M24,4,342,PS,exp,31,←,right,→,0.586327699944377,False,10,-1,0,9
Y2-S2-074M24,4,343,PS,exp,29,→,left,←,0.6634007999673486,False,11,-1,0,9
Y2-S2-074M24,4,344,PS,exp,50,↓,left,←,0.9154665996320546,False,12,-1,0,9
Y2-S2-074M24,4,345,PS,exp,40,←,left,←,0.5832496001385152,True,13,-1,0,9
Y2-S2-074M24,4,346,PS,exp,35,→,left,←,0.8408184996806085,False,13,-1,0,9
Y2-S2-074M24,4,347,PS,exp,45,↑,up,↑,0.7706222999840975,True,14,-1,0,9
Y2-S2-074M24,4,348,PS,exp,34,←,left,←,0.6189258997328579,True,14,-1,0,9
Y2-S2-074M24,4,349,PS,exp,41,↑,up,↑,0.6620749998837709,True,14,1,1,10
Y2-S2-074M24,4,350,PS,exp,41,←,left,←,0.5565988998860121,True,13,1,0,10
Y2-S2-074M24,4,351,PS,exp,39,→,right,→,0.4410608997568488,True,13,1,0,10
Y2-S2-074M24,4,352,PS,exp,34,↓,down,↓,0.7271003997884691,True,13,1,0,10
Y2-S2-074M24,4,353,PS,exp,44,←,left,←,0.5981665002182126,True,12,1,0,10
Y2-S2-074M24,4,354,PS,exp,49,↑,up,↑,0.5583552001044154,True,12,1,0,10
Y2-S2-074M24,4,355,PS,exp,41,←,left,←,0.5267352000810206,True,12,1,0,10
Y2-S2-074M24,4,356,PS,exp,32,↑,left,←,1.3628721996210515,False,11,-1,1,11
Y2-S2-074M24,4,357,PS,exp,28,→,right,→,0.6997965001501143,True,12,-1,0,11
Y2-S2-074M24,4,358,PS,exp,49,↓,down,↓,0.615427799988538,True,12,-1,0,11
Y2-S2-074M24,4,359,PS,exp,31,←,left,←,0.44096280029043555,True,12,1,1,12
Y2-S2-074M24,4,360,PS,exp,39,↑,up,↑,0.4162420998327434,True,11,1,0,12
Y2-S2-074M24,4,361,PS,exp,44,↓,down,↓,0.6221595001406968,True,11,1,0,12
Y2-S2-074M24,4,362,PS,exp,50,←,left,←,0.40495110023766756,True,11,1,0,12
Y2-S2-074M24,4,363,PS,exp,28,↑,down,↓,1.2813248001039028,False,10,-1,1,13
Y2-S2-074M24,4,364,PS,exp,50,←,left,←,0.5692211999557912,True,11,-1,0,13
Y2-S2-074M24,4,365,PS,exp,28,→,right,→,0.657270799856633,True,11,-1,0,13
Y2-S2-074M24,4,366,PS,exp,30,↓,down,↓,0.6040034997276962,True,11,1,1,14
Y2-S2-074M24,4,367,PS,exp,46,↑,up,↑,0.5370782003737986,True,10,1,0,14
Y2-S2-074M24,4,368,PS,exp,41,←,left,←,0.44231340009719133,True,10,1,0,14
Y2-S2-074M24,4,369,PS,exp,50,→,right,→,0.4124312996864319,True,10,1,0,14
Y2-S2-074M24,4,370,PS,exp,39,↓,down,↓,0.5878515001386404,True,9,1,0,14
Y2-S2-074M24,4,371,PS,exp,39,←,right,→,0.43508070008829236,False,9,-1,1,15
Y2-S2-074M24,4,372,PS,exp,28,↓,down,↓,0.89787059975788,True,10,-1,0,15
Y2-S2-074M24,4,373,PS,exp,46,↑,up,↑,1.5823507998138666,True,10,-1,0,15
Y2-S2-074M24,4,374,PS,exp,29,←,left,←,0.5221234001219273,True,10,1,1,16
Y2-S2-074M24,5,375,PS,intra_train,42,→,right,→,0.5531423999927938,True,19,-,-,-
Y2-S2-074M24,5,376,PS,intra_train,37,←,left,←,0.6449943999759853,True,19,-,-,-
Y2-S2-074M24,5,377,PS,intra_train,47,↑,up,↑,1.27315319981426,True,19,-,-,-
Y2-S2-074M24,5,378,PS,intra_train,45,←,right,→,0.5517514999955893,False,19,-,-,-
Y2-S2-074M24,5,379,PS,intra_train,31,↑,up,↑,0.5093352003023028,True,19,-,-,-
Y2-S2-074M24,5,380,PS,exp,28,→,right,→,0.5056298999115825,True,13,0,0,0
Y2-S2-074M24,5,381,PS,exp,30,↑,up,↑,0.9426302001811564,True,13,0,0,0
Y2-S2-074M24,5,382,PS,exp,41,←,left,←,0.6048228996805847,True,13,1,0,0
Y2-S2-074M24,5,383,PS,exp,29,↑,up,↑,0.6593399001285434,True,12,1,0,0
Y2-S2-074M24,5,384,PS,exp,36,←,left,←,0.6447781999595463,True,12,1,0,0
Y2-S2-074M24,5,385,PS,exp,38,↑,up,↑,0.5003808001056314,True,12,1,0,0
Y2-S2-074M24,5,386,PS,exp,26,←,right,→,0.5251501998864114,False,11,-1,1,1
Y2-S2-074M24,5,387,PS,exp,48,↑,up,↑,0.4699943996965885,True,12,-1,0,1
Y2-S2-074M24,5,388,PS,exp,33,→,left,←,0.7893897001631558,False,12,-1,0,1
Y2-S2-074M24,5,389,PS,exp,27,↑,right,→,0.3336385996080935,False,13,-1,0,1
Y2-S2-074M24,5,390,PS,exp,27,→,right,→,0.6351193999871612,True,14,-1,0,1
Y2-S2-074M24,5,391,PS,exp,42,←,left,←,0.5843547000549734,True,14,-1,0,1
Y2-S2-074M24,5,392,PS,exp,44,→,right,→,0.4699109001085162,True,14,1,1,2
Y2-S2-074M24,5,393,PS,exp,43,↓,down,↓,0.9767995998263359,True,13,1,0,2
Y2-S2-074M24,5,394,PS,exp,48,↑,right,→,0.7050176998600364,False,13,-1,1,3
Y2-S2-074M24,5,395,PS,exp,25,←,left,←,0.7016269001178443,True,14,-1,0,3
Y2-S2-074M24,5,396,PS,exp,39,↓,down,↓,0.9292232003062963,True,14,-1,0,3
Y2-S2-074M24,5,397,PS,exp,50,←,left,←,0.6292958999983966,True,14,1,1,4
Y2-S2-074M24,5,398,PS,exp,41,↓,down,↓,0.7692053001374006,True,13,1,0,4
Y2-S2-074M24,5,399,PS,exp,47,↑,left,←,0.6429794998839498,False,13,-1,1,5
Y2-S2-074M24,5,400,PS,exp,34,→,right,→,0.9925750000402331,True,14,-1,0,5
Y2-S2-074M24,5,401,PS,exp,41,↑,up,↑,0.5528317000716925,True,14,-1,0,5
Y2-S2-074M24,5,402,PS,exp,30,←,left,←,0.498155000153929,True,14,1,1,6
Y2-S2-074M24,5,403,PS,exp,35,→,right,→,0.4647362004034221,True,13,1,0,6
Y2-S2-074M24,5,404,PS,exp,32,↑,right,→,0.7477535996586084,False,13,-1,1,7
Y2-S2-074M24,5,405,PS,exp,46,←,left,←,0.5466449996456504,True,14,-1,0,7
Y2-S2-074M24,5,406,PS,exp,35,↓,right,→,0.9355112002231181,False,14,-1,0,7
Y2-S2-074M24,5,407,PS,exp,40,↑,right,→,0.7008366002701223,False,15,-1,0,7
Y2-S2-074M24,5,408,PS,exp,41,←,left,←,0.5766443000175059,True,16,-1,0,7
Y2-S2-074M24,5,409,PS,exp,45,↑,up,↑,0.5185349001549184,True,16,-1,0,7
Y2-S2-074M24,5,410,PS,exp,44,←,left,←,0.5139479003846645,True,16,1,1,8
Y2-S2-074M24,5,411,PS,exp,28,→,right,→,0.7091064997948706,True,15,1,0,8
Y2-S2-074M24,5,412,PS,exp,40,↓,down,↓,0.567660900298506,True,15,1,0,8
Y2-S2-074M24,5,413,PS,exp,45,↑,up,↑,0.48914590012282133,True,15,1,0,8
Y2-S2-074M24,5,414,PS,exp,45,←,left,←,0.5890363999642432,True,14,1,0,8
Y2-S2-074M24,5,415,PS,exp,45,→,right,→,0.4640480000525713,True,14,1,0,8
Y2-S2-074M24,5,416,PS,exp,32,←,left,←,0.5800012000836432,True,14,1,0,8
Y2-S2-074M24,5,417,PS,exp,34,↓,down,↓,0.7775502000004053,True,13,1,0,8
Y2-S2-074M24,5,418,PS,exp,47,↑,left,←,0.704266999848187,False,13,-1,1,9
Y2-S2-074M24,5,419,PS,exp,43,↓,down,↓,0.6252942001447082,True,14,-1,0,9
Y2-S2-074M24,5,420,PS,exp,44,→,right,→,0.5785571001470089,True,14,-1,0,9
Y2-S2-074M24,5,421,PS,exp,32,←,right,→,0.7553006997331977,False,14,-1,0,9
Y2-S2-074M24,5,422,PS,exp,32,→,right,→,0.47221989976242185,True,15,-1,0,9
Y2-S2-074M24,5,423,PS,exp,33,↑,up,↑,0.5107061001472175,True,15,-1,0,9
Y2-S2-074M24,5,424,PS,exp,44,→,right,→,0.4827250996604562,True,15,1,1,10
Y2-S2-074M24,5,425,PS,exp,48,↓,down,↓,0.6864304002374411,True,14,1,0,10
Y2-S2-074M24,5,426,PS,exp,28,←,left,←,1.1093624997884035,True,14,1,0,10
Y2-S2-074M24,5,427,PS,exp,36,→,right,→,0.4866185002028942,True,14,1,0,10
Y2-S2-074M24,5,428,PS,exp,39,↑,up,↑,0.8041505999863148,True,13,1,0,10
Y2-S2-074M24,5,429,PS,exp,30,→,right,→,0.5194888999685645,True,13,1,0,10
Y2-S2-074M24,5,430,PS,exp,26,←,left,←,1.0117931999266148,True,13,1,0,10
Y2-S2-074M24,5,431,PS,exp,36,→,right,→,0.46104760002344847,True,12,1,0,10
Y2-S2-074M24,5,432,PS,exp,45,←,left,←,0.7188038001768291,True,12,1,0,10
Y2-S2-074M24,5,433,PS,exp,27,↓,down,↓,0.7414215998724103,True,12,1,0,10
Y2-S2-074M24,5,434,PS,exp,42,↑,right,→,0.5175370001234114,False,11,-1,1,11
Y2-S2-074M24,5,435,PS,exp,38,→,right,→,0.530854900367558,True,12,-1,0,11
Y2-S2-074M24,5,436,PS,exp,47,↓,down,↓,0.6799094001762569,True,12,-1,0,11
Y2-S2-074M24,5,437,PS,exp,47,↑,up,↑,0.6798267001286149,True,12,1,1,12
Y2-S2-074M24,5,438,PS,exp,27,←,left,←,0.7660703998990357,True,11,1,0,12
Y2-S2-074M24,5,439,PS,exp,35,→,right,→,0.5237345998175442,True,11,1,0,12
Y2-S2-074M24,5,440,PS,exp,25,↑,right,→,0.6019854000769556,False,11,-1,1,13
Y2-S2-074M24,5,441,PS,exp,31,←,left,←,0.5254015000537038,True,12,-1,0,13
Y2-S2-074M24,5,442,PS,exp,42,→,right,→,0.5038536000065506,True,12,-1,0,13
Y2-S2-074M24,5,443,PS,exp,27,↓,down,↓,0.591966399922967,True,12,1,1,14
Y2-S2-074M24,5,444,PS,exp,29,←,left,←,0.46965850004926324,True,11,1,0,14
Y2-S2-074M24,5,445,PS,exp,36,↑,right,→,0.7425367999821901,False,11,-1,1,15
Y2-S2-074M24,5,446,PS,exp,36,↓,down,↓,0.7322486001066864,True,12,-1,0,15
Y2-S2-074M24,5,447,PS,exp,49,←,left,←,0.43606820004060864,True,12,-1,0,15
Y2-S2-074M24,5,448,PS,exp,45,↑,up,↑,0.5558135001920164,True,12,1,1,16
Y2-S2-074M24,6,449,AS,intra_train,49,←,left,←,0.6170222996734083,True,22,-,-,-
Y2-S2-074M24,6,450,AS,intra_train,25,↑,up,↑,0.6261701001785696,True,22,-,-,-
Y2-S2-074M24,6,451,AS,intra_train,34,←,left,←,0.5641872999258339,True,22,-,-,-
Y2-S2-074M24,6,452,AS,intra_train,47,↓,down,↓,0.8927620002068579,True,22,-,-,-
Y2-S2-074M24,6,453,AS,intra_train,44,↑,up,↑,0.6784172002226114,True,22,-,-,-
Y2-S2-074M24,6,454,AS,exp,33,→,right,→,0.5781661998480558,True,15,0,0,0
Y2-S2-074M24,6,455,AS,exp,49,↓,down,↓,0.8036506003700197,True,15,0,0,0
Y2-S2-074M24,6,456,AS,exp,26,←,left,←,0.5439913999289274,True,15,1,0,0
Y2-S2-074M24,6,457,AS,exp,41,→,right,→,0.7009447999298573,True,14,1,0,0
Y2-S2-074M24,6,458,AS,exp,30,↓,down,↓,0.8906856998801231,True,14,1,0,0
Y2-S2-074M24,6,459,AS,exp,42,↑,up,↑,0.5457740002311766,True,14,1,0,0
Y2-S2-074M24,6,460,AS,exp,33,→,right,→,0.7274111001752317,True,13,1,0,0
Y2-S2-074M24,6,461,AS,exp,38,↓,down,↓,0.6765343002043664,True,13,1,0,0
Y2-S2-074M24,6,462,AS,exp,34,→,right,→,0.5354859000071883,True,13,1,0,0
Y2-S2-074M24,6,463,AS,exp,29,←,left,←,0.5088639999739826,True,12,1,0,0
Y2-S2-074M24,6,464,AS,exp,38,↓,down,↓,0.5680765002034605,True,12,1,0,0
Y2-S2-074M24,6,465,AS,exp,44,→,right,→,0.6228728001005948,True,12,1,0,0
Y2-S2-074M24,6,466,AS,exp,39,←,left,←,0.6179088000208139,True,11,1,0,0
Y2-S2-074M24,6,467,AS,exp,26,↑,down,↓,0.6768462001346052,False,11,-1,1,1
Y2-S2-074M24,6,468,AS,exp,30,←,right,→,0.7899217996746302,False,12,-1,0,1
Y2-S2-074M24,6,469,AS,exp,50,→,right,→,0.6903065000660717,True,13,-1,0,1
Y2-S2-074M24,6,470,AS,exp,34,↓,down,↓,0.6482772999443114,True,13,-1,0,1
Y2-S2-074M24,6,471,AS,exp,44,→,right,→,1.3603576999157667,True,13,1,1,2
Y2-S2-074M24,6,472,AS,exp,49,↑,right,→,0.8441441999748349,False,12,-1,1,3
Y2-S2-074M24,6,473,AS,exp,25,↓,down,↓,0.6102037001401186,True,13,-1,0,3
Y2-S2-074M24,6,474,AS,exp,48,↑,up,↑,0.6642320998944342,True,13,-1,0,3
Y2-S2-074M24,6,475,AS,exp,31,→,right,→,0.6780752995982766,True,13,1,1,4
Y2-S2-074M24,6,476,AS,exp,39,↑,up,↑,0.539868799969554,True,12,1,0,4
Y2-S2-074M24,6,477,AS,exp,38,←,left,←,0.5295535000041127,True,12,1,0,4
Y2-S2-074M24,6,478,AS,exp,38,→,right,→,0.7011458002962172,True,12,1,0,4
Y2-S2-074M24,6,479,AS,exp,37,↓,up,↑,0.6362992003560066,False,11,-1,1,5
Y2-S2-074M24,6,480,AS,exp,33,↑,up,↑,0.6406636000610888,True,12,-1,0,5
Y2-S2-074M24,6,481,AS,exp,37,→,right,→,0.5570000000298023,True,12,-1,0,5
Y2-S2-074M24,6,482,AS,exp,32,↓,down,↓,0.6798282000236213,True,12,1,1,6
Y2-S2-074M24,6,483,AS,exp,42,→,left,←,0.5998926996253431,False,11,-1,1,7
Y2-S2-074M24,6,484,AS,exp,44,←,left,←,1.5420460002496839,True,12,-1,0,7
Y2-S2-074M24,6,485,AS,exp,40,↑,up,↑,0.6027556001208723,True,12,-1,0,7
Y2-S2-074M24,6,486,AS,exp,50,↓,up,↑,0.668994799721986,False,12,-1,0,7
Y2-S2-074M24,6,487,AS,exp,27,↑,up,↑,0.734884100034833,True,13,-1,0,7
Y2-S2-074M24,6,488,AS,exp,39,↓,down,↓,0.6937064998783171,True,13,-1,0,7
Y2-S2-074M24,6,489,AS,exp,39,→,right,→,0.5709529998712242,True,13,1,1,8
Y2-S2-074M24,6,490,AS,exp,48,↑,up,↑,0.625335399992764,True,12,1,0,8
Y2-S2-074M24,6,491,AS,exp,45,↓,down,↓,0.769473799970001,True,12,1,0,8
Y2-S2-074M24,6,492,AS,exp,41,↑,down,↓,0.8385534998960793,False,12,-1,1,9
Y2-S2-074M24,6,493,AS,exp,27,→,right,→,0.5570072000846267,True,13,-1,0,9
Y2-S2-074M24,6,494,AS,exp,44,←,left,←,0.5657830000855029,True,13,-1,0,9
Y2-S2-074M24,6,495,AS,exp,38,↓,down,↓,0.664985700044781,True,13,1,1,10
Y2-S2-074M24,6,496,AS,exp,40,↑,up,↑,0.8449010998010635,True,12,1,0,10
Y2-S2-074M24,6,497,AS,exp,27,→,right,→,0.4961153003387153,True,12,1,0,10
Y2-S2-074M24,6,498,AS,exp,38,↑,up,↑,0.5903461999259889,True,12,1,0,10
Y2-S2-074M24,6,499,AS,exp,34,←,left,←,0.6225676997564733,True,11,1,0,10
Y2-S2-074M24,6,500,AS,exp,29,↓,down,↓,0.6587020996958017,True,11,1,0,10
Y2-S2-074M24,6,501,AS,exp,33,←,right,→,0.6514838002622128,False,11,-1,1,11
Y2-S2-074M24,6,502,AS,exp,33,→,right,→,0.7114420998841524,True,12,-1,0,11
Y2-S2-074M24,6,503,AS,exp,44,↓,right,→,0.5985993999056518,False,12,-1,0,11
Y2-S2-074M24,6,504,AS,exp,42,→,right,→,0.5103327999822795,True,13,-1,0,11
Y2-S2-074M24,6,505,AS,exp,33,↑,up,↑,0.6707526999525726,True,13,-1,0,11
Y2-S2-074M24,6,506,AS,exp,44,↓,up,↑,0.7583386995829642,False,13,-1,0,11
Y2-S2-074M24,6,507,AS,exp,26,←,right,→,0.6657850001938641,False,14,-1,0,11
Y2-S2-074M24,6,508,AS,exp,31,→,right,→,0.5538116996176541,True,15,-1,0,11
Y2-S2-074M24,6,509,AS,exp,33,↓,down,↓,0.600365400314331,True,15,-1,0,11
Y2-S2-074M24,6,510,AS,exp,41,→,right,→,0.6184811000712216,True,15,1,1,12
Y2-S2-074M24,6,511,AS,exp,48,←,right,→,0.43244720017537475,False,14,-1,1,13
Y2-S2-074M24,6,512,AS,exp,29,→,right,→,0.5383220002986491,True,15,-1,0,13
Y2-S2-074M24,6,513,AS,exp,37,←,left,←,0.574945000000298,True,15,-1,0,13
Y2-S2-074M24,6,514,AS,exp,41,↑,up,↑,0.6118883001618087,True,15,1,1,14
Y2-S2-074M24,6,515,AS,exp,37,↓,down,↓,0.6505518001504242,True,14,1,0,14
Y2-S2-074M24,6,516,AS,exp,31,←,right,→,0.6951230000704527,False,14,-1,1,15
Y2-S2-074M24,6,517,AS,exp,49,↓,down,↓,0.7015480999834836,True,15,-1,0,15
Y2-S2-074M24,6,518,AS,exp,48,→,right,→,0.4983455999754369,True,15,-1,0,15
Y2-S2-074M24,6,519,AS,exp,36,↑,down,↓,0.9152668002061546,False,15,-1,0,15
Y2-S2-074M24,6,520,AS,exp,37,↓,down,↓,0.6259520002640784,True,16,-1,0,15
Y2-S2-074M24,6,521,AS,exp,39,←,left,←,0.534200900234282,True,16,-1,0,15
Y2-S2-074M24,6,522,AS,exp,42,↓,down,↓,0.8261427003890276,True,16,1,1,16
Y2-S2-074M24,7,523,AS,intra_train,29,←,right,→,0.5442796996794641,False,22,-,-,-
Y2-S2-074M24,7,524,AS,intra_train,33,↓,down,↓,0.6527736000716686,True,22,-,-,-
Y2-S2-074M24,7,525,AS,intra_train,37,→,right,→,0.6082140002399683,True,22,-,-,-
Y2-S2-074M24,7,526,AS,intra_train,43,←,left,←,0.9662688001990318,True,22,-,-,-
Y2-S2-074M24,7,527,AS,intra_train,44,↑,up,↑,0.560155600309372,True,22,-,-,-
Y2-S2-074M24,7,528,AS,exp,27,←,left,←,0.5413942001760006,True,15,0,0,0
Y2-S2-074M24,7,529,AS,exp,46,→,right,→,0.7030279003083706,True,15,0,0,0
Y2-S2-074M24,7,530,AS,exp,28,←,left,←,0.6369074997492135,True,15,1,0,0
Y2-S2-074M24,7,531,AS,exp,42,→,right,→,0.5469798999838531,True,14,1,0,0
Y2-S2-074M24,7,532,AS,exp,50,↓,down,↓,1.0430958000943065,True,14,1,0,0
Y2-S2-074M24,7,533,AS,exp,28,←,left,←,0.5495235002599657,True,14,1,0,0
Y2-S2-074M24,7,534,AS,exp,41,↑,up,↑,0.6550415996462107,True,13,1,0,0
Y2-S2-074M24,7,535,AS,exp,50,→,right,→,0.5734705999493599,True,13,1,0,0
Y2-S2-074M24,7,536,AS,exp,41,↓,down,↓,0.7106212000362575,True,13,1,0,0
Y2-S2-074M24,7,537,AS,exp,49,↑,up,↑,0.5441431999206543,True,12,1,0,0
Y2-S2-074M24,7,538,AS,exp,30,↓,left,←,1.4792391997762024,False,12,-1,1,1
Y2-S2-074M24,7,539,AS,exp,34,↑,right,→,0.7484643999487162,False,13,-1,0,1
Y2-S2-074M24,7,540,AS,exp,43,↓,down,↓,0.8460439001210034,True,14,-1,0,1
Y2-S2-074M24,7,541,AS,exp,45,↑,up,↑,0.6392370001412928,True,14,-1,0,1
Y2-S2-074M24,7,542,AS,exp,46,←,left,←,0.608096799813211,True,14,1,1,2
Y2-S2-074M24,7,543,AS,exp,46,→,right,→,0.5159673001617193,True,13,1,0,2
Y2-S2-074M24,7,544,AS,exp,27,↓,up,↑,0.7182197002694011,False,13,-1,1,3
Y2-S2-074M24,7,545,AS,exp,34,↑,up,↑,0.4591208999045193,True,14,-1,0,3
Y2-S2-074M24,7,546,AS,exp,34,↓,down,↓,0.7373520997352898,True,14,-1,0,3
Y2-S2-074M24,7,547,AS,exp,48,→,right,→,0.6848522000946105,True,14,1,1,4
Y2-S2-074M24,7,548,AS,exp,30,↓,down,↓,0.7733884998597205,True,13,1,0,4
Y2-S2-074M24,7,549,AS,exp,43,←,left,←,0.6605679001659155,True,13,1,0,4
Y2-S2-074M24,7,550,AS,exp,36,↓,down,↓,0.7623208998702466,True,13,1,0,4
Y2-S2-074M24,7,551,AS,exp,44,→,right,→,0.7017967998981476,True,12,1,0,4
Y2-S2-074M24,7,552,AS,exp,27,↑,up,↑,0.5537996999919415,True,12,1,0,4
Y2-S2-074M24,7,553,AS,exp,33,→,right,→,0.6044519003480673,True,12,1,0,4
Y2-S2-074M24,7,554,AS,exp,39,←,right,→,1.1579586998559535,False,11,-1,1,5
Y2-S2-074M24,7,555,AS,exp,34,↓,down,↓,0.7138283001258969,True,12,-1,0,5
Y2-S2-074M24,7,556,AS,exp,32,↑,up,↑,0.6355650997720659,True,12,-1,0,5
Y2-S2-074M24,7,557,AS,exp,43,←,left,←,0.4868152001872659,True,12,1,1,6
Y2-S2-074M24,7,558,AS,exp,26,↓,down,↓,0.7943015997298062,True,11,1,0,6
Y2-S2-074M24,7,559,AS,exp,46,↑,up,↑,0.4610763997770846,True,11,1,0,6
Y2-S2-074M24,7,560,AS,exp,39,↓,down,↓,0.7297978000715375,True,11,1,0,6
Y2-S2-074M24,7,561,AS,exp,32,←,left,←,0.6397084998898208,True,10,1,0,6
Y2-S2-074M24,7,562,AS,exp,26,→,right,→,0.7133233002386987,True,10,1,0,6
Y2-S2-074M24,7,563,AS,exp,32,↓,down,↓,0.685317300260067,True,10,1,0,6
Y2-S2-074M24,7,564,AS,exp,50,→,right,→,0.6342803998850286,True,9,1,0,6
Y2-S2-074M24,7,565,AS,exp,36,←,left,←,0.598408100195229,True,9,1,0,6
Y2-S2-074M24,7,566,AS,exp,45,↓,up,↑,0.6964362002909184,False,9,-1,1,7
Y2-S2-074M24,7,567,AS,exp,44,←,left,←,0.5852141003124416,True,10,-1,0,7
Y2-S2-074M24,7,568,AS,exp,39,↑,up,↑,0.8739244998432696,True,10,-1,0,7
Y2-S2-074M24,7,569,AS,exp,28,→,right,→,0.5117298001423478,True,10,1,1,8
Y2-S2-074M24,7,570,AS,exp,33,↓,up,↑,0.7484737997874618,False,9,-1,1,9
Y2-S2-074M24,7,571,AS,exp,35,←,right,→,1.0059949001297355,False,10,-1,0,9
Y2-S2-074M24,7,572,AS,exp,28,→,right,→,0.5876508001238108,True,11,-1,0,9
Y2-S2-074M24,7,573,AS,exp,50,←,left,←,0.513725200202316,True,11,-1,0,9
Y2-S2-074M24,7,574,AS,exp,49,→,right,→,0.6686215000227094,True,11,1,1,10
Y2-S2-074M24,7,575,AS,exp,28,↓,up,↑,0.8408435001038015,False,10,-1,1,11
Y2-S2-074M24,7,576,AS,exp,47,←,left,←,0.5527882999740541,True,11,-1,0,11
Y2-S2-074M24,7,577,AS,exp,50,↑,up,↑,0.8304948997683823,True,11,-1,0,11
Y2-S2-074M24,7,578,AS,exp,32,↓,left,←,1.048353400081396,False,11,-1,0,11
Y2-S2-074M24,7,579,AS,exp,44,→,no_key,no_letter,-1.0,False,12,-1,0,11
Y2-S2-074M24,7,580,AS,exp,25,↑,up,↑,0.6130393999628723,True,13,-1,0,11
Y2-S2-074M24,7,581,AS,exp,44,↓,right,→,0.6921043000184,False,13,-1,0,11
Y2-S2-074M24,7,582,AS,exp,48,↑,up,↑,0.5863982997834682,True,14,-1,0,11
Y2-S2-074M24,7,583,AS,exp,27,→,right,→,0.675445799715817,True,14,-1,0,11
Y2-S2-074M24,7,584,AS,exp,40,↓,up,↑,0.7170249000191689,False,14,-1,0,11
Y2-S2-074M24,7,585,AS,exp,34,←,left,←,0.572821999900043,True,15,-1,0,11
Y2-S2-074M24,7,586,AS,exp,39,→,down,↓,1.2677273000590503,False,15,-1,0,11
Y2-S2-074M24,7,587,AS,exp,44,←,left,←,0.5923843001946807,True,16,-1,0,11
Y2-S2-074M24,7,588,AS,exp,41,↑,up,↑,0.5176349999383092,True,16,-1,0,11
Y2-S2-074M24,7,589,AS,exp,46,→,right,→,0.6218369998969138,True,16,1,1,12
Y2-S2-074M24,7,590,AS,exp,26,↑,up,↑,0.5474024000577629,True,15,1,0,12
Y2-S2-074M24,7,591,AS,exp,44,↓,down,↓,0.7165677999146283,True,15,1,0,12
Y2-S2-074M24,7,592,AS,exp,31,→,right,→,0.5170104000717402,True,15,1,0,12
Y2-S2-074M24,7,593,AS,exp,30,↑,up,↑,0.5200477000325918,True,14,1,0,12
Y2-S2-074M24,7,594,AS,exp,29,↓,down,↓,0.6944180000573397,True,14,1,0,12
Y2-S2-074M24,7,595,AS,exp,25,←,left,←,0.523174099624157,True,14,1,0,12
Y2-S2-074M24,7,596,AS,exp,39,↑,up,↑,1.0777400000952184,True,13,1,0,12
Y2-S2-074M24,7,597,AS,exp,34,←,left,←,0.5020886999554932,True,13,1,0,12
Y2-S2-074M24,7,598,AS,exp,39,↑,up,↑,0.5501937000080943,True,13,1,0,12
Y2-S2-074M24,7,599,AS,exp,41,←,right,→,0.9225190002471209,False,12,-1,1,13
Y2-S2-074M24,7,600,AS,exp,26,↓,down,↓,0.7342639002017677,True,13,-1,0,13
Y2-S2-074M24,7,601,AS,exp,41,←,left,←,0.5276403999887407,True,13,-1,0,13
Y2-S2-074M24,7,602,AS,exp,47,→,right,→,0.6331704002805054,True,13,1,1,14
Y2-S2-074M24,7,603,AS,exp,31,↓,down,↓,0.6789946001954377,True,12,1,0,14
Y2-S2-074M24,7,604,AS,exp,31,↑,down,↓,0.9306783997453749,False,12,-1,1,15
Y2-S2-074M24,7,605,AS,exp,28,←,left,←,0.5211340999230742,True,13,-1,0,15
Y2-S2-074M24,7,606,AS,exp,42,↑,up,↑,0.5689202002249658,True,13,-1,0,15
Y2-S2-074M24,7,607,AS,exp,49,↓,down,↓,0.7190356999635696,True,13,1,1,16
Y2-S2-074M24,8,608,PS,intra_train,43,←,left,←,0.7182955001480877,True,19,-,-,-
Y2-S2-074M24,8,609,PS,intra_train,33,↓,down,↓,0.7322768000885844,True,19,-,-,-
Y2-S2-074M24,8,610,PS,intra_train,37,↑,up,↑,0.6293711001053452,True,19,-,-,-
Y2-S2-074M24,8,611,PS,intra_train,49,←,left,←,0.5393157997168601,True,19,-,-,-
Y2-S2-074M24,8,612,PS,intra_train,49,→,right,→,0.5002584997564554,True,19,-,-,-
Y2-S2-074M24,8,613,PS,exp,39,←,left,←,0.6069609001278877,True,13,0,0,0
Y2-S2-074M24,8,614,PS,exp,37,↓,left,←,0.9673301000148058,False,13,-1,0,0
Y2-S2-074M24,8,615,PS,exp,31,←,left,←,0.5922433999367058,True,14,-1,0,0
Y2-S2-074M24,8,616,PS,exp,25,↑,up,↑,0.5766126001253724,True,14,-1,0,0
Y2-S2-074M24,8,617,PS,exp,49,←,left,←,0.4217977998778224,True,14,1,1,1
Y2-S2-074M24,8,618,PS,exp,29,↑,up,↑,0.5461240001022816,True,13,1,0,1
Y2-S2-074M24,8,619,PS,exp,44,↓,down,↓,0.48267090041190386,True,13,1,0,1
Y2-S2-074M24,8,620,PS,exp,32,←,left,←,0.4922549999319017,True,13,1,0,1
Y2-S2-074M24,8,621,PS,exp,45,↓,down,↓,0.470932399854064,True,12,1,0,1
Y2-S2-074M24,8,622,PS,exp,29,→,right,→,0.44680520007386804,True,12,1,0,1
Y2-S2-074M24,8,623,PS,exp,47,↑,up,↑,0.45970460027456284,True,12,1,0,1
Y2-S2-074M24,8,624,PS,exp,36,↓,down,↓,0.6227775998413563,True,11,1,0,1
Y2-S2-074M24,8,625,PS,exp,36,←,left,←,1.200292400084436,True,11,1,0,1
Y2-S2-074M24,8,626,PS,exp,39,↓,down,↓,0.5282605001702905,True,11,1,0,1
Y2-S2-074M24,8,627,PS,exp,48,←,left,←,0.8905225000344217,True,10,1,0,1
Y2-S2-074M24,8,628,PS,exp,49,→,right,→,0.4612393002025783,True,10,1,0,1
Y2-S2-074M24,8,629,PS,exp,35,↓,down,↓,0.6388030000962317,True,10,1,0,1
Y2-S2-074M24,8,630,PS,exp,50,←,left,←,0.41539099998772144,True,9,1,0,1
Y2-S2-074M24,8,631,PS,exp,34,↓,right,→,0.6618653000332415,False,9,-1,1,2
Y2-S2-074M24,8,632,PS,exp,37,→,right,→,1.08493070024997,True,10,-1,0,2
Y2-S2-074M24,8,633,PS,exp,30,←,left,←,0.4595293002203107,True,10,-1,0,2
Y2-S2-074M24,8,634,PS,exp,31,↓,down,↓,1.0704044001176953,True,10,1,1,3
Y2-S2-074M24,8,635,PS,exp,41,↑,up,↑,0.5573265999555588,True,9,1,0,3
Y2-S2-074M24,8,636,PS,exp,44,↓,down,↓,0.7298037996515632,True,9,1,0,3
Y2-S2-074M24,8,637,PS,exp,30,→,left,←,0.6828503999859095,False,9,-1,1,4
Y2-S2-074M24,8,638,PS,exp,31,↑,up,↑,0.5612756996415555,True,10,-1,0,4
Y2-S2-074M24,8,639,PS,exp,27,→,right,→,0.47807900002226233,True,10,-1,0,4
Y2-S2-074M24,8,640,PS,exp,34,↑,up,↑,0.5530300000682473,True,10,1,1,5
Y2-S2-074M24,8,641,PS,exp,27,←,left,←,0.5346244000829756,True,9,1,0,5
Y2-S2-074M24,8,642,PS,exp,45,↑,up,↑,1.2291117999702692,True,9,1,0,5
Y2-S2-074M24,8,643,PS,exp,33,←,left,←,0.506869999691844,True,9,1,0,5
Y2-S2-074M24,8,644,PS,exp,49,→,right,→,0.5687879002653062,True,8,1,0,5
Y2-S2-074M24,8,645,PS,exp,44,↓,down,↓,0.6615546001121402,True,8,1,0,5
Y2-S2-074M24,8,646,PS,exp,47,↑,right,→,0.8804076001979411,False,8,-1,1,6
Y2-S2-074M24,8,647,PS,exp,41,→,left,←,0.6310260999016464,False,9,-1,0,6
Y2-S2-074M24,8,648,PS,exp,35,↓,down,↓,0.7017677002586424,True,10,-1,0,6
Y2-S2-074M24,8,649,PS,exp,33,←,left,←,0.5084922998212278,True,10,-1,0,6
Y2-S2-074M24,8,650,PS,exp,34,↓,down,↓,0.6154522998258471,True,10,1,1,7
Y2-S2-074M24,8,651,PS,exp,38,→,left,←,0.5263284998945892,False,9,-1,1,8
Y2-S2-074M24,8,652,PS,exp,29,↑,left,←,0.6524952999316156,False,10,-1,0,8
Y2-S2-074M24,8,653,PS,exp,40,→,right,→,0.618654299993068,True,11,-1,0,8
Y2-S2-074M24,8,654,PS,exp,28,↓,down,↓,0.6210604999214411,True,11,-1,0,8
Y2-S2-074M24,8,655,PS,exp,35,→,right,→,0.5296853999607265,True,11,1,1,9
Y2-S2-074M24,8,656,PS,exp,26,↓,down,↓,0.533303199801594,True,10,1,0,9
Y2-S2-074M24,8,657,PS,exp,35,↑,up,↑,0.5774495997466147,True,10,1,0,9
Y2-S2-074M24,8,658,PS,exp,28,→,right,→,0.4609694997780025,True,10,1,0,9
Y2-S2-074M24,8,659,PS,exp,34,↓,down,↓,0.7030309000983834,True,9,1,0,9
Y2-S2-074M24,8,660,PS,exp,47,↑,right,→,0.943900499958545,False,9,-1,1,10
Y2-S2-074M24,8,661,PS,exp,25,→,right,→,0.5417561996728182,True,10,-1,0,10
Y2-S2-074M24,8,662,PS,exp,29,↑,right,→,0.7226360999047756,False,10,-1,0,10
Y2-S2-074M24,8,663,PS,exp,33,→,right,→,0.4665403999388218,True,11,-1,0,10
Y2-S2-074M24,8,664,PS,exp,47,↑,right,→,0.594195700250566,False,11,-1,0,10
Y2-S2-074M24,8,665,PS,exp,29,↓,down,↓,0.6360051003284752,True,12,-1,0,10
Y2-S2-074M24,8,666,PS,exp,33,→,right,→,0.5529649001546204,True,12,-1,0,10
Y2-S2-074M24,8,667,PS,exp,38,↑,up,↑,0.5663397996686399,True,12,1,1,11
Y2-S2-074M24,8,668,PS,exp,34,↓,down,↓,0.6052557001821697,True,11,1,0,11
Y2-S2-074M24,8,669,PS,exp,34,←,left,←,0.5136790000833571,True,11,1,0,11
Y2-S2-074M24,8,670,PS,exp,37,↓,down,↓,0.5873086000792682,True,11,1,0,11
Y2-S2-074M24,8,671,PS,exp,35,↑,up,↑,0.438871500082314,True,10,1,0,11
Y2-S2-074M24,8,672,PS,exp,28,→,right,→,0.5433923997916281,True,10,1,0,11
Y2-S2-074M24,8,673,PS,exp,35,←,left,←,0.4395424001850188,True,10,1,0,11
Y2-S2-074M24,8,674,PS,exp,26,→,right,→,0.42436050018295646,True,9,1,0,11
Y2-S2-074M24,8,675,PS,exp,43,↑,left,←,0.7358001000247896,False,9,-1,1,12
Y2-S2-074M24,8,676,PS,exp,34,→,right,→,0.43851289991289377,True,10,-1,0,12
Y2-S2-074M24,8,677,PS,exp,36,↓,down,↓,0.560441100038588,True,10,-1,0,12
Y2-S2-074M24,8,678,PS,exp,47,↑,up,↑,0.5345980999991298,True,10,1,1,13
Y2-S2-074M24,8,679,PS,exp,49,↓,left,←,0.9208275997079909,False,9,-1,1,14
Y2-S2-074M24,8,680,PS,exp,36,←,left,←,0.5782952001318336,True,10,-1,0,14
Y2-S2-074M24,8,681,PS,exp,40,↑,up,↑,0.48078030021861196,True,10,-1,0,14
Y2-S2-074M24,8,682,PS,exp,39,→,right,→,0.45596199994906783,True,10,1,1,15
Y2-S2-074M24,8,683,PS,exp,28,←,left,←,0.5737254000268877,True,9,1,0,15
Y2-S2-074M24,8,684,PS,exp,33,↓,down,↓,0.5869997995905578,True,9,1,0,15
Y2-S2-074M24,8,685,PS,exp,27,←,left,←,0.536723299883306,True,9,1,0,15
Y2-S2-074M24,8,686,PS,exp,34,→,right,→,0.36565280007198453,True,8,1,0,15
Y2-S2-074M24,8,687,PS,exp,35,←,left,←,0.4150001001544297,True,8,1,0,15
Y2-S2-074M24,8,688,PS,exp,49,→,right,→,0.6158489999361336,True,8,1,0,15
Y2-S2-074M24,8,689,PS,exp,34,↑,up,↑,0.4613294000737369,True,7,1,0,15
Y2-S2-074M24,8,690,PS,exp,48,←,left,←,0.6887074997648597,True,7,1,0,15
Y2-S2-074M24,8,691,PS,exp,44,→,right,→,0.7759782997891307,True,7,1,0,15
Y2-S2-074M24,8,692,PS,exp,39,←,left,←,0.5517359999939799,True,6,1,0,15
Y2-S2-074M24,8,693,PS,exp,37,↓,down,↓,0.6614220999181271,True,6,1,0,15
Y2-S2-074M24,8,694,PS,exp,25,↑,down,↓,0.7796610002405941,False,6,-1,1,16
