PART_ID,Block_no,Trial_no,Block_type,Trial_type,CSI,Stim_letter,Key_pressed,letter_choose,Rt,Corr,Stimulus Time,Level,Reversal,Revs_count
Y2-S2-230K20,1,1,PS,train,41,←,left,←,0.8297468000091612,True,30,-,-,-
Y2-S2-230K20,1,2,PS,train,33,→,right,→,0.6173038999550045,True,30,-,-,-
Y2-S2-230K20,1,3,PS,train,28,←,left,←,0.5173237000126392,True,30,-,-,-
Y2-S2-230K20,1,4,PS,train,47,↑,up,↑,0.6169304000213742,True,30,-,-,-
Y2-S2-230K20,1,5,PS,train,26,→,right,→,0.5173073000041768,True,30,-,-,-
Y2-S2-230K20,1,6,PS,train,41,↑,up,↑,0.5506514000007883,True,30,-,-,-
Y2-S2-230K20,1,7,PS,train,40,→,right,→,0.5837750000646338,True,30,-,-,-
Y2-S2-230K20,1,8,PS,train,41,←,left,←,0.43427780002821237,True,30,-,-,-
Y2-S2-230K20,1,9,PS,train,49,↓,down,↓,1.0517401000251994,True,30,-,-,-
Y2-S2-230K20,1,10,PS,train,26,←,left,←,0.4012205000035465,True,30,-,-,-
Y2-S2-230K20,2,11,AS,train,30,↑,up,↑,0.6341196999419481,True,45,-,-,-
Y2-S2-230K20,2,12,AS,train,45,←,left,←,0.6677746999775991,True,45,-,-,-
Y2-S2-230K20,2,13,AS,train,38,↓,up,↑,0.584442500025034,False,45,-,-,-
Y2-S2-230K20,2,14,AS,train,46,←,left,←,0.4011091999709606,True,45,-,-,-
Y2-S2-230K20,2,15,AS,train,40,↑,up,↑,0.4339355999836698,True,45,-,-,-
Y2-S2-230K20,2,16,AS,train,34,→,right,→,0.4680716999573633,True,45,-,-,-
Y2-S2-230K20,2,17,AS,train,44,↓,down,↓,1.5636131999781355,True,45,-,-,-
Y2-S2-230K20,2,18,AS,train,35,←,left,←,0.48433080001268536,True,45,-,-,-
Y2-S2-230K20,2,19,AS,train,33,↑,up,↑,0.7506360999541357,True,45,-,-,-
Y2-S2-230K20,2,20,AS,train,41,→,right,→,0.5177244000369683,True,45,-,-,-
Y2-S2-230K20,-,21,PS,adaptive,25,↓,up,↑,1.3319279999705032,False,10,-1,0,0
Y2-S2-230K20,-,22,PS,adaptive,48,→,down,↓,0.8725049999775365,False,11,-1,0,0
Y2-S2-230K20,-,23,PS,adaptive,26,↓,down,↓,0.8313463000813499,True,12,-1,0,0
Y2-S2-230K20,-,24,PS,adaptive,31,←,left,←,0.49751460005063564,True,12,-1,0,0
Y2-S2-230K20,-,25,PS,adaptive,39,↓,down,↓,0.5981992000015453,True,12,1,1,1
Y2-S2-230K20,-,26,PS,adaptive,50,←,left,←,0.5027152999537066,True,11,1,0,1
Y2-S2-230K20,-,27,PS,adaptive,35,↓,right,→,0.6842415999853984,False,11,-1,1,2
Y2-S2-230K20,-,28,PS,adaptive,32,→,right,→,0.5540494000306353,True,12,-1,0,2
Y2-S2-230K20,-,29,PS,adaptive,42,↓,down,↓,0.5282885000342503,True,12,-1,0,2
Y2-S2-230K20,-,30,PS,adaptive,42,↑,right,→,0.7023118999786675,False,12,-1,0,2
Y2-S2-230K20,-,31,PS,adaptive,29,↓,down,↓,0.6648053999524564,True,13,-1,0,2
Y2-S2-230K20,-,32,PS,adaptive,37,↑,up,↑,0.45741949998773634,True,13,-1,0,2
Y2-S2-230K20,-,33,PS,adaptive,44,↓,down,↓,0.48047790001146495,True,13,1,1,3
Y2-S2-230K20,-,34,PS,adaptive,49,↑,up,↑,0.5577399999601766,True,12,1,0,3
Y2-S2-230K20,-,35,PS,adaptive,26,←,right,→,0.5889165000990033,False,12,-1,1,4
Y2-S2-230K20,-,36,AS,adaptive,37,→,right,→,0.538283999892883,True,20,0,0,0
Y2-S2-230K20,-,37,AS,adaptive,49,←,left,←,0.6500794999301434,True,20,0,0,0
Y2-S2-230K20,-,38,AS,adaptive,36,↓,down,↓,0.5777700999751687,True,20,1,0,0
Y2-S2-230K20,-,39,AS,adaptive,25,←,left,←,0.4171858999179676,True,19,1,0,0
Y2-S2-230K20,-,40,AS,adaptive,40,→,right,→,0.6744959000498056,True,19,1,0,0
Y2-S2-230K20,-,41,AS,adaptive,50,↑,up,↑,0.7190137000288814,True,19,1,0,0
Y2-S2-230K20,-,42,AS,adaptive,50,→,right,→,0.6656608000630513,True,18,1,0,0
Y2-S2-230K20,-,43,AS,adaptive,45,←,left,←,0.6038265000097454,True,18,1,0,0
Y2-S2-230K20,-,44,AS,adaptive,42,↑,up,↑,1.1151180000742897,True,18,1,0,0
Y2-S2-230K20,-,45,AS,adaptive,41,→,right,→,1.1258318000473082,True,17,1,0,0
Y2-S2-230K20,-,46,AS,adaptive,47,↓,up,↑,0.7947442000731826,False,17,-1,1,1
Y2-S2-230K20,-,47,AS,adaptive,45,↑,up,↑,0.6912157000042498,True,18,-1,0,1
Y2-S2-230K20,-,48,AS,adaptive,38,←,left,←,0.7617438000161201,True,18,-1,0,1
Y2-S2-230K20,-,49,AS,adaptive,35,↑,up,↑,1.058073200052604,True,18,1,1,2
Y2-S2-230K20,-,50,AS,adaptive,27,↓,down,↓,0.6752360999817029,True,17,1,0,2
Y2-S2-230K20,-,51,AS,adaptive,30,→,right,→,0.41703020001295954,True,17,1,0,2
Y2-S2-230K20,-,52,AS,adaptive,27,↑,up,↑,0.46744280005805194,True,17,1,0,2
Y2-S2-230K20,-,53,AS,adaptive,48,←,right,→,0.5876380000263453,False,16,-1,1,3
Y2-S2-230K20,-,54,AS,adaptive,26,→,right,→,0.4668549000052735,True,17,-1,0,3
Y2-S2-230K20,-,55,AS,adaptive,45,←,left,←,0.6523272000486031,True,17,-1,0,3
Y2-S2-230K20,-,56,AS,adaptive,29,→,left,←,0.6551166999852285,False,17,-1,0,3
Y2-S2-230K20,-,57,AS,adaptive,35,↑,up,↑,0.4338719000807032,True,18,-1,0,3
Y2-S2-230K20,-,58,AS,adaptive,49,→,right,→,0.95743529999163,True,18,-1,0,3
Y2-S2-230K20,-,59,AS,adaptive,34,↑,up,↑,0.40047100000083447,True,18,1,1,4
Y2-S2-230K20,1,60,AS,intra_train,34,←,left,←,0.6505030000116676,True,25,-,-,-
Y2-S2-230K20,1,61,AS,intra_train,45,↑,up,↑,0.4506979000288993,True,25,-,-,-
Y2-S2-230K20,1,62,AS,intra_train,31,←,left,←,0.4505456999177113,True,25,-,-,-
Y2-S2-230K20,1,63,AS,intra_train,42,↑,up,↑,0.5007921000942588,True,25,-,-,-
Y2-S2-230K20,1,64,AS,intra_train,37,←,left,←,0.7066893000155687,True,25,-,-,-
Y2-S2-230K20,1,65,AS,exp,30,↑,up,↑,0.6715926999459043,True,17,0,0,0
Y2-S2-230K20,1,66,AS,exp,25,↓,up,↑,0.8228051000041887,False,17,-1,0,0
Y2-S2-230K20,1,67,AS,exp,48,↑,up,↑,0.9754771000007167,True,18,-1,0,0
Y2-S2-230K20,1,68,AS,exp,44,→,right,→,0.565787100000307,True,18,-1,0,0
Y2-S2-230K20,1,69,AS,exp,40,←,right,→,0.7572390000568703,False,18,-1,0,0
Y2-S2-230K20,1,70,AS,exp,50,→,right,→,0.7140364999650046,True,19,-1,0,0
Y2-S2-230K20,1,71,AS,exp,25,↑,up,↑,0.6415210999548435,True,19,-1,0,0
Y2-S2-230K20,1,72,AS,exp,36,↓,down,↓,0.5628957999870181,True,19,1,1,1
Y2-S2-230K20,1,73,AS,exp,26,↑,up,↑,0.4774242000421509,True,18,1,0,1
Y2-S2-230K20,1,74,AS,exp,49,↓,down,↓,0.7333698000293225,True,18,1,0,1
Y2-S2-230K20,1,75,AS,exp,27,←,left,←,0.488884299993515,True,18,1,0,1
Y2-S2-230K20,1,76,AS,exp,31,→,right,→,1.1031414000317454,True,17,1,0,1
Y2-S2-230K20,1,77,AS,exp,35,↑,up,↑,1.0191199999535456,True,17,1,0,1
Y2-S2-230K20,1,78,AS,exp,39,→,left,←,0.698947099968791,False,17,-1,1,2
Y2-S2-230K20,1,79,AS,exp,37,↓,down,↓,0.5494121999945492,True,18,-1,0,2
Y2-S2-230K20,1,80,AS,exp,26,→,right,→,0.6379998000338674,True,18,-1,0,2
Y2-S2-230K20,1,81,AS,exp,36,↑,up,↑,0.4336272000800818,True,18,1,1,3
Y2-S2-230K20,1,82,AS,exp,26,→,right,→,0.4781527000013739,True,17,1,0,3
Y2-S2-230K20,1,83,AS,exp,28,↓,left,←,1.058418900007382,False,17,-1,1,4
Y2-S2-230K20,1,84,AS,exp,27,↑,up,↑,0.7789926999248564,True,18,-1,0,4
Y2-S2-230K20,1,85,AS,exp,47,→,right,→,0.5648906000424176,True,18,-1,0,4
Y2-S2-230K20,1,86,AS,exp,41,←,left,←,0.5375511000165716,True,18,1,1,5
Y2-S2-230K20,1,87,AS,exp,27,↓,down,↓,0.5931106000207365,True,17,1,0,5
Y2-S2-230K20,1,88,AS,exp,41,↑,up,↑,0.6346305999904871,True,17,1,0,5
Y2-S2-230K20,1,89,AS,exp,29,←,left,←,0.4712707999860868,True,17,1,0,5
Y2-S2-230K20,1,90,AS,exp,30,↓,down,↓,0.8481471000704914,True,16,1,0,5
Y2-S2-230K20,1,91,AS,exp,46,←,right,→,0.8141779999714345,False,16,-1,1,6
Y2-S2-230K20,1,92,AS,exp,31,→,right,→,0.6838702999521047,True,17,-1,0,6
Y2-S2-230K20,1,93,AS,exp,47,↓,down,↓,0.5031761999707669,True,17,-1,0,6
Y2-S2-230K20,1,94,AS,exp,47,→,right,→,0.5554302999516949,True,17,1,1,7
Y2-S2-230K20,1,95,AS,exp,28,↓,down,↓,0.5432369000045583,True,16,1,0,7
Y2-S2-230K20,1,96,AS,exp,47,↑,up,↑,0.49106739996932447,True,16,1,0,7
Y2-S2-230K20,1,97,AS,exp,34,↓,down,↓,0.6163866999559104,True,16,1,0,7
Y2-S2-230K20,1,98,AS,exp,42,→,left,←,0.9788113000104204,False,15,-1,1,8
Y2-S2-230K20,1,99,AS,exp,37,←,left,←,0.7028023999882862,True,16,-1,0,8
Y2-S2-230K20,1,100,AS,exp,31,↑,up,↑,0.4398525001015514,True,16,-1,0,8
Y2-S2-230K20,1,101,AS,exp,50,→,right,→,0.7243062000488862,True,16,1,1,9
Y2-S2-230K20,1,102,AS,exp,45,←,left,←,0.7199462000280619,True,15,1,0,9
Y2-S2-230K20,1,103,AS,exp,33,→,left,←,0.8709473999915645,False,15,-1,1,10
Y2-S2-230K20,1,104,AS,exp,38,↓,down,↓,0.5756022999994457,True,16,-1,0,10
Y2-S2-230K20,1,105,AS,exp,35,→,right,→,0.43629919993691146,True,16,-1,0,10
Y2-S2-230K20,1,106,AS,exp,33,↑,up,↑,0.4439324999693781,True,16,1,1,11
Y2-S2-230K20,1,107,AS,exp,50,←,left,←,0.6092178000835702,True,15,1,0,11
Y2-S2-230K20,1,108,AS,exp,26,→,right,→,0.5668967000674456,True,15,1,0,11
Y2-S2-230K20,1,109,AS,exp,36,↓,down,↓,0.7495294999098405,True,15,1,0,11
Y2-S2-230K20,1,110,AS,exp,31,↑,up,↑,0.909300799947232,True,14,1,0,11
Y2-S2-230K20,1,111,AS,exp,50,→,left,←,0.9154143000487238,False,14,-1,1,12
Y2-S2-230K20,1,112,AS,exp,25,←,left,←,0.4292544999625534,True,15,-1,0,12
Y2-S2-230K20,1,113,AS,exp,27,↓,down,↓,0.5101667999988422,True,15,-1,0,12
Y2-S2-230K20,1,114,AS,exp,35,↑,down,↓,0.7948893000138924,False,15,-1,0,12
Y2-S2-230K20,1,115,AS,exp,43,↓,down,↓,0.5071037999587134,True,16,-1,0,12
Y2-S2-230K20,1,116,AS,exp,29,←,left,←,0.434352699900046,True,16,-1,0,12
Y2-S2-230K20,1,117,AS,exp,33,↓,down,↓,0.841607499984093,True,16,1,1,13
Y2-S2-230K20,1,118,AS,exp,47,↑,up,↑,0.9525588999968022,True,15,1,0,13
Y2-S2-230K20,1,119,AS,exp,45,←,left,←,0.47696890006773174,True,15,1,0,13
Y2-S2-230K20,1,120,AS,exp,32,→,right,→,0.8767660000594333,True,15,1,0,13
Y2-S2-230K20,1,121,AS,exp,26,↑,down,↓,0.7222231000196189,False,14,-1,1,14
Y2-S2-230K20,1,122,AS,exp,26,↓,down,↓,0.7905130999861285,True,15,-1,0,14
Y2-S2-230K20,1,123,AS,exp,38,←,left,←,0.41851250000763685,True,15,-1,0,14
Y2-S2-230K20,1,124,AS,exp,47,→,right,→,0.5733631999464706,True,15,1,1,15
Y2-S2-230K20,1,125,AS,exp,30,↓,down,↓,0.5610339000122622,True,14,1,0,15
Y2-S2-230K20,1,126,AS,exp,26,↑,up,↑,0.5139477000338957,True,14,1,0,15
Y2-S2-230K20,1,127,AS,exp,50,→,left,←,1.0542529000667855,False,14,-1,1,16
Y2-S2-230K20,2,128,PS,intra_train,47,←,left,←,0.4840669999830425,True,19,-,-,-
Y2-S2-230K20,2,129,PS,intra_train,32,↓,right,→,0.928882300038822,False,19,-,-,-
Y2-S2-230K20,2,130,PS,intra_train,26,→,right,→,0.8440283000236377,True,19,-,-,-
Y2-S2-230K20,2,131,PS,intra_train,42,←,left,←,0.5367729999125004,True,19,-,-,-
Y2-S2-230K20,2,132,PS,intra_train,37,→,right,→,0.6399989000055939,True,19,-,-,-
Y2-S2-230K20,2,133,PS,exp,31,←,left,←,0.4782732999883592,True,13,0,0,0
Y2-S2-230K20,2,134,PS,exp,42,→,right,→,0.7519641000544652,True,13,0,0,0
Y2-S2-230K20,2,135,PS,exp,36,←,left,←,0.4688907000236213,True,13,1,0,0
Y2-S2-230K20,2,136,PS,exp,50,↓,down,↓,0.7352071000495926,True,12,1,0,0
Y2-S2-230K20,2,137,PS,exp,32,→,right,→,0.5653904000064358,True,12,1,0,0
Y2-S2-230K20,2,138,PS,exp,37,↑,left,←,0.8964615000877529,False,12,-1,1,1
Y2-S2-230K20,2,139,PS,exp,41,↓,down,↓,0.9543289999710396,True,13,-1,0,1
Y2-S2-230K20,2,140,PS,exp,32,→,right,→,0.5849608000135049,True,13,-1,0,1
Y2-S2-230K20,2,141,PS,exp,49,←,right,→,0.7744501000270247,False,13,-1,0,1
Y2-S2-230K20,2,142,PS,exp,44,→,right,→,0.43330669996794313,True,14,-1,0,1
Y2-S2-230K20,2,143,PS,exp,36,←,right,→,0.8432788999052718,False,14,-1,0,1
Y2-S2-230K20,2,144,PS,exp,35,↓,down,↓,0.5292111999588087,True,15,-1,0,1
Y2-S2-230K20,2,145,PS,exp,25,→,right,→,0.5400512999622151,True,15,-1,0,1
Y2-S2-230K20,2,146,PS,exp,33,↓,right,→,1.3553760999348015,False,15,-1,0,1
Y2-S2-230K20,2,147,PS,exp,26,→,right,→,0.46857609995640814,True,16,-1,0,1
Y2-S2-230K20,2,148,PS,exp,32,←,left,←,0.5173899000510573,True,16,-1,0,1
Y2-S2-230K20,2,149,PS,exp,36,↓,down,↓,0.5476594000356272,True,16,1,1,2
Y2-S2-230K20,2,150,PS,exp,30,←,left,←,0.6167996999574825,True,15,1,0,2
Y2-S2-230K20,2,151,PS,exp,50,→,right,→,0.5657054000766948,True,15,1,0,2
Y2-S2-230K20,2,152,PS,exp,26,←,left,←,0.5661849000025541,True,15,1,0,2
Y2-S2-230K20,2,153,PS,exp,48,→,right,→,0.6029075999977067,True,14,1,0,2
Y2-S2-230K20,2,154,PS,exp,25,↓,left,←,0.7502862999681383,False,14,-1,1,3
Y2-S2-230K20,2,155,PS,exp,31,→,right,→,0.4656665000366047,True,15,-1,0,3
Y2-S2-230K20,2,156,PS,exp,43,←,left,←,0.4627938000485301,True,15,-1,0,3
Y2-S2-230K20,2,157,PS,exp,25,→,right,→,0.3674733000807464,True,15,1,1,4
Y2-S2-230K20,2,158,PS,exp,39,↑,up,↑,0.4855849000159651,True,14,1,0,4
Y2-S2-230K20,2,159,PS,exp,45,→,right,→,0.4655168999452144,True,14,1,0,4
Y2-S2-230K20,2,160,PS,exp,38,↑,right,→,0.9093710000161082,False,14,-1,1,5
Y2-S2-230K20,2,161,PS,exp,39,→,right,→,0.485515599953942,True,15,-1,0,5
Y2-S2-230K20,2,162,PS,exp,29,↑,right,→,0.5526172999525443,False,15,-1,0,5
Y2-S2-230K20,2,163,PS,exp,49,←,left,←,0.7293599001131952,True,16,-1,0,5
Y2-S2-230K20,2,164,PS,exp,29,↑,up,↑,0.6226431999821216,True,16,-1,0,5
Y2-S2-230K20,2,165,PS,exp,29,←,left,←,0.5727070999564603,True,16,1,1,6
Y2-S2-230K20,2,166,PS,exp,45,↓,down,↓,0.5588872999651358,True,15,1,0,6
Y2-S2-230K20,2,167,PS,exp,26,→,left,←,0.7658068999880925,False,15,-1,1,7
Y2-S2-230K20,2,168,PS,exp,33,↑,up,↑,0.44288079999387264,True,16,-1,0,7
Y2-S2-230K20,2,169,PS,exp,41,←,left,←,0.46544600010383874,True,16,-1,0,7
Y2-S2-230K20,2,170,PS,exp,39,↓,down,↓,0.6456084999954328,True,16,1,1,8
Y2-S2-230K20,2,171,PS,exp,28,←,left,←,0.8400412000482902,True,15,1,0,8
Y2-S2-230K20,2,172,PS,exp,46,↑,up,↑,0.44419230008497834,True,15,1,0,8
Y2-S2-230K20,2,173,PS,exp,27,→,right,→,0.7117383999284357,True,15,1,0,8
Y2-S2-230K20,2,174,PS,exp,32,↑,up,↑,0.4160879999399185,True,14,1,0,8
Y2-S2-230K20,2,175,PS,exp,38,←,left,←,0.5003819999983534,True,14,1,0,8
Y2-S2-230K20,2,176,PS,exp,33,→,right,→,0.4722850000252947,True,14,1,0,8
Y2-S2-230K20,2,177,PS,exp,34,↑,right,→,0.746522800065577,False,13,-1,1,9
Y2-S2-230K20,2,178,PS,exp,31,↓,down,↓,0.548454099916853,True,14,-1,0,9
Y2-S2-230K20,2,179,PS,exp,27,←,left,←,0.4671052999328822,True,14,-1,0,9
Y2-S2-230K20,2,180,PS,exp,28,↓,right,→,0.5559740999015048,False,14,-1,0,9
Y2-S2-230K20,2,181,PS,exp,26,←,left,←,0.6169078999664634,True,15,-1,0,9
Y2-S2-230K20,2,182,PS,exp,43,↑,up,↑,0.42686779994983226,True,15,-1,0,9
Y2-S2-230K20,2,183,PS,exp,37,→,right,→,0.48303650005254894,True,15,1,1,10
Y2-S2-230K20,2,184,PS,exp,33,↓,down,↓,0.8304196000099182,True,14,1,0,10
Y2-S2-230K20,2,185,PS,exp,25,←,left,←,0.42707670002710074,True,14,1,0,10
Y2-S2-230K20,2,186,PS,exp,42,↑,up,↑,0.967846899991855,True,14,1,0,10
Y2-S2-230K20,2,187,PS,exp,33,↓,down,↓,0.5814398000948131,True,13,1,0,10
Y2-S2-230K20,2,188,PS,exp,41,←,left,←,0.9156366999959573,True,13,1,0,10
Y2-S2-230K20,2,189,PS,exp,36,↑,up,↑,0.8490642999531701,True,13,1,0,10
Y2-S2-230K20,2,190,PS,exp,42,←,left,←,0.5102654000511393,True,12,1,0,10
Y2-S2-230K20,2,191,PS,exp,41,↓,down,↓,0.5761189999757335,True,12,1,0,10
Y2-S2-230K20,2,192,PS,exp,50,↑,left,←,0.7108605999965221,False,12,-1,1,11
Y2-S2-230K20,2,193,PS,exp,40,↓,down,↓,0.6705967000452802,True,13,-1,0,11
Y2-S2-230K20,2,194,PS,exp,46,→,right,→,0.4344687999691814,True,13,-1,0,11
Y2-S2-230K20,2,195,PS,exp,35,↓,down,↓,0.5483852000907063,True,13,1,1,12
Y2-S2-230K20,2,196,PS,exp,25,↑,up,↑,0.4020485000219196,True,12,1,0,12
Y2-S2-230K20,2,197,PS,exp,48,↓,down,↓,0.45851450006011873,True,12,1,0,12
Y2-S2-230K20,2,198,PS,exp,25,→,right,→,0.6227256999118254,True,12,1,0,12
Y2-S2-230K20,2,199,PS,exp,43,↓,down,↓,0.4791016000090167,True,11,1,0,12
Y2-S2-230K20,2,200,PS,exp,37,→,left,←,1.0047096000052989,False,11,-1,1,13
Y2-S2-230K20,2,201,PS,exp,33,←,left,←,0.5509367999620736,True,12,-1,0,13
Y2-S2-230K20,2,202,PS,exp,36,→,right,→,0.4513721000403166,True,12,-1,0,13
Y2-S2-230K20,2,203,PS,exp,44,←,left,←,0.443082100013271,True,12,1,1,14
Y2-S2-230K20,2,204,PS,exp,33,↓,down,↓,0.5958036999218166,True,11,1,0,14
Y2-S2-230K20,2,205,PS,exp,45,↑,up,↑,0.6265948000364006,True,11,1,0,14
Y2-S2-230K20,2,206,PS,exp,30,↓,down,↓,0.5031308999750763,True,11,1,0,14
Y2-S2-230K20,2,207,PS,exp,44,←,left,←,0.5052182000363246,True,10,1,0,14
Y2-S2-230K20,2,208,PS,exp,43,↓,down,↓,0.45737029996234924,True,10,1,0,14
Y2-S2-230K20,2,209,PS,exp,32,←,left,←,0.39401080005336553,True,10,1,0,14
Y2-S2-230K20,2,210,PS,exp,43,↓,down,↓,0.46708670002408326,True,9,1,0,14
Y2-S2-230K20,2,211,PS,exp,48,←,left,←,0.6305173999862745,True,9,1,0,14
Y2-S2-230K20,2,212,PS,exp,33,↑,up,↑,0.571656099986285,True,9,1,0,14
Y2-S2-230K20,2,213,PS,exp,35,→,right,→,0.636132900021039,True,8,1,0,14
Y2-S2-230K20,2,214,PS,exp,40,↓,left,←,0.8148018000647426,False,8,-1,1,15
Y2-S2-230K20,2,215,PS,exp,43,→,left,←,0.7279190999688581,False,9,-1,0,15
Y2-S2-230K20,2,216,PS,exp,43,↑,up,↑,0.572536600055173,True,10,-1,0,15
Y2-S2-230K20,2,217,PS,exp,43,→,right,→,0.37463990005198866,True,10,-1,0,15
Y2-S2-230K20,2,218,PS,exp,35,←,right,→,0.6319860999938101,False,10,-1,0,15
Y2-S2-230K20,2,219,PS,exp,25,↑,up,↑,0.4016559000592679,True,11,-1,0,15
Y2-S2-230K20,2,220,PS,exp,31,←,left,←,0.37817889999132603,True,11,-1,0,15
Y2-S2-230K20,2,221,PS,exp,34,↑,up,↑,0.4280841000145301,True,11,1,1,16
Y2-S2-230K20,3,222,PS,intra_train,41,→,right,→,0.6077043999684975,True,19,-,-,-
Y2-S2-230K20,3,223,PS,intra_train,28,←,left,←,0.539303999976255,True,19,-,-,-
Y2-S2-230K20,3,224,PS,intra_train,48,↑,up,↑,0.4002378999721259,True,19,-,-,-
Y2-S2-230K20,3,225,PS,intra_train,47,→,right,→,0.40057769999839365,True,19,-,-,-
Y2-S2-230K20,3,226,PS,intra_train,34,↓,down,↓,0.6585345999337733,True,19,-,-,-
Y2-S2-230K20,3,227,PS,exp,28,↑,up,↑,0.4496876000193879,True,13,0,0,0
Y2-S2-230K20,3,228,PS,exp,44,↓,up,↑,0.5216713000554591,False,13,-1,0,0
Y2-S2-230K20,3,229,PS,exp,26,→,right,→,0.705094400094822,True,14,-1,0,0
Y2-S2-230K20,3,230,PS,exp,44,←,left,←,0.4218301000073552,True,14,-1,0,0
Y2-S2-230K20,3,231,PS,exp,40,↓,left,←,0.9472449999302626,False,14,-1,0,0
Y2-S2-230K20,3,232,PS,exp,32,↑,up,↑,0.3838102000299841,True,15,-1,0,0
Y2-S2-230K20,3,233,PS,exp,25,→,right,→,0.5978316999971867,True,15,-1,0,0
Y2-S2-230K20,3,234,PS,exp,38,↑,up,↑,1.75587810005527,True,15,1,1,1
Y2-S2-230K20,3,235,PS,exp,47,→,right,→,0.5296405999688432,True,14,1,0,1
Y2-S2-230K20,3,236,PS,exp,35,←,left,←,0.7152825000230223,True,14,1,0,1
Y2-S2-230K20,3,237,PS,exp,25,↓,down,↓,0.5953787999460474,True,14,1,0,1
Y2-S2-230K20,3,238,PS,exp,25,↑,up,↑,0.45701660006307065,True,13,1,0,1
Y2-S2-230K20,3,239,PS,exp,38,↓,down,↓,0.6284075999865308,True,13,1,0,1
Y2-S2-230K20,3,240,PS,exp,40,←,left,←,0.4552032999927178,True,13,1,0,1
Y2-S2-230K20,3,241,PS,exp,31,↓,down,↓,0.47325450007338077,True,12,1,0,1
Y2-S2-230K20,3,242,PS,exp,45,→,right,→,0.7669125999091193,True,12,1,0,1
Y2-S2-230K20,3,243,PS,exp,29,↓,down,↓,0.8517274999758229,True,12,1,0,1
Y2-S2-230K20,3,244,PS,exp,39,↑,left,←,0.7418852999107912,False,11,-1,1,2
Y2-S2-230K20,3,245,PS,exp,35,←,left,←,0.5960744000039995,True,12,-1,0,2
Y2-S2-230K20,3,246,PS,exp,36,↓,down,↓,1.0925399999832734,True,12,-1,0,2
Y2-S2-230K20,3,247,PS,exp,29,→,left,←,0.7385907999705523,False,12,-1,0,2
Y2-S2-230K20,3,248,PS,exp,29,↓,down,↓,0.5353001999901608,True,13,-1,0,2
Y2-S2-230K20,3,249,PS,exp,28,→,right,→,0.4251215000404045,True,13,-1,0,2
Y2-S2-230K20,3,250,PS,exp,30,↓,down,↓,0.514392500044778,True,13,1,1,3
Y2-S2-230K20,3,251,PS,exp,37,↑,up,↑,0.4643182000145316,True,12,1,0,3
Y2-S2-230K20,3,252,PS,exp,40,↓,down,↓,0.44966010004282,True,12,1,0,3
Y2-S2-230K20,3,253,PS,exp,36,↑,up,↑,0.39943039999343455,True,12,1,0,3
Y2-S2-230K20,3,254,PS,exp,47,→,right,→,0.5338849999243394,True,11,1,0,3
Y2-S2-230K20,3,255,PS,exp,26,←,left,←,0.508190100081265,True,11,1,0,3
Y2-S2-230K20,3,256,PS,exp,27,→,right,→,0.4033387000672519,True,11,1,0,3
Y2-S2-230K20,3,257,PS,exp,29,↑,up,↑,0.4096331000328064,True,10,1,0,3
Y2-S2-230K20,3,258,PS,exp,30,→,right,→,0.36362129996996373,True,10,1,0,3
Y2-S2-230K20,3,259,PS,exp,37,↑,left,←,0.8695581000065431,False,10,-1,1,4
Y2-S2-230K20,3,260,PS,exp,28,→,right,→,0.4335826999740675,True,11,-1,0,4
Y2-S2-230K20,3,261,PS,exp,42,←,left,←,0.5606681000208482,True,11,-1,0,4
Y2-S2-230K20,3,262,PS,exp,33,→,right,→,0.5118963000131771,True,11,1,1,5
Y2-S2-230K20,3,263,PS,exp,39,↓,left,←,0.9216766000026837,False,10,-1,1,6
Y2-S2-230K20,3,264,PS,exp,31,→,right,→,0.38423189998138696,True,11,-1,0,6
Y2-S2-230K20,3,265,PS,exp,37,↓,down,↓,0.5854752999730408,True,11,-1,0,6
Y2-S2-230K20,3,266,PS,exp,39,↑,up,↑,0.4014069000259042,True,11,1,1,7
Y2-S2-230K20,3,267,PS,exp,28,→,right,→,0.5046300999820232,True,10,1,0,7
Y2-S2-230K20,3,268,PS,exp,38,←,left,←,0.5115838000783697,True,10,1,0,7
Y2-S2-230K20,3,269,PS,exp,37,↓,down,↓,0.5713948999764398,True,10,1,0,7
Y2-S2-230K20,3,270,PS,exp,33,↑,up,↑,0.39007110008969903,True,9,1,0,7
Y2-S2-230K20,3,271,PS,exp,48,↓,down,↓,0.44628489995375276,True,9,1,0,7
Y2-S2-230K20,3,272,PS,exp,46,→,right,→,0.3940970000112429,True,9,1,0,7
Y2-S2-230K20,3,273,PS,exp,38,←,left,←,0.48037420003674924,True,8,1,0,7
Y2-S2-230K20,3,274,PS,exp,33,→,right,→,0.3843897000188008,True,8,1,0,7
Y2-S2-230K20,3,275,PS,exp,33,←,left,←,0.45817220001481473,True,8,1,0,7
Y2-S2-230K20,3,276,PS,exp,35,→,right,→,0.39046230004169047,True,7,1,0,7
Y2-S2-230K20,3,277,PS,exp,49,↓,down,↓,0.46236400003544986,True,7,1,0,7
Y2-S2-230K20,3,278,PS,exp,31,→,right,→,0.3986290000611916,True,7,1,0,7
Y2-S2-230K20,3,279,PS,exp,32,↑,up,↑,0.4293866000371054,True,6,1,0,7
Y2-S2-230K20,3,280,PS,exp,40,←,right,→,0.6422916000010446,False,6,-1,1,8
Y2-S2-230K20,3,281,PS,exp,25,→,right,→,0.5429297999944538,True,7,-1,0,8
Y2-S2-230K20,3,282,PS,exp,43,←,left,←,0.5028184000402689,True,7,-1,0,8
Y2-S2-230K20,3,283,PS,exp,28,↓,down,↓,0.546755800023675,True,7,1,1,9
Y2-S2-230K20,3,284,PS,exp,45,↑,left,←,0.617185499984771,False,6,-1,1,10
Y2-S2-230K20,3,285,PS,exp,32,→,left,←,0.6189596999902278,False,7,-1,0,10
Y2-S2-230K20,3,286,PS,exp,36,↓,down,↓,0.4446437999140471,True,8,-1,0,10
Y2-S2-230K20,3,287,PS,exp,28,→,left,←,0.568935599992983,False,8,-1,0,10
Y2-S2-230K20,3,288,PS,exp,39,↓,down,↓,0.6503671000245959,True,9,-1,0,10
Y2-S2-230K20,3,289,PS,exp,41,↑,right,→,0.5531597000081092,False,9,-1,0,10
Y2-S2-230K20,3,290,PS,exp,39,↓,down,↓,0.6433357000350952,True,10,-1,0,10
Y2-S2-230K20,3,291,PS,exp,42,↑,left,←,1.1204722999827936,False,10,-1,0,10
Y2-S2-230K20,3,292,PS,exp,35,→,right,→,0.49104069999884814,True,11,-1,0,10
Y2-S2-230K20,3,293,PS,exp,46,↑,left,←,1.44967910007108,False,11,-1,0,10
Y2-S2-230K20,3,294,PS,exp,28,↓,down,↓,0.5489287000382319,True,12,-1,0,10
Y2-S2-230K20,3,295,PS,exp,38,←,left,←,0.43026369996368885,True,12,-1,0,10
Y2-S2-230K20,3,296,PS,exp,33,↓,left,←,0.6691393000073731,False,12,-1,0,10
Y2-S2-230K20,3,297,PS,exp,34,→,right,→,0.4224001000402495,True,13,-1,0,10
Y2-S2-230K20,3,298,PS,exp,40,↑,up,↑,0.4180745999328792,True,13,-1,0,10
Y2-S2-230K20,3,299,PS,exp,41,←,left,←,0.6716441999888048,True,13,1,1,11
Y2-S2-230K20,3,300,PS,exp,32,↑,up,↑,0.41591999994125217,True,12,1,0,11
Y2-S2-230K20,3,301,PS,exp,26,→,right,→,0.43107859999872744,True,12,1,0,11
Y2-S2-230K20,3,302,PS,exp,50,←,left,←,0.6359190000221133,True,12,1,0,11
Y2-S2-230K20,3,303,PS,exp,30,↑,left,←,0.5938521000789478,False,11,-1,1,12
Y2-S2-230K20,3,304,PS,exp,41,←,left,←,0.4162097000516951,True,12,-1,0,12
Y2-S2-230K20,3,305,PS,exp,28,↓,down,↓,0.5775102999759838,True,12,-1,0,12
Y2-S2-230K20,3,306,PS,exp,38,→,right,→,0.43279839993920177,True,12,1,1,13
Y2-S2-230K20,3,307,PS,exp,29,↑,up,↑,0.36534719995688647,True,11,1,0,13
Y2-S2-230K20,3,308,PS,exp,33,→,right,→,0.6605820999247953,True,11,1,0,13
Y2-S2-230K20,3,309,PS,exp,31,↓,right,→,0.5859601000556722,False,11,-1,1,14
Y2-S2-230K20,3,310,PS,exp,31,→,right,→,0.49680990003980696,True,12,-1,0,14
Y2-S2-230K20,3,311,PS,exp,39,↑,up,↑,0.5047070999862626,True,12,-1,0,14
Y2-S2-230K20,3,312,PS,exp,28,→,right,→,0.4062535000266507,True,12,1,1,15
Y2-S2-230K20,3,313,PS,exp,50,↑,up,↑,0.4885655000107363,True,11,1,0,15
Y2-S2-230K20,3,314,PS,exp,35,→,right,→,0.3610956999473274,True,11,1,0,15
Y2-S2-230K20,3,315,PS,exp,38,↓,down,↓,0.6041979000438005,True,11,1,0,15
Y2-S2-230K20,3,316,PS,exp,37,↑,up,↑,0.5817044000141323,True,10,1,0,15
Y2-S2-230K20,3,317,PS,exp,31,→,left,←,1.4099612000864,False,10,-1,1,16
Y2-S2-230K20,4,318,AS,intra_train,38,↓,down,↓,0.6125134999165311,True,25,-,-,-
Y2-S2-230K20,4,319,AS,intra_train,42,↑,up,↑,0.6728535000002012,True,25,-,-,-
Y2-S2-230K20,4,320,AS,intra_train,42,←,left,←,0.6324939000187442,True,25,-,-,-
Y2-S2-230K20,4,321,AS,intra_train,50,↓,down,↓,0.7937628000508994,True,25,-,-,-
Y2-S2-230K20,4,322,AS,intra_train,25,←,left,←,0.5340385999297723,True,25,-,-,-
Y2-S2-230K20,4,323,AS,exp,25,↑,up,↑,0.4530366000253707,True,17,0,0,0
Y2-S2-230K20,4,324,AS,exp,28,↓,up,↑,0.49407300003804266,False,17,-1,0,0
Y2-S2-230K20,4,325,AS,exp,39,→,right,→,0.7581076000351459,True,18,-1,0,0
Y2-S2-230K20,4,326,AS,exp,38,↓,down,↓,0.5287617000285536,True,18,-1,0,0
Y2-S2-230K20,4,327,AS,exp,42,→,right,→,0.5808226999361068,True,18,1,1,1
Y2-S2-230K20,4,328,AS,exp,38,↓,down,↓,0.4534941000165418,True,17,1,0,1
Y2-S2-230K20,4,329,AS,exp,49,↑,up,↑,1.0166303000878543,True,17,1,0,1
Y2-S2-230K20,4,330,AS,exp,28,→,right,→,0.5731480000540614,True,17,1,0,1
Y2-S2-230K20,4,331,AS,exp,35,↑,up,↑,0.383691200055182,True,16,1,0,1
Y2-S2-230K20,4,332,AS,exp,28,←,right,→,0.5942156000528485,False,16,-1,1,2
Y2-S2-230K20,4,333,AS,exp,25,↓,down,↓,0.510956299956888,True,17,-1,0,2
Y2-S2-230K20,4,334,AS,exp,40,←,left,←,0.7631883999565616,True,17,-1,0,2
Y2-S2-230K20,4,335,AS,exp,50,↓,down,↓,0.47866979998070747,True,17,1,1,3
Y2-S2-230K20,4,336,AS,exp,34,↑,up,↑,0.4989878999767825,True,16,1,0,3
Y2-S2-230K20,4,337,AS,exp,47,→,right,→,0.5687304000603035,True,16,1,0,3
Y2-S2-230K20,4,338,AS,exp,46,↓,down,↓,0.4637823000084609,True,16,1,0,3
Y2-S2-230K20,4,339,AS,exp,45,←,right,→,0.610496399924159,False,15,-1,1,4
Y2-S2-230K20,4,340,AS,exp,40,↓,down,↓,0.4378307999577373,True,16,-1,0,4
Y2-S2-230K20,4,341,AS,exp,41,←,left,←,0.38384100003167987,True,16,-1,0,4
Y2-S2-230K20,4,342,AS,exp,38,↑,up,↑,0.40051019995007664,True,16,1,1,5
Y2-S2-230K20,4,343,AS,exp,48,←,left,←,0.4682125999825075,True,15,1,0,5
Y2-S2-230K20,4,344,AS,exp,46,↑,up,↑,0.3840077000204474,True,15,1,0,5
Y2-S2-230K20,4,345,AS,exp,43,←,right,→,0.5878381999209523,False,15,-1,1,6
Y2-S2-230K20,4,346,AS,exp,31,↑,up,↑,0.5921561999712139,True,16,-1,0,6
Y2-S2-230K20,4,347,AS,exp,40,←,left,←,1.455061399959959,True,16,-1,0,6
Y2-S2-230K20,4,348,AS,exp,32,↑,up,↑,0.4833744000643492,True,16,1,1,7
Y2-S2-230K20,4,349,AS,exp,38,↓,down,↓,0.6047621999168769,True,15,1,0,7
Y2-S2-230K20,4,350,AS,exp,46,↑,up,↑,0.38427030004095286,True,15,1,0,7
Y2-S2-230K20,4,351,AS,exp,44,←,left,←,0.9737562999362126,True,15,1,0,7
Y2-S2-230K20,4,352,AS,exp,45,→,right,→,0.8554915999993682,True,14,1,0,7
Y2-S2-230K20,4,353,AS,exp,39,↑,up,↑,0.892603800049983,True,14,1,0,7
Y2-S2-230K20,4,354,AS,exp,42,↓,left,←,0.8401703999843448,False,14,-1,1,8
Y2-S2-230K20,4,355,AS,exp,25,←,left,←,0.7698567999759689,True,15,-1,0,8
Y2-S2-230K20,4,356,AS,exp,45,↑,up,↑,1.0146856000646949,True,15,-1,0,8
Y2-S2-230K20,4,357,AS,exp,31,←,left,←,0.7507985000265762,True,15,1,1,9
Y2-S2-230K20,4,358,AS,exp,44,↓,down,↓,0.5684133999748155,True,14,1,0,9
Y2-S2-230K20,4,359,AS,exp,47,←,left,←,0.5535869000013918,True,14,1,0,9
Y2-S2-230K20,4,360,AS,exp,44,→,right,→,0.5311629000352696,True,14,1,0,9
Y2-S2-230K20,4,361,AS,exp,47,↑,down,↓,0.7003554999828339,False,13,-1,1,10
Y2-S2-230K20,4,362,AS,exp,35,←,right,→,0.6585035999305546,False,14,-1,0,10
Y2-S2-230K20,4,363,AS,exp,35,↓,down,↓,0.5595729999477044,True,15,-1,0,10
Y2-S2-230K20,4,364,AS,exp,35,↑,up,↑,0.9340691999532282,True,15,-1,0,10
Y2-S2-230K20,4,365,AS,exp,38,→,right,→,0.3841484000440687,True,15,1,1,11
Y2-S2-230K20,4,366,AS,exp,39,←,left,←,0.4888192000798881,True,14,1,0,11
Y2-S2-230K20,4,367,AS,exp,28,↑,up,↑,0.7681049000239,True,14,1,0,11
Y2-S2-230K20,4,368,AS,exp,42,→,right,→,0.4128316999413073,True,14,1,0,11
Y2-S2-230K20,4,369,AS,exp,39,←,left,←,0.7100101000396535,True,13,1,0,11
Y2-S2-230K20,4,370,AS,exp,48,→,right,→,0.4801394999958575,True,13,1,0,11
Y2-S2-230K20,4,371,AS,exp,38,↑,up,↑,0.42578980000689626,True,13,1,0,11
Y2-S2-230K20,4,372,AS,exp,47,←,left,←,0.7074371000053361,True,12,1,0,11
Y2-S2-230K20,4,373,AS,exp,32,↓,down,↓,0.5960025999229401,True,12,1,0,11
Y2-S2-230K20,4,374,AS,exp,45,→,left,←,0.9406123999506235,False,12,-1,1,12
Y2-S2-230K20,4,375,AS,exp,26,↑,up,↑,0.5067413001088426,True,13,-1,0,12
Y2-S2-230K20,4,376,AS,exp,48,↓,up,↑,0.7546696999343112,False,13,-1,0,12
Y2-S2-230K20,4,377,AS,exp,49,→,right,→,0.46255460008978844,True,14,-1,0,12
Y2-S2-230K20,4,378,AS,exp,31,↑,up,↑,0.8002634999575093,True,14,-1,0,12
Y2-S2-230K20,4,379,AS,exp,36,↓,down,↓,0.7517006000271067,True,14,1,1,13
Y2-S2-230K20,4,380,AS,exp,38,↑,up,↑,0.5267635000636801,True,13,1,0,13
Y2-S2-230K20,4,381,AS,exp,46,←,right,→,0.5957049999851733,False,13,-1,1,14
Y2-S2-230K20,4,382,AS,exp,31,↑,up,↑,0.4186298999702558,True,14,-1,0,14
Y2-S2-230K20,4,383,AS,exp,28,←,left,←,0.6797276999568567,True,14,-1,0,14
Y2-S2-230K20,4,384,AS,exp,26,↑,up,↑,0.6051732999039814,True,14,1,1,15
Y2-S2-230K20,4,385,AS,exp,25,↓,down,↓,0.7697590999305248,True,13,1,0,15
Y2-S2-230K20,4,386,AS,exp,49,↑,up,↑,0.6138071001041681,True,13,1,0,15
Y2-S2-230K20,4,387,AS,exp,46,→,right,→,0.459792299894616,True,13,1,0,15
Y2-S2-230K20,4,388,AS,exp,37,↓,down,↓,0.5536247999407351,True,12,1,0,15
Y2-S2-230K20,4,389,AS,exp,47,↑,up,↑,0.40223579993471503,True,12,1,0,15
Y2-S2-230K20,4,390,AS,exp,35,←,right,→,0.5874629999743775,False,12,-1,1,16
Y2-S2-230K20,5,391,AS,intra_train,28,↑,up,↑,0.48476560006383806,True,25,-,-,-
Y2-S2-230K20,5,392,AS,intra_train,41,→,right,→,0.48423300008289516,True,25,-,-,-
Y2-S2-230K20,5,393,AS,intra_train,26,←,left,←,1.4068555000703782,True,25,-,-,-
Y2-S2-230K20,5,394,AS,intra_train,31,↑,up,↑,1.0246595999924466,True,25,-,-,-
Y2-S2-230K20,5,395,AS,intra_train,25,↓,down,↓,0.5998243000358343,True,25,-,-,-
Y2-S2-230K20,5,396,AS,exp,37,←,left,←,0.4639161000959575,True,17,0,0,0
Y2-S2-230K20,5,397,AS,exp,48,→,right,→,0.5697440999792889,True,17,0,0,0
Y2-S2-230K20,5,398,AS,exp,29,↓,down,↓,0.6758760999655351,True,17,1,0,0
Y2-S2-230K20,5,399,AS,exp,29,↑,up,↑,0.7075699999695644,True,16,1,0,0
Y2-S2-230K20,5,400,AS,exp,47,←,left,←,0.4775663000764325,True,16,1,0,0
Y2-S2-230K20,5,401,AS,exp,40,↑,up,↑,0.38394179998431355,True,16,1,0,0
Y2-S2-230K20,5,402,AS,exp,48,←,left,←,0.8220994001021609,True,15,1,0,0
Y2-S2-230K20,5,403,AS,exp,36,↓,down,↓,0.7555529000237584,True,15,1,0,0
Y2-S2-230K20,5,404,AS,exp,44,→,right,→,0.4597423999803141,True,15,1,0,0
Y2-S2-230K20,5,405,AS,exp,34,↑,up,↑,1.145713399979286,True,14,1,0,0
Y2-S2-230K20,5,406,AS,exp,49,→,left,←,0.711610300000757,False,14,-1,1,1
Y2-S2-230K20,5,407,AS,exp,45,←,left,←,0.5587886000284925,True,15,-1,0,1
Y2-S2-230K20,5,408,AS,exp,26,↑,left,←,1.059896899969317,False,15,-1,0,1
Y2-S2-230K20,5,409,AS,exp,33,←,left,←,0.4936758999247104,True,16,-1,0,1
Y2-S2-230K20,5,410,AS,exp,45,↓,down,↓,0.6519266000250354,True,16,-1,0,1
Y2-S2-230K20,5,411,AS,exp,29,←,left,←,0.45085229992400855,True,16,1,1,2
Y2-S2-230K20,5,412,AS,exp,32,→,left,←,0.694040699978359,False,15,-1,1,3
Y2-S2-230K20,5,413,AS,exp,32,←,left,←,0.6553112999536097,True,16,-1,0,3
Y2-S2-230K20,5,414,AS,exp,34,↑,left,←,0.7083389000035822,False,16,-1,0,3
Y2-S2-230K20,5,415,AS,exp,41,←,left,←,0.9865420999703929,True,17,-1,0,3
Y2-S2-230K20,5,416,AS,exp,30,↑,up,↑,0.4528564000502229,True,17,-1,0,3
Y2-S2-230K20,5,417,AS,exp,43,←,left,←,0.7348453999729827,True,17,1,1,4
Y2-S2-230K20,5,418,AS,exp,40,↑,up,↑,0.46510410006158054,True,16,1,0,4
Y2-S2-230K20,5,419,AS,exp,35,→,right,→,0.4723468000302091,True,16,1,0,4
Y2-S2-230K20,5,420,AS,exp,25,↓,left,←,0.9731766999466345,False,16,-1,1,5
Y2-S2-230K20,5,421,AS,exp,37,↑,down,↓,1.0182534999912605,False,17,-1,0,5
Y2-S2-230K20,5,422,AS,exp,39,↓,down,↓,0.5747150999959558,True,18,-1,0,5
Y2-S2-230K20,5,423,AS,exp,43,→,right,→,0.4177973000332713,True,18,-1,0,5
Y2-S2-230K20,5,424,AS,exp,29,↓,down,↓,0.7403848000103608,True,18,1,1,6
Y2-S2-230K20,5,425,AS,exp,46,←,left,←,0.8206554999342188,True,17,1,0,6
Y2-S2-230K20,5,426,AS,exp,44,→,right,→,0.9703021999448538,True,17,1,0,6
Y2-S2-230K20,5,427,AS,exp,44,↓,down,↓,0.519107999978587,True,17,1,0,6
Y2-S2-230K20,5,428,AS,exp,49,↑,down,↓,0.9183697999687865,False,16,-1,1,7
Y2-S2-230K20,5,429,AS,exp,37,→,right,→,0.9210049000103027,True,17,-1,0,7
Y2-S2-230K20,5,430,AS,exp,43,←,left,←,0.7534459000453353,True,17,-1,0,7
Y2-S2-230K20,5,431,AS,exp,39,→,right,→,1.0870294999331236,True,17,1,1,8
Y2-S2-230K20,5,432,AS,exp,36,↑,up,↑,0.4351025999058038,True,16,1,0,8
Y2-S2-230K20,5,433,AS,exp,37,→,left,←,0.7100619999691844,False,16,-1,1,9
Y2-S2-230K20,5,434,AS,exp,37,←,left,←,0.6427752999588847,True,17,-1,0,9
Y2-S2-230K20,5,435,AS,exp,44,↑,up,↑,0.6324722999706864,True,17,-1,0,9
Y2-S2-230K20,5,436,AS,exp,46,→,right,→,0.48693719995208085,True,17,1,1,10
Y2-S2-230K20,5,437,AS,exp,43,↓,down,↓,0.7507440999615937,True,16,1,0,10
Y2-S2-230K20,5,438,AS,exp,45,←,left,←,0.5586948998970911,True,16,1,0,10
Y2-S2-230K20,5,439,AS,exp,37,↑,up,↑,0.6763338000746444,True,16,1,0,10
Y2-S2-230K20,5,440,AS,exp,48,→,right,→,0.6295248999958858,True,15,1,0,10
Y2-S2-230K20,5,441,AS,exp,32,↑,up,↑,0.5061344000278041,True,15,1,0,10
Y2-S2-230K20,5,442,AS,exp,50,←,left,←,0.7325815999647602,True,15,1,0,10
Y2-S2-230K20,5,443,AS,exp,46,↑,up,↑,0.8716268000425771,True,14,1,0,10
Y2-S2-230K20,5,444,AS,exp,28,↓,down,↓,0.8341966000152752,True,14,1,0,10
Y2-S2-230K20,5,445,AS,exp,27,→,right,→,0.4019825999857858,True,14,1,0,10
Y2-S2-230K20,5,446,AS,exp,39,↑,up,↑,1.3455270000267774,True,13,1,0,10
Y2-S2-230K20,5,447,AS,exp,39,→,right,→,1.1533844000659883,True,13,1,0,10
Y2-S2-230K20,5,448,AS,exp,33,↑,up,↑,0.660706500057131,True,13,1,0,10
Y2-S2-230K20,5,449,AS,exp,45,→,right,→,0.5568163999123499,True,12,1,0,10
Y2-S2-230K20,5,450,AS,exp,37,↑,up,↑,0.4571138999890536,True,12,1,0,10
Y2-S2-230K20,5,451,AS,exp,40,↓,down,↓,0.5427288999781013,True,12,1,0,10
Y2-S2-230K20,5,452,AS,exp,44,↑,up,↑,0.4278067001141608,True,11,1,0,10
Y2-S2-230K20,5,453,AS,exp,39,↓,down,↓,0.5859292999375612,True,11,1,0,10
Y2-S2-230K20,5,454,AS,exp,48,←,right,→,0.4848812000127509,False,11,-1,1,11
Y2-S2-230K20,5,455,AS,exp,25,↑,up,↑,0.3841644999338314,True,12,-1,0,11
Y2-S2-230K20,5,456,AS,exp,26,←,left,←,0.7298191000008956,True,12,-1,0,11
Y2-S2-230K20,5,457,AS,exp,45,↑,up,↑,0.9330997000215575,True,12,1,1,12
Y2-S2-230K20,5,458,AS,exp,25,↓,down,↓,0.5851458000252023,True,11,1,0,12
Y2-S2-230K20,5,459,AS,exp,50,→,right,→,0.43585420004092157,True,11,1,0,12
Y2-S2-230K20,5,460,AS,exp,49,←,left,←,0.45102389995008707,True,11,1,0,12
Y2-S2-230K20,5,461,AS,exp,27,→,right,→,0.6823399000568315,True,10,1,0,12
Y2-S2-230K20,5,462,AS,exp,48,↓,up,↑,0.921325400006026,False,10,-1,1,13
Y2-S2-230K20,5,463,AS,exp,34,→,right,→,0.4602467999793589,True,11,-1,0,13
Y2-S2-230K20,5,464,AS,exp,35,↑,down,↓,0.9013800999382511,False,11,-1,0,13
Y2-S2-230K20,5,465,AS,exp,36,→,right,→,0.49330889992415905,True,12,-1,0,13
Y2-S2-230K20,5,466,AS,exp,48,←,left,←,0.9630074999295175,True,12,-1,0,13
Y2-S2-230K20,5,467,AS,exp,37,→,down,↓,0.9285993999801576,False,12,-1,0,13
Y2-S2-230K20,5,468,AS,exp,25,↓,down,↓,0.763120099902153,True,13,-1,0,13
Y2-S2-230K20,5,469,AS,exp,35,→,right,→,0.5629336999263614,True,13,-1,0,13
Y2-S2-230K20,5,470,AS,exp,42,←,right,→,0.6275650000898167,False,13,-1,0,13
Y2-S2-230K20,5,471,AS,exp,47,→,right,→,0.5010933999437839,True,14,-1,0,13
Y2-S2-230K20,5,472,AS,exp,48,←,left,←,0.558972500031814,True,14,-1,0,13
Y2-S2-230K20,5,473,AS,exp,41,↓,down,↓,0.7763838999671862,True,14,1,1,14
Y2-S2-230K20,5,474,AS,exp,33,↑,up,↑,0.4068699999479577,True,13,1,0,14
Y2-S2-230K20,5,475,AS,exp,30,↓,down,↓,0.8818183999974281,True,13,1,0,14
Y2-S2-230K20,5,476,AS,exp,30,→,right,→,0.40474119991995394,True,13,1,0,14
Y2-S2-230K20,5,477,AS,exp,31,↓,down,↓,0.5534677000250667,True,12,1,0,14
Y2-S2-230K20,5,478,AS,exp,38,↑,down,↓,0.834826200036332,False,12,-1,1,15
Y2-S2-230K20,5,479,AS,exp,45,←,left,←,0.4776096000568941,True,13,-1,0,15
Y2-S2-230K20,5,480,AS,exp,44,↓,down,↓,0.7243179000215605,True,13,-1,0,15
Y2-S2-230K20,5,481,AS,exp,26,←,left,←,0.7223829999566078,True,13,1,1,16
Y2-S2-230K20,6,482,PS,intra_train,27,↓,down,↓,0.6891179999802262,True,19,-,-,-
Y2-S2-230K20,6,483,PS,intra_train,41,←,left,←,1.273644500062801,True,19,-,-,-
Y2-S2-230K20,6,484,PS,intra_train,30,↑,left,←,0.8647870999993756,False,19,-,-,-
Y2-S2-230K20,6,485,PS,intra_train,35,→,right,→,0.9645366000477225,True,19,-,-,-
Y2-S2-230K20,6,486,PS,intra_train,34,←,left,←,0.7576723999809474,True,19,-,-,-
Y2-S2-230K20,6,487,PS,exp,30,↓,left,←,0.7115615999791771,False,13,-1,0,0
Y2-S2-230K20,6,488,PS,exp,33,↑,left,←,0.5761590000474826,False,14,-1,0,0
Y2-S2-230K20,6,489,PS,exp,42,↓,down,↓,0.6772943000542,True,15,-1,0,0
Y2-S2-230K20,6,490,PS,exp,39,→,right,→,1.1410575999179855,True,15,-1,0,0
Y2-S2-230K20,6,491,PS,exp,45,↓,down,↓,0.4529752000235021,True,15,1,1,1
Y2-S2-230K20,6,492,PS,exp,38,→,right,→,0.44830439996439964,True,14,1,0,1
Y2-S2-230K20,6,493,PS,exp,37,↓,down,↓,0.45934659999329597,True,14,1,0,1
Y2-S2-230K20,6,494,PS,exp,40,←,left,←,0.45189420005772263,True,14,1,0,1
Y2-S2-230K20,6,495,PS,exp,33,→,right,→,0.48067509999964386,True,13,1,0,1
Y2-S2-230K20,6,496,PS,exp,33,↓,right,→,1.3140613000141457,False,13,-1,1,2
Y2-S2-230K20,6,497,PS,exp,32,←,left,←,0.4695881000952795,True,14,-1,0,2
Y2-S2-230K20,6,498,PS,exp,25,↓,down,↓,0.43414609995670617,True,14,-1,0,2
Y2-S2-230K20,6,499,PS,exp,42,→,right,→,0.4024816999444738,True,14,1,1,3
Y2-S2-230K20,6,500,PS,exp,29,↑,up,↑,0.4632788000162691,True,13,1,0,3
Y2-S2-230K20,6,501,PS,exp,27,↓,right,→,0.6135526000289246,False,13,-1,1,4
Y2-S2-230K20,6,502,PS,exp,35,←,left,←,0.9127726999577135,True,14,-1,0,4
Y2-S2-230K20,6,503,PS,exp,47,↑,up,↑,0.4026748000178486,True,14,-1,0,4
Y2-S2-230K20,6,504,PS,exp,40,↓,down,↓,0.5270900999894366,True,14,1,1,5
Y2-S2-230K20,6,505,PS,exp,33,→,right,→,0.8677250000182539,True,13,1,0,5
Y2-S2-230K20,6,506,PS,exp,28,↓,down,↓,0.5093059000791982,True,13,1,0,5
Y2-S2-230K20,6,507,PS,exp,43,←,left,←,0.4454206000082195,True,13,1,0,5
Y2-S2-230K20,6,508,PS,exp,27,↑,up,↑,0.4046337000327185,True,12,1,0,5
Y2-S2-230K20,6,509,PS,exp,25,↓,down,↓,0.4795442000031471,True,12,1,0,5
Y2-S2-230K20,6,510,PS,exp,42,→,right,→,0.5838406999828294,True,12,1,0,5
Y2-S2-230K20,6,511,PS,exp,34,←,right,→,0.8069497999968007,False,11,-1,1,6
Y2-S2-230K20,6,512,PS,exp,42,→,right,→,0.43167990003712475,True,12,-1,0,6
Y2-S2-230K20,6,513,PS,exp,36,←,left,←,0.4529569000005722,True,12,-1,0,6
Y2-S2-230K20,6,514,PS,exp,39,↑,up,↑,0.4524704000214115,True,12,1,1,7
Y2-S2-230K20,6,515,PS,exp,34,↓,down,↓,0.5196647000266239,True,11,1,0,7
Y2-S2-230K20,6,516,PS,exp,32,↑,left,←,0.7891046999720857,False,11,-1,1,8
Y2-S2-230K20,6,517,PS,exp,48,→,right,→,0.8450238999212161,True,12,-1,0,8
Y2-S2-230K20,6,518,PS,exp,39,↑,up,↑,0.5042392999166623,True,12,-1,0,8
Y2-S2-230K20,6,519,PS,exp,28,←,left,←,0.4481343000661582,True,12,1,1,9
Y2-S2-230K20,6,520,PS,exp,27,→,right,→,0.5365191999590024,True,11,1,0,9
Y2-S2-230K20,6,521,PS,exp,34,←,left,←,0.5328009000513703,True,11,1,0,9
Y2-S2-230K20,6,522,PS,exp,37,↓,down,↓,0.5537589000305161,True,11,1,0,9
Y2-S2-230K20,6,523,PS,exp,26,→,right,→,0.44334080000407994,True,10,1,0,9
Y2-S2-230K20,6,524,PS,exp,32,↓,down,↓,0.7560532999923453,True,10,1,0,9
Y2-S2-230K20,6,525,PS,exp,31,←,left,←,0.39797070005442947,True,10,1,0,9
Y2-S2-230K20,6,526,PS,exp,47,↓,down,↓,0.43066389998421073,True,9,1,0,9
Y2-S2-230K20,6,527,PS,exp,26,←,left,←,0.4181612000102177,True,9,1,0,9
Y2-S2-230K20,6,528,PS,exp,41,↑,up,↑,0.42607270006556064,True,9,1,0,9
Y2-S2-230K20,6,529,PS,exp,25,→,right,→,0.6078270000871271,True,8,1,0,9
Y2-S2-230K20,6,530,PS,exp,38,←,right,→,0.7201146999141201,False,8,-1,1,10
Y2-S2-230K20,6,531,PS,exp,47,→,right,→,0.42591990006621927,True,9,-1,0,10
Y2-S2-230K20,6,532,PS,exp,47,↑,right,→,0.6333586999680847,False,9,-1,0,10
Y2-S2-230K20,6,533,PS,exp,36,↓,down,↓,0.5319654999766499,True,10,-1,0,10
Y2-S2-230K20,6,534,PS,exp,32,→,right,→,0.35834979999344796,True,10,-1,0,10
Y2-S2-230K20,6,535,PS,exp,26,←,left,←,0.600021000020206,True,10,1,1,11
Y2-S2-230K20,6,536,PS,exp,27,→,right,→,0.5130234999815002,True,9,1,0,11
Y2-S2-230K20,6,537,PS,exp,45,↑,right,→,0.6670442000031471,False,9,-1,1,12
Y2-S2-230K20,6,538,PS,exp,45,→,right,→,0.4587824000045657,True,10,-1,0,12
Y2-S2-230K20,6,539,PS,exp,36,←,left,←,0.42544600006658584,True,10,-1,0,12
Y2-S2-230K20,6,540,PS,exp,47,↑,up,↑,0.49648650002200156,True,10,1,1,13
Y2-S2-230K20,6,541,PS,exp,45,←,down,↓,0.5906809999141842,False,9,-1,1,14
Y2-S2-230K20,6,542,PS,exp,38,↓,down,↓,0.44238459994085133,True,10,-1,0,14
Y2-S2-230K20,6,543,PS,exp,49,→,right,→,0.3783167999936268,True,10,-1,0,14
Y2-S2-230K20,6,544,PS,exp,29,↓,right,→,0.4010904000606388,False,10,-1,0,14
Y2-S2-230K20,6,545,PS,exp,25,→,right,→,0.5481170000275597,True,11,-1,0,14
Y2-S2-230K20,6,546,PS,exp,29,↑,down,↓,1.4186088999267668,False,11,-1,0,14
Y2-S2-230K20,6,547,PS,exp,30,↓,down,↓,0.4981353000039235,True,12,-1,0,14
Y2-S2-230K20,6,548,PS,exp,40,↑,up,↑,0.433871699962765,True,12,-1,0,14
Y2-S2-230K20,6,549,PS,exp,48,←,left,←,0.38799979991745204,True,12,1,1,15
Y2-S2-230K20,6,550,PS,exp,48,→,right,→,0.42989619995933026,True,11,1,0,15
Y2-S2-230K20,6,551,PS,exp,49,↓,down,↓,0.5702012999681756,True,11,1,0,15
Y2-S2-230K20,6,552,PS,exp,38,←,left,←,0.54114959994331,True,11,1,0,15
Y2-S2-230K20,6,553,PS,exp,37,↑,up,↑,0.4007796000223607,True,10,1,0,15
Y2-S2-230K20,6,554,PS,exp,50,→,right,→,0.5587239000014961,True,10,1,0,15
Y2-S2-230K20,6,555,PS,exp,46,↓,down,↓,0.5688250000821427,True,10,1,0,15
Y2-S2-230K20,6,556,PS,exp,35,↑,down,↓,0.9065441000275314,False,9,-1,1,16
Y2-S2-230K20,7,557,PS,intra_train,36,→,right,→,0.5233248999575153,True,19,-,-,-
Y2-S2-230K20,7,558,PS,intra_train,39,↓,right,→,1.0478785000741482,False,19,-,-,-
Y2-S2-230K20,7,559,PS,intra_train,45,←,left,←,1.2093435999704525,True,19,-,-,-
Y2-S2-230K20,7,560,PS,intra_train,45,↑,up,↑,0.4337647999636829,True,19,-,-,-
Y2-S2-230K20,7,561,PS,intra_train,26,↓,down,↓,0.6412346999859437,True,19,-,-,-
Y2-S2-230K20,7,562,PS,exp,26,↑,up,↑,0.43328090000431985,True,13,0,0,0
Y2-S2-230K20,7,563,PS,exp,44,↓,down,↓,0.6464981000171974,True,13,0,0,0
Y2-S2-230K20,7,564,PS,exp,39,↑,up,↑,1.1042604999383911,True,13,1,0,0
Y2-S2-230K20,7,565,PS,exp,47,↓,right,→,0.7008419999619946,False,12,-1,1,1
Y2-S2-230K20,7,566,PS,exp,41,↑,up,↑,0.3983627000125125,True,13,-1,0,1
Y2-S2-230K20,7,567,PS,exp,43,↓,down,↓,0.5332978999940678,True,13,-1,0,1
Y2-S2-230K20,7,568,PS,exp,47,←,left,←,0.676188200013712,True,13,1,1,2
Y2-S2-230K20,7,569,PS,exp,37,↓,down,↓,0.5595608999719843,True,12,1,0,2
Y2-S2-230K20,7,570,PS,exp,49,→,right,→,0.4370837000897154,True,12,1,0,2
Y2-S2-230K20,7,571,PS,exp,40,←,left,←,0.41752339992672205,True,12,1,0,2
Y2-S2-230K20,7,572,PS,exp,48,↓,up,↑,0.744336000061594,False,11,-1,1,3
Y2-S2-230K20,7,573,PS,exp,34,↑,up,↑,0.4126850999891758,True,12,-1,0,3
Y2-S2-230K20,7,574,PS,exp,46,→,right,→,0.39368720003403723,True,12,-1,0,3
Y2-S2-230K20,7,575,PS,exp,46,↑,right,→,0.7382242000894621,False,12,-1,0,3
Y2-S2-230K20,7,576,PS,exp,39,←,left,←,0.4456743999617174,True,13,-1,0,3
Y2-S2-230K20,7,577,PS,exp,44,→,right,→,0.5882250999566168,True,13,-1,0,3
Y2-S2-230K20,7,578,PS,exp,41,↓,down,↓,0.5615756999468431,True,13,1,1,4
Y2-S2-230K20,7,579,PS,exp,33,↑,up,↑,0.4278067999985069,True,12,1,0,4
Y2-S2-230K20,7,580,PS,exp,30,←,left,←,0.4626237000338733,True,12,1,0,4
Y2-S2-230K20,7,581,PS,exp,31,↓,down,↓,0.6010644000489265,True,12,1,0,4
Y2-S2-230K20,7,582,PS,exp,33,→,right,→,0.41075549996457994,True,11,1,0,4
Y2-S2-230K20,7,583,PS,exp,37,↑,up,↑,0.40189120010472834,True,11,1,0,4
Y2-S2-230K20,7,584,PS,exp,33,←,left,←,0.4380997000262141,True,11,1,0,4
Y2-S2-230K20,7,585,PS,exp,29,↓,left,←,0.8533414000412449,False,10,-1,1,5
Y2-S2-230K20,7,586,PS,exp,31,←,left,←,0.5988251999951899,True,11,-1,0,5
Y2-S2-230K20,7,587,PS,exp,49,↓,down,↓,0.5734345000237226,True,11,-1,0,5
Y2-S2-230K20,7,588,PS,exp,28,→,right,→,0.4084846000187099,True,11,1,1,6
Y2-S2-230K20,7,589,PS,exp,44,←,left,←,0.4002553999889642,True,10,1,0,6
Y2-S2-230K20,7,590,PS,exp,26,↓,down,↓,0.7950356000801548,True,10,1,0,6
Y2-S2-230K20,7,591,PS,exp,28,←,left,←,0.4188317999942228,True,10,1,0,6
Y2-S2-230K20,7,592,PS,exp,39,→,right,→,0.38764510001055896,True,9,1,0,6
Y2-S2-230K20,7,593,PS,exp,37,↓,down,↓,0.5291228999849409,True,9,1,0,6
Y2-S2-230K20,7,594,PS,exp,32,→,down,↓,1.003102199989371,False,9,-1,1,7
Y2-S2-230K20,7,595,PS,exp,29,↓,down,↓,0.5249089000280946,True,10,-1,0,7
Y2-S2-230K20,7,596,PS,exp,47,←,left,←,0.6151242000050843,True,10,-1,0,7
Y2-S2-230K20,7,597,PS,exp,35,→,right,→,0.46663039992563426,True,10,1,1,8
Y2-S2-230K20,7,598,PS,exp,25,↑,left,←,1.1976321999682114,False,9,-1,1,9
Y2-S2-230K20,7,599,PS,exp,27,↓,down,↓,0.580432299990207,True,10,-1,0,9
Y2-S2-230K20,7,600,PS,exp,38,↑,up,↑,0.47890149999875575,True,10,-1,0,9
Y2-S2-230K20,7,601,PS,exp,37,←,left,←,1.1490538000361994,True,10,1,1,10
Y2-S2-230K20,7,602,PS,exp,48,→,right,→,0.5139302000170574,True,9,1,0,10
Y2-S2-230K20,7,603,PS,exp,49,↓,down,↓,0.5804913999745622,True,9,1,0,10
Y2-S2-230K20,7,604,PS,exp,33,→,right,→,0.4740583000238985,True,9,1,0,10
Y2-S2-230K20,7,605,PS,exp,46,↓,left,←,1.1947730000829324,False,8,-1,1,11
Y2-S2-230K20,7,606,PS,exp,33,←,right,→,0.6475320999743417,False,9,-1,0,11
Y2-S2-230K20,7,607,PS,exp,30,↑,up,↑,0.5377416000701487,True,10,-1,0,11
Y2-S2-230K20,7,608,PS,exp,36,←,right,→,0.8335773000726476,False,10,-1,0,11
Y2-S2-230K20,7,609,PS,exp,46,↓,left,←,0.7896119001088664,False,11,-1,0,11
Y2-S2-230K20,7,610,PS,exp,30,↑,up,↑,0.5088962999871001,True,12,-1,0,11
Y2-S2-230K20,7,611,PS,exp,36,←,left,←,0.6171401999890804,True,12,-1,0,11
Y2-S2-230K20,7,612,PS,exp,28,→,right,→,0.4236589999636635,True,12,1,1,12
Y2-S2-230K20,7,613,PS,exp,44,↓,right,→,0.8037202000850812,False,11,-1,1,13
Y2-S2-230K20,7,614,PS,exp,46,→,right,→,0.40080150007270277,True,12,-1,0,13
Y2-S2-230K20,7,615,PS,exp,26,↓,down,↓,0.5116463999729604,True,12,-1,0,13
Y2-S2-230K20,7,616,PS,exp,34,↑,up,↑,0.41618110006675124,True,12,1,1,14
Y2-S2-230K20,7,617,PS,exp,44,→,right,→,0.5002753000007942,True,11,1,0,14
Y2-S2-230K20,7,618,PS,exp,27,↑,up,↑,0.5154070999706164,True,11,1,0,14
Y2-S2-230K20,7,619,PS,exp,46,→,right,→,0.42195500002708286,True,11,1,0,14
Y2-S2-230K20,7,620,PS,exp,34,←,left,←,0.5895455999998376,True,10,1,0,14
Y2-S2-230K20,7,621,PS,exp,47,→,right,→,0.42325170000549406,True,10,1,0,14
Y2-S2-230K20,7,622,PS,exp,32,←,left,←,0.9850407000631094,True,10,1,0,14
Y2-S2-230K20,7,623,PS,exp,28,↑,right,→,0.5641972000012174,False,9,-1,1,15
Y2-S2-230K20,7,624,PS,exp,41,→,right,→,0.5292337000137195,True,10,-1,0,15
Y2-S2-230K20,7,625,PS,exp,26,↑,left,←,1.1155256999190897,False,10,-1,0,15
Y2-S2-230K20,7,626,PS,exp,38,↓,down,↓,0.6179846000159159,True,11,-1,0,15
Y2-S2-230K20,7,627,PS,exp,41,←,left,←,0.6647398999193683,True,11,-1,0,15
Y2-S2-230K20,7,628,PS,exp,49,↑,up,↑,0.4641122000757605,True,11,1,1,16
Y2-S2-230K20,8,629,AS,intra_train,25,↓,down,↓,0.8526241999352351,True,25,-,-,-
Y2-S2-230K20,8,630,AS,intra_train,36,←,left,←,0.8518441000487655,True,25,-,-,-
Y2-S2-230K20,8,631,AS,intra_train,42,↓,down,↓,0.8527884000213817,True,25,-,-,-
Y2-S2-230K20,8,632,AS,intra_train,45,→,left,←,1.0398410999914631,False,25,-,-,-
Y2-S2-230K20,8,633,AS,intra_train,29,←,left,←,0.550423700013198,True,25,-,-,-
Y2-S2-230K20,8,634,AS,exp,39,↑,up,↑,1.0650024000788108,True,17,0,0,0
Y2-S2-230K20,8,635,AS,exp,50,↓,down,↓,0.471405400079675,True,17,0,0,0
Y2-S2-230K20,8,636,AS,exp,40,→,right,→,0.7167071000440046,True,17,1,0,0
Y2-S2-230K20,8,637,AS,exp,25,←,left,←,0.4005627000005916,True,16,1,0,0
Y2-S2-230K20,8,638,AS,exp,30,↑,up,↑,0.9039796999422833,True,16,1,0,0
Y2-S2-230K20,8,639,AS,exp,32,←,left,←,0.7304706999566406,True,16,1,0,0
Y2-S2-230K20,8,640,AS,exp,39,↓,down,↓,0.5719229000387713,True,15,1,0,0
Y2-S2-230K20,8,641,AS,exp,32,←,left,←,0.4548790999688208,True,15,1,0,0
Y2-S2-230K20,8,642,AS,exp,31,→,right,→,0.8504530999343842,True,15,1,0,0
Y2-S2-230K20,8,643,AS,exp,27,↓,down,↓,0.535117799998261,True,14,1,0,0
Y2-S2-230K20,8,644,AS,exp,43,→,left,←,0.5751485999207944,False,14,-1,1,1
Y2-S2-230K20,8,645,AS,exp,35,↓,down,↓,0.8275088999653235,True,15,-1,0,1
Y2-S2-230K20,8,646,AS,exp,48,↑,down,↓,0.7664729999378324,False,15,-1,0,1
Y2-S2-230K20,8,647,AS,exp,30,←,left,←,1.0931787999579683,True,16,-1,0,1
Y2-S2-230K20,8,648,AS,exp,27,→,right,→,0.40054940001573414,True,16,-1,0,1
Y2-S2-230K20,8,649,AS,exp,25,↓,down,↓,0.5375042000086978,True,16,1,1,2
Y2-S2-230K20,8,650,AS,exp,40,←,left,←,0.6257035000016913,True,15,1,0,2
Y2-S2-230K20,8,651,AS,exp,26,↑,down,↓,0.7299867999972776,False,15,-1,1,3
Y2-S2-230K20,8,652,AS,exp,44,↓,left,←,0.6165722000878304,False,16,-1,0,3
Y2-S2-230K20,8,653,AS,exp,39,↑,up,↑,0.4505789000540972,True,17,-1,0,3
Y2-S2-230K20,8,654,AS,exp,43,↓,down,↓,0.7178017999976873,True,17,-1,0,3
Y2-S2-230K20,8,655,AS,exp,42,→,right,→,0.4169640999753028,True,17,1,1,4
Y2-S2-230K20,8,656,AS,exp,26,↑,up,↑,0.43947390001267195,True,16,1,0,4
Y2-S2-230K20,8,657,AS,exp,43,→,right,→,0.5256112999049947,True,16,1,0,4
Y2-S2-230K20,8,658,AS,exp,50,↑,up,↑,0.8786187999648973,True,16,1,0,4
Y2-S2-230K20,8,659,AS,exp,33,→,right,→,0.8677044999785721,True,15,1,0,4
Y2-S2-230K20,8,660,AS,exp,47,↑,up,↑,0.6795766999712214,True,15,1,0,4
Y2-S2-230K20,8,661,AS,exp,34,→,right,→,0.8664109000237659,True,15,1,0,4
Y2-S2-230K20,8,662,AS,exp,44,←,left,←,0.4484820000361651,True,14,1,0,4
Y2-S2-230K20,8,663,AS,exp,35,↑,up,↑,0.3503629000624642,True,14,1,0,4
Y2-S2-230K20,8,664,AS,exp,38,↓,down,↓,0.5078484000405297,True,14,1,0,4
Y2-S2-230K20,8,665,AS,exp,26,←,left,←,0.4400281999260187,True,13,1,0,4
Y2-S2-230K20,8,666,AS,exp,31,↓,left,←,0.7627217000117525,False,13,-1,1,5
Y2-S2-230K20,8,667,AS,exp,49,→,right,→,0.5705547999823466,True,14,-1,0,5
Y2-S2-230K20,8,668,AS,exp,43,↑,up,↑,0.6075344999553636,True,14,-1,0,5
Y2-S2-230K20,8,669,AS,exp,48,→,right,→,0.43058889999520034,True,14,1,1,6
Y2-S2-230K20,8,670,AS,exp,34,←,left,←,0.39095749997068197,True,13,1,0,6
Y2-S2-230K20,8,671,AS,exp,33,→,right,→,0.38662629993632436,True,13,1,0,6
Y2-S2-230K20,8,672,AS,exp,37,↓,down,↓,0.6138678001007065,True,13,1,0,6
Y2-S2-230K20,8,673,AS,exp,30,↑,up,↑,0.6196328999940306,True,12,1,0,6
Y2-S2-230K20,8,674,AS,exp,31,←,left,←,0.3893205999629572,True,12,1,0,6
Y2-S2-230K20,8,675,AS,exp,39,↑,up,↑,0.37030690000392497,True,12,1,0,6
Y2-S2-230K20,8,676,AS,exp,48,↓,down,↓,0.5030710999853909,True,11,1,0,6
Y2-S2-230K20,8,677,AS,exp,41,←,left,←,0.811903900001198,True,11,1,0,6
Y2-S2-230K20,8,678,AS,exp,50,↑,up,↑,0.35943970002699643,True,11,1,0,6
Y2-S2-230K20,8,679,AS,exp,43,→,right,→,0.34832580003421754,True,10,1,0,6
Y2-S2-230K20,8,680,AS,exp,49,↑,up,↑,0.6429800000041723,True,10,1,0,6
Y2-S2-230K20,8,681,AS,exp,49,→,right,→,0.6563784000463784,True,10,1,0,6
Y2-S2-230K20,8,682,AS,exp,42,↑,right,→,0.7587585999863222,False,9,-1,1,7
Y2-S2-230K20,8,683,AS,exp,44,→,left,←,0.702649800106883,False,10,-1,0,7
Y2-S2-230K20,8,684,AS,exp,42,←,right,→,0.4940564999124035,False,11,-1,0,7
Y2-S2-230K20,8,685,AS,exp,37,↑,right,→,0.42421420000027865,False,12,-1,0,7
Y2-S2-230K20,8,686,AS,exp,36,→,right,→,0.4596345000900328,True,13,-1,0,7
Y2-S2-230K20,8,687,AS,exp,36,↑,up,↑,0.48452800000086427,True,13,-1,0,7
Y2-S2-230K20,8,688,AS,exp,25,→,left,←,0.7941499999724329,False,13,-1,0,7
Y2-S2-230K20,8,689,AS,exp,40,↓,down,↓,0.5726678000064567,True,14,-1,0,7
Y2-S2-230K20,8,690,AS,exp,35,←,right,→,0.5321762999519706,False,14,-1,0,7
Y2-S2-230K20,8,691,AS,exp,31,→,right,→,1.7225799999432638,True,15,-1,0,7
Y2-S2-230K20,8,692,AS,exp,42,↓,down,↓,0.8426230999175459,True,15,-1,0,7
Y2-S2-230K20,8,693,AS,exp,47,→,right,→,0.45888679998461157,True,15,1,1,8
Y2-S2-230K20,8,694,AS,exp,33,↑,up,↑,0.9583105000201613,True,14,1,0,8
Y2-S2-230K20,8,695,AS,exp,41,←,left,←,0.4579078999813646,True,14,1,0,8
Y2-S2-230K20,8,696,AS,exp,41,↓,up,↑,0.6870266000041738,False,14,-1,1,9
Y2-S2-230K20,8,697,AS,exp,44,←,left,←,0.5390187000157312,True,15,-1,0,9
Y2-S2-230K20,8,698,AS,exp,38,↓,down,↓,0.5729300000239164,True,15,-1,0,9
Y2-S2-230K20,8,699,AS,exp,32,←,left,←,1.0054525000741705,True,15,1,1,10
Y2-S2-230K20,8,700,AS,exp,36,↓,down,↓,0.4943074999609962,True,14,1,0,10
Y2-S2-230K20,8,701,AS,exp,36,←,left,←,1.027398599893786,True,14,1,0,10
Y2-S2-230K20,8,702,AS,exp,49,↓,up,↑,1.235323300003074,False,14,-1,1,11
Y2-S2-230K20,8,703,AS,exp,47,→,right,→,0.4395591999636963,True,15,-1,0,11
Y2-S2-230K20,8,704,AS,exp,26,↓,down,↓,0.5015927000204101,True,15,-1,0,11
Y2-S2-230K20,8,705,AS,exp,28,→,up,↑,0.8532048999331892,False,15,-1,0,11
Y2-S2-230K20,8,706,AS,exp,30,↓,left,←,1.0478991999989375,False,16,-1,0,11
Y2-S2-230K20,8,707,AS,exp,49,→,right,→,0.4565269999438897,True,17,-1,0,11
Y2-S2-230K20,8,708,AS,exp,49,←,left,←,0.4855448000598699,True,17,-1,0,11
Y2-S2-230K20,8,709,AS,exp,25,↑,up,↑,0.9465071000158787,True,17,1,1,12
Y2-S2-230K20,8,710,AS,exp,29,←,left,←,0.6747555999318138,True,16,1,0,12
Y2-S2-230K20,8,711,AS,exp,33,↓,right,→,0.925876900088042,False,16,-1,1,13
Y2-S2-230K20,8,712,AS,exp,42,→,right,→,0.4673278999980539,True,17,-1,0,13
Y2-S2-230K20,8,713,AS,exp,44,←,right,→,0.9839319000020623,False,17,-1,0,13
Y2-S2-230K20,8,714,AS,exp,45,↓,down,↓,0.5395969999954104,True,18,-1,0,13
Y2-S2-230K20,8,715,AS,exp,37,→,right,→,0.4998887999681756,True,18,-1,0,13
Y2-S2-230K20,8,716,AS,exp,42,↑,up,↑,0.4336231000488624,True,18,1,1,14
Y2-S2-230K20,8,717,AS,exp,40,←,left,←,1.5102830999530852,True,17,1,0,14
Y2-S2-230K20,8,718,AS,exp,25,↑,right,→,0.4992235000245273,False,17,-1,1,15
Y2-S2-230K20,8,719,AS,exp,26,→,right,→,0.7582736999029294,True,18,-1,0,15
Y2-S2-230K20,8,720,AS,exp,48,←,left,←,0.40057669999077916,True,18,-1,0,15
Y2-S2-230K20,8,721,AS,exp,28,↓,down,↓,0.5850296999560669,True,18,1,1,16
