PART_ID,Block_no,Trial_no,Block_type,Trial_type,CSI,Stim_letter,Key_pressed,letter_choose,Rt,Corr,Stimulus Time,Level,Reversal,Revs_count
Y2-S2-220M19,1,1,PS,train,39,→,right,→,0.6005454007536173,True,30,-,-,-
Y2-S2-220M19,1,2,PS,train,42,←,left,←,0.5005836002528667,True,30,-,-,-
Y2-S2-220M19,1,3,PS,train,39,↑,up,↑,0.7087134001776576,True,30,-,-,-
Y2-S2-220M19,1,4,PS,train,50,↓,down,↓,0.7265251995995641,True,30,-,-,-
Y2-S2-220M19,1,5,PS,train,42,→,right,→,0.550773199647665,True,30,-,-,-
Y2-S2-220M19,1,6,PS,train,41,↓,down,↓,0.7645498998463154,True,30,-,-,-
Y2-S2-220M19,1,7,PS,train,25,↑,up,↑,0.7951290998607874,True,30,-,-,-
Y2-S2-220M19,1,8,PS,train,50,←,left,←,0.6800284003838897,True,30,-,-,-
Y2-S2-220M19,1,9,PS,train,47,↑,up,↑,0.5170194003731012,True,30,-,-,-
Y2-S2-220M19,1,10,PS,train,33,→,right,→,0.5673779007047415,True,30,-,-,-
Y2-S2-220M19,2,11,AS,train,33,↓,down,↓,0.9474419001489878,True,45,-,-,-
Y2-S2-220M19,2,12,AS,train,27,→,right,→,0.5841207001358271,True,45,-,-,-
Y2-S2-220M19,2,13,AS,train,45,↑,up,↑,0.784070199355483,True,45,-,-,-
Y2-S2-220M19,2,14,AS,train,36,←,left,←,0.5343043003231287,True,45,-,-,-
Y2-S2-220M19,2,15,AS,train,44,↓,down,↓,0.7841651001945138,True,45,-,-,-
Y2-S2-220M19,2,16,AS,train,27,→,right,→,0.634247999638319,True,45,-,-,-
Y2-S2-220M19,2,17,AS,train,31,←,left,←,0.501409599557519,True,45,-,-,-
Y2-S2-220M19,2,18,AS,train,38,↑,up,↑,0.5512426001951098,True,45,-,-,-
Y2-S2-220M19,2,19,AS,train,41,→,right,→,0.650959899649024,True,45,-,-,-
Y2-S2-220M19,2,20,AS,train,33,↓,down,↓,0.6511880997568369,True,45,-,-,-
Y2-S2-220M19,-,21,PS,adaptive,33,↑,up,↑,0.5283336993306875,True,10,0,0,0
Y2-S2-220M19,-,22,PS,adaptive,37,←,left,←,0.5266649005934596,True,10,0,0,0
Y2-S2-220M19,-,23,PS,adaptive,25,↑,up,↑,0.4218552000820637,True,10,1,0,0
Y2-S2-220M19,-,24,PS,adaptive,27,→,right,→,0.8285182006657124,True,9,1,0,0
Y2-S2-220M19,-,25,PS,adaptive,50,↓,down,↓,0.7109951004385948,True,9,1,0,0
Y2-S2-220M19,-,26,PS,adaptive,42,←,left,←,0.5046498998999596,True,9,1,0,0
Y2-S2-220M19,-,27,PS,adaptive,43,↓,down,↓,0.5659792004153132,True,8,1,0,0
Y2-S2-220M19,-,28,PS,adaptive,34,↑,up,↑,0.5131129007786512,True,8,1,0,0
Y2-S2-220M19,-,29,PS,adaptive,42,↓,left,←,0.6565460003912449,False,8,-1,1,1
Y2-S2-220M19,-,30,PS,adaptive,43,←,up,↑,1.0132977003231645,False,9,-1,0,1
Y2-S2-220M19,-,31,PS,adaptive,34,↑,down,↓,0.8003211999312043,False,10,-1,0,1
Y2-S2-220M19,-,32,PS,adaptive,50,↓,down,↓,0.6473077004775405,True,11,-1,0,1
Y2-S2-220M19,-,33,PS,adaptive,33,↑,down,↓,0.9198196996003389,False,11,-1,0,1
Y2-S2-220M19,-,34,PS,adaptive,48,↓,down,↓,0.7123170997947454,True,12,-1,0,1
Y2-S2-220M19,-,35,PS,adaptive,35,←,left,←,0.49034740030765533,True,12,-1,0,1
Y2-S2-220M19,-,36,PS,adaptive,48,↑,up,↑,0.5043553002178669,True,12,1,1,2
Y2-S2-220M19,-,37,PS,adaptive,48,→,right,→,0.5271356999874115,True,11,1,0,2
Y2-S2-220M19,-,38,PS,adaptive,31,↓,down,↓,0.5741640999913216,True,11,1,0,2
Y2-S2-220M19,-,39,PS,adaptive,45,←,right,→,0.5050297994166613,False,11,-1,1,3
Y2-S2-220M19,-,40,PS,adaptive,26,↑,up,↑,0.5815765997394919,True,12,-1,0,3
Y2-S2-220M19,-,41,PS,adaptive,36,↓,down,↓,0.5537353996187449,True,12,-1,0,3
Y2-S2-220M19,-,42,PS,adaptive,47,↑,up,↑,0.4881550995633006,True,12,1,1,4
Y2-S2-220M19,-,43,AS,adaptive,42,←,left,←,0.5962979001924396,True,20,0,0,0
Y2-S2-220M19,-,44,AS,adaptive,43,↓,down,↓,0.6295175002887845,True,20,0,0,0
Y2-S2-220M19,-,45,AS,adaptive,28,←,left,←,0.5538616999983788,True,20,1,0,0
Y2-S2-220M19,-,46,AS,adaptive,36,↓,down,↓,0.6019731005653739,True,19,1,0,0
Y2-S2-220M19,-,47,AS,adaptive,49,←,left,←,0.5817034998908639,True,19,1,0,0
Y2-S2-220M19,-,48,AS,adaptive,36,↑,up,↑,1.073925199918449,True,19,1,0,0
Y2-S2-220M19,-,49,AS,adaptive,43,→,right,→,0.5950777996331453,True,18,1,0,0
Y2-S2-220M19,-,50,AS,adaptive,41,↑,up,↑,0.507425400428474,True,18,1,0,0
Y2-S2-220M19,-,51,AS,adaptive,39,←,left,←,0.5778109999373555,True,18,1,0,0
Y2-S2-220M19,-,52,AS,adaptive,47,→,right,→,0.4750271998345852,True,17,1,0,0
Y2-S2-220M19,-,53,AS,adaptive,27,↑,up,↑,0.7306991992518306,True,17,1,0,0
Y2-S2-220M19,-,54,AS,adaptive,31,↓,down,↓,0.632787199690938,True,17,1,0,0
Y2-S2-220M19,-,55,AS,adaptive,47,↑,up,↑,0.503523699939251,True,16,1,0,0
Y2-S2-220M19,-,56,AS,adaptive,34,→,right,→,0.8358934000134468,True,16,1,0,0
Y2-S2-220M19,-,57,AS,adaptive,28,↓,down,↓,0.8048308994621038,True,16,1,0,0
Y2-S2-220M19,-,58,AS,adaptive,43,↑,up,↑,0.6080555999651551,True,15,1,0,0
Y2-S2-220M19,-,59,AS,adaptive,41,→,right,→,0.8109922995790839,True,15,1,0,0
Y2-S2-220M19,-,60,AS,adaptive,48,↑,up,↑,0.5996424993500113,True,15,1,0,0
Y2-S2-220M19,-,61,AS,adaptive,32,←,left,←,0.5400200998410583,True,14,1,0,0
Y2-S2-220M19,-,62,AS,adaptive,33,↑,up,↑,0.6100655002519488,True,14,1,0,0
Y2-S2-220M19,-,63,AS,adaptive,38,←,up,↑,1.220542000606656,False,14,-1,1,1
Y2-S2-220M19,-,64,AS,adaptive,35,→,right,→,0.5126277999952435,True,15,-1,0,1
Y2-S2-220M19,-,65,AS,adaptive,30,↓,down,↓,0.7379014007747173,True,15,-1,0,1
Y2-S2-220M19,-,66,AS,adaptive,31,↑,up,↑,0.5124966995790601,True,15,1,1,2
Y2-S2-220M19,-,67,AS,adaptive,27,↓,down,↓,0.7389420997351408,True,14,1,0,2
Y2-S2-220M19,-,68,AS,adaptive,38,←,left,←,0.561990600079298,True,14,1,0,2
Y2-S2-220M19,-,69,AS,adaptive,48,↑,up,↑,0.5218345997855067,True,14,1,0,2
Y2-S2-220M19,-,70,AS,adaptive,37,↓,down,↓,0.7391395997256041,True,13,1,0,2
Y2-S2-220M19,-,71,AS,adaptive,29,→,right,→,0.5026489999145269,True,13,1,0,2
Y2-S2-220M19,-,72,AS,adaptive,35,↓,down,↓,0.7100016996264458,True,13,1,0,2
Y2-S2-220M19,-,73,AS,adaptive,25,↑,up,↑,1.0813902001827955,True,12,1,0,2
Y2-S2-220M19,-,74,AS,adaptive,25,→,right,→,0.6817337004467845,True,12,1,0,2
Y2-S2-220M19,-,75,AS,adaptive,26,←,left,←,0.9491301001980901,True,12,1,0,2
Y2-S2-220M19,-,76,AS,adaptive,39,↓,down,↓,0.6705304998904467,True,11,1,0,2
Y2-S2-220M19,-,77,AS,adaptive,39,↑,down,↓,1.1329825995489955,False,11,-1,1,3
Y2-S2-220M19,-,78,AS,adaptive,39,↓,down,↓,0.5633255997672677,True,12,-1,0,3
Y2-S2-220M19,-,79,AS,adaptive,41,↑,up,↑,0.6963253002613783,True,12,-1,0,3
Y2-S2-220M19,-,80,AS,adaptive,50,←,left,←,0.5518201999366283,True,12,1,1,4
Y2-S2-220M19,1,81,PS,intra_train,47,↓,left,←,1.3734523998573422,False,16,-,-,-
Y2-S2-220M19,1,82,PS,intra_train,30,↑,up,↑,0.6322114998474717,True,16,-,-,-
Y2-S2-220M19,1,83,PS,intra_train,50,↓,down,↓,0.6550670005381107,True,16,-,-,-
Y2-S2-220M19,1,84,PS,intra_train,46,→,right,→,0.5613371003419161,True,16,-,-,-
Y2-S2-220M19,1,85,PS,intra_train,36,↑,up,↑,0.5200249999761581,True,16,-,-,-
Y2-S2-220M19,1,86,PS,exp,36,↓,down,↓,0.8407784001901746,True,11,0,0,0
Y2-S2-220M19,1,87,PS,exp,42,↑,up,↑,0.45536090061068535,True,11,0,0,0
Y2-S2-220M19,1,88,PS,exp,27,→,right,→,0.7206296008080244,True,11,1,0,0
Y2-S2-220M19,1,89,PS,exp,29,←,left,←,0.48205169942229986,True,10,1,0,0
Y2-S2-220M19,1,90,PS,exp,44,↓,down,↓,0.803248000331223,True,10,1,0,0
Y2-S2-220M19,1,91,PS,exp,32,↑,up,↑,0.46189120039343834,True,10,1,0,0
Y2-S2-220M19,1,92,PS,exp,38,←,left,←,0.4928083997219801,True,9,1,0,0
Y2-S2-220M19,1,93,PS,exp,49,→,right,→,0.7703929003328085,True,9,1,0,0
Y2-S2-220M19,1,94,PS,exp,36,↓,down,↓,0.6165584996342659,True,9,1,0,0
Y2-S2-220M19,1,95,PS,exp,26,→,right,→,0.4466422004625201,True,8,1,0,0
Y2-S2-220M19,1,96,PS,exp,39,↑,up,↑,0.46962840016931295,True,8,1,0,0
Y2-S2-220M19,1,97,PS,exp,47,↓,down,↓,0.5232203993946314,True,8,1,0,0
Y2-S2-220M19,1,98,PS,exp,39,↑,right,→,0.9206952005624771,False,7,-1,1,1
Y2-S2-220M19,1,99,PS,exp,40,←,left,←,0.5567378997802734,True,8,-1,0,1
Y2-S2-220M19,1,100,PS,exp,44,→,right,→,0.6487878002226353,True,8,-1,0,1
Y2-S2-220M19,1,101,PS,exp,50,↑,right,→,0.5747668007388711,False,8,-1,0,1
Y2-S2-220M19,1,102,PS,exp,36,↓,left,←,0.500411500222981,False,9,-1,0,1
Y2-S2-220M19,1,103,PS,exp,27,→,right,→,0.4989711996167898,True,10,-1,0,1
Y2-S2-220M19,1,104,PS,exp,28,↓,down,↓,0.5805121995508671,True,10,-1,0,1
Y2-S2-220M19,1,105,PS,exp,27,↑,up,↑,0.4782834006473422,True,10,1,1,2
Y2-S2-220M19,1,106,PS,exp,27,↓,down,↓,0.6445856001228094,True,9,1,0,2
Y2-S2-220M19,1,107,PS,exp,35,→,right,→,0.4294421002268791,True,9,1,0,2
Y2-S2-220M19,1,108,PS,exp,32,←,right,→,0.37364699970930815,False,9,-1,1,3
Y2-S2-220M19,1,109,PS,exp,30,↑,up,↑,0.478706699796021,True,10,-1,0,3
Y2-S2-220M19,1,110,PS,exp,31,→,right,→,0.49286430049687624,True,10,-1,0,3
Y2-S2-220M19,1,111,PS,exp,42,↓,down,↓,0.5797982001677155,True,10,1,1,4
Y2-S2-220M19,1,112,PS,exp,47,→,right,→,0.5240433001890779,True,9,1,0,4
Y2-S2-220M19,1,113,PS,exp,43,↓,right,→,0.9665528004989028,False,9,-1,1,5
Y2-S2-220M19,1,114,PS,exp,33,→,right,→,0.5181828998029232,True,10,-1,0,5
Y2-S2-220M19,1,115,PS,exp,28,←,left,←,0.6246893992647529,True,10,-1,0,5
Y2-S2-220M19,1,116,PS,exp,35,→,down,↓,1.5035376995801926,False,10,-1,0,5
Y2-S2-220M19,1,117,PS,exp,44,↓,down,↓,0.603745499625802,True,11,-1,0,5
Y2-S2-220M19,1,118,PS,exp,46,→,right,→,0.41154460050165653,True,11,-1,0,5
Y2-S2-220M19,1,119,PS,exp,36,↓,right,→,0.41657610051333904,False,11,-1,0,5
Y2-S2-220M19,1,120,PS,exp,39,↑,up,↑,0.8351476993411779,True,12,-1,0,5
Y2-S2-220M19,1,121,PS,exp,30,↓,down,↓,0.6278011007234454,True,12,-1,0,5
Y2-S2-220M19,1,122,PS,exp,26,→,left,←,0.7837282996624708,False,12,-1,0,5
Y2-S2-220M19,1,123,PS,exp,32,↓,down,↓,0.5417449995875359,True,13,-1,0,5
Y2-S2-220M19,1,124,PS,exp,41,←,left,←,0.3875827994197607,True,13,-1,0,5
Y2-S2-220M19,1,125,PS,exp,30,↓,down,↓,0.5932419002056122,True,13,1,1,6
Y2-S2-220M19,1,126,PS,exp,50,↑,right,→,0.7353728003799915,False,12,-1,1,7
Y2-S2-220M19,1,127,PS,exp,38,↓,down,↓,0.58418820053339,True,13,-1,0,7
Y2-S2-220M19,1,128,PS,exp,36,→,right,→,0.43231699988245964,True,13,-1,0,7
Y2-S2-220M19,1,129,PS,exp,44,←,left,←,0.5919784000143409,True,13,1,1,8
Y2-S2-220M19,1,130,PS,exp,26,↓,down,↓,0.5418710997328162,True,12,1,0,8
Y2-S2-220M19,1,131,PS,exp,42,↑,up,↑,0.46901389956474304,True,12,1,0,8
Y2-S2-220M19,1,132,PS,exp,26,↓,down,↓,0.449919399805367,True,12,1,0,8
Y2-S2-220M19,1,133,PS,exp,31,←,left,←,0.4751645000651479,True,11,1,0,8
Y2-S2-220M19,1,134,PS,exp,26,↓,down,↓,0.5305762998759747,True,11,1,0,8
Y2-S2-220M19,1,135,PS,exp,25,↑,up,↑,0.47388789989054203,True,11,1,0,8
Y2-S2-220M19,1,136,PS,exp,45,↓,down,↓,0.4873135006055236,True,10,1,0,8
Y2-S2-220M19,1,137,PS,exp,42,↑,up,↑,0.3768555000424385,True,10,1,0,8
Y2-S2-220M19,1,138,PS,exp,47,→,right,→,0.4329672995954752,True,10,1,0,8
Y2-S2-220M19,1,139,PS,exp,39,↑,up,↑,0.4235616000369191,True,9,1,0,8
Y2-S2-220M19,1,140,PS,exp,27,←,left,←,0.4923949996009469,True,9,1,0,8
Y2-S2-220M19,1,141,PS,exp,46,↑,up,↑,0.45133280009031296,True,9,1,0,8
Y2-S2-220M19,1,142,PS,exp,44,←,right,→,0.775411699898541,False,8,-1,1,9
Y2-S2-220M19,1,143,PS,exp,29,↓,down,↓,0.5991665003821254,True,9,-1,0,9
Y2-S2-220M19,1,144,PS,exp,34,→,right,→,0.5769464001059532,True,9,-1,0,9
Y2-S2-220M19,1,145,PS,exp,46,←,left,←,0.3855528999119997,True,9,1,1,10
Y2-S2-220M19,1,146,PS,exp,32,↓,up,↑,0.7396401995792985,False,8,-1,1,11
Y2-S2-220M19,1,147,PS,exp,26,←,left,←,0.4856568994000554,True,9,-1,0,11
Y2-S2-220M19,1,148,PS,exp,28,→,right,→,0.4291790993884206,True,9,-1,0,11
Y2-S2-220M19,1,149,PS,exp,36,↑,up,↑,0.4881729995831847,True,9,1,1,12
Y2-S2-220M19,1,150,PS,exp,40,←,left,←,0.5418106997385621,True,8,1,0,12
Y2-S2-220M19,1,151,PS,exp,38,↓,down,↓,0.5355046996846795,True,8,1,0,12
Y2-S2-220M19,1,152,PS,exp,29,→,right,→,0.4651114996522665,True,8,1,0,12
Y2-S2-220M19,1,153,PS,exp,32,↑,up,↑,0.4528695000335574,True,7,1,0,12
Y2-S2-220M19,1,154,PS,exp,29,↓,left,←,0.43360699992626905,False,7,-1,1,13
Y2-S2-220M19,1,155,PS,exp,48,→,right,→,0.4112617000937462,True,8,-1,0,13
Y2-S2-220M19,1,156,PS,exp,46,↓,left,←,1.0480040004476905,False,8,-1,0,13
Y2-S2-220M19,1,157,PS,exp,48,↑,up,↑,0.4622095003724098,True,9,-1,0,13
Y2-S2-220M19,1,158,PS,exp,30,→,right,→,0.44313530065119267,True,9,-1,0,13
Y2-S2-220M19,1,159,PS,exp,26,↓,left,←,0.7330546993762255,False,9,-1,0,13
Y2-S2-220M19,1,160,PS,exp,47,→,right,→,1.2570750005543232,True,10,-1,0,13
Y2-S2-220M19,1,161,PS,exp,39,↑,no_key,no_letter,-1.0,False,10,-1,0,13
Y2-S2-220M19,1,162,PS,exp,39,↓,down,↓,0.5462959995493293,True,11,-1,0,13
Y2-S2-220M19,1,163,PS,exp,49,→,right,→,0.41105080023407936,True,11,-1,0,13
Y2-S2-220M19,1,164,PS,exp,35,←,left,←,0.4096728004515171,True,11,1,1,14
Y2-S2-220M19,1,165,PS,exp,31,↑,up,↑,0.44295599963515997,True,10,1,0,14
Y2-S2-220M19,1,166,PS,exp,42,→,right,→,0.3748322995379567,True,10,1,0,14
Y2-S2-220M19,1,167,PS,exp,39,↑,up,↑,0.47824140079319477,True,10,1,0,14
Y2-S2-220M19,1,168,PS,exp,37,→,right,→,0.4300806997343898,True,9,1,0,14
Y2-S2-220M19,1,169,PS,exp,38,↓,down,↓,1.7208859007805586,True,9,1,0,14
Y2-S2-220M19,1,170,PS,exp,37,↑,up,↑,0.4673467995598912,True,9,1,0,14
Y2-S2-220M19,1,171,PS,exp,28,→,right,→,0.4540418004617095,True,8,1,0,14
Y2-S2-220M19,1,172,PS,exp,27,←,left,←,0.4428385002538562,True,8,1,0,14
Y2-S2-220M19,1,173,PS,exp,42,↓,left,←,0.7620482994243503,False,8,-1,1,15
Y2-S2-220M19,1,174,PS,exp,46,→,right,→,0.38011640030890703,True,9,-1,0,15
Y2-S2-220M19,1,175,PS,exp,41,↓,down,↓,0.6877626003697515,True,9,-1,0,15
Y2-S2-220M19,1,176,PS,exp,31,←,left,←,0.5420556999742985,True,9,1,1,16
Y2-S2-220M19,2,177,AS,intra_train,34,↓,down,↓,0.6223836997523904,True,16,-,-,-
Y2-S2-220M19,2,178,AS,intra_train,38,→,right,→,0.528222999535501,True,16,-,-,-
Y2-S2-220M19,2,179,AS,intra_train,36,↓,down,↓,0.6347773997113109,True,16,-,-,-
Y2-S2-220M19,2,180,AS,intra_train,39,→,right,→,0.4008139008656144,True,16,-,-,-
Y2-S2-220M19,2,181,AS,intra_train,35,↓,right,→,1.120366900227964,False,16,-,-,-
Y2-S2-220M19,2,182,AS,exp,37,←,no_key,no_letter,-1.0,False,11,-1,0,0
Y2-S2-220M19,2,183,AS,exp,40,→,right,→,0.5752102006226778,True,12,-1,0,0
Y2-S2-220M19,2,184,AS,exp,42,↓,down,↓,0.5794933997094631,True,12,-1,0,0
Y2-S2-220M19,2,185,AS,exp,49,→,up,↑,1.0150870997458696,False,12,-1,0,0
Y2-S2-220M19,2,186,AS,exp,29,↓,down,↓,0.54697319958359,True,13,-1,0,0
Y2-S2-220M19,2,187,AS,exp,37,←,right,→,1.1010469002649188,False,13,-1,0,0
Y2-S2-220M19,2,188,AS,exp,47,↑,up,↑,1.365870900452137,True,14,-1,0,0
Y2-S2-220M19,2,189,AS,exp,49,→,right,→,0.6218585995957255,True,14,-1,0,0
Y2-S2-220M19,2,190,AS,exp,42,←,left,←,0.557939600199461,True,14,1,1,1
Y2-S2-220M19,2,191,AS,exp,47,↑,up,↑,0.5143028004094958,True,13,1,0,1
Y2-S2-220M19,2,192,AS,exp,33,→,right,→,0.4522950993850827,True,13,1,0,1
Y2-S2-220M19,2,193,AS,exp,45,←,left,←,0.5513137998059392,True,13,1,0,1
Y2-S2-220M19,2,194,AS,exp,38,↑,up,↑,0.4346202006563544,True,12,1,0,1
Y2-S2-220M19,2,195,AS,exp,44,→,right,→,0.4948100997135043,True,12,1,0,1
Y2-S2-220M19,2,196,AS,exp,49,↑,up,↑,0.5215638997033238,True,12,1,0,1
Y2-S2-220M19,2,197,AS,exp,50,→,right,→,0.4684618003666401,True,11,1,0,1
Y2-S2-220M19,2,198,AS,exp,38,←,right,→,0.5991194993257523,False,11,-1,1,2
Y2-S2-220M19,2,199,AS,exp,28,↑,right,→,0.5902880998328328,False,12,-1,0,2
Y2-S2-220M19,2,200,AS,exp,26,→,right,→,0.5610450999811292,True,13,-1,0,2
Y2-S2-220M19,2,201,AS,exp,44,←,left,←,0.5960434004664421,True,13,-1,0,2
Y2-S2-220M19,2,202,AS,exp,47,↓,down,↓,0.8500930992886424,True,13,1,1,3
Y2-S2-220M19,2,203,AS,exp,44,←,right,→,0.47019040025770664,False,12,-1,1,4
Y2-S2-220M19,2,204,AS,exp,39,↑,up,↑,0.44619520008563995,True,13,-1,0,4
Y2-S2-220M19,2,205,AS,exp,40,↓,no_key,no_letter,-1.0,False,13,-1,0,4
Y2-S2-220M19,2,206,AS,exp,42,↑,up,↑,0.44959439989179373,True,14,-1,0,4
Y2-S2-220M19,2,207,AS,exp,39,←,left,←,0.5979375001043081,True,14,-1,0,4
Y2-S2-220M19,2,208,AS,exp,39,↑,up,↑,0.668571699410677,True,14,1,1,5
Y2-S2-220M19,2,209,AS,exp,26,→,right,→,0.454394499771297,True,13,1,0,5
Y2-S2-220M19,2,210,AS,exp,36,↓,down,↓,0.679645299911499,True,13,1,0,5
Y2-S2-220M19,2,211,AS,exp,38,→,right,→,0.4282379997894168,True,13,1,0,5
Y2-S2-220M19,2,212,AS,exp,27,←,left,←,0.541224000044167,True,12,1,0,5
Y2-S2-220M19,2,213,AS,exp,34,↑,up,↑,0.7207567002624273,True,12,1,0,5
Y2-S2-220M19,2,214,AS,exp,42,↓,down,↓,0.48438100051134825,True,12,1,0,5
Y2-S2-220M19,2,215,AS,exp,47,↑,up,↑,0.4084256999194622,True,11,1,0,5
Y2-S2-220M19,2,216,AS,exp,41,↓,down,↓,0.5496105002239347,True,11,1,0,5
Y2-S2-220M19,2,217,AS,exp,33,←,left,←,0.48509510047733784,True,11,1,0,5
Y2-S2-220M19,2,218,AS,exp,41,↑,up,↑,0.6230065999552608,True,10,1,0,5
Y2-S2-220M19,2,219,AS,exp,27,↓,down,↓,1.1342719001695514,True,10,1,0,5
Y2-S2-220M19,2,220,AS,exp,41,↑,up,↑,0.5456974999979138,True,10,1,0,5
Y2-S2-220M19,2,221,AS,exp,35,↓,left,←,1.380591000430286,False,9,-1,1,6
Y2-S2-220M19,2,222,AS,exp,29,→,right,→,0.6974040996283293,True,10,-1,0,6
Y2-S2-220M19,2,223,AS,exp,26,↓,down,↓,0.6300426004454494,True,10,-1,0,6
Y2-S2-220M19,2,224,AS,exp,50,←,right,→,1.3390295002609491,False,10,-1,0,6
Y2-S2-220M19,2,225,AS,exp,32,↑,up,↑,0.7680382998660207,True,11,-1,0,6
Y2-S2-220M19,2,226,AS,exp,42,↓,down,↓,0.731653300113976,True,11,-1,0,6
Y2-S2-220M19,2,227,AS,exp,31,↑,left,←,1.0265104994177818,False,11,-1,0,6
Y2-S2-220M19,2,228,AS,exp,25,↓,down,↓,0.44417629949748516,True,12,-1,0,6
Y2-S2-220M19,2,229,AS,exp,42,↑,up,↑,0.4212505994364619,True,12,-1,0,6
Y2-S2-220M19,2,230,AS,exp,39,←,left,←,0.40413259994238615,True,12,1,1,7
Y2-S2-220M19,2,231,AS,exp,32,→,right,→,0.47136539965867996,True,11,1,0,7
Y2-S2-220M19,2,232,AS,exp,25,←,left,←,0.6410078005865216,True,11,1,0,7
Y2-S2-220M19,2,233,AS,exp,29,↓,down,↓,0.524227499961853,True,11,1,0,7
Y2-S2-220M19,2,234,AS,exp,46,↑,up,↑,0.6043558996170759,True,10,1,0,7
Y2-S2-220M19,2,235,AS,exp,40,←,right,→,1.2501497995108366,False,10,-1,1,8
Y2-S2-220M19,2,236,AS,exp,40,↑,no_key,no_letter,-1.0,False,11,-1,0,8
Y2-S2-220M19,2,237,AS,exp,29,→,right,→,0.7109568994492292,True,12,-1,0,8
Y2-S2-220M19,2,238,AS,exp,37,←,left,←,0.4445441998541355,True,12,-1,0,8
Y2-S2-220M19,2,239,AS,exp,48,↑,up,↑,0.5987966004759073,True,12,1,1,9
Y2-S2-220M19,2,240,AS,exp,33,↓,down,↓,0.5812958003953099,True,11,1,0,9
Y2-S2-220M19,2,241,AS,exp,39,→,right,→,0.3907065000385046,True,11,1,0,9
Y2-S2-220M19,2,242,AS,exp,35,←,right,→,0.4155295006930828,False,11,-1,1,10
Y2-S2-220M19,2,243,AS,exp,40,↑,up,↑,0.8264319002628326,True,12,-1,0,10
Y2-S2-220M19,2,244,AS,exp,38,↓,down,↓,0.5764684993773699,True,12,-1,0,10
Y2-S2-220M19,2,245,AS,exp,33,→,right,→,0.47125899977982044,True,12,1,1,11
Y2-S2-220M19,2,246,AS,exp,48,↓,down,↓,0.570559199899435,True,11,1,0,11
Y2-S2-220M19,2,247,AS,exp,31,→,right,→,0.8111046003177762,True,11,1,0,11
Y2-S2-220M19,2,248,AS,exp,26,←,left,←,0.4387897001579404,True,11,1,0,11
Y2-S2-220M19,2,249,AS,exp,40,↑,up,↑,0.8535759001970291,True,10,1,0,11
Y2-S2-220M19,2,250,AS,exp,41,→,right,→,0.6911709001287818,True,10,1,0,11
Y2-S2-220M19,2,251,AS,exp,32,↑,up,↑,0.46369590051472187,True,10,1,0,11
Y2-S2-220M19,2,252,AS,exp,42,→,right,→,1.5651533994823694,True,9,1,0,11
Y2-S2-220M19,2,253,AS,exp,33,←,left,←,0.5813330998644233,True,9,1,0,11
Y2-S2-220M19,2,254,AS,exp,50,→,right,→,0.48932360019534826,True,9,1,0,11
Y2-S2-220M19,2,255,AS,exp,44,↓,down,↓,0.6411427995190024,True,8,1,0,11
Y2-S2-220M19,2,256,AS,exp,26,←,left,←,0.9889416005462408,True,8,1,0,11
Y2-S2-220M19,2,257,AS,exp,35,→,right,→,0.4013253999873996,True,8,1,0,11
Y2-S2-220M19,2,258,AS,exp,50,↑,up,↑,0.49879010021686554,True,7,1,0,11
Y2-S2-220M19,2,259,AS,exp,44,↓,no_key,no_letter,-1.0,False,7,-1,1,12
Y2-S2-220M19,2,260,AS,exp,35,←,up,↑,0.5675312001258135,False,8,-1,0,12
Y2-S2-220M19,2,261,AS,exp,31,↓,down,↓,0.5855573993176222,True,9,-1,0,12
Y2-S2-220M19,2,262,AS,exp,42,←,left,←,0.4574718000367284,True,9,-1,0,12
Y2-S2-220M19,2,263,AS,exp,37,↑,right,→,0.8116733003407717,False,9,-1,0,12
Y2-S2-220M19,2,264,AS,exp,42,←,right,→,0.7484574001282454,False,10,-1,0,12
Y2-S2-220M19,2,265,AS,exp,35,↓,down,↓,0.6323598995804787,True,11,-1,0,12
Y2-S2-220M19,2,266,AS,exp,33,→,right,→,0.654140000231564,True,11,-1,0,12
Y2-S2-220M19,2,267,AS,exp,50,←,left,←,1.04753200057894,True,11,1,1,13
Y2-S2-220M19,2,268,AS,exp,25,↓,left,←,1.6504098000004888,False,10,-1,1,14
Y2-S2-220M19,2,269,AS,exp,32,←,right,→,1.0597836999222636,False,11,-1,0,14
Y2-S2-220M19,2,270,AS,exp,29,→,up,↑,0.975568100810051,False,12,-1,0,14
Y2-S2-220M19,2,271,AS,exp,38,←,right,→,0.6984561998397112,False,13,-1,0,14
Y2-S2-220M19,2,272,AS,exp,46,↓,down,↓,0.7445836998522282,True,14,-1,0,14
Y2-S2-220M19,2,273,AS,exp,41,←,left,←,0.5204512001946568,True,14,-1,0,14
Y2-S2-220M19,2,274,AS,exp,43,↓,down,↓,0.6074635004624724,True,14,1,1,15
Y2-S2-220M19,2,275,AS,exp,45,↑,up,↑,0.4959086002781987,True,13,1,0,15
Y2-S2-220M19,2,276,AS,exp,40,↓,left,←,1.1157069001346827,False,13,-1,1,16
Y2-S2-220M19,3,277,AS,intra_train,29,→,right,→,0.5096149994060397,True,16,-,-,-
Y2-S2-220M19,3,278,AS,intra_train,27,↓,down,↓,0.5622646007686853,True,16,-,-,-
Y2-S2-220M19,3,279,AS,intra_train,43,↑,up,↑,0.8281935006380081,True,16,-,-,-
Y2-S2-220M19,3,280,AS,intra_train,36,↓,down,↓,0.7070985995233059,True,16,-,-,-
Y2-S2-220M19,3,281,AS,intra_train,46,↑,right,→,0.7271556006744504,False,16,-,-,-
Y2-S2-220M19,3,282,AS,exp,42,↓,down,↓,0.5583659000694752,True,11,0,0,0
Y2-S2-220M19,3,283,AS,exp,43,←,right,→,0.6383980000391603,False,11,-1,0,0
Y2-S2-220M19,3,284,AS,exp,43,↑,up,↑,0.5605779001489282,True,12,-1,0,0
Y2-S2-220M19,3,285,AS,exp,36,→,right,→,0.4319193996489048,True,12,-1,0,0
Y2-S2-220M19,3,286,AS,exp,27,↓,down,↓,0.5474027004092932,True,12,1,1,1
Y2-S2-220M19,3,287,AS,exp,25,←,right,→,0.8916246006265283,False,11,-1,1,2
Y2-S2-220M19,3,288,AS,exp,49,↓,down,↓,0.6897958004847169,True,12,-1,0,2
Y2-S2-220M19,3,289,AS,exp,40,←,right,→,0.7282416000962257,False,12,-1,0,2
Y2-S2-220M19,3,290,AS,exp,46,→,right,→,0.4288848992437124,True,13,-1,0,2
Y2-S2-220M19,3,291,AS,exp,29,←,left,←,0.5938058998435736,True,13,-1,0,2
Y2-S2-220M19,3,292,AS,exp,30,→,right,→,0.46989670023322105,True,13,1,1,3
Y2-S2-220M19,3,293,AS,exp,43,↑,down,↓,0.652034199796617,False,12,-1,1,4
Y2-S2-220M19,3,294,AS,exp,48,↓,down,↓,1.130209599621594,True,13,-1,0,4
Y2-S2-220M19,3,295,AS,exp,45,→,right,→,0.44961730018258095,True,13,-1,0,4
Y2-S2-220M19,3,296,AS,exp,30,↓,up,↑,1.1269608000293374,False,13,-1,0,4
Y2-S2-220M19,3,297,AS,exp,42,→,right,→,0.46303969994187355,True,14,-1,0,4
Y2-S2-220M19,3,298,AS,exp,41,←,left,←,0.5838644001632929,True,14,-1,0,4
Y2-S2-220M19,3,299,AS,exp,44,→,right,→,0.49774379935115576,True,14,1,1,5
Y2-S2-220M19,3,300,AS,exp,37,←,right,→,0.7450463995337486,False,13,-1,1,6
Y2-S2-220M19,3,301,AS,exp,32,→,right,→,0.5213986001908779,True,14,-1,0,6
Y2-S2-220M19,3,302,AS,exp,29,↑,up,↑,0.5322238001972437,True,14,-1,0,6
Y2-S2-220M19,3,303,AS,exp,48,→,right,→,0.44450669921934605,True,14,1,1,7
Y2-S2-220M19,3,304,AS,exp,37,↑,up,↑,0.5503432005643845,True,13,1,0,7
Y2-S2-220M19,3,305,AS,exp,48,←,left,←,0.6091419002041221,True,13,1,0,7
Y2-S2-220M19,3,306,AS,exp,44,↓,up,↑,0.927802199497819,False,13,-1,1,8
Y2-S2-220M19,3,307,AS,exp,48,↑,up,↑,0.6431510001420975,True,14,-1,0,8
Y2-S2-220M19,3,308,AS,exp,40,→,right,→,0.45412700064480305,True,14,-1,0,8
Y2-S2-220M19,3,309,AS,exp,50,↑,right,→,0.4399421997368336,False,14,-1,0,8
Y2-S2-220M19,3,310,AS,exp,49,←,left,←,0.48572729993611574,True,15,-1,0,8
Y2-S2-220M19,3,311,AS,exp,47,↓,down,↓,0.7102013994008303,True,15,-1,0,8
Y2-S2-220M19,3,312,AS,exp,49,←,left,←,0.6801384007558227,True,15,1,1,9
Y2-S2-220M19,3,313,AS,exp,29,↓,down,↓,0.7661304995417595,True,14,1,0,9
Y2-S2-220M19,3,314,AS,exp,47,←,left,←,0.5029489006847143,True,14,1,0,9
Y2-S2-220M19,3,315,AS,exp,27,→,right,→,0.5415358003228903,True,14,1,0,9
Y2-S2-220M19,3,316,AS,exp,50,↑,up,↑,0.51481750048697,True,13,1,0,9
Y2-S2-220M19,3,317,AS,exp,27,←,left,←,0.4831878002732992,True,13,1,0,9
Y2-S2-220M19,3,318,AS,exp,28,→,right,→,0.46751190070062876,True,13,1,0,9
Y2-S2-220M19,3,319,AS,exp,27,←,right,→,0.6610617004334927,False,12,-1,1,10
Y2-S2-220M19,3,320,AS,exp,31,↑,left,←,1.0947618996724486,False,13,-1,0,10
Y2-S2-220M19,3,321,AS,exp,25,↓,down,↓,0.8076180005446076,True,14,-1,0,10
Y2-S2-220M19,3,322,AS,exp,40,←,left,←,0.5850829994305968,True,14,-1,0,10
Y2-S2-220M19,3,323,AS,exp,40,↓,right,→,1.4373113997280598,False,14,-1,0,10
Y2-S2-220M19,3,324,AS,exp,46,→,right,→,0.5131649002432823,True,15,-1,0,10
Y2-S2-220M19,3,325,AS,exp,42,↑,right,→,0.6609318004921079,False,15,-1,0,10
Y2-S2-220M19,3,326,AS,exp,31,→,right,→,0.5049184001982212,True,16,-1,0,10
Y2-S2-220M19,3,327,AS,exp,50,↓,down,↓,0.6096094995737076,True,16,-1,0,10
Y2-S2-220M19,3,328,AS,exp,30,→,right,→,0.5267040999606252,True,16,1,1,11
Y2-S2-220M19,3,329,AS,exp,40,←,left,←,0.5328985005617142,True,15,1,0,11
Y2-S2-220M19,3,330,AS,exp,32,↓,down,↓,0.7881188001483679,True,15,1,0,11
Y2-S2-220M19,3,331,AS,exp,34,→,right,→,0.4449372002854943,True,15,1,0,11
Y2-S2-220M19,3,332,AS,exp,26,↑,up,↑,0.6403298005461693,True,14,1,0,11
Y2-S2-220M19,3,333,AS,exp,41,↓,down,↓,0.5539366994053125,True,14,1,0,11
Y2-S2-220M19,3,334,AS,exp,32,↑,up,↑,0.5805557994171977,True,14,1,0,11
Y2-S2-220M19,3,335,AS,exp,26,↓,down,↓,0.5422418005764484,True,13,1,0,11
Y2-S2-220M19,3,336,AS,exp,47,↑,up,↑,0.543537899851799,True,13,1,0,11
Y2-S2-220M19,3,337,AS,exp,48,→,right,→,0.4638764001429081,True,13,1,0,11
Y2-S2-220M19,3,338,AS,exp,37,↑,up,↑,0.5124634001404047,True,12,1,0,11
Y2-S2-220M19,3,339,AS,exp,25,↓,down,↓,0.5088513996452093,True,12,1,0,11
Y2-S2-220M19,3,340,AS,exp,34,←,left,←,0.5374878002330661,True,12,1,0,11
Y2-S2-220M19,3,341,AS,exp,46,↓,up,↑,0.5966995991766453,False,11,-1,1,12
Y2-S2-220M19,3,342,AS,exp,46,←,left,←,0.5524509996175766,True,12,-1,0,12
Y2-S2-220M19,3,343,AS,exp,38,→,right,→,1.290331800468266,True,12,-1,0,12
Y2-S2-220M19,3,344,AS,exp,36,←,left,←,0.4255358995869756,True,12,1,1,13
Y2-S2-220M19,3,345,AS,exp,33,→,right,→,0.4288095999509096,True,11,1,0,13
Y2-S2-220M19,3,346,AS,exp,39,←,left,←,0.6698794001713395,True,11,1,0,13
Y2-S2-220M19,3,347,AS,exp,31,↑,up,↑,0.46416259929537773,True,11,1,0,13
Y2-S2-220M19,3,348,AS,exp,39,→,right,→,0.5543165998533368,True,10,1,0,13
Y2-S2-220M19,3,349,AS,exp,47,↑,up,↑,0.5505794994533062,True,10,1,0,13
Y2-S2-220M19,3,350,AS,exp,37,↓,down,↓,0.5474167000502348,True,10,1,0,13
Y2-S2-220M19,3,351,AS,exp,34,←,right,→,0.4435489000752568,False,9,-1,1,14
Y2-S2-220M19,3,352,AS,exp,40,→,left,←,1.0394607996568084,False,10,-1,0,14
Y2-S2-220M19,3,353,AS,exp,42,↓,up,↑,0.6831371001899242,False,11,-1,0,14
Y2-S2-220M19,3,354,AS,exp,45,←,left,←,0.5805139001458883,True,12,-1,0,14
Y2-S2-220M19,3,355,AS,exp,46,↑,up,↑,0.396726799197495,True,12,-1,0,14
Y2-S2-220M19,3,356,AS,exp,45,↓,down,↓,0.5918382005766034,True,12,1,1,15
Y2-S2-220M19,3,357,AS,exp,46,→,right,→,0.3618104001507163,True,11,1,0,15
Y2-S2-220M19,3,358,AS,exp,34,←,left,←,0.5073378002271056,True,11,1,0,15
Y2-S2-220M19,3,359,AS,exp,45,↑,right,→,0.48705520015209913,False,11,-1,1,16
Y2-S2-220M19,4,360,PS,intra_train,35,←,left,←,0.619993400759995,True,16,-,-,-
Y2-S2-220M19,4,361,PS,intra_train,26,↑,up,↑,0.46277210023254156,True,16,-,-,-
Y2-S2-220M19,4,362,PS,intra_train,26,→,right,→,0.9571968000382185,True,16,-,-,-
Y2-S2-220M19,4,363,PS,intra_train,49,←,left,←,0.5712818996980786,True,16,-,-,-
Y2-S2-220M19,4,364,PS,intra_train,30,→,right,→,0.5135057996958494,True,16,-,-,-
Y2-S2-220M19,4,365,PS,exp,45,←,left,←,0.3746755998581648,True,11,0,0,0
Y2-S2-220M19,4,366,PS,exp,30,↓,up,↑,0.7995105003938079,False,11,-1,0,0
Y2-S2-220M19,4,367,PS,exp,37,←,left,←,0.4364551994949579,True,12,-1,0,0
Y2-S2-220M19,4,368,PS,exp,47,→,right,→,0.40135939978063107,True,12,-1,0,0
Y2-S2-220M19,4,369,PS,exp,31,↑,up,↑,0.5783955994993448,True,12,1,1,1
Y2-S2-220M19,4,370,PS,exp,27,→,right,→,0.42803969979286194,True,11,1,0,1
Y2-S2-220M19,4,371,PS,exp,50,↑,up,↑,0.4542086999863386,True,11,1,0,1
Y2-S2-220M19,4,372,PS,exp,36,→,right,→,0.48314439970999956,True,11,1,0,1
Y2-S2-220M19,4,373,PS,exp,33,←,right,→,0.4942652005702257,False,10,-1,1,2
Y2-S2-220M19,4,374,PS,exp,34,↓,down,↓,0.6402311995625496,True,11,-1,0,2
Y2-S2-220M19,4,375,PS,exp,38,←,left,←,0.3764514001086354,True,11,-1,0,2
Y2-S2-220M19,4,376,PS,exp,44,↓,down,↓,0.46543450001627207,True,11,1,1,3
Y2-S2-220M19,4,377,PS,exp,27,↑,left,←,0.4233168000355363,False,10,-1,1,4
Y2-S2-220M19,4,378,PS,exp,42,→,right,→,0.506029499694705,True,11,-1,0,4
Y2-S2-220M19,4,379,PS,exp,26,←,left,←,0.454666499979794,True,11,-1,0,4
Y2-S2-220M19,4,380,PS,exp,43,↑,up,↑,0.4284581998363137,True,11,1,1,5
Y2-S2-220M19,4,381,PS,exp,41,←,left,←,0.43507880065590143,True,10,1,0,5
Y2-S2-220M19,4,382,PS,exp,34,↑,up,↑,0.34649140015244484,True,10,1,0,5
Y2-S2-220M19,4,383,PS,exp,40,←,left,←,0.42152610048651695,True,10,1,0,5
Y2-S2-220M19,4,384,PS,exp,49,↓,down,↓,0.6004737000912428,True,9,1,0,5
Y2-S2-220M19,4,385,PS,exp,42,↑,up,↑,0.342871299944818,True,9,1,0,5
Y2-S2-220M19,4,386,PS,exp,45,←,left,←,0.3619137005880475,True,9,1,0,5
Y2-S2-220M19,4,387,PS,exp,46,↑,up,↑,0.4582262998446822,True,8,1,0,5
Y2-S2-220M19,4,388,PS,exp,48,↓,down,↓,1.6543996008113027,True,8,1,0,5
Y2-S2-220M19,4,389,PS,exp,50,←,left,←,0.41063049994409084,True,8,1,0,5
Y2-S2-220M19,4,390,PS,exp,33,→,right,→,0.6665904000401497,True,7,1,0,5
Y2-S2-220M19,4,391,PS,exp,40,↑,up,↑,0.5113351000472903,True,7,1,0,5
Y2-S2-220M19,4,392,PS,exp,41,↓,down,↓,0.672698000445962,True,7,1,0,5
Y2-S2-220M19,4,393,PS,exp,31,→,right,→,0.4919869005680084,True,6,1,0,5
Y2-S2-220M19,4,394,PS,exp,42,←,left,←,0.3797136005014181,True,6,1,0,5
Y2-S2-220M19,4,395,PS,exp,32,↑,up,↑,1.1301575005054474,True,6,1,0,5
Y2-S2-220M19,4,396,PS,exp,46,←,right,→,0.5700254999101162,False,5,-1,1,6
Y2-S2-220M19,4,397,PS,exp,38,↑,left,←,0.8166495002806187,False,6,-1,0,6
Y2-S2-220M19,4,398,PS,exp,25,→,left,←,1.0027034999802709,False,7,-1,0,6
Y2-S2-220M19,4,399,PS,exp,38,↓,right,→,0.5567677998915315,False,8,-1,0,6
Y2-S2-220M19,4,400,PS,exp,25,↑,up,↑,1.020150899887085,True,9,-1,0,6
Y2-S2-220M19,4,401,PS,exp,35,←,right,→,0.8754997001960874,False,9,-1,0,6
Y2-S2-220M19,4,402,PS,exp,44,↓,down,↓,0.960401700809598,True,10,-1,0,6
Y2-S2-220M19,4,403,PS,exp,27,←,left,←,0.45940509997308254,True,10,-1,0,6
Y2-S2-220M19,4,404,PS,exp,39,↓,down,↓,0.6069155000150204,True,10,1,1,7
Y2-S2-220M19,4,405,PS,exp,28,→,right,→,0.3887019995599985,True,9,1,0,7
Y2-S2-220M19,4,406,PS,exp,48,←,left,←,0.36543430015444756,True,9,1,0,7
Y2-S2-220M19,4,407,PS,exp,33,↓,down,↓,0.6172736994922161,True,9,1,0,7
Y2-S2-220M19,4,408,PS,exp,25,←,left,←,0.39604519959539175,True,8,1,0,7
Y2-S2-220M19,4,409,PS,exp,35,↓,down,↓,1.1151157999411225,True,8,1,0,7
Y2-S2-220M19,4,410,PS,exp,42,→,right,→,0.3728117998689413,True,8,1,0,7
Y2-S2-220M19,4,411,PS,exp,27,←,left,←,0.6430929005146027,True,7,1,0,7
Y2-S2-220M19,4,412,PS,exp,31,→,right,→,0.31401639990508556,True,7,1,0,7
Y2-S2-220M19,4,413,PS,exp,41,←,left,←,0.4582829996943474,True,7,1,0,7
Y2-S2-220M19,4,414,PS,exp,43,→,right,→,0.4657616997137666,True,6,1,0,7
Y2-S2-220M19,4,415,PS,exp,44,↑,right,→,0.4618371007964015,False,6,-1,1,8
Y2-S2-220M19,4,416,PS,exp,47,↓,down,↓,0.9356853999197483,True,7,-1,0,8
Y2-S2-220M19,4,417,PS,exp,37,←,right,→,0.46865509916096926,False,7,-1,0,8
Y2-S2-220M19,4,418,PS,exp,42,↑,left,←,0.5712331999093294,False,8,-1,0,8
Y2-S2-220M19,4,419,PS,exp,33,←,left,←,0.43496489990502596,True,9,-1,0,8
Y2-S2-220M19,4,420,PS,exp,49,↓,right,→,0.484417200088501,False,9,-1,0,8
Y2-S2-220M19,4,421,PS,exp,49,→,right,→,0.35551169980317354,True,10,-1,0,8
Y2-S2-220M19,4,422,PS,exp,39,←,left,←,0.3718594005331397,True,10,-1,0,8
Y2-S2-220M19,4,423,PS,exp,26,↓,down,↓,0.5727951992303133,True,10,1,1,9
Y2-S2-220M19,4,424,PS,exp,36,→,right,→,0.3538458002731204,True,9,1,0,9
Y2-S2-220M19,4,425,PS,exp,28,←,right,→,0.6211770996451378,False,9,-1,1,10
Y2-S2-220M19,4,426,PS,exp,41,↑,down,↓,0.95278500020504,False,10,-1,0,10
Y2-S2-220M19,4,427,PS,exp,32,↓,right,→,0.37578120082616806,False,11,-1,0,10
Y2-S2-220M19,4,428,PS,exp,46,→,right,→,0.9672756996005774,True,12,-1,0,10
Y2-S2-220M19,4,429,PS,exp,48,←,left,←,0.5250193998217583,True,12,-1,0,10
Y2-S2-220M19,4,430,PS,exp,46,→,right,→,0.565480999648571,True,12,1,1,11
Y2-S2-220M19,4,431,PS,exp,36,↓,down,↓,0.690400299616158,True,11,1,0,11
Y2-S2-220M19,4,432,PS,exp,44,→,right,→,0.46237269975245,True,11,1,0,11
Y2-S2-220M19,4,433,PS,exp,29,↑,left,←,0.5552888996899128,False,11,-1,1,12
Y2-S2-220M19,4,434,PS,exp,32,↓,down,↓,0.4963473007082939,True,12,-1,0,12
Y2-S2-220M19,4,435,PS,exp,47,←,left,←,0.6145374998450279,True,12,-1,0,12
Y2-S2-220M19,4,436,PS,exp,28,→,right,→,0.39252609945833683,True,12,1,1,13
Y2-S2-220M19,4,437,PS,exp,50,←,left,←,0.5097208004444838,True,11,1,0,13
Y2-S2-220M19,4,438,PS,exp,31,↓,down,↓,0.5886838994920254,True,11,1,0,13
Y2-S2-220M19,4,439,PS,exp,40,→,down,↓,1.3114399993792176,False,11,-1,1,14
Y2-S2-220M19,4,440,PS,exp,32,↓,down,↓,0.7455885000526905,True,12,-1,0,14
Y2-S2-220M19,4,441,PS,exp,48,→,right,→,0.4883586000651121,True,12,-1,0,14
Y2-S2-220M19,4,442,PS,exp,43,↑,up,↑,0.6309509994462132,True,12,1,1,15
Y2-S2-220M19,4,443,PS,exp,46,←,left,←,0.472057799808681,True,11,1,0,15
Y2-S2-220M19,4,444,PS,exp,29,↓,down,↓,0.5568642001599073,True,11,1,0,15
Y2-S2-220M19,4,445,PS,exp,31,↑,up,↑,0.4768538996577263,True,11,1,0,15
Y2-S2-220M19,4,446,PS,exp,35,↓,left,←,0.8370893001556396,False,10,-1,1,16
Y2-S2-220M19,5,447,PS,intra_train,38,↑,up,↑,0.44175990018993616,True,16,-,-,-
Y2-S2-220M19,5,448,PS,intra_train,33,↓,down,↓,0.5642969002947211,True,16,-,-,-
Y2-S2-220M19,5,449,PS,intra_train,44,→,right,→,0.8762023001909256,True,16,-,-,-
Y2-S2-220M19,5,450,PS,intra_train,25,←,right,→,0.919301699846983,False,16,-,-,-
Y2-S2-220M19,5,451,PS,intra_train,35,↑,up,↑,1.3115328000858426,True,16,-,-,-
Y2-S2-220M19,5,452,PS,exp,46,↓,down,↓,0.5637338003143668,True,11,0,0,0
Y2-S2-220M19,5,453,PS,exp,28,→,right,→,0.44706339947879314,True,11,0,0,0
Y2-S2-220M19,5,454,PS,exp,28,↑,up,↑,0.4527622992172837,True,11,1,0,0
Y2-S2-220M19,5,455,PS,exp,37,↓,down,↓,0.5446807006374002,True,10,1,0,0
Y2-S2-220M19,5,456,PS,exp,40,↑,up,↑,0.8025714000687003,True,10,1,0,0
Y2-S2-220M19,5,457,PS,exp,27,←,left,←,0.5214657997712493,True,10,1,0,0
Y2-S2-220M19,5,458,PS,exp,28,↑,up,↑,0.39947120007127523,True,9,1,0,0
Y2-S2-220M19,5,459,PS,exp,47,→,right,→,0.382719399407506,True,9,1,0,0
Y2-S2-220M19,5,460,PS,exp,47,←,left,←,0.414300000295043,True,9,1,0,0
Y2-S2-220M19,5,461,PS,exp,41,↑,left,←,0.6608025999739766,False,8,-1,1,1
Y2-S2-220M19,5,462,PS,exp,29,→,right,→,0.4855219004675746,True,9,-1,0,1
Y2-S2-220M19,5,463,PS,exp,25,↑,up,↑,0.40985590033233166,True,9,-1,0,1
Y2-S2-220M19,5,464,PS,exp,40,→,right,→,0.33849589992314577,True,9,1,1,2
Y2-S2-220M19,5,465,PS,exp,41,←,left,←,0.33873570058494806,True,8,1,0,2
Y2-S2-220M19,5,466,PS,exp,40,↑,up,↑,0.6160352006554604,True,8,1,0,2
Y2-S2-220M19,5,467,PS,exp,50,←,left,←,0.4325912995263934,True,8,1,0,2
Y2-S2-220M19,5,468,PS,exp,43,↓,left,←,0.7194628994911909,False,7,-1,1,3
Y2-S2-220M19,5,469,PS,exp,43,↑,left,←,0.7899893997237086,False,8,-1,0,3
Y2-S2-220M19,5,470,PS,exp,28,↓,up,↑,0.6260508997365832,False,9,-1,0,3
Y2-S2-220M19,5,471,PS,exp,35,←,left,←,0.5440397001802921,True,10,-1,0,3
Y2-S2-220M19,5,472,PS,exp,41,↓,up,↑,0.5888171000406146,False,10,-1,0,3
Y2-S2-220M19,5,473,PS,exp,27,↑,up,↑,0.47325260005891323,True,11,-1,0,3
Y2-S2-220M19,5,474,PS,exp,46,↓,down,↓,0.5791207998991013,True,11,-1,0,3
Y2-S2-220M19,5,475,PS,exp,46,←,left,←,0.39056930039077997,True,11,1,1,4
Y2-S2-220M19,5,476,PS,exp,42,↑,up,↑,0.45185850001871586,True,10,1,0,4
Y2-S2-220M19,5,477,PS,exp,34,↓,down,↓,0.5331565998494625,True,10,1,0,4
Y2-S2-220M19,5,478,PS,exp,48,←,left,←,0.37439339980483055,True,10,1,0,4
Y2-S2-220M19,5,479,PS,exp,42,↑,up,↑,0.5003033000975847,True,9,1,0,4
Y2-S2-220M19,5,480,PS,exp,50,→,right,→,0.4121086997911334,True,9,1,0,4
Y2-S2-220M19,5,481,PS,exp,34,↑,left,←,0.5807042000815272,False,9,-1,1,5
Y2-S2-220M19,5,482,PS,exp,35,←,left,←,0.40863419976085424,True,10,-1,0,5
Y2-S2-220M19,5,483,PS,exp,37,↑,up,↑,0.4214939000084996,True,10,-1,0,5
Y2-S2-220M19,5,484,PS,exp,46,→,right,→,0.4161972999572754,True,10,1,1,6
Y2-S2-220M19,5,485,PS,exp,31,←,left,←,0.3745249006897211,True,9,1,0,6
Y2-S2-220M19,5,486,PS,exp,42,↓,down,↓,0.5595546001568437,True,9,1,0,6
Y2-S2-220M19,5,487,PS,exp,43,↑,up,↑,0.3392554996535182,True,9,1,0,6
Y2-S2-220M19,5,488,PS,exp,30,→,right,→,0.5147768007591367,True,8,1,0,6
Y2-S2-220M19,5,489,PS,exp,40,↑,up,↑,0.4273725999519229,True,8,1,0,6
Y2-S2-220M19,5,490,PS,exp,44,←,right,→,0.34612820018082857,False,8,-1,1,7
Y2-S2-220M19,5,491,PS,exp,37,↓,left,←,0.7329431995749474,False,9,-1,0,7
Y2-S2-220M19,5,492,PS,exp,36,←,left,←,0.4524127999320626,True,10,-1,0,7
Y2-S2-220M19,5,493,PS,exp,50,→,right,→,0.42638530023396015,True,10,-1,0,7
Y2-S2-220M19,5,494,PS,exp,47,←,left,←,0.4637238001450896,True,10,1,1,8
Y2-S2-220M19,5,495,PS,exp,50,↓,down,↓,0.6113745998591185,True,9,1,0,8
Y2-S2-220M19,5,496,PS,exp,43,→,right,→,0.48169059958308935,True,9,1,0,8
Y2-S2-220M19,5,497,PS,exp,49,↑,up,↑,0.4420786006376147,True,9,1,0,8
Y2-S2-220M19,5,498,PS,exp,30,←,left,←,0.4536733999848366,True,8,1,0,8
Y2-S2-220M19,5,499,PS,exp,26,→,right,→,0.40840600058436394,True,8,1,0,8
Y2-S2-220M19,5,500,PS,exp,42,↑,up,↑,0.4502870002761483,True,8,1,0,8
Y2-S2-220M19,5,501,PS,exp,36,↓,left,←,0.5777324996888638,False,7,-1,1,9
Y2-S2-220M19,5,502,PS,exp,34,←,left,←,0.41375620011240244,True,8,-1,0,9
Y2-S2-220M19,5,503,PS,exp,46,↓,down,↓,0.6121124001219869,True,8,-1,0,9
Y2-S2-220M19,5,504,PS,exp,33,←,left,←,0.5117429997771978,True,8,1,1,10
Y2-S2-220M19,5,505,PS,exp,44,→,left,←,0.7153829000890255,False,7,-1,1,11
Y2-S2-220M19,5,506,PS,exp,34,←,left,←,0.4598526004701853,True,8,-1,0,11
Y2-S2-220M19,5,507,PS,exp,46,↓,right,→,0.7079111998900771,False,8,-1,0,11
Y2-S2-220M19,5,508,PS,exp,27,→,left,←,0.5077507002279162,False,9,-1,0,11
Y2-S2-220M19,5,509,PS,exp,41,←,right,→,0.2507546003907919,False,10,-1,0,11
Y2-S2-220M19,5,510,PS,exp,29,↑,left,←,0.7168913995847106,False,11,-1,0,11
Y2-S2-220M19,5,511,PS,exp,27,→,right,→,0.5151263000443578,True,12,-1,0,11
Y2-S2-220M19,5,512,PS,exp,35,↑,up,↑,0.44433020055294037,True,12,-1,0,11
Y2-S2-220M19,5,513,PS,exp,42,↓,down,↓,0.500674800015986,True,12,1,1,12
Y2-S2-220M19,5,514,PS,exp,46,↑,up,↑,0.5099394004791975,True,11,1,0,12
Y2-S2-220M19,5,515,PS,exp,28,↓,down,↓,0.5823458004742861,True,11,1,0,12
Y2-S2-220M19,5,516,PS,exp,26,←,left,←,0.51555319968611,True,11,1,0,12
Y2-S2-220M19,5,517,PS,exp,49,→,right,→,0.5279478002339602,True,10,1,0,12
Y2-S2-220M19,5,518,PS,exp,35,↓,down,↓,0.60146430041641,True,10,1,0,12
Y2-S2-220M19,5,519,PS,exp,35,←,left,←,0.4476761994883418,True,10,1,0,12
Y2-S2-220M19,5,520,PS,exp,41,↓,down,↓,0.5272030001506209,True,9,1,0,12
Y2-S2-220M19,5,521,PS,exp,39,←,right,→,0.5790663994848728,False,9,-1,1,13
Y2-S2-220M19,5,522,PS,exp,27,↑,up,↑,0.43998629972338676,True,10,-1,0,13
Y2-S2-220M19,5,523,PS,exp,43,←,left,←,0.46742910053581,True,10,-1,0,13
Y2-S2-220M19,5,524,PS,exp,33,↓,down,↓,0.4798187995329499,True,10,1,1,14
Y2-S2-220M19,5,525,PS,exp,26,↑,left,←,0.5948361000046134,False,9,-1,1,15
Y2-S2-220M19,5,526,PS,exp,30,↓,down,↓,0.4866868006065488,True,10,-1,0,15
Y2-S2-220M19,5,527,PS,exp,38,←,left,←,0.3739056997001171,True,10,-1,0,15
Y2-S2-220M19,5,528,PS,exp,46,↑,right,→,0.6472148001194,False,10,-1,0,15
Y2-S2-220M19,5,529,PS,exp,31,←,up,↑,0.6934078997001052,False,11,-1,0,15
Y2-S2-220M19,5,530,PS,exp,45,→,right,→,0.49458689987659454,True,12,-1,0,15
Y2-S2-220M19,5,531,PS,exp,39,↓,down,↓,0.45558449998497963,True,12,-1,0,15
Y2-S2-220M19,5,532,PS,exp,42,→,right,→,0.4593865005299449,True,12,1,1,16
Y2-S2-220M19,6,533,AS,intra_train,41,↑,up,↑,0.660478999838233,True,16,-,-,-
Y2-S2-220M19,6,534,AS,intra_train,26,→,right,→,0.5799382999539375,True,16,-,-,-
Y2-S2-220M19,6,535,AS,intra_train,46,←,left,←,0.5820546001195908,True,16,-,-,-
Y2-S2-220M19,6,536,AS,intra_train,34,↓,down,↓,0.6379779996350408,True,16,-,-,-
Y2-S2-220M19,6,537,AS,intra_train,36,→,right,→,0.5289295995607972,True,16,-,-,-
Y2-S2-220M19,6,538,AS,exp,39,↑,up,↑,0.5683773001655936,True,11,0,0,0
Y2-S2-220M19,6,539,AS,exp,50,←,right,→,0.5584992002695799,False,11,-1,0,0
Y2-S2-220M19,6,540,AS,exp,37,↓,down,↓,0.5503309005871415,True,12,-1,0,0
Y2-S2-220M19,6,541,AS,exp,25,←,left,←,0.6311659999191761,True,12,-1,0,0
Y2-S2-220M19,6,542,AS,exp,50,↓,down,↓,1.6114736003801227,True,12,1,1,1
Y2-S2-220M19,6,543,AS,exp,47,↑,down,↓,0.7248796001076698,False,11,-1,1,2
Y2-S2-220M19,6,544,AS,exp,44,↓,down,↓,0.6514993999153376,True,12,-1,0,2
Y2-S2-220M19,6,545,AS,exp,37,→,left,←,0.5727976998314261,False,12,-1,0,2
Y2-S2-220M19,6,546,AS,exp,41,↑,up,↑,0.4503661999478936,True,13,-1,0,2
Y2-S2-220M19,6,547,AS,exp,47,→,right,→,0.7198817003518343,True,13,-1,0,2
Y2-S2-220M19,6,548,AS,exp,31,↑,up,↑,0.646161800250411,True,13,1,1,3
Y2-S2-220M19,6,549,AS,exp,44,→,right,→,0.4631519000977278,True,12,1,0,3
Y2-S2-220M19,6,550,AS,exp,50,↓,up,↑,0.5171958999708295,False,12,-1,1,4
Y2-S2-220M19,6,551,AS,exp,35,←,left,←,0.4495219998061657,True,13,-1,0,4
Y2-S2-220M19,6,552,AS,exp,45,↓,down,↓,0.6455997005105019,True,13,-1,0,4
Y2-S2-220M19,6,553,AS,exp,26,←,left,←,0.6231082994490862,True,13,1,1,5
Y2-S2-220M19,6,554,AS,exp,47,↑,up,↑,0.8659060997888446,True,12,1,0,5
Y2-S2-220M19,6,555,AS,exp,31,←,right,→,0.40189140010625124,False,12,-1,1,6
Y2-S2-220M19,6,556,AS,exp,38,→,right,→,0.6486746994778514,True,13,-1,0,6
Y2-S2-220M19,6,557,AS,exp,30,↑,up,↑,0.38784580025821924,True,13,-1,0,6
Y2-S2-220M19,6,558,AS,exp,25,←,left,←,0.44320160057395697,True,13,1,1,7
Y2-S2-220M19,6,559,AS,exp,30,→,right,→,0.6888429997488856,True,12,1,0,7
Y2-S2-220M19,6,560,AS,exp,32,↓,up,↑,0.9450278002768755,False,12,-1,1,8
Y2-S2-220M19,6,561,AS,exp,44,←,left,←,0.4533944996073842,True,13,-1,0,8
Y2-S2-220M19,6,562,AS,exp,36,↓,up,↑,0.5050950003787875,False,13,-1,0,8
Y2-S2-220M19,6,563,AS,exp,42,↑,down,↓,0.7600534996017814,False,14,-1,0,8
Y2-S2-220M19,6,564,AS,exp,40,→,right,→,0.4426851002499461,True,15,-1,0,8
Y2-S2-220M19,6,565,AS,exp,47,↑,up,↑,0.44734090007841587,True,15,-1,0,8
Y2-S2-220M19,6,566,AS,exp,38,←,left,←,0.4600975997745991,True,15,1,1,9
Y2-S2-220M19,6,567,AS,exp,50,↓,down,↓,0.5604787999764085,True,14,1,0,9
Y2-S2-220M19,6,568,AS,exp,46,↑,up,↑,0.505333099514246,True,14,1,0,9
Y2-S2-220M19,6,569,AS,exp,41,→,right,→,0.4980028998106718,True,14,1,0,9
Y2-S2-220M19,6,570,AS,exp,28,←,left,←,0.4145854003727436,True,13,1,0,9
Y2-S2-220M19,6,571,AS,exp,27,↑,up,↑,0.6215572999790311,True,13,1,0,9
Y2-S2-220M19,6,572,AS,exp,50,←,left,←,0.4485576003789902,True,13,1,0,9
Y2-S2-220M19,6,573,AS,exp,30,↑,up,↑,0.49035520013421774,True,12,1,0,9
Y2-S2-220M19,6,574,AS,exp,48,←,left,←,0.5751456003636122,True,12,1,0,9
Y2-S2-220M19,6,575,AS,exp,50,↑,up,↑,0.5740446001291275,True,12,1,0,9
Y2-S2-220M19,6,576,AS,exp,50,↓,down,↓,1.2097341995686293,True,11,1,0,9
Y2-S2-220M19,6,577,AS,exp,30,↑,up,↑,0.47896189987659454,True,11,1,0,9
Y2-S2-220M19,6,578,AS,exp,37,↓,down,↓,0.4993666000664234,True,11,1,0,9
Y2-S2-220M19,6,579,AS,exp,33,←,right,→,0.6077971002086997,False,10,-1,1,10
Y2-S2-220M19,6,580,AS,exp,47,↓,down,↓,0.5437448993325233,True,11,-1,0,10
Y2-S2-220M19,6,581,AS,exp,28,→,right,→,0.6104228002950549,True,11,-1,0,10
Y2-S2-220M19,6,582,AS,exp,25,←,left,←,0.5711468998342752,True,11,1,1,11
Y2-S2-220M19,6,583,AS,exp,42,↓,up,↑,1.1228747004643083,False,10,-1,1,12
Y2-S2-220M19,6,584,AS,exp,31,↑,up,↑,0.6997012002393603,True,11,-1,0,12
Y2-S2-220M19,6,585,AS,exp,47,↓,down,↓,0.4219455001875758,True,11,-1,0,12
Y2-S2-220M19,6,586,AS,exp,46,→,right,→,0.48136379942297935,True,11,1,1,13
Y2-S2-220M19,6,587,AS,exp,34,↑,up,↑,0.39757340028882027,True,10,1,0,13
Y2-S2-220M19,6,588,AS,exp,39,←,right,→,0.5797524992376566,False,10,-1,1,14
Y2-S2-220M19,6,589,AS,exp,36,↓,up,↑,0.578774900175631,False,11,-1,0,14
Y2-S2-220M19,6,590,AS,exp,25,←,left,←,0.4042060999199748,True,12,-1,0,14
Y2-S2-220M19,6,591,AS,exp,33,↓,down,↓,0.5769435996189713,True,12,-1,0,14
Y2-S2-220M19,6,592,AS,exp,30,→,right,→,0.41223370004445314,True,12,1,1,15
Y2-S2-220M19,6,593,AS,exp,27,↑,up,↑,0.9157974002882838,True,11,1,0,15
Y2-S2-220M19,6,594,AS,exp,37,→,right,→,0.6673736004158854,True,11,1,0,15
Y2-S2-220M19,6,595,AS,exp,38,↑,up,↑,0.5366515005007386,True,11,1,0,15
Y2-S2-220M19,6,596,AS,exp,38,←,down,↓,0.6937601994723082,False,10,-1,1,16
Y2-S2-220M19,7,597,AS,intra_train,37,↑,up,↑,0.6554498998448253,True,16,-,-,-
Y2-S2-220M19,7,598,AS,intra_train,30,↓,down,↓,0.7305974997580051,True,16,-,-,-
Y2-S2-220M19,7,599,AS,intra_train,35,←,left,←,0.5632786005735397,True,16,-,-,-
Y2-S2-220M19,7,600,AS,intra_train,44,↑,up,↑,0.5445248996838927,True,16,-,-,-
Y2-S2-220M19,7,601,AS,intra_train,27,→,right,→,0.47903439961373806,True,16,-,-,-
Y2-S2-220M19,7,602,AS,exp,33,↑,left,←,0.8293653000146151,False,11,-1,0,0
Y2-S2-220M19,7,603,AS,exp,32,↓,right,→,0.8379873996600509,False,12,-1,0,0
Y2-S2-220M19,7,604,AS,exp,49,←,left,←,0.5098497997969389,True,13,-1,0,0
Y2-S2-220M19,7,605,AS,exp,37,→,right,→,0.5512235993519425,True,13,-1,0,0
Y2-S2-220M19,7,606,AS,exp,38,←,left,←,0.7682680999860168,True,13,1,1,1
Y2-S2-220M19,7,607,AS,exp,33,↑,up,↑,0.45816229935735464,True,12,1,0,1
Y2-S2-220M19,7,608,AS,exp,48,←,left,←,0.4580129003152251,True,12,1,0,1
Y2-S2-220M19,7,609,AS,exp,49,↑,up,↑,0.37237590085715055,True,12,1,0,1
Y2-S2-220M19,7,610,AS,exp,49,→,right,→,0.7758106999099255,True,11,1,0,1
Y2-S2-220M19,7,611,AS,exp,41,↓,down,↓,0.6127228001132607,True,11,1,0,1
Y2-S2-220M19,7,612,AS,exp,46,↑,up,↑,0.3990256004035473,True,11,1,0,1
Y2-S2-220M19,7,613,AS,exp,50,→,right,→,0.575471899472177,True,10,1,0,1
Y2-S2-220M19,7,614,AS,exp,28,←,right,→,0.6871025003492832,False,10,-1,1,2
Y2-S2-220M19,7,615,AS,exp,35,↑,up,↑,0.7040916001424193,True,11,-1,0,2
Y2-S2-220M19,7,616,AS,exp,48,↓,down,↓,0.6320899995043874,True,11,-1,0,2
Y2-S2-220M19,7,617,AS,exp,34,←,right,→,0.46448640059679747,False,11,-1,0,2
Y2-S2-220M19,7,618,AS,exp,45,→,right,→,0.5436428999528289,True,12,-1,0,2
Y2-S2-220M19,7,619,AS,exp,49,↓,down,↓,0.660033400170505,True,12,-1,0,2
Y2-S2-220M19,7,620,AS,exp,47,→,right,→,0.6222695000469685,True,12,1,1,3
Y2-S2-220M19,7,621,AS,exp,26,↑,up,↑,0.5258999997749925,True,11,1,0,3
Y2-S2-220M19,7,622,AS,exp,44,←,left,←,0.5532778995111585,True,11,1,0,3
Y2-S2-220M19,7,623,AS,exp,47,↑,up,↑,1.0716126002371311,True,11,1,0,3
Y2-S2-220M19,7,624,AS,exp,37,↓,down,↓,0.6047831000760198,True,10,1,0,3
Y2-S2-220M19,7,625,AS,exp,42,←,right,→,0.3930669007822871,False,10,-1,1,4
Y2-S2-220M19,7,626,AS,exp,49,↑,up,↑,0.4273218996822834,True,11,-1,0,4
Y2-S2-220M19,7,627,AS,exp,46,→,up,↑,1.391648999415338,False,11,-1,0,4
Y2-S2-220M19,7,628,AS,exp,37,←,left,←,0.5911865998059511,True,12,-1,0,4
Y2-S2-220M19,7,629,AS,exp,44,→,right,→,0.5360463997349143,True,12,-1,0,4
Y2-S2-220M19,7,630,AS,exp,37,←,left,←,0.5604886999353766,True,12,1,1,5
Y2-S2-220M19,7,631,AS,exp,44,↑,up,↑,0.3605234995484352,True,11,1,0,5
Y2-S2-220M19,7,632,AS,exp,34,→,right,→,0.7931473003700376,True,11,1,0,5
Y2-S2-220M19,7,633,AS,exp,41,↓,down,↓,0.523318300023675,True,11,1,0,5
Y2-S2-220M19,7,634,AS,exp,32,→,right,→,1.0879448000341654,True,10,1,0,5
Y2-S2-220M19,7,635,AS,exp,31,←,left,←,0.481907800771296,True,10,1,0,5
Y2-S2-220M19,7,636,AS,exp,44,↓,down,↓,0.6064483001828194,True,10,1,0,5
Y2-S2-220M19,7,637,AS,exp,47,→,right,→,0.4954808000475168,True,9,1,0,5
Y2-S2-220M19,7,638,AS,exp,31,↑,left,←,0.3928928002715111,False,9,-1,1,6
Y2-S2-220M19,7,639,AS,exp,45,↓,down,↓,0.6091359993442893,True,10,-1,0,6
Y2-S2-220M19,7,640,AS,exp,35,↑,up,↑,0.765059900470078,True,10,-1,0,6
Y2-S2-220M19,7,641,AS,exp,44,↓,down,↓,0.5193461999297142,True,10,1,1,7
Y2-S2-220M19,7,642,AS,exp,40,→,right,→,0.4825708996504545,True,9,1,0,7
Y2-S2-220M19,7,643,AS,exp,38,↓,down,↓,0.8725512996315956,True,9,1,0,7
Y2-S2-220M19,7,644,AS,exp,34,←,right,→,0.586370300501585,False,9,-1,1,8
Y2-S2-220M19,7,645,AS,exp,25,↑,left,←,0.43796929996460676,False,10,-1,0,8
Y2-S2-220M19,7,646,AS,exp,30,←,left,←,0.5351892001926899,True,11,-1,0,8
Y2-S2-220M19,7,647,AS,exp,46,→,up,↑,0.7826471999287605,False,11,-1,0,8
Y2-S2-220M19,7,648,AS,exp,28,↑,right,→,1.0183394998311996,False,12,-1,0,8
Y2-S2-220M19,7,649,AS,exp,35,←,left,←,0.5206291005015373,True,13,-1,0,8
Y2-S2-220M19,7,650,AS,exp,30,↓,down,↓,0.6430930001661181,True,13,-1,0,8
Y2-S2-220M19,7,651,AS,exp,37,←,right,→,0.5132040996104479,False,13,-1,0,8
Y2-S2-220M19,7,652,AS,exp,48,↓,down,↓,0.6157716000452638,True,14,-1,0,8
Y2-S2-220M19,7,653,AS,exp,29,↑,up,↑,0.5320844007655978,True,14,-1,0,8
Y2-S2-220M19,7,654,AS,exp,46,←,left,←,0.5614302000030875,True,14,1,1,9
Y2-S2-220M19,7,655,AS,exp,33,→,right,→,0.7077548997476697,True,13,1,0,9
Y2-S2-220M19,7,656,AS,exp,42,↓,up,↑,1.5285353995859623,False,13,-1,1,10
Y2-S2-220M19,7,657,AS,exp,43,←,left,←,0.6122762998566031,True,14,-1,0,10
Y2-S2-220M19,7,658,AS,exp,38,→,right,→,0.5720811001956463,True,14,-1,0,10
Y2-S2-220M19,7,659,AS,exp,36,↓,right,→,0.7777543002739549,False,14,-1,0,10
Y2-S2-220M19,7,660,AS,exp,25,↑,up,↑,0.5946720000356436,True,15,-1,0,10
Y2-S2-220M19,7,661,AS,exp,43,←,left,←,0.6360313994809985,True,15,-1,0,10
Y2-S2-220M19,7,662,AS,exp,49,↑,up,↑,0.5401254994794726,True,15,1,1,11
Y2-S2-220M19,7,663,AS,exp,36,←,left,←,0.5808673994615674,True,14,1,0,11
Y2-S2-220M19,7,664,AS,exp,39,↑,up,↑,0.5397676005959511,True,14,1,0,11
Y2-S2-220M19,7,665,AS,exp,30,→,left,←,0.7432722998782992,False,14,-1,1,12
Y2-S2-220M19,7,666,AS,exp,30,↑,up,↑,0.48557979986071587,True,15,-1,0,12
Y2-S2-220M19,7,667,AS,exp,41,←,left,←,0.5679292995482683,True,15,-1,0,12
Y2-S2-220M19,7,668,AS,exp,37,↑,up,↑,0.5754125993698835,True,15,1,1,13
Y2-S2-220M19,7,669,AS,exp,44,→,right,→,0.6266708001494408,True,14,1,0,13
Y2-S2-220M19,7,670,AS,exp,50,↓,down,↓,0.6145777003839612,True,14,1,0,13
Y2-S2-220M19,7,671,AS,exp,27,→,left,←,0.6708671003580093,False,14,-1,1,14
Y2-S2-220M19,7,672,AS,exp,45,←,up,↑,1.0941816000267863,False,15,-1,0,14
Y2-S2-220M19,7,673,AS,exp,43,↑,up,↑,0.4741505002602935,True,16,-1,0,14
Y2-S2-220M19,7,674,AS,exp,46,↓,down,↓,0.5074623003602028,True,16,-1,0,14
Y2-S2-220M19,7,675,AS,exp,43,→,right,→,0.5602556001394987,True,16,1,1,15
Y2-S2-220M19,7,676,AS,exp,27,←,left,←,0.48791200015693903,True,15,1,0,15
Y2-S2-220M19,7,677,AS,exp,34,↓,up,↑,0.5284318998456001,False,15,-1,1,16
Y2-S2-220M19,8,678,PS,intra_train,38,→,right,→,1.2849962003529072,True,16,-,-,-
Y2-S2-220M19,8,679,PS,intra_train,45,↑,up,↑,0.45908330008387566,True,16,-,-,-
Y2-S2-220M19,8,680,PS,intra_train,38,↓,down,↓,0.5183461997658014,True,16,-,-,-
Y2-S2-220M19,8,681,PS,intra_train,29,→,right,→,0.4856967004016042,True,16,-,-,-
Y2-S2-220M19,8,682,PS,intra_train,45,↓,down,↓,0.5970772001892328,True,16,-,-,-
Y2-S2-220M19,8,683,PS,exp,35,←,right,→,0.4481582995504141,False,11,-1,0,0
Y2-S2-220M19,8,684,PS,exp,40,↓,right,→,0.7582597006112337,False,12,-1,0,0
Y2-S2-220M19,8,685,PS,exp,50,→,right,→,0.4967678003013134,True,13,-1,0,0
Y2-S2-220M19,8,686,PS,exp,27,↓,down,↓,0.9609016003087163,True,13,-1,0,0
Y2-S2-220M19,8,687,PS,exp,39,→,right,→,0.468274200335145,True,13,1,1,1
Y2-S2-220M19,8,688,PS,exp,42,↓,down,↓,0.5043192002922297,True,12,1,0,1
Y2-S2-220M19,8,689,PS,exp,42,↑,up,↑,0.5498550999909639,True,12,1,0,1
Y2-S2-220M19,8,690,PS,exp,41,↓,down,↓,0.48985129967331886,True,12,1,0,1
Y2-S2-220M19,8,691,PS,exp,41,↑,up,↑,0.41123509965837,True,11,1,0,1
Y2-S2-220M19,8,692,PS,exp,48,↓,down,↓,0.4469133000820875,True,11,1,0,1
Y2-S2-220M19,8,693,PS,exp,25,←,left,←,0.467043399810791,True,11,1,0,1
Y2-S2-220M19,8,694,PS,exp,33,→,right,→,0.4292262000963092,True,10,1,0,1
Y2-S2-220M19,8,695,PS,exp,32,←,left,←,0.49797189980745316,True,10,1,0,1
Y2-S2-220M19,8,696,PS,exp,26,↓,down,↓,0.606428500264883,True,10,1,0,1
Y2-S2-220M19,8,697,PS,exp,35,←,left,←,0.46177260018885136,True,9,1,0,1
Y2-S2-220M19,8,698,PS,exp,46,→,right,→,0.5046836007386446,True,9,1,0,1
Y2-S2-220M19,8,699,PS,exp,40,↑,up,↑,0.466091800481081,True,9,1,0,1
Y2-S2-220M19,8,700,PS,exp,26,→,right,→,0.44362290017306805,True,8,1,0,1
Y2-S2-220M19,8,701,PS,exp,37,↑,up,↑,0.5046383002772927,True,8,1,0,1
Y2-S2-220M19,8,702,PS,exp,48,→,right,→,0.44016109965741634,True,8,1,0,1
Y2-S2-220M19,8,703,PS,exp,46,↑,up,↑,0.5069622993469238,True,7,1,0,1
Y2-S2-220M19,8,704,PS,exp,43,↓,down,↓,0.5645260997116566,True,7,1,0,1
Y2-S2-220M19,8,705,PS,exp,31,↑,up,↑,0.4449177999049425,True,7,1,0,1
Y2-S2-220M19,8,706,PS,exp,27,→,right,→,0.5342821003869176,True,6,1,0,1
Y2-S2-220M19,8,707,PS,exp,46,↓,right,→,0.482120000757277,False,6,-1,1,2
Y2-S2-220M19,8,708,PS,exp,34,←,left,←,0.4664854006841779,True,7,-1,0,2
Y2-S2-220M19,8,709,PS,exp,40,↓,no_key,no_letter,-1.0,False,7,-1,0,2
Y2-S2-220M19,8,710,PS,exp,31,→,left,←,0.8846674999222159,False,8,-1,0,2
Y2-S2-220M19,8,711,PS,exp,27,↓,down,↓,0.5267903003841639,True,9,-1,0,2
Y2-S2-220M19,8,712,PS,exp,27,↑,left,←,1.0566026996821165,False,9,-1,0,2
Y2-S2-220M19,8,713,PS,exp,46,↓,down,↓,0.5289297997951508,True,10,-1,0,2
Y2-S2-220M19,8,714,PS,exp,26,↑,left,←,0.7181577999144793,False,10,-1,0,2
Y2-S2-220M19,8,715,PS,exp,49,→,right,→,0.40666669979691505,True,11,-1,0,2
Y2-S2-220M19,8,716,PS,exp,33,↑,up,↑,0.5278445007279515,True,11,-1,0,2
Y2-S2-220M19,8,717,PS,exp,36,←,left,←,0.4383143996819854,True,11,1,1,3
Y2-S2-220M19,8,718,PS,exp,49,↓,down,↓,0.5522929998114705,True,10,1,0,3
Y2-S2-220M19,8,719,PS,exp,29,→,right,→,0.4035352999344468,True,10,1,0,3
Y2-S2-220M19,8,720,PS,exp,50,↓,down,↓,0.4859728002920747,True,10,1,0,3
Y2-S2-220M19,8,721,PS,exp,49,←,left,←,0.48149590007960796,True,9,1,0,3
Y2-S2-220M19,8,722,PS,exp,26,→,right,→,0.44484470039606094,True,9,1,0,3
Y2-S2-220M19,8,723,PS,exp,30,↓,down,↓,0.5390212005004287,True,9,1,0,3
Y2-S2-220M19,8,724,PS,exp,28,←,left,←,0.47901520039886236,True,8,1,0,3
Y2-S2-220M19,8,725,PS,exp,27,↑,up,↑,0.659064999781549,True,8,1,0,3
Y2-S2-220M19,8,726,PS,exp,43,→,right,→,0.49761230032891035,True,8,1,0,3
Y2-S2-220M19,8,727,PS,exp,44,↓,right,→,0.5291753001511097,False,7,-1,1,4
Y2-S2-220M19,8,728,PS,exp,28,→,right,→,0.5099255992099643,True,8,-1,0,4
Y2-S2-220M19,8,729,PS,exp,37,↓,down,↓,0.542030899785459,True,8,-1,0,4
Y2-S2-220M19,8,730,PS,exp,41,←,left,←,0.3760670991614461,True,8,1,1,5
Y2-S2-220M19,8,731,PS,exp,35,→,right,→,0.5426189005374908,True,7,1,0,5
Y2-S2-220M19,8,732,PS,exp,46,↓,down,↓,0.5507939998060465,True,7,1,0,5
Y2-S2-220M19,8,733,PS,exp,28,→,right,→,0.4995015002787113,True,7,1,0,5
Y2-S2-220M19,8,734,PS,exp,37,↓,down,↓,0.5401272997260094,True,6,1,0,5
Y2-S2-220M19,8,735,PS,exp,36,↑,up,↑,0.42281829938292503,True,6,1,0,5
Y2-S2-220M19,8,736,PS,exp,49,→,right,→,0.4629247998818755,True,6,1,0,5
Y2-S2-220M19,8,737,PS,exp,37,←,left,←,0.4898148002102971,True,5,1,0,5
Y2-S2-220M19,8,738,PS,exp,43,↑,up,↑,0.38095800019800663,True,5,1,0,5
Y2-S2-220M19,8,739,PS,exp,46,→,right,→,0.4821084998548031,True,5,1,0,5
Y2-S2-220M19,8,740,PS,exp,48,↑,right,→,0.5987446000799537,False,4,-1,1,6
Y2-S2-220M19,8,741,PS,exp,36,→,right,→,0.41766729950904846,True,5,-1,0,6
Y2-S2-220M19,8,742,PS,exp,36,↑,up,↑,0.4307225998491049,True,5,-1,0,6
Y2-S2-220M19,8,743,PS,exp,26,↓,up,↑,1.0259713996201754,False,5,-1,0,6
Y2-S2-220M19,8,744,PS,exp,38,←,left,←,0.6054962994530797,True,6,-1,0,6
Y2-S2-220M19,8,745,PS,exp,30,↓,down,↓,0.5364355007186532,True,6,-1,0,6
Y2-S2-220M19,8,746,PS,exp,42,↑,up,↑,0.539529399946332,True,6,1,1,7
Y2-S2-220M19,8,747,PS,exp,34,→,right,→,0.42401190008968115,True,5,1,0,7
Y2-S2-220M19,8,748,PS,exp,42,↓,right,→,0.8806686997413635,False,5,-1,1,8
Y2-S2-220M19,8,749,PS,exp,36,→,down,↓,0.8662793999537826,False,6,-1,0,8
Y2-S2-220M19,8,750,PS,exp,31,↓,down,↓,0.5521331001073122,True,7,-1,0,8
Y2-S2-220M19,8,751,PS,exp,35,→,right,→,0.41856610029935837,True,7,-1,0,8
Y2-S2-220M19,8,752,PS,exp,43,↑,up,↑,0.4437189996242523,True,7,1,1,9
Y2-S2-220M19,8,753,PS,exp,48,→,no_key,no_letter,-1.0,False,6,-1,1,10
Y2-S2-220M19,8,754,PS,exp,50,↓,down,↓,0.6306569008156657,True,7,-1,0,10
Y2-S2-220M19,8,755,PS,exp,29,↑,left,←,0.497409600764513,False,7,-1,0,10
Y2-S2-220M19,8,756,PS,exp,35,↓,down,↓,0.5592219000682235,True,8,-1,0,10
Y2-S2-220M19,8,757,PS,exp,25,←,left,←,0.4173972997814417,True,8,-1,0,10
Y2-S2-220M19,8,758,PS,exp,25,↑,left,←,0.7564678005874157,False,8,-1,0,10
Y2-S2-220M19,8,759,PS,exp,39,→,right,→,0.4721311992034316,True,9,-1,0,10
Y2-S2-220M19,8,760,PS,exp,30,↓,down,↓,0.5317274006083608,True,9,-1,0,10
Y2-S2-220M19,8,761,PS,exp,49,↑,down,↓,0.5961945997551084,False,9,-1,0,10
Y2-S2-220M19,8,762,PS,exp,30,→,right,→,0.6108392998576164,True,10,-1,0,10
Y2-S2-220M19,8,763,PS,exp,45,↑,up,↑,0.45914809964597225,True,10,-1,0,10
Y2-S2-220M19,8,764,PS,exp,44,→,right,→,0.5305492002516985,True,10,1,1,11
Y2-S2-220M19,8,765,PS,exp,42,↓,down,↓,0.5086978999897838,True,9,1,0,11
Y2-S2-220M19,8,766,PS,exp,26,→,right,→,0.5288826003670692,True,9,1,0,11
Y2-S2-220M19,8,767,PS,exp,45,↑,left,←,0.3267370006069541,False,9,-1,1,12
Y2-S2-220M19,8,768,PS,exp,39,→,right,→,0.4181027999147773,True,10,-1,0,12
Y2-S2-220M19,8,769,PS,exp,32,↓,down,↓,1.2710488000884652,True,10,-1,0,12
Y2-S2-220M19,8,770,PS,exp,28,↑,left,←,0.5989240994676948,False,10,-1,0,12
Y2-S2-220M19,8,771,PS,exp,50,←,left,←,0.5019071996212006,True,11,-1,0,12
Y2-S2-220M19,8,772,PS,exp,46,→,right,→,0.40568660013377666,True,11,-1,0,12
Y2-S2-220M19,8,773,PS,exp,31,↑,left,←,0.747410399839282,False,11,-1,0,12
Y2-S2-220M19,8,774,PS,exp,47,←,left,←,0.566529099829495,True,12,-1,0,12
Y2-S2-220M19,8,775,PS,exp,38,→,right,→,0.44022079929709435,True,12,-1,0,12
Y2-S2-220M19,8,776,PS,exp,39,↓,down,↓,0.5404915995895863,True,12,1,1,13
Y2-S2-220M19,8,777,PS,exp,25,↑,up,↑,0.47094039991497993,True,11,1,0,13
Y2-S2-220M19,8,778,PS,exp,38,↓,left,←,1.111540999263525,False,11,-1,1,14
Y2-S2-220M19,8,779,PS,exp,50,↑,up,↑,0.6333194999024272,True,12,-1,0,14
Y2-S2-220M19,8,780,PS,exp,47,↓,down,↓,0.5087484000250697,True,12,-1,0,14
Y2-S2-220M19,8,781,PS,exp,49,↑,up,↑,0.47899509966373444,True,12,1,1,15
Y2-S2-220M19,8,782,PS,exp,38,←,left,←,0.45117679983377457,True,11,1,0,15
Y2-S2-220M19,8,783,PS,exp,31,↑,up,↑,0.5009384006261826,True,11,1,0,15
Y2-S2-220M19,8,784,PS,exp,46,←,left,←,0.4297156995162368,True,11,1,0,15
Y2-S2-220M19,8,785,PS,exp,41,→,right,→,0.5424550995230675,True,10,1,0,15
Y2-S2-220M19,8,786,PS,exp,32,↑,up,↑,0.4749129004776478,True,10,1,0,15
Y2-S2-220M19,8,787,PS,exp,33,↓,down,↓,0.5278936000540853,True,10,1,0,15
Y2-S2-220M19,8,788,PS,exp,42,↑,up,↑,0.41716589964926243,True,9,1,0,15
Y2-S2-220M19,8,789,PS,exp,39,↓,down,↓,0.5274648005142808,True,9,1,0,15
Y2-S2-220M19,8,790,PS,exp,41,→,right,→,0.665939699858427,True,9,1,0,15
Y2-S2-220M19,8,791,PS,exp,42,↑,left,←,0.6589734004810452,False,8,-1,1,16
