PART_ID,Block_no,Trial_no,Block_type,Trial_type,CSI,Stim_letter,Key_pressed,letter_choose,Rt,Corr,Stimulus Time,Level,Reversal,Revs_count
Y2-S2-072M23,1,1,PS,train,40,↑,up,↑,0.738251400180161,True,30,-,-,-
Y2-S2-072M23,1,2,PS,train,46,→,right,→,0.4504407998174429,True,30,-,-,-
Y2-S2-072M23,1,3,PS,train,40,↑,up,↑,0.4671077998355031,True,30,-,-,-
Y2-S2-072M23,1,4,PS,train,47,→,right,→,0.5005979002453387,True,30,-,-,-
Y2-S2-072M23,1,5,PS,train,38,↑,up,↑,0.4508926998823881,True,30,-,-,-
Y2-S2-072M23,1,6,PS,train,25,→,right,→,0.45082980021834373,True,30,-,-,-
Y2-S2-072M23,1,7,PS,train,30,↓,down,↓,0.5507543999701738,True,30,-,-,-
Y2-S2-072M23,1,8,PS,train,48,↑,up,↑,0.4342144001275301,True,30,-,-,-
Y2-S2-072M23,1,9,PS,train,27,→,right,→,0.43397899996489286,True,30,-,-,-
Y2-S2-072M23,1,10,PS,train,45,←,left,←,0.4506057002581656,True,30,-,-,-
Y2-S2-072M23,2,11,AS,train,25,↓,down,↓,0.5843958999030292,True,45,-,-,-
Y2-S2-072M23,2,12,AS,train,50,←,left,←,0.4172037998214364,True,45,-,-,-
Y2-S2-072M23,2,13,AS,train,25,→,right,→,0.6171889002434909,True,45,-,-,-
Y2-S2-072M23,2,14,AS,train,50,↓,down,↓,0.5342541998252273,True,45,-,-,-
Y2-S2-072M23,2,15,AS,train,45,↑,right,→,0.40081080002710223,False,45,-,-,-
Y2-S2-072M23,2,16,AS,train,47,↓,down,↓,0.5504062999971211,True,45,-,-,-
Y2-S2-072M23,2,17,AS,train,40,←,right,→,0.46764690009877086,False,45,-,-,-
Y2-S2-072M23,2,18,AS,train,47,↓,down,↓,0.5508265998214483,True,45,-,-,-
Y2-S2-072M23,2,19,AS,train,36,←,left,←,0.5675878999754786,True,45,-,-,-
Y2-S2-072M23,2,20,AS,train,47,↑,down,↓,0.48368690023198724,False,45,-,-,-
Y2-S2-072M23,-,21,PS,adaptive,25,→,left,←,1.4618571000173688,False,10,-1,0,0
Y2-S2-072M23,-,22,PS,adaptive,25,↑,up,↑,0.4720807997509837,True,11,-1,0,0
Y2-S2-072M23,-,23,PS,adaptive,28,↓,down,↓,0.5260998997837305,True,11,-1,0,0
Y2-S2-072M23,-,24,PS,adaptive,36,↑,up,↑,0.43658610014244914,True,11,1,1,1
Y2-S2-072M23,-,25,PS,adaptive,36,←,left,←,0.44732649996876717,True,10,1,0,1
Y2-S2-072M23,-,26,PS,adaptive,48,↑,left,←,0.8334875996224582,False,10,-1,1,2
Y2-S2-072M23,-,27,PS,adaptive,40,↓,down,↓,0.4232363998889923,True,11,-1,0,2
Y2-S2-072M23,-,28,PS,adaptive,47,←,left,←,0.6923038000240922,True,11,-1,0,2
Y2-S2-072M23,-,29,PS,adaptive,31,→,right,→,0.3889250000938773,True,11,1,1,3
Y2-S2-072M23,-,30,PS,adaptive,31,←,left,←,0.6811747997999191,True,10,1,0,3
Y2-S2-072M23,-,31,PS,adaptive,45,↑,left,←,1.0780042996630073,False,10,-1,1,4
Y2-S2-072M23,-,32,AS,adaptive,27,→,right,→,0.6440833997912705,True,20,0,0,0
Y2-S2-072M23,-,33,AS,adaptive,48,↑,up,↑,0.5535629000514746,True,20,0,0,0
Y2-S2-072M23,-,34,AS,adaptive,29,←,right,→,0.46723050018772483,False,20,-1,0,0
Y2-S2-072M23,-,35,AS,adaptive,27,↑,down,↓,0.7985562002286315,False,21,-1,0,0
Y2-S2-072M23,-,36,AS,adaptive,37,→,right,→,0.6918794000521302,True,22,-1,0,0
Y2-S2-072M23,-,37,AS,adaptive,50,←,left,←,1.3068908997811377,True,22,-1,0,0
Y2-S2-072M23,-,38,AS,adaptive,32,→,right,→,0.7038507000543177,True,22,1,1,1
Y2-S2-072M23,-,39,AS,adaptive,25,←,left,←,0.5888891001231968,True,21,1,0,1
Y2-S2-072M23,-,40,AS,adaptive,32,↑,down,↓,0.7773867002688348,False,21,-1,1,2
Y2-S2-072M23,-,41,AS,adaptive,31,→,right,→,0.6914051002822816,True,22,-1,0,2
Y2-S2-072M23,-,42,AS,adaptive,42,↑,up,↑,0.5004613003693521,True,22,-1,0,2
Y2-S2-072M23,-,43,AS,adaptive,45,→,right,→,0.6587363998405635,True,22,1,1,3
Y2-S2-072M23,-,44,AS,adaptive,27,←,left,←,0.8199581000953913,True,21,1,0,3
Y2-S2-072M23,-,45,AS,adaptive,40,→,right,→,0.61595379980281,True,21,1,0,3
Y2-S2-072M23,-,46,AS,adaptive,33,←,left,←,0.8628849000670016,True,21,1,0,3
Y2-S2-072M23,-,47,AS,adaptive,25,→,right,→,0.7247490999288857,True,20,1,0,3
Y2-S2-072M23,-,48,AS,adaptive,43,↑,up,↑,0.7306880997493863,True,20,1,0,3
Y2-S2-072M23,-,49,AS,adaptive,30,↓,down,↓,0.7598949000239372,True,20,1,0,3
Y2-S2-072M23,-,50,AS,adaptive,42,←,left,←,0.7214196999557316,True,19,1,0,3
Y2-S2-072M23,-,51,AS,adaptive,34,→,right,→,0.7020632000640035,True,19,1,0,3
Y2-S2-072M23,-,52,AS,adaptive,43,↑,up,↑,0.7433281000703573,True,19,1,0,3
Y2-S2-072M23,-,53,AS,adaptive,33,↓,down,↓,0.6240286999382079,True,18,1,0,3
Y2-S2-072M23,-,54,AS,adaptive,41,↑,up,↑,0.7296307003125548,True,18,1,0,3
Y2-S2-072M23,-,55,AS,adaptive,31,↓,down,↓,0.6102404999546707,True,18,1,0,3
Y2-S2-072M23,-,56,AS,adaptive,39,→,right,→,1.3376313000917435,True,17,1,0,3
Y2-S2-072M23,-,57,AS,adaptive,36,↑,up,↑,0.602156599983573,True,17,1,0,3
Y2-S2-072M23,-,58,AS,adaptive,26,←,left,←,1.5812583998776972,True,17,1,0,3
Y2-S2-072M23,-,59,AS,adaptive,28,→,right,→,0.4844202999956906,True,16,1,0,3
Y2-S2-072M23,-,60,AS,adaptive,48,↑,up,↑,0.4366065999493003,True,16,1,0,3
Y2-S2-072M23,-,61,AS,adaptive,29,↓,down,↓,0.6686133998446167,True,16,1,0,3
Y2-S2-072M23,-,62,AS,adaptive,40,↑,up,↑,0.473511700052768,True,15,1,0,3
Y2-S2-072M23,-,63,AS,adaptive,34,→,right,→,0.5383815001696348,True,15,1,0,3
Y2-S2-072M23,-,64,AS,adaptive,41,↓,down,↓,0.7663159002549946,True,15,1,0,3
Y2-S2-072M23,-,65,AS,adaptive,46,→,right,→,0.605314000044018,True,14,1,0,3
Y2-S2-072M23,-,66,AS,adaptive,32,↓,down,↓,0.5893696001730859,True,14,1,0,3
Y2-S2-072M23,-,67,AS,adaptive,43,←,left,←,0.6529676001518965,True,14,1,0,3
Y2-S2-072M23,-,68,AS,adaptive,29,↓,down,↓,0.7409955002367496,True,13,1,0,3
Y2-S2-072M23,-,69,AS,adaptive,42,→,right,→,0.44962630001828074,True,13,1,0,3
Y2-S2-072M23,-,70,AS,adaptive,39,←,right,→,0.6317427000030875,False,13,-1,1,4
Y2-S2-072M23,1,71,AS,intra_train,42,→,right,→,0.5258332998491824,True,21,-,-,-
Y2-S2-072M23,1,72,AS,intra_train,45,←,left,←,1.193662100005895,True,21,-,-,-
Y2-S2-072M23,1,73,AS,intra_train,47,↑,up,↑,0.6101635000668466,True,21,-,-,-
Y2-S2-072M23,1,74,AS,intra_train,49,←,left,←,0.5908537004143,True,21,-,-,-
Y2-S2-072M23,1,75,AS,intra_train,49,→,right,→,0.5363854998722672,True,21,-,-,-
Y2-S2-072M23,1,76,AS,exp,28,↑,up,↑,0.581420199945569,True,14,0,0,0
Y2-S2-072M23,1,77,AS,exp,34,←,left,←,0.7750415997579694,True,14,0,0,0
Y2-S2-072M23,1,78,AS,exp,26,↑,up,↑,0.6381783997640014,True,14,1,0,0
Y2-S2-072M23,1,79,AS,exp,49,←,left,←,0.6116952998563647,True,13,1,0,0
Y2-S2-072M23,1,80,AS,exp,45,→,left,←,0.7379051996394992,False,13,-1,1,1
Y2-S2-072M23,1,81,AS,exp,28,↓,down,↓,0.5109051996842027,True,14,-1,0,1
Y2-S2-072M23,1,82,AS,exp,50,→,right,→,0.591149799991399,True,14,-1,0,1
Y2-S2-072M23,1,83,AS,exp,49,←,left,←,0.5915540996938944,True,14,1,1,2
Y2-S2-072M23,1,84,AS,exp,30,↓,up,↑,0.7290369002148509,False,13,-1,1,3
Y2-S2-072M23,1,85,AS,exp,29,↑,up,↑,0.6562671000137925,True,14,-1,0,3
Y2-S2-072M23,1,86,AS,exp,34,→,left,←,0.6225986001081765,False,14,-1,0,3
Y2-S2-072M23,1,87,AS,exp,33,↑,no_key,no_letter,-1.0,False,15,-1,0,3
Y2-S2-072M23,1,88,AS,exp,25,→,no_key,no_letter,-1.0,False,16,-1,0,3
Y2-S2-072M23,1,89,AS,exp,31,↓,up,↑,0.7455969001166523,False,17,-1,0,3
Y2-S2-072M23,1,90,AS,exp,38,←,left,←,0.5453194002620876,True,18,-1,0,3
Y2-S2-072M23,1,91,AS,exp,35,↓,down,↓,0.5636261999607086,True,18,-1,0,3
Y2-S2-072M23,1,92,AS,exp,41,↑,up,↑,0.49053140031173825,True,18,1,1,4
Y2-S2-072M23,1,93,AS,exp,31,→,right,→,0.5104276002384722,True,17,1,0,4
Y2-S2-072M23,1,94,AS,exp,45,←,left,←,0.5086496998555958,True,17,1,0,4
Y2-S2-072M23,1,95,AS,exp,47,→,right,→,0.4727171999402344,True,17,1,0,4
Y2-S2-072M23,1,96,AS,exp,25,↑,up,↑,1.2076182002201676,True,16,1,0,4
Y2-S2-072M23,1,97,AS,exp,27,→,right,→,1.2857039999216795,True,16,1,0,4
Y2-S2-072M23,1,98,AS,exp,47,↑,left,←,0.7531102998182178,False,16,-1,1,5
Y2-S2-072M23,1,99,AS,exp,49,↓,down,↓,0.5222453996539116,True,17,-1,0,5
Y2-S2-072M23,1,100,AS,exp,39,←,left,←,0.6479195998981595,True,17,-1,0,5
Y2-S2-072M23,1,101,AS,exp,46,→,left,←,0.6762500000186265,False,17,-1,0,5
Y2-S2-072M23,1,102,AS,exp,30,↓,down,↓,0.5928228003904223,True,18,-1,0,5
Y2-S2-072M23,1,103,AS,exp,47,→,right,→,0.535778499674052,True,18,-1,0,5
Y2-S2-072M23,1,104,AS,exp,35,↓,down,↓,0.6141143999993801,True,18,1,1,6
Y2-S2-072M23,1,105,AS,exp,45,←,left,←,0.9541425001807511,True,17,1,0,6
Y2-S2-072M23,1,106,AS,exp,40,↑,up,↑,1.0086028999648988,True,17,1,0,6
Y2-S2-072M23,1,107,AS,exp,32,←,left,←,1.3318750001490116,True,17,1,0,6
Y2-S2-072M23,1,108,AS,exp,44,↓,down,↓,0.9484663000330329,True,16,1,0,6
Y2-S2-072M23,1,109,AS,exp,37,←,left,←,0.8397709000855684,True,16,1,0,6
Y2-S2-072M23,1,110,AS,exp,27,↑,up,↑,0.8196070999838412,True,16,1,0,6
Y2-S2-072M23,1,111,AS,exp,42,↓,down,↓,0.8016204996965826,True,15,1,0,6
Y2-S2-072M23,1,112,AS,exp,39,←,left,←,0.7641676999628544,True,15,1,0,6
Y2-S2-072M23,1,113,AS,exp,46,↑,up,↑,0.5524231996387243,True,15,1,0,6
Y2-S2-072M23,1,114,AS,exp,29,↓,down,↓,1.0405933000147343,True,14,1,0,6
Y2-S2-072M23,1,115,AS,exp,47,←,left,←,0.9353272002190351,True,14,1,0,6
Y2-S2-072M23,1,116,AS,exp,26,↑,up,↑,0.7501595001667738,True,14,1,0,6
Y2-S2-072M23,1,117,AS,exp,45,→,right,→,0.5355969998054206,True,13,1,0,6
Y2-S2-072M23,1,118,AS,exp,42,↑,left,←,0.8317295000888407,False,13,-1,1,7
Y2-S2-072M23,1,119,AS,exp,44,↓,left,←,0.7556865997612476,False,14,-1,0,7
Y2-S2-072M23,1,120,AS,exp,34,←,left,←,0.48026240011677146,True,15,-1,0,7
Y2-S2-072M23,1,121,AS,exp,32,↓,down,↓,0.7730926000513136,True,15,-1,0,7
Y2-S2-072M23,1,122,AS,exp,27,→,left,←,0.7647956004366279,False,15,-1,0,7
Y2-S2-072M23,1,123,AS,exp,39,↑,up,↑,0.5413963999599218,True,16,-1,0,7
Y2-S2-072M23,1,124,AS,exp,43,←,left,←,0.4707690002396703,True,16,-1,0,7
Y2-S2-072M23,1,125,AS,exp,41,↑,right,→,0.7538812002167106,False,16,-1,0,7
Y2-S2-072M23,1,126,AS,exp,49,↓,up,↑,0.7422275999560952,False,17,-1,0,7
Y2-S2-072M23,1,127,AS,exp,43,→,right,→,0.5815129997208714,True,18,-1,0,7
Y2-S2-072M23,1,128,AS,exp,25,↑,up,↑,0.5678798998706043,True,18,-1,0,7
Y2-S2-072M23,1,129,AS,exp,32,↓,down,↓,0.7018605000339448,True,18,1,1,8
Y2-S2-072M23,1,130,AS,exp,35,←,left,←,0.5048873000778258,True,17,1,0,8
Y2-S2-072M23,1,131,AS,exp,46,↓,down,↓,0.5654513998888433,True,17,1,0,8
Y2-S2-072M23,1,132,AS,exp,36,↑,up,↑,0.6525121000595391,True,17,1,0,8
Y2-S2-072M23,1,133,AS,exp,26,←,left,←,0.5236241002567112,True,16,1,0,8
Y2-S2-072M23,1,134,AS,exp,50,↑,up,↑,0.5366446999832988,True,16,1,0,8
Y2-S2-072M23,1,135,AS,exp,49,↓,down,↓,0.6580817997455597,True,16,1,0,8
Y2-S2-072M23,1,136,AS,exp,27,←,left,←,0.6403556000441313,True,15,1,0,8
Y2-S2-072M23,1,137,AS,exp,29,↓,down,↓,0.609617399983108,True,15,1,0,8
Y2-S2-072M23,1,138,AS,exp,25,←,left,←,0.5035283002071083,True,15,1,0,8
Y2-S2-072M23,1,139,AS,exp,49,→,down,↓,0.6911114999093115,False,14,-1,1,9
Y2-S2-072M23,1,140,AS,exp,49,↓,down,↓,0.6185796000063419,True,15,-1,0,9
Y2-S2-072M23,1,141,AS,exp,25,→,right,→,0.7143653002567589,True,15,-1,0,9
Y2-S2-072M23,1,142,AS,exp,45,←,left,←,0.5229689003899693,True,15,1,1,10
Y2-S2-072M23,1,143,AS,exp,41,↑,up,↑,0.5506030996330082,True,14,1,0,10
Y2-S2-072M23,1,144,AS,exp,43,←,left,←,0.5756202000193298,True,14,1,0,10
Y2-S2-072M23,1,145,AS,exp,26,↓,down,↓,0.7210335000418127,True,14,1,0,10
Y2-S2-072M23,1,146,AS,exp,32,→,left,←,0.7049070000648499,False,13,-1,1,11
Y2-S2-072M23,1,147,AS,exp,33,↑,up,↑,0.42688939999789,True,14,-1,0,11
Y2-S2-072M23,1,148,AS,exp,49,↓,down,↓,0.707179999910295,True,14,-1,0,11
Y2-S2-072M23,1,149,AS,exp,25,←,left,←,0.5695285000838339,True,14,1,1,12
Y2-S2-072M23,1,150,AS,exp,48,↓,down,↓,0.7037360998801887,True,13,1,0,12
Y2-S2-072M23,1,151,AS,exp,44,→,right,→,0.4502456998452544,True,13,1,0,12
Y2-S2-072M23,1,152,AS,exp,37,↑,down,↓,0.6367241996340454,False,13,-1,1,13
Y2-S2-072M23,1,153,AS,exp,32,↓,down,↓,0.4789940002374351,True,14,-1,0,13
Y2-S2-072M23,1,154,AS,exp,48,←,left,←,0.5836119996383786,True,14,-1,0,13
Y2-S2-072M23,1,155,AS,exp,36,↑,up,↑,0.5136270998045802,True,14,1,1,14
Y2-S2-072M23,1,156,AS,exp,37,→,right,→,0.47077960008755326,True,13,1,0,14
Y2-S2-072M23,1,157,AS,exp,50,↓,down,↓,0.7316251001320779,True,13,1,0,14
Y2-S2-072M23,1,158,AS,exp,33,↑,up,↑,0.5797183997929096,True,13,1,0,14
Y2-S2-072M23,1,159,AS,exp,42,↓,down,↓,0.8237261003814638,True,12,1,0,14
Y2-S2-072M23,1,160,AS,exp,44,←,left,←,0.4611082002520561,True,12,1,0,14
Y2-S2-072M23,1,161,AS,exp,32,↓,down,↓,0.49595450004562736,True,12,1,0,14
Y2-S2-072M23,1,162,AS,exp,37,↑,up,↑,0.5372573002241552,True,11,1,0,14
Y2-S2-072M23,1,163,AS,exp,37,→,left,←,0.8165790997445583,False,11,-1,1,15
Y2-S2-072M23,1,164,AS,exp,41,↑,up,↑,0.5006961999461055,True,12,-1,0,15
Y2-S2-072M23,1,165,AS,exp,42,←,down,↓,0.991200499702245,False,12,-1,0,15
Y2-S2-072M23,1,166,AS,exp,33,↑,up,↑,0.6584346001036465,True,13,-1,0,15
Y2-S2-072M23,1,167,AS,exp,26,↓,right,→,0.7175697004422545,False,13,-1,0,15
Y2-S2-072M23,1,168,AS,exp,35,←,left,←,0.8769044000655413,True,14,-1,0,15
Y2-S2-072M23,1,169,AS,exp,43,→,right,→,0.5453691999427974,True,14,-1,0,15
Y2-S2-072M23,1,170,AS,exp,33,←,left,←,0.6316849999129772,True,14,1,1,16
Y2-S2-072M23,2,171,PS,intra_train,46,↓,down,↓,0.5387854003347456,True,16,-,-,-
Y2-S2-072M23,2,172,PS,intra_train,46,→,right,→,0.4923839997500181,True,16,-,-,-
Y2-S2-072M23,2,173,PS,intra_train,35,↓,down,↓,0.6514940001070499,True,16,-,-,-
Y2-S2-072M23,2,174,PS,intra_train,49,←,left,←,0.6778820999898016,True,16,-,-,-
Y2-S2-072M23,2,175,PS,intra_train,34,↓,down,↓,0.7867080001160502,True,16,-,-,-
Y2-S2-072M23,2,176,PS,exp,49,→,right,→,0.4972572000697255,True,11,0,0,0
Y2-S2-072M23,2,177,PS,exp,50,↑,down,↓,1.009642199613154,False,11,-1,0,0
Y2-S2-072M23,2,178,PS,exp,38,↓,down,↓,0.4502277998253703,True,12,-1,0,0
Y2-S2-072M23,2,179,PS,exp,36,→,right,→,0.5083507001399994,True,12,-1,0,0
Y2-S2-072M23,2,180,PS,exp,31,←,right,→,0.49215100007131696,False,12,-1,0,0
Y2-S2-072M23,2,181,PS,exp,49,↑,down,↓,0.7552720997482538,False,13,-1,0,0
Y2-S2-072M23,2,182,PS,exp,32,↓,down,↓,0.5112800002098083,True,14,-1,0,0
Y2-S2-072M23,2,183,PS,exp,31,↑,up,↑,0.8559426004067063,True,14,-1,0,0
Y2-S2-072M23,2,184,PS,exp,31,→,right,→,1.2227916000410914,True,14,1,1,1
Y2-S2-072M23,2,185,PS,exp,42,←,right,→,0.9040045002475381,False,13,-1,1,2
Y2-S2-072M23,2,186,PS,exp,31,↓,down,↓,0.57002989994362,True,14,-1,0,2
Y2-S2-072M23,2,187,PS,exp,32,↑,up,↑,0.567771399859339,True,14,-1,0,2
Y2-S2-072M23,2,188,PS,exp,29,←,right,→,0.43835650011897087,False,14,-1,0,2
Y2-S2-072M23,2,189,PS,exp,48,↑,up,↑,0.4341450999490917,True,15,-1,0,2
Y2-S2-072M23,2,190,PS,exp,26,↓,down,↓,0.591926499735564,True,15,-1,0,2
Y2-S2-072M23,2,191,PS,exp,38,↑,up,↑,0.554060600232333,True,15,1,1,3
Y2-S2-072M23,2,192,PS,exp,45,←,left,←,0.4688353999517858,True,14,1,0,3
Y2-S2-072M23,2,193,PS,exp,40,↓,down,↓,0.8021432999521494,True,14,1,0,3
Y2-S2-072M23,2,194,PS,exp,45,←,left,←,0.6357515999116004,True,14,1,0,3
Y2-S2-072M23,2,195,PS,exp,39,↓,down,↓,0.5887687001377344,True,13,1,0,3
Y2-S2-072M23,2,196,PS,exp,48,←,left,←,0.46716029988601804,True,13,1,0,3
Y2-S2-072M23,2,197,PS,exp,41,→,right,→,0.5829198001883924,True,13,1,0,3
Y2-S2-072M23,2,198,PS,exp,38,←,left,←,0.6494506001472473,True,12,1,0,3
Y2-S2-072M23,2,199,PS,exp,33,→,right,→,0.6992951999418437,True,12,1,0,3
Y2-S2-072M23,2,200,PS,exp,43,↑,up,↑,0.5697855004109442,True,12,1,0,3
Y2-S2-072M23,2,201,PS,exp,31,↓,down,↓,0.7091078003868461,True,11,1,0,3
Y2-S2-072M23,2,202,PS,exp,48,↑,up,↑,0.48660249961540103,True,11,1,0,3
Y2-S2-072M23,2,203,PS,exp,41,←,right,→,0.8447277001105249,False,11,-1,1,4
Y2-S2-072M23,2,204,PS,exp,41,↓,down,↓,0.7162604001350701,True,12,-1,0,4
Y2-S2-072M23,2,205,PS,exp,36,→,right,→,0.4589132000692189,True,12,-1,0,4
Y2-S2-072M23,2,206,PS,exp,40,←,left,←,0.5230411002412438,True,12,1,1,5
Y2-S2-072M23,2,207,PS,exp,46,→,right,→,0.41559410002082586,True,11,1,0,5
Y2-S2-072M23,2,208,PS,exp,39,↑,up,↑,0.6912544998340309,True,11,1,0,5
Y2-S2-072M23,2,209,PS,exp,45,←,left,←,0.5623316001147032,True,11,1,0,5
Y2-S2-072M23,2,210,PS,exp,30,↑,right,→,0.7212120001204312,False,10,-1,1,6
Y2-S2-072M23,2,211,PS,exp,49,←,left,←,0.5578738003969193,True,11,-1,0,6
Y2-S2-072M23,2,212,PS,exp,41,↑,left,←,0.8087571002542973,False,11,-1,0,6
Y2-S2-072M23,2,213,PS,exp,39,↓,up,↑,0.639357500243932,False,12,-1,0,6
Y2-S2-072M23,2,214,PS,exp,43,←,right,→,0.3959548003040254,False,13,-1,0,6
Y2-S2-072M23,2,215,PS,exp,45,→,right,→,0.5952694998122752,True,14,-1,0,6
Y2-S2-072M23,2,216,PS,exp,46,↑,up,↑,0.4836784000508487,True,14,-1,0,6
Y2-S2-072M23,2,217,PS,exp,48,↓,up,↑,0.8241419000551105,False,14,-1,0,6
Y2-S2-072M23,2,218,PS,exp,44,←,left,←,0.4780987002886832,True,15,-1,0,6
Y2-S2-072M23,2,219,PS,exp,27,↑,down,↓,0.7704314002767205,False,15,-1,0,6
Y2-S2-072M23,2,220,PS,exp,43,←,left,←,1.2739570997655392,True,16,-1,0,6
Y2-S2-072M23,2,221,PS,exp,27,↑,up,↑,1.0855362000875175,True,16,-1,0,6
Y2-S2-072M23,2,222,PS,exp,26,→,right,→,0.5161265996284783,True,16,1,1,7
Y2-S2-072M23,2,223,PS,exp,44,←,left,←,0.5800133002921939,True,15,1,0,7
Y2-S2-072M23,2,224,PS,exp,37,↑,right,→,0.8882053000852466,False,15,-1,1,8
Y2-S2-072M23,2,225,PS,exp,31,→,right,→,0.5225005997344851,True,16,-1,0,8
Y2-S2-072M23,2,226,PS,exp,39,↑,up,↑,0.5518069001846015,True,16,-1,0,8
Y2-S2-072M23,2,227,PS,exp,29,←,right,→,0.4467740999534726,False,16,-1,0,8
Y2-S2-072M23,2,228,PS,exp,43,↓,down,↓,0.7792813000269234,True,17,-1,0,8
Y2-S2-072M23,2,229,PS,exp,46,↑,up,↑,0.7142863003537059,True,17,-1,0,8
Y2-S2-072M23,2,230,PS,exp,25,→,right,→,0.4811257002875209,True,17,1,1,9
Y2-S2-072M23,2,231,PS,exp,49,↑,up,↑,0.5040108999237418,True,16,1,0,9
Y2-S2-072M23,2,232,PS,exp,26,↓,right,→,1.2222996996715665,False,16,-1,1,10
Y2-S2-072M23,2,233,PS,exp,26,↑,up,↑,0.6402528998441994,True,17,-1,0,10
Y2-S2-072M23,2,234,PS,exp,41,←,left,←,0.47209930000826716,True,17,-1,0,10
Y2-S2-072M23,2,235,PS,exp,32,↓,down,↓,0.8569100997410715,True,17,1,1,11
Y2-S2-072M23,2,236,PS,exp,44,↑,right,→,0.9019522997550666,False,16,-1,1,12
Y2-S2-072M23,2,237,PS,exp,49,→,right,→,0.6163874003104866,True,17,-1,0,12
Y2-S2-072M23,2,238,PS,exp,35,↑,up,↑,0.5762221999466419,True,17,-1,0,12
Y2-S2-072M23,2,239,PS,exp,41,→,right,→,0.49358309991657734,True,17,1,1,13
Y2-S2-072M23,2,240,PS,exp,42,↑,up,↑,0.5944246998988092,True,16,1,0,13
Y2-S2-072M23,2,241,PS,exp,47,←,left,←,0.7505879998207092,True,16,1,0,13
Y2-S2-072M23,2,242,PS,exp,46,↓,down,↓,1.615945199970156,True,16,1,0,13
Y2-S2-072M23,2,243,PS,exp,34,→,right,→,0.4921523001976311,True,15,1,0,13
Y2-S2-072M23,2,244,PS,exp,36,←,left,←,0.49224899988621473,True,15,1,0,13
Y2-S2-072M23,2,245,PS,exp,48,↓,down,↓,0.6814736998640001,True,15,1,0,13
Y2-S2-072M23,2,246,PS,exp,50,→,right,→,0.5420035999268293,True,14,1,0,13
Y2-S2-072M23,2,247,PS,exp,41,↓,down,↓,0.7290282002650201,True,14,1,0,13
Y2-S2-072M23,2,248,PS,exp,47,→,left,←,0.923454400151968,False,14,-1,1,14
Y2-S2-072M23,2,249,PS,exp,28,↓,down,↓,0.8421626999042928,True,15,-1,0,14
Y2-S2-072M23,2,250,PS,exp,34,←,left,←,0.7576616001315415,True,15,-1,0,14
Y2-S2-072M23,2,251,PS,exp,41,↓,down,↓,0.6795009998604655,True,15,1,1,15
Y2-S2-072M23,2,252,PS,exp,35,←,left,←,0.6615707003511488,True,14,1,0,15
Y2-S2-072M23,2,253,PS,exp,40,↑,left,←,1.0332906004041433,False,14,-1,1,16
Y2-S2-072M23,3,254,PS,intra_train,31,↓,down,↓,0.5944825001060963,True,16,-,-,-
Y2-S2-072M23,3,255,PS,intra_train,48,←,left,←,0.5976974000222981,True,16,-,-,-
Y2-S2-072M23,3,256,PS,intra_train,45,↓,down,↓,0.7307187002152205,True,16,-,-,-
Y2-S2-072M23,3,257,PS,intra_train,41,←,left,←,0.5952837998047471,True,16,-,-,-
Y2-S2-072M23,3,258,PS,intra_train,45,↑,up,↑,0.5020168996416032,True,16,-,-,-
Y2-S2-072M23,3,259,PS,exp,27,↓,down,↓,0.6536107999272645,True,11,0,0,0
Y2-S2-072M23,3,260,PS,exp,26,↑,up,↑,0.6277677998878062,True,11,0,0,0
Y2-S2-072M23,3,261,PS,exp,31,↓,down,↓,0.6026125997304916,True,11,1,0,0
Y2-S2-072M23,3,262,PS,exp,39,←,left,←,0.5612814002670348,True,10,1,0,0
Y2-S2-072M23,3,263,PS,exp,41,→,right,→,0.4837381998077035,True,10,1,0,0
Y2-S2-072M23,3,264,PS,exp,38,↑,up,↑,0.49353779992088675,True,10,1,0,0
Y2-S2-072M23,3,265,PS,exp,39,→,left,←,1.002885800320655,False,9,-1,1,1
Y2-S2-072M23,3,266,PS,exp,44,←,left,←,0.581500000320375,True,10,-1,0,1
Y2-S2-072M23,3,267,PS,exp,46,↑,up,↑,0.5059814997948706,True,10,-1,0,1
Y2-S2-072M23,3,268,PS,exp,36,→,right,→,0.5568423001095653,True,10,1,1,2
Y2-S2-072M23,3,269,PS,exp,47,↓,down,↓,0.9296879000030458,True,9,1,0,2
Y2-S2-072M23,3,270,PS,exp,27,↑,up,↑,0.6320178997702897,True,9,1,0,2
Y2-S2-072M23,3,271,PS,exp,45,←,left,←,0.5050765001215041,True,9,1,0,2
Y2-S2-072M23,3,272,PS,exp,38,→,right,→,0.47077229991555214,True,8,1,0,2
Y2-S2-072M23,3,273,PS,exp,48,↑,up,↑,0.6042924001812935,True,8,1,0,2
Y2-S2-072M23,3,274,PS,exp,31,→,right,→,0.7172362999990582,True,8,1,0,2
Y2-S2-072M23,3,275,PS,exp,42,↓,right,→,0.8275955999270082,False,7,-1,1,3
Y2-S2-072M23,3,276,PS,exp,29,→,right,→,0.5786215998232365,True,8,-1,0,3
Y2-S2-072M23,3,277,PS,exp,30,←,right,→,0.5546128996647894,False,8,-1,0,3
Y2-S2-072M23,3,278,PS,exp,46,↑,up,↑,0.5286312000826001,True,9,-1,0,3
Y2-S2-072M23,3,279,PS,exp,33,↓,down,↓,0.6360877999104559,True,9,-1,0,3
Y2-S2-072M23,3,280,PS,exp,49,→,right,→,0.5242019998840988,True,9,1,1,4
Y2-S2-072M23,3,281,PS,exp,32,↑,right,→,0.7663329998031259,False,8,-1,1,5
Y2-S2-072M23,3,282,PS,exp,45,→,right,→,0.6398115996271372,True,9,-1,0,5
Y2-S2-072M23,3,283,PS,exp,38,↑,down,↓,1.3364390996284783,False,9,-1,0,5
Y2-S2-072M23,3,284,PS,exp,25,→,right,→,0.46291489992290735,True,10,-1,0,5
Y2-S2-072M23,3,285,PS,exp,34,↑,up,↑,0.5062033999711275,True,10,-1,0,5
Y2-S2-072M23,3,286,PS,exp,45,→,right,→,0.4257720997557044,True,10,1,1,6
Y2-S2-072M23,3,287,PS,exp,49,↓,right,→,0.6807177998125553,False,9,-1,1,7
Y2-S2-072M23,3,288,PS,exp,49,→,right,→,0.438128300011158,True,10,-1,0,7
Y2-S2-072M23,3,289,PS,exp,33,↑,up,↑,0.6036374000832438,True,10,-1,0,7
Y2-S2-072M23,3,290,PS,exp,44,←,left,←,0.6906054997816682,True,10,1,1,8
Y2-S2-072M23,3,291,PS,exp,28,↑,up,↑,0.6926128002814949,True,9,1,0,8
Y2-S2-072M23,3,292,PS,exp,48,←,left,←,0.6173724001273513,True,9,1,0,8
Y2-S2-072M23,3,293,PS,exp,32,↓,right,→,0.8717852998524904,False,9,-1,1,9
Y2-S2-072M23,3,294,PS,exp,40,→,right,→,0.4868658999912441,True,10,-1,0,9
Y2-S2-072M23,3,295,PS,exp,29,←,left,←,0.5332448999397457,True,10,-1,0,9
Y2-S2-072M23,3,296,PS,exp,40,↑,left,←,0.801638400182128,False,10,-1,0,9
Y2-S2-072M23,3,297,PS,exp,25,→,right,→,0.4532957999035716,True,11,-1,0,9
Y2-S2-072M23,3,298,PS,exp,26,↑,up,↑,0.49551420006901026,True,11,-1,0,9
Y2-S2-072M23,3,299,PS,exp,30,←,left,←,0.4998349999077618,True,11,1,1,10
Y2-S2-072M23,3,300,PS,exp,49,→,right,→,0.5068426998332143,True,10,1,0,10
Y2-S2-072M23,3,301,PS,exp,26,↑,left,←,0.8251284998841584,False,10,-1,1,11
Y2-S2-072M23,3,302,PS,exp,40,→,right,→,0.5315594002604485,True,11,-1,0,11
Y2-S2-072M23,3,303,PS,exp,27,←,right,→,0.6522232000716031,False,11,-1,0,11
Y2-S2-072M23,3,304,PS,exp,39,↑,up,↑,0.5886840997263789,True,12,-1,0,11
Y2-S2-072M23,3,305,PS,exp,27,→,right,→,0.5949312001466751,True,12,-1,0,11
Y2-S2-072M23,3,306,PS,exp,29,↑,up,↑,0.6261760997585952,True,12,1,1,12
Y2-S2-072M23,3,307,PS,exp,47,↓,right,→,0.7255186997354031,False,11,-1,1,13
Y2-S2-072M23,3,308,PS,exp,50,←,left,←,0.907258799765259,True,12,-1,0,13
Y2-S2-072M23,3,309,PS,exp,37,↓,down,↓,1.0016654999926686,True,12,-1,0,13
Y2-S2-072M23,3,310,PS,exp,48,←,right,→,0.5681194001808763,False,12,-1,0,13
Y2-S2-072M23,3,311,PS,exp,46,↑,up,↑,0.6000045002438128,True,13,-1,0,13
Y2-S2-072M23,3,312,PS,exp,42,↓,down,↓,0.8476036000065506,True,13,-1,0,13
Y2-S2-072M23,3,313,PS,exp,39,←,left,←,0.49290650011971593,True,13,1,1,14
Y2-S2-072M23,3,314,PS,exp,29,↑,up,↑,0.4798910999670625,True,12,1,0,14
Y2-S2-072M23,3,315,PS,exp,30,←,left,←,0.5074964999221265,True,12,1,0,14
Y2-S2-072M23,3,316,PS,exp,50,↓,down,↓,0.8106164000928402,True,12,1,0,14
Y2-S2-072M23,3,317,PS,exp,29,←,down,↓,1.170258500147611,False,11,-1,1,15
Y2-S2-072M23,3,318,PS,exp,36,↑,up,↑,0.5752809001132846,True,12,-1,0,15
Y2-S2-072M23,3,319,PS,exp,47,←,left,←,0.6784888999536633,True,12,-1,0,15
Y2-S2-072M23,3,320,PS,exp,49,↓,right,→,0.9040373996831477,False,12,-1,0,15
Y2-S2-072M23,3,321,PS,exp,50,↑,up,↑,1.1413661995902658,True,13,-1,0,15
Y2-S2-072M23,3,322,PS,exp,29,→,right,→,0.6161041995510459,True,13,-1,0,15
Y2-S2-072M23,3,323,PS,exp,33,←,left,←,0.8650345001369715,True,13,1,1,16
Y2-S2-072M23,4,324,AS,intra_train,50,↓,down,↓,0.713444400113076,True,21,-,-,-
Y2-S2-072M23,4,325,AS,intra_train,41,←,left,←,0.6077189999632537,True,21,-,-,-
Y2-S2-072M23,4,326,AS,intra_train,43,↑,up,↑,0.5372331002727151,True,21,-,-,-
Y2-S2-072M23,4,327,AS,intra_train,29,←,left,←,0.6638719998300076,True,21,-,-,-
Y2-S2-072M23,4,328,AS,intra_train,39,↑,down,↓,1.5027649998664856,False,21,-,-,-
Y2-S2-072M23,4,329,AS,exp,42,←,up,↑,0.6844963999465108,False,14,-1,0,0
Y2-S2-072M23,4,330,AS,exp,41,↓,right,→,0.7801602003164589,False,15,-1,0,0
Y2-S2-072M23,4,331,AS,exp,25,→,left,←,1.0121875000186265,False,16,-1,0,0
Y2-S2-072M23,4,332,AS,exp,38,↑,up,↑,0.4547302001155913,True,17,-1,0,0
Y2-S2-072M23,4,333,AS,exp,40,→,right,→,0.7044047997333109,True,17,-1,0,0
Y2-S2-072M23,4,334,AS,exp,41,↓,down,↓,0.6241111000999808,True,17,1,1,1
Y2-S2-072M23,4,335,AS,exp,50,←,right,→,0.544979500118643,False,16,-1,1,2
Y2-S2-072M23,4,336,AS,exp,31,↑,up,↑,0.5494889002293348,True,17,-1,0,2
Y2-S2-072M23,4,337,AS,exp,29,↓,down,↓,0.6823112000711262,True,17,-1,0,2
Y2-S2-072M23,4,338,AS,exp,33,↑,up,↑,0.5980910998769104,True,17,1,1,3
Y2-S2-072M23,4,339,AS,exp,31,↓,down,↓,0.7071536001749337,True,16,1,0,3
Y2-S2-072M23,4,340,AS,exp,30,←,right,→,0.7566877999342978,False,16,-1,1,4
Y2-S2-072M23,4,341,AS,exp,44,↑,down,↓,0.7772540999576449,False,17,-1,0,4
Y2-S2-072M23,4,342,AS,exp,39,↓,right,→,1.0332475998438895,False,18,-1,0,4
Y2-S2-072M23,4,343,AS,exp,38,↑,up,↑,0.6470011998899281,True,19,-1,0,4
Y2-S2-072M23,4,344,AS,exp,25,←,left,←,0.912761399988085,True,19,-1,0,4
Y2-S2-072M23,4,345,AS,exp,25,↑,up,↑,1.2162080998532474,True,19,1,1,5
Y2-S2-072M23,4,346,AS,exp,37,→,left,←,0.7449733996763825,False,18,-1,1,6
Y2-S2-072M23,4,347,AS,exp,39,←,left,←,0.7339160996489227,True,19,-1,0,6
Y2-S2-072M23,4,348,AS,exp,41,↑,up,↑,0.5592892998829484,True,19,-1,0,6
Y2-S2-072M23,4,349,AS,exp,35,←,left,←,0.8019061000086367,True,19,1,1,7
Y2-S2-072M23,4,350,AS,exp,41,↑,up,↑,0.541075199842453,True,18,1,0,7
Y2-S2-072M23,4,351,AS,exp,38,→,right,→,0.48935180017724633,True,18,1,0,7
Y2-S2-072M23,4,352,AS,exp,26,↓,down,↓,0.9922249000519514,True,18,1,0,7
Y2-S2-072M23,4,353,AS,exp,33,↑,left,←,0.8253735997714102,False,17,-1,1,8
Y2-S2-072M23,4,354,AS,exp,28,↓,down,↓,0.9049053001217544,True,18,-1,0,8
Y2-S2-072M23,4,355,AS,exp,37,→,right,→,0.5233949003741145,True,18,-1,0,8
Y2-S2-072M23,4,356,AS,exp,50,↑,up,↑,0.4741757996380329,True,18,1,1,9
Y2-S2-072M23,4,357,AS,exp,45,←,left,←,0.6308246003463864,True,17,1,0,9
Y2-S2-072M23,4,358,AS,exp,26,→,left,←,0.7569137001410127,False,17,-1,1,10
Y2-S2-072M23,4,359,AS,exp,42,↑,left,←,0.8685522000305355,False,18,-1,0,10
Y2-S2-072M23,4,360,AS,exp,50,→,left,←,0.9076004000380635,False,19,-1,0,10
Y2-S2-072M23,4,361,AS,exp,50,↓,down,↓,0.923358999658376,True,20,-1,0,10
Y2-S2-072M23,4,362,AS,exp,31,←,left,←,0.7104740999639034,True,20,-1,0,10
Y2-S2-072M23,4,363,AS,exp,33,→,right,→,0.5058169001713395,True,20,1,1,11
Y2-S2-072M23,4,364,AS,exp,33,↓,down,↓,1.0123741002753377,True,19,1,0,11
Y2-S2-072M23,4,365,AS,exp,41,→,right,→,0.6621034001000226,True,19,1,0,11
Y2-S2-072M23,4,366,AS,exp,33,←,left,←,0.9081930001266301,True,19,1,0,11
Y2-S2-072M23,4,367,AS,exp,25,→,down,↓,0.8022675001993775,False,18,-1,1,12
Y2-S2-072M23,4,368,AS,exp,49,↑,up,↑,1.1246632002294064,True,19,-1,0,12
Y2-S2-072M23,4,369,AS,exp,46,←,left,←,0.8033392000943422,True,19,-1,0,12
Y2-S2-072M23,4,370,AS,exp,34,→,right,→,0.6632570996880531,True,19,1,1,13
Y2-S2-072M23,4,371,AS,exp,39,↑,left,←,0.7797607001848519,False,18,-1,1,14
Y2-S2-072M23,4,372,AS,exp,48,←,right,→,0.7481390000320971,False,19,-1,0,14
Y2-S2-072M23,4,373,AS,exp,42,↓,down,↓,0.8591845002956688,True,20,-1,0,14
Y2-S2-072M23,4,374,AS,exp,32,→,right,→,0.7649099002592266,True,20,-1,0,14
Y2-S2-072M23,4,375,AS,exp,46,↓,down,↓,0.9127492001280189,True,20,1,1,15
Y2-S2-072M23,4,376,AS,exp,43,→,right,→,0.6809768998064101,True,19,1,0,15
Y2-S2-072M23,4,377,AS,exp,42,←,left,←,0.6709881001152098,True,19,1,0,15
Y2-S2-072M23,4,378,AS,exp,32,→,right,→,1.0821478995494545,True,19,1,0,15
Y2-S2-072M23,4,379,AS,exp,27,←,left,←,0.763915800023824,True,18,1,0,15
Y2-S2-072M23,4,380,AS,exp,46,→,right,→,0.9088854002766311,True,18,1,0,15
Y2-S2-072M23,4,381,AS,exp,39,↑,up,↑,0.568403699900955,True,18,1,0,15
Y2-S2-072M23,4,382,AS,exp,25,↓,up,↑,0.8811730998568237,False,17,-1,1,16
Y2-S2-072M23,5,383,AS,intra_train,35,↑,up,↑,0.6806550999172032,True,21,-,-,-
Y2-S2-072M23,5,384,AS,intra_train,26,↓,down,↓,0.6223644996061921,True,21,-,-,-
Y2-S2-072M23,5,385,AS,intra_train,30,→,right,→,0.5443579000420868,True,21,-,-,-
Y2-S2-072M23,5,386,AS,intra_train,41,↑,up,↑,0.7005280996672809,True,21,-,-,-
Y2-S2-072M23,5,387,AS,intra_train,49,←,left,←,0.6964477999135852,True,21,-,-,-
Y2-S2-072M23,5,388,AS,exp,33,→,right,→,0.5798519002273679,True,14,0,0,0
Y2-S2-072M23,5,389,AS,exp,35,↑,left,←,0.7834956999868155,False,14,-1,0,0
Y2-S2-072M23,5,390,AS,exp,28,↓,down,↓,0.8849451001733541,True,15,-1,0,0
Y2-S2-072M23,5,391,AS,exp,30,→,right,→,0.48478930024430156,True,15,-1,0,0
Y2-S2-072M23,5,392,AS,exp,45,←,left,←,0.68580810027197,True,15,1,1,1
Y2-S2-072M23,5,393,AS,exp,41,↓,right,→,0.7388429995626211,False,14,-1,1,2
Y2-S2-072M23,5,394,AS,exp,43,→,right,→,0.9586439002305269,True,15,-1,0,2
Y2-S2-072M23,5,395,AS,exp,36,↓,down,↓,0.6780182002112269,True,15,-1,0,2
Y2-S2-072M23,5,396,AS,exp,37,→,right,→,0.5173394996672869,True,15,1,1,3
Y2-S2-072M23,5,397,AS,exp,46,↓,up,↑,0.45666699996218085,False,14,-1,1,4
Y2-S2-072M23,5,398,AS,exp,49,←,left,←,0.5586282997392118,True,15,-1,0,4
Y2-S2-072M23,5,399,AS,exp,31,→,right,→,0.475881100166589,True,15,-1,0,4
Y2-S2-072M23,5,400,AS,exp,48,←,left,←,0.6160337002947927,True,15,1,1,5
Y2-S2-072M23,5,401,AS,exp,42,→,left,←,0.8876033001579344,False,14,-1,1,6
Y2-S2-072M23,5,402,AS,exp,32,↑,right,→,0.9407513001933694,False,15,-1,0,6
Y2-S2-072M23,5,403,AS,exp,48,←,down,↓,0.89646300021559,False,16,-1,0,6
Y2-S2-072M23,5,404,AS,exp,28,↓,down,↓,0.6642865999601781,True,17,-1,0,6
Y2-S2-072M23,5,405,AS,exp,44,→,right,→,0.4535497003234923,True,17,-1,0,6
Y2-S2-072M23,5,406,AS,exp,49,←,left,←,0.6090627000667155,True,17,1,1,7
Y2-S2-072M23,5,407,AS,exp,28,↓,down,↓,0.7063906001858413,True,16,1,0,7
Y2-S2-072M23,5,408,AS,exp,28,↑,up,↑,0.5047661997377872,True,16,1,0,7
Y2-S2-072M23,5,409,AS,exp,34,↓,left,←,0.6414939998649061,False,16,-1,1,8
Y2-S2-072M23,5,410,AS,exp,29,→,right,→,0.41785299964249134,True,17,-1,0,8
Y2-S2-072M23,5,411,AS,exp,26,↑,up,↑,0.589648500084877,True,17,-1,0,8
Y2-S2-072M23,5,412,AS,exp,29,←,left,←,0.649858099874109,True,17,1,1,9
Y2-S2-072M23,5,413,AS,exp,39,→,left,←,0.6239086003042758,False,16,-1,1,10
Y2-S2-072M23,5,414,AS,exp,29,←,left,←,0.4803523998707533,True,17,-1,0,10
Y2-S2-072M23,5,415,AS,exp,27,↓,down,↓,0.7170118000358343,True,17,-1,0,10
Y2-S2-072M23,5,416,AS,exp,35,→,right,→,0.750511399935931,True,17,1,1,11
Y2-S2-072M23,5,417,AS,exp,37,↑,up,↑,0.5983456997200847,True,16,1,0,11
Y2-S2-072M23,5,418,AS,exp,40,↓,down,↓,0.7268882002681494,True,16,1,0,11
Y2-S2-072M23,5,419,AS,exp,29,→,right,→,0.6880276999436319,True,16,1,0,11
Y2-S2-072M23,5,420,AS,exp,36,↓,left,←,0.7068247003480792,False,15,-1,1,12
Y2-S2-072M23,5,421,AS,exp,46,→,right,→,0.5850023999810219,True,16,-1,0,12
Y2-S2-072M23,5,422,AS,exp,41,↑,down,↓,1.2134604998864233,False,16,-1,0,12
Y2-S2-072M23,5,423,AS,exp,34,↓,down,↓,0.8081657001748681,True,17,-1,0,12
Y2-S2-072M23,5,424,AS,exp,46,←,left,←,0.7922836998477578,True,17,-1,0,12
Y2-S2-072M23,5,425,AS,exp,37,↑,up,↑,0.8675138000398874,True,17,1,1,13
Y2-S2-072M23,5,426,AS,exp,46,←,right,→,1.3062603999860585,False,16,-1,1,14
Y2-S2-072M23,5,427,AS,exp,25,↑,up,↑,0.6073020002804697,True,17,-1,0,14
Y2-S2-072M23,5,428,AS,exp,47,↓,down,↓,0.7113533997908235,True,17,-1,0,14
Y2-S2-072M23,5,429,AS,exp,35,→,right,→,0.6655764998868108,True,17,1,1,15
Y2-S2-072M23,5,430,AS,exp,43,←,left,←,0.955279499758035,True,16,1,0,15
Y2-S2-072M23,5,431,AS,exp,28,↓,down,↓,0.7316685998812318,True,16,1,0,15
Y2-S2-072M23,5,432,AS,exp,26,→,right,→,0.5416358998045325,True,16,1,0,15
Y2-S2-072M23,5,433,AS,exp,38,←,left,←,0.49529189988970757,True,15,1,0,15
Y2-S2-072M23,5,434,AS,exp,25,↑,right,→,0.7581064002588391,False,15,-1,1,16
Y2-S2-072M23,6,435,PS,intra_train,31,↓,down,↓,0.6816332000307739,True,16,-,-,-
Y2-S2-072M23,6,436,PS,intra_train,42,↑,up,↑,0.4510332001373172,True,16,-,-,-
Y2-S2-072M23,6,437,PS,intra_train,45,→,left,←,0.8809571997262537,False,16,-,-,-
Y2-S2-072M23,6,438,PS,intra_train,37,↓,right,→,0.5529789999127388,False,16,-,-,-
Y2-S2-072M23,6,439,PS,intra_train,43,→,right,→,1.2033510999754071,True,16,-,-,-
Y2-S2-072M23,6,440,PS,exp,44,↑,left,←,0.6787515999749303,False,11,-1,0,0
Y2-S2-072M23,6,441,PS,exp,49,↓,down,↓,1.1037141000851989,True,12,-1,0,0
Y2-S2-072M23,6,442,PS,exp,44,↑,right,→,0.7970007001422346,False,12,-1,0,0
Y2-S2-072M23,6,443,PS,exp,43,←,left,←,0.44664059998467565,True,13,-1,0,0
Y2-S2-072M23,6,444,PS,exp,40,↓,down,↓,0.5839680996723473,True,13,-1,0,0
Y2-S2-072M23,6,445,PS,exp,40,←,left,←,0.470773299690336,True,13,1,1,1
Y2-S2-072M23,6,446,PS,exp,50,→,right,→,0.48030220018699765,True,12,1,0,1
Y2-S2-072M23,6,447,PS,exp,28,←,left,←,0.527993299998343,True,12,1,0,1
Y2-S2-072M23,6,448,PS,exp,48,→,right,→,0.5870680999942124,True,12,1,0,1
Y2-S2-072M23,6,449,PS,exp,33,↑,up,↑,0.493060200009495,True,11,1,0,1
Y2-S2-072M23,6,450,PS,exp,47,↓,down,↓,0.7988867997191846,True,11,1,0,1
Y2-S2-072M23,6,451,PS,exp,38,←,left,←,0.5422155996784568,True,11,1,0,1
Y2-S2-072M23,6,452,PS,exp,38,↑,left,←,0.5787788000889122,False,10,-1,1,2
Y2-S2-072M23,6,453,PS,exp,39,→,right,→,0.48368880013003945,True,11,-1,0,2
Y2-S2-072M23,6,454,PS,exp,46,←,right,→,0.4845215999521315,False,11,-1,0,2
Y2-S2-072M23,6,455,PS,exp,45,→,right,→,0.4286564001813531,True,12,-1,0,2
Y2-S2-072M23,6,456,PS,exp,30,←,left,←,0.5755570000037551,True,12,-1,0,2
Y2-S2-072M23,6,457,PS,exp,46,↑,up,↑,0.659294799901545,True,12,1,1,3
Y2-S2-072M23,6,458,PS,exp,27,→,right,→,0.5829956000670791,True,11,1,0,3
Y2-S2-072M23,6,459,PS,exp,37,←,right,→,0.8251636000350118,False,11,-1,1,4
Y2-S2-072M23,6,460,PS,exp,49,→,right,→,0.4458310999907553,True,12,-1,0,4
Y2-S2-072M23,6,461,PS,exp,41,↓,no_key,no_letter,-1.0,False,12,-1,0,4
Y2-S2-072M23,6,462,PS,exp,27,←,left,←,0.6079369997605681,True,13,-1,0,4
Y2-S2-072M23,6,463,PS,exp,34,↓,down,↓,0.8727257000282407,True,13,-1,0,4
Y2-S2-072M23,6,464,PS,exp,39,→,right,→,0.6071370001882315,True,13,1,1,5
Y2-S2-072M23,6,465,PS,exp,43,↑,up,↑,0.8006588998250663,True,12,1,0,5
Y2-S2-072M23,6,466,PS,exp,28,←,left,←,0.5862150001339614,True,12,1,0,5
Y2-S2-072M23,6,467,PS,exp,35,↑,up,↑,0.5215030997060239,True,12,1,0,5
Y2-S2-072M23,6,468,PS,exp,38,↓,down,↓,0.7945821997709572,True,11,1,0,5
Y2-S2-072M23,6,469,PS,exp,34,↑,down,↓,0.7271552998572588,False,11,-1,1,6
Y2-S2-072M23,6,470,PS,exp,39,←,left,←,0.6235500001348555,True,12,-1,0,6
Y2-S2-072M23,6,471,PS,exp,49,↓,down,↓,0.7639712998643517,True,12,-1,0,6
Y2-S2-072M23,6,472,PS,exp,31,←,left,←,0.7647079001180828,True,12,1,1,7
Y2-S2-072M23,6,473,PS,exp,28,↓,down,↓,0.6654854002408683,True,11,1,0,7
Y2-S2-072M23,6,474,PS,exp,28,↑,up,↑,0.5374955995939672,True,11,1,0,7
Y2-S2-072M23,6,475,PS,exp,30,←,left,←,0.6481218999251723,True,11,1,0,7
Y2-S2-072M23,6,476,PS,exp,44,→,right,→,0.6654535997658968,True,10,1,0,7
Y2-S2-072M23,6,477,PS,exp,28,↓,down,↓,0.8092145998962224,True,10,1,0,7
Y2-S2-072M23,6,478,PS,exp,33,→,right,→,0.5338189997710288,True,10,1,0,7
Y2-S2-072M23,6,479,PS,exp,44,↑,down,↓,0.9973094998858869,False,9,-1,1,8
Y2-S2-072M23,6,480,PS,exp,29,↓,down,↓,0.5898695001378655,True,10,-1,0,8
Y2-S2-072M23,6,481,PS,exp,47,←,left,←,0.6504260003566742,True,10,-1,0,8
Y2-S2-072M23,6,482,PS,exp,50,↑,up,↑,0.5256197000853717,True,10,1,1,9
Y2-S2-072M23,6,483,PS,exp,32,←,down,↓,0.8239082000218332,False,9,-1,1,10
Y2-S2-072M23,6,484,PS,exp,37,↑,up,↑,0.5614136001095176,True,10,-1,0,10
Y2-S2-072M23,6,485,PS,exp,30,↓,down,↓,0.5732789998874068,True,10,-1,0,10
Y2-S2-072M23,6,486,PS,exp,35,←,left,←,0.6329415002837777,True,10,1,1,11
Y2-S2-072M23,6,487,PS,exp,40,↑,up,↑,0.4907726002857089,True,9,1,0,11
Y2-S2-072M23,6,488,PS,exp,34,↓,down,↓,0.640285300090909,True,9,1,0,11
Y2-S2-072M23,6,489,PS,exp,48,↑,down,↓,0.6906642001122236,False,9,-1,1,12
Y2-S2-072M23,6,490,PS,exp,36,↓,down,↓,0.5719392998144031,True,10,-1,0,12
Y2-S2-072M23,6,491,PS,exp,40,→,right,→,0.5172987002879381,True,10,-1,0,12
Y2-S2-072M23,6,492,PS,exp,32,←,left,←,0.5209355000406504,True,10,1,1,13
Y2-S2-072M23,6,493,PS,exp,31,→,right,→,0.4754650997929275,True,9,1,0,13
Y2-S2-072M23,6,494,PS,exp,26,←,left,←,0.7787676001898944,True,9,1,0,13
Y2-S2-072M23,6,495,PS,exp,38,↑,left,←,0.7180928001180291,False,9,-1,1,14
Y2-S2-072M23,6,496,PS,exp,40,→,left,←,0.6617805999703705,False,10,-1,0,14
Y2-S2-072M23,6,497,PS,exp,37,↑,right,→,0.656199499964714,False,11,-1,0,14
Y2-S2-072M23,6,498,PS,exp,46,↓,down,↓,0.6817696997895837,True,12,-1,0,14
Y2-S2-072M23,6,499,PS,exp,40,←,left,←,0.6375490999780595,True,12,-1,0,14
Y2-S2-072M23,6,500,PS,exp,46,→,right,→,0.5642033000476658,True,12,1,1,15
Y2-S2-072M23,6,501,PS,exp,40,↓,down,↓,0.6653386000543833,True,11,1,0,15
Y2-S2-072M23,6,502,PS,exp,34,←,left,←,0.5248276996426284,True,11,1,0,15
Y2-S2-072M23,6,503,PS,exp,29,→,right,→,0.48743139998987317,True,11,1,0,15
Y2-S2-072M23,6,504,PS,exp,36,↑,up,↑,0.7558601000346243,True,10,1,0,15
Y2-S2-072M23,6,505,PS,exp,41,↓,right,→,0.6670404002070427,False,10,-1,1,16
Y2-S2-072M23,7,506,PS,intra_train,29,↑,up,↑,0.5856854002922773,True,16,-,-,-
Y2-S2-072M23,7,507,PS,intra_train,26,↓,down,↓,0.6121247997507453,True,16,-,-,-
Y2-S2-072M23,7,508,PS,intra_train,25,←,left,←,0.46298660011962056,True,16,-,-,-
Y2-S2-072M23,7,509,PS,intra_train,35,↑,up,↑,0.6016931002959609,True,16,-,-,-
Y2-S2-072M23,7,510,PS,intra_train,47,←,left,←,0.4759291997179389,True,16,-,-,-
Y2-S2-072M23,7,511,PS,exp,47,→,right,→,0.48586380016058683,True,11,0,0,0
Y2-S2-072M23,7,512,PS,exp,36,↑,up,↑,0.5813044998794794,True,11,0,0,0
Y2-S2-072M23,7,513,PS,exp,30,←,left,←,0.48413570038974285,True,11,1,0,0
Y2-S2-072M23,7,514,PS,exp,47,↓,down,↓,0.7897222000174224,True,10,1,0,0
Y2-S2-072M23,7,515,PS,exp,47,←,left,←,0.5785685000009835,True,10,1,0,0
Y2-S2-072M23,7,516,PS,exp,45,↑,up,↑,0.4695830000564456,True,10,1,0,0
Y2-S2-072M23,7,517,PS,exp,49,↓,down,↓,0.7751587000675499,True,9,1,0,0
Y2-S2-072M23,7,518,PS,exp,25,←,left,←,0.8485127002932131,True,9,1,0,0
Y2-S2-072M23,7,519,PS,exp,42,→,right,→,0.43899259995669127,True,9,1,0,0
Y2-S2-072M23,7,520,PS,exp,49,←,right,→,0.4606391000561416,False,8,-1,1,1
Y2-S2-072M23,7,521,PS,exp,32,→,right,→,0.4913638997823,True,9,-1,0,1
Y2-S2-072M23,7,522,PS,exp,49,↑,up,↑,0.517996700014919,True,9,-1,0,1
Y2-S2-072M23,7,523,PS,exp,37,←,left,←,0.5696176001802087,True,9,1,1,2
Y2-S2-072M23,7,524,PS,exp,29,↓,down,↓,0.6371157001703978,True,8,1,0,2
Y2-S2-072M23,7,525,PS,exp,48,←,left,←,0.5516508002765477,True,8,1,0,2
Y2-S2-072M23,7,526,PS,exp,33,↓,down,↓,0.8465426997281611,True,8,1,0,2
Y2-S2-072M23,7,527,PS,exp,32,↑,right,→,0.5527654001489282,False,7,-1,1,3
Y2-S2-072M23,7,528,PS,exp,31,→,right,→,0.5136913997121155,True,8,-1,0,3
Y2-S2-072M23,7,529,PS,exp,32,↓,down,↓,0.6737278001382947,True,8,-1,0,3
Y2-S2-072M23,7,530,PS,exp,38,←,down,↓,0.9431258998811245,False,8,-1,0,3
Y2-S2-072M23,7,531,PS,exp,39,↑,left,←,0.5605530003085732,False,9,-1,0,3
Y2-S2-072M23,7,532,PS,exp,39,→,right,→,0.41374599980190396,True,10,-1,0,3
Y2-S2-072M23,7,533,PS,exp,49,←,left,←,0.4750461997464299,True,10,-1,0,3
Y2-S2-072M23,7,534,PS,exp,42,→,right,→,0.4387246002443135,True,10,1,1,4
Y2-S2-072M23,7,535,PS,exp,31,↑,up,↑,0.4733119998127222,True,9,1,0,4
Y2-S2-072M23,7,536,PS,exp,28,↓,down,↓,0.5968293002806604,True,9,1,0,4
Y2-S2-072M23,7,537,PS,exp,33,←,right,→,0.669747699983418,False,9,-1,1,5
Y2-S2-072M23,7,538,PS,exp,42,→,right,→,0.41052239993587136,True,10,-1,0,5
Y2-S2-072M23,7,539,PS,exp,35,←,left,←,0.5093712997622788,True,10,-1,0,5
Y2-S2-072M23,7,540,PS,exp,42,→,right,→,0.4465242000296712,True,10,1,1,6
Y2-S2-072M23,7,541,PS,exp,30,←,right,→,0.7128725000657141,False,9,-1,1,7
Y2-S2-072M23,7,542,PS,exp,38,↑,up,↑,0.5936769000254571,True,10,-1,0,7
Y2-S2-072M23,7,543,PS,exp,34,→,left,←,0.7851470997557044,False,10,-1,0,7
Y2-S2-072M23,7,544,PS,exp,26,↓,up,↑,0.7811749996617436,False,11,-1,0,7
Y2-S2-072M23,7,545,PS,exp,49,→,right,→,0.4807199998758733,True,12,-1,0,7
Y2-S2-072M23,7,546,PS,exp,42,←,right,→,0.4868236999027431,False,12,-1,0,7
Y2-S2-072M23,7,547,PS,exp,38,→,right,→,0.40756990015506744,True,13,-1,0,7
Y2-S2-072M23,7,548,PS,exp,27,↑,up,↑,0.5501780998893082,True,13,-1,0,7
Y2-S2-072M23,7,549,PS,exp,41,↓,down,↓,0.8525625001639128,True,13,1,1,8
Y2-S2-072M23,7,550,PS,exp,25,→,right,→,0.5525676999241114,True,12,1,0,8
Y2-S2-072M23,7,551,PS,exp,29,↑,up,↑,0.5044342996552587,True,12,1,0,8
Y2-S2-072M23,7,552,PS,exp,32,→,right,→,0.4484006999991834,True,12,1,0,8
Y2-S2-072M23,7,553,PS,exp,50,↓,down,↓,0.7048575999215245,True,11,1,0,8
Y2-S2-072M23,7,554,PS,exp,39,↑,up,↑,0.4125673999078572,True,11,1,0,8
Y2-S2-072M23,7,555,PS,exp,48,↓,down,↓,0.7879627998918295,True,11,1,0,8
Y2-S2-072M23,7,556,PS,exp,45,↑,up,↑,0.42083790013566613,True,10,1,0,8
Y2-S2-072M23,7,557,PS,exp,28,↓,down,↓,0.6425955998711288,True,10,1,0,8
Y2-S2-072M23,7,558,PS,exp,38,←,left,←,0.6073926002718508,True,10,1,0,8
Y2-S2-072M23,7,559,PS,exp,47,↓,down,↓,0.6053184000775218,True,9,1,0,8
Y2-S2-072M23,7,560,PS,exp,45,→,right,→,0.4783973000012338,True,9,1,0,8
Y2-S2-072M23,7,561,PS,exp,49,↑,left,←,0.6966528999619186,False,9,-1,1,9
Y2-S2-072M23,7,562,PS,exp,33,→,right,→,0.444229899905622,True,10,-1,0,9
Y2-S2-072M23,7,563,PS,exp,41,↑,up,↑,0.4835041002370417,True,10,-1,0,9
Y2-S2-072M23,7,564,PS,exp,42,→,right,→,0.7086180998012424,True,10,1,1,10
Y2-S2-072M23,7,565,PS,exp,41,↑,down,↓,1.0505437003448606,False,9,-1,1,11
Y2-S2-072M23,7,566,PS,exp,34,→,right,→,0.4934622999280691,True,10,-1,0,11
Y2-S2-072M23,7,567,PS,exp,27,↑,up,↑,0.49296450009569526,True,10,-1,0,11
Y2-S2-072M23,7,568,PS,exp,48,←,left,←,0.3843104001134634,True,10,1,1,12
Y2-S2-072M23,7,569,PS,exp,44,→,right,→,0.4049490001052618,True,9,1,0,12
Y2-S2-072M23,7,570,PS,exp,32,↑,left,←,0.6558606000617146,False,9,-1,1,13
Y2-S2-072M23,7,571,PS,exp,43,↓,up,↑,0.6248515001498163,False,10,-1,0,13
Y2-S2-072M23,7,572,PS,exp,35,→,right,→,0.4206157997250557,True,11,-1,0,13
Y2-S2-072M23,7,573,PS,exp,30,↑,up,↑,0.4984045000746846,True,11,-1,0,13
Y2-S2-072M23,7,574,PS,exp,26,←,left,←,0.43061270006000996,True,11,1,1,14
Y2-S2-072M23,7,575,PS,exp,50,↓,down,↓,0.5551527002826333,True,10,1,0,14
Y2-S2-072M23,7,576,PS,exp,50,↑,up,↑,0.41595830023288727,True,10,1,0,14
Y2-S2-072M23,7,577,PS,exp,49,←,left,←,0.41153630008921027,True,10,1,0,14
Y2-S2-072M23,7,578,PS,exp,30,↑,up,↑,0.4725939999334514,True,9,1,0,14
Y2-S2-072M23,7,579,PS,exp,40,↓,left,←,0.7183069000020623,False,9,-1,1,15
Y2-S2-072M23,7,580,PS,exp,38,↑,left,←,0.7290536998771131,False,10,-1,0,15
Y2-S2-072M23,7,581,PS,exp,35,↓,right,→,0.622036499902606,False,11,-1,0,15
Y2-S2-072M23,7,582,PS,exp,39,↑,up,↑,0.4147316999733448,True,12,-1,0,15
Y2-S2-072M23,7,583,PS,exp,39,↓,left,←,0.7173383003100753,False,12,-1,0,15
Y2-S2-072M23,7,584,PS,exp,45,↑,up,↑,0.5050877002067864,True,13,-1,0,15
Y2-S2-072M23,7,585,PS,exp,25,→,right,→,0.47391819953918457,True,13,-1,0,15
Y2-S2-072M23,7,586,PS,exp,32,↓,down,↓,0.6360495002008975,True,13,1,1,16
Y2-S2-072M23,8,587,AS,intra_train,47,↑,down,↓,0.716510200407356,False,21,-,-,-
Y2-S2-072M23,8,588,AS,intra_train,34,←,left,←,0.4669798999093473,True,21,-,-,-
Y2-S2-072M23,8,589,AS,intra_train,30,↑,up,↑,0.46722340025007725,True,21,-,-,-
Y2-S2-072M23,8,590,AS,intra_train,30,←,left,←,1.1693275002762675,True,21,-,-,-
Y2-S2-072M23,8,591,AS,intra_train,42,→,right,→,0.6028165998868644,True,21,-,-,-
Y2-S2-072M23,8,592,AS,exp,34,←,right,→,1.0479637002572417,False,14,-1,0,0
Y2-S2-072M23,8,593,AS,exp,37,↑,up,↑,0.5306865000165999,True,15,-1,0,0
Y2-S2-072M23,8,594,AS,exp,30,←,up,↑,0.7093937997706234,False,15,-1,0,0
Y2-S2-072M23,8,595,AS,exp,47,↑,up,↑,0.40057360008358955,True,16,-1,0,0
Y2-S2-072M23,8,596,AS,exp,31,↓,down,↓,0.6284485999494791,True,16,-1,0,0
Y2-S2-072M23,8,597,AS,exp,45,↑,up,↑,0.6523426002822816,True,16,1,1,1
Y2-S2-072M23,8,598,AS,exp,33,↓,up,↑,0.8307374999858439,False,15,-1,1,2
Y2-S2-072M23,8,599,AS,exp,34,←,right,→,0.6182443997822702,False,16,-1,0,2
Y2-S2-072M23,8,600,AS,exp,29,↓,down,↓,0.6091725998558104,True,17,-1,0,2
Y2-S2-072M23,8,601,AS,exp,39,→,right,→,0.4006330999545753,True,17,-1,0,2
Y2-S2-072M23,8,602,AS,exp,30,↑,down,↓,0.6049451995640993,False,17,-1,0,2
Y2-S2-072M23,8,603,AS,exp,31,↓,down,↓,0.512903599999845,True,18,-1,0,2
Y2-S2-072M23,8,604,AS,exp,45,←,left,←,0.561269000172615,True,18,-1,0,2
Y2-S2-072M23,8,605,AS,exp,47,→,right,→,0.618959799874574,True,18,1,1,3
Y2-S2-072M23,8,606,AS,exp,35,↓,down,↓,0.6863292003981769,True,17,1,0,3
Y2-S2-072M23,8,607,AS,exp,50,←,left,←,1.0989656001329422,True,17,1,0,3
Y2-S2-072M23,8,608,AS,exp,42,↓,down,↓,1.0065093003213406,True,17,1,0,3
Y2-S2-072M23,8,609,AS,exp,45,↑,left,←,0.7939311000518501,False,16,-1,1,4
Y2-S2-072M23,8,610,AS,exp,50,←,left,←,0.5965268001891673,True,17,-1,0,4
Y2-S2-072M23,8,611,AS,exp,41,↓,down,↓,0.6817998001351953,True,17,-1,0,4
Y2-S2-072M23,8,612,AS,exp,46,↑,up,↑,0.40056389989331365,True,17,1,1,5
Y2-S2-072M23,8,613,AS,exp,31,→,down,↓,0.9280399000272155,False,16,-1,1,6
Y2-S2-072M23,8,614,AS,exp,49,↑,up,↑,0.38391990028321743,True,17,-1,0,6
Y2-S2-072M23,8,615,AS,exp,29,↓,right,→,1.3357219998724759,False,17,-1,0,6
Y2-S2-072M23,8,616,AS,exp,35,→,right,→,0.47660719975829124,True,18,-1,0,6
Y2-S2-072M23,8,617,AS,exp,33,←,left,←,0.6843705996870995,True,18,-1,0,6
Y2-S2-072M23,8,618,AS,exp,47,↓,down,↓,0.6075132000260055,True,18,1,1,7
Y2-S2-072M23,8,619,AS,exp,33,←,left,←,0.509548899717629,True,17,1,0,7
Y2-S2-072M23,8,620,AS,exp,25,→,right,→,0.5449756998568773,True,17,1,0,7
Y2-S2-072M23,8,621,AS,exp,47,↑,up,↑,0.4604327999986708,True,17,1,0,7
Y2-S2-072M23,8,622,AS,exp,49,↓,down,↓,0.5671768002212048,True,16,1,0,7
Y2-S2-072M23,8,623,AS,exp,38,←,right,→,0.5487954001873732,False,16,-1,1,8
Y2-S2-072M23,8,624,AS,exp,43,→,up,↑,0.6670779003761709,False,17,-1,0,8
Y2-S2-072M23,8,625,AS,exp,49,←,left,←,0.7886160002090037,True,18,-1,0,8
Y2-S2-072M23,8,626,AS,exp,45,→,right,→,0.6513598002493382,True,18,-1,0,8
Y2-S2-072M23,8,627,AS,exp,41,↓,down,↓,0.7568419999442995,True,18,1,1,9
Y2-S2-072M23,8,628,AS,exp,47,↑,up,↑,0.5963086998090148,True,17,1,0,9
Y2-S2-072M23,8,629,AS,exp,49,↓,up,↑,0.5711630000732839,False,17,-1,1,10
Y2-S2-072M23,8,630,AS,exp,31,→,right,→,0.5010223002173007,True,18,-1,0,10
Y2-S2-072M23,8,631,AS,exp,34,↑,down,↓,0.6401479998603463,False,18,-1,0,10
Y2-S2-072M23,8,632,AS,exp,46,←,right,→,0.43384839966893196,False,19,-1,0,10
Y2-S2-072M23,8,633,AS,exp,50,→,right,→,0.5548539999872446,True,20,-1,0,10
Y2-S2-072M23,8,634,AS,exp,25,↑,left,←,0.9638611003756523,False,20,-1,0,10
Y2-S2-072M23,8,635,AS,exp,41,←,left,←,0.7826515999622643,True,21,-1,0,10
Y2-S2-072M23,8,636,AS,exp,49,→,right,→,1.213604399934411,True,21,-1,0,10
Y2-S2-072M23,8,637,AS,exp,36,↓,down,↓,0.6296735997311771,True,21,1,1,11
Y2-S2-072M23,8,638,AS,exp,26,↑,up,↑,0.911257800180465,True,20,1,0,11
Y2-S2-072M23,8,639,AS,exp,33,→,right,→,0.62674710014835,True,20,1,0,11
Y2-S2-072M23,8,640,AS,exp,42,↓,down,↓,0.7944689001888037,True,20,1,0,11
Y2-S2-072M23,8,641,AS,exp,29,→,right,→,0.7843773998320103,True,19,1,0,11
Y2-S2-072M23,8,642,AS,exp,38,←,left,←,1.328984099905938,True,19,1,0,11
Y2-S2-072M23,8,643,AS,exp,48,→,down,↓,0.8515297002159059,False,19,-1,1,12
Y2-S2-072M23,8,644,AS,exp,38,↑,right,→,0.5060466001741588,False,20,-1,0,12
Y2-S2-072M23,8,645,AS,exp,27,↓,down,↓,0.615884100086987,True,21,-1,0,12
Y2-S2-072M23,8,646,AS,exp,49,↑,up,↑,0.8051156001165509,True,21,-1,0,12
Y2-S2-072M23,8,647,AS,exp,33,↓,down,↓,0.701142200268805,True,21,1,1,13
Y2-S2-072M23,8,648,AS,exp,48,↑,up,↑,0.8000352000817657,True,20,1,0,13
Y2-S2-072M23,8,649,AS,exp,50,↓,down,↓,0.5951266000047326,True,20,1,0,13
Y2-S2-072M23,8,650,AS,exp,41,→,right,→,0.6931949001736939,True,20,1,0,13
Y2-S2-072M23,8,651,AS,exp,35,←,left,←,0.6606626003049314,True,19,1,0,13
Y2-S2-072M23,8,652,AS,exp,49,↑,up,↑,0.5276721999980509,True,19,1,0,13
Y2-S2-072M23,8,653,AS,exp,34,↓,down,↓,0.5821273000910878,True,19,1,0,13
Y2-S2-072M23,8,654,AS,exp,30,→,right,→,0.6640762998722494,True,18,1,0,13
Y2-S2-072M23,8,655,AS,exp,37,↓,down,↓,0.6255019996315241,True,18,1,0,13
Y2-S2-072M23,8,656,AS,exp,50,→,right,→,0.6280542002059519,True,18,1,0,13
Y2-S2-072M23,8,657,AS,exp,50,↑,up,↑,0.7105402001179755,True,17,1,0,13
Y2-S2-072M23,8,658,AS,exp,40,↓,down,↓,0.7277087001129985,True,17,1,0,13
Y2-S2-072M23,8,659,AS,exp,37,→,right,→,0.5423007998615503,True,17,1,0,13
Y2-S2-072M23,8,660,AS,exp,50,↓,down,↓,0.5378604996949434,True,16,1,0,13
Y2-S2-072M23,8,661,AS,exp,41,↑,down,↓,0.975431099999696,False,16,-1,1,14
Y2-S2-072M23,8,662,AS,exp,37,←,left,←,0.5545961000025272,True,17,-1,0,14
Y2-S2-072M23,8,663,AS,exp,44,↓,left,←,0.7599304998293519,False,17,-1,0,14
Y2-S2-072M23,8,664,AS,exp,29,→,left,←,0.7806924995966256,False,18,-1,0,14
Y2-S2-072M23,8,665,AS,exp,33,↑,up,↑,0.6351339998655021,True,19,-1,0,14
Y2-S2-072M23,8,666,AS,exp,46,↓,down,↓,0.6102102999575436,True,19,-1,0,14
Y2-S2-072M23,8,667,AS,exp,26,↑,up,↑,0.7589206001721323,True,19,1,1,15
Y2-S2-072M23,8,668,AS,exp,35,↓,down,↓,0.6348584000952542,True,18,1,0,15
Y2-S2-072M23,8,669,AS,exp,37,→,right,→,0.5543236001394689,True,18,1,0,15
Y2-S2-072M23,8,670,AS,exp,25,↑,up,↑,0.7071162001229823,True,18,1,0,15
Y2-S2-072M23,8,671,AS,exp,45,↓,down,↓,0.9253690000623465,True,17,1,0,15
Y2-S2-072M23,8,672,AS,exp,49,←,left,←,0.5568896001204848,True,17,1,0,15
Y2-S2-072M23,8,673,AS,exp,43,↑,up,↑,0.7914925999939442,True,17,1,0,15
Y2-S2-072M23,8,674,AS,exp,41,←,right,→,0.7400764003396034,False,16,-1,1,16
