PART_ID,Block_no,Trial_no,Block_type,Trial_type,CSI,Stim_letter,Key_pressed,letter_choose,Rt,Corr,Stimulus Time,Level,Reversal,Revs_count
Y2-S2-046K25,1,1,PS,train,43,↑,up,↑,2.126372099854052,True,30,-,-,-
Y2-S2-046K25,1,2,PS,train,47,←,left,←,0.9659003000706434,True,30,-,-,-
Y2-S2-046K25,1,3,PS,train,28,↑,up,↑,0.7261149999685585,True,30,-,-,-
Y2-S2-046K25,1,4,PS,train,38,←,left,←,1.4938233997672796,True,30,-,-,-
Y2-S2-046K25,1,5,PS,train,50,→,right,→,0.8578928001224995,True,30,-,-,-
Y2-S2-046K25,1,6,PS,train,44,↑,up,↑,0.5507868002168834,True,30,-,-,-
Y2-S2-046K25,1,7,PS,train,46,↓,no_key,no_letter,-1.0,False,30,-,-,-
Y2-S2-046K25,1,8,PS,train,43,→,right,→,0.7876562001183629,True,30,-,-,-
Y2-S2-046K25,1,9,PS,train,38,↓,down,↓,0.9165969998575747,True,30,-,-,-
Y2-S2-046K25,1,10,PS,train,39,→,right,→,0.6999887996353209,True,30,-,-,-
Y2-S2-046K25,2,11,AS,train,42,←,left,←,0.7673603999428451,True,45,-,-,-
Y2-S2-046K25,2,12,AS,train,40,↑,no_key,no_letter,-1.0,False,45,-,-,-
Y2-S2-046K25,2,13,AS,train,50,→,right,→,0.9303382998332381,True,45,-,-,-
Y2-S2-046K25,2,14,AS,train,43,↓,down,↓,1.0221432000398636,True,45,-,-,-
Y2-S2-046K25,2,15,AS,train,29,↑,up,↑,1.2337111998349428,True,45,-,-,-
Y2-S2-046K25,2,16,AS,train,25,←,left,←,1.118967100046575,True,45,-,-,-
Y2-S2-046K25,2,17,AS,train,39,↑,down,↓,1.5515971002168953,False,45,-,-,-
Y2-S2-046K25,2,18,AS,train,46,↓,down,↓,1.0962140997871757,True,45,-,-,-
Y2-S2-046K25,2,19,AS,train,42,→,right,→,0.9953048997558653,True,45,-,-,-
Y2-S2-046K25,2,20,AS,train,43,↑,up,↑,0.9331427998840809,True,45,-,-,-
Y2-S2-046K25,-,21,PS,adaptive,42,↓,down,↓,0.7013011001981795,True,10,0,0,0
Y2-S2-046K25,-,22,PS,adaptive,27,←,left,←,0.4703388996422291,True,10,0,0,0
Y2-S2-046K25,-,23,PS,adaptive,37,→,right,→,0.8575132000260055,True,10,1,0,0
Y2-S2-046K25,-,24,PS,adaptive,35,←,no_key,no_letter,-1.0,False,9,-1,1,1
Y2-S2-046K25,-,25,PS,adaptive,46,↓,down,↓,1.6697426000609994,True,10,-1,0,1
Y2-S2-046K25,-,26,PS,adaptive,46,↑,up,↑,0.6782157002016902,True,10,-1,0,1
Y2-S2-046K25,-,27,PS,adaptive,25,↓,left,←,0.7637188001535833,False,10,-1,0,1
Y2-S2-046K25,-,28,PS,adaptive,46,←,down,↓,1.2208600002340972,False,11,-1,0,1
Y2-S2-046K25,-,29,PS,adaptive,47,↑,right,→,1.1136579997837543,False,12,-1,0,1
Y2-S2-046K25,-,30,PS,adaptive,28,→,up,↑,1.125138800125569,False,13,-1,0,1
Y2-S2-046K25,-,31,PS,adaptive,43,↑,left,←,0.6844254997558892,False,14,-1,0,1
Y2-S2-046K25,-,32,PS,adaptive,30,←,right,→,1.1796071999706328,False,15,-1,0,1
Y2-S2-046K25,-,33,PS,adaptive,34,→,down,↓,1.0825284998863935,False,16,-1,0,1
Y2-S2-046K25,-,34,PS,adaptive,46,↓,down,↓,0.8170735002495348,True,17,-1,0,1
Y2-S2-046K25,-,35,PS,adaptive,40,←,left,←,0.8497846000827849,True,17,-1,0,1
Y2-S2-046K25,-,36,PS,adaptive,25,↓,up,↑,0.6179456999525428,False,17,-1,0,1
Y2-S2-046K25,-,37,PS,adaptive,35,←,left,←,0.7767348000779748,True,18,-1,0,1
Y2-S2-046K25,-,38,PS,adaptive,29,→,right,→,0.6942601003684103,True,18,-1,0,1
Y2-S2-046K25,-,39,PS,adaptive,35,↑,down,↓,0.8982051997445524,False,18,-1,0,1
Y2-S2-046K25,-,40,PS,adaptive,49,←,left,←,0.6205390002578497,True,19,-1,0,1
Y2-S2-046K25,-,41,PS,adaptive,44,↓,right,→,0.54741600016132,False,19,-1,0,1
Y2-S2-046K25,-,42,PS,adaptive,34,←,left,←,0.7052589999511838,True,20,-1,0,1
Y2-S2-046K25,-,43,PS,adaptive,43,→,right,→,0.6858776998706162,True,20,-1,0,1
Y2-S2-046K25,-,44,PS,adaptive,32,↑,up,↑,0.5279232999309897,True,20,1,1,2
Y2-S2-046K25,-,45,PS,adaptive,35,↓,down,↓,0.7830591001547873,True,19,1,0,2
Y2-S2-046K25,-,46,PS,adaptive,47,→,right,→,0.548454700037837,True,19,1,0,2
Y2-S2-046K25,-,47,PS,adaptive,42,↓,down,↓,1.0826563998125494,True,19,1,0,2
Y2-S2-046K25,-,48,PS,adaptive,40,↑,up,↑,0.7737451000139117,True,18,1,0,2
Y2-S2-046K25,-,49,PS,adaptive,42,←,left,←,0.525306100025773,True,18,1,0,2
Y2-S2-046K25,-,50,PS,adaptive,36,↑,up,↑,0.6678173998370767,True,18,1,0,2
Y2-S2-046K25,-,51,PS,adaptive,43,←,left,←,0.4566387003287673,True,17,1,0,2
Y2-S2-046K25,-,52,PS,adaptive,48,→,left,←,0.7435675002634525,False,17,-1,1,3
Y2-S2-046K25,-,53,PS,adaptive,31,↓,up,↑,1.4273521001450717,False,18,-1,0,3
Y2-S2-046K25,-,54,PS,adaptive,49,→,right,→,0.9979107999242842,True,19,-1,0,3
Y2-S2-046K25,-,55,PS,adaptive,28,↑,left,←,1.4831790998578072,False,19,-1,0,3
Y2-S2-046K25,-,56,PS,adaptive,39,→,up,↑,1.1290744999423623,False,20,-1,0,3
Y2-S2-046K25,-,57,PS,adaptive,32,↑,up,↑,0.642439799848944,True,21,-1,0,3
Y2-S2-046K25,-,58,PS,adaptive,26,→,no_key,no_letter,-1.0,False,21,-1,0,3
Y2-S2-046K25,-,59,PS,adaptive,35,↓,up,↑,0.669615900143981,False,22,-1,0,3
Y2-S2-046K25,-,60,PS,adaptive,38,↑,up,↑,0.6953916000202298,True,23,-1,0,3
Y2-S2-046K25,-,61,PS,adaptive,39,←,left,←,0.611852899659425,True,23,-1,0,3
Y2-S2-046K25,-,62,PS,adaptive,44,→,left,←,1.5675222999416292,False,23,-1,0,3
Y2-S2-046K25,-,63,PS,adaptive,39,←,right,→,0.9759400999173522,False,24,-1,0,3
Y2-S2-046K25,-,64,PS,adaptive,41,↓,down,↓,1.4845698000863194,True,25,-1,0,3
Y2-S2-046K25,-,65,PS,adaptive,47,→,right,→,0.7286805999465287,True,25,-1,0,3
Y2-S2-046K25,-,66,PS,adaptive,26,←,left,←,1.2894242000766098,True,25,1,1,4
Y2-S2-046K25,-,67,AS,adaptive,38,↑,left,←,0.7503622998483479,False,20,-1,0,0
Y2-S2-046K25,-,68,AS,adaptive,43,→,left,←,0.9916532998904586,False,21,-1,0,0
Y2-S2-046K25,-,69,AS,adaptive,40,↑,up,↑,0.829882699996233,True,22,-1,0,0
Y2-S2-046K25,-,70,AS,adaptive,26,→,right,→,0.66393500007689,True,22,-1,0,0
Y2-S2-046K25,-,71,AS,adaptive,44,↑,up,↑,0.9394724001176655,True,22,1,1,1
Y2-S2-046K25,-,72,AS,adaptive,42,→,right,→,1.1247298996895552,True,21,1,0,1
Y2-S2-046K25,-,73,AS,adaptive,49,↑,down,↓,0.8932791999541223,False,21,-1,1,2
Y2-S2-046K25,-,74,AS,adaptive,25,↓,up,↑,1.0244279000908136,False,22,-1,0,2
Y2-S2-046K25,-,75,AS,adaptive,29,↑,right,→,0.8982001002877951,False,23,-1,0,2
Y2-S2-046K25,-,76,AS,adaptive,49,↓,down,↓,1.3437623996287584,True,24,-1,0,2
Y2-S2-046K25,-,77,AS,adaptive,27,→,left,←,1.0776458997279406,False,24,-1,0,2
Y2-S2-046K25,-,78,AS,adaptive,32,↓,up,↑,0.9373774002306163,False,25,-1,0,2
Y2-S2-046K25,-,79,AS,adaptive,48,←,left,←,0.8464723997749388,True,26,-1,0,2
Y2-S2-046K25,-,80,AS,adaptive,37,↑,up,↑,1.0455980999395251,True,26,-1,0,2
Y2-S2-046K25,-,81,AS,adaptive,42,↓,down,↓,0.9716137000359595,True,26,1,1,3
Y2-S2-046K25,-,82,AS,adaptive,47,→,left,←,1.1724546002224088,False,25,-1,1,4
Y2-S2-046K25,1,83,PS,intra_train,48,↑,up,↑,0.5343613997101784,True,36,-,-,-
Y2-S2-046K25,1,84,PS,intra_train,26,←,left,←,0.6172613999806345,True,36,-,-,-
Y2-S2-046K25,1,85,PS,intra_train,29,↑,up,↑,0.551354099996388,True,36,-,-,-
Y2-S2-046K25,1,86,PS,intra_train,39,←,left,←,0.5675444998778403,True,36,-,-,-
Y2-S2-046K25,1,87,PS,intra_train,26,↑,up,↑,0.7006578999571502,True,36,-,-,-
Y2-S2-046K25,1,88,PS,exp,43,→,right,→,0.6525373999029398,True,24,0,0,0
Y2-S2-046K25,1,89,PS,exp,27,↓,down,↓,1.2700538001954556,True,24,0,0,0
Y2-S2-046K25,1,90,PS,exp,35,←,left,←,0.48412289982661605,True,24,1,0,0
Y2-S2-046K25,1,91,PS,exp,34,→,right,→,0.6652040001936257,True,23,1,0,0
Y2-S2-046K25,1,92,PS,exp,34,←,no_key,no_letter,-1.0,False,23,-1,1,1
Y2-S2-046K25,1,93,PS,exp,43,↑,up,↑,0.920363700017333,True,24,-1,0,1
Y2-S2-046K25,1,94,PS,exp,42,←,left,←,0.7509542000479996,True,24,-1,0,1
Y2-S2-046K25,1,95,PS,exp,45,↓,down,↓,0.8721038000658154,True,24,1,1,2
Y2-S2-046K25,1,96,PS,exp,32,↑,up,↑,1.5432045999914408,True,23,1,0,2
Y2-S2-046K25,1,97,PS,exp,34,→,right,→,0.5950854998081923,True,23,1,0,2
Y2-S2-046K25,1,98,PS,exp,41,←,left,←,0.688230600208044,True,23,1,0,2
Y2-S2-046K25,1,99,PS,exp,42,→,up,↑,1.218240600079298,False,22,-1,1,3
Y2-S2-046K25,1,100,PS,exp,48,↓,down,↓,0.7803754000924528,True,23,-1,0,3
Y2-S2-046K25,1,101,PS,exp,42,→,right,→,0.7450014003552496,True,23,-1,0,3
Y2-S2-046K25,1,102,PS,exp,30,←,left,←,1.3689171997830272,True,23,1,1,4
Y2-S2-046K25,1,103,PS,exp,28,↓,down,↓,0.8767408998683095,True,22,1,0,4
Y2-S2-046K25,1,104,PS,exp,39,←,left,←,0.6272327997721732,True,22,1,0,4
Y2-S2-046K25,1,105,PS,exp,46,↑,up,↑,0.6798469997011125,True,22,1,0,4
Y2-S2-046K25,1,106,PS,exp,27,↓,down,↓,0.7998692002147436,True,21,1,0,4
Y2-S2-046K25,1,107,PS,exp,42,←,left,←,0.7815743000246584,True,21,1,0,4
Y2-S2-046K25,1,108,PS,exp,30,→,right,→,0.6158503000624478,True,21,1,0,4
Y2-S2-046K25,1,109,PS,exp,34,←,left,←,0.5281034000217915,True,20,1,0,4
Y2-S2-046K25,1,110,PS,exp,30,↑,up,↑,1.9221999002620578,True,20,1,0,4
Y2-S2-046K25,1,111,PS,exp,38,←,left,←,0.8984512002207339,True,20,1,0,4
Y2-S2-046K25,1,112,PS,exp,25,↓,down,↓,0.989230299834162,True,19,1,0,4
Y2-S2-046K25,1,113,PS,exp,50,←,right,→,0.8382972003892064,False,19,-1,1,5
Y2-S2-046K25,1,114,PS,exp,35,↑,up,↑,0.9657089998945594,True,20,-1,0,5
Y2-S2-046K25,1,115,PS,exp,48,→,right,→,0.7372510000132024,True,20,-1,0,5
Y2-S2-046K25,1,116,PS,exp,33,↑,up,↑,0.7425894001498818,True,20,1,1,6
Y2-S2-046K25,1,117,PS,exp,28,→,right,→,0.6722098998725414,True,19,1,0,6
Y2-S2-046K25,1,118,PS,exp,39,↑,up,↑,0.6508017000742257,True,19,1,0,6
Y2-S2-046K25,1,119,PS,exp,40,←,left,←,0.5792237999849021,True,19,1,0,6
Y2-S2-046K25,1,120,PS,exp,46,→,right,→,0.6854522000066936,True,18,1,0,6
Y2-S2-046K25,1,121,PS,exp,38,←,left,←,0.5429020998999476,True,18,1,0,6
Y2-S2-046K25,1,122,PS,exp,35,↑,up,↑,0.5957794999703765,True,18,1,0,6
Y2-S2-046K25,1,123,PS,exp,37,↓,down,↓,1.0225554998032749,True,17,1,0,6
Y2-S2-046K25,1,124,PS,exp,47,→,right,→,0.5273209000006318,True,17,1,0,6
Y2-S2-046K25,1,125,PS,exp,38,↓,down,↓,0.578784900251776,True,17,1,0,6
Y2-S2-046K25,1,126,PS,exp,30,↑,up,↑,1.799468099605292,True,16,1,0,6
Y2-S2-046K25,1,127,PS,exp,38,↓,down,↓,1.0089124999940395,True,16,1,0,6
Y2-S2-046K25,1,128,PS,exp,38,←,right,→,0.8409269000403583,False,16,-1,1,7
Y2-S2-046K25,1,129,PS,exp,34,↓,down,↓,0.9779966999776661,True,17,-1,0,7
Y2-S2-046K25,1,130,PS,exp,48,→,no_key,no_letter,-1.0,False,17,-1,0,7
Y2-S2-046K25,1,131,PS,exp,33,↑,right,→,0.8155788001604378,False,18,-1,0,7
Y2-S2-046K25,1,132,PS,exp,34,↓,left,←,0.5990379001013935,False,19,-1,0,7
Y2-S2-046K25,1,133,PS,exp,30,↑,left,←,1.5280674998648465,False,20,-1,0,7
Y2-S2-046K25,1,134,PS,exp,39,←,right,→,1.2252960000187159,False,21,-1,0,7
Y2-S2-046K25,1,135,PS,exp,42,↓,right,→,1.9500009003095329,False,22,-1,0,7
Y2-S2-046K25,1,136,PS,exp,35,←,down,↓,1.624301599804312,False,23,-1,0,7
Y2-S2-046K25,1,137,PS,exp,40,→,no_key,no_letter,-1.0,False,24,-1,0,7
Y2-S2-046K25,1,138,PS,exp,32,↓,left,←,0.8743957001715899,False,25,-1,0,7
Y2-S2-046K25,1,139,PS,exp,26,←,left,←,1.2869597002863884,True,26,-1,0,7
Y2-S2-046K25,1,140,PS,exp,37,↑,down,↓,2.0723888999782503,False,26,-1,0,7
Y2-S2-046K25,1,141,PS,exp,32,↓,up,↑,1.8669326999224722,False,27,-1,0,7
Y2-S2-046K25,1,142,PS,exp,47,←,no_key,no_letter,-1.0,False,28,-1,0,7
Y2-S2-046K25,1,143,PS,exp,26,↑,left,←,1.7377470000647008,False,29,-1,0,7
Y2-S2-046K25,1,144,PS,exp,31,↓,right,→,1.0087366998195648,False,30,-1,0,7
Y2-S2-046K25,1,145,PS,exp,34,←,left,←,0.6502592000178993,True,31,-1,0,7
Y2-S2-046K25,1,146,PS,exp,32,↑,right,→,0.7466066000051796,False,31,-1,0,7
Y2-S2-046K25,1,147,PS,exp,35,→,left,←,0.43447860004380345,False,32,-1,0,7
Y2-S2-046K25,1,148,PS,exp,46,↓,up,↑,1.4295354997739196,False,33,-1,0,7
Y2-S2-046K25,1,149,PS,exp,42,↑,up,↑,2.102098800241947,True,34,-1,0,7
Y2-S2-046K25,1,150,PS,exp,40,→,down,↓,1.1391580998897552,False,34,-1,0,7
Y2-S2-046K25,1,151,PS,exp,30,↑,left,←,1.161443400196731,False,35,-1,0,7
Y2-S2-046K25,1,152,PS,exp,34,←,left,←,0.7174643999896944,True,36,-1,0,7
Y2-S2-046K25,1,153,PS,exp,42,→,right,→,0.6172082000412047,True,36,-1,0,7
Y2-S2-046K25,1,154,PS,exp,47,↓,down,↓,1.739954899996519,True,36,1,1,8
Y2-S2-046K25,1,155,PS,exp,28,↑,no_key,no_letter,-1.0,False,35,-1,1,9
Y2-S2-046K25,1,156,PS,exp,29,↓,up,↑,1.3445069999434054,False,36,-1,0,9
Y2-S2-046K25,1,157,PS,exp,47,→,right,→,1.508585600182414,True,37,-1,0,9
Y2-S2-046K25,1,158,PS,exp,32,↓,down,↓,1.3415640001185238,True,37,-1,0,9
Y2-S2-046K25,1,159,PS,exp,44,←,left,←,1.9271847000345588,True,37,1,1,10
Y2-S2-046K25,1,160,PS,exp,43,↓,down,↓,0.9141555996611714,True,36,1,0,10
Y2-S2-046K25,1,161,PS,exp,41,↑,up,↑,1.049379099626094,True,36,1,0,10
Y2-S2-046K25,1,162,PS,exp,47,↓,down,↓,0.7341138999909163,True,36,1,0,10
Y2-S2-046K25,1,163,PS,exp,47,↑,up,↑,0.82704639993608,True,35,1,0,10
Y2-S2-046K25,1,164,PS,exp,33,↓,down,↓,0.9059836002998054,True,35,1,0,10
Y2-S2-046K25,1,165,PS,exp,48,→,right,→,0.6840328997932374,True,35,1,0,10
Y2-S2-046K25,1,166,PS,exp,29,←,down,↓,1.414310499560088,False,34,-1,1,11
Y2-S2-046K25,1,167,PS,exp,45,↑,no_key,no_letter,-1.0,False,35,-1,0,11
Y2-S2-046K25,1,168,PS,exp,39,→,no_key,no_letter,-1.0,False,36,-1,0,11
Y2-S2-046K25,1,169,PS,exp,27,←,down,↓,1.8837775997817516,False,37,-1,0,11
Y2-S2-046K25,1,170,PS,exp,50,↑,left,←,1.941445800010115,False,38,-1,0,11
Y2-S2-046K25,1,171,PS,exp,36,←,left,←,0.7169242003001273,True,39,-1,0,11
Y2-S2-046K25,1,172,PS,exp,34,↑,right,→,1.6412684000097215,False,39,-1,0,11
Y2-S2-046K25,1,173,PS,exp,40,↓,left,←,1.7521580001339316,False,40,-1,0,11
Y2-S2-046K25,1,174,PS,exp,27,→,right,→,1.6513226996175945,True,41,-1,0,11
Y2-S2-046K25,1,175,PS,exp,36,↑,up,↑,0.7335834000259638,True,41,-1,0,11
Y2-S2-046K25,1,176,PS,exp,47,→,up,↑,2.0448671001940966,False,41,-1,0,11
Y2-S2-046K25,1,177,PS,exp,33,←,down,↓,1.1350273001007736,False,42,-1,0,11
Y2-S2-046K25,1,178,PS,exp,34,↑,right,→,1.675621600355953,False,43,-1,0,11
Y2-S2-046K25,1,179,PS,exp,32,→,no_key,no_letter,-1.0,False,44,-1,0,11
Y2-S2-046K25,1,180,PS,exp,37,↓,up,↑,1.9542280999012291,False,45,-1,0,11
Y2-S2-046K25,1,181,PS,exp,48,←,down,↓,1.7996438001282513,False,46,-1,0,11
Y2-S2-046K25,1,182,PS,exp,36,↑,up,↑,1.097208600025624,True,47,-1,0,11
Y2-S2-046K25,1,183,PS,exp,42,←,left,←,1.2658752002753317,True,47,-1,0,11
Y2-S2-046K25,1,184,PS,exp,31,↑,up,↑,1.6530273999087512,True,47,1,1,12
Y2-S2-046K25,1,185,PS,exp,36,↓,down,↓,1.5828152997419238,True,46,1,0,12
Y2-S2-046K25,1,186,PS,exp,35,→,right,→,1.1143058999441564,True,46,1,0,12
Y2-S2-046K25,1,187,PS,exp,30,↑,up,↑,1.875139500014484,True,46,1,0,12
Y2-S2-046K25,1,188,PS,exp,30,↓,right,→,1.2420998001471162,False,45,-1,1,13
Y2-S2-046K25,1,189,PS,exp,30,←,no_key,no_letter,-1.0,False,46,-1,0,13
Y2-S2-046K25,1,190,PS,exp,27,↓,no_key,no_letter,-1.0,False,47,-1,0,13
Y2-S2-046K25,1,191,PS,exp,41,←,down,↓,2.018082800321281,False,48,-1,0,13
Y2-S2-046K25,1,192,PS,exp,49,↓,left,←,1.3114416999742389,False,49,-1,0,13
Y2-S2-046K25,1,193,PS,exp,47,↑,no_key,no_letter,-1.0,False,50,-1,0,13
Y2-S2-046K25,1,194,PS,exp,47,←,no_key,no_letter,-1.0,False,51,-1,0,13
Y2-S2-046K25,1,195,PS,exp,30,↓,down,↓,1.837287399917841,True,52,-1,0,13
Y2-S2-046K25,1,196,PS,exp,27,→,up,↑,1.8606403996236622,False,52,-1,0,13
Y2-S2-046K25,1,197,PS,exp,33,↓,up,↑,2.206121999770403,False,53,-1,0,13
Y2-S2-046K25,1,198,PS,exp,42,↑,up,↑,1.6366008999757469,True,54,-1,0,13
Y2-S2-046K25,1,199,PS,exp,25,←,left,←,1.82874589972198,True,54,-1,0,13
Y2-S2-046K25,1,200,PS,exp,33,→,right,→,0.6013283003121614,True,54,1,1,14
Y2-S2-046K25,1,201,PS,exp,32,←,right,→,0.6677868003025651,False,53,-1,1,15
Y2-S2-046K25,1,202,PS,exp,44,↑,down,↓,0.3674297998659313,False,54,-1,0,15
Y2-S2-046K25,1,203,PS,exp,48,↓,up,↑,1.4976956997998059,False,55,-1,0,15
Y2-S2-046K25,1,204,PS,exp,27,↑,no_key,no_letter,-1.0,False,56,-1,0,15
Y2-S2-046K25,1,205,PS,exp,47,↓,down,↓,1.6149527002125978,True,57,-1,0,15
Y2-S2-046K25,1,206,PS,exp,37,→,no_key,no_letter,-1.0,False,57,-1,0,15
Y2-S2-046K25,1,207,PS,exp,30,←,up,↑,0.05105190025642514,False,58,-1,0,15
Y2-S2-046K25,1,208,PS,exp,38,↓,left,←,1.7811012999154627,False,59,-1,0,15
Y2-S2-046K25,1,209,PS,exp,38,↑,right,→,2.555378799792379,False,60,-1,0,15
Y2-S2-046K25,1,210,PS,exp,43,→,no_key,no_letter,-1.0,False,61,-1,0,15
Y2-S2-046K25,1,211,PS,exp,42,←,left,←,0.8011571001261473,True,62,-1,0,15
Y2-S2-046K25,1,212,PS,exp,26,→,right,→,0.8843804001808167,True,62,-1,0,15
Y2-S2-046K25,1,213,PS,exp,44,↑,up,↑,0.8177202004007995,True,62,1,1,16
Y2-S2-046K25,2,214,AS,intra_train,50,↓,down,↓,1.3266390999779105,True,39,-,-,-
Y2-S2-046K25,2,215,AS,intra_train,43,←,left,←,0.8727901000529528,True,39,-,-,-
Y2-S2-046K25,2,216,AS,intra_train,42,↓,down,↓,1.647459200117737,True,39,-,-,-
Y2-S2-046K25,2,217,AS,intra_train,28,←,left,←,0.5511179999448359,True,39,-,-,-
Y2-S2-046K25,2,218,AS,intra_train,50,↓,down,↓,1.1316128997132182,True,39,-,-,-
Y2-S2-046K25,2,219,AS,exp,41,↑,up,↑,1.3621984999626875,True,26,0,0,0
Y2-S2-046K25,2,220,AS,exp,27,→,left,←,0.7693297998048365,False,26,-1,0,0
Y2-S2-046K25,2,221,AS,exp,37,↓,right,→,0.6535976999439299,False,27,-1,0,0
Y2-S2-046K25,2,222,AS,exp,25,←,left,←,0.7430266002193093,True,28,-1,0,0
Y2-S2-046K25,2,223,AS,exp,45,↑,up,↑,1.1976578999310732,True,28,-1,0,0
Y2-S2-046K25,2,224,AS,exp,46,↓,down,↓,1.565170600079,True,28,1,1,1
Y2-S2-046K25,2,225,AS,exp,27,←,left,←,1.1610396998003125,True,27,1,0,1
Y2-S2-046K25,2,226,AS,exp,27,↓,down,↓,1.0725984000600874,True,27,1,0,1
Y2-S2-046K25,2,227,AS,exp,34,↑,up,↑,1.1867837002500892,True,27,1,0,1
Y2-S2-046K25,2,228,AS,exp,25,←,left,←,0.740196599625051,True,26,1,0,1
Y2-S2-046K25,2,229,AS,exp,49,→,right,→,0.8903913996182382,True,26,1,0,1
Y2-S2-046K25,2,230,AS,exp,41,←,left,←,0.8164027999155223,True,26,1,0,1
Y2-S2-046K25,2,231,AS,exp,37,↓,left,←,1.6907024998217821,False,25,-1,1,2
Y2-S2-046K25,2,232,AS,exp,43,→,no_key,no_letter,-1.0,False,26,-1,0,2
Y2-S2-046K25,2,233,AS,exp,40,←,left,←,0.6977614001370966,True,27,-1,0,2
Y2-S2-046K25,2,234,AS,exp,44,↓,left,←,1.0831983000971377,False,27,-1,0,2
Y2-S2-046K25,2,235,AS,exp,44,↑,down,↓,1.4833177998661995,False,28,-1,0,2
Y2-S2-046K25,2,236,AS,exp,25,→,up,↑,0.8993629002943635,False,29,-1,0,2
Y2-S2-046K25,2,237,AS,exp,25,↑,left,←,1.3093409002758563,False,30,-1,0,2
Y2-S2-046K25,2,238,AS,exp,25,←,right,→,1.9532041000202298,False,31,-1,0,2
Y2-S2-046K25,2,239,AS,exp,48,↑,left,←,1.688149600289762,False,32,-1,0,2
Y2-S2-046K25,2,240,AS,exp,27,→,no_key,no_letter,-1.0,False,33,-1,0,2
Y2-S2-046K25,2,241,AS,exp,28,↓,down,↓,0.31752320006489754,True,34,-1,0,2
Y2-S2-046K25,2,242,AS,exp,39,↑,down,↓,1.1602127999067307,False,34,-1,0,2
Y2-S2-046K25,2,243,AS,exp,39,↓,up,↑,2.0343892998062074,False,35,-1,0,2
Y2-S2-046K25,2,244,AS,exp,47,←,right,→,1.2507929997518659,False,36,-1,0,2
Y2-S2-046K25,2,245,AS,exp,33,↑,up,↑,1.0204405998811126,True,37,-1,0,2
Y2-S2-046K25,2,246,AS,exp,32,→,right,→,0.8068742998875678,True,37,-1,0,2
Y2-S2-046K25,2,247,AS,exp,37,↑,left,←,1.9062723000533879,False,37,-1,0,2
Y2-S2-046K25,2,248,AS,exp,32,←,no_key,no_letter,-1.0,False,38,-1,0,2
Y2-S2-046K25,2,249,AS,exp,49,↓,up,↑,1.6692111999727786,False,39,-1,0,2
Y2-S2-046K25,2,250,AS,exp,35,←,left,←,0.634610999841243,True,40,-1,0,2
Y2-S2-046K25,2,251,AS,exp,43,↓,no_key,no_letter,-1.0,False,40,-1,0,2
Y2-S2-046K25,2,252,AS,exp,34,→,right,→,2.0987209999002516,True,41,-1,0,2
Y2-S2-046K25,2,253,AS,exp,35,↑,left,←,1.4522519996389747,False,41,-1,0,2
Y2-S2-046K25,2,254,AS,exp,37,→,right,→,2.29446529969573,True,42,-1,0,2
Y2-S2-046K25,2,255,AS,exp,48,↑,down,↓,1.7676115999929607,False,42,-1,0,2
Y2-S2-046K25,2,256,AS,exp,38,↓,down,↓,1.3155902000144124,True,43,-1,0,2
Y2-S2-046K25,2,257,AS,exp,26,←,left,←,1.3116947999224067,True,43,-1,0,2
Y2-S2-046K25,2,258,AS,exp,40,→,right,→,1.1136211999692023,True,43,1,1,3
Y2-S2-046K25,2,259,AS,exp,25,←,left,←,1.0381981995888054,True,42,1,0,3
Y2-S2-046K25,2,260,AS,exp,27,↓,no_key,no_letter,-1.0,False,42,-1,1,4
Y2-S2-046K25,2,261,AS,exp,29,→,no_key,no_letter,-1.0,False,43,-1,0,4
Y2-S2-046K25,2,262,AS,exp,36,↑,no_key,no_letter,-1.0,False,44,-1,0,4
Y2-S2-046K25,2,263,AS,exp,31,←,no_key,no_letter,-1.0,False,45,-1,0,4
Y2-S2-046K25,2,264,AS,exp,45,↓,no_key,no_letter,-1.0,False,46,-1,0,4
Y2-S2-046K25,2,265,AS,exp,40,←,no_key,no_letter,-1.0,False,47,-1,0,4
Y2-S2-046K25,2,266,AS,exp,30,→,left,←,0.1675992999225855,False,48,-1,0,4
Y2-S2-046K25,2,267,AS,exp,37,↑,no_key,no_letter,-1.0,False,49,-1,0,4
Y2-S2-046K25,2,268,AS,exp,42,←,left,←,2.0065325000323355,True,50,-1,0,4
Y2-S2-046K25,2,269,AS,exp,40,↑,no_key,no_letter,-1.0,False,50,-1,0,4
Y2-S2-046K25,2,270,AS,exp,49,↓,right,→,2.2052783998660743,False,51,-1,0,4
Y2-S2-046K25,2,271,AS,exp,49,→,no_key,no_letter,-1.0,False,52,-1,0,4
Y2-S2-046K25,2,272,AS,exp,50,↓,no_key,no_letter,-1.0,False,53,-1,0,4
Y2-S2-046K25,2,273,AS,exp,31,→,up,↑,2.443616900127381,False,54,-1,0,4
Y2-S2-046K25,2,274,AS,exp,36,↓,down,↓,0.7342714001424611,True,55,-1,0,4
Y2-S2-046K25,2,275,AS,exp,34,↑,up,↑,1.1043154997751117,True,55,-1,0,4
Y2-S2-046K25,2,276,AS,exp,47,←,left,←,0.8843558002263308,True,55,1,1,5
Y2-S2-046K25,2,277,AS,exp,46,↑,up,↑,1.917404199950397,True,54,1,0,5
Y2-S2-046K25,2,278,AS,exp,43,↓,down,↓,1.2088414002209902,True,54,1,0,5
Y2-S2-046K25,2,279,AS,exp,27,←,left,←,0.9338454999960959,True,54,1,0,5
Y2-S2-046K25,2,280,AS,exp,29,→,right,→,1.1742029995657504,True,53,1,0,5
Y2-S2-046K25,2,281,AS,exp,35,↓,up,↑,1.3127518999390304,False,53,-1,1,6
Y2-S2-046K25,2,282,AS,exp,48,←,left,←,0.7508673002012074,True,54,-1,0,6
Y2-S2-046K25,2,283,AS,exp,39,→,right,→,1.460576499812305,True,54,-1,0,6
Y2-S2-046K25,2,284,AS,exp,49,↑,up,↑,1.7204217002727091,True,54,1,1,7
Y2-S2-046K25,2,285,AS,exp,31,←,left,←,0.8509949999861419,True,53,1,0,7
Y2-S2-046K25,2,286,AS,exp,45,→,right,→,0.8013353999704123,True,53,1,0,7
Y2-S2-046K25,2,287,AS,exp,25,↓,up,↑,2.277235900051892,False,53,-1,1,8
Y2-S2-046K25,2,288,AS,exp,27,←,down,↓,2.3249073000624776,False,54,-1,0,8
Y2-S2-046K25,2,289,AS,exp,32,↓,left,←,2.0989792002364993,False,55,-1,0,8
Y2-S2-046K25,2,290,AS,exp,30,↑,right,→,1.9425889998674393,False,56,-1,0,8
Y2-S2-046K25,2,291,AS,exp,46,↓,no_key,no_letter,-1.0,False,57,-1,0,8
Y2-S2-046K25,2,292,AS,exp,37,→,right,→,2.0656407000496984,True,58,-1,0,8
Y2-S2-046K25,2,293,AS,exp,49,←,left,←,1.783421500120312,True,58,-1,0,8
Y2-S2-046K25,2,294,AS,exp,34,→,no_key,no_letter,-1.0,False,58,-1,0,8
Y2-S2-046K25,2,295,AS,exp,47,↓,no_key,no_letter,-1.0,False,59,-1,0,8
Y2-S2-046K25,2,296,AS,exp,43,→,down,↓,0.034299100283533335,False,60,-1,0,8
Y2-S2-046K25,2,297,AS,exp,42,↓,right,→,1.7806370998732746,False,61,-1,0,8
Y2-S2-046K25,2,298,AS,exp,26,←,left,←,2.1569829997606575,True,62,-1,0,8
Y2-S2-046K25,2,299,AS,exp,31,↓,down,↓,1.8180003999732435,True,62,-1,0,8
Y2-S2-046K25,2,300,AS,exp,44,→,right,→,1.2607359001412988,True,62,1,1,9
Y2-S2-046K25,2,301,AS,exp,39,↓,down,↓,2.0448676999658346,True,61,1,0,9
Y2-S2-046K25,2,302,AS,exp,49,↑,down,↓,1.3374489000998437,False,61,-1,1,10
Y2-S2-046K25,2,303,AS,exp,42,↓,down,↓,0.8008252996951342,True,62,-1,0,10
Y2-S2-046K25,2,304,AS,exp,28,←,left,←,1.0171348000876606,True,62,-1,0,10
Y2-S2-046K25,2,305,AS,exp,48,↑,up,↑,1.5312900999560952,True,62,1,1,11
Y2-S2-046K25,2,306,AS,exp,40,↓,down,↓,1.117221700027585,True,61,1,0,11
Y2-S2-046K25,2,307,AS,exp,44,←,left,←,0.9845059998333454,True,61,1,0,11
Y2-S2-046K25,2,308,AS,exp,26,→,right,→,0.6176217999309301,True,61,1,0,11
Y2-S2-046K25,2,309,AS,exp,31,↓,down,↓,1.1167782000266016,True,60,1,0,11
Y2-S2-046K25,2,310,AS,exp,42,←,left,←,1.0007393998093903,True,60,1,0,11
Y2-S2-046K25,2,311,AS,exp,48,↓,left,←,2.1076700002886355,False,60,-1,1,12
Y2-S2-046K25,2,312,AS,exp,36,→,right,→,1.501107499934733,True,61,-1,0,12
Y2-S2-046K25,2,313,AS,exp,37,↑,up,↑,1.525352000258863,True,61,-1,0,12
Y2-S2-046K25,2,314,AS,exp,33,←,left,←,1.6632679998874664,True,61,1,1,13
Y2-S2-046K25,2,315,AS,exp,25,→,right,→,0.9675875999964774,True,60,1,0,13
Y2-S2-046K25,2,316,AS,exp,48,←,left,←,1.322567299939692,True,60,1,0,13
Y2-S2-046K25,2,317,AS,exp,41,↓,left,←,1.8642755998298526,False,60,-1,1,14
Y2-S2-046K25,2,318,AS,exp,42,↑,no_key,no_letter,-1.0,False,61,-1,0,14
Y2-S2-046K25,2,319,AS,exp,43,↓,down,↓,1.133901400025934,True,62,-1,0,14
Y2-S2-046K25,2,320,AS,exp,48,↑,up,↑,1.3398624998517334,True,62,-1,0,14
Y2-S2-046K25,2,321,AS,exp,46,←,left,←,1.7739642998203635,True,62,1,1,15
Y2-S2-046K25,2,322,AS,exp,43,↓,left,←,2.357562600169331,False,61,-1,1,16
Y2-S2-046K25,3,323,AS,intra_train,33,↑,up,↑,0.8354239999316633,True,39,-,-,-
Y2-S2-046K25,3,324,AS,intra_train,40,→,right,→,0.6511643999256194,True,39,-,-,-
Y2-S2-046K25,3,325,AS,intra_train,27,↑,right,→,0.6839634999632835,False,39,-,-,-
Y2-S2-046K25,3,326,AS,intra_train,41,↓,down,↓,0.9009078000672162,True,39,-,-,-
Y2-S2-046K25,3,327,AS,intra_train,46,←,left,←,1.4057117998600006,True,39,-,-,-
Y2-S2-046K25,3,328,AS,exp,28,↓,up,↑,1.3075962997972965,False,26,-1,0,0
Y2-S2-046K25,3,329,AS,exp,46,←,right,→,1.0416657999157906,False,27,-1,0,0
Y2-S2-046K25,3,330,AS,exp,25,↑,left,←,0.9943694001995027,False,28,-1,0,0
Y2-S2-046K25,3,331,AS,exp,49,→,right,→,0.8118672999553382,True,29,-1,0,0
Y2-S2-046K25,3,332,AS,exp,36,↓,down,↓,1.4803788997232914,True,29,-1,0,0
Y2-S2-046K25,3,333,AS,exp,34,→,left,←,1.1524645001627505,False,29,-1,0,0
Y2-S2-046K25,3,334,AS,exp,25,↑,up,↑,1.0587169998325408,True,30,-1,0,0
Y2-S2-046K25,3,335,AS,exp,34,↓,down,↓,1.9324656003154814,True,30,-1,0,0
Y2-S2-046K25,3,336,AS,exp,37,↑,right,→,1.7100434000603855,False,30,-1,0,0
Y2-S2-046K25,3,337,AS,exp,45,↓,left,←,1.411052200011909,False,31,-1,0,0
Y2-S2-046K25,3,338,AS,exp,28,→,up,↑,1.792704500257969,False,32,-1,0,0
Y2-S2-046K25,3,339,AS,exp,26,↓,down,↓,1.2277387999929488,True,33,-1,0,0
Y2-S2-046K25,3,340,AS,exp,47,←,left,←,0.8811185997910798,True,33,-1,0,0
Y2-S2-046K25,3,341,AS,exp,31,↓,down,↓,1.0865437998436391,True,33,1,1,1
Y2-S2-046K25,3,342,AS,exp,42,↑,up,↑,0.7421641000546515,True,32,1,0,1
Y2-S2-046K25,3,343,AS,exp,49,←,right,→,1.132717499975115,False,32,-1,1,2
Y2-S2-046K25,3,344,AS,exp,50,↓,down,↓,1.5071665002033114,True,33,-1,0,2
Y2-S2-046K25,3,345,AS,exp,36,←,up,↑,1.358284399844706,False,33,-1,0,2
Y2-S2-046K25,3,346,AS,exp,30,↑,left,←,0.6505877999588847,False,34,-1,0,2
Y2-S2-046K25,3,347,AS,exp,31,←,right,→,1.3602434997446835,False,35,-1,0,2
Y2-S2-046K25,3,348,AS,exp,39,↓,down,↓,1.7877216003835201,True,36,-1,0,2
Y2-S2-046K25,3,349,AS,exp,45,↑,left,←,1.5812959000468254,False,36,-1,0,2
Y2-S2-046K25,3,350,AS,exp,29,←,left,←,1.4483965998515487,True,37,-1,0,2
Y2-S2-046K25,3,351,AS,exp,26,↑,down,↓,1.637850800063461,False,37,-1,0,2
Y2-S2-046K25,3,352,AS,exp,32,↓,no_key,no_letter,-1.0,False,38,-1,0,2
Y2-S2-046K25,3,353,AS,exp,50,→,down,↓,1.7143640001304448,False,39,-1,0,2
Y2-S2-046K25,3,354,AS,exp,27,↓,left,←,1.324112099595368,False,40,-1,0,2
Y2-S2-046K25,3,355,AS,exp,42,→,right,→,0.6012226999737322,True,41,-1,0,2
Y2-S2-046K25,3,356,AS,exp,49,↓,down,↓,1.7017366997897625,True,41,-1,0,2
Y2-S2-046K25,3,357,AS,exp,38,←,left,←,1.399430800229311,True,41,1,1,3
Y2-S2-046K25,3,358,AS,exp,31,↓,right,→,1.0148794003762305,False,40,-1,1,4
Y2-S2-046K25,3,359,AS,exp,41,→,left,←,1.305462199728936,False,41,-1,0,4
Y2-S2-046K25,3,360,AS,exp,31,←,left,←,0.8812275999225676,True,42,-1,0,4
Y2-S2-046K25,3,361,AS,exp,30,↑,left,←,1.3914737002924085,False,42,-1,0,4
Y2-S2-046K25,3,362,AS,exp,47,↓,left,←,1.969905300065875,False,43,-1,0,4
Y2-S2-046K25,3,363,AS,exp,46,→,right,→,1.009414500091225,True,44,-1,0,4
Y2-S2-046K25,3,364,AS,exp,45,↓,left,←,0.6177395000122488,False,44,-1,0,4
Y2-S2-046K25,3,365,AS,exp,40,←,no_key,no_letter,-1.0,False,45,-1,0,4
Y2-S2-046K25,3,366,AS,exp,42,↑,down,↓,1.2695832001045346,False,46,-1,0,4
Y2-S2-046K25,3,367,AS,exp,48,←,up,↑,0.617661100346595,False,47,-1,0,4
Y2-S2-046K25,3,368,AS,exp,49,→,no_key,no_letter,-1.0,False,48,-1,0,4
Y2-S2-046K25,3,369,AS,exp,29,←,left,←,2.21928030019626,True,49,-1,0,4
Y2-S2-046K25,3,370,AS,exp,34,↑,no_key,no_letter,-1.0,False,49,-1,0,4
Y2-S2-046K25,3,371,AS,exp,34,→,no_key,no_letter,-1.0,False,50,-1,0,4
Y2-S2-046K25,3,372,AS,exp,29,↑,up,↑,2.061814900022,True,51,-1,0,4
Y2-S2-046K25,3,373,AS,exp,39,→,no_key,no_letter,-1.0,False,51,-1,0,4
Y2-S2-046K25,3,374,AS,exp,28,↑,left,←,1.526467400137335,False,52,-1,0,4
Y2-S2-046K25,3,375,AS,exp,36,←,left,←,1.1925520999357104,True,53,-1,0,4
Y2-S2-046K25,3,376,AS,exp,45,↑,up,↑,0.9172999002039433,True,53,-1,0,4
Y2-S2-046K25,3,377,AS,exp,39,→,up,↑,1.8603695998899639,False,53,-1,0,4
Y2-S2-046K25,3,378,AS,exp,43,↓,left,←,2.2951615997590125,False,54,-1,0,4
Y2-S2-046K25,3,379,AS,exp,49,←,right,→,1.0507085998542607,False,55,-1,0,4
Y2-S2-046K25,3,380,AS,exp,45,↑,up,↑,0.9506064997985959,True,56,-1,0,4
Y2-S2-046K25,3,381,AS,exp,28,→,no_key,no_letter,-1.0,False,56,-1,0,4
Y2-S2-046K25,3,382,AS,exp,27,↓,down,↓,1.1433374001644552,True,57,-1,0,4
Y2-S2-046K25,3,383,AS,exp,39,→,left,←,2.110539199784398,False,57,-1,0,4
Y2-S2-046K25,3,384,AS,exp,48,↑,right,→,2.375050500035286,False,58,-1,0,4
Y2-S2-046K25,3,385,AS,exp,40,↓,up,↑,2.026315299794078,False,59,-1,0,4
Y2-S2-046K25,3,386,AS,exp,43,↑,up,↑,0.0011114999651908875,True,60,-1,0,4
Y2-S2-046K25,3,387,AS,exp,42,→,left,←,1.6285608001053333,False,60,-1,0,4
Y2-S2-046K25,3,388,AS,exp,45,←,no_key,no_letter,-1.0,False,61,-1,0,4
Y2-S2-046K25,3,389,AS,exp,45,→,up,↑,1.6089470000006258,False,62,-1,0,4
Y2-S2-046K25,3,390,AS,exp,47,←,left,←,2.6765486001968384,True,63,-1,0,4
Y2-S2-046K25,3,391,AS,exp,29,↑,right,→,1.9200205001980066,False,63,-1,0,4
Y2-S2-046K25,3,392,AS,exp,49,←,down,↓,1.750943399965763,False,64,-1,0,4
Y2-S2-046K25,3,393,AS,exp,48,↓,down,↓,1.917049300391227,True,65,-1,0,4
Y2-S2-046K25,3,394,AS,exp,26,↑,left,←,2.142289000097662,False,65,-1,0,4
Y2-S2-046K25,3,395,AS,exp,28,→,right,→,2.1078729000873864,True,66,-1,0,4
Y2-S2-046K25,3,396,AS,exp,28,↓,no_key,no_letter,-1.0,False,66,-1,0,4
Y2-S2-046K25,3,397,AS,exp,30,←,left,←,0.634449599776417,True,67,-1,0,4
Y2-S2-046K25,3,398,AS,exp,49,↑,left,←,2.6168363001197577,False,67,-1,0,4
Y2-S2-046K25,3,399,AS,exp,26,↓,no_key,no_letter,-1.0,False,68,-1,0,4
Y2-S2-046K25,3,400,AS,exp,48,→,no_key,no_letter,-1.0,False,69,-1,0,4
Y2-S2-046K25,3,401,AS,exp,30,↓,up,↑,1.2005857001058757,False,70,-1,0,4
Y2-S2-046K25,3,402,AS,exp,45,←,no_key,no_letter,-1.0,False,71,-1,0,4
Y2-S2-046K25,3,403,AS,exp,30,→,left,←,1.8786439001560211,False,72,-1,0,4
Y2-S2-046K25,3,404,AS,exp,34,↑,no_key,no_letter,-1.0,False,73,-1,0,4
Y2-S2-046K25,3,405,AS,exp,40,↓,down,↓,0.9843004997819662,True,74,-1,0,4
Y2-S2-046K25,3,406,AS,exp,26,←,down,↓,0.10107159987092018,False,74,-1,0,4
Y2-S2-046K25,3,407,AS,exp,25,↓,left,←,0.6847172998823225,False,75,-1,0,4
Y2-S2-046K25,3,408,AS,exp,42,←,no_key,no_letter,-1.0,False,76,-1,0,4
Y2-S2-046K25,3,409,AS,exp,33,↑,down,↓,0.6844131997786462,False,77,-1,0,4
Y2-S2-046K25,3,410,AS,exp,35,←,down,↓,0.0009459001012146473,False,78,-1,0,4
Y2-S2-046K25,3,411,AS,exp,35,↑,no_key,no_letter,-1.0,False,79,-1,0,4
Y2-S2-046K25,3,412,AS,exp,27,→,down,↓,0.7010261001996696,False,80,-1,0,4
Y2-S2-046K25,3,413,AS,exp,50,↑,left,←,0.551261099986732,False,81,-1,0,4
Y2-S2-046K25,3,414,AS,exp,27,↓,no_key,no_letter,-1.0,False,82,-1,0,4
Y2-S2-046K25,3,415,AS,exp,27,→,right,→,0.9008833998814225,True,83,-1,0,4
Y2-S2-046K25,3,416,AS,exp,49,←,left,←,0.9510134002193809,True,83,-1,0,4
Y2-S2-046K25,3,417,AS,exp,29,→,right,→,0.9177711000666022,True,83,1,1,5
Y2-S2-046K25,3,418,AS,exp,41,↓,down,↓,0.734485600143671,True,82,1,0,5
Y2-S2-046K25,3,419,AS,exp,26,↑,up,↑,0.7505512000061572,True,82,1,0,5
Y2-S2-046K25,3,420,AS,exp,46,→,right,→,0.6343775000423193,True,82,1,0,5
Y2-S2-046K25,3,421,AS,exp,33,←,left,←,0.4509240002371371,True,81,1,0,5
Y2-S2-046K25,3,422,AS,exp,48,↓,down,↓,0.9007958001457155,True,81,1,0,5
Y2-S2-046K25,3,423,AS,exp,32,↑,up,↑,0.8511606999672949,True,81,1,0,5
Y2-S2-046K25,3,424,AS,exp,35,→,right,→,0.5008697002194822,True,80,1,0,5
Y2-S2-046K25,3,425,AS,exp,39,←,left,←,0.4840653003193438,True,80,1,0,5
Y2-S2-046K25,3,426,AS,exp,41,↓,down,↓,0.6676876000128686,True,80,1,0,5
Y2-S2-046K25,3,427,AS,exp,49,↑,up,↑,0.9343360001221299,True,79,1,0,5
Y2-S2-046K25,3,428,AS,exp,28,↓,down,↓,0.6011681999079883,True,79,1,0,5
Y2-S2-046K25,3,429,AS,exp,42,→,left,←,0.48421149980276823,False,79,-1,1,6
Y2-S2-046K25,3,430,AS,exp,35,↓,down,↓,0.984500200022012,True,80,-1,0,6
Y2-S2-046K25,3,431,AS,exp,42,↑,left,←,2.9945140001364052,False,80,-1,0,6
Y2-S2-046K25,3,432,AS,exp,43,→,right,→,0.8843315001577139,True,81,-1,0,6
Y2-S2-046K25,3,433,AS,exp,27,←,left,←,1.050992799922824,True,81,-1,0,6
Y2-S2-046K25,3,434,AS,exp,45,→,left,←,0.6678722999058664,False,81,-1,0,6
Y2-S2-046K25,3,435,AS,exp,50,←,left,←,0.9510709000751376,True,82,-1,0,6
Y2-S2-046K25,3,436,AS,exp,43,↓,down,↓,1.1844874997623265,True,82,-1,0,6
Y2-S2-046K25,3,437,AS,exp,46,→,right,→,0.7346080001443624,True,82,1,1,7
Y2-S2-046K25,3,438,AS,exp,28,↓,down,↓,1.283954399637878,True,81,1,0,7
Y2-S2-046K25,3,439,AS,exp,37,↑,up,↑,0.5344683001749218,True,81,1,0,7
Y2-S2-046K25,3,440,AS,exp,28,→,right,→,0.8842794997617602,True,81,1,0,7
Y2-S2-046K25,3,441,AS,exp,42,←,down,↓,2.412037800066173,False,80,-1,1,8
Y2-S2-046K25,3,442,AS,exp,41,→,right,→,0.6179384998977184,True,81,-1,0,8
Y2-S2-046K25,3,443,AS,exp,50,←,left,←,1.1511630001477897,True,81,-1,0,8
Y2-S2-046K25,3,444,AS,exp,36,→,right,→,1.5806550001725554,True,81,1,1,9
Y2-S2-046K25,3,445,AS,exp,30,←,left,←,0.7677515000104904,True,80,1,0,9
Y2-S2-046K25,3,446,AS,exp,32,↓,down,↓,0.88451710017398,True,80,1,0,9
Y2-S2-046K25,3,447,AS,exp,40,→,right,→,0.7011552001349628,True,80,1,0,9
Y2-S2-046K25,3,448,AS,exp,34,←,left,←,1.7130264001898468,True,79,1,0,9
Y2-S2-046K25,3,449,AS,exp,50,↓,down,↓,0.8847181997261941,True,79,1,0,9
Y2-S2-046K25,3,450,AS,exp,31,←,left,←,0.8513637003488839,True,79,1,0,9
Y2-S2-046K25,3,451,AS,exp,49,→,right,→,0.5343698998913169,True,78,1,0,9
Y2-S2-046K25,3,452,AS,exp,29,↑,up,↑,1.0510154999792576,True,78,1,0,9
Y2-S2-046K25,3,453,AS,exp,41,→,right,→,0.8345210999250412,True,78,1,0,9
Y2-S2-046K25,3,454,AS,exp,32,←,left,←,1.0176834003068507,True,77,1,0,9
Y2-S2-046K25,3,455,AS,exp,29,↓,down,↓,0.7029562001116574,True,77,1,0,9
Y2-S2-046K25,3,456,AS,exp,41,←,left,←,1.4651069003157318,True,77,1,0,9
Y2-S2-046K25,3,457,AS,exp,41,↓,down,↓,0.9176747002638876,True,76,1,0,9
Y2-S2-046K25,3,458,AS,exp,41,→,right,→,2.606705999933183,True,76,1,0,9
Y2-S2-046K25,3,459,AS,exp,46,↓,down,↓,1.2344459001906216,True,76,1,0,9
Y2-S2-046K25,3,460,AS,exp,39,←,left,←,0.9343569003976882,True,75,1,0,9
Y2-S2-046K25,3,461,AS,exp,39,↓,down,↓,0.7010448998771608,True,75,1,0,9
Y2-S2-046K25,3,462,AS,exp,39,↑,up,↑,0.9180443002842367,True,75,1,0,9
Y2-S2-046K25,3,463,AS,exp,31,→,right,→,0.984201000072062,True,74,1,0,9
Y2-S2-046K25,3,464,AS,exp,31,↓,up,↑,2.3717307997867465,False,74,-1,1,10
Y2-S2-046K25,3,465,AS,exp,31,←,left,←,2.2893316000699997,True,75,-1,0,10
Y2-S2-046K25,3,466,AS,exp,36,→,no_key,no_letter,-1.0,False,75,-1,0,10
Y2-S2-046K25,3,467,AS,exp,38,↑,down,↓,1.5656344001181424,False,76,-1,0,10
Y2-S2-046K25,3,468,AS,exp,26,→,right,→,2.3013077001087368,True,77,-1,0,10
Y2-S2-046K25,3,469,AS,exp,26,←,left,←,2.1150023001246154,True,77,-1,0,10
Y2-S2-046K25,3,470,AS,exp,38,→,right,→,1.7395834000781178,True,77,1,1,11
Y2-S2-046K25,3,471,AS,exp,43,←,left,←,1.0845055999234319,True,76,1,0,11
Y2-S2-046K25,3,472,AS,exp,28,↓,down,↓,1.705398800317198,True,76,1,0,11
Y2-S2-046K25,3,473,AS,exp,44,→,right,→,1.1844938998110592,True,76,1,0,11
Y2-S2-046K25,3,474,AS,exp,47,←,right,→,0.651053300127387,False,75,-1,1,12
Y2-S2-046K25,3,475,AS,exp,39,↓,down,↓,0.8177661001682281,True,76,-1,0,12
Y2-S2-046K25,3,476,AS,exp,44,→,left,←,0.6845538001507521,False,76,-1,0,12
Y2-S2-046K25,3,477,AS,exp,48,←,left,←,1.7098401002585888,True,77,-1,0,12
Y2-S2-046K25,3,478,AS,exp,36,↑,no_key,no_letter,-1.0,False,77,-1,0,12
Y2-S2-046K25,3,479,AS,exp,44,→,up,↑,2.056196399964392,False,78,-1,0,12
Y2-S2-046K25,3,480,AS,exp,46,↑,up,↑,1.2676954995840788,True,79,-1,0,12
Y2-S2-046K25,3,481,AS,exp,30,↓,up,↑,0.2682390003465116,False,79,-1,0,12
Y2-S2-046K25,3,482,AS,exp,31,↑,up,↑,0.9677702998742461,True,80,-1,0,12
Y2-S2-046K25,3,483,AS,exp,46,↓,no_key,no_letter,-1.0,False,80,-1,0,12
Y2-S2-046K25,3,484,AS,exp,37,→,no_key,no_letter,-1.0,False,81,-1,0,12
Y2-S2-046K25,3,485,AS,exp,44,↑,left,←,2.7793014999479055,False,82,-1,0,12
Y2-S2-046K25,3,486,AS,exp,37,←,no_key,no_letter,-1.0,False,83,-1,0,12
Y2-S2-046K25,3,487,AS,exp,44,↑,no_key,no_letter,-1.0,False,84,-1,0,12
Y2-S2-046K25,3,488,AS,exp,48,↓,down,↓,2.1863789996132255,True,85,-1,0,12
Y2-S2-046K25,3,489,AS,exp,36,↑,up,↑,1.4505889997817576,True,85,-1,0,12
Y2-S2-046K25,3,490,AS,exp,46,←,left,←,1.267718399874866,True,85,1,1,13
Y2-S2-046K25,3,491,AS,exp,40,→,left,←,2.9774809000082314,False,84,-1,1,14
Y2-S2-046K25,3,492,AS,exp,35,↑,no_key,no_letter,-1.0,False,85,-1,0,14
Y2-S2-046K25,3,493,AS,exp,41,←,right,→,0.4678112999536097,False,86,-1,0,14
Y2-S2-046K25,3,494,AS,exp,29,→,no_key,no_letter,-1.0,False,87,-1,0,14
Y2-S2-046K25,3,495,AS,exp,36,↓,right,→,3.0532483998686075,False,88,-1,0,14
Y2-S2-046K25,3,496,AS,exp,33,↑,up,↑,2.1562748001888394,True,89,-1,0,14
Y2-S2-046K25,3,497,AS,exp,26,→,no_key,no_letter,-1.0,False,89,-1,0,14
Y2-S2-046K25,3,498,AS,exp,41,↑,no_key,no_letter,-1.0,False,90,-1,0,14
Y2-S2-046K25,3,499,AS,exp,44,↓,down,↓,1.5340482001192868,True,91,-1,0,14
Y2-S2-046K25,3,500,AS,exp,45,←,left,←,0.6679715001955628,True,91,-1,0,14
Y2-S2-046K25,3,501,AS,exp,42,↑,up,↑,1.384427399840206,True,91,1,1,15
Y2-S2-046K25,3,502,AS,exp,34,←,right,→,2.645745700225234,False,90,-1,1,16
Y2-S2-046K25,4,503,PS,intra_train,40,↑,up,↑,1.3028635000810027,True,36,-,-,-
Y2-S2-046K25,4,504,PS,intra_train,27,→,right,→,1.8006776999682188,True,36,-,-,-
Y2-S2-046K25,4,505,PS,intra_train,34,←,left,←,0.6505555002950132,True,36,-,-,-
Y2-S2-046K25,4,506,PS,intra_train,34,↓,down,↓,0.7173031000420451,True,36,-,-,-
Y2-S2-046K25,4,507,PS,intra_train,43,→,right,→,0.6172071001492441,True,36,-,-,-
Y2-S2-046K25,4,508,PS,exp,35,←,left,←,0.8448947002179921,True,24,0,0,0
Y2-S2-046K25,4,509,PS,exp,49,↓,down,↓,0.8265295000746846,True,24,0,0,0
Y2-S2-046K25,4,510,PS,exp,49,↑,up,↑,0.6094274995848536,True,24,1,0,0
Y2-S2-046K25,4,511,PS,exp,43,↓,down,↓,0.7995393997989595,True,23,1,0,0
Y2-S2-046K25,4,512,PS,exp,26,←,left,←,0.5171423000283539,True,23,1,0,0
Y2-S2-046K25,4,513,PS,exp,42,→,right,→,0.5802187998779118,True,23,1,0,0
Y2-S2-046K25,4,514,PS,exp,43,←,left,←,0.5714286998845637,True,22,1,0,0
Y2-S2-046K25,4,515,PS,exp,31,↓,down,↓,0.7681668000295758,True,22,1,0,0
Y2-S2-046K25,4,516,PS,exp,45,→,right,→,1.4219435001723468,True,22,1,0,0
Y2-S2-046K25,4,517,PS,exp,34,↓,down,↓,0.7467620000243187,True,21,1,0,0
Y2-S2-046K25,4,518,PS,exp,25,←,left,←,0.5946657001040876,True,21,1,0,0
Y2-S2-046K25,4,519,PS,exp,48,↓,down,↓,0.6261946000158787,True,21,1,0,0
Y2-S2-046K25,4,520,PS,exp,37,←,left,←,0.5867838999256492,True,20,1,0,0
Y2-S2-046K25,4,521,PS,exp,38,↓,down,↓,0.7774443998932838,True,20,1,0,0
Y2-S2-046K25,4,522,PS,exp,48,→,right,→,0.6083248998038471,True,20,1,0,0
Y2-S2-046K25,4,523,PS,exp,50,←,left,←,0.5658495002426207,True,19,1,0,0
Y2-S2-046K25,4,524,PS,exp,49,↓,down,↓,1.9712792001664639,True,19,1,0,0
Y2-S2-046K25,4,525,PS,exp,34,←,left,←,0.6742571997456253,True,19,1,0,0
Y2-S2-046K25,4,526,PS,exp,40,↑,up,↑,0.5789259001612663,True,18,1,0,0
Y2-S2-046K25,4,527,PS,exp,30,↓,down,↓,0.6517292000353336,True,18,1,0,0
Y2-S2-046K25,4,528,PS,exp,38,→,right,→,0.5337466998025775,True,18,1,0,0
Y2-S2-046K25,4,529,PS,exp,26,↑,up,↑,0.6770779001526535,True,17,1,0,0
Y2-S2-046K25,4,530,PS,exp,44,↓,down,↓,0.5566330999135971,True,17,1,0,0
Y2-S2-046K25,4,531,PS,exp,30,←,left,←,0.7063506999984384,True,17,1,0,0
Y2-S2-046K25,4,532,PS,exp,35,→,left,←,0.8379838000983,False,16,-1,1,1
Y2-S2-046K25,4,533,PS,exp,48,↑,up,↑,0.6421746998094022,True,17,-1,0,1
Y2-S2-046K25,4,534,PS,exp,28,→,right,→,0.5703059998340905,True,17,-1,0,1
Y2-S2-046K25,4,535,PS,exp,46,↑,up,↑,0.574280799832195,True,17,1,1,2
Y2-S2-046K25,4,536,PS,exp,26,→,right,→,0.5235466999001801,True,16,1,0,2
Y2-S2-046K25,4,537,PS,exp,48,↓,down,↓,0.644316999707371,True,16,1,0,2
Y2-S2-046K25,4,538,PS,exp,46,↑,up,↑,0.5659043001942337,True,16,1,0,2
Y2-S2-046K25,4,539,PS,exp,25,←,left,←,0.6046834997832775,True,15,1,0,2
Y2-S2-046K25,4,540,PS,exp,36,↑,up,↑,0.5260574999265373,True,15,1,0,2
Y2-S2-046K25,4,541,PS,exp,45,←,left,←,0.4292712998576462,True,15,1,0,2
Y2-S2-046K25,4,542,PS,exp,32,↑,right,→,0.9238217999227345,False,14,-1,1,3
Y2-S2-046K25,4,543,PS,exp,28,←,left,←,0.5319313001818955,True,15,-1,0,3
Y2-S2-046K25,4,544,PS,exp,31,→,right,→,0.6694609001278877,True,15,-1,0,3
Y2-S2-046K25,4,545,PS,exp,42,↓,down,↓,0.6500536999665201,True,15,1,1,4
Y2-S2-046K25,4,546,PS,exp,43,←,left,←,0.6215701000764966,True,14,1,0,4
Y2-S2-046K25,4,547,PS,exp,32,↑,up,↑,0.5252328999340534,True,14,1,0,4
Y2-S2-046K25,4,548,PS,exp,41,→,right,→,0.5038495003245771,True,14,1,0,4
Y2-S2-046K25,4,549,PS,exp,42,↓,down,↓,0.6268747998401523,True,13,1,0,4
Y2-S2-046K25,4,550,PS,exp,41,←,left,←,0.45914890011772513,True,13,1,0,4
Y2-S2-046K25,4,551,PS,exp,27,↑,up,↑,0.5204330002889037,True,13,1,0,4
Y2-S2-046K25,4,552,PS,exp,48,↓,down,↓,0.7223004000261426,True,12,1,0,4
Y2-S2-046K25,4,553,PS,exp,39,→,left,←,0.624694500118494,False,12,-1,1,5
Y2-S2-046K25,4,554,PS,exp,29,↓,down,↓,0.773225599899888,True,13,-1,0,5
Y2-S2-046K25,4,555,PS,exp,49,↑,right,→,0.6152802002616227,False,13,-1,0,5
Y2-S2-046K25,4,556,PS,exp,45,→,right,→,0.6172416997142136,True,14,-1,0,5
Y2-S2-046K25,4,557,PS,exp,38,←,left,←,0.7863421002402902,True,14,-1,0,5
Y2-S2-046K25,4,558,PS,exp,30,↓,left,←,0.6711478000506759,False,14,-1,0,5
Y2-S2-046K25,4,559,PS,exp,27,↑,up,↑,0.7707417001947761,True,15,-1,0,5
Y2-S2-046K25,4,560,PS,exp,31,→,right,→,0.5809390996582806,True,15,-1,0,5
Y2-S2-046K25,4,561,PS,exp,45,↑,up,↑,0.7228558999486268,True,15,1,1,6
Y2-S2-046K25,4,562,PS,exp,33,→,right,→,0.484470599796623,True,14,1,0,6
Y2-S2-046K25,4,563,PS,exp,27,↓,down,↓,0.9709044001065195,True,14,1,0,6
Y2-S2-046K25,4,564,PS,exp,44,↑,up,↑,1.1067826999351382,True,14,1,0,6
Y2-S2-046K25,4,565,PS,exp,26,↓,down,↓,0.5775911998935044,True,13,1,0,6
Y2-S2-046K25,4,566,PS,exp,29,→,right,→,0.4623527000658214,True,13,1,0,6
Y2-S2-046K25,4,567,PS,exp,43,↓,down,↓,0.7388213998638093,True,13,1,0,6
Y2-S2-046K25,4,568,PS,exp,33,↑,up,↑,0.7320779003202915,True,12,1,0,6
Y2-S2-046K25,4,569,PS,exp,44,↓,down,↓,0.6118963998742402,True,12,1,0,6
Y2-S2-046K25,4,570,PS,exp,48,←,left,←,0.5276866001076996,True,12,1,0,6
Y2-S2-046K25,4,571,PS,exp,49,→,right,→,0.6066223997622728,True,11,1,0,6
Y2-S2-046K25,4,572,PS,exp,47,←,left,←,0.7346021998673677,True,11,1,0,6
Y2-S2-046K25,4,573,PS,exp,26,→,right,→,0.6424174001440406,True,11,1,0,6
Y2-S2-046K25,4,574,PS,exp,33,↑,down,↓,0.6925990995950997,False,10,-1,1,7
Y2-S2-046K25,4,575,PS,exp,50,↓,down,↓,0.728594200219959,True,11,-1,0,7
Y2-S2-046K25,4,576,PS,exp,43,←,right,→,0.9579413002356887,False,11,-1,0,7
Y2-S2-046K25,4,577,PS,exp,47,↑,down,↓,0.8787430999800563,False,12,-1,0,7
Y2-S2-046K25,4,578,PS,exp,29,→,up,↑,0.5405622003600001,False,13,-1,0,7
Y2-S2-046K25,4,579,PS,exp,42,↑,left,←,0.3505211998708546,False,14,-1,0,7
Y2-S2-046K25,4,580,PS,exp,25,→,right,→,0.5676808003336191,True,15,-1,0,7
Y2-S2-046K25,4,581,PS,exp,48,←,left,←,0.8968572001904249,True,15,-1,0,7
Y2-S2-046K25,4,582,PS,exp,27,↑,up,↑,0.5883951997384429,True,15,1,1,8
Y2-S2-046K25,4,583,PS,exp,41,↓,down,↓,0.6443296996876597,True,14,1,0,8
Y2-S2-046K25,4,584,PS,exp,33,←,left,←,0.6832024999894202,True,14,1,0,8
Y2-S2-046K25,4,585,PS,exp,47,↑,up,↑,0.5489408997818828,True,14,1,0,8
Y2-S2-046K25,4,586,PS,exp,31,←,left,←,0.6014395002275705,True,13,1,0,8
Y2-S2-046K25,4,587,PS,exp,37,→,right,→,0.5485260998830199,True,13,1,0,8
Y2-S2-046K25,4,588,PS,exp,38,↑,up,↑,0.545488600153476,True,13,1,0,8
Y2-S2-046K25,4,589,PS,exp,46,←,left,←,0.4799444996751845,True,12,1,0,8
Y2-S2-046K25,4,590,PS,exp,36,→,right,→,1.7071678000502288,True,12,1,0,8
Y2-S2-046K25,4,591,PS,exp,33,↓,down,↓,0.675596899818629,True,12,1,0,8
Y2-S2-046K25,4,592,PS,exp,38,←,left,←,0.6251047002151608,True,11,1,0,8
Y2-S2-046K25,4,593,PS,exp,29,→,left,←,0.48759370017796755,False,11,-1,1,9
Y2-S2-046K25,4,594,PS,exp,28,←,left,←,0.7409461000934243,True,12,-1,0,9
Y2-S2-046K25,4,595,PS,exp,46,→,right,→,0.4642563001252711,True,12,-1,0,9
Y2-S2-046K25,4,596,PS,exp,26,↑,up,↑,0.6095779999159276,True,12,1,1,10
Y2-S2-046K25,4,597,PS,exp,37,←,left,←,0.40292100002989173,True,11,1,0,10
Y2-S2-046K25,4,598,PS,exp,31,↓,down,↓,0.7500405996106565,True,11,1,0,10
Y2-S2-046K25,4,599,PS,exp,48,↑,up,↑,0.6513332999311388,True,11,1,0,10
Y2-S2-046K25,4,600,PS,exp,35,↓,down,↓,0.8222952000796795,True,10,1,0,10
Y2-S2-046K25,4,601,PS,exp,43,→,right,→,0.635124500375241,True,10,1,0,10
Y2-S2-046K25,4,602,PS,exp,27,←,left,←,0.5961048002354801,True,10,1,0,10
Y2-S2-046K25,4,603,PS,exp,43,↑,left,←,0.8130644001066685,False,9,-1,1,11
Y2-S2-046K25,4,604,PS,exp,26,↓,up,↑,0.7288254001177847,False,10,-1,0,11
Y2-S2-046K25,4,605,PS,exp,41,→,left,←,0.3547105002216995,False,11,-1,0,11
Y2-S2-046K25,4,606,PS,exp,36,←,left,←,0.7110733999870718,True,12,-1,0,11
Y2-S2-046K25,4,607,PS,exp,40,↑,right,→,0.755638400092721,False,12,-1,0,11
Y2-S2-046K25,4,608,PS,exp,45,←,left,←,0.48994609992951155,True,13,-1,0,11
Y2-S2-046K25,4,609,PS,exp,46,→,left,←,0.4266909998841584,False,13,-1,0,11
Y2-S2-046K25,4,610,PS,exp,31,↓,left,←,1.3598901997320354,False,14,-1,0,11
Y2-S2-046K25,4,611,PS,exp,38,↑,up,↑,0.5596524002030492,True,15,-1,0,11
Y2-S2-046K25,4,612,PS,exp,39,↓,right,→,0.6512114997021854,False,15,-1,0,11
Y2-S2-046K25,4,613,PS,exp,43,←,left,←,0.6369842998683453,True,16,-1,0,11
Y2-S2-046K25,4,614,PS,exp,27,↓,down,↓,0.7960139000788331,True,16,-1,0,11
Y2-S2-046K25,4,615,PS,exp,50,→,right,→,0.5688729002140462,True,16,1,1,12
Y2-S2-046K25,4,616,PS,exp,43,←,left,←,0.4794713999144733,True,15,1,0,12
Y2-S2-046K25,4,617,PS,exp,32,→,right,→,0.5480136000551283,True,15,1,0,12
Y2-S2-046K25,4,618,PS,exp,36,↓,down,↓,0.768130499869585,True,15,1,0,12
Y2-S2-046K25,4,619,PS,exp,39,→,right,→,0.7471991996280849,True,14,1,0,12
Y2-S2-046K25,4,620,PS,exp,35,←,left,←,0.5346495001576841,True,14,1,0,12
Y2-S2-046K25,4,621,PS,exp,47,↑,up,↑,0.5075950999744236,True,14,1,0,12
Y2-S2-046K25,4,622,PS,exp,35,↓,down,↓,0.5916182999499142,True,13,1,0,12
Y2-S2-046K25,4,623,PS,exp,35,↑,right,→,1.1341850999742746,False,13,-1,1,13
Y2-S2-046K25,4,624,PS,exp,40,→,right,→,0.5860617002472281,True,14,-1,0,13
Y2-S2-046K25,4,625,PS,exp,45,←,left,←,0.511946199927479,True,14,-1,0,13
Y2-S2-046K25,4,626,PS,exp,33,→,right,→,0.5841157999821007,True,14,1,1,14
Y2-S2-046K25,4,627,PS,exp,27,↓,up,↑,0.948735199868679,False,13,-1,1,15
Y2-S2-046K25,4,628,PS,exp,42,←,left,←,0.43109050020575523,True,14,-1,0,15
Y2-S2-046K25,4,629,PS,exp,50,↓,down,↓,0.6507429997436702,True,14,-1,0,15
Y2-S2-046K25,4,630,PS,exp,27,→,right,→,0.7120105000212789,True,14,1,1,16
Y2-S2-046K25,5,631,PS,intra_train,26,↓,down,↓,0.6838813000358641,True,36,-,-,-
Y2-S2-046K25,5,632,PS,intra_train,43,↑,up,↑,0.6336155999451876,True,36,-,-,-
Y2-S2-046K25,5,633,PS,intra_train,29,←,left,←,0.5185116003267467,True,36,-,-,-
Y2-S2-046K25,5,634,PS,intra_train,26,↓,down,↓,0.5840404001064599,True,36,-,-,-
Y2-S2-046K25,5,635,PS,intra_train,38,←,left,←,0.434366799890995,True,36,-,-,-
Y2-S2-046K25,5,636,PS,exp,48,↓,down,↓,0.817864399868995,True,24,0,0,0
Y2-S2-046K25,5,637,PS,exp,50,↑,up,↑,0.5172100001946092,True,24,0,0,0
Y2-S2-046K25,5,638,PS,exp,47,↓,up,↑,0.3513449002057314,False,24,-1,0,0
Y2-S2-046K25,5,639,PS,exp,40,↑,up,↑,0.6287798997946084,True,25,-1,0,0
Y2-S2-046K25,5,640,PS,exp,40,→,right,→,0.6494458997622132,True,25,-1,0,0
Y2-S2-046K25,5,641,PS,exp,30,↑,up,↑,0.517149600200355,True,25,1,1,1
Y2-S2-046K25,5,642,PS,exp,33,←,left,←,1.467839099932462,True,24,1,0,1
Y2-S2-046K25,5,643,PS,exp,28,↑,up,↑,1.9057094003073871,True,24,1,0,1
Y2-S2-046K25,5,644,PS,exp,30,→,right,→,1.0031848000362515,True,24,1,0,1
Y2-S2-046K25,5,645,PS,exp,41,←,left,←,0.5174047998152673,True,23,1,0,1
Y2-S2-046K25,5,646,PS,exp,30,→,right,→,0.4004604001529515,True,23,1,0,1
Y2-S2-046K25,5,647,PS,exp,49,↓,left,←,0.3674273998476565,False,23,-1,1,2
Y2-S2-046K25,5,648,PS,exp,39,→,right,→,0.5005298997275531,True,24,-1,0,2
Y2-S2-046K25,5,649,PS,exp,31,↑,up,↑,0.5170911997556686,True,24,-1,0,2
Y2-S2-046K25,5,650,PS,exp,37,↓,down,↓,0.8591453996486962,True,24,1,1,3
Y2-S2-046K25,5,651,PS,exp,29,←,left,←,0.6064486000686884,True,23,1,0,3
Y2-S2-046K25,5,652,PS,exp,30,↓,down,↓,0.6235462003387511,True,23,1,0,3
Y2-S2-046K25,5,653,PS,exp,34,↑,up,↑,1.609403499867767,True,23,1,0,3
Y2-S2-046K25,5,654,PS,exp,50,←,left,←,0.5884524001739919,True,22,1,0,3
Y2-S2-046K25,5,655,PS,exp,31,→,right,→,0.6519483998417854,True,22,1,0,3
Y2-S2-046K25,5,656,PS,exp,31,↓,down,↓,0.7623833999969065,True,22,1,0,3
Y2-S2-046K25,5,657,PS,exp,38,→,right,→,0.6896033999510109,True,21,1,0,3
Y2-S2-046K25,5,658,PS,exp,30,↑,up,↑,0.7891486999578774,True,21,1,0,3
Y2-S2-046K25,5,659,PS,exp,46,→,right,→,0.5573438000865281,True,21,1,0,3
Y2-S2-046K25,5,660,PS,exp,44,↓,down,↓,0.5998448999598622,True,20,1,0,3
Y2-S2-046K25,5,661,PS,exp,37,→,right,→,0.6252152998931706,True,20,1,0,3
Y2-S2-046K25,5,662,PS,exp,42,←,left,←,0.5336588998325169,True,20,1,0,3
Y2-S2-046K25,5,663,PS,exp,40,↓,down,↓,0.6622430998831987,True,19,1,0,3
Y2-S2-046K25,5,664,PS,exp,48,→,right,→,0.5301895998418331,True,19,1,0,3
Y2-S2-046K25,5,665,PS,exp,44,↑,down,↓,0.9322631000541151,False,19,-1,1,4
Y2-S2-046K25,5,666,PS,exp,37,→,right,→,0.6416005999781191,True,20,-1,0,4
Y2-S2-046K25,5,667,PS,exp,45,↑,up,↑,1.1994893997907639,True,20,-1,0,4
Y2-S2-046K25,5,668,PS,exp,32,→,right,→,0.5644720997661352,True,20,1,1,5
Y2-S2-046K25,5,669,PS,exp,39,↑,up,↑,0.497913199942559,True,19,1,0,5
Y2-S2-046K25,5,670,PS,exp,34,↓,down,↓,0.7215567999519408,True,19,1,0,5
Y2-S2-046K25,5,671,PS,exp,41,→,right,→,0.4885610998608172,True,19,1,0,5
Y2-S2-046K25,5,672,PS,exp,34,↑,up,↑,0.5465891999192536,True,18,1,0,5
Y2-S2-046K25,5,673,PS,exp,47,→,right,→,0.6411768002435565,True,18,1,0,5
Y2-S2-046K25,5,674,PS,exp,45,↓,down,↓,0.7105383002199233,True,18,1,0,5
Y2-S2-046K25,5,675,PS,exp,29,←,left,←,0.6128805000334978,True,17,1,0,5
Y2-S2-046K25,5,676,PS,exp,35,→,right,→,0.4509539999999106,True,17,1,0,5
Y2-S2-046K25,5,677,PS,exp,27,↑,up,↑,0.554059199988842,True,17,1,0,5
Y2-S2-046K25,5,678,PS,exp,48,←,left,←,0.5670063002035022,True,16,1,0,5
Y2-S2-046K25,5,679,PS,exp,25,↑,up,↑,0.5676843002438545,True,16,1,0,5
Y2-S2-046K25,5,680,PS,exp,42,↓,down,↓,0.6412752000615001,True,16,1,0,5
Y2-S2-046K25,5,681,PS,exp,26,→,right,→,0.5277392999269068,True,15,1,0,5
Y2-S2-046K25,5,682,PS,exp,32,←,left,←,0.551632100250572,True,15,1,0,5
Y2-S2-046K25,5,683,PS,exp,42,↑,up,↑,0.5497038001194596,True,15,1,0,5
Y2-S2-046K25,5,684,PS,exp,26,→,right,→,0.5926473997533321,True,14,1,0,5
Y2-S2-046K25,5,685,PS,exp,46,←,left,←,0.5599072002805769,True,14,1,0,5
Y2-S2-046K25,5,686,PS,exp,47,↑,left,←,0.36720950016751885,False,14,-1,1,6
Y2-S2-046K25,5,687,PS,exp,47,←,left,←,0.4697366999462247,True,15,-1,0,6
Y2-S2-046K25,5,688,PS,exp,26,↓,down,↓,0.617138999979943,True,15,-1,0,6
Y2-S2-046K25,5,689,PS,exp,50,→,right,→,0.5632528997957706,True,15,1,1,7
Y2-S2-046K25,5,690,PS,exp,39,←,left,←,0.6213671998120844,True,14,1,0,7
Y2-S2-046K25,5,691,PS,exp,38,→,right,→,1.0859544998966157,True,14,1,0,7
Y2-S2-046K25,5,692,PS,exp,39,↓,down,↓,0.6778983003459871,True,14,1,0,7
Y2-S2-046K25,5,693,PS,exp,25,→,right,→,0.4691575998440385,True,13,1,0,7
Y2-S2-046K25,5,694,PS,exp,45,↑,up,↑,0.5222634002566338,True,13,1,0,7
Y2-S2-046K25,5,695,PS,exp,30,↓,down,↓,0.7086462997831404,True,13,1,0,7
Y2-S2-046K25,5,696,PS,exp,50,←,left,←,0.45214599976316094,True,12,1,0,7
Y2-S2-046K25,5,697,PS,exp,43,↓,down,↓,0.8080684999004006,True,12,1,0,7
Y2-S2-046K25,5,698,PS,exp,26,↑,up,↑,0.47728140000253916,True,12,1,0,7
Y2-S2-046K25,5,699,PS,exp,47,←,left,←,0.47282390017062426,True,11,1,0,7
Y2-S2-046K25,5,700,PS,exp,35,↑,up,↑,0.535852899774909,True,11,1,0,7
Y2-S2-046K25,5,701,PS,exp,26,↓,left,←,0.42110770009458065,False,11,-1,1,8
Y2-S2-046K25,5,702,PS,exp,38,←,left,←,0.4545804001390934,True,12,-1,0,8
Y2-S2-046K25,5,703,PS,exp,27,↑,up,↑,0.6663205996155739,True,12,-1,0,8
Y2-S2-046K25,5,704,PS,exp,37,↓,down,↓,0.4658103003166616,True,12,1,1,9
Y2-S2-046K25,5,705,PS,exp,32,←,left,←,0.5867689000442624,True,11,1,0,9
Y2-S2-046K25,5,706,PS,exp,32,↓,up,↑,0.9191332999616861,False,11,-1,1,10
Y2-S2-046K25,5,707,PS,exp,44,↑,up,↑,0.7384007000364363,True,12,-1,0,10
Y2-S2-046K25,5,708,PS,exp,28,→,down,↓,0.7155036004260182,False,12,-1,0,10
Y2-S2-046K25,5,709,PS,exp,40,←,right,→,0.7973515996709466,False,13,-1,0,10
Y2-S2-046K25,5,710,PS,exp,50,↓,down,↓,0.6260812999680638,True,14,-1,0,10
Y2-S2-046K25,5,711,PS,exp,32,←,left,←,0.4504277999512851,True,14,-1,0,10
Y2-S2-046K25,5,712,PS,exp,32,↑,up,↑,0.4952091998420656,True,14,1,1,11
Y2-S2-046K25,5,713,PS,exp,42,↓,down,↓,0.5878620999865234,True,13,1,0,11
Y2-S2-046K25,5,714,PS,exp,33,→,right,→,0.5939546003937721,True,13,1,0,11
Y2-S2-046K25,5,715,PS,exp,43,↓,down,↓,0.8640519003383815,True,13,1,0,11
Y2-S2-046K25,5,716,PS,exp,32,→,right,→,0.6546531999483705,True,12,1,0,11
Y2-S2-046K25,5,717,PS,exp,40,↑,up,↑,0.6358475000597537,True,12,1,0,11
Y2-S2-046K25,5,718,PS,exp,37,←,left,←,0.4200182999484241,True,12,1,0,11
Y2-S2-046K25,5,719,PS,exp,34,↓,down,↓,0.879625900182873,True,11,1,0,11
Y2-S2-046K25,5,720,PS,exp,43,←,up,↑,1.5313250999897718,False,11,-1,1,12
Y2-S2-046K25,5,721,PS,exp,30,↑,up,↑,0.5165837001986802,True,12,-1,0,12
Y2-S2-046K25,5,722,PS,exp,25,↓,down,↓,0.7880694000050426,True,12,-1,0,12
Y2-S2-046K25,5,723,PS,exp,36,→,right,→,0.5603310000151396,True,12,1,1,13
Y2-S2-046K25,5,724,PS,exp,28,←,left,←,0.5547886998392642,True,11,1,0,13
Y2-S2-046K25,5,725,PS,exp,50,→,right,→,0.8203930002637208,True,11,1,0,13
Y2-S2-046K25,5,726,PS,exp,25,←,left,←,0.7688230001367629,True,11,1,0,13
Y2-S2-046K25,5,727,PS,exp,42,↓,down,↓,1.2403195002116263,True,10,1,0,13
Y2-S2-046K25,5,728,PS,exp,27,→,right,→,0.9629689999856055,True,10,1,0,13
Y2-S2-046K25,5,729,PS,exp,47,↑,up,↑,0.6394621999934316,True,10,1,0,13
Y2-S2-046K25,5,730,PS,exp,26,→,down,↓,0.8579917000606656,False,9,-1,1,14
Y2-S2-046K25,5,731,PS,exp,25,↓,down,↓,0.471174200065434,True,10,-1,0,14
Y2-S2-046K25,5,732,PS,exp,31,←,down,↓,0.7434194996021688,False,10,-1,0,14
Y2-S2-046K25,5,733,PS,exp,26,→,right,→,0.5816923999227583,True,11,-1,0,14
Y2-S2-046K25,5,734,PS,exp,49,←,right,→,0.4403145997785032,False,11,-1,0,14
Y2-S2-046K25,5,735,PS,exp,29,↑,down,↓,0.8047694996930659,False,12,-1,0,14
Y2-S2-046K25,5,736,PS,exp,46,←,left,←,0.39990099985152483,True,13,-1,0,14
Y2-S2-046K25,5,737,PS,exp,25,→,up,↑,0.439580500125885,False,13,-1,0,14
Y2-S2-046K25,5,738,PS,exp,49,←,right,→,0.47825249982997775,False,14,-1,0,14
Y2-S2-046K25,5,739,PS,exp,49,↓,down,↓,0.6835914999246597,True,15,-1,0,14
Y2-S2-046K25,5,740,PS,exp,30,←,left,←,0.7177967000752687,True,15,-1,0,14
Y2-S2-046K25,5,741,PS,exp,26,↓,down,↓,0.8298979997634888,True,15,1,1,15
Y2-S2-046K25,5,742,PS,exp,32,→,right,→,0.661829300224781,True,14,1,0,15
Y2-S2-046K25,5,743,PS,exp,49,←,right,→,0.8528607999905944,False,14,-1,1,16
Y2-S2-046K25,6,744,AS,intra_train,32,→,right,→,1.5136821996420622,True,39,-,-,-
Y2-S2-046K25,6,745,AS,intra_train,36,←,left,←,0.8648664997890592,True,39,-,-,-
Y2-S2-046K25,6,746,AS,intra_train,27,→,right,→,1.005623099859804,True,39,-,-,-
Y2-S2-046K25,6,747,AS,intra_train,46,←,left,←,0.7671436001546681,True,39,-,-,-
Y2-S2-046K25,6,748,AS,intra_train,43,↑,up,↑,1.493019299581647,True,39,-,-,-
Y2-S2-046K25,6,749,AS,exp,29,←,left,←,0.9030607999302447,True,26,0,0,0
Y2-S2-046K25,6,750,AS,exp,28,→,left,←,1.2248876001685858,False,26,-1,0,0
Y2-S2-046K25,6,751,AS,exp,38,←,left,←,0.7583463001064956,True,27,-1,0,0
Y2-S2-046K25,6,752,AS,exp,38,↓,down,↓,0.6304905000142753,True,27,-1,0,0
Y2-S2-046K25,6,753,AS,exp,33,↑,up,↑,1.2764367000199854,True,27,1,1,1
Y2-S2-046K25,6,754,AS,exp,26,←,left,←,0.8360842000693083,True,26,1,0,1
Y2-S2-046K25,6,755,AS,exp,43,↓,down,↓,0.6157596996054053,True,26,1,0,1
Y2-S2-046K25,6,756,AS,exp,28,↑,up,↑,1.0035157999955118,True,26,1,0,1
Y2-S2-046K25,6,757,AS,exp,47,←,right,→,0.673832000233233,False,25,-1,1,2
Y2-S2-046K25,6,758,AS,exp,28,→,right,→,0.6649556001648307,True,26,-1,0,2
Y2-S2-046K25,6,759,AS,exp,28,↓,down,↓,0.7075375001877546,True,26,-1,0,2
Y2-S2-046K25,6,760,AS,exp,35,→,down,↓,1.5220347000285983,False,26,-1,0,2
Y2-S2-046K25,6,761,AS,exp,40,←,left,←,0.7553880997002125,True,27,-1,0,2
Y2-S2-046K25,6,762,AS,exp,45,↓,down,↓,0.7156050000339746,True,27,-1,0,2
Y2-S2-046K25,6,763,AS,exp,25,←,left,←,0.720963700208813,True,27,1,1,3
Y2-S2-046K25,6,764,AS,exp,41,↑,up,↑,0.7269367999397218,True,26,1,0,3
Y2-S2-046K25,6,765,AS,exp,25,↓,down,↓,0.7238449002616107,True,26,1,0,3
Y2-S2-046K25,6,766,AS,exp,40,↑,up,↑,0.7104346002452075,True,26,1,0,3
Y2-S2-046K25,6,767,AS,exp,39,←,left,←,0.6819513002410531,True,25,1,0,3
Y2-S2-046K25,6,768,AS,exp,29,↓,down,↓,0.8330454998649657,True,25,1,0,3
Y2-S2-046K25,6,769,AS,exp,39,←,no_key,no_letter,-1.0,False,25,-1,1,4
Y2-S2-046K25,6,770,AS,exp,41,↑,up,↑,0.567212600260973,True,26,-1,0,4
Y2-S2-046K25,6,771,AS,exp,29,←,down,↓,0.8874624003656209,False,26,-1,0,4
Y2-S2-046K25,6,772,AS,exp,30,↓,up,↑,0.3009354001842439,False,27,-1,0,4
Y2-S2-046K25,6,773,AS,exp,26,↑,left,←,1.2383876997046173,False,28,-1,0,4
Y2-S2-046K25,6,774,AS,exp,35,→,right,→,1.5418451000005007,True,29,-1,0,4
Y2-S2-046K25,6,775,AS,exp,27,↑,up,↑,0.5676064998842776,True,29,-1,0,4
Y2-S2-046K25,6,776,AS,exp,50,↓,down,↓,0.9035265003331006,True,29,1,1,5
Y2-S2-046K25,6,777,AS,exp,39,→,right,→,0.844286700244993,True,28,1,0,5
Y2-S2-046K25,6,778,AS,exp,41,↓,down,↓,1.406426700297743,True,28,1,0,5
Y2-S2-046K25,6,779,AS,exp,40,←,left,←,0.550424600020051,True,28,1,0,5
Y2-S2-046K25,6,780,AS,exp,42,↓,down,↓,0.6947625000029802,True,27,1,0,5
Y2-S2-046K25,6,781,AS,exp,39,←,left,←,0.5002155997790396,True,27,1,0,5
Y2-S2-046K25,6,782,AS,exp,47,↓,down,↓,0.8413756997324526,True,27,1,0,5
Y2-S2-046K25,6,783,AS,exp,43,↑,up,↑,0.9460062002763152,True,26,1,0,5
Y2-S2-046K25,6,784,AS,exp,34,←,left,←,0.7589731998741627,True,26,1,0,5
Y2-S2-046K25,6,785,AS,exp,45,→,right,→,0.8944898997433484,True,26,1,0,5
Y2-S2-046K25,6,786,AS,exp,40,←,up,↑,0.6497200997546315,False,25,-1,1,6
Y2-S2-046K25,6,787,AS,exp,39,→,right,→,0.835647199768573,True,26,-1,0,6
Y2-S2-046K25,6,788,AS,exp,49,←,left,←,0.4339605998247862,True,26,-1,0,6
Y2-S2-046K25,6,789,AS,exp,25,↓,down,↓,0.7946930998004973,True,26,1,1,7
Y2-S2-046K25,6,790,AS,exp,48,↑,up,↑,0.6952494001016021,True,25,1,0,7
Y2-S2-046K25,6,791,AS,exp,44,→,left,←,0.53371959971264,False,25,-1,1,8
Y2-S2-046K25,6,792,AS,exp,40,↓,down,↓,0.9216684000566602,True,26,-1,0,8
Y2-S2-046K25,6,793,AS,exp,49,→,no_key,no_letter,-1.0,False,26,-1,0,8
Y2-S2-046K25,6,794,AS,exp,42,↓,down,↓,1.0698103001341224,True,27,-1,0,8
Y2-S2-046K25,6,795,AS,exp,30,↑,no_key,no_letter,-1.0,False,27,-1,0,8
Y2-S2-046K25,6,796,AS,exp,43,→,right,→,0.567516699898988,True,28,-1,0,8
Y2-S2-046K25,6,797,AS,exp,31,←,left,←,0.5168822999112308,True,28,-1,0,8
Y2-S2-046K25,6,798,AS,exp,37,→,right,→,0.6004582000896335,True,28,1,1,9
Y2-S2-046K25,6,799,AS,exp,32,←,left,←,0.7724286997690797,True,27,1,0,9
Y2-S2-046K25,6,800,AS,exp,25,↓,down,↓,0.9099733997136354,True,27,1,0,9
Y2-S2-046K25,6,801,AS,exp,46,↑,up,↑,0.8468079003505409,True,27,1,0,9
Y2-S2-046K25,6,802,AS,exp,47,←,left,←,0.517204400151968,True,26,1,0,9
Y2-S2-046K25,6,803,AS,exp,29,↓,down,↓,0.9606364998035133,True,26,1,0,9
Y2-S2-046K25,6,804,AS,exp,28,↑,up,↑,0.9181814999319613,True,26,1,0,9
Y2-S2-046K25,6,805,AS,exp,48,↓,down,↓,1.494048099964857,True,25,1,0,9
Y2-S2-046K25,6,806,AS,exp,29,→,right,→,0.8646410000510514,True,25,1,0,9
Y2-S2-046K25,6,807,AS,exp,46,↓,left,←,1.0582229001447558,False,25,-1,1,10
Y2-S2-046K25,6,808,AS,exp,30,→,up,↑,1.020184500142932,False,26,-1,0,10
Y2-S2-046K25,6,809,AS,exp,37,↑,down,↓,1.0256504002027214,False,27,-1,0,10
Y2-S2-046K25,6,810,AS,exp,28,↓,left,←,1.164954800158739,False,28,-1,0,10
Y2-S2-046K25,6,811,AS,exp,25,→,right,→,0.7647060002200305,True,29,-1,0,10
Y2-S2-046K25,6,812,AS,exp,27,↓,down,↓,0.7000928996130824,True,29,-1,0,10
Y2-S2-046K25,6,813,AS,exp,28,→,right,→,0.5505657000467181,True,29,1,1,11
Y2-S2-046K25,6,814,AS,exp,31,←,left,←,0.8197885998524725,True,28,1,0,11
Y2-S2-046K25,6,815,AS,exp,44,→,right,→,0.5336408000439405,True,28,1,0,11
Y2-S2-046K25,6,816,AS,exp,37,←,left,←,1.3570615998469293,True,28,1,0,11
Y2-S2-046K25,6,817,AS,exp,42,↑,up,↑,0.751764599699527,True,27,1,0,11
Y2-S2-046K25,6,818,AS,exp,45,↓,down,↓,0.9529901999048889,True,27,1,0,11
Y2-S2-046K25,6,819,AS,exp,45,→,right,→,0.4507375000976026,True,27,1,0,11
Y2-S2-046K25,6,820,AS,exp,35,↓,down,↓,0.828008399810642,True,26,1,0,11
Y2-S2-046K25,6,821,AS,exp,34,←,left,←,0.5005637002177536,True,26,1,0,11
Y2-S2-046K25,6,822,AS,exp,47,↑,up,↑,0.5505039999261498,True,26,1,0,11
Y2-S2-046K25,6,823,AS,exp,34,→,right,→,0.9684013002552092,True,25,1,0,11
Y2-S2-046K25,6,824,AS,exp,28,←,left,←,0.652390600182116,True,25,1,0,11
Y2-S2-046K25,6,825,AS,exp,39,→,right,→,0.770947499666363,True,25,1,0,11
Y2-S2-046K25,6,826,AS,exp,29,↓,up,↑,1.2279097996652126,False,24,-1,1,12
Y2-S2-046K25,6,827,AS,exp,44,→,down,↓,1.276942300144583,False,25,-1,0,12
Y2-S2-046K25,6,828,AS,exp,29,↓,left,←,1.2161689000204206,False,26,-1,0,12
Y2-S2-046K25,6,829,AS,exp,49,←,left,←,0.7752081998623908,True,27,-1,0,12
Y2-S2-046K25,6,830,AS,exp,38,↑,up,↑,0.5338838999159634,True,27,-1,0,12
Y2-S2-046K25,6,831,AS,exp,27,→,no_key,no_letter,-1.0,False,27,-1,0,12
Y2-S2-046K25,6,832,AS,exp,34,↓,up,↑,1.0545468996278942,False,28,-1,0,12
Y2-S2-046K25,6,833,AS,exp,34,→,right,→,0.5839105998165905,True,29,-1,0,12
Y2-S2-046K25,6,834,AS,exp,41,↑,up,↑,0.6593190003186464,True,29,-1,0,12
Y2-S2-046K25,6,835,AS,exp,49,←,left,←,0.55047080013901,True,29,1,1,13
Y2-S2-046K25,6,836,AS,exp,31,→,no_key,no_letter,-1.0,False,28,-1,1,14
Y2-S2-046K25,6,837,AS,exp,37,←,left,←,0.4838614999316633,True,29,-1,0,14
Y2-S2-046K25,6,838,AS,exp,50,↑,up,↑,0.9703710000030696,True,29,-1,0,14
Y2-S2-046K25,6,839,AS,exp,36,↓,right,→,0.9213934000581503,False,29,-1,0,14
Y2-S2-046K25,6,840,AS,exp,37,→,right,→,0.5509558999910951,True,30,-1,0,14
Y2-S2-046K25,6,841,AS,exp,35,↑,up,↑,0.859962800052017,True,30,-1,0,14
Y2-S2-046K25,6,842,AS,exp,50,↓,down,↓,0.7348710000514984,True,30,1,1,15
Y2-S2-046K25,6,843,AS,exp,28,←,left,←,0.5173061001114547,True,29,1,0,15
Y2-S2-046K25,6,844,AS,exp,30,→,right,→,0.8306195000186563,True,29,1,0,15
Y2-S2-046K25,6,845,AS,exp,49,←,left,←,0.8155833999626338,True,29,1,0,15
Y2-S2-046K25,6,846,AS,exp,29,→,right,→,0.7430773000232875,True,28,1,0,15
Y2-S2-046K25,6,847,AS,exp,46,↓,down,↓,0.7389949997887015,True,28,1,0,15
Y2-S2-046K25,6,848,AS,exp,46,←,left,←,0.4506013002246618,True,28,1,0,15
Y2-S2-046K25,6,849,AS,exp,40,↓,down,↓,0.8481808002106845,True,27,1,0,15
Y2-S2-046K25,6,850,AS,exp,36,↑,down,↓,0.6528390999883413,False,27,-1,1,16
Y2-S2-046K25,7,851,AS,intra_train,49,←,left,←,0.9002559999935329,True,39,-,-,-
Y2-S2-046K25,7,852,AS,intra_train,44,→,right,→,0.7841035998426378,True,39,-,-,-
Y2-S2-046K25,7,853,AS,intra_train,28,↑,up,↑,1.4835256999358535,True,39,-,-,-
Y2-S2-046K25,7,854,AS,intra_train,33,↓,down,↓,0.8553132000379264,True,39,-,-,-
Y2-S2-046K25,7,855,AS,intra_train,38,←,left,←,0.4172264998778701,True,39,-,-,-
Y2-S2-046K25,7,856,AS,exp,47,↓,down,↓,0.8479356002062559,True,26,0,0,0
Y2-S2-046K25,7,857,AS,exp,34,→,right,→,0.773741100449115,True,26,0,0,0
Y2-S2-046K25,7,858,AS,exp,40,↓,down,↓,0.9277866999618709,True,26,1,0,0
Y2-S2-046K25,7,859,AS,exp,34,↑,down,↓,0.7911469996906817,False,25,-1,1,1
Y2-S2-046K25,7,860,AS,exp,42,→,right,→,0.5007827999070287,True,26,-1,0,1
Y2-S2-046K25,7,861,AS,exp,37,←,left,←,0.6659864000976086,True,26,-1,0,1
Y2-S2-046K25,7,862,AS,exp,29,↑,up,↑,0.7541772001422942,True,26,1,1,2
Y2-S2-046K25,7,863,AS,exp,26,→,right,→,0.5920877000316978,True,25,1,0,2
Y2-S2-046K25,7,864,AS,exp,40,←,left,←,0.7600675001740456,True,25,1,0,2
Y2-S2-046K25,7,865,AS,exp,40,↑,up,↑,1.8735487000085413,True,25,1,0,2
Y2-S2-046K25,7,866,AS,exp,28,←,left,←,0.7454492999240756,True,24,1,0,2
Y2-S2-046K25,7,867,AS,exp,28,→,right,→,0.5736362999305129,True,24,1,0,2
Y2-S2-046K25,7,868,AS,exp,45,↑,down,↓,1.1019429001025856,False,24,-1,1,3
Y2-S2-046K25,7,869,AS,exp,27,↓,down,↓,0.8934275000356138,True,25,-1,0,3
Y2-S2-046K25,7,870,AS,exp,28,↑,up,↑,0.5339405001141131,True,25,-1,0,3
Y2-S2-046K25,7,871,AS,exp,25,←,left,←,0.7477331999689341,True,25,1,1,4
Y2-S2-046K25,7,872,AS,exp,48,↑,up,↑,0.500662200152874,True,24,1,0,4
Y2-S2-046K25,7,873,AS,exp,39,↓,down,↓,1.2350250002928078,True,24,1,0,4
Y2-S2-046K25,7,874,AS,exp,45,←,right,→,0.997882999945432,False,24,-1,1,5
Y2-S2-046K25,7,875,AS,exp,48,→,right,→,0.8833959000185132,True,25,-1,0,5
Y2-S2-046K25,7,876,AS,exp,42,↑,up,↑,0.7275087996385992,True,25,-1,0,5
Y2-S2-046K25,7,877,AS,exp,31,↓,left,←,1.3204857003875077,False,25,-1,0,5
Y2-S2-046K25,7,878,AS,exp,33,↑,up,↑,0.6346056000329554,True,26,-1,0,5
Y2-S2-046K25,7,879,AS,exp,27,→,left,←,1.9762993003241718,False,26,-1,0,5
Y2-S2-046K25,7,880,AS,exp,34,↑,up,↑,0.5169299002736807,True,27,-1,0,5
Y2-S2-046K25,7,881,AS,exp,45,↓,down,↓,0.8760307999327779,True,27,-1,0,5
Y2-S2-046K25,7,882,AS,exp,27,←,left,←,0.5341552998870611,True,27,1,1,6
Y2-S2-046K25,7,883,AS,exp,48,↓,right,→,0.7147673997096717,False,26,-1,1,7
Y2-S2-046K25,7,884,AS,exp,50,←,left,←,1.0240981997922063,True,27,-1,0,7
Y2-S2-046K25,7,885,AS,exp,29,↑,up,↑,0.7526115998625755,True,27,-1,0,7
Y2-S2-046K25,7,886,AS,exp,36,←,left,←,0.5006893002428114,True,27,1,1,8
Y2-S2-046K25,7,887,AS,exp,39,↑,up,↑,0.6899469001218677,True,26,1,0,8
Y2-S2-046K25,7,888,AS,exp,38,→,right,→,0.8005916997790337,True,26,1,0,8
Y2-S2-046K25,7,889,AS,exp,46,↑,down,↓,1.4276521997526288,False,26,-1,1,9
Y2-S2-046K25,7,890,AS,exp,29,→,right,→,0.8999858000315726,True,27,-1,0,9
Y2-S2-046K25,7,891,AS,exp,28,↑,up,↑,0.9172375998459756,True,27,-1,0,9
Y2-S2-046K25,7,892,AS,exp,43,→,right,→,0.9049740000627935,True,27,1,1,10
Y2-S2-046K25,7,893,AS,exp,46,↓,down,↓,1.0805832999758422,True,26,1,0,10
Y2-S2-046K25,7,894,AS,exp,44,→,left,←,2.0612242999486625,False,26,-1,1,11
Y2-S2-046K25,7,895,AS,exp,40,←,left,←,1.4882542002014816,True,27,-1,0,11
Y2-S2-046K25,7,896,AS,exp,34,↑,up,↑,0.8073351001366973,True,27,-1,0,11
Y2-S2-046K25,7,897,AS,exp,44,↓,down,↓,0.979176000226289,True,27,1,1,12
Y2-S2-046K25,7,898,AS,exp,43,←,left,←,0.4846398998051882,True,26,1,0,12
Y2-S2-046K25,7,899,AS,exp,44,→,right,→,0.5336386999115348,True,26,1,0,12
Y2-S2-046K25,7,900,AS,exp,31,↑,left,←,1.319484599865973,False,26,-1,1,13
Y2-S2-046K25,7,901,AS,exp,37,←,left,←,0.8006012002006173,True,27,-1,0,13
Y2-S2-046K25,7,902,AS,exp,44,↑,up,↑,0.8854247000999749,True,27,-1,0,13
Y2-S2-046K25,7,903,AS,exp,41,←,left,←,1.2843853002414107,True,27,1,1,14
Y2-S2-046K25,7,904,AS,exp,49,↓,right,→,0.6641446002759039,False,26,-1,1,15
Y2-S2-046K25,7,905,AS,exp,41,↑,up,↑,0.550712900236249,True,27,-1,0,15
Y2-S2-046K25,7,906,AS,exp,28,→,right,→,0.6985233002342284,True,27,-1,0,15
Y2-S2-046K25,7,907,AS,exp,37,↓,down,↓,0.9589754999615252,True,27,1,1,16
Y2-S2-046K25,8,908,PS,intra_train,49,←,left,←,0.6674625002779067,True,36,-,-,-
Y2-S2-046K25,8,909,PS,intra_train,41,↓,down,↓,0.6339496001601219,True,36,-,-,-
Y2-S2-046K25,8,910,PS,intra_train,43,↑,up,↑,0.6668378999456763,True,36,-,-,-
Y2-S2-046K25,8,911,PS,intra_train,27,→,right,→,0.8456231998279691,True,36,-,-,-
Y2-S2-046K25,8,912,PS,intra_train,38,↓,down,↓,0.6171526997350156,True,36,-,-,-
Y2-S2-046K25,8,913,PS,exp,29,↑,up,↑,1.265249399933964,True,24,0,0,0
Y2-S2-046K25,8,914,PS,exp,43,→,right,→,0.5874811997637153,True,24,0,0,0
Y2-S2-046K25,8,915,PS,exp,28,↑,up,↑,0.6106670000590384,True,24,1,0,0
Y2-S2-046K25,8,916,PS,exp,30,←,up,↑,1.2333048000000417,False,23,-1,1,1
Y2-S2-046K25,8,917,PS,exp,26,↓,down,↓,0.7072084001265466,True,24,-1,0,1
Y2-S2-046K25,8,918,PS,exp,39,→,right,→,0.8625134998001158,True,24,-1,0,1
Y2-S2-046K25,8,919,PS,exp,47,↓,down,↓,0.6810057000257075,True,24,1,1,2
Y2-S2-046K25,8,920,PS,exp,26,←,left,←,0.5622501997277141,True,23,1,0,2
Y2-S2-046K25,8,921,PS,exp,40,→,right,→,0.724660400301218,True,23,1,0,2
Y2-S2-046K25,8,922,PS,exp,37,↓,down,↓,0.7701455000787973,True,23,1,0,2
Y2-S2-046K25,8,923,PS,exp,30,↑,up,↑,0.7768293996341527,True,22,1,0,2
Y2-S2-046K25,8,924,PS,exp,35,↓,down,↓,0.8059897003695369,True,22,1,0,2
Y2-S2-046K25,8,925,PS,exp,32,↑,left,←,0.4836008003912866,False,22,-1,1,3
Y2-S2-046K25,8,926,PS,exp,35,↓,down,↓,0.7459240998141468,True,23,-1,0,3
Y2-S2-046K25,8,927,PS,exp,46,→,right,→,0.6616289000958204,True,23,-1,0,3
Y2-S2-046K25,8,928,PS,exp,35,←,left,←,0.5172757999971509,True,23,1,1,4
Y2-S2-046K25,8,929,PS,exp,27,↑,up,↑,0.8923136000521481,True,22,1,0,4
Y2-S2-046K25,8,930,PS,exp,48,←,left,←,0.4837450999766588,True,22,1,0,4
Y2-S2-046K25,8,931,PS,exp,30,→,right,→,0.6853064000606537,True,22,1,0,4
Y2-S2-046K25,8,932,PS,exp,48,↓,down,↓,1.1467213998548687,True,21,1,0,4
Y2-S2-046K25,8,933,PS,exp,40,←,left,←,0.6465590000152588,True,21,1,0,4
Y2-S2-046K25,8,934,PS,exp,35,→,right,→,0.6288523999974132,True,21,1,0,4
Y2-S2-046K25,8,935,PS,exp,49,↑,up,↑,0.8565956000238657,True,20,1,0,4
Y2-S2-046K25,8,936,PS,exp,44,→,right,→,0.548127599991858,True,20,1,0,4
Y2-S2-046K25,8,937,PS,exp,36,←,left,←,0.6330884997732937,True,20,1,0,4
Y2-S2-046K25,8,938,PS,exp,49,↑,up,↑,0.5509668998420238,True,19,1,0,4
Y2-S2-046K25,8,939,PS,exp,32,→,right,→,0.503360599745065,True,19,1,0,4
Y2-S2-046K25,8,940,PS,exp,42,↑,up,↑,0.5434055998921394,True,19,1,0,4
Y2-S2-046K25,8,941,PS,exp,38,←,left,←,0.6162193999625742,True,18,1,0,4
Y2-S2-046K25,8,942,PS,exp,39,→,right,→,0.6697720000520349,True,18,1,0,4
Y2-S2-046K25,8,943,PS,exp,25,↓,down,↓,1.1174725997261703,True,18,1,0,4
Y2-S2-046K25,8,944,PS,exp,39,→,right,→,0.5957671003416181,True,17,1,0,4
Y2-S2-046K25,8,945,PS,exp,33,↑,up,↑,0.6551133999601007,True,17,1,0,4
Y2-S2-046K25,8,946,PS,exp,25,←,right,→,0.6560707995668054,False,17,-1,1,5
Y2-S2-046K25,8,947,PS,exp,48,↓,down,↓,1.1192977000027895,True,18,-1,0,5
Y2-S2-046K25,8,948,PS,exp,45,↑,up,↑,0.7428319999016821,True,18,-1,0,5
Y2-S2-046K25,8,949,PS,exp,36,→,right,→,0.583015900105238,True,18,1,1,6
Y2-S2-046K25,8,950,PS,exp,47,←,no_key,no_letter,-1.0,False,17,-1,1,7
Y2-S2-046K25,8,951,PS,exp,26,↑,down,↓,1.1325813001021743,False,18,-1,0,7
Y2-S2-046K25,8,952,PS,exp,32,↓,up,↑,1.0647720997221768,False,19,-1,0,7
Y2-S2-046K25,8,953,PS,exp,47,→,right,→,0.6260585999116302,True,20,-1,0,7
Y2-S2-046K25,8,954,PS,exp,37,↓,down,↓,0.6109768999740481,True,20,-1,0,7
Y2-S2-046K25,8,955,PS,exp,47,←,left,←,1.20167150022462,True,20,1,1,8
Y2-S2-046K25,8,956,PS,exp,39,↑,up,↑,0.554856900125742,True,19,1,0,8
Y2-S2-046K25,8,957,PS,exp,34,↓,down,↓,0.5724812997505069,True,19,1,0,8
Y2-S2-046K25,8,958,PS,exp,31,↑,up,↑,0.631413200404495,True,19,1,0,8
Y2-S2-046K25,8,959,PS,exp,27,→,right,→,0.6446589003317058,True,18,1,0,8
Y2-S2-046K25,8,960,PS,exp,26,↓,down,↓,0.5783949000760913,True,18,1,0,8
Y2-S2-046K25,8,961,PS,exp,43,↑,no_key,no_letter,-1.0,False,18,-1,1,9
Y2-S2-046K25,8,962,PS,exp,41,↓,down,↓,0.6119916001334786,True,19,-1,0,9
Y2-S2-046K25,8,963,PS,exp,29,→,right,→,0.4929351001046598,True,19,-1,0,9
Y2-S2-046K25,8,964,PS,exp,31,←,left,←,0.41728619998320937,True,19,1,1,10
Y2-S2-046K25,8,965,PS,exp,29,↑,up,↑,0.7101974999532104,True,18,1,0,10
Y2-S2-046K25,8,966,PS,exp,40,→,right,→,0.5798941999673843,True,18,1,0,10
Y2-S2-046K25,8,967,PS,exp,42,←,no_key,no_letter,-1.0,False,18,-1,1,11
Y2-S2-046K25,8,968,PS,exp,45,↓,down,↓,0.7151697999797761,True,19,-1,0,11
Y2-S2-046K25,8,969,PS,exp,37,←,right,→,0.4870885997079313,False,19,-1,0,11
Y2-S2-046K25,8,970,PS,exp,32,↓,left,←,1.3027194999158382,False,20,-1,0,11
Y2-S2-046K25,8,971,PS,exp,42,↑,up,↑,0.8844759003259242,True,21,-1,0,11
Y2-S2-046K25,8,972,PS,exp,36,←,left,←,1.0428635999560356,True,21,-1,0,11
Y2-S2-046K25,8,973,PS,exp,28,↑,up,↑,0.5624702000059187,True,21,1,1,12
Y2-S2-046K25,8,974,PS,exp,41,←,left,←,0.5529089998453856,True,20,1,0,12
Y2-S2-046K25,8,975,PS,exp,38,→,right,→,0.5969186001457274,True,20,1,0,12
Y2-S2-046K25,8,976,PS,exp,50,↓,down,↓,1.2643441003747284,True,20,1,0,12
Y2-S2-046K25,8,977,PS,exp,40,→,right,→,0.6534355999901891,True,19,1,0,12
Y2-S2-046K25,8,978,PS,exp,39,↑,up,↑,0.5193904996849597,True,19,1,0,12
Y2-S2-046K25,8,979,PS,exp,26,→,right,→,0.7239435999654233,True,19,1,0,12
Y2-S2-046K25,8,980,PS,exp,41,↑,up,↑,0.637945800088346,True,18,1,0,12
Y2-S2-046K25,8,981,PS,exp,29,→,left,←,0.3341085999272764,False,18,-1,1,13
Y2-S2-046K25,8,982,PS,exp,25,↓,up,↑,0.6085290000773966,False,19,-1,0,13
Y2-S2-046K25,8,983,PS,exp,47,↑,up,↑,0.5282414997927845,True,20,-1,0,13
Y2-S2-046K25,8,984,PS,exp,47,↓,down,↓,0.7803623997606337,True,20,-1,0,13
Y2-S2-046K25,8,985,PS,exp,38,←,left,←,0.7333348002284765,True,20,1,1,14
Y2-S2-046K25,8,986,PS,exp,47,→,right,→,0.5717643001116812,True,19,1,0,14
Y2-S2-046K25,8,987,PS,exp,40,↓,down,↓,0.7380305998958647,True,19,1,0,14
Y2-S2-046K25,8,988,PS,exp,37,→,right,→,0.5415642000734806,True,19,1,0,14
Y2-S2-046K25,8,989,PS,exp,43,↓,down,↓,0.8598183998838067,True,18,1,0,14
Y2-S2-046K25,8,990,PS,exp,33,→,right,→,0.5225104000419378,True,18,1,0,14
Y2-S2-046K25,8,991,PS,exp,27,←,down,↓,1.2862515999004245,False,18,-1,1,15
Y2-S2-046K25,8,992,PS,exp,37,↑,up,↑,0.6057174997404218,True,19,-1,0,15
Y2-S2-046K25,8,993,PS,exp,25,←,left,←,0.6226597996428609,True,19,-1,0,15
Y2-S2-046K25,8,994,PS,exp,35,↑,down,↓,0.7509989999234676,False,19,-1,0,15
Y2-S2-046K25,8,995,PS,exp,32,→,right,→,1.4003087002784014,True,20,-1,0,15
Y2-S2-046K25,8,996,PS,exp,25,←,left,←,0.4503421001136303,True,20,-1,0,15
Y2-S2-046K25,8,997,PS,exp,50,↓,down,↓,0.7018800997175276,True,20,1,1,16
