PART_ID,Block_no,Trial_no,Block_type,Trial_type,CSI,Stim_letter,Key_pressed,letter_choose,Rt,Corr,Stimulus Time,Level,Reversal,Revs_count
Y2-S2-141K21,1,1,PS,train,39,→,right,→,0.8081057998351753,True,30,-,-,-
Y2-S2-141K21,1,2,PS,train,31,↓,down,↓,0.8977621998637915,True,30,-,-,-
Y2-S2-141K21,1,3,PS,train,31,→,right,→,1.0383883998729289,True,30,-,-,-
Y2-S2-141K21,1,4,PS,train,44,←,left,←,0.8763016001321375,True,30,-,-,-
Y2-S2-141K21,1,5,PS,train,49,↓,down,↓,0.8439326002262533,True,30,-,-,-
Y2-S2-141K21,1,6,PS,train,47,←,left,←,0.723658500239253,True,30,-,-,-
Y2-S2-141K21,1,7,PS,train,48,↑,up,↑,0.6790959001518786,True,30,-,-,-
Y2-S2-141K21,1,8,PS,train,27,←,left,←,0.9462588001042604,True,30,-,-,-
Y2-S2-141K21,1,9,PS,train,32,↓,down,↓,0.8329321998171508,True,30,-,-,-
Y2-S2-141K21,1,10,PS,train,47,→,right,→,0.7615411002188921,True,30,-,-,-
Y2-S2-141K21,2,11,AS,train,40,↑,up,↑,0.8340624002739787,True,45,-,-,-
Y2-S2-141K21,2,12,AS,train,41,→,right,→,1.1451520002447069,True,45,-,-,-
Y2-S2-141K21,2,13,AS,train,31,↑,up,↑,0.9226080998778343,True,45,-,-,-
Y2-S2-141K21,2,14,AS,train,42,→,right,→,1.1418603998608887,True,45,-,-,-
Y2-S2-141K21,2,15,AS,train,47,↑,up,↑,1.30123749980703,True,45,-,-,-
Y2-S2-141K21,2,16,AS,train,25,↓,down,↓,0.9953258000314236,True,45,-,-,-
Y2-S2-141K21,2,17,AS,train,38,←,left,←,1.0094941998831928,True,45,-,-,-
Y2-S2-141K21,2,18,AS,train,41,↓,down,↓,1.1239293003454804,True,45,-,-,-
Y2-S2-141K21,2,19,AS,train,42,→,right,→,1.1602660003118217,True,45,-,-,-
Y2-S2-141K21,2,20,AS,train,45,↑,up,↑,0.9536394001916051,True,45,-,-,-
Y2-S2-141K21,-,21,PS,adaptive,25,←,left,←,0.7115662000142038,True,10,0,0,0
Y2-S2-141K21,-,22,PS,adaptive,31,→,right,→,0.7644609999842942,True,10,0,0,0
Y2-S2-141K21,-,23,PS,adaptive,44,↓,down,↓,0.6762574003078043,True,10,1,0,0
Y2-S2-141K21,-,24,PS,adaptive,49,↑,up,↑,0.6680608000606298,True,9,1,0,0
Y2-S2-141K21,-,25,PS,adaptive,42,↓,down,↓,0.5791163998655975,True,9,1,0,0
Y2-S2-141K21,-,26,PS,adaptive,37,↑,up,↑,0.7380455997772515,True,9,1,0,0
Y2-S2-141K21,-,27,PS,adaptive,27,→,right,→,0.5195074998773634,True,8,1,0,0
Y2-S2-141K21,-,28,PS,adaptive,33,←,right,→,0.6664430000819266,False,8,-1,1,1
Y2-S2-141K21,-,29,PS,adaptive,35,↑,up,↑,0.6604287000373006,True,9,-1,0,1
Y2-S2-141K21,-,30,PS,adaptive,25,→,right,→,0.7667306000366807,True,9,-1,0,1
Y2-S2-141K21,-,31,PS,adaptive,40,←,left,←,0.4698016997426748,True,9,1,1,2
Y2-S2-141K21,-,32,PS,adaptive,43,↑,left,←,0.603795999661088,False,8,-1,1,3
Y2-S2-141K21,-,33,PS,adaptive,33,↓,down,↓,0.6380743999034166,True,9,-1,0,3
Y2-S2-141K21,-,34,PS,adaptive,27,←,left,←,0.6560117998160422,True,9,-1,0,3
Y2-S2-141K21,-,35,PS,adaptive,34,↓,left,←,0.7503745001740754,False,9,-1,0,3
Y2-S2-141K21,-,36,PS,adaptive,34,→,right,→,0.5713901002891362,True,10,-1,0,3
Y2-S2-141K21,-,37,PS,adaptive,48,←,right,→,0.5055181998759508,False,10,-1,0,3
Y2-S2-141K21,-,38,PS,adaptive,47,↓,down,↓,0.6486589997075498,True,11,-1,0,3
Y2-S2-141K21,-,39,PS,adaptive,48,←,left,←,0.5541817997582257,True,11,-1,0,3
Y2-S2-141K21,-,40,PS,adaptive,44,→,right,→,0.5014582998119295,True,11,1,1,4
Y2-S2-141K21,-,41,AS,adaptive,47,↓,down,↓,0.763198500033468,True,20,0,0,0
Y2-S2-141K21,-,42,AS,adaptive,45,←,left,←,0.5803082999773324,True,20,0,0,0
Y2-S2-141K21,-,43,AS,adaptive,32,→,right,→,0.7000110996887088,True,20,1,0,0
Y2-S2-141K21,-,44,AS,adaptive,48,↓,down,↓,0.6841066000051796,True,19,1,0,0
Y2-S2-141K21,-,45,AS,adaptive,25,↑,up,↑,0.6714530000463128,True,19,1,0,0
Y2-S2-141K21,-,46,AS,adaptive,35,←,left,←,0.6153454999439418,True,19,1,0,0
Y2-S2-141K21,-,47,AS,adaptive,43,↑,up,↑,0.6274219998158514,True,18,1,0,0
Y2-S2-141K21,-,48,AS,adaptive,38,↓,down,↓,0.655536999925971,True,18,1,0,0
Y2-S2-141K21,-,49,AS,adaptive,30,←,left,←,0.6675280998460948,True,18,1,0,0
Y2-S2-141K21,-,50,AS,adaptive,42,↓,down,↓,0.601853100117296,True,17,1,0,0
Y2-S2-141K21,-,51,AS,adaptive,35,←,left,←,0.6180927995592356,True,17,1,0,0
Y2-S2-141K21,-,52,AS,adaptive,31,↑,up,↑,0.5698643000796437,True,17,1,0,0
Y2-S2-141K21,-,53,AS,adaptive,41,→,right,→,0.6334421001374722,True,16,1,0,0
Y2-S2-141K21,-,54,AS,adaptive,30,←,left,←,0.5988913998007774,True,16,1,0,0
Y2-S2-141K21,-,55,AS,adaptive,48,↓,down,↓,0.6187789002433419,True,16,1,0,0
Y2-S2-141K21,-,56,AS,adaptive,32,→,right,→,0.5865579997189343,True,15,1,0,0
Y2-S2-141K21,-,57,AS,adaptive,47,↓,down,↓,0.7123336000367999,True,15,1,0,0
Y2-S2-141K21,-,58,AS,adaptive,44,↑,up,↑,0.6506938999518752,True,15,1,0,0
Y2-S2-141K21,-,59,AS,adaptive,32,↓,down,↓,0.6253697997890413,True,14,1,0,0
Y2-S2-141K21,-,60,AS,adaptive,45,↑,up,↑,0.5928003997541964,True,14,1,0,0
Y2-S2-141K21,-,61,AS,adaptive,43,↓,down,↓,0.8637151001021266,True,14,1,0,0
Y2-S2-141K21,-,62,AS,adaptive,34,←,left,←,0.6416817000135779,True,13,1,0,0
Y2-S2-141K21,-,63,AS,adaptive,44,↓,down,↓,0.6504331999458373,True,13,1,0,0
Y2-S2-141K21,-,64,AS,adaptive,37,↑,up,↑,0.636901400052011,True,13,1,0,0
Y2-S2-141K21,-,65,AS,adaptive,28,↓,down,↓,0.6685541998594999,True,12,1,0,0
Y2-S2-141K21,-,66,AS,adaptive,46,→,right,→,0.5708670001477003,True,12,1,0,0
Y2-S2-141K21,-,67,AS,adaptive,49,↑,up,↑,0.5440696999430656,True,12,1,0,0
Y2-S2-141K21,-,68,AS,adaptive,30,→,right,→,0.6077765999361873,True,11,1,0,0
Y2-S2-141K21,-,69,AS,adaptive,26,←,right,→,0.6438484000973403,False,11,-1,1,1
Y2-S2-141K21,-,70,AS,adaptive,31,↓,down,↓,0.5907807997427881,True,12,-1,0,1
Y2-S2-141K21,-,71,AS,adaptive,33,←,right,→,0.6266477997414768,False,12,-1,0,1
Y2-S2-141K21,-,72,AS,adaptive,33,↑,up,↑,0.6892399997450411,True,13,-1,0,1
Y2-S2-141K21,-,73,AS,adaptive,44,→,right,→,0.5600515999831259,True,13,-1,0,1
Y2-S2-141K21,-,74,AS,adaptive,27,↓,up,↑,0.673709100112319,False,13,-1,0,1
Y2-S2-141K21,-,75,AS,adaptive,26,←,left,←,0.522605299949646,True,14,-1,0,1
Y2-S2-141K21,-,76,AS,adaptive,31,→,right,→,0.6007403000257909,True,14,-1,0,1
Y2-S2-141K21,-,77,AS,adaptive,50,←,left,←,0.5415550000034273,True,14,1,1,2
Y2-S2-141K21,-,78,AS,adaptive,30,↓,down,↓,0.9692411003634334,True,13,1,0,2
Y2-S2-141K21,-,79,AS,adaptive,48,↑,right,→,0.7287543998099864,False,13,-1,1,3
Y2-S2-141K21,-,80,AS,adaptive,42,→,right,→,0.7222182000987232,True,14,-1,0,3
Y2-S2-141K21,-,81,AS,adaptive,29,←,left,←,0.6298942002467811,True,14,-1,0,3
Y2-S2-141K21,-,82,AS,adaptive,42,↓,down,↓,0.6271068002097309,True,14,1,1,4
Y2-S2-141K21,1,83,AS,intra_train,40,→,right,→,0.5996382003650069,True,19,-,-,-
Y2-S2-141K21,1,84,AS,intra_train,47,←,left,←,0.7036860003136098,True,19,-,-,-
Y2-S2-141K21,1,85,AS,intra_train,27,→,right,→,0.6334870997816324,True,19,-,-,-
Y2-S2-141K21,1,86,AS,intra_train,32,←,left,←,0.6257299003191292,True,19,-,-,-
Y2-S2-141K21,1,87,AS,intra_train,41,↓,down,↓,0.74234430026263,True,19,-,-,-
Y2-S2-141K21,1,88,AS,exp,47,←,left,←,0.6500467997975647,True,13,0,0,0
Y2-S2-141K21,1,89,AS,exp,33,↑,up,↑,0.769597299862653,True,13,0,0,0
Y2-S2-141K21,1,90,AS,exp,42,←,left,←,0.5309117003343999,True,13,1,0,0
Y2-S2-141K21,1,91,AS,exp,46,↑,up,↑,0.7664462001994252,True,12,1,0,0
Y2-S2-141K21,1,92,AS,exp,29,↓,down,↓,0.6295894999057055,True,12,1,0,0
Y2-S2-141K21,1,93,AS,exp,28,←,left,←,0.6290339999832213,True,12,1,0,0
Y2-S2-141K21,1,94,AS,exp,42,→,right,→,0.6406688001006842,True,11,1,0,0
Y2-S2-141K21,1,95,AS,exp,44,↑,up,↑,0.7488676998764277,True,11,1,0,0
Y2-S2-141K21,1,96,AS,exp,38,←,left,←,0.7727218000218272,True,11,1,0,0
Y2-S2-141K21,1,97,AS,exp,38,→,left,←,0.7704692999832332,False,10,-1,1,1
Y2-S2-141K21,1,98,AS,exp,48,↓,down,↓,0.616132800001651,True,11,-1,0,1
Y2-S2-141K21,1,99,AS,exp,29,↑,up,↑,0.6149713997729123,True,11,-1,0,1
Y2-S2-141K21,1,100,AS,exp,44,←,left,←,0.5651039998047054,True,11,1,1,2
Y2-S2-141K21,1,101,AS,exp,46,↓,down,↓,0.672768899705261,True,10,1,0,2
Y2-S2-141K21,1,102,AS,exp,41,←,left,←,0.5428868001326919,True,10,1,0,2
Y2-S2-141K21,1,103,AS,exp,28,↑,up,↑,0.5904512000270188,True,10,1,0,2
Y2-S2-141K21,1,104,AS,exp,29,→,left,←,0.6464883997105062,False,9,-1,1,3
Y2-S2-141K21,1,105,AS,exp,46,↓,up,↑,0.646015000063926,False,10,-1,0,3
Y2-S2-141K21,1,106,AS,exp,41,→,right,→,0.6723890001885593,True,11,-1,0,3
Y2-S2-141K21,1,107,AS,exp,45,↑,up,↑,0.5601363996975124,True,11,-1,0,3
Y2-S2-141K21,1,108,AS,exp,33,↓,up,↑,0.7318621003068984,False,11,-1,0,3
Y2-S2-141K21,1,109,AS,exp,45,→,right,→,0.47325060004368424,True,12,-1,0,3
Y2-S2-141K21,1,110,AS,exp,46,↓,down,↓,0.5298850000835955,True,12,-1,0,3
Y2-S2-141K21,1,111,AS,exp,38,↑,up,↑,0.6035722000524402,True,12,1,1,4
Y2-S2-141K21,1,112,AS,exp,35,↓,down,↓,0.5841656997799873,True,11,1,0,4
Y2-S2-141K21,1,113,AS,exp,35,↑,up,↑,0.6030447999946773,True,11,1,0,4
Y2-S2-141K21,1,114,AS,exp,29,↓,down,↓,0.6831896002404392,True,11,1,0,4
Y2-S2-141K21,1,115,AS,exp,39,→,right,→,0.5135735999792814,True,10,1,0,4
Y2-S2-141K21,1,116,AS,exp,29,↓,up,↑,0.608487100340426,False,10,-1,1,5
Y2-S2-141K21,1,117,AS,exp,31,→,right,→,0.5352812996134162,True,11,-1,0,5
Y2-S2-141K21,1,118,AS,exp,37,↑,up,↑,0.5832978999242187,True,11,-1,0,5
Y2-S2-141K21,1,119,AS,exp,39,↓,up,↑,0.6211287002079189,False,11,-1,0,5
Y2-S2-141K21,1,120,AS,exp,47,→,right,→,0.6051774001680315,True,12,-1,0,5
Y2-S2-141K21,1,121,AS,exp,30,↑,down,↓,0.8275083000771701,False,12,-1,0,5
Y2-S2-141K21,1,122,AS,exp,30,←,left,←,0.6702413000166416,True,13,-1,0,5
Y2-S2-141K21,1,123,AS,exp,49,↑,up,↑,0.5786371999420226,True,13,-1,0,5
Y2-S2-141K21,1,124,AS,exp,32,←,left,←,0.6325149000622332,True,13,1,1,6
Y2-S2-141K21,1,125,AS,exp,40,→,right,→,0.5270086000673473,True,12,1,0,6
Y2-S2-141K21,1,126,AS,exp,44,←,left,←,0.6619826001115143,True,12,1,0,6
Y2-S2-141K21,1,127,AS,exp,26,↑,up,↑,0.7161485999822617,True,12,1,0,6
Y2-S2-141K21,1,128,AS,exp,37,↓,down,↓,0.6620348999276757,True,11,1,0,6
Y2-S2-141K21,1,129,AS,exp,35,←,left,←,0.7105704001151025,True,11,1,0,6
Y2-S2-141K21,1,130,AS,exp,39,↑,up,↑,0.5991631001234055,True,11,1,0,6
Y2-S2-141K21,1,131,AS,exp,39,←,left,←,0.8877518000081182,True,10,1,0,6
Y2-S2-141K21,1,132,AS,exp,46,↓,up,↑,0.6646245997399092,False,10,-1,1,7
Y2-S2-141K21,1,133,AS,exp,29,↑,up,↑,0.8945983001030982,True,11,-1,0,7
Y2-S2-141K21,1,134,AS,exp,32,→,right,→,0.8112343000248075,True,11,-1,0,7
Y2-S2-141K21,1,135,AS,exp,50,←,right,→,0.7015982996672392,False,11,-1,0,7
Y2-S2-141K21,1,136,AS,exp,28,↓,down,↓,0.6539143999107182,True,12,-1,0,7
Y2-S2-141K21,1,137,AS,exp,27,↑,up,↑,0.6404860001057386,True,12,-1,0,7
Y2-S2-141K21,1,138,AS,exp,41,↓,down,↓,0.6187355001457036,True,12,1,1,8
Y2-S2-141K21,1,139,AS,exp,39,↑,down,↓,0.6270389999262989,False,11,-1,1,9
Y2-S2-141K21,1,140,AS,exp,32,→,right,→,0.6070411000400782,True,12,-1,0,9
Y2-S2-141K21,1,141,AS,exp,50,←,left,←,0.6344804996624589,True,12,-1,0,9
Y2-S2-141K21,1,142,AS,exp,43,↓,down,↓,0.636901100166142,True,12,1,1,10
Y2-S2-141K21,1,143,AS,exp,49,←,left,←,0.6695059998892248,True,11,1,0,10
Y2-S2-141K21,1,144,AS,exp,45,↑,up,↑,0.611867600120604,True,11,1,0,10
Y2-S2-141K21,1,145,AS,exp,28,←,left,←,0.6180916000157595,True,11,1,0,10
Y2-S2-141K21,1,146,AS,exp,41,→,left,←,0.6148025998845696,False,10,-1,1,11
Y2-S2-141K21,1,147,AS,exp,46,↑,up,↑,0.6474894001148641,True,11,-1,0,11
Y2-S2-141K21,1,148,AS,exp,26,←,left,←,0.6388751002959907,True,11,-1,0,11
Y2-S2-141K21,1,149,AS,exp,43,→,right,→,0.48987670009955764,True,11,1,1,12
Y2-S2-141K21,1,150,AS,exp,49,↑,down,↓,0.6401283000595868,False,10,-1,1,13
Y2-S2-141K21,1,151,AS,exp,39,→,right,→,0.47518299985677004,True,11,-1,0,13
Y2-S2-141K21,1,152,AS,exp,49,↓,down,↓,0.6100320001132786,True,11,-1,0,13
Y2-S2-141K21,1,153,AS,exp,39,→,up,↑,0.7821847000159323,False,11,-1,0,13
Y2-S2-141K21,1,154,AS,exp,47,↑,up,↑,0.49302219972014427,True,12,-1,0,13
Y2-S2-141K21,1,155,AS,exp,26,↓,down,↓,0.686336699873209,True,12,-1,0,13
Y2-S2-141K21,1,156,AS,exp,39,→,right,→,0.43353179981932044,True,12,1,1,14
Y2-S2-141K21,1,157,AS,exp,38,↑,up,↑,0.6099497000686824,True,11,1,0,14
Y2-S2-141K21,1,158,AS,exp,41,←,left,←,0.5586144998669624,True,11,1,0,14
Y2-S2-141K21,1,159,AS,exp,43,↓,left,←,0.6520020999014378,False,11,-1,1,15
Y2-S2-141K21,1,160,AS,exp,43,→,right,→,0.7623220002278686,True,12,-1,0,15
Y2-S2-141K21,1,161,AS,exp,29,↓,down,↓,0.7941479003056884,True,12,-1,0,15
Y2-S2-141K21,1,162,AS,exp,38,→,left,←,0.6092098001390696,False,12,-1,0,15
Y2-S2-141K21,1,163,AS,exp,37,↓,down,↓,0.7863377998583019,True,13,-1,0,15
Y2-S2-141K21,1,164,AS,exp,50,←,left,←,0.6447042999789119,True,13,-1,0,15
Y2-S2-141K21,1,165,AS,exp,37,→,right,→,0.6345534999854863,True,13,1,1,16
Y2-S2-141K21,2,166,PS,intra_train,49,↑,up,↑,0.5392625001259148,True,15,-,-,-
Y2-S2-141K21,2,167,PS,intra_train,31,←,right,→,0.8564814999699593,False,15,-,-,-
Y2-S2-141K21,2,168,PS,intra_train,39,↑,up,↑,0.5354848001152277,True,15,-,-,-
Y2-S2-141K21,2,169,PS,intra_train,48,→,right,→,0.6512603000737727,True,15,-,-,-
Y2-S2-141K21,2,170,PS,intra_train,28,←,left,←,0.690612600184977,True,15,-,-,-
Y2-S2-141K21,2,171,PS,exp,40,→,right,→,0.559778000228107,True,10,0,0,0
Y2-S2-141K21,2,172,PS,exp,28,↑,left,←,0.7385245002806187,False,10,-1,0,0
Y2-S2-141K21,2,173,PS,exp,31,↓,down,↓,0.5926868999376893,True,11,-1,0,0
Y2-S2-141K21,2,174,PS,exp,36,→,right,→,0.55968530010432,True,11,-1,0,0
Y2-S2-141K21,2,175,PS,exp,50,←,left,←,0.5414278996177018,True,11,1,1,1
Y2-S2-141K21,2,176,PS,exp,35,↑,up,↑,0.5311169000342488,True,10,1,0,1
Y2-S2-141K21,2,177,PS,exp,42,←,left,←,0.425384399946779,True,10,1,0,1
Y2-S2-141K21,2,178,PS,exp,32,↑,left,←,0.7833263999782503,False,10,-1,1,2
Y2-S2-141K21,2,179,PS,exp,31,←,left,←,0.48865999979898334,True,11,-1,0,2
Y2-S2-141K21,2,180,PS,exp,32,↑,up,↑,0.5265569998882711,True,11,-1,0,2
Y2-S2-141K21,2,181,PS,exp,47,↓,down,↓,0.6025050999596715,True,11,1,1,3
Y2-S2-141K21,2,182,PS,exp,31,↑,up,↑,0.5370291001163423,True,10,1,0,3
Y2-S2-141K21,2,183,PS,exp,46,→,right,→,0.5137109998613596,True,10,1,0,3
Y2-S2-141K21,2,184,PS,exp,30,↑,up,↑,0.6714228000491858,True,10,1,0,3
Y2-S2-141K21,2,185,PS,exp,35,→,right,→,0.5239264997653663,True,9,1,0,3
Y2-S2-141K21,2,186,PS,exp,38,←,left,←,0.5016409000381827,True,9,1,0,3
Y2-S2-141K21,2,187,PS,exp,41,↑,up,↑,0.4856233997270465,True,9,1,0,3
Y2-S2-141K21,2,188,PS,exp,28,←,right,→,0.6908022998832166,False,8,-1,1,4
Y2-S2-141K21,2,189,PS,exp,40,→,right,→,0.5237577999942005,True,9,-1,0,4
Y2-S2-141K21,2,190,PS,exp,43,←,left,←,0.46490849973633885,True,9,-1,0,4
Y2-S2-141K21,2,191,PS,exp,25,→,right,→,0.4537248001433909,True,9,1,1,5
Y2-S2-141K21,2,192,PS,exp,33,↓,down,↓,0.5667233997955918,True,8,1,0,5
Y2-S2-141K21,2,193,PS,exp,30,←,right,→,0.6140796998515725,False,8,-1,1,6
Y2-S2-141K21,2,194,PS,exp,26,→,right,→,0.435789099894464,True,9,-1,0,6
Y2-S2-141K21,2,195,PS,exp,30,↓,down,↓,0.7031662999652326,True,9,-1,0,6
Y2-S2-141K21,2,196,PS,exp,40,←,left,←,0.6255938997492194,True,9,1,1,7
Y2-S2-141K21,2,197,PS,exp,38,→,right,→,0.5205408995971084,True,8,1,0,7
Y2-S2-141K21,2,198,PS,exp,49,←,left,←,0.5180824999697506,True,8,1,0,7
Y2-S2-141K21,2,199,PS,exp,41,→,right,→,0.47179359989240766,True,8,1,0,7
Y2-S2-141K21,2,200,PS,exp,48,↑,left,←,0.601893300190568,False,7,-1,1,8
Y2-S2-141K21,2,201,PS,exp,38,↓,down,↓,0.5994350998662412,True,8,-1,0,8
Y2-S2-141K21,2,202,PS,exp,42,←,right,→,0.5640997001901269,False,8,-1,0,8
Y2-S2-141K21,2,203,PS,exp,33,→,right,→,0.46342140017077327,True,9,-1,0,8
Y2-S2-141K21,2,204,PS,exp,40,←,left,←,0.46753539983183146,True,9,-1,0,8
Y2-S2-141K21,2,205,PS,exp,28,↓,down,↓,0.5335478000342846,True,9,1,1,9
Y2-S2-141K21,2,206,PS,exp,25,→,right,→,0.4859158000908792,True,8,1,0,9
Y2-S2-141K21,2,207,PS,exp,27,↑,up,↑,0.48909700009971857,True,8,1,0,9
Y2-S2-141K21,2,208,PS,exp,38,↓,down,↓,0.6297669000923634,True,8,1,0,9
Y2-S2-141K21,2,209,PS,exp,38,←,left,←,0.7094084001146257,True,7,1,0,9
Y2-S2-141K21,2,210,PS,exp,47,↑,up,↑,0.502997100353241,True,7,1,0,9
Y2-S2-141K21,2,211,PS,exp,26,→,up,↑,0.5953187998384237,False,7,-1,1,10
Y2-S2-141K21,2,212,PS,exp,25,←,left,←,0.5050613996572793,True,8,-1,0,10
Y2-S2-141K21,2,213,PS,exp,32,→,left,←,0.6386624998413026,False,8,-1,0,10
Y2-S2-141K21,2,214,PS,exp,49,↑,left,←,0.5939926002174616,False,9,-1,0,10
Y2-S2-141K21,2,215,PS,exp,40,→,right,→,0.5650194999761879,True,10,-1,0,10
Y2-S2-141K21,2,216,PS,exp,30,↓,down,↓,0.578490000218153,True,10,-1,0,10
Y2-S2-141K21,2,217,PS,exp,26,←,left,←,0.42584360018372536,True,10,1,1,11
Y2-S2-141K21,2,218,PS,exp,30,↓,left,←,0.7862720000557601,False,9,-1,1,12
Y2-S2-141K21,2,219,PS,exp,46,→,right,→,0.632602000143379,True,10,-1,0,12
Y2-S2-141K21,2,220,PS,exp,44,←,left,←,0.6238273000344634,True,10,-1,0,12
Y2-S2-141K21,2,221,PS,exp,46,↓,down,↓,0.725647300016135,True,10,1,1,13
Y2-S2-141K21,2,222,PS,exp,42,→,right,→,0.46103910030797124,True,9,1,0,13
Y2-S2-141K21,2,223,PS,exp,28,↓,left,←,0.8684809999540448,False,9,-1,1,14
Y2-S2-141K21,2,224,PS,exp,28,↑,left,←,0.649821899831295,False,10,-1,0,14
Y2-S2-141K21,2,225,PS,exp,31,→,right,→,0.4425155003555119,True,11,-1,0,14
Y2-S2-141K21,2,226,PS,exp,41,←,left,←,0.6319924998097122,True,11,-1,0,14
Y2-S2-141K21,2,227,PS,exp,34,↓,down,↓,0.588697100058198,True,11,1,1,15
Y2-S2-141K21,2,228,PS,exp,40,←,left,←,0.38773859990760684,True,10,1,0,15
Y2-S2-141K21,2,229,PS,exp,49,→,right,→,0.6268299999646842,True,10,1,0,15
Y2-S2-141K21,2,230,PS,exp,29,↓,down,↓,0.5797032997943461,True,10,1,0,15
Y2-S2-141K21,2,231,PS,exp,49,→,right,→,0.5446804999373853,True,9,1,0,15
Y2-S2-141K21,2,232,PS,exp,50,↓,down,↓,0.5353192002512515,True,9,1,0,15
Y2-S2-141K21,2,233,PS,exp,48,←,left,←,0.5757645000703633,True,9,1,0,15
Y2-S2-141K21,2,234,PS,exp,28,→,right,→,0.4525513998232782,True,8,1,0,15
Y2-S2-141K21,2,235,PS,exp,47,←,left,←,0.5905730002559721,True,8,1,0,15
Y2-S2-141K21,2,236,PS,exp,28,↑,right,→,0.6037753997370601,False,8,-1,1,16
Y2-S2-141K21,3,237,PS,intra_train,36,→,right,→,0.43374969996511936,True,15,-,-,-
Y2-S2-141K21,3,238,PS,intra_train,40,↓,down,↓,0.597762499935925,True,15,-,-,-
Y2-S2-141K21,3,239,PS,intra_train,49,→,right,→,0.42122820019721985,True,15,-,-,-
Y2-S2-141K21,3,240,PS,intra_train,44,←,left,←,0.4945148001424968,True,15,-,-,-
Y2-S2-141K21,3,241,PS,intra_train,30,→,right,→,0.6735046999529004,True,15,-,-,-
Y2-S2-141K21,3,242,PS,exp,44,↓,down,↓,0.5438807001337409,True,10,0,0,0
Y2-S2-141K21,3,243,PS,exp,47,←,left,←,0.7958049001172185,True,10,0,0,0
Y2-S2-141K21,3,244,PS,exp,38,↓,down,↓,0.5415754001587629,True,10,1,0,0
Y2-S2-141K21,3,245,PS,exp,29,←,left,←,0.44464239990338683,True,9,1,0,0
Y2-S2-141K21,3,246,PS,exp,43,→,right,→,0.47615090012550354,True,9,1,0,0
Y2-S2-141K21,3,247,PS,exp,35,←,left,←,0.550802499987185,True,9,1,0,0
Y2-S2-141K21,3,248,PS,exp,25,↓,down,↓,0.5547931999899447,True,8,1,0,0
Y2-S2-141K21,3,249,PS,exp,25,→,right,→,0.49964920012280345,True,8,1,0,0
Y2-S2-141K21,3,250,PS,exp,40,↓,down,↓,0.5699430000968277,True,8,1,0,0
Y2-S2-141K21,3,251,PS,exp,34,←,left,←,0.3862140001729131,True,7,1,0,0
Y2-S2-141K21,3,252,PS,exp,35,↓,down,↓,0.8189354003407061,True,7,1,0,0
Y2-S2-141K21,3,253,PS,exp,34,↑,up,↑,0.5263042999431491,True,7,1,0,0
Y2-S2-141K21,3,254,PS,exp,26,←,left,←,0.5555555997416377,True,6,1,0,0
Y2-S2-141K21,3,255,PS,exp,43,↑,left,←,0.6014185999520123,False,6,-1,1,1
Y2-S2-141K21,3,256,PS,exp,29,↓,down,↓,0.507640500087291,True,7,-1,0,1
Y2-S2-141K21,3,257,PS,exp,44,↑,up,↑,0.478993599768728,True,7,-1,0,1
Y2-S2-141K21,3,258,PS,exp,40,→,right,→,0.5007011000998318,True,7,1,1,2
Y2-S2-141K21,3,259,PS,exp,25,↑,right,→,0.5648830002173781,False,6,-1,1,3
Y2-S2-141K21,3,260,PS,exp,31,←,left,←,0.4814329999499023,True,7,-1,0,3
Y2-S2-141K21,3,261,PS,exp,44,↑,up,↑,0.5504387998953462,True,7,-1,0,3
Y2-S2-141K21,3,262,PS,exp,29,←,up,↑,0.5785298002883792,False,7,-1,0,3
Y2-S2-141K21,3,263,PS,exp,43,→,right,→,0.4530813000164926,True,8,-1,0,3
Y2-S2-141K21,3,264,PS,exp,37,↓,left,←,0.7239422001875937,False,8,-1,0,3
Y2-S2-141K21,3,265,PS,exp,50,←,left,←,0.4658290003426373,True,9,-1,0,3
Y2-S2-141K21,3,266,PS,exp,50,↑,up,↑,0.5535223996266723,True,9,-1,0,3
Y2-S2-141K21,3,267,PS,exp,49,↓,up,↑,0.7503431998193264,False,9,-1,0,3
Y2-S2-141K21,3,268,PS,exp,26,←,left,←,0.4578440999612212,True,10,-1,0,3
Y2-S2-141K21,3,269,PS,exp,45,↑,up,↑,0.45800939993932843,True,10,-1,0,3
Y2-S2-141K21,3,270,PS,exp,45,↓,down,↓,0.5067843003198504,True,10,1,1,4
Y2-S2-141K21,3,271,PS,exp,37,←,left,←,0.421747799962759,True,9,1,0,4
Y2-S2-141K21,3,272,PS,exp,46,→,right,→,0.5121836997568607,True,9,1,0,4
Y2-S2-141K21,3,273,PS,exp,38,↓,down,↓,0.5256447996944189,True,9,1,0,4
Y2-S2-141K21,3,274,PS,exp,47,↑,down,↓,0.773420600220561,False,8,-1,1,5
Y2-S2-141K21,3,275,PS,exp,46,→,right,→,0.6451974003575742,True,9,-1,0,5
Y2-S2-141K21,3,276,PS,exp,40,↓,down,↓,0.6315382001921535,True,9,-1,0,5
Y2-S2-141K21,3,277,PS,exp,28,→,right,→,0.622794899623841,True,9,1,1,6
Y2-S2-141K21,3,278,PS,exp,44,↑,up,↑,0.5261089997366071,True,8,1,0,6
Y2-S2-141K21,3,279,PS,exp,36,↓,down,↓,0.6504973000846803,True,8,1,0,6
Y2-S2-141K21,3,280,PS,exp,35,↑,up,↑,0.4280403000302613,True,8,1,0,6
Y2-S2-141K21,3,281,PS,exp,27,←,left,←,0.543998499866575,True,7,1,0,6
Y2-S2-141K21,3,282,PS,exp,49,↓,down,↓,0.5210572998039424,True,7,1,0,6
Y2-S2-141K21,3,283,PS,exp,35,→,right,→,0.5328597999177873,True,7,1,0,6
Y2-S2-141K21,3,284,PS,exp,41,←,left,←,0.5177271002903581,True,6,1,0,6
Y2-S2-141K21,3,285,PS,exp,41,→,right,→,0.7259261002764106,True,6,1,0,6
Y2-S2-141K21,3,286,PS,exp,38,←,left,←,0.5981064001098275,True,6,1,0,6
Y2-S2-141K21,3,287,PS,exp,47,↑,left,←,0.7374736000783741,False,5,-1,1,7
Y2-S2-141K21,3,288,PS,exp,33,→,right,→,0.4739800998941064,True,6,-1,0,7
Y2-S2-141K21,3,289,PS,exp,26,←,left,←,0.5067531000822783,True,6,-1,0,7
Y2-S2-141K21,3,290,PS,exp,46,↑,up,↑,0.5340252001769841,True,6,1,1,8
Y2-S2-141K21,3,291,PS,exp,49,→,up,↑,0.7051792000420392,False,5,-1,1,9
Y2-S2-141K21,3,292,PS,exp,36,↑,up,↑,0.48148340033367276,True,6,-1,0,9
Y2-S2-141K21,3,293,PS,exp,31,↓,down,↓,0.63035439979285,True,6,-1,0,9
Y2-S2-141K21,3,294,PS,exp,43,→,right,→,0.5665203002281487,True,6,1,1,10
Y2-S2-141K21,3,295,PS,exp,36,↓,down,↓,0.5959533001296222,True,5,1,0,10
Y2-S2-141K21,3,296,PS,exp,25,↑,left,←,0.5898477002047002,False,5,-1,1,11
Y2-S2-141K21,3,297,PS,exp,27,→,right,→,0.5005477000959218,True,6,-1,0,11
Y2-S2-141K21,3,298,PS,exp,31,↓,left,←,0.48017110023647547,False,6,-1,0,11
Y2-S2-141K21,3,299,PS,exp,46,↑,up,↑,0.4646065002307296,True,7,-1,0,11
Y2-S2-141K21,3,300,PS,exp,37,→,right,→,0.5239916001446545,True,7,-1,0,11
Y2-S2-141K21,3,301,PS,exp,35,↑,up,↑,0.4613923002034426,True,7,1,1,12
Y2-S2-141K21,3,302,PS,exp,26,↓,left,←,0.592338299844414,False,6,-1,1,13
Y2-S2-141K21,3,303,PS,exp,31,→,right,→,0.4207592001184821,True,7,-1,0,13
Y2-S2-141K21,3,304,PS,exp,49,←,left,←,0.38460269989445806,True,7,-1,0,13
Y2-S2-141K21,3,305,PS,exp,30,↑,right,→,0.5694413003511727,False,7,-1,0,13
Y2-S2-141K21,3,306,PS,exp,41,←,left,←,0.4381498000584543,True,8,-1,0,13
Y2-S2-141K21,3,307,PS,exp,26,↑,up,↑,0.5041017001494765,True,8,-1,0,13
Y2-S2-141K21,3,308,PS,exp,28,→,right,→,0.46752519998699427,True,8,1,1,14
Y2-S2-141K21,3,309,PS,exp,26,↑,up,↑,0.4507172997109592,True,7,1,0,14
Y2-S2-141K21,3,310,PS,exp,50,→,right,→,0.4807445998303592,True,7,1,0,14
Y2-S2-141K21,3,311,PS,exp,48,↓,right,→,0.5522019998170435,False,7,-1,1,15
Y2-S2-141K21,3,312,PS,exp,36,→,right,→,0.42106479965150356,True,8,-1,0,15
Y2-S2-141K21,3,313,PS,exp,44,↓,down,↓,0.5928563000634313,True,8,-1,0,15
Y2-S2-141K21,3,314,PS,exp,38,←,left,←,0.4835537001490593,True,8,1,1,16
Y2-S2-141K21,4,315,AS,intra_train,31,↑,up,↑,0.7258983999490738,True,19,-,-,-
Y2-S2-141K21,4,316,AS,intra_train,41,←,left,←,0.45095500024035573,True,19,-,-,-
Y2-S2-141K21,4,317,AS,intra_train,39,↑,up,↑,0.6868819002993405,True,19,-,-,-
Y2-S2-141K21,4,318,AS,intra_train,29,←,left,←,0.7020811997354031,True,19,-,-,-
Y2-S2-141K21,4,319,AS,intra_train,36,↑,up,↑,0.6742341001518071,True,19,-,-,-
Y2-S2-141K21,4,320,AS,exp,46,↓,down,↓,0.7809337000362575,True,13,0,0,0
Y2-S2-141K21,4,321,AS,exp,47,→,right,→,0.6949657998047769,True,13,0,0,0
Y2-S2-141K21,4,322,AS,exp,47,↓,down,↓,0.5844081002287567,True,13,1,0,0
Y2-S2-141K21,4,323,AS,exp,44,→,up,↑,1.2626090999692678,False,12,-1,1,1
Y2-S2-141K21,4,324,AS,exp,41,↑,up,↑,0.5794457998126745,True,13,-1,0,1
Y2-S2-141K21,4,325,AS,exp,47,→,right,→,0.9686044999398291,True,13,-1,0,1
Y2-S2-141K21,4,326,AS,exp,44,↑,up,↑,0.5395355001091957,True,13,1,1,2
Y2-S2-141K21,4,327,AS,exp,35,←,left,←,0.6541599002666771,True,12,1,0,2
Y2-S2-141K21,4,328,AS,exp,49,↓,down,↓,0.5756469997577369,True,12,1,0,2
Y2-S2-141K21,4,329,AS,exp,28,→,right,→,0.6145456000231206,True,12,1,0,2
Y2-S2-141K21,4,330,AS,exp,49,↓,down,↓,0.6274081999436021,True,11,1,0,2
Y2-S2-141K21,4,331,AS,exp,28,→,right,→,0.5734677999280393,True,11,1,0,2
Y2-S2-141K21,4,332,AS,exp,34,↓,down,↓,0.6162897003814578,True,11,1,0,2
Y2-S2-141K21,4,333,AS,exp,44,↑,up,↑,0.6242696000263095,True,10,1,0,2
Y2-S2-141K21,4,334,AS,exp,28,↓,down,↓,0.5531624001450837,True,10,1,0,2
Y2-S2-141K21,4,335,AS,exp,35,↑,down,↓,0.5761281000450253,False,10,-1,1,3
Y2-S2-141K21,4,336,AS,exp,47,←,left,←,0.6186768999323249,True,11,-1,0,3
Y2-S2-141K21,4,337,AS,exp,41,↑,up,↑,0.5429468001239002,True,11,-1,0,3
Y2-S2-141K21,4,338,AS,exp,39,→,left,←,0.5405226997099817,False,11,-1,0,3
Y2-S2-141K21,4,339,AS,exp,50,↑,up,↑,0.4553229999728501,True,12,-1,0,3
Y2-S2-141K21,4,340,AS,exp,28,↓,down,↓,0.5103195998817682,True,12,-1,0,3
Y2-S2-141K21,4,341,AS,exp,27,↑,up,↑,0.4931565001606941,True,12,1,1,4
Y2-S2-141K21,4,342,AS,exp,50,←,left,←,0.5377595000900328,True,11,1,0,4
Y2-S2-141K21,4,343,AS,exp,33,↓,down,↓,0.5488073998130858,True,11,1,0,4
Y2-S2-141K21,4,344,AS,exp,29,↑,up,↑,0.47816319996491075,True,11,1,0,4
Y2-S2-141K21,4,345,AS,exp,43,↓,down,↓,0.5891180001199245,True,10,1,0,4
Y2-S2-141K21,4,346,AS,exp,29,←,left,←,0.6044952003285289,True,10,1,0,4
Y2-S2-141K21,4,347,AS,exp,36,↓,down,↓,0.6346909003332257,True,10,1,0,4
Y2-S2-141K21,4,348,AS,exp,45,↑,down,↓,0.8712811996228993,False,9,-1,1,5
Y2-S2-141K21,4,349,AS,exp,40,←,left,←,0.5815701000392437,True,10,-1,0,5
Y2-S2-141K21,4,350,AS,exp,31,→,right,→,0.5404448001645505,True,10,-1,0,5
Y2-S2-141K21,4,351,AS,exp,47,↓,down,↓,0.5109355999156833,True,10,1,1,6
Y2-S2-141K21,4,352,AS,exp,44,→,right,→,0.5114575000479817,True,9,1,0,6
Y2-S2-141K21,4,353,AS,exp,28,↓,down,↓,0.5845429999753833,True,9,1,0,6
Y2-S2-141K21,4,354,AS,exp,46,↑,up,↑,0.4012337001040578,True,9,1,0,6
Y2-S2-141K21,4,355,AS,exp,38,→,up,↑,0.7589455996640027,False,8,-1,1,7
Y2-S2-141K21,4,356,AS,exp,46,←,right,→,0.5748977996408939,False,9,-1,0,7
Y2-S2-141K21,4,357,AS,exp,46,↓,down,↓,0.6657489999197423,True,10,-1,0,7
Y2-S2-141K21,4,358,AS,exp,40,→,right,→,0.5513941999524832,True,10,-1,0,7
Y2-S2-141K21,4,359,AS,exp,31,↓,down,↓,0.535809800028801,True,10,1,1,8
Y2-S2-141K21,4,360,AS,exp,49,→,right,→,0.44525960041210055,True,9,1,0,8
Y2-S2-141K21,4,361,AS,exp,50,↑,up,↑,0.6646980000659823,True,9,1,0,8
Y2-S2-141K21,4,362,AS,exp,30,←,left,←,0.6648754999041557,True,9,1,0,8
Y2-S2-141K21,4,363,AS,exp,45,→,up,↑,0.8836962999776006,False,8,-1,1,9
Y2-S2-141K21,4,364,AS,exp,42,↓,up,↑,0.6964553999714553,False,9,-1,0,9
Y2-S2-141K21,4,365,AS,exp,38,↑,down,↓,0.7754942001774907,False,10,-1,0,9
Y2-S2-141K21,4,366,AS,exp,34,→,right,→,0.550670700147748,True,11,-1,0,9
Y2-S2-141K21,4,367,AS,exp,41,↑,up,↑,0.4045902998186648,True,11,-1,0,9
Y2-S2-141K21,4,368,AS,exp,49,↓,up,↑,0.6504333997145295,False,11,-1,0,9
Y2-S2-141K21,4,369,AS,exp,40,←,left,←,0.41315359994769096,True,12,-1,0,9
Y2-S2-141K21,4,370,AS,exp,48,↑,up,↑,0.6998586999252439,True,12,-1,0,9
Y2-S2-141K21,4,371,AS,exp,33,→,right,→,0.5739819002337754,True,12,1,1,10
Y2-S2-141K21,4,372,AS,exp,50,←,right,→,0.6386536997742951,False,11,-1,1,11
Y2-S2-141K21,4,373,AS,exp,47,→,up,↑,0.9912502998486161,False,12,-1,0,11
Y2-S2-141K21,4,374,AS,exp,28,↑,down,↓,0.7651416999287903,False,13,-1,0,11
Y2-S2-141K21,4,375,AS,exp,34,→,right,→,0.6307508000172675,True,14,-1,0,11
Y2-S2-141K21,4,376,AS,exp,44,←,left,←,0.6558167999610305,True,14,-1,0,11
Y2-S2-141K21,4,377,AS,exp,28,↓,down,↓,0.7997981002554297,True,14,1,1,12
Y2-S2-141K21,4,378,AS,exp,47,↑,up,↑,0.7224913998506963,True,13,1,0,12
Y2-S2-141K21,4,379,AS,exp,42,←,left,←,0.6198243000544608,True,13,1,0,12
Y2-S2-141K21,4,380,AS,exp,30,↓,down,↓,0.63008280005306,True,13,1,0,12
Y2-S2-141K21,4,381,AS,exp,50,←,right,→,0.5468643000349402,False,12,-1,1,13
Y2-S2-141K21,4,382,AS,exp,41,↓,up,↑,0.7275422001257539,False,13,-1,0,13
Y2-S2-141K21,4,383,AS,exp,33,↑,down,↓,0.8053439999930561,False,14,-1,0,13
Y2-S2-141K21,4,384,AS,exp,26,→,right,→,0.6123740999028087,True,15,-1,0,13
Y2-S2-141K21,4,385,AS,exp,37,↓,down,↓,0.6120067001320422,True,15,-1,0,13
Y2-S2-141K21,4,386,AS,exp,29,→,right,→,0.6354871997609735,True,15,1,1,14
Y2-S2-141K21,4,387,AS,exp,34,↑,up,↑,0.7061868002638221,True,14,1,0,14
Y2-S2-141K21,4,388,AS,exp,35,→,up,↑,0.7857775003649294,False,14,-1,1,15
Y2-S2-141K21,4,389,AS,exp,25,↓,down,↓,0.8151692999526858,True,15,-1,0,15
Y2-S2-141K21,4,390,AS,exp,43,→,right,→,0.696236599702388,True,15,-1,0,15
Y2-S2-141K21,4,391,AS,exp,28,↓,down,↓,0.6233206000179052,True,15,1,1,16
Y2-S2-141K21,5,392,AS,intra_train,39,←,left,←,0.793034799862653,True,19,-,-,-
Y2-S2-141K21,5,393,AS,intra_train,26,↓,down,↓,0.717570099979639,True,19,-,-,-
Y2-S2-141K21,5,394,AS,intra_train,27,↑,up,↑,0.5340752997435629,True,19,-,-,-
Y2-S2-141K21,5,395,AS,intra_train,41,↓,down,↓,0.816941199824214,True,19,-,-,-
Y2-S2-141K21,5,396,AS,intra_train,32,→,right,→,0.585218199994415,True,19,-,-,-
Y2-S2-141K21,5,397,AS,exp,39,←,left,←,0.46494679991155863,True,13,0,0,0
Y2-S2-141K21,5,398,AS,exp,26,→,left,←,0.9824204999022186,False,13,-1,0,0
Y2-S2-141K21,5,399,AS,exp,43,↑,down,↓,0.7362823998555541,False,14,-1,0,0
Y2-S2-141K21,5,400,AS,exp,31,→,right,→,0.6287309001199901,True,15,-1,0,0
Y2-S2-141K21,5,401,AS,exp,32,↑,up,↑,0.5262286998331547,True,15,-1,0,0
Y2-S2-141K21,5,402,AS,exp,35,←,left,←,0.5851122997701168,True,15,1,1,1
Y2-S2-141K21,5,403,AS,exp,26,↓,up,↑,0.7385869999416173,False,14,-1,1,2
Y2-S2-141K21,5,404,AS,exp,27,←,left,←,0.5733472998254001,True,15,-1,0,2
Y2-S2-141K21,5,405,AS,exp,44,→,right,→,0.6740927998907864,True,15,-1,0,2
Y2-S2-141K21,5,406,AS,exp,37,↑,up,↑,0.6070074001327157,True,15,1,1,3
Y2-S2-141K21,5,407,AS,exp,45,←,up,↑,0.6399973998777568,False,14,-1,1,4
Y2-S2-141K21,5,408,AS,exp,35,→,right,→,0.6804794003255665,True,15,-1,0,4
Y2-S2-141K21,5,409,AS,exp,44,←,left,←,0.6109684002585709,True,15,-1,0,4
Y2-S2-141K21,5,410,AS,exp,50,↑,left,←,0.8101121000945568,False,15,-1,0,4
Y2-S2-141K21,5,411,AS,exp,34,←,left,←,0.5931408000178635,True,16,-1,0,4
Y2-S2-141K21,5,412,AS,exp,32,→,right,→,0.5177813000045717,True,16,-1,0,4
Y2-S2-141K21,5,413,AS,exp,25,↓,down,↓,0.5920466999523342,True,16,1,1,5
Y2-S2-141K21,5,414,AS,exp,40,→,right,→,0.7172896000556648,True,15,1,0,5
Y2-S2-141K21,5,415,AS,exp,37,↑,up,↑,0.6262248996645212,True,15,1,0,5
Y2-S2-141K21,5,416,AS,exp,45,←,left,←,0.6002047001384199,True,15,1,0,5
Y2-S2-141K21,5,417,AS,exp,29,→,right,→,0.693268199916929,True,14,1,0,5
Y2-S2-141K21,5,418,AS,exp,41,↑,up,↑,0.7591806999407709,True,14,1,0,5
Y2-S2-141K21,5,419,AS,exp,37,↓,up,↑,0.6150251999497414,False,14,-1,1,6
Y2-S2-141K21,5,420,AS,exp,34,←,left,←,0.48331219982355833,True,15,-1,0,6
Y2-S2-141K21,5,421,AS,exp,45,↑,up,↑,0.6355864997021854,True,15,-1,0,6
Y2-S2-141K21,5,422,AS,exp,36,→,right,→,0.6480713998898864,True,15,1,1,7
Y2-S2-141K21,5,423,AS,exp,37,↑,up,↑,0.5556385000236332,True,14,1,0,7
Y2-S2-141K21,5,424,AS,exp,43,↓,down,↓,0.7153702001087368,True,14,1,0,7
Y2-S2-141K21,5,425,AS,exp,48,→,right,→,0.6010215999558568,True,14,1,0,7
Y2-S2-141K21,5,426,AS,exp,33,↓,down,↓,0.7379151000641286,True,13,1,0,7
Y2-S2-141K21,5,427,AS,exp,35,→,right,→,0.6429801001213491,True,13,1,0,7
Y2-S2-141K21,5,428,AS,exp,47,←,left,←,0.6776552000083029,True,13,1,0,7
Y2-S2-141K21,5,429,AS,exp,47,↑,up,↑,0.5843147998675704,True,12,1,0,7
Y2-S2-141K21,5,430,AS,exp,32,↓,down,↓,0.7246036999858916,True,12,1,0,7
Y2-S2-141K21,5,431,AS,exp,39,←,left,←,0.5600438001565635,True,12,1,0,7
Y2-S2-141K21,5,432,AS,exp,33,→,right,→,0.6780455000698566,True,11,1,0,7
Y2-S2-141K21,5,433,AS,exp,49,↑,up,↑,0.5376755995675921,True,11,1,0,7
Y2-S2-141K21,5,434,AS,exp,48,→,right,→,0.6280871001072228,True,11,1,0,7
Y2-S2-141K21,5,435,AS,exp,26,←,right,→,0.6039823996834457,False,10,-1,1,8
Y2-S2-141K21,5,436,AS,exp,25,↓,down,↓,0.6415506000630558,True,11,-1,0,8
Y2-S2-141K21,5,437,AS,exp,37,←,left,←,0.6074157999828458,True,11,-1,0,8
Y2-S2-141K21,5,438,AS,exp,45,↓,up,↑,0.708684999961406,False,11,-1,0,8
Y2-S2-141K21,5,439,AS,exp,31,←,right,→,0.5441235997714102,False,12,-1,0,8
Y2-S2-141K21,5,440,AS,exp,43,↓,down,↓,1.0876596998423338,True,13,-1,0,8
Y2-S2-141K21,5,441,AS,exp,32,←,left,←,0.44728829991072416,True,13,-1,0,8
Y2-S2-141K21,5,442,AS,exp,26,↓,down,↓,0.6275667999871075,True,13,1,1,9
Y2-S2-141K21,5,443,AS,exp,48,←,left,←,0.42976719979196787,True,12,1,0,9
Y2-S2-141K21,5,444,AS,exp,39,→,right,→,0.6823034998960793,True,12,1,0,9
Y2-S2-141K21,5,445,AS,exp,36,←,right,→,0.5294192996807396,False,12,-1,1,10
Y2-S2-141K21,5,446,AS,exp,37,↓,up,↑,0.7307579000480473,False,13,-1,0,10
Y2-S2-141K21,5,447,AS,exp,46,↑,down,↓,0.790213500149548,False,14,-1,0,10
Y2-S2-141K21,5,448,AS,exp,30,↓,up,↑,0.6952658998779953,False,15,-1,0,10
Y2-S2-141K21,5,449,AS,exp,31,←,left,←,0.6778673003427684,True,16,-1,0,10
Y2-S2-141K21,5,450,AS,exp,29,→,right,→,0.6579380999319255,True,16,-1,0,10
Y2-S2-141K21,5,451,AS,exp,30,←,right,→,0.5254049999639392,False,16,-1,0,10
Y2-S2-141K21,5,452,AS,exp,46,↑,up,↑,0.6037552999332547,True,17,-1,0,10
Y2-S2-141K21,5,453,AS,exp,36,←,right,→,0.7459648000076413,False,17,-1,0,10
Y2-S2-141K21,5,454,AS,exp,33,→,right,→,0.5542588997632265,True,18,-1,0,10
Y2-S2-141K21,5,455,AS,exp,47,↑,up,↑,0.5245698997750878,True,18,-1,0,10
Y2-S2-141K21,5,456,AS,exp,32,→,right,→,0.8302791002206504,True,18,1,1,11
Y2-S2-141K21,5,457,AS,exp,28,↓,up,↑,0.6613910999149084,False,17,-1,1,12
Y2-S2-141K21,5,458,AS,exp,27,→,no_key,no_letter,-1.0,False,18,-1,0,12
Y2-S2-141K21,5,459,AS,exp,39,←,left,←,0.523521900177002,True,19,-1,0,12
Y2-S2-141K21,5,460,AS,exp,25,↓,down,↓,0.7192911002784967,True,19,-1,0,12
Y2-S2-141K21,5,461,AS,exp,40,←,left,←,0.7155483001843095,True,19,1,1,13
Y2-S2-141K21,5,462,AS,exp,44,↓,down,↓,0.7463887999765575,True,18,1,0,13
Y2-S2-141K21,5,463,AS,exp,46,←,left,←,0.9587652999907732,True,18,1,0,13
Y2-S2-141K21,5,464,AS,exp,35,↑,no_key,no_letter,-1.0,False,18,-1,1,14
Y2-S2-141K21,5,465,AS,exp,37,→,left,←,0.6342156999744475,False,19,-1,0,14
Y2-S2-141K21,5,466,AS,exp,46,↓,down,↓,0.935816400218755,True,20,-1,0,14
Y2-S2-141K21,5,467,AS,exp,28,←,left,←,0.6361147998832166,True,20,-1,0,14
Y2-S2-141K21,5,468,AS,exp,35,↓,down,↓,0.8291056002490222,True,20,1,1,15
Y2-S2-141K21,5,469,AS,exp,36,→,right,→,0.6526750000193715,True,19,1,0,15
Y2-S2-141K21,5,470,AS,exp,45,↑,up,↑,0.7307428000494838,True,19,1,0,15
Y2-S2-141K21,5,471,AS,exp,43,→,right,→,0.7633140999823809,True,19,1,0,15
Y2-S2-141K21,5,472,AS,exp,40,↓,down,↓,0.8314214996062219,True,18,1,0,15
Y2-S2-141K21,5,473,AS,exp,31,←,left,←,0.739051999989897,True,18,1,0,15
Y2-S2-141K21,5,474,AS,exp,47,→,right,→,0.6664273999631405,True,18,1,0,15
Y2-S2-141K21,5,475,AS,exp,49,←,left,←,0.5875607002526522,True,17,1,0,15
Y2-S2-141K21,5,476,AS,exp,35,→,right,→,0.7107295002788305,True,17,1,0,15
Y2-S2-141K21,5,477,AS,exp,31,↑,up,↑,0.6823375001549721,True,17,1,0,15
Y2-S2-141K21,5,478,AS,exp,32,→,right,→,0.6954851001501083,True,16,1,0,15
Y2-S2-141K21,5,479,AS,exp,36,←,left,←,0.6726238997653127,True,16,1,0,15
Y2-S2-141K21,5,480,AS,exp,48,↓,down,↓,0.7466743001714349,True,16,1,0,15
Y2-S2-141K21,5,481,AS,exp,46,↑,up,↑,0.5089576998725533,True,15,1,0,15
Y2-S2-141K21,5,482,AS,exp,44,↓,down,↓,0.6837768000550568,True,15,1,0,15
Y2-S2-141K21,5,483,AS,exp,43,←,left,←,0.6135630998760462,True,15,1,0,15
Y2-S2-141K21,5,484,AS,exp,39,→,right,→,0.6290242001414299,True,14,1,0,15
Y2-S2-141K21,5,485,AS,exp,26,↑,up,↑,0.6044409996829927,True,14,1,0,15
Y2-S2-141K21,5,486,AS,exp,48,→,right,→,0.6250114003196359,True,14,1,0,15
Y2-S2-141K21,5,487,AS,exp,50,←,left,←,0.5634061996825039,True,13,1,0,15
Y2-S2-141K21,5,488,AS,exp,29,→,right,→,0.6352200000546873,True,13,1,0,15
Y2-S2-141K21,5,489,AS,exp,37,←,left,←,0.5928118000738323,True,13,1,0,15
Y2-S2-141K21,5,490,AS,exp,48,↑,up,↑,0.7437142999842763,True,12,1,0,15
Y2-S2-141K21,5,491,AS,exp,27,→,right,→,0.5734267001971602,True,12,1,0,15
Y2-S2-141K21,5,492,AS,exp,32,↑,up,↑,0.9366724998690188,True,12,1,0,15
Y2-S2-141K21,5,493,AS,exp,32,↓,down,↓,0.6951334998011589,True,11,1,0,15
Y2-S2-141K21,5,494,AS,exp,42,→,left,←,0.7737161000259221,False,11,-1,1,16
Y2-S2-141K21,6,495,PS,intra_train,28,↓,right,→,0.7262214999645948,False,15,-,-,-
Y2-S2-141K21,6,496,PS,intra_train,42,↑,right,→,0.6761670000851154,False,15,-,-,-
Y2-S2-141K21,6,497,PS,intra_train,33,←,left,←,0.6180348000489175,True,15,-,-,-
Y2-S2-141K21,6,498,PS,intra_train,28,↓,down,↓,0.6747203003615141,True,15,-,-,-
Y2-S2-141K21,6,499,PS,intra_train,32,←,left,←,0.6448377999477088,True,15,-,-,-
Y2-S2-141K21,6,500,PS,exp,25,↓,down,↓,0.5984716000966728,True,10,0,0,0
Y2-S2-141K21,6,501,PS,exp,48,→,right,→,0.6335757998749614,True,10,0,0,0
Y2-S2-141K21,6,502,PS,exp,30,↓,down,↓,0.5827727997675538,True,10,1,0,0
Y2-S2-141K21,6,503,PS,exp,34,↑,up,↑,0.5990174002945423,True,9,1,0,0
Y2-S2-141K21,6,504,PS,exp,27,→,right,→,0.5453948001377285,True,9,1,0,0
Y2-S2-141K21,6,505,PS,exp,32,←,right,→,0.519433599896729,False,9,-1,1,1
Y2-S2-141K21,6,506,PS,exp,30,→,right,→,0.47914209961891174,True,10,-1,0,1
Y2-S2-141K21,6,507,PS,exp,34,↓,down,↓,0.5489683002233505,True,10,-1,0,1
Y2-S2-141K21,6,508,PS,exp,29,→,right,→,0.5929707000032067,True,10,1,1,2
Y2-S2-141K21,6,509,PS,exp,48,↑,up,↑,0.5333459000103176,True,9,1,0,2
Y2-S2-141K21,6,510,PS,exp,47,↓,down,↓,0.5105008999817073,True,9,1,0,2
Y2-S2-141K21,6,511,PS,exp,50,↑,up,↑,0.45797110022976995,True,9,1,0,2
Y2-S2-141K21,6,512,PS,exp,46,↓,down,↓,0.6391851999796927,True,8,1,0,2
Y2-S2-141K21,6,513,PS,exp,48,→,right,→,0.5899008996784687,True,8,1,0,2
Y2-S2-141K21,6,514,PS,exp,50,←,up,↑,0.5971451997756958,False,8,-1,1,3
Y2-S2-141K21,6,515,PS,exp,28,→,right,→,0.4480730998329818,True,9,-1,0,3
Y2-S2-141K21,6,516,PS,exp,47,↓,down,↓,0.5388511000201106,True,9,-1,0,3
Y2-S2-141K21,6,517,PS,exp,36,←,left,←,0.5804878999479115,True,9,1,1,4
Y2-S2-141K21,6,518,PS,exp,32,→,right,→,0.6293085999786854,True,8,1,0,4
Y2-S2-141K21,6,519,PS,exp,46,↓,right,→,0.6072656000033021,False,8,-1,1,5
Y2-S2-141K21,6,520,PS,exp,36,↑,left,←,0.7256495002657175,False,9,-1,0,5
Y2-S2-141K21,6,521,PS,exp,45,↓,left,←,0.558334999717772,False,10,-1,0,5
Y2-S2-141K21,6,522,PS,exp,30,↑,up,↑,0.5902409995906055,True,11,-1,0,5
Y2-S2-141K21,6,523,PS,exp,34,←,left,←,0.5658124000765383,True,11,-1,0,5
Y2-S2-141K21,6,524,PS,exp,47,↓,down,↓,0.772046800237149,True,11,1,1,6
Y2-S2-141K21,6,525,PS,exp,47,→,right,→,0.754908500239253,True,10,1,0,6
Y2-S2-141K21,6,526,PS,exp,42,↓,down,↓,0.6643540998920798,True,10,1,0,6
Y2-S2-141K21,6,527,PS,exp,47,→,right,→,0.6072182999923825,True,10,1,0,6
Y2-S2-141K21,6,528,PS,exp,49,↓,down,↓,0.5636948999017477,True,9,1,0,6
Y2-S2-141K21,6,529,PS,exp,47,→,right,→,0.6225574999116361,True,9,1,0,6
Y2-S2-141K21,6,530,PS,exp,28,←,right,→,0.7171036000363529,False,9,-1,1,7
Y2-S2-141K21,6,531,PS,exp,48,→,right,→,0.45725789992138743,True,10,-1,0,7
Y2-S2-141K21,6,532,PS,exp,50,↑,up,↑,0.5431300001218915,True,10,-1,0,7
Y2-S2-141K21,6,533,PS,exp,38,←,left,←,0.5776351997628808,True,10,1,1,8
Y2-S2-141K21,6,534,PS,exp,47,↓,down,↓,0.6225026999600232,True,9,1,0,8
Y2-S2-141K21,6,535,PS,exp,30,←,left,←,0.5372358001768589,True,9,1,0,8
Y2-S2-141K21,6,536,PS,exp,34,→,up,↑,0.655400900170207,False,9,-1,1,9
Y2-S2-141K21,6,537,PS,exp,43,←,left,←,0.601770100183785,True,10,-1,0,9
Y2-S2-141K21,6,538,PS,exp,29,→,right,→,0.5708391000516713,True,10,-1,0,9
Y2-S2-141K21,6,539,PS,exp,25,↑,up,↑,0.6185659999027848,True,10,1,1,10
Y2-S2-141K21,6,540,PS,exp,26,→,right,→,0.5300842002034187,True,9,1,0,10
Y2-S2-141K21,6,541,PS,exp,36,↑,up,↑,0.549896199721843,True,9,1,0,10
Y2-S2-141K21,6,542,PS,exp,43,↓,down,↓,0.6950560002587736,True,9,1,0,10
Y2-S2-141K21,6,543,PS,exp,38,↑,up,↑,0.47969650011509657,True,8,1,0,10
Y2-S2-141K21,6,544,PS,exp,49,↓,down,↓,0.6524767996743321,True,8,1,0,10
Y2-S2-141K21,6,545,PS,exp,42,↑,up,↑,0.4860916002653539,True,8,1,0,10
Y2-S2-141K21,6,546,PS,exp,48,↓,down,↓,0.6311146998777986,True,7,1,0,10
Y2-S2-141K21,6,547,PS,exp,45,→,left,←,0.5634730998426676,False,7,-1,1,11
Y2-S2-141K21,6,548,PS,exp,41,↑,up,↑,0.5818097000010312,True,8,-1,0,11
Y2-S2-141K21,6,549,PS,exp,29,↓,down,↓,0.5590761001221836,True,8,-1,0,11
Y2-S2-141K21,6,550,PS,exp,39,↑,up,↑,0.5329372999258339,True,8,1,1,12
Y2-S2-141K21,6,551,PS,exp,44,→,right,→,0.4615182997658849,True,7,1,0,12
Y2-S2-141K21,6,552,PS,exp,32,←,left,←,0.5167657998390496,True,7,1,0,12
Y2-S2-141K21,6,553,PS,exp,47,→,right,→,0.42751439986750484,True,7,1,0,12
Y2-S2-141K21,6,554,PS,exp,28,↑,up,↑,0.47008630027994514,True,6,1,0,12
Y2-S2-141K21,6,555,PS,exp,43,↓,left,←,0.6248506000265479,False,6,-1,1,13
Y2-S2-141K21,6,556,PS,exp,48,→,right,→,0.535404599737376,True,7,-1,0,13
Y2-S2-141K21,6,557,PS,exp,36,↑,up,↑,0.49067029962316155,True,7,-1,0,13
Y2-S2-141K21,6,558,PS,exp,41,←,left,←,0.46839210018515587,True,7,1,1,14
Y2-S2-141K21,6,559,PS,exp,41,↓,down,↓,0.6266942000947893,True,6,1,0,14
Y2-S2-141K21,6,560,PS,exp,44,↑,right,→,0.3898547999560833,False,6,-1,1,15
Y2-S2-141K21,6,561,PS,exp,42,←,right,→,0.5161177003756166,False,7,-1,0,15
Y2-S2-141K21,6,562,PS,exp,46,↓,down,↓,0.539285899605602,True,8,-1,0,15
Y2-S2-141K21,6,563,PS,exp,25,↑,up,↑,0.5121615999378264,True,8,-1,0,15
Y2-S2-141K21,6,564,PS,exp,36,→,right,→,0.4980762000195682,True,8,1,1,16
Y2-S2-141K21,7,565,PS,intra_train,34,↑,up,↑,0.6064779004082084,True,15,-,-,-
Y2-S2-141K21,7,566,PS,intra_train,49,←,left,←,0.3838444999419153,True,15,-,-,-
Y2-S2-141K21,7,567,PS,intra_train,47,→,right,→,0.6230934001505375,True,15,-,-,-
Y2-S2-141K21,7,568,PS,intra_train,48,↓,down,↓,0.5839044000022113,True,15,-,-,-
Y2-S2-141K21,7,569,PS,intra_train,32,→,right,→,0.6380487997084856,True,15,-,-,-
Y2-S2-141K21,7,570,PS,exp,28,↑,up,↑,0.5951388003304601,True,10,0,0,0
Y2-S2-141K21,7,571,PS,exp,50,↓,down,↓,0.8188050999306142,True,10,0,0,0
Y2-S2-141K21,7,572,PS,exp,32,←,left,←,0.607988600153476,True,10,1,0,0
Y2-S2-141K21,7,573,PS,exp,28,↑,up,↑,0.5252119996584952,True,9,1,0,0
Y2-S2-141K21,7,574,PS,exp,34,→,right,→,0.5357125997543335,True,9,1,0,0
Y2-S2-141K21,7,575,PS,exp,28,←,left,←,0.5245192996226251,True,9,1,0,0
Y2-S2-141K21,7,576,PS,exp,42,↑,up,↑,0.5367987002246082,True,8,1,0,0
Y2-S2-141K21,7,577,PS,exp,28,←,left,←,0.6442090002819896,True,8,1,0,0
Y2-S2-141K21,7,578,PS,exp,29,↑,up,↑,0.5022146999835968,True,8,1,0,0
Y2-S2-141K21,7,579,PS,exp,39,←,left,←,0.5251091001555324,True,7,1,0,0
Y2-S2-141K21,7,580,PS,exp,42,↑,right,→,0.6471553998999298,False,7,-1,1,1
Y2-S2-141K21,7,581,PS,exp,49,←,left,←,0.46099650021642447,True,8,-1,0,1
Y2-S2-141K21,7,582,PS,exp,33,↑,up,↑,0.45172160025686026,True,8,-1,0,1
Y2-S2-141K21,7,583,PS,exp,38,↓,left,←,0.6020605997182429,False,8,-1,0,1
Y2-S2-141K21,7,584,PS,exp,40,→,right,→,0.7829470001161098,True,9,-1,0,1
Y2-S2-141K21,7,585,PS,exp,49,↑,up,↑,0.5350166000425816,True,9,-1,0,1
Y2-S2-141K21,7,586,PS,exp,25,→,right,→,0.5245682997629046,True,9,1,1,2
Y2-S2-141K21,7,587,PS,exp,30,↓,down,↓,0.6154160997830331,True,8,1,0,2
Y2-S2-141K21,7,588,PS,exp,48,←,left,←,0.5689779999665916,True,8,1,0,2
Y2-S2-141K21,7,589,PS,exp,43,↓,down,↓,0.7462599002756178,True,8,1,0,2
Y2-S2-141K21,7,590,PS,exp,43,↑,up,↑,0.5639524003490806,True,7,1,0,2
Y2-S2-141K21,7,591,PS,exp,31,→,right,→,0.6021690000779927,True,7,1,0,2
Y2-S2-141K21,7,592,PS,exp,43,↓,down,↓,0.694968500174582,True,7,1,0,2
Y2-S2-141K21,7,593,PS,exp,31,↑,left,←,0.5950182001106441,False,6,-1,1,3
Y2-S2-141K21,7,594,PS,exp,28,→,right,→,0.5193157000467181,True,7,-1,0,3
Y2-S2-141K21,7,595,PS,exp,49,←,right,→,0.4837269000709057,False,7,-1,0,3
Y2-S2-141K21,7,596,PS,exp,50,↑,up,↑,0.4754004003480077,True,8,-1,0,3
Y2-S2-141K21,7,597,PS,exp,26,↓,left,←,0.5246524000540376,False,8,-1,0,3
Y2-S2-141K21,7,598,PS,exp,42,→,right,→,0.4272038000635803,True,9,-1,0,3
Y2-S2-141K21,7,599,PS,exp,42,↓,down,↓,0.6143856002017856,True,9,-1,0,3
Y2-S2-141K21,7,600,PS,exp,28,→,right,→,0.4501639003865421,True,9,1,1,4
Y2-S2-141K21,7,601,PS,exp,49,↑,up,↑,0.4620357002131641,True,8,1,0,4
Y2-S2-141K21,7,602,PS,exp,48,→,right,→,0.4480217001400888,True,8,1,0,4
Y2-S2-141K21,7,603,PS,exp,49,↑,up,↑,0.5324332998134196,True,8,1,0,4
Y2-S2-141K21,7,604,PS,exp,33,↓,down,↓,0.685317900031805,True,7,1,0,4
Y2-S2-141K21,7,605,PS,exp,29,←,left,←,0.49483019998297095,True,7,1,0,4
Y2-S2-141K21,7,606,PS,exp,39,↓,down,↓,0.5594839998520911,True,7,1,0,4
Y2-S2-141K21,7,607,PS,exp,43,←,left,←,0.5173797998577356,True,6,1,0,4
Y2-S2-141K21,7,608,PS,exp,28,↑,up,↑,0.5033389003947377,True,6,1,0,4
Y2-S2-141K21,7,609,PS,exp,34,→,right,→,0.5303870998322964,True,6,1,0,4
Y2-S2-141K21,7,610,PS,exp,40,←,left,←,0.411559599917382,True,5,1,0,4
Y2-S2-141K21,7,611,PS,exp,43,→,right,→,0.4610275998711586,True,5,1,0,4
Y2-S2-141K21,7,612,PS,exp,50,↑,left,←,0.4284820999018848,False,5,-1,1,5
Y2-S2-141K21,7,613,PS,exp,38,↓,right,→,0.31592810014262795,False,6,-1,0,5
Y2-S2-141K21,7,614,PS,exp,30,→,right,→,0.7924668001942337,True,7,-1,0,5
Y2-S2-141K21,7,615,PS,exp,34,↓,down,↓,0.4751496003009379,True,7,-1,0,5
Y2-S2-141K21,7,616,PS,exp,31,↑,up,↑,0.5282795997336507,True,7,1,1,6
Y2-S2-141K21,7,617,PS,exp,25,↓,down,↓,0.5767904999665916,True,6,1,0,6
Y2-S2-141K21,7,618,PS,exp,48,↑,down,↓,0.5158485998399556,False,6,-1,1,7
Y2-S2-141K21,7,619,PS,exp,34,→,right,→,0.47570589976385236,True,7,-1,0,7
Y2-S2-141K21,7,620,PS,exp,27,←,left,←,0.47830010019242764,True,7,-1,0,7
Y2-S2-141K21,7,621,PS,exp,46,↓,down,↓,0.6010883999988437,True,7,1,1,8
Y2-S2-141K21,7,622,PS,exp,44,→,left,←,0.5369890001602471,False,6,-1,1,9
Y2-S2-141K21,7,623,PS,exp,39,←,left,←,0.5481204004026949,True,7,-1,0,9
Y2-S2-141K21,7,624,PS,exp,48,↓,right,→,0.5866771996952593,False,7,-1,0,9
Y2-S2-141K21,7,625,PS,exp,40,↑,up,↑,0.5058233998715878,True,8,-1,0,9
Y2-S2-141K21,7,626,PS,exp,25,←,left,←,0.526243899948895,True,8,-1,0,9
Y2-S2-141K21,7,627,PS,exp,27,→,right,→,0.6419840999878943,True,8,1,1,10
Y2-S2-141K21,7,628,PS,exp,29,↓,down,↓,0.6241876999847591,True,7,1,0,10
Y2-S2-141K21,7,629,PS,exp,45,↑,up,↑,0.5195753001607955,True,7,1,0,10
Y2-S2-141K21,7,630,PS,exp,39,↓,down,↓,0.5681457002647221,True,7,1,0,10
Y2-S2-141K21,7,631,PS,exp,30,←,left,←,0.5388976000249386,True,6,1,0,10
Y2-S2-141K21,7,632,PS,exp,44,↑,up,↑,0.6632038997486234,True,6,1,0,10
Y2-S2-141K21,7,633,PS,exp,50,↓,down,↓,0.5272364998236299,True,6,1,0,10
Y2-S2-141K21,7,634,PS,exp,47,↑,down,↓,0.7795834001153708,False,5,-1,1,11
Y2-S2-141K21,7,635,PS,exp,42,←,left,←,0.5283506996929646,True,6,-1,0,11
Y2-S2-141K21,7,636,PS,exp,28,→,right,→,0.6486716000363231,True,6,-1,0,11
Y2-S2-141K21,7,637,PS,exp,30,↓,left,←,0.6057921000756323,False,6,-1,0,11
Y2-S2-141K21,7,638,PS,exp,38,↑,left,←,0.608555399812758,False,7,-1,0,11
Y2-S2-141K21,7,639,PS,exp,33,→,right,→,0.504857899621129,True,8,-1,0,11
Y2-S2-141K21,7,640,PS,exp,47,↑,up,↑,0.5990816000849009,True,8,-1,0,11
Y2-S2-141K21,7,641,PS,exp,38,↓,down,↓,0.7525473996065557,True,8,1,1,12
Y2-S2-141K21,7,642,PS,exp,46,←,down,↓,0.7467510001733899,False,7,-1,1,13
Y2-S2-141K21,7,643,PS,exp,35,→,right,→,0.4549899999983609,True,8,-1,0,13
Y2-S2-141K21,7,644,PS,exp,32,←,left,←,0.47793499985709786,True,8,-1,0,13
Y2-S2-141K21,7,645,PS,exp,25,↓,down,↓,0.5345812002196908,True,8,1,1,14
Y2-S2-141K21,7,646,PS,exp,37,→,right,→,0.5715811997652054,True,7,1,0,14
Y2-S2-141K21,7,647,PS,exp,44,↓,down,↓,0.6414876002818346,True,7,1,0,14
Y2-S2-141K21,7,648,PS,exp,42,↑,down,↓,0.637958699837327,False,7,-1,1,15
Y2-S2-141K21,7,649,PS,exp,45,→,right,→,0.40933919977396727,True,8,-1,0,15
Y2-S2-141K21,7,650,PS,exp,28,↑,right,→,0.6367210997268558,False,8,-1,0,15
Y2-S2-141K21,7,651,PS,exp,27,→,right,→,0.43115470046177506,True,9,-1,0,15
Y2-S2-141K21,7,652,PS,exp,31,↓,down,↓,0.5834965999238193,True,9,-1,0,15
Y2-S2-141K21,7,653,PS,exp,27,↑,up,↑,0.536048199981451,True,9,1,1,16
Y2-S2-141K21,8,654,AS,intra_train,25,←,right,→,0.5316646001301706,False,19,-,-,-
Y2-S2-141K21,8,655,AS,intra_train,27,↓,left,←,1.1959848999977112,False,19,-,-,-
Y2-S2-141K21,8,656,AS,intra_train,36,→,right,→,0.6819225000217557,True,19,-,-,-
Y2-S2-141K21,8,657,AS,intra_train,35,↓,down,↓,0.7276678998023272,True,19,-,-,-
Y2-S2-141K21,8,658,AS,intra_train,44,→,right,→,0.6705069001764059,True,19,-,-,-
Y2-S2-141K21,8,659,AS,exp,28,↓,down,↓,0.46307290019467473,True,13,0,0,0
Y2-S2-141K21,8,660,AS,exp,39,↑,down,↓,1.198037900030613,False,13,-1,0,0
Y2-S2-141K21,8,661,AS,exp,46,←,left,←,0.6129275001585484,True,14,-1,0,0
Y2-S2-141K21,8,662,AS,exp,45,↑,up,↑,0.8003298002295196,True,14,-1,0,0
Y2-S2-141K21,8,663,AS,exp,39,←,left,←,0.5907032997347414,True,14,1,1,1
Y2-S2-141K21,8,664,AS,exp,30,→,right,→,0.6218730001710355,True,13,1,0,1
Y2-S2-141K21,8,665,AS,exp,43,↑,up,↑,0.6276239003054798,True,13,1,0,1
Y2-S2-141K21,8,666,AS,exp,36,←,right,→,0.5607002996839583,False,13,-1,1,2
Y2-S2-141K21,8,667,AS,exp,29,→,right,→,0.6141690998338163,True,14,-1,0,2
Y2-S2-141K21,8,668,AS,exp,25,←,right,→,0.5522309001535177,False,14,-1,0,2
Y2-S2-141K21,8,669,AS,exp,25,↑,up,↑,0.5311811002902687,True,15,-1,0,2
Y2-S2-141K21,8,670,AS,exp,50,←,left,←,0.8813288998790085,True,15,-1,0,2
Y2-S2-141K21,8,671,AS,exp,43,→,right,→,0.5862317997962236,True,15,1,1,3
Y2-S2-141K21,8,672,AS,exp,46,←,left,←,0.4728897996246815,True,14,1,0,3
Y2-S2-141K21,8,673,AS,exp,41,↓,down,↓,0.7298587998375297,True,14,1,0,3
Y2-S2-141K21,8,674,AS,exp,43,←,right,→,0.7356090000830591,False,14,-1,1,4
Y2-S2-141K21,8,675,AS,exp,28,↓,down,↓,0.7348792999982834,True,15,-1,0,4
Y2-S2-141K21,8,676,AS,exp,27,→,right,→,0.696599000133574,True,15,-1,0,4
Y2-S2-141K21,8,677,AS,exp,45,←,left,←,0.8901431998237967,True,15,1,1,5
Y2-S2-141K21,8,678,AS,exp,49,↓,up,↑,0.8598675997927785,False,14,-1,1,6
Y2-S2-141K21,8,679,AS,exp,28,←,left,←,0.7574033001437783,True,15,-1,0,6
Y2-S2-141K21,8,680,AS,exp,31,↓,right,→,0.9607044998556376,False,15,-1,0,6
Y2-S2-141K21,8,681,AS,exp,50,→,right,→,0.7243290999904275,True,16,-1,0,6
Y2-S2-141K21,8,682,AS,exp,31,↑,up,↑,0.7075800998136401,True,16,-1,0,6
Y2-S2-141K21,8,683,AS,exp,49,→,right,→,0.7138212998397648,True,16,1,1,7
Y2-S2-141K21,8,684,AS,exp,34,↑,up,↑,0.698966400232166,True,15,1,0,7
Y2-S2-141K21,8,685,AS,exp,28,→,right,→,0.6429977002553642,True,15,1,0,7
Y2-S2-141K21,8,686,AS,exp,47,↑,up,↑,0.6808657003566623,True,15,1,0,7
Y2-S2-141K21,8,687,AS,exp,33,↓,down,↓,0.8137664999812841,True,14,1,0,7
Y2-S2-141K21,8,688,AS,exp,48,←,left,←,0.6129695000126958,True,14,1,0,7
Y2-S2-141K21,8,689,AS,exp,29,↓,down,↓,0.8034125999547541,True,14,1,0,7
Y2-S2-141K21,8,690,AS,exp,49,↑,up,↑,0.6942444001324475,True,13,1,0,7
Y2-S2-141K21,8,691,AS,exp,50,←,right,→,0.6453055003657937,False,13,-1,1,8
Y2-S2-141K21,8,692,AS,exp,43,↓,down,↓,0.7613249002024531,True,14,-1,0,8
Y2-S2-141K21,8,693,AS,exp,46,←,left,←,0.7468419000506401,True,14,-1,0,8
Y2-S2-141K21,8,694,AS,exp,45,↓,down,↓,0.8059485997073352,True,14,1,1,9
Y2-S2-141K21,8,695,AS,exp,28,↑,down,↓,0.6476036002859473,False,13,-1,1,10
Y2-S2-141K21,8,696,AS,exp,48,↓,up,↑,0.6855751997791231,False,14,-1,0,10
Y2-S2-141K21,8,697,AS,exp,37,→,right,→,0.47705830028280616,True,15,-1,0,10
Y2-S2-141K21,8,698,AS,exp,26,↓,down,↓,0.6261096000671387,True,15,-1,0,10
Y2-S2-141K21,8,699,AS,exp,33,←,left,←,0.48244010005146265,True,15,1,1,11
Y2-S2-141K21,8,700,AS,exp,45,↓,up,↑,0.736574400216341,False,14,-1,1,12
Y2-S2-141K21,8,701,AS,exp,36,↑,up,↑,0.788296100217849,True,15,-1,0,12
Y2-S2-141K21,8,702,AS,exp,25,↓,up,↑,0.8260458000004292,False,15,-1,0,12
Y2-S2-141K21,8,703,AS,exp,46,←,left,←,0.6437384998425841,True,16,-1,0,12
Y2-S2-141K21,8,704,AS,exp,50,→,right,→,0.5991842998191714,True,16,-1,0,12
Y2-S2-141K21,8,705,AS,exp,27,↑,up,↑,0.7953462996520102,True,16,1,1,13
Y2-S2-141K21,8,706,AS,exp,48,↓,up,↑,0.7187430001795292,False,15,-1,1,14
Y2-S2-141K21,8,707,AS,exp,40,→,right,→,0.5331788002513349,True,16,-1,0,14
Y2-S2-141K21,8,708,AS,exp,45,↑,up,↑,0.6682395995594561,True,16,-1,0,14
Y2-S2-141K21,8,709,AS,exp,43,←,left,←,0.7426203000359237,True,16,1,1,15
Y2-S2-141K21,8,710,AS,exp,49,↓,down,↓,0.5323742995969951,True,15,1,0,15
Y2-S2-141K21,8,711,AS,exp,34,←,left,←,0.6857328000478446,True,15,1,0,15
Y2-S2-141K21,8,712,AS,exp,28,↑,up,↑,0.5368508002720773,True,15,1,0,15
Y2-S2-141K21,8,713,AS,exp,27,→,right,→,0.6628286000341177,True,14,1,0,15
Y2-S2-141K21,8,714,AS,exp,43,↓,down,↓,0.647851999849081,True,14,1,0,15
Y2-S2-141K21,8,715,AS,exp,45,←,left,←,0.5828351001255214,True,14,1,0,15
Y2-S2-141K21,8,716,AS,exp,35,↑,up,↑,0.5354695999994874,True,13,1,0,15
Y2-S2-141K21,8,717,AS,exp,34,→,up,↑,0.6838925997726619,False,13,-1,1,16
