PART_ID,Block_no,Trial_no,Block_type,Trial_type,CSI,Stim_letter,Key_pressed,letter_choose,Rt,Corr,Stimulus Time,Level,Reversal,Revs_count
Y2-S2-208K19,1,1,PS,train,33,↓,down,↓,0.8898221999406815,True,30,-,-,-
Y2-S2-208K19,1,2,PS,train,31,→,right,→,0.7122281999327242,True,30,-,-,-
Y2-S2-208K19,1,3,PS,train,25,↑,up,↑,0.7212658999487758,True,30,-,-,-
Y2-S2-208K19,1,4,PS,train,38,←,no_key,no_letter,-1.0,False,30,-,-,-
Y2-S2-208K19,1,5,PS,train,29,↓,down,↓,1.0027394997887313,True,30,-,-,-
Y2-S2-208K19,1,6,PS,train,37,→,right,→,0.7480194997042418,True,30,-,-,-
Y2-S2-208K19,1,7,PS,train,50,↓,down,↓,0.720089000184089,True,30,-,-,-
Y2-S2-208K19,1,8,PS,train,39,↑,up,↑,0.788901399821043,True,30,-,-,-
Y2-S2-208K19,1,9,PS,train,42,←,left,←,1.9911520001478493,True,30,-,-,-
Y2-S2-208K19,1,10,PS,train,44,↓,down,↓,0.7610545996576548,True,30,-,-,-
Y2-S2-208K19,2,11,AS,train,39,←,left,←,0.883857499808073,True,45,-,-,-
Y2-S2-208K19,2,12,AS,train,50,↑,up,↑,0.8341063000261784,True,45,-,-,-
Y2-S2-208K19,2,13,AS,train,48,←,left,←,0.7672648001462221,True,45,-,-,-
Y2-S2-208K19,2,14,AS,train,48,→,right,→,0.6843858999200165,True,45,-,-,-
Y2-S2-208K19,2,15,AS,train,50,↓,down,↓,0.7836728999391198,True,45,-,-,-
Y2-S2-208K19,2,16,AS,train,47,←,left,←,0.5677697998471558,True,45,-,-,-
Y2-S2-208K19,2,17,AS,train,28,→,right,→,0.6177067998796701,True,45,-,-,-
Y2-S2-208K19,2,18,AS,train,36,↑,up,↑,0.7006498002447188,True,45,-,-,-
Y2-S2-208K19,2,19,AS,train,29,←,left,←,0.6009112000465393,True,45,-,-,-
Y2-S2-208K19,2,20,AS,train,26,↓,down,↓,0.6677188999019563,True,45,-,-,-
Y2-S2-208K19,-,21,PS,adaptive,48,↑,up,↑,0.7847552001476288,True,10,0,0,0
Y2-S2-208K19,-,22,PS,adaptive,41,←,left,←,1.1227126000449061,True,10,0,0,0
Y2-S2-208K19,-,23,PS,adaptive,43,↓,down,↓,0.9293324998579919,True,10,1,0,0
Y2-S2-208K19,-,24,PS,adaptive,48,→,right,→,0.6633234000764787,True,9,1,0,0
Y2-S2-208K19,-,25,PS,adaptive,42,↓,down,↓,0.683196300175041,True,9,1,0,0
Y2-S2-208K19,-,26,PS,adaptive,33,→,right,→,0.8162223999388516,True,9,1,0,0
Y2-S2-208K19,-,27,PS,adaptive,26,↓,left,←,0.7840095995925367,False,8,-1,1,1
Y2-S2-208K19,-,28,PS,adaptive,31,↑,up,↑,0.5944937001913786,True,9,-1,0,1
Y2-S2-208K19,-,29,PS,adaptive,50,→,right,→,0.7816273998469114,True,9,-1,0,1
Y2-S2-208K19,-,30,PS,adaptive,34,↓,down,↓,0.5996318999677896,True,9,1,1,2
Y2-S2-208K19,-,31,PS,adaptive,36,→,down,↓,0.77200230024755,False,8,-1,1,3
Y2-S2-208K19,-,32,PS,adaptive,41,↑,left,←,0.8791200001724064,False,9,-1,0,3
Y2-S2-208K19,-,33,PS,adaptive,30,→,right,→,1.2063228003680706,True,10,-1,0,3
Y2-S2-208K19,-,34,PS,adaptive,49,↑,up,↑,0.6396142998710275,True,10,-1,0,3
Y2-S2-208K19,-,35,PS,adaptive,39,→,right,→,0.5882818000391126,True,10,1,1,4
Y2-S2-208K19,-,36,AS,adaptive,42,←,left,←,0.5995466001331806,True,20,0,0,0
Y2-S2-208K19,-,37,AS,adaptive,41,→,right,→,0.6277295001782477,True,20,0,0,0
Y2-S2-208K19,-,38,AS,adaptive,46,↓,down,↓,0.6708729998208582,True,20,1,0,0
Y2-S2-208K19,-,39,AS,adaptive,39,↑,up,↑,0.6112597999162972,True,19,1,0,0
Y2-S2-208K19,-,40,AS,adaptive,48,↓,down,↓,0.6129807997494936,True,19,1,0,0
Y2-S2-208K19,-,41,AS,adaptive,38,↑,up,↑,0.6951025002636015,True,19,1,0,0
Y2-S2-208K19,-,42,AS,adaptive,40,←,right,→,0.624498900026083,False,18,-1,1,1
Y2-S2-208K19,-,43,AS,adaptive,26,↑,up,↑,0.7317166002467275,True,19,-1,0,1
Y2-S2-208K19,-,44,AS,adaptive,26,↓,down,↓,0.5788770001381636,True,19,-1,0,1
Y2-S2-208K19,-,45,AS,adaptive,45,←,left,←,0.5532869999296963,True,19,1,1,2
Y2-S2-208K19,-,46,AS,adaptive,34,↓,down,↓,0.8428942998871207,True,18,1,0,2
Y2-S2-208K19,-,47,AS,adaptive,46,↑,up,↑,0.6555665000341833,True,18,1,0,2
Y2-S2-208K19,-,48,AS,adaptive,46,←,left,←,0.7221693000756204,True,18,1,0,2
Y2-S2-208K19,-,49,AS,adaptive,39,↓,down,↓,0.7091647000052035,True,17,1,0,2
Y2-S2-208K19,-,50,AS,adaptive,37,→,right,→,0.620556500274688,True,17,1,0,2
Y2-S2-208K19,-,51,AS,adaptive,30,↑,up,↑,0.7791367000900209,True,17,1,0,2
Y2-S2-208K19,-,52,AS,adaptive,32,→,right,→,0.6432370999827981,True,16,1,0,2
Y2-S2-208K19,-,53,AS,adaptive,45,↓,down,↓,0.704024899750948,True,16,1,0,2
Y2-S2-208K19,-,54,AS,adaptive,43,←,left,←,0.6578582003712654,True,16,1,0,2
Y2-S2-208K19,-,55,AS,adaptive,30,↓,down,↓,0.862419200129807,True,15,1,0,2
Y2-S2-208K19,-,56,AS,adaptive,50,←,left,←,0.6098078000359237,True,15,1,0,2
Y2-S2-208K19,-,57,AS,adaptive,35,↑,up,↑,0.6687511997297406,True,15,1,0,2
Y2-S2-208K19,-,58,AS,adaptive,47,←,left,←,0.547594300005585,True,14,1,0,2
Y2-S2-208K19,-,59,AS,adaptive,34,↑,up,↑,0.6162013998255134,True,14,1,0,2
Y2-S2-208K19,-,60,AS,adaptive,25,↓,down,↓,0.5638235001824796,True,14,1,0,2
Y2-S2-208K19,-,61,AS,adaptive,42,↑,up,↑,0.6001222999766469,True,13,1,0,2
Y2-S2-208K19,-,62,AS,adaptive,29,←,left,←,0.6217314000241458,True,13,1,0,2
Y2-S2-208K19,-,63,AS,adaptive,43,→,right,→,0.5687573002651334,True,13,1,0,2
Y2-S2-208K19,-,64,AS,adaptive,39,↑,up,↑,0.7084256000816822,True,12,1,0,2
Y2-S2-208K19,-,65,AS,adaptive,50,←,left,←,0.5582746001891792,True,12,1,0,2
Y2-S2-208K19,-,66,AS,adaptive,41,↓,down,↓,0.6242179996334016,True,12,1,0,2
Y2-S2-208K19,-,67,AS,adaptive,27,↑,up,↑,0.5888918996788561,True,11,1,0,2
Y2-S2-208K19,-,68,AS,adaptive,25,↓,down,↓,0.7923506000079215,True,11,1,0,2
Y2-S2-208K19,-,69,AS,adaptive,36,←,left,←,0.7000611000694335,True,11,1,0,2
Y2-S2-208K19,-,70,AS,adaptive,32,↓,down,↓,0.760622899979353,True,10,1,0,2
Y2-S2-208K19,-,71,AS,adaptive,43,→,left,←,0.6299143000505865,False,10,-1,1,3
Y2-S2-208K19,-,72,AS,adaptive,32,↓,down,↓,0.7321889000013471,True,11,-1,0,3
Y2-S2-208K19,-,73,AS,adaptive,48,↑,down,↓,0.5930274999700487,False,11,-1,0,3
Y2-S2-208K19,-,74,AS,adaptive,45,↓,down,↓,0.6625705999322236,True,12,-1,0,3
Y2-S2-208K19,-,75,AS,adaptive,25,→,right,→,0.6582298004068434,True,12,-1,0,3
Y2-S2-208K19,-,76,AS,adaptive,45,↓,down,↓,0.6150004002265632,True,12,1,1,4
Y2-S2-208K19,1,77,AS,intra_train,49,→,right,→,0.6590558001771569,True,16,-,-,-
Y2-S2-208K19,1,78,AS,intra_train,37,↓,down,↓,0.58484400017187,True,16,-,-,-
Y2-S2-208K19,1,79,AS,intra_train,38,→,right,→,0.6034859996289015,True,16,-,-,-
Y2-S2-208K19,1,80,AS,intra_train,44,↑,up,↑,0.8016433999873698,True,16,-,-,-
Y2-S2-208K19,1,81,AS,intra_train,35,→,right,→,0.5775091997347772,True,16,-,-,-
Y2-S2-208K19,1,82,AS,exp,43,↑,up,↑,0.8161213998682797,True,11,0,0,0
Y2-S2-208K19,1,83,AS,exp,49,→,down,↓,1.4040489997714758,False,11,-1,0,0
Y2-S2-208K19,1,84,AS,exp,40,↑,up,↑,0.8843298000283539,True,12,-1,0,0
Y2-S2-208K19,1,85,AS,exp,31,↓,down,↓,0.7274823002517223,True,12,-1,0,0
Y2-S2-208K19,1,86,AS,exp,28,→,right,→,0.707156500313431,True,12,1,1,1
Y2-S2-208K19,1,87,AS,exp,35,←,left,←,0.6289809001609683,True,11,1,0,1
Y2-S2-208K19,1,88,AS,exp,29,→,right,→,0.6802480001933873,True,11,1,0,1
Y2-S2-208K19,1,89,AS,exp,43,←,left,←,0.6342336996458471,True,11,1,0,1
Y2-S2-208K19,1,90,AS,exp,48,→,left,←,0.5943510001525283,False,10,-1,1,2
Y2-S2-208K19,1,91,AS,exp,35,↓,down,↓,0.5918193999677896,True,11,-1,0,2
Y2-S2-208K19,1,92,AS,exp,34,←,left,←,0.42275599995628,True,11,-1,0,2
Y2-S2-208K19,1,93,AS,exp,45,↑,right,→,0.6595457000657916,False,11,-1,0,2
Y2-S2-208K19,1,94,AS,exp,44,←,left,←,0.5805559996515512,True,12,-1,0,2
Y2-S2-208K19,1,95,AS,exp,35,↑,up,↑,0.7897303001955152,True,12,-1,0,2
Y2-S2-208K19,1,96,AS,exp,34,→,right,→,0.6444724998436868,True,12,1,1,3
Y2-S2-208K19,1,97,AS,exp,32,←,left,←,0.6440840000286698,True,11,1,0,3
Y2-S2-208K19,1,98,AS,exp,45,→,left,←,0.6725111003033817,False,11,-1,1,4
Y2-S2-208K19,1,99,AS,exp,42,←,left,←,0.5793980001471937,True,12,-1,0,4
Y2-S2-208K19,1,100,AS,exp,37,↓,down,↓,0.6531469998881221,True,12,-1,0,4
Y2-S2-208K19,1,101,AS,exp,44,→,right,→,0.6437030998058617,True,12,1,1,5
Y2-S2-208K19,1,102,AS,exp,35,↑,up,↑,0.7280887002125382,True,11,1,0,5
Y2-S2-208K19,1,103,AS,exp,42,←,left,←,0.4799958998337388,True,11,1,0,5
Y2-S2-208K19,1,104,AS,exp,29,↓,right,→,0.6225788998417556,False,11,-1,1,6
Y2-S2-208K19,1,105,AS,exp,32,←,left,←,0.5796562000177801,True,12,-1,0,6
Y2-S2-208K19,1,106,AS,exp,45,→,right,→,0.6173962000757456,True,12,-1,0,6
Y2-S2-208K19,1,107,AS,exp,49,←,left,←,0.6072088996879756,True,12,1,1,7
Y2-S2-208K19,1,108,AS,exp,50,↑,up,↑,0.7593190995976329,True,11,1,0,7
Y2-S2-208K19,1,109,AS,exp,37,→,right,→,0.6887092003598809,True,11,1,0,7
Y2-S2-208K19,1,110,AS,exp,42,↑,up,↑,0.7603549999184906,True,11,1,0,7
Y2-S2-208K19,1,111,AS,exp,45,→,right,→,0.7117222999222577,True,10,1,0,7
Y2-S2-208K19,1,112,AS,exp,49,←,left,←,0.573989599943161,True,10,1,0,7
Y2-S2-208K19,1,113,AS,exp,49,→,left,←,0.635839800350368,False,10,-1,1,8
Y2-S2-208K19,1,114,AS,exp,49,←,down,↓,0.8852556999772787,False,11,-1,0,8
Y2-S2-208K19,1,115,AS,exp,49,↓,down,↓,0.725163399707526,True,12,-1,0,8
Y2-S2-208K19,1,116,AS,exp,35,↑,up,↑,0.6349964998662472,True,12,-1,0,8
Y2-S2-208K19,1,117,AS,exp,28,→,left,←,0.5829308996908367,False,12,-1,0,8
Y2-S2-208K19,1,118,AS,exp,40,↑,down,↓,0.6273087998852134,False,13,-1,0,8
Y2-S2-208K19,1,119,AS,exp,47,→,right,→,0.6570177003741264,True,14,-1,0,8
Y2-S2-208K19,1,120,AS,exp,25,↓,left,←,0.6662418004125357,False,14,-1,0,8
Y2-S2-208K19,1,121,AS,exp,47,→,right,→,0.6111579001881182,True,15,-1,0,8
Y2-S2-208K19,1,122,AS,exp,25,←,left,←,0.5916404998861253,True,15,-1,0,8
Y2-S2-208K19,1,123,AS,exp,34,↑,up,↑,0.8313056998886168,True,15,1,1,9
Y2-S2-208K19,1,124,AS,exp,38,↓,up,↑,1.299992199987173,False,14,-1,1,10
Y2-S2-208K19,1,125,AS,exp,27,←,left,←,0.5773222004063427,True,15,-1,0,10
Y2-S2-208K19,1,126,AS,exp,26,→,right,→,0.7387183997780085,True,15,-1,0,10
Y2-S2-208K19,1,127,AS,exp,49,←,left,←,0.5827093003317714,True,15,1,1,11
Y2-S2-208K19,1,128,AS,exp,26,↑,up,↑,0.9780481001362205,True,14,1,0,11
Y2-S2-208K19,1,129,AS,exp,33,←,left,←,0.6288514998741448,True,14,1,0,11
Y2-S2-208K19,1,130,AS,exp,37,↑,up,↑,1.0706148999743164,True,14,1,0,11
Y2-S2-208K19,1,131,AS,exp,42,←,left,←,0.5442900001071393,True,13,1,0,11
Y2-S2-208K19,1,132,AS,exp,45,↑,up,↑,1.0215606996789575,True,13,1,0,11
Y2-S2-208K19,1,133,AS,exp,50,←,left,←,0.6321014999412,True,13,1,0,11
Y2-S2-208K19,1,134,AS,exp,33,↑,down,↓,1.04932799981907,False,12,-1,1,12
Y2-S2-208K19,1,135,AS,exp,39,→,right,→,0.7394588999450207,True,13,-1,0,12
Y2-S2-208K19,1,136,AS,exp,31,↑,up,↑,0.9722849000245333,True,13,-1,0,12
Y2-S2-208K19,1,137,AS,exp,44,↓,up,↑,1.4231147998943925,False,13,-1,0,12
Y2-S2-208K19,1,138,AS,exp,27,↑,up,↑,0.7256291997618973,True,14,-1,0,12
Y2-S2-208K19,1,139,AS,exp,27,←,left,←,0.6073402999900281,True,14,-1,0,12
Y2-S2-208K19,1,140,AS,exp,32,→,right,→,0.665648499969393,True,14,1,1,13
Y2-S2-208K19,1,141,AS,exp,25,↓,down,↓,0.6369026997126639,True,13,1,0,13
Y2-S2-208K19,1,142,AS,exp,48,←,left,←,0.518529299646616,True,13,1,0,13
Y2-S2-208K19,1,143,AS,exp,37,→,right,→,0.6071762000210583,True,13,1,0,13
Y2-S2-208K19,1,144,AS,exp,27,←,left,←,0.7995166000910103,True,12,1,0,13
Y2-S2-208K19,1,145,AS,exp,48,→,right,→,0.5223556999117136,True,12,1,0,13
Y2-S2-208K19,1,146,AS,exp,28,↓,down,↓,0.6425198996439576,True,12,1,0,13
Y2-S2-208K19,1,147,AS,exp,38,←,left,←,0.7071280996315181,True,11,1,0,13
Y2-S2-208K19,1,148,AS,exp,46,↑,down,↓,0.7895504999905825,False,11,-1,1,14
Y2-S2-208K19,1,149,AS,exp,38,←,left,←,0.6034166002646089,True,12,-1,0,14
Y2-S2-208K19,1,150,AS,exp,48,↓,down,↓,0.647437300067395,True,12,-1,0,14
Y2-S2-208K19,1,151,AS,exp,27,→,right,→,0.5988743002526462,True,12,1,1,15
Y2-S2-208K19,1,152,AS,exp,49,↓,down,↓,0.6404764000326395,True,11,1,0,15
Y2-S2-208K19,1,153,AS,exp,27,↑,down,↓,0.6640266999602318,False,11,-1,1,16
Y2-S2-208K19,2,154,PS,intra_train,25,→,down,↓,0.9877023999579251,False,13,-,-,-
Y2-S2-208K19,2,155,PS,intra_train,27,↑,up,↑,0.7483612997457385,True,13,-,-,-
Y2-S2-208K19,2,156,PS,intra_train,29,→,right,→,0.6675963997840881,True,13,-,-,-
Y2-S2-208K19,2,157,PS,intra_train,45,↑,up,↑,0.7552527002990246,True,13,-,-,-
Y2-S2-208K19,2,158,PS,intra_train,30,←,up,↑,0.778747099917382,False,13,-,-,-
Y2-S2-208K19,2,159,PS,exp,26,→,right,→,0.48156150011345744,True,9,0,0,0
Y2-S2-208K19,2,160,PS,exp,38,↑,left,←,0.8512766999192536,False,9,-1,0,0
Y2-S2-208K19,2,161,PS,exp,29,←,right,→,0.6388535997830331,False,10,-1,0,0
Y2-S2-208K19,2,162,PS,exp,30,↑,up,↑,0.6152300997637212,True,11,-1,0,0
Y2-S2-208K19,2,163,PS,exp,46,↓,down,↓,1.1120201000012457,True,11,-1,0,0
Y2-S2-208K19,2,164,PS,exp,50,→,right,→,0.5933652999810874,True,11,1,1,1
Y2-S2-208K19,2,165,PS,exp,43,↑,right,→,0.733799499925226,False,10,-1,1,2
Y2-S2-208K19,2,166,PS,exp,34,↓,down,↓,0.6916734999977052,True,11,-1,0,2
Y2-S2-208K19,2,167,PS,exp,48,←,left,←,0.5773964999243617,True,11,-1,0,2
Y2-S2-208K19,2,168,PS,exp,40,↑,up,↑,0.7537087998352945,True,11,1,1,3
Y2-S2-208K19,2,169,PS,exp,46,↓,right,→,0.7916403999552131,False,10,-1,1,4
Y2-S2-208K19,2,170,PS,exp,45,←,left,←,0.5537802996113896,True,11,-1,0,4
Y2-S2-208K19,2,171,PS,exp,30,↓,down,↓,0.5527659999206662,True,11,-1,0,4
Y2-S2-208K19,2,172,PS,exp,39,↑,up,↑,0.6957958000712097,True,11,1,1,5
Y2-S2-208K19,2,173,PS,exp,35,→,right,→,0.6488242000341415,True,10,1,0,5
Y2-S2-208K19,2,174,PS,exp,28,↑,up,↑,0.5931479996070266,True,10,1,0,5
Y2-S2-208K19,2,175,PS,exp,37,→,right,→,0.4587375996634364,True,10,1,0,5
Y2-S2-208K19,2,176,PS,exp,42,↑,up,↑,0.6270391000434756,True,9,1,0,5
Y2-S2-208K19,2,177,PS,exp,49,←,left,←,0.5577067998237908,True,9,1,0,5
Y2-S2-208K19,2,178,PS,exp,34,→,right,→,0.9265842996537685,True,9,1,0,5
Y2-S2-208K19,2,179,PS,exp,29,↑,up,↑,0.8973963996395469,True,8,1,0,5
Y2-S2-208K19,2,180,PS,exp,26,→,left,←,0.996603099629283,False,8,-1,1,6
Y2-S2-208K19,2,181,PS,exp,27,←,left,←,0.5029254001565278,True,9,-1,0,6
Y2-S2-208K19,2,182,PS,exp,29,→,left,←,0.637060800101608,False,9,-1,0,6
Y2-S2-208K19,2,183,PS,exp,36,↓,right,→,0.5490904999896884,False,10,-1,0,6
Y2-S2-208K19,2,184,PS,exp,48,→,right,→,0.6061793998815119,True,11,-1,0,6
Y2-S2-208K19,2,185,PS,exp,47,↑,up,↑,0.7594451000913978,True,11,-1,0,6
Y2-S2-208K19,2,186,PS,exp,30,↓,left,←,0.8469181996770203,False,11,-1,0,6
Y2-S2-208K19,2,187,PS,exp,44,↑,up,↑,0.6707978001795709,True,12,-1,0,6
Y2-S2-208K19,2,188,PS,exp,42,↓,down,↓,1.0354467001743615,True,12,-1,0,6
Y2-S2-208K19,2,189,PS,exp,48,←,left,←,0.5870210998691618,True,12,1,1,7
Y2-S2-208K19,2,190,PS,exp,37,↑,up,↑,1.6510559003800154,True,11,1,0,7
Y2-S2-208K19,2,191,PS,exp,31,↓,down,↓,0.6186986998654902,True,11,1,0,7
Y2-S2-208K19,2,192,PS,exp,27,↑,up,↑,1.0917750000953674,True,11,1,0,7
Y2-S2-208K19,2,193,PS,exp,39,→,right,→,0.5856210999190807,True,10,1,0,7
Y2-S2-208K19,2,194,PS,exp,29,↓,left,←,0.5208180001936853,False,10,-1,1,8
Y2-S2-208K19,2,195,PS,exp,49,←,left,←,0.4975406997837126,True,11,-1,0,8
Y2-S2-208K19,2,196,PS,exp,25,↑,down,↓,0.6202480001375079,False,11,-1,0,8
Y2-S2-208K19,2,197,PS,exp,35,↓,down,↓,0.482530300039798,True,12,-1,0,8
Y2-S2-208K19,2,198,PS,exp,45,↑,up,↑,0.7038894998840988,True,12,-1,0,8
Y2-S2-208K19,2,199,PS,exp,49,↓,down,↓,0.4264281000941992,True,12,1,1,9
Y2-S2-208K19,2,200,PS,exp,46,→,right,→,0.626598599832505,True,11,1,0,9
Y2-S2-208K19,2,201,PS,exp,30,←,left,←,0.4628043002448976,True,11,1,0,9
Y2-S2-208K19,2,202,PS,exp,36,→,left,←,0.569581899791956,False,11,-1,1,10
Y2-S2-208K19,2,203,PS,exp,35,↑,up,↑,0.6349093997851014,True,12,-1,0,10
Y2-S2-208K19,2,204,PS,exp,34,↓,down,↓,0.5040352996438742,True,12,-1,0,10
Y2-S2-208K19,2,205,PS,exp,27,↑,no_key,no_letter,-1.0,False,12,-1,0,10
Y2-S2-208K19,2,206,PS,exp,42,←,left,←,0.6342993997968733,True,13,-1,0,10
Y2-S2-208K19,2,207,PS,exp,32,→,right,→,0.6187300998717546,True,13,-1,0,10
Y2-S2-208K19,2,208,PS,exp,30,↓,down,↓,0.5826007998548448,True,13,1,1,11
Y2-S2-208K19,2,209,PS,exp,30,↑,down,↓,0.8294861000031233,False,12,-1,1,12
Y2-S2-208K19,2,210,PS,exp,46,↓,down,↓,0.582638599909842,True,13,-1,0,12
Y2-S2-208K19,2,211,PS,exp,31,←,left,←,0.5787896998226643,True,13,-1,0,12
Y2-S2-208K19,2,212,PS,exp,44,↑,right,→,0.7721007000654936,False,13,-1,0,12
Y2-S2-208K19,2,213,PS,exp,49,→,right,→,0.6328392000868917,True,14,-1,0,12
Y2-S2-208K19,2,214,PS,exp,28,↓,down,↓,0.6160023999400437,True,14,-1,0,12
Y2-S2-208K19,2,215,PS,exp,30,←,left,←,0.5461846999824047,True,14,1,1,13
Y2-S2-208K19,2,216,PS,exp,48,↓,down,↓,0.45641280012205243,True,13,1,0,13
Y2-S2-208K19,2,217,PS,exp,31,→,right,→,0.5311172995716333,True,13,1,0,13
Y2-S2-208K19,2,218,PS,exp,44,↓,down,↓,0.5283833998255432,True,13,1,0,13
Y2-S2-208K19,2,219,PS,exp,26,→,right,→,0.5712316003628075,True,12,1,0,13
Y2-S2-208K19,2,220,PS,exp,46,←,left,←,0.5246725003235042,True,12,1,0,13
Y2-S2-208K19,2,221,PS,exp,41,→,right,→,0.5580780003219843,True,12,1,0,13
Y2-S2-208K19,2,222,PS,exp,39,↑,up,↑,0.7577258995734155,True,11,1,0,13
Y2-S2-208K19,2,223,PS,exp,26,←,left,←,0.506173999980092,True,11,1,0,13
Y2-S2-208K19,2,224,PS,exp,31,↓,left,←,0.48241860000416636,False,11,-1,1,14
Y2-S2-208K19,2,225,PS,exp,36,→,right,→,0.4884506999514997,True,12,-1,0,14
Y2-S2-208K19,2,226,PS,exp,48,↑,down,↓,0.6941424999386072,False,12,-1,0,14
Y2-S2-208K19,2,227,PS,exp,42,→,right,→,0.4845239003188908,True,13,-1,0,14
Y2-S2-208K19,2,228,PS,exp,25,←,left,←,0.4642219999805093,True,13,-1,0,14
Y2-S2-208K19,2,229,PS,exp,39,→,right,→,0.5730687999166548,True,13,1,1,15
Y2-S2-208K19,2,230,PS,exp,47,↑,up,↑,0.7198136001825333,True,12,1,0,15
Y2-S2-208K19,2,231,PS,exp,30,→,right,→,0.5574022997170687,True,12,1,0,15
Y2-S2-208K19,2,232,PS,exp,31,←,left,←,0.5425816997885704,True,12,1,0,15
Y2-S2-208K19,2,233,PS,exp,40,↑,right,→,0.7504020999185741,False,11,-1,1,16
Y2-S2-208K19,3,234,PS,intra_train,36,←,left,←,0.6350256996229291,True,13,-,-,-
Y2-S2-208K19,3,235,PS,intra_train,27,↑,up,↑,0.7875641002319753,True,13,-,-,-
Y2-S2-208K19,3,236,PS,intra_train,27,←,left,←,0.5411509000696242,True,13,-,-,-
Y2-S2-208K19,3,237,PS,intra_train,43,→,right,→,0.5424236003309488,True,13,-,-,-
Y2-S2-208K19,3,238,PS,intra_train,39,↑,up,↑,0.7824365999549627,True,13,-,-,-
Y2-S2-208K19,3,239,PS,exp,27,↓,down,↓,0.5566603001207113,True,9,0,0,0
Y2-S2-208K19,3,240,PS,exp,37,←,left,←,0.5883496003225446,True,9,0,0,0
Y2-S2-208K19,3,241,PS,exp,43,↑,up,↑,0.8107811002992094,True,9,1,0,0
Y2-S2-208K19,3,242,PS,exp,47,↓,down,↓,0.5573648000136018,True,8,1,0,0
Y2-S2-208K19,3,243,PS,exp,42,→,left,←,0.5463863001205027,False,8,-1,1,1
Y2-S2-208K19,3,244,PS,exp,45,↑,up,↑,0.7165832999162376,True,9,-1,0,1
Y2-S2-208K19,3,245,PS,exp,47,←,left,←,0.5209861001931131,True,9,-1,0,1
Y2-S2-208K19,3,246,PS,exp,31,↑,up,↑,0.8118683001957834,True,9,1,1,2
Y2-S2-208K19,3,247,PS,exp,40,←,no_key,no_letter,-1.0,False,8,-1,1,3
Y2-S2-208K19,3,248,PS,exp,38,→,right,→,0.5618036999367177,True,9,-1,0,3
Y2-S2-208K19,3,249,PS,exp,30,↓,left,←,0.5244668000377715,False,9,-1,0,3
Y2-S2-208K19,3,250,PS,exp,29,↑,down,↓,0.5624019000679255,False,10,-1,0,3
Y2-S2-208K19,3,251,PS,exp,37,←,left,←,0.5583655000664294,True,11,-1,0,3
Y2-S2-208K19,3,252,PS,exp,40,↑,up,↑,0.6863820999860764,True,11,-1,0,3
Y2-S2-208K19,3,253,PS,exp,39,↓,down,↓,0.570696999784559,True,11,1,1,4
Y2-S2-208K19,3,254,PS,exp,49,→,right,→,0.558995199855417,True,10,1,0,4
Y2-S2-208K19,3,255,PS,exp,26,←,left,←,0.4491383000276983,True,10,1,0,4
Y2-S2-208K19,3,256,PS,exp,48,↓,down,↓,0.4578145002014935,True,10,1,0,4
Y2-S2-208K19,3,257,PS,exp,33,↑,up,↑,0.6806316003203392,True,9,1,0,4
Y2-S2-208K19,3,258,PS,exp,47,↓,down,↓,0.459969200193882,True,9,1,0,4
Y2-S2-208K19,3,259,PS,exp,41,↑,right,→,0.7033603000454605,False,9,-1,1,5
Y2-S2-208K19,3,260,PS,exp,48,↓,down,↓,0.44108729995787144,True,10,-1,0,5
Y2-S2-208K19,3,261,PS,exp,43,→,right,→,0.46042530005797744,True,10,-1,0,5
Y2-S2-208K19,3,262,PS,exp,40,↓,down,↓,0.46145279984921217,True,10,1,1,6
Y2-S2-208K19,3,263,PS,exp,36,→,right,→,0.4888875000178814,True,9,1,0,6
Y2-S2-208K19,3,264,PS,exp,50,↓,down,↓,0.7419284000061452,True,9,1,0,6
Y2-S2-208K19,3,265,PS,exp,36,→,right,→,0.4959816001355648,True,9,1,0,6
Y2-S2-208K19,3,266,PS,exp,43,↓,down,↓,0.44707969995215535,True,8,1,0,6
Y2-S2-208K19,3,267,PS,exp,42,→,left,←,0.812310699839145,False,8,-1,1,7
Y2-S2-208K19,3,268,PS,exp,38,←,left,←,0.4273916999809444,True,9,-1,0,7
Y2-S2-208K19,3,269,PS,exp,42,↑,up,↑,0.73710299981758,True,9,-1,0,7
Y2-S2-208K19,3,270,PS,exp,50,↓,down,↓,0.46918890019878745,True,9,1,1,8
Y2-S2-208K19,3,271,PS,exp,38,←,right,→,0.6162433000281453,False,8,-1,1,9
Y2-S2-208K19,3,272,PS,exp,28,↑,right,→,0.6885613999329507,False,9,-1,0,9
Y2-S2-208K19,3,273,PS,exp,41,←,left,←,0.5525683998130262,True,10,-1,0,9
Y2-S2-208K19,3,274,PS,exp,33,→,right,→,0.45929699996486306,True,10,-1,0,9
Y2-S2-208K19,3,275,PS,exp,47,←,left,←,0.4293068996630609,True,10,1,1,10
Y2-S2-208K19,3,276,PS,exp,40,↑,left,←,0.5384623999707401,False,9,-1,1,11
Y2-S2-208K19,3,277,PS,exp,41,→,right,→,0.5913772997446358,True,10,-1,0,11
Y2-S2-208K19,3,278,PS,exp,25,↑,right,→,0.6980992001481354,False,10,-1,0,11
Y2-S2-208K19,3,279,PS,exp,48,↓,down,↓,0.5170200001448393,True,11,-1,0,11
Y2-S2-208K19,3,280,PS,exp,47,→,left,←,0.696314699947834,False,11,-1,0,11
Y2-S2-208K19,3,281,PS,exp,43,↓,left,←,0.555360300000757,False,12,-1,0,11
Y2-S2-208K19,3,282,PS,exp,28,→,right,→,0.4724302003160119,True,13,-1,0,11
Y2-S2-208K19,3,283,PS,exp,36,↑,up,↑,0.754059299826622,True,13,-1,0,11
Y2-S2-208K19,3,284,PS,exp,41,↓,down,↓,0.4601042000576854,True,13,1,1,12
Y2-S2-208K19,3,285,PS,exp,37,↑,up,↑,0.7346457000821829,True,12,1,0,12
Y2-S2-208K19,3,286,PS,exp,27,↓,down,↓,0.48375710006803274,True,12,1,0,12
Y2-S2-208K19,3,287,PS,exp,50,↑,up,↑,0.649861500132829,True,12,1,0,12
Y2-S2-208K19,3,288,PS,exp,35,↓,down,↓,0.4629783998243511,True,11,1,0,12
Y2-S2-208K19,3,289,PS,exp,31,→,right,→,0.5786597998812795,True,11,1,0,12
Y2-S2-208K19,3,290,PS,exp,38,↓,down,↓,0.38368159998208284,True,11,1,0,12
Y2-S2-208K19,3,291,PS,exp,29,←,left,←,0.5630259998142719,True,10,1,0,12
Y2-S2-208K19,3,292,PS,exp,32,↓,down,↓,0.4426095997914672,True,10,1,0,12
Y2-S2-208K19,3,293,PS,exp,25,↑,up,↑,0.7042145002633333,True,10,1,0,12
Y2-S2-208K19,3,294,PS,exp,44,→,right,→,0.5101926997303963,True,9,1,0,12
Y2-S2-208K19,3,295,PS,exp,47,←,left,←,0.5299839000217617,True,9,1,0,12
Y2-S2-208K19,3,296,PS,exp,31,↑,up,↑,0.6534018996171653,True,9,1,0,12
Y2-S2-208K19,3,297,PS,exp,29,←,right,→,0.4964558999054134,False,8,-1,1,13
Y2-S2-208K19,3,298,PS,exp,27,↑,up,↑,0.5484226001426578,True,9,-1,0,13
Y2-S2-208K19,3,299,PS,exp,41,↓,down,↓,0.46220589987933636,True,9,-1,0,13
Y2-S2-208K19,3,300,PS,exp,29,←,left,←,0.5643617999739945,True,9,1,1,14
Y2-S2-208K19,3,301,PS,exp,28,↑,up,↑,0.6462316000834107,True,8,1,0,14
Y2-S2-208K19,3,302,PS,exp,39,←,left,←,0.45875959983095527,True,8,1,0,14
Y2-S2-208K19,3,303,PS,exp,49,↓,down,↓,0.5306413997896016,True,8,1,0,14
Y2-S2-208K19,3,304,PS,exp,42,↑,up,↑,0.6994468998163939,True,7,1,0,14
Y2-S2-208K19,3,305,PS,exp,40,←,left,←,0.43846459966152906,True,7,1,0,14
Y2-S2-208K19,3,306,PS,exp,29,→,right,→,0.5252666999585927,True,7,1,0,14
Y2-S2-208K19,3,307,PS,exp,38,↑,right,→,0.6122019998729229,False,6,-1,1,15
Y2-S2-208K19,3,308,PS,exp,48,→,right,→,0.6189346997998655,True,7,-1,0,15
Y2-S2-208K19,3,309,PS,exp,38,↑,left,←,0.6220174003392458,False,7,-1,0,15
Y2-S2-208K19,3,310,PS,exp,33,→,right,→,0.5306542003527284,True,8,-1,0,15
Y2-S2-208K19,3,311,PS,exp,43,←,left,←,0.5080315000377595,True,8,-1,0,15
Y2-S2-208K19,3,312,PS,exp,38,→,right,→,0.6044127000495791,True,8,1,1,16
Y2-S2-208K19,4,313,AS,intra_train,42,↓,down,↓,0.6968116997741163,True,16,-,-,-
Y2-S2-208K19,4,314,AS,intra_train,35,↑,up,↑,0.8577677998691797,True,16,-,-,-
Y2-S2-208K19,4,315,AS,intra_train,34,←,no_key,no_letter,-1.0,False,16,-,-,-
Y2-S2-208K19,4,316,AS,intra_train,47,↓,down,↓,0.6797615000978112,True,16,-,-,-
Y2-S2-208K19,4,317,AS,intra_train,44,→,right,→,0.47191690001636744,True,16,-,-,-
Y2-S2-208K19,4,318,AS,exp,41,↑,down,↓,0.7918627001345158,False,11,-1,0,0
Y2-S2-208K19,4,319,AS,exp,42,←,left,←,0.5821043998003006,True,12,-1,0,0
Y2-S2-208K19,4,320,AS,exp,32,↑,right,→,0.8210486997850239,False,12,-1,0,0
Y2-S2-208K19,4,321,AS,exp,48,→,right,→,0.522348599974066,True,13,-1,0,0
Y2-S2-208K19,4,322,AS,exp,30,←,left,←,0.6437788000330329,True,13,-1,0,0
Y2-S2-208K19,4,323,AS,exp,32,↓,down,↓,0.47732779989019036,True,13,1,1,1
Y2-S2-208K19,4,324,AS,exp,42,↑,down,↓,0.8543850998394191,False,12,-1,1,2
Y2-S2-208K19,4,325,AS,exp,33,→,right,→,0.5182618000544608,True,13,-1,0,2
Y2-S2-208K19,4,326,AS,exp,27,←,left,←,0.5999261001124978,True,13,-1,0,2
Y2-S2-208K19,4,327,AS,exp,30,↓,down,↓,0.5013990998268127,True,13,1,1,3
Y2-S2-208K19,4,328,AS,exp,31,↑,right,→,0.47140080016106367,False,12,-1,1,4
Y2-S2-208K19,4,329,AS,exp,48,↓,down,↓,0.5438846996985376,True,13,-1,0,4
Y2-S2-208K19,4,330,AS,exp,49,↑,up,↑,1.084296700078994,True,13,-1,0,4
Y2-S2-208K19,4,331,AS,exp,32,→,left,←,0.5732319997623563,False,13,-1,0,4
Y2-S2-208K19,4,332,AS,exp,26,←,right,→,0.7308207000605762,False,14,-1,0,4
Y2-S2-208K19,4,333,AS,exp,33,↑,up,↑,0.6623502997681499,True,15,-1,0,4
Y2-S2-208K19,4,334,AS,exp,40,←,left,←,0.4434726000763476,True,15,-1,0,4
Y2-S2-208K19,4,335,AS,exp,40,↓,down,↓,0.6389552000910044,True,15,1,1,5
Y2-S2-208K19,4,336,AS,exp,31,→,right,→,0.4765344997867942,True,14,1,0,5
Y2-S2-208K19,4,337,AS,exp,41,↓,down,↓,0.6008925996720791,True,14,1,0,5
Y2-S2-208K19,4,338,AS,exp,43,→,left,←,0.9308233000338078,False,14,-1,1,6
Y2-S2-208K19,4,339,AS,exp,33,↓,down,↓,0.517403700388968,True,15,-1,0,6
Y2-S2-208K19,4,340,AS,exp,34,↑,up,↑,0.658718700055033,True,15,-1,0,6
Y2-S2-208K19,4,341,AS,exp,31,→,right,→,0.5085233002901077,True,15,1,1,7
Y2-S2-208K19,4,342,AS,exp,25,↓,down,↓,0.48203569976612926,True,14,1,0,7
Y2-S2-208K19,4,343,AS,exp,44,←,left,←,0.5764335999265313,True,14,1,0,7
Y2-S2-208K19,4,344,AS,exp,34,→,left,←,0.7229352002032101,False,14,-1,1,8
Y2-S2-208K19,4,345,AS,exp,30,↓,down,↓,0.4737312002107501,True,15,-1,0,8
Y2-S2-208K19,4,346,AS,exp,27,↑,up,↑,0.6090653999708593,True,15,-1,0,8
Y2-S2-208K19,4,347,AS,exp,35,←,left,←,0.5298035000450909,True,15,1,1,9
Y2-S2-208K19,4,348,AS,exp,28,→,right,→,0.47916069999337196,True,14,1,0,9
Y2-S2-208K19,4,349,AS,exp,32,←,right,→,0.7297351001761854,False,14,-1,1,10
Y2-S2-208K19,4,350,AS,exp,40,↑,up,↑,1.0087550999596715,True,15,-1,0,10
Y2-S2-208K19,4,351,AS,exp,39,↓,down,↓,0.45858419965952635,True,15,-1,0,10
Y2-S2-208K19,4,352,AS,exp,36,→,right,→,0.5561907002702355,True,15,1,1,11
Y2-S2-208K19,4,353,AS,exp,41,↑,up,↑,0.6829033000394702,True,14,1,0,11
Y2-S2-208K19,4,354,AS,exp,39,→,left,←,0.607362300157547,False,14,-1,1,12
Y2-S2-208K19,4,355,AS,exp,30,↓,down,↓,0.5005556000396609,True,15,-1,0,12
Y2-S2-208K19,4,356,AS,exp,46,↑,up,↑,0.5913486001081765,True,15,-1,0,12
Y2-S2-208K19,4,357,AS,exp,45,↓,down,↓,0.5471296003088355,True,15,1,1,13
Y2-S2-208K19,4,358,AS,exp,36,→,right,→,0.5804694001562893,True,14,1,0,13
Y2-S2-208K19,4,359,AS,exp,49,←,left,←,0.5094781997613609,True,14,1,0,13
Y2-S2-208K19,4,360,AS,exp,49,↓,down,↓,0.5741292000748217,True,14,1,0,13
Y2-S2-208K19,4,361,AS,exp,41,↑,up,↑,0.7089793002232909,True,13,1,0,13
Y2-S2-208K19,4,362,AS,exp,35,→,left,←,0.5253139999695122,False,13,-1,1,14
Y2-S2-208K19,4,363,AS,exp,35,↓,down,↓,0.44567769998684525,True,14,-1,0,14
Y2-S2-208K19,4,364,AS,exp,41,↑,up,↑,0.5646114000119269,True,14,-1,0,14
Y2-S2-208K19,4,365,AS,exp,27,↓,down,↓,0.5846405001357198,True,14,1,1,15
Y2-S2-208K19,4,366,AS,exp,42,↑,up,↑,0.7481645001098514,True,13,1,0,15
Y2-S2-208K19,4,367,AS,exp,50,↓,down,↓,0.532829700037837,True,13,1,0,15
Y2-S2-208K19,4,368,AS,exp,49,↑,up,↑,0.6583183999173343,True,13,1,0,15
Y2-S2-208K19,4,369,AS,exp,45,↓,down,↓,0.45803620014339685,True,12,1,0,15
Y2-S2-208K19,4,370,AS,exp,46,←,left,←,0.46929810009896755,True,12,1,0,15
Y2-S2-208K19,4,371,AS,exp,37,↑,up,↑,0.5563108995556831,True,12,1,0,15
Y2-S2-208K19,4,372,AS,exp,28,→,right,→,0.49862470012158155,True,11,1,0,15
Y2-S2-208K19,4,373,AS,exp,26,←,left,←,0.4515148997306824,True,11,1,0,15
Y2-S2-208K19,4,374,AS,exp,34,→,right,→,0.8390910001471639,True,11,1,0,15
Y2-S2-208K19,4,375,AS,exp,34,↓,up,↑,1.2607550001703203,False,10,-1,1,16
Y2-S2-208K19,5,376,AS,intra_train,26,→,left,←,0.8325265999883413,False,16,-,-,-
Y2-S2-208K19,5,377,AS,intra_train,37,↓,down,↓,0.6537509998306632,True,16,-,-,-
Y2-S2-208K19,5,378,AS,intra_train,42,↑,up,↑,0.9535260000266135,True,16,-,-,-
Y2-S2-208K19,5,379,AS,intra_train,32,→,right,→,0.575551999732852,True,16,-,-,-
Y2-S2-208K19,5,380,AS,intra_train,25,↑,up,↑,0.6007187999784946,True,16,-,-,-
Y2-S2-208K19,5,381,AS,exp,44,←,up,↑,0.680076100397855,False,11,-1,0,0
Y2-S2-208K19,5,382,AS,exp,49,↑,up,↑,0.8701077001169324,True,12,-1,0,0
Y2-S2-208K19,5,383,AS,exp,36,→,right,→,0.5163401002064347,True,12,-1,0,0
Y2-S2-208K19,5,384,AS,exp,31,←,right,→,0.6128165000118315,False,12,-1,0,0
Y2-S2-208K19,5,385,AS,exp,33,↑,down,↓,0.598919800017029,False,13,-1,0,0
Y2-S2-208K19,5,386,AS,exp,29,↓,up,↑,0.6933989999815822,False,14,-1,0,0
Y2-S2-208K19,5,387,AS,exp,41,↑,up,↑,0.911185999866575,True,15,-1,0,0
Y2-S2-208K19,5,388,AS,exp,34,↓,down,↓,0.6688722996041179,True,15,-1,0,0
Y2-S2-208K19,5,389,AS,exp,42,↑,up,↑,0.6425540000200272,True,15,1,1,1
Y2-S2-208K19,5,390,AS,exp,43,→,right,→,0.46382000017911196,True,14,1,0,1
Y2-S2-208K19,5,391,AS,exp,41,↓,down,↓,0.5212472998537123,True,14,1,0,1
Y2-S2-208K19,5,392,AS,exp,48,→,right,→,0.5123221999965608,True,14,1,0,1
Y2-S2-208K19,5,393,AS,exp,36,←,left,←,1.3598348000086844,True,13,1,0,1
Y2-S2-208K19,5,394,AS,exp,44,↑,up,↑,0.8029676000587642,True,13,1,0,1
Y2-S2-208K19,5,395,AS,exp,30,↓,down,↓,0.5949058998376131,True,13,1,0,1
Y2-S2-208K19,5,396,AS,exp,46,↑,up,↑,0.8841176996938884,True,12,1,0,1
Y2-S2-208K19,5,397,AS,exp,45,→,right,→,0.611290100030601,True,12,1,0,1
Y2-S2-208K19,5,398,AS,exp,31,↓,down,↓,0.6531958999112248,True,12,1,0,1
Y2-S2-208K19,5,399,AS,exp,46,←,left,←,0.6794742997735739,True,11,1,0,1
Y2-S2-208K19,5,400,AS,exp,25,↓,down,↓,0.634336699731648,True,11,1,0,1
Y2-S2-208K19,5,401,AS,exp,48,←,left,←,0.5615648003295064,True,11,1,0,1
Y2-S2-208K19,5,402,AS,exp,43,↓,down,↓,0.5642792996950448,True,10,1,0,1
Y2-S2-208K19,5,403,AS,exp,39,→,left,←,0.9054284002631903,False,10,-1,1,2
Y2-S2-208K19,5,404,AS,exp,39,↑,left,←,0.8484281999990344,False,11,-1,0,2
Y2-S2-208K19,5,405,AS,exp,25,↓,down,↓,0.6261514001525939,True,12,-1,0,2
Y2-S2-208K19,5,406,AS,exp,46,↑,up,↑,0.7833376997150481,True,12,-1,0,2
Y2-S2-208K19,5,407,AS,exp,27,→,right,→,0.6127188000828028,True,12,1,1,3
Y2-S2-208K19,5,408,AS,exp,27,↓,up,↑,0.7192911999300122,False,11,-1,1,4
Y2-S2-208K19,5,409,AS,exp,36,→,up,↑,0.6941069001331925,False,12,-1,0,4
Y2-S2-208K19,5,410,AS,exp,32,↓,down,↓,0.5343708996661007,True,13,-1,0,4
Y2-S2-208K19,5,411,AS,exp,50,↑,up,↑,0.4932435001246631,True,13,-1,0,4
Y2-S2-208K19,5,412,AS,exp,49,←,left,←,0.4843477001413703,True,13,1,1,5
Y2-S2-208K19,5,413,AS,exp,33,↑,up,↑,0.5739866001531482,True,12,1,0,5
Y2-S2-208K19,5,414,AS,exp,27,←,left,←,0.6368265999481082,True,12,1,0,5
Y2-S2-208K19,5,415,AS,exp,34,→,left,←,0.5726926000788808,False,12,-1,1,6
Y2-S2-208K19,5,416,AS,exp,43,↑,up,↑,0.7839225996285677,True,13,-1,0,6
Y2-S2-208K19,5,417,AS,exp,29,←,right,→,0.820299900136888,False,13,-1,0,6
Y2-S2-208K19,5,418,AS,exp,39,→,right,→,0.6573050003498793,True,14,-1,0,6
Y2-S2-208K19,5,419,AS,exp,47,↓,down,↓,0.5233559999614954,True,14,-1,0,6
Y2-S2-208K19,5,420,AS,exp,36,↑,up,↑,0.6591076999902725,True,14,1,1,7
Y2-S2-208K19,5,421,AS,exp,30,←,left,←,0.46583739994093776,True,13,1,0,7
Y2-S2-208K19,5,422,AS,exp,39,→,right,→,0.6638915003277361,True,13,1,0,7
Y2-S2-208K19,5,423,AS,exp,38,↑,up,↑,0.49774419981986284,True,13,1,0,7
Y2-S2-208K19,5,424,AS,exp,27,→,left,←,0.699563100002706,False,12,-1,1,8
Y2-S2-208K19,5,425,AS,exp,45,←,right,→,0.7220886000432074,False,13,-1,0,8
Y2-S2-208K19,5,426,AS,exp,36,↑,up,↑,0.5520423999987543,True,14,-1,0,8
Y2-S2-208K19,5,427,AS,exp,29,←,left,←,0.5168787003494799,True,14,-1,0,8
Y2-S2-208K19,5,428,AS,exp,39,→,right,→,0.5084401997737586,True,14,1,1,9
Y2-S2-208K19,5,429,AS,exp,47,←,left,←,0.569853600114584,True,13,1,0,9
Y2-S2-208K19,5,430,AS,exp,38,→,right,→,0.6522146998904645,True,13,1,0,9
Y2-S2-208K19,5,431,AS,exp,28,←,left,←,0.5597879001870751,True,13,1,0,9
Y2-S2-208K19,5,432,AS,exp,26,↑,up,↑,0.5055463002063334,True,12,1,0,9
Y2-S2-208K19,5,433,AS,exp,36,→,right,→,0.4550410998053849,True,12,1,0,9
Y2-S2-208K19,5,434,AS,exp,38,↑,up,↑,0.6699182000011206,True,12,1,0,9
Y2-S2-208K19,5,435,AS,exp,39,↓,down,↓,0.6068731998093426,True,11,1,0,9
Y2-S2-208K19,5,436,AS,exp,42,↑,up,↑,0.6915470999665558,True,11,1,0,9
Y2-S2-208K19,5,437,AS,exp,45,←,left,←,0.6113406997174025,True,11,1,0,9
Y2-S2-208K19,5,438,AS,exp,43,↑,up,↑,0.6731174001470208,True,10,1,0,9
Y2-S2-208K19,5,439,AS,exp,40,→,right,→,0.4907542001456022,True,10,1,0,9
Y2-S2-208K19,5,440,AS,exp,25,↓,left,←,0.6977367997169495,False,10,-1,1,10
Y2-S2-208K19,5,441,AS,exp,37,→,right,→,0.440009499900043,True,11,-1,0,10
Y2-S2-208K19,5,442,AS,exp,30,←,left,←,0.4685522001236677,True,11,-1,0,10
Y2-S2-208K19,5,443,AS,exp,42,↑,down,↓,0.603426399640739,False,11,-1,0,10
Y2-S2-208K19,5,444,AS,exp,48,↓,down,↓,0.4314782000146806,True,12,-1,0,10
Y2-S2-208K19,5,445,AS,exp,32,←,left,←,0.6524176001548767,True,12,-1,0,10
Y2-S2-208K19,5,446,AS,exp,43,↑,left,←,0.599384100176394,False,12,-1,0,10
Y2-S2-208K19,5,447,AS,exp,45,→,no_key,no_letter,-1.0,False,13,-1,0,10
Y2-S2-208K19,5,448,AS,exp,41,↓,up,↑,0.9156483998522162,False,14,-1,0,10
Y2-S2-208K19,5,449,AS,exp,38,←,left,←,0.5581163996830583,True,15,-1,0,10
Y2-S2-208K19,5,450,AS,exp,48,↑,up,↑,0.6015176996588707,True,15,-1,0,10
Y2-S2-208K19,5,451,AS,exp,45,→,right,→,0.6354805999435484,True,15,1,1,11
Y2-S2-208K19,5,452,AS,exp,28,↑,up,↑,0.7028392003849149,True,14,1,0,11
Y2-S2-208K19,5,453,AS,exp,45,→,right,→,0.48359719989821315,True,14,1,0,11
Y2-S2-208K19,5,454,AS,exp,36,←,left,←,0.6704465998336673,True,14,1,0,11
Y2-S2-208K19,5,455,AS,exp,44,↑,up,↑,0.6036563999950886,True,13,1,0,11
Y2-S2-208K19,5,456,AS,exp,39,←,right,→,0.5776967997662723,False,13,-1,1,12
Y2-S2-208K19,5,457,AS,exp,46,↓,down,↓,0.5984615003690124,True,14,-1,0,12
Y2-S2-208K19,5,458,AS,exp,44,←,left,←,0.5891163996420801,True,14,-1,0,12
Y2-S2-208K19,5,459,AS,exp,28,↑,up,↑,0.6124164001084864,True,14,1,1,13
Y2-S2-208K19,5,460,AS,exp,42,↓,down,↓,0.5712207998149097,True,13,1,0,13
Y2-S2-208K19,5,461,AS,exp,36,←,left,←,0.4617066001519561,True,13,1,0,13
Y2-S2-208K19,5,462,AS,exp,36,↑,up,↑,0.5081643997691572,True,13,1,0,13
Y2-S2-208K19,5,463,AS,exp,48,↓,down,↓,0.6288054003380239,True,12,1,0,13
Y2-S2-208K19,5,464,AS,exp,29,←,left,←,0.54041269980371,True,12,1,0,13
Y2-S2-208K19,5,465,AS,exp,27,↓,right,→,1.5651083001866937,False,12,-1,1,14
Y2-S2-208K19,5,466,AS,exp,28,↑,up,↑,0.6441270997747779,True,13,-1,0,14
Y2-S2-208K19,5,467,AS,exp,48,↓,down,↓,0.5004514004103839,True,13,-1,0,14
Y2-S2-208K19,5,468,AS,exp,42,←,left,←,0.6000904999673367,True,13,1,1,15
Y2-S2-208K19,5,469,AS,exp,28,↑,up,↑,0.733003499917686,True,12,1,0,15
Y2-S2-208K19,5,470,AS,exp,43,↓,down,↓,0.5611175000667572,True,12,1,0,15
Y2-S2-208K19,5,471,AS,exp,45,←,right,→,0.7439915998838842,False,12,-1,1,16
Y2-S2-208K19,6,472,PS,intra_train,27,↑,up,↑,0.6945450999774039,True,13,-,-,-
Y2-S2-208K19,6,473,PS,intra_train,45,←,left,←,0.5284004001878202,True,13,-,-,-
Y2-S2-208K19,6,474,PS,intra_train,39,→,right,→,0.5213089999742806,True,13,-,-,-
Y2-S2-208K19,6,475,PS,intra_train,38,←,left,←,0.4418692998588085,True,13,-,-,-
Y2-S2-208K19,6,476,PS,intra_train,37,→,right,→,0.539642000105232,True,13,-,-,-
Y2-S2-208K19,6,477,PS,exp,41,↑,right,→,0.8427017000503838,False,9,-1,0,0
Y2-S2-208K19,6,478,PS,exp,36,←,right,→,0.8719518003053963,False,10,-1,0,0
Y2-S2-208K19,6,479,PS,exp,41,↑,up,↑,0.5633760001510382,True,11,-1,0,0
Y2-S2-208K19,6,480,PS,exp,45,→,right,→,0.5823439001105726,True,11,-1,0,0
Y2-S2-208K19,6,481,PS,exp,49,↓,down,↓,0.5970184002071619,True,11,1,1,1
Y2-S2-208K19,6,482,PS,exp,39,↑,up,↑,0.6226487001404166,True,10,1,0,1
Y2-S2-208K19,6,483,PS,exp,26,→,right,→,0.6185459000989795,True,10,1,0,1
Y2-S2-208K19,6,484,PS,exp,48,←,left,←,0.47301970003172755,True,10,1,0,1
Y2-S2-208K19,6,485,PS,exp,49,↓,down,↓,0.6622037999331951,True,9,1,0,1
Y2-S2-208K19,6,486,PS,exp,35,→,right,→,0.6764952000230551,True,9,1,0,1
Y2-S2-208K19,6,487,PS,exp,37,←,left,←,0.5615094997920096,True,9,1,0,1
Y2-S2-208K19,6,488,PS,exp,38,↑,up,↑,0.44550410006195307,True,8,1,0,1
Y2-S2-208K19,6,489,PS,exp,33,→,right,→,0.6330699999816716,True,8,1,0,1
Y2-S2-208K19,6,490,PS,exp,37,↑,up,↑,0.5238783000968397,True,8,1,0,1
Y2-S2-208K19,6,491,PS,exp,27,→,right,→,0.7329815002158284,True,7,1,0,1
Y2-S2-208K19,6,492,PS,exp,34,↓,right,→,0.6477041002362967,False,7,-1,1,2
Y2-S2-208K19,6,493,PS,exp,46,←,right,→,0.5474962000735104,False,8,-1,0,2
Y2-S2-208K19,6,494,PS,exp,31,→,right,→,0.5542818997055292,True,9,-1,0,2
Y2-S2-208K19,6,495,PS,exp,48,←,up,↑,0.7871399000287056,False,9,-1,0,2
Y2-S2-208K19,6,496,PS,exp,48,→,right,→,0.5174755998887122,True,10,-1,0,2
Y2-S2-208K19,6,497,PS,exp,45,↓,left,←,0.6451173000968993,False,10,-1,0,2
Y2-S2-208K19,6,498,PS,exp,29,→,right,→,0.6408627000637352,True,11,-1,0,2
Y2-S2-208K19,6,499,PS,exp,30,↑,up,↑,0.5088530001230538,True,11,-1,0,2
Y2-S2-208K19,6,500,PS,exp,33,←,left,←,0.4840669999830425,True,11,1,1,3
Y2-S2-208K19,6,501,PS,exp,37,↑,up,↑,0.6106357001699507,True,10,1,0,3
Y2-S2-208K19,6,502,PS,exp,28,←,left,←,0.49519809987396,True,10,1,0,3
Y2-S2-208K19,6,503,PS,exp,38,↓,down,↓,1.4737170999869704,True,10,1,0,3
Y2-S2-208K19,6,504,PS,exp,37,↑,left,←,0.7043118001893163,False,9,-1,1,4
Y2-S2-208K19,6,505,PS,exp,37,↓,down,↓,0.6344608999788761,True,10,-1,0,4
Y2-S2-208K19,6,506,PS,exp,44,↑,up,↑,0.6011095000430942,True,10,-1,0,4
Y2-S2-208K19,6,507,PS,exp,48,↓,up,↑,1.266922099981457,False,10,-1,0,4
Y2-S2-208K19,6,508,PS,exp,32,→,right,→,0.4501167996786535,True,11,-1,0,4
Y2-S2-208K19,6,509,PS,exp,47,←,left,←,0.41156639996916056,True,11,-1,0,4
Y2-S2-208K19,6,510,PS,exp,34,↑,left,←,0.7452871999703348,False,11,-1,0,4
Y2-S2-208K19,6,511,PS,exp,47,→,right,→,0.5072151999920607,True,12,-1,0,4
Y2-S2-208K19,6,512,PS,exp,30,←,left,←,0.726611899677664,True,12,-1,0,4
Y2-S2-208K19,6,513,PS,exp,35,↑,up,↑,0.5242767999880016,True,12,1,1,5
Y2-S2-208K19,6,514,PS,exp,38,↓,down,↓,0.6025148001499474,True,11,1,0,5
Y2-S2-208K19,6,515,PS,exp,48,←,left,←,0.5047794999554753,True,11,1,0,5
Y2-S2-208K19,6,516,PS,exp,39,↑,up,↑,0.5157018997706473,True,11,1,0,5
Y2-S2-208K19,6,517,PS,exp,41,↓,down,↓,0.6836196999065578,True,10,1,0,5
Y2-S2-208K19,6,518,PS,exp,47,→,right,→,0.44370369985699654,True,10,1,0,5
Y2-S2-208K19,6,519,PS,exp,26,←,right,→,0.8826833995990455,False,10,-1,1,6
Y2-S2-208K19,6,520,PS,exp,45,→,right,→,0.498033800162375,True,11,-1,0,6
Y2-S2-208K19,6,521,PS,exp,26,↑,right,→,0.6838957001455128,False,11,-1,0,6
Y2-S2-208K19,6,522,PS,exp,30,↓,down,↓,0.5580675001256168,True,12,-1,0,6
Y2-S2-208K19,6,523,PS,exp,28,←,left,←,0.4479453996755183,True,12,-1,0,6
Y2-S2-208K19,6,524,PS,exp,40,↓,left,←,0.5616524000652134,False,12,-1,0,6
Y2-S2-208K19,6,525,PS,exp,36,→,right,→,0.499471599701792,True,13,-1,0,6
Y2-S2-208K19,6,526,PS,exp,25,↑,up,↑,0.5549861001782119,True,13,-1,0,6
Y2-S2-208K19,6,527,PS,exp,40,→,right,→,0.5270664999261498,True,13,1,1,7
Y2-S2-208K19,6,528,PS,exp,41,↑,up,↑,0.5557327000424266,True,12,1,0,7
Y2-S2-208K19,6,529,PS,exp,25,←,left,←,0.5711934003047645,True,12,1,0,7
Y2-S2-208K19,6,530,PS,exp,49,↓,down,↓,0.5058266003616154,True,12,1,0,7
Y2-S2-208K19,6,531,PS,exp,25,→,right,→,0.585049600340426,True,11,1,0,7
Y2-S2-208K19,6,532,PS,exp,33,↑,up,↑,0.6491267001256347,True,11,1,0,7
Y2-S2-208K19,6,533,PS,exp,31,→,right,→,0.4679607003927231,True,11,1,0,7
Y2-S2-208K19,6,534,PS,exp,27,←,left,←,0.48690499970689416,True,10,1,0,7
Y2-S2-208K19,6,535,PS,exp,50,→,right,→,0.4912331998348236,True,10,1,0,7
Y2-S2-208K19,6,536,PS,exp,29,↓,down,↓,0.5289576998911798,True,10,1,0,7
Y2-S2-208K19,6,537,PS,exp,46,↑,up,↑,0.6801431002095342,True,9,1,0,7
Y2-S2-208K19,6,538,PS,exp,26,↓,left,←,0.572235300205648,False,9,-1,1,8
Y2-S2-208K19,6,539,PS,exp,47,→,right,→,0.45826630014926195,True,10,-1,0,8
Y2-S2-208K19,6,540,PS,exp,36,↑,up,↑,1.6771730002947152,True,10,-1,0,8
Y2-S2-208K19,6,541,PS,exp,38,↓,right,→,0.5623078001663089,False,10,-1,0,8
Y2-S2-208K19,6,542,PS,exp,36,→,right,→,0.6891184998676181,True,11,-1,0,8
Y2-S2-208K19,6,543,PS,exp,41,↑,up,↑,0.5304016997106373,True,11,-1,0,8
Y2-S2-208K19,6,544,PS,exp,38,↓,down,↓,0.6480635004118085,True,11,1,1,9
Y2-S2-208K19,6,545,PS,exp,30,↑,up,↑,0.49036370031535625,True,10,1,0,9
Y2-S2-208K19,6,546,PS,exp,27,→,right,→,0.5103033999912441,True,10,1,0,9
Y2-S2-208K19,6,547,PS,exp,36,↓,down,↓,0.6175857996568084,True,10,1,0,9
Y2-S2-208K19,6,548,PS,exp,37,→,right,→,0.53776799980551,True,9,1,0,9
Y2-S2-208K19,6,549,PS,exp,32,←,left,←,0.4140441999770701,True,9,1,0,9
Y2-S2-208K19,6,550,PS,exp,39,→,right,→,0.5243641999550164,True,9,1,0,9
Y2-S2-208K19,6,551,PS,exp,25,↑,right,→,0.615432399790734,False,8,-1,1,10
Y2-S2-208K19,6,552,PS,exp,26,↓,down,↓,0.5893341996707022,True,9,-1,0,10
Y2-S2-208K19,6,553,PS,exp,49,←,right,→,0.7125528999604285,False,9,-1,0,10
Y2-S2-208K19,6,554,PS,exp,47,↑,down,↓,1.6529696001671255,False,10,-1,0,10
Y2-S2-208K19,6,555,PS,exp,44,→,right,→,0.5304827997460961,True,11,-1,0,10
Y2-S2-208K19,6,556,PS,exp,49,↓,down,↓,0.6133781000971794,True,11,-1,0,10
Y2-S2-208K19,6,557,PS,exp,36,←,left,←,0.558853100053966,True,11,1,1,11
Y2-S2-208K19,6,558,PS,exp,38,↓,right,→,0.5872702999040484,False,10,-1,1,12
Y2-S2-208K19,6,559,PS,exp,42,←,left,←,0.42970049986615777,True,11,-1,0,12
Y2-S2-208K19,6,560,PS,exp,40,→,right,→,0.5061297002248466,True,11,-1,0,12
Y2-S2-208K19,6,561,PS,exp,45,↑,up,↑,0.48151819966733456,True,11,1,1,13
Y2-S2-208K19,6,562,PS,exp,38,→,right,→,0.6400840999558568,True,10,1,0,13
Y2-S2-208K19,6,563,PS,exp,40,↓,down,↓,0.7027183999307454,True,10,1,0,13
Y2-S2-208K19,6,564,PS,exp,31,→,right,→,0.5296287001110613,True,10,1,0,13
Y2-S2-208K19,6,565,PS,exp,47,←,left,←,0.7431780998595059,True,9,1,0,13
Y2-S2-208K19,6,566,PS,exp,40,↓,up,↑,0.5974381002597511,False,9,-1,1,14
Y2-S2-208K19,6,567,PS,exp,48,↑,up,↑,0.5065220999531448,True,10,-1,0,14
Y2-S2-208K19,6,568,PS,exp,35,↓,right,→,0.524707100354135,False,10,-1,0,14
Y2-S2-208K19,6,569,PS,exp,44,↑,up,↑,0.5571025004610419,True,11,-1,0,14
Y2-S2-208K19,6,570,PS,exp,25,→,right,→,0.5075424001552165,True,11,-1,0,14
Y2-S2-208K19,6,571,PS,exp,49,←,left,←,0.5194177003577352,True,11,1,1,15
Y2-S2-208K19,6,572,PS,exp,37,↑,right,→,0.6020341999828815,False,10,-1,1,16
Y2-S2-208K19,7,573,PS,intra_train,35,→,right,→,0.5744380997493863,True,13,-,-,-
Y2-S2-208K19,7,574,PS,intra_train,45,↓,down,↓,0.6245781001634896,True,13,-,-,-
Y2-S2-208K19,7,575,PS,intra_train,43,↑,up,↑,0.7446367000229657,True,13,-,-,-
Y2-S2-208K19,7,576,PS,intra_train,50,↓,down,↓,0.6010573003441095,True,13,-,-,-
Y2-S2-208K19,7,577,PS,intra_train,28,→,left,←,0.5930649996735156,False,13,-,-,-
Y2-S2-208K19,7,578,PS,exp,41,↓,down,↓,0.4936273000203073,True,9,0,0,0
Y2-S2-208K19,7,579,PS,exp,25,←,right,→,0.7441822998225689,False,9,-1,0,0
Y2-S2-208K19,7,580,PS,exp,44,↓,right,→,0.5521917999722064,False,10,-1,0,0
Y2-S2-208K19,7,581,PS,exp,46,↑,up,↑,0.6435794997960329,True,11,-1,0,0
Y2-S2-208K19,7,582,PS,exp,46,←,left,←,0.4193326998502016,True,11,-1,0,0
Y2-S2-208K19,7,583,PS,exp,39,→,right,→,0.5093417996540666,True,11,1,1,1
Y2-S2-208K19,7,584,PS,exp,50,↑,up,↑,0.6635753996670246,True,10,1,0,1
Y2-S2-208K19,7,585,PS,exp,29,→,right,→,0.49512700038030744,True,10,1,0,1
Y2-S2-208K19,7,586,PS,exp,32,←,left,←,0.45277970004826784,True,10,1,0,1
Y2-S2-208K19,7,587,PS,exp,37,↑,up,↑,0.5364180002361536,True,9,1,0,1
Y2-S2-208K19,7,588,PS,exp,40,→,right,→,0.4782206998206675,True,9,1,0,1
Y2-S2-208K19,7,589,PS,exp,25,↓,down,↓,0.5431653000414371,True,9,1,0,1
Y2-S2-208K19,7,590,PS,exp,35,→,left,←,0.5437295003794134,False,8,-1,1,2
Y2-S2-208K19,7,591,PS,exp,31,↓,down,↓,0.42222899990156293,True,9,-1,0,2
Y2-S2-208K19,7,592,PS,exp,26,←,left,←,0.5028504002839327,True,9,-1,0,2
Y2-S2-208K19,7,593,PS,exp,39,→,right,→,0.474815699737519,True,9,1,1,3
Y2-S2-208K19,7,594,PS,exp,33,←,left,←,0.4244176996871829,True,8,1,0,3
Y2-S2-208K19,7,595,PS,exp,42,→,right,→,0.5559907001443207,True,8,1,0,3
Y2-S2-208K19,7,596,PS,exp,37,↓,down,↓,0.5742195998318493,True,8,1,0,3
Y2-S2-208K19,7,597,PS,exp,29,↑,up,↑,0.6300971996970475,True,7,1,0,3
Y2-S2-208K19,7,598,PS,exp,43,↓,left,←,0.5531319999136031,False,7,-1,1,4
Y2-S2-208K19,7,599,PS,exp,29,←,left,←,0.5812351000495255,True,8,-1,0,4
Y2-S2-208K19,7,600,PS,exp,34,↑,up,↑,0.5855244998820126,True,8,-1,0,4
Y2-S2-208K19,7,601,PS,exp,44,→,right,→,0.49361780006438494,True,8,1,1,5
Y2-S2-208K19,7,602,PS,exp,49,↓,down,↓,0.4491260997019708,True,7,1,0,5
Y2-S2-208K19,7,603,PS,exp,32,↑,left,←,0.5616747001186013,False,7,-1,1,6
Y2-S2-208K19,7,604,PS,exp,48,→,right,→,0.5354951000772417,True,8,-1,0,6
Y2-S2-208K19,7,605,PS,exp,46,↓,right,→,0.46647310024127364,False,8,-1,0,6
Y2-S2-208K19,7,606,PS,exp,34,↑,up,↑,0.5378505000844598,True,9,-1,0,6
Y2-S2-208K19,7,607,PS,exp,48,←,left,←,0.4889249000698328,True,9,-1,0,6
Y2-S2-208K19,7,608,PS,exp,34,↓,down,↓,0.422902500256896,True,9,1,1,7
Y2-S2-208K19,7,609,PS,exp,45,↑,up,↑,0.6107971998862922,True,8,1,0,7
Y2-S2-208K19,7,610,PS,exp,40,↓,down,↓,0.5657868999987841,True,8,1,0,7
Y2-S2-208K19,7,611,PS,exp,33,←,left,←,0.6076118000783026,True,8,1,0,7
Y2-S2-208K19,7,612,PS,exp,48,→,right,→,0.45784129993990064,True,7,1,0,7
Y2-S2-208K19,7,613,PS,exp,44,↑,right,→,0.5434365998953581,False,7,-1,1,8
Y2-S2-208K19,7,614,PS,exp,46,↓,down,↓,0.3840104001574218,True,8,-1,0,8
Y2-S2-208K19,7,615,PS,exp,47,→,right,→,0.5325682000257075,True,8,-1,0,8
Y2-S2-208K19,7,616,PS,exp,41,↓,down,↓,0.538089900277555,True,8,1,1,9
Y2-S2-208K19,7,617,PS,exp,30,→,right,→,0.7551237000152469,True,7,1,0,9
Y2-S2-208K19,7,618,PS,exp,37,←,left,←,0.40686629991978407,True,7,1,0,9
Y2-S2-208K19,7,619,PS,exp,26,↑,left,←,0.4064602996222675,False,7,-1,1,10
Y2-S2-208K19,7,620,PS,exp,37,←,left,←,0.49247359996661544,True,8,-1,0,10
Y2-S2-208K19,7,621,PS,exp,25,↑,right,→,0.49765720032155514,False,8,-1,0,10
Y2-S2-208K19,7,622,PS,exp,38,→,right,→,1.135994500014931,True,9,-1,0,10
Y2-S2-208K19,7,623,PS,exp,25,←,left,←,0.41906809993088245,True,9,-1,0,10
Y2-S2-208K19,7,624,PS,exp,26,↓,down,↓,0.4663675995543599,True,9,1,1,11
Y2-S2-208K19,7,625,PS,exp,36,↑,up,↑,0.6672471002675593,True,8,1,0,11
Y2-S2-208K19,7,626,PS,exp,25,↓,down,↓,0.48570420034229755,True,8,1,0,11
Y2-S2-208K19,7,627,PS,exp,25,←,right,→,0.5511201997287571,False,8,-1,1,12
Y2-S2-208K19,7,628,PS,exp,47,↓,down,↓,0.4406740004196763,True,9,-1,0,12
Y2-S2-208K19,7,629,PS,exp,44,→,right,→,0.5844258000142872,True,9,-1,0,12
Y2-S2-208K19,7,630,PS,exp,42,↑,up,↑,0.7016495000571012,True,9,1,1,13
Y2-S2-208K19,7,631,PS,exp,33,→,right,→,0.48929679999127984,True,8,1,0,13
Y2-S2-208K19,7,632,PS,exp,47,↓,left,←,0.6103908997029066,False,8,-1,1,14
Y2-S2-208K19,7,633,PS,exp,29,↑,up,↑,0.6755678001791239,True,9,-1,0,14
Y2-S2-208K19,7,634,PS,exp,49,←,right,→,0.5143206999637187,False,9,-1,0,14
Y2-S2-208K19,7,635,PS,exp,39,↓,down,↓,0.6376821999438107,True,10,-1,0,14
Y2-S2-208K19,7,636,PS,exp,33,←,left,←,0.5080275000073016,True,10,-1,0,14
Y2-S2-208K19,7,637,PS,exp,48,→,right,→,0.48624549992382526,True,10,1,1,15
Y2-S2-208K19,7,638,PS,exp,28,↓,right,→,1.601802199613303,False,9,-1,1,16
Y2-S2-208K19,8,639,AS,intra_train,33,↑,up,↑,0.7476534997113049,True,16,-,-,-
Y2-S2-208K19,8,640,AS,intra_train,46,←,left,←,0.45507160015404224,True,16,-,-,-
Y2-S2-208K19,8,641,AS,intra_train,32,↓,down,↓,0.5545244999229908,True,16,-,-,-
Y2-S2-208K19,8,642,AS,intra_train,49,↑,up,↑,0.7409520000219345,True,16,-,-,-
Y2-S2-208K19,8,643,AS,intra_train,34,↓,down,↓,0.5982436998747289,True,16,-,-,-
Y2-S2-208K19,8,644,AS,exp,26,↑,up,↑,0.7681550998240709,True,11,0,0,0
Y2-S2-208K19,8,645,AS,exp,38,→,left,←,0.6987256002612412,False,11,-1,0,0
Y2-S2-208K19,8,646,AS,exp,37,↓,down,↓,0.6082831998355687,True,12,-1,0,0
Y2-S2-208K19,8,647,AS,exp,35,↑,up,↑,0.720605299808085,True,12,-1,0,0
Y2-S2-208K19,8,648,AS,exp,47,←,right,→,0.6763861998915672,False,12,-1,0,0
Y2-S2-208K19,8,649,AS,exp,49,↓,down,↓,0.897605000063777,True,13,-1,0,0
Y2-S2-208K19,8,650,AS,exp,30,←,left,←,0.5303762997500598,True,13,-1,0,0
Y2-S2-208K19,8,651,AS,exp,48,↓,down,↓,0.44822479970753193,True,13,1,1,1
Y2-S2-208K19,8,652,AS,exp,42,←,left,←,0.46500639989972115,True,12,1,0,1
Y2-S2-208K19,8,653,AS,exp,32,↓,right,→,0.6002768999896944,False,12,-1,1,2
Y2-S2-208K19,8,654,AS,exp,40,←,left,←,0.4126255000010133,True,13,-1,0,2
Y2-S2-208K19,8,655,AS,exp,32,↑,up,↑,0.5859264000318944,True,13,-1,0,2
Y2-S2-208K19,8,656,AS,exp,49,←,left,←,0.4389635003171861,True,13,1,1,3
Y2-S2-208K19,8,657,AS,exp,28,→,right,→,0.5029679997824132,True,12,1,0,3
Y2-S2-208K19,8,658,AS,exp,42,↑,down,↓,0.6116912998259068,False,12,-1,1,4
Y2-S2-208K19,8,659,AS,exp,38,→,right,→,0.5802329001016915,True,13,-1,0,4
Y2-S2-208K19,8,660,AS,exp,29,↑,up,↑,0.6730554001405835,True,13,-1,0,4
Y2-S2-208K19,8,661,AS,exp,43,←,left,←,0.5408322000876069,True,13,1,1,5
Y2-S2-208K19,8,662,AS,exp,33,↓,down,↓,0.48103530006483197,True,12,1,0,5
Y2-S2-208K19,8,663,AS,exp,34,←,left,←,0.6581073999404907,True,12,1,0,5
Y2-S2-208K19,8,664,AS,exp,50,→,right,→,0.6299663004465401,True,12,1,0,5
Y2-S2-208K19,8,665,AS,exp,40,↓,left,←,0.5510036000050604,False,11,-1,1,6
Y2-S2-208K19,8,666,AS,exp,29,←,left,←,0.4014926999807358,True,12,-1,0,6
Y2-S2-208K19,8,667,AS,exp,48,→,right,→,0.46980119962245226,True,12,-1,0,6
Y2-S2-208K19,8,668,AS,exp,25,↑,up,↑,0.9006265001371503,True,12,1,1,7
Y2-S2-208K19,8,669,AS,exp,44,←,left,←,0.4332274002954364,True,11,1,0,7
Y2-S2-208K19,8,670,AS,exp,32,↓,left,←,0.5995837999507785,False,11,-1,1,8
Y2-S2-208K19,8,671,AS,exp,49,→,right,→,0.5593671002425253,True,12,-1,0,8
Y2-S2-208K19,8,672,AS,exp,29,↓,down,↓,0.6265544001944363,True,12,-1,0,8
Y2-S2-208K19,8,673,AS,exp,46,←,left,←,0.5682672997936606,True,12,1,1,9
Y2-S2-208K19,8,674,AS,exp,38,↑,up,↑,0.5969911003485322,True,11,1,0,9
Y2-S2-208K19,8,675,AS,exp,47,→,right,→,0.713950099889189,True,11,1,0,9
Y2-S2-208K19,8,676,AS,exp,45,↑,up,↑,0.7766994000412524,True,11,1,0,9
Y2-S2-208K19,8,677,AS,exp,28,←,right,→,0.597976699937135,False,10,-1,1,10
Y2-S2-208K19,8,678,AS,exp,35,↓,down,↓,0.4793384997174144,True,11,-1,0,10
Y2-S2-208K19,8,679,AS,exp,43,→,right,→,0.6233749003149569,True,11,-1,0,10
Y2-S2-208K19,8,680,AS,exp,45,↓,right,→,0.4151926999911666,False,11,-1,0,10
Y2-S2-208K19,8,681,AS,exp,43,↑,up,↑,0.5848938003182411,True,12,-1,0,10
Y2-S2-208K19,8,682,AS,exp,31,→,right,→,0.5975859998725355,True,12,-1,0,10
Y2-S2-208K19,8,683,AS,exp,27,←,right,→,0.6239231000654399,False,12,-1,0,10
Y2-S2-208K19,8,684,AS,exp,34,↓,down,↓,0.5665859999135137,True,13,-1,0,10
Y2-S2-208K19,8,685,AS,exp,47,→,down,↓,0.3340167999267578,False,13,-1,0,10
Y2-S2-208K19,8,686,AS,exp,33,↑,up,↑,0.7177184000611305,True,14,-1,0,10
Y2-S2-208K19,8,687,AS,exp,50,←,left,←,0.5515336003154516,True,14,-1,0,10
Y2-S2-208K19,8,688,AS,exp,28,↑,up,↑,0.6008767001330853,True,14,1,1,11
Y2-S2-208K19,8,689,AS,exp,41,↓,up,↑,1.2157062999904156,False,13,-1,1,12
Y2-S2-208K19,8,690,AS,exp,43,←,up,↑,0.5995600996538997,False,14,-1,0,12
Y2-S2-208K19,8,691,AS,exp,25,↑,up,↑,0.5742780999280512,True,15,-1,0,12
Y2-S2-208K19,8,692,AS,exp,41,→,right,→,0.5317743001505733,True,15,-1,0,12
Y2-S2-208K19,8,693,AS,exp,42,↑,up,↑,0.6678675999864936,True,15,1,1,13
Y2-S2-208K19,8,694,AS,exp,36,↓,down,↓,0.576439700089395,True,14,1,0,13
Y2-S2-208K19,8,695,AS,exp,31,←,left,←,0.4567444999702275,True,14,1,0,13
Y2-S2-208K19,8,696,AS,exp,32,→,right,→,0.49692129995673895,True,14,1,0,13
Y2-S2-208K19,8,697,AS,exp,31,↓,left,←,0.6740855998359621,False,13,-1,1,14
Y2-S2-208K19,8,698,AS,exp,47,→,up,↑,0.7804516996257007,False,14,-1,0,14
Y2-S2-208K19,8,699,AS,exp,34,←,right,→,0.4832050004042685,False,15,-1,0,14
Y2-S2-208K19,8,700,AS,exp,25,↓,right,→,0.48451799992471933,False,16,-1,0,14
Y2-S2-208K19,8,701,AS,exp,31,→,right,→,0.5414171000011265,True,17,-1,0,14
Y2-S2-208K19,8,702,AS,exp,38,↑,up,↑,0.7686991998925805,True,17,-1,0,14
Y2-S2-208K19,8,703,AS,exp,35,↓,down,↓,0.5553466998971999,True,17,1,1,15
Y2-S2-208K19,8,704,AS,exp,35,←,left,←,0.5314788999967277,True,16,1,0,15
Y2-S2-208K19,8,705,AS,exp,37,↑,up,↑,0.6687195999547839,True,16,1,0,15
Y2-S2-208K19,8,706,AS,exp,27,↓,down,↓,0.5958132999949157,True,16,1,0,15
Y2-S2-208K19,8,707,AS,exp,26,→,right,→,0.662391500081867,True,15,1,0,15
Y2-S2-208K19,8,708,AS,exp,49,←,left,←,0.5221889000386,True,15,1,0,15
Y2-S2-208K19,8,709,AS,exp,31,→,right,→,0.5294761997647583,True,15,1,0,15
Y2-S2-208K19,8,710,AS,exp,30,↑,up,↑,0.9093898003920913,True,14,1,0,15
Y2-S2-208K19,8,711,AS,exp,28,→,right,→,0.5878324001096189,True,14,1,0,15
Y2-S2-208K19,8,712,AS,exp,37,←,left,←,0.5446456000208855,True,14,1,0,15
Y2-S2-208K19,8,713,AS,exp,26,→,right,→,0.591686399653554,True,13,1,0,15
Y2-S2-208K19,8,714,AS,exp,27,↓,left,←,0.636247799731791,False,13,-1,1,16
