PART_ID,Block_no,Trial_no,Block_type,Trial_type,CSI,Stim_letter,Key_pressed,letter_choose,Rt,Corr,Stimulus Time,Level,Reversal,Revs_count
Y2-S2-212K24,1,1,PS,train,25,←,left,←,0.7598009000066668,True,30,-,-,-
Y2-S2-212K24,1,2,PS,train,50,→,right,→,0.5838913999032229,True,30,-,-,-
Y2-S2-212K24,1,3,PS,train,45,↓,left,←,0.3844631998799741,False,30,-,-,-
Y2-S2-212K24,1,4,PS,train,46,↑,up,↑,0.7279791999608278,True,30,-,-,-
Y2-S2-212K24,1,5,PS,train,49,→,right,→,0.5338227001484483,True,30,-,-,-
Y2-S2-212K24,1,6,PS,train,26,↑,right,→,0.8451630000490695,False,30,-,-,-
Y2-S2-212K24,1,7,PS,train,49,←,left,←,0.5673173000104725,True,30,-,-,-
Y2-S2-212K24,1,8,PS,train,47,→,right,→,0.5673105998430401,True,30,-,-,-
Y2-S2-212K24,1,9,PS,train,36,↓,down,↓,0.7044850001111627,True,30,-,-,-
Y2-S2-212K24,1,10,PS,train,35,→,right,→,0.4678523000329733,True,30,-,-,-
Y2-S2-212K24,2,11,AS,train,30,↓,right,→,0.45111180003732443,False,45,-,-,-
Y2-S2-212K24,2,12,AS,train,26,←,left,←,0.8341027998831123,True,45,-,-,-
Y2-S2-212K24,2,13,AS,train,38,↑,up,↑,0.7507359001319855,True,45,-,-,-
Y2-S2-212K24,2,14,AS,train,46,↓,down,↓,0.500120900105685,True,45,-,-,-
Y2-S2-212K24,2,15,AS,train,47,←,left,←,0.6010213999543339,True,45,-,-,-
Y2-S2-212K24,2,16,AS,train,26,↓,down,↓,0.6673111000563949,True,45,-,-,-
Y2-S2-212K24,2,17,AS,train,30,↑,up,↑,0.7177669999655336,True,45,-,-,-
Y2-S2-212K24,2,18,AS,train,45,←,left,←,0.954424099996686,True,45,-,-,-
Y2-S2-212K24,2,19,AS,train,36,↓,down,↓,0.9281327000353485,True,45,-,-,-
Y2-S2-212K24,2,20,AS,train,49,→,right,→,0.7014733001124114,True,45,-,-,-
Y2-S2-212K24,-,21,PS,adaptive,44,↑,up,↑,0.7453786998521537,True,10,0,0,0
Y2-S2-212K24,-,22,PS,adaptive,30,←,left,←,0.5969867000821978,True,10,0,0,0
Y2-S2-212K24,-,23,PS,adaptive,25,→,right,→,0.6297450000420213,True,10,1,0,0
Y2-S2-212K24,-,24,PS,adaptive,43,←,left,←,0.4867412999738008,True,9,1,0,0
Y2-S2-212K24,-,25,PS,adaptive,47,→,up,↑,0.5020389000419527,False,9,-1,1,1
Y2-S2-212K24,-,26,PS,adaptive,25,←,left,←,0.40923069999553263,True,10,-1,0,1
Y2-S2-212K24,-,27,PS,adaptive,28,→,right,→,0.4709423999302089,True,10,-1,0,1
Y2-S2-212K24,-,28,PS,adaptive,42,↑,up,↑,0.4553411998786032,True,10,1,1,2
Y2-S2-212K24,-,29,PS,adaptive,31,↓,up,↑,1.1270190000068396,False,9,-1,1,3
Y2-S2-212K24,-,30,PS,adaptive,43,←,left,←,0.6088136001490057,True,10,-1,0,3
Y2-S2-212K24,-,31,PS,adaptive,43,↑,no_key,no_letter,-1.0,False,10,-1,0,3
Y2-S2-212K24,-,32,PS,adaptive,38,→,down,↓,1.0598593999166042,False,11,-1,0,3
Y2-S2-212K24,-,33,PS,adaptive,39,←,left,←,0.5816256999969482,True,12,-1,0,3
Y2-S2-212K24,-,34,PS,adaptive,25,↓,up,↑,0.6752794000785798,False,12,-1,0,3
Y2-S2-212K24,-,35,PS,adaptive,32,→,right,→,0.4621500999201089,True,13,-1,0,3
Y2-S2-212K24,-,36,PS,adaptive,45,←,left,←,0.7516614000778645,True,13,-1,0,3
Y2-S2-212K24,-,37,PS,adaptive,45,→,right,→,0.42322729993611574,True,13,1,1,4
Y2-S2-212K24,-,38,AS,adaptive,43,←,up,↑,0.3339966000057757,False,20,-1,0,0
Y2-S2-212K24,-,39,AS,adaptive,45,→,right,→,0.705971600022167,True,21,-1,0,0
Y2-S2-212K24,-,40,AS,adaptive,42,←,left,←,0.72536849998869,True,21,-1,0,0
Y2-S2-212K24,-,41,AS,adaptive,41,→,left,←,0.33446100004948676,False,21,-1,0,0
Y2-S2-212K24,-,42,AS,adaptive,39,←,left,←,0.6215865998528898,True,22,-1,0,0
Y2-S2-212K24,-,43,AS,adaptive,37,→,right,→,0.7468031998723745,True,22,-1,0,0
Y2-S2-212K24,-,44,AS,adaptive,50,↓,down,↓,0.8062481000088155,True,22,1,1,1
Y2-S2-212K24,-,45,AS,adaptive,29,←,left,←,0.3832963998429477,True,21,1,0,1
Y2-S2-212K24,-,46,AS,adaptive,45,↓,down,↓,0.6300922001246363,True,21,1,0,1
Y2-S2-212K24,-,47,AS,adaptive,26,↑,up,↑,0.9010435999371111,True,21,1,0,1
Y2-S2-212K24,-,48,AS,adaptive,31,←,down,↓,0.7647122999187559,False,20,-1,1,2
Y2-S2-212K24,-,49,AS,adaptive,37,↑,down,↓,1.0077935999725014,False,21,-1,0,2
Y2-S2-212K24,-,50,AS,adaptive,33,←,left,←,0.575324899982661,True,22,-1,0,2
Y2-S2-212K24,-,51,AS,adaptive,49,↑,up,↑,0.5767840999178588,True,22,-1,0,2
Y2-S2-212K24,-,52,AS,adaptive,37,→,right,→,0.6871388999279588,True,22,1,1,3
Y2-S2-212K24,-,53,AS,adaptive,45,↑,right,→,0.892501600086689,False,21,-1,1,4
Y2-S2-212K24,1,54,PS,intra_train,38,→,right,→,0.6281128998380154,True,18,-,-,-
Y2-S2-212K24,1,55,PS,intra_train,25,↑,up,↑,0.5316812999080867,True,18,-,-,-
Y2-S2-212K24,1,56,PS,intra_train,32,→,right,→,1.316106399986893,True,18,-,-,-
Y2-S2-212K24,1,57,PS,intra_train,42,↑,up,↑,0.5738329999148846,True,18,-,-,-
Y2-S2-212K24,1,58,PS,intra_train,33,↓,down,↓,0.5456354001071304,True,18,-,-,-
Y2-S2-212K24,1,59,PS,exp,31,↑,no_key,no_letter,-1.0,False,12,-1,0,0
Y2-S2-212K24,1,60,PS,exp,46,←,left,←,0.5430763999465853,True,13,-1,0,0
Y2-S2-212K24,1,61,PS,exp,45,→,right,→,0.44785319990478456,True,13,-1,0,0
Y2-S2-212K24,1,62,PS,exp,31,↑,up,↑,0.5175801001023501,True,13,1,1,1
Y2-S2-212K24,1,63,PS,exp,47,←,down,↓,0.25076010008342564,False,12,-1,1,2
Y2-S2-212K24,1,64,PS,exp,44,↑,right,→,1.1241609998978674,False,13,-1,0,2
Y2-S2-212K24,1,65,PS,exp,42,↓,down,↓,0.5511465000454336,True,14,-1,0,2
Y2-S2-212K24,1,66,PS,exp,47,↑,right,→,0.9488791001494974,False,14,-1,0,2
Y2-S2-212K24,1,67,PS,exp,33,→,right,→,0.4691288999747485,True,15,-1,0,2
Y2-S2-212K24,1,68,PS,exp,44,↑,left,←,0.31727789994329214,False,15,-1,0,2
Y2-S2-212K24,1,69,PS,exp,36,→,left,←,0.6873616999946535,False,16,-1,0,2
Y2-S2-212K24,1,70,PS,exp,29,↑,up,↑,0.367303199833259,True,17,-1,0,2
Y2-S2-212K24,1,71,PS,exp,42,←,right,→,0.520732699893415,False,17,-1,0,2
Y2-S2-212K24,1,72,PS,exp,36,↑,up,↑,0.5071273997891694,True,18,-1,0,2
Y2-S2-212K24,1,73,PS,exp,31,←,left,←,0.485328100156039,True,18,-1,0,2
Y2-S2-212K24,1,74,PS,exp,29,↓,down,↓,0.5100536001846194,True,18,1,1,3
Y2-S2-212K24,1,75,PS,exp,43,↑,right,→,0.4172889001201838,False,17,-1,1,4
Y2-S2-212K24,1,76,PS,exp,27,→,right,→,1.5288118999451399,True,18,-1,0,4
Y2-S2-212K24,1,77,PS,exp,41,↑,up,↑,0.40055370004847646,True,18,-1,0,4
Y2-S2-212K24,1,78,PS,exp,47,←,right,→,0.5404095000121742,False,18,-1,0,4
Y2-S2-212K24,1,79,PS,exp,32,→,right,→,0.4505833999719471,True,19,-1,0,4
Y2-S2-212K24,1,80,PS,exp,46,↓,right,→,0.6193762999027967,False,19,-1,0,4
Y2-S2-212K24,1,81,PS,exp,28,↑,up,↑,0.5917248001787812,True,20,-1,0,4
Y2-S2-212K24,1,82,PS,exp,33,↓,up,↑,0.5701598001178354,False,20,-1,0,4
Y2-S2-212K24,1,83,PS,exp,41,↑,up,↑,0.6023329000454396,True,21,-1,0,4
Y2-S2-212K24,1,84,PS,exp,47,→,right,→,0.7549979998730123,True,21,-1,0,4
Y2-S2-212K24,1,85,PS,exp,50,←,left,←,0.3506553000770509,True,21,1,1,5
Y2-S2-212K24,1,86,PS,exp,50,↓,up,↑,0.4508448999840766,False,20,-1,1,6
Y2-S2-212K24,1,87,PS,exp,50,↑,up,↑,0.5580889999400824,True,21,-1,0,6
Y2-S2-212K24,1,88,PS,exp,25,←,left,←,0.48386220005340874,True,21,-1,0,6
Y2-S2-212K24,1,89,PS,exp,44,→,right,→,0.5211259999778122,True,21,1,1,7
Y2-S2-212K24,1,90,PS,exp,38,↑,up,↑,0.501345600001514,True,20,1,0,7
Y2-S2-212K24,1,91,PS,exp,31,↓,down,↓,0.5037696999497712,True,20,1,0,7
Y2-S2-212K24,1,92,PS,exp,47,→,right,→,1.4830261999741197,True,20,1,0,7
Y2-S2-212K24,1,93,PS,exp,25,←,right,→,1.420796199934557,False,19,-1,1,8
Y2-S2-212K24,1,94,PS,exp,30,→,right,→,0.4504670000169426,True,20,-1,0,8
Y2-S2-212K24,1,95,PS,exp,48,←,left,←,0.46748739993199706,True,20,-1,0,8
Y2-S2-212K24,1,96,PS,exp,46,↑,left,←,0.43397850007750094,False,20,-1,0,8
Y2-S2-212K24,1,97,PS,exp,28,↓,down,↓,0.5458374000154436,True,21,-1,0,8
Y2-S2-212K24,1,98,PS,exp,39,→,right,→,0.5698288001585752,True,21,-1,0,8
Y2-S2-212K24,1,99,PS,exp,27,↓,right,→,0.41727679991163313,False,21,-1,0,8
Y2-S2-212K24,1,100,PS,exp,25,→,right,→,0.6612966998945922,True,22,-1,0,8
Y2-S2-212K24,1,101,PS,exp,44,↓,down,↓,0.467151400167495,True,22,-1,0,8
Y2-S2-212K24,1,102,PS,exp,39,↑,up,↑,0.5879406998865306,True,22,1,1,9
Y2-S2-212K24,1,103,PS,exp,48,↓,down,↓,0.6384137000422925,True,21,1,0,9
Y2-S2-212K24,1,104,PS,exp,32,←,left,←,0.5369181998539716,True,21,1,0,9
Y2-S2-212K24,1,105,PS,exp,25,↑,right,→,0.46719460003077984,False,21,-1,1,10
Y2-S2-212K24,1,106,PS,exp,41,←,left,←,0.4840991999953985,True,22,-1,0,10
Y2-S2-212K24,1,107,PS,exp,35,↓,down,↓,0.6722586001269519,True,22,-1,0,10
Y2-S2-212K24,1,108,PS,exp,35,→,left,←,0.6724781000521034,False,22,-1,0,10
Y2-S2-212K24,1,109,PS,exp,39,↓,down,↓,0.5599634000100195,True,23,-1,0,10
Y2-S2-212K24,1,110,PS,exp,31,↑,up,↑,0.2678992000874132,True,23,-1,0,10
Y2-S2-212K24,1,111,PS,exp,31,↓,down,↓,1.5034752001520246,True,23,1,1,11
Y2-S2-212K24,1,112,PS,exp,40,↑,no_key,no_letter,-1.0,False,22,-1,1,12
Y2-S2-212K24,1,113,PS,exp,36,→,right,→,1.4753227001056075,True,23,-1,0,12
Y2-S2-212K24,1,114,PS,exp,36,←,left,←,1.2578689001966268,True,23,-1,0,12
Y2-S2-212K24,1,115,PS,exp,39,↓,down,↓,0.8348376001231372,True,23,1,1,13
Y2-S2-212K24,1,116,PS,exp,37,→,right,→,0.5896741000469774,True,22,1,0,13
Y2-S2-212K24,1,117,PS,exp,35,←,left,←,0.4003545001614839,True,22,1,0,13
Y2-S2-212K24,1,118,PS,exp,37,↑,up,↑,0.6194178001023829,True,22,1,0,13
Y2-S2-212K24,1,119,PS,exp,41,↓,down,↓,0.9409160001669079,True,21,1,0,13
Y2-S2-212K24,1,120,PS,exp,28,←,up,↑,0.700482300017029,False,21,-1,1,14
Y2-S2-212K24,1,121,PS,exp,30,↓,no_key,no_letter,-1.0,False,22,-1,0,14
Y2-S2-212K24,1,122,PS,exp,38,↑,up,↑,0.5677900998853147,True,23,-1,0,14
Y2-S2-212K24,1,123,PS,exp,29,↓,down,↓,0.5746786000672728,True,23,-1,0,14
Y2-S2-212K24,1,124,PS,exp,36,←,left,←,0.5725149998907,True,23,1,1,15
Y2-S2-212K24,1,125,PS,exp,29,↓,down,↓,0.8333111999090761,True,22,1,0,15
Y2-S2-212K24,1,126,PS,exp,39,→,right,→,0.48405779991298914,True,22,1,0,15
Y2-S2-212K24,1,127,PS,exp,46,↓,down,↓,0.6322047999128699,True,22,1,0,15
Y2-S2-212K24,1,128,PS,exp,29,↑,up,↑,1.3914862000383437,True,21,1,0,15
Y2-S2-212K24,1,129,PS,exp,31,→,right,→,1.1150620998814702,True,21,1,0,15
Y2-S2-212K24,1,130,PS,exp,41,↓,down,↓,0.6578216999769211,True,21,1,0,15
Y2-S2-212K24,1,131,PS,exp,28,←,left,←,0.5072238000575453,True,20,1,0,15
Y2-S2-212K24,1,132,PS,exp,30,↓,down,↓,0.5983138999436051,True,20,1,0,15
Y2-S2-212K24,1,133,PS,exp,50,→,right,→,0.6276376000605524,True,20,1,0,15
Y2-S2-212K24,1,134,PS,exp,45,↑,up,↑,0.6317978000734001,True,19,1,0,15
Y2-S2-212K24,1,135,PS,exp,28,↓,down,↓,0.5224669000599533,True,19,1,0,15
Y2-S2-212K24,1,136,PS,exp,37,↑,up,↑,0.5599120000842959,True,19,1,0,15
Y2-S2-212K24,1,137,PS,exp,39,↓,down,↓,0.6908920998685062,True,18,1,0,15
Y2-S2-212K24,1,138,PS,exp,41,→,right,→,0.5870476001873612,True,18,1,0,15
Y2-S2-212K24,1,139,PS,exp,41,↓,down,↓,0.28379049990326166,True,18,1,0,15
Y2-S2-212K24,1,140,PS,exp,36,←,up,↑,0.47283430001698434,False,17,-1,1,16
Y2-S2-212K24,2,141,AS,intra_train,34,↓,down,↓,0.8380027001257986,True,33,-,-,-
Y2-S2-212K24,2,142,AS,intra_train,32,→,no_key,no_letter,-1.0,False,33,-,-,-
Y2-S2-212K24,2,143,AS,intra_train,40,↑,left,←,0.6505758999846876,False,33,-,-,-
Y2-S2-212K24,2,144,AS,intra_train,27,↓,up,↑,0.5007037001196295,False,33,-,-,-
Y2-S2-212K24,2,145,AS,intra_train,47,←,left,←,0.7642874999437481,True,33,-,-,-
Y2-S2-212K24,2,146,AS,exp,31,↓,up,↑,1.3602113998495042,False,22,-1,0,0
Y2-S2-212K24,2,147,AS,exp,44,←,left,←,1.230223499936983,True,23,-1,0,0
Y2-S2-212K24,2,148,AS,exp,46,→,right,→,1.0128164999186993,True,23,-1,0,0
Y2-S2-212K24,2,149,AS,exp,29,↑,up,↑,1.2210944998078048,True,23,1,1,1
Y2-S2-212K24,2,150,AS,exp,46,↓,right,→,0.7226782999932766,False,22,-1,1,2
Y2-S2-212K24,2,151,AS,exp,49,→,left,←,0.5006760000251234,False,23,-1,0,2
Y2-S2-212K24,2,152,AS,exp,35,↓,up,↑,0.6254112999886274,False,24,-1,0,2
Y2-S2-212K24,2,153,AS,exp,38,→,down,↓,0.1510461000725627,False,25,-1,0,2
Y2-S2-212K24,2,154,AS,exp,29,↑,right,→,0.6564574001822621,False,26,-1,0,2
Y2-S2-212K24,2,155,AS,exp,39,↓,down,↓,0.7882713000290096,True,27,-1,0,2
Y2-S2-212K24,2,156,AS,exp,38,←,left,←,0.500971200177446,True,27,-1,0,2
Y2-S2-212K24,2,157,AS,exp,37,→,no_key,no_letter,-1.0,False,27,-1,0,2
Y2-S2-212K24,2,158,AS,exp,27,↓,no_key,no_letter,-1.0,False,28,-1,0,2
Y2-S2-212K24,2,159,AS,exp,35,→,right,→,0.4509266000241041,True,29,-1,0,2
Y2-S2-212K24,2,160,AS,exp,44,↓,down,↓,0.6178360998164862,True,29,-1,0,2
Y2-S2-212K24,2,161,AS,exp,44,←,left,←,0.8410966999363154,True,29,1,1,3
Y2-S2-212K24,2,162,AS,exp,44,↓,left,←,0.5840574998874217,False,28,-1,1,4
Y2-S2-212K24,2,163,AS,exp,33,→,up,↑,0.2340830999892205,False,29,-1,0,4
Y2-S2-212K24,2,164,AS,exp,36,↑,up,↑,0.03407399985007942,True,30,-1,0,4
Y2-S2-212K24,2,165,AS,exp,46,↓,up,↑,0.384198899846524,False,30,-1,0,4
Y2-S2-212K24,2,166,AS,exp,27,→,no_key,no_letter,-1.0,False,31,-1,0,4
Y2-S2-212K24,2,167,AS,exp,30,←,up,↑,1.339404599973932,False,32,-1,0,4
Y2-S2-212K24,2,168,AS,exp,42,→,right,→,0.5839825000148267,True,33,-1,0,4
Y2-S2-212K24,2,169,AS,exp,49,↓,down,↓,0.6508277000393718,True,33,-1,0,4
Y2-S2-212K24,2,170,AS,exp,46,←,left,←,0.5840678999666125,True,33,1,1,5
Y2-S2-212K24,2,171,AS,exp,38,↑,down,↓,0.65058260015212,False,32,-1,1,6
Y2-S2-212K24,2,172,AS,exp,47,←,left,←,0.9333058998454362,True,33,-1,0,6
Y2-S2-212K24,2,173,AS,exp,50,↑,up,↑,1.693411699961871,True,33,-1,0,6
Y2-S2-212K24,2,174,AS,exp,31,↓,down,↓,0.6503808998968452,True,33,1,1,7
Y2-S2-212K24,2,175,AS,exp,34,←,left,←,0.5674284000415355,True,32,1,0,7
Y2-S2-212K24,2,176,AS,exp,46,↓,down,↓,0.734971099998802,True,32,1,0,7
Y2-S2-212K24,2,177,AS,exp,43,←,left,←,0.43459859979338944,True,32,1,0,7
Y2-S2-212K24,2,178,AS,exp,42,↑,up,↑,0.6505791998934001,True,31,1,0,7
Y2-S2-212K24,2,179,AS,exp,41,→,right,→,0.5671625998802483,True,31,1,0,7
Y2-S2-212K24,2,180,AS,exp,37,←,left,←,0.4175621001049876,True,31,1,0,7
Y2-S2-212K24,2,181,AS,exp,25,↑,down,↓,1.4705856000073254,False,30,-1,1,8
Y2-S2-212K24,2,182,AS,exp,43,←,right,→,1.3384342999197543,False,31,-1,0,8
Y2-S2-212K24,2,183,AS,exp,33,→,right,→,1.0206728999037296,True,32,-1,0,8
Y2-S2-212K24,2,184,AS,exp,34,↓,down,↓,0.7985869999974966,True,32,-1,0,8
Y2-S2-212K24,2,185,AS,exp,25,←,left,←,0.6674271998926997,True,32,1,1,9
Y2-S2-212K24,2,186,AS,exp,37,→,right,→,0.5838794999290258,True,31,1,0,9
Y2-S2-212K24,2,187,AS,exp,47,←,right,→,0.6007487999740988,False,31,-1,1,10
Y2-S2-212K24,2,188,AS,exp,47,↑,up,↑,0.5176993999630213,True,32,-1,0,10
Y2-S2-212K24,2,189,AS,exp,40,→,right,→,0.5674167000688612,True,32,-1,0,10
Y2-S2-212K24,2,190,AS,exp,29,←,right,→,0.6172277999576181,False,32,-1,0,10
Y2-S2-212K24,2,191,AS,exp,31,→,right,→,1.005387500161305,True,33,-1,0,10
Y2-S2-212K24,2,192,AS,exp,30,←,left,←,0.5507096000947058,True,33,-1,0,10
Y2-S2-212K24,2,193,AS,exp,41,→,right,→,0.38447170006111264,True,33,1,1,11
Y2-S2-212K24,2,194,AS,exp,30,↑,left,←,1.0821561999619007,False,32,-1,1,12
Y2-S2-212K24,2,195,AS,exp,41,↓,down,↓,0.5841882000677288,True,33,-1,0,12
Y2-S2-212K24,2,196,AS,exp,42,→,down,↓,0.7305310000665486,False,33,-1,0,12
Y2-S2-212K24,2,197,AS,exp,50,↑,up,↑,0.6339777000248432,True,34,-1,0,12
Y2-S2-212K24,2,198,AS,exp,32,→,left,←,0.5178487999364734,False,34,-1,0,12
Y2-S2-212K24,2,199,AS,exp,43,↓,right,→,2.1302682999521494,False,35,-1,0,12
Y2-S2-212K24,2,200,AS,exp,39,↑,up,↑,0.8483322998508811,True,36,-1,0,12
Y2-S2-212K24,2,201,AS,exp,29,↓,down,↓,0.5176780000329018,True,36,-1,0,12
Y2-S2-212K24,2,202,AS,exp,30,→,right,→,0.7761450000107288,True,36,1,1,13
Y2-S2-212K24,2,203,AS,exp,42,←,left,←,0.46789850015193224,True,35,1,0,13
Y2-S2-212K24,2,204,AS,exp,35,→,right,→,0.6348133999854326,True,35,1,0,13
Y2-S2-212K24,2,205,AS,exp,35,←,left,←,0.40099669992923737,True,35,1,0,13
Y2-S2-212K24,2,206,AS,exp,41,→,no_key,no_letter,-1.0,False,34,-1,1,14
Y2-S2-212K24,2,207,AS,exp,27,←,left,←,0.4343862000387162,True,35,-1,0,14
Y2-S2-212K24,2,208,AS,exp,38,→,right,→,0.46773290005512536,True,35,-1,0,14
Y2-S2-212K24,2,209,AS,exp,26,↑,up,↑,0.6840229998342693,True,35,1,1,15
Y2-S2-212K24,2,210,AS,exp,28,↓,right,→,1.0587899999227375,False,34,-1,1,16
Y2-S2-212K24,3,211,AS,intra_train,49,←,left,←,1.548937699990347,True,33,-,-,-
Y2-S2-212K24,3,212,AS,intra_train,50,↑,up,↑,0.8665183000266552,True,33,-,-,-
Y2-S2-212K24,3,213,AS,intra_train,27,↓,down,↓,0.8892020999919623,True,33,-,-,-
Y2-S2-212K24,3,214,AS,intra_train,39,←,left,←,0.5506426999345422,True,33,-,-,-
Y2-S2-212K24,3,215,AS,intra_train,47,↑,up,↑,0.5842349000740796,True,33,-,-,-
Y2-S2-212K24,3,216,AS,exp,46,→,right,→,0.5496346999425441,True,22,0,0,0
Y2-S2-212K24,3,217,AS,exp,41,↓,down,↓,0.8378151000943035,True,22,0,0,0
Y2-S2-212K24,3,218,AS,exp,44,↑,up,↑,0.5515775999519974,True,22,1,0,0
Y2-S2-212K24,3,219,AS,exp,40,→,down,↓,0.5755217000842094,False,21,-1,1,1
Y2-S2-212K24,3,220,AS,exp,28,←,up,↑,1.3085617001634091,False,22,-1,0,1
Y2-S2-212K24,3,221,AS,exp,39,→,right,→,0.40051939990371466,True,23,-1,0,1
Y2-S2-212K24,3,222,AS,exp,30,↑,up,↑,0.48386080004274845,True,23,-1,0,1
Y2-S2-212K24,3,223,AS,exp,26,↓,down,↓,0.5171354999765754,True,23,1,1,2
Y2-S2-212K24,3,224,AS,exp,49,→,left,←,0.41704749991185963,False,22,-1,1,3
Y2-S2-212K24,3,225,AS,exp,45,↑,up,↑,0.4672395000234246,True,23,-1,0,3
Y2-S2-212K24,3,226,AS,exp,49,↓,down,↓,0.5175183000974357,True,23,-1,0,3
Y2-S2-212K24,3,227,AS,exp,49,←,right,→,1.0897131999954581,False,23,-1,0,3
Y2-S2-212K24,3,228,AS,exp,41,↑,up,↑,0.7562072000000626,True,24,-1,0,3
Y2-S2-212K24,3,229,AS,exp,28,←,down,↓,1.638974899891764,False,24,-1,0,3
Y2-S2-212K24,3,230,AS,exp,38,↑,up,↑,0.5005443000700325,True,25,-1,0,3
Y2-S2-212K24,3,231,AS,exp,29,←,left,←,0.7608861997723579,True,25,-1,0,3
Y2-S2-212K24,3,232,AS,exp,36,→,right,→,0.9459114000201225,True,25,1,1,4
Y2-S2-212K24,3,233,AS,exp,46,↓,down,↓,0.5339986998587847,True,24,1,0,4
Y2-S2-212K24,3,234,AS,exp,32,↑,up,↑,0.5172886999789625,True,24,1,0,4
Y2-S2-212K24,3,235,AS,exp,35,←,left,←,0.5673861999530345,True,24,1,0,4
Y2-S2-212K24,3,236,AS,exp,27,↓,left,←,1.4916714001446962,False,23,-1,1,5
Y2-S2-212K24,3,237,AS,exp,44,↑,up,↑,0.6066004000604153,True,24,-1,0,5
Y2-S2-212K24,3,238,AS,exp,38,←,up,↑,0.8634405001066625,False,24,-1,0,5
Y2-S2-212K24,3,239,AS,exp,42,↓,down,↓,0.8225141000002623,True,25,-1,0,5
Y2-S2-212K24,3,240,AS,exp,34,↑,left,←,0.5005709000397474,False,25,-1,0,5
Y2-S2-212K24,3,241,AS,exp,44,→,up,↑,0.43446259992197156,False,26,-1,0,5
Y2-S2-212K24,3,242,AS,exp,39,↑,up,↑,0.8607860000338405,True,27,-1,0,5
Y2-S2-212K24,3,243,AS,exp,37,←,left,←,0.6363629999104887,True,27,-1,0,5
Y2-S2-212K24,3,244,AS,exp,44,→,right,→,0.5338751999661326,True,27,1,1,6
Y2-S2-212K24,3,245,AS,exp,30,↑,up,↑,0.6778605000581592,True,26,1,0,6
Y2-S2-212K24,3,246,AS,exp,43,←,left,←,0.5177911999635398,True,26,1,0,6
Y2-S2-212K24,3,247,AS,exp,32,↑,up,↑,1.4456039001233876,True,26,1,0,6
Y2-S2-212K24,3,248,AS,exp,43,↓,down,↓,0.9432755000889301,True,25,1,0,6
Y2-S2-212K24,3,249,AS,exp,45,↑,left,←,0.5506498999893665,False,25,-1,1,7
Y2-S2-212K24,3,250,AS,exp,31,←,left,←,0.550420599989593,True,26,-1,0,7
Y2-S2-212K24,3,251,AS,exp,39,↑,up,↑,0.3844198000151664,True,26,-1,0,7
Y2-S2-212K24,3,252,AS,exp,32,←,left,←,0.5176421001087874,True,26,1,1,8
Y2-S2-212K24,3,253,AS,exp,33,↓,right,→,1.3428913000971079,False,25,-1,1,9
Y2-S2-212K24,3,254,AS,exp,48,→,right,→,0.48467610008083284,True,26,-1,0,9
Y2-S2-212K24,3,255,AS,exp,32,↑,up,↑,0.4504504001233727,True,26,-1,0,9
Y2-S2-212K24,3,256,AS,exp,33,→,right,→,0.4341205998789519,True,26,1,1,10
Y2-S2-212K24,3,257,AS,exp,28,↑,left,←,0.5856901998631656,False,25,-1,1,11
Y2-S2-212K24,3,258,AS,exp,44,→,right,→,0.46730279992334545,True,26,-1,0,11
Y2-S2-212K24,3,259,AS,exp,35,←,left,←,1.0547334000002593,True,26,-1,0,11
Y2-S2-212K24,3,260,AS,exp,27,→,right,→,0.8063648999668658,True,26,1,1,12
Y2-S2-212K24,3,261,AS,exp,41,↑,left,←,0.7040349999442697,False,25,-1,1,13
Y2-S2-212K24,3,262,AS,exp,34,↓,left,←,0.6349931999575347,False,26,-1,0,13
Y2-S2-212K24,3,263,AS,exp,41,↑,up,↑,0.21812300011515617,True,27,-1,0,13
Y2-S2-212K24,3,264,AS,exp,39,↓,down,↓,0.9738886998966336,True,27,-1,0,13
Y2-S2-212K24,3,265,AS,exp,26,↑,up,↑,0.4841847000643611,True,27,1,1,14
Y2-S2-212K24,3,266,AS,exp,36,→,right,→,0.6316478999797255,True,26,1,0,14
Y2-S2-212K24,3,267,AS,exp,47,↓,down,↓,0.7323561999946833,True,26,1,0,14
Y2-S2-212K24,3,268,AS,exp,25,↑,up,↑,0.48399069998413324,True,26,1,0,14
Y2-S2-212K24,3,269,AS,exp,28,←,left,←,0.43392499978654087,True,25,1,0,14
Y2-S2-212K24,3,270,AS,exp,41,↑,up,↑,0.38456489983946085,True,25,1,0,14
Y2-S2-212K24,3,271,AS,exp,33,→,right,→,0.46750979986973107,True,25,1,0,14
Y2-S2-212K24,3,272,AS,exp,47,←,left,←,0.46683990000747144,True,24,1,0,14
Y2-S2-212K24,3,273,AS,exp,25,↓,down,↓,0.8241379999089986,True,24,1,0,14
Y2-S2-212K24,3,274,AS,exp,36,→,right,→,0.4171366000082344,True,24,1,0,14
Y2-S2-212K24,3,275,AS,exp,38,↑,up,↑,0.4172187999356538,True,23,1,0,14
Y2-S2-212K24,3,276,AS,exp,43,←,left,←,0.5625547000672668,True,23,1,0,14
Y2-S2-212K24,3,277,AS,exp,46,↓,up,↑,1.3782389000989497,False,23,-1,1,15
Y2-S2-212K24,3,278,AS,exp,36,←,right,→,0.5881302999332547,False,24,-1,0,15
Y2-S2-212K24,3,279,AS,exp,29,→,no_key,no_letter,-1.0,False,25,-1,0,15
Y2-S2-212K24,3,280,AS,exp,32,↓,right,→,0.8513237999286503,False,26,-1,0,15
Y2-S2-212K24,3,281,AS,exp,34,→,right,→,0.46727100014686584,True,27,-1,0,15
Y2-S2-212K24,3,282,AS,exp,40,←,right,→,0.6721869001630694,False,27,-1,0,15
Y2-S2-212K24,3,283,AS,exp,47,→,left,←,1.1509254998527467,False,28,-1,0,15
Y2-S2-212K24,3,284,AS,exp,46,↑,up,↑,1.2204372000414878,True,29,-1,0,15
Y2-S2-212K24,3,285,AS,exp,49,←,left,←,0.8402154000941664,True,29,-1,0,15
Y2-S2-212K24,3,286,AS,exp,46,↓,right,→,0.5837983000092208,False,29,-1,0,15
Y2-S2-212K24,3,287,AS,exp,31,→,right,→,0.4009408999700099,True,30,-1,0,15
Y2-S2-212K24,3,288,AS,exp,35,↑,left,←,0.9755374998785555,False,30,-1,0,15
Y2-S2-212K24,3,289,AS,exp,27,→,right,→,0.43458390003070235,True,31,-1,0,15
Y2-S2-212K24,3,290,AS,exp,50,↑,up,↑,0.6341067000757903,True,31,-1,0,15
Y2-S2-212K24,3,291,AS,exp,27,←,up,↑,0.6004397999495268,False,31,-1,0,15
Y2-S2-212K24,3,292,AS,exp,36,↓,down,↓,0.7647508999798447,True,32,-1,0,15
Y2-S2-212K24,3,293,AS,exp,41,←,right,→,0.6006078000646085,False,32,-1,0,15
Y2-S2-212K24,3,294,AS,exp,38,↑,up,↑,0.41796140000224113,True,33,-1,0,15
Y2-S2-212K24,3,295,AS,exp,49,←,left,←,0.4675697998609394,True,33,-1,0,15
Y2-S2-212K24,3,296,AS,exp,42,→,right,→,0.6504794999491423,True,33,1,1,16
Y2-S2-212K24,4,297,PS,intra_train,46,↓,down,↓,0.660161100095138,True,18,-,-,-
Y2-S2-212K24,4,298,PS,intra_train,40,→,right,→,1.0617493998724967,True,18,-,-,-
Y2-S2-212K24,4,299,PS,intra_train,44,↓,down,↓,0.5437513999640942,True,18,-,-,-
Y2-S2-212K24,4,300,PS,intra_train,39,←,up,↑,1.2951138999778777,False,18,-,-,-
Y2-S2-212K24,4,301,PS,intra_train,41,↑,up,↑,0.7000299000646919,True,18,-,-,-
Y2-S2-212K24,4,302,PS,exp,47,←,left,←,0.9740313000511378,True,12,0,0,0
Y2-S2-212K24,4,303,PS,exp,31,→,right,→,0.48664140002802014,True,12,0,0,0
Y2-S2-212K24,4,304,PS,exp,41,←,left,←,0.6152594001032412,True,12,1,0,0
Y2-S2-212K24,4,305,PS,exp,26,↑,up,↑,0.5587286001536995,True,11,1,0,0
Y2-S2-212K24,4,306,PS,exp,34,→,no_key,no_letter,-1.0,False,11,-1,1,1
Y2-S2-212K24,4,307,PS,exp,47,↓,up,↑,0.6428841000888497,False,12,-1,0,1
Y2-S2-212K24,4,308,PS,exp,43,→,left,←,0.5346605000086129,False,13,-1,0,1
Y2-S2-212K24,4,309,PS,exp,40,↑,no_key,no_letter,-1.0,False,14,-1,0,1
Y2-S2-212K24,4,310,PS,exp,43,↓,right,→,0.20119430008344352,False,15,-1,0,1
Y2-S2-212K24,4,311,PS,exp,44,↑,right,→,0.05103119998238981,False,16,-1,0,1
Y2-S2-212K24,4,312,PS,exp,44,←,up,↑,0.21815889980643988,False,17,-1,0,1
Y2-S2-212K24,4,313,PS,exp,49,↓,left,←,0.6045888001099229,False,18,-1,0,1
Y2-S2-212K24,4,314,PS,exp,42,↑,left,←,0.4171104000415653,False,19,-1,0,1
Y2-S2-212K24,4,315,PS,exp,49,←,left,←,0.5064601998310536,True,20,-1,0,1
Y2-S2-212K24,4,316,PS,exp,41,→,right,→,0.4505322000477463,True,20,-1,0,1
Y2-S2-212K24,4,317,PS,exp,25,←,left,←,0.5447567999362946,True,20,1,1,2
Y2-S2-212K24,4,318,PS,exp,48,↑,right,→,0.31724580004811287,False,19,-1,1,3
Y2-S2-212K24,4,319,PS,exp,39,→,right,→,0.41720580006949604,True,20,-1,0,3
Y2-S2-212K24,4,320,PS,exp,43,↑,up,↑,0.4504738000687212,True,20,-1,0,3
Y2-S2-212K24,4,321,PS,exp,39,→,right,→,0.3839014999102801,True,20,1,1,4
Y2-S2-212K24,4,322,PS,exp,38,←,left,←,0.3005357999354601,True,19,1,0,4
Y2-S2-212K24,4,323,PS,exp,26,↓,down,↓,0.7190855999942869,True,19,1,0,4
Y2-S2-212K24,4,324,PS,exp,32,←,left,←,0.5295444999355823,True,19,1,0,4
Y2-S2-212K24,4,325,PS,exp,25,→,right,→,1.154112300137058,True,18,1,0,4
Y2-S2-212K24,4,326,PS,exp,41,↓,left,←,0.860825999872759,False,18,-1,1,5
Y2-S2-212K24,4,327,PS,exp,35,→,up,↑,1.8910064999945462,False,19,-1,0,5
Y2-S2-212K24,4,328,PS,exp,46,←,up,↑,1.224409099901095,False,20,-1,0,5
Y2-S2-212K24,4,329,PS,exp,42,↑,up,↑,0.48381790006533265,True,21,-1,0,5
Y2-S2-212K24,4,330,PS,exp,40,↓,up,↑,0.589584399946034,False,21,-1,0,5
Y2-S2-212K24,4,331,PS,exp,41,↑,up,↑,0.6938008000142872,True,22,-1,0,5
Y2-S2-212K24,4,332,PS,exp,41,→,right,→,1.3135868001263589,True,22,-1,0,5
Y2-S2-212K24,4,333,PS,exp,26,↑,up,↑,0.5586344997864217,True,22,1,1,6
Y2-S2-212K24,4,334,PS,exp,34,←,left,←,0.48398580006323755,True,21,1,0,6
Y2-S2-212K24,4,335,PS,exp,37,↑,up,↑,1.0875979999545962,True,21,1,0,6
Y2-S2-212K24,4,336,PS,exp,31,→,right,→,0.48409279994666576,True,21,1,0,6
Y2-S2-212K24,4,337,PS,exp,44,↓,down,↓,0.6349774999544024,True,20,1,0,6
Y2-S2-212K24,4,338,PS,exp,44,↑,up,↑,0.5145646999590099,True,20,1,0,6
Y2-S2-212K24,4,339,PS,exp,35,←,left,←,1.499466500012204,True,20,1,0,6
Y2-S2-212K24,4,340,PS,exp,48,↓,down,↓,0.580032299971208,True,19,1,0,6
Y2-S2-212K24,4,341,PS,exp,33,←,left,←,1.5216945998836309,True,19,1,0,6
Y2-S2-212K24,4,342,PS,exp,50,→,right,→,0.5426050000824034,True,19,1,0,6
Y2-S2-212K24,4,343,PS,exp,29,←,left,←,0.4175372999161482,True,18,1,0,6
Y2-S2-212K24,4,344,PS,exp,45,↓,down,↓,0.6110520998481661,True,18,1,0,6
Y2-S2-212K24,4,345,PS,exp,37,←,right,→,0.7098791000898927,False,18,-1,1,7
Y2-S2-212K24,4,346,PS,exp,34,→,right,→,0.49361969996243715,True,19,-1,0,7
Y2-S2-212K24,4,347,PS,exp,31,←,left,←,0.4173836000263691,True,19,-1,0,7
Y2-S2-212K24,4,348,PS,exp,32,↓,up,↑,0.6766213998198509,False,19,-1,0,7
Y2-S2-212K24,4,349,PS,exp,49,→,down,↓,0.11767730000428855,False,20,-1,0,7
Y2-S2-212K24,4,350,PS,exp,49,↑,up,↑,0.43391290004365146,True,21,-1,0,7
Y2-S2-212K24,4,351,PS,exp,41,←,right,→,0.3838004001881927,False,21,-1,0,7
Y2-S2-212K24,4,352,PS,exp,41,→,left,←,0.36732499999925494,False,22,-1,0,7
Y2-S2-212K24,4,353,PS,exp,47,↑,up,↑,0.7531948999967426,True,23,-1,0,7
Y2-S2-212K24,4,354,PS,exp,50,→,left,←,0.4670243998989463,False,23,-1,0,7
Y2-S2-212K24,4,355,PS,exp,25,↓,left,←,1.1215877998620272,False,24,-1,0,7
Y2-S2-212K24,4,356,PS,exp,27,↑,up,↑,0.5009000999853015,True,25,-1,0,7
Y2-S2-212K24,4,357,PS,exp,42,→,left,←,0.36778549989685416,False,25,-1,0,7
Y2-S2-212K24,4,358,PS,exp,43,←,left,←,0.4507039999589324,True,26,-1,0,7
Y2-S2-212K24,4,359,PS,exp,48,→,right,→,0.48419420002028346,True,26,-1,0,7
Y2-S2-212K24,4,360,PS,exp,50,↓,down,↓,0.6420442999806255,True,26,1,1,8
Y2-S2-212K24,4,361,PS,exp,35,↑,up,↑,0.4837297999765724,True,25,1,0,8
Y2-S2-212K24,4,362,PS,exp,46,←,right,→,0.5340142999775708,False,25,-1,1,9
Y2-S2-212K24,4,363,PS,exp,49,↑,up,↑,0.5004818001762033,True,26,-1,0,9
Y2-S2-212K24,4,364,PS,exp,29,→,right,→,0.6761513000819832,True,26,-1,0,9
Y2-S2-212K24,4,365,PS,exp,28,↑,up,↑,0.7594929998740554,True,26,1,1,10
Y2-S2-212K24,4,366,PS,exp,43,↓,left,←,0.4003604999743402,False,25,-1,1,11
Y2-S2-212K24,4,367,PS,exp,33,←,left,←,0.5173257999122143,True,26,-1,0,11
Y2-S2-212K24,4,368,PS,exp,36,→,right,→,0.467376499902457,True,26,-1,0,11
Y2-S2-212K24,4,369,PS,exp,47,↓,down,↓,1.3482609000056982,True,26,1,1,12
Y2-S2-212K24,4,370,PS,exp,43,↑,up,↑,0.4837527999188751,True,25,1,0,12
Y2-S2-212K24,4,371,PS,exp,46,→,right,→,0.6424124001059681,True,25,1,0,12
Y2-S2-212K24,4,372,PS,exp,27,↓,down,↓,0.923018999863416,True,25,1,0,12
Y2-S2-212K24,4,373,PS,exp,43,→,no_key,no_letter,-1.0,False,24,-1,1,13
Y2-S2-212K24,4,374,PS,exp,28,↑,left,←,0.4506249001715332,False,25,-1,0,13
Y2-S2-212K24,4,375,PS,exp,31,←,left,←,0.5170712999533862,True,26,-1,0,13
Y2-S2-212K24,4,376,PS,exp,29,↑,up,↑,0.41725789988413453,True,26,-1,0,13
Y2-S2-212K24,4,377,PS,exp,41,→,right,→,1.416704200208187,True,26,1,1,14
Y2-S2-212K24,4,378,PS,exp,42,↑,up,↑,0.500585800036788,True,25,1,0,14
Y2-S2-212K24,4,379,PS,exp,42,→,left,←,0.5173609000630677,False,25,-1,1,15
Y2-S2-212K24,4,380,PS,exp,25,←,right,→,0.5340181000065058,False,26,-1,0,15
Y2-S2-212K24,4,381,PS,exp,44,→,right,→,0.484104200033471,True,27,-1,0,15
Y2-S2-212K24,4,382,PS,exp,43,←,left,←,0.4338024999015033,True,27,-1,0,15
Y2-S2-212K24,4,383,PS,exp,32,→,left,←,0.3842982999049127,False,27,-1,0,15
Y2-S2-212K24,4,384,PS,exp,48,←,left,←,0.4173728998284787,True,28,-1,0,15
Y2-S2-212K24,4,385,PS,exp,32,↑,up,↑,1.2065867998171598,True,28,-1,0,15
Y2-S2-212K24,4,386,PS,exp,29,→,left,←,0.3351199999451637,False,28,-1,0,15
Y2-S2-212K24,4,387,PS,exp,43,←,left,←,0.3843362999614328,True,29,-1,0,15
Y2-S2-212K24,4,388,PS,exp,37,↑,up,↑,0.43429020000621676,True,29,-1,0,15
Y2-S2-212K24,4,389,PS,exp,45,→,right,→,0.38443479989655316,True,29,1,1,16
Y2-S2-212K24,5,390,PS,intra_train,35,↑,up,↑,0.5439885999076068,True,18,-,-,-
Y2-S2-212K24,5,391,PS,intra_train,39,↓,down,↓,0.6509140999987721,True,18,-,-,-
Y2-S2-212K24,5,392,PS,intra_train,31,←,up,↑,0.3839255999773741,False,18,-,-,-
Y2-S2-212K24,5,393,PS,intra_train,34,↓,down,↓,0.6440258000511676,True,18,-,-,-
Y2-S2-212K24,5,394,PS,intra_train,32,↑,up,↑,0.41691909986548126,True,18,-,-,-
Y2-S2-212K24,5,395,PS,exp,28,←,down,↓,0.5494311999063939,False,12,-1,0,0
Y2-S2-212K24,5,396,PS,exp,41,↓,down,↓,0.7241889999713749,True,13,-1,0,0
Y2-S2-212K24,5,397,PS,exp,49,←,left,←,0.44047400006093085,True,13,-1,0,0
Y2-S2-212K24,5,398,PS,exp,50,→,right,→,0.49757379991933703,True,13,1,1,1
Y2-S2-212K24,5,399,PS,exp,36,↓,down,↓,0.6660130999516696,True,12,1,0,1
Y2-S2-212K24,5,400,PS,exp,25,←,left,←,0.45256180013529956,True,12,1,0,1
Y2-S2-212K24,5,401,PS,exp,35,↓,up,↑,1.042102600215003,False,12,-1,1,2
Y2-S2-212K24,5,402,PS,exp,47,→,left,←,1.4180436998140067,False,13,-1,0,2
Y2-S2-212K24,5,403,PS,exp,34,←,up,↑,0.6969529998023063,False,14,-1,0,2
Y2-S2-212K24,5,404,PS,exp,36,→,up,↑,0.7335412998218089,False,15,-1,0,2
Y2-S2-212K24,5,405,PS,exp,41,←,left,←,0.9896494001150131,True,16,-1,0,2
Y2-S2-212K24,5,406,PS,exp,43,↓,up,↑,0.7546403000596911,False,16,-1,0,2
Y2-S2-212K24,5,407,PS,exp,27,→,right,→,0.2843005999457091,True,17,-1,0,2
Y2-S2-212K24,5,408,PS,exp,41,↑,left,←,0.4963406999595463,False,17,-1,0,2
Y2-S2-212K24,5,409,PS,exp,28,←,no_key,no_letter,-1.0,False,18,-1,0,2
Y2-S2-212K24,5,410,PS,exp,44,→,right,→,0.5735434999223799,True,19,-1,0,2
Y2-S2-212K24,5,411,PS,exp,40,↑,up,↑,0.5354520999826491,True,19,-1,0,2
Y2-S2-212K24,5,412,PS,exp,32,→,right,→,0.6399755999445915,True,19,1,1,3
Y2-S2-212K24,5,413,PS,exp,35,↑,up,↑,1.4902389000635594,True,18,1,0,3
Y2-S2-212K24,5,414,PS,exp,28,→,right,→,0.4802749000955373,True,18,1,0,3
Y2-S2-212K24,5,415,PS,exp,33,↓,up,↑,0.9189140000380576,False,18,-1,1,4
Y2-S2-212K24,5,416,PS,exp,27,→,right,→,0.5588859999552369,True,19,-1,0,4
Y2-S2-212K24,5,417,PS,exp,31,←,left,←,0.4341372000053525,True,19,-1,0,4
Y2-S2-212K24,5,418,PS,exp,35,↑,right,→,0.3839575001038611,False,19,-1,0,4
Y2-S2-212K24,5,419,PS,exp,40,←,up,↑,0.4505119000095874,False,20,-1,0,4
Y2-S2-212K24,5,420,PS,exp,49,↑,up,↑,1.24832300003618,True,21,-1,0,4
Y2-S2-212K24,5,421,PS,exp,43,↓,down,↓,0.7911102999933064,True,21,-1,0,4
Y2-S2-212K24,5,422,PS,exp,34,←,left,←,0.41778150014579296,True,21,1,1,5
Y2-S2-212K24,5,423,PS,exp,27,→,left,←,0.3172558001242578,False,20,-1,1,6
Y2-S2-212K24,5,424,PS,exp,27,↑,up,↑,1.2037261000368744,True,21,-1,0,6
Y2-S2-212K24,5,425,PS,exp,27,→,right,→,0.5499683998059481,True,21,-1,0,6
Y2-S2-212K24,5,426,PS,exp,35,↓,down,↓,1.3281103000044823,True,21,1,1,7
Y2-S2-212K24,5,427,PS,exp,40,→,right,→,0.5366248998325318,True,20,1,0,7
Y2-S2-212K24,5,428,PS,exp,35,↓,down,↓,0.766451699892059,True,20,1,0,7
Y2-S2-212K24,5,429,PS,exp,46,→,right,→,0.6177021998446435,True,20,1,0,7
Y2-S2-212K24,5,430,PS,exp,30,↓,down,↓,1.5500622999388725,True,19,1,0,7
Y2-S2-212K24,5,431,PS,exp,36,←,up,↑,1.40978330001235,False,19,-1,1,8
Y2-S2-212K24,5,432,PS,exp,45,↑,no_key,no_letter,-1.0,False,20,-1,0,8
Y2-S2-212K24,5,433,PS,exp,49,↓,no_key,no_letter,-1.0,False,21,-1,0,8
Y2-S2-212K24,5,434,PS,exp,33,↑,up,↑,0.6749497000128031,True,22,-1,0,8
Y2-S2-212K24,5,435,PS,exp,31,↓,up,↑,0.4340766000095755,False,22,-1,0,8
Y2-S2-212K24,5,436,PS,exp,39,↑,up,↑,0.38416479993611574,True,23,-1,0,8
Y2-S2-212K24,5,437,PS,exp,44,↓,down,↓,1.3095879999455065,True,23,-1,0,8
Y2-S2-212K24,5,438,PS,exp,44,→,right,→,0.5543895000591874,True,23,1,1,9
Y2-S2-212K24,5,439,PS,exp,36,↓,down,↓,0.7024012999609113,True,22,1,0,9
Y2-S2-212K24,5,440,PS,exp,42,→,right,→,0.4670697001274675,True,22,1,0,9
Y2-S2-212K24,5,441,PS,exp,48,↑,up,↑,0.467317899921909,True,22,1,0,9
Y2-S2-212K24,5,442,PS,exp,28,→,right,→,0.4507869000080973,True,21,1,0,9
Y2-S2-212K24,5,443,PS,exp,39,↑,left,←,0.28445539996027946,False,21,-1,1,10
Y2-S2-212K24,5,444,PS,exp,44,→,right,→,0.4336879998445511,True,22,-1,0,10
Y2-S2-212K24,5,445,PS,exp,39,←,up,↑,0.9973138999193907,False,22,-1,0,10
Y2-S2-212K24,5,446,PS,exp,41,↑,up,↑,0.6536638999823481,True,23,-1,0,10
Y2-S2-212K24,5,447,PS,exp,31,→,right,→,0.4837313999887556,True,23,-1,0,10
Y2-S2-212K24,5,448,PS,exp,42,↓,up,↑,0.3672291000839323,False,23,-1,0,10
Y2-S2-212K24,5,449,PS,exp,40,↑,up,↑,0.6114101000130177,True,24,-1,0,10
Y2-S2-212K24,5,450,PS,exp,26,←,left,←,0.5341023001819849,True,24,-1,0,10
Y2-S2-212K24,5,451,PS,exp,33,↓,down,↓,0.6013693998102099,True,24,1,1,11
Y2-S2-212K24,5,452,PS,exp,44,↑,up,↑,0.3839773000217974,True,23,1,0,11
Y2-S2-212K24,5,453,PS,exp,25,←,left,←,0.45055850013159215,True,23,1,0,11
Y2-S2-212K24,5,454,PS,exp,28,↑,left,←,1.3379068998619914,False,23,-1,1,12
Y2-S2-212K24,5,455,PS,exp,26,↓,down,↓,0.7134602000005543,True,24,-1,0,12
Y2-S2-212K24,5,456,PS,exp,40,←,right,→,0.8032132999505848,False,24,-1,0,12
Y2-S2-212K24,5,457,PS,exp,31,↓,down,↓,0.6274139999877661,True,25,-1,0,12
Y2-S2-212K24,5,458,PS,exp,50,←,left,←,1.3829688001424074,True,25,-1,0,12
Y2-S2-212K24,5,459,PS,exp,44,↓,down,↓,0.8850463998969644,True,25,1,1,13
Y2-S2-212K24,5,460,PS,exp,41,←,left,←,0.4839546999428421,True,24,1,0,13
Y2-S2-212K24,5,461,PS,exp,37,↓,down,↓,0.626806000014767,True,24,1,0,13
Y2-S2-212K24,5,462,PS,exp,45,→,right,→,0.5337197000626475,True,24,1,0,13
Y2-S2-212K24,5,463,PS,exp,35,←,left,←,0.417155500035733,True,23,1,0,13
Y2-S2-212K24,5,464,PS,exp,46,→,right,→,0.517168799880892,True,23,1,0,13
Y2-S2-212K24,5,465,PS,exp,49,↓,down,↓,0.5945123999845237,True,23,1,0,13
Y2-S2-212K24,5,466,PS,exp,31,→,up,↑,0.545505499932915,False,22,-1,1,14
Y2-S2-212K24,5,467,PS,exp,43,←,left,←,0.9428765999618918,True,23,-1,0,14
Y2-S2-212K24,5,468,PS,exp,25,↓,down,↓,0.5008189999498427,True,23,-1,0,14
Y2-S2-212K24,5,469,PS,exp,50,←,up,↑,0.6301311000715941,False,23,-1,0,14
Y2-S2-212K24,5,470,PS,exp,44,↓,down,↓,0.5865770000964403,True,24,-1,0,14
Y2-S2-212K24,5,471,PS,exp,37,→,right,→,0.6561900000087917,True,24,-1,0,14
Y2-S2-212K24,5,472,PS,exp,28,↓,down,↓,0.669551300117746,True,24,1,1,15
Y2-S2-212K24,5,473,PS,exp,38,←,left,←,0.6801495999097824,True,23,1,0,15
Y2-S2-212K24,5,474,PS,exp,30,↓,down,↓,0.6462225001305342,True,23,1,0,15
Y2-S2-212K24,5,475,PS,exp,37,←,left,←,0.38372000004164875,True,23,1,0,15
Y2-S2-212K24,5,476,PS,exp,48,↑,up,↑,0.45082339993678033,True,22,1,0,15
Y2-S2-212K24,5,477,PS,exp,25,←,left,←,0.5541618999559432,True,22,1,0,15
Y2-S2-212K24,5,478,PS,exp,33,→,right,→,0.4837255000602454,True,22,1,0,15
Y2-S2-212K24,5,479,PS,exp,38,↑,up,↑,0.7070679001044482,True,21,1,0,15
Y2-S2-212K24,5,480,PS,exp,34,←,right,→,1.1368787998799235,False,21,-1,1,16
Y2-S2-212K24,6,481,AS,intra_train,26,↓,right,→,0.4341935000848025,False,33,-,-,-
Y2-S2-212K24,6,482,AS,intra_train,38,→,left,←,0.5339281000196934,False,33,-,-,-
Y2-S2-212K24,6,483,AS,intra_train,34,↑,up,↑,0.46755439997650683,True,33,-,-,-
Y2-S2-212K24,6,484,AS,intra_train,50,→,right,→,0.6174045000225306,True,33,-,-,-
Y2-S2-212K24,6,485,AS,intra_train,40,←,right,→,0.6340522998943925,False,33,-,-,-
Y2-S2-212K24,6,486,AS,exp,34,↓,down,↓,0.8365704999305308,True,22,0,0,0
Y2-S2-212K24,6,487,AS,exp,35,→,right,→,0.48386180005036294,True,22,0,0,0
Y2-S2-212K24,6,488,AS,exp,45,←,left,←,0.4671879999805242,True,22,1,0,0
Y2-S2-212K24,6,489,AS,exp,36,→,right,→,0.4840369001030922,True,21,1,0,0
Y2-S2-212K24,6,490,AS,exp,35,↑,down,↓,1.317464099964127,False,21,-1,1,1
Y2-S2-212K24,6,491,AS,exp,45,←,left,←,1.1027646001894027,True,22,-1,0,1
Y2-S2-212K24,6,492,AS,exp,46,↑,left,←,0.017779699992388487,False,22,-1,0,1
Y2-S2-212K24,6,493,AS,exp,28,←,up,↑,0.3009925000369549,False,23,-1,0,1
Y2-S2-212K24,6,494,AS,exp,26,→,right,→,0.18437579995952547,True,24,-1,0,1
Y2-S2-212K24,6,495,AS,exp,27,↓,right,→,0.31786249997094274,False,24,-1,0,1
Y2-S2-212K24,6,496,AS,exp,27,→,right,→,0.46724219992756844,True,25,-1,0,1
Y2-S2-212K24,6,497,AS,exp,39,←,left,←,1.3550217000301927,True,25,-1,0,1
Y2-S2-212K24,6,498,AS,exp,33,↑,up,↑,0.7258140998892486,True,25,1,1,2
Y2-S2-212K24,6,499,AS,exp,44,↓,right,→,0.21796349994838238,False,24,-1,1,3
Y2-S2-212K24,6,500,AS,exp,37,→,right,→,1.2485185998957604,True,25,-1,0,3
Y2-S2-212K24,6,501,AS,exp,35,←,left,←,0.46758920000866055,True,25,-1,0,3
Y2-S2-212K24,6,502,AS,exp,34,↓,up,↑,0.28445590008050203,False,25,-1,0,3
Y2-S2-212K24,6,503,AS,exp,40,→,right,→,0.21779890009202063,True,26,-1,0,3
Y2-S2-212K24,6,504,AS,exp,37,↓,down,↓,0.847158000105992,True,26,-1,0,3
Y2-S2-212K24,6,505,AS,exp,26,←,left,←,0.5342015998903662,True,26,1,1,4
Y2-S2-212K24,6,506,AS,exp,46,↓,down,↓,0.806324299890548,True,25,1,0,4
Y2-S2-212K24,6,507,AS,exp,48,←,left,←,0.48452880000695586,True,25,1,0,4
Y2-S2-212K24,6,508,AS,exp,32,↑,right,→,0.5173452999442816,False,25,-1,1,5
Y2-S2-212K24,6,509,AS,exp,31,→,left,←,0.5172744998708367,False,26,-1,0,5
Y2-S2-212K24,6,510,AS,exp,39,↑,up,↑,0.5840495999436826,True,27,-1,0,5
Y2-S2-212K24,6,511,AS,exp,50,↓,up,↑,0.550461599836126,False,27,-1,0,5
Y2-S2-212K24,6,512,AS,exp,50,→,right,→,0.41759149986319244,True,28,-1,0,5
Y2-S2-212K24,6,513,AS,exp,47,↓,down,↓,0.7794178000185639,True,28,-1,0,5
Y2-S2-212K24,6,514,AS,exp,25,→,right,→,0.36825700011104345,True,28,1,1,6
Y2-S2-212K24,6,515,AS,exp,48,↑,up,↑,0.6614832999184728,True,27,1,0,6
Y2-S2-212K24,6,516,AS,exp,42,→,right,→,0.4176056000869721,True,27,1,0,6
Y2-S2-212K24,6,517,AS,exp,25,←,left,←,0.4506530000362545,True,27,1,0,6
Y2-S2-212K24,6,518,AS,exp,31,→,left,←,0.5339902997948229,False,26,-1,1,7
Y2-S2-212K24,6,519,AS,exp,26,↑,right,→,0.41749650007113814,False,27,-1,0,7
Y2-S2-212K24,6,520,AS,exp,34,←,left,←,0.7416553001385182,True,28,-1,0,7
Y2-S2-212K24,6,521,AS,exp,31,→,right,→,0.4672054999973625,True,28,-1,0,7
Y2-S2-212K24,6,522,AS,exp,39,←,left,←,0.533670200034976,True,28,1,1,8
Y2-S2-212K24,6,523,AS,exp,45,↑,up,↑,1.1679116999730468,True,27,1,0,8
Y2-S2-212K24,6,524,AS,exp,49,↓,down,↓,0.5838599000126123,True,27,1,0,8
Y2-S2-212K24,6,525,AS,exp,32,→,right,→,0.4837955997791141,True,27,1,0,8
Y2-S2-212K24,6,526,AS,exp,40,↑,left,←,0.450688999844715,False,26,-1,1,9
Y2-S2-212K24,6,527,AS,exp,47,↓,down,↓,0.5502225998789072,True,27,-1,0,9
Y2-S2-212K24,6,528,AS,exp,37,↑,up,↑,1.1356156999245286,True,27,-1,0,9
Y2-S2-212K24,6,529,AS,exp,43,←,left,←,0.725443399976939,True,27,1,1,10
Y2-S2-212K24,6,530,AS,exp,34,→,right,→,0.48384459991939366,True,26,1,0,10
Y2-S2-212K24,6,531,AS,exp,36,←,left,←,0.48444420006126165,True,26,1,0,10
Y2-S2-212K24,6,532,AS,exp,32,→,right,→,0.41689360002055764,True,26,1,0,10
Y2-S2-212K24,6,533,AS,exp,44,←,left,←,0.6173618000466377,True,25,1,0,10
Y2-S2-212K24,6,534,AS,exp,36,→,right,→,1.2680750999134034,True,25,1,0,10
Y2-S2-212K24,6,535,AS,exp,48,↓,up,↑,0.5909514999948442,False,25,-1,1,11
Y2-S2-212K24,6,536,AS,exp,25,→,right,→,1.303160300012678,True,26,-1,0,11
Y2-S2-212K24,6,537,AS,exp,47,←,right,→,0.5009256000630558,False,26,-1,0,11
Y2-S2-212K24,6,538,AS,exp,28,↓,down,↓,0.8193741999566555,True,27,-1,0,11
Y2-S2-212K24,6,539,AS,exp,30,←,left,←,0.658084399998188,True,27,-1,0,11
Y2-S2-212K24,6,540,AS,exp,30,↓,down,↓,0.6890683998353779,True,27,1,1,12
Y2-S2-212K24,6,541,AS,exp,48,→,right,→,0.4508005001116544,True,26,1,0,12
Y2-S2-212K24,6,542,AS,exp,31,↑,up,↑,0.5007878998294473,True,26,1,0,12
Y2-S2-212K24,6,543,AS,exp,43,→,right,→,0.7820409000851214,True,26,1,0,12
Y2-S2-212K24,6,544,AS,exp,39,↓,down,↓,0.7848036999348551,True,25,1,0,12
Y2-S2-212K24,6,545,AS,exp,46,←,left,←,0.46752679999917746,True,25,1,0,12
Y2-S2-212K24,6,546,AS,exp,45,↓,down,↓,0.6849096000660211,True,25,1,0,12
Y2-S2-212K24,6,547,AS,exp,35,↑,up,↑,0.4174174000509083,True,24,1,0,12
Y2-S2-212K24,6,548,AS,exp,41,↓,down,↓,0.5345296999439597,True,24,1,0,12
Y2-S2-212K24,6,549,AS,exp,46,↑,up,↑,0.41785229998640716,True,24,1,0,12
Y2-S2-212K24,6,550,AS,exp,48,←,right,→,1.047285399865359,False,23,-1,1,13
Y2-S2-212K24,6,551,AS,exp,26,↓,down,↓,0.6680707999039441,True,24,-1,0,13
Y2-S2-212K24,6,552,AS,exp,28,→,right,→,0.7179521999787539,True,24,-1,0,13
Y2-S2-212K24,6,553,AS,exp,44,↑,left,←,0.4173858999274671,False,24,-1,0,13
Y2-S2-212K24,6,554,AS,exp,35,←,no_key,no_letter,-1.0,False,25,-1,0,13
Y2-S2-212K24,6,555,AS,exp,44,↑,up,↑,0.2010422998573631,True,26,-1,0,13
Y2-S2-212K24,6,556,AS,exp,28,↓,down,↓,0.6600456000305712,True,26,-1,0,13
Y2-S2-212K24,6,557,AS,exp,26,→,left,←,0.4170017000287771,False,26,-1,0,13
Y2-S2-212K24,6,558,AS,exp,48,↓,right,→,0.4349148999899626,False,27,-1,0,13
Y2-S2-212K24,6,559,AS,exp,33,↑,up,↑,0.6003964999690652,True,28,-1,0,13
Y2-S2-212K24,6,560,AS,exp,48,←,right,→,0.8699419000186026,False,28,-1,0,13
Y2-S2-212K24,6,561,AS,exp,50,→,right,→,0.5674911001697183,True,29,-1,0,13
Y2-S2-212K24,6,562,AS,exp,46,←,left,←,0.45035280007869005,True,29,-1,0,13
Y2-S2-212K24,6,563,AS,exp,43,↓,down,↓,0.8182969000190496,True,29,1,1,14
Y2-S2-212K24,6,564,AS,exp,42,→,right,→,0.9054872000124305,True,28,1,0,14
Y2-S2-212K24,6,565,AS,exp,25,←,left,←,0.8405452000442892,True,28,1,0,14
Y2-S2-212K24,6,566,AS,exp,27,↓,down,↓,0.9132672001142055,True,28,1,0,14
Y2-S2-212K24,6,567,AS,exp,46,←,left,←,0.48423660011030734,True,27,1,0,14
Y2-S2-212K24,6,568,AS,exp,31,↑,up,↑,0.5840254998765886,True,27,1,0,14
Y2-S2-212K24,6,569,AS,exp,26,↓,down,↓,0.5170878998469561,True,27,1,0,14
Y2-S2-212K24,6,570,AS,exp,32,→,right,→,0.3344409998971969,True,26,1,0,14
Y2-S2-212K24,6,571,AS,exp,40,←,left,←,0.4670915000606328,True,26,1,0,14
Y2-S2-212K24,6,572,AS,exp,37,↓,down,↓,0.6559158999007195,True,26,1,0,14
Y2-S2-212K24,6,573,AS,exp,48,↑,up,↑,0.46708979993127286,True,25,1,0,14
Y2-S2-212K24,6,574,AS,exp,39,↓,right,→,0.5506541999056935,False,25,-1,1,15
Y2-S2-212K24,6,575,AS,exp,26,→,left,←,1.6732788002118468,False,26,-1,0,15
Y2-S2-212K24,6,576,AS,exp,36,←,left,←,0.5839670998975635,True,27,-1,0,15
Y2-S2-212K24,6,577,AS,exp,28,↓,down,↓,0.8084686000365764,True,27,-1,0,15
Y2-S2-212K24,6,578,AS,exp,28,↑,up,↑,0.8689200999215245,True,27,1,1,16
Y2-S2-212K24,7,579,AS,intra_train,33,←,left,←,0.6509320999030024,True,33,-,-,-
Y2-S2-212K24,7,580,AS,intra_train,35,→,right,→,0.517142100026831,True,33,-,-,-
Y2-S2-212K24,7,581,AS,intra_train,46,↑,up,↑,0.5505278999917209,True,33,-,-,-
Y2-S2-212K24,7,582,AS,intra_train,50,←,left,←,0.7198640999849886,True,33,-,-,-
Y2-S2-212K24,7,583,AS,intra_train,39,↓,down,↓,1.5616826000623405,True,33,-,-,-
Y2-S2-212K24,7,584,AS,exp,44,→,right,→,0.7056315001100302,True,22,0,0,0
Y2-S2-212K24,7,585,AS,exp,49,↑,up,↑,0.730119900079444,True,22,0,0,0
Y2-S2-212K24,7,586,AS,exp,40,←,left,←,0.5736608000006527,True,22,1,0,0
Y2-S2-212K24,7,587,AS,exp,48,↑,up,↑,0.519876099890098,True,21,1,0,0
Y2-S2-212K24,7,588,AS,exp,26,←,left,←,0.634244600078091,True,21,1,0,0
Y2-S2-212K24,7,589,AS,exp,34,→,right,→,0.5947227999567986,True,21,1,0,0
Y2-S2-212K24,7,590,AS,exp,33,↓,down,↓,0.5224808000493795,True,20,1,0,0
Y2-S2-212K24,7,591,AS,exp,25,↑,up,↑,0.4006467000581324,True,20,1,0,0
Y2-S2-212K24,7,592,AS,exp,28,→,right,→,0.4005426000803709,True,20,1,0,0
Y2-S2-212K24,7,593,AS,exp,49,↑,up,↑,0.6451598999556154,True,19,1,0,0
Y2-S2-212K24,7,594,AS,exp,28,←,up,↑,0.4006874000187963,False,19,-1,1,1
Y2-S2-212K24,7,595,AS,exp,42,↑,up,↑,0.2847022998612374,True,20,-1,0,1
Y2-S2-212K24,7,596,AS,exp,49,↓,left,←,0.28452159999869764,False,20,-1,0,1
Y2-S2-212K24,7,597,AS,exp,47,→,left,←,1.8197637000121176,False,21,-1,0,1
Y2-S2-212K24,7,598,AS,exp,26,←,up,↑,1.8175739001017064,False,22,-1,0,1
Y2-S2-212K24,7,599,AS,exp,41,↓,down,↓,0.9298181000631303,True,23,-1,0,1
Y2-S2-212K24,7,600,AS,exp,32,↑,up,↑,0.6254945998080075,True,23,-1,0,1
Y2-S2-212K24,7,601,AS,exp,26,↓,down,↓,0.7377120000310242,True,23,1,1,2
Y2-S2-212K24,7,602,AS,exp,48,↑,up,↑,0.9722922998480499,True,22,1,0,2
Y2-S2-212K24,7,603,AS,exp,41,→,right,→,0.765344399958849,True,22,1,0,2
Y2-S2-212K24,7,604,AS,exp,34,←,no_key,no_letter,-1.0,False,22,-1,1,3
Y2-S2-212K24,7,605,AS,exp,25,→,right,→,0.6729971999302506,True,23,-1,0,3
Y2-S2-212K24,7,606,AS,exp,31,↓,down,↓,0.7797936000861228,True,23,-1,0,3
Y2-S2-212K24,7,607,AS,exp,37,←,right,→,0.5576801002025604,False,23,-1,0,3
Y2-S2-212K24,7,608,AS,exp,38,→,right,→,0.5338265001773834,True,24,-1,0,3
Y2-S2-212K24,7,609,AS,exp,40,↑,up,↑,0.9355923999100924,True,24,-1,0,3
Y2-S2-212K24,7,610,AS,exp,48,←,left,←,1.1622087999712676,True,24,1,1,4
Y2-S2-212K24,7,611,AS,exp,37,→,right,→,0.6541046001948416,True,23,1,0,4
Y2-S2-212K24,7,612,AS,exp,32,←,up,↑,1.0047728999052197,False,23,-1,1,5
Y2-S2-212K24,7,613,AS,exp,35,↓,down,↓,0.6737220000941306,True,24,-1,0,5
Y2-S2-212K24,7,614,AS,exp,47,←,left,←,0.5338181999977678,True,24,-1,0,5
Y2-S2-212K24,7,615,AS,exp,43,→,right,→,0.5836806998122483,True,24,1,1,6
Y2-S2-212K24,7,616,AS,exp,39,↑,up,↑,0.4837988999206573,True,23,1,0,6
Y2-S2-212K24,7,617,AS,exp,27,→,right,→,0.41748660011217,True,23,1,0,6
Y2-S2-212K24,7,618,AS,exp,38,↓,up,↑,0.9348961999639869,False,23,-1,1,7
Y2-S2-212K24,7,619,AS,exp,44,→,right,→,0.5746534001082182,True,24,-1,0,7
Y2-S2-212K24,7,620,AS,exp,39,↑,right,→,0.5173549999017268,False,24,-1,0,7
Y2-S2-212K24,7,621,AS,exp,31,↓,down,↓,0.533963399939239,True,25,-1,0,7
Y2-S2-212K24,7,622,AS,exp,32,←,left,←,0.4172128001227975,True,25,-1,0,7
Y2-S2-212K24,7,623,AS,exp,34,↑,up,↑,1.0419769000727683,True,25,1,1,8
Y2-S2-212K24,7,624,AS,exp,29,←,left,←,0.6134216000791639,True,24,1,0,8
Y2-S2-212K24,7,625,AS,exp,42,↑,up,↑,0.5009767999872565,True,24,1,0,8
Y2-S2-212K24,7,626,AS,exp,33,↓,down,↓,0.5175509999971837,True,24,1,0,8
Y2-S2-212K24,7,627,AS,exp,37,←,left,←,0.4338947001378983,True,23,1,0,8
Y2-S2-212K24,7,628,AS,exp,26,↑,up,↑,0.4007385999429971,True,23,1,0,8
Y2-S2-212K24,7,629,AS,exp,37,→,left,←,0.9674130999483168,False,23,-1,1,9
Y2-S2-212K24,7,630,AS,exp,31,↑,up,↑,0.5339046998415142,True,24,-1,0,9
Y2-S2-212K24,7,631,AS,exp,30,→,right,→,0.43402649997733533,True,24,-1,0,9
Y2-S2-212K24,7,632,AS,exp,29,↓,down,↓,1.3380778001155704,True,24,1,1,10
Y2-S2-212K24,7,633,AS,exp,47,←,left,←,0.6957491999492049,True,23,1,0,10
Y2-S2-212K24,7,634,AS,exp,50,↓,up,↑,0.7006524000316858,False,23,-1,1,11
Y2-S2-212K24,7,635,AS,exp,41,←,right,→,0.2674273999873549,False,24,-1,0,11
Y2-S2-212K24,7,636,AS,exp,28,↑,up,↑,0.41729100001975894,True,25,-1,0,11
Y2-S2-212K24,7,637,AS,exp,42,←,left,←,0.40047500003129244,True,25,-1,0,11
Y2-S2-212K24,7,638,AS,exp,29,→,right,→,0.5340094999410212,True,25,1,1,12
Y2-S2-212K24,7,639,AS,exp,36,↓,down,↓,0.5172198000364006,True,24,1,0,12
Y2-S2-212K24,7,640,AS,exp,30,←,left,←,0.5005178998690099,True,24,1,0,12
Y2-S2-212K24,7,641,AS,exp,29,↓,down,↓,1.9740657000802457,True,24,1,0,12
Y2-S2-212K24,7,642,AS,exp,26,←,left,←,0.5009000999853015,True,23,1,0,12
Y2-S2-212K24,7,643,AS,exp,30,→,up,↑,0.01813929993659258,False,23,-1,1,13
Y2-S2-212K24,7,644,AS,exp,37,↑,up,↑,0.46746259997598827,True,24,-1,0,13
Y2-S2-212K24,7,645,AS,exp,41,←,up,↑,0.21761839999817312,False,24,-1,0,13
Y2-S2-212K24,7,646,AS,exp,48,↑,up,↑,0.18430440011434257,True,25,-1,0,13
Y2-S2-212K24,7,647,AS,exp,28,←,left,←,0.4172624999191612,True,25,-1,0,13
Y2-S2-212K24,7,648,AS,exp,29,↑,left,←,0.4673447001259774,False,25,-1,0,13
Y2-S2-212K24,7,649,AS,exp,46,→,right,→,0.41704699979163706,True,26,-1,0,13
Y2-S2-212K24,7,650,AS,exp,42,↓,down,↓,0.6098651001229882,True,26,-1,0,13
Y2-S2-212K24,7,651,AS,exp,36,↑,up,↑,0.5173318998422474,True,26,1,1,14
Y2-S2-212K24,7,652,AS,exp,41,→,right,→,0.43396940012462437,True,25,1,0,14
Y2-S2-212K24,7,653,AS,exp,46,←,left,←,1.2258697000797838,True,25,1,0,14
Y2-S2-212K24,7,654,AS,exp,50,→,right,→,0.38450169982388616,True,25,1,0,14
Y2-S2-212K24,7,655,AS,exp,43,↓,down,↓,0.7106653999071568,True,24,1,0,14
Y2-S2-212K24,7,656,AS,exp,48,←,left,←,1.3565764999948442,True,24,1,0,14
Y2-S2-212K24,7,657,AS,exp,41,↑,up,↑,1.1787713998928666,True,24,1,0,14
Y2-S2-212K24,7,658,AS,exp,37,→,right,→,0.5668814000673592,True,23,1,0,14
Y2-S2-212K24,7,659,AS,exp,32,←,left,←,0.41731150005944073,True,23,1,0,14
Y2-S2-212K24,7,660,AS,exp,36,↑,up,↑,0.6348151999991387,True,23,1,0,14
Y2-S2-212K24,7,661,AS,exp,28,↓,down,↓,0.4004476999398321,True,22,1,0,14
Y2-S2-212K24,7,662,AS,exp,31,→,right,→,0.483968400163576,True,22,1,0,14
Y2-S2-212K24,7,663,AS,exp,47,←,left,←,1.0351988000329584,True,22,1,0,14
Y2-S2-212K24,7,664,AS,exp,32,→,left,←,0.5491281000431627,False,21,-1,1,15
Y2-S2-212K24,7,665,AS,exp,40,↓,up,↑,1.034732700092718,False,22,-1,0,15
Y2-S2-212K24,7,666,AS,exp,34,→,left,←,0.41710199997760355,False,23,-1,0,15
Y2-S2-212K24,7,667,AS,exp,46,←,left,←,0.6449320998508483,True,24,-1,0,15
Y2-S2-212K24,7,668,AS,exp,27,→,right,→,0.517162200063467,True,24,-1,0,15
Y2-S2-212K24,7,669,AS,exp,26,←,left,←,0.602641599951312,True,24,1,1,16
Y2-S2-212K24,8,670,PS,intra_train,50,↓,up,↑,1.0871852999553084,False,18,-,-,-
Y2-S2-212K24,8,671,PS,intra_train,40,→,up,↑,0.6695954999886453,False,18,-,-,-
Y2-S2-212K24,8,672,PS,intra_train,25,↑,no_key,no_letter,-1.0,False,18,-,-,-
Y2-S2-212K24,8,673,PS,intra_train,38,→,right,→,0.5280420000199229,True,18,-,-,-
Y2-S2-212K24,8,674,PS,intra_train,49,↑,up,↑,0.5199123998172581,True,18,-,-,-
Y2-S2-212K24,8,675,PS,exp,25,↓,up,↑,0.6569485000800341,False,12,-1,0,0
Y2-S2-212K24,8,676,PS,exp,47,↑,left,←,0.7186737000010908,False,13,-1,0,0
Y2-S2-212K24,8,677,PS,exp,38,↓,up,↑,0.5229692999273539,False,14,-1,0,0
Y2-S2-212K24,8,678,PS,exp,25,→,up,↑,0.6857642999384552,False,15,-1,0,0
Y2-S2-212K24,8,679,PS,exp,41,←,left,←,0.31736059999093413,True,16,-1,0,0
Y2-S2-212K24,8,680,PS,exp,29,↑,left,←,0.7471379002090544,False,16,-1,0,0
Y2-S2-212K24,8,681,PS,exp,30,↓,up,↑,0.23449079995043576,False,17,-1,0,0
Y2-S2-212K24,8,682,PS,exp,29,↑,right,→,0.7190726001281291,False,18,-1,0,0
Y2-S2-212K24,8,683,PS,exp,50,↓,down,↓,0.7628754999022931,True,19,-1,0,0
Y2-S2-212K24,8,684,PS,exp,32,↑,no_key,no_letter,-1.0,False,19,-1,0,0
Y2-S2-212K24,8,685,PS,exp,44,→,left,←,0.11773940012790263,False,20,-1,0,0
Y2-S2-212K24,8,686,PS,exp,47,↑,left,←,0.06779529992491007,False,21,-1,0,0
Y2-S2-212K24,8,687,PS,exp,42,←,up,↑,0.03412190009839833,False,22,-1,0,0
Y2-S2-212K24,8,688,PS,exp,41,↓,right,→,0.03450180008076131,False,23,-1,0,0
Y2-S2-212K24,8,689,PS,exp,34,↑,down,↓,0.21780070010572672,False,24,-1,0,0
Y2-S2-212K24,8,690,PS,exp,25,↓,left,←,0.3343976999167353,False,25,-1,0,0
Y2-S2-212K24,8,691,PS,exp,29,→,up,↑,0.38457460002973676,False,26,-1,0,0
Y2-S2-212K24,8,692,PS,exp,27,←,up,↑,0.6902295998297632,False,27,-1,0,0
Y2-S2-212K24,8,693,PS,exp,42,↓,down,↓,0.5007101998198777,True,28,-1,0,0
Y2-S2-212K24,8,694,PS,exp,50,←,up,↑,0.10101470001973212,False,28,-1,0,0
Y2-S2-212K24,8,695,PS,exp,41,↑,right,→,0.15127209993079305,False,29,-1,0,0
Y2-S2-212K24,8,696,PS,exp,32,←,up,↑,0.034384500002488494,False,30,-1,0,0
Y2-S2-212K24,8,697,PS,exp,47,↑,up,↑,0.5004193000495434,True,31,-1,0,0
Y2-S2-212K24,8,698,PS,exp,36,←,left,←,0.13451910018920898,True,31,-1,0,0
Y2-S2-212K24,8,699,PS,exp,28,↑,right,→,0.46738140005618334,False,31,-1,0,0
Y2-S2-212K24,8,700,PS,exp,49,→,up,↑,0.4679171999450773,False,32,-1,0,0
Y2-S2-212K24,8,701,PS,exp,34,↑,right,→,0.4512571000959724,False,33,-1,0,0
Y2-S2-212K24,8,702,PS,exp,43,←,up,↑,1.2667227999772877,False,34,-1,0,0
Y2-S2-212K24,8,703,PS,exp,49,↑,left,←,0.30117359990254045,False,35,-1,0,0
Y2-S2-212K24,8,704,PS,exp,39,→,up,↑,0.8604158998932689,False,36,-1,0,0
Y2-S2-212K24,8,705,PS,exp,34,↓,up,↑,0.5511163999326527,False,37,-1,0,0
Y2-S2-212K24,8,706,PS,exp,46,↑,up,↑,0.6013422000687569,True,38,-1,0,0
Y2-S2-212K24,8,707,PS,exp,32,←,left,←,0.46731440001167357,True,38,-1,0,0
Y2-S2-212K24,8,708,PS,exp,30,→,right,→,0.3677987998817116,True,38,1,1,1
Y2-S2-212K24,8,709,PS,exp,34,←,left,←,0.6172527999151498,True,37,1,0,1
Y2-S2-212K24,8,710,PS,exp,42,↓,down,↓,0.7174913000781089,True,37,1,0,1
Y2-S2-212K24,8,711,PS,exp,30,←,left,←,0.5180403999984264,True,37,1,0,1
Y2-S2-212K24,8,712,PS,exp,26,↑,up,↑,0.534585100132972,True,36,1,0,1
Y2-S2-212K24,8,713,PS,exp,43,←,right,→,0.3176971001084894,False,36,-1,1,2
Y2-S2-212K24,8,714,PS,exp,40,→,right,→,0.5346649000421166,True,37,-1,0,2
Y2-S2-212K24,8,715,PS,exp,30,↓,down,↓,0.6005964998621494,True,37,-1,0,2
Y2-S2-212K24,8,716,PS,exp,44,←,up,↑,0.4008449998218566,False,37,-1,0,2
Y2-S2-212K24,8,717,PS,exp,47,↓,down,↓,0.7673922998365015,True,38,-1,0,2
Y2-S2-212K24,8,718,PS,exp,26,←,left,←,0.484496199991554,True,38,-1,0,2
Y2-S2-212K24,8,719,PS,exp,36,↑,up,↑,0.41739630000665784,True,38,1,1,3
Y2-S2-212K24,8,720,PS,exp,38,←,left,←,0.41802529990673065,True,37,1,0,3
Y2-S2-212K24,8,721,PS,exp,46,↓,down,↓,0.6175214999821037,True,37,1,0,3
Y2-S2-212K24,8,722,PS,exp,35,←,left,←,0.5513740999158472,True,37,1,0,3
Y2-S2-212K24,8,723,PS,exp,33,→,right,→,0.5343647999688983,True,36,1,0,3
Y2-S2-212K24,8,724,PS,exp,26,↓,down,↓,0.634529999922961,True,36,1,0,3
Y2-S2-212K24,8,725,PS,exp,41,←,left,←,0.5510067997965962,True,36,1,0,3
Y2-S2-212K24,8,726,PS,exp,29,→,right,→,0.6171508999541402,True,35,1,0,3
Y2-S2-212K24,8,727,PS,exp,41,↑,up,↑,0.5850513000041246,True,35,1,0,3
Y2-S2-212K24,8,728,PS,exp,29,↓,down,↓,1.5371801999863237,True,35,1,0,3
Y2-S2-212K24,8,729,PS,exp,47,→,right,→,0.6174731999635696,True,34,1,0,3
Y2-S2-212K24,8,730,PS,exp,43,←,left,←,0.7704635001718998,True,34,1,0,3
Y2-S2-212K24,8,731,PS,exp,27,↑,up,↑,0.5672955000773072,True,34,1,0,3
Y2-S2-212K24,8,732,PS,exp,43,→,right,→,0.5335846000816673,True,33,1,0,3
Y2-S2-212K24,8,733,PS,exp,37,↓,down,↓,0.6674674001988024,True,33,1,0,3
Y2-S2-212K24,8,734,PS,exp,34,→,right,→,0.5505532000679523,True,33,1,0,3
Y2-S2-212K24,8,735,PS,exp,25,↓,down,↓,0.7719835001043975,True,32,1,0,3
Y2-S2-212K24,8,736,PS,exp,27,←,left,←,0.6673890000674874,True,32,1,0,3
Y2-S2-212K24,8,737,PS,exp,37,↑,up,↑,0.7456475000362843,True,32,1,0,3
Y2-S2-212K24,8,738,PS,exp,39,→,right,→,0.4845209999475628,True,31,1,0,3
Y2-S2-212K24,8,739,PS,exp,33,↑,up,↑,1.2978523999918252,True,31,1,0,3
Y2-S2-212K24,8,740,PS,exp,50,↓,down,↓,0.6340725999325514,True,31,1,0,3
Y2-S2-212K24,8,741,PS,exp,35,→,right,→,0.533841400174424,True,30,1,0,3
Y2-S2-212K24,8,742,PS,exp,39,↑,up,↑,0.7871074001304805,True,30,1,0,3
Y2-S2-212K24,8,743,PS,exp,43,→,right,→,0.4838401998858899,True,30,1,0,3
Y2-S2-212K24,8,744,PS,exp,31,↓,down,↓,0.7624073999468237,True,29,1,0,3
Y2-S2-212K24,8,745,PS,exp,28,↑,right,→,0.41772400005720556,False,29,-1,1,4
Y2-S2-212K24,8,746,PS,exp,43,↓,down,↓,0.7474933001212776,True,30,-1,0,4
Y2-S2-212K24,8,747,PS,exp,34,↑,up,↑,0.45122289983555675,True,30,-1,0,4
Y2-S2-212K24,8,748,PS,exp,38,↓,down,↓,0.45085410005412996,True,30,1,1,5
Y2-S2-212K24,8,749,PS,exp,38,←,left,←,0.5006293000187725,True,29,1,0,5
Y2-S2-212K24,8,750,PS,exp,30,↓,down,↓,0.7028640999924392,True,29,1,0,5
Y2-S2-212K24,8,751,PS,exp,44,←,left,←,0.4838633998297155,True,29,1,0,5
Y2-S2-212K24,8,752,PS,exp,40,↑,up,↑,0.6929069000761956,True,28,1,0,5
Y2-S2-212K24,8,753,PS,exp,42,↓,no_key,no_letter,-1.0,False,28,-1,1,6
Y2-S2-212K24,8,754,PS,exp,44,→,left,←,0.08458729996345937,False,29,-1,0,6
Y2-S2-212K24,8,755,PS,exp,31,↑,up,↑,0.7873804999981076,True,30,-1,0,6
Y2-S2-212K24,8,756,PS,exp,30,←,up,↑,0.06766849989071488,False,30,-1,0,6
Y2-S2-212K24,8,757,PS,exp,33,↓,down,↓,0.6167389000765979,True,31,-1,0,6
Y2-S2-212K24,8,758,PS,exp,36,↑,up,↑,0.43478960008360445,True,31,-1,0,6
Y2-S2-212K24,8,759,PS,exp,42,→,right,→,0.5342522000428289,True,31,1,1,7
Y2-S2-212K24,8,760,PS,exp,33,↓,down,↓,0.7886782002169639,True,30,1,0,7
Y2-S2-212K24,8,761,PS,exp,49,→,right,→,0.5339661000762135,True,30,1,0,7
Y2-S2-212K24,8,762,PS,exp,42,←,left,←,0.38439269992522895,True,30,1,0,7
Y2-S2-212K24,8,763,PS,exp,25,↓,down,↓,0.6174374001566321,True,29,1,0,7
Y2-S2-212K24,8,764,PS,exp,33,↑,up,↑,0.46744929999113083,True,29,1,0,7
Y2-S2-212K24,8,765,PS,exp,43,↓,down,↓,0.600543700158596,True,29,1,0,7
Y2-S2-212K24,8,766,PS,exp,31,→,right,→,0.43493540002964437,True,28,1,0,7
Y2-S2-212K24,8,767,PS,exp,47,↑,up,↑,1.2287489001173526,True,28,1,0,7
Y2-S2-212K24,8,768,PS,exp,30,→,right,→,0.7283070001285523,True,28,1,0,7
Y2-S2-212K24,8,769,PS,exp,31,↓,up,↑,0.33454800001345575,False,27,-1,1,8
Y2-S2-212K24,8,770,PS,exp,30,→,right,→,0.48388580000028014,True,28,-1,0,8
Y2-S2-212K24,8,771,PS,exp,44,↑,up,↑,0.48415539995767176,True,28,-1,0,8
Y2-S2-212K24,8,772,PS,exp,49,↓,up,↑,0.4175893999636173,False,28,-1,0,8
Y2-S2-212K24,8,773,PS,exp,50,→,right,→,0.5009141000919044,True,29,-1,0,8
Y2-S2-212K24,8,774,PS,exp,41,↓,down,↓,0.5004670000635087,True,29,-1,0,8
Y2-S2-212K24,8,775,PS,exp,40,←,left,←,0.7895910998340696,True,29,1,1,9
Y2-S2-212K24,8,776,PS,exp,31,↓,left,←,1.5353174998890609,False,28,-1,1,10
Y2-S2-212K24,8,777,PS,exp,43,↑,up,↑,0.5344730999786407,True,29,-1,0,10
Y2-S2-212K24,8,778,PS,exp,28,→,left,←,0.4671743002254516,False,29,-1,0,10
Y2-S2-212K24,8,779,PS,exp,39,↓,down,↓,1.3018543999642134,True,30,-1,0,10
Y2-S2-212K24,8,780,PS,exp,27,↑,up,↑,0.7161391999106854,True,30,-1,0,10
Y2-S2-212K24,8,781,PS,exp,33,→,right,→,0.5002947000321001,True,30,1,1,11
Y2-S2-212K24,8,782,PS,exp,37,↑,up,↑,0.4670778999570757,True,29,1,0,11
Y2-S2-212K24,8,783,PS,exp,39,→,right,→,0.36770149995572865,True,29,1,0,11
Y2-S2-212K24,8,784,PS,exp,46,↓,down,↓,0.705857900204137,True,29,1,0,11
Y2-S2-212K24,8,785,PS,exp,36,↑,up,↑,0.41777319996617734,True,28,1,0,11
Y2-S2-212K24,8,786,PS,exp,48,↓,left,←,0.40096810017712414,False,28,-1,1,12
Y2-S2-212K24,8,787,PS,exp,39,←,left,←,0.5337521000765264,True,29,-1,0,12
Y2-S2-212K24,8,788,PS,exp,43,↓,down,↓,0.7556739000137895,True,29,-1,0,12
Y2-S2-212K24,8,789,PS,exp,42,→,right,→,0.5506031999830157,True,29,1,1,13
Y2-S2-212K24,8,790,PS,exp,45,↓,down,↓,1.023762800032273,True,28,1,0,13
Y2-S2-212K24,8,791,PS,exp,38,←,up,↑,0.284405899932608,False,28,-1,1,14
Y2-S2-212K24,8,792,PS,exp,45,↓,up,↑,1.2846564000938088,False,29,-1,0,14
Y2-S2-212K24,8,793,PS,exp,32,↑,up,↑,0.9990081998985261,True,30,-1,0,14
Y2-S2-212K24,8,794,PS,exp,37,↓,up,↑,0.30163070000708103,False,30,-1,0,14
Y2-S2-212K24,8,795,PS,exp,25,→,up,↑,0.2010802999138832,False,31,-1,0,14
Y2-S2-212K24,8,796,PS,exp,25,↓,right,→,0.18473980017006397,False,32,-1,0,14
Y2-S2-212K24,8,797,PS,exp,45,←,right,→,0.4509204002097249,False,33,-1,0,14
Y2-S2-212K24,8,798,PS,exp,45,↓,right,→,0.4008430999238044,False,34,-1,0,14
Y2-S2-212K24,8,799,PS,exp,31,↑,up,↑,0.03427690011449158,True,35,-1,0,14
Y2-S2-212K24,8,800,PS,exp,34,→,up,↑,0.30109009984880686,False,35,-1,0,14
Y2-S2-212K24,8,801,PS,exp,35,↓,left,←,0.06762080010958016,False,36,-1,0,14
Y2-S2-212K24,8,802,PS,exp,33,↑,down,↓,0.28439519996754825,False,37,-1,0,14
Y2-S2-212K24,8,803,PS,exp,45,→,right,→,0.907417600043118,True,38,-1,0,14
Y2-S2-212K24,8,804,PS,exp,44,←,left,←,0.6008918001316488,True,38,-1,0,14
Y2-S2-212K24,8,805,PS,exp,44,↓,down,↓,0.6840360998176038,True,38,1,1,15
Y2-S2-212K24,8,806,PS,exp,38,←,left,←,0.8291854998096824,True,37,1,0,15
Y2-S2-212K24,8,807,PS,exp,38,↑,up,↑,0.5679230999667197,True,37,1,0,15
Y2-S2-212K24,8,808,PS,exp,40,←,left,←,0.501388399861753,True,37,1,0,15
Y2-S2-212K24,8,809,PS,exp,25,→,right,→,0.5676591000519693,True,36,1,0,15
Y2-S2-212K24,8,810,PS,exp,31,←,left,←,0.5343060998711735,True,36,1,0,15
Y2-S2-212K24,8,811,PS,exp,27,↑,right,→,0.30115349986590445,False,36,-1,1,16
