PART_ID,Block_no,Trial_no,Block_type,Trial_type,CSI,Stim_letter,Key_pressed,letter_choose,Rt,Corr,Stimulus Time,Level,Reversal,Revs_count
Y2-S2-251M22,1,1,PS,train,33,↑,up,↑,0.9023205999983475,True,30,-,-,-
Y2-S2-251M22,1,2,PS,train,32,←,left,←,0.6877064000582322,True,30,-,-,-
Y2-S2-251M22,1,3,PS,train,30,↑,up,↑,2.060214300057851,True,30,-,-,-
Y2-S2-251M22,1,4,PS,train,28,→,right,→,0.9125107999425381,True,30,-,-,-
Y2-S2-251M22,1,5,PS,train,41,←,left,←,0.8226584000512958,True,30,-,-,-
Y2-S2-251M22,1,6,PS,train,42,↓,down,↓,0.8328227000311017,True,30,-,-,-
Y2-S2-251M22,1,7,PS,train,26,→,right,→,0.7252593000885099,True,30,-,-,-
Y2-S2-251M22,1,8,PS,train,37,↑,up,↑,0.48371629999019206,True,30,-,-,-
Y2-S2-251M22,1,9,PS,train,31,→,right,→,0.6934301999863237,True,30,-,-,-
Y2-S2-251M22,1,10,PS,train,34,↑,up,↑,0.46791870007291436,True,30,-,-,-
Y2-S2-251M22,2,11,AS,train,45,←,left,←,0.9293320999713615,True,45,-,-,-
Y2-S2-251M22,2,12,AS,train,46,→,right,→,0.4843044999288395,True,45,-,-,-
Y2-S2-251M22,2,13,AS,train,30,←,left,←,1.0092042000032961,True,45,-,-,-
Y2-S2-251M22,2,14,AS,train,28,↓,down,↓,0.9497601999901235,True,45,-,-,-
Y2-S2-251M22,2,15,AS,train,49,→,right,→,0.9570843999972567,True,45,-,-,-
Y2-S2-251M22,2,16,AS,train,49,←,left,←,0.9262865000637248,True,45,-,-,-
Y2-S2-251M22,2,17,AS,train,36,↑,up,↑,1.0416795000201091,True,45,-,-,-
Y2-S2-251M22,2,18,AS,train,47,↓,down,↓,0.8839963999344036,True,45,-,-,-
Y2-S2-251M22,2,19,AS,train,39,↑,up,↑,0.8505995000014082,True,45,-,-,-
Y2-S2-251M22,2,20,AS,train,31,↓,down,↓,0.7178521000314504,True,45,-,-,-
Y2-S2-251M22,-,21,PS,adaptive,46,←,left,←,0.7119378000497818,True,10,0,0,0
Y2-S2-251M22,-,22,PS,adaptive,31,→,right,→,0.937580700032413,True,10,0,0,0
Y2-S2-251M22,-,23,PS,adaptive,39,↑,up,↑,0.7129606000380591,True,10,1,0,0
Y2-S2-251M22,-,24,PS,adaptive,47,→,right,→,0.734635500004515,True,9,1,0,0
Y2-S2-251M22,-,25,PS,adaptive,38,←,left,←,0.6442473999923095,True,9,1,0,0
Y2-S2-251M22,-,26,PS,adaptive,39,↑,up,↑,0.758457800024189,True,9,1,0,0
Y2-S2-251M22,-,27,PS,adaptive,34,→,right,→,0.7670166000025347,True,8,1,0,0
Y2-S2-251M22,-,28,PS,adaptive,39,↑,down,↓,1.0055394999217242,False,8,-1,1,1
Y2-S2-251M22,-,29,PS,adaptive,43,↓,down,↓,0.6683902000077069,True,9,-1,0,1
Y2-S2-251M22,-,30,PS,adaptive,40,↑,up,↑,0.6111541000427678,True,9,-1,0,1
Y2-S2-251M22,-,31,PS,adaptive,39,←,left,←,0.5405362999299541,True,9,1,1,2
Y2-S2-251M22,-,32,PS,adaptive,26,↑,right,→,0.6621853000251576,False,8,-1,1,3
Y2-S2-251M22,-,33,PS,adaptive,38,↓,down,↓,0.6440821000142023,True,9,-1,0,3
Y2-S2-251M22,-,34,PS,adaptive,34,←,left,←,0.4622008999576792,True,9,-1,0,3
Y2-S2-251M22,-,35,PS,adaptive,28,↓,down,↓,0.5082595000276342,True,9,1,1,4
Y2-S2-251M22,-,36,AS,adaptive,35,→,right,→,0.7875058999052271,True,20,0,0,0
Y2-S2-251M22,-,37,AS,adaptive,42,↑,up,↑,0.7185440000612289,True,20,0,0,0
Y2-S2-251M22,-,38,AS,adaptive,25,↓,down,↓,0.7613034999230877,True,20,1,0,0
Y2-S2-251M22,-,39,AS,adaptive,41,←,left,←,0.5910847000777721,True,19,1,0,0
Y2-S2-251M22,-,40,AS,adaptive,46,→,right,→,0.7003378999652341,True,19,1,0,0
Y2-S2-251M22,-,41,AS,adaptive,49,↓,down,↓,0.7832588999299332,True,19,1,0,0
Y2-S2-251M22,-,42,AS,adaptive,38,→,right,→,0.6720363999484107,True,18,1,0,0
Y2-S2-251M22,-,43,AS,adaptive,41,↑,up,↑,0.6053767000557855,True,18,1,0,0
Y2-S2-251M22,-,44,AS,adaptive,43,→,right,→,0.41721909993793815,True,18,1,0,0
Y2-S2-251M22,-,45,AS,adaptive,41,←,left,←,0.5889826000202447,True,17,1,0,0
Y2-S2-251M22,-,46,AS,adaptive,37,↓,down,↓,0.6566409999504685,True,17,1,0,0
Y2-S2-251M22,-,47,AS,adaptive,48,←,left,←,0.6828953999793157,True,17,1,0,0
Y2-S2-251M22,-,48,AS,adaptive,43,↑,up,↑,0.4702261999482289,True,16,1,0,0
Y2-S2-251M22,-,49,AS,adaptive,25,↓,down,↓,0.6420914999907836,True,16,1,0,0
Y2-S2-251M22,-,50,AS,adaptive,30,←,right,→,0.9988853000104427,False,16,-1,1,1
Y2-S2-251M22,-,51,AS,adaptive,33,↓,down,↓,0.889286799938418,True,17,-1,0,1
Y2-S2-251M22,-,52,AS,adaptive,45,↑,up,↑,0.5055256999330595,True,17,-1,0,1
Y2-S2-251M22,-,53,AS,adaptive,25,↓,down,↓,0.6176901999861002,True,17,1,1,2
Y2-S2-251M22,-,54,AS,adaptive,28,↑,down,↓,0.7601422999287024,False,16,-1,1,3
Y2-S2-251M22,-,55,AS,adaptive,45,←,left,←,0.7033373999875039,True,17,-1,0,3
Y2-S2-251M22,-,56,AS,adaptive,33,↑,left,←,0.8472908000694588,False,17,-1,0,3
Y2-S2-251M22,-,57,AS,adaptive,48,↓,down,↓,0.8914470999734476,True,18,-1,0,3
Y2-S2-251M22,-,58,AS,adaptive,33,←,left,←,0.6943950999993831,True,18,-1,0,3
Y2-S2-251M22,-,59,AS,adaptive,41,→,right,→,0.7914992000441998,True,18,1,1,4
Y2-S2-251M22,1,60,AS,intra_train,27,↓,down,↓,1.2271586999995634,True,25,-,-,-
Y2-S2-251M22,1,61,AS,intra_train,33,↑,up,↑,0.7627934999763966,True,25,-,-,-
Y2-S2-251M22,1,62,AS,intra_train,28,←,left,←,0.4840802999678999,True,25,-,-,-
Y2-S2-251M22,1,63,AS,intra_train,44,↓,down,↓,0.728612000006251,True,25,-,-,-
Y2-S2-251M22,1,64,AS,intra_train,42,→,right,→,0.6414640999864787,True,25,-,-,-
Y2-S2-251M22,1,65,AS,exp,39,↓,down,↓,0.6665888000279665,True,17,0,0,0
Y2-S2-251M22,1,66,AS,exp,43,→,right,→,0.5074768000049517,True,17,0,0,0
Y2-S2-251M22,1,67,AS,exp,30,←,left,←,0.6654866000171751,True,17,1,0,0
Y2-S2-251M22,1,68,AS,exp,34,↓,down,↓,0.6466275999555364,True,16,1,0,0
Y2-S2-251M22,1,69,AS,exp,35,←,left,←,0.6476838999660686,True,16,1,0,0
Y2-S2-251M22,1,70,AS,exp,26,↑,up,↑,0.7066368999658152,True,16,1,0,0
Y2-S2-251M22,1,71,AS,exp,40,↓,down,↓,0.6694156000157818,True,15,1,0,0
Y2-S2-251M22,1,72,AS,exp,38,→,left,←,0.6889051999896765,False,15,-1,1,1
Y2-S2-251M22,1,73,AS,exp,27,←,left,←,0.7124301999574527,True,16,-1,0,1
Y2-S2-251M22,1,74,AS,exp,43,↑,up,↑,0.5601318000117317,True,16,-1,0,1
Y2-S2-251M22,1,75,AS,exp,44,→,right,→,0.5674983999924734,True,16,1,1,2
Y2-S2-251M22,1,76,AS,exp,40,↓,up,↑,0.7257314000744373,False,15,-1,1,3
Y2-S2-251M22,1,77,AS,exp,28,←,left,←,0.5975742000155151,True,16,-1,0,3
Y2-S2-251M22,1,78,AS,exp,26,↓,down,↓,0.7326328000053763,True,16,-1,0,3
Y2-S2-251M22,1,79,AS,exp,44,↑,up,↑,0.6986053000437096,True,16,1,1,4
Y2-S2-251M22,1,80,AS,exp,45,↓,down,↓,0.7035339999711141,True,15,1,0,4
Y2-S2-251M22,1,81,AS,exp,25,→,right,→,0.6013412000611424,True,15,1,0,4
Y2-S2-251M22,1,82,AS,exp,42,←,left,←,0.6044324000831693,True,15,1,0,4
Y2-S2-251M22,1,83,AS,exp,27,→,right,→,0.635586200049147,True,14,1,0,4
Y2-S2-251M22,1,84,AS,exp,44,↓,left,←,0.8471955999266356,False,14,-1,1,5
Y2-S2-251M22,1,85,AS,exp,40,↑,up,↑,0.654145999928005,True,15,-1,0,5
Y2-S2-251M22,1,86,AS,exp,50,→,right,→,0.5800683000124991,True,15,-1,0,5
Y2-S2-251M22,1,87,AS,exp,38,↑,up,↑,0.5748736000386998,True,15,1,1,6
Y2-S2-251M22,1,88,AS,exp,44,←,left,←,0.5332499999785796,True,14,1,0,6
Y2-S2-251M22,1,89,AS,exp,48,→,right,→,0.4799021000508219,True,14,1,0,6
Y2-S2-251M22,1,90,AS,exp,25,↓,right,→,0.8358705000719056,False,14,-1,1,7
Y2-S2-251M22,1,91,AS,exp,32,→,right,→,0.4247631999896839,True,15,-1,0,7
Y2-S2-251M22,1,92,AS,exp,40,←,left,←,0.6466676000272855,True,15,-1,0,7
Y2-S2-251M22,1,93,AS,exp,50,↓,down,↓,0.67604399996344,True,15,1,1,8
Y2-S2-251M22,1,94,AS,exp,43,←,left,←,0.4330273000523448,True,14,1,0,8
Y2-S2-251M22,1,95,AS,exp,29,→,right,→,0.7390568999107927,True,14,1,0,8
Y2-S2-251M22,1,96,AS,exp,35,↑,up,↑,0.7793989999918267,True,14,1,0,8
Y2-S2-251M22,1,97,AS,exp,37,←,left,←,0.45449619996361434,True,13,1,0,8
Y2-S2-251M22,1,98,AS,exp,46,→,right,→,0.6635202000616118,True,13,1,0,8
Y2-S2-251M22,1,99,AS,exp,31,↓,down,↓,0.7824745000107214,True,13,1,0,8
Y2-S2-251M22,1,100,AS,exp,43,←,right,→,0.6691528999945149,False,12,-1,1,9
Y2-S2-251M22,1,101,AS,exp,33,↓,down,↓,0.5989185000071302,True,13,-1,0,9
Y2-S2-251M22,1,102,AS,exp,42,↑,right,→,0.6776882999110967,False,13,-1,0,9
Y2-S2-251M22,1,103,AS,exp,31,↓,down,↓,0.6517455000430346,True,14,-1,0,9
Y2-S2-251M22,1,104,AS,exp,37,→,left,←,0.6630117000313476,False,14,-1,0,9
Y2-S2-251M22,1,105,AS,exp,38,←,left,←,0.6097796999383718,True,15,-1,0,9
Y2-S2-251M22,1,106,AS,exp,30,→,right,→,0.4958733000094071,True,15,-1,0,9
Y2-S2-251M22,1,107,AS,exp,47,←,left,←,0.5471014999784529,True,15,1,1,10
Y2-S2-251M22,1,108,AS,exp,47,↑,up,↑,0.7264065999770537,True,14,1,0,10
Y2-S2-251M22,1,109,AS,exp,48,→,right,→,0.5608479999937117,True,14,1,0,10
Y2-S2-251M22,1,110,AS,exp,39,←,left,←,0.6012095999903977,True,14,1,0,10
Y2-S2-251M22,1,111,AS,exp,26,→,right,→,0.5590504000429064,True,13,1,0,10
Y2-S2-251M22,1,112,AS,exp,40,↓,right,→,0.6844053999520838,False,13,-1,1,11
Y2-S2-251M22,1,113,AS,exp,38,←,left,←,1.3886897000484169,True,14,-1,0,11
Y2-S2-251M22,1,114,AS,exp,40,↑,left,←,0.7717337000649422,False,14,-1,0,11
Y2-S2-251M22,1,115,AS,exp,25,→,right,→,0.5403703999472782,True,15,-1,0,11
Y2-S2-251M22,1,116,AS,exp,27,←,left,←,0.6087517999112606,True,15,-1,0,11
Y2-S2-251M22,1,117,AS,exp,50,↓,down,↓,0.8138484000228345,True,15,1,1,12
Y2-S2-251M22,1,118,AS,exp,32,→,right,→,0.8739086999557912,True,14,1,0,12
Y2-S2-251M22,1,119,AS,exp,48,↓,down,↓,0.7434707999927923,True,14,1,0,12
Y2-S2-251M22,1,120,AS,exp,43,←,left,←,0.5743485999992117,True,14,1,0,12
Y2-S2-251M22,1,121,AS,exp,26,↓,right,→,0.8791177999228239,False,13,-1,1,13
Y2-S2-251M22,1,122,AS,exp,49,↑,right,→,0.761877299984917,False,14,-1,0,13
Y2-S2-251M22,1,123,AS,exp,28,←,left,←,0.61191640002653,True,15,-1,0,13
Y2-S2-251M22,1,124,AS,exp,47,↑,up,↑,0.6744112999876961,True,15,-1,0,13
Y2-S2-251M22,1,125,AS,exp,26,←,left,←,0.5895081999478862,True,15,1,1,14
Y2-S2-251M22,1,126,AS,exp,25,↑,up,↑,0.4784290000097826,True,14,1,0,14
Y2-S2-251M22,1,127,AS,exp,28,↓,down,↓,0.6167743999976665,True,14,1,0,14
Y2-S2-251M22,1,128,AS,exp,46,←,right,→,0.7121952000306919,False,14,-1,1,15
Y2-S2-251M22,1,129,AS,exp,42,→,right,→,0.5267038000747561,True,15,-1,0,15
Y2-S2-251M22,1,130,AS,exp,41,←,left,←,0.6168221000116318,True,15,-1,0,15
Y2-S2-251M22,1,131,AS,exp,38,↓,left,←,0.7637505000457168,False,15,-1,0,15
Y2-S2-251M22,1,132,AS,exp,35,↑,up,↑,0.6236151999328285,True,16,-1,0,15
Y2-S2-251M22,1,133,AS,exp,36,←,left,←,0.4974052000325173,True,16,-1,0,15
Y2-S2-251M22,1,134,AS,exp,45,↓,down,↓,0.7314927999395877,True,16,1,1,16
Y2-S2-251M22,2,135,PS,intra_train,45,→,right,→,0.5986431000055745,True,12,-,-,-
Y2-S2-251M22,2,136,PS,intra_train,44,↓,down,↓,0.6520919000031427,True,12,-,-,-
Y2-S2-251M22,2,137,PS,intra_train,27,→,right,→,0.6207457999698818,True,12,-,-,-
Y2-S2-251M22,2,138,PS,intra_train,28,↑,up,↑,0.5945063999388367,True,12,-,-,-
Y2-S2-251M22,2,139,PS,intra_train,48,↓,down,↓,0.5982180000282824,True,12,-,-,-
Y2-S2-251M22,2,140,PS,exp,25,←,left,←,0.4096592999994755,True,8,0,0,0
Y2-S2-251M22,2,141,PS,exp,41,→,right,→,0.6337446999968961,True,8,0,0,0
Y2-S2-251M22,2,142,PS,exp,44,↓,down,↓,0.575688699958846,True,8,1,0,0
Y2-S2-251M22,2,143,PS,exp,32,←,left,←,0.6622168000321835,True,7,1,0,0
Y2-S2-251M22,2,144,PS,exp,40,↑,right,→,0.8087277000304312,False,7,-1,1,1
Y2-S2-251M22,2,145,PS,exp,48,↓,down,↓,0.5484394000377506,True,8,-1,0,1
Y2-S2-251M22,2,146,PS,exp,33,→,right,→,0.7197355000535026,True,8,-1,0,1
Y2-S2-251M22,2,147,PS,exp,29,↑,right,→,0.8570696000242606,False,8,-1,0,1
Y2-S2-251M22,2,148,PS,exp,30,←,left,←,0.7792087999405339,True,9,-1,0,1
Y2-S2-251M22,2,149,PS,exp,28,↑,up,↑,0.5103236999129876,True,9,-1,0,1
Y2-S2-251M22,2,150,PS,exp,39,→,right,→,1.5315521999727935,True,9,1,1,2
Y2-S2-251M22,2,151,PS,exp,46,↑,up,↑,0.6594724000897259,True,8,1,0,2
Y2-S2-251M22,2,152,PS,exp,39,↓,down,↓,0.6631117999786511,True,8,1,0,2
Y2-S2-251M22,2,153,PS,exp,25,←,right,→,0.7288491000654176,False,8,-1,1,3
Y2-S2-251M22,2,154,PS,exp,45,↓,down,↓,0.6308630000567064,True,9,-1,0,3
Y2-S2-251M22,2,155,PS,exp,42,←,right,→,0.6866377000696957,False,9,-1,0,3
Y2-S2-251M22,2,156,PS,exp,40,→,right,→,0.6747131999582052,True,10,-1,0,3
Y2-S2-251M22,2,157,PS,exp,47,←,left,←,0.5653703999705613,True,10,-1,0,3
Y2-S2-251M22,2,158,PS,exp,28,↑,up,↑,0.6341641000472009,True,10,1,1,4
Y2-S2-251M22,2,159,PS,exp,35,↓,right,→,0.9256632000906393,False,9,-1,1,5
Y2-S2-251M22,2,160,PS,exp,40,↑,right,→,0.7866038999054581,False,10,-1,0,5
Y2-S2-251M22,2,161,PS,exp,50,→,right,→,0.6702625999459997,True,11,-1,0,5
Y2-S2-251M22,2,162,PS,exp,30,↑,up,↑,0.530975200003013,True,11,-1,0,5
Y2-S2-251M22,2,163,PS,exp,31,↓,down,↓,0.7191997000481933,True,11,1,1,6
Y2-S2-251M22,2,164,PS,exp,40,←,left,←,0.4519136999733746,True,10,1,0,6
Y2-S2-251M22,2,165,PS,exp,33,→,right,→,0.41966999997384846,True,10,1,0,6
Y2-S2-251M22,2,166,PS,exp,33,↑,right,→,0.6669770000735298,False,10,-1,1,7
Y2-S2-251M22,2,167,PS,exp,38,←,right,→,0.5852480999892578,False,11,-1,0,7
Y2-S2-251M22,2,168,PS,exp,39,→,right,→,0.5118191000074148,True,12,-1,0,7
Y2-S2-251M22,2,169,PS,exp,42,↑,right,→,0.7884471999714151,False,12,-1,0,7
Y2-S2-251M22,2,170,PS,exp,42,→,right,→,0.6251207999885082,True,13,-1,0,7
Y2-S2-251M22,2,171,PS,exp,37,↑,up,↑,0.5913868999341503,True,13,-1,0,7
Y2-S2-251M22,2,172,PS,exp,48,↓,down,↓,0.6110348999500275,True,13,1,1,8
Y2-S2-251M22,2,173,PS,exp,36,→,right,→,0.7202054000226781,True,12,1,0,8
Y2-S2-251M22,2,174,PS,exp,36,←,left,←,0.4921092999866232,True,12,1,0,8
Y2-S2-251M22,2,175,PS,exp,38,↓,down,↓,0.5792575000086799,True,12,1,0,8
Y2-S2-251M22,2,176,PS,exp,47,↑,left,←,0.6719321999698877,False,11,-1,1,9
Y2-S2-251M22,2,177,PS,exp,34,↓,down,↓,0.5151800999883562,True,12,-1,0,9
Y2-S2-251M22,2,178,PS,exp,40,→,right,→,0.5941848000511527,True,12,-1,0,9
Y2-S2-251M22,2,179,PS,exp,43,←,right,→,0.5003329000901431,False,12,-1,0,9
Y2-S2-251M22,2,180,PS,exp,29,↑,up,↑,0.5808044999139383,True,13,-1,0,9
Y2-S2-251M22,2,181,PS,exp,26,←,right,→,0.8484766000183299,False,13,-1,0,9
Y2-S2-251M22,2,182,PS,exp,41,→,right,→,0.5355792000191286,True,14,-1,0,9
Y2-S2-251M22,2,183,PS,exp,41,←,right,→,0.7739308000309393,False,14,-1,0,9
Y2-S2-251M22,2,184,PS,exp,43,↓,left,←,1.0774171999655664,False,15,-1,0,9
Y2-S2-251M22,2,185,PS,exp,32,←,left,←,0.4958076000912115,True,16,-1,0,9
Y2-S2-251M22,2,186,PS,exp,47,→,right,→,1.4474850000115111,True,16,-1,0,9
Y2-S2-251M22,2,187,PS,exp,50,↑,up,↑,0.5524661999661475,True,16,1,1,10
Y2-S2-251M22,2,188,PS,exp,47,↓,down,↓,0.6235828000353649,True,15,1,0,10
Y2-S2-251M22,2,189,PS,exp,31,←,left,←,0.8017893999349326,True,15,1,0,10
Y2-S2-251M22,2,190,PS,exp,31,↑,up,↑,0.49807219998911023,True,15,1,0,10
Y2-S2-251M22,2,191,PS,exp,34,↓,down,↓,0.6482262000208721,True,14,1,0,10
Y2-S2-251M22,2,192,PS,exp,34,→,right,→,0.36726050009019673,True,14,1,0,10
Y2-S2-251M22,2,193,PS,exp,46,←,right,→,0.4124722999986261,False,14,-1,1,11
Y2-S2-251M22,2,194,PS,exp,27,→,left,←,0.5750428000465035,False,15,-1,0,11
Y2-S2-251M22,2,195,PS,exp,32,←,left,←,0.4750650000059977,True,16,-1,0,11
Y2-S2-251M22,2,196,PS,exp,41,→,right,→,0.4421501000178978,True,16,-1,0,11
Y2-S2-251M22,2,197,PS,exp,31,←,right,→,0.44722970004659146,False,16,-1,0,11
Y2-S2-251M22,2,198,PS,exp,43,→,right,→,0.4552900999551639,True,17,-1,0,11
Y2-S2-251M22,2,199,PS,exp,27,←,left,←,0.49528409994672984,True,17,-1,0,11
Y2-S2-251M22,2,200,PS,exp,37,→,right,→,0.5048901999834925,True,17,1,1,12
Y2-S2-251M22,2,201,PS,exp,43,←,left,←,0.6418206000234932,True,16,1,0,12
Y2-S2-251M22,2,202,PS,exp,38,→,right,→,0.38406519999261945,True,16,1,0,12
Y2-S2-251M22,2,203,PS,exp,48,←,left,←,0.4671614000108093,True,16,1,0,12
Y2-S2-251M22,2,204,PS,exp,28,↑,up,↑,0.5852639999939129,True,15,1,0,12
Y2-S2-251M22,2,205,PS,exp,33,↓,down,↓,0.6786792000057176,True,15,1,0,12
Y2-S2-251M22,2,206,PS,exp,42,←,left,←,0.5118499998934567,True,15,1,0,12
Y2-S2-251M22,2,207,PS,exp,38,→,right,→,0.5258220999967307,True,14,1,0,12
Y2-S2-251M22,2,208,PS,exp,33,↑,up,↑,0.5843020000029355,True,14,1,0,12
Y2-S2-251M22,2,209,PS,exp,39,←,left,←,0.5902124000713229,True,14,1,0,12
Y2-S2-251M22,2,210,PS,exp,30,↑,up,↑,0.4002926000393927,True,13,1,0,12
Y2-S2-251M22,2,211,PS,exp,25,→,left,←,0.5454211999895051,False,13,-1,1,13
Y2-S2-251M22,2,212,PS,exp,33,↓,down,↓,0.5931392000056803,True,14,-1,0,13
Y2-S2-251M22,2,213,PS,exp,32,←,left,←,0.562930200016126,True,14,-1,0,13
Y2-S2-251M22,2,214,PS,exp,49,→,right,→,0.716689300024882,True,14,1,1,14
Y2-S2-251M22,2,215,PS,exp,32,←,left,←,0.4127064000349492,True,13,1,0,14
Y2-S2-251M22,2,216,PS,exp,28,↑,up,↑,0.39608200010843575,True,13,1,0,14
Y2-S2-251M22,2,217,PS,exp,33,←,left,←,0.4308061000192538,True,13,1,0,14
Y2-S2-251M22,2,218,PS,exp,31,↑,up,↑,0.46760910004377365,True,12,1,0,14
Y2-S2-251M22,2,219,PS,exp,26,←,left,←,1.081763599999249,True,12,1,0,14
Y2-S2-251M22,2,220,PS,exp,26,→,right,→,0.4919876001076773,True,12,1,0,14
Y2-S2-251M22,2,221,PS,exp,42,↑,up,↑,0.5704191999975592,True,11,1,0,14
Y2-S2-251M22,2,222,PS,exp,30,↓,down,↓,0.651874199975282,True,11,1,0,14
Y2-S2-251M22,2,223,PS,exp,39,←,left,←,0.5834278999827802,True,11,1,0,14
Y2-S2-251M22,2,224,PS,exp,44,↓,down,↓,0.6533938999054953,True,10,1,0,14
Y2-S2-251M22,2,225,PS,exp,35,↑,up,↑,0.45635599992237985,True,10,1,0,14
Y2-S2-251M22,2,226,PS,exp,25,←,right,→,0.7290344999637455,False,10,-1,1,15
Y2-S2-251M22,2,227,PS,exp,28,→,right,→,0.4284452999709174,True,11,-1,0,15
Y2-S2-251M22,2,228,PS,exp,47,↑,up,↑,0.668434499995783,True,11,-1,0,15
Y2-S2-251M22,2,229,PS,exp,47,→,left,←,0.6658382000168785,False,11,-1,0,15
Y2-S2-251M22,2,230,PS,exp,25,←,left,←,0.45392399991396815,True,12,-1,0,15
Y2-S2-251M22,2,231,PS,exp,32,↓,down,↓,1.2778513999655843,True,12,-1,0,15
Y2-S2-251M22,2,232,PS,exp,25,←,left,←,0.545529399998486,True,12,1,1,16
Y2-S2-251M22,3,233,PS,intra_train,28,→,right,→,0.6934675999218598,True,12,-,-,-
Y2-S2-251M22,3,234,PS,intra_train,41,↓,left,←,0.6809463000390679,False,12,-,-,-
Y2-S2-251M22,3,235,PS,intra_train,31,→,right,→,0.6075298000359908,True,12,-,-,-
Y2-S2-251M22,3,236,PS,intra_train,41,←,left,←,0.556050599901937,True,12,-,-,-
Y2-S2-251M22,3,237,PS,intra_train,37,→,right,→,0.5712777000153437,True,12,-,-,-
Y2-S2-251M22,3,238,PS,exp,32,←,left,←,0.5985478999791667,True,8,0,0,0
Y2-S2-251M22,3,239,PS,exp,29,→,left,←,0.7096921999473125,False,8,-1,0,0
Y2-S2-251M22,3,240,PS,exp,37,↑,up,↑,0.7184891001088545,True,9,-1,0,0
Y2-S2-251M22,3,241,PS,exp,35,↓,down,↓,0.561491800006479,True,9,-1,0,0
Y2-S2-251M22,3,242,PS,exp,33,←,right,→,0.4923380999825895,False,9,-1,0,0
Y2-S2-251M22,3,243,PS,exp,47,→,right,→,0.39891939994413406,True,10,-1,0,0
Y2-S2-251M22,3,244,PS,exp,48,↑,up,↑,0.42221459990832955,True,10,-1,0,0
Y2-S2-251M22,3,245,PS,exp,42,↓,down,↓,0.6506097000092268,True,10,1,1,1
Y2-S2-251M22,3,246,PS,exp,30,↑,up,↑,0.530162199982442,True,9,1,0,1
Y2-S2-251M22,3,247,PS,exp,29,→,left,←,0.6653582999715582,False,9,-1,1,2
Y2-S2-251M22,3,248,PS,exp,47,←,left,←,0.49789780005812645,True,10,-1,0,2
Y2-S2-251M22,3,249,PS,exp,35,→,right,→,0.7445984999649227,True,10,-1,0,2
Y2-S2-251M22,3,250,PS,exp,43,←,left,←,0.5848372000036761,True,10,1,1,3
Y2-S2-251M22,3,251,PS,exp,34,→,right,→,0.6695983000099659,True,9,1,0,3
Y2-S2-251M22,3,252,PS,exp,33,↑,right,→,0.8993656999664381,False,9,-1,1,4
Y2-S2-251M22,3,253,PS,exp,34,→,right,→,0.612080299993977,True,10,-1,0,4
Y2-S2-251M22,3,254,PS,exp,50,↓,down,↓,0.922872000024654,True,10,-1,0,4
Y2-S2-251M22,3,255,PS,exp,46,←,left,←,0.4684487999184057,True,10,1,1,5
Y2-S2-251M22,3,256,PS,exp,36,↓,down,↓,0.59194379998371,True,9,1,0,5
Y2-S2-251M22,3,257,PS,exp,27,→,right,→,0.4154578000307083,True,9,1,0,5
Y2-S2-251M22,3,258,PS,exp,29,←,down,↓,1.0023069001035765,False,9,-1,1,6
Y2-S2-251M22,3,259,PS,exp,37,↓,down,↓,0.5801145000150427,True,10,-1,0,6
Y2-S2-251M22,3,260,PS,exp,28,→,right,→,0.3952198000624776,True,10,-1,0,6
Y2-S2-251M22,3,261,PS,exp,32,↓,right,→,0.6463736000005156,False,10,-1,0,6
Y2-S2-251M22,3,262,PS,exp,43,→,right,→,0.7442862999159843,True,11,-1,0,6
Y2-S2-251M22,3,263,PS,exp,48,↓,down,↓,0.8630493000382558,True,11,-1,0,6
Y2-S2-251M22,3,264,PS,exp,30,→,right,→,0.621645399951376,True,11,1,1,7
Y2-S2-251M22,3,265,PS,exp,25,↓,down,↓,1.0389141000341624,True,10,1,0,7
Y2-S2-251M22,3,266,PS,exp,37,→,right,→,0.752871899981983,True,10,1,0,7
Y2-S2-251M22,3,267,PS,exp,42,↓,down,↓,0.8679566999198869,True,10,1,0,7
Y2-S2-251M22,3,268,PS,exp,38,↑,right,→,1.153387299971655,False,9,-1,1,8
Y2-S2-251M22,3,269,PS,exp,26,↓,right,→,0.7203648999566212,False,10,-1,0,8
Y2-S2-251M22,3,270,PS,exp,31,↑,left,←,0.2505369000136852,False,11,-1,0,8
Y2-S2-251M22,3,271,PS,exp,49,→,up,↑,0.2504115999909118,False,12,-1,0,8
Y2-S2-251M22,3,272,PS,exp,31,←,left,←,0.623486700002104,True,13,-1,0,8
Y2-S2-251M22,3,273,PS,exp,48,→,right,→,0.7261885000625625,True,13,-1,0,8
Y2-S2-251M22,3,274,PS,exp,42,←,left,←,0.5030482000438496,True,13,1,1,9
Y2-S2-251M22,3,275,PS,exp,35,→,left,←,1.1231843000277877,False,12,-1,1,10
Y2-S2-251M22,3,276,PS,exp,36,↑,up,↑,0.5967934000073001,True,13,-1,0,10
Y2-S2-251M22,3,277,PS,exp,34,↓,up,↑,0.41961219999939203,False,13,-1,0,10
Y2-S2-251M22,3,278,PS,exp,49,↑,down,↓,1.044386800029315,False,14,-1,0,10
Y2-S2-251M22,3,279,PS,exp,45,↓,down,↓,0.728037100052461,True,15,-1,0,10
Y2-S2-251M22,3,280,PS,exp,47,←,right,→,0.7572962999111041,False,15,-1,0,10
Y2-S2-251M22,3,281,PS,exp,30,↑,right,→,0.7179479000624269,False,16,-1,0,10
Y2-S2-251M22,3,282,PS,exp,28,↓,down,↓,0.9187271000118926,True,17,-1,0,10
Y2-S2-251M22,3,283,PS,exp,25,→,right,→,0.5831942000659183,True,17,-1,0,10
Y2-S2-251M22,3,284,PS,exp,43,←,left,←,0.5252248999895528,True,17,1,1,11
Y2-S2-251M22,3,285,PS,exp,40,↑,up,↑,0.497290899977088,True,16,1,0,11
Y2-S2-251M22,3,286,PS,exp,48,←,left,←,0.4478516000090167,True,16,1,0,11
Y2-S2-251M22,3,287,PS,exp,26,→,right,→,0.7438786999555305,True,16,1,0,11
Y2-S2-251M22,3,288,PS,exp,28,↑,up,↑,0.5776605999562889,True,15,1,0,11
Y2-S2-251M22,3,289,PS,exp,48,→,right,→,0.9659331000875682,True,15,1,0,11
Y2-S2-251M22,3,290,PS,exp,38,↓,right,→,1.2356382999569178,False,15,-1,1,12
Y2-S2-251M22,3,291,PS,exp,50,↑,right,→,0.8782639999408275,False,16,-1,0,12
Y2-S2-251M22,3,292,PS,exp,47,←,left,←,1.4286733000772074,True,17,-1,0,12
Y2-S2-251M22,3,293,PS,exp,34,↑,up,↑,0.4986925999401137,True,17,-1,0,12
Y2-S2-251M22,3,294,PS,exp,39,←,left,←,0.620360300061293,True,17,1,1,13
Y2-S2-251M22,3,295,PS,exp,45,↓,down,↓,0.6346375000430271,True,16,1,0,13
Y2-S2-251M22,3,296,PS,exp,26,←,left,←,1.166210199939087,True,16,1,0,13
Y2-S2-251M22,3,297,PS,exp,40,→,right,→,0.5631323999259621,True,16,1,0,13
Y2-S2-251M22,3,298,PS,exp,50,↑,up,↑,0.4933407000498846,True,15,1,0,13
Y2-S2-251M22,3,299,PS,exp,50,↓,down,↓,0.7695761000504717,True,15,1,0,13
Y2-S2-251M22,3,300,PS,exp,42,↑,up,↑,1.0442075999453664,True,15,1,0,13
Y2-S2-251M22,3,301,PS,exp,29,←,left,←,0.40329529996961355,True,14,1,0,13
Y2-S2-251M22,3,302,PS,exp,30,↓,down,↓,0.6102783000096679,True,14,1,0,13
Y2-S2-251M22,3,303,PS,exp,37,→,right,→,1.1681075000669807,True,14,1,0,13
Y2-S2-251M22,3,304,PS,exp,48,↓,down,↓,1.2828857999993488,True,13,1,0,13
Y2-S2-251M22,3,305,PS,exp,32,→,right,→,0.42972300003748387,True,13,1,0,13
Y2-S2-251M22,3,306,PS,exp,37,↑,up,↑,0.3855863999342546,True,13,1,0,13
Y2-S2-251M22,3,307,PS,exp,50,↓,down,↓,0.7372365000192076,True,12,1,0,13
Y2-S2-251M22,3,308,PS,exp,26,↑,up,↑,0.44493390002753586,True,12,1,0,13
Y2-S2-251M22,3,309,PS,exp,50,←,left,←,0.4029715999495238,True,12,1,0,13
Y2-S2-251M22,3,310,PS,exp,36,↓,down,↓,0.5628254999173805,True,11,1,0,13
Y2-S2-251M22,3,311,PS,exp,39,→,right,→,0.4543434999650344,True,11,1,0,13
Y2-S2-251M22,3,312,PS,exp,35,←,up,↑,0.8978216999676079,False,11,-1,1,14
Y2-S2-251M22,3,313,PS,exp,26,↓,up,↑,0.6855116999940947,False,12,-1,0,14
Y2-S2-251M22,3,314,PS,exp,39,↑,right,→,0.9579730000114068,False,13,-1,0,14
Y2-S2-251M22,3,315,PS,exp,40,←,left,←,0.3673505000770092,True,14,-1,0,14
Y2-S2-251M22,3,316,PS,exp,49,↑,up,↑,0.46399229997769,True,14,-1,0,14
Y2-S2-251M22,3,317,PS,exp,34,←,left,←,0.41581700008828193,True,14,1,1,15
Y2-S2-251M22,3,318,PS,exp,39,↑,up,↑,0.4056253000162542,True,13,1,0,15
Y2-S2-251M22,3,319,PS,exp,33,→,right,→,0.5991558000678197,True,13,1,0,15
Y2-S2-251M22,3,320,PS,exp,30,↑,right,→,0.6003610000479966,False,13,-1,1,16
Y2-S2-251M22,4,321,AS,intra_train,32,→,right,→,0.48413500003516674,True,25,-,-,-
Y2-S2-251M22,4,322,AS,intra_train,46,↓,down,↓,0.623494099942036,True,25,-,-,-
Y2-S2-251M22,4,323,AS,intra_train,37,←,left,←,0.6698257999960333,True,25,-,-,-
Y2-S2-251M22,4,324,AS,intra_train,33,↑,up,↑,0.6563528999686241,True,25,-,-,-
Y2-S2-251M22,4,325,AS,intra_train,37,↓,down,↓,0.7498820000328124,True,25,-,-,-
Y2-S2-251M22,4,326,AS,exp,34,←,left,←,0.543481000000611,True,17,0,0,0
Y2-S2-251M22,4,327,AS,exp,32,↑,up,↑,0.7773636999772862,True,17,0,0,0
Y2-S2-251M22,4,328,AS,exp,49,←,left,←,1.481320400023833,True,17,1,0,0
Y2-S2-251M22,4,329,AS,exp,34,→,left,←,0.5325230999151245,False,16,-1,1,1
Y2-S2-251M22,4,330,AS,exp,26,↑,right,→,0.607536599971354,False,17,-1,0,1
Y2-S2-251M22,4,331,AS,exp,31,←,left,←,0.5074721000855789,True,18,-1,0,1
Y2-S2-251M22,4,332,AS,exp,34,↓,down,↓,0.7786450999556109,True,18,-1,0,1
Y2-S2-251M22,4,333,AS,exp,33,→,right,→,0.6691323999548331,True,18,1,1,2
Y2-S2-251M22,4,334,AS,exp,41,↓,down,↓,0.6503058000234887,True,17,1,0,2
Y2-S2-251M22,4,335,AS,exp,29,→,right,→,0.5519993000198156,True,17,1,0,2
Y2-S2-251M22,4,336,AS,exp,41,↓,up,↑,0.8708801000611857,False,17,-1,1,3
Y2-S2-251M22,4,337,AS,exp,38,→,right,→,0.5661522999871522,True,18,-1,0,3
Y2-S2-251M22,4,338,AS,exp,28,←,left,←,0.49016889999620616,True,18,-1,0,3
Y2-S2-251M22,4,339,AS,exp,35,→,right,→,0.5010851999977604,True,18,1,1,4
Y2-S2-251M22,4,340,AS,exp,33,↓,down,↓,0.9397061000345275,True,17,1,0,4
Y2-S2-251M22,4,341,AS,exp,35,→,right,→,0.47927819995675236,True,17,1,0,4
Y2-S2-251M22,4,342,AS,exp,31,←,left,←,0.5662776000099257,True,17,1,0,4
Y2-S2-251M22,4,343,AS,exp,29,→,right,→,0.5282686999998987,True,16,1,0,4
Y2-S2-251M22,4,344,AS,exp,40,↑,right,→,0.7010594999883324,False,16,-1,1,5
Y2-S2-251M22,4,345,AS,exp,30,↓,down,↓,0.5881181000731885,True,17,-1,0,5
Y2-S2-251M22,4,346,AS,exp,50,←,left,←,0.5995257999747992,True,17,-1,0,5
Y2-S2-251M22,4,347,AS,exp,49,↑,left,←,0.5903328000567853,False,17,-1,0,5
Y2-S2-251M22,4,348,AS,exp,34,↓,down,↓,0.611975000007078,True,18,-1,0,5
Y2-S2-251M22,4,349,AS,exp,35,↑,up,↑,0.41734309995081276,True,18,-1,0,5
Y2-S2-251M22,4,350,AS,exp,46,↓,up,↑,0.7807763000018895,False,18,-1,0,5
Y2-S2-251M22,4,351,AS,exp,47,←,left,←,0.3506516999332234,True,19,-1,0,5
Y2-S2-251M22,4,352,AS,exp,47,↓,down,↓,0.575094599975273,True,19,-1,0,5
Y2-S2-251M22,4,353,AS,exp,44,↑,up,↑,0.40099949995055795,True,19,1,1,6
Y2-S2-251M22,4,354,AS,exp,28,→,left,←,0.6784333999967203,False,18,-1,1,7
Y2-S2-251M22,4,355,AS,exp,32,←,left,←,0.6226420000893995,True,19,-1,0,7
Y2-S2-251M22,4,356,AS,exp,40,↓,down,↓,0.6683355999412015,True,19,-1,0,7
Y2-S2-251M22,4,357,AS,exp,32,→,right,→,0.3839350000489503,True,19,1,1,8
Y2-S2-251M22,4,358,AS,exp,40,←,left,←,0.5349515000125393,True,18,1,0,8
Y2-S2-251M22,4,359,AS,exp,39,↓,up,↑,1.1560414000414312,False,18,-1,1,9
Y2-S2-251M22,4,360,AS,exp,46,→,right,→,0.5781414000084624,True,19,-1,0,9
Y2-S2-251M22,4,361,AS,exp,32,↑,up,↑,0.5485755000263453,True,19,-1,0,9
Y2-S2-251M22,4,362,AS,exp,43,→,right,→,0.5937960000010207,True,19,1,1,10
Y2-S2-251M22,4,363,AS,exp,28,←,left,←,0.4677657000720501,True,18,1,0,10
Y2-S2-251M22,4,364,AS,exp,35,→,right,→,0.5643935999833047,True,18,1,0,10
Y2-S2-251M22,4,365,AS,exp,30,←,left,←,0.6307352000148967,True,18,1,0,10
Y2-S2-251M22,4,366,AS,exp,47,↑,up,↑,0.5711433999240398,True,17,1,0,10
Y2-S2-251M22,4,367,AS,exp,48,→,right,→,0.6379367000190541,True,17,1,0,10
Y2-S2-251M22,4,368,AS,exp,29,←,left,←,0.38387879997026175,True,17,1,0,10
Y2-S2-251M22,4,369,AS,exp,40,→,right,→,0.514422099920921,True,16,1,0,10
Y2-S2-251M22,4,370,AS,exp,50,←,left,←,0.35052019997965544,True,16,1,0,10
Y2-S2-251M22,4,371,AS,exp,33,→,right,→,0.44770050002261996,True,16,1,0,10
Y2-S2-251M22,4,372,AS,exp,42,←,left,←,0.3673170000547543,True,15,1,0,10
Y2-S2-251M22,4,373,AS,exp,30,→,right,→,0.4672028999775648,True,15,1,0,10
Y2-S2-251M22,4,374,AS,exp,39,←,left,←,0.35083959996700287,True,15,1,0,10
Y2-S2-251M22,4,375,AS,exp,39,↑,right,→,0.8229792000493035,False,14,-1,1,11
Y2-S2-251M22,4,376,AS,exp,33,→,right,→,0.9731891000410542,True,15,-1,0,11
Y2-S2-251M22,4,377,AS,exp,30,↓,down,↓,0.7058120000874624,True,15,-1,0,11
Y2-S2-251M22,4,378,AS,exp,39,→,right,→,0.6294678000267595,True,15,1,1,12
Y2-S2-251M22,4,379,AS,exp,26,↑,up,↑,0.4980508000589907,True,14,1,0,12
Y2-S2-251M22,4,380,AS,exp,36,←,left,←,0.4990163999609649,True,14,1,0,12
Y2-S2-251M22,4,381,AS,exp,43,→,right,→,0.4455655999481678,True,14,1,0,12
Y2-S2-251M22,4,382,AS,exp,25,←,left,←,0.47546370001509786,True,13,1,0,12
Y2-S2-251M22,4,383,AS,exp,41,↑,up,↑,0.5237905998947099,True,13,1,0,12
Y2-S2-251M22,4,384,AS,exp,33,↓,down,↓,0.6028251999523491,True,13,1,0,12
Y2-S2-251M22,4,385,AS,exp,50,→,right,→,0.5735938999569044,True,12,1,0,12
Y2-S2-251M22,4,386,AS,exp,37,↑,up,↑,1.1511840000748634,True,12,1,0,12
Y2-S2-251M22,4,387,AS,exp,33,↓,up,↑,0.8497605000156909,False,12,-1,1,13
Y2-S2-251M22,4,388,AS,exp,44,→,left,←,0.6146335999947041,False,13,-1,0,13
Y2-S2-251M22,4,389,AS,exp,42,↓,down,↓,0.592735999962315,True,14,-1,0,13
Y2-S2-251M22,4,390,AS,exp,33,→,right,→,0.5746194999665022,True,14,-1,0,13
Y2-S2-251M22,4,391,AS,exp,25,↑,up,↑,0.35055190010461956,True,14,1,1,14
Y2-S2-251M22,4,392,AS,exp,45,→,right,→,0.43517419998534024,True,13,1,0,14
Y2-S2-251M22,4,393,AS,exp,41,←,left,←,0.35077020002063364,True,13,1,0,14
Y2-S2-251M22,4,394,AS,exp,38,→,right,→,0.41126189997885376,True,13,1,0,14
Y2-S2-251M22,4,395,AS,exp,39,↑,up,↑,0.37403289997018874,True,12,1,0,14
Y2-S2-251M22,4,396,AS,exp,49,↓,up,↑,0.6317106999922544,False,12,-1,1,15
Y2-S2-251M22,4,397,AS,exp,34,→,right,→,0.4744313000701368,True,13,-1,0,15
Y2-S2-251M22,4,398,AS,exp,33,←,up,↑,0.5529344000387937,False,13,-1,0,15
Y2-S2-251M22,4,399,AS,exp,35,↑,left,←,0.2506736000068486,False,14,-1,0,15
Y2-S2-251M22,4,400,AS,exp,30,→,down,↓,0.31771229999139905,False,15,-1,0,15
Y2-S2-251M22,4,401,AS,exp,46,↑,right,→,0.45607419998850673,False,16,-1,0,15
Y2-S2-251M22,4,402,AS,exp,34,→,right,→,0.36712499998975545,True,17,-1,0,15
Y2-S2-251M22,4,403,AS,exp,50,←,left,←,0.6710977000184357,True,17,-1,0,15
Y2-S2-251M22,4,404,AS,exp,39,↓,down,↓,0.6788113999646157,True,17,1,1,16
Y2-S2-251M22,5,405,AS,intra_train,45,→,right,→,0.45073070004582405,True,25,-,-,-
Y2-S2-251M22,5,406,AS,intra_train,28,←,left,←,0.5921622000169009,True,25,-,-,-
Y2-S2-251M22,5,407,AS,intra_train,45,↓,down,↓,0.6057424999307841,True,25,-,-,-
Y2-S2-251M22,5,408,AS,intra_train,49,→,right,→,0.43402129993773997,True,25,-,-,-
Y2-S2-251M22,5,409,AS,intra_train,28,↑,up,↑,0.38424160005524755,True,25,-,-,-
Y2-S2-251M22,5,410,AS,exp,32,↓,down,↓,0.6953974000643939,True,17,0,0,0
Y2-S2-251M22,5,411,AS,exp,28,→,right,→,0.3675767998211086,True,17,0,0,0
Y2-S2-251M22,5,412,AS,exp,36,↓,down,↓,0.6080803999211639,True,17,1,0,0
Y2-S2-251M22,5,413,AS,exp,34,←,left,←,0.5601360998116434,True,16,1,0,0
Y2-S2-251M22,5,414,AS,exp,34,→,right,→,1.1522969999350607,True,16,1,0,0
Y2-S2-251M22,5,415,AS,exp,29,↑,up,↑,0.6598011997994035,True,16,1,0,0
Y2-S2-251M22,5,416,AS,exp,35,←,left,←,0.6144342999905348,True,15,1,0,0
Y2-S2-251M22,5,417,AS,exp,42,→,right,→,0.5462415001820773,True,15,1,0,0
Y2-S2-251M22,5,418,AS,exp,45,←,left,←,0.616264299955219,True,15,1,0,0
Y2-S2-251M22,5,419,AS,exp,33,↓,down,↓,0.6893249999266118,True,14,1,0,0
Y2-S2-251M22,5,420,AS,exp,28,↑,left,←,0.21733210003003478,False,14,-1,1,1
Y2-S2-251M22,5,421,AS,exp,33,↓,down,↓,0.7221078998409212,True,15,-1,0,1
Y2-S2-251M22,5,422,AS,exp,25,→,right,→,0.5846537000034004,True,15,-1,0,1
Y2-S2-251M22,5,423,AS,exp,32,↑,right,→,0.47505990019999444,False,15,-1,0,1
Y2-S2-251M22,5,424,AS,exp,37,←,left,←,0.6779988999478519,True,16,-1,0,1
Y2-S2-251M22,5,425,AS,exp,35,→,right,→,1.0264177999924868,True,16,-1,0,1
Y2-S2-251M22,5,426,AS,exp,36,↑,up,↑,0.9567374000325799,True,16,1,1,2
Y2-S2-251M22,5,427,AS,exp,49,→,right,→,0.3669936000369489,True,15,1,0,2
Y2-S2-251M22,5,428,AS,exp,32,←,right,→,0.5682792000006884,False,15,-1,1,3
Y2-S2-251M22,5,429,AS,exp,37,→,left,←,0.333804199937731,False,16,-1,0,3
Y2-S2-251M22,5,430,AS,exp,49,↑,up,↑,0.3674369000364095,True,17,-1,0,3
Y2-S2-251M22,5,431,AS,exp,29,→,right,→,0.5721337001305073,True,17,-1,0,3
Y2-S2-251M22,5,432,AS,exp,34,↑,up,↑,0.3672489000018686,True,17,1,1,4
Y2-S2-251M22,5,433,AS,exp,34,←,left,←,0.4782581999897957,True,16,1,0,4
Y2-S2-251M22,5,434,AS,exp,27,↓,up,↑,0.5202430000063032,False,16,-1,1,5
Y2-S2-251M22,5,435,AS,exp,40,↑,down,↓,0.7093527000397444,False,17,-1,0,5
Y2-S2-251M22,5,436,AS,exp,42,←,left,←,0.6021871000993997,True,18,-1,0,5
Y2-S2-251M22,5,437,AS,exp,46,↓,down,↓,0.622153399977833,True,18,-1,0,5
Y2-S2-251M22,5,438,AS,exp,33,↑,down,↓,0.5610660000238568,False,18,-1,0,5
Y2-S2-251M22,5,439,AS,exp,45,←,left,←,0.6401278001721948,True,19,-1,0,5
Y2-S2-251M22,5,440,AS,exp,40,→,right,→,0.6364256001543254,True,19,-1,0,5
Y2-S2-251M22,5,441,AS,exp,49,↓,down,↓,0.626852500019595,True,19,1,1,6
Y2-S2-251M22,5,442,AS,exp,46,↑,up,↑,0.47850089985877275,True,18,1,0,6
Y2-S2-251M22,5,443,AS,exp,36,→,right,→,0.4006277001462877,True,18,1,0,6
Y2-S2-251M22,5,444,AS,exp,30,↓,down,↓,0.4863150999881327,True,18,1,0,6
Y2-S2-251M22,5,445,AS,exp,25,←,left,←,0.3838364998809993,True,17,1,0,6
Y2-S2-251M22,5,446,AS,exp,36,↑,up,↑,0.38400420011021197,True,17,1,0,6
Y2-S2-251M22,5,447,AS,exp,32,↓,left,←,0.3504841001704335,False,17,-1,1,7
Y2-S2-251M22,5,448,AS,exp,25,↑,up,↑,0.7735324001405388,True,18,-1,0,7
Y2-S2-251M22,5,449,AS,exp,26,←,left,←,0.6578399001155049,True,18,-1,0,7
Y2-S2-251M22,5,450,AS,exp,32,→,right,→,0.9839310001116246,True,18,1,1,8
Y2-S2-251M22,5,451,AS,exp,39,↑,up,↑,0.645746799884364,True,17,1,0,8
Y2-S2-251M22,5,452,AS,exp,35,↓,down,↓,0.6630816000979394,True,17,1,0,8
Y2-S2-251M22,5,453,AS,exp,33,↑,up,↑,0.5280559998936951,True,17,1,0,8
Y2-S2-251M22,5,454,AS,exp,34,→,right,→,0.5830138998571783,True,16,1,0,8
Y2-S2-251M22,5,455,AS,exp,34,↓,right,→,0.8764675001148134,False,16,-1,1,9
Y2-S2-251M22,5,456,AS,exp,25,→,right,→,0.5728546001482755,True,17,-1,0,9
Y2-S2-251M22,5,457,AS,exp,43,↑,up,↑,0.7809887998737395,True,17,-1,0,9
Y2-S2-251M22,5,458,AS,exp,43,←,left,←,0.38401439995504916,True,17,1,1,10
Y2-S2-251M22,5,459,AS,exp,42,↑,up,↑,0.8491770001128316,True,16,1,0,10
Y2-S2-251M22,5,460,AS,exp,40,←,left,←,0.6435461998917162,True,16,1,0,10
Y2-S2-251M22,5,461,AS,exp,45,↑,up,↑,0.6777862999588251,True,16,1,0,10
Y2-S2-251M22,5,462,AS,exp,42,→,right,→,0.8863643000368029,True,15,1,0,10
Y2-S2-251M22,5,463,AS,exp,30,↑,up,↑,0.49112500017508864,True,15,1,0,10
Y2-S2-251M22,5,464,AS,exp,28,←,right,→,0.6655236000660807,False,15,-1,1,11
Y2-S2-251M22,5,465,AS,exp,31,→,left,←,0.10088929999619722,False,16,-1,0,11
Y2-S2-251M22,5,466,AS,exp,46,←,left,←,0.35042000003159046,True,17,-1,0,11
Y2-S2-251M22,5,467,AS,exp,31,↓,down,↓,0.5295816999860108,True,17,-1,0,11
Y2-S2-251M22,5,468,AS,exp,50,→,left,←,0.7407247999217361,False,17,-1,0,11
Y2-S2-251M22,5,469,AS,exp,49,↑,up,↑,0.48096519988030195,True,18,-1,0,11
Y2-S2-251M22,5,470,AS,exp,42,→,right,→,0.6056793997995555,True,18,-1,0,11
Y2-S2-251M22,5,471,AS,exp,49,←,left,←,0.3838563999161124,True,18,1,1,12
Y2-S2-251M22,5,472,AS,exp,43,→,right,→,0.4172895001247525,True,17,1,0,12
Y2-S2-251M22,5,473,AS,exp,50,↓,down,↓,0.5999324999283999,True,17,1,0,12
Y2-S2-251M22,5,474,AS,exp,29,←,right,→,1.3379377000965178,False,17,-1,1,13
Y2-S2-251M22,5,475,AS,exp,26,↑,up,↑,0.4759519000072032,True,18,-1,0,13
Y2-S2-251M22,5,476,AS,exp,43,←,left,←,1.0724270001519471,True,18,-1,0,13
Y2-S2-251M22,5,477,AS,exp,34,↓,down,↓,0.9090237999334931,True,18,1,1,14
Y2-S2-251M22,5,478,AS,exp,37,↑,up,↑,0.8767045999411494,True,17,1,0,14
Y2-S2-251M22,5,479,AS,exp,42,←,right,→,0.6050098000559956,False,17,-1,1,15
Y2-S2-251M22,5,480,AS,exp,31,↓,down,↓,0.602990800049156,True,18,-1,0,15
Y2-S2-251M22,5,481,AS,exp,26,↑,up,↑,0.4772259001620114,True,18,-1,0,15
Y2-S2-251M22,5,482,AS,exp,32,←,left,←,0.4759760999586433,True,18,1,1,16
Y2-S2-251M22,6,483,PS,intra_train,41,↓,right,→,1.014958499930799,False,12,-,-,-
Y2-S2-251M22,6,484,PS,intra_train,48,→,right,→,0.8536608000285923,True,12,-,-,-
Y2-S2-251M22,6,485,PS,intra_train,31,←,left,←,0.7239112998358905,True,12,-,-,-
Y2-S2-251M22,6,486,PS,intra_train,46,↓,right,→,0.6629602001048625,False,12,-,-,-
Y2-S2-251M22,6,487,PS,intra_train,26,↑,right,→,1.063012600177899,False,12,-,-,-
Y2-S2-251M22,6,488,PS,exp,35,→,right,→,0.7500235999468714,True,8,0,0,0
Y2-S2-251M22,6,489,PS,exp,46,↓,right,→,0.8298617999535054,False,8,-1,0,0
Y2-S2-251M22,6,490,PS,exp,43,↑,left,←,0.4340698001906276,False,9,-1,0,0
Y2-S2-251M22,6,491,PS,exp,42,↓,left,←,0.233625499997288,False,10,-1,0,0
Y2-S2-251M22,6,492,PS,exp,36,←,left,←,0.4940063999965787,True,11,-1,0,0
Y2-S2-251M22,6,493,PS,exp,31,→,right,→,0.5268949999008328,True,11,-1,0,0
Y2-S2-251M22,6,494,PS,exp,45,←,left,←,0.8087867998983711,True,11,1,1,1
Y2-S2-251M22,6,495,PS,exp,32,↓,down,↓,0.650534600019455,True,10,1,0,1
Y2-S2-251M22,6,496,PS,exp,27,←,left,←,0.5578602000605315,True,10,1,0,1
Y2-S2-251M22,6,497,PS,exp,35,↓,down,↓,0.6975837999489158,True,10,1,0,1
Y2-S2-251M22,6,498,PS,exp,47,→,right,→,0.3927561999298632,True,9,1,0,1
Y2-S2-251M22,6,499,PS,exp,25,↓,down,↓,0.527390600182116,True,9,1,0,1
Y2-S2-251M22,6,500,PS,exp,44,↑,up,↑,0.5915665999054909,True,9,1,0,1
Y2-S2-251M22,6,501,PS,exp,33,←,left,←,0.4235026000533253,True,8,1,0,1
Y2-S2-251M22,6,502,PS,exp,25,↑,up,↑,0.5057210000231862,True,8,1,0,1
Y2-S2-251M22,6,503,PS,exp,32,→,left,←,0.5903720001224428,False,8,-1,1,2
Y2-S2-251M22,6,504,PS,exp,50,↑,up,↑,0.6020965001080185,True,9,-1,0,2
Y2-S2-251M22,6,505,PS,exp,28,↓,up,↑,0.4745451998896897,False,9,-1,0,2
Y2-S2-251M22,6,506,PS,exp,47,→,right,→,0.10140959988348186,True,10,-1,0,2
Y2-S2-251M22,6,507,PS,exp,46,↓,left,←,0.21806240011937916,False,10,-1,0,2
Y2-S2-251M22,6,508,PS,exp,37,→,right,→,0.5080889998935163,True,11,-1,0,2
Y2-S2-251M22,6,509,PS,exp,27,↑,up,↑,0.5429225999396294,True,11,-1,0,2
Y2-S2-251M22,6,510,PS,exp,47,←,left,←,0.5444388000760227,True,11,1,1,3
Y2-S2-251M22,6,511,PS,exp,25,↓,down,↓,0.512927700066939,True,10,1,0,3
Y2-S2-251M22,6,512,PS,exp,45,↑,up,↑,0.48102690000087023,True,10,1,0,3
Y2-S2-251M22,6,513,PS,exp,43,↓,down,↓,0.46664920006878674,True,10,1,0,3
Y2-S2-251M22,6,514,PS,exp,28,→,right,→,0.43360210000537336,True,9,1,0,3
Y2-S2-251M22,6,515,PS,exp,44,↓,down,↓,0.5905176000669599,True,9,1,0,3
Y2-S2-251M22,6,516,PS,exp,25,→,down,↓,0.6617663998622447,False,9,-1,1,4
Y2-S2-251M22,6,517,PS,exp,31,↓,down,↓,0.5156908000353724,True,10,-1,0,4
Y2-S2-251M22,6,518,PS,exp,37,←,right,→,0.6392671000212431,False,10,-1,0,4
Y2-S2-251M22,6,519,PS,exp,37,→,right,→,0.38360949978232384,True,11,-1,0,4
Y2-S2-251M22,6,520,PS,exp,36,↑,up,↑,0.4616692999843508,True,11,-1,0,4
Y2-S2-251M22,6,521,PS,exp,48,←,left,←,0.4927081000059843,True,11,1,1,5
Y2-S2-251M22,6,522,PS,exp,38,↑,right,→,0.658496999880299,False,10,-1,1,6
Y2-S2-251M22,6,523,PS,exp,27,←,right,→,1.10846809996292,False,11,-1,0,6
Y2-S2-251M22,6,524,PS,exp,49,↓,down,↓,0.6484411999117583,True,12,-1,0,6
Y2-S2-251M22,6,525,PS,exp,26,←,left,←,0.42727670003660023,True,12,-1,0,6
Y2-S2-251M22,6,526,PS,exp,34,↑,up,↑,0.5068872000556439,True,12,1,1,7
Y2-S2-251M22,6,527,PS,exp,33,→,right,→,0.4788103001192212,True,11,1,0,7
Y2-S2-251M22,6,528,PS,exp,48,↑,up,↑,0.3912148999515921,True,11,1,0,7
Y2-S2-251M22,6,529,PS,exp,28,→,right,→,0.42054990003816783,True,11,1,0,7
Y2-S2-251M22,6,530,PS,exp,30,↓,down,↓,0.5113984001800418,True,10,1,0,7
Y2-S2-251M22,6,531,PS,exp,43,←,right,→,0.5904045000206679,False,10,-1,1,8
Y2-S2-251M22,6,532,PS,exp,44,↑,up,↑,0.6722688998561352,True,11,-1,0,8
Y2-S2-251M22,6,533,PS,exp,34,→,left,←,0.9256384999025613,False,11,-1,0,8
Y2-S2-251M22,6,534,PS,exp,34,↓,down,↓,0.48941430007107556,True,12,-1,0,8
Y2-S2-251M22,6,535,PS,exp,36,↑,left,←,0.7761033999267966,False,12,-1,0,8
Y2-S2-251M22,6,536,PS,exp,36,→,left,←,0.35061530000530183,False,13,-1,0,8
Y2-S2-251M22,6,537,PS,exp,50,←,left,←,1.0903866000007838,True,14,-1,0,8
Y2-S2-251M22,6,538,PS,exp,44,↓,right,→,0.9877128000371158,False,14,-1,0,8
Y2-S2-251M22,6,539,PS,exp,50,↑,up,↑,0.6315691999625415,True,15,-1,0,8
Y2-S2-251M22,6,540,PS,exp,37,→,left,←,0.31728910002857447,False,15,-1,0,8
Y2-S2-251M22,6,541,PS,exp,48,←,right,→,0.3506626000162214,False,16,-1,0,8
Y2-S2-251M22,6,542,PS,exp,38,→,right,→,0.523148899897933,True,17,-1,0,8
Y2-S2-251M22,6,543,PS,exp,49,↓,down,↓,0.5739638998638839,True,17,-1,0,8
Y2-S2-251M22,6,544,PS,exp,38,→,right,→,1.0479899998754263,True,17,1,1,9
Y2-S2-251M22,6,545,PS,exp,35,↓,down,↓,0.4359188999515027,True,16,1,0,9
Y2-S2-251M22,6,546,PS,exp,44,←,left,←,0.531977899838239,True,16,1,0,9
Y2-S2-251M22,6,547,PS,exp,29,↓,down,↓,0.6181248999200761,True,16,1,0,9
Y2-S2-251M22,6,548,PS,exp,30,←,up,↑,0.6231692000292242,False,15,-1,1,10
Y2-S2-251M22,6,549,PS,exp,33,→,right,→,0.6045174000319093,True,16,-1,0,10
Y2-S2-251M22,6,550,PS,exp,38,↑,up,↑,0.5766127000097185,True,16,-1,0,10
Y2-S2-251M22,6,551,PS,exp,30,←,left,←,0.35031300014816225,True,16,1,1,11
Y2-S2-251M22,6,552,PS,exp,41,→,right,→,0.3841858000960201,True,15,1,0,11
Y2-S2-251M22,6,553,PS,exp,50,↑,up,↑,0.4436015000101179,True,15,1,0,11
Y2-S2-251M22,6,554,PS,exp,37,→,right,→,0.8809446000959724,True,15,1,0,11
Y2-S2-251M22,6,555,PS,exp,32,↑,up,↑,0.6036022999323905,True,14,1,0,11
Y2-S2-251M22,6,556,PS,exp,28,←,left,←,0.5865460000932217,True,14,1,0,11
Y2-S2-251M22,6,557,PS,exp,37,↑,up,↑,0.8403717000037432,True,14,1,0,11
Y2-S2-251M22,6,558,PS,exp,31,←,left,←,0.4143815999850631,True,13,1,0,11
Y2-S2-251M22,6,559,PS,exp,26,→,up,↑,0.6913943998515606,False,13,-1,1,12
Y2-S2-251M22,6,560,PS,exp,49,←,left,←,0.6040127000305802,True,14,-1,0,12
Y2-S2-251M22,6,561,PS,exp,35,→,right,→,0.5436754999682307,True,14,-1,0,12
Y2-S2-251M22,6,562,PS,exp,38,←,left,←,0.5236581000499427,True,14,1,1,13
Y2-S2-251M22,6,563,PS,exp,28,↓,down,↓,0.7693211999721825,True,13,1,0,13
Y2-S2-251M22,6,564,PS,exp,49,→,right,→,0.4966660998761654,True,13,1,0,13
Y2-S2-251M22,6,565,PS,exp,29,←,left,←,0.38615219993516803,True,13,1,0,13
Y2-S2-251M22,6,566,PS,exp,41,→,right,→,0.46604939992539585,True,12,1,0,13
Y2-S2-251M22,6,567,PS,exp,44,←,left,←,0.5295533000025898,True,12,1,0,13
Y2-S2-251M22,6,568,PS,exp,46,↓,down,↓,0.7262578001245856,True,12,1,0,13
Y2-S2-251M22,6,569,PS,exp,33,↑,up,↑,0.3702669001650065,True,11,1,0,13
Y2-S2-251M22,6,570,PS,exp,40,←,left,←,0.4670050998684019,True,11,1,0,13
Y2-S2-251M22,6,571,PS,exp,37,↓,up,↑,0.8832547999918461,False,11,-1,1,14
Y2-S2-251M22,6,572,PS,exp,27,←,left,←,0.5554746000561863,True,12,-1,0,14
Y2-S2-251M22,6,573,PS,exp,31,↓,down,↓,0.6790396000724286,True,12,-1,0,14
Y2-S2-251M22,6,574,PS,exp,36,↑,up,↑,0.6577345998957753,True,12,1,1,15
Y2-S2-251M22,6,575,PS,exp,37,↓,down,↓,0.5770980999805033,True,11,1,0,15
Y2-S2-251M22,6,576,PS,exp,46,→,right,→,0.41738310013897717,True,11,1,0,15
Y2-S2-251M22,6,577,PS,exp,43,↑,up,↑,0.5438190998975188,True,11,1,0,15
Y2-S2-251M22,6,578,PS,exp,25,↓,down,↓,0.5766334999352694,True,10,1,0,15
Y2-S2-251M22,6,579,PS,exp,30,←,left,←,0.4534366000443697,True,10,1,0,15
Y2-S2-251M22,6,580,PS,exp,37,→,right,→,0.4541092000436038,True,10,1,0,15
Y2-S2-251M22,6,581,PS,exp,31,←,right,→,0.8453083001077175,False,9,-1,1,16
Y2-S2-251M22,7,582,PS,intra_train,42,↓,down,↓,0.49345079995691776,True,12,-,-,-
Y2-S2-251M22,7,583,PS,intra_train,29,↑,up,↑,0.49459070013836026,True,12,-,-,-
Y2-S2-251M22,7,584,PS,intra_train,28,↓,down,↓,0.571350600104779,True,12,-,-,-
Y2-S2-251M22,7,585,PS,intra_train,38,→,left,←,0.3740635998547077,False,12,-,-,-
Y2-S2-251M22,7,586,PS,intra_train,28,←,left,←,0.5047118999063969,True,12,-,-,-
Y2-S2-251M22,7,587,PS,exp,34,↓,down,↓,0.6347481999546289,True,8,0,0,0
Y2-S2-251M22,7,588,PS,exp,39,→,right,→,0.3507473000790924,True,8,0,0,0
Y2-S2-251M22,7,589,PS,exp,31,↑,left,←,0.9286627999972552,False,8,-1,0,0
Y2-S2-251M22,7,590,PS,exp,32,←,left,←,0.44562850007787347,True,9,-1,0,0
Y2-S2-251M22,7,591,PS,exp,46,↑,left,←,0.5043605000246316,False,9,-1,0,0
Y2-S2-251M22,7,592,PS,exp,47,←,right,→,0.6900040998589247,False,10,-1,0,0
Y2-S2-251M22,7,593,PS,exp,33,↓,left,←,0.6955148000270128,False,11,-1,0,0
Y2-S2-251M22,7,594,PS,exp,25,←,right,→,0.7754356001969427,False,12,-1,0,0
Y2-S2-251M22,7,595,PS,exp,26,↓,down,↓,0.8473553999792784,True,13,-1,0,0
Y2-S2-251M22,7,596,PS,exp,44,→,right,→,0.4484618999995291,True,13,-1,0,0
Y2-S2-251M22,7,597,PS,exp,48,↑,right,→,0.5722244000062346,False,13,-1,0,0
Y2-S2-251M22,7,598,PS,exp,35,→,right,→,0.45652240002527833,True,14,-1,0,0
Y2-S2-251M22,7,599,PS,exp,29,↓,right,→,0.334036499960348,False,14,-1,0,0
Y2-S2-251M22,7,600,PS,exp,40,↑,up,↑,0.536601500120014,True,15,-1,0,0
Y2-S2-251M22,7,601,PS,exp,34,←,left,←,0.43435729993507266,True,15,-1,0,0
Y2-S2-251M22,7,602,PS,exp,39,↓,down,↓,0.5494347999338061,True,15,1,1,1
Y2-S2-251M22,7,603,PS,exp,34,↑,right,→,0.9895972001831979,False,14,-1,1,2
Y2-S2-251M22,7,604,PS,exp,28,←,left,←,0.3840703999157995,True,15,-1,0,2
Y2-S2-251M22,7,605,PS,exp,49,→,right,→,0.38400790002197027,True,15,-1,0,2
Y2-S2-251M22,7,606,PS,exp,39,←,right,→,0.5473113001789898,False,15,-1,0,2
Y2-S2-251M22,7,607,PS,exp,33,↓,right,→,0.4345555999316275,False,16,-1,0,2
Y2-S2-251M22,7,608,PS,exp,47,→,right,→,0.526280099991709,True,17,-1,0,2
Y2-S2-251M22,7,609,PS,exp,36,↓,down,↓,0.5376677999738604,True,17,-1,0,2
Y2-S2-251M22,7,610,PS,exp,48,→,left,←,0.2838822000194341,False,17,-1,0,2
Y2-S2-251M22,7,611,PS,exp,33,↑,up,↑,0.5193495999556035,True,18,-1,0,2
Y2-S2-251M22,7,612,PS,exp,36,→,right,→,1.1973069000523537,True,18,-1,0,2
Y2-S2-251M22,7,613,PS,exp,32,←,left,←,0.5187182000372559,True,18,1,1,3
Y2-S2-251M22,7,614,PS,exp,28,↑,up,↑,0.5092170999851078,True,17,1,0,3
Y2-S2-251M22,7,615,PS,exp,40,→,right,→,0.5501227001659572,True,17,1,0,3
Y2-S2-251M22,7,616,PS,exp,40,←,left,←,0.3837168999016285,True,17,1,0,3
Y2-S2-251M22,7,617,PS,exp,38,↓,down,↓,0.9463749998249114,True,16,1,0,3
Y2-S2-251M22,7,618,PS,exp,47,↑,down,↓,0.8636564000044018,False,16,-1,1,4
Y2-S2-251M22,7,619,PS,exp,42,→,right,→,0.4171955001074821,True,17,-1,0,4
Y2-S2-251M22,7,620,PS,exp,34,↓,down,↓,0.5795300998724997,True,17,-1,0,4
Y2-S2-251M22,7,621,PS,exp,34,←,left,←,0.5570895001292229,True,17,1,1,5
Y2-S2-251M22,7,622,PS,exp,48,→,left,←,0.6420577999670058,False,16,-1,1,6
Y2-S2-251M22,7,623,PS,exp,39,←,left,←,1.0936729998793453,True,17,-1,0,6
Y2-S2-251M22,7,624,PS,exp,39,↑,up,↑,0.5365277999080718,True,17,-1,0,6
Y2-S2-251M22,7,625,PS,exp,29,←,left,←,0.6395968999713659,True,17,1,1,7
Y2-S2-251M22,7,626,PS,exp,47,→,right,→,0.6819289999548346,True,16,1,0,7
Y2-S2-251M22,7,627,PS,exp,41,↑,up,↑,0.45415249979123473,True,16,1,0,7
Y2-S2-251M22,7,628,PS,exp,42,←,left,←,0.5253664997871965,True,16,1,0,7
Y2-S2-251M22,7,629,PS,exp,26,↓,down,↓,0.6075085999909788,True,15,1,0,7
Y2-S2-251M22,7,630,PS,exp,25,↑,left,←,0.7274722999427468,False,15,-1,1,8
Y2-S2-251M22,7,631,PS,exp,32,←,left,←,0.6963595000561327,True,16,-1,0,8
Y2-S2-251M22,7,632,PS,exp,50,→,right,→,1.228243499994278,True,16,-1,0,8
Y2-S2-251M22,7,633,PS,exp,35,↑,up,↑,0.6181917001958936,True,16,1,1,9
Y2-S2-251M22,7,634,PS,exp,35,↓,down,↓,0.8760245000012219,True,15,1,0,9
Y2-S2-251M22,7,635,PS,exp,33,→,right,→,0.5059767998754978,True,15,1,0,9
Y2-S2-251M22,7,636,PS,exp,50,↑,up,↑,0.3504178000148386,True,15,1,0,9
Y2-S2-251M22,7,637,PS,exp,27,→,right,→,0.49711090000346303,True,14,1,0,9
Y2-S2-251M22,7,638,PS,exp,31,←,left,←,1.477059500059113,True,14,1,0,9
Y2-S2-251M22,7,639,PS,exp,45,↓,down,↓,0.6369080001022667,True,14,1,0,9
Y2-S2-251M22,7,640,PS,exp,26,↑,up,↑,0.3991233999840915,True,13,1,0,9
Y2-S2-251M22,7,641,PS,exp,44,↓,down,↓,0.5871709999628365,True,13,1,0,9
Y2-S2-251M22,7,642,PS,exp,29,→,right,→,0.8468265999108553,True,13,1,0,9
Y2-S2-251M22,7,643,PS,exp,35,←,left,←,0.4541265000589192,True,12,1,0,9
Y2-S2-251M22,7,644,PS,exp,49,↓,down,↓,0.6872764001600444,True,12,1,0,9
Y2-S2-251M22,7,645,PS,exp,48,↑,up,↑,0.7250804998911917,True,12,1,0,9
Y2-S2-251M22,7,646,PS,exp,43,→,right,→,0.7751795998774469,True,11,1,0,9
Y2-S2-251M22,7,647,PS,exp,38,←,left,←,0.39185839984565973,True,11,1,0,9
Y2-S2-251M22,7,648,PS,exp,27,↓,down,↓,0.6947180000133812,True,11,1,0,9
Y2-S2-251M22,7,649,PS,exp,33,→,right,→,0.620813800022006,True,10,1,0,9
Y2-S2-251M22,7,650,PS,exp,32,↓,down,↓,0.5498353999573737,True,10,1,0,9
Y2-S2-251M22,7,651,PS,exp,32,↑,right,→,1.0426986999809742,False,10,-1,1,10
Y2-S2-251M22,7,652,PS,exp,34,→,right,→,0.4106878999155015,True,11,-1,0,10
Y2-S2-251M22,7,653,PS,exp,33,↑,up,↑,0.7097873000893742,True,11,-1,0,10
Y2-S2-251M22,7,654,PS,exp,34,↓,down,↓,0.5836640000343323,True,11,1,1,11
Y2-S2-251M22,7,655,PS,exp,33,←,right,→,0.7158421999774873,False,10,-1,1,12
Y2-S2-251M22,7,656,PS,exp,33,→,down,↓,0.6456945999525487,False,11,-1,0,12
Y2-S2-251M22,7,657,PS,exp,49,↓,left,←,0.2006082001607865,False,12,-1,0,12
Y2-S2-251M22,7,658,PS,exp,47,↑,right,→,0.15140620013698936,False,13,-1,0,12
Y2-S2-251M22,7,659,PS,exp,30,→,right,→,1.1061853999271989,True,14,-1,0,12
Y2-S2-251M22,7,660,PS,exp,26,↑,left,←,0.10093650012277067,False,14,-1,0,12
Y2-S2-251M22,7,661,PS,exp,40,↓,left,←,1.3921312000602484,False,15,-1,0,12
Y2-S2-251M22,7,662,PS,exp,31,←,up,↑,0.21757109998725355,False,16,-1,0,12
Y2-S2-251M22,7,663,PS,exp,43,→,right,→,0.5608802000060678,True,17,-1,0,12
Y2-S2-251M22,7,664,PS,exp,39,↓,down,↓,0.6621820000000298,True,17,-1,0,12
Y2-S2-251M22,7,665,PS,exp,35,→,right,→,0.4708805000409484,True,17,1,1,13
Y2-S2-251M22,7,666,PS,exp,27,←,left,←,0.4896013999823481,True,16,1,0,13
Y2-S2-251M22,7,667,PS,exp,33,↓,down,↓,0.6686792001128197,True,16,1,0,13
Y2-S2-251M22,7,668,PS,exp,44,←,down,↓,0.5076715999748558,False,16,-1,1,14
Y2-S2-251M22,7,669,PS,exp,37,↓,down,↓,0.6016901999246329,True,17,-1,0,14
Y2-S2-251M22,7,670,PS,exp,35,←,left,←,0.5714528998360038,True,17,-1,0,14
Y2-S2-251M22,7,671,PS,exp,29,↓,down,↓,0.5551346999127418,True,17,1,1,15
Y2-S2-251M22,7,672,PS,exp,48,←,left,←,0.6846549001056701,True,16,1,0,15
Y2-S2-251M22,7,673,PS,exp,39,→,right,→,0.7698908001184464,True,16,1,0,15
Y2-S2-251M22,7,674,PS,exp,26,↓,down,↓,0.750351499998942,True,16,1,0,15
Y2-S2-251M22,7,675,PS,exp,37,←,left,←,0.38349709985777736,True,15,1,0,15
Y2-S2-251M22,7,676,PS,exp,40,↑,up,↑,0.591398200020194,True,15,1,0,15
Y2-S2-251M22,7,677,PS,exp,39,→,left,←,0.8314429000020027,False,15,-1,1,16
Y2-S2-251M22,8,678,AS,intra_train,31,←,left,←,0.533849700121209,True,25,-,-,-
Y2-S2-251M22,8,679,AS,intra_train,47,↑,up,↑,0.6372301999945194,True,25,-,-,-
Y2-S2-251M22,8,680,AS,intra_train,36,→,right,→,1.8000859001185745,True,25,-,-,-
Y2-S2-251M22,8,681,AS,intra_train,28,↓,up,↑,0.6795534000266343,False,25,-,-,-
Y2-S2-251M22,8,682,AS,intra_train,39,→,right,→,0.45053029991686344,True,25,-,-,-
Y2-S2-251M22,8,683,AS,exp,33,↑,up,↑,0.4788355999626219,True,17,0,0,0
Y2-S2-251M22,8,684,AS,exp,49,←,left,←,0.4172746001277119,True,17,0,0,0
Y2-S2-251M22,8,685,AS,exp,49,→,right,→,0.5933523999992758,True,17,1,0,0
Y2-S2-251M22,8,686,AS,exp,33,←,right,→,0.8253828000742942,False,16,-1,1,1
Y2-S2-251M22,8,687,AS,exp,40,↓,down,↓,0.6350442001130432,True,17,-1,0,1
Y2-S2-251M22,8,688,AS,exp,32,→,left,←,0.9941711998544633,False,17,-1,0,1
Y2-S2-251M22,8,689,AS,exp,31,←,left,←,0.5249426998198032,True,18,-1,0,1
Y2-S2-251M22,8,690,AS,exp,45,↑,up,↑,0.5818664999678731,True,18,-1,0,1
Y2-S2-251M22,8,691,AS,exp,33,←,left,←,0.48208560002967715,True,18,1,1,2
Y2-S2-251M22,8,692,AS,exp,50,↑,up,↑,1.2361051999032497,True,17,1,0,2
Y2-S2-251M22,8,693,AS,exp,50,→,left,←,1.1094759998377413,False,17,-1,1,3
Y2-S2-251M22,8,694,AS,exp,39,↓,down,↓,0.7861385000869632,True,18,-1,0,3
Y2-S2-251M22,8,695,AS,exp,46,→,right,→,1.2187131999526173,True,18,-1,0,3
Y2-S2-251M22,8,696,AS,exp,37,←,left,←,0.48386000003665686,True,18,1,1,4
Y2-S2-251M22,8,697,AS,exp,29,→,right,→,0.5909045999869704,True,17,1,0,4
Y2-S2-251M22,8,698,AS,exp,47,↓,down,↓,0.6963273999281228,True,17,1,0,4
Y2-S2-251M22,8,699,AS,exp,46,←,left,←,0.5707446001470089,True,17,1,0,4
Y2-S2-251M22,8,700,AS,exp,33,↓,down,↓,0.5306293000467122,True,16,1,0,4
Y2-S2-251M22,8,701,AS,exp,49,←,left,←,0.5797965000383556,True,16,1,0,4
Y2-S2-251M22,8,702,AS,exp,45,↓,down,↓,0.7285652998834848,True,16,1,0,4
Y2-S2-251M22,8,703,AS,exp,35,→,right,→,0.6194331001024693,True,15,1,0,4
Y2-S2-251M22,8,704,AS,exp,25,↓,down,↓,0.6523758999537677,True,15,1,0,4
Y2-S2-251M22,8,705,AS,exp,32,↑,up,↑,0.6004168000072241,True,15,1,0,4
Y2-S2-251M22,8,706,AS,exp,38,→,right,→,0.5653585998807102,True,14,1,0,4
Y2-S2-251M22,8,707,AS,exp,50,↑,up,↑,0.8829139999579638,True,14,1,0,4
Y2-S2-251M22,8,708,AS,exp,32,←,left,←,0.7283149000722915,True,14,1,0,4
Y2-S2-251M22,8,709,AS,exp,47,→,right,→,0.4755821998696774,True,13,1,0,4
Y2-S2-251M22,8,710,AS,exp,47,←,left,←,0.4381978001911193,True,13,1,0,4
Y2-S2-251M22,8,711,AS,exp,33,↓,down,↓,0.7010119000915438,True,13,1,0,4
Y2-S2-251M22,8,712,AS,exp,40,←,right,→,0.9345072000287473,False,12,-1,1,5
Y2-S2-251M22,8,713,AS,exp,34,↑,right,→,0.884216999867931,False,13,-1,0,5
Y2-S2-251M22,8,714,AS,exp,43,↓,down,↓,0.5930252999532968,True,14,-1,0,5
Y2-S2-251M22,8,715,AS,exp,44,↑,up,↑,0.720051399897784,True,14,-1,0,5
Y2-S2-251M22,8,716,AS,exp,28,↓,up,↑,0.6930023999884725,False,14,-1,0,5
Y2-S2-251M22,8,717,AS,exp,41,←,left,←,1.0985226000193506,True,15,-1,0,5
Y2-S2-251M22,8,718,AS,exp,29,↓,left,←,1.1502169999293983,False,15,-1,0,5
Y2-S2-251M22,8,719,AS,exp,30,←,left,←,0.4555677999742329,True,16,-1,0,5
Y2-S2-251M22,8,720,AS,exp,41,↓,up,↑,0.5781030000653118,False,16,-1,0,5
Y2-S2-251M22,8,721,AS,exp,37,→,right,→,0.49143890012055635,True,17,-1,0,5
Y2-S2-251M22,8,722,AS,exp,27,↑,up,↑,0.6153412000276148,True,17,-1,0,5
Y2-S2-251M22,8,723,AS,exp,30,↓,down,↓,0.512582499999553,True,17,1,1,6
Y2-S2-251M22,8,724,AS,exp,48,↑,up,↑,0.44434489984996617,True,16,1,0,6
Y2-S2-251M22,8,725,AS,exp,48,→,right,→,0.582389899995178,True,16,1,0,6
Y2-S2-251M22,8,726,AS,exp,34,←,left,←,0.9107308001257479,True,16,1,0,6
Y2-S2-251M22,8,727,AS,exp,35,↓,up,↑,1.1088461999315768,False,15,-1,1,7
Y2-S2-251M22,8,728,AS,exp,41,←,left,←,0.8342731001321226,True,16,-1,0,7
Y2-S2-251M22,8,729,AS,exp,40,→,right,→,0.7059826001059264,True,16,-1,0,7
Y2-S2-251M22,8,730,AS,exp,29,↑,up,↑,0.6287846998311579,True,16,1,1,8
Y2-S2-251M22,8,731,AS,exp,41,↓,down,↓,0.7200242001563311,True,15,1,0,8
Y2-S2-251M22,8,732,AS,exp,45,←,left,←,0.6029515999834985,True,15,1,0,8
Y2-S2-251M22,8,733,AS,exp,42,→,left,←,0.45105229993350804,False,15,-1,1,9
Y2-S2-251M22,8,734,AS,exp,47,←,left,←,1.0465571000240743,True,16,-1,0,9
Y2-S2-251M22,8,735,AS,exp,45,→,right,→,0.9447763999924064,True,16,-1,0,9
Y2-S2-251M22,8,736,AS,exp,39,←,left,←,0.5993238999508321,True,16,1,1,10
Y2-S2-251M22,8,737,AS,exp,42,↓,down,↓,0.7928941000718623,True,15,1,0,10
Y2-S2-251M22,8,738,AS,exp,37,→,right,→,0.8292715998832136,True,15,1,0,10
Y2-S2-251M22,8,739,AS,exp,39,↓,down,↓,0.7007020001765341,True,15,1,0,10
Y2-S2-251M22,8,740,AS,exp,44,←,left,←,0.6341936001554132,True,14,1,0,10
Y2-S2-251M22,8,741,AS,exp,48,↓,up,↑,0.7105008000507951,False,14,-1,1,11
Y2-S2-251M22,8,742,AS,exp,38,←,left,←,0.3671558001078665,True,15,-1,0,11
Y2-S2-251M22,8,743,AS,exp,25,↓,down,↓,0.4590139000210911,True,15,-1,0,11
Y2-S2-251M22,8,744,AS,exp,47,→,right,→,0.652928400086239,True,15,1,1,12
Y2-S2-251M22,8,745,AS,exp,30,↑,right,→,0.7242106001358479,False,14,-1,1,13
Y2-S2-251M22,8,746,AS,exp,47,←,left,←,0.36729830014519393,True,15,-1,0,13
Y2-S2-251M22,8,747,AS,exp,32,↑,right,→,0.8360512999352068,False,15,-1,0,13
Y2-S2-251M22,8,748,AS,exp,26,→,right,→,0.7627874999307096,True,16,-1,0,13
Y2-S2-251M22,8,749,AS,exp,30,↑,down,↓,1.7038738001137972,False,16,-1,0,13
Y2-S2-251M22,8,750,AS,exp,32,→,left,←,1.1148227001540363,False,17,-1,0,13
Y2-S2-251M22,8,751,AS,exp,48,↑,up,↑,0.7235161999706179,True,18,-1,0,13
Y2-S2-251M22,8,752,AS,exp,42,←,left,←,0.9188248000573367,True,18,-1,0,13
Y2-S2-251M22,8,753,AS,exp,47,↓,down,↓,0.7854740000329912,True,18,1,1,14
Y2-S2-251M22,8,754,AS,exp,47,←,left,←,0.5189391998574138,True,17,1,0,14
Y2-S2-251M22,8,755,AS,exp,47,↓,down,↓,0.961246500024572,True,17,1,0,14
Y2-S2-251M22,8,756,AS,exp,46,←,left,←,0.6259936999995261,True,17,1,0,14
Y2-S2-251M22,8,757,AS,exp,41,→,right,→,0.48530229995958507,True,16,1,0,14
Y2-S2-251M22,8,758,AS,exp,35,↑,up,↑,0.8906829000916332,True,16,1,0,14
Y2-S2-251M22,8,759,AS,exp,39,→,right,→,0.44906850019469857,True,16,1,0,14
Y2-S2-251M22,8,760,AS,exp,38,↓,down,↓,0.7165154998656362,True,15,1,0,14
Y2-S2-251M22,8,761,AS,exp,29,→,right,→,0.5195470000617206,True,15,1,0,14
Y2-S2-251M22,8,762,AS,exp,28,←,right,→,1.209484200226143,False,15,-1,1,15
Y2-S2-251M22,8,763,AS,exp,37,↓,down,↓,0.5029855999164283,True,16,-1,0,15
Y2-S2-251M22,8,764,AS,exp,38,↑,up,↑,0.5288847000338137,True,16,-1,0,15
Y2-S2-251M22,8,765,AS,exp,31,←,right,→,0.9581557000055909,False,16,-1,0,15
Y2-S2-251M22,8,766,AS,exp,47,↓,left,←,0.9231541999615729,False,17,-1,0,15
Y2-S2-251M22,8,767,AS,exp,39,←,no_key,no_letter,-1.0,False,18,-1,0,15
Y2-S2-251M22,8,768,AS,exp,44,↑,up,↑,0.5308530998881906,True,19,-1,0,15
Y2-S2-251M22,8,769,AS,exp,32,→,right,→,0.40045160008594394,True,19,-1,0,15
Y2-S2-251M22,8,770,AS,exp,41,↑,up,↑,0.4342445998918265,True,19,1,1,16
