PART_ID,Block_no,Trial_no,Block_type,Trial_type,CSI,Stim_letter,Key_pressed,letter_choose,Rt,Corr,Stimulus Time,Level,Reversal,Revs_count
Y2-S2-232K20,1,1,PS,train,25,→,right,→,1.1111408001743257,True,30,-,-,-
Y2-S2-232K20,1,2,PS,train,36,←,left,←,0.8128840997815132,True,30,-,-,-
Y2-S2-232K20,1,3,PS,train,32,↓,down,↓,0.8621261001098901,True,30,-,-,-
Y2-S2-232K20,1,4,PS,train,32,→,right,→,0.7671014000661671,True,30,-,-,-
Y2-S2-232K20,1,5,PS,train,38,↓,down,↓,0.7744839999359101,True,30,-,-,-
Y2-S2-232K20,1,6,PS,train,34,←,no_key,no_letter,-1.0,False,30,-,-,-
Y2-S2-232K20,1,7,PS,train,46,↑,up,↑,1.0564925000071526,True,30,-,-,-
Y2-S2-232K20,1,8,PS,train,50,→,right,→,1.1239720999728888,True,30,-,-,-
Y2-S2-232K20,1,9,PS,train,36,←,left,←,1.043632599990815,True,30,-,-,-
Y2-S2-232K20,1,10,PS,train,32,↓,down,↓,0.9453765000216663,True,30,-,-,-
Y2-S2-232K20,2,11,AS,train,48,←,left,←,1.055775900138542,True,45,-,-,-
Y2-S2-232K20,2,12,AS,train,39,→,right,→,1.223566500004381,True,45,-,-,-
Y2-S2-232K20,2,13,AS,train,29,↓,down,↓,1.018421099986881,True,45,-,-,-
Y2-S2-232K20,2,14,AS,train,44,←,left,←,1.0905069999862462,True,45,-,-,-
Y2-S2-232K20,2,15,AS,train,46,→,right,→,1.0664844000712037,True,45,-,-,-
Y2-S2-232K20,2,16,AS,train,37,←,left,←,1.1197386998683214,True,45,-,-,-
Y2-S2-232K20,2,17,AS,train,29,↓,down,↓,1.065940200118348,True,45,-,-,-
Y2-S2-232K20,2,18,AS,train,50,→,right,→,1.7413611998781562,True,45,-,-,-
Y2-S2-232K20,2,19,AS,train,29,↑,up,↑,1.2182350000366569,True,45,-,-,-
Y2-S2-232K20,2,20,AS,train,47,→,right,→,1.3278066001366824,True,45,-,-,-
Y2-S2-232K20,-,21,PS,adaptive,36,↓,down,↓,0.801364699844271,True,10,0,0,0
Y2-S2-232K20,-,22,PS,adaptive,32,←,left,←,0.8464663000777364,True,10,0,0,0
Y2-S2-232K20,-,23,PS,adaptive,48,↑,up,↑,0.7014476000331342,True,10,1,0,0
Y2-S2-232K20,-,24,PS,adaptive,28,←,left,←,0.8952782000415027,True,9,1,0,0
Y2-S2-232K20,-,25,PS,adaptive,34,↓,down,↓,0.6709851999767125,True,9,1,0,0
Y2-S2-232K20,-,26,PS,adaptive,50,↑,left,←,0.9834861000999808,False,9,-1,1,1
Y2-S2-232K20,-,27,PS,adaptive,31,←,right,→,0.9087354999501258,False,10,-1,0,1
Y2-S2-232K20,-,28,PS,adaptive,47,↑,up,↑,0.6497712999116629,True,11,-1,0,1
Y2-S2-232K20,-,29,PS,adaptive,26,←,left,←,0.8221324998885393,True,11,-1,0,1
Y2-S2-232K20,-,30,PS,adaptive,39,→,right,→,0.7927034001331776,True,11,1,1,2
Y2-S2-232K20,-,31,PS,adaptive,34,↑,up,↑,0.7241318998858333,True,10,1,0,2
Y2-S2-232K20,-,32,PS,adaptive,38,↓,down,↓,0.8958417000249028,True,10,1,0,2
Y2-S2-232K20,-,33,PS,adaptive,40,←,left,←,0.8021953999996185,True,10,1,0,2
Y2-S2-232K20,-,34,PS,adaptive,49,↑,up,↑,0.660813600057736,True,9,1,0,2
Y2-S2-232K20,-,35,PS,adaptive,32,←,left,←,0.6507057000417262,True,9,1,0,2
Y2-S2-232K20,-,36,PS,adaptive,40,↑,up,↑,0.6475244998000562,True,9,1,0,2
Y2-S2-232K20,-,37,PS,adaptive,45,↓,down,↓,0.7267448999918997,True,8,1,0,2
Y2-S2-232K20,-,38,PS,adaptive,35,↑,up,↑,0.6733415999915451,True,8,1,0,2
Y2-S2-232K20,-,39,PS,adaptive,49,↓,down,↓,0.6241289998870343,True,8,1,0,2
Y2-S2-232K20,-,40,PS,adaptive,26,←,right,→,1.5738919998984784,False,7,-1,1,3
Y2-S2-232K20,-,41,PS,adaptive,28,→,right,→,0.6775952000170946,True,8,-1,0,3
Y2-S2-232K20,-,42,PS,adaptive,32,←,left,←,0.6345665999688208,True,8,-1,0,3
Y2-S2-232K20,-,43,PS,adaptive,41,↑,up,↑,0.7173994998447597,True,8,1,1,4
Y2-S2-232K20,-,44,AS,adaptive,27,↓,down,↓,0.8716188999824226,True,20,0,0,0
Y2-S2-232K20,-,45,AS,adaptive,42,↑,up,↑,0.787899199873209,True,20,0,0,0
Y2-S2-232K20,-,46,AS,adaptive,46,←,left,←,1.0178645998239517,True,20,1,0,0
Y2-S2-232K20,-,47,AS,adaptive,38,→,right,→,1.05929940007627,True,19,1,0,0
Y2-S2-232K20,-,48,AS,adaptive,25,↓,down,↓,0.7172314000781626,True,19,1,0,0
Y2-S2-232K20,-,49,AS,adaptive,35,→,right,→,0.9295566999353468,True,19,1,0,0
Y2-S2-232K20,-,50,AS,adaptive,41,↑,up,↑,0.7936193000059575,True,18,1,0,0
Y2-S2-232K20,-,51,AS,adaptive,25,→,right,→,0.9994617998600006,True,18,1,0,0
Y2-S2-232K20,-,52,AS,adaptive,43,←,left,←,1.8768752999603748,True,18,1,0,0
Y2-S2-232K20,-,53,AS,adaptive,27,→,right,→,0.8370400001294911,True,17,1,0,0
Y2-S2-232K20,-,54,AS,adaptive,41,↓,down,↓,0.752349000191316,True,17,1,0,0
Y2-S2-232K20,-,55,AS,adaptive,30,→,right,→,0.7734015001915395,True,17,1,0,0
Y2-S2-232K20,-,56,AS,adaptive,27,↓,down,↓,0.6993674000259489,True,16,1,0,0
Y2-S2-232K20,-,57,AS,adaptive,48,→,left,←,1.1610032999888062,False,16,-1,1,1
Y2-S2-232K20,-,58,AS,adaptive,26,↑,up,↑,0.7051010001450777,True,17,-1,0,1
Y2-S2-232K20,-,59,AS,adaptive,46,←,right,→,0.8180203000083566,False,17,-1,0,1
Y2-S2-232K20,-,60,AS,adaptive,38,↓,down,↓,0.705557300010696,True,18,-1,0,1
Y2-S2-232K20,-,61,AS,adaptive,31,←,left,←,0.933486299822107,True,18,-1,0,1
Y2-S2-232K20,-,62,AS,adaptive,34,↓,down,↓,0.7923355998937041,True,18,1,1,2
Y2-S2-232K20,-,63,AS,adaptive,40,↑,up,↑,0.5891528001520783,True,17,1,0,2
Y2-S2-232K20,-,64,AS,adaptive,35,↓,down,↓,0.622424199944362,True,17,1,0,2
Y2-S2-232K20,-,65,AS,adaptive,50,→,right,→,0.7698835998307914,True,17,1,0,2
Y2-S2-232K20,-,66,AS,adaptive,41,↑,left,←,0.9812433000188321,False,16,-1,1,3
Y2-S2-232K20,-,67,AS,adaptive,35,→,right,→,0.7300001999828964,True,17,-1,0,3
Y2-S2-232K20,-,68,AS,adaptive,47,↑,up,↑,0.7322796999942511,True,17,-1,0,3
Y2-S2-232K20,-,69,AS,adaptive,29,→,right,→,0.7034329001326114,True,17,1,1,4
Y2-S2-232K20,1,70,AS,intra_train,29,↓,down,↓,0.836016200017184,True,24,-,-,-
Y2-S2-232K20,1,71,AS,intra_train,31,←,left,←,0.8058062000200152,True,24,-,-,-
Y2-S2-232K20,1,72,AS,intra_train,38,↓,down,↓,0.8246410000137985,True,24,-,-,-
Y2-S2-232K20,1,73,AS,intra_train,40,←,left,←,0.950401300098747,True,24,-,-,-
Y2-S2-232K20,1,74,AS,intra_train,31,→,right,→,0.6990104999858886,True,24,-,-,-
Y2-S2-232K20,1,75,AS,exp,27,↓,right,→,1.2550675000529736,False,16,-1,0,0
Y2-S2-232K20,1,76,AS,exp,33,←,left,←,0.7421974998433143,True,17,-1,0,0
Y2-S2-232K20,1,77,AS,exp,29,→,right,→,0.8136172001250088,True,17,-1,0,0
Y2-S2-232K20,1,78,AS,exp,46,↑,up,↑,0.7068551999982446,True,17,1,1,1
Y2-S2-232K20,1,79,AS,exp,41,↓,up,↑,0.7578573999926448,False,16,-1,1,2
Y2-S2-232K20,1,80,AS,exp,35,↑,up,↑,0.6690855000633746,True,17,-1,0,2
Y2-S2-232K20,1,81,AS,exp,35,→,right,→,0.6965415000449866,True,17,-1,0,2
Y2-S2-232K20,1,82,AS,exp,45,↑,up,↑,0.6765179999638349,True,17,1,1,3
Y2-S2-232K20,1,83,AS,exp,40,↓,down,↓,0.7315813000313938,True,16,1,0,3
Y2-S2-232K20,1,84,AS,exp,47,←,left,←,0.6852343000937253,True,16,1,0,3
Y2-S2-232K20,1,85,AS,exp,41,↓,down,↓,0.6603707999456674,True,16,1,0,3
Y2-S2-232K20,1,86,AS,exp,34,→,right,→,0.6909851999953389,True,15,1,0,3
Y2-S2-232K20,1,87,AS,exp,46,↑,up,↑,0.6828143000602722,True,15,1,0,3
Y2-S2-232K20,1,88,AS,exp,39,→,right,→,0.6999031000304967,True,15,1,0,3
Y2-S2-232K20,1,89,AS,exp,50,↑,up,↑,0.66717189992778,True,14,1,0,3
Y2-S2-232K20,1,90,AS,exp,31,←,left,←,0.6339934000279754,True,14,1,0,3
Y2-S2-232K20,1,91,AS,exp,50,→,right,→,0.5725094000808895,True,14,1,0,3
Y2-S2-232K20,1,92,AS,exp,50,←,left,←,0.600596799980849,True,13,1,0,3
Y2-S2-232K20,1,93,AS,exp,26,↓,right,→,1.8418880999088287,False,13,-1,1,4
Y2-S2-232K20,1,94,AS,exp,47,←,right,→,0.6982376000378281,False,14,-1,0,4
Y2-S2-232K20,1,95,AS,exp,49,↑,up,↑,0.6563863998744637,True,15,-1,0,4
Y2-S2-232K20,1,96,AS,exp,28,←,left,←,0.680308299837634,True,15,-1,0,4
Y2-S2-232K20,1,97,AS,exp,47,↑,up,↑,0.5361666998360306,True,15,1,1,5
Y2-S2-232K20,1,98,AS,exp,39,↓,up,↑,0.920967899961397,False,14,-1,1,6
Y2-S2-232K20,1,99,AS,exp,41,←,left,←,0.6402807000558823,True,15,-1,0,6
Y2-S2-232K20,1,100,AS,exp,41,↓,right,→,0.8568694000132382,False,15,-1,0,6
Y2-S2-232K20,1,101,AS,exp,41,→,right,→,0.6918761001434177,True,16,-1,0,6
Y2-S2-232K20,1,102,AS,exp,33,←,left,←,0.8509028998669237,True,16,-1,0,6
Y2-S2-232K20,1,103,AS,exp,34,↑,up,↑,0.6478430000133812,True,16,1,1,7
Y2-S2-232K20,1,104,AS,exp,47,←,right,→,0.6540210000239313,False,15,-1,1,8
Y2-S2-232K20,1,105,AS,exp,49,↓,down,↓,0.762346199946478,True,16,-1,0,8
Y2-S2-232K20,1,106,AS,exp,29,→,right,→,0.5889143999665976,True,16,-1,0,8
Y2-S2-232K20,1,107,AS,exp,28,←,left,←,1.0333257000893354,True,16,1,1,9
Y2-S2-232K20,1,108,AS,exp,48,↓,down,↓,0.6007979998830706,True,15,1,0,9
Y2-S2-232K20,1,109,AS,exp,50,→,right,→,0.5758116999641061,True,15,1,0,9
Y2-S2-232K20,1,110,AS,exp,46,↓,down,↓,0.5885015998501331,True,15,1,0,9
Y2-S2-232K20,1,111,AS,exp,42,↑,up,↑,0.5812776000238955,True,14,1,0,9
Y2-S2-232K20,1,112,AS,exp,36,←,left,←,0.6930216001346707,True,14,1,0,9
Y2-S2-232K20,1,113,AS,exp,26,↑,up,↑,0.7591615999117494,True,14,1,0,9
Y2-S2-232K20,1,114,AS,exp,44,←,left,←,0.6841257000342011,True,13,1,0,9
Y2-S2-232K20,1,115,AS,exp,49,↓,down,↓,0.619989600032568,True,13,1,0,9
Y2-S2-232K20,1,116,AS,exp,39,↑,up,↑,0.5098379000555724,True,13,1,0,9
Y2-S2-232K20,1,117,AS,exp,41,↓,down,↓,0.6529683000408113,True,12,1,0,9
Y2-S2-232K20,1,118,AS,exp,50,←,right,→,0.7168495000805706,False,12,-1,1,10
Y2-S2-232K20,1,119,AS,exp,38,→,right,→,0.7693402001168579,True,13,-1,0,10
Y2-S2-232K20,1,120,AS,exp,43,↓,up,↑,0.8584767999127507,False,13,-1,0,10
Y2-S2-232K20,1,121,AS,exp,49,→,right,→,0.652516599977389,True,14,-1,0,10
Y2-S2-232K20,1,122,AS,exp,36,↓,left,←,1.4000130998902023,False,14,-1,0,10
Y2-S2-232K20,1,123,AS,exp,37,↑,up,↑,0.7999968000221997,True,15,-1,0,10
Y2-S2-232K20,1,124,AS,exp,32,→,right,→,0.5502828999888152,True,15,-1,0,10
Y2-S2-232K20,1,125,AS,exp,35,←,left,←,0.6631240998394787,True,15,1,1,11
Y2-S2-232K20,1,126,AS,exp,35,↑,up,↑,0.6963575999252498,True,14,1,0,11
Y2-S2-232K20,1,127,AS,exp,42,→,no_key,no_letter,-1.0,False,14,-1,1,12
Y2-S2-232K20,1,128,AS,exp,45,↑,up,↑,0.5559748001396656,True,15,-1,0,12
Y2-S2-232K20,1,129,AS,exp,29,→,right,→,0.6115408998448402,True,15,-1,0,12
Y2-S2-232K20,1,130,AS,exp,27,←,left,←,0.599280099850148,True,15,1,1,13
Y2-S2-232K20,1,131,AS,exp,44,↑,up,↑,0.701693199807778,True,14,1,0,13
Y2-S2-232K20,1,132,AS,exp,28,↓,down,↓,1.8336410000920296,True,14,1,0,13
Y2-S2-232K20,1,133,AS,exp,32,↑,up,↑,0.5335669000633061,True,14,1,0,13
Y2-S2-232K20,1,134,AS,exp,27,←,left,←,0.6078407999593765,True,13,1,0,13
Y2-S2-232K20,1,135,AS,exp,48,↑,up,↑,0.7511855999473482,True,13,1,0,13
Y2-S2-232K20,1,136,AS,exp,38,→,right,→,0.5261200000531971,True,13,1,0,13
Y2-S2-232K20,1,137,AS,exp,34,↑,up,↑,0.5709683999884874,True,12,1,0,13
Y2-S2-232K20,1,138,AS,exp,39,→,right,→,0.6044483000878245,True,12,1,0,13
Y2-S2-232K20,1,139,AS,exp,36,←,left,←,0.5437048999592662,True,12,1,0,13
Y2-S2-232K20,1,140,AS,exp,27,↑,up,↑,0.4787255001720041,True,11,1,0,13
Y2-S2-232K20,1,141,AS,exp,41,←,left,←,0.7523946999572217,True,11,1,0,13
Y2-S2-232K20,1,142,AS,exp,26,↓,down,↓,0.6478734998963773,True,11,1,0,13
Y2-S2-232K20,1,143,AS,exp,35,→,right,→,0.5508346001151949,True,10,1,0,13
Y2-S2-232K20,1,144,AS,exp,32,←,right,→,0.7162130998913199,False,10,-1,1,14
Y2-S2-232K20,1,145,AS,exp,26,↓,down,↓,0.5970816998742521,True,11,-1,0,14
Y2-S2-232K20,1,146,AS,exp,49,↑,up,↑,0.6367089999839664,True,11,-1,0,14
Y2-S2-232K20,1,147,AS,exp,49,→,right,→,0.6233908999711275,True,11,1,1,15
Y2-S2-232K20,1,148,AS,exp,48,↓,right,→,0.5601943999063224,False,10,-1,1,16
Y2-S2-232K20,2,149,PS,intra_train,39,←,right,→,0.6994121999014169,False,10,-,-,-
Y2-S2-232K20,2,150,PS,intra_train,33,→,up,↑,0.8447532998397946,False,10,-,-,-
Y2-S2-232K20,2,151,PS,intra_train,25,↓,right,→,0.840872700093314,False,10,-,-,-
Y2-S2-232K20,2,152,PS,intra_train,45,↑,right,→,0.8038075999356806,False,10,-,-,-
Y2-S2-232K20,2,153,PS,intra_train,50,→,right,→,0.6694914998952299,True,10,-,-,-
Y2-S2-232K20,2,154,PS,exp,35,↑,left,←,0.6611361000686884,False,7,-1,0,0
Y2-S2-232K20,2,155,PS,exp,44,→,left,←,0.6962292999960482,False,8,-1,0,0
Y2-S2-232K20,2,156,PS,exp,46,↑,up,↑,0.5569555999245495,True,9,-1,0,0
Y2-S2-232K20,2,157,PS,exp,39,↓,down,↓,0.7083841999992728,True,9,-1,0,0
Y2-S2-232K20,2,158,PS,exp,25,↑,down,↓,0.8172546999994665,False,9,-1,0,0
Y2-S2-232K20,2,159,PS,exp,46,↓,down,↓,0.6015414998400956,True,10,-1,0,0
Y2-S2-232K20,2,160,PS,exp,28,←,left,←,0.6241784000303596,True,10,-1,0,0
Y2-S2-232K20,2,161,PS,exp,35,↓,down,↓,0.6999033999163657,True,10,1,1,1
Y2-S2-232K20,2,162,PS,exp,31,←,left,←,0.6272796001285315,True,9,1,0,1
Y2-S2-232K20,2,163,PS,exp,27,↑,up,↑,0.5437103000003844,True,9,1,0,1
Y2-S2-232K20,2,164,PS,exp,27,←,left,←,0.5465808000881225,True,9,1,0,1
Y2-S2-232K20,2,165,PS,exp,30,↓,down,↓,0.6633470000233501,True,8,1,0,1
Y2-S2-232K20,2,166,PS,exp,33,↑,up,↑,0.5590995000675321,True,8,1,0,1
Y2-S2-232K20,2,167,PS,exp,33,→,right,→,0.5788320999126881,True,8,1,0,1
Y2-S2-232K20,2,168,PS,exp,26,↓,down,↓,0.5838206000626087,True,7,1,0,1
Y2-S2-232K20,2,169,PS,exp,25,→,right,→,0.6296663000248373,True,7,1,0,1
Y2-S2-232K20,2,170,PS,exp,44,↓,down,↓,0.5938560001086444,True,7,1,0,1
Y2-S2-232K20,2,171,PS,exp,39,→,left,←,0.8545655000489205,False,6,-1,1,2
Y2-S2-232K20,2,172,PS,exp,39,←,left,←,0.9405858998652548,True,7,-1,0,2
Y2-S2-232K20,2,173,PS,exp,41,→,left,←,0.9612481999211013,False,7,-1,0,2
Y2-S2-232K20,2,174,PS,exp,44,↓,right,→,0.5979899000376463,False,8,-1,0,2
Y2-S2-232K20,2,175,PS,exp,26,→,right,→,0.6611206999514252,True,9,-1,0,2
Y2-S2-232K20,2,176,PS,exp,35,←,left,←,0.5770956000778824,True,9,-1,0,2
Y2-S2-232K20,2,177,PS,exp,26,↓,right,→,1.200585100101307,False,9,-1,0,2
Y2-S2-232K20,2,178,PS,exp,32,←,right,→,0.754499000031501,False,10,-1,0,2
Y2-S2-232K20,2,179,PS,exp,27,→,right,→,0.655605599982664,True,11,-1,0,2
Y2-S2-232K20,2,180,PS,exp,41,↑,up,↑,0.5953293999191374,True,11,-1,0,2
Y2-S2-232K20,2,181,PS,exp,31,↓,right,→,0.7134061998222023,False,11,-1,0,2
Y2-S2-232K20,2,182,PS,exp,44,→,left,←,0.8627716000191867,False,12,-1,0,2
Y2-S2-232K20,2,183,PS,exp,40,←,right,→,0.7013179000932723,False,13,-1,0,2
Y2-S2-232K20,2,184,PS,exp,25,↓,right,→,0.7413494000211358,False,14,-1,0,2
Y2-S2-232K20,2,185,PS,exp,48,←,left,←,0.6388842000160366,True,15,-1,0,2
Y2-S2-232K20,2,186,PS,exp,47,↓,down,↓,0.6859858999960124,True,15,-1,0,2
Y2-S2-232K20,2,187,PS,exp,30,←,right,→,0.7058040001429617,False,15,-1,0,2
Y2-S2-232K20,2,188,PS,exp,30,↓,down,↓,0.725707900011912,True,16,-1,0,2
Y2-S2-232K20,2,189,PS,exp,34,→,right,→,0.6141125001013279,True,16,-1,0,2
Y2-S2-232K20,2,190,PS,exp,42,←,left,←,0.6181816000025719,True,16,1,1,3
Y2-S2-232K20,2,191,PS,exp,48,↑,left,←,0.9907648998778313,False,15,-1,1,4
Y2-S2-232K20,2,192,PS,exp,37,↓,down,↓,0.7076854000333697,True,16,-1,0,4
Y2-S2-232K20,2,193,PS,exp,37,→,right,→,0.6945817999076098,True,16,-1,0,4
Y2-S2-232K20,2,194,PS,exp,37,↑,up,↑,0.6958413000684232,True,16,1,1,5
Y2-S2-232K20,2,195,PS,exp,48,←,left,←,0.7140610001515597,True,15,1,0,5
Y2-S2-232K20,2,196,PS,exp,40,→,right,→,0.6804285999387503,True,15,1,0,5
Y2-S2-232K20,2,197,PS,exp,33,←,right,→,0.7977239999454468,False,15,-1,1,6
Y2-S2-232K20,2,198,PS,exp,33,↑,up,↑,0.6757644000463188,True,16,-1,0,6
Y2-S2-232K20,2,199,PS,exp,49,→,right,→,0.5692453999072313,True,16,-1,0,6
Y2-S2-232K20,2,200,PS,exp,39,←,right,→,0.9767450999934226,False,16,-1,0,6
Y2-S2-232K20,2,201,PS,exp,35,↑,up,↑,0.47696919995360076,True,17,-1,0,6
Y2-S2-232K20,2,202,PS,exp,49,←,left,←,0.9970642998814583,True,17,-1,0,6
Y2-S2-232K20,2,203,PS,exp,41,↓,down,↓,0.8254107001703233,True,17,1,1,7
Y2-S2-232K20,2,204,PS,exp,41,↑,up,↑,0.7352657001465559,True,16,1,0,7
Y2-S2-232K20,2,205,PS,exp,48,→,right,→,0.7761937000323087,True,16,1,0,7
Y2-S2-232K20,2,206,PS,exp,45,↓,up,↑,0.7111359001137316,False,16,-1,1,8
Y2-S2-232K20,2,207,PS,exp,45,↑,up,↑,0.5660407999530435,True,17,-1,0,8
Y2-S2-232K20,2,208,PS,exp,44,→,right,→,0.7198209001217037,True,17,-1,0,8
Y2-S2-232K20,2,209,PS,exp,50,↑,up,↑,0.5385038999374956,True,17,1,1,9
Y2-S2-232K20,2,210,PS,exp,46,←,left,←,0.6915621000807732,True,16,1,0,9
Y2-S2-232K20,2,211,PS,exp,49,→,right,→,0.5591254001483321,True,16,1,0,9
Y2-S2-232K20,2,212,PS,exp,34,←,left,←,0.7347303000278771,True,16,1,0,9
Y2-S2-232K20,2,213,PS,exp,29,↓,up,↑,1.617922999896109,False,15,-1,1,10
Y2-S2-232K20,2,214,PS,exp,34,→,right,→,0.764629099983722,True,16,-1,0,10
Y2-S2-232K20,2,215,PS,exp,29,↑,up,↑,0.7088983999565244,True,16,-1,0,10
Y2-S2-232K20,2,216,PS,exp,29,↓,down,↓,0.7538522998802364,True,16,1,1,11
Y2-S2-232K20,2,217,PS,exp,28,↑,up,↑,0.6727907001040876,True,15,1,0,11
Y2-S2-232K20,2,218,PS,exp,42,→,right,→,0.6591884000226855,True,15,1,0,11
Y2-S2-232K20,2,219,PS,exp,25,←,left,←,0.6220879000611603,True,15,1,0,11
Y2-S2-232K20,2,220,PS,exp,50,↑,up,↑,0.6915926998481154,True,14,1,0,11
Y2-S2-232K20,2,221,PS,exp,29,←,right,→,1.0634240000508726,False,14,-1,1,12
Y2-S2-232K20,2,222,PS,exp,35,↓,down,↓,0.8013567000161856,True,15,-1,0,12
Y2-S2-232K20,2,223,PS,exp,26,→,right,→,0.7518577000591904,True,15,-1,0,12
Y2-S2-232K20,2,224,PS,exp,36,↑,up,↑,0.781995999859646,True,15,1,1,13
Y2-S2-232K20,2,225,PS,exp,28,→,right,→,0.7633597999811172,True,14,1,0,13
Y2-S2-232K20,2,226,PS,exp,36,↓,down,↓,0.8851650001015514,True,14,1,0,13
Y2-S2-232K20,2,227,PS,exp,33,→,right,→,0.781334400177002,True,14,1,0,13
Y2-S2-232K20,2,228,PS,exp,48,←,left,←,0.7239649000111967,True,13,1,0,13
Y2-S2-232K20,2,229,PS,exp,41,↓,down,↓,0.6963947999756783,True,13,1,0,13
Y2-S2-232K20,2,230,PS,exp,36,→,right,→,1.1308859998825938,True,13,1,0,13
Y2-S2-232K20,2,231,PS,exp,32,↓,down,↓,0.6846815999597311,True,12,1,0,13
Y2-S2-232K20,2,232,PS,exp,43,←,left,←,0.764368699863553,True,12,1,0,13
Y2-S2-232K20,2,233,PS,exp,50,↑,up,↑,1.3589924001134932,True,12,1,0,13
Y2-S2-232K20,2,234,PS,exp,43,↓,left,←,1.7890946997795254,False,11,-1,1,14
Y2-S2-232K20,2,235,PS,exp,34,↑,up,↑,0.781225300161168,True,12,-1,0,14
Y2-S2-232K20,2,236,PS,exp,46,←,left,←,0.6806829001288861,True,12,-1,0,14
Y2-S2-232K20,2,237,PS,exp,34,↑,up,↑,0.9020583999808878,True,12,1,1,15
Y2-S2-232K20,2,238,PS,exp,45,→,right,→,0.6679926000069827,True,11,1,0,15
Y2-S2-232K20,2,239,PS,exp,28,←,left,←,0.7686406997963786,True,11,1,0,15
Y2-S2-232K20,2,240,PS,exp,34,↓,down,↓,0.728213099995628,True,11,1,0,15
Y2-S2-232K20,2,241,PS,exp,26,→,right,→,0.7930246000178158,True,10,1,0,15
Y2-S2-232K20,2,242,PS,exp,29,↑,up,↑,0.7993540000170469,True,10,1,0,15
Y2-S2-232K20,2,243,PS,exp,35,→,right,→,0.6089466998819262,True,10,1,0,15
Y2-S2-232K20,2,244,PS,exp,41,↑,up,↑,0.7217172000091523,True,9,1,0,15
Y2-S2-232K20,2,245,PS,exp,25,→,right,→,0.6179253999143839,True,9,1,0,15
Y2-S2-232K20,2,246,PS,exp,32,←,left,←,0.6482331000734121,True,9,1,0,15
Y2-S2-232K20,2,247,PS,exp,41,→,right,→,0.640824900008738,True,8,1,0,15
Y2-S2-232K20,2,248,PS,exp,32,↓,up,↑,0.8129998999647796,False,8,-1,1,16
Y2-S2-232K20,3,249,PS,intra_train,25,→,right,→,1.00526660005562,True,10,-,-,-
Y2-S2-232K20,3,250,PS,intra_train,41,↑,up,↑,0.6249387999996543,True,10,-,-,-
Y2-S2-232K20,3,251,PS,intra_train,29,←,left,←,0.7273741001263261,True,10,-,-,-
Y2-S2-232K20,3,252,PS,intra_train,28,↓,down,↓,0.6669133000541478,True,10,-,-,-
Y2-S2-232K20,3,253,PS,intra_train,41,↑,up,↑,0.6205076999031007,True,10,-,-,-
Y2-S2-232K20,3,254,PS,exp,28,↓,down,↓,0.62521420000121,True,7,0,0,0
Y2-S2-232K20,3,255,PS,exp,38,↑,left,←,0.9190993998199701,False,7,-1,0,0
Y2-S2-232K20,3,256,PS,exp,27,→,down,↓,1.1449403001461178,False,8,-1,0,0
Y2-S2-232K20,3,257,PS,exp,29,↑,up,↑,0.6838773998897523,True,9,-1,0,0
Y2-S2-232K20,3,258,PS,exp,26,←,left,←,0.6686418000608683,True,9,-1,0,0
Y2-S2-232K20,3,259,PS,exp,31,↓,right,→,0.6473981000017375,False,9,-1,0,0
Y2-S2-232K20,3,260,PS,exp,39,→,right,→,0.7445965001825243,True,10,-1,0,0
Y2-S2-232K20,3,261,PS,exp,30,↑,down,↓,0.892380100209266,False,10,-1,0,0
Y2-S2-232K20,3,262,PS,exp,37,→,right,→,0.7430650000460446,True,11,-1,0,0
Y2-S2-232K20,3,263,PS,exp,27,↑,up,↑,0.6625020999927074,True,11,-1,0,0
Y2-S2-232K20,3,264,PS,exp,38,↓,right,→,0.6668393998406827,False,11,-1,0,0
Y2-S2-232K20,3,265,PS,exp,35,←,right,→,0.62518380000256,False,12,-1,0,0
Y2-S2-232K20,3,266,PS,exp,38,↓,no_key,no_letter,-1.0,False,13,-1,0,0
Y2-S2-232K20,3,267,PS,exp,45,→,right,→,0.6883278999011964,True,14,-1,0,0
Y2-S2-232K20,3,268,PS,exp,43,←,left,←,0.6721868999302387,True,14,-1,0,0
Y2-S2-232K20,3,269,PS,exp,40,↓,down,↓,0.7450776000041515,True,14,1,1,1
Y2-S2-232K20,3,270,PS,exp,31,↑,up,↑,0.7470303000882268,True,13,1,0,1
Y2-S2-232K20,3,271,PS,exp,48,←,left,←,0.7021499001421034,True,13,1,0,1
Y2-S2-232K20,3,272,PS,exp,42,↑,up,↑,0.706133000086993,True,13,1,0,1
Y2-S2-232K20,3,273,PS,exp,48,↓,down,↓,0.6905614000279456,True,12,1,0,1
Y2-S2-232K20,3,274,PS,exp,49,←,left,←,0.651425400050357,True,12,1,0,1
Y2-S2-232K20,3,275,PS,exp,27,→,right,→,0.6641760000493377,True,12,1,0,1
Y2-S2-232K20,3,276,PS,exp,27,↑,up,↑,0.642584300134331,True,11,1,0,1
Y2-S2-232K20,3,277,PS,exp,48,↓,down,↓,0.641346599906683,True,11,1,0,1
Y2-S2-232K20,3,278,PS,exp,49,↑,up,↑,0.6447562999092042,True,11,1,0,1
Y2-S2-232K20,3,279,PS,exp,40,→,right,→,0.6490871000569314,True,10,1,0,1
Y2-S2-232K20,3,280,PS,exp,41,↓,down,↓,0.6608030998613685,True,10,1,0,1
Y2-S2-232K20,3,281,PS,exp,35,↑,up,↑,0.5121313000563532,True,10,1,0,1
Y2-S2-232K20,3,282,PS,exp,44,←,left,←,0.5849538999609649,True,9,1,0,1
Y2-S2-232K20,3,283,PS,exp,31,↓,left,←,0.6332063002046198,False,9,-1,1,2
Y2-S2-232K20,3,284,PS,exp,32,→,right,→,0.7985963998362422,True,10,-1,0,2
Y2-S2-232K20,3,285,PS,exp,43,←,left,←,0.5748093998990953,True,10,-1,0,2
Y2-S2-232K20,3,286,PS,exp,28,↓,down,↓,0.6938973998185247,True,10,1,1,3
Y2-S2-232K20,3,287,PS,exp,45,↑,left,←,0.7872998998500407,False,9,-1,1,4
Y2-S2-232K20,3,288,PS,exp,29,←,left,←,0.6788255001883954,True,10,-1,0,4
Y2-S2-232K20,3,289,PS,exp,50,↓,down,↓,0.692912100115791,True,10,-1,0,4
Y2-S2-232K20,3,290,PS,exp,45,←,left,←,0.7696181000210345,True,10,1,1,5
Y2-S2-232K20,3,291,PS,exp,48,→,right,→,0.6411633000243455,True,9,1,0,5
Y2-S2-232K20,3,292,PS,exp,39,←,left,←,0.6889063999988139,True,9,1,0,5
Y2-S2-232K20,3,293,PS,exp,41,↓,down,↓,0.6551025998778641,True,9,1,0,5
Y2-S2-232K20,3,294,PS,exp,31,↑,up,↑,0.6739469000604004,True,8,1,0,5
Y2-S2-232K20,3,295,PS,exp,27,←,left,←,0.6351524998899549,True,8,1,0,5
Y2-S2-232K20,3,296,PS,exp,28,→,right,→,0.6061352000106126,True,8,1,0,5
Y2-S2-232K20,3,297,PS,exp,25,←,left,←,1.312578900018707,True,7,1,0,5
Y2-S2-232K20,3,298,PS,exp,40,↓,down,↓,0.7752479000482708,True,7,1,0,5
Y2-S2-232K20,3,299,PS,exp,25,→,right,→,0.6471579000353813,True,7,1,0,5
Y2-S2-232K20,3,300,PS,exp,35,←,left,←,0.7916196999140084,True,6,1,0,5
Y2-S2-232K20,3,301,PS,exp,26,→,right,→,0.9820718001574278,True,6,1,0,5
Y2-S2-232K20,3,302,PS,exp,37,←,right,→,0.7957852999679744,False,6,-1,1,6
Y2-S2-232K20,3,303,PS,exp,48,↑,left,←,0.7491935000289232,False,7,-1,0,6
Y2-S2-232K20,3,304,PS,exp,36,←,left,←,0.5980811999179423,True,8,-1,0,6
Y2-S2-232K20,3,305,PS,exp,34,↑,right,→,1.41750320000574,False,8,-1,0,6
Y2-S2-232K20,3,306,PS,exp,41,←,left,←,0.8075325000099838,True,9,-1,0,6
Y2-S2-232K20,3,307,PS,exp,40,→,up,↑,1.1881921000313014,False,9,-1,0,6
Y2-S2-232K20,3,308,PS,exp,42,↓,down,↓,0.7506937000434846,True,10,-1,0,6
Y2-S2-232K20,3,309,PS,exp,42,←,left,←,0.7553175000939518,True,10,-1,0,6
Y2-S2-232K20,3,310,PS,exp,35,↓,down,↓,0.6866178999189287,True,10,1,1,7
Y2-S2-232K20,3,311,PS,exp,33,→,right,→,0.6600281000137329,True,9,1,0,7
Y2-S2-232K20,3,312,PS,exp,33,←,left,←,0.5649473997764289,True,9,1,0,7
Y2-S2-232K20,3,313,PS,exp,30,→,right,→,0.6651925998739898,True,9,1,0,7
Y2-S2-232K20,3,314,PS,exp,35,↓,down,↓,0.6052105000708252,True,8,1,0,7
Y2-S2-232K20,3,315,PS,exp,30,↑,right,→,0.6018878000322729,False,8,-1,1,8
Y2-S2-232K20,3,316,PS,exp,47,→,no_key,no_letter,-1.0,False,9,-1,0,8
Y2-S2-232K20,3,317,PS,exp,49,↓,right,→,0.8435042998753488,False,10,-1,0,8
Y2-S2-232K20,3,318,PS,exp,44,→,right,→,0.7491407999768853,True,11,-1,0,8
Y2-S2-232K20,3,319,PS,exp,46,↓,down,↓,0.7064230001997203,True,11,-1,0,8
Y2-S2-232K20,3,320,PS,exp,45,←,left,←,0.6578711001202464,True,11,1,1,9
Y2-S2-232K20,3,321,PS,exp,50,→,left,←,0.8521288000047207,False,10,-1,1,10
Y2-S2-232K20,3,322,PS,exp,50,←,up,↑,1.1117756001185626,False,11,-1,0,10
Y2-S2-232K20,3,323,PS,exp,31,→,right,→,1.0385701002087444,True,12,-1,0,10
Y2-S2-232K20,3,324,PS,exp,33,↓,down,↓,0.6720590000040829,True,12,-1,0,10
Y2-S2-232K20,3,325,PS,exp,25,↑,up,↑,0.7253267001360655,True,12,1,1,11
Y2-S2-232K20,3,326,PS,exp,35,←,left,←,0.6828954999800771,True,11,1,0,11
Y2-S2-232K20,3,327,PS,exp,26,↓,right,→,1.1637162000406533,False,11,-1,1,12
Y2-S2-232K20,3,328,PS,exp,27,→,right,→,0.6531785000115633,True,12,-1,0,12
Y2-S2-232K20,3,329,PS,exp,45,↓,left,←,0.6001169998198748,False,12,-1,0,12
Y2-S2-232K20,3,330,PS,exp,49,→,right,→,0.5412306000944227,True,13,-1,0,12
Y2-S2-232K20,3,331,PS,exp,48,←,right,→,0.7461194999050349,False,13,-1,0,12
Y2-S2-232K20,3,332,PS,exp,33,↓,down,↓,0.6329987999051809,True,14,-1,0,12
Y2-S2-232K20,3,333,PS,exp,37,→,right,→,0.7451763001736253,True,14,-1,0,12
Y2-S2-232K20,3,334,PS,exp,50,←,left,←,0.5794032998383045,True,14,1,1,13
Y2-S2-232K20,3,335,PS,exp,50,→,right,→,0.6915361999999732,True,13,1,0,13
Y2-S2-232K20,3,336,PS,exp,41,↑,up,↑,0.6619909000582993,True,13,1,0,13
Y2-S2-232K20,3,337,PS,exp,25,→,right,→,0.7248603999614716,True,13,1,0,13
Y2-S2-232K20,3,338,PS,exp,33,↑,up,↑,0.7041321001015604,True,12,1,0,13
Y2-S2-232K20,3,339,PS,exp,42,↓,left,←,0.7335633998736739,False,12,-1,1,14
Y2-S2-232K20,3,340,PS,exp,43,↑,up,↑,0.6699841998051852,True,13,-1,0,14
Y2-S2-232K20,3,341,PS,exp,28,↓,down,↓,0.6465509000699967,True,13,-1,0,14
Y2-S2-232K20,3,342,PS,exp,39,←,left,←,0.5652974999975413,True,13,1,1,15
Y2-S2-232K20,3,343,PS,exp,41,↓,right,→,0.7519384000916034,False,12,-1,1,16
Y2-S2-232K20,4,344,AS,intra_train,35,←,left,←,1.1553573999553919,True,24,-,-,-
Y2-S2-232K20,4,345,AS,intra_train,48,↑,up,↑,0.9020308000035584,True,24,-,-,-
Y2-S2-232K20,4,346,AS,intra_train,44,→,right,→,0.9504718000534922,True,24,-,-,-
Y2-S2-232K20,4,347,AS,intra_train,27,↓,down,↓,0.8549696998670697,True,24,-,-,-
Y2-S2-232K20,4,348,AS,intra_train,31,→,right,→,0.8427206000778824,True,24,-,-,-
Y2-S2-232K20,4,349,AS,exp,27,↑,left,←,1.6728950999677181,False,16,-1,0,0
Y2-S2-232K20,4,350,AS,exp,50,→,right,→,0.7623505999799818,True,17,-1,0,0
Y2-S2-232K20,4,351,AS,exp,47,↓,down,↓,0.769619100028649,True,17,-1,0,0
Y2-S2-232K20,4,352,AS,exp,35,←,right,→,0.8329197000712156,False,17,-1,0,0
Y2-S2-232K20,4,353,AS,exp,37,↑,down,↓,0.8683474001009017,False,18,-1,0,0
Y2-S2-232K20,4,354,AS,exp,34,→,right,→,0.7115575999487191,True,19,-1,0,0
Y2-S2-232K20,4,355,AS,exp,38,↓,down,↓,0.7348872998263687,True,19,-1,0,0
Y2-S2-232K20,4,356,AS,exp,35,↑,right,→,0.6930273999460042,False,19,-1,0,0
Y2-S2-232K20,4,357,AS,exp,29,↓,down,↓,0.8378373000305146,True,20,-1,0,0
Y2-S2-232K20,4,358,AS,exp,45,→,right,→,0.7103289000224322,True,20,-1,0,0
Y2-S2-232K20,4,359,AS,exp,34,↑,up,↑,1.1806149000767618,True,20,1,1,1
Y2-S2-232K20,4,360,AS,exp,48,↓,down,↓,0.7584683001041412,True,19,1,0,1
Y2-S2-232K20,4,361,AS,exp,39,↑,up,↑,0.7443746000062674,True,19,1,0,1
Y2-S2-232K20,4,362,AS,exp,30,↓,up,↑,0.8371665000449866,False,19,-1,1,2
Y2-S2-232K20,4,363,AS,exp,25,→,right,→,0.727540000109002,True,20,-1,0,2
Y2-S2-232K20,4,364,AS,exp,45,↓,down,↓,0.6940311000216752,True,20,-1,0,2
Y2-S2-232K20,4,365,AS,exp,43,←,left,←,0.9395968997851014,True,20,1,1,3
Y2-S2-232K20,4,366,AS,exp,25,↓,down,↓,0.6724448997993022,True,19,1,0,3
Y2-S2-232K20,4,367,AS,exp,25,←,left,←,0.7671294999308884,True,19,1,0,3
Y2-S2-232K20,4,368,AS,exp,36,↑,up,↑,0.8026835001073778,True,19,1,0,3
Y2-S2-232K20,4,369,AS,exp,45,←,left,←,0.798594799824059,True,18,1,0,3
Y2-S2-232K20,4,370,AS,exp,28,↑,right,→,0.9129541998263448,False,18,-1,1,4
Y2-S2-232K20,4,371,AS,exp,30,←,left,←,0.788432699861005,True,19,-1,0,4
Y2-S2-232K20,4,372,AS,exp,26,→,right,→,0.791008599800989,True,19,-1,0,4
Y2-S2-232K20,4,373,AS,exp,39,↓,down,↓,0.6452176999300718,True,19,1,1,5
Y2-S2-232K20,4,374,AS,exp,42,↑,up,↑,0.9972107999492437,True,18,1,0,5
Y2-S2-232K20,4,375,AS,exp,34,↓,down,↓,0.9090499000158161,True,18,1,0,5
Y2-S2-232K20,4,376,AS,exp,44,←,left,←,0.8841675000730902,True,18,1,0,5
Y2-S2-232K20,4,377,AS,exp,48,↑,up,↑,0.6899125999771059,True,17,1,0,5
Y2-S2-232K20,4,378,AS,exp,26,←,left,←,0.7580534000881016,True,17,1,0,5
Y2-S2-232K20,4,379,AS,exp,46,→,right,→,0.8239382000174373,True,17,1,0,5
Y2-S2-232K20,4,380,AS,exp,27,↓,down,↓,0.7199394998606294,True,16,1,0,5
Y2-S2-232K20,4,381,AS,exp,46,←,left,←,0.7880451998207718,True,16,1,0,5
Y2-S2-232K20,4,382,AS,exp,35,↓,down,↓,0.7677189998794347,True,16,1,0,5
Y2-S2-232K20,4,383,AS,exp,28,→,right,→,0.791492500109598,True,15,1,0,5
Y2-S2-232K20,4,384,AS,exp,45,←,left,←,0.6999727999791503,True,15,1,0,5
Y2-S2-232K20,4,385,AS,exp,42,→,right,→,0.8739587999880314,True,15,1,0,5
Y2-S2-232K20,4,386,AS,exp,29,↓,right,→,0.8325567999854684,False,14,-1,1,6
Y2-S2-232K20,4,387,AS,exp,34,←,left,←,0.5741364001296461,True,15,-1,0,6
Y2-S2-232K20,4,388,AS,exp,34,↑,right,→,0.7255030001979321,False,15,-1,0,6
Y2-S2-232K20,4,389,AS,exp,34,→,right,→,0.7131723000202328,True,16,-1,0,6
Y2-S2-232K20,4,390,AS,exp,49,←,left,←,0.7639808999374509,True,16,-1,0,6
Y2-S2-232K20,4,391,AS,exp,35,→,right,→,0.7240748999174684,True,16,1,1,7
Y2-S2-232K20,4,392,AS,exp,46,←,left,←,0.48457140009850264,True,15,1,0,7
Y2-S2-232K20,4,393,AS,exp,25,→,right,→,0.7632907000370324,True,15,1,0,7
Y2-S2-232K20,4,394,AS,exp,26,←,right,→,0.7532513001933694,False,15,-1,1,8
Y2-S2-232K20,4,395,AS,exp,37,↑,up,↑,0.7733779000118375,True,16,-1,0,8
Y2-S2-232K20,4,396,AS,exp,27,↓,down,↓,1.1135090999305248,True,16,-1,0,8
Y2-S2-232K20,4,397,AS,exp,41,←,left,←,0.6911295000463724,True,16,1,1,9
Y2-S2-232K20,4,398,AS,exp,35,↓,down,↓,0.7036113000940531,True,15,1,0,9
Y2-S2-232K20,4,399,AS,exp,28,←,left,←,0.7378559000790119,True,15,1,0,9
Y2-S2-232K20,4,400,AS,exp,49,↑,up,↑,0.7767099000047892,True,15,1,0,9
Y2-S2-232K20,4,401,AS,exp,32,→,right,→,0.7328737999778241,True,14,1,0,9
Y2-S2-232K20,4,402,AS,exp,41,↓,down,↓,0.6445667000953108,True,14,1,0,9
Y2-S2-232K20,4,403,AS,exp,29,→,right,→,0.7540788999758661,True,14,1,0,9
Y2-S2-232K20,4,404,AS,exp,36,↑,up,↑,0.5990784000605345,True,13,1,0,9
Y2-S2-232K20,4,405,AS,exp,50,↓,up,↑,0.797008499968797,False,13,-1,1,10
Y2-S2-232K20,4,406,AS,exp,26,→,right,→,0.6325485999695957,True,14,-1,0,10
Y2-S2-232K20,4,407,AS,exp,32,←,right,→,0.6831054999493062,False,14,-1,0,10
Y2-S2-232K20,4,408,AS,exp,42,→,right,→,0.49225280014798045,True,15,-1,0,10
Y2-S2-232K20,4,409,AS,exp,25,↑,up,↑,0.6872280999086797,True,15,-1,0,10
Y2-S2-232K20,4,410,AS,exp,32,→,right,→,0.667198299895972,True,15,1,1,11
Y2-S2-232K20,4,411,AS,exp,50,↓,down,↓,0.9500209998805076,True,14,1,0,11
Y2-S2-232K20,4,412,AS,exp,27,↑,up,↑,0.6380454001482576,True,14,1,0,11
Y2-S2-232K20,4,413,AS,exp,48,↓,right,→,1.0670514998491853,False,14,-1,1,12
Y2-S2-232K20,4,414,AS,exp,34,→,right,→,0.6727694999426603,True,15,-1,0,12
Y2-S2-232K20,4,415,AS,exp,42,↓,down,↓,0.7214842000976205,True,15,-1,0,12
Y2-S2-232K20,4,416,AS,exp,33,↑,right,→,0.8461026998702437,False,15,-1,0,12
Y2-S2-232K20,4,417,AS,exp,36,→,right,→,0.629079099977389,True,16,-1,0,12
Y2-S2-232K20,4,418,AS,exp,45,↓,down,↓,0.8245059000328183,True,16,-1,0,12
Y2-S2-232K20,4,419,AS,exp,38,←,right,→,1.0644023001659662,False,16,-1,0,12
Y2-S2-232K20,4,420,AS,exp,50,→,right,→,0.8739677001722157,True,17,-1,0,12
Y2-S2-232K20,4,421,AS,exp,32,↓,down,↓,0.7992432999890298,True,17,-1,0,12
Y2-S2-232K20,4,422,AS,exp,36,→,right,→,0.7012664000503719,True,17,1,1,13
Y2-S2-232K20,4,423,AS,exp,26,←,left,←,0.5349164998624474,True,16,1,0,13
Y2-S2-232K20,4,424,AS,exp,25,↑,up,↑,0.7054288000799716,True,16,1,0,13
Y2-S2-232K20,4,425,AS,exp,44,←,left,←,0.6348601002246141,True,16,1,0,13
Y2-S2-232K20,4,426,AS,exp,48,→,right,→,0.668030499946326,True,15,1,0,13
Y2-S2-232K20,4,427,AS,exp,30,←,left,←,0.7205034999642521,True,15,1,0,13
Y2-S2-232K20,4,428,AS,exp,45,↓,down,↓,0.8109699001070112,True,15,1,0,13
Y2-S2-232K20,4,429,AS,exp,26,←,left,←,0.6661399998702109,True,14,1,0,13
Y2-S2-232K20,4,430,AS,exp,26,→,right,→,0.6412510999944061,True,14,1,0,13
Y2-S2-232K20,4,431,AS,exp,28,↓,down,↓,0.7303991999942809,True,14,1,0,13
Y2-S2-232K20,4,432,AS,exp,26,→,right,→,0.6549416000489146,True,13,1,0,13
Y2-S2-232K20,4,433,AS,exp,29,↑,up,↑,0.6299143999349326,True,13,1,0,13
Y2-S2-232K20,4,434,AS,exp,25,←,right,→,0.669228000100702,False,13,-1,1,14
Y2-S2-232K20,4,435,AS,exp,40,↑,up,↑,0.7441531999502331,True,14,-1,0,14
Y2-S2-232K20,4,436,AS,exp,45,←,left,←,0.7028827001340687,True,14,-1,0,14
Y2-S2-232K20,4,437,AS,exp,43,↓,down,↓,0.6303528998978436,True,14,1,1,15
Y2-S2-232K20,4,438,AS,exp,28,←,left,←,0.6291104999836534,True,13,1,0,15
Y2-S2-232K20,4,439,AS,exp,44,↑,up,↑,0.7320744001772255,True,13,1,0,15
Y2-S2-232K20,4,440,AS,exp,48,↓,down,↓,0.6684356001205742,True,13,1,0,15
Y2-S2-232K20,4,441,AS,exp,36,↑,up,↑,0.6932622999884188,True,12,1,0,15
Y2-S2-232K20,4,442,AS,exp,41,←,left,←,0.7262483998201787,True,12,1,0,15
Y2-S2-232K20,4,443,AS,exp,41,→,right,→,0.6579658000264317,True,12,1,0,15
Y2-S2-232K20,4,444,AS,exp,34,↓,down,↓,1.0470459000207484,True,11,1,0,15
Y2-S2-232K20,4,445,AS,exp,41,↑,up,↑,0.6217184998095036,True,11,1,0,15
Y2-S2-232K20,4,446,AS,exp,40,↓,up,↑,0.8295152001082897,False,11,-1,1,16
Y2-S2-232K20,5,447,AS,intra_train,39,←,left,←,0.6961827999912202,True,24,-,-,-
Y2-S2-232K20,5,448,AS,intra_train,47,→,right,→,0.7068650999572128,True,24,-,-,-
Y2-S2-232K20,5,449,AS,intra_train,40,↓,down,↓,1.0898076000157744,True,24,-,-,-
Y2-S2-232K20,5,450,AS,intra_train,37,↑,up,↑,0.9149322998709977,True,24,-,-,-
Y2-S2-232K20,5,451,AS,intra_train,27,↓,down,↓,0.8569783999118954,True,24,-,-,-
Y2-S2-232K20,5,452,AS,exp,49,←,left,←,0.7465478000231087,True,16,0,0,0
Y2-S2-232K20,5,453,AS,exp,30,→,right,→,0.7520368001423776,True,16,0,0,0
Y2-S2-232K20,5,454,AS,exp,37,↑,up,↑,0.7660601001698524,True,16,1,0,0
Y2-S2-232K20,5,455,AS,exp,35,↓,down,↓,0.7463707001879811,True,15,1,0,0
Y2-S2-232K20,5,456,AS,exp,38,↑,up,↑,0.7048327000811696,True,15,1,0,0
Y2-S2-232K20,5,457,AS,exp,50,↓,down,↓,0.6688513997942209,True,15,1,0,0
Y2-S2-232K20,5,458,AS,exp,50,→,right,→,0.7443890001159161,True,14,1,0,0
Y2-S2-232K20,5,459,AS,exp,29,↑,up,↑,0.6604999999981374,True,14,1,0,0
Y2-S2-232K20,5,460,AS,exp,35,→,right,→,0.7562883999198675,True,14,1,0,0
Y2-S2-232K20,5,461,AS,exp,25,↓,down,↓,0.7188784000463784,True,13,1,0,0
Y2-S2-232K20,5,462,AS,exp,45,↑,up,↑,0.772923800162971,True,13,1,0,0
Y2-S2-232K20,5,463,AS,exp,36,←,left,←,0.6960338999051601,True,13,1,0,0
Y2-S2-232K20,5,464,AS,exp,42,↓,down,↓,0.6515091999899596,True,12,1,0,0
Y2-S2-232K20,5,465,AS,exp,34,←,left,←,0.5811928000766784,True,12,1,0,0
Y2-S2-232K20,5,466,AS,exp,34,↓,down,↓,0.6421318000648171,True,12,1,0,0
Y2-S2-232K20,5,467,AS,exp,49,←,left,←,0.660562900127843,True,11,1,0,0
Y2-S2-232K20,5,468,AS,exp,29,→,right,→,0.6325000000651926,True,11,1,0,0
Y2-S2-232K20,5,469,AS,exp,43,←,right,→,0.8026334999594837,False,11,-1,1,1
Y2-S2-232K20,5,470,AS,exp,27,→,right,→,0.7357065000105649,True,12,-1,0,1
Y2-S2-232K20,5,471,AS,exp,40,←,left,←,0.8736454998143017,True,12,-1,0,1
Y2-S2-232K20,5,472,AS,exp,28,↑,up,↑,0.6776624999474734,True,12,1,1,2
Y2-S2-232K20,5,473,AS,exp,33,←,right,→,1.3813898998778313,False,11,-1,1,3
Y2-S2-232K20,5,474,AS,exp,43,↓,down,↓,0.6946709998883307,True,12,-1,0,3
Y2-S2-232K20,5,475,AS,exp,47,↑,right,→,1.3366559001151472,False,12,-1,0,3
Y2-S2-232K20,5,476,AS,exp,48,←,left,←,1.868161799851805,True,13,-1,0,3
Y2-S2-232K20,5,477,AS,exp,26,→,up,↑,0.7608257001265883,False,13,-1,0,3
Y2-S2-232K20,5,478,AS,exp,28,←,right,→,1.0338405999355018,False,14,-1,0,3
Y2-S2-232K20,5,479,AS,exp,26,↑,left,←,0.8778142998926342,False,15,-1,0,3
Y2-S2-232K20,5,480,AS,exp,49,↓,down,↓,0.8711856999434531,True,16,-1,0,3
Y2-S2-232K20,5,481,AS,exp,31,→,left,←,1.8602446001023054,False,16,-1,0,3
Y2-S2-232K20,5,482,AS,exp,34,↑,up,↑,0.6066600000485778,True,17,-1,0,3
Y2-S2-232K20,5,483,AS,exp,35,↓,down,↓,0.7426303001120687,True,17,-1,0,3
Y2-S2-232K20,5,484,AS,exp,41,→,right,→,0.741347499890253,True,17,1,1,4
Y2-S2-232K20,5,485,AS,exp,29,←,right,→,1.253749400144443,False,16,-1,1,5
Y2-S2-232K20,5,486,AS,exp,26,↓,down,↓,0.6657670999411494,True,17,-1,0,5
Y2-S2-232K20,5,487,AS,exp,45,↑,up,↑,0.7815848998725414,True,17,-1,0,5
Y2-S2-232K20,5,488,AS,exp,31,→,right,→,0.7331175999715924,True,17,1,1,6
Y2-S2-232K20,5,489,AS,exp,43,←,left,←,0.7442309001926333,True,16,1,0,6
Y2-S2-232K20,5,490,AS,exp,37,→,right,→,0.6944787998218089,True,16,1,0,6
Y2-S2-232K20,5,491,AS,exp,40,↓,down,↓,0.6782738999463618,True,16,1,0,6
Y2-S2-232K20,5,492,AS,exp,36,↑,up,↑,0.7183024000842124,True,15,1,0,6
Y2-S2-232K20,5,493,AS,exp,38,←,left,←,0.7547324001789093,True,15,1,0,6
Y2-S2-232K20,5,494,AS,exp,48,↓,down,↓,0.676293000113219,True,15,1,0,6
Y2-S2-232K20,5,495,AS,exp,45,↑,up,↑,0.5837044999934733,True,14,1,0,6
Y2-S2-232K20,5,496,AS,exp,36,→,right,→,0.664888700004667,True,14,1,0,6
Y2-S2-232K20,5,497,AS,exp,41,←,right,→,0.7615795000456274,False,14,-1,1,7
Y2-S2-232K20,5,498,AS,exp,34,↑,up,↑,0.7987685999833047,True,15,-1,0,7
Y2-S2-232K20,5,499,AS,exp,44,←,left,←,0.73433250002563,True,15,-1,0,7
Y2-S2-232K20,5,500,AS,exp,37,↓,down,↓,0.8326480998657644,True,15,1,1,8
Y2-S2-232K20,5,501,AS,exp,40,→,right,→,0.7652960999403149,True,14,1,0,8
Y2-S2-232K20,5,502,AS,exp,37,↓,down,↓,0.7280681999400258,True,14,1,0,8
Y2-S2-232K20,5,503,AS,exp,29,←,left,←,1.0093558998778462,True,14,1,0,8
Y2-S2-232K20,5,504,AS,exp,27,→,right,→,0.7075211000628769,True,13,1,0,8
Y2-S2-232K20,5,505,AS,exp,28,←,left,←,0.6797698999289423,True,13,1,0,8
Y2-S2-232K20,5,506,AS,exp,28,↓,down,↓,0.7343557998538017,True,13,1,0,8
Y2-S2-232K20,5,507,AS,exp,41,↑,left,←,1.1526828000787646,False,12,-1,1,9
Y2-S2-232K20,5,508,AS,exp,28,↓,down,↓,0.7390539001207799,True,13,-1,0,9
Y2-S2-232K20,5,509,AS,exp,40,←,left,←,0.9468805000651628,True,13,-1,0,9
Y2-S2-232K20,5,510,AS,exp,31,↑,up,↑,0.7732188999652863,True,13,1,1,10
Y2-S2-232K20,5,511,AS,exp,44,↓,down,↓,0.7987746000289917,True,12,1,0,10
Y2-S2-232K20,5,512,AS,exp,37,←,left,←,0.7104931999929249,True,12,1,0,10
Y2-S2-232K20,5,513,AS,exp,32,↓,down,↓,0.6888409000821412,True,12,1,0,10
Y2-S2-232K20,5,514,AS,exp,40,→,right,→,0.6034452999010682,True,11,1,0,10
Y2-S2-232K20,5,515,AS,exp,40,↑,up,↑,0.6630476000718772,True,11,1,0,10
Y2-S2-232K20,5,516,AS,exp,45,↓,down,↓,0.6615466000512242,True,11,1,0,10
Y2-S2-232K20,5,517,AS,exp,50,↑,up,↑,0.6868555000983179,True,10,1,0,10
Y2-S2-232K20,5,518,AS,exp,49,↓,down,↓,0.718218999914825,True,10,1,0,10
Y2-S2-232K20,5,519,AS,exp,45,←,right,→,1.2769865000154823,False,10,-1,1,11
Y2-S2-232K20,5,520,AS,exp,25,↓,right,→,0.7893360999878496,False,11,-1,0,11
Y2-S2-232K20,5,521,AS,exp,38,←,left,←,0.6093211001716554,True,12,-1,0,11
Y2-S2-232K20,5,522,AS,exp,39,↓,up,↑,1.2954478000756353,False,12,-1,0,11
Y2-S2-232K20,5,523,AS,exp,28,↑,up,↑,0.62714510015212,True,13,-1,0,11
Y2-S2-232K20,5,524,AS,exp,48,→,right,→,0.7008110999595374,True,13,-1,0,11
Y2-S2-232K20,5,525,AS,exp,48,←,left,←,0.7137688000220805,True,13,1,1,12
Y2-S2-232K20,5,526,AS,exp,27,↓,left,←,0.7516415000427514,False,12,-1,1,13
Y2-S2-232K20,5,527,AS,exp,36,←,left,←,0.5113556000869721,True,13,-1,0,13
Y2-S2-232K20,5,528,AS,exp,49,↓,down,↓,0.7694914999883622,True,13,-1,0,13
Y2-S2-232K20,5,529,AS,exp,46,→,right,→,0.7326791998930275,True,13,1,1,14
Y2-S2-232K20,5,530,AS,exp,37,↓,down,↓,0.8254614998586476,True,12,1,0,14
Y2-S2-232K20,5,531,AS,exp,47,↑,up,↑,0.6524952000472695,True,12,1,0,14
Y2-S2-232K20,5,532,AS,exp,34,→,left,←,0.7698789997957647,False,12,-1,1,15
Y2-S2-232K20,5,533,AS,exp,41,↑,right,→,1.1375019000843167,False,13,-1,0,15
Y2-S2-232K20,5,534,AS,exp,47,←,down,↓,1.8051485000178218,False,14,-1,0,15
Y2-S2-232K20,5,535,AS,exp,35,↑,up,↑,0.7534044999629259,True,15,-1,0,15
Y2-S2-232K20,5,536,AS,exp,28,→,right,→,0.6220722000580281,True,15,-1,0,15
Y2-S2-232K20,5,537,AS,exp,41,↑,up,↑,0.6481633000075817,True,15,1,1,16
Y2-S2-232K20,6,538,PS,intra_train,32,→,up,↑,1.198092799866572,False,10,-,-,-
Y2-S2-232K20,6,539,PS,intra_train,41,↓,up,↑,1.295503299916163,False,10,-,-,-
Y2-S2-232K20,6,540,PS,intra_train,49,←,left,←,0.9331694999709725,True,10,-,-,-
Y2-S2-232K20,6,541,PS,intra_train,26,↑,up,↑,0.6145345000550151,True,10,-,-,-
Y2-S2-232K20,6,542,PS,intra_train,39,←,left,←,0.6559073999524117,True,10,-,-,-
Y2-S2-232K20,6,543,PS,exp,38,↓,down,↓,0.624592199921608,True,7,0,0,0
Y2-S2-232K20,6,544,PS,exp,42,→,left,←,0.7564318999648094,False,7,-1,0,0
Y2-S2-232K20,6,545,PS,exp,37,↓,up,↑,0.9594358000904322,False,8,-1,0,0
Y2-S2-232K20,6,546,PS,exp,33,↑,up,↑,0.45928139984607697,True,9,-1,0,0
Y2-S2-232K20,6,547,PS,exp,35,→,left,←,0.8891706999856979,False,9,-1,0,0
Y2-S2-232K20,6,548,PS,exp,38,↑,right,→,0.7150510000064969,False,10,-1,0,0
Y2-S2-232K20,6,549,PS,exp,39,↓,down,↓,0.6119187001604587,True,11,-1,0,0
Y2-S2-232K20,6,550,PS,exp,44,←,left,←,0.6068086000159383,True,11,-1,0,0
Y2-S2-232K20,6,551,PS,exp,27,↑,left,←,0.630276900017634,False,11,-1,0,0
Y2-S2-232K20,6,552,PS,exp,26,←,left,←,0.49900409998372197,True,12,-1,0,0
Y2-S2-232K20,6,553,PS,exp,29,→,right,→,0.6667315999511629,True,12,-1,0,0
Y2-S2-232K20,6,554,PS,exp,26,↑,right,→,0.6992736000102013,False,12,-1,0,0
Y2-S2-232K20,6,555,PS,exp,32,←,right,→,0.6439350999426097,False,13,-1,0,0
Y2-S2-232K20,6,556,PS,exp,31,↑,up,↑,0.5303253000602126,True,14,-1,0,0
Y2-S2-232K20,6,557,PS,exp,38,→,right,→,0.6210101000033319,True,14,-1,0,0
Y2-S2-232K20,6,558,PS,exp,44,↑,up,↑,1.21078409999609,True,14,1,1,1
Y2-S2-232K20,6,559,PS,exp,29,←,right,→,0.6325991000048816,False,13,-1,1,2
Y2-S2-232K20,6,560,PS,exp,41,→,right,→,0.5287043999414891,True,14,-1,0,2
Y2-S2-232K20,6,561,PS,exp,29,↓,right,→,0.8604600999969989,False,14,-1,0,2
Y2-S2-232K20,6,562,PS,exp,39,↑,up,↑,0.6443505000788718,True,15,-1,0,2
Y2-S2-232K20,6,563,PS,exp,30,↓,down,↓,0.7018403001129627,True,15,-1,0,2
Y2-S2-232K20,6,564,PS,exp,25,↑,right,→,0.859068299876526,False,15,-1,0,2
Y2-S2-232K20,6,565,PS,exp,32,←,right,→,0.6978335999883711,False,16,-1,0,2
Y2-S2-232K20,6,566,PS,exp,49,↓,down,↓,0.6283257999457419,True,17,-1,0,2
Y2-S2-232K20,6,567,PS,exp,33,→,right,→,0.5695269999559969,True,17,-1,0,2
Y2-S2-232K20,6,568,PS,exp,29,←,left,←,0.665561200119555,True,17,1,1,3
Y2-S2-232K20,6,569,PS,exp,37,→,right,→,0.5160957998596132,True,16,1,0,3
Y2-S2-232K20,6,570,PS,exp,27,↑,up,↑,0.6748107001185417,True,16,1,0,3
Y2-S2-232K20,6,571,PS,exp,46,↓,down,↓,0.7011343999765813,True,16,1,0,3
Y2-S2-232K20,6,572,PS,exp,49,↑,up,↑,0.7054293998517096,True,15,1,0,3
Y2-S2-232K20,6,573,PS,exp,28,↓,up,↑,0.7085294001735747,False,15,-1,1,4
Y2-S2-232K20,6,574,PS,exp,40,↑,up,↑,0.4725197001826018,True,16,-1,0,4
Y2-S2-232K20,6,575,PS,exp,30,←,left,←,0.5650158999487758,True,16,-1,0,4
Y2-S2-232K20,6,576,PS,exp,33,↓,down,↓,0.5879601999185979,True,16,1,1,5
Y2-S2-232K20,6,577,PS,exp,38,↑,up,↑,0.7297284998930991,True,15,1,0,5
Y2-S2-232K20,6,578,PS,exp,33,→,right,→,0.49218470021151006,True,15,1,0,5
Y2-S2-232K20,6,579,PS,exp,29,↓,down,↓,0.5065746000036597,True,15,1,0,5
Y2-S2-232K20,6,580,PS,exp,49,←,left,←,0.7008193999063224,True,14,1,0,5
Y2-S2-232K20,6,581,PS,exp,41,↑,right,→,0.7264199000783265,False,14,-1,1,6
Y2-S2-232K20,6,582,PS,exp,39,↓,down,↓,0.7122927000746131,True,15,-1,0,6
Y2-S2-232K20,6,583,PS,exp,47,↑,up,↑,0.7148575000464916,True,15,-1,0,6
Y2-S2-232K20,6,584,PS,exp,26,→,right,→,0.6967776999808848,True,15,1,1,7
Y2-S2-232K20,6,585,PS,exp,30,↑,up,↑,0.757216400001198,True,14,1,0,7
Y2-S2-232K20,6,586,PS,exp,28,↓,down,↓,0.6694091001991183,True,14,1,0,7
Y2-S2-232K20,6,587,PS,exp,41,→,right,→,0.6944034998305142,True,14,1,0,7
Y2-S2-232K20,6,588,PS,exp,49,↓,down,↓,0.7301336999516934,True,13,1,0,7
Y2-S2-232K20,6,589,PS,exp,38,↑,up,↑,0.667792099993676,True,13,1,0,7
Y2-S2-232K20,6,590,PS,exp,32,→,right,→,0.7036498999223113,True,13,1,0,7
Y2-S2-232K20,6,591,PS,exp,26,←,left,←,0.6621199999935925,True,12,1,0,7
Y2-S2-232K20,6,592,PS,exp,36,↑,right,→,0.699621600098908,False,12,-1,1,8
Y2-S2-232K20,6,593,PS,exp,49,↓,down,↓,0.6670644001569599,True,13,-1,0,8
Y2-S2-232K20,6,594,PS,exp,41,↑,up,↑,0.6923897999804467,True,13,-1,0,8
Y2-S2-232K20,6,595,PS,exp,34,→,right,→,0.6443070999812335,True,13,1,1,9
Y2-S2-232K20,6,596,PS,exp,46,←,left,←,0.6358203999698162,True,12,1,0,9
Y2-S2-232K20,6,597,PS,exp,43,→,right,→,0.6157599000725895,True,12,1,0,9
Y2-S2-232K20,6,598,PS,exp,32,↓,down,↓,0.700269800145179,True,12,1,0,9
Y2-S2-232K20,6,599,PS,exp,45,↑,up,↑,0.6744821998290718,True,11,1,0,9
Y2-S2-232K20,6,600,PS,exp,42,↓,down,↓,0.6195373998489231,True,11,1,0,9
Y2-S2-232K20,6,601,PS,exp,45,→,right,→,0.5918844998814166,True,11,1,0,9
Y2-S2-232K20,6,602,PS,exp,28,←,right,→,0.9270387999713421,False,10,-1,1,10
Y2-S2-232K20,6,603,PS,exp,34,↓,down,↓,0.6883997998666018,True,11,-1,0,10
Y2-S2-232K20,6,604,PS,exp,39,←,left,←,0.5852419999428093,True,11,-1,0,10
Y2-S2-232K20,6,605,PS,exp,31,→,left,←,0.6325308999512345,False,11,-1,0,10
Y2-S2-232K20,6,606,PS,exp,38,←,left,←,0.7328588999807835,True,12,-1,0,10
Y2-S2-232K20,6,607,PS,exp,40,↓,left,←,0.6013795998878777,False,12,-1,0,10
Y2-S2-232K20,6,608,PS,exp,44,←,left,←,0.5998472000937909,True,13,-1,0,10
Y2-S2-232K20,6,609,PS,exp,36,→,left,←,0.6387056999374181,False,13,-1,0,10
Y2-S2-232K20,6,610,PS,exp,25,←,right,→,0.6969821001403034,False,14,-1,0,10
Y2-S2-232K20,6,611,PS,exp,26,→,right,→,0.5070189000107348,True,15,-1,0,10
Y2-S2-232K20,6,612,PS,exp,32,↑,right,→,0.5912242999766022,False,15,-1,0,10
Y2-S2-232K20,6,613,PS,exp,28,←,right,→,0.8350793998688459,False,16,-1,0,10
Y2-S2-232K20,6,614,PS,exp,45,↓,no_key,no_letter,-1.0,False,17,-1,0,10
Y2-S2-232K20,6,615,PS,exp,43,↑,up,↑,0.719275200041011,True,18,-1,0,10
Y2-S2-232K20,6,616,PS,exp,44,←,left,←,0.5135896999854594,True,18,-1,0,10
Y2-S2-232K20,6,617,PS,exp,32,↓,down,↓,0.7086551999673247,True,18,1,1,11
Y2-S2-232K20,6,618,PS,exp,45,→,right,→,0.7248044000007212,True,17,1,0,11
Y2-S2-232K20,6,619,PS,exp,46,↑,left,←,0.9599997999612242,False,17,-1,1,12
Y2-S2-232K20,6,620,PS,exp,39,↓,down,↓,0.7763407998718321,True,18,-1,0,12
Y2-S2-232K20,6,621,PS,exp,27,↑,up,↑,0.6843090001493692,True,18,-1,0,12
Y2-S2-232K20,6,622,PS,exp,36,→,right,→,0.6724467999301851,True,18,1,1,13
Y2-S2-232K20,6,623,PS,exp,45,↑,up,↑,0.6593167998362333,True,17,1,0,13
Y2-S2-232K20,6,624,PS,exp,36,↓,down,↓,0.7387437999714166,True,17,1,0,13
Y2-S2-232K20,6,625,PS,exp,25,→,right,→,0.7178276001941413,True,17,1,0,13
Y2-S2-232K20,6,626,PS,exp,28,←,left,←,0.6832716998178512,True,16,1,0,13
Y2-S2-232K20,6,627,PS,exp,33,→,right,→,0.7140250001102686,True,16,1,0,13
Y2-S2-232K20,6,628,PS,exp,31,↓,down,↓,0.7294984001200646,True,16,1,0,13
Y2-S2-232K20,6,629,PS,exp,31,←,left,←,0.6964254998601973,True,15,1,0,13
Y2-S2-232K20,6,630,PS,exp,25,↓,down,↓,0.6218397000338882,True,15,1,0,13
Y2-S2-232K20,6,631,PS,exp,34,↑,up,↑,0.6837802999652922,True,15,1,0,13
Y2-S2-232K20,6,632,PS,exp,44,→,right,→,0.6763480000663549,True,14,1,0,13
Y2-S2-232K20,6,633,PS,exp,31,↓,down,↓,0.6768726999871433,True,14,1,0,13
Y2-S2-232K20,6,634,PS,exp,30,←,right,→,0.7088519998360425,False,14,-1,1,14
Y2-S2-232K20,6,635,PS,exp,39,↓,down,↓,0.6875080999452621,True,15,-1,0,14
Y2-S2-232K20,6,636,PS,exp,27,←,left,←,0.6699516999069601,True,15,-1,0,14
Y2-S2-232K20,6,637,PS,exp,45,↑,up,↑,0.5721699001733214,True,15,1,1,15
Y2-S2-232K20,6,638,PS,exp,29,↓,down,↓,0.6734819000121206,True,14,1,0,15
Y2-S2-232K20,6,639,PS,exp,48,↑,up,↑,0.5781425000168383,True,14,1,0,15
Y2-S2-232K20,6,640,PS,exp,26,↓,right,→,0.6880477000959218,False,14,-1,1,16
Y2-S2-232K20,7,641,PS,intra_train,49,←,left,←,1.1352818000596017,True,10,-,-,-
Y2-S2-232K20,7,642,PS,intra_train,32,↓,down,↓,0.7369268001057208,True,10,-,-,-
Y2-S2-232K20,7,643,PS,intra_train,41,←,left,←,0.5310939000919461,True,10,-,-,-
Y2-S2-232K20,7,644,PS,intra_train,34,↑,up,↑,0.6182098998688161,True,10,-,-,-
Y2-S2-232K20,7,645,PS,intra_train,37,←,left,←,0.5777626000344753,True,10,-,-,-
Y2-S2-232K20,7,646,PS,exp,48,↑,up,↑,0.6079154000617564,True,7,0,0,0
Y2-S2-232K20,7,647,PS,exp,25,←,left,←,0.6260087001137435,True,7,0,0,0
Y2-S2-232K20,7,648,PS,exp,45,→,right,→,0.5927832000888884,True,7,1,0,0
Y2-S2-232K20,7,649,PS,exp,27,↓,up,↑,0.6740842999424785,False,6,-1,1,1
Y2-S2-232K20,7,650,PS,exp,30,↑,up,↑,0.557936399942264,True,7,-1,0,1
Y2-S2-232K20,7,651,PS,exp,47,↓,down,↓,0.6177799000870436,True,7,-1,0,1
Y2-S2-232K20,7,652,PS,exp,48,←,left,←,0.590333899948746,True,7,1,1,2
Y2-S2-232K20,7,653,PS,exp,49,→,left,←,0.7507366999052465,False,6,-1,1,3
Y2-S2-232K20,7,654,PS,exp,47,↑,right,→,0.851283400086686,False,7,-1,0,3
Y2-S2-232K20,7,655,PS,exp,27,→,left,←,0.7093031001277268,False,8,-1,0,3
Y2-S2-232K20,7,656,PS,exp,27,←,left,←,0.604673899943009,True,9,-1,0,3
Y2-S2-232K20,7,657,PS,exp,36,↑,up,↑,0.49825330008752644,True,9,-1,0,3
Y2-S2-232K20,7,658,PS,exp,39,→,right,→,0.6051053002011031,True,9,1,1,4
Y2-S2-232K20,7,659,PS,exp,45,←,left,←,0.4827597001567483,True,8,1,0,4
Y2-S2-232K20,7,660,PS,exp,25,↓,left,←,0.5485578998923302,False,8,-1,1,5
Y2-S2-232K20,7,661,PS,exp,32,→,right,→,0.5117697000969201,True,9,-1,0,5
Y2-S2-232K20,7,662,PS,exp,50,↑,right,→,0.6366529001388699,False,9,-1,0,5
Y2-S2-232K20,7,663,PS,exp,44,→,right,→,0.5007304998580366,True,10,-1,0,5
Y2-S2-232K20,7,664,PS,exp,49,↑,up,↑,0.5945019000209868,True,10,-1,0,5
Y2-S2-232K20,7,665,PS,exp,30,↓,down,↓,0.6172576998360455,True,10,1,1,6
Y2-S2-232K20,7,666,PS,exp,42,→,right,→,0.6466389999259263,True,9,1,0,6
Y2-S2-232K20,7,667,PS,exp,39,↑,right,→,0.5585195999592543,False,9,-1,1,7
Y2-S2-232K20,7,668,PS,exp,39,←,right,→,0.5803875999990851,False,10,-1,0,7
Y2-S2-232K20,7,669,PS,exp,46,↑,up,↑,0.5916377999819815,True,11,-1,0,7
Y2-S2-232K20,7,670,PS,exp,28,→,right,→,0.6058993998449296,True,11,-1,0,7
Y2-S2-232K20,7,671,PS,exp,34,↓,down,↓,0.6602771999314427,True,11,1,1,8
Y2-S2-232K20,7,672,PS,exp,32,←,left,←,0.5426022000610828,True,10,1,0,8
Y2-S2-232K20,7,673,PS,exp,31,↓,left,←,0.635859000030905,False,10,-1,1,9
Y2-S2-232K20,7,674,PS,exp,27,↑,up,↑,0.8256548000499606,True,11,-1,0,9
Y2-S2-232K20,7,675,PS,exp,25,→,right,→,0.6282009000424296,True,11,-1,0,9
Y2-S2-232K20,7,676,PS,exp,46,↓,down,↓,0.6451964001171291,True,11,1,1,10
Y2-S2-232K20,7,677,PS,exp,50,←,left,←,0.5883973001036793,True,10,1,0,10
Y2-S2-232K20,7,678,PS,exp,50,↑,right,→,0.7671163000632077,False,10,-1,1,11
Y2-S2-232K20,7,679,PS,exp,35,↓,down,↓,0.6290188001003116,True,11,-1,0,11
Y2-S2-232K20,7,680,PS,exp,29,←,left,←,0.5957078000064939,True,11,-1,0,11
Y2-S2-232K20,7,681,PS,exp,37,→,right,→,0.6477268000598997,True,11,1,1,12
Y2-S2-232K20,7,682,PS,exp,38,↓,down,↓,0.644582899985835,True,10,1,0,12
Y2-S2-232K20,7,683,PS,exp,45,←,left,←,0.5920158000662923,True,10,1,0,12
Y2-S2-232K20,7,684,PS,exp,34,↓,down,↓,0.6379696999210864,True,10,1,0,12
Y2-S2-232K20,7,685,PS,exp,47,→,right,→,0.6308037999551743,True,9,1,0,12
Y2-S2-232K20,7,686,PS,exp,36,←,left,←,0.6364428999368101,True,9,1,0,12
Y2-S2-232K20,7,687,PS,exp,25,↓,left,←,0.596287899883464,False,9,-1,1,13
Y2-S2-232K20,7,688,PS,exp,36,→,right,→,0.6708613999653608,True,10,-1,0,13
Y2-S2-232K20,7,689,PS,exp,37,←,left,←,0.6118884000461549,True,10,-1,0,13
Y2-S2-232K20,7,690,PS,exp,28,→,right,→,0.6696634001564234,True,10,1,1,14
Y2-S2-232K20,7,691,PS,exp,47,←,left,←,0.5878212999086827,True,9,1,0,14
Y2-S2-232K20,7,692,PS,exp,30,→,up,↑,0.7834848999045789,False,9,-1,1,15
Y2-S2-232K20,7,693,PS,exp,31,↓,down,↓,0.6670146000105888,True,10,-1,0,15
Y2-S2-232K20,7,694,PS,exp,48,→,right,→,0.6988416998647153,True,10,-1,0,15
Y2-S2-232K20,7,695,PS,exp,32,↓,down,↓,0.6659435001201928,True,10,1,1,16
Y2-S2-232K20,8,696,AS,intra_train,42,↑,right,→,1.6699280999600887,False,24,-,-,-
Y2-S2-232K20,8,697,AS,intra_train,42,←,left,←,0.5941701999399811,True,24,-,-,-
Y2-S2-232K20,8,698,AS,intra_train,43,↑,up,↑,0.5951387998647988,True,24,-,-,-
Y2-S2-232K20,8,699,AS,intra_train,50,→,right,→,0.5701539998408407,True,24,-,-,-
Y2-S2-232K20,8,700,AS,intra_train,32,←,left,←,0.6895721000619233,True,24,-,-,-
Y2-S2-232K20,8,701,AS,exp,49,↑,up,↑,0.5801949999295175,True,16,0,0,0
Y2-S2-232K20,8,702,AS,exp,37,←,left,←,0.7568904999643564,True,16,0,0,0
Y2-S2-232K20,8,703,AS,exp,26,→,left,←,0.7539506999310106,False,16,-1,0,0
Y2-S2-232K20,8,704,AS,exp,25,↑,up,↑,0.47998239984735847,True,17,-1,0,0
Y2-S2-232K20,8,705,AS,exp,35,←,left,←,0.686837499961257,True,17,-1,0,0
Y2-S2-232K20,8,706,AS,exp,44,↑,no_key,no_letter,-1.0,False,17,-1,0,0
Y2-S2-232K20,8,707,AS,exp,33,↓,up,↑,0.9496962998528033,False,18,-1,0,0
Y2-S2-232K20,8,708,AS,exp,47,←,left,←,0.6635024000424892,True,19,-1,0,0
Y2-S2-232K20,8,709,AS,exp,47,↑,up,↑,0.8021271000616252,True,19,-1,0,0
Y2-S2-232K20,8,710,AS,exp,26,←,left,←,0.7434080999810249,True,19,1,1,1
Y2-S2-232K20,8,711,AS,exp,40,↓,down,↓,0.7606179001741111,True,18,1,0,1
Y2-S2-232K20,8,712,AS,exp,30,→,right,→,0.5667009002063423,True,18,1,0,1
Y2-S2-232K20,8,713,AS,exp,31,↓,down,↓,0.7410985000897199,True,18,1,0,1
Y2-S2-232K20,8,714,AS,exp,43,←,left,←,0.6667549000121653,True,17,1,0,1
Y2-S2-232K20,8,715,AS,exp,44,→,right,→,0.49896789994090796,True,17,1,0,1
Y2-S2-232K20,8,716,AS,exp,35,↓,down,↓,0.7176276000682265,True,17,1,0,1
Y2-S2-232K20,8,717,AS,exp,35,←,right,→,0.6568392999470234,False,16,-1,1,2
Y2-S2-232K20,8,718,AS,exp,34,↑,down,↓,0.5753383999690413,False,17,-1,0,2
Y2-S2-232K20,8,719,AS,exp,40,→,right,→,0.5379214000422508,True,18,-1,0,2
Y2-S2-232K20,8,720,AS,exp,25,←,left,←,0.8161713997833431,True,18,-1,0,2
Y2-S2-232K20,8,721,AS,exp,44,→,right,→,0.7797334000933915,True,18,1,1,3
Y2-S2-232K20,8,722,AS,exp,41,↑,up,↑,0.7125744000077248,True,17,1,0,3
Y2-S2-232K20,8,723,AS,exp,44,←,right,→,0.8046559998765588,False,17,-1,1,4
Y2-S2-232K20,8,724,AS,exp,47,↑,up,↑,0.6994495000690222,True,18,-1,0,4
Y2-S2-232K20,8,725,AS,exp,35,↓,down,↓,0.7601890000514686,True,18,-1,0,4
Y2-S2-232K20,8,726,AS,exp,44,→,right,→,0.7568212999030948,True,18,1,1,5
Y2-S2-232K20,8,727,AS,exp,36,←,left,←,0.7158569998573512,True,17,1,0,5
Y2-S2-232K20,8,728,AS,exp,41,↑,up,↑,0.6930270998273045,True,17,1,0,5
Y2-S2-232K20,8,729,AS,exp,45,←,left,←,0.941808900097385,True,17,1,0,5
Y2-S2-232K20,8,730,AS,exp,46,→,right,→,0.641101999906823,True,16,1,0,5
Y2-S2-232K20,8,731,AS,exp,33,↓,down,↓,0.7265565001871437,True,16,1,0,5
Y2-S2-232K20,8,732,AS,exp,38,←,left,←,0.5468615998979658,True,16,1,0,5
Y2-S2-232K20,8,733,AS,exp,47,↓,down,↓,0.7554661000613123,True,15,1,0,5
Y2-S2-232K20,8,734,AS,exp,32,←,right,→,0.6718359000515193,False,15,-1,1,6
Y2-S2-232K20,8,735,AS,exp,36,→,right,→,0.6039692000485957,True,16,-1,0,6
Y2-S2-232K20,8,736,AS,exp,31,↓,down,↓,0.7829448999837041,True,16,-1,0,6
Y2-S2-232K20,8,737,AS,exp,30,↑,up,↑,0.7140397001057863,True,16,1,1,7
Y2-S2-232K20,8,738,AS,exp,40,↓,down,↓,0.640499000204727,True,15,1,0,7
Y2-S2-232K20,8,739,AS,exp,39,←,left,←,0.647964300122112,True,15,1,0,7
Y2-S2-232K20,8,740,AS,exp,30,→,right,→,0.6636172998696566,True,15,1,0,7
Y2-S2-232K20,8,741,AS,exp,40,↓,up,↑,0.7691450999118388,False,14,-1,1,8
Y2-S2-232K20,8,742,AS,exp,27,↑,up,↑,0.7307915999554098,True,15,-1,0,8
Y2-S2-232K20,8,743,AS,exp,38,←,right,→,0.7484815998468548,False,15,-1,0,8
Y2-S2-232K20,8,744,AS,exp,36,↓,down,↓,0.717729700030759,True,16,-1,0,8
Y2-S2-232K20,8,745,AS,exp,37,←,left,←,0.602823399938643,True,16,-1,0,8
Y2-S2-232K20,8,746,AS,exp,38,→,right,→,0.7120588000398129,True,16,1,1,9
Y2-S2-232K20,8,747,AS,exp,30,↓,down,↓,0.8343678000383079,True,15,1,0,9
Y2-S2-232K20,8,748,AS,exp,36,→,right,→,0.8624117998406291,True,15,1,0,9
Y2-S2-232K20,8,749,AS,exp,48,↑,right,→,0.6829167997930199,False,15,-1,1,10
Y2-S2-232K20,8,750,AS,exp,42,→,right,→,0.6964093998540193,True,16,-1,0,10
Y2-S2-232K20,8,751,AS,exp,44,↓,down,↓,0.7262820999603719,True,16,-1,0,10
Y2-S2-232K20,8,752,AS,exp,48,→,right,→,0.7441378000658005,True,16,1,1,11
Y2-S2-232K20,8,753,AS,exp,44,↑,up,↑,0.6509070000611246,True,15,1,0,11
Y2-S2-232K20,8,754,AS,exp,42,→,right,→,0.6970810999628156,True,15,1,0,11
Y2-S2-232K20,8,755,AS,exp,36,↓,down,↓,0.6661241999827325,True,15,1,0,11
Y2-S2-232K20,8,756,AS,exp,45,→,right,→,0.7101648000534624,True,14,1,0,11
Y2-S2-232K20,8,757,AS,exp,26,←,right,→,0.7478296000044793,False,14,-1,1,12
Y2-S2-232K20,8,758,AS,exp,49,→,right,→,0.5913530001416802,True,15,-1,0,12
Y2-S2-232K20,8,759,AS,exp,31,↑,right,→,0.8096062000840902,False,15,-1,0,12
Y2-S2-232K20,8,760,AS,exp,37,→,right,→,0.6022483000997454,True,16,-1,0,12
Y2-S2-232K20,8,761,AS,exp,29,←,left,←,0.6723110999446362,True,16,-1,0,12
Y2-S2-232K20,8,762,AS,exp,27,↓,up,↑,0.9474583000410348,False,16,-1,0,12
Y2-S2-232K20,8,763,AS,exp,29,→,left,←,0.7119677998125553,False,17,-1,0,12
Y2-S2-232K20,8,764,AS,exp,43,↑,up,↑,0.9078722998965532,True,18,-1,0,12
Y2-S2-232K20,8,765,AS,exp,37,←,left,←,0.8894690999295563,True,18,-1,0,12
Y2-S2-232K20,8,766,AS,exp,43,→,right,→,0.7862774999812245,True,18,1,1,13
Y2-S2-232K20,8,767,AS,exp,31,↓,down,↓,0.7099389999639243,True,17,1,0,13
Y2-S2-232K20,8,768,AS,exp,50,←,left,←,0.8208846000488847,True,17,1,0,13
Y2-S2-232K20,8,769,AS,exp,48,→,down,↓,1.3542455001734197,False,17,-1,1,14
Y2-S2-232K20,8,770,AS,exp,38,↑,up,↑,0.7789618000388145,True,18,-1,0,14
Y2-S2-232K20,8,771,AS,exp,41,→,left,←,1.051446600118652,False,18,-1,0,14
Y2-S2-232K20,8,772,AS,exp,40,←,left,←,0.6996400998905301,True,19,-1,0,14
Y2-S2-232K20,8,773,AS,exp,40,→,right,→,0.6904682000167668,True,19,-1,0,14
Y2-S2-232K20,8,774,AS,exp,46,↑,up,↑,0.57563990005292,True,19,1,1,15
Y2-S2-232K20,8,775,AS,exp,28,↓,down,↓,0.6384823999833316,True,18,1,0,15
Y2-S2-232K20,8,776,AS,exp,35,↑,up,↑,0.6645129001699388,True,18,1,0,15
Y2-S2-232K20,8,777,AS,exp,45,↓,right,→,0.734126599971205,False,18,-1,1,16
