PART_ID,Block_no,Trial_no,Block_type,Trial_type,CSI,Stim_letter,Key_pressed,letter_choose,Rt,Corr,Stimulus Time,Level,Reversal,Revs_count
Y2-S2-073K20,1,1,PS,train,38,↑,up,↑,0.9263214999809861,True,30,-,-,-
Y2-S2-073K20,1,2,PS,train,27,←,left,←,0.6172980999108404,True,30,-,-,-
Y2-S2-073K20,1,3,PS,train,25,→,right,→,0.5340298998635262,True,30,-,-,-
Y2-S2-073K20,1,4,PS,train,28,↓,down,↓,0.7449630999471992,True,30,-,-,-
Y2-S2-073K20,1,5,PS,train,29,→,right,→,0.5838412998709828,True,30,-,-,-
Y2-S2-073K20,1,6,PS,train,27,↑,up,↑,0.5839011000934988,True,30,-,-,-
Y2-S2-073K20,1,7,PS,train,46,↓,down,↓,0.7601123000495136,True,30,-,-,-
Y2-S2-073K20,1,8,PS,train,39,→,left,←,1.2891221998725086,False,30,-,-,-
Y2-S2-073K20,1,9,PS,train,38,←,left,←,0.5677209000568837,True,30,-,-,-
Y2-S2-073K20,1,10,PS,train,48,→,right,→,0.5506250998005271,True,30,-,-,-
Y2-S2-073K20,2,11,AS,train,49,←,left,←,0.6344165999908,True,45,-,-,-
Y2-S2-073K20,2,12,AS,train,37,↓,down,↓,0.7341693001799285,True,45,-,-,-
Y2-S2-073K20,2,13,AS,train,46,→,right,→,0.7008358000312,True,45,-,-,-
Y2-S2-073K20,2,14,AS,train,25,↓,down,↓,0.7672825001645833,True,45,-,-,-
Y2-S2-073K20,2,15,AS,train,44,↑,up,↑,0.5676342998631299,True,45,-,-,-
Y2-S2-073K20,2,16,AS,train,48,←,left,←,0.5677272998727858,True,45,-,-,-
Y2-S2-073K20,2,17,AS,train,36,↑,right,→,0.617803999921307,False,45,-,-,-
Y2-S2-073K20,2,18,AS,train,30,↓,down,↓,0.51745539996773,True,45,-,-,-
Y2-S2-073K20,2,19,AS,train,37,←,left,←,0.8510974999517202,True,45,-,-,-
Y2-S2-073K20,2,20,AS,train,28,↑,up,↑,0.6175934001803398,True,45,-,-,-
Y2-S2-073K20,-,21,PS,adaptive,42,→,right,→,0.8939763999078423,True,10,0,0,0
Y2-S2-073K20,-,22,PS,adaptive,33,←,up,↑,0.6849632998928428,False,10,-1,0,0
Y2-S2-073K20,-,23,PS,adaptive,47,→,right,→,0.6297571000177413,True,11,-1,0,0
Y2-S2-073K20,-,24,PS,adaptive,30,↑,up,↑,0.5845236999448389,True,11,-1,0,0
Y2-S2-073K20,-,25,PS,adaptive,45,→,right,→,0.6498579999897629,True,11,1,1,1
Y2-S2-073K20,-,26,PS,adaptive,31,↑,up,↑,0.713240799959749,True,10,1,0,1
Y2-S2-073K20,-,27,PS,adaptive,49,→,right,→,0.48553840001113713,True,10,1,0,1
Y2-S2-073K20,-,28,PS,adaptive,37,←,left,←,0.472120099933818,True,10,1,0,1
Y2-S2-073K20,-,29,PS,adaptive,39,→,left,←,1.2577835000120103,False,9,-1,1,2
Y2-S2-073K20,-,30,PS,adaptive,31,↑,up,↑,0.44083110010251403,True,10,-1,0,2
Y2-S2-073K20,-,31,PS,adaptive,36,←,left,←,0.4696146999485791,True,10,-1,0,2
Y2-S2-073K20,-,32,PS,adaptive,27,→,right,→,0.5529773000162095,True,10,1,1,3
Y2-S2-073K20,-,33,PS,adaptive,42,↑,up,↑,0.8530899998731911,True,9,1,0,3
Y2-S2-073K20,-,34,PS,adaptive,35,←,left,←,0.4649922999087721,True,9,1,0,3
Y2-S2-073K20,-,35,PS,adaptive,27,↓,left,←,1.1249203998595476,False,9,-1,1,4
Y2-S2-073K20,-,36,AS,adaptive,34,←,left,←,0.6252135001122952,True,20,0,0,0
Y2-S2-073K20,-,37,AS,adaptive,41,→,right,→,0.5803228998556733,True,20,0,0,0
Y2-S2-073K20,-,38,AS,adaptive,35,↑,right,→,0.7965144000481814,False,20,-1,0,0
Y2-S2-073K20,-,39,AS,adaptive,30,←,left,←,0.6475285000633448,True,21,-1,0,0
Y2-S2-073K20,-,40,AS,adaptive,25,↑,right,→,0.7793074001092464,False,21,-1,0,0
Y2-S2-073K20,-,41,AS,adaptive,48,→,right,→,0.5929161999374628,True,22,-1,0,0
Y2-S2-073K20,-,42,AS,adaptive,40,↑,up,↑,0.5779166999273002,True,22,-1,0,0
Y2-S2-073K20,-,43,AS,adaptive,46,←,left,←,0.50092349993065,True,22,1,1,1
Y2-S2-073K20,-,44,AS,adaptive,47,↑,up,↑,0.5388883999548852,True,21,1,0,1
Y2-S2-073K20,-,45,AS,adaptive,26,→,right,→,0.7244575000368059,True,21,1,0,1
Y2-S2-073K20,-,46,AS,adaptive,30,↑,up,↑,0.691013399977237,True,21,1,0,1
Y2-S2-073K20,-,47,AS,adaptive,34,→,left,←,0.4673969999421388,False,20,-1,1,2
Y2-S2-073K20,-,48,AS,adaptive,36,↓,down,↓,0.8329739000182599,True,21,-1,0,2
Y2-S2-073K20,-,49,AS,adaptive,48,↑,up,↑,0.5666022000368685,True,21,-1,0,2
Y2-S2-073K20,-,50,AS,adaptive,41,↓,down,↓,0.7701830000150949,True,21,1,1,3
Y2-S2-073K20,-,51,AS,adaptive,25,→,right,→,0.5800375000108033,True,20,1,0,3
Y2-S2-073K20,-,52,AS,adaptive,37,↑,up,↑,0.8433572999201715,True,20,1,0,3
Y2-S2-073K20,-,53,AS,adaptive,37,→,right,→,0.7283290000632405,True,20,1,0,3
Y2-S2-073K20,-,54,AS,adaptive,41,←,right,→,0.7958232001401484,False,19,-1,1,4
Y2-S2-073K20,1,55,PS,intra_train,37,↑,up,↑,0.5829717998858541,True,15,-,-,-
Y2-S2-073K20,1,56,PS,intra_train,45,←,left,←,0.610207499936223,True,15,-,-,-
Y2-S2-073K20,1,57,PS,intra_train,26,↓,down,↓,0.9233244000934064,True,15,-,-,-
Y2-S2-073K20,1,58,PS,intra_train,46,↑,up,↑,0.5500336999539286,True,15,-,-,-
Y2-S2-073K20,1,59,PS,intra_train,46,→,right,→,0.47299229982309043,True,15,-,-,-
Y2-S2-073K20,1,60,PS,exp,38,←,left,←,0.3639750999864191,True,10,0,0,0
Y2-S2-073K20,1,61,PS,exp,43,↑,down,↓,0.8664989999961108,False,10,-1,0,0
Y2-S2-073K20,1,62,PS,exp,43,↓,down,↓,0.6043260998558253,True,11,-1,0,0
Y2-S2-073K20,1,63,PS,exp,48,→,right,→,0.5729351998306811,True,11,-1,0,0
Y2-S2-073K20,1,64,PS,exp,26,←,left,←,0.6782371997833252,True,11,1,1,1
Y2-S2-073K20,1,65,PS,exp,43,→,right,→,0.6360409997869283,True,10,1,0,1
Y2-S2-073K20,1,66,PS,exp,50,↑,up,↑,0.6858819001354277,True,10,1,0,1
Y2-S2-073K20,1,67,PS,exp,49,→,right,→,0.6038968998473138,True,10,1,0,1
Y2-S2-073K20,1,68,PS,exp,32,↓,down,↓,0.6974712999071926,True,9,1,0,1
Y2-S2-073K20,1,69,PS,exp,32,→,down,↓,0.8109552001114935,False,9,-1,1,2
Y2-S2-073K20,1,70,PS,exp,40,↑,up,↑,0.5692825999576598,True,10,-1,0,2
Y2-S2-073K20,1,71,PS,exp,46,↓,left,←,1.037640699883923,False,10,-1,0,2
Y2-S2-073K20,1,72,PS,exp,26,←,left,←,0.6611862001009285,True,11,-1,0,2
Y2-S2-073K20,1,73,PS,exp,36,↓,down,↓,0.6326815001666546,True,11,-1,0,2
Y2-S2-073K20,1,74,PS,exp,32,↑,down,↓,0.9074266999959946,False,11,-1,0,2
Y2-S2-073K20,1,75,PS,exp,34,←,left,←,0.5878006999846548,True,12,-1,0,2
Y2-S2-073K20,1,76,PS,exp,49,↓,down,↓,0.6632995000109076,True,12,-1,0,2
Y2-S2-073K20,1,77,PS,exp,48,→,right,→,0.5202653000596911,True,12,1,1,3
Y2-S2-073K20,1,78,PS,exp,43,↑,up,↑,0.6792620997875929,True,11,1,0,3
Y2-S2-073K20,1,79,PS,exp,28,→,up,↑,0.7617724998854101,False,11,-1,1,4
Y2-S2-073K20,1,80,PS,exp,45,↓,down,↓,0.7976925999391824,True,12,-1,0,4
Y2-S2-073K20,1,81,PS,exp,41,→,right,→,0.556354699889198,True,12,-1,0,4
Y2-S2-073K20,1,82,PS,exp,26,←,left,←,0.5050494999159127,True,12,1,1,5
Y2-S2-073K20,1,83,PS,exp,48,→,right,→,0.7132190999109298,True,11,1,0,5
Y2-S2-073K20,1,84,PS,exp,44,↑,up,↑,0.7302448998671025,True,11,1,0,5
Y2-S2-073K20,1,85,PS,exp,31,→,left,←,0.8368480000644922,False,11,-1,1,6
Y2-S2-073K20,1,86,PS,exp,38,↑,up,↑,0.7260473999194801,True,12,-1,0,6
Y2-S2-073K20,1,87,PS,exp,33,↓,down,↓,0.6761898000258952,True,12,-1,0,6
Y2-S2-073K20,1,88,PS,exp,42,←,left,←,0.5910545999649912,True,12,1,1,7
Y2-S2-073K20,1,89,PS,exp,42,→,right,→,0.5574000000488013,True,11,1,0,7
Y2-S2-073K20,1,90,PS,exp,35,↑,up,↑,0.5976259000599384,True,11,1,0,7
Y2-S2-073K20,1,91,PS,exp,41,→,right,→,0.7617341999430209,True,11,1,0,7
Y2-S2-073K20,1,92,PS,exp,42,↑,up,↑,0.6648850999772549,True,10,1,0,7
Y2-S2-073K20,1,93,PS,exp,27,→,left,←,0.8841699999757111,False,10,-1,1,8
Y2-S2-073K20,1,94,PS,exp,37,↑,up,↑,0.5056477000471205,True,11,-1,0,8
Y2-S2-073K20,1,95,PS,exp,33,→,right,→,0.7124962999951094,True,11,-1,0,8
Y2-S2-073K20,1,96,PS,exp,34,↓,up,↑,0.8376861000433564,False,11,-1,0,8
Y2-S2-073K20,1,97,PS,exp,25,→,right,→,0.882347899954766,True,12,-1,0,8
Y2-S2-073K20,1,98,PS,exp,40,←,left,←,0.7037922998424619,True,12,-1,0,8
Y2-S2-073K20,1,99,PS,exp,36,↑,left,←,0.7756984999869019,False,12,-1,0,8
Y2-S2-073K20,1,100,PS,exp,45,→,left,←,0.8403623001649976,False,13,-1,0,8
Y2-S2-073K20,1,101,PS,exp,36,↑,up,↑,0.46587350009940565,True,14,-1,0,8
Y2-S2-073K20,1,102,PS,exp,25,→,right,→,0.5624116000253707,True,14,-1,0,8
Y2-S2-073K20,1,103,PS,exp,39,←,left,←,0.3507687000092119,True,14,1,1,9
Y2-S2-073K20,1,104,PS,exp,46,↑,left,←,0.3931086000520736,False,13,-1,1,10
Y2-S2-073K20,1,105,PS,exp,31,←,left,←,0.4248571000061929,True,14,-1,0,10
Y2-S2-073K20,1,106,PS,exp,39,↓,down,↓,0.6827050999272615,True,14,-1,0,10
Y2-S2-073K20,1,107,PS,exp,49,←,down,↓,0.9586361998226494,False,14,-1,0,10
Y2-S2-073K20,1,108,PS,exp,30,↓,down,↓,0.712501100031659,True,15,-1,0,10
Y2-S2-073K20,1,109,PS,exp,26,↑,up,↑,0.7219707001931965,True,15,-1,0,10
Y2-S2-073K20,1,110,PS,exp,42,←,left,←,0.6193888001143932,True,15,1,1,11
Y2-S2-073K20,1,111,PS,exp,27,↓,right,→,0.7337172999978065,False,14,-1,1,12
Y2-S2-073K20,1,112,PS,exp,28,←,left,←,0.5196551999542862,True,15,-1,0,12
Y2-S2-073K20,1,113,PS,exp,35,↓,down,↓,1.6516950998920947,True,15,-1,0,12
Y2-S2-073K20,1,114,PS,exp,46,→,right,→,0.6917542000301182,True,15,1,1,13
Y2-S2-073K20,1,115,PS,exp,42,↓,down,↓,0.6716485000215471,True,14,1,0,13
Y2-S2-073K20,1,116,PS,exp,36,←,left,←,0.7375070000998676,True,14,1,0,13
Y2-S2-073K20,1,117,PS,exp,36,↑,right,→,1.0520215998403728,False,14,-1,1,14
Y2-S2-073K20,1,118,PS,exp,45,→,right,→,0.6337172999046743,True,15,-1,0,14
Y2-S2-073K20,1,119,PS,exp,27,↓,down,↓,0.6377435999456793,True,15,-1,0,14
Y2-S2-073K20,1,120,PS,exp,49,↑,up,↑,1.0256159000564367,True,15,1,1,15
Y2-S2-073K20,1,121,PS,exp,49,↓,down,↓,0.5972943999804556,True,14,1,0,15
Y2-S2-073K20,1,122,PS,exp,35,←,left,←,0.6129161000717431,True,14,1,0,15
Y2-S2-073K20,1,123,PS,exp,47,↑,up,↑,0.5517031000927091,True,14,1,0,15
Y2-S2-073K20,1,124,PS,exp,38,←,left,←,0.5326044999528676,True,13,1,0,15
Y2-S2-073K20,1,125,PS,exp,43,→,right,→,0.530174900079146,True,13,1,0,15
Y2-S2-073K20,1,126,PS,exp,30,↑,up,↑,0.727255400037393,True,13,1,0,15
Y2-S2-073K20,1,127,PS,exp,29,→,right,→,0.6181725000496954,True,12,1,0,15
Y2-S2-073K20,1,128,PS,exp,37,←,left,←,0.5684231999330223,True,12,1,0,15
Y2-S2-073K20,1,129,PS,exp,49,↑,up,↑,0.6638169998768717,True,12,1,0,15
Y2-S2-073K20,1,130,PS,exp,50,←,left,←,0.7221611998975277,True,11,1,0,15
Y2-S2-073K20,1,131,PS,exp,32,↑,up,↑,0.8716147001832724,True,11,1,0,15
Y2-S2-073K20,1,132,PS,exp,43,←,left,←,0.5695287000853568,True,11,1,0,15
Y2-S2-073K20,1,133,PS,exp,45,→,up,↑,0.6558238000143319,False,10,-1,1,16
Y2-S2-073K20,2,134,AS,intra_train,31,←,left,←,0.6008691000752151,True,30,-,-,-
Y2-S2-073K20,2,135,AS,intra_train,35,↓,down,↓,0.8723167998250574,True,30,-,-,-
Y2-S2-073K20,2,136,AS,intra_train,43,→,right,→,0.8335856001358479,True,30,-,-,-
Y2-S2-073K20,2,137,AS,intra_train,42,↓,down,↓,0.899933900218457,True,30,-,-,-
Y2-S2-073K20,2,138,AS,intra_train,26,←,left,←,0.6985194999724627,True,30,-,-,-
Y2-S2-073K20,2,139,AS,exp,26,↑,up,↑,0.7632196000777185,True,20,0,0,0
Y2-S2-073K20,2,140,AS,exp,31,↓,down,↓,0.7833080999553204,True,20,0,0,0
Y2-S2-073K20,2,141,AS,exp,37,→,right,→,0.8071417999453843,True,20,1,0,0
Y2-S2-073K20,2,142,AS,exp,35,↑,down,↓,0.6228229999542236,False,19,-1,1,1
Y2-S2-073K20,2,143,AS,exp,50,↓,down,↓,1.6126472000032663,True,20,-1,0,1
Y2-S2-073K20,2,144,AS,exp,46,←,left,←,0.4504329999908805,True,20,-1,0,1
Y2-S2-073K20,2,145,AS,exp,47,↑,up,↑,0.7221469001378864,True,20,1,1,2
Y2-S2-073K20,2,146,AS,exp,33,←,up,↑,0.8990613999776542,False,19,-1,1,3
Y2-S2-073K20,2,147,AS,exp,41,→,right,→,0.6549747998360544,True,20,-1,0,3
Y2-S2-073K20,2,148,AS,exp,40,↓,down,↓,0.7011604001745582,True,20,-1,0,3
Y2-S2-073K20,2,149,AS,exp,39,→,right,→,1.3789095000829548,True,20,1,1,4
Y2-S2-073K20,2,150,AS,exp,32,↑,down,↓,0.9390074000693858,False,19,-1,1,5
Y2-S2-073K20,2,151,AS,exp,35,↓,down,↓,0.8011825000867248,True,20,-1,0,5
Y2-S2-073K20,2,152,AS,exp,39,↑,up,↑,0.8436766001395881,True,20,-1,0,5
Y2-S2-073K20,2,153,AS,exp,31,←,left,←,0.7826422001235187,True,20,1,1,6
Y2-S2-073K20,2,154,AS,exp,45,↓,left,←,1.002976199844852,False,19,-1,1,7
Y2-S2-073K20,2,155,AS,exp,32,↑,up,↑,0.6392377000302076,True,20,-1,0,7
Y2-S2-073K20,2,156,AS,exp,34,←,left,←,0.6629981999285519,True,20,-1,0,7
Y2-S2-073K20,2,157,AS,exp,50,↑,no_key,no_letter,-1.0,False,20,-1,0,7
Y2-S2-073K20,2,158,AS,exp,47,←,left,←,1.2252548998221755,True,21,-1,0,7
Y2-S2-073K20,2,159,AS,exp,38,→,right,→,0.8210054999217391,True,21,-1,0,7
Y2-S2-073K20,2,160,AS,exp,47,↓,up,↑,0.723275899887085,False,21,-1,0,7
Y2-S2-073K20,2,161,AS,exp,26,→,right,→,0.8083937000483274,True,22,-1,0,7
Y2-S2-073K20,2,162,AS,exp,47,↓,down,↓,0.45047530019655824,True,22,-1,0,7
Y2-S2-073K20,2,163,AS,exp,30,↑,down,↓,0.5628661999944597,False,22,-1,0,7
Y2-S2-073K20,2,164,AS,exp,27,↓,down,↓,0.6965561001561582,True,23,-1,0,7
Y2-S2-073K20,2,165,AS,exp,47,→,right,→,0.4008834999985993,True,23,-1,0,7
Y2-S2-073K20,2,166,AS,exp,42,↓,down,↓,0.5976994000375271,True,23,1,1,8
Y2-S2-073K20,2,167,AS,exp,34,↑,up,↑,0.7262760999146849,True,22,1,0,8
Y2-S2-073K20,2,168,AS,exp,50,↓,down,↓,0.7190519000869244,True,22,1,0,8
Y2-S2-073K20,2,169,AS,exp,26,←,down,↓,1.0822193999774754,False,22,-1,1,9
Y2-S2-073K20,2,170,AS,exp,38,↑,up,↑,0.7975391000509262,True,23,-1,0,9
Y2-S2-073K20,2,171,AS,exp,49,↓,down,↓,0.789482300169766,True,23,-1,0,9
Y2-S2-073K20,2,172,AS,exp,26,→,right,→,0.6262354000937194,True,23,1,1,10
Y2-S2-073K20,2,173,AS,exp,30,↓,down,↓,0.6731398000847548,True,22,1,0,10
Y2-S2-073K20,2,174,AS,exp,45,↑,up,↑,0.6861048000864685,True,22,1,0,10
Y2-S2-073K20,2,175,AS,exp,33,→,right,→,1.8214755000080913,True,22,1,0,10
Y2-S2-073K20,2,176,AS,exp,34,←,left,←,0.7752668000757694,True,21,1,0,10
Y2-S2-073K20,2,177,AS,exp,32,↑,right,→,1.2618870998267084,False,21,-1,1,11
Y2-S2-073K20,2,178,AS,exp,47,↓,down,↓,1.440617399988696,True,22,-1,0,11
Y2-S2-073K20,2,179,AS,exp,31,→,right,→,0.7459907000884414,True,22,-1,0,11
Y2-S2-073K20,2,180,AS,exp,31,←,right,→,0.9673522999510169,False,22,-1,0,11
Y2-S2-073K20,2,181,AS,exp,31,→,right,→,0.6738738000858575,True,23,-1,0,11
Y2-S2-073K20,2,182,AS,exp,41,←,left,←,0.8563379999250174,True,23,-1,0,11
Y2-S2-073K20,2,183,AS,exp,27,→,right,→,0.7377956002019346,True,23,1,1,12
Y2-S2-073K20,2,184,AS,exp,50,↑,up,↑,0.9600948998704553,True,22,1,0,12
Y2-S2-073K20,2,185,AS,exp,50,←,left,←,1.0896119000390172,True,22,1,0,12
Y2-S2-073K20,2,186,AS,exp,32,↑,up,↑,0.8319073999300599,True,22,1,0,12
Y2-S2-073K20,2,187,AS,exp,49,↓,down,↓,0.9738682000897825,True,21,1,0,12
Y2-S2-073K20,2,188,AS,exp,48,←,left,←,1.0394919000100344,True,21,1,0,12
Y2-S2-073K20,2,189,AS,exp,30,→,down,↓,1.5700046001002192,False,21,-1,1,13
Y2-S2-073K20,2,190,AS,exp,45,←,left,←,0.9305341998115182,True,22,-1,0,13
Y2-S2-073K20,2,191,AS,exp,42,→,down,↓,0.8896862000692636,False,22,-1,0,13
Y2-S2-073K20,2,192,AS,exp,50,←,right,→,1.1917606999631971,False,23,-1,0,13
Y2-S2-073K20,2,193,AS,exp,25,↓,down,↓,0.7849302000831813,True,24,-1,0,13
Y2-S2-073K20,2,194,AS,exp,37,↑,up,↑,1.0983062000013888,True,24,-1,0,13
Y2-S2-073K20,2,195,AS,exp,25,↓,down,↓,1.544087499845773,True,24,1,1,14
Y2-S2-073K20,2,196,AS,exp,46,→,right,→,2.0340688000433147,True,23,1,0,14
Y2-S2-073K20,2,197,AS,exp,40,←,left,←,0.7909533001948148,True,23,1,0,14
Y2-S2-073K20,2,198,AS,exp,37,→,right,→,0.50053930003196,True,23,1,0,14
Y2-S2-073K20,2,199,AS,exp,39,↑,up,↑,0.7659021997824311,True,22,1,0,14
Y2-S2-073K20,2,200,AS,exp,36,→,right,→,0.6936956997960806,True,22,1,0,14
Y2-S2-073K20,2,201,AS,exp,35,←,left,←,0.43387440009973943,True,22,1,0,14
Y2-S2-073K20,2,202,AS,exp,37,→,right,→,0.5525799000170082,True,21,1,0,14
Y2-S2-073K20,2,203,AS,exp,50,↓,down,↓,0.9813701000530273,True,21,1,0,14
Y2-S2-073K20,2,204,AS,exp,33,←,right,→,0.5476251000072807,False,21,-1,1,15
Y2-S2-073K20,2,205,AS,exp,25,→,up,↑,0.23457060009241104,False,22,-1,0,15
Y2-S2-073K20,2,206,AS,exp,47,←,down,↓,0.45068840007297695,False,23,-1,0,15
Y2-S2-073K20,2,207,AS,exp,35,→,right,→,0.20109149999916553,True,24,-1,0,15
Y2-S2-073K20,2,208,AS,exp,40,←,down,↓,0.01742679998278618,False,24,-1,0,15
Y2-S2-073K20,2,209,AS,exp,35,→,up,↑,1.2642953000031412,False,25,-1,0,15
Y2-S2-073K20,2,210,AS,exp,45,↓,down,↓,0.5004900998901576,True,26,-1,0,15
Y2-S2-073K20,2,211,AS,exp,43,→,right,→,0.26744990004226565,True,26,-1,0,15
Y2-S2-073K20,2,212,AS,exp,45,↓,left,←,0.5505023000296205,False,26,-1,0,15
Y2-S2-073K20,2,213,AS,exp,26,←,down,↓,0.13452049996703863,False,27,-1,0,15
Y2-S2-073K20,2,214,AS,exp,46,→,right,→,1.212096300208941,True,28,-1,0,15
Y2-S2-073K20,2,215,AS,exp,39,←,right,→,0.5339416000060737,False,28,-1,0,15
Y2-S2-073K20,2,216,AS,exp,41,→,right,→,0.5506593999452889,True,29,-1,0,15
Y2-S2-073K20,2,217,AS,exp,25,←,left,←,0.4837759002111852,True,29,-1,0,15
Y2-S2-073K20,2,218,AS,exp,50,↑,up,↑,0.9233611999079585,True,29,1,1,16
Y2-S2-073K20,3,219,AS,intra_train,39,→,right,→,0.6335318998899311,True,30,-,-,-
Y2-S2-073K20,3,220,AS,intra_train,30,↑,up,↑,0.6838587999809533,True,30,-,-,-
Y2-S2-073K20,3,221,AS,intra_train,40,→,right,→,0.5671375000383705,True,30,-,-,-
Y2-S2-073K20,3,222,AS,intra_train,28,↑,up,↑,0.7383169000968337,True,30,-,-,-
Y2-S2-073K20,3,223,AS,intra_train,33,↓,down,↓,0.8350958998780698,True,30,-,-,-
Y2-S2-073K20,3,224,AS,exp,29,↑,up,↑,0.7363835000433028,True,20,0,0,0
Y2-S2-073K20,3,225,AS,exp,29,↓,down,↓,0.7583437999710441,True,20,0,0,0
Y2-S2-073K20,3,226,AS,exp,32,←,left,←,0.7393211999442428,True,20,1,0,0
Y2-S2-073K20,3,227,AS,exp,29,↑,up,↑,0.6605060000438243,True,19,1,0,0
Y2-S2-073K20,3,228,AS,exp,27,→,right,→,0.7582602000329643,True,19,1,0,0
Y2-S2-073K20,3,229,AS,exp,45,←,left,←,1.0358253000304103,True,19,1,0,0
Y2-S2-073K20,3,230,AS,exp,35,↓,down,↓,0.816692299908027,True,18,1,0,0
Y2-S2-073K20,3,231,AS,exp,39,↑,down,↓,1.0538236999418586,False,18,-1,1,1
Y2-S2-073K20,3,232,AS,exp,48,→,right,→,0.5675494000315666,True,19,-1,0,1
Y2-S2-073K20,3,233,AS,exp,34,↓,down,↓,0.7883758000098169,True,19,-1,0,1
Y2-S2-073K20,3,234,AS,exp,46,↑,up,↑,0.5500213999766856,True,19,1,1,2
Y2-S2-073K20,3,235,AS,exp,32,←,left,←,0.5781642999500036,True,18,1,0,2
Y2-S2-073K20,3,236,AS,exp,40,↑,up,↑,0.6246148999780416,True,18,1,0,2
Y2-S2-073K20,3,237,AS,exp,27,↓,down,↓,1.3094323000404984,True,18,1,0,2
Y2-S2-073K20,3,238,AS,exp,45,↑,up,↑,0.7145426999777555,True,17,1,0,2
Y2-S2-073K20,3,239,AS,exp,46,←,left,←,0.6437167001422495,True,17,1,0,2
Y2-S2-073K20,3,240,AS,exp,37,↑,up,↑,0.5105002000927925,True,17,1,0,2
Y2-S2-073K20,3,241,AS,exp,35,→,right,→,0.8892551998142153,True,16,1,0,2
Y2-S2-073K20,3,242,AS,exp,46,↑,up,↑,0.8655222000088543,True,16,1,0,2
Y2-S2-073K20,3,243,AS,exp,40,→,down,↓,1.5955099000129849,False,16,-1,1,3
Y2-S2-073K20,3,244,AS,exp,42,↑,down,↓,0.6449857000261545,False,17,-1,0,3
Y2-S2-073K20,3,245,AS,exp,25,→,right,→,0.6975219000596553,True,18,-1,0,3
Y2-S2-073K20,3,246,AS,exp,38,↓,left,←,0.8060656001325697,False,18,-1,0,3
Y2-S2-073K20,3,247,AS,exp,33,→,right,→,0.6557750999927521,True,19,-1,0,3
Y2-S2-073K20,3,248,AS,exp,50,←,up,↑,0.9729303000494838,False,19,-1,0,3
Y2-S2-073K20,3,249,AS,exp,36,↑,up,↑,0.6558413000311702,True,20,-1,0,3
Y2-S2-073K20,3,250,AS,exp,35,←,down,↓,1.5875927999150008,False,20,-1,0,3
Y2-S2-073K20,3,251,AS,exp,45,↓,down,↓,0.9327978000510484,True,21,-1,0,3
Y2-S2-073K20,3,252,AS,exp,30,→,left,←,0.8432478001341224,False,21,-1,0,3
Y2-S2-073K20,3,253,AS,exp,32,←,left,←,0.7559150999877602,True,22,-1,0,3
Y2-S2-073K20,3,254,AS,exp,46,→,right,→,0.4507210999727249,True,22,-1,0,3
Y2-S2-073K20,3,255,AS,exp,47,↑,up,↑,0.6842585999984294,True,22,1,1,4
Y2-S2-073K20,3,256,AS,exp,38,↓,down,↓,1.6002572998404503,True,21,1,0,4
Y2-S2-073K20,3,257,AS,exp,32,←,right,→,0.7739033999387175,False,21,-1,1,5
Y2-S2-073K20,3,258,AS,exp,34,↑,up,↑,0.6171750999055803,True,22,-1,0,5
Y2-S2-073K20,3,259,AS,exp,44,→,right,→,1.2233881000429392,True,22,-1,0,5
Y2-S2-073K20,3,260,AS,exp,27,↓,down,↓,0.500784199917689,True,22,1,1,6
Y2-S2-073K20,3,261,AS,exp,38,→,right,→,0.9354240000247955,True,21,1,0,6
Y2-S2-073K20,3,262,AS,exp,38,↓,down,↓,0.8177714999765158,True,21,1,0,6
Y2-S2-073K20,3,263,AS,exp,32,↑,up,↑,0.8893432000186294,True,21,1,0,6
Y2-S2-073K20,3,264,AS,exp,44,→,right,→,0.8054015999659896,True,20,1,0,6
Y2-S2-073K20,3,265,AS,exp,48,↓,down,↓,0.7530860998667777,True,20,1,0,6
Y2-S2-073K20,3,266,AS,exp,42,↑,down,↓,0.9512271999847144,False,20,-1,1,7
Y2-S2-073K20,3,267,AS,exp,42,↓,up,↑,0.5622888999059796,False,21,-1,0,7
Y2-S2-073K20,3,268,AS,exp,38,←,down,↓,0.46737450012005866,False,22,-1,0,7
Y2-S2-073K20,3,269,AS,exp,25,↓,down,↓,0.6815972998738289,True,23,-1,0,7
Y2-S2-073K20,3,270,AS,exp,28,→,left,←,1.1920727998949587,False,23,-1,0,7
Y2-S2-073K20,3,271,AS,exp,38,↑,up,↑,0.5171370001044124,True,24,-1,0,7
Y2-S2-073K20,3,272,AS,exp,29,↓,left,←,0.48368139984086156,False,24,-1,0,7
Y2-S2-073K20,3,273,AS,exp,38,↑,down,↓,0.4672256000339985,False,25,-1,0,7
Y2-S2-073K20,3,274,AS,exp,44,↓,down,↓,0.48382669989950955,True,26,-1,0,7
Y2-S2-073K20,3,275,AS,exp,46,→,right,→,1.4005907999817282,True,26,-1,0,7
Y2-S2-073K20,3,276,AS,exp,35,↓,right,→,1.7582030999474227,False,26,-1,0,7
Y2-S2-073K20,3,277,AS,exp,46,↑,right,→,1.215432500001043,False,27,-1,0,7
Y2-S2-073K20,3,278,AS,exp,41,←,right,→,0.6347935001831502,False,28,-1,0,7
Y2-S2-073K20,3,279,AS,exp,28,→,left,←,0.41776910005137324,False,29,-1,0,7
Y2-S2-073K20,3,280,AS,exp,45,↓,down,↓,0.6339803000446409,True,30,-1,0,7
Y2-S2-073K20,3,281,AS,exp,41,↑,right,→,0.6008310001343489,False,30,-1,0,7
Y2-S2-073K20,3,282,AS,exp,43,↓,right,→,0.7274591999594122,False,31,-1,0,7
Y2-S2-073K20,3,283,AS,exp,27,←,left,←,1.2579059998970479,True,32,-1,0,7
Y2-S2-073K20,3,284,AS,exp,34,→,right,→,0.5508447999600321,True,32,-1,0,7
Y2-S2-073K20,3,285,AS,exp,46,↓,right,→,0.7350039999000728,False,32,-1,0,7
Y2-S2-073K20,3,286,AS,exp,33,→,right,→,1.0476269000209868,True,33,-1,0,7
Y2-S2-073K20,3,287,AS,exp,35,↑,up,↑,0.8016105000860989,True,33,-1,0,7
Y2-S2-073K20,3,288,AS,exp,25,↓,down,↓,1.1585214999504387,True,33,1,1,8
Y2-S2-073K20,3,289,AS,exp,28,←,left,←,0.5171994001138955,True,32,1,0,8
Y2-S2-073K20,3,290,AS,exp,29,↑,right,→,0.5505111000966281,False,32,-1,1,9
Y2-S2-073K20,3,291,AS,exp,42,→,right,→,0.4675396999809891,True,33,-1,0,9
Y2-S2-073K20,3,292,AS,exp,33,↑,up,↑,0.48427859996445477,True,33,-1,0,9
Y2-S2-073K20,3,293,AS,exp,39,↓,down,↓,0.6173680000938475,True,33,1,1,10
Y2-S2-073K20,3,294,AS,exp,25,→,right,→,0.6173696999903768,True,32,1,0,10
Y2-S2-073K20,3,295,AS,exp,32,↓,left,←,1.7633019001223147,False,32,-1,1,11
Y2-S2-073K20,3,296,AS,exp,35,→,right,→,0.46776849986054003,True,33,-1,0,11
Y2-S2-073K20,3,297,AS,exp,29,↓,down,↓,1.1087944000028074,True,33,-1,0,11
Y2-S2-073K20,3,298,AS,exp,32,←,up,↑,0.6507107999641448,False,33,-1,0,11
Y2-S2-073K20,3,299,AS,exp,40,↓,down,↓,0.8075297998730093,True,34,-1,0,11
Y2-S2-073K20,3,300,AS,exp,25,↑,right,→,1.734336599940434,False,34,-1,0,11
Y2-S2-073K20,3,301,AS,exp,44,↓,down,↓,0.8784914000425488,True,35,-1,0,11
Y2-S2-073K20,3,302,AS,exp,29,→,right,→,0.846465100068599,True,35,-1,0,11
Y2-S2-073K20,3,303,AS,exp,44,↑,up,↑,0.846210699994117,True,35,1,1,12
Y2-S2-073K20,3,304,AS,exp,30,↓,down,↓,0.8648003998678178,True,34,1,0,12
Y2-S2-073K20,3,305,AS,exp,31,→,right,→,0.7614690000191331,True,34,1,0,12
Y2-S2-073K20,3,306,AS,exp,46,↑,up,↑,1.693179199937731,True,34,1,0,12
Y2-S2-073K20,3,307,AS,exp,41,↓,down,↓,0.4842963998671621,True,33,1,0,12
Y2-S2-073K20,3,308,AS,exp,38,→,right,→,0.7448309001047164,True,33,1,0,12
Y2-S2-073K20,3,309,AS,exp,29,↑,up,↑,0.6171518000774086,True,33,1,0,12
Y2-S2-073K20,3,310,AS,exp,45,←,left,←,0.4512042999267578,True,32,1,0,12
Y2-S2-073K20,3,311,AS,exp,41,↑,left,←,0.2676941999234259,False,32,-1,1,13
Y2-S2-073K20,3,312,AS,exp,46,→,left,←,1.2503994998987764,False,33,-1,0,13
Y2-S2-073K20,3,313,AS,exp,47,←,right,→,2.011325400089845,False,34,-1,0,13
Y2-S2-073K20,3,314,AS,exp,50,→,down,↓,1.3759200000204146,False,35,-1,0,13
Y2-S2-073K20,3,315,AS,exp,36,↓,down,↓,0.2677333001047373,True,36,-1,0,13
Y2-S2-073K20,3,316,AS,exp,43,↑,up,↑,0.2845505999866873,True,36,-1,0,13
Y2-S2-073K20,3,317,AS,exp,27,↓,right,→,0.28448179992847145,False,36,-1,0,13
Y2-S2-073K20,3,318,AS,exp,43,→,up,↑,0.21773250005207956,False,37,-1,0,13
Y2-S2-073K20,3,319,AS,exp,47,↑,down,↓,0.05080620013177395,False,38,-1,0,13
Y2-S2-073K20,3,320,AS,exp,48,→,left,←,0.33444919995963573,False,39,-1,0,13
Y2-S2-073K20,3,321,AS,exp,32,↑,right,→,0.98772899992764,False,40,-1,0,13
Y2-S2-073K20,3,322,AS,exp,44,↓,up,↑,0.333369700005278,False,41,-1,0,13
Y2-S2-073K20,3,323,AS,exp,45,↑,down,↓,0.0010850999969989061,False,42,-1,0,13
Y2-S2-073K20,3,324,AS,exp,33,→,left,←,0.43452539993450046,False,43,-1,0,13
Y2-S2-073K20,3,325,AS,exp,25,↓,left,←,0.4504668000154197,False,44,-1,0,13
Y2-S2-073K20,3,326,AS,exp,49,→,right,→,0.4842713999096304,True,45,-1,0,13
Y2-S2-073K20,3,327,AS,exp,40,↓,left,←,0.1843457999639213,False,45,-1,0,13
Y2-S2-073K20,3,328,AS,exp,50,←,down,↓,0.3009370998479426,False,46,-1,0,13
Y2-S2-073K20,3,329,AS,exp,31,↑,right,→,0.2510208999738097,False,47,-1,0,13
Y2-S2-073K20,3,330,AS,exp,50,←,down,↓,0.01746500004082918,False,48,-1,0,13
Y2-S2-073K20,3,331,AS,exp,37,↓,left,←,0.3344105000142008,False,49,-1,0,13
Y2-S2-073K20,3,332,AS,exp,41,←,down,↓,0.5347569000441581,False,50,-1,0,13
Y2-S2-073K20,3,333,AS,exp,37,↑,right,→,0.051005100132897496,False,51,-1,0,13
Y2-S2-073K20,3,334,AS,exp,31,→,left,←,0.6676524998620152,False,52,-1,0,13
Y2-S2-073K20,3,335,AS,exp,46,↑,down,↓,0.400932100135833,False,53,-1,0,13
Y2-S2-073K20,3,336,AS,exp,48,↓,left,←,0.40099909994751215,False,54,-1,0,13
Y2-S2-073K20,3,337,AS,exp,50,←,down,↓,0.6677953000180423,False,55,-1,0,13
Y2-S2-073K20,3,338,AS,exp,33,↑,right,→,0.08431640011258423,False,56,-1,0,13
Y2-S2-073K20,3,339,AS,exp,25,↓,left,←,0.4176096001174301,False,57,-1,0,13
Y2-S2-073K20,3,340,AS,exp,32,→,right,→,0.30087769986130297,True,58,-1,0,13
Y2-S2-073K20,3,341,AS,exp,30,↓,down,↓,1.278619799995795,True,58,-1,0,13
Y2-S2-073K20,3,342,AS,exp,27,↑,left,←,0.30095720011740923,False,58,-1,0,13
Y2-S2-073K20,3,343,AS,exp,49,→,down,↓,0.28436100017279387,False,59,-1,0,13
Y2-S2-073K20,3,344,AS,exp,28,←,right,→,0.15193729987367988,False,60,-1,0,13
Y2-S2-073K20,3,345,AS,exp,48,↓,up,↑,0.2675666001159698,False,61,-1,0,13
Y2-S2-073K20,3,346,AS,exp,34,↑,up,↑,0.1345255000051111,True,62,-1,0,13
Y2-S2-073K20,3,347,AS,exp,36,→,up,↑,0.3178654999937862,False,62,-1,0,13
Y2-S2-073K20,3,348,AS,exp,43,↑,right,→,0.4344983999617398,False,63,-1,0,13
Y2-S2-073K20,3,349,AS,exp,34,←,left,←,0.40093640005216,True,64,-1,0,13
Y2-S2-073K20,3,350,AS,exp,27,↑,up,↑,0.701159399934113,True,64,-1,0,13
Y2-S2-073K20,3,351,AS,exp,36,↓,down,↓,0.6177317998372018,True,64,1,1,14
Y2-S2-073K20,3,352,AS,exp,29,→,right,→,1.1163616999983788,True,63,1,0,14
Y2-S2-073K20,3,353,AS,exp,43,←,right,→,0.7010619000066072,False,63,-1,1,15
Y2-S2-073K20,3,354,AS,exp,39,→,left,←,0.38443229999393225,False,64,-1,0,15
Y2-S2-073K20,3,355,AS,exp,48,↓,down,↓,0.8679383001290262,True,65,-1,0,15
Y2-S2-073K20,3,356,AS,exp,48,↑,right,→,0.5842767998110503,False,65,-1,0,15
Y2-S2-073K20,3,357,AS,exp,33,↓,down,↓,0.5010270001366735,True,66,-1,0,15
Y2-S2-073K20,3,358,AS,exp,37,→,right,→,1.000971400178969,True,66,-1,0,15
Y2-S2-073K20,3,359,AS,exp,48,↓,right,→,1.034506200114265,False,66,-1,0,15
Y2-S2-073K20,3,360,AS,exp,44,→,right,→,0.45112039986997843,True,67,-1,0,15
Y2-S2-073K20,3,361,AS,exp,28,↑,up,↑,0.7175831999629736,True,67,-1,0,15
Y2-S2-073K20,3,362,AS,exp,30,→,up,↑,2.6557456001173705,False,67,-1,0,15
Y2-S2-073K20,3,363,AS,exp,39,←,up,↑,0.5843869999516755,False,68,-1,0,15
Y2-S2-073K20,3,364,AS,exp,38,↑,right,→,0.45102749997749925,False,69,-1,0,15
Y2-S2-073K20,3,365,AS,exp,35,↓,up,↑,0.517989199841395,False,70,-1,0,15
Y2-S2-073K20,3,366,AS,exp,50,↑,down,↓,0.31777169997803867,False,71,-1,0,15
Y2-S2-073K20,3,367,AS,exp,39,→,right,→,0.4840322001837194,True,72,-1,0,15
Y2-S2-073K20,3,368,AS,exp,28,←,left,←,0.5846047999802977,True,72,-1,0,15
Y2-S2-073K20,3,369,AS,exp,29,→,right,→,0.5343888001516461,True,72,1,1,16
Y2-S2-073K20,4,370,PS,intra_train,35,←,left,←,0.7399200000800192,True,15,-,-,-
Y2-S2-073K20,4,371,PS,intra_train,42,→,right,→,0.7635407000780106,True,15,-,-,-
Y2-S2-073K20,4,372,PS,intra_train,35,←,left,←,0.5003384000156075,True,15,-,-,-
Y2-S2-073K20,4,373,PS,intra_train,36,↓,down,↓,0.4860487000551075,True,15,-,-,-
Y2-S2-073K20,4,374,PS,intra_train,43,→,right,→,0.3673050000797957,True,15,-,-,-
Y2-S2-073K20,4,375,PS,exp,25,←,right,→,0.3831404000520706,False,10,-1,0,0
Y2-S2-073K20,4,376,PS,exp,28,→,right,→,0.3620070000179112,True,11,-1,0,0
Y2-S2-073K20,4,377,PS,exp,37,↑,right,→,0.633555700071156,False,11,-1,0,0
Y2-S2-073K20,4,378,PS,exp,33,→,left,←,0.6171695999801159,False,12,-1,0,0
Y2-S2-073K20,4,379,PS,exp,49,↑,up,↑,0.9767173998989165,True,13,-1,0,0
Y2-S2-073K20,4,380,PS,exp,43,→,left,←,0.825239900033921,False,13,-1,0,0
Y2-S2-073K20,4,381,PS,exp,27,↑,left,←,0.36763010011054575,False,14,-1,0,0
Y2-S2-073K20,4,382,PS,exp,42,→,up,↑,0.3171232999302447,False,15,-1,0,0
Y2-S2-073K20,4,383,PS,exp,47,↓,right,→,0.16697459993883967,False,16,-1,0,0
Y2-S2-073K20,4,384,PS,exp,35,↑,left,←,0.4006266000214964,False,17,-1,0,0
Y2-S2-073K20,4,385,PS,exp,30,↓,right,→,1.3826325999107212,False,18,-1,0,0
Y2-S2-073K20,4,386,PS,exp,43,↑,no_key,no_letter,-1.0,False,19,-1,0,0
Y2-S2-073K20,4,387,PS,exp,45,→,left,←,1.2606033000629395,False,20,-1,0,0
Y2-S2-073K20,4,388,PS,exp,49,←,right,→,0.16780300019308925,False,21,-1,0,0
Y2-S2-073K20,4,389,PS,exp,49,→,right,→,0.8704895998816937,True,22,-1,0,0
Y2-S2-073K20,4,390,PS,exp,50,↑,down,↓,0.13431559992022812,False,22,-1,0,0
Y2-S2-073K20,4,391,PS,exp,46,←,up,↑,0.40068279998376966,False,23,-1,0,0
Y2-S2-073K20,4,392,PS,exp,48,↓,down,↓,0.4674732000567019,True,24,-1,0,0
Y2-S2-073K20,4,393,PS,exp,46,←,down,↓,0.5935273999348283,False,24,-1,0,0
Y2-S2-073K20,4,394,PS,exp,36,↑,left,←,0.4515569999348372,False,25,-1,0,0
Y2-S2-073K20,4,395,PS,exp,38,→,up,↑,0.11852449993602931,False,26,-1,0,0
Y2-S2-073K20,4,396,PS,exp,31,↓,down,↓,0.3676493000239134,True,27,-1,0,0
Y2-S2-073K20,4,397,PS,exp,29,→,up,↑,1.3108063000254333,False,27,-1,0,0
Y2-S2-073K20,4,398,PS,exp,34,←,right,→,0.5343082000035793,False,28,-1,0,0
Y2-S2-073K20,4,399,PS,exp,39,→,right,→,0.10112109989859164,True,29,-1,0,0
Y2-S2-073K20,4,400,PS,exp,43,←,left,←,0.1511737999971956,True,29,-1,0,0
Y2-S2-073K20,4,401,PS,exp,41,→,right,→,0.08442060020752251,True,29,1,1,1
Y2-S2-073K20,4,402,PS,exp,34,↑,up,↑,0.4009851000737399,True,28,1,0,1
Y2-S2-073K20,4,403,PS,exp,41,→,down,↓,0.6725951998960227,False,28,-1,1,2
Y2-S2-073K20,4,404,PS,exp,29,↓,left,←,0.13392149982973933,False,29,-1,0,2
Y2-S2-073K20,4,405,PS,exp,34,↑,up,↑,0.550705400062725,True,30,-1,0,2
Y2-S2-073K20,4,406,PS,exp,44,→,up,↑,0.3678373000584543,False,30,-1,0,2
Y2-S2-073K20,4,407,PS,exp,43,↓,no_key,no_letter,-1.0,False,31,-1,0,2
Y2-S2-073K20,4,408,PS,exp,34,→,down,↓,0.4179064000491053,False,32,-1,0,2
Y2-S2-073K20,4,409,PS,exp,28,↑,right,→,0.5673055001534522,False,33,-1,0,2
Y2-S2-073K20,4,410,PS,exp,46,↓,no_key,no_letter,-1.0,False,34,-1,0,2
Y2-S2-073K20,4,411,PS,exp,42,←,right,→,0.9866354998666793,False,35,-1,0,2
Y2-S2-073K20,4,412,PS,exp,26,↑,right,→,0.3509621999692172,False,36,-1,0,2
Y2-S2-073K20,4,413,PS,exp,49,←,down,↓,0.6172924998681992,False,37,-1,0,2
Y2-S2-073K20,4,414,PS,exp,39,↓,down,↓,0.45096320006996393,True,38,-1,0,2
Y2-S2-073K20,4,415,PS,exp,27,←,left,←,0.6838736000936478,True,38,-1,0,2
Y2-S2-073K20,4,416,PS,exp,37,↑,right,→,0.31812740000896156,False,38,-1,0,2
Y2-S2-073K20,4,417,PS,exp,28,→,up,↑,0.5510166001040488,False,39,-1,0,2
Y2-S2-073K20,4,418,PS,exp,26,←,left,←,0.6016328001860529,True,40,-1,0,2
Y2-S2-073K20,4,419,PS,exp,45,↑,right,→,0.3011043998412788,False,40,-1,0,2
Y2-S2-073K20,4,420,PS,exp,50,→,left,←,0.3843521000817418,False,41,-1,0,2
Y2-S2-073K20,4,421,PS,exp,29,↓,left,←,0.48451630002819,False,42,-1,0,2
Y2-S2-073K20,4,422,PS,exp,36,←,left,←,0.4682114999741316,True,43,-1,0,2
Y2-S2-073K20,4,423,PS,exp,39,↓,left,←,0.634444700088352,False,43,-1,0,2
Y2-S2-073K20,4,424,PS,exp,34,↑,up,↑,0.48455119994468987,True,44,-1,0,2
Y2-S2-073K20,4,425,PS,exp,49,↓,down,↓,0.6010267999954522,True,44,-1,0,2
Y2-S2-073K20,4,426,PS,exp,48,←,left,←,0.8509724999312311,True,44,1,1,3
Y2-S2-073K20,4,427,PS,exp,27,→,right,→,0.46786340000107884,True,43,1,0,3
Y2-S2-073K20,4,428,PS,exp,42,←,left,←,0.6176386000588536,True,43,1,0,3
Y2-S2-073K20,4,429,PS,exp,30,↑,up,↑,0.5843438000883907,True,43,1,0,3
Y2-S2-073K20,4,430,PS,exp,50,←,right,→,0.38425720017403364,False,42,-1,1,4
Y2-S2-073K20,4,431,PS,exp,35,↑,up,↑,0.45123280002735555,True,43,-1,0,4
Y2-S2-073K20,4,432,PS,exp,35,↓,down,↓,0.6842400999739766,True,43,-1,0,4
Y2-S2-073K20,4,433,PS,exp,29,→,right,→,0.5676317000761628,True,43,1,1,5
Y2-S2-073K20,4,434,PS,exp,47,↓,left,←,0.7842194999102503,False,42,-1,1,6
Y2-S2-073K20,4,435,PS,exp,28,←,left,←,0.46765200002118945,True,43,-1,0,6
Y2-S2-073K20,4,436,PS,exp,49,↑,up,↑,0.5505208000540733,True,43,-1,0,6
Y2-S2-073K20,4,437,PS,exp,42,↓,down,↓,0.46777809993363917,True,43,1,1,7
Y2-S2-073K20,4,438,PS,exp,25,↑,up,↑,0.6510069998912513,True,42,1,0,7
Y2-S2-073K20,4,439,PS,exp,35,←,up,↑,1.7670404000673443,False,42,-1,1,8
Y2-S2-073K20,4,440,PS,exp,26,→,right,→,0.8506088999565691,True,43,-1,0,8
Y2-S2-073K20,4,441,PS,exp,41,←,left,←,0.8006269000470638,True,43,-1,0,8
Y2-S2-073K20,4,442,PS,exp,36,→,up,↑,1.7806544001214206,False,43,-1,0,8
Y2-S2-073K20,4,443,PS,exp,49,←,up,↑,1.557740299962461,False,44,-1,0,8
Y2-S2-073K20,4,444,PS,exp,41,→,down,↓,0.0844893001485616,False,45,-1,0,8
Y2-S2-073K20,4,445,PS,exp,25,←,right,→,0.5842686998657882,False,46,-1,0,8
Y2-S2-073K20,4,446,PS,exp,49,↑,right,→,0.4008855998981744,False,47,-1,0,8
Y2-S2-073K20,4,447,PS,exp,28,←,right,→,0.28455490013584495,False,48,-1,0,8
Y2-S2-073K20,4,448,PS,exp,30,↑,right,→,0.16799740004353225,False,49,-1,0,8
Y2-S2-073K20,4,449,PS,exp,35,↓,left,←,0.18416479998268187,False,50,-1,0,8
Y2-S2-073K20,4,450,PS,exp,27,↑,left,←,0.23426519986242056,False,51,-1,0,8
Y2-S2-073K20,4,451,PS,exp,30,→,left,←,0.7010798999108374,False,52,-1,0,8
Y2-S2-073K20,4,452,PS,exp,33,↑,left,←,0.01755700004287064,False,53,-1,0,8
Y2-S2-073K20,4,453,PS,exp,26,↓,right,→,0.06763219996355474,False,54,-1,0,8
Y2-S2-073K20,4,454,PS,exp,41,→,right,→,0.21771200001239777,True,55,-1,0,8
Y2-S2-073K20,4,455,PS,exp,34,←,left,←,0.31790740019641817,True,55,-1,0,8
Y2-S2-073K20,4,456,PS,exp,27,↓,left,←,0.11769250012002885,False,55,-1,0,8
Y2-S2-073K20,4,457,PS,exp,44,←,left,←,0.6679134999867529,True,56,-1,0,8
Y2-S2-073K20,4,458,PS,exp,48,↑,right,→,0.151799299987033,False,56,-1,0,8
Y2-S2-073K20,4,459,PS,exp,37,→,up,↑,0.2511917999945581,False,57,-1,0,8
Y2-S2-073K20,4,460,PS,exp,41,←,down,↓,0.13378420006483793,False,58,-1,0,8
Y2-S2-073K20,4,461,PS,exp,41,↓,right,→,0.2847623999696225,False,59,-1,0,8
Y2-S2-073K20,4,462,PS,exp,41,→,up,↑,0.001379899913445115,False,60,-1,0,8
Y2-S2-073K20,4,463,PS,exp,31,↓,left,←,0.4677709999959916,False,61,-1,0,8
Y2-S2-073K20,4,464,PS,exp,43,→,down,↓,0.46786460001021624,False,62,-1,0,8
Y2-S2-073K20,4,465,PS,exp,42,←,down,↓,0.4015478000510484,False,63,-1,0,8
Y2-S2-073K20,4,466,PS,exp,36,↑,down,↓,0.45120490016415715,False,64,-1,0,8
Y2-S2-073K20,4,467,PS,exp,36,←,down,↓,0.4345010998658836,False,65,-1,0,8
Y2-S2-073K20,4,468,PS,exp,35,↑,down,↓,0.8179252000991255,False,66,-1,0,8
Y2-S2-073K20,4,469,PS,exp,28,←,left,←,0.7844231000635773,True,67,-1,0,8
Y2-S2-073K20,4,470,PS,exp,34,→,right,→,0.33446769998408854,True,67,-1,0,8
Y2-S2-073K20,4,471,PS,exp,32,←,up,↑,2.0018678000196815,False,67,-1,0,8
Y2-S2-073K20,4,472,PS,exp,41,↓,down,↓,0.23430739995092154,True,68,-1,0,8
Y2-S2-073K20,4,473,PS,exp,48,↑,right,→,0.6174755000974983,False,68,-1,0,8
Y2-S2-073K20,4,474,PS,exp,27,←,up,↑,1.6567291000392288,False,69,-1,0,8
Y2-S2-073K20,4,475,PS,exp,27,↑,right,→,1.6163070001639426,False,70,-1,0,8
Y2-S2-073K20,4,476,PS,exp,34,←,up,↑,1.647847400046885,False,71,-1,0,8
Y2-S2-073K20,4,477,PS,exp,41,↑,right,→,0.21758190006949008,False,72,-1,0,8
Y2-S2-073K20,4,478,PS,exp,33,↓,up,↑,0.48444600007496774,False,73,-1,0,8
Y2-S2-073K20,4,479,PS,exp,48,→,down,↓,0.7346024999860674,False,74,-1,0,8
Y2-S2-073K20,4,480,PS,exp,28,↑,right,→,0.8014813999179751,False,75,-1,0,8
Y2-S2-073K20,4,481,PS,exp,49,→,left,←,0.6848323999438435,False,76,-1,0,8
Y2-S2-073K20,4,482,PS,exp,40,↓,right,→,0.767784200143069,False,77,-1,0,8
Y2-S2-073K20,4,483,PS,exp,44,→,left,←,0.6843846999108791,False,78,-1,0,8
Y2-S2-073K20,4,484,PS,exp,28,↓,up,↑,0.2510935999453068,False,79,-1,0,8
Y2-S2-073K20,4,485,PS,exp,47,→,down,↓,0.1842784001491964,False,80,-1,0,8
Y2-S2-073K20,4,486,PS,exp,45,↑,down,↓,0.1175659999717027,False,81,-1,0,8
Y2-S2-073K20,4,487,PS,exp,42,←,right,→,0.2176968001294881,False,82,-1,0,8
Y2-S2-073K20,4,488,PS,exp,45,→,left,←,0.3843803000636399,False,83,-1,0,8
Y2-S2-073K20,4,489,PS,exp,39,←,left,←,0.3509673001244664,True,84,-1,0,8
Y2-S2-073K20,4,490,PS,exp,34,→,right,→,0.2180015998892486,True,84,-1,0,8
Y2-S2-073K20,4,491,PS,exp,29,←,left,←,0.5010704998858273,True,84,1,1,9
Y2-S2-073K20,4,492,PS,exp,30,↑,up,↑,0.2025790000334382,True,83,1,0,9
Y2-S2-073K20,4,493,PS,exp,28,↓,up,↑,0.38451600004918873,False,83,-1,1,10
Y2-S2-073K20,4,494,PS,exp,47,→,right,→,0.35153470002114773,True,84,-1,0,10
Y2-S2-073K20,4,495,PS,exp,41,←,left,←,0.6009448000695556,True,84,-1,0,10
Y2-S2-073K20,4,496,PS,exp,32,↓,right,→,0.7505396001506597,False,84,-1,0,10
Y2-S2-073K20,4,497,PS,exp,28,→,right,→,0.5175773999653757,True,85,-1,0,10
Y2-S2-073K20,4,498,PS,exp,33,↓,down,↓,0.8177074000705034,True,85,-1,0,10
Y2-S2-073K20,4,499,PS,exp,48,→,right,→,0.7175940999295563,True,85,1,1,11
Y2-S2-073K20,4,500,PS,exp,27,↓,down,↓,0.734354600077495,True,84,1,0,11
Y2-S2-073K20,4,501,PS,exp,34,→,down,↓,0.7172868000343442,False,84,-1,1,12
Y2-S2-073K20,4,502,PS,exp,50,↓,down,↓,0.6181077999062836,True,85,-1,0,12
Y2-S2-073K20,4,503,PS,exp,31,←,down,↓,0.8845025999471545,False,85,-1,0,12
Y2-S2-073K20,4,504,PS,exp,26,→,left,←,1.067695900099352,False,86,-1,0,12
Y2-S2-073K20,4,505,PS,exp,40,←,left,←,0.684427399886772,True,87,-1,0,12
Y2-S2-073K20,4,506,PS,exp,48,↓,down,↓,1.4010071998927742,True,87,-1,0,12
Y2-S2-073K20,4,507,PS,exp,33,→,right,→,0.5679187001660466,True,87,1,1,13
Y2-S2-073K20,4,508,PS,exp,45,↓,down,↓,0.4344725999981165,True,86,1,0,13
Y2-S2-073K20,4,509,PS,exp,25,←,right,→,0.4512469000183046,False,86,-1,1,14
Y2-S2-073K20,4,510,PS,exp,49,↑,left,←,0.4014384998008609,False,87,-1,0,14
Y2-S2-073K20,4,511,PS,exp,31,→,right,→,0.48437449987977743,True,88,-1,0,14
Y2-S2-073K20,4,512,PS,exp,28,←,left,←,0.5506829000078142,True,88,-1,0,14
Y2-S2-073K20,4,513,PS,exp,28,↑,up,↑,1.3514284000266343,True,88,1,1,15
Y2-S2-073K20,4,514,PS,exp,40,←,right,→,0.3510022000409663,False,87,-1,1,16
Y2-S2-073K20,5,515,PS,intra_train,48,↑,up,↑,1.512792400084436,True,15,-,-,-
Y2-S2-073K20,5,516,PS,intra_train,48,→,down,↓,0.860902100102976,False,15,-,-,-
Y2-S2-073K20,5,517,PS,intra_train,31,↑,up,↑,0.647726200055331,True,15,-,-,-
Y2-S2-073K20,5,518,PS,intra_train,42,→,no_key,no_letter,-1.0,False,15,-,-,-
Y2-S2-073K20,5,519,PS,intra_train,50,↑,up,↑,0.6378516999538988,True,15,-,-,-
Y2-S2-073K20,5,520,PS,exp,32,←,right,→,0.9136429999489337,False,10,-1,0,0
Y2-S2-073K20,5,521,PS,exp,37,→,up,↑,0.9019378998782486,False,11,-1,0,0
Y2-S2-073K20,5,522,PS,exp,48,↓,left,←,0.18418820016086102,False,12,-1,0,0
Y2-S2-073K20,5,523,PS,exp,41,↑,right,→,0.11784940003417432,False,13,-1,0,0
Y2-S2-073K20,5,524,PS,exp,31,↓,up,↑,0.11778720002621412,False,14,-1,0,0
Y2-S2-073K20,5,525,PS,exp,35,→,down,↓,0.20121610001660883,False,15,-1,0,0
Y2-S2-073K20,5,526,PS,exp,32,←,up,↑,0.9019601999316365,False,16,-1,0,0
Y2-S2-073K20,5,527,PS,exp,27,↓,left,←,0.200997699983418,False,17,-1,0,0
Y2-S2-073K20,5,528,PS,exp,25,↑,right,→,0.21762050013057888,False,18,-1,0,0
Y2-S2-073K20,5,529,PS,exp,38,←,down,↓,0.10080910008400679,False,19,-1,0,0
Y2-S2-073K20,5,530,PS,exp,41,↓,up,↑,0.25103709986433387,False,20,-1,0,0
Y2-S2-073K20,5,531,PS,exp,25,→,right,→,0.2846496000420302,True,21,-1,0,0
Y2-S2-073K20,5,532,PS,exp,30,←,left,←,0.23446680000051856,True,21,-1,0,0
Y2-S2-073K20,5,533,PS,exp,41,↓,down,↓,0.8916015999857336,True,21,1,1,1
Y2-S2-073K20,5,534,PS,exp,47,→,up,↑,0.20102100004442036,False,20,-1,1,2
Y2-S2-073K20,5,535,PS,exp,47,←,right,→,0.543359899893403,False,21,-1,0,2
Y2-S2-073K20,5,536,PS,exp,35,↑,left,←,0.33422239986248314,False,22,-1,0,2
Y2-S2-073K20,5,537,PS,exp,41,→,down,↓,0.28434980008751154,False,23,-1,0,2
Y2-S2-073K20,5,538,PS,exp,48,↑,up,↑,0.21759520005434752,True,24,-1,0,2
Y2-S2-073K20,5,539,PS,exp,43,←,right,→,0.4507645000703633,False,24,-1,0,2
Y2-S2-073K20,5,540,PS,exp,35,↑,right,→,0.23433369980193675,False,25,-1,0,2
Y2-S2-073K20,5,541,PS,exp,50,←,up,↑,0.2012408000882715,False,26,-1,0,2
Y2-S2-073K20,5,542,PS,exp,26,↑,left,←,0.21760600013658404,False,27,-1,0,2
Y2-S2-073K20,5,543,PS,exp,32,→,right,→,1.1245743001345545,True,28,-1,0,2
Y2-S2-073K20,5,544,PS,exp,41,↓,down,↓,0.4674422999378294,True,28,-1,0,2
Y2-S2-073K20,5,545,PS,exp,30,←,left,←,0.5006666001863778,True,28,1,1,3
Y2-S2-073K20,5,546,PS,exp,41,→,right,→,0.43408849998377264,True,27,1,0,3
Y2-S2-073K20,5,547,PS,exp,40,←,left,←,0.28433090006001294,True,27,1,0,3
Y2-S2-073K20,5,548,PS,exp,45,↑,right,→,0.4338287999853492,False,27,-1,1,4
Y2-S2-073K20,5,549,PS,exp,50,↓,up,↑,0.3676426999736577,False,28,-1,0,4
Y2-S2-073K20,5,550,PS,exp,40,→,right,→,0.4840247000101954,True,29,-1,0,4
Y2-S2-073K20,5,551,PS,exp,37,↑,up,↑,0.15102729992941022,True,29,-1,0,4
Y2-S2-073K20,5,552,PS,exp,49,←,down,↓,0.484094699844718,False,29,-1,0,4
Y2-S2-073K20,5,553,PS,exp,32,↑,left,←,0.3511057000141591,False,30,-1,0,4
Y2-S2-073K20,5,554,PS,exp,28,→,up,↑,0.18464250001125038,False,31,-1,0,4
Y2-S2-073K20,5,555,PS,exp,26,↑,up,↑,0.5012246000114828,True,32,-1,0,4
Y2-S2-073K20,5,556,PS,exp,49,→,right,→,0.484898499911651,True,32,-1,0,4
Y2-S2-073K20,5,557,PS,exp,46,←,left,←,0.3844457999803126,True,32,1,1,5
Y2-S2-073K20,5,558,PS,exp,36,↓,down,↓,0.6901360999327153,True,31,1,0,5
Y2-S2-073K20,5,559,PS,exp,37,→,right,→,0.40101579995825887,True,31,1,0,5
Y2-S2-073K20,5,560,PS,exp,30,↓,down,↓,0.7025021000299603,True,31,1,0,5
Y2-S2-073K20,5,561,PS,exp,35,←,left,←,1.4333538000937551,True,30,1,0,5
Y2-S2-073K20,5,562,PS,exp,31,↓,down,↓,1.7124421000480652,True,30,1,0,5
Y2-S2-073K20,5,563,PS,exp,35,↑,up,↑,0.5341439999174327,True,30,1,0,5
Y2-S2-073K20,5,564,PS,exp,43,→,right,→,0.4672053998801857,True,29,1,0,5
Y2-S2-073K20,5,565,PS,exp,35,←,left,←,0.4177299998700619,True,29,1,0,5
Y2-S2-073K20,5,566,PS,exp,43,↑,up,↑,0.5179451000876725,True,29,1,0,5
Y2-S2-073K20,5,567,PS,exp,45,←,right,→,0.351314099971205,False,28,-1,1,6
Y2-S2-073K20,5,568,PS,exp,25,↑,up,↑,0.4344419001135975,True,29,-1,0,6
Y2-S2-073K20,5,569,PS,exp,45,→,right,→,0.6768523000646383,True,29,-1,0,6
Y2-S2-073K20,5,570,PS,exp,42,←,left,←,0.5673406000714749,True,29,1,1,7
Y2-S2-073K20,5,571,PS,exp,50,↑,up,↑,0.5671894999686629,True,28,1,0,7
Y2-S2-073K20,5,572,PS,exp,48,↓,down,↓,1.3899916999507695,True,28,1,0,7
Y2-S2-073K20,5,573,PS,exp,46,→,right,→,0.5509122000075877,True,28,1,0,7
Y2-S2-073K20,5,574,PS,exp,44,←,left,←,0.48389920010231435,True,27,1,0,7
Y2-S2-073K20,5,575,PS,exp,25,↓,down,↓,0.5673348000273108,True,27,1,0,7
Y2-S2-073K20,5,576,PS,exp,48,←,left,←,0.6800868001300842,True,27,1,0,7
Y2-S2-073K20,5,577,PS,exp,34,↓,down,↓,0.798782299971208,True,26,1,0,7
Y2-S2-073K20,5,578,PS,exp,35,→,right,→,0.5174300000071526,True,26,1,0,7
Y2-S2-073K20,5,579,PS,exp,36,↓,right,→,1.3254788001067936,False,26,-1,1,8
Y2-S2-073K20,5,580,PS,exp,44,↑,up,↑,1.7135474998503923,True,27,-1,0,8
Y2-S2-073K20,5,581,PS,exp,29,→,no_key,no_letter,-1.0,False,27,-1,0,8
Y2-S2-073K20,5,582,PS,exp,30,←,left,←,0.9130076000001281,True,28,-1,0,8
Y2-S2-073K20,5,583,PS,exp,30,→,right,→,0.9730587000958622,True,28,-1,0,8
Y2-S2-073K20,5,584,PS,exp,26,↑,up,↑,0.8577475999481976,True,28,1,1,9
Y2-S2-073K20,5,585,PS,exp,25,↓,down,↓,0.5172471001278609,True,27,1,0,9
Y2-S2-073K20,5,586,PS,exp,29,←,left,←,1.904437799938023,True,27,1,0,9
Y2-S2-073K20,5,587,PS,exp,30,↑,up,↑,0.5507652000524104,True,27,1,0,9
Y2-S2-073K20,5,588,PS,exp,46,→,right,→,0.3844325998798013,True,26,1,0,9
Y2-S2-073K20,5,589,PS,exp,35,←,up,↑,1.1088320000562817,False,26,-1,1,10
Y2-S2-073K20,5,590,PS,exp,46,→,right,→,0.36760289990343153,True,27,-1,0,10
Y2-S2-073K20,5,591,PS,exp,37,↑,down,↓,0.5678284999448806,False,27,-1,0,10
Y2-S2-073K20,5,592,PS,exp,38,↓,up,↑,0.3175919000059366,False,28,-1,0,10
Y2-S2-073K20,5,593,PS,exp,41,↑,down,↓,0.11688909982331097,False,29,-1,0,10
Y2-S2-073K20,5,594,PS,exp,46,↓,right,→,0.18436479987576604,False,30,-1,0,10
Y2-S2-073K20,5,595,PS,exp,32,→,left,←,0.16852549999020994,False,31,-1,0,10
Y2-S2-073K20,5,596,PS,exp,34,←,up,↑,0.18458500015549362,False,32,-1,0,10
Y2-S2-073K20,5,597,PS,exp,38,→,right,→,0.13417600002139807,True,33,-1,0,10
Y2-S2-073K20,5,598,PS,exp,29,↑,down,↓,0.33415919984690845,False,33,-1,0,10
Y2-S2-073K20,5,599,PS,exp,33,←,up,↑,0.21757159987464547,False,34,-1,0,10
Y2-S2-073K20,5,600,PS,exp,50,→,left,←,0.4510835998225957,False,35,-1,0,10
Y2-S2-073K20,5,601,PS,exp,33,↑,right,→,0.4177802000194788,False,36,-1,0,10
Y2-S2-073K20,5,602,PS,exp,43,←,up,↑,0.23438149993307889,False,37,-1,0,10
Y2-S2-073K20,5,603,PS,exp,39,→,down,↓,0.21757979993708432,False,38,-1,0,10
Y2-S2-073K20,5,604,PS,exp,28,←,left,←,0.017675300128757954,True,39,-1,0,10
Y2-S2-073K20,5,605,PS,exp,32,↑,right,→,0.1009776999708265,False,39,-1,0,10
Y2-S2-073K20,5,606,PS,exp,37,←,up,↑,0.1177406997885555,False,40,-1,0,10
Y2-S2-073K20,5,607,PS,exp,32,↑,down,↓,0.21794759994372725,False,41,-1,0,10
Y2-S2-073K20,5,608,PS,exp,39,→,right,→,0.20132900006137788,True,42,-1,0,10
Y2-S2-073K20,5,609,PS,exp,36,←,left,←,0.2508771999273449,True,42,-1,0,10
Y2-S2-073K20,5,610,PS,exp,38,↓,up,↑,0.18430720013566315,False,42,-1,0,10
Y2-S2-073K20,5,611,PS,exp,50,→,down,↓,1.6757507999427617,False,43,-1,0,10
Y2-S2-073K20,5,612,PS,exp,28,←,down,↓,0.33550909999758005,False,44,-1,0,10
Y2-S2-073K20,5,613,PS,exp,25,↑,down,↓,0.8175656001549214,False,45,-1,0,10
Y2-S2-073K20,5,614,PS,exp,50,→,right,→,0.3512321999296546,True,46,-1,0,10
Y2-S2-073K20,5,615,PS,exp,33,↑,up,↑,0.8340206001885235,True,46,-1,0,10
Y2-S2-073K20,5,616,PS,exp,48,→,down,↓,0.9373699999414384,False,46,-1,0,10
Y2-S2-073K20,5,617,PS,exp,25,←,down,↓,0.3343142999801785,False,47,-1,0,10
Y2-S2-073K20,5,618,PS,exp,37,↑,right,→,1.3636812001932412,False,48,-1,0,10
Y2-S2-073K20,5,619,PS,exp,47,↓,right,→,0.16773319989442825,False,49,-1,0,10
Y2-S2-073K20,5,620,PS,exp,25,↑,right,→,0.2842532000504434,False,50,-1,0,10
Y2-S2-073K20,5,621,PS,exp,35,↓,left,←,0.33419020008295774,False,51,-1,0,10
Y2-S2-073K20,5,622,PS,exp,42,↑,right,→,0.3179087999742478,False,52,-1,0,10
Y2-S2-073K20,5,623,PS,exp,34,→,left,←,0.3343567999545485,False,53,-1,0,10
Y2-S2-073K20,5,624,PS,exp,35,←,left,←,0.4179180997889489,True,54,-1,0,10
Y2-S2-073K20,5,625,PS,exp,33,→,right,→,0.6346042000222951,True,54,-1,0,10
Y2-S2-073K20,5,626,PS,exp,49,←,right,→,0.23448839993216097,False,54,-1,0,10
Y2-S2-073K20,5,627,PS,exp,29,→,right,→,0.4843016997911036,True,55,-1,0,10
Y2-S2-073K20,5,628,PS,exp,26,←,left,←,0.734574900008738,True,55,-1,0,10
Y2-S2-073K20,5,629,PS,exp,35,↓,right,→,0.3677095000166446,False,55,-1,0,10
Y2-S2-073K20,5,630,PS,exp,44,→,right,→,0.334682899992913,True,56,-1,0,10
Y2-S2-073K20,5,631,PS,exp,48,↑,left,←,0.2843887999188155,False,56,-1,0,10
Y2-S2-073K20,5,632,PS,exp,27,↓,right,→,0.43454340007156134,False,57,-1,0,10
Y2-S2-073K20,5,633,PS,exp,28,↑,down,↓,1.016821000026539,False,58,-1,0,10
Y2-S2-073K20,5,634,PS,exp,38,↓,left,←,0.434370500035584,False,59,-1,0,10
Y2-S2-073K20,5,635,PS,exp,38,←,down,↓,0.6510087999049574,False,60,-1,0,10
Y2-S2-073K20,5,636,PS,exp,43,→,left,←,0.4678249000571668,False,61,-1,0,10
Y2-S2-073K20,5,637,PS,exp,32,↓,left,←,0.5343384000007063,False,62,-1,0,10
Y2-S2-073K20,5,638,PS,exp,44,↑,left,←,0.36780639993958175,False,63,-1,0,10
Y2-S2-073K20,5,639,PS,exp,37,→,right,→,0.367706699995324,True,64,-1,0,10
Y2-S2-073K20,5,640,PS,exp,34,←,up,↑,0.36765719996765256,False,64,-1,0,10
Y2-S2-073K20,5,641,PS,exp,44,↑,up,↑,0.5012555001303554,True,65,-1,0,10
Y2-S2-073K20,5,642,PS,exp,33,↓,up,↑,0.4343565998133272,False,65,-1,0,10
Y2-S2-073K20,5,643,PS,exp,43,→,left,←,0.4012910998426378,False,66,-1,0,10
Y2-S2-073K20,5,644,PS,exp,46,↑,right,→,0.3511648001149297,False,67,-1,0,10
Y2-S2-073K20,5,645,PS,exp,25,↓,up,↑,0.4346397998742759,False,68,-1,0,10
Y2-S2-073K20,5,646,PS,exp,48,→,right,→,0.6178337000310421,True,69,-1,0,10
Y2-S2-073K20,5,647,PS,exp,31,↓,down,↓,0.5843686000443995,True,69,-1,0,10
Y2-S2-073K20,5,648,PS,exp,44,↑,up,↑,0.5012005001772195,True,69,1,1,11
Y2-S2-073K20,5,649,PS,exp,44,→,right,→,0.4674978000111878,True,68,1,0,11
Y2-S2-073K20,5,650,PS,exp,44,↓,right,→,0.28445949987508357,False,68,-1,1,12
Y2-S2-073K20,5,651,PS,exp,40,↑,left,←,1.6411749999970198,False,69,-1,0,12
Y2-S2-073K20,5,652,PS,exp,41,↓,left,←,0.38457740005105734,False,70,-1,0,12
Y2-S2-073K20,5,653,PS,exp,38,→,right,→,0.48452340019866824,True,71,-1,0,12
Y2-S2-073K20,5,654,PS,exp,38,↑,right,→,0.2508893001358956,False,71,-1,0,12
Y2-S2-073K20,5,655,PS,exp,37,←,up,↑,0.1844963999465108,False,72,-1,0,12
Y2-S2-073K20,5,656,PS,exp,38,→,down,↓,0.5850757998414338,False,73,-1,0,12
Y2-S2-073K20,5,657,PS,exp,49,↑,left,←,0.351162200095132,False,74,-1,0,12
Y2-S2-073K20,5,658,PS,exp,36,→,right,→,2.25833350000903,True,75,-1,0,12
Y2-S2-073K20,5,659,PS,exp,30,←,up,↑,0.4175227000378072,False,75,-1,0,12
Y2-S2-073K20,5,660,PS,exp,32,→,down,↓,0.5015827999450266,False,76,-1,0,12
Y2-S2-073K20,5,661,PS,exp,37,↑,down,↓,0.6680092001333833,False,77,-1,0,12
Y2-S2-073K20,5,662,PS,exp,48,→,up,↑,0.6175581000279635,False,78,-1,0,12
Y2-S2-073K20,5,663,PS,exp,25,↓,right,→,0.3677717000246048,False,79,-1,0,12
Y2-S2-073K20,5,664,PS,exp,27,↑,right,→,0.5207664999179542,False,80,-1,0,12
Y2-S2-073K20,5,665,PS,exp,40,→,up,↑,0.46775999991223216,False,81,-1,0,12
Y2-S2-073K20,5,666,PS,exp,25,←,up,↑,1.986983799841255,False,82,-1,0,12
Y2-S2-073K20,5,667,PS,exp,37,→,right,→,0.9011177998036146,True,83,-1,0,12
Y2-S2-073K20,5,668,PS,exp,32,↓,right,→,0.3513976000249386,False,83,-1,0,12
Y2-S2-073K20,5,669,PS,exp,36,→,down,↓,0.18435160000808537,False,84,-1,0,12
Y2-S2-073K20,5,670,PS,exp,41,↓,right,→,0.46771959983743727,False,85,-1,0,12
Y2-S2-073K20,5,671,PS,exp,31,→,down,↓,0.3508296001236886,False,86,-1,0,12
Y2-S2-073K20,5,672,PS,exp,28,←,left,←,0.8515917998738587,True,87,-1,0,12
Y2-S2-073K20,5,673,PS,exp,42,↓,right,→,0.2510216999799013,False,87,-1,0,12
Y2-S2-073K20,5,674,PS,exp,45,←,right,→,0.08456210000440478,False,88,-1,0,12
Y2-S2-073K20,5,675,PS,exp,28,↓,left,←,0.10087600001133978,False,89,-1,0,12
Y2-S2-073K20,5,676,PS,exp,31,↑,up,↑,2.076329000061378,True,90,-1,0,12
Y2-S2-073K20,5,677,PS,exp,43,←,up,↑,0.6009854001458734,False,90,-1,0,12
Y2-S2-073K20,5,678,PS,exp,25,→,up,↑,0.7175507000647485,False,91,-1,0,12
Y2-S2-073K20,5,679,PS,exp,36,↓,down,↓,2.2937952999491245,True,92,-1,0,12
Y2-S2-073K20,5,680,PS,exp,41,←,down,↓,0.2509248999413103,False,92,-1,0,12
Y2-S2-073K20,5,681,PS,exp,27,↓,right,→,1.18460309994407,False,93,-1,0,12
Y2-S2-073K20,5,682,PS,exp,41,→,right,→,1.0345990001223981,True,94,-1,0,12
Y2-S2-073K20,5,683,PS,exp,28,↓,left,←,0.10105860000476241,False,94,-1,0,12
Y2-S2-073K20,5,684,PS,exp,43,↑,up,↑,0.4678261000663042,True,95,-1,0,12
Y2-S2-073K20,5,685,PS,exp,36,→,right,→,0.7846331000328064,True,95,-1,0,12
Y2-S2-073K20,5,686,PS,exp,38,←,right,→,1.2845271001569927,False,95,-1,0,12
Y2-S2-073K20,5,687,PS,exp,34,↑,right,→,2.425422500120476,False,96,-1,0,12
Y2-S2-073K20,5,688,PS,exp,41,↓,right,→,0.06792430020868778,False,97,-1,0,12
Y2-S2-073K20,5,689,PS,exp,44,→,right,→,0.8679421998094767,True,98,-1,0,12
Y2-S2-073K20,5,690,PS,exp,34,↑,right,→,0.10095370002090931,False,98,-1,0,12
Y2-S2-073K20,5,691,PS,exp,41,↓,down,↓,2.1323712999001145,True,99,-1,0,12
Y2-S2-073K20,5,692,PS,exp,46,↑,down,↓,1.8302474999800324,False,99,-1,0,12
Y2-S2-073K20,5,693,PS,exp,48,↓,down,↓,0.36788769997656345,True,100,-1,0,12
Y2-S2-073K20,5,694,PS,exp,29,→,right,→,0.8679259999189526,True,100,-1,0,12
Y2-S2-073K20,5,695,PS,exp,26,↑,up,↑,0.3505796000827104,True,100,1,1,13
Y2-S2-073K20,5,696,PS,exp,36,→,down,↓,1.7168562000151724,False,99,-1,1,14
Y2-S2-073K20,5,697,PS,exp,35,←,left,←,2.3083315000403672,True,100,-1,0,14
Y2-S2-073K20,5,698,PS,exp,43,→,right,→,1.5677968999370933,True,100,-1,0,14
Y2-S2-073K20,5,699,PS,exp,25,↓,up,↑,0.9012980000115931,False,100,-1,0,14
Y2-S2-073K20,5,700,PS,exp,38,←,down,↓,0.21761619998142123,False,101,-1,0,14
Y2-S2-073K20,5,701,PS,exp,42,↓,right,→,0.20108070014975965,False,102,-1,0,14
Y2-S2-073K20,5,702,PS,exp,37,←,no_key,no_letter,-1.0,False,103,-1,0,14
Y2-S2-073K20,5,703,PS,exp,26,→,down,↓,2.023057400016114,False,104,-1,0,14
Y2-S2-073K20,5,704,PS,exp,27,←,right,→,0.5011610998772085,False,105,-1,0,14
Y2-S2-073K20,5,705,PS,exp,41,→,down,↓,0.21753840008750558,False,106,-1,0,14
Y2-S2-073K20,5,706,PS,exp,46,←,left,←,0.33433500002138317,True,107,-1,0,14
Y2-S2-073K20,5,707,PS,exp,46,→,up,↑,0.6511448998935521,False,107,-1,0,14
Y2-S2-073K20,5,708,PS,exp,34,↑,up,↑,0.13444890012033284,True,108,-1,0,14
Y2-S2-073K20,5,709,PS,exp,25,→,left,←,0.03443329990841448,False,108,-1,0,14
Y2-S2-073K20,5,710,PS,exp,45,←,right,→,0.08442319999448955,False,109,-1,0,14
Y2-S2-073K20,5,711,PS,exp,43,↑,left,←,1.4176235999912024,False,110,-1,0,14
Y2-S2-073K20,5,712,PS,exp,26,←,left,←,1.034575599944219,True,111,-1,0,14
Y2-S2-073K20,5,713,PS,exp,48,↑,up,↑,1.1349082998931408,True,111,-1,0,14
Y2-S2-073K20,5,714,PS,exp,39,→,right,→,0.4010385998990387,True,111,1,1,15
Y2-S2-073K20,5,715,PS,exp,48,←,right,→,0.38449269998818636,False,110,-1,1,16
Y2-S2-073K20,6,716,AS,intra_train,45,↓,up,↑,0.6008856000844389,False,30,-,-,-
Y2-S2-073K20,6,717,AS,intra_train,34,↑,right,→,0.6339400000870228,False,30,-,-,-
Y2-S2-073K20,6,718,AS,intra_train,38,→,right,→,0.6173930999357253,True,30,-,-,-
Y2-S2-073K20,6,719,AS,intra_train,40,←,right,→,0.4510141999926418,False,30,-,-,-
Y2-S2-073K20,6,720,AS,intra_train,41,↓,left,←,0.46762630017474294,False,30,-,-,-
Y2-S2-073K20,6,721,AS,exp,43,←,down,↓,0.4005416000727564,False,20,-1,0,0
Y2-S2-073K20,6,722,AS,exp,39,↓,up,↑,0.0010717001277953386,False,21,-1,0,0
Y2-S2-073K20,6,723,AS,exp,49,→,down,↓,1.1674349000677466,False,22,-1,0,0
Y2-S2-073K20,6,724,AS,exp,42,↓,right,→,1.1642444001045078,False,23,-1,0,0
Y2-S2-073K20,6,725,AS,exp,29,→,right,→,0.5943662000354379,True,24,-1,0,0
Y2-S2-073K20,6,726,AS,exp,35,↓,right,→,1.2202726998366416,False,24,-1,0,0
Y2-S2-073K20,6,727,AS,exp,34,→,right,→,0.9001742999535054,True,25,-1,0,0
Y2-S2-073K20,6,728,AS,exp,44,←,right,→,0.6555649000220001,False,25,-1,0,0
Y2-S2-073K20,6,729,AS,exp,36,↓,up,↑,0.7487283998634666,False,26,-1,0,0
Y2-S2-073K20,6,730,AS,exp,44,↑,down,↓,0.21778349997475743,False,27,-1,0,0
Y2-S2-073K20,6,731,AS,exp,39,↓,up,↑,1.9607596998102963,False,28,-1,0,0
Y2-S2-073K20,6,732,AS,exp,48,→,up,↑,1.2586910999380052,False,29,-1,0,0
Y2-S2-073K20,6,733,AS,exp,35,↓,up,↑,0.6809359998442233,False,30,-1,0,0
Y2-S2-073K20,6,734,AS,exp,48,←,right,→,0.23446350009180605,False,31,-1,0,0
Y2-S2-073K20,6,735,AS,exp,25,↑,left,←,0.5505663000512868,False,32,-1,0,0
Y2-S2-073K20,6,736,AS,exp,36,↓,up,↑,0.3011300000362098,False,33,-1,0,0
Y2-S2-073K20,6,737,AS,exp,46,↑,down,↓,1.517974599963054,False,34,-1,0,0
Y2-S2-073K20,6,738,AS,exp,26,→,left,←,0.40098750009201467,False,35,-1,0,0
Y2-S2-073K20,6,739,AS,exp,36,↓,down,↓,1.1167532000690699,True,36,-1,0,0
Y2-S2-073K20,6,740,AS,exp,43,↑,down,↓,0.7903342000208795,False,36,-1,0,0
Y2-S2-073K20,6,741,AS,exp,49,↓,down,↓,0.46821000007912517,True,37,-1,0,0
Y2-S2-073K20,6,742,AS,exp,44,←,down,↓,0.2342258000280708,False,37,-1,0,0
Y2-S2-073K20,6,743,AS,exp,30,↑,down,↓,0.46753269992768764,False,38,-1,0,0
Y2-S2-073K20,6,744,AS,exp,50,↓,down,↓,0.4344639000482857,True,39,-1,0,0
Y2-S2-073K20,6,745,AS,exp,36,→,down,↓,0.3340035998262465,False,39,-1,0,0
Y2-S2-073K20,6,746,AS,exp,39,↑,right,→,0.26792740006931126,False,40,-1,0,0
Y2-S2-073K20,6,747,AS,exp,32,→,down,↓,0.2342221001163125,False,41,-1,0,0
Y2-S2-073K20,6,748,AS,exp,38,←,down,↓,0.26797030004672706,False,42,-1,0,0
Y2-S2-073K20,6,749,AS,exp,38,↓,down,↓,0.46770259994082153,True,43,-1,0,0
Y2-S2-073K20,6,750,AS,exp,44,→,down,↓,0.4345679997932166,False,43,-1,0,0
Y2-S2-073K20,6,751,AS,exp,44,↑,right,→,1.858677500160411,False,44,-1,0,0
Y2-S2-073K20,6,752,AS,exp,31,←,right,→,0.534696500049904,False,45,-1,0,0
Y2-S2-073K20,6,753,AS,exp,44,↑,right,→,0.1842067998368293,False,46,-1,0,0
Y2-S2-073K20,6,754,AS,exp,33,↓,right,→,0.2176204000134021,False,47,-1,0,0
Y2-S2-073K20,6,755,AS,exp,47,→,right,→,1.6938359001651406,True,48,-1,0,0
Y2-S2-073K20,6,756,AS,exp,43,↑,right,→,2.3967291000299156,False,48,-1,0,0
Y2-S2-073K20,6,757,AS,exp,44,↓,down,↓,1.5894337999634445,True,49,-1,0,0
Y2-S2-073K20,6,758,AS,exp,48,↑,down,↓,0.750927499961108,False,49,-1,0,0
Y2-S2-073K20,6,759,AS,exp,49,→,right,→,0.48440479999408126,True,50,-1,0,0
Y2-S2-073K20,6,760,AS,exp,47,↓,down,↓,0.6175578001420945,True,50,-1,0,0
Y2-S2-073K20,6,761,AS,exp,34,←,down,↓,0.6343931001611054,False,50,-1,0,0
Y2-S2-073K20,6,762,AS,exp,36,↑,down,↓,0.46766969980672,False,51,-1,0,0
Y2-S2-073K20,6,763,AS,exp,29,↓,right,→,0.5349648001138121,False,52,-1,0,0
Y2-S2-073K20,6,764,AS,exp,43,←,down,↓,0.6344814000185579,False,53,-1,0,0
Y2-S2-073K20,6,765,AS,exp,48,→,left,←,0.8177096000872552,False,54,-1,0,0
Y2-S2-073K20,6,766,AS,exp,34,↓,up,↑,0.3674637000076473,False,55,-1,0,0
Y2-S2-073K20,6,767,AS,exp,46,→,right,→,0.4341208999976516,True,56,-1,0,0
Y2-S2-073K20,6,768,AS,exp,30,↑,up,↑,0.7675623998511583,True,56,-1,0,0
Y2-S2-073K20,6,769,AS,exp,32,↓,down,↓,0.8505187998525798,True,56,1,1,1
Y2-S2-073K20,6,770,AS,exp,47,→,right,→,0.3008947998750955,True,55,1,0,1
Y2-S2-073K20,6,771,AS,exp,44,←,left,←,0.5177672998979688,True,55,1,0,1
Y2-S2-073K20,6,772,AS,exp,47,→,up,↑,0.6675855000503361,False,55,-1,1,2
Y2-S2-073K20,6,773,AS,exp,45,↑,right,→,0.16781939985230565,False,56,-1,0,2
Y2-S2-073K20,6,774,AS,exp,29,↓,up,↑,0.3342109997756779,False,57,-1,0,2
Y2-S2-073K20,6,775,AS,exp,39,↑,down,↓,0.2676655000541359,False,58,-1,0,2
Y2-S2-073K20,6,776,AS,exp,48,↓,left,←,0.3847708001267165,False,59,-1,0,2
Y2-S2-073K20,6,777,AS,exp,43,↑,right,→,0.01746520004235208,False,60,-1,0,2
Y2-S2-073K20,6,778,AS,exp,25,→,up,↑,1.8473082999698818,False,61,-1,0,2
Y2-S2-073K20,6,779,AS,exp,26,↑,up,↑,2.2480438998900354,True,62,-1,0,2
Y2-S2-073K20,6,780,AS,exp,25,→,right,→,1.258864700095728,True,62,-1,0,2
Y2-S2-073K20,6,781,AS,exp,29,↓,up,↑,1.543602199992165,False,62,-1,0,2
Y2-S2-073K20,6,782,AS,exp,43,→,left,←,0.8010480999946594,False,63,-1,0,2
Y2-S2-073K20,6,783,AS,exp,34,←,right,→,0.4012238001450896,False,64,-1,0,2
Y2-S2-073K20,6,784,AS,exp,42,↑,up,↑,0.30077249999158084,True,65,-1,0,2
Y2-S2-073K20,6,785,AS,exp,28,←,left,←,0.7007563000079244,True,65,-1,0,2
Y2-S2-073K20,6,786,AS,exp,31,↑,left,←,0.25113940006121993,False,65,-1,0,2
Y2-S2-073K20,6,787,AS,exp,36,←,left,←,0.4178192999679595,True,66,-1,0,2
Y2-S2-073K20,6,788,AS,exp,46,→,left,←,0.5343887999188155,False,66,-1,0,2
Y2-S2-073K20,6,789,AS,exp,26,←,left,←,0.7511167998891324,True,67,-1,0,2
Y2-S2-073K20,6,790,AS,exp,44,↑,no_key,no_letter,-1.0,False,67,-1,0,2
Y2-S2-073K20,6,791,AS,exp,27,←,right,→,0.251203800085932,False,68,-1,0,2
Y2-S2-073K20,6,792,AS,exp,32,→,right,→,0.5174233000725508,True,69,-1,0,2
Y2-S2-073K20,6,793,AS,exp,50,↑,up,↑,0.5168667000252753,True,69,-1,0,2
Y2-S2-073K20,6,794,AS,exp,25,↓,right,→,0.5010644998401403,False,69,-1,0,2
Y2-S2-073K20,6,795,AS,exp,46,←,left,←,0.4510999000631273,True,70,-1,0,2
Y2-S2-073K20,6,796,AS,exp,41,↓,down,↓,0.801034800009802,True,70,-1,0,2
Y2-S2-073K20,6,797,AS,exp,35,↑,up,↑,0.7510593000333756,True,70,1,1,3
Y2-S2-073K20,6,798,AS,exp,38,↓,down,↓,1.327678699977696,True,69,1,0,3
Y2-S2-073K20,6,799,AS,exp,43,↑,up,↑,0.7677450000774115,True,69,1,0,3
Y2-S2-073K20,6,800,AS,exp,39,→,right,→,0.6346454999875277,True,69,1,0,3
Y2-S2-073K20,6,801,AS,exp,25,↓,down,↓,0.8176746000535786,True,68,1,0,3
Y2-S2-073K20,6,802,AS,exp,38,←,left,←,0.7508871001191437,True,68,1,0,3
Y2-S2-073K20,6,803,AS,exp,48,↑,up,↑,0.6178706998471171,True,68,1,0,3
Y2-S2-073K20,6,804,AS,exp,44,↓,down,↓,0.8846178001258522,True,67,1,0,3
Y2-S2-073K20,6,805,AS,exp,27,↑,up,↑,1.0843687998130918,True,67,1,0,3
Y2-S2-073K20,6,806,AS,exp,39,←,left,←,1.3886263000313193,True,67,1,0,3
Y2-S2-073K20,6,807,AS,exp,49,→,right,→,0.4676651998888701,True,66,1,0,3
Y2-S2-073K20,6,808,AS,exp,46,↓,down,↓,0.5675826999358833,True,66,1,0,3
Y2-S2-073K20,6,809,AS,exp,32,→,right,→,0.46778519987128675,True,66,1,0,3
Y2-S2-073K20,6,810,AS,exp,25,←,left,←,0.851154400035739,True,65,1,0,3
Y2-S2-073K20,6,811,AS,exp,37,↑,up,↑,0.5844140998087823,True,65,1,0,3
Y2-S2-073K20,6,812,AS,exp,36,↓,left,←,0.5514599999878556,False,65,-1,1,4
Y2-S2-073K20,6,813,AS,exp,39,↑,up,↑,0.7676385999657214,True,66,-1,0,4
Y2-S2-073K20,6,814,AS,exp,35,→,right,→,0.48455729987472296,True,66,-1,0,4
Y2-S2-073K20,6,815,AS,exp,49,↓,down,↓,0.9676421000622213,True,66,1,1,5
Y2-S2-073K20,6,816,AS,exp,42,↑,up,↑,0.6176134999841452,True,65,1,0,5
Y2-S2-073K20,6,817,AS,exp,43,↓,down,↓,0.7679516000207514,True,65,1,0,5
Y2-S2-073K20,6,818,AS,exp,39,→,right,→,0.7511587999761105,True,65,1,0,5
Y2-S2-073K20,6,819,AS,exp,41,↑,up,↑,0.43425110005773604,True,64,1,0,5
Y2-S2-073K20,6,820,AS,exp,48,↓,down,↓,0.7177315000444651,True,64,1,0,5
Y2-S2-073K20,6,821,AS,exp,36,↑,up,↑,0.420103200012818,True,64,1,0,5
Y2-S2-073K20,6,822,AS,exp,31,↓,down,↓,0.9008275999221951,True,63,1,0,5
Y2-S2-073K20,6,823,AS,exp,31,→,right,→,0.7842482000123709,True,63,1,0,5
Y2-S2-073K20,6,824,AS,exp,49,←,left,←,0.7513307998888195,True,63,1,0,5
Y2-S2-073K20,6,825,AS,exp,26,↓,up,↑,0.5174710000865161,False,62,-1,1,6
Y2-S2-073K20,6,826,AS,exp,31,→,right,→,0.7840817000251263,True,63,-1,0,6
Y2-S2-073K20,6,827,AS,exp,45,↓,down,↓,0.5845470000058413,True,63,-1,0,6
Y2-S2-073K20,6,828,AS,exp,31,↑,up,↑,0.9683511999901384,True,63,1,1,7
Y2-S2-073K20,6,829,AS,exp,26,→,right,→,0.8510342999361455,True,62,1,0,7
Y2-S2-073K20,6,830,AS,exp,27,↓,down,↓,0.9511336998548359,True,62,1,0,7
Y2-S2-073K20,6,831,AS,exp,36,→,down,↓,2.005946099990979,False,62,-1,1,8
Y2-S2-073K20,6,832,AS,exp,36,↓,down,↓,1.0340607999823987,True,63,-1,0,8
Y2-S2-073K20,6,833,AS,exp,36,↑,up,↑,0.7510902001522481,True,63,-1,0,8
Y2-S2-073K20,6,834,AS,exp,25,→,right,→,0.6008689999580383,True,63,1,1,9
Y2-S2-073K20,6,835,AS,exp,30,↑,up,↑,0.5675806999206543,True,62,1,0,9
Y2-S2-073K20,6,836,AS,exp,25,→,right,→,0.6005351999774575,True,62,1,0,9
Y2-S2-073K20,6,837,AS,exp,43,←,left,←,0.8344684999901801,True,62,1,0,9
Y2-S2-073K20,6,838,AS,exp,45,↑,up,↑,0.7844680000562221,True,61,1,0,9
Y2-S2-073K20,6,839,AS,exp,25,→,right,→,0.7345380000770092,True,61,1,0,9
Y2-S2-073K20,6,840,AS,exp,47,←,left,←,0.7344173998571932,True,61,1,0,9
Y2-S2-073K20,6,841,AS,exp,37,↓,down,↓,0.7841586999129504,True,60,1,0,9
Y2-S2-073K20,6,842,AS,exp,34,←,left,←,1.0170360000338405,True,60,1,0,9
Y2-S2-073K20,6,843,AS,exp,30,↑,up,↑,0.7679196000099182,True,60,1,0,9
Y2-S2-073K20,6,844,AS,exp,28,→,right,→,0.701555399922654,True,59,1,0,9
Y2-S2-073K20,6,845,AS,exp,32,↑,up,↑,0.751183700049296,True,59,1,0,9
Y2-S2-073K20,6,846,AS,exp,27,↓,down,↓,0.6842785999178886,True,59,1,0,9
Y2-S2-073K20,6,847,AS,exp,46,↑,up,↑,0.5677606998942792,True,58,1,0,9
Y2-S2-073K20,6,848,AS,exp,27,←,left,←,0.5011515999212861,True,58,1,0,9
Y2-S2-073K20,6,849,AS,exp,28,↑,right,→,0.5508486998733133,False,58,-1,1,10
Y2-S2-073K20,6,850,AS,exp,40,↓,down,↓,0.5676019000820816,True,59,-1,0,10
Y2-S2-073K20,6,851,AS,exp,36,→,right,→,0.8510563001036644,True,59,-1,0,10
Y2-S2-073K20,6,852,AS,exp,38,←,left,←,0.5342277998570353,True,59,1,1,11
Y2-S2-073K20,6,853,AS,exp,32,→,right,→,0.7504930999130011,True,58,1,0,11
Y2-S2-073K20,6,854,AS,exp,35,↑,up,↑,0.7511526001617312,True,58,1,0,11
Y2-S2-073K20,6,855,AS,exp,44,←,left,←,0.46775790001265705,True,58,1,0,11
Y2-S2-073K20,6,856,AS,exp,27,↑,up,↑,0.5174513999372721,True,57,1,0,11
Y2-S2-073K20,6,857,AS,exp,25,→,right,→,0.8345401999540627,True,57,1,0,11
Y2-S2-073K20,6,858,AS,exp,25,↑,left,←,0.6510302000679076,False,57,-1,1,12
Y2-S2-073K20,6,859,AS,exp,41,→,up,↑,0.4843321000225842,False,58,-1,0,12
Y2-S2-073K20,6,860,AS,exp,30,↑,up,↑,0.7011726000346243,True,59,-1,0,12
Y2-S2-073K20,6,861,AS,exp,38,↓,down,↓,0.7176330999936908,True,59,-1,0,12
Y2-S2-073K20,6,862,AS,exp,27,←,left,←,0.5681491999421269,True,59,1,1,13
Y2-S2-073K20,6,863,AS,exp,45,↑,up,↑,0.7344748999457806,True,58,1,0,13
Y2-S2-073K20,6,864,AS,exp,31,→,right,→,0.684277500025928,True,58,1,0,13
Y2-S2-073K20,6,865,AS,exp,25,↑,up,↑,0.8344360000919551,True,58,1,0,13
Y2-S2-073K20,6,866,AS,exp,48,→,right,→,0.6844830000773072,True,57,1,0,13
Y2-S2-073K20,6,867,AS,exp,50,←,left,←,0.8010543999262154,True,57,1,0,13
Y2-S2-073K20,6,868,AS,exp,42,↓,down,↓,1.2427018000744283,True,57,1,0,13
Y2-S2-073K20,6,869,AS,exp,30,↑,up,↑,0.6351798998657614,True,56,1,0,13
Y2-S2-073K20,6,870,AS,exp,49,→,right,→,0.4015018998179585,True,56,1,0,13
Y2-S2-073K20,6,871,AS,exp,48,↓,down,↓,0.5014619000721723,True,56,1,0,13
Y2-S2-073K20,6,872,AS,exp,33,→,left,←,0.30106600001454353,False,55,-1,1,14
Y2-S2-073K20,6,873,AS,exp,50,↓,left,←,0.701508600031957,False,56,-1,0,14
Y2-S2-073K20,6,874,AS,exp,43,→,right,→,0.5514809999149293,True,57,-1,0,14
Y2-S2-073K20,6,875,AS,exp,45,←,right,→,0.5681684000883251,False,57,-1,0,14
Y2-S2-073K20,6,876,AS,exp,49,→,up,↑,0.8175715999677777,False,58,-1,0,14
Y2-S2-073K20,6,877,AS,exp,42,←,left,←,0.7344309999607503,True,59,-1,0,14
Y2-S2-073K20,6,878,AS,exp,41,↓,down,↓,0.6345019000582397,True,59,-1,0,14
Y2-S2-073K20,6,879,AS,exp,47,→,right,→,0.5011289999820292,True,59,1,1,15
Y2-S2-073K20,6,880,AS,exp,47,←,left,←,0.651352500077337,True,58,1,0,15
Y2-S2-073K20,6,881,AS,exp,35,→,right,→,0.7510027999524027,True,58,1,0,15
Y2-S2-073K20,6,882,AS,exp,25,←,left,←,0.3843063001986593,True,58,1,0,15
Y2-S2-073K20,6,883,AS,exp,29,↑,right,→,0.6510250000283122,False,57,-1,1,16
Y2-S2-073K20,7,884,AS,intra_train,43,↓,up,↑,0.617322999984026,False,30,-,-,-
Y2-S2-073K20,7,885,AS,intra_train,25,↑,up,↑,1.3551127999089658,True,30,-,-,-
Y2-S2-073K20,7,886,AS,intra_train,31,→,right,→,0.6008731001056731,True,30,-,-,-
Y2-S2-073K20,7,887,AS,intra_train,46,↑,up,↑,0.7074047001078725,True,30,-,-,-
Y2-S2-073K20,7,888,AS,intra_train,37,←,left,←,0.7138109998777509,True,30,-,-,-
Y2-S2-073K20,7,889,AS,exp,49,↑,up,↑,0.6295173999387771,True,20,0,0,0
Y2-S2-073K20,7,890,AS,exp,26,←,left,←,0.46700319997034967,True,20,0,0,0
Y2-S2-073K20,7,891,AS,exp,41,↑,up,↑,0.5302401001099497,True,20,1,0,0
Y2-S2-073K20,7,892,AS,exp,46,→,right,→,1.2668182000052184,True,19,1,0,0
Y2-S2-073K20,7,893,AS,exp,47,↓,down,↓,0.5492433998733759,True,19,1,0,0
Y2-S2-073K20,7,894,AS,exp,44,↑,up,↑,1.0385540998540819,True,19,1,0,0
Y2-S2-073K20,7,895,AS,exp,40,←,left,←,0.4172258998733014,True,18,1,0,0
Y2-S2-073K20,7,896,AS,exp,25,↑,up,↑,0.8348107000347227,True,18,1,0,0
Y2-S2-073K20,7,897,AS,exp,50,→,right,→,0.40107959997840226,True,18,1,0,0
Y2-S2-073K20,7,898,AS,exp,45,↑,left,←,0.8334927000105381,False,17,-1,1,1
Y2-S2-073K20,7,899,AS,exp,38,↓,up,↑,0.5601097999606282,False,18,-1,0,1
Y2-S2-073K20,7,900,AS,exp,37,↑,down,↓,0.5680990000255406,False,19,-1,0,1
Y2-S2-073K20,7,901,AS,exp,29,↓,left,←,0.74385069985874,False,20,-1,0,1
Y2-S2-073K20,7,902,AS,exp,28,←,right,→,0.5957111001480371,False,21,-1,0,1
Y2-S2-073K20,7,903,AS,exp,29,→,up,↑,0.317872199928388,False,22,-1,0,1
Y2-S2-073K20,7,904,AS,exp,41,←,down,↓,0.3512832000851631,False,23,-1,0,1
Y2-S2-073K20,7,905,AS,exp,25,↑,no_key,no_letter,-1.0,False,24,-1,0,1
Y2-S2-073K20,7,906,AS,exp,32,←,up,↑,0.2013180002104491,False,25,-1,0,1
Y2-S2-073K20,7,907,AS,exp,32,↑,up,↑,0.5340065001510084,True,26,-1,0,1
Y2-S2-073K20,7,908,AS,exp,34,→,right,→,0.4841971998102963,True,26,-1,0,1
Y2-S2-073K20,7,909,AS,exp,49,↓,down,↓,0.8516057999804616,True,26,1,1,2
Y2-S2-073K20,7,910,AS,exp,43,→,right,→,0.7189587000757456,True,25,1,0,2
Y2-S2-073K20,7,911,AS,exp,37,↓,left,←,0.4837700999341905,False,25,-1,1,3
Y2-S2-073K20,7,912,AS,exp,38,↑,right,→,1.0023801000788808,False,26,-1,0,3
Y2-S2-073K20,7,913,AS,exp,50,←,right,→,0.5509012001566589,False,27,-1,0,3
Y2-S2-073K20,7,914,AS,exp,46,→,left,←,1.0882107000797987,False,28,-1,0,3
Y2-S2-073K20,7,915,AS,exp,44,←,left,←,0.4674364998936653,True,29,-1,0,3
Y2-S2-073K20,7,916,AS,exp,26,→,left,←,0.43460320006124675,False,29,-1,0,3
Y2-S2-073K20,7,917,AS,exp,43,←,right,→,0.4178350002039224,False,30,-1,0,3
Y2-S2-073K20,7,918,AS,exp,44,↑,left,←,0.8350782999768853,False,31,-1,0,3
Y2-S2-073K20,7,919,AS,exp,33,←,left,←,0.5186302999500185,True,32,-1,0,3
Y2-S2-073K20,7,920,AS,exp,50,→,right,→,0.4010180998593569,True,32,-1,0,3
Y2-S2-073K20,7,921,AS,exp,28,←,right,→,0.9770133001729846,False,32,-1,0,3
Y2-S2-073K20,7,922,AS,exp,32,↑,left,←,0.2509973000269383,False,33,-1,0,3
Y2-S2-073K20,7,923,AS,exp,30,→,up,↑,0.5505715000908822,False,34,-1,0,3
Y2-S2-073K20,7,924,AS,exp,48,↑,up,↑,0.6675223000347614,True,35,-1,0,3
Y2-S2-073K20,7,925,AS,exp,34,←,up,↑,0.5177740999497473,False,35,-1,0,3
Y2-S2-073K20,7,926,AS,exp,26,↑,up,↑,0.6843233001418412,True,36,-1,0,3
Y2-S2-073K20,7,927,AS,exp,50,←,left,←,0.5175870000384748,True,36,-1,0,3
Y2-S2-073K20,7,928,AS,exp,26,→,right,→,0.5678052001167089,True,36,1,1,4
Y2-S2-073K20,7,929,AS,exp,35,↓,down,↓,0.6336916999425739,True,35,1,0,4
Y2-S2-073K20,7,930,AS,exp,29,↑,up,↑,0.517617299919948,True,35,1,0,4
Y2-S2-073K20,7,931,AS,exp,26,→,right,→,0.5840493999421597,True,35,1,0,4
Y2-S2-073K20,7,932,AS,exp,47,←,left,←,0.8684827999677509,True,34,1,0,4
Y2-S2-073K20,7,933,AS,exp,32,↑,up,↑,0.8384303001221269,True,34,1,0,4
Y2-S2-073K20,7,934,AS,exp,47,←,right,→,0.9221353998873383,False,34,-1,1,5
Y2-S2-073K20,7,935,AS,exp,36,→,right,→,0.5008696001023054,True,35,-1,0,5
Y2-S2-073K20,7,936,AS,exp,33,←,left,←,0.7005282000172883,True,35,-1,0,5
Y2-S2-073K20,7,937,AS,exp,39,→,right,→,0.4843484000302851,True,35,1,1,6
Y2-S2-073K20,7,938,AS,exp,29,↓,down,↓,0.9281102998647839,True,34,1,0,6
Y2-S2-073K20,7,939,AS,exp,32,↑,up,↑,0.5342800000216812,True,34,1,0,6
Y2-S2-073K20,7,940,AS,exp,32,←,left,←,0.4509990999940783,True,34,1,0,6
Y2-S2-073K20,7,941,AS,exp,47,↓,down,↓,0.6678364998660982,True,33,1,0,6
Y2-S2-073K20,7,942,AS,exp,25,←,left,←,0.667284200200811,True,33,1,0,6
Y2-S2-073K20,7,943,AS,exp,50,↓,down,↓,1.4786057998426259,True,33,1,0,6
Y2-S2-073K20,7,944,AS,exp,37,←,left,←,0.5507621001452208,True,32,1,0,6
Y2-S2-073K20,7,945,AS,exp,35,↓,right,→,1.5636461998801678,False,32,-1,1,7
Y2-S2-073K20,7,946,AS,exp,46,↑,up,↑,1.365492899902165,True,33,-1,0,7
Y2-S2-073K20,7,947,AS,exp,44,→,right,→,0.5175930000841618,True,33,-1,0,7
Y2-S2-073K20,7,948,AS,exp,28,↑,up,↑,0.6339807999320328,True,33,1,1,8
Y2-S2-073K20,7,949,AS,exp,45,←,right,→,0.6337552999611944,False,32,-1,1,9
Y2-S2-073K20,7,950,AS,exp,33,→,left,←,1.3293224999215454,False,33,-1,0,9
Y2-S2-073K20,7,951,AS,exp,47,↑,up,↑,0.6335928000044078,True,34,-1,0,9
Y2-S2-073K20,7,952,AS,exp,25,→,down,↓,0.8801141998264939,False,34,-1,0,9
Y2-S2-073K20,7,953,AS,exp,27,←,left,←,0.5672871998976916,True,35,-1,0,9
Y2-S2-073K20,7,954,AS,exp,36,→,left,←,1.0190703999251127,False,35,-1,0,9
Y2-S2-073K20,7,955,AS,exp,39,↑,left,←,1.5560479001142085,False,36,-1,0,9
Y2-S2-073K20,7,956,AS,exp,35,↓,left,←,0.6347550998907536,False,37,-1,0,9
Y2-S2-073K20,7,957,AS,exp,48,←,down,↓,0.4350727000273764,False,38,-1,0,9
Y2-S2-073K20,7,958,AS,exp,26,↑,right,→,0.25150229991413653,False,39,-1,0,9
Y2-S2-073K20,7,959,AS,exp,40,→,up,↑,0.10081550013273954,False,40,-1,0,9
Y2-S2-073K20,7,960,AS,exp,27,←,left,←,0.25128640001639724,True,41,-1,0,9
Y2-S2-073K20,7,961,AS,exp,47,↑,down,↓,1.455430099973455,False,41,-1,0,9
Y2-S2-073K20,7,962,AS,exp,41,→,up,↑,0.48429829999804497,False,42,-1,0,9
Y2-S2-073K20,7,963,AS,exp,25,↑,up,↑,0.6341170000378042,True,43,-1,0,9
Y2-S2-073K20,7,964,AS,exp,42,→,left,←,0.6845088000409305,False,43,-1,0,9
Y2-S2-073K20,7,965,AS,exp,46,←,right,→,0.5509329999331385,False,44,-1,0,9
Y2-S2-073K20,7,966,AS,exp,38,↓,down,↓,0.36766160000115633,True,45,-1,0,9
Y2-S2-073K20,7,967,AS,exp,40,→,right,→,0.883988699875772,True,45,-1,0,9
Y2-S2-073K20,7,968,AS,exp,37,←,left,←,0.7841040999628603,True,45,1,1,10
Y2-S2-073K20,7,969,AS,exp,30,→,right,→,0.5676591000519693,True,44,1,0,10
Y2-S2-073K20,7,970,AS,exp,25,↓,down,↓,0.8507300999481231,True,44,1,0,10
Y2-S2-073K20,7,971,AS,exp,31,→,left,←,0.5343303000554442,False,44,-1,1,11
Y2-S2-073K20,7,972,AS,exp,31,↓,down,↓,0.7339637998957187,True,45,-1,0,11
Y2-S2-073K20,7,973,AS,exp,33,↑,up,↑,0.7838485999964178,True,45,-1,0,11
Y2-S2-073K20,7,974,AS,exp,40,←,left,←,0.4511599000543356,True,45,1,1,12
Y2-S2-073K20,7,975,AS,exp,31,↑,up,↑,0.6175585999153554,True,44,1,0,12
Y2-S2-073K20,7,976,AS,exp,42,→,right,→,0.5342794999014586,True,44,1,0,12
Y2-S2-073K20,7,977,AS,exp,33,↓,down,↓,0.5176423999946564,True,44,1,0,12
Y2-S2-073K20,7,978,AS,exp,50,↑,up,↑,0.6848993001040071,True,43,1,0,12
Y2-S2-073K20,7,979,AS,exp,28,↓,down,↓,0.8341242999304086,True,43,1,0,12
Y2-S2-073K20,7,980,AS,exp,46,↑,up,↑,1.353384800022468,True,43,1,0,12
Y2-S2-073K20,7,981,AS,exp,45,←,left,←,0.4841762001160532,True,42,1,0,12
Y2-S2-073K20,7,982,AS,exp,34,→,right,→,0.41764290002174675,True,42,1,0,12
Y2-S2-073K20,7,983,AS,exp,25,↑,up,↑,0.41769510018639266,True,42,1,0,12
Y2-S2-073K20,7,984,AS,exp,33,↓,down,↓,0.6667063001077622,True,41,1,0,12
Y2-S2-073K20,7,985,AS,exp,32,←,left,←,0.7840495998971164,True,41,1,0,12
Y2-S2-073K20,7,986,AS,exp,48,↓,down,↓,0.6673745999578387,True,41,1,0,12
Y2-S2-073K20,7,987,AS,exp,41,↑,up,↑,0.8706542002037168,True,40,1,0,12
Y2-S2-073K20,7,988,AS,exp,45,↓,down,↓,0.7168544000014663,True,40,1,0,12
Y2-S2-073K20,7,989,AS,exp,43,↑,up,↑,0.5014293000567704,True,40,1,0,12
Y2-S2-073K20,7,990,AS,exp,30,↓,down,↓,0.6014282000251114,True,39,1,0,12
Y2-S2-073K20,7,991,AS,exp,27,→,right,→,0.48423290019854903,True,39,1,0,12
Y2-S2-073K20,7,992,AS,exp,42,↓,down,↓,0.854346000123769,True,39,1,0,12
Y2-S2-073K20,7,993,AS,exp,31,←,left,←,0.6011326999869198,True,38,1,0,12
Y2-S2-073K20,7,994,AS,exp,29,↑,up,↑,1.9808373998384923,True,38,1,0,12
Y2-S2-073K20,7,995,AS,exp,49,→,no_key,no_letter,-1.0,False,38,-1,1,13
Y2-S2-073K20,7,996,AS,exp,27,↑,up,↑,1.2196251000277698,True,39,-1,0,13
Y2-S2-073K20,7,997,AS,exp,48,←,left,←,0.5511037001851946,True,39,-1,0,13
Y2-S2-073K20,7,998,AS,exp,30,↑,up,↑,0.7504480998031795,True,39,1,1,14
Y2-S2-073K20,7,999,AS,exp,30,←,left,←,0.9823878998868167,True,38,1,0,14
Y2-S2-073K20,7,1000,AS,exp,40,↑,up,↑,0.5032977999653667,True,38,1,0,14
Y2-S2-073K20,7,1001,AS,exp,34,↓,down,↓,1.1794980000704527,True,38,1,0,14
Y2-S2-073K20,7,1002,AS,exp,48,↑,up,↑,1.4615849999245256,True,37,1,0,14
Y2-S2-073K20,7,1003,AS,exp,44,→,right,→,0.634034400107339,True,37,1,0,14
Y2-S2-073K20,7,1004,AS,exp,38,↓,down,↓,0.5343059001024812,True,37,1,0,14
Y2-S2-073K20,7,1005,AS,exp,31,→,right,→,0.48459100001491606,True,36,1,0,14
Y2-S2-073K20,7,1006,AS,exp,35,↑,up,↑,0.6171870001126081,True,36,1,0,14
Y2-S2-073K20,7,1007,AS,exp,36,→,right,→,0.4347431999631226,True,36,1,0,14
Y2-S2-073K20,7,1008,AS,exp,26,←,left,←,0.4843977999407798,True,35,1,0,14
Y2-S2-073K20,7,1009,AS,exp,50,→,right,→,0.5347279000561684,True,35,1,0,14
Y2-S2-073K20,7,1010,AS,exp,46,↑,up,↑,0.7859582998789847,True,35,1,0,14
Y2-S2-073K20,7,1011,AS,exp,29,↓,down,↓,1.0108068000990897,True,34,1,0,14
Y2-S2-073K20,7,1012,AS,exp,43,→,right,→,0.5176709000952542,True,34,1,0,14
Y2-S2-073K20,7,1013,AS,exp,48,←,right,→,0.50129280006513,False,34,-1,1,15
Y2-S2-073K20,7,1014,AS,exp,25,↑,up,↑,0.5008813000749797,True,35,-1,0,15
Y2-S2-073K20,7,1015,AS,exp,25,←,left,←,0.40116330003365874,True,35,-1,0,15
Y2-S2-073K20,7,1016,AS,exp,25,→,right,→,0.6674720000009984,True,35,1,1,16
Y2-S2-073K20,8,1017,PS,intra_train,41,↑,up,↑,0.5411442997865379,True,15,-,-,-
Y2-S2-073K20,8,1018,PS,intra_train,43,↓,down,↓,0.5134185999631882,True,15,-,-,-
Y2-S2-073K20,8,1019,PS,intra_train,46,→,down,↓,1.0145201000850648,False,15,-,-,-
Y2-S2-073K20,8,1020,PS,intra_train,39,↑,up,↑,0.48797779995948076,True,15,-,-,-
Y2-S2-073K20,8,1021,PS,intra_train,34,→,left,←,0.785941299982369,False,15,-,-,-
Y2-S2-073K20,8,1022,PS,exp,38,↓,right,→,0.39953509997576475,False,10,-1,0,0
Y2-S2-073K20,8,1023,PS,exp,38,←,right,→,0.7761635999195278,False,11,-1,0,0
Y2-S2-073K20,8,1024,PS,exp,43,↓,left,←,0.6489911000244319,False,12,-1,0,0
Y2-S2-073K20,8,1025,PS,exp,45,←,left,←,0.4288343000225723,True,13,-1,0,0
Y2-S2-073K20,8,1026,PS,exp,26,↑,left,←,0.8811374001670629,False,13,-1,0,0
Y2-S2-073K20,8,1027,PS,exp,30,↓,up,↑,0.2839212000835687,False,14,-1,0,0
Y2-S2-073K20,8,1028,PS,exp,35,↑,down,↓,0.30054329987615347,False,15,-1,0,0
Y2-S2-073K20,8,1029,PS,exp,35,→,down,↓,0.28366170008666813,False,16,-1,0,0
Y2-S2-073K20,8,1030,PS,exp,28,←,no_key,no_letter,-1.0,False,17,-1,0,0
Y2-S2-073K20,8,1031,PS,exp,27,↓,right,→,0.6671862001530826,False,18,-1,0,0
Y2-S2-073K20,8,1032,PS,exp,27,←,down,↓,0.10094669996760786,False,19,-1,0,0
Y2-S2-073K20,8,1033,PS,exp,41,↓,no_key,no_letter,-1.0,False,20,-1,0,0
Y2-S2-073K20,8,1034,PS,exp,47,→,down,↓,1.2249048000667244,False,21,-1,0,0
Y2-S2-073K20,8,1035,PS,exp,46,←,down,↓,0.28446940006688237,False,22,-1,0,0
Y2-S2-073K20,8,1036,PS,exp,48,↑,right,→,1.1046837999019772,False,23,-1,0,0
Y2-S2-073K20,8,1037,PS,exp,44,←,down,↓,0.8333882000297308,False,24,-1,0,0
Y2-S2-073K20,8,1038,PS,exp,39,↓,left,←,0.7417435999959707,False,25,-1,0,0
Y2-S2-073K20,8,1039,PS,exp,44,↑,up,↑,1.3997510999906808,True,26,-1,0,0
Y2-S2-073K20,8,1040,PS,exp,41,←,right,→,0.41750199999660254,False,26,-1,0,0
Y2-S2-073K20,8,1041,PS,exp,50,↓,left,←,1.6563127001281828,False,27,-1,0,0
Y2-S2-073K20,8,1042,PS,exp,50,←,down,↓,0.15108480001799762,False,28,-1,0,0
Y2-S2-073K20,8,1043,PS,exp,49,↓,up,↑,0.20150250010192394,False,29,-1,0,0
Y2-S2-073K20,8,1044,PS,exp,44,→,left,←,0.30087350006215274,False,30,-1,0,0
Y2-S2-073K20,8,1045,PS,exp,28,↓,down,↓,0.18436890002340078,True,31,-1,0,0
Y2-S2-073K20,8,1046,PS,exp,40,→,right,→,0.20055450010113418,True,31,-1,0,0
Y2-S2-073K20,8,1047,PS,exp,26,↑,up,↑,0.4173840000294149,True,31,1,1,1
Y2-S2-073K20,8,1048,PS,exp,46,←,up,↑,1.5251257999334484,False,30,-1,1,2
Y2-S2-073K20,8,1049,PS,exp,49,↓,down,↓,1.3310235999524593,True,31,-1,0,2
Y2-S2-073K20,8,1050,PS,exp,40,↑,down,↓,0.5506263000424951,False,31,-1,0,2
Y2-S2-073K20,8,1051,PS,exp,43,←,down,↓,0.6176857000682503,False,32,-1,0,2
Y2-S2-073K20,8,1052,PS,exp,28,→,right,→,0.46788450004532933,True,33,-1,0,2
Y2-S2-073K20,8,1053,PS,exp,29,↑,left,←,0.887194300070405,False,33,-1,0,2
Y2-S2-073K20,8,1054,PS,exp,47,→,right,→,0.4676232000347227,True,34,-1,0,2
Y2-S2-073K20,8,1055,PS,exp,39,↓,right,→,0.5671416998375207,False,34,-1,0,2
Y2-S2-073K20,8,1056,PS,exp,28,→,right,→,0.7171805999241769,True,35,-1,0,2
Y2-S2-073K20,8,1057,PS,exp,46,←,left,←,0.8019171999767423,True,35,-1,0,2
Y2-S2-073K20,8,1058,PS,exp,33,→,right,→,0.5176915999036282,True,35,1,1,3
Y2-S2-073K20,8,1059,PS,exp,37,↓,up,↑,1.9251806000247598,False,34,-1,1,4
Y2-S2-073K20,8,1060,PS,exp,26,↑,up,↑,0.4511853998992592,True,35,-1,0,4
Y2-S2-073K20,8,1061,PS,exp,30,←,left,←,0.5670511999633163,True,35,-1,0,4
Y2-S2-073K20,8,1062,PS,exp,27,↓,down,↓,0.5176333000417799,True,35,1,1,5
Y2-S2-073K20,8,1063,PS,exp,38,←,left,←,0.5839951999951154,True,34,1,0,5
Y2-S2-073K20,8,1064,PS,exp,41,↓,right,→,0.5176357000600547,False,34,-1,1,6
Y2-S2-073K20,8,1065,PS,exp,41,→,left,←,0.5674212998710573,False,35,-1,0,6
Y2-S2-073K20,8,1066,PS,exp,45,←,right,→,0.534320600097999,False,36,-1,0,6
Y2-S2-073K20,8,1067,PS,exp,36,→,left,←,0.38436600007116795,False,37,-1,0,6
Y2-S2-073K20,8,1068,PS,exp,33,←,right,→,0.5347722999285907,False,38,-1,0,6
Y2-S2-073K20,8,1069,PS,exp,35,↓,left,←,0.3344388999976218,False,39,-1,0,6
Y2-S2-073K20,8,1070,PS,exp,47,←,left,←,0.46762350015342236,True,40,-1,0,6
Y2-S2-073K20,8,1071,PS,exp,30,↓,down,↓,0.7671634999569505,True,40,-1,0,6
Y2-S2-073K20,8,1072,PS,exp,29,↑,down,↓,1.2198375000152737,False,40,-1,0,6
Y2-S2-073K20,8,1073,PS,exp,41,↓,down,↓,0.6512285999488086,True,41,-1,0,6
Y2-S2-073K20,8,1074,PS,exp,35,←,left,←,1.5543937999755144,True,41,-1,0,6
Y2-S2-073K20,8,1075,PS,exp,47,↑,up,↑,1.0295867999084294,True,41,1,1,7
Y2-S2-073K20,8,1076,PS,exp,45,→,up,↑,0.6345168000552803,False,40,-1,1,8
Y2-S2-073K20,8,1077,PS,exp,41,↑,right,→,0.5010307000484318,False,41,-1,0,8
Y2-S2-073K20,8,1078,PS,exp,37,←,up,↑,0.35091920010745525,False,42,-1,0,8
Y2-S2-073K20,8,1079,PS,exp,28,↓,left,←,0.2841409998945892,False,43,-1,0,8
Y2-S2-073K20,8,1080,PS,exp,33,→,down,↓,0.18460269994102418,False,44,-1,0,8
Y2-S2-073K20,8,1081,PS,exp,45,↓,right,→,0.36801819992251694,False,45,-1,0,8
Y2-S2-073K20,8,1082,PS,exp,26,←,left,←,0.750662799924612,True,46,-1,0,8
Y2-S2-073K20,8,1083,PS,exp,34,↓,down,↓,0.6678075001109391,True,46,-1,0,8
Y2-S2-073K20,8,1084,PS,exp,30,↑,up,↑,0.7671032999642193,True,46,1,1,9
Y2-S2-073K20,8,1085,PS,exp,48,←,left,←,0.7672909998800606,True,45,1,0,9
Y2-S2-073K20,8,1086,PS,exp,33,↑,up,↑,0.5510845000389963,True,45,1,0,9
Y2-S2-073K20,8,1087,PS,exp,32,→,right,→,0.5345348999835551,True,45,1,0,9
Y2-S2-073K20,8,1088,PS,exp,47,↓,down,↓,0.16784600005485117,True,44,1,0,9
Y2-S2-073K20,8,1089,PS,exp,30,↑,up,↑,0.5676474999636412,True,44,1,0,9
Y2-S2-073K20,8,1090,PS,exp,36,←,left,←,0.43435030011460185,True,44,1,0,9
Y2-S2-073K20,8,1091,PS,exp,27,↑,up,↑,0.5506567999254912,True,43,1,0,9
Y2-S2-073K20,8,1092,PS,exp,40,→,right,→,0.733981000026688,True,43,1,0,9
Y2-S2-073K20,8,1093,PS,exp,42,←,left,←,0.45128119993023574,True,43,1,0,9
Y2-S2-073K20,8,1094,PS,exp,25,↑,up,↑,0.5175973000004888,True,42,1,0,9
Y2-S2-073K20,8,1095,PS,exp,34,↓,down,↓,0.8171355000231415,True,42,1,0,9
Y2-S2-073K20,8,1096,PS,exp,47,→,right,→,0.7674848001915962,True,42,1,0,9
Y2-S2-073K20,8,1097,PS,exp,46,↑,up,↑,0.5178121998906136,True,41,1,0,9
Y2-S2-073K20,8,1098,PS,exp,34,↓,down,↓,1.30125470017083,True,41,1,0,9
Y2-S2-073K20,8,1099,PS,exp,50,→,right,→,0.864326799986884,True,41,1,0,9
Y2-S2-073K20,8,1100,PS,exp,48,←,left,←,0.3010873000603169,True,40,1,0,9
Y2-S2-073K20,8,1101,PS,exp,25,→,up,↑,0.601110199932009,False,40,-1,1,10
Y2-S2-073K20,8,1102,PS,exp,35,↑,down,↓,0.2509740998502821,False,41,-1,0,10
Y2-S2-073K20,8,1103,PS,exp,44,→,right,→,0.8007085002027452,True,42,-1,0,10
Y2-S2-073K20,8,1104,PS,exp,25,↑,up,↑,0.5010295999236405,True,42,-1,0,10
Y2-S2-073K20,8,1105,PS,exp,28,→,right,→,0.7506089999806136,True,42,1,1,11
Y2-S2-073K20,8,1106,PS,exp,25,←,left,←,0.6673062001354992,True,41,1,0,11
Y2-S2-073K20,8,1107,PS,exp,28,↓,down,↓,0.6007983000017703,True,41,1,0,11
Y2-S2-073K20,8,1108,PS,exp,29,↑,up,↑,0.5346975000575185,True,41,1,0,11
Y2-S2-073K20,8,1109,PS,exp,37,→,right,→,0.3342397001106292,True,40,1,0,11
Y2-S2-073K20,8,1110,PS,exp,35,←,left,←,0.517582300119102,True,40,1,0,11
Y2-S2-073K20,8,1111,PS,exp,33,↑,up,↑,0.5175879001617432,True,40,1,0,11
Y2-S2-073K20,8,1112,PS,exp,34,→,right,→,0.45104849990457296,True,39,1,0,11
Y2-S2-073K20,8,1113,PS,exp,29,↓,down,↓,0.5179254000540823,True,39,1,0,11
Y2-S2-073K20,8,1114,PS,exp,41,←,left,←,0.5509685999713838,True,39,1,0,11
Y2-S2-073K20,8,1115,PS,exp,41,↓,down,↓,0.5510972000192851,True,38,1,0,11
Y2-S2-073K20,8,1116,PS,exp,50,↑,up,↑,0.41796919982880354,True,38,1,0,11
Y2-S2-073K20,8,1117,PS,exp,41,→,left,←,0.4848569000605494,False,38,-1,1,12
Y2-S2-073K20,8,1118,PS,exp,27,←,left,←,0.8389763999730349,True,39,-1,0,12
Y2-S2-073K20,8,1119,PS,exp,37,↓,down,↓,0.7840097998268902,True,39,-1,0,12
Y2-S2-073K20,8,1120,PS,exp,31,→,right,→,0.4680056001525372,True,39,1,1,13
Y2-S2-073K20,8,1121,PS,exp,35,←,up,↑,1.058904099976644,False,38,-1,1,14
Y2-S2-073K20,8,1122,PS,exp,47,↑,up,↑,1.4572326999623328,True,39,-1,0,14
Y2-S2-073K20,8,1123,PS,exp,28,↓,left,←,0.28366479999385774,False,39,-1,0,14
Y2-S2-073K20,8,1124,PS,exp,35,→,down,↓,0.25065770000219345,False,40,-1,0,14
Y2-S2-073K20,8,1125,PS,exp,42,↓,right,→,0.683770400006324,False,41,-1,0,14
Y2-S2-073K20,8,1126,PS,exp,40,→,down,↓,0.20141940005123615,False,42,-1,0,14
Y2-S2-073K20,8,1127,PS,exp,47,↓,left,←,0.4843213001731783,False,43,-1,0,14
Y2-S2-073K20,8,1128,PS,exp,39,↑,right,→,0.26766739995218813,False,44,-1,0,14
Y2-S2-073K20,8,1129,PS,exp,47,↓,left,←,0.5344979998189956,False,45,-1,0,14
Y2-S2-073K20,8,1130,PS,exp,31,↑,down,↓,0.584597900044173,False,46,-1,0,14
Y2-S2-073K20,8,1131,PS,exp,26,→,no_key,no_letter,-1.0,False,47,-1,0,14
Y2-S2-073K20,8,1132,PS,exp,30,↓,up,↑,1.6054817999247462,False,48,-1,0,14
Y2-S2-073K20,8,1133,PS,exp,47,→,up,↑,1.5994217998813838,False,49,-1,0,14
Y2-S2-073K20,8,1134,PS,exp,47,↓,up,↑,1.0957472000736743,False,50,-1,0,14
Y2-S2-073K20,8,1135,PS,exp,28,←,no_key,no_letter,-1.0,False,51,-1,0,14
Y2-S2-073K20,8,1136,PS,exp,43,↓,up,↑,0.43436920014210045,False,52,-1,0,14
Y2-S2-073K20,8,1137,PS,exp,48,←,down,↓,0.5841073000337929,False,53,-1,0,14
Y2-S2-073K20,8,1138,PS,exp,41,↑,down,↓,0.9341235000174493,False,54,-1,0,14
Y2-S2-073K20,8,1139,PS,exp,35,↓,down,↓,0.9004629000555724,True,55,-1,0,14
Y2-S2-073K20,8,1140,PS,exp,50,↑,down,↓,0.6343445000238717,False,55,-1,0,14
Y2-S2-073K20,8,1141,PS,exp,42,←,left,←,0.5850772999692708,True,56,-1,0,14
Y2-S2-073K20,8,1142,PS,exp,25,↓,down,↓,1.28456910001114,True,56,-1,0,14
Y2-S2-073K20,8,1143,PS,exp,27,↑,up,↑,0.5675625000149012,True,56,1,1,15
Y2-S2-073K20,8,1144,PS,exp,28,↓,right,→,0.28426790004596114,False,55,-1,1,16
