PART_ID,Block_no,Trial_no,Block_type,Trial_type,CSI,Stim_letter,Key_pressed,letter_choose,Rt,Corr,Stimulus Time,Level,Reversal,Revs_count
Y2-S2-062M21,1,1,PS,train,35,←,left,←,0.6960585997439921,True,30,-,-,-
Y2-S2-062M21,1,2,PS,train,26,↑,up,↑,0.5509732002392411,True,30,-,-,-
Y2-S2-062M21,1,3,PS,train,34,↓,down,↓,0.7994701000861824,True,30,-,-,-
Y2-S2-062M21,1,4,PS,train,28,←,left,←,0.9285201001912355,True,30,-,-,-
Y2-S2-062M21,1,5,PS,train,48,↓,left,←,1.4376592999324203,False,30,-,-,-
Y2-S2-062M21,1,6,PS,train,40,↑,up,↑,1.0072361999191344,True,30,-,-,-
Y2-S2-062M21,1,7,PS,train,48,↓,down,↓,0.7879996001720428,True,30,-,-,-
Y2-S2-062M21,1,8,PS,train,46,←,left,←,0.6006070002913475,True,30,-,-,-
Y2-S2-062M21,1,9,PS,train,29,↓,down,↓,0.6678892998024821,True,30,-,-,-
Y2-S2-062M21,1,10,PS,train,36,←,left,←,0.6172175002284348,True,30,-,-,-
Y2-S2-062M21,2,11,AS,train,42,↑,up,↑,1.2098413999192417,True,45,-,-,-
Y2-S2-062M21,2,12,AS,train,33,←,left,←,0.6181716001592577,True,45,-,-,-
Y2-S2-062M21,2,13,AS,train,33,↑,up,↑,0.5676317997276783,True,45,-,-,-
Y2-S2-062M21,2,14,AS,train,43,←,left,←,0.7506221998482943,True,45,-,-,-
Y2-S2-062M21,2,15,AS,train,29,↑,up,↑,0.5844257003627717,True,45,-,-,-
Y2-S2-062M21,2,16,AS,train,39,→,right,→,0.5345549997873604,True,45,-,-,-
Y2-S2-062M21,2,17,AS,train,32,←,left,←,0.7337177000008523,True,45,-,-,-
Y2-S2-062M21,2,18,AS,train,39,→,right,→,0.6175937000662088,True,45,-,-,-
Y2-S2-062M21,2,19,AS,train,37,↓,down,↓,0.8339912998490036,True,45,-,-,-
Y2-S2-062M21,2,20,AS,train,49,←,left,←,0.618013400118798,True,45,-,-,-
Y2-S2-062M21,-,21,PS,adaptive,46,↓,down,↓,0.9008061001077294,True,10,0,0,0
Y2-S2-062M21,-,22,PS,adaptive,44,→,right,→,0.5237190998159349,True,10,0,0,0
Y2-S2-062M21,-,23,PS,adaptive,44,↓,left,←,1.7532756002619863,False,10,-1,0,0
Y2-S2-062M21,-,24,PS,adaptive,34,←,right,→,0.7389467000029981,False,11,-1,0,0
Y2-S2-062M21,-,25,PS,adaptive,45,↓,down,↓,0.8636617003940046,True,12,-1,0,0
Y2-S2-062M21,-,26,PS,adaptive,30,↑,up,↑,0.6065506003797054,True,12,-1,0,0
Y2-S2-062M21,-,27,PS,adaptive,46,↓,down,↓,0.6941388002596796,True,12,1,1,1
Y2-S2-062M21,-,28,PS,adaptive,27,↑,up,↑,0.6716013001278043,True,11,1,0,1
Y2-S2-062M21,-,29,PS,adaptive,41,←,left,←,0.6495657996274531,True,11,1,0,1
Y2-S2-062M21,-,30,PS,adaptive,31,↑,up,↑,0.7738649998791516,True,11,1,0,1
Y2-S2-062M21,-,31,PS,adaptive,39,←,left,←,0.5603724997490644,True,10,1,0,1
Y2-S2-062M21,-,32,PS,adaptive,49,↓,down,↓,0.8420541998930275,True,10,1,0,1
Y2-S2-062M21,-,33,PS,adaptive,41,←,left,←,0.6797056999057531,True,10,1,0,1
Y2-S2-062M21,-,34,PS,adaptive,35,→,right,→,0.5406033000908792,True,9,1,0,1
Y2-S2-062M21,-,35,PS,adaptive,41,↓,right,→,1.159442000091076,False,9,-1,1,2
Y2-S2-062M21,-,36,PS,adaptive,29,←,right,→,0.6341748000122607,False,10,-1,0,2
Y2-S2-062M21,-,37,PS,adaptive,36,↑,up,↑,0.688720399979502,True,11,-1,0,2
Y2-S2-062M21,-,38,PS,adaptive,43,←,left,←,0.5604510996490717,True,11,-1,0,2
Y2-S2-062M21,-,39,PS,adaptive,40,→,left,←,0.6522700996138155,False,11,-1,0,2
Y2-S2-062M21,-,40,PS,adaptive,45,↓,up,↑,0.6217678999528289,False,12,-1,0,2
Y2-S2-062M21,-,41,PS,adaptive,27,←,right,→,0.5930120004341006,False,13,-1,0,2
Y2-S2-062M21,-,42,PS,adaptive,43,↓,down,↓,0.6564042996615171,True,14,-1,0,2
Y2-S2-062M21,-,43,PS,adaptive,39,←,right,→,0.635479100048542,False,14,-1,0,2
Y2-S2-062M21,-,44,PS,adaptive,47,→,right,→,0.5143857998773456,True,15,-1,0,2
Y2-S2-062M21,-,45,PS,adaptive,49,↑,up,↑,0.5882657999172807,True,15,-1,0,2
Y2-S2-062M21,-,46,PS,adaptive,43,←,right,→,0.5960981999523938,False,15,-1,0,2
Y2-S2-062M21,-,47,PS,adaptive,32,→,right,→,0.5528441998176277,True,16,-1,0,2
Y2-S2-062M21,-,48,PS,adaptive,36,↓,down,↓,0.6063894997350872,True,16,-1,0,2
Y2-S2-062M21,-,49,PS,adaptive,35,↑,up,↑,0.5564677002839744,True,16,1,1,3
Y2-S2-062M21,-,50,PS,adaptive,46,→,right,→,0.6928262999281287,True,15,1,0,3
Y2-S2-062M21,-,51,PS,adaptive,30,↑,up,↑,0.590682300273329,True,15,1,0,3
Y2-S2-062M21,-,52,PS,adaptive,36,↓,down,↓,0.6467297999188304,True,15,1,0,3
Y2-S2-062M21,-,53,PS,adaptive,45,↑,up,↑,0.692221499979496,True,14,1,0,3
Y2-S2-062M21,-,54,PS,adaptive,35,→,right,→,0.47937180008739233,True,14,1,0,3
Y2-S2-062M21,-,55,PS,adaptive,32,↓,down,↓,0.6968951001763344,True,14,1,0,3
Y2-S2-062M21,-,56,PS,adaptive,42,↑,up,↑,1.4115275996737182,True,13,1,0,3
Y2-S2-062M21,-,57,PS,adaptive,42,↓,down,↓,0.9223515996709466,True,13,1,0,3
Y2-S2-062M21,-,58,PS,adaptive,44,←,left,←,0.6470319000072777,True,13,1,0,3
Y2-S2-062M21,-,59,PS,adaptive,50,↑,up,↑,0.6185568999499083,True,12,1,0,3
Y2-S2-062M21,-,60,PS,adaptive,36,→,right,→,0.6502935001626611,True,12,1,0,3
Y2-S2-062M21,-,61,PS,adaptive,42,↑,up,↑,0.5342812999151647,True,12,1,0,3
Y2-S2-062M21,-,62,PS,adaptive,32,↓,up,↑,0.6961014000698924,False,11,-1,1,4
Y2-S2-062M21,-,63,AS,adaptive,28,↑,up,↑,0.5142716998234391,True,20,0,0,0
Y2-S2-062M21,-,64,AS,adaptive,28,←,left,←,0.5419632997363806,True,20,0,0,0
Y2-S2-062M21,-,65,AS,adaptive,34,↑,up,↑,0.5094363000243902,True,20,1,0,0
Y2-S2-062M21,-,66,AS,adaptive,44,→,right,→,0.5502762999385595,True,19,1,0,0
Y2-S2-062M21,-,67,AS,adaptive,42,↑,up,↑,0.6620339998044074,True,19,1,0,0
Y2-S2-062M21,-,68,AS,adaptive,49,↓,down,↓,0.9461477999575436,True,19,1,0,0
Y2-S2-062M21,-,69,AS,adaptive,42,←,left,←,0.6002201000228524,True,18,1,0,0
Y2-S2-062M21,-,70,AS,adaptive,48,↑,up,↑,0.6124826003797352,True,18,1,0,0
Y2-S2-062M21,-,71,AS,adaptive,36,↓,down,↓,0.6718623996712267,True,18,1,0,0
Y2-S2-062M21,-,72,AS,adaptive,33,→,right,→,0.5561965997330844,True,17,1,0,0
Y2-S2-062M21,-,73,AS,adaptive,26,↑,up,↑,0.9214254999533296,True,17,1,0,0
Y2-S2-062M21,-,74,AS,adaptive,29,↓,down,↓,0.6822639000602067,True,17,1,0,0
Y2-S2-062M21,-,75,AS,adaptive,35,→,right,→,0.6178634003736079,True,16,1,0,0
Y2-S2-062M21,-,76,AS,adaptive,34,↓,up,↑,0.9003451997414231,False,16,-1,1,1
Y2-S2-062M21,-,77,AS,adaptive,29,→,right,→,0.5101065998896956,True,17,-1,0,1
Y2-S2-062M21,-,78,AS,adaptive,31,↑,up,↑,0.5743875000625849,True,17,-1,0,1
Y2-S2-062M21,-,79,AS,adaptive,32,→,right,→,0.5614457000046968,True,17,1,1,2
Y2-S2-062M21,-,80,AS,adaptive,26,←,left,←,0.8296007001772523,True,16,1,0,2
Y2-S2-062M21,-,81,AS,adaptive,45,↓,down,↓,0.6546721002086997,True,16,1,0,2
Y2-S2-062M21,-,82,AS,adaptive,26,↑,up,↑,1.239321700297296,True,16,1,0,2
Y2-S2-062M21,-,83,AS,adaptive,36,→,right,→,0.7322199996560812,True,15,1,0,2
Y2-S2-062M21,-,84,AS,adaptive,31,↑,up,↑,0.5870647998526692,True,15,1,0,2
Y2-S2-062M21,-,85,AS,adaptive,38,←,left,←,0.8169726999476552,True,15,1,0,2
Y2-S2-062M21,-,86,AS,adaptive,32,↑,up,↑,0.800339000299573,True,14,1,0,2
Y2-S2-062M21,-,87,AS,adaptive,27,→,right,→,0.6053181001916528,True,14,1,0,2
Y2-S2-062M21,-,88,AS,adaptive,42,←,left,←,0.6820586998946965,True,14,1,0,2
Y2-S2-062M21,-,89,AS,adaptive,29,↓,up,↑,0.7219225000590086,False,13,-1,1,3
Y2-S2-062M21,-,90,AS,adaptive,29,←,left,←,0.6960069998167455,True,14,-1,0,3
Y2-S2-062M21,-,91,AS,adaptive,39,↑,up,↑,0.6177520002238452,True,14,-1,0,3
Y2-S2-062M21,-,92,AS,adaptive,47,←,left,←,0.5714198998175561,True,14,1,1,4
Y2-S2-062M21,1,93,PS,intra_train,32,→,right,→,0.5539966998621821,True,18,-,-,-
Y2-S2-062M21,1,94,PS,intra_train,30,↑,up,↑,1.5041894000023603,True,18,-,-,-
Y2-S2-062M21,1,95,PS,intra_train,44,←,left,←,0.6338969999924302,True,18,-,-,-
Y2-S2-062M21,1,96,PS,intra_train,33,↑,up,↑,0.5829362003132701,True,18,-,-,-
Y2-S2-062M21,1,97,PS,intra_train,43,→,right,→,0.6706607001833618,True,18,-,-,-
Y2-S2-062M21,1,98,PS,exp,36,↓,up,↑,0.6708802999928594,False,12,-1,0,0
Y2-S2-062M21,1,99,PS,exp,45,→,left,←,0.9159909998998046,False,13,-1,0,0
Y2-S2-062M21,1,100,PS,exp,46,↑,up,↑,0.4915628000162542,True,14,-1,0,0
Y2-S2-062M21,1,101,PS,exp,47,→,right,→,0.5857890998013318,True,14,-1,0,0
Y2-S2-062M21,1,102,PS,exp,37,←,right,→,0.5565352998673916,False,14,-1,0,0
Y2-S2-062M21,1,103,PS,exp,41,↑,up,↑,0.5102956998161972,True,15,-1,0,0
Y2-S2-062M21,1,104,PS,exp,37,←,left,←,0.5892582000233233,True,15,-1,0,0
Y2-S2-062M21,1,105,PS,exp,26,↓,down,↓,0.7621507998555899,True,15,1,1,1
Y2-S2-062M21,1,106,PS,exp,49,←,left,←,0.6098996000364423,True,14,1,0,1
Y2-S2-062M21,1,107,PS,exp,45,→,left,←,1.2205554000101984,False,14,-1,1,2
Y2-S2-062M21,1,108,PS,exp,25,↓,up,↑,0.8210183996707201,False,15,-1,0,2
Y2-S2-062M21,1,109,PS,exp,26,↑,left,←,1.295974999666214,False,16,-1,0,2
Y2-S2-062M21,1,110,PS,exp,30,→,right,→,0.5659702997654676,True,17,-1,0,2
Y2-S2-062M21,1,111,PS,exp,32,↓,down,↓,0.6343498998321593,True,17,-1,0,2
Y2-S2-062M21,1,112,PS,exp,37,←,left,←,0.706993400119245,True,17,1,1,3
Y2-S2-062M21,1,113,PS,exp,25,↑,up,↑,0.5292687001638114,True,16,1,0,3
Y2-S2-062M21,1,114,PS,exp,41,→,right,→,0.517709800042212,True,16,1,0,3
Y2-S2-062M21,1,115,PS,exp,50,←,right,→,0.6439888002350926,False,16,-1,1,4
Y2-S2-062M21,1,116,PS,exp,31,↑,up,↑,0.8459216998890042,True,17,-1,0,4
Y2-S2-062M21,1,117,PS,exp,26,↓,down,↓,0.8074163999408484,True,17,-1,0,4
Y2-S2-062M21,1,118,PS,exp,41,↑,up,↑,0.6702573001384735,True,17,1,1,5
Y2-S2-062M21,1,119,PS,exp,49,→,right,→,0.47786360001191497,True,16,1,0,5
Y2-S2-062M21,1,120,PS,exp,34,↑,up,↑,0.7364941001869738,True,16,1,0,5
Y2-S2-062M21,1,121,PS,exp,30,←,left,←,0.6285121999680996,True,16,1,0,5
Y2-S2-062M21,1,122,PS,exp,31,↑,up,↑,0.47392840031534433,True,15,1,0,5
Y2-S2-062M21,1,123,PS,exp,45,→,right,→,0.5814069998450577,True,15,1,0,5
Y2-S2-062M21,1,124,PS,exp,29,←,right,→,0.7892072000540793,False,15,-1,1,6
Y2-S2-062M21,1,125,PS,exp,27,↑,up,↑,0.6035934998653829,True,16,-1,0,6
Y2-S2-062M21,1,126,PS,exp,41,→,right,→,0.5554029997438192,True,16,-1,0,6
Y2-S2-062M21,1,127,PS,exp,50,↓,down,↓,0.7979628001339734,True,16,1,1,7
Y2-S2-062M21,1,128,PS,exp,45,←,left,←,0.7836337997578084,True,15,1,0,7
Y2-S2-062M21,1,129,PS,exp,29,↑,up,↑,0.6366078001447022,True,15,1,0,7
Y2-S2-062M21,1,130,PS,exp,47,←,left,←,0.8033950999379158,True,15,1,0,7
Y2-S2-062M21,1,131,PS,exp,49,↓,down,↓,0.7364996001124382,True,14,1,0,7
Y2-S2-062M21,1,132,PS,exp,30,↑,up,↑,0.7958182999864221,True,14,1,0,7
Y2-S2-062M21,1,133,PS,exp,32,→,right,→,0.5785559001378715,True,14,1,0,7
Y2-S2-062M21,1,134,PS,exp,44,↓,up,↑,0.6288363002240658,False,13,-1,1,8
Y2-S2-062M21,1,135,PS,exp,30,↑,up,↑,0.49980210000649095,True,14,-1,0,8
Y2-S2-062M21,1,136,PS,exp,25,←,right,→,0.490189999807626,False,14,-1,0,8
Y2-S2-062M21,1,137,PS,exp,37,→,right,→,0.5636583999730647,True,15,-1,0,8
Y2-S2-062M21,1,138,PS,exp,36,←,left,←,0.6322077997028828,True,15,-1,0,8
Y2-S2-062M21,1,139,PS,exp,42,↑,up,↑,0.45125359995290637,True,15,1,1,9
Y2-S2-062M21,1,140,PS,exp,40,→,right,→,0.4477833998389542,True,14,1,0,9
Y2-S2-062M21,1,141,PS,exp,40,↓,up,↑,0.7058815001510084,False,14,-1,1,10
Y2-S2-062M21,1,142,PS,exp,38,↑,up,↑,0.4649558002129197,True,15,-1,0,10
Y2-S2-062M21,1,143,PS,exp,37,→,right,→,0.42979610012844205,True,15,-1,0,10
Y2-S2-062M21,1,144,PS,exp,40,↑,up,↑,0.4323550998233259,True,15,1,1,11
Y2-S2-062M21,1,145,PS,exp,40,→,right,→,0.4976133997552097,True,14,1,0,11
Y2-S2-062M21,1,146,PS,exp,47,↑,up,↑,0.43592069996520877,True,14,1,0,11
Y2-S2-062M21,1,147,PS,exp,25,↓,down,↓,0.698826199863106,True,14,1,0,11
Y2-S2-062M21,1,148,PS,exp,45,→,right,→,0.5610980996862054,True,13,1,0,11
Y2-S2-062M21,1,149,PS,exp,39,←,left,←,0.5880379001609981,True,13,1,0,11
Y2-S2-062M21,1,150,PS,exp,41,→,right,→,0.46975749963894486,True,13,1,0,11
Y2-S2-062M21,1,151,PS,exp,27,↓,down,↓,0.6291149999015033,True,12,1,0,11
Y2-S2-062M21,1,152,PS,exp,27,→,right,→,0.7729872995987535,True,12,1,0,11
Y2-S2-062M21,1,153,PS,exp,42,←,left,←,0.7220562999136746,True,12,1,0,11
Y2-S2-062M21,1,154,PS,exp,45,↑,up,↑,0.6098666996695101,True,11,1,0,11
Y2-S2-062M21,1,155,PS,exp,45,←,left,←,0.6928759999573231,True,11,1,0,11
Y2-S2-062M21,1,156,PS,exp,38,→,right,→,0.48372510029003024,True,11,1,0,11
Y2-S2-062M21,1,157,PS,exp,28,↓,down,↓,0.7733096000738442,True,10,1,0,11
Y2-S2-062M21,1,158,PS,exp,32,←,right,→,0.6706177997402847,False,10,-1,1,12
Y2-S2-062M21,1,159,PS,exp,30,→,right,→,0.5719667002558708,True,11,-1,0,12
Y2-S2-062M21,1,160,PS,exp,46,↓,down,↓,0.99653339991346,True,11,-1,0,12
Y2-S2-062M21,1,161,PS,exp,25,↑,up,↑,1.1870872001163661,True,11,1,1,13
Y2-S2-062M21,1,162,PS,exp,31,→,right,→,0.4495089999400079,True,10,1,0,13
Y2-S2-062M21,1,163,PS,exp,30,↑,up,↑,0.5230079996399581,True,10,1,0,13
Y2-S2-062M21,1,164,PS,exp,44,←,left,←,0.6298947003670037,True,10,1,0,13
Y2-S2-062M21,1,165,PS,exp,39,→,right,→,0.48055229987949133,True,9,1,0,13
Y2-S2-062M21,1,166,PS,exp,40,←,right,→,0.6960693998262286,False,9,-1,1,14
Y2-S2-062M21,1,167,PS,exp,29,↓,down,↓,0.8835368999280035,True,10,-1,0,14
Y2-S2-062M21,1,168,PS,exp,36,←,left,←,0.6413305997848511,True,10,-1,0,14
Y2-S2-062M21,1,169,PS,exp,41,↑,down,↓,0.7602124996483326,False,10,-1,0,14
Y2-S2-062M21,1,170,PS,exp,29,↓,down,↓,0.5577394003048539,True,11,-1,0,14
Y2-S2-062M21,1,171,PS,exp,44,↑,up,↑,0.9400872001424432,True,11,-1,0,14
Y2-S2-062M21,1,172,PS,exp,39,↓,up,↑,0.6048683999106288,False,11,-1,0,14
Y2-S2-062M21,1,173,PS,exp,34,→,left,←,0.7154784998856485,False,12,-1,0,14
Y2-S2-062M21,1,174,PS,exp,49,↓,down,↓,0.5187188000418246,True,13,-1,0,14
Y2-S2-062M21,1,175,PS,exp,31,←,left,←,0.7361082998104393,True,13,-1,0,14
Y2-S2-062M21,1,176,PS,exp,47,↓,down,↓,0.7287206002511084,True,13,1,1,15
Y2-S2-062M21,1,177,PS,exp,27,→,right,→,0.6164778000675142,True,12,1,0,15
Y2-S2-062M21,1,178,PS,exp,47,↓,down,↓,0.6680348999798298,True,12,1,0,15
Y2-S2-062M21,1,179,PS,exp,36,→,right,→,0.5441324999555945,True,12,1,0,15
Y2-S2-062M21,1,180,PS,exp,47,←,left,←,0.6579919997602701,True,11,1,0,15
Y2-S2-062M21,1,181,PS,exp,36,↓,right,→,0.8722051000222564,False,11,-1,1,16
Y2-S2-062M21,2,182,AS,intra_train,32,→,right,→,0.5402803001925349,True,19,-,-,-
Y2-S2-062M21,2,183,AS,intra_train,28,↑,right,→,1.0418507000431418,False,19,-,-,-
Y2-S2-062M21,2,184,AS,intra_train,36,←,left,←,0.5570461996831,True,19,-,-,-
Y2-S2-062M21,2,185,AS,intra_train,39,→,right,→,0.5647774999961257,True,19,-,-,-
Y2-S2-062M21,2,186,AS,intra_train,38,↓,down,↓,0.605417899787426,True,19,-,-,-
Y2-S2-062M21,2,187,AS,exp,39,←,right,→,1.0741500998847187,False,13,-1,0,0
Y2-S2-062M21,2,188,AS,exp,39,↑,up,↑,0.6248627998866141,True,14,-1,0,0
Y2-S2-062M21,2,189,AS,exp,38,→,right,→,0.4809654001146555,True,14,-1,0,0
Y2-S2-062M21,2,190,AS,exp,49,←,left,←,0.7852501999586821,True,14,1,1,1
Y2-S2-062M21,2,191,AS,exp,35,↓,right,→,0.9666211996227503,False,13,-1,1,2
Y2-S2-062M21,2,192,AS,exp,41,←,left,←,0.6494649001397192,True,14,-1,0,2
Y2-S2-062M21,2,193,AS,exp,48,↓,down,↓,0.6756384000182152,True,14,-1,0,2
Y2-S2-062M21,2,194,AS,exp,34,←,left,←,0.657623500097543,True,14,1,1,3
Y2-S2-062M21,2,195,AS,exp,49,↑,up,↑,0.6513722003437579,True,13,1,0,3
Y2-S2-062M21,2,196,AS,exp,29,→,left,←,0.8098245998844504,False,13,-1,1,4
Y2-S2-062M21,2,197,AS,exp,26,↓,down,↓,0.6834426000714302,True,14,-1,0,4
Y2-S2-062M21,2,198,AS,exp,45,↑,down,↓,1.0444797002710402,False,14,-1,0,4
Y2-S2-062M21,2,199,AS,exp,47,→,right,→,0.532432600390166,True,15,-1,0,4
Y2-S2-062M21,2,200,AS,exp,36,↓,up,↑,0.9248429001308978,False,15,-1,0,4
Y2-S2-062M21,2,201,AS,exp,45,↑,up,↑,0.5624663000926375,True,16,-1,0,4
Y2-S2-062M21,2,202,AS,exp,25,→,left,←,0.8482264000922441,False,16,-1,0,4
Y2-S2-062M21,2,203,AS,exp,33,↑,up,↑,0.5976788001134992,True,17,-1,0,4
Y2-S2-062M21,2,204,AS,exp,32,↓,down,↓,0.6981881000101566,True,17,-1,0,4
Y2-S2-062M21,2,205,AS,exp,34,→,right,→,0.6189695000648499,True,17,1,1,5
Y2-S2-062M21,2,206,AS,exp,26,↑,up,↑,0.6479555000551045,True,16,1,0,5
Y2-S2-062M21,2,207,AS,exp,33,→,left,←,0.9257467002607882,False,16,-1,1,6
Y2-S2-062M21,2,208,AS,exp,45,↑,up,↑,0.5479279002174735,True,17,-1,0,6
Y2-S2-062M21,2,209,AS,exp,41,↓,down,↓,0.6815683003515005,True,17,-1,0,6
Y2-S2-062M21,2,210,AS,exp,30,←,left,←,0.604904199950397,True,17,1,1,7
Y2-S2-062M21,2,211,AS,exp,47,→,left,←,0.7621889999136329,False,16,-1,1,8
Y2-S2-062M21,2,212,AS,exp,26,↑,up,↑,0.7197434003464878,True,17,-1,0,8
Y2-S2-062M21,2,213,AS,exp,48,↓,down,↓,0.7250767997466028,True,17,-1,0,8
Y2-S2-062M21,2,214,AS,exp,45,→,right,→,0.5411616996861994,True,17,1,1,9
Y2-S2-062M21,2,215,AS,exp,46,←,left,←,0.856317300349474,True,16,1,0,9
Y2-S2-062M21,2,216,AS,exp,32,↑,up,↑,0.6440735002979636,True,16,1,0,9
Y2-S2-062M21,2,217,AS,exp,33,↓,down,↓,0.7021506996825337,True,16,1,0,9
Y2-S2-062M21,2,218,AS,exp,39,←,left,←,0.9173861001618207,True,15,1,0,9
Y2-S2-062M21,2,219,AS,exp,38,→,left,←,0.7282747998833656,False,15,-1,1,10
Y2-S2-062M21,2,220,AS,exp,38,↓,down,↓,0.8031789003871381,True,16,-1,0,10
Y2-S2-062M21,2,221,AS,exp,41,→,right,→,0.6065540998242795,True,16,-1,0,10
Y2-S2-062M21,2,222,AS,exp,31,↑,up,↑,0.8063741000369191,True,16,1,1,11
Y2-S2-062M21,2,223,AS,exp,33,↓,up,↑,0.7488187002018094,False,15,-1,1,12
Y2-S2-062M21,2,224,AS,exp,27,→,right,→,0.4749751999042928,True,16,-1,0,12
Y2-S2-062M21,2,225,AS,exp,35,↓,down,↓,0.612073500175029,True,16,-1,0,12
Y2-S2-062M21,2,226,AS,exp,32,←,left,←,0.5567005998454988,True,16,1,1,13
Y2-S2-062M21,2,227,AS,exp,25,→,right,→,0.8010471998713911,True,15,1,0,13
Y2-S2-062M21,2,228,AS,exp,25,↑,up,↑,0.7531845001503825,True,15,1,0,13
Y2-S2-062M21,2,229,AS,exp,49,→,right,→,0.5721925999969244,True,15,1,0,13
Y2-S2-062M21,2,230,AS,exp,25,↑,up,↑,0.609906000085175,True,14,1,0,13
Y2-S2-062M21,2,231,AS,exp,28,↓,down,↓,0.7043407000601292,True,14,1,0,13
Y2-S2-062M21,2,232,AS,exp,47,↑,up,↑,0.6315628997981548,True,14,1,0,13
Y2-S2-062M21,2,233,AS,exp,41,↓,down,↓,0.746352500282228,True,13,1,0,13
Y2-S2-062M21,2,234,AS,exp,42,←,left,←,0.5440101004205644,True,13,1,0,13
Y2-S2-062M21,2,235,AS,exp,44,→,right,→,0.6114028003066778,True,13,1,0,13
Y2-S2-062M21,2,236,AS,exp,33,←,left,←,0.7096671001054347,True,12,1,0,13
Y2-S2-062M21,2,237,AS,exp,48,→,right,→,0.6252953000366688,True,12,1,0,13
Y2-S2-062M21,2,238,AS,exp,44,↓,down,↓,0.9958779998123646,True,12,1,0,13
Y2-S2-062M21,2,239,AS,exp,34,↑,down,↓,0.7227580999024212,False,11,-1,1,14
Y2-S2-062M21,2,240,AS,exp,26,←,left,←,0.6455203997902572,True,12,-1,0,14
Y2-S2-062M21,2,241,AS,exp,27,→,right,→,0.47619340009987354,True,12,-1,0,14
Y2-S2-062M21,2,242,AS,exp,48,↓,down,↓,0.6226007002405822,True,12,1,1,15
Y2-S2-062M21,2,243,AS,exp,25,→,right,→,0.5673573999665678,True,11,1,0,15
Y2-S2-062M21,2,244,AS,exp,28,←,left,←,1.3106974000111222,True,11,1,0,15
Y2-S2-062M21,2,245,AS,exp,33,↑,up,↑,0.8550816001370549,True,11,1,0,15
Y2-S2-062M21,2,246,AS,exp,33,→,right,→,0.8479863000102341,True,10,1,0,15
Y2-S2-062M21,2,247,AS,exp,48,↑,up,↑,0.5400500996038318,True,10,1,0,15
Y2-S2-062M21,2,248,AS,exp,31,→,right,→,0.7956787999719381,True,10,1,0,15
Y2-S2-062M21,2,249,AS,exp,34,↑,up,↑,0.6150525002740324,True,9,1,0,15
Y2-S2-062M21,2,250,AS,exp,26,→,up,↑,0.9469779003411531,False,9,-1,1,16
Y2-S2-062M21,3,251,AS,intra_train,35,↑,up,↑,0.5756410001777112,True,19,-,-,-
Y2-S2-062M21,3,252,AS,intra_train,30,↓,down,↓,0.6103944000788033,True,19,-,-,-
Y2-S2-062M21,3,253,AS,intra_train,37,↑,up,↑,0.7522044000215828,True,19,-,-,-
Y2-S2-062M21,3,254,AS,intra_train,39,→,right,→,0.6060982998460531,True,19,-,-,-
Y2-S2-062M21,3,255,AS,intra_train,43,↑,up,↑,0.7902179998345673,True,19,-,-,-
Y2-S2-062M21,3,256,AS,exp,30,→,left,←,0.5474942997097969,False,13,-1,0,0
Y2-S2-062M21,3,257,AS,exp,31,↑,up,↑,0.5632015001028776,True,14,-1,0,0
Y2-S2-062M21,3,258,AS,exp,39,←,left,←,0.4680690998211503,True,14,-1,0,0
Y2-S2-062M21,3,259,AS,exp,28,→,left,←,0.7783693997189403,False,14,-1,0,0
Y2-S2-062M21,3,260,AS,exp,41,↓,down,↓,0.7458673999644816,True,15,-1,0,0
Y2-S2-062M21,3,261,AS,exp,25,↑,up,↑,0.511311599984765,True,15,-1,0,0
Y2-S2-062M21,3,262,AS,exp,50,↓,down,↓,0.7148062000051141,True,15,1,1,1
Y2-S2-062M21,3,263,AS,exp,26,↑,down,↓,0.8832211997359991,False,14,-1,1,2
Y2-S2-062M21,3,264,AS,exp,28,↓,down,↓,0.8158162999898195,True,15,-1,0,2
Y2-S2-062M21,3,265,AS,exp,47,←,right,→,0.5757230999879539,False,15,-1,0,2
Y2-S2-062M21,3,266,AS,exp,27,↑,up,↑,0.8171393997035921,True,16,-1,0,2
Y2-S2-062M21,3,267,AS,exp,48,←,left,←,0.6198154999874532,True,16,-1,0,2
Y2-S2-062M21,3,268,AS,exp,38,↓,down,↓,0.7200166000984609,True,16,1,1,3
Y2-S2-062M21,3,269,AS,exp,41,←,left,←,0.5113597996532917,True,15,1,0,3
Y2-S2-062M21,3,270,AS,exp,38,↓,down,↓,0.6362124001607299,True,15,1,0,3
Y2-S2-062M21,3,271,AS,exp,33,↑,up,↑,1.205114800017327,True,15,1,0,3
Y2-S2-062M21,3,272,AS,exp,41,←,left,←,0.6525360001251101,True,14,1,0,3
Y2-S2-062M21,3,273,AS,exp,42,→,right,→,0.5695341001264751,True,14,1,0,3
Y2-S2-062M21,3,274,AS,exp,37,←,left,←,0.6214299998246133,True,14,1,0,3
Y2-S2-062M21,3,275,AS,exp,33,↑,down,↓,0.8519743997603655,False,13,-1,1,4
Y2-S2-062M21,3,276,AS,exp,48,→,right,→,0.5786383002996445,True,14,-1,0,4
Y2-S2-062M21,3,277,AS,exp,30,↓,up,↑,0.9166822000406682,False,14,-1,0,4
Y2-S2-062M21,3,278,AS,exp,35,←,left,←,0.6146265999414027,True,15,-1,0,4
Y2-S2-062M21,3,279,AS,exp,41,↓,down,↓,0.689406800083816,True,15,-1,0,4
Y2-S2-062M21,3,280,AS,exp,26,→,up,↑,1.2038301001302898,False,15,-1,0,4
Y2-S2-062M21,3,281,AS,exp,38,↑,up,↑,0.7126664002425969,True,16,-1,0,4
Y2-S2-062M21,3,282,AS,exp,37,→,right,→,0.8467374001629651,True,16,-1,0,4
Y2-S2-062M21,3,283,AS,exp,34,↓,down,↓,0.5979971997439861,True,16,1,1,5
Y2-S2-062M21,3,284,AS,exp,41,↑,right,→,1.0585010000504553,False,15,-1,1,6
Y2-S2-062M21,3,285,AS,exp,50,←,right,→,0.6899839998222888,False,16,-1,0,6
Y2-S2-062M21,3,286,AS,exp,41,↓,down,↓,0.6928476998582482,True,17,-1,0,6
Y2-S2-062M21,3,287,AS,exp,48,←,left,←,0.7048999997787178,True,17,-1,0,6
Y2-S2-062M21,3,288,AS,exp,50,↓,down,↓,0.7767453002743423,True,17,1,1,7
Y2-S2-062M21,3,289,AS,exp,38,←,left,←,0.6171954995952547,True,16,1,0,7
Y2-S2-062M21,3,290,AS,exp,32,→,right,→,0.660506300162524,True,16,1,0,7
Y2-S2-062M21,3,291,AS,exp,33,←,right,→,0.601433000061661,False,16,-1,1,8
Y2-S2-062M21,3,292,AS,exp,37,↓,down,↓,0.7943008998408914,True,17,-1,0,8
Y2-S2-062M21,3,293,AS,exp,31,→,right,→,0.6864020000211895,True,17,-1,0,8
Y2-S2-062M21,3,294,AS,exp,50,↓,down,↓,0.6191686000674963,True,17,1,1,9
Y2-S2-062M21,3,295,AS,exp,36,→,right,→,0.6900383001193404,True,16,1,0,9
Y2-S2-062M21,3,296,AS,exp,28,←,right,→,0.7736196001060307,False,16,-1,1,10
Y2-S2-062M21,3,297,AS,exp,38,↓,down,↓,0.68363819969818,True,17,-1,0,10
Y2-S2-062M21,3,298,AS,exp,46,→,right,→,0.6788230002857745,True,17,-1,0,10
Y2-S2-062M21,3,299,AS,exp,40,↓,down,↓,0.6860147998668253,True,17,1,1,11
Y2-S2-062M21,3,300,AS,exp,32,↑,down,↓,1.0422338000498712,False,16,-1,1,12
Y2-S2-062M21,3,301,AS,exp,38,→,right,→,1.9169947002083063,True,17,-1,0,12
Y2-S2-062M21,3,302,AS,exp,33,↑,up,↑,0.5964688998647034,True,17,-1,0,12
Y2-S2-062M21,3,303,AS,exp,50,↓,down,↓,0.6728546000085771,True,17,1,1,13
Y2-S2-062M21,3,304,AS,exp,48,→,right,→,0.6397211998701096,True,16,1,0,13
Y2-S2-062M21,3,305,AS,exp,36,↓,down,↓,0.6521683996543288,True,16,1,0,13
Y2-S2-062M21,3,306,AS,exp,38,←,down,↓,0.6548617999069393,False,16,-1,1,14
Y2-S2-062M21,3,307,AS,exp,44,↑,up,↑,0.7798055000603199,True,17,-1,0,14
Y2-S2-062M21,3,308,AS,exp,39,←,left,←,0.6628669002093375,True,17,-1,0,14
Y2-S2-062M21,3,309,AS,exp,29,→,left,←,0.682710399851203,False,17,-1,0,14
Y2-S2-062M21,3,310,AS,exp,25,←,left,←,0.7485016998834908,True,18,-1,0,14
Y2-S2-062M21,3,311,AS,exp,32,↓,down,↓,0.7360176998190582,True,18,-1,0,14
Y2-S2-062M21,3,312,AS,exp,44,→,left,←,0.6237931000068784,False,18,-1,0,14
Y2-S2-062M21,3,313,AS,exp,27,↑,up,↑,0.9197231000289321,True,19,-1,0,14
Y2-S2-062M21,3,314,AS,exp,41,→,right,→,0.700450399890542,True,19,-1,0,14
Y2-S2-062M21,3,315,AS,exp,43,↑,right,→,0.7101989001967013,False,19,-1,0,14
Y2-S2-062M21,3,316,AS,exp,38,↓,down,↓,0.7568264999426901,True,20,-1,0,14
Y2-S2-062M21,3,317,AS,exp,50,→,right,→,0.9922342002391815,True,20,-1,0,14
Y2-S2-062M21,3,318,AS,exp,41,←,left,←,0.5485660000704229,True,20,1,1,15
Y2-S2-062M21,3,319,AS,exp,27,→,right,→,1.0392570002004504,True,19,1,0,15
Y2-S2-062M21,3,320,AS,exp,42,←,left,←,0.7060138001106679,True,19,1,0,15
Y2-S2-062M21,3,321,AS,exp,43,↓,right,→,0.7683131997473538,False,19,-1,1,16
Y2-S2-062M21,4,322,PS,intra_train,49,←,left,←,0.6778429998084903,True,18,-,-,-
Y2-S2-062M21,4,323,PS,intra_train,33,↓,down,↓,0.6721095000393689,True,18,-,-,-
Y2-S2-062M21,4,324,PS,intra_train,34,↑,up,↑,0.526607499923557,True,18,-,-,-
Y2-S2-062M21,4,325,PS,intra_train,45,←,left,←,0.5405215998180211,True,18,-,-,-
Y2-S2-062M21,4,326,PS,intra_train,28,↓,up,↑,0.7890029000118375,False,18,-,-,-
Y2-S2-062M21,4,327,PS,exp,45,↑,up,↑,0.5082598999142647,True,12,0,0,0
Y2-S2-062M21,4,328,PS,exp,32,↓,down,↓,0.7534531997516751,True,12,0,0,0
Y2-S2-062M21,4,329,PS,exp,47,↑,up,↑,0.4977808999828994,True,12,1,0,0
Y2-S2-062M21,4,330,PS,exp,42,→,right,→,0.6697329999879003,True,11,1,0,0
Y2-S2-062M21,4,331,PS,exp,25,↓,down,↓,0.704742600210011,True,11,1,0,0
Y2-S2-062M21,4,332,PS,exp,27,↑,up,↑,0.5762827000580728,True,11,1,0,0
Y2-S2-062M21,4,333,PS,exp,34,↓,up,↑,0.5454106000252068,False,10,-1,1,1
Y2-S2-062M21,4,334,PS,exp,48,→,right,→,0.6447698003612459,True,11,-1,0,1
Y2-S2-062M21,4,335,PS,exp,33,↑,right,→,0.9072475000284612,False,11,-1,0,1
Y2-S2-062M21,4,336,PS,exp,30,↓,down,↓,0.7711474001407623,True,12,-1,0,1
Y2-S2-062M21,4,337,PS,exp,38,→,right,→,0.5180048001930118,True,12,-1,0,1
Y2-S2-062M21,4,338,PS,exp,25,←,right,→,1.3543069995939732,False,12,-1,0,1
Y2-S2-062M21,4,339,PS,exp,28,↓,right,→,0.6963110999204218,False,13,-1,0,1
Y2-S2-062M21,4,340,PS,exp,35,↑,up,↑,0.6355559001676738,True,14,-1,0,1
Y2-S2-062M21,4,341,PS,exp,40,↓,up,↑,0.7393569000996649,False,14,-1,0,1
Y2-S2-062M21,4,342,PS,exp,39,←,left,←,0.5334649998694658,True,15,-1,0,1
Y2-S2-062M21,4,343,PS,exp,43,→,right,→,0.5418981998227537,True,15,-1,0,1
Y2-S2-062M21,4,344,PS,exp,32,←,left,←,0.6219123001210392,True,15,1,1,2
Y2-S2-062M21,4,345,PS,exp,44,↓,down,↓,0.7295824000611901,True,14,1,0,2
Y2-S2-062M21,4,346,PS,exp,43,→,right,→,0.47085019992664456,True,14,1,0,2
Y2-S2-062M21,4,347,PS,exp,25,←,right,→,0.8451361004263163,False,14,-1,1,3
Y2-S2-062M21,4,348,PS,exp,37,→,right,→,0.7371904999017715,True,15,-1,0,3
Y2-S2-062M21,4,349,PS,exp,32,↓,down,↓,0.7365785003639758,True,15,-1,0,3
Y2-S2-062M21,4,350,PS,exp,39,→,down,↓,0.9467275999486446,False,15,-1,0,3
Y2-S2-062M21,4,351,PS,exp,47,↑,up,↑,0.7826819997280836,True,16,-1,0,3
Y2-S2-062M21,4,352,PS,exp,46,→,right,→,0.6618377002887428,True,16,-1,0,3
Y2-S2-062M21,4,353,PS,exp,27,←,right,→,1.320106599945575,False,16,-1,0,3
Y2-S2-062M21,4,354,PS,exp,36,→,right,→,0.4988835998810828,True,17,-1,0,3
Y2-S2-062M21,4,355,PS,exp,45,↓,down,↓,0.8053929000161588,True,17,-1,0,3
Y2-S2-062M21,4,356,PS,exp,39,↑,up,↑,0.6661517000757158,True,17,1,1,4
Y2-S2-062M21,4,357,PS,exp,32,↓,up,↑,1.3777517997659743,False,16,-1,1,5
Y2-S2-062M21,4,358,PS,exp,34,→,right,→,0.6221268000081182,True,17,-1,0,5
Y2-S2-062M21,4,359,PS,exp,47,↑,down,↓,1.323140799999237,False,17,-1,0,5
Y2-S2-062M21,4,360,PS,exp,30,←,left,←,0.6985323997214437,True,18,-1,0,5
Y2-S2-062M21,4,361,PS,exp,28,↓,left,←,1.6909615001641214,False,18,-1,0,5
Y2-S2-062M21,4,362,PS,exp,39,←,right,→,0.789359699934721,False,19,-1,0,5
Y2-S2-062M21,4,363,PS,exp,45,↓,right,→,1.3916012002155185,False,20,-1,0,5
Y2-S2-062M21,4,364,PS,exp,46,↑,up,↑,0.722397199831903,True,21,-1,0,5
Y2-S2-062M21,4,365,PS,exp,25,←,left,←,0.6745155998505652,True,21,-1,0,5
Y2-S2-062M21,4,366,PS,exp,34,→,up,↑,0.9554772996343672,False,21,-1,0,5
Y2-S2-062M21,4,367,PS,exp,40,↑,right,→,0.8877066997811198,False,22,-1,0,5
Y2-S2-062M21,4,368,PS,exp,35,←,left,←,0.7199222999624908,True,23,-1,0,5
Y2-S2-062M21,4,369,PS,exp,32,↓,no_key,no_letter,-1.0,False,23,-1,0,5
Y2-S2-062M21,4,370,PS,exp,50,→,no_key,no_letter,-1.0,False,24,-1,0,5
Y2-S2-062M21,4,371,PS,exp,43,←,left,←,1.0531313000246882,True,25,-1,0,5
Y2-S2-062M21,4,372,PS,exp,39,↑,up,↑,0.4841192997992039,True,25,-1,0,5
Y2-S2-062M21,4,373,PS,exp,43,→,right,→,0.6362311998382211,True,25,1,1,6
Y2-S2-062M21,4,374,PS,exp,49,←,left,←,0.6470914999954402,True,24,1,0,6
Y2-S2-062M21,4,375,PS,exp,33,→,right,→,0.4340512999333441,True,24,1,0,6
Y2-S2-062M21,4,376,PS,exp,38,↓,down,↓,0.6068644998595119,True,24,1,0,6
Y2-S2-062M21,4,377,PS,exp,43,→,right,→,0.4840672998689115,True,23,1,0,6
Y2-S2-062M21,4,378,PS,exp,40,↓,down,↓,0.6668151998892426,True,23,1,0,6
Y2-S2-062M21,4,379,PS,exp,40,↑,up,↑,0.6284336000680923,True,23,1,0,6
Y2-S2-062M21,4,380,PS,exp,36,↓,down,↓,0.5893341000191867,True,22,1,0,6
Y2-S2-062M21,4,381,PS,exp,42,←,left,←,0.8437554999254644,True,22,1,0,6
Y2-S2-062M21,4,382,PS,exp,26,↑,up,↑,0.7460463000461459,True,22,1,0,6
Y2-S2-062M21,4,383,PS,exp,42,↓,down,↓,0.5453054001554847,True,21,1,0,6
Y2-S2-062M21,4,384,PS,exp,47,↑,up,↑,0.6754830996505916,True,21,1,0,6
Y2-S2-062M21,4,385,PS,exp,27,←,right,→,0.5309231001883745,False,21,-1,1,7
Y2-S2-062M21,4,386,PS,exp,31,↓,up,↑,0.920238499995321,False,22,-1,0,7
Y2-S2-062M21,4,387,PS,exp,42,↑,up,↑,0.6551116001792252,True,23,-1,0,7
Y2-S2-062M21,4,388,PS,exp,33,←,left,←,1.3132013999857008,True,23,-1,0,7
Y2-S2-062M21,4,389,PS,exp,50,↓,down,↓,1.0816065999679267,True,23,1,1,8
Y2-S2-062M21,4,390,PS,exp,50,↑,up,↑,0.5947082000784576,True,22,1,0,8
Y2-S2-062M21,4,391,PS,exp,30,→,right,→,0.6184546002186835,True,22,1,0,8
Y2-S2-062M21,4,392,PS,exp,30,↑,up,↑,0.7419992997311056,True,22,1,0,8
Y2-S2-062M21,4,393,PS,exp,40,→,right,→,0.45073259994387627,True,21,1,0,8
Y2-S2-062M21,4,394,PS,exp,36,↑,up,↑,0.6866647000424564,True,21,1,0,8
Y2-S2-062M21,4,395,PS,exp,29,↓,up,↑,1.4047881998121738,False,21,-1,1,9
Y2-S2-062M21,4,396,PS,exp,40,←,left,←,0.5777183999307454,True,22,-1,0,9
Y2-S2-062M21,4,397,PS,exp,33,→,left,←,1.0735801002010703,False,22,-1,0,9
Y2-S2-062M21,4,398,PS,exp,29,↑,up,↑,0.6562044997699559,True,23,-1,0,9
Y2-S2-062M21,4,399,PS,exp,26,→,right,→,0.4839881001971662,True,23,-1,0,9
Y2-S2-062M21,4,400,PS,exp,34,↑,up,↑,1.2255302001722157,True,23,1,1,10
Y2-S2-062M21,4,401,PS,exp,42,←,right,→,0.9740673000924289,False,22,-1,1,11
Y2-S2-062M21,4,402,PS,exp,41,↓,down,↓,0.8553780000656843,True,23,-1,0,11
Y2-S2-062M21,4,403,PS,exp,25,←,right,→,1.3036567000672221,False,23,-1,0,11
Y2-S2-062M21,4,404,PS,exp,49,→,right,→,0.5173357003368437,True,24,-1,0,11
Y2-S2-062M21,4,405,PS,exp,32,↑,right,→,0.9493089998140931,False,24,-1,0,11
Y2-S2-062M21,4,406,PS,exp,44,←,left,←,0.669692300260067,True,25,-1,0,11
Y2-S2-062M21,4,407,PS,exp,42,↑,up,↑,0.7601832002401352,True,25,-1,0,11
Y2-S2-062M21,4,408,PS,exp,45,↓,up,↑,0.8096765000373125,False,25,-1,0,11
Y2-S2-062M21,4,409,PS,exp,40,→,right,→,0.720936699770391,True,26,-1,0,11
Y2-S2-062M21,4,410,PS,exp,38,↑,up,↑,0.7447338998317719,True,26,-1,0,11
Y2-S2-062M21,4,411,PS,exp,49,→,right,→,0.7364460998214781,True,26,1,1,12
Y2-S2-062M21,4,412,PS,exp,29,←,left,←,0.6567595996893942,True,25,1,0,12
Y2-S2-062M21,4,413,PS,exp,27,→,right,→,0.500420999713242,True,25,1,0,12
Y2-S2-062M21,4,414,PS,exp,50,↓,down,↓,0.6114103002473712,True,25,1,0,12
Y2-S2-062M21,4,415,PS,exp,28,↑,up,↑,0.6497298995964229,True,24,1,0,12
Y2-S2-062M21,4,416,PS,exp,47,←,left,←,0.6331598004326224,True,24,1,0,12
Y2-S2-062M21,4,417,PS,exp,42,→,right,→,0.6733313002623618,True,24,1,0,12
Y2-S2-062M21,4,418,PS,exp,39,←,left,←,0.679265100043267,True,23,1,0,12
Y2-S2-062M21,4,419,PS,exp,36,→,right,→,0.7108954000286758,True,23,1,0,12
Y2-S2-062M21,4,420,PS,exp,31,↑,up,↑,0.7533871000632644,True,23,1,0,12
Y2-S2-062M21,4,421,PS,exp,33,↓,down,↓,0.7158293998800218,True,22,1,0,12
Y2-S2-062M21,4,422,PS,exp,40,←,left,←,0.5009734998457134,True,22,1,0,12
Y2-S2-062M21,4,423,PS,exp,34,↓,down,↓,1.2509885001927614,True,22,1,0,12
Y2-S2-062M21,4,424,PS,exp,32,↑,up,↑,0.6128665995784104,True,21,1,0,12
Y2-S2-062M21,4,425,PS,exp,35,←,left,←,0.8780398000963032,True,21,1,0,12
Y2-S2-062M21,4,426,PS,exp,42,→,right,→,0.7461469997651875,True,21,1,0,12
Y2-S2-062M21,4,427,PS,exp,40,↑,up,↑,0.7630226002074778,True,20,1,0,12
Y2-S2-062M21,4,428,PS,exp,38,→,right,→,0.8611045000143349,True,20,1,0,12
Y2-S2-062M21,4,429,PS,exp,28,↓,right,→,1.0192665001377463,False,20,-1,1,13
Y2-S2-062M21,4,430,PS,exp,25,←,left,←,0.660408599767834,True,21,-1,0,13
Y2-S2-062M21,4,431,PS,exp,34,↓,down,↓,0.8299126997590065,True,21,-1,0,13
Y2-S2-062M21,4,432,PS,exp,40,←,left,←,0.9396168002858758,True,21,1,1,14
Y2-S2-062M21,4,433,PS,exp,33,↓,down,↓,0.5842581000179052,True,20,1,0,14
Y2-S2-062M21,4,434,PS,exp,33,→,up,↑,1.1785009000450373,False,20,-1,1,15
Y2-S2-062M21,4,435,PS,exp,35,↑,right,→,0.8798185996711254,False,21,-1,0,15
Y2-S2-062M21,4,436,PS,exp,46,←,left,←,0.5382591998204589,True,22,-1,0,15
Y2-S2-062M21,4,437,PS,exp,28,→,right,→,0.7950960001908243,True,22,-1,0,15
Y2-S2-062M21,4,438,PS,exp,28,↑,up,↑,0.8906787000596523,True,22,1,1,16
Y2-S2-062M21,5,439,PS,intra_train,47,→,right,→,0.5172342001460493,True,18,-,-,-
Y2-S2-062M21,5,440,PS,intra_train,38,↓,up,↑,0.6735172998160124,False,18,-,-,-
Y2-S2-062M21,5,441,PS,intra_train,26,→,right,→,0.5601907996460795,True,18,-,-,-
Y2-S2-062M21,5,442,PS,intra_train,41,←,left,←,0.6180541999638081,True,18,-,-,-
Y2-S2-062M21,5,443,PS,intra_train,38,→,right,→,0.4682224001735449,True,18,-,-,-
Y2-S2-062M21,5,444,PS,exp,47,↑,up,↑,1.6457076002843678,True,12,0,0,0
Y2-S2-062M21,5,445,PS,exp,39,←,left,←,0.5645868997089565,True,12,0,0,0
Y2-S2-062M21,5,446,PS,exp,36,↓,down,↓,0.7691619000397623,True,12,1,0,0
Y2-S2-062M21,5,447,PS,exp,37,↑,down,↓,0.9651717999950051,False,11,-1,1,1
Y2-S2-062M21,5,448,PS,exp,31,→,right,→,0.5764470999129117,True,12,-1,0,1
Y2-S2-062M21,5,449,PS,exp,41,←,left,←,0.9939353000372648,True,12,-1,0,1
Y2-S2-062M21,5,450,PS,exp,37,↑,up,↑,0.53673359984532,True,12,1,1,2
Y2-S2-062M21,5,451,PS,exp,44,↓,down,↓,0.8813420999795198,True,11,1,0,2
Y2-S2-062M21,5,452,PS,exp,36,←,left,←,1.0139900003559887,True,11,1,0,2
Y2-S2-062M21,5,453,PS,exp,38,↓,down,↓,0.6463780999183655,True,11,1,0,2
Y2-S2-062M21,5,454,PS,exp,39,←,left,←,0.6458856002427638,True,10,1,0,2
Y2-S2-062M21,5,455,PS,exp,48,→,right,→,0.467191300354898,True,10,1,0,2
Y2-S2-062M21,5,456,PS,exp,27,↓,down,↓,1.0172219998203218,True,10,1,0,2
Y2-S2-062M21,5,457,PS,exp,39,←,left,←,0.6524426001124084,True,9,1,0,2
Y2-S2-062M21,5,458,PS,exp,42,→,right,→,0.5323014999739826,True,9,1,0,2
Y2-S2-062M21,5,459,PS,exp,34,↑,up,↑,0.6450891001150012,True,9,1,0,2
Y2-S2-062M21,5,460,PS,exp,43,→,right,→,0.4588159001432359,True,8,1,0,2
Y2-S2-062M21,5,461,PS,exp,27,←,right,→,0.6376808998174965,False,8,-1,1,3
Y2-S2-062M21,5,462,PS,exp,33,↓,down,↓,0.6688355999067426,True,9,-1,0,3
Y2-S2-062M21,5,463,PS,exp,36,↑,down,↓,0.7046105996705592,False,9,-1,0,3
Y2-S2-062M21,5,464,PS,exp,26,↓,down,↓,1.1633935999125242,True,10,-1,0,3
Y2-S2-062M21,5,465,PS,exp,32,↑,up,↑,0.5525372000411153,True,10,-1,0,3
Y2-S2-062M21,5,466,PS,exp,26,→,left,←,0.6860449002124369,False,10,-1,0,3
Y2-S2-062M21,5,467,PS,exp,29,←,left,←,0.6085268999449909,True,11,-1,0,3
Y2-S2-062M21,5,468,PS,exp,41,↑,up,↑,0.5392466997727752,True,11,-1,0,3
Y2-S2-062M21,5,469,PS,exp,40,←,left,←,0.5538677000440657,True,11,1,1,4
Y2-S2-062M21,5,470,PS,exp,46,↓,down,↓,0.7021054998040199,True,10,1,0,4
Y2-S2-062M21,5,471,PS,exp,40,←,left,←,0.5487668998539448,True,10,1,0,4
Y2-S2-062M21,5,472,PS,exp,28,↑,left,←,0.8559191999956965,False,10,-1,1,5
Y2-S2-062M21,5,473,PS,exp,36,←,left,←,0.473184899892658,True,11,-1,0,5
Y2-S2-062M21,5,474,PS,exp,33,→,right,→,0.5287902001291513,True,11,-1,0,5
Y2-S2-062M21,5,475,PS,exp,27,↑,left,←,0.6839771000668406,False,11,-1,0,5
Y2-S2-062M21,5,476,PS,exp,49,→,right,→,0.5091082998551428,True,12,-1,0,5
Y2-S2-062M21,5,477,PS,exp,39,↓,down,↓,0.5451074000447989,True,12,-1,0,5
Y2-S2-062M21,5,478,PS,exp,33,→,right,→,0.659789000172168,True,12,1,1,6
Y2-S2-062M21,5,479,PS,exp,31,↑,up,↑,0.9217635001987219,True,11,1,0,6
Y2-S2-062M21,5,480,PS,exp,36,←,left,←,0.550052700098604,True,11,1,0,6
Y2-S2-062M21,5,481,PS,exp,40,↑,up,↑,0.6590724000707269,True,11,1,0,6
Y2-S2-062M21,5,482,PS,exp,25,→,left,←,0.8288544001989067,False,10,-1,1,7
Y2-S2-062M21,5,483,PS,exp,38,←,left,←,0.6470142998732626,True,11,-1,0,7
Y2-S2-062M21,5,484,PS,exp,43,→,right,→,0.6532828002236784,True,11,-1,0,7
Y2-S2-062M21,5,485,PS,exp,31,↓,left,←,0.7214230000972748,False,11,-1,0,7
Y2-S2-062M21,5,486,PS,exp,38,←,left,←,0.5451018000021577,True,12,-1,0,7
Y2-S2-062M21,5,487,PS,exp,38,↓,left,←,0.7059792000800371,False,12,-1,0,7
Y2-S2-062M21,5,488,PS,exp,37,←,right,→,0.6372917001135647,False,13,-1,0,7
Y2-S2-062M21,5,489,PS,exp,43,↓,down,↓,0.7623156998306513,True,14,-1,0,7
Y2-S2-062M21,5,490,PS,exp,34,←,left,←,0.6776359998621047,True,14,-1,0,7
Y2-S2-062M21,5,491,PS,exp,47,↑,no_key,no_letter,-1.0,False,14,-1,0,7
Y2-S2-062M21,5,492,PS,exp,31,→,right,→,0.4565872997045517,True,15,-1,0,7
Y2-S2-062M21,5,493,PS,exp,36,↓,down,↓,0.7380721000954509,True,15,-1,0,7
Y2-S2-062M21,5,494,PS,exp,35,↑,down,↓,0.7526969998143613,False,15,-1,0,7
Y2-S2-062M21,5,495,PS,exp,39,→,right,→,0.5117788999341428,True,16,-1,0,7
Y2-S2-062M21,5,496,PS,exp,46,↓,down,↓,0.8417453998699784,True,16,-1,0,7
Y2-S2-062M21,5,497,PS,exp,25,←,right,→,0.7845951998606324,False,16,-1,0,7
Y2-S2-062M21,5,498,PS,exp,39,↓,down,↓,0.7915234002284706,True,17,-1,0,7
Y2-S2-062M21,5,499,PS,exp,43,↑,up,↑,0.7732414002530277,True,17,-1,0,7
Y2-S2-062M21,5,500,PS,exp,39,↓,down,↓,0.7441476001404226,True,17,1,1,8
Y2-S2-062M21,5,501,PS,exp,46,→,no_key,no_letter,-1.0,False,16,-1,1,9
Y2-S2-062M21,5,502,PS,exp,43,↑,up,↑,0.9040095000527799,True,17,-1,0,9
Y2-S2-062M21,5,503,PS,exp,25,←,right,→,0.5431066998280585,False,17,-1,0,9
Y2-S2-062M21,5,504,PS,exp,31,↓,down,↓,0.6365604000166059,True,18,-1,0,9
Y2-S2-062M21,5,505,PS,exp,47,←,left,←,0.4823871999979019,True,18,-1,0,9
Y2-S2-062M21,5,506,PS,exp,41,→,right,→,0.8187019000761211,True,18,1,1,10
Y2-S2-062M21,5,507,PS,exp,41,←,left,←,0.45571749983355403,True,17,1,0,10
Y2-S2-062M21,5,508,PS,exp,33,→,right,→,0.8852269998751581,True,17,1,0,10
Y2-S2-062M21,5,509,PS,exp,50,↓,down,↓,0.5992720001377165,True,17,1,0,10
Y2-S2-062M21,5,510,PS,exp,27,←,left,←,0.5687878001481295,True,16,1,0,10
Y2-S2-062M21,5,511,PS,exp,38,→,right,→,0.4769434998743236,True,16,1,0,10
Y2-S2-062M21,5,512,PS,exp,41,↑,up,↑,0.5762037998065352,True,16,1,0,10
Y2-S2-062M21,5,513,PS,exp,38,←,left,←,0.49702300038188696,True,15,1,0,10
Y2-S2-062M21,5,514,PS,exp,34,↑,down,↓,1.2105312999337912,False,15,-1,1,11
Y2-S2-062M21,5,515,PS,exp,44,→,right,→,0.678687300067395,True,16,-1,0,11
Y2-S2-062M21,5,516,PS,exp,33,←,right,→,0.6635660002939403,False,16,-1,0,11
Y2-S2-062M21,5,517,PS,exp,38,↑,up,↑,0.9545783000066876,True,17,-1,0,11
Y2-S2-062M21,5,518,PS,exp,32,↓,down,↓,0.8584668003022671,True,17,-1,0,11
Y2-S2-062M21,5,519,PS,exp,50,↑,right,→,0.9897243999876082,False,17,-1,0,11
Y2-S2-062M21,5,520,PS,exp,44,→,no_key,no_letter,-1.0,False,18,-1,0,11
Y2-S2-062M21,5,521,PS,exp,43,←,left,←,0.5694428998976946,True,19,-1,0,11
Y2-S2-062M21,5,522,PS,exp,36,→,right,→,0.5675268997438252,True,19,-1,0,11
Y2-S2-062M21,5,523,PS,exp,50,←,left,←,0.5414100997149944,True,19,1,1,12
Y2-S2-062M21,5,524,PS,exp,40,→,right,→,0.6140389000065625,True,18,1,0,12
Y2-S2-062M21,5,525,PS,exp,38,↑,up,↑,0.8938175002112985,True,18,1,0,12
Y2-S2-062M21,5,526,PS,exp,37,→,right,→,0.5640529002994299,True,18,1,0,12
Y2-S2-062M21,5,527,PS,exp,40,↑,up,↑,0.5723464000038803,True,17,1,0,12
Y2-S2-062M21,5,528,PS,exp,40,←,left,←,0.7807846996001899,True,17,1,0,12
Y2-S2-062M21,5,529,PS,exp,40,↑,up,↑,0.4693033001385629,True,17,1,0,12
Y2-S2-062M21,5,530,PS,exp,42,←,up,↑,1.2269313000142574,False,16,-1,1,13
Y2-S2-062M21,5,531,PS,exp,31,↑,up,↑,0.5564966001547873,True,17,-1,0,13
Y2-S2-062M21,5,532,PS,exp,37,↓,up,↑,0.6464366000145674,False,17,-1,0,13
Y2-S2-062M21,5,533,PS,exp,42,←,left,←,0.6529624001123011,True,18,-1,0,13
Y2-S2-062M21,5,534,PS,exp,31,↑,left,←,1.2619547001086175,False,18,-1,0,13
Y2-S2-062M21,5,535,PS,exp,39,→,right,→,0.879927400033921,True,19,-1,0,13
Y2-S2-062M21,5,536,PS,exp,36,←,left,←,1.4289509998634458,True,19,-1,0,13
Y2-S2-062M21,5,537,PS,exp,28,↓,down,↓,0.7984099998138845,True,19,1,1,14
Y2-S2-062M21,5,538,PS,exp,28,←,left,←,0.748496700078249,True,18,1,0,14
Y2-S2-062M21,5,539,PS,exp,44,↓,down,↓,0.6950254999101162,True,18,1,0,14
Y2-S2-062M21,5,540,PS,exp,26,→,right,→,0.519019200000912,True,18,1,0,14
Y2-S2-062M21,5,541,PS,exp,50,←,left,←,0.580347599927336,True,17,1,0,14
Y2-S2-062M21,5,542,PS,exp,29,↑,up,↑,0.5428498997353017,True,17,1,0,14
Y2-S2-062M21,5,543,PS,exp,40,↓,down,↓,0.701159399934113,True,17,1,0,14
Y2-S2-062M21,5,544,PS,exp,42,↑,up,↑,0.8786337999626994,True,16,1,0,14
Y2-S2-062M21,5,545,PS,exp,45,→,down,↓,1.0413500997237861,False,16,-1,1,15
Y2-S2-062M21,5,546,PS,exp,37,←,left,←,0.88143640011549,True,17,-1,0,15
Y2-S2-062M21,5,547,PS,exp,47,↓,no_key,no_letter,-1.0,False,17,-1,0,15
Y2-S2-062M21,5,548,PS,exp,33,→,right,→,0.7623697998933494,True,18,-1,0,15
Y2-S2-062M21,5,549,PS,exp,32,←,left,←,0.6872996999882162,True,18,-1,0,15
Y2-S2-062M21,5,550,PS,exp,30,↑,up,↑,0.5983091997914016,True,18,1,1,16
Y2-S2-062M21,6,551,AS,intra_train,32,←,left,←,0.6064583002589643,True,19,-,-,-
Y2-S2-062M21,6,552,AS,intra_train,44,↑,left,←,0.9891514000482857,False,19,-,-,-
Y2-S2-062M21,6,553,AS,intra_train,35,→,right,→,0.6319861998781562,True,19,-,-,-
Y2-S2-062M21,6,554,AS,intra_train,41,↓,down,↓,0.6205040998756886,True,19,-,-,-
Y2-S2-062M21,6,555,AS,intra_train,30,←,left,←,0.5455985995940864,True,19,-,-,-
Y2-S2-062M21,6,556,AS,exp,41,→,right,→,0.487096699886024,True,13,0,0,0
Y2-S2-062M21,6,557,AS,exp,42,↓,down,↓,0.7333912001922727,True,13,0,0,0
Y2-S2-062M21,6,558,AS,exp,41,→,right,→,0.5369096999056637,True,13,1,0,0
Y2-S2-062M21,6,559,AS,exp,45,↓,down,↓,0.6443738001398742,True,12,1,0,0
Y2-S2-062M21,6,560,AS,exp,42,→,right,→,0.5126510998234153,True,12,1,0,0
Y2-S2-062M21,6,561,AS,exp,26,↑,down,↓,0.6832634997554123,False,12,-1,1,1
Y2-S2-062M21,6,562,AS,exp,49,↓,down,↓,0.6564330998808146,True,13,-1,0,1
Y2-S2-062M21,6,563,AS,exp,47,←,down,↓,0.7732282998040318,False,13,-1,0,1
Y2-S2-062M21,6,564,AS,exp,43,↓,down,↓,0.5657460000365973,True,14,-1,0,1
Y2-S2-062M21,6,565,AS,exp,31,←,left,←,0.5788070997223258,True,14,-1,0,1
Y2-S2-062M21,6,566,AS,exp,43,↓,down,↓,0.6353865000419319,True,14,1,1,2
Y2-S2-062M21,6,567,AS,exp,33,←,left,←,0.5368216000497341,True,13,1,0,2
Y2-S2-062M21,6,568,AS,exp,27,↑,up,↑,0.710693399887532,True,13,1,0,2
Y2-S2-062M21,6,569,AS,exp,43,←,up,↑,0.8836551997810602,False,13,-1,1,3
Y2-S2-062M21,6,570,AS,exp,38,↓,down,↓,0.6175748999230564,True,14,-1,0,3
Y2-S2-062M21,6,571,AS,exp,28,↑,up,↑,1.026273800060153,True,14,-1,0,3
Y2-S2-062M21,6,572,AS,exp,29,→,right,→,0.5206578997895122,True,14,1,1,4
Y2-S2-062M21,6,573,AS,exp,45,↓,down,↓,0.7133522997610271,True,13,1,0,4
Y2-S2-062M21,6,574,AS,exp,39,→,right,→,0.6112945000641048,True,13,1,0,4
Y2-S2-062M21,6,575,AS,exp,37,↓,down,↓,0.6678980998694897,True,13,1,0,4
Y2-S2-062M21,6,576,AS,exp,38,→,right,→,0.4826282998546958,True,12,1,0,4
Y2-S2-062M21,6,577,AS,exp,42,↓,down,↓,0.56146389991045,True,12,1,0,4
Y2-S2-062M21,6,578,AS,exp,46,←,left,←,0.5888495999388397,True,12,1,0,4
Y2-S2-062M21,6,579,AS,exp,29,↓,down,↓,0.5734280999749899,True,11,1,0,4
Y2-S2-062M21,6,580,AS,exp,50,↑,up,↑,0.7408451000228524,True,11,1,0,4
Y2-S2-062M21,6,581,AS,exp,37,↓,down,↓,0.7747531002387404,True,11,1,0,4
Y2-S2-062M21,6,582,AS,exp,35,→,right,→,0.5034818998537958,True,10,1,0,4
Y2-S2-062M21,6,583,AS,exp,38,↑,up,↑,0.5363084999844432,True,10,1,0,4
Y2-S2-062M21,6,584,AS,exp,28,↓,up,↑,0.6513977996073663,False,10,-1,1,5
Y2-S2-062M21,6,585,AS,exp,31,→,left,←,0.5387253002263606,False,11,-1,0,5
Y2-S2-062M21,6,586,AS,exp,42,↓,down,↓,0.5350211998447776,True,12,-1,0,5
Y2-S2-062M21,6,587,AS,exp,38,↑,no_key,no_letter,-1.0,False,12,-1,0,5
Y2-S2-062M21,6,588,AS,exp,35,↓,down,↓,0.600747600197792,True,13,-1,0,5
Y2-S2-062M21,6,589,AS,exp,49,→,right,→,0.5478261997923255,True,13,-1,0,5
Y2-S2-062M21,6,590,AS,exp,35,↑,up,↑,0.6722868997603655,True,13,1,1,6
Y2-S2-062M21,6,591,AS,exp,32,→,right,→,0.4688585000112653,True,12,1,0,6
Y2-S2-062M21,6,592,AS,exp,35,↑,up,↑,0.6327221998944879,True,12,1,0,6
Y2-S2-062M21,6,593,AS,exp,39,↓,down,↓,0.7157561001367867,True,12,1,0,6
Y2-S2-062M21,6,594,AS,exp,36,→,right,→,0.5258022001944482,True,11,1,0,6
Y2-S2-062M21,6,595,AS,exp,41,↑,right,→,0.7487580999732018,False,11,-1,1,7
Y2-S2-062M21,6,596,AS,exp,29,←,right,→,0.5295063001103699,False,12,-1,0,7
Y2-S2-062M21,6,597,AS,exp,43,↓,down,↓,0.6813615001738071,True,13,-1,0,7
Y2-S2-062M21,6,598,AS,exp,47,←,left,←,0.5709613999351859,True,13,-1,0,7
Y2-S2-062M21,6,599,AS,exp,37,↑,down,↓,0.7451046002097428,False,13,-1,0,7
Y2-S2-062M21,6,600,AS,exp,30,↓,down,↓,0.8807271001860499,True,14,-1,0,7
Y2-S2-062M21,6,601,AS,exp,26,↑,up,↑,0.7846408998593688,True,14,-1,0,7
Y2-S2-062M21,6,602,AS,exp,34,↓,up,↑,0.686784100253135,False,14,-1,0,7
Y2-S2-062M21,6,603,AS,exp,40,←,down,↓,1.1697447001934052,False,15,-1,0,7
Y2-S2-062M21,6,604,AS,exp,45,↓,up,↑,0.8800487001426518,False,16,-1,0,7
Y2-S2-062M21,6,605,AS,exp,49,←,right,→,1.5128134000115097,False,17,-1,0,7
Y2-S2-062M21,6,606,AS,exp,47,↓,down,↓,0.7184154000133276,True,18,-1,0,7
Y2-S2-062M21,6,607,AS,exp,43,→,right,→,0.6094081001356244,True,18,-1,0,7
Y2-S2-062M21,6,608,AS,exp,25,↓,down,↓,0.7408755999058485,True,18,1,1,8
Y2-S2-062M21,6,609,AS,exp,44,→,right,→,0.672404000069946,True,17,1,0,8
Y2-S2-062M21,6,610,AS,exp,46,↑,up,↑,0.8216889998875558,True,17,1,0,8
Y2-S2-062M21,6,611,AS,exp,28,↓,down,↓,0.7665894995443523,True,17,1,0,8
Y2-S2-062M21,6,612,AS,exp,34,←,right,→,0.7609985996969044,False,16,-1,1,9
Y2-S2-062M21,6,613,AS,exp,50,↑,up,↑,0.7902326001785696,True,17,-1,0,9
Y2-S2-062M21,6,614,AS,exp,42,→,up,↑,1.7348958002403378,False,17,-1,0,9
Y2-S2-062M21,6,615,AS,exp,45,↑,up,↑,0.561013599857688,True,18,-1,0,9
Y2-S2-062M21,6,616,AS,exp,28,→,right,→,0.6563797001726925,True,18,-1,0,9
Y2-S2-062M21,6,617,AS,exp,47,↓,down,↓,0.7534047001972795,True,18,1,1,10
Y2-S2-062M21,6,618,AS,exp,33,←,left,←,1.378122199792415,True,17,1,0,10
Y2-S2-062M21,6,619,AS,exp,44,↓,down,↓,0.7126859002746642,True,17,1,0,10
Y2-S2-062M21,6,620,AS,exp,36,←,up,↑,1.159184199757874,False,17,-1,1,11
Y2-S2-062M21,6,621,AS,exp,36,↑,up,↑,0.651694200001657,True,18,-1,0,11
Y2-S2-062M21,6,622,AS,exp,40,↓,right,→,0.7412817999720573,False,18,-1,0,11
Y2-S2-062M21,6,623,AS,exp,49,↑,up,↑,0.904401000123471,True,19,-1,0,11
Y2-S2-062M21,6,624,AS,exp,25,→,right,→,0.6825085999444127,True,19,-1,0,11
Y2-S2-062M21,6,625,AS,exp,48,←,no_key,no_letter,-1.0,False,19,-1,0,11
Y2-S2-062M21,6,626,AS,exp,41,↑,up,↑,0.6673380001448095,True,20,-1,0,11
Y2-S2-062M21,6,627,AS,exp,38,↓,down,↓,0.6445603999309242,True,20,-1,0,11
Y2-S2-062M21,6,628,AS,exp,38,↑,up,↑,0.7296655997633934,True,20,1,1,12
Y2-S2-062M21,6,629,AS,exp,38,←,left,←,0.6213524998165667,True,19,1,0,12
Y2-S2-062M21,6,630,AS,exp,38,↑,left,←,0.9956485000438988,False,19,-1,1,13
Y2-S2-062M21,6,631,AS,exp,47,←,left,←,0.655118300113827,True,20,-1,0,13
Y2-S2-062M21,6,632,AS,exp,32,↓,up,↑,0.667274400126189,False,20,-1,0,13
Y2-S2-062M21,6,633,AS,exp,31,←,left,←,0.7355055999942124,True,21,-1,0,13
Y2-S2-062M21,6,634,AS,exp,46,→,left,←,1.2670726999640465,False,21,-1,0,13
Y2-S2-062M21,6,635,AS,exp,27,↓,down,↓,0.8462577001191676,True,22,-1,0,13
Y2-S2-062M21,6,636,AS,exp,40,←,down,↓,1.2207283996976912,False,22,-1,0,13
Y2-S2-062M21,6,637,AS,exp,49,↓,down,↓,0.7043691999278963,True,23,-1,0,13
Y2-S2-062M21,6,638,AS,exp,46,↑,up,↑,0.7531993999145925,True,23,-1,0,13
Y2-S2-062M21,6,639,AS,exp,38,←,left,←,0.5847486997954547,True,23,1,1,14
Y2-S2-062M21,6,640,AS,exp,28,→,right,→,0.6427671001292765,True,22,1,0,14
Y2-S2-062M21,6,641,AS,exp,35,↓,up,↑,0.6966766999103129,False,22,-1,1,15
Y2-S2-062M21,6,642,AS,exp,36,→,right,→,0.5006017000414431,True,23,-1,0,15
Y2-S2-062M21,6,643,AS,exp,44,↓,left,←,1.6138471001759171,False,23,-1,0,15
Y2-S2-062M21,6,644,AS,exp,34,←,left,←,0.6558880000375211,True,24,-1,0,15
Y2-S2-062M21,6,645,AS,exp,40,↓,down,↓,0.6981247998774052,True,24,-1,0,15
Y2-S2-062M21,6,646,AS,exp,35,←,left,←,0.7728355997242033,True,24,1,1,16
Y2-S2-062M21,7,647,AS,intra_train,35,→,right,→,0.5469263000413775,True,19,-,-,-
Y2-S2-062M21,7,648,AS,intra_train,29,↓,down,↓,0.534617000259459,True,19,-,-,-
Y2-S2-062M21,7,649,AS,intra_train,49,→,right,→,0.525522300042212,True,19,-,-,-
Y2-S2-062M21,7,650,AS,intra_train,33,↑,up,↑,0.5244158999994397,True,19,-,-,-
Y2-S2-062M21,7,651,AS,intra_train,25,↓,down,↓,0.7085684998892248,True,19,-,-,-
Y2-S2-062M21,7,652,AS,exp,28,→,right,→,1.4906915999017656,True,13,0,0,0
Y2-S2-062M21,7,653,AS,exp,33,↓,down,↓,0.6770867998711765,True,13,0,0,0
Y2-S2-062M21,7,654,AS,exp,31,↑,down,↓,0.7014498999342322,False,13,-1,0,0
Y2-S2-062M21,7,655,AS,exp,44,←,up,↑,1.0425760000944138,False,14,-1,0,0
Y2-S2-062M21,7,656,AS,exp,29,→,right,→,0.9636963000521064,True,15,-1,0,0
Y2-S2-062M21,7,657,AS,exp,35,←,left,←,0.5068265004083514,True,15,-1,0,0
Y2-S2-062M21,7,658,AS,exp,48,↑,left,←,1.0479962998069823,False,15,-1,0,0
Y2-S2-062M21,7,659,AS,exp,49,←,left,←,0.47627370012924075,True,16,-1,0,0
Y2-S2-062M21,7,660,AS,exp,36,↓,down,↓,0.7824262003414333,True,16,-1,0,0
Y2-S2-062M21,7,661,AS,exp,27,↑,up,↑,1.0360399996861815,True,16,1,1,1
Y2-S2-062M21,7,662,AS,exp,25,←,up,↑,1.139187099877745,False,15,-1,1,2
Y2-S2-062M21,7,663,AS,exp,30,↑,no_key,no_letter,-1.0,False,16,-1,0,2
Y2-S2-062M21,7,664,AS,exp,49,→,right,→,0.622783999890089,True,17,-1,0,2
Y2-S2-062M21,7,665,AS,exp,48,↑,up,↑,0.7584794000722468,True,17,-1,0,2
Y2-S2-062M21,7,666,AS,exp,43,→,right,→,0.9794534002430737,True,17,1,1,3
Y2-S2-062M21,7,667,AS,exp,44,↓,down,↓,0.6175514999777079,True,16,1,0,3
Y2-S2-062M21,7,668,AS,exp,25,→,right,→,0.49043009988963604,True,16,1,0,3
Y2-S2-062M21,7,669,AS,exp,29,↓,down,↓,0.5631289002485573,True,16,1,0,3
Y2-S2-062M21,7,670,AS,exp,48,←,left,←,0.5151506001129746,True,15,1,0,3
Y2-S2-062M21,7,671,AS,exp,28,↓,no_key,no_letter,-1.0,False,15,-1,1,4
Y2-S2-062M21,7,672,AS,exp,28,↑,left,←,1.526333900168538,False,16,-1,0,4
Y2-S2-062M21,7,673,AS,exp,42,←,left,←,0.6075507001951337,True,17,-1,0,4
Y2-S2-062M21,7,674,AS,exp,33,→,left,←,0.6850214996375144,False,17,-1,0,4
Y2-S2-062M21,7,675,AS,exp,47,↓,right,→,1.0199305000714958,False,18,-1,0,4
Y2-S2-062M21,7,676,AS,exp,40,→,no_key,no_letter,-1.0,False,19,-1,0,4
Y2-S2-062M21,7,677,AS,exp,45,↓,down,↓,0.8046810999512672,True,20,-1,0,4
Y2-S2-062M21,7,678,AS,exp,48,↑,up,↑,0.7632282003760338,True,20,-1,0,4
Y2-S2-062M21,7,679,AS,exp,45,←,left,←,0.5909801004454494,True,20,1,1,5
Y2-S2-062M21,7,680,AS,exp,32,↑,up,↑,0.5570547999814153,True,19,1,0,5
Y2-S2-062M21,7,681,AS,exp,40,←,left,←,0.5096110003069043,True,19,1,0,5
Y2-S2-062M21,7,682,AS,exp,31,↓,up,↑,0.6530818999744952,False,19,-1,1,6
Y2-S2-062M21,7,683,AS,exp,47,←,right,→,0.579409800004214,False,20,-1,0,6
Y2-S2-062M21,7,684,AS,exp,45,↑,left,←,1.2827864000573754,False,21,-1,0,6
Y2-S2-062M21,7,685,AS,exp,47,→,right,→,0.6991528002545238,True,22,-1,0,6
Y2-S2-062M21,7,686,AS,exp,42,↓,no_key,no_letter,-1.0,False,22,-1,0,6
Y2-S2-062M21,7,687,AS,exp,37,↑,up,↑,0.6863820999860764,True,23,-1,0,6
Y2-S2-062M21,7,688,AS,exp,45,←,up,↑,1.2408191999420524,False,23,-1,0,6
Y2-S2-062M21,7,689,AS,exp,47,→,no_key,no_letter,-1.0,False,24,-1,0,6
Y2-S2-062M21,7,690,AS,exp,36,↓,up,↑,0.9123052000068128,False,25,-1,0,6
Y2-S2-062M21,7,691,AS,exp,43,→,right,→,0.5340227000415325,True,26,-1,0,6
Y2-S2-062M21,7,692,AS,exp,48,↑,up,↑,0.5333672002889216,True,26,-1,0,6
Y2-S2-062M21,7,693,AS,exp,26,↓,down,↓,0.7385375001467764,True,26,1,1,7
Y2-S2-062M21,7,694,AS,exp,28,↑,up,↑,0.6472530998289585,True,25,1,0,7
Y2-S2-062M21,7,695,AS,exp,35,←,left,←,0.5008775000460446,True,25,1,0,7
Y2-S2-062M21,7,696,AS,exp,38,→,right,→,0.6414564000442624,True,25,1,0,7
Y2-S2-062M21,7,697,AS,exp,39,←,left,←,0.7180269001983106,True,24,1,0,7
Y2-S2-062M21,7,698,AS,exp,31,→,right,→,0.6630277000367641,True,24,1,0,7
Y2-S2-062M21,7,699,AS,exp,31,↓,down,↓,0.9451764998957515,True,24,1,0,7
Y2-S2-062M21,7,700,AS,exp,34,↑,up,↑,1.001617300324142,True,23,1,0,7
Y2-S2-062M21,7,701,AS,exp,47,←,no_key,no_letter,-1.0,False,23,-1,1,8
Y2-S2-062M21,7,702,AS,exp,30,↓,down,↓,0.7268354999832809,True,24,-1,0,8
Y2-S2-062M21,7,703,AS,exp,32,←,left,←,0.6233664997853339,True,24,-1,0,8
Y2-S2-062M21,7,704,AS,exp,34,↑,up,↑,1.2057087002322078,True,24,1,1,9
Y2-S2-062M21,7,705,AS,exp,27,→,right,→,1.1208195998333395,True,23,1,0,9
Y2-S2-062M21,7,706,AS,exp,36,↑,up,↑,1.562487700022757,True,23,1,0,9
Y2-S2-062M21,7,707,AS,exp,38,←,up,↑,1.1129238000139594,False,23,-1,1,10
Y2-S2-062M21,7,708,AS,exp,44,↓,down,↓,1.1197689999826252,True,24,-1,0,10
Y2-S2-062M21,7,709,AS,exp,50,→,no_key,no_letter,-1.0,False,24,-1,0,10
Y2-S2-062M21,7,710,AS,exp,29,↓,no_key,no_letter,-1.0,False,25,-1,0,10
Y2-S2-062M21,7,711,AS,exp,27,→,right,→,0.1845696996897459,True,26,-1,0,10
Y2-S2-062M21,7,712,AS,exp,32,↑,up,↑,0.8454823000356555,True,26,-1,0,10
Y2-S2-062M21,7,713,AS,exp,40,←,no_key,no_letter,-1.0,False,26,-1,0,10
Y2-S2-062M21,7,714,AS,exp,34,↑,no_key,no_letter,-1.0,False,27,-1,0,10
Y2-S2-062M21,7,715,AS,exp,47,↓,down,↓,1.1087706997059286,True,28,-1,0,10
Y2-S2-062M21,7,716,AS,exp,48,←,no_key,no_letter,-1.0,False,28,-1,0,10
Y2-S2-062M21,7,717,AS,exp,38,→,right,→,0.9202723000198603,True,29,-1,0,10
Y2-S2-062M21,7,718,AS,exp,35,↓,down,↓,0.8911772998981178,True,29,-1,0,10
Y2-S2-062M21,7,719,AS,exp,42,→,right,→,0.8386598001234233,True,29,1,1,11
Y2-S2-062M21,7,720,AS,exp,27,↓,no_key,no_letter,-1.0,False,28,-1,1,12
Y2-S2-062M21,7,721,AS,exp,34,↑,no_key,no_letter,-1.0,False,29,-1,0,12
Y2-S2-062M21,7,722,AS,exp,42,↓,down,↓,0.8308359999209642,True,30,-1,0,12
Y2-S2-062M21,7,723,AS,exp,50,→,right,→,0.7036915998905897,True,30,-1,0,12
Y2-S2-062M21,7,724,AS,exp,48,←,left,←,0.6767818001098931,True,30,1,1,13
Y2-S2-062M21,7,725,AS,exp,44,↑,up,↑,0.8590576001442969,True,29,1,0,13
Y2-S2-062M21,7,726,AS,exp,37,←,left,←,0.5674266000278294,True,29,1,0,13
Y2-S2-062M21,7,727,AS,exp,46,→,no_key,no_letter,-1.0,False,29,-1,1,14
Y2-S2-062M21,7,728,AS,exp,43,↑,up,↑,1.097777800168842,True,30,-1,0,14
Y2-S2-062M21,7,729,AS,exp,50,→,right,→,0.468000499997288,True,30,-1,0,14
Y2-S2-062M21,7,730,AS,exp,44,↑,up,↑,1.2399643999524415,True,30,1,1,15
Y2-S2-062M21,7,731,AS,exp,28,→,right,→,0.551394899841398,True,29,1,0,15
Y2-S2-062M21,7,732,AS,exp,32,↓,down,↓,0.6838969001546502,True,29,1,0,15
Y2-S2-062M21,7,733,AS,exp,38,←,left,←,0.9894738998264074,True,29,1,0,15
Y2-S2-062M21,7,734,AS,exp,37,↓,down,↓,0.6008266997523606,True,28,1,0,15
Y2-S2-062M21,7,735,AS,exp,34,↑,up,↑,0.6983289001509547,True,28,1,0,15
Y2-S2-062M21,7,736,AS,exp,31,→,right,→,0.5842201998457313,True,28,1,0,15
Y2-S2-062M21,7,737,AS,exp,27,↓,right,→,0.8449312001466751,False,27,-1,1,16
Y2-S2-062M21,8,738,PS,intra_train,25,←,right,→,0.8137213001027703,False,18,-,-,-
Y2-S2-062M21,8,739,PS,intra_train,27,↓,down,↓,0.616705299820751,True,18,-,-,-
Y2-S2-062M21,8,740,PS,intra_train,40,←,left,←,0.5237209997139871,True,18,-,-,-
Y2-S2-062M21,8,741,PS,intra_train,36,↓,left,←,0.9148685000836849,False,18,-,-,-
Y2-S2-062M21,8,742,PS,intra_train,44,→,right,→,0.4851425997912884,True,18,-,-,-
Y2-S2-062M21,8,743,PS,exp,27,↓,down,↓,0.5875228000804782,True,12,0,0,0
Y2-S2-062M21,8,744,PS,exp,32,→,right,→,0.4828896000981331,True,12,0,0,0
Y2-S2-062M21,8,745,PS,exp,37,↓,down,↓,0.4995560999959707,True,12,1,0,0
Y2-S2-062M21,8,746,PS,exp,28,←,left,←,0.6097236997447908,True,11,1,0,0
Y2-S2-062M21,8,747,PS,exp,27,→,right,→,0.6867896998301148,True,11,1,0,0
Y2-S2-062M21,8,748,PS,exp,37,←,down,↓,0.5450546001084149,False,11,-1,1,1
Y2-S2-062M21,8,749,PS,exp,38,↓,right,→,0.6561951003968716,False,12,-1,0,1
Y2-S2-062M21,8,750,PS,exp,50,→,no_key,no_letter,-1.0,False,13,-1,0,1
Y2-S2-062M21,8,751,PS,exp,45,↓,down,↓,0.6807010998018086,True,14,-1,0,1
Y2-S2-062M21,8,752,PS,exp,28,←,left,←,0.6840553996153176,True,14,-1,0,1
Y2-S2-062M21,8,753,PS,exp,26,↑,left,←,0.8678651000373065,False,14,-1,0,1
Y2-S2-062M21,8,754,PS,exp,46,→,right,→,0.46429540030658245,True,15,-1,0,1
Y2-S2-062M21,8,755,PS,exp,25,↓,down,↓,0.5690365000627935,True,15,-1,0,1
Y2-S2-062M21,8,756,PS,exp,35,↑,up,↑,0.5677346000447869,True,15,1,1,2
Y2-S2-062M21,8,757,PS,exp,25,↓,down,↓,0.6051447000354528,True,14,1,0,2
Y2-S2-062M21,8,758,PS,exp,34,→,right,→,0.5233165002427995,True,14,1,0,2
Y2-S2-062M21,8,759,PS,exp,34,↓,down,↓,0.6214630999602377,True,14,1,0,2
Y2-S2-062M21,8,760,PS,exp,46,→,right,→,0.4781508999876678,True,13,1,0,2
Y2-S2-062M21,8,761,PS,exp,30,↓,down,↓,0.5611318000592291,True,13,1,0,2
Y2-S2-062M21,8,762,PS,exp,44,↑,right,→,0.6403075996786356,False,13,-1,1,3
Y2-S2-062M21,8,763,PS,exp,49,↓,down,↓,0.4783147000707686,True,14,-1,0,3
Y2-S2-062M21,8,764,PS,exp,49,→,right,→,0.43684040009975433,True,14,-1,0,3
Y2-S2-062M21,8,765,PS,exp,46,↑,up,↑,0.7480015000328422,True,14,1,1,4
Y2-S2-062M21,8,766,PS,exp,37,→,right,→,0.509549199603498,True,13,1,0,4
Y2-S2-062M21,8,767,PS,exp,47,↑,up,↑,0.5316802999004722,True,13,1,0,4
Y2-S2-062M21,8,768,PS,exp,30,→,right,→,0.5132649000734091,True,13,1,0,4
Y2-S2-062M21,8,769,PS,exp,30,↓,right,→,0.6010983004234731,False,12,-1,1,5
Y2-S2-062M21,8,770,PS,exp,35,←,left,←,0.5584760000929236,True,13,-1,0,5
Y2-S2-062M21,8,771,PS,exp,33,↓,down,↓,0.645509900059551,True,13,-1,0,5
Y2-S2-062M21,8,772,PS,exp,50,↑,up,↑,0.632420000154525,True,13,1,1,6
Y2-S2-062M21,8,773,PS,exp,31,←,left,←,0.5178282000124454,True,12,1,0,6
Y2-S2-062M21,8,774,PS,exp,37,→,right,→,0.5786418998613954,True,12,1,0,6
Y2-S2-062M21,8,775,PS,exp,49,↑,up,↑,0.5766272000037134,True,12,1,0,6
Y2-S2-062M21,8,776,PS,exp,42,←,up,↑,0.5923283998854458,False,11,-1,1,7
Y2-S2-062M21,8,777,PS,exp,39,↓,down,↓,0.7719578999094665,True,12,-1,0,7
Y2-S2-062M21,8,778,PS,exp,27,↑,up,↑,0.7643539002165198,True,12,-1,0,7
Y2-S2-062M21,8,779,PS,exp,43,↓,down,↓,0.7293273997493088,True,12,1,1,8
Y2-S2-062M21,8,780,PS,exp,29,↑,up,↑,0.7977560996077955,True,11,1,0,8
Y2-S2-062M21,8,781,PS,exp,35,→,right,→,0.6280360999517143,True,11,1,0,8
Y2-S2-062M21,8,782,PS,exp,41,←,left,←,0.7371347001753747,True,11,1,0,8
Y2-S2-062M21,8,783,PS,exp,37,→,left,←,0.6492781997658312,False,10,-1,1,9
Y2-S2-062M21,8,784,PS,exp,41,←,left,←,0.5468384996056557,True,11,-1,0,9
Y2-S2-062M21,8,785,PS,exp,25,↑,up,↑,0.5555531000718474,True,11,-1,0,9
Y2-S2-062M21,8,786,PS,exp,45,←,left,←,0.5800226000137627,True,11,1,1,10
Y2-S2-062M21,8,787,PS,exp,43,↓,up,↑,0.5921562002040446,False,10,-1,1,11
Y2-S2-062M21,8,788,PS,exp,36,↑,up,↑,0.6102031003683805,True,11,-1,0,11
Y2-S2-062M21,8,789,PS,exp,35,←,right,→,0.9290469000115991,False,11,-1,0,11
Y2-S2-062M21,8,790,PS,exp,34,↓,up,↑,0.8344723000191152,False,12,-1,0,11
Y2-S2-062M21,8,791,PS,exp,42,↑,up,↑,0.4829140999354422,True,13,-1,0,11
Y2-S2-062M21,8,792,PS,exp,39,←,left,←,0.6015755999833345,True,13,-1,0,11
Y2-S2-062M21,8,793,PS,exp,44,→,right,→,0.5292245000600815,True,13,1,1,12
Y2-S2-062M21,8,794,PS,exp,26,←,right,→,0.5990917002782226,False,12,-1,1,13
Y2-S2-062M21,8,795,PS,exp,44,↑,up,↑,0.5667604003101587,True,13,-1,0,13
Y2-S2-062M21,8,796,PS,exp,26,↓,right,→,0.6096439999528229,False,13,-1,0,13
Y2-S2-062M21,8,797,PS,exp,46,→,right,→,0.48664369992911816,True,14,-1,0,13
Y2-S2-062M21,8,798,PS,exp,40,↑,up,↑,0.6915156003087759,True,14,-1,0,13
Y2-S2-062M21,8,799,PS,exp,47,←,left,←,0.7011748999357224,True,14,1,1,14
Y2-S2-062M21,8,800,PS,exp,49,→,right,→,0.5199329000897706,True,13,1,0,14
Y2-S2-062M21,8,801,PS,exp,30,↑,right,→,0.728486499749124,False,13,-1,1,15
Y2-S2-062M21,8,802,PS,exp,30,↓,down,↓,0.7005246998742223,True,14,-1,0,15
Y2-S2-062M21,8,803,PS,exp,25,←,up,↑,0.7277932004071772,False,14,-1,0,15
Y2-S2-062M21,8,804,PS,exp,38,↓,down,↓,0.9011365999467671,True,15,-1,0,15
Y2-S2-062M21,8,805,PS,exp,28,→,right,→,0.7426322000101209,True,15,-1,0,15
Y2-S2-062M21,8,806,PS,exp,49,↓,down,↓,0.5983129995875061,True,15,1,1,16
