PART_ID,Block_no,Trial_no,Block_type,Trial_type,CSI,Stim_letter,Key_pressed,letter_choose,Rt,Corr,Stimulus Time,Level,Reversal,Revs_count
Y2-S2-022M27,1,1,PS,train,49,↓,down,↓,1.5843529000412673,True,30,-,-,-
Y2-S2-022M27,1,2,PS,train,36,←,left,←,0.6345249998848885,True,30,-,-,-
Y2-S2-022M27,1,3,PS,train,32,↓,down,↓,0.6845667001325637,True,30,-,-,-
Y2-S2-022M27,1,4,PS,train,28,←,left,←,0.6006391998380423,True,30,-,-,-
Y2-S2-022M27,1,5,PS,train,39,↓,down,↓,0.5504838998895139,True,30,-,-,-
Y2-S2-022M27,1,6,PS,train,47,↑,up,↑,0.6008677999489009,True,30,-,-,-
Y2-S2-022M27,1,7,PS,train,28,←,left,←,1.2908032000996172,True,30,-,-,-
Y2-S2-022M27,1,8,PS,train,39,↓,down,↓,1.3722870000638068,True,30,-,-,-
Y2-S2-022M27,1,9,PS,train,45,→,right,→,0.6173959001898766,True,30,-,-,-
Y2-S2-022M27,1,10,PS,train,32,↓,down,↓,0.5508651998825371,True,30,-,-,-
Y2-S2-022M27,2,11,AS,train,38,→,right,→,0.584413800155744,True,45,-,-,-
Y2-S2-022M27,2,12,AS,train,44,↑,up,↑,0.6514336001127958,True,45,-,-,-
Y2-S2-022M27,2,13,AS,train,36,→,right,→,0.6679410999640822,True,45,-,-,-
Y2-S2-022M27,2,14,AS,train,37,↑,up,↑,0.5011315001174808,True,45,-,-,-
Y2-S2-022M27,2,15,AS,train,48,←,left,←,0.7011875999160111,True,45,-,-,-
Y2-S2-022M27,2,16,AS,train,46,↓,down,↓,0.6846449000295252,True,45,-,-,-
Y2-S2-022M27,2,17,AS,train,39,→,right,→,0.5010454000439495,True,45,-,-,-
Y2-S2-022M27,2,18,AS,train,43,←,left,←,0.6510393999051303,True,45,-,-,-
Y2-S2-022M27,2,19,AS,train,28,→,left,←,0.4846762001980096,False,45,-,-,-
Y2-S2-022M27,2,20,AS,train,48,↑,up,↑,0.5511759999208152,True,45,-,-,-
Y2-S2-022M27,-,21,PS,adaptive,37,→,right,→,0.4281387999653816,True,10,0,0,0
Y2-S2-022M27,-,22,PS,adaptive,34,↓,down,↓,0.7961042001843452,True,10,0,0,0
Y2-S2-022M27,-,23,PS,adaptive,50,↑,down,↓,0.8311157000716776,False,10,-1,0,0
Y2-S2-022M27,-,24,PS,adaptive,28,↓,down,↓,0.7329985999967903,True,11,-1,0,0
Y2-S2-022M27,-,25,PS,adaptive,37,→,right,→,0.49478939990513027,True,11,-1,0,0
Y2-S2-022M27,-,26,PS,adaptive,36,↓,down,↓,0.7046954000834376,True,11,1,1,1
Y2-S2-022M27,-,27,PS,adaptive,43,→,left,←,0.9089484999421984,False,10,-1,1,2
Y2-S2-022M27,-,28,PS,adaptive,31,↑,up,↑,0.5901890997774899,True,11,-1,0,2
Y2-S2-022M27,-,29,PS,adaptive,37,↓,right,→,0.6420372000429779,False,11,-1,0,2
Y2-S2-022M27,-,30,PS,adaptive,47,→,right,→,0.46573449997231364,True,12,-1,0,2
Y2-S2-022M27,-,31,PS,adaptive,49,↑,up,↑,0.6743132001720369,True,12,-1,0,2
Y2-S2-022M27,-,32,PS,adaptive,50,→,right,→,0.4293325999751687,True,12,1,1,3
Y2-S2-022M27,-,33,PS,adaptive,40,↑,up,↑,0.520726399961859,True,11,1,0,3
Y2-S2-022M27,-,34,PS,adaptive,49,→,right,→,0.5666469999123365,True,11,1,0,3
Y2-S2-022M27,-,35,PS,adaptive,37,↓,left,←,0.6679277999792248,False,11,-1,1,4
Y2-S2-022M27,-,36,AS,adaptive,31,←,left,←,0.6291773000266403,True,20,0,0,0
Y2-S2-022M27,-,37,AS,adaptive,28,→,right,→,1.1723102999385446,True,20,0,0,0
Y2-S2-022M27,-,38,AS,adaptive,42,↓,down,↓,0.6650123000144958,True,20,1,0,0
Y2-S2-022M27,-,39,AS,adaptive,36,←,left,←,1.0465581000316888,True,19,1,0,0
Y2-S2-022M27,-,40,AS,adaptive,34,↓,up,↑,0.6067694001831114,False,19,-1,1,1
Y2-S2-022M27,-,41,AS,adaptive,43,←,left,←,0.617084400029853,True,20,-1,0,1
Y2-S2-022M27,-,42,AS,adaptive,29,↑,up,↑,0.9874740999657661,True,20,-1,0,1
Y2-S2-022M27,-,43,AS,adaptive,35,→,right,→,0.46705279988236725,True,20,1,1,2
Y2-S2-022M27,-,44,AS,adaptive,41,↑,up,↑,0.9668326999526471,True,19,1,0,2
Y2-S2-022M27,-,45,AS,adaptive,44,←,left,←,0.5342872999608517,True,19,1,0,2
Y2-S2-022M27,-,46,AS,adaptive,41,↑,up,↑,0.4507807001937181,True,19,1,0,2
Y2-S2-022M27,-,47,AS,adaptive,37,←,left,←,0.49457910005003214,True,18,1,0,2
Y2-S2-022M27,-,48,AS,adaptive,31,↓,down,↓,0.7525156999472529,True,18,1,0,2
Y2-S2-022M27,-,49,AS,adaptive,30,←,left,←,0.47688480000942945,True,18,1,0,2
Y2-S2-022M27,-,50,AS,adaptive,33,→,right,→,0.4880655000451952,True,17,1,0,2
Y2-S2-022M27,-,51,AS,adaptive,45,←,left,←,0.4998494000174105,True,17,1,0,2
Y2-S2-022M27,-,52,AS,adaptive,37,↓,down,↓,0.7135608999524266,True,17,1,0,2
Y2-S2-022M27,-,53,AS,adaptive,30,→,right,→,0.44856219994835556,True,16,1,0,2
Y2-S2-022M27,-,54,AS,adaptive,28,←,left,←,0.5411460001487285,True,16,1,0,2
Y2-S2-022M27,-,55,AS,adaptive,27,→,right,→,0.5572103001177311,True,16,1,0,2
Y2-S2-022M27,-,56,AS,adaptive,31,↓,down,↓,0.5976376000326127,True,15,1,0,2
Y2-S2-022M27,-,57,AS,adaptive,30,←,left,←,0.469412500038743,True,15,1,0,2
Y2-S2-022M27,-,58,AS,adaptive,48,↓,down,↓,0.5626930999569595,True,15,1,0,2
Y2-S2-022M27,-,59,AS,adaptive,37,→,right,→,0.40438119997270405,True,14,1,0,2
Y2-S2-022M27,-,60,AS,adaptive,35,↑,up,↑,0.5504844998940825,True,14,1,0,2
Y2-S2-022M27,-,61,AS,adaptive,33,→,right,→,0.5605015000328422,True,14,1,0,2
Y2-S2-022M27,-,62,AS,adaptive,46,↓,down,↓,0.6473461999557912,True,13,1,0,2
Y2-S2-022M27,-,63,AS,adaptive,27,→,right,→,0.5546864999923855,True,13,1,0,2
Y2-S2-022M27,-,64,AS,adaptive,26,↓,down,↓,0.5942762000486255,True,13,1,0,2
Y2-S2-022M27,-,65,AS,adaptive,44,↑,up,↑,0.5437692999839783,True,12,1,0,2
Y2-S2-022M27,-,66,AS,adaptive,48,←,right,→,0.4501632999163121,False,12,-1,1,3
Y2-S2-022M27,-,67,AS,adaptive,29,→,left,←,0.6693449998274446,False,13,-1,0,3
Y2-S2-022M27,-,68,AS,adaptive,32,↓,down,↓,0.5324270999990404,True,14,-1,0,3
Y2-S2-022M27,-,69,AS,adaptive,36,↑,up,↑,0.4243305998388678,True,14,-1,0,3
Y2-S2-022M27,-,70,AS,adaptive,31,→,right,→,0.5620158999226987,True,14,1,1,4
Y2-S2-022M27,1,71,AS,intra_train,34,↓,down,↓,0.6461837000679225,True,19,-,-,-
Y2-S2-022M27,1,72,AS,intra_train,34,←,left,←,0.5361870001070201,True,19,-,-,-
Y2-S2-022M27,1,73,AS,intra_train,49,↑,up,↑,1.0136949999723583,True,19,-,-,-
Y2-S2-022M27,1,74,AS,intra_train,28,→,left,←,0.5339971000794321,False,19,-,-,-
Y2-S2-022M27,1,75,AS,intra_train,50,↑,up,↑,0.4864900999236852,True,19,-,-,-
Y2-S2-022M27,1,76,AS,exp,28,↓,down,↓,0.7120660000946373,True,13,0,0,0
Y2-S2-022M27,1,77,AS,exp,45,←,left,←,0.5914027998223901,True,13,0,0,0
Y2-S2-022M27,1,78,AS,exp,43,↑,up,↑,0.4870992999058217,True,13,1,0,0
Y2-S2-022M27,1,79,AS,exp,34,→,right,→,0.4838696999941021,True,12,1,0,0
Y2-S2-022M27,1,80,AS,exp,31,↓,down,↓,0.7609474998898804,True,12,1,0,0
Y2-S2-022M27,1,81,AS,exp,28,→,right,→,0.6757406000979245,True,12,1,0,0
Y2-S2-022M27,1,82,AS,exp,37,←,left,←,0.5714885001070797,True,11,1,0,0
Y2-S2-022M27,1,83,AS,exp,26,→,right,→,0.42804210004396737,True,11,1,0,0
Y2-S2-022M27,1,84,AS,exp,27,↓,down,↓,0.6182710998691618,True,11,1,0,0
Y2-S2-022M27,1,85,AS,exp,38,←,left,←,1.0408065000083297,True,10,1,0,0
Y2-S2-022M27,1,86,AS,exp,29,↓,right,→,1.338525600032881,False,10,-1,1,1
Y2-S2-022M27,1,87,AS,exp,47,→,right,→,0.41394610004499555,True,11,-1,0,1
Y2-S2-022M27,1,88,AS,exp,48,←,left,←,0.4765604001004249,True,11,-1,0,1
Y2-S2-022M27,1,89,AS,exp,29,↑,left,←,0.8377404999919236,False,11,-1,0,1
Y2-S2-022M27,1,90,AS,exp,30,↓,down,↓,0.6084248998668045,True,12,-1,0,1
Y2-S2-022M27,1,91,AS,exp,33,→,right,→,0.38375179981812835,True,12,-1,0,1
Y2-S2-022M27,1,92,AS,exp,30,←,left,←,0.5626287998165935,True,12,1,1,2
Y2-S2-022M27,1,93,AS,exp,37,→,left,←,0.6647951998747885,False,11,-1,1,3
Y2-S2-022M27,1,94,AS,exp,33,↓,down,↓,0.54028240009211,True,12,-1,0,3
Y2-S2-022M27,1,95,AS,exp,38,→,right,→,0.4103515997994691,True,12,-1,0,3
Y2-S2-022M27,1,96,AS,exp,34,←,left,←,0.4850220999214798,True,12,1,1,4
Y2-S2-022M27,1,97,AS,exp,36,↑,up,↑,0.4423402000684291,True,11,1,0,4
Y2-S2-022M27,1,98,AS,exp,33,→,left,←,0.5883416999131441,False,11,-1,1,5
Y2-S2-022M27,1,99,AS,exp,47,←,right,→,0.43261439981870353,False,12,-1,0,5
Y2-S2-022M27,1,100,AS,exp,39,→,right,→,0.4172386999707669,True,13,-1,0,5
Y2-S2-022M27,1,101,AS,exp,46,↓,down,↓,0.5949687999673188,True,13,-1,0,5
Y2-S2-022M27,1,102,AS,exp,41,→,right,→,0.43032360007055104,True,13,1,1,6
Y2-S2-022M27,1,103,AS,exp,31,↓,down,↓,0.5886040998157114,True,12,1,0,6
Y2-S2-022M27,1,104,AS,exp,25,→,right,→,0.4256200999952853,True,12,1,0,6
Y2-S2-022M27,1,105,AS,exp,29,↑,up,↑,0.48679890017956495,True,12,1,0,6
Y2-S2-022M27,1,106,AS,exp,35,←,left,←,0.4102952000685036,True,11,1,0,6
Y2-S2-022M27,1,107,AS,exp,39,↓,down,↓,0.6610112001653761,True,11,1,0,6
Y2-S2-022M27,1,108,AS,exp,33,→,right,→,0.45934319985099137,True,11,1,0,6
Y2-S2-022M27,1,109,AS,exp,40,↑,up,↑,0.40773770003579557,True,10,1,0,6
Y2-S2-022M27,1,110,AS,exp,34,→,right,→,0.4898874000646174,True,10,1,0,6
Y2-S2-022M27,1,111,AS,exp,26,↑,up,↑,0.4066459001041949,True,10,1,0,6
Y2-S2-022M27,1,112,AS,exp,25,↓,up,↑,0.5110482999589294,False,9,-1,1,7
Y2-S2-022M27,1,113,AS,exp,25,→,right,→,0.5372101999819279,True,10,-1,0,7
Y2-S2-022M27,1,114,AS,exp,44,←,left,←,0.47830650000832975,True,10,-1,0,7
Y2-S2-022M27,1,115,AS,exp,34,→,right,→,0.5590729999821633,True,10,1,1,8
Y2-S2-022M27,1,116,AS,exp,27,←,left,←,0.602267999900505,True,9,1,0,8
Y2-S2-022M27,1,117,AS,exp,37,↓,down,↓,0.5965883999597281,True,9,1,0,8
Y2-S2-022M27,1,118,AS,exp,27,→,right,→,0.4595196000300348,True,9,1,0,8
Y2-S2-022M27,1,119,AS,exp,39,←,left,←,0.4426164999604225,True,8,1,0,8
Y2-S2-022M27,1,120,AS,exp,38,→,right,→,0.5961605000775307,True,8,1,0,8
Y2-S2-022M27,1,121,AS,exp,26,←,left,←,0.4959319999907166,True,8,1,0,8
Y2-S2-022M27,1,122,AS,exp,31,→,right,→,0.4928214999381453,True,7,1,0,8
Y2-S2-022M27,1,123,AS,exp,26,←,left,←,0.46271970006637275,True,7,1,0,8
Y2-S2-022M27,1,124,AS,exp,49,↓,down,↓,0.8128190999850631,True,7,1,0,8
Y2-S2-022M27,1,125,AS,exp,39,↑,left,←,0.7741824998520315,False,6,-1,1,9
Y2-S2-022M27,1,126,AS,exp,48,←,right,→,0.6332127000205219,False,7,-1,0,9
Y2-S2-022M27,1,127,AS,exp,37,↓,down,↓,0.6097899000160396,True,8,-1,0,9
Y2-S2-022M27,1,128,AS,exp,25,←,left,←,0.4486911001149565,True,8,-1,0,9
Y2-S2-022M27,1,129,AS,exp,25,↓,down,↓,0.5445702001452446,True,8,1,1,10
Y2-S2-022M27,1,130,AS,exp,37,↑,left,←,0.46050300006754696,False,7,-1,1,11
Y2-S2-022M27,1,131,AS,exp,30,←,down,↓,0.48310380009934306,False,8,-1,0,11
Y2-S2-022M27,1,132,AS,exp,50,↑,left,←,0.7574606998823583,False,9,-1,0,11
Y2-S2-022M27,1,133,AS,exp,44,↓,down,↓,0.5281613001134247,True,10,-1,0,11
Y2-S2-022M27,1,134,AS,exp,42,←,left,←,0.5226512001827359,True,10,-1,0,11
Y2-S2-022M27,1,135,AS,exp,48,↑,right,→,0.4882630999200046,False,10,-1,0,11
Y2-S2-022M27,1,136,AS,exp,36,↓,down,↓,0.5218692999333143,True,11,-1,0,11
Y2-S2-022M27,1,137,AS,exp,32,←,left,←,0.5497630001045763,True,11,-1,0,11
Y2-S2-022M27,1,138,AS,exp,43,↓,down,↓,0.5687061999924481,True,11,1,1,12
Y2-S2-022M27,1,139,AS,exp,44,→,right,→,0.43427999992854893,True,10,1,0,12
Y2-S2-022M27,1,140,AS,exp,45,↑,left,←,0.6337991000618786,False,10,-1,1,13
Y2-S2-022M27,1,141,AS,exp,41,→,right,→,0.5021960998419672,True,11,-1,0,13
Y2-S2-022M27,1,142,AS,exp,48,←,left,←,0.6330236000940204,True,11,-1,0,13
Y2-S2-022M27,1,143,AS,exp,38,↓,down,↓,1.3684035001788288,True,11,1,1,14
Y2-S2-022M27,1,144,AS,exp,43,↑,up,↑,0.5827424000017345,True,10,1,0,14
Y2-S2-022M27,1,145,AS,exp,41,←,left,←,0.40738600003533065,True,10,1,0,14
Y2-S2-022M27,1,146,AS,exp,37,→,right,→,0.6132648000493646,True,10,1,0,14
Y2-S2-022M27,1,147,AS,exp,27,↓,left,←,0.4509080999996513,False,9,-1,1,15
Y2-S2-022M27,1,148,AS,exp,33,←,left,←,0.516105999937281,True,10,-1,0,15
Y2-S2-022M27,1,149,AS,exp,40,↓,left,←,0.9567721001803875,False,10,-1,0,15
Y2-S2-022M27,1,150,AS,exp,49,←,left,←,0.43311770004220307,True,11,-1,0,15
Y2-S2-022M27,1,151,AS,exp,35,↓,left,←,0.034363900078460574,False,11,-1,0,15
Y2-S2-022M27,1,152,AS,exp,41,←,left,←,0.3339049001224339,True,12,-1,0,15
Y2-S2-022M27,1,153,AS,exp,25,↓,down,↓,0.5308979998808354,True,12,-1,0,15
Y2-S2-022M27,1,154,AS,exp,27,↑,up,↑,0.5508536000270396,True,12,1,1,16
Y2-S2-022M27,2,155,PS,intra_train,45,←,left,←,0.5408773000817746,True,18,-,-,-
Y2-S2-022M27,2,156,PS,intra_train,41,↑,up,↑,1.0156082001049072,True,18,-,-,-
Y2-S2-022M27,2,157,PS,intra_train,38,→,right,→,0.4678865000605583,True,18,-,-,-
Y2-S2-022M27,2,158,PS,intra_train,34,←,left,←,0.33409559982828796,True,18,-,-,-
Y2-S2-022M27,2,159,PS,intra_train,26,→,left,←,0.5227010999806225,False,18,-,-,-
Y2-S2-022M27,2,160,PS,exp,31,↓,down,↓,0.6212348998524249,True,12,0,0,0
Y2-S2-022M27,2,161,PS,exp,32,←,left,←,0.6659243998583406,True,12,0,0,0
Y2-S2-022M27,2,162,PS,exp,38,→,right,→,0.4889094000682235,True,12,1,0,0
Y2-S2-022M27,2,163,PS,exp,38,←,left,←,0.49781939992681146,True,11,1,0,0
Y2-S2-022M27,2,164,PS,exp,31,↑,up,↑,0.47345679998397827,True,11,1,0,0
Y2-S2-022M27,2,165,PS,exp,43,→,right,→,0.46815129998140037,True,11,1,0,0
Y2-S2-022M27,2,166,PS,exp,41,↑,up,↑,0.44603429990820587,True,10,1,0,0
Y2-S2-022M27,2,167,PS,exp,26,↓,left,←,0.6138200000859797,False,10,-1,1,1
Y2-S2-022M27,2,168,PS,exp,45,↑,up,↑,0.4117274999152869,True,11,-1,0,1
Y2-S2-022M27,2,169,PS,exp,36,↓,left,←,0.6869679000228643,False,11,-1,0,1
Y2-S2-022M27,2,170,PS,exp,43,↑,up,↑,0.4038690999150276,True,12,-1,0,1
Y2-S2-022M27,2,171,PS,exp,48,→,right,→,0.5004328999202698,True,12,-1,0,1
Y2-S2-022M27,2,172,PS,exp,34,↑,left,←,0.7102514000143856,False,12,-1,0,1
Y2-S2-022M27,2,173,PS,exp,43,↓,up,↑,0.4014818000141531,False,13,-1,0,1
Y2-S2-022M27,2,174,PS,exp,38,↑,up,↑,0.662583600031212,True,14,-1,0,1
Y2-S2-022M27,2,175,PS,exp,25,→,right,→,0.5585438997950405,True,14,-1,0,1
Y2-S2-022M27,2,176,PS,exp,36,↓,left,←,0.7555289000738412,False,14,-1,0,1
Y2-S2-022M27,2,177,PS,exp,48,↑,right,→,0.5837276000529528,False,15,-1,0,1
Y2-S2-022M27,2,178,PS,exp,33,↓,down,↓,0.766778799938038,True,16,-1,0,1
Y2-S2-022M27,2,179,PS,exp,34,←,left,←,0.6360655999742448,True,16,-1,0,1
Y2-S2-022M27,2,180,PS,exp,34,↓,down,↓,0.7709277998656034,True,16,1,1,2
Y2-S2-022M27,2,181,PS,exp,32,→,right,→,0.7259318002033979,True,15,1,0,2
Y2-S2-022M27,2,182,PS,exp,43,↓,down,↓,0.6669691998977214,True,15,1,0,2
Y2-S2-022M27,2,183,PS,exp,33,←,left,←,0.4413044999819249,True,15,1,0,2
Y2-S2-022M27,2,184,PS,exp,48,↑,up,↑,0.4392480000387877,True,14,1,0,2
Y2-S2-022M27,2,185,PS,exp,25,↓,down,↓,0.5532909000758082,True,14,1,0,2
Y2-S2-022M27,2,186,PS,exp,35,↑,up,↑,0.558000500081107,True,14,1,0,2
Y2-S2-022M27,2,187,PS,exp,50,←,left,←,0.46455320017412305,True,13,1,0,2
Y2-S2-022M27,2,188,PS,exp,28,→,down,↓,0.6654725999105722,False,13,-1,1,3
Y2-S2-022M27,2,189,PS,exp,42,↑,up,↑,0.48473590007051826,True,14,-1,0,3
Y2-S2-022M27,2,190,PS,exp,40,←,left,←,0.6351314999628812,True,14,-1,0,3
Y2-S2-022M27,2,191,PS,exp,49,↓,down,↓,0.7154109999537468,True,14,1,1,4
Y2-S2-022M27,2,192,PS,exp,38,↑,up,↑,0.6029415000230074,True,13,1,0,4
Y2-S2-022M27,2,193,PS,exp,33,↓,left,←,0.7612042999826372,False,13,-1,1,5
Y2-S2-022M27,2,194,PS,exp,41,↑,up,↑,0.5468508000485599,True,14,-1,0,5
Y2-S2-022M27,2,195,PS,exp,47,↓,right,→,0.6530883999075741,False,14,-1,0,5
Y2-S2-022M27,2,196,PS,exp,48,→,right,→,0.6953382999636233,True,15,-1,0,5
Y2-S2-022M27,2,197,PS,exp,35,↓,down,↓,0.7229116999078542,True,15,-1,0,5
Y2-S2-022M27,2,198,PS,exp,25,↑,down,↓,0.6903654998168349,False,15,-1,0,5
Y2-S2-022M27,2,199,PS,exp,38,←,left,←,0.5033523000311106,True,16,-1,0,5
Y2-S2-022M27,2,200,PS,exp,48,→,right,→,0.4547479001339525,True,16,-1,0,5
Y2-S2-022M27,2,201,PS,exp,30,↓,down,↓,0.6498283999972045,True,16,1,1,6
Y2-S2-022M27,2,202,PS,exp,43,→,right,→,0.4653167000506073,True,15,1,0,6
Y2-S2-022M27,2,203,PS,exp,39,←,left,←,0.4634802998043597,True,15,1,0,6
Y2-S2-022M27,2,204,PS,exp,34,↓,down,↓,0.45234469999559224,True,15,1,0,6
Y2-S2-022M27,2,205,PS,exp,27,↑,up,↑,0.5151818001177162,True,14,1,0,6
Y2-S2-022M27,2,206,PS,exp,47,↓,down,↓,0.4817037999164313,True,14,1,0,6
Y2-S2-022M27,2,207,PS,exp,31,→,right,→,0.47617579996585846,True,14,1,0,6
Y2-S2-022M27,2,208,PS,exp,25,←,left,←,0.5676510999910533,True,13,1,0,6
Y2-S2-022M27,2,209,PS,exp,48,↑,up,↑,0.433471699943766,True,13,1,0,6
Y2-S2-022M27,2,210,PS,exp,30,→,right,→,0.44206060003489256,True,13,1,0,6
Y2-S2-022M27,2,211,PS,exp,48,↑,up,↑,0.43625420005992055,True,12,1,0,6
Y2-S2-022M27,2,212,PS,exp,30,↓,down,↓,0.6945903999730945,True,12,1,0,6
Y2-S2-022M27,2,213,PS,exp,44,↑,up,↑,0.4168811999261379,True,12,1,0,6
Y2-S2-022M27,2,214,PS,exp,28,←,left,←,0.5089306000154465,True,11,1,0,6
Y2-S2-022M27,2,215,PS,exp,43,↑,up,↑,0.40087509993463755,True,11,1,0,6
Y2-S2-022M27,2,216,PS,exp,50,↓,down,↓,0.5521654000040144,True,11,1,0,6
Y2-S2-022M27,2,217,PS,exp,32,↑,up,↑,0.554812700022012,True,10,1,0,6
Y2-S2-022M27,2,218,PS,exp,50,←,left,←,0.48262410005554557,True,10,1,0,6
Y2-S2-022M27,2,219,PS,exp,35,↑,up,↑,0.6559069999493659,True,10,1,0,6
Y2-S2-022M27,2,220,PS,exp,35,↓,down,↓,0.6185580999590456,True,9,1,0,6
Y2-S2-022M27,2,221,PS,exp,36,→,right,→,0.5505038998089731,True,9,1,0,6
Y2-S2-022M27,2,222,PS,exp,34,←,left,←,0.44280780013650656,True,9,1,0,6
Y2-S2-022M27,2,223,PS,exp,46,↓,right,→,0.3480094999540597,False,8,-1,1,7
Y2-S2-022M27,2,224,PS,exp,41,←,left,←,0.4911801000125706,True,9,-1,0,7
Y2-S2-022M27,2,225,PS,exp,26,↓,down,↓,0.5391579000279307,True,9,-1,0,7
Y2-S2-022M27,2,226,PS,exp,32,←,left,←,0.38264019996859133,True,9,1,1,8
Y2-S2-022M27,2,227,PS,exp,33,↓,down,↓,0.5396779000293463,True,8,1,0,8
Y2-S2-022M27,2,228,PS,exp,47,→,left,←,0.5270535000599921,False,8,-1,1,9
Y2-S2-022M27,2,229,PS,exp,30,←,left,←,0.48054499994032085,True,9,-1,0,9
Y2-S2-022M27,2,230,PS,exp,44,↑,up,↑,0.7318724000360817,True,9,-1,0,9
Y2-S2-022M27,2,231,PS,exp,40,↓,down,↓,0.44669120013713837,True,9,1,1,10
Y2-S2-022M27,2,232,PS,exp,27,→,right,→,0.5102219998370856,True,8,1,0,10
Y2-S2-022M27,2,233,PS,exp,31,↓,down,↓,0.6079788999632001,True,8,1,0,10
Y2-S2-022M27,2,234,PS,exp,32,→,left,←,0.7083246000111103,False,8,-1,1,11
Y2-S2-022M27,2,235,PS,exp,45,←,left,←,0.44131179992109537,True,9,-1,0,11
Y2-S2-022M27,2,236,PS,exp,36,↓,down,↓,0.5398323000408709,True,9,-1,0,11
Y2-S2-022M27,2,237,PS,exp,37,→,right,→,0.4164231000468135,True,9,1,1,12
Y2-S2-022M27,2,238,PS,exp,47,↑,up,↑,0.6435696999542415,True,8,1,0,12
Y2-S2-022M27,2,239,PS,exp,32,↓,down,↓,0.4920850999187678,True,8,1,0,12
Y2-S2-022M27,2,240,PS,exp,34,↑,up,↑,0.6523456999566406,True,8,1,0,12
Y2-S2-022M27,2,241,PS,exp,25,→,right,→,0.3664815998636186,True,7,1,0,12
Y2-S2-022M27,2,242,PS,exp,45,↑,up,↑,0.4248687999788672,True,7,1,0,12
Y2-S2-022M27,2,243,PS,exp,29,→,left,←,0.5752940999809653,False,7,-1,1,13
Y2-S2-022M27,2,244,PS,exp,37,↓,down,↓,0.5290081999264657,True,8,-1,0,13
Y2-S2-022M27,2,245,PS,exp,43,←,left,←,0.40026260004378855,True,8,-1,0,13
Y2-S2-022M27,2,246,PS,exp,40,↓,down,↓,0.5893572000786662,True,8,1,1,14
Y2-S2-022M27,2,247,PS,exp,31,→,right,→,0.48543110000900924,True,7,1,0,14
Y2-S2-022M27,2,248,PS,exp,38,↓,down,↓,0.4942314000800252,True,7,1,0,14
Y2-S2-022M27,2,249,PS,exp,31,↑,right,→,0.6249549000058323,False,7,-1,1,15
Y2-S2-022M27,2,250,PS,exp,26,←,left,←,0.5192802001256496,True,8,-1,0,15
Y2-S2-022M27,2,251,PS,exp,33,→,right,→,0.43822739995084703,True,8,-1,0,15
Y2-S2-022M27,2,252,PS,exp,33,←,left,←,0.42123900004662573,True,8,1,1,16
Y2-S2-022M27,3,253,PS,intra_train,45,↓,down,↓,0.5446741001214832,True,18,-,-,-
Y2-S2-022M27,3,254,PS,intra_train,48,↑,left,←,1.819069700082764,False,18,-,-,-
Y2-S2-022M27,3,255,PS,intra_train,41,↓,down,↓,0.549614500021562,True,18,-,-,-
Y2-S2-022M27,3,256,PS,intra_train,41,←,left,←,1.093061399878934,True,18,-,-,-
Y2-S2-022M27,3,257,PS,intra_train,31,↑,up,↑,0.4745706000830978,True,18,-,-,-
Y2-S2-022M27,3,258,PS,exp,48,←,left,←,0.6120967001188546,True,12,0,0,0
Y2-S2-022M27,3,259,PS,exp,48,↓,down,↓,0.6521767999511212,True,12,0,0,0
Y2-S2-022M27,3,260,PS,exp,42,←,left,←,0.5431073000654578,True,12,1,0,0
Y2-S2-022M27,3,261,PS,exp,34,↓,down,↓,0.5281936000101268,True,11,1,0,0
Y2-S2-022M27,3,262,PS,exp,50,→,right,→,0.47556610009633005,True,11,1,0,0
Y2-S2-022M27,3,263,PS,exp,36,←,left,←,0.48554339981637895,True,11,1,0,0
Y2-S2-022M27,3,264,PS,exp,30,↓,down,↓,0.6501017999835312,True,10,1,0,0
Y2-S2-022M27,3,265,PS,exp,29,↑,up,↑,0.46717509999871254,True,10,1,0,0
Y2-S2-022M27,3,266,PS,exp,28,←,left,←,0.5214078000281006,True,10,1,0,0
Y2-S2-022M27,3,267,PS,exp,46,↓,down,↓,0.39980620006099343,True,9,1,0,0
Y2-S2-022M27,3,268,PS,exp,46,→,right,→,0.46186779998242855,True,9,1,0,0
Y2-S2-022M27,3,269,PS,exp,44,↑,up,↑,0.5003243000246584,True,9,1,0,0
Y2-S2-022M27,3,270,PS,exp,42,↓,up,↑,0.7779635998886079,False,8,-1,1,1
Y2-S2-022M27,3,271,PS,exp,28,↑,up,↑,0.46539400005713105,True,9,-1,0,1
Y2-S2-022M27,3,272,PS,exp,30,↓,down,↓,0.5678713000379503,True,9,-1,0,1
Y2-S2-022M27,3,273,PS,exp,28,←,left,←,0.4767050000373274,True,9,1,1,2
Y2-S2-022M27,3,274,PS,exp,36,↓,down,↓,0.5829449999146163,True,8,1,0,2
Y2-S2-022M27,3,275,PS,exp,46,↑,up,↑,0.4158554000314325,True,8,1,0,2
Y2-S2-022M27,3,276,PS,exp,42,↓,down,↓,0.5527440998703241,True,8,1,0,2
Y2-S2-022M27,3,277,PS,exp,37,↑,up,↑,0.47980099986307323,True,7,1,0,2
Y2-S2-022M27,3,278,PS,exp,30,→,right,→,0.5303364000283182,True,7,1,0,2
Y2-S2-022M27,3,279,PS,exp,26,←,left,←,0.5035477001219988,True,7,1,0,2
Y2-S2-022M27,3,280,PS,exp,28,↓,down,↓,0.545008199987933,True,6,1,0,2
Y2-S2-022M27,3,281,PS,exp,46,←,left,←,0.3708733001258224,True,6,1,0,2
Y2-S2-022M27,3,282,PS,exp,34,↑,up,↑,0.41948739998042583,True,6,1,0,2
Y2-S2-022M27,3,283,PS,exp,50,←,left,←,0.4563905999530107,True,5,1,0,2
Y2-S2-022M27,3,284,PS,exp,30,↑,left,←,0.521415299968794,False,5,-1,1,3
Y2-S2-022M27,3,285,PS,exp,25,→,right,→,0.46527229994535446,True,6,-1,0,3
Y2-S2-022M27,3,286,PS,exp,26,←,left,←,0.5511928999330848,True,6,-1,0,3
Y2-S2-022M27,3,287,PS,exp,33,↓,left,←,0.5255996999330819,False,6,-1,0,3
Y2-S2-022M27,3,288,PS,exp,49,→,right,→,0.40573889994993806,True,7,-1,0,3
Y2-S2-022M27,3,289,PS,exp,47,↑,up,↑,0.3682376998476684,True,7,-1,0,3
Y2-S2-022M27,3,290,PS,exp,29,←,left,←,0.4441605000756681,True,7,1,1,4
Y2-S2-022M27,3,291,PS,exp,41,↑,up,↑,0.38823519996367395,True,6,1,0,4
Y2-S2-022M27,3,292,PS,exp,34,→,right,→,0.47682609991170466,True,6,1,0,4
Y2-S2-022M27,3,293,PS,exp,43,↑,right,→,0.4246769999153912,False,6,-1,1,5
Y2-S2-022M27,3,294,PS,exp,26,→,up,↑,0.06756200012750924,False,7,-1,0,5
Y2-S2-022M27,3,295,PS,exp,49,←,left,←,0.5851726999972016,True,8,-1,0,5
Y2-S2-022M27,3,296,PS,exp,26,↓,down,↓,0.5972554001491517,True,8,-1,0,5
Y2-S2-022M27,3,297,PS,exp,44,←,left,←,0.39927029982209206,True,8,1,1,6
Y2-S2-022M27,3,298,PS,exp,26,→,right,→,0.5087447999976575,True,7,1,0,6
Y2-S2-022M27,3,299,PS,exp,48,↑,up,↑,0.3955171999987215,True,7,1,0,6
Y2-S2-022M27,3,300,PS,exp,50,↓,down,↓,0.6984798000194132,True,7,1,0,6
Y2-S2-022M27,3,301,PS,exp,32,↑,up,↑,0.424622000195086,True,6,1,0,6
Y2-S2-022M27,3,302,PS,exp,46,→,right,→,0.39444139995612204,True,6,1,0,6
Y2-S2-022M27,3,303,PS,exp,38,↓,down,↓,0.606382500147447,True,6,1,0,6
Y2-S2-022M27,3,304,PS,exp,48,→,right,→,0.5067394999787211,True,5,1,0,6
Y2-S2-022M27,3,305,PS,exp,40,←,right,→,0.4051570000592619,False,5,-1,1,7
Y2-S2-022M27,3,306,PS,exp,38,→,right,→,0.48434700001962483,True,6,-1,0,7
Y2-S2-022M27,3,307,PS,exp,43,↑,right,→,1.020320399897173,False,6,-1,0,7
Y2-S2-022M27,3,308,PS,exp,47,→,right,→,0.3997702000197023,True,7,-1,0,7
Y2-S2-022M27,3,309,PS,exp,27,↑,down,↓,0.8304551998153329,False,7,-1,0,7
Y2-S2-022M27,3,310,PS,exp,46,↓,down,↓,0.583890600129962,True,8,-1,0,7
Y2-S2-022M27,3,311,PS,exp,48,←,up,↑,0.4722372000105679,False,8,-1,0,7
Y2-S2-022M27,3,312,PS,exp,32,→,right,→,0.47832450014539063,True,9,-1,0,7
Y2-S2-022M27,3,313,PS,exp,41,↑,up,↑,0.4097808999940753,True,9,-1,0,7
Y2-S2-022M27,3,314,PS,exp,46,→,right,→,0.59001459996216,True,9,1,1,8
Y2-S2-022M27,3,315,PS,exp,31,↓,down,↓,0.6036710001062602,True,8,1,0,8
Y2-S2-022M27,3,316,PS,exp,37,→,right,→,0.4648154000751674,True,8,1,0,8
Y2-S2-022M27,3,317,PS,exp,38,↓,down,↓,0.522928899852559,True,8,1,0,8
Y2-S2-022M27,3,318,PS,exp,39,→,right,→,0.3889886001124978,True,7,1,0,8
Y2-S2-022M27,3,319,PS,exp,41,←,left,←,0.318914300063625,True,7,1,0,8
Y2-S2-022M27,3,320,PS,exp,29,→,right,→,0.41984820016659796,True,7,1,0,8
Y2-S2-022M27,3,321,PS,exp,46,↑,left,←,0.560814700089395,False,6,-1,1,9
Y2-S2-022M27,3,322,PS,exp,25,←,left,←,0.5291297000367194,True,7,-1,0,9
Y2-S2-022M27,3,323,PS,exp,37,→,right,→,0.3816432999446988,True,7,-1,0,9
Y2-S2-022M27,3,324,PS,exp,27,←,right,→,0.5442545998375863,False,7,-1,0,9
Y2-S2-022M27,3,325,PS,exp,29,↓,right,→,0.48316930001601577,False,8,-1,0,9
Y2-S2-022M27,3,326,PS,exp,43,↑,up,↑,0.4051539001520723,True,9,-1,0,9
Y2-S2-022M27,3,327,PS,exp,49,←,left,←,0.4385643999557942,True,9,-1,0,9
Y2-S2-022M27,3,328,PS,exp,37,↑,up,↑,0.4451526999473572,True,9,1,1,10
Y2-S2-022M27,3,329,PS,exp,31,↓,down,↓,0.5693723000586033,True,8,1,0,10
Y2-S2-022M27,3,330,PS,exp,26,←,right,→,0.587786499876529,False,8,-1,1,11
Y2-S2-022M27,3,331,PS,exp,43,↑,up,↑,0.4191320000682026,True,9,-1,0,11
Y2-S2-022M27,3,332,PS,exp,43,↓,left,←,0.35177430021576583,False,9,-1,0,11
Y2-S2-022M27,3,333,PS,exp,45,↑,up,↑,0.3899172998499125,True,10,-1,0,11
Y2-S2-022M27,3,334,PS,exp,43,←,left,←,0.3987215000670403,True,10,-1,0,11
Y2-S2-022M27,3,335,PS,exp,31,↓,down,↓,0.5252160001546144,True,10,1,1,12
Y2-S2-022M27,3,336,PS,exp,44,→,right,→,0.5199194999877363,True,9,1,0,12
Y2-S2-022M27,3,337,PS,exp,50,←,left,←,0.34925379999913275,True,9,1,0,12
Y2-S2-022M27,3,338,PS,exp,38,↑,up,↑,0.38396540004760027,True,9,1,0,12
Y2-S2-022M27,3,339,PS,exp,31,↓,down,↓,0.5540704000741243,True,8,1,0,12
Y2-S2-022M27,3,340,PS,exp,48,→,right,→,0.41629049996845424,True,8,1,0,12
Y2-S2-022M27,3,341,PS,exp,30,↓,left,←,0.7127207999583334,False,8,-1,1,13
Y2-S2-022M27,3,342,PS,exp,39,→,right,→,0.37894059997051954,True,9,-1,0,13
Y2-S2-022M27,3,343,PS,exp,39,↑,up,↑,0.4031067998148501,True,9,-1,0,13
Y2-S2-022M27,3,344,PS,exp,48,↓,down,↓,0.5999843999743462,True,9,1,1,14
Y2-S2-022M27,3,345,PS,exp,39,←,right,→,0.4800287000834942,False,8,-1,1,15
Y2-S2-022M27,3,346,PS,exp,32,↓,down,↓,0.49008730007335544,True,9,-1,0,15
Y2-S2-022M27,3,347,PS,exp,48,←,right,→,0.43285079998895526,False,9,-1,0,15
Y2-S2-022M27,3,348,PS,exp,50,→,right,→,0.5528084998950362,True,10,-1,0,15
Y2-S2-022M27,3,349,PS,exp,45,←,right,→,0.3400069000199437,False,10,-1,0,15
Y2-S2-022M27,3,350,PS,exp,45,↓,down,↓,0.52538329991512,True,11,-1,0,15
Y2-S2-022M27,3,351,PS,exp,46,→,right,→,0.35504209995269775,True,11,-1,0,15
Y2-S2-022M27,3,352,PS,exp,41,↑,up,↑,0.4971423998940736,True,11,1,1,16
Y2-S2-022M27,4,353,AS,intra_train,36,←,left,←,0.8145309998653829,True,19,-,-,-
Y2-S2-022M27,4,354,AS,intra_train,50,↓,down,↓,0.8231248999945819,True,19,-,-,-
Y2-S2-022M27,4,355,AS,intra_train,41,↑,left,←,1.0009182000067085,False,19,-,-,-
Y2-S2-022M27,4,356,AS,intra_train,41,→,no_key,no_letter,-1.0,False,19,-,-,-
Y2-S2-022M27,4,357,AS,intra_train,44,↓,down,↓,0.6489667999558151,True,19,-,-,-
Y2-S2-022M27,4,358,AS,exp,31,←,left,←,0.5868442000355572,True,13,0,0,0
Y2-S2-022M27,4,359,AS,exp,47,→,right,→,0.6527732000686228,True,13,0,0,0
Y2-S2-022M27,4,360,AS,exp,41,↓,down,↓,0.8428986999206245,True,13,1,0,0
Y2-S2-022M27,4,361,AS,exp,29,←,left,←,0.5718723000027239,True,12,1,0,0
Y2-S2-022M27,4,362,AS,exp,43,→,left,←,0.5683295000344515,False,12,-1,1,1
Y2-S2-022M27,4,363,AS,exp,32,↓,down,↓,0.5870196998585016,True,13,-1,0,1
Y2-S2-022M27,4,364,AS,exp,35,←,right,→,0.49992220010608435,False,13,-1,0,1
Y2-S2-022M27,4,365,AS,exp,28,→,right,→,0.6362719999160618,True,14,-1,0,1
Y2-S2-022M27,4,366,AS,exp,34,←,left,←,0.9651559998746961,True,14,-1,0,1
Y2-S2-022M27,4,367,AS,exp,28,→,right,→,0.6075067999772727,True,14,1,1,2
Y2-S2-022M27,4,368,AS,exp,29,←,right,→,0.3339327999856323,False,13,-1,1,3
Y2-S2-022M27,4,369,AS,exp,42,↓,down,↓,0.5994382000062615,True,14,-1,0,3
Y2-S2-022M27,4,370,AS,exp,28,←,left,←,0.4945064000785351,True,14,-1,0,3
Y2-S2-022M27,4,371,AS,exp,38,↓,down,↓,0.555174799868837,True,14,1,1,4
Y2-S2-022M27,4,372,AS,exp,37,→,right,→,0.5012624999508262,True,13,1,0,4
Y2-S2-022M27,4,373,AS,exp,48,↑,up,↑,0.4375894998665899,True,13,1,0,4
Y2-S2-022M27,4,374,AS,exp,28,→,right,→,0.4544196000788361,True,13,1,0,4
Y2-S2-022M27,4,375,AS,exp,45,↓,down,↓,0.7349696999881417,True,12,1,0,4
Y2-S2-022M27,4,376,AS,exp,42,→,left,←,0.8840418001636863,False,12,-1,1,5
Y2-S2-022M27,4,377,AS,exp,26,↓,down,↓,0.6069534001871943,True,13,-1,0,5
Y2-S2-022M27,4,378,AS,exp,27,↑,up,↑,0.48142699990421534,True,13,-1,0,5
Y2-S2-022M27,4,379,AS,exp,30,←,right,→,0.3890533000230789,False,13,-1,0,5
Y2-S2-022M27,4,380,AS,exp,31,↓,down,↓,0.7758547000121325,True,14,-1,0,5
Y2-S2-022M27,4,381,AS,exp,42,↑,left,←,0.8879519999027252,False,14,-1,0,5
Y2-S2-022M27,4,382,AS,exp,30,←,left,←,0.5480121001601219,True,15,-1,0,5
Y2-S2-022M27,4,383,AS,exp,41,↑,up,↑,0.6095734999980778,True,15,-1,0,5
Y2-S2-022M27,4,384,AS,exp,45,←,left,←,0.5549589998554438,True,15,1,1,6
Y2-S2-022M27,4,385,AS,exp,41,↓,down,↓,0.6509377998299897,True,14,1,0,6
Y2-S2-022M27,4,386,AS,exp,31,→,right,→,0.4969059000723064,True,14,1,0,6
Y2-S2-022M27,4,387,AS,exp,43,↓,down,↓,0.6331750000827014,True,14,1,0,6
Y2-S2-022M27,4,388,AS,exp,42,←,left,←,0.48649809998460114,True,13,1,0,6
Y2-S2-022M27,4,389,AS,exp,42,↓,down,↓,0.6151354999747127,True,13,1,0,6
Y2-S2-022M27,4,390,AS,exp,46,←,left,←,0.48130239988677204,True,13,1,0,6
Y2-S2-022M27,4,391,AS,exp,25,→,right,→,0.4801604999229312,True,12,1,0,6
Y2-S2-022M27,4,392,AS,exp,26,↑,up,↑,0.47811649995855987,True,12,1,0,6
Y2-S2-022M27,4,393,AS,exp,34,←,left,←,0.46894240006804466,True,12,1,0,6
Y2-S2-022M27,4,394,AS,exp,34,↓,left,←,0.6431799000129104,False,11,-1,1,7
Y2-S2-022M27,4,395,AS,exp,33,→,right,→,0.436019399901852,True,12,-1,0,7
Y2-S2-022M27,4,396,AS,exp,27,↓,down,↓,0.6898074999917299,True,12,-1,0,7
Y2-S2-022M27,4,397,AS,exp,28,→,left,←,0.5393844998907298,False,12,-1,0,7
Y2-S2-022M27,4,398,AS,exp,45,←,right,→,0.33376560010947287,False,13,-1,0,7
Y2-S2-022M27,4,399,AS,exp,36,↑,up,↑,0.542832599952817,True,14,-1,0,7
Y2-S2-022M27,4,400,AS,exp,28,←,left,←,0.47463269997388124,True,14,-1,0,7
Y2-S2-022M27,4,401,AS,exp,49,↓,down,↓,0.6161894998513162,True,14,1,1,8
Y2-S2-022M27,4,402,AS,exp,25,→,down,↓,0.7875751000829041,False,13,-1,1,9
Y2-S2-022M27,4,403,AS,exp,26,←,left,←,0.7627637998666614,True,14,-1,0,9
Y2-S2-022M27,4,404,AS,exp,25,↓,down,↓,0.6358000000473112,True,14,-1,0,9
Y2-S2-022M27,4,405,AS,exp,26,↑,up,↑,0.5796486001927406,True,14,1,1,10
Y2-S2-022M27,4,406,AS,exp,37,←,left,←,0.4119348998647183,True,13,1,0,10
Y2-S2-022M27,4,407,AS,exp,36,↑,up,↑,0.5430288999341428,True,13,1,0,10
Y2-S2-022M27,4,408,AS,exp,29,↓,left,←,1.1742892998736352,False,13,-1,1,11
Y2-S2-022M27,4,409,AS,exp,40,←,left,←,0.5218351001385599,True,14,-1,0,11
Y2-S2-022M27,4,410,AS,exp,43,↓,down,↓,0.7403722000308335,True,14,-1,0,11
Y2-S2-022M27,4,411,AS,exp,47,↑,up,↑,0.3506841999478638,True,14,1,1,12
Y2-S2-022M27,4,412,AS,exp,38,←,left,←,0.40345630003139377,True,13,1,0,12
Y2-S2-022M27,4,413,AS,exp,34,↓,down,↓,0.5171889001503587,True,13,1,0,12
Y2-S2-022M27,4,414,AS,exp,48,↑,up,↑,0.40769660007208586,True,13,1,0,12
Y2-S2-022M27,4,415,AS,exp,32,→,right,→,0.8024929000530392,True,12,1,0,12
Y2-S2-022M27,4,416,AS,exp,27,←,left,←,0.43136050016619265,True,12,1,0,12
Y2-S2-022M27,4,417,AS,exp,39,→,up,↑,0.6248089000582695,False,12,-1,1,13
Y2-S2-022M27,4,418,AS,exp,31,↓,up,↑,0.4668189000803977,False,13,-1,0,13
Y2-S2-022M27,4,419,AS,exp,37,↑,up,↑,0.41791309998370707,True,14,-1,0,13
Y2-S2-022M27,4,420,AS,exp,27,↓,up,↑,0.45303569990210235,False,14,-1,0,13
Y2-S2-022M27,4,421,AS,exp,26,↑,up,↑,0.6874565999023616,True,15,-1,0,13
Y2-S2-022M27,4,422,AS,exp,33,↓,down,↓,0.6673489001113921,True,15,-1,0,13
Y2-S2-022M27,4,423,AS,exp,32,↑,up,↑,0.49629179993644357,True,15,1,1,14
Y2-S2-022M27,4,424,AS,exp,44,↓,up,↑,0.76887740008533,False,14,-1,1,15
Y2-S2-022M27,4,425,AS,exp,38,←,left,←,0.4391691000200808,True,15,-1,0,15
Y2-S2-022M27,4,426,AS,exp,43,↑,up,↑,0.4701503000687808,True,15,-1,0,15
Y2-S2-022M27,4,427,AS,exp,29,→,right,→,1.139580599963665,True,15,1,1,16
Y2-S2-022M27,5,428,AS,intra_train,25,↑,up,↑,0.5527535998262465,True,19,-,-,-
Y2-S2-022M27,5,429,AS,intra_train,35,←,left,←,0.4935002001002431,True,19,-,-,-
Y2-S2-022M27,5,430,AS,intra_train,37,→,right,→,0.5691194999963045,True,19,-,-,-
Y2-S2-022M27,5,431,AS,intra_train,32,↓,down,↓,0.8365969001315534,True,19,-,-,-
Y2-S2-022M27,5,432,AS,intra_train,47,↑,right,→,0.7417765001300722,False,19,-,-,-
Y2-S2-022M27,5,433,AS,exp,43,↓,down,↓,0.7229389001149684,True,13,0,0,0
Y2-S2-022M27,5,434,AS,exp,31,←,left,←,0.6707683999557048,True,13,0,0,0
Y2-S2-022M27,5,435,AS,exp,44,↑,right,→,0.5667510000057518,False,13,-1,0,0
Y2-S2-022M27,5,436,AS,exp,27,←,left,←,0.7031628000549972,True,14,-1,0,0
Y2-S2-022M27,5,437,AS,exp,39,→,right,→,0.3506899999920279,True,14,-1,0,0
Y2-S2-022M27,5,438,AS,exp,43,←,left,←,1.1143811999354511,True,14,1,1,1
Y2-S2-022M27,5,439,AS,exp,41,↓,down,↓,0.7361923998687416,True,13,1,0,1
Y2-S2-022M27,5,440,AS,exp,37,←,left,←,0.5678584000561386,True,13,1,0,1
Y2-S2-022M27,5,441,AS,exp,30,→,right,→,0.48956180014647543,True,13,1,0,1
Y2-S2-022M27,5,442,AS,exp,38,↓,left,←,0.511263299966231,False,12,-1,1,2
Y2-S2-022M27,5,443,AS,exp,48,↑,up,↑,0.408045900054276,True,13,-1,0,2
Y2-S2-022M27,5,444,AS,exp,34,←,left,←,0.45932110003195703,True,13,-1,0,2
Y2-S2-022M27,5,445,AS,exp,39,↓,right,→,0.5913486999925226,False,13,-1,0,2
Y2-S2-022M27,5,446,AS,exp,44,←,left,←,0.4995808999519795,True,14,-1,0,2
Y2-S2-022M27,5,447,AS,exp,50,↑,up,↑,0.520202400162816,True,14,-1,0,2
Y2-S2-022M27,5,448,AS,exp,30,↓,up,↑,0.4597150001209229,False,14,-1,0,2
Y2-S2-022M27,5,449,AS,exp,33,↑,up,↑,0.42472909996286035,True,15,-1,0,2
Y2-S2-022M27,5,450,AS,exp,29,↓,down,↓,0.6958027000073344,True,15,-1,0,2
Y2-S2-022M27,5,451,AS,exp,25,→,right,→,0.4475239999592304,True,15,1,1,3
Y2-S2-022M27,5,452,AS,exp,45,↓,down,↓,0.6342917000874877,True,14,1,0,3
Y2-S2-022M27,5,453,AS,exp,45,←,left,←,0.4348838001023978,True,14,1,0,3
Y2-S2-022M27,5,454,AS,exp,49,↑,up,↑,0.6370386998169124,True,14,1,0,3
Y2-S2-022M27,5,455,AS,exp,28,→,right,→,0.5635373999830335,True,13,1,0,3
Y2-S2-022M27,5,456,AS,exp,44,↓,down,↓,0.7382300000172108,True,13,1,0,3
Y2-S2-022M27,5,457,AS,exp,25,→,right,→,0.5080803998280317,True,13,1,0,3
Y2-S2-022M27,5,458,AS,exp,27,↓,right,→,0.9755794999655336,False,12,-1,1,4
Y2-S2-022M27,5,459,AS,exp,35,↑,up,↑,0.5676160000730306,True,13,-1,0,4
Y2-S2-022M27,5,460,AS,exp,36,→,up,↑,0.5285054000560194,False,13,-1,0,4
Y2-S2-022M27,5,461,AS,exp,27,↑,up,↑,0.49510210007429123,True,14,-1,0,4
Y2-S2-022M27,5,462,AS,exp,29,←,left,←,0.6196022999938577,True,14,-1,0,4
Y2-S2-022M27,5,463,AS,exp,45,↑,up,↑,0.4072183999232948,True,14,1,1,5
Y2-S2-022M27,5,464,AS,exp,30,←,up,↑,0.6153183998540044,False,13,-1,1,6
Y2-S2-022M27,5,465,AS,exp,50,↑,up,↑,0.5538494000211358,True,14,-1,0,6
Y2-S2-022M27,5,466,AS,exp,33,←,left,←,0.6991163000930101,True,14,-1,0,6
Y2-S2-022M27,5,467,AS,exp,47,↑,up,↑,0.9079348999075592,True,14,1,1,7
Y2-S2-022M27,5,468,AS,exp,33,←,left,←,0.5072373000439256,True,13,1,0,7
Y2-S2-022M27,5,469,AS,exp,40,→,left,←,0.6623008998576552,False,13,-1,1,8
Y2-S2-022M27,5,470,AS,exp,31,↑,up,↑,0.5316040001343936,True,14,-1,0,8
Y2-S2-022M27,5,471,AS,exp,35,→,left,←,0.4813417000696063,False,14,-1,0,8
Y2-S2-022M27,5,472,AS,exp,30,←,left,←,0.5482095000334084,True,15,-1,0,8
Y2-S2-022M27,5,473,AS,exp,27,→,right,→,0.5178914000280201,True,15,-1,0,8
Y2-S2-022M27,5,474,AS,exp,44,←,left,←,0.5283729999791831,True,15,1,1,9
Y2-S2-022M27,5,475,AS,exp,42,→,right,→,0.5391996998805553,True,14,1,0,9
Y2-S2-022M27,5,476,AS,exp,40,←,left,←,0.5442258999682963,True,14,1,0,9
Y2-S2-022M27,5,477,AS,exp,49,↑,up,↑,0.6278611000161618,True,14,1,0,9
Y2-S2-022M27,5,478,AS,exp,32,←,right,→,0.42510539991781116,False,13,-1,1,10
Y2-S2-022M27,5,479,AS,exp,31,↓,down,↓,0.5880614998750389,True,14,-1,0,10
Y2-S2-022M27,5,480,AS,exp,46,→,right,→,0.4806838999502361,True,14,-1,0,10
Y2-S2-022M27,5,481,AS,exp,39,↓,down,↓,0.7483399000484496,True,14,1,1,11
Y2-S2-022M27,5,482,AS,exp,50,↑,left,←,0.6198789998888969,False,13,-1,1,12
Y2-S2-022M27,5,483,AS,exp,38,→,right,→,0.40584430005401373,True,14,-1,0,12
Y2-S2-022M27,5,484,AS,exp,31,↓,down,↓,0.8295813999138772,True,14,-1,0,12
Y2-S2-022M27,5,485,AS,exp,47,←,left,←,0.7364774998277426,True,14,1,1,13
Y2-S2-022M27,5,486,AS,exp,34,→,right,→,0.4876853001769632,True,13,1,0,13
Y2-S2-022M27,5,487,AS,exp,46,←,left,←,0.459539599949494,True,13,1,0,13
Y2-S2-022M27,5,488,AS,exp,48,↓,down,↓,0.5658203000202775,True,13,1,0,13
Y2-S2-022M27,5,489,AS,exp,47,←,left,←,0.6080338999163359,True,12,1,0,13
Y2-S2-022M27,5,490,AS,exp,38,→,left,←,0.7020634000655264,False,12,-1,1,14
Y2-S2-022M27,5,491,AS,exp,41,↓,down,↓,0.5561179001815617,True,13,-1,0,14
Y2-S2-022M27,5,492,AS,exp,48,↑,up,↑,0.5169249998871237,True,13,-1,0,14
Y2-S2-022M27,5,493,AS,exp,48,↓,down,↓,0.6867096999194473,True,13,1,1,15
Y2-S2-022M27,5,494,AS,exp,32,→,left,←,0.6282212000805885,False,12,-1,1,16
Y2-S2-022M27,6,495,PS,intra_train,38,↑,up,↑,0.6329835001379251,True,18,-,-,-
Y2-S2-022M27,6,496,PS,intra_train,38,↓,down,↓,0.6502749000210315,True,18,-,-,-
Y2-S2-022M27,6,497,PS,intra_train,32,→,left,←,0.8038780998904258,False,18,-,-,-
Y2-S2-022M27,6,498,PS,intra_train,37,↓,down,↓,0.6917834000196308,True,18,-,-,-
Y2-S2-022M27,6,499,PS,intra_train,36,←,left,←,0.5522281001321971,True,18,-,-,-
Y2-S2-022M27,6,500,PS,exp,47,↓,down,↓,0.6924433000385761,True,12,0,0,0
Y2-S2-022M27,6,501,PS,exp,33,↑,up,↑,0.6225962999742478,True,12,0,0,0
Y2-S2-022M27,6,502,PS,exp,26,←,left,←,0.5131097000557929,True,12,1,0,0
Y2-S2-022M27,6,503,PS,exp,30,↓,down,↓,0.7346753000747412,True,11,1,0,0
Y2-S2-022M27,6,504,PS,exp,30,↑,up,↑,0.6007670999970287,True,11,1,0,0
Y2-S2-022M27,6,505,PS,exp,30,↓,down,↓,1.2177695999853313,True,11,1,0,0
Y2-S2-022M27,6,506,PS,exp,40,→,right,→,0.47743549989536405,True,10,1,0,0
Y2-S2-022M27,6,507,PS,exp,27,←,left,←,0.5789683999028057,True,10,1,0,0
Y2-S2-022M27,6,508,PS,exp,35,↑,up,↑,0.4607431998010725,True,10,1,0,0
Y2-S2-022M27,6,509,PS,exp,32,↓,down,↓,0.6706701999064535,True,9,1,0,0
Y2-S2-022M27,6,510,PS,exp,46,↑,up,↑,0.4107586999889463,True,9,1,0,0
Y2-S2-022M27,6,511,PS,exp,31,↓,up,↑,0.5885970999952406,False,9,-1,1,1
Y2-S2-022M27,6,512,PS,exp,35,→,right,→,0.46258049993775785,True,10,-1,0,1
Y2-S2-022M27,6,513,PS,exp,33,↓,down,↓,0.6094195998739451,True,10,-1,0,1
Y2-S2-022M27,6,514,PS,exp,42,→,right,→,0.4572273001540452,True,10,1,1,2
Y2-S2-022M27,6,515,PS,exp,42,↑,up,↑,0.39746570005081594,True,9,1,0,2
Y2-S2-022M27,6,516,PS,exp,31,→,right,→,0.42745720013044775,True,9,1,0,2
Y2-S2-022M27,6,517,PS,exp,27,←,left,←,0.49218960013240576,True,9,1,0,2
Y2-S2-022M27,6,518,PS,exp,34,→,right,→,0.45013189991004765,True,8,1,0,2
Y2-S2-022M27,6,519,PS,exp,31,↓,down,↓,0.5681652000639588,True,8,1,0,2
Y2-S2-022M27,6,520,PS,exp,34,→,right,→,0.46051239990629256,True,8,1,0,2
Y2-S2-022M27,6,521,PS,exp,45,↓,down,↓,0.6289385000709444,True,7,1,0,2
Y2-S2-022M27,6,522,PS,exp,25,↑,up,↑,0.495926900068298,True,7,1,0,2
Y2-S2-022M27,6,523,PS,exp,35,→,right,→,0.5029643001034856,True,7,1,0,2
Y2-S2-022M27,6,524,PS,exp,49,↑,up,↑,0.39686010009609163,True,6,1,0,2
Y2-S2-022M27,6,525,PS,exp,26,←,down,↓,0.5777861000970006,False,6,-1,1,3
Y2-S2-022M27,6,526,PS,exp,48,→,right,→,0.44190369988791645,True,7,-1,0,3
Y2-S2-022M27,6,527,PS,exp,50,←,left,←,0.3772569999564439,True,7,-1,0,3
Y2-S2-022M27,6,528,PS,exp,47,→,right,→,0.43215630017220974,True,7,1,1,4
Y2-S2-022M27,6,529,PS,exp,34,←,left,←,0.371522500179708,True,6,1,0,4
Y2-S2-022M27,6,530,PS,exp,35,↓,down,↓,0.5583568001165986,True,6,1,0,4
Y2-S2-022M27,6,531,PS,exp,40,←,left,←,0.4561861001420766,True,6,1,0,4
Y2-S2-022M27,6,532,PS,exp,30,↑,up,↑,0.44195970008149743,True,5,1,0,4
Y2-S2-022M27,6,533,PS,exp,41,→,left,←,0.7282741998787969,False,5,-1,1,5
Y2-S2-022M27,6,534,PS,exp,50,←,right,→,0.5455391998402774,False,6,-1,0,5
Y2-S2-022M27,6,535,PS,exp,34,↓,down,↓,0.5454337999690324,True,7,-1,0,5
Y2-S2-022M27,6,536,PS,exp,30,←,left,←,0.40552829997614026,True,7,-1,0,5
Y2-S2-022M27,6,537,PS,exp,39,↑,up,↑,0.5361054001841694,True,7,1,1,6
Y2-S2-022M27,6,538,PS,exp,34,↓,down,↓,0.5340447998605669,True,6,1,0,6
Y2-S2-022M27,6,539,PS,exp,29,↑,left,←,0.7644461998715997,False,6,-1,1,7
Y2-S2-022M27,6,540,PS,exp,38,↓,down,↓,0.7551935000810772,True,7,-1,0,7
Y2-S2-022M27,6,541,PS,exp,28,↑,left,←,0.5830055000260472,False,7,-1,0,7
Y2-S2-022M27,6,542,PS,exp,46,←,left,←,0.512067399919033,True,8,-1,0,7
Y2-S2-022M27,6,543,PS,exp,37,↓,down,↓,0.6135723001789302,True,8,-1,0,7
Y2-S2-022M27,6,544,PS,exp,25,←,left,←,0.46477889991365373,True,8,1,1,8
Y2-S2-022M27,6,545,PS,exp,27,↓,down,↓,0.5464298001024872,True,7,1,0,8
Y2-S2-022M27,6,546,PS,exp,40,→,right,→,0.4056289999280125,True,7,1,0,8
Y2-S2-022M27,6,547,PS,exp,45,↓,down,↓,0.5547052999027073,True,7,1,0,8
Y2-S2-022M27,6,548,PS,exp,34,↑,up,↑,0.6000359000172466,True,6,1,0,8
Y2-S2-022M27,6,549,PS,exp,47,→,right,→,0.47034600004553795,True,6,1,0,8
Y2-S2-022M27,6,550,PS,exp,27,↓,down,↓,0.5556785000953823,True,6,1,0,8
Y2-S2-022M27,6,551,PS,exp,32,→,right,→,0.5052893999963999,True,5,1,0,8
Y2-S2-022M27,6,552,PS,exp,50,↑,left,←,0.6704090998973697,False,5,-1,1,9
Y2-S2-022M27,6,553,PS,exp,41,→,right,→,0.4257322000339627,True,6,-1,0,9
Y2-S2-022M27,6,554,PS,exp,26,←,left,←,0.6791435000486672,True,6,-1,0,9
Y2-S2-022M27,6,555,PS,exp,30,→,right,→,0.43064459995366633,True,6,1,1,10
Y2-S2-022M27,6,556,PS,exp,29,↓,down,↓,0.58247089991346,True,5,1,0,10
Y2-S2-022M27,6,557,PS,exp,37,↑,up,↑,0.3676108999643475,True,5,1,0,10
Y2-S2-022M27,6,558,PS,exp,25,↓,left,←,0.6039915999863297,False,5,-1,1,11
Y2-S2-022M27,6,559,PS,exp,37,↑,up,↑,0.4261813999619335,True,6,-1,0,11
Y2-S2-022M27,6,560,PS,exp,49,↓,right,→,0.4000236999709159,False,6,-1,0,11
Y2-S2-022M27,6,561,PS,exp,37,←,left,←,0.5289453000295907,True,7,-1,0,11
Y2-S2-022M27,6,562,PS,exp,36,→,right,→,0.44618910015560687,True,7,-1,0,11
Y2-S2-022M27,6,563,PS,exp,27,↓,down,↓,0.635758499847725,True,7,1,1,12
Y2-S2-022M27,6,564,PS,exp,42,↑,up,↑,0.3661566998343915,True,6,1,0,12
Y2-S2-022M27,6,565,PS,exp,35,↓,down,↓,0.5912552000954747,True,6,1,0,12
Y2-S2-022M27,6,566,PS,exp,35,↑,left,←,0.6694839999545366,False,6,-1,1,13
Y2-S2-022M27,6,567,PS,exp,38,↓,up,↑,0.5160827001091093,False,7,-1,0,13
Y2-S2-022M27,6,568,PS,exp,38,←,left,←,0.6205543999094516,True,8,-1,0,13
Y2-S2-022M27,6,569,PS,exp,49,↓,down,↓,0.8623134000226855,True,8,-1,0,13
Y2-S2-022M27,6,570,PS,exp,44,←,left,←,0.4635675000026822,True,8,1,1,14
Y2-S2-022M27,6,571,PS,exp,42,→,left,←,0.5178902999032289,False,7,-1,1,15
Y2-S2-022M27,6,572,PS,exp,28,↓,down,↓,1.1186460999306291,True,8,-1,0,15
Y2-S2-022M27,6,573,PS,exp,36,↑,up,↑,0.6776421000249684,True,8,-1,0,15
Y2-S2-022M27,6,574,PS,exp,38,→,left,←,0.3681533997878432,False,8,-1,0,15
Y2-S2-022M27,6,575,PS,exp,33,↓,down,↓,0.5222752999980003,True,9,-1,0,15
Y2-S2-022M27,6,576,PS,exp,30,↑,up,↑,0.3715053000487387,True,9,-1,0,15
Y2-S2-022M27,6,577,PS,exp,41,↓,down,↓,0.5774771999567747,True,9,1,1,16
Y2-S2-022M27,7,578,PS,intra_train,41,→,right,→,1.0616246999707073,True,18,-,-,-
Y2-S2-022M27,7,579,PS,intra_train,36,↓,down,↓,0.5674219999928027,True,18,-,-,-
Y2-S2-022M27,7,580,PS,intra_train,50,↑,up,↑,0.4749307001475245,True,18,-,-,-
Y2-S2-022M27,7,581,PS,intra_train,26,↓,down,↓,0.673074800055474,True,18,-,-,-
Y2-S2-022M27,7,582,PS,intra_train,36,↑,up,↑,0.4006446001585573,True,18,-,-,-
Y2-S2-022M27,7,583,PS,exp,46,←,left,←,0.5082439000252634,True,12,0,0,0
Y2-S2-022M27,7,584,PS,exp,43,↑,up,↑,0.43155919993296266,True,12,0,0,0
Y2-S2-022M27,7,585,PS,exp,44,←,left,←,0.4695415999740362,True,12,1,0,0
Y2-S2-022M27,7,586,PS,exp,33,→,right,→,0.42134839994832873,True,11,1,0,0
Y2-S2-022M27,7,587,PS,exp,46,↑,up,↑,0.42314960015937686,True,11,1,0,0
Y2-S2-022M27,7,588,PS,exp,46,←,left,←,0.9708580998703837,True,11,1,0,0
Y2-S2-022M27,7,589,PS,exp,33,↑,up,↑,0.43028420000337064,True,10,1,0,0
Y2-S2-022M27,7,590,PS,exp,33,←,left,←,0.5536513000261039,True,10,1,0,0
Y2-S2-022M27,7,591,PS,exp,36,↓,down,↓,0.5225183998700231,True,10,1,0,0
Y2-S2-022M27,7,592,PS,exp,30,←,left,←,0.4995375999715179,True,9,1,0,0
Y2-S2-022M27,7,593,PS,exp,38,→,right,→,0.43343740003183484,True,9,1,0,0
Y2-S2-022M27,7,594,PS,exp,31,←,left,←,0.47766229999251664,True,9,1,0,0
Y2-S2-022M27,7,595,PS,exp,41,↓,down,↓,0.5132859998848289,True,8,1,0,0
Y2-S2-022M27,7,596,PS,exp,29,→,right,→,0.4173620999790728,True,8,1,0,0
Y2-S2-022M27,7,597,PS,exp,36,↑,left,←,0.3058867999352515,False,8,-1,1,1
Y2-S2-022M27,7,598,PS,exp,48,←,left,←,0.4528332999907434,True,9,-1,0,1
Y2-S2-022M27,7,599,PS,exp,39,↓,down,↓,0.5202011000365019,True,9,-1,0,1
Y2-S2-022M27,7,600,PS,exp,31,↑,up,↑,0.3522967000026256,True,9,1,1,2
Y2-S2-022M27,7,601,PS,exp,37,↓,down,↓,0.5934359000530094,True,8,1,0,2
Y2-S2-022M27,7,602,PS,exp,34,→,right,→,0.44055330008268356,True,8,1,0,2
Y2-S2-022M27,7,603,PS,exp,28,↑,up,↑,0.3828759000170976,True,8,1,0,2
Y2-S2-022M27,7,604,PS,exp,44,↓,down,↓,0.661660399986431,True,7,1,0,2
Y2-S2-022M27,7,605,PS,exp,25,↑,up,↑,0.4276761000510305,True,7,1,0,2
Y2-S2-022M27,7,606,PS,exp,48,→,right,→,0.43645870010368526,True,7,1,0,2
Y2-S2-022M27,7,607,PS,exp,27,↓,left,←,0.6151749999262393,False,6,-1,1,3
Y2-S2-022M27,7,608,PS,exp,48,←,left,←,0.4503466999158263,True,7,-1,0,3
Y2-S2-022M27,7,609,PS,exp,33,↑,up,↑,0.42619679984636605,True,7,-1,0,3
Y2-S2-022M27,7,610,PS,exp,33,↓,left,←,0.9111426000017673,False,7,-1,0,3
Y2-S2-022M27,7,611,PS,exp,45,←,left,←,0.3996166998986155,True,8,-1,0,3
Y2-S2-022M27,7,612,PS,exp,27,→,right,→,0.4245820001233369,True,8,-1,0,3
Y2-S2-022M27,7,613,PS,exp,30,←,up,↑,0.4876166998874396,False,8,-1,0,3
Y2-S2-022M27,7,614,PS,exp,43,↓,right,→,0.5117798999417573,False,9,-1,0,3
Y2-S2-022M27,7,615,PS,exp,50,←,right,→,0.5372530999593437,False,10,-1,0,3
Y2-S2-022M27,7,616,PS,exp,28,↑,right,→,0.7254581998568028,False,11,-1,0,3
Y2-S2-022M27,7,617,PS,exp,44,→,right,→,1.2354781997855753,True,12,-1,0,3
Y2-S2-022M27,7,618,PS,exp,43,↑,up,↑,0.5062303000595421,True,12,-1,0,3
Y2-S2-022M27,7,619,PS,exp,27,↓,down,↓,0.7175362999550998,True,12,1,1,4
Y2-S2-022M27,7,620,PS,exp,32,↑,up,↑,0.4294277001172304,True,11,1,0,4
Y2-S2-022M27,7,621,PS,exp,33,←,left,←,0.5243877000175416,True,11,1,0,4
Y2-S2-022M27,7,622,PS,exp,49,↑,up,↑,0.40933529986068606,True,11,1,0,4
Y2-S2-022M27,7,623,PS,exp,38,→,left,←,0.4370824999641627,False,10,-1,1,5
Y2-S2-022M27,7,624,PS,exp,42,↑,up,↑,0.37897710013203323,True,11,-1,0,5
Y2-S2-022M27,7,625,PS,exp,37,↓,up,↑,0.7081587999127805,False,11,-1,0,5
Y2-S2-022M27,7,626,PS,exp,41,↑,up,↑,0.39414620003663003,True,12,-1,0,5
Y2-S2-022M27,7,627,PS,exp,41,↓,down,↓,0.6968100999947637,True,12,-1,0,5
Y2-S2-022M27,7,628,PS,exp,33,→,right,→,0.44396300008520484,True,12,1,1,6
Y2-S2-022M27,7,629,PS,exp,25,↑,up,↑,0.46648780000396073,True,11,1,0,6
Y2-S2-022M27,7,630,PS,exp,47,←,left,←,0.4823199000675231,True,11,1,0,6
Y2-S2-022M27,7,631,PS,exp,48,↓,down,↓,0.6784512000158429,True,11,1,0,6
Y2-S2-022M27,7,632,PS,exp,47,↑,up,↑,0.5115269999951124,True,10,1,0,6
Y2-S2-022M27,7,633,PS,exp,44,↓,down,↓,0.6330972998403013,True,10,1,0,6
Y2-S2-022M27,7,634,PS,exp,44,↑,up,↑,0.42731350008398294,True,10,1,0,6
Y2-S2-022M27,7,635,PS,exp,30,↓,down,↓,0.6664686999283731,True,9,1,0,6
Y2-S2-022M27,7,636,PS,exp,26,←,right,→,0.6886650000233203,False,9,-1,1,7
Y2-S2-022M27,7,637,PS,exp,29,↑,up,↑,0.45419610012322664,True,10,-1,0,7
Y2-S2-022M27,7,638,PS,exp,32,↓,down,↓,0.5935982000082731,True,10,-1,0,7
Y2-S2-022M27,7,639,PS,exp,50,←,left,←,0.45380949997343123,True,10,1,1,8
Y2-S2-022M27,7,640,PS,exp,46,↓,down,↓,0.6350590002257377,True,9,1,0,8
Y2-S2-022M27,7,641,PS,exp,49,←,left,←,0.3537149999756366,True,9,1,0,8
Y2-S2-022M27,7,642,PS,exp,44,↓,down,↓,0.5238322999794036,True,9,1,0,8
Y2-S2-022M27,7,643,PS,exp,40,←,left,←,0.5028550999704748,True,8,1,0,8
Y2-S2-022M27,7,644,PS,exp,28,↓,down,↓,0.5797392998356372,True,8,1,0,8
Y2-S2-022M27,7,645,PS,exp,47,↑,up,↑,0.48223159997723997,True,8,1,0,8
Y2-S2-022M27,7,646,PS,exp,49,↓,down,↓,0.5922069998923689,True,7,1,0,8
Y2-S2-022M27,7,647,PS,exp,37,↑,up,↑,0.39796900004148483,True,7,1,0,8
Y2-S2-022M27,7,648,PS,exp,48,←,left,←,0.474752499954775,True,7,1,0,8
Y2-S2-022M27,7,649,PS,exp,31,↓,down,↓,0.7460942000616342,True,6,1,0,8
Y2-S2-022M27,7,650,PS,exp,37,↑,up,↑,0.3916117998305708,True,6,1,0,8
Y2-S2-022M27,7,651,PS,exp,43,→,right,→,0.45289970003068447,True,6,1,0,8
Y2-S2-022M27,7,652,PS,exp,35,↑,up,↑,0.5399710000492632,True,5,1,0,8
Y2-S2-022M27,7,653,PS,exp,40,↓,down,↓,0.5720399999991059,True,5,1,0,8
Y2-S2-022M27,7,654,PS,exp,36,←,left,←,0.7138644999358803,True,5,1,0,8
Y2-S2-022M27,7,655,PS,exp,34,↑,left,←,0.5793981999158859,False,4,-1,1,9
Y2-S2-022M27,7,656,PS,exp,25,←,up,↑,0.47401820006780326,False,5,-1,0,9
Y2-S2-022M27,7,657,PS,exp,41,↓,down,↓,0.6615468999370933,True,6,-1,0,9
Y2-S2-022M27,7,658,PS,exp,49,→,left,←,0.6855460000224411,False,6,-1,0,9
Y2-S2-022M27,7,659,PS,exp,41,←,left,←,0.6151423000264913,True,7,-1,0,9
Y2-S2-022M27,7,660,PS,exp,40,→,right,→,0.4624206000007689,True,7,-1,0,9
Y2-S2-022M27,7,661,PS,exp,34,↑,up,↑,0.4814220000989735,True,7,1,1,10
Y2-S2-022M27,7,662,PS,exp,46,→,right,→,0.3519997999537736,True,6,1,0,10
Y2-S2-022M27,7,663,PS,exp,32,↑,up,↑,0.707001999951899,True,6,1,0,10
Y2-S2-022M27,7,664,PS,exp,43,→,right,→,0.5144237000495195,True,6,1,0,10
Y2-S2-022M27,7,665,PS,exp,26,↓,left,←,0.47147370013408363,False,5,-1,1,11
Y2-S2-022M27,7,666,PS,exp,45,→,left,←,0.5001872999127954,False,6,-1,0,11
Y2-S2-022M27,7,667,PS,exp,36,↓,down,↓,0.6891860999166965,True,7,-1,0,11
Y2-S2-022M27,7,668,PS,exp,47,↑,right,→,0.4556547999382019,False,7,-1,0,11
Y2-S2-022M27,7,669,PS,exp,39,→,right,→,0.5433667001780123,True,8,-1,0,11
Y2-S2-022M27,7,670,PS,exp,32,↑,up,↑,0.46059300005435944,True,8,-1,0,11
Y2-S2-022M27,7,671,PS,exp,31,←,left,←,0.44673690013587475,True,8,1,1,12
Y2-S2-022M27,7,672,PS,exp,49,→,right,→,0.38657720014452934,True,7,1,0,12
Y2-S2-022M27,7,673,PS,exp,48,↑,up,↑,0.408547000028193,True,7,1,0,12
Y2-S2-022M27,7,674,PS,exp,41,←,left,←,0.32997280010022223,True,7,1,0,12
Y2-S2-022M27,7,675,PS,exp,29,↓,left,←,0.55840909993276,False,6,-1,1,13
Y2-S2-022M27,7,676,PS,exp,29,→,right,→,0.406381499953568,True,7,-1,0,13
Y2-S2-022M27,7,677,PS,exp,39,←,left,←,0.3315887001808733,True,7,-1,0,13
Y2-S2-022M27,7,678,PS,exp,48,→,right,→,0.32562889996916056,True,7,1,1,14
Y2-S2-022M27,7,679,PS,exp,48,↑,left,←,0.40966170001775026,False,6,-1,1,15
Y2-S2-022M27,7,680,PS,exp,26,↓,down,↓,0.6858932999894023,True,7,-1,0,15
Y2-S2-022M27,7,681,PS,exp,29,←,left,←,0.47448630002327263,True,7,-1,0,15
Y2-S2-022M27,7,682,PS,exp,31,↑,left,←,0.7227600999176502,False,7,-1,0,15
Y2-S2-022M27,7,683,PS,exp,44,←,left,←,0.44824729999527335,True,8,-1,0,15
Y2-S2-022M27,7,684,PS,exp,36,→,right,→,0.4481918001547456,True,8,-1,0,15
Y2-S2-022M27,7,685,PS,exp,34,←,left,←,0.3688434998039156,True,8,1,1,16
Y2-S2-022M27,8,686,AS,intra_train,41,↓,left,←,0.7155270997900516,False,19,-,-,-
Y2-S2-022M27,8,687,AS,intra_train,49,←,left,←,1.1649076999165118,True,19,-,-,-
Y2-S2-022M27,8,688,AS,intra_train,42,↓,down,↓,0.8487968998961151,True,19,-,-,-
Y2-S2-022M27,8,689,AS,intra_train,28,↑,up,↑,0.5358736999332905,True,19,-,-,-
Y2-S2-022M27,8,690,AS,intra_train,33,←,left,←,0.5896916999481618,True,19,-,-,-
Y2-S2-022M27,8,691,AS,exp,27,→,left,←,0.46898810006678104,False,13,-1,0,0
Y2-S2-022M27,8,692,AS,exp,46,←,left,←,0.5807263997849077,True,14,-1,0,0
Y2-S2-022M27,8,693,AS,exp,26,↓,down,↓,0.6004664001520723,True,14,-1,0,0
Y2-S2-022M27,8,694,AS,exp,28,→,left,←,0.42229099990800023,False,14,-1,0,0
Y2-S2-022M27,8,695,AS,exp,41,↓,down,↓,0.6625147999729961,True,15,-1,0,0
Y2-S2-022M27,8,696,AS,exp,41,→,right,→,0.6215657000429928,True,15,-1,0,0
Y2-S2-022M27,8,697,AS,exp,31,↓,down,↓,0.6326726002153009,True,15,1,1,1
Y2-S2-022M27,8,698,AS,exp,28,→,right,→,0.5302168999332935,True,14,1,0,1
Y2-S2-022M27,8,699,AS,exp,43,↓,down,↓,0.5906297999899834,True,14,1,0,1
Y2-S2-022M27,8,700,AS,exp,29,↑,left,←,0.6230665000621229,False,14,-1,1,2
Y2-S2-022M27,8,701,AS,exp,50,↓,down,↓,0.653104400029406,True,15,-1,0,2
Y2-S2-022M27,8,702,AS,exp,48,←,left,←,0.4354123000521213,True,15,-1,0,2
Y2-S2-022M27,8,703,AS,exp,33,↓,down,↓,0.9889694999437779,True,15,1,1,3
Y2-S2-022M27,8,704,AS,exp,39,←,left,←,0.6724300999194384,True,14,1,0,3
Y2-S2-022M27,8,705,AS,exp,30,↑,up,↑,0.493858200032264,True,14,1,0,3
Y2-S2-022M27,8,706,AS,exp,45,→,left,←,0.4688999999780208,False,14,-1,1,4
Y2-S2-022M27,8,707,AS,exp,41,←,left,←,0.42077500000596046,True,15,-1,0,4
Y2-S2-022M27,8,708,AS,exp,33,↑,up,↑,0.5037212001625448,True,15,-1,0,4
Y2-S2-022M27,8,709,AS,exp,35,↓,up,↑,0.44485079986043274,False,15,-1,0,4
Y2-S2-022M27,8,710,AS,exp,26,←,left,←,0.4347775001078844,True,16,-1,0,4
Y2-S2-022M27,8,711,AS,exp,31,↓,down,↓,0.4502197001129389,True,16,-1,0,4
Y2-S2-022M27,8,712,AS,exp,28,↑,up,↑,0.7113783000968397,True,16,1,1,5
Y2-S2-022M27,8,713,AS,exp,25,→,right,→,1.2600052999332547,True,15,1,0,5
Y2-S2-022M27,8,714,AS,exp,26,←,left,←,0.5744472998194396,True,15,1,0,5
Y2-S2-022M27,8,715,AS,exp,40,↑,up,↑,0.7229756000451744,True,15,1,0,5
Y2-S2-022M27,8,716,AS,exp,41,↓,down,↓,0.6658554999157786,True,14,1,0,5
Y2-S2-022M27,8,717,AS,exp,35,↑,up,↑,0.5870632999576628,True,14,1,0,5
Y2-S2-022M27,8,718,AS,exp,25,←,left,←,0.4522424000315368,True,14,1,0,5
Y2-S2-022M27,8,719,AS,exp,30,↓,down,↓,0.7998938001692295,True,13,1,0,5
Y2-S2-022M27,8,720,AS,exp,44,→,left,←,0.5752415000461042,False,13,-1,1,6
Y2-S2-022M27,8,721,AS,exp,37,↑,up,↑,0.4667900998611003,True,14,-1,0,6
Y2-S2-022M27,8,722,AS,exp,27,→,right,→,0.5662832001689821,True,14,-1,0,6
Y2-S2-022M27,8,723,AS,exp,42,←,left,←,0.5211011001374573,True,14,1,1,7
Y2-S2-022M27,8,724,AS,exp,25,↑,up,↑,0.4072307001333684,True,13,1,0,7
Y2-S2-022M27,8,725,AS,exp,28,→,right,→,0.6062215999700129,True,13,1,0,7
Y2-S2-022M27,8,726,AS,exp,28,←,left,←,0.4898878000676632,True,13,1,0,7
Y2-S2-022M27,8,727,AS,exp,25,↓,down,↓,0.6177608999423683,True,12,1,0,7
Y2-S2-022M27,8,728,AS,exp,47,←,left,←,1.4046809999272227,True,12,1,0,7
Y2-S2-022M27,8,729,AS,exp,43,↑,up,↑,0.46274049999192357,True,12,1,0,7
Y2-S2-022M27,8,730,AS,exp,48,↓,down,↓,0.53038559993729,True,11,1,0,7
Y2-S2-022M27,8,731,AS,exp,40,↑,up,↑,0.44838900002650917,True,11,1,0,7
Y2-S2-022M27,8,732,AS,exp,33,↓,down,↓,0.7284472999162972,True,11,1,0,7
Y2-S2-022M27,8,733,AS,exp,48,←,left,←,0.45252869999967515,True,10,1,0,7
Y2-S2-022M27,8,734,AS,exp,42,↑,up,↑,0.5463948999531567,True,10,1,0,7
Y2-S2-022M27,8,735,AS,exp,42,↓,down,↓,0.6045125999953598,True,10,1,0,7
Y2-S2-022M27,8,736,AS,exp,47,→,left,←,0.4597632000222802,False,9,-1,1,8
Y2-S2-022M27,8,737,AS,exp,40,↓,up,↑,0.5272795001510531,False,10,-1,0,8
Y2-S2-022M27,8,738,AS,exp,42,↑,right,→,0.5363413000013679,False,11,-1,0,8
Y2-S2-022M27,8,739,AS,exp,43,→,right,→,0.43192650005221367,True,12,-1,0,8
Y2-S2-022M27,8,740,AS,exp,43,←,right,→,0.457426399923861,False,12,-1,0,8
Y2-S2-022M27,8,741,AS,exp,48,↑,up,↑,0.41870929999276996,True,13,-1,0,8
Y2-S2-022M27,8,742,AS,exp,33,→,up,↑,0.6190776999574155,False,13,-1,0,8
Y2-S2-022M27,8,743,AS,exp,26,↑,up,↑,0.42414589994587004,True,14,-1,0,8
Y2-S2-022M27,8,744,AS,exp,25,←,left,←,0.5067900000140071,True,14,-1,0,8
Y2-S2-022M27,8,745,AS,exp,40,↓,up,↑,0.45469130016863346,False,14,-1,0,8
Y2-S2-022M27,8,746,AS,exp,25,←,left,←,0.524496299913153,True,15,-1,0,8
Y2-S2-022M27,8,747,AS,exp,41,→,right,→,0.46600200003013015,True,15,-1,0,8
Y2-S2-022M27,8,748,AS,exp,28,↑,up,↑,0.5412638999987394,True,15,1,1,9
Y2-S2-022M27,8,749,AS,exp,28,←,left,←,0.4014345998875797,True,14,1,0,9
Y2-S2-022M27,8,750,AS,exp,27,→,right,→,0.48172339983284473,True,14,1,0,9
Y2-S2-022M27,8,751,AS,exp,27,←,left,←,0.4374643999617547,True,14,1,0,9
Y2-S2-022M27,8,752,AS,exp,29,↓,left,←,0.5407825000584126,False,13,-1,1,10
Y2-S2-022M27,8,753,AS,exp,32,↑,left,←,0.6388210000004619,False,14,-1,0,10
Y2-S2-022M27,8,754,AS,exp,48,→,right,→,0.4608761998824775,True,15,-1,0,10
Y2-S2-022M27,8,755,AS,exp,44,←,left,←,0.48944479995407164,True,15,-1,0,10
Y2-S2-022M27,8,756,AS,exp,50,↓,left,←,1.408542500110343,False,15,-1,0,10
Y2-S2-022M27,8,757,AS,exp,35,↑,up,↑,0.5882746998686343,True,16,-1,0,10
Y2-S2-022M27,8,758,AS,exp,39,↓,down,↓,0.7293851000722498,True,16,-1,0,10
Y2-S2-022M27,8,759,AS,exp,36,→,left,←,0.36799559998326004,False,16,-1,0,10
Y2-S2-022M27,8,760,AS,exp,41,↓,down,↓,0.6856037999968976,True,17,-1,0,10
Y2-S2-022M27,8,761,AS,exp,46,→,right,→,0.8324379997793585,True,17,-1,0,10
Y2-S2-022M27,8,762,AS,exp,41,←,left,←,0.7082545000594109,True,17,1,1,11
Y2-S2-022M27,8,763,AS,exp,45,↑,up,↑,0.4848954000044614,True,16,1,0,11
Y2-S2-022M27,8,764,AS,exp,34,←,left,←,0.3840731999371201,True,16,1,0,11
Y2-S2-022M27,8,765,AS,exp,44,↑,up,↑,0.5143087999895215,True,16,1,0,11
Y2-S2-022M27,8,766,AS,exp,46,→,right,→,0.4957620999775827,True,15,1,0,11
Y2-S2-022M27,8,767,AS,exp,39,↓,down,↓,0.6433093999512494,True,15,1,0,11
Y2-S2-022M27,8,768,AS,exp,28,↑,up,↑,0.447278399951756,True,15,1,0,11
Y2-S2-022M27,8,769,AS,exp,43,→,left,←,0.6550306000281125,False,14,-1,1,12
Y2-S2-022M27,8,770,AS,exp,34,←,left,←,0.7010133001022041,True,15,-1,0,12
Y2-S2-022M27,8,771,AS,exp,50,↓,down,↓,0.6392057999037206,True,15,-1,0,12
Y2-S2-022M27,8,772,AS,exp,25,↑,up,↑,0.4717145999893546,True,15,1,1,13
Y2-S2-022M27,8,773,AS,exp,25,←,left,←,0.5871390998363495,True,14,1,0,13
Y2-S2-022M27,8,774,AS,exp,46,↓,down,↓,0.841161800082773,True,14,1,0,13
Y2-S2-022M27,8,775,AS,exp,31,←,left,←,0.5809281999245286,True,14,1,0,13
Y2-S2-022M27,8,776,AS,exp,36,→,right,→,0.846695400075987,True,13,1,0,13
Y2-S2-022M27,8,777,AS,exp,47,↑,up,↑,0.4676723999436945,True,13,1,0,13
Y2-S2-022M27,8,778,AS,exp,50,↓,down,↓,0.7512018999550492,True,13,1,0,13
Y2-S2-022M27,8,779,AS,exp,40,↑,up,↑,0.4805870000272989,True,12,1,0,13
Y2-S2-022M27,8,780,AS,exp,30,↓,right,→,0.8909031001385301,False,12,-1,1,14
Y2-S2-022M27,8,781,AS,exp,45,↑,right,→,0.5987744999583811,False,13,-1,0,14
Y2-S2-022M27,8,782,AS,exp,46,↓,down,↓,0.6536298000719398,True,14,-1,0,14
Y2-S2-022M27,8,783,AS,exp,35,↑,up,↑,0.47743679978884757,True,14,-1,0,14
Y2-S2-022M27,8,784,AS,exp,32,↓,down,↓,0.5433096999768168,True,14,1,1,15
Y2-S2-022M27,8,785,AS,exp,26,→,right,→,0.47869079979136586,True,13,1,0,15
Y2-S2-022M27,8,786,AS,exp,39,←,left,←,0.6159194000065327,True,13,1,0,15
Y2-S2-022M27,8,787,AS,exp,41,→,right,→,0.4220949998125434,True,13,1,0,15
Y2-S2-022M27,8,788,AS,exp,45,↑,up,↑,0.665248200064525,True,12,1,0,15
Y2-S2-022M27,8,789,AS,exp,32,→,left,←,0.6034884999971837,False,12,-1,1,16
