PART_ID,Block_no,Trial_no,Block_type,Trial_type,CSI,Stim_letter,Key_pressed,letter_choose,Rt,Corr,Stimulus Time,Level,Reversal,Revs_count
Y2-S2-091M19,1,1,PS,train,38,↓,down,↓,0.7605821001343429,True,30,-,-,-
Y2-S2-091M19,1,2,PS,train,27,→,right,→,0.5840739002451301,True,30,-,-,-
Y2-S2-091M19,1,3,PS,train,32,↑,up,↑,0.5673229997046292,True,30,-,-,-
Y2-S2-091M19,1,4,PS,train,48,←,left,←,1.6039334000088274,True,30,-,-,-
Y2-S2-091M19,1,5,PS,train,49,↑,up,↑,0.4838745999149978,True,30,-,-,-
Y2-S2-091M19,1,6,PS,train,43,←,right,→,0.5505380998365581,False,30,-,-,-
Y2-S2-091M19,1,7,PS,train,43,→,right,→,1.3163032000884414,True,30,-,-,-
Y2-S2-091M19,1,8,PS,train,28,↑,up,↑,0.48453280003741384,True,30,-,-,-
Y2-S2-091M19,1,9,PS,train,36,→,right,→,0.46812429977580905,True,30,-,-,-
Y2-S2-091M19,1,10,PS,train,43,↓,down,↓,1.0559781999327242,True,30,-,-,-
Y2-S2-091M19,2,11,AS,train,37,↑,up,↑,0.46800489956513047,True,45,-,-,-
Y2-S2-091M19,2,12,AS,train,45,←,left,←,0.48467619996517897,True,45,-,-,-
Y2-S2-091M19,2,13,AS,train,33,↑,up,↑,0.3845331999473274,True,45,-,-,-
Y2-S2-091M19,2,14,AS,train,46,↓,down,↓,0.7341761002317071,True,45,-,-,-
Y2-S2-091M19,2,15,AS,train,26,→,right,→,0.4182544001378119,True,45,-,-,-
Y2-S2-091M19,2,16,AS,train,26,↓,down,↓,0.6179736997000873,True,45,-,-,-
Y2-S2-091M19,2,17,AS,train,43,←,right,→,0.36790450010448694,False,45,-,-,-
Y2-S2-091M19,2,18,AS,train,34,↑,up,↑,0.8841130002401769,True,45,-,-,-
Y2-S2-091M19,2,19,AS,train,31,→,right,→,0.634551600087434,True,45,-,-,-
Y2-S2-091M19,2,20,AS,train,49,←,left,←,0.6175156999379396,True,45,-,-,-
Y2-S2-091M19,-,21,PS,adaptive,47,↓,down,↓,0.47657059971243143,True,10,0,0,0
Y2-S2-091M19,-,22,PS,adaptive,36,→,left,←,0.8267533998005092,False,10,-1,0,0
Y2-S2-091M19,-,23,PS,adaptive,30,↓,down,↓,0.5915856002829969,True,11,-1,0,0
Y2-S2-091M19,-,24,PS,adaptive,44,←,left,←,0.5709072002209723,True,11,-1,0,0
Y2-S2-091M19,-,25,PS,adaptive,28,↑,up,↑,0.7218795996159315,True,11,1,1,1
Y2-S2-091M19,-,26,PS,adaptive,25,←,left,←,0.5635541998781264,True,10,1,0,1
Y2-S2-091M19,-,27,PS,adaptive,34,↓,left,←,0.6212386996485293,False,10,-1,1,2
Y2-S2-091M19,-,28,PS,adaptive,46,↑,up,↑,0.5673755998723209,True,11,-1,0,2
Y2-S2-091M19,-,29,PS,adaptive,36,←,left,←,0.5199792999774218,True,11,-1,0,2
Y2-S2-091M19,-,30,PS,adaptive,49,↑,up,↑,0.4537122002802789,True,11,1,1,3
Y2-S2-091M19,-,31,PS,adaptive,45,→,up,↑,0.5606134999543428,False,10,-1,1,4
Y2-S2-091M19,-,32,AS,adaptive,35,↓,down,↓,0.5166353001259267,True,20,0,0,0
Y2-S2-091M19,-,33,AS,adaptive,28,→,left,←,0.5742584001272917,False,20,-1,0,0
Y2-S2-091M19,-,34,AS,adaptive,38,←,left,←,1.1350278998725116,True,21,-1,0,0
Y2-S2-091M19,-,35,AS,adaptive,32,↑,up,↑,0.8235149001702666,True,21,-1,0,0
Y2-S2-091M19,-,36,AS,adaptive,34,↓,down,↓,0.9444467001594603,True,21,1,1,1
Y2-S2-091M19,-,37,AS,adaptive,50,↑,down,↓,0.7802895000204444,False,20,-1,1,2
Y2-S2-091M19,-,38,AS,adaptive,50,→,right,→,0.666232599876821,True,21,-1,0,2
Y2-S2-091M19,-,39,AS,adaptive,46,↓,down,↓,1.2120188996195793,True,21,-1,0,2
Y2-S2-091M19,-,40,AS,adaptive,37,→,right,→,0.7099934001453221,True,21,1,1,3
Y2-S2-091M19,-,41,AS,adaptive,43,←,left,←,0.9363720002584159,True,20,1,0,3
Y2-S2-091M19,-,42,AS,adaptive,26,→,right,→,0.450496600009501,True,20,1,0,3
Y2-S2-091M19,-,43,AS,adaptive,37,↑,up,↑,0.9433201998472214,True,20,1,0,3
Y2-S2-091M19,-,44,AS,adaptive,30,→,right,→,0.780122899916023,True,19,1,0,3
Y2-S2-091M19,-,45,AS,adaptive,41,↓,left,←,0.6078925998881459,False,19,-1,1,4
Y2-S2-091M19,1,46,AS,intra_train,41,→,right,→,0.500453700311482,True,30,-,-,-
Y2-S2-091M19,1,47,AS,intra_train,39,↑,right,→,0.6004999000579119,False,30,-,-,-
Y2-S2-091M19,1,48,AS,intra_train,39,→,right,→,0.5840528002008796,True,30,-,-,-
Y2-S2-091M19,1,49,AS,intra_train,42,↓,up,↑,0.5172993000596762,False,30,-,-,-
Y2-S2-091M19,1,50,AS,intra_train,38,↑,down,↓,0.7637419998645782,False,30,-,-,-
Y2-S2-091M19,1,51,AS,exp,27,↓,down,↓,0.7338775000534952,True,20,0,0,0
Y2-S2-091M19,1,52,AS,exp,32,←,left,←,0.896421100012958,True,20,0,0,0
Y2-S2-091M19,1,53,AS,exp,30,↓,down,↓,0.6682799002155662,True,20,1,0,0
Y2-S2-091M19,1,54,AS,exp,36,↑,up,↑,0.6836206000298262,True,19,1,0,0
Y2-S2-091M19,1,55,AS,exp,30,←,left,←,0.6762326997704804,True,19,1,0,0
Y2-S2-091M19,1,56,AS,exp,29,→,right,→,0.5999127998948097,True,19,1,0,0
Y2-S2-091M19,1,57,AS,exp,39,↑,up,↑,0.469151200260967,True,18,1,0,0
Y2-S2-091M19,1,58,AS,exp,37,→,right,→,0.5334244999103248,True,18,1,0,0
Y2-S2-091M19,1,59,AS,exp,40,←,right,→,0.953454100061208,False,18,-1,1,1
Y2-S2-091M19,1,60,AS,exp,26,↓,down,↓,0.6628451999276876,True,19,-1,0,1
Y2-S2-091M19,1,61,AS,exp,42,←,left,←,0.601600999943912,True,19,-1,0,1
Y2-S2-091M19,1,62,AS,exp,34,↓,down,↓,0.6459792000241578,True,19,1,1,2
Y2-S2-091M19,1,63,AS,exp,42,→,right,→,0.43402239959686995,True,18,1,0,2
Y2-S2-091M19,1,64,AS,exp,48,↑,left,←,0.5496946997009218,False,18,-1,1,3
Y2-S2-091M19,1,65,AS,exp,27,←,right,→,0.43347709998488426,False,19,-1,0,3
Y2-S2-091M19,1,66,AS,exp,36,→,right,→,0.5583616998046637,True,20,-1,0,3
Y2-S2-091M19,1,67,AS,exp,41,↑,down,↓,0.6902232998982072,False,20,-1,0,3
Y2-S2-091M19,1,68,AS,exp,29,←,left,←,0.8834426999092102,True,21,-1,0,3
Y2-S2-091M19,1,69,AS,exp,45,↑,up,↑,0.7094477000646293,True,21,-1,0,3
Y2-S2-091M19,1,70,AS,exp,30,←,left,←,0.778700599912554,True,21,1,1,4
Y2-S2-091M19,1,71,AS,exp,38,↑,left,←,1.8839206001721323,False,20,-1,1,5
Y2-S2-091M19,1,72,AS,exp,44,←,no_key,no_letter,-1.0,False,21,-1,0,5
Y2-S2-091M19,1,73,AS,exp,37,↑,right,→,1.0899996003136039,False,22,-1,0,5
Y2-S2-091M19,1,74,AS,exp,49,→,no_key,no_letter,-1.0,False,23,-1,0,5
Y2-S2-091M19,1,75,AS,exp,45,←,right,→,0.6839627004228532,False,24,-1,0,5
Y2-S2-091M19,1,76,AS,exp,41,↓,right,→,0.82857759995386,False,25,-1,0,5
Y2-S2-091M19,1,77,AS,exp,32,→,up,↑,0.38371169986203313,False,26,-1,0,5
Y2-S2-091M19,1,78,AS,exp,43,←,up,↑,0.1349188000895083,False,27,-1,0,5
Y2-S2-091M19,1,79,AS,exp,27,↑,no_key,no_letter,-1.0,False,28,-1,0,5
Y2-S2-091M19,1,80,AS,exp,45,←,up,↑,0.9363453998230398,False,29,-1,0,5
Y2-S2-091M19,1,81,AS,exp,30,↑,up,↑,0.7329815002158284,True,30,-1,0,5
Y2-S2-091M19,1,82,AS,exp,30,←,right,→,0.6338819996453822,False,30,-1,0,5
Y2-S2-091M19,1,83,AS,exp,36,↑,up,↑,0.6506502996198833,True,31,-1,0,5
Y2-S2-091M19,1,84,AS,exp,46,↓,up,↑,0.6005814000964165,False,31,-1,0,5
Y2-S2-091M19,1,85,AS,exp,36,→,right,→,0.45120410015806556,True,32,-1,0,5
Y2-S2-091M19,1,86,AS,exp,32,↑,up,↑,0.7142868000082672,True,32,-1,0,5
Y2-S2-091M19,1,87,AS,exp,28,↓,down,↓,0.7246767999604344,True,32,1,1,6
Y2-S2-091M19,1,88,AS,exp,31,←,down,↓,1.217503699939698,False,31,-1,1,7
Y2-S2-091M19,1,89,AS,exp,38,→,right,→,0.600390000268817,True,32,-1,0,7
Y2-S2-091M19,1,90,AS,exp,43,←,right,→,0.28470310010015965,False,32,-1,0,7
Y2-S2-091M19,1,91,AS,exp,25,↓,up,↑,0.6506516002118587,False,33,-1,0,7
Y2-S2-091M19,1,92,AS,exp,30,→,down,↓,1.4905683998949826,False,34,-1,0,7
Y2-S2-091M19,1,93,AS,exp,37,←,no_key,no_letter,-1.0,False,35,-1,0,7
Y2-S2-091M19,1,94,AS,exp,41,↑,down,↓,1.3251256002113223,False,36,-1,0,7
Y2-S2-091M19,1,95,AS,exp,26,←,right,→,0.31780949980020523,False,37,-1,0,7
Y2-S2-091M19,1,96,AS,exp,44,→,left,←,1.0205362001433969,False,38,-1,0,7
Y2-S2-091M19,1,97,AS,exp,40,←,right,→,0.23441490018740296,False,39,-1,0,7
Y2-S2-091M19,1,98,AS,exp,31,↑,up,↑,1.2968888999894261,True,40,-1,0,7
Y2-S2-091M19,1,99,AS,exp,37,↓,down,↓,0.7506118998862803,True,40,-1,0,7
Y2-S2-091M19,1,100,AS,exp,39,↑,up,↑,0.7003470002673566,True,40,1,1,8
Y2-S2-091M19,1,101,AS,exp,43,↓,down,↓,1.1764585999771953,True,39,1,0,8
Y2-S2-091M19,1,102,AS,exp,49,↑,up,↑,1.0563978999853134,True,39,1,0,8
Y2-S2-091M19,1,103,AS,exp,38,←,right,→,0.6010720999911427,False,39,-1,1,9
Y2-S2-091M19,1,104,AS,exp,47,↑,up,↑,0.46787150017917156,True,40,-1,0,9
Y2-S2-091M19,1,105,AS,exp,38,↓,down,↓,0.9267916996032,True,40,-1,0,9
Y2-S2-091M19,1,106,AS,exp,38,↑,right,→,0.051037900149822235,False,40,-1,0,9
Y2-S2-091M19,1,107,AS,exp,25,←,right,→,0.4344561998732388,False,41,-1,0,9
Y2-S2-091M19,1,108,AS,exp,42,→,up,↑,0.9558523003943264,False,42,-1,0,9
Y2-S2-091M19,1,109,AS,exp,34,↓,no_key,no_letter,-1.0,False,43,-1,0,9
Y2-S2-091M19,1,110,AS,exp,31,→,right,→,1.470654800068587,True,44,-1,0,9
Y2-S2-091M19,1,111,AS,exp,48,↑,up,↑,0.4346519000828266,True,44,-1,0,9
Y2-S2-091M19,1,112,AS,exp,35,←,right,→,0.6680426001548767,False,44,-1,0,9
Y2-S2-091M19,1,113,AS,exp,35,↑,up,↑,0.7839497001841664,True,45,-1,0,9
Y2-S2-091M19,1,114,AS,exp,35,→,right,→,0.7176101002842188,True,45,-1,0,9
Y2-S2-091M19,1,115,AS,exp,29,←,left,←,0.85061139985919,True,45,1,1,10
Y2-S2-091M19,1,116,AS,exp,30,→,right,→,0.8337837001308799,True,44,1,0,10
Y2-S2-091M19,1,117,AS,exp,40,←,left,←,0.7838317998684943,True,44,1,0,10
Y2-S2-091M19,1,118,AS,exp,30,↓,down,↓,0.9977485002018511,True,44,1,0,10
Y2-S2-091M19,1,119,AS,exp,35,→,right,→,0.8006972996518016,True,43,1,0,10
Y2-S2-091M19,1,120,AS,exp,41,←,left,←,0.584400000050664,True,43,1,0,10
Y2-S2-091M19,1,121,AS,exp,35,↓,down,↓,0.75078110024333,True,43,1,0,10
Y2-S2-091M19,1,122,AS,exp,29,←,left,←,0.484222499653697,True,42,1,0,10
Y2-S2-091M19,1,123,AS,exp,32,↑,right,→,0.5843756003305316,False,42,-1,1,11
Y2-S2-091M19,1,124,AS,exp,34,↓,down,↓,1.014066600240767,True,43,-1,0,11
Y2-S2-091M19,1,125,AS,exp,36,↑,up,↑,0.7840777998790145,True,43,-1,0,11
Y2-S2-091M19,1,126,AS,exp,42,←,left,←,1.056629799772054,True,43,1,1,12
Y2-S2-091M19,1,127,AS,exp,44,→,right,→,0.40128460014238954,True,42,1,0,12
Y2-S2-091M19,1,128,AS,exp,35,↑,up,↑,0.48469420010223985,True,42,1,0,12
Y2-S2-091M19,1,129,AS,exp,35,←,left,←,0.45153439976274967,True,42,1,0,12
Y2-S2-091M19,1,130,AS,exp,29,↓,down,↓,0.5843363995663822,True,41,1,0,12
Y2-S2-091M19,1,131,AS,exp,39,→,right,→,0.550707200076431,True,41,1,0,12
Y2-S2-091M19,1,132,AS,exp,46,←,left,←,0.467786299996078,True,41,1,0,12
Y2-S2-091M19,1,133,AS,exp,50,→,right,→,0.4847669997252524,True,40,1,0,12
Y2-S2-091M19,1,134,AS,exp,31,←,left,←,1.3685423000715673,True,40,1,0,12
Y2-S2-091M19,1,135,AS,exp,27,↓,left,←,1.0703201000578701,False,40,-1,1,13
Y2-S2-091M19,1,136,AS,exp,25,→,left,←,2.122619899921119,False,41,-1,0,13
Y2-S2-091M19,1,137,AS,exp,46,↑,down,↓,1.73338310001418,False,42,-1,0,13
Y2-S2-091M19,1,138,AS,exp,46,↓,down,↓,0.6012482000514865,True,43,-1,0,13
Y2-S2-091M19,1,139,AS,exp,40,←,left,←,0.6345974998548627,True,43,-1,0,13
Y2-S2-091M19,1,140,AS,exp,26,↓,down,↓,0.892807399854064,True,43,1,1,14
Y2-S2-091M19,1,141,AS,exp,26,←,left,←,0.7007228001020849,True,42,1,0,14
Y2-S2-091M19,1,142,AS,exp,43,→,right,→,0.4180211001075804,True,42,1,0,14
Y2-S2-091M19,1,143,AS,exp,34,←,left,←,0.5508442996069789,True,42,1,0,14
Y2-S2-091M19,1,144,AS,exp,25,→,right,→,0.5341149000450969,True,41,1,0,14
Y2-S2-091M19,1,145,AS,exp,46,↑,up,↑,1.1081162998452783,True,41,1,0,14
Y2-S2-091M19,1,146,AS,exp,41,↓,down,↓,0.8007629001513124,True,41,1,0,14
Y2-S2-091M19,1,147,AS,exp,48,→,right,→,0.6180112999863923,True,40,1,0,14
Y2-S2-091M19,1,148,AS,exp,50,↓,up,↑,0.650608700234443,False,40,-1,1,15
Y2-S2-091M19,1,149,AS,exp,38,↑,right,→,0.5345276999287307,False,41,-1,0,15
Y2-S2-091M19,1,150,AS,exp,37,→,right,→,0.8340807999484241,True,42,-1,0,15
Y2-S2-091M19,1,151,AS,exp,34,↑,up,↑,0.7329122996889055,True,42,-1,0,15
Y2-S2-091M19,1,152,AS,exp,48,→,right,→,0.7338332002982497,True,42,1,1,16
Y2-S2-091M19,2,153,PS,intra_train,40,↑,right,→,0.6467091999948025,False,16,-,-,-
Y2-S2-091M19,2,154,PS,intra_train,46,→,left,←,0.7045227997004986,False,16,-,-,-
Y2-S2-091M19,2,155,PS,intra_train,43,↓,down,↓,0.5569481002166867,True,16,-,-,-
Y2-S2-091M19,2,156,PS,intra_train,33,←,left,←,0.5770804998464882,True,16,-,-,-
Y2-S2-091M19,2,157,PS,intra_train,33,→,right,→,0.6635714997537434,True,16,-,-,-
Y2-S2-091M19,2,158,PS,exp,26,←,left,←,0.7077282001264393,True,11,0,0,0
Y2-S2-091M19,2,159,PS,exp,25,↑,up,↑,0.701087299734354,True,11,0,0,0
Y2-S2-091M19,2,160,PS,exp,40,→,right,→,0.7287619998678565,True,11,1,0,0
Y2-S2-091M19,2,161,PS,exp,48,↑,up,↑,0.5420691999606788,True,10,1,0,0
Y2-S2-091M19,2,162,PS,exp,29,←,right,→,0.7169018997810781,False,10,-1,1,1
Y2-S2-091M19,2,163,PS,exp,28,↓,left,←,1.7499893996864557,False,11,-1,0,1
Y2-S2-091M19,2,164,PS,exp,35,↑,right,→,0.8514286000281572,False,12,-1,0,1
Y2-S2-091M19,2,165,PS,exp,39,→,right,→,0.6609749998897314,True,13,-1,0,1
Y2-S2-091M19,2,166,PS,exp,46,↓,down,↓,0.7908735000528395,True,13,-1,0,1
Y2-S2-091M19,2,167,PS,exp,43,←,down,↓,1.2757635000161827,False,13,-1,0,1
Y2-S2-091M19,2,168,PS,exp,27,→,left,←,0.9357254998758435,False,14,-1,0,1
Y2-S2-091M19,2,169,PS,exp,48,←,right,→,0.6256812000647187,False,15,-1,0,1
Y2-S2-091M19,2,170,PS,exp,33,↑,up,↑,0.5715523003600538,True,16,-1,0,1
Y2-S2-091M19,2,171,PS,exp,42,←,left,←,0.5739631000906229,True,16,-1,0,1
Y2-S2-091M19,2,172,PS,exp,48,↓,up,↑,0.5875575998798013,False,16,-1,0,1
Y2-S2-091M19,2,173,PS,exp,28,←,up,↑,0.7241688999347389,False,17,-1,0,1
Y2-S2-091M19,2,174,PS,exp,26,→,right,→,0.508857199922204,True,18,-1,0,1
Y2-S2-091M19,2,175,PS,exp,34,↓,left,←,0.7819560999050736,False,18,-1,0,1
Y2-S2-091M19,2,176,PS,exp,39,↑,up,↑,0.6195046999491751,True,19,-1,0,1
Y2-S2-091M19,2,177,PS,exp,36,↓,up,↑,0.5907466001808643,False,19,-1,0,1
Y2-S2-091M19,2,178,PS,exp,30,↑,left,←,0.9524514996446669,False,20,-1,0,1
Y2-S2-091M19,2,179,PS,exp,42,↓,up,↑,0.7447452996857464,False,21,-1,0,1
Y2-S2-091M19,2,180,PS,exp,49,→,up,↑,0.8966516000218689,False,22,-1,0,1
Y2-S2-091M19,2,181,PS,exp,30,↓,left,←,0.5013151001185179,False,23,-1,0,1
Y2-S2-091M19,2,182,PS,exp,50,→,right,→,0.43401330010965466,True,24,-1,0,1
Y2-S2-091M19,2,183,PS,exp,38,←,right,→,0.6087243999354541,False,24,-1,0,1
Y2-S2-091M19,2,184,PS,exp,25,↑,right,→,0.6705289999954402,False,25,-1,0,1
Y2-S2-091M19,2,185,PS,exp,48,→,right,→,0.4507702998816967,True,26,-1,0,1
Y2-S2-091M19,2,186,PS,exp,45,↑,left,←,1.0913567999377847,False,26,-1,0,1
Y2-S2-091M19,2,187,PS,exp,31,→,right,→,1.0128044998273253,True,27,-1,0,1
Y2-S2-091M19,2,188,PS,exp,39,↑,up,↑,0.46733109978958964,True,27,-1,0,1
Y2-S2-091M19,2,189,PS,exp,30,←,left,←,1.1663327999413013,True,27,1,1,2
Y2-S2-091M19,2,190,PS,exp,43,↑,right,→,0.46771599957719445,False,26,-1,1,3
Y2-S2-091M19,2,191,PS,exp,50,←,left,←,0.7422326998785138,True,27,-1,0,3
Y2-S2-091M19,2,192,PS,exp,36,→,right,→,0.7171477000229061,True,27,-1,0,3
Y2-S2-091M19,2,193,PS,exp,36,↓,down,↓,0.9759435998275876,True,27,1,1,4
Y2-S2-091M19,2,194,PS,exp,30,↑,up,↑,0.6128610000014305,True,26,1,0,4
Y2-S2-091M19,2,195,PS,exp,46,→,right,→,0.5005669998936355,True,26,1,0,4
Y2-S2-091M19,2,196,PS,exp,37,↓,down,↓,0.7252998999319971,True,26,1,0,4
Y2-S2-091M19,2,197,PS,exp,32,↑,up,↑,1.212669000029564,True,25,1,0,4
Y2-S2-091M19,2,198,PS,exp,48,→,right,→,0.9728755000978708,True,25,1,0,4
Y2-S2-091M19,2,199,PS,exp,33,↓,down,↓,0.97740099998191,True,25,1,0,4
Y2-S2-091M19,2,200,PS,exp,40,←,left,←,0.754559800028801,True,24,1,0,4
Y2-S2-091M19,2,201,PS,exp,31,↓,right,→,1.9883393002673984,False,24,-1,1,5
Y2-S2-091M19,2,202,PS,exp,48,→,no_key,no_letter,-1.0,False,25,-1,0,5
Y2-S2-091M19,2,203,PS,exp,36,↓,down,↓,0.9060669997707009,True,26,-1,0,5
Y2-S2-091M19,2,204,PS,exp,28,←,left,←,1.2288967999629676,True,26,-1,0,5
Y2-S2-091M19,2,205,PS,exp,44,→,right,→,0.638624900020659,True,26,1,1,6
Y2-S2-091M19,2,206,PS,exp,46,↑,up,↑,0.48405000008642673,True,25,1,0,6
Y2-S2-091M19,2,207,PS,exp,42,←,up,↑,0.6823331001214683,False,25,-1,1,7
Y2-S2-091M19,2,208,PS,exp,31,↑,up,↑,0.48423369973897934,True,26,-1,0,7
Y2-S2-091M19,2,209,PS,exp,37,←,up,↑,0.8220760002732277,False,26,-1,0,7
Y2-S2-091M19,2,210,PS,exp,50,↓,down,↓,0.8173468001186848,True,27,-1,0,7
Y2-S2-091M19,2,211,PS,exp,29,→,no_key,no_letter,-1.0,False,27,-1,0,7
Y2-S2-091M19,2,212,PS,exp,34,↑,down,↓,0.8581918999552727,False,28,-1,0,7
Y2-S2-091M19,2,213,PS,exp,38,→,no_key,no_letter,-1.0,False,29,-1,0,7
Y2-S2-091M19,2,214,PS,exp,38,↑,no_key,no_letter,-1.0,False,30,-1,0,7
Y2-S2-091M19,2,215,PS,exp,47,→,no_key,no_letter,-1.0,False,31,-1,0,7
Y2-S2-091M19,2,216,PS,exp,33,↓,down,↓,0.8143779998645186,True,32,-1,0,7
Y2-S2-091M19,2,217,PS,exp,25,↑,down,↓,2.018867500126362,False,32,-1,0,7
Y2-S2-091M19,2,218,PS,exp,43,←,no_key,no_letter,-1.0,False,33,-1,0,7
Y2-S2-091M19,2,219,PS,exp,25,↑,up,↑,1.0442836000584066,True,34,-1,0,7
Y2-S2-091M19,2,220,PS,exp,34,→,right,→,1.1440836996771395,True,34,-1,0,7
Y2-S2-091M19,2,221,PS,exp,36,←,left,←,0.7588831000030041,True,34,1,1,8
Y2-S2-091M19,2,222,PS,exp,25,↑,right,→,1.7758361999876797,False,33,-1,1,9
Y2-S2-091M19,2,223,PS,exp,26,→,right,→,0.6341423997655511,True,34,-1,0,9
Y2-S2-091M19,2,224,PS,exp,30,↑,up,↑,0.8849151004105806,True,34,-1,0,9
Y2-S2-091M19,2,225,PS,exp,48,←,left,←,0.8075526002794504,True,34,1,1,10
Y2-S2-091M19,2,226,PS,exp,34,→,right,→,0.772376200184226,True,33,1,0,10
Y2-S2-091M19,2,227,PS,exp,37,↑,left,←,0.3681721999309957,False,33,-1,1,11
Y2-S2-091M19,2,228,PS,exp,30,←,no_key,no_letter,-1.0,False,34,-1,0,11
Y2-S2-091M19,2,229,PS,exp,25,→,right,→,0.910610199905932,True,35,-1,0,11
Y2-S2-091M19,2,230,PS,exp,42,←,no_key,no_letter,-1.0,False,35,-1,0,11
Y2-S2-091M19,2,231,PS,exp,44,↑,up,↑,0.41760149970650673,True,36,-1,0,11
Y2-S2-091M19,2,232,PS,exp,44,→,right,→,0.5508189001120627,True,36,-1,0,11
Y2-S2-091M19,2,233,PS,exp,27,←,left,←,0.6172672999091446,True,36,1,1,12
Y2-S2-091M19,2,234,PS,exp,33,→,right,→,0.43389790039509535,True,35,1,0,12
Y2-S2-091M19,2,235,PS,exp,46,↓,up,↑,0.46777560003101826,False,35,-1,1,13
Y2-S2-091M19,2,236,PS,exp,37,↑,down,↓,0.6172449998557568,False,36,-1,0,13
Y2-S2-091M19,2,237,PS,exp,36,↓,down,↓,0.9913855995982885,True,37,-1,0,13
Y2-S2-091M19,2,238,PS,exp,44,←,left,←,0.794155000243336,True,37,-1,0,13
Y2-S2-091M19,2,239,PS,exp,32,→,right,→,0.8367075999267399,True,37,1,1,14
Y2-S2-091M19,2,240,PS,exp,42,↓,down,↓,0.8397661000490189,True,36,1,0,14
Y2-S2-091M19,2,241,PS,exp,28,→,right,→,0.5178783000446856,True,36,1,0,14
Y2-S2-091M19,2,242,PS,exp,31,↓,down,↓,1.0725432997569442,True,36,1,0,14
Y2-S2-091M19,2,243,PS,exp,42,←,left,←,1.600419900380075,True,35,1,0,14
Y2-S2-091M19,2,244,PS,exp,38,↑,no_key,no_letter,-1.0,False,35,-1,1,15
Y2-S2-091M19,2,245,PS,exp,43,↓,left,←,0.9167210003361106,False,36,-1,0,15
Y2-S2-091M19,2,246,PS,exp,45,←,no_key,no_letter,-1.0,False,37,-1,0,15
Y2-S2-091M19,2,247,PS,exp,38,↑,left,←,0.0013033999130129814,False,38,-1,0,15
Y2-S2-091M19,2,248,PS,exp,28,↓,right,→,1.3382768998853862,False,39,-1,0,15
Y2-S2-091M19,2,249,PS,exp,26,→,up,↑,0.2344658998772502,False,40,-1,0,15
Y2-S2-091M19,2,250,PS,exp,41,↑,up,↑,0.7519630999304354,True,41,-1,0,15
Y2-S2-091M19,2,251,PS,exp,37,←,no_key,no_letter,-1.0,False,41,-1,0,15
Y2-S2-091M19,2,252,PS,exp,32,↑,up,↑,1.7019380000419915,True,42,-1,0,15
Y2-S2-091M19,2,253,PS,exp,44,→,right,→,0.7006621998734772,True,42,-1,0,15
Y2-S2-091M19,2,254,PS,exp,28,↓,down,↓,1.5620361003093421,True,42,1,1,16
Y2-S2-091M19,3,255,PS,intra_train,25,←,left,←,0.6820519999600947,True,16,-,-,-
Y2-S2-091M19,3,256,PS,intra_train,40,→,right,→,0.45807169983163476,True,16,-,-,-
Y2-S2-091M19,3,257,PS,intra_train,30,↓,down,↓,0.6205270001664758,True,16,-,-,-
Y2-S2-091M19,3,258,PS,intra_train,31,↑,down,↓,0.820805300027132,False,16,-,-,-
Y2-S2-091M19,3,259,PS,intra_train,44,→,right,→,0.6289837998338044,True,16,-,-,-
Y2-S2-091M19,3,260,PS,exp,28,↓,down,↓,0.8067696001380682,True,11,0,0,0
Y2-S2-091M19,3,261,PS,exp,49,←,right,→,0.9924647002480924,False,11,-1,0,0
Y2-S2-091M19,3,262,PS,exp,32,↑,up,↑,0.5066943001002073,True,12,-1,0,0
Y2-S2-091M19,3,263,PS,exp,43,↓,down,↓,0.5031979996711016,True,12,-1,0,0
Y2-S2-091M19,3,264,PS,exp,27,↑,down,↓,0.804821299854666,False,12,-1,0,0
Y2-S2-091M19,3,265,PS,exp,31,↓,down,↓,0.5574932000599802,True,13,-1,0,0
Y2-S2-091M19,3,266,PS,exp,37,→,right,→,0.9297634996473789,True,13,-1,0,0
Y2-S2-091M19,3,267,PS,exp,46,←,left,←,0.47652989998459816,True,13,1,1,1
Y2-S2-091M19,3,268,PS,exp,25,↓,right,→,0.7163541000336409,False,12,-1,1,2
Y2-S2-091M19,3,269,PS,exp,36,←,right,→,0.6946375998668373,False,13,-1,0,2
Y2-S2-091M19,3,270,PS,exp,26,↑,up,↑,0.716370000038296,True,14,-1,0,2
Y2-S2-091M19,3,271,PS,exp,30,→,right,→,0.4598873998038471,True,14,-1,0,2
Y2-S2-091M19,3,272,PS,exp,34,↑,up,↑,0.6646552998572588,True,14,1,1,3
Y2-S2-091M19,3,273,PS,exp,49,→,right,→,0.5274428003467619,True,13,1,0,3
Y2-S2-091M19,3,274,PS,exp,38,↓,right,→,1.035654400009662,False,13,-1,1,4
Y2-S2-091M19,3,275,PS,exp,30,←,no_key,no_letter,-1.0,False,14,-1,0,4
Y2-S2-091M19,3,276,PS,exp,34,→,right,→,0.3337355996482074,True,15,-1,0,4
Y2-S2-091M19,3,277,PS,exp,41,←,down,↓,0.4881402002647519,False,15,-1,0,4
Y2-S2-091M19,3,278,PS,exp,42,↓,up,↑,0.5614748001098633,False,16,-1,0,4
Y2-S2-091M19,3,279,PS,exp,48,→,right,→,0.9599954001605511,True,17,-1,0,4
Y2-S2-091M19,3,280,PS,exp,50,←,right,→,0.2342482996173203,False,17,-1,0,4
Y2-S2-091M19,3,281,PS,exp,45,→,down,↓,0.18442230019718409,False,18,-1,0,4
Y2-S2-091M19,3,282,PS,exp,26,↓,down,↓,0.5359849999658763,True,19,-1,0,4
Y2-S2-091M19,3,283,PS,exp,49,→,up,↑,0.5040374998934567,False,19,-1,0,4
Y2-S2-091M19,3,284,PS,exp,38,←,left,←,0.0011116997338831425,True,20,-1,0,4
Y2-S2-091M19,3,285,PS,exp,29,↑,up,↑,0.1521610002964735,True,20,-1,0,4
Y2-S2-091M19,3,286,PS,exp,33,→,up,↑,0.26763280015438795,False,20,-1,0,4
Y2-S2-091M19,3,287,PS,exp,40,↓,up,↑,0.6582932001911104,False,21,-1,0,4
Y2-S2-091M19,3,288,PS,exp,38,←,left,←,0.9531404003500938,True,22,-1,0,4
Y2-S2-091M19,3,289,PS,exp,44,→,left,←,0.33448430011048913,False,22,-1,0,4
Y2-S2-091M19,3,290,PS,exp,44,↑,no_key,no_letter,-1.0,False,23,-1,0,4
Y2-S2-091M19,3,291,PS,exp,26,↓,left,←,0.4671761002391577,False,24,-1,0,4
Y2-S2-091M19,3,292,PS,exp,40,←,no_key,no_letter,-1.0,False,25,-1,0,4
Y2-S2-091M19,3,293,PS,exp,47,↑,down,↓,1.6525496998801827,False,26,-1,0,4
Y2-S2-091M19,3,294,PS,exp,41,←,left,←,0.9814706998877227,True,27,-1,0,4
Y2-S2-091M19,3,295,PS,exp,38,↓,down,↓,1.0558620998635888,True,27,-1,0,4
Y2-S2-091M19,3,296,PS,exp,50,→,no_key,no_letter,-1.0,False,27,-1,0,4
Y2-S2-091M19,3,297,PS,exp,44,↓,down,↓,0.9025872000493109,True,28,-1,0,4
Y2-S2-091M19,3,298,PS,exp,30,→,right,→,0.6004849001765251,True,28,-1,0,4
Y2-S2-091M19,3,299,PS,exp,25,↓,down,↓,0.5339997000992298,True,28,1,1,5
Y2-S2-091M19,3,300,PS,exp,30,→,right,→,0.5517748999409378,True,27,1,0,5
Y2-S2-091M19,3,301,PS,exp,25,←,left,←,0.7802295000292361,True,27,1,0,5
Y2-S2-091M19,3,302,PS,exp,25,↑,up,↑,0.8688488998450339,True,27,1,0,5
Y2-S2-091M19,3,303,PS,exp,28,→,right,→,0.5175823997706175,True,26,1,0,5
Y2-S2-091M19,3,304,PS,exp,29,↑,down,↓,1.228238600306213,False,26,-1,1,6
Y2-S2-091M19,3,305,PS,exp,42,↓,down,↓,1.2034405996091664,True,27,-1,0,6
Y2-S2-091M19,3,306,PS,exp,49,→,right,→,0.5671489001251757,True,27,-1,0,6
Y2-S2-091M19,3,307,PS,exp,25,↑,up,↑,0.8295898996293545,True,27,1,1,7
Y2-S2-091M19,3,308,PS,exp,29,←,left,←,0.7430326002649963,True,26,1,0,7
Y2-S2-091M19,3,309,PS,exp,31,↓,down,↓,0.7586362999863923,True,26,1,0,7
Y2-S2-091M19,3,310,PS,exp,36,↑,up,↑,0.8257613996975124,True,26,1,0,7
Y2-S2-091M19,3,311,PS,exp,38,↓,down,↓,0.6834667003713548,True,25,1,0,7
Y2-S2-091M19,3,312,PS,exp,34,←,right,→,0.7095730998553336,False,25,-1,1,8
Y2-S2-091M19,3,313,PS,exp,30,↑,right,→,0.8987608999013901,False,26,-1,0,8
Y2-S2-091M19,3,314,PS,exp,35,←,left,←,0.5842438000254333,True,27,-1,0,8
Y2-S2-091M19,3,315,PS,exp,29,↓,right,→,1.5579095999710262,False,27,-1,0,8
Y2-S2-091M19,3,316,PS,exp,39,→,no_key,no_letter,-1.0,False,28,-1,0,8
Y2-S2-091M19,3,317,PS,exp,25,↑,down,↓,0.8430945998989046,False,29,-1,0,8
Y2-S2-091M19,3,318,PS,exp,48,←,left,←,0.8288953001610935,True,30,-1,0,8
Y2-S2-091M19,3,319,PS,exp,29,→,right,→,1.3165702000260353,True,30,-1,0,8
Y2-S2-091M19,3,320,PS,exp,28,↑,up,↑,0.7748480001464486,True,30,1,1,9
Y2-S2-091M19,3,321,PS,exp,42,←,right,→,1.6169296000152826,False,29,-1,1,10
Y2-S2-091M19,3,322,PS,exp,27,↑,no_key,no_letter,-1.0,False,30,-1,0,10
Y2-S2-091M19,3,323,PS,exp,27,↓,no_key,no_letter,-1.0,False,31,-1,0,10
Y2-S2-091M19,3,324,PS,exp,45,←,no_key,no_letter,-1.0,False,32,-1,0,10
Y2-S2-091M19,3,325,PS,exp,38,→,left,←,1.244868100155145,False,33,-1,0,10
Y2-S2-091M19,3,326,PS,exp,50,↓,left,←,0.6675498997792602,False,34,-1,0,10
Y2-S2-091M19,3,327,PS,exp,47,←,up,↑,1.1864137998782098,False,35,-1,0,10
Y2-S2-091M19,3,328,PS,exp,25,→,up,↑,1.2504282998852432,False,36,-1,0,10
Y2-S2-091M19,3,329,PS,exp,28,←,no_key,no_letter,-1.0,False,37,-1,0,10
Y2-S2-091M19,3,330,PS,exp,34,↓,down,↓,1.231542999856174,True,38,-1,0,10
Y2-S2-091M19,3,331,PS,exp,35,↑,no_key,no_letter,-1.0,False,38,-1,0,10
Y2-S2-091M19,3,332,PS,exp,45,←,right,→,0.4008798999711871,False,39,-1,0,10
Y2-S2-091M19,3,333,PS,exp,41,↑,no_key,no_letter,-1.0,False,40,-1,0,10
Y2-S2-091M19,3,334,PS,exp,32,↓,no_key,no_letter,-1.0,False,41,-1,0,10
Y2-S2-091M19,3,335,PS,exp,30,→,right,→,2.1376172001473606,True,42,-1,0,10
Y2-S2-091M19,3,336,PS,exp,31,↑,up,↑,0.8004222996532917,True,42,-1,0,10
Y2-S2-091M19,3,337,PS,exp,36,↓,up,↑,0.017838300205767155,False,42,-1,0,10
Y2-S2-091M19,3,338,PS,exp,40,↑,up,↑,0.1675641001202166,True,43,-1,0,10
Y2-S2-091M19,3,339,PS,exp,38,↓,up,↑,0.1345814000815153,False,43,-1,0,10
Y2-S2-091M19,3,340,PS,exp,34,↑,up,↑,0.017695600166916847,True,44,-1,0,10
Y2-S2-091M19,3,341,PS,exp,50,→,right,→,0.483869899995625,True,44,-1,0,10
Y2-S2-091M19,3,342,PS,exp,50,←,left,←,0.6010398999787867,True,44,1,1,11
Y2-S2-091M19,3,343,PS,exp,31,↓,down,↓,0.517620500177145,True,43,1,0,11
Y2-S2-091M19,3,344,PS,exp,43,←,right,→,2.24768040003255,False,43,-1,1,12
Y2-S2-091M19,3,345,PS,exp,27,→,right,→,0.7015011003240943,True,44,-1,0,12
Y2-S2-091M19,3,346,PS,exp,25,←,right,→,0.6013168999925256,False,44,-1,0,12
Y2-S2-091M19,3,347,PS,exp,32,→,right,→,0.4842635001987219,True,45,-1,0,12
Y2-S2-091M19,3,348,PS,exp,49,↓,down,↓,0.7503860997967422,True,45,-1,0,12
Y2-S2-091M19,3,349,PS,exp,30,←,left,←,0.5845905002206564,True,45,1,1,13
Y2-S2-091M19,3,350,PS,exp,47,↓,down,↓,0.5344202998094261,True,44,1,0,13
Y2-S2-091M19,3,351,PS,exp,32,←,down,↓,1.9417308997362852,False,44,-1,1,14
Y2-S2-091M19,3,352,PS,exp,31,↑,down,↓,0.6347954999655485,False,45,-1,0,14
Y2-S2-091M19,3,353,PS,exp,32,←,left,←,0.4342475002631545,True,46,-1,0,14
Y2-S2-091M19,3,354,PS,exp,39,→,up,↑,1.9740679999813437,False,46,-1,0,14
Y2-S2-091M19,3,355,PS,exp,26,↑,up,↑,0.5179471997544169,True,47,-1,0,14
Y2-S2-091M19,3,356,PS,exp,41,↓,no_key,no_letter,-1.0,False,47,-1,0,14
Y2-S2-091M19,3,357,PS,exp,41,↑,left,←,1.4631619001738727,False,48,-1,0,14
Y2-S2-091M19,3,358,PS,exp,41,←,right,→,0.5179122998379171,False,49,-1,0,14
Y2-S2-091M19,3,359,PS,exp,44,↑,left,←,2.2205476998351514,False,50,-1,0,14
Y2-S2-091M19,3,360,PS,exp,31,→,right,→,0.7680342001840472,True,51,-1,0,14
Y2-S2-091M19,3,361,PS,exp,25,←,left,←,0.7180288000963628,True,51,-1,0,14
Y2-S2-091M19,3,362,PS,exp,33,→,right,→,2.051591500174254,True,51,1,1,15
Y2-S2-091M19,3,363,PS,exp,36,↑,no_key,no_letter,-1.0,False,50,-1,1,16
Y2-S2-091M19,4,364,AS,intra_train,35,↓,down,↓,1.0511129000224173,True,30,-,-,-
Y2-S2-091M19,4,365,AS,intra_train,30,→,right,→,0.43431139970198274,True,30,-,-,-
Y2-S2-091M19,4,366,AS,intra_train,41,↓,down,↓,0.600569199770689,True,30,-,-,-
Y2-S2-091M19,4,367,AS,intra_train,42,←,right,→,0.5674412003718317,False,30,-,-,-
Y2-S2-091M19,4,368,AS,intra_train,45,↓,down,↓,0.7167877000756562,True,30,-,-,-
Y2-S2-091M19,4,369,AS,exp,40,→,right,→,0.8725653998553753,True,20,0,0,0
Y2-S2-091M19,4,370,AS,exp,35,↓,down,↓,0.6713113002479076,True,20,0,0,0
Y2-S2-091M19,4,371,AS,exp,37,↑,left,←,1.1365927001461387,False,20,-1,0,0
Y2-S2-091M19,4,372,AS,exp,31,↓,right,→,0.9743967996910214,False,21,-1,0,0
Y2-S2-091M19,4,373,AS,exp,36,←,right,→,1.153508000075817,False,22,-1,0,0
Y2-S2-091M19,4,374,AS,exp,49,→,no_key,no_letter,-1.0,False,23,-1,0,0
Y2-S2-091M19,4,375,AS,exp,46,←,no_key,no_letter,-1.0,False,24,-1,0,0
Y2-S2-091M19,4,376,AS,exp,36,↓,down,↓,1.1896375003270805,True,25,-1,0,0
Y2-S2-091M19,4,377,AS,exp,29,←,up,↑,0.9799878001213074,False,25,-1,0,0
Y2-S2-091M19,4,378,AS,exp,28,↓,down,↓,0.9461183999665082,True,26,-1,0,0
Y2-S2-091M19,4,379,AS,exp,49,←,left,←,0.6413137000054121,True,26,-1,0,0
Y2-S2-091M19,4,380,AS,exp,45,→,right,→,0.6493442999199033,True,26,1,1,1
Y2-S2-091M19,4,381,AS,exp,49,↑,up,↑,0.632028799969703,True,25,1,0,1
Y2-S2-091M19,4,382,AS,exp,36,→,right,→,0.7230618000030518,True,25,1,0,1
Y2-S2-091M19,4,383,AS,exp,31,↑,up,↑,0.8020707997493446,True,25,1,0,1
Y2-S2-091M19,4,384,AS,exp,27,←,right,→,0.6109233000315726,False,24,-1,1,2
Y2-S2-091M19,4,385,AS,exp,49,→,right,→,0.5928564998321235,True,25,-1,0,2
Y2-S2-091M19,4,386,AS,exp,49,↑,up,↑,0.4675368000753224,True,25,-1,0,2
Y2-S2-091M19,4,387,AS,exp,26,←,left,←,1.0849022003822029,True,25,1,1,3
Y2-S2-091M19,4,388,AS,exp,42,→,right,→,0.7651903000660241,True,24,1,0,3
Y2-S2-091M19,4,389,AS,exp,50,←,right,→,0.6690889000892639,False,24,-1,1,4
Y2-S2-091M19,4,390,AS,exp,49,↓,right,→,0.5340673997998238,False,25,-1,0,4
Y2-S2-091M19,4,391,AS,exp,37,←,left,←,1.0351300998590887,True,26,-1,0,4
Y2-S2-091M19,4,392,AS,exp,47,↓,down,↓,0.7910150997340679,True,26,-1,0,4
Y2-S2-091M19,4,393,AS,exp,33,→,right,→,1.2412062999792397,True,26,1,1,5
Y2-S2-091M19,4,394,AS,exp,47,↓,right,→,1.3022179999388754,False,25,-1,1,6
Y2-S2-091M19,4,395,AS,exp,40,←,right,→,0.6295165000483394,False,26,-1,0,6
Y2-S2-091M19,4,396,AS,exp,26,↑,up,↑,0.780199300032109,True,27,-1,0,6
Y2-S2-091M19,4,397,AS,exp,46,←,left,←,0.9103972003795207,True,27,-1,0,6
Y2-S2-091M19,4,398,AS,exp,31,↑,up,↑,0.7832466000691056,True,27,1,1,7
Y2-S2-091M19,4,399,AS,exp,33,↓,up,↑,1.6587649998255074,False,26,-1,1,8
Y2-S2-091M19,4,400,AS,exp,35,→,up,↑,1.3900318001396954,False,27,-1,0,8
Y2-S2-091M19,4,401,AS,exp,43,↓,up,↑,0.40097770001739264,False,28,-1,0,8
Y2-S2-091M19,4,402,AS,exp,30,→,up,↑,0.18430970003828406,False,29,-1,0,8
Y2-S2-091M19,4,403,AS,exp,50,↑,up,↑,1.2035026997327805,True,30,-1,0,8
Y2-S2-091M19,4,404,AS,exp,27,↓,left,←,0.018032099585980177,False,30,-1,0,8
Y2-S2-091M19,4,405,AS,exp,26,→,no_key,no_letter,-1.0,False,31,-1,0,8
Y2-S2-091M19,4,406,AS,exp,36,←,left,←,0.46846000012010336,True,32,-1,0,8
Y2-S2-091M19,4,407,AS,exp,50,↑,left,←,0.8379236999899149,False,32,-1,0,8
Y2-S2-091M19,4,408,AS,exp,38,→,right,→,0.8806741000153124,True,33,-1,0,8
Y2-S2-091M19,4,409,AS,exp,29,←,no_key,no_letter,-1.0,False,33,-1,0,8
Y2-S2-091M19,4,410,AS,exp,34,↓,up,↑,0.8091547996737063,False,34,-1,0,8
Y2-S2-091M19,4,411,AS,exp,48,↑,no_key,no_letter,-1.0,False,35,-1,0,8
Y2-S2-091M19,4,412,AS,exp,29,→,no_key,no_letter,-1.0,False,36,-1,0,8
Y2-S2-091M19,4,413,AS,exp,44,←,no_key,no_letter,-1.0,False,37,-1,0,8
Y2-S2-091M19,4,414,AS,exp,32,↑,right,→,1.905971399974078,False,38,-1,0,8
Y2-S2-091M19,4,415,AS,exp,27,→,right,→,1.157896500080824,True,39,-1,0,8
Y2-S2-091M19,4,416,AS,exp,28,←,right,→,0.5843978999182582,False,39,-1,0,8
Y2-S2-091M19,4,417,AS,exp,32,↑,no_key,no_letter,-1.0,False,40,-1,0,8
Y2-S2-091M19,4,418,AS,exp,49,→,left,←,0.6181529997847974,False,41,-1,0,8
Y2-S2-091M19,4,419,AS,exp,50,←,no_key,no_letter,-1.0,False,42,-1,0,8
Y2-S2-091M19,4,420,AS,exp,45,↑,left,←,1.7382757002487779,False,43,-1,0,8
Y2-S2-091M19,4,421,AS,exp,36,↓,left,←,1.5187407000921667,False,44,-1,0,8
Y2-S2-091M19,4,422,AS,exp,47,↑,right,→,0.48439269978553057,False,45,-1,0,8
Y2-S2-091M19,4,423,AS,exp,44,↓,left,←,0.567482199985534,False,46,-1,0,8
Y2-S2-091M19,4,424,AS,exp,33,←,down,↓,0.05093279993161559,False,47,-1,0,8
Y2-S2-091M19,4,425,AS,exp,29,↓,left,←,1.469661799725145,False,48,-1,0,8
Y2-S2-091M19,4,426,AS,exp,43,←,right,→,0.48416689969599247,False,49,-1,0,8
Y2-S2-091M19,4,427,AS,exp,37,↓,down,↓,0.5179142998531461,True,50,-1,0,8
Y2-S2-091M19,4,428,AS,exp,45,↑,right,→,0.5846537998877466,False,50,-1,0,8
Y2-S2-091M19,4,429,AS,exp,48,←,down,↓,0.9672010000795126,False,51,-1,0,8
Y2-S2-091M19,4,430,AS,exp,35,↓,down,↓,0.8347517000511289,True,52,-1,0,8
Y2-S2-091M19,4,431,AS,exp,33,→,right,→,1.2084478996694088,True,52,-1,0,8
Y2-S2-091M19,4,432,AS,exp,43,↓,down,↓,0.8675037999637425,True,52,1,1,9
Y2-S2-091M19,4,433,AS,exp,26,←,left,←,0.7343207998201251,True,51,1,0,9
Y2-S2-091M19,4,434,AS,exp,46,→,right,→,0.5343403001315892,True,51,1,0,9
Y2-S2-091M19,4,435,AS,exp,41,↑,up,↑,0.917352800257504,True,51,1,0,9
Y2-S2-091M19,4,436,AS,exp,42,→,right,→,0.5013276999816298,True,50,1,0,9
Y2-S2-091M19,4,437,AS,exp,39,↑,down,↓,0.817359400447458,False,50,-1,1,10
Y2-S2-091M19,4,438,AS,exp,47,↓,down,↓,0.734127199742943,True,51,-1,0,10
Y2-S2-091M19,4,439,AS,exp,46,↑,up,↑,0.9005988002754748,True,51,-1,0,10
Y2-S2-091M19,4,440,AS,exp,47,←,right,→,0.5676970998756588,False,51,-1,0,10
Y2-S2-091M19,4,441,AS,exp,39,↑,right,→,0.7176105999387801,False,52,-1,0,10
Y2-S2-091M19,4,442,AS,exp,32,↓,right,→,0.6011716001667082,False,53,-1,0,10
Y2-S2-091M19,4,443,AS,exp,31,←,left,←,0.684252199716866,True,54,-1,0,10
Y2-S2-091M19,4,444,AS,exp,43,↑,up,↑,0.9173928997479379,True,54,-1,0,10
Y2-S2-091M19,4,445,AS,exp,39,↓,down,↓,0.9172996003180742,True,54,1,1,11
Y2-S2-091M19,4,446,AS,exp,48,←,left,←,0.7846001000143588,True,53,1,0,11
Y2-S2-091M19,4,447,AS,exp,36,↑,up,↑,0.6676056999713182,True,53,1,0,11
Y2-S2-091M19,4,448,AS,exp,26,↓,down,↓,0.9338858998380601,True,53,1,0,11
Y2-S2-091M19,4,449,AS,exp,35,→,right,→,1.047848400194198,True,52,1,0,11
Y2-S2-091M19,4,450,AS,exp,41,←,left,←,0.9505500998347998,True,52,1,0,11
Y2-S2-091M19,4,451,AS,exp,48,↑,right,→,1.7341472003608942,False,52,-1,1,12
Y2-S2-091M19,4,452,AS,exp,29,←,left,←,0.5018369001336396,True,53,-1,0,12
Y2-S2-091M19,4,453,AS,exp,33,→,right,→,0.717616300098598,True,53,-1,0,12
Y2-S2-091M19,4,454,AS,exp,48,↑,left,←,0.8013078002259135,False,53,-1,0,12
Y2-S2-091M19,4,455,AS,exp,46,↓,left,←,1.4133188999257982,False,54,-1,0,12
Y2-S2-091M19,4,456,AS,exp,49,→,right,→,0.5347772999666631,True,55,-1,0,12
Y2-S2-091M19,4,457,AS,exp,49,←,left,←,1.2003692002035677,True,55,-1,0,12
Y2-S2-091M19,4,458,AS,exp,27,↑,up,↑,0.9506957000121474,True,55,1,1,13
Y2-S2-091M19,4,459,AS,exp,48,→,right,→,0.7007160997018218,True,54,1,0,13
Y2-S2-091M19,4,460,AS,exp,46,←,left,←,0.8840092001482844,True,54,1,0,13
Y2-S2-091M19,4,461,AS,exp,43,↑,up,↑,0.8840784002095461,True,54,1,0,13
Y2-S2-091M19,4,462,AS,exp,33,←,left,←,0.7842312003485858,True,53,1,0,13
Y2-S2-091M19,4,463,AS,exp,34,→,right,→,0.9340594001114368,True,53,1,0,13
Y2-S2-091M19,4,464,AS,exp,27,↓,down,↓,0.8512503001838923,True,53,1,0,13
Y2-S2-091M19,4,465,AS,exp,48,↑,up,↑,0.46815710002556443,True,52,1,0,13
Y2-S2-091M19,4,466,AS,exp,35,→,right,→,0.5675578997470438,True,52,1,0,13
Y2-S2-091M19,4,467,AS,exp,32,↓,down,↓,0.8012802000157535,True,52,1,0,13
Y2-S2-091M19,4,468,AS,exp,25,←,left,←,0.6845662998966873,True,51,1,0,13
Y2-S2-091M19,4,469,AS,exp,49,↑,up,↑,0.9006130998022854,True,51,1,0,13
Y2-S2-091M19,4,470,AS,exp,50,↓,down,↓,0.7844108999706805,True,51,1,0,13
Y2-S2-091M19,4,471,AS,exp,34,↑,up,↑,0.7013083999045193,True,50,1,0,13
Y2-S2-091M19,4,472,AS,exp,28,↓,down,↓,0.6352919000200927,True,50,1,0,13
Y2-S2-091M19,4,473,AS,exp,44,←,left,←,0.7676329999230802,True,50,1,0,13
Y2-S2-091M19,4,474,AS,exp,40,→,no_key,no_letter,-1.0,False,49,-1,1,14
Y2-S2-091M19,4,475,AS,exp,44,←,left,←,1.009792999830097,True,50,-1,0,14
Y2-S2-091M19,4,476,AS,exp,49,↑,down,↓,1.2664997996762395,False,50,-1,0,14
Y2-S2-091M19,4,477,AS,exp,47,↓,down,↓,1.4587515997700393,True,51,-1,0,14
Y2-S2-091M19,4,478,AS,exp,37,←,left,←,0.7345577999949455,True,51,-1,0,14
Y2-S2-091M19,4,479,AS,exp,43,↓,right,→,0.6345770000480115,False,51,-1,0,14
Y2-S2-091M19,4,480,AS,exp,28,↑,up,↑,0.9671598998829722,True,52,-1,0,14
Y2-S2-091M19,4,481,AS,exp,42,↓,down,↓,0.6679658000357449,True,52,-1,0,14
Y2-S2-091M19,4,482,AS,exp,28,←,right,→,1.088620699942112,False,52,-1,0,14
Y2-S2-091M19,4,483,AS,exp,27,→,no_key,no_letter,-1.0,False,53,-1,0,14
Y2-S2-091M19,4,484,AS,exp,34,↓,left,←,0.1849034996703267,False,54,-1,0,14
Y2-S2-091M19,4,485,AS,exp,34,→,down,↓,1.6156439995393157,False,55,-1,0,14
Y2-S2-091M19,4,486,AS,exp,45,↑,down,↓,1.352502899710089,False,56,-1,0,14
Y2-S2-091M19,4,487,AS,exp,41,↓,down,↓,1.584288700018078,True,57,-1,0,14
Y2-S2-091M19,4,488,AS,exp,44,↑,up,↑,1.2298181997612119,True,57,-1,0,14
Y2-S2-091M19,4,489,AS,exp,38,↓,down,↓,0.5508441003039479,True,57,1,1,15
Y2-S2-091M19,4,490,AS,exp,48,↑,right,→,1.7969259000383317,False,56,-1,1,16
Y2-S2-091M19,5,491,AS,intra_train,35,→,right,→,1.1194506003521383,True,30,-,-,-
Y2-S2-091M19,5,492,AS,intra_train,44,←,left,←,0.5335918003693223,True,30,-,-,-
Y2-S2-091M19,5,493,AS,intra_train,45,↑,right,→,0.9230496999807656,False,30,-,-,-
Y2-S2-091M19,5,494,AS,intra_train,29,↓,down,↓,0.6181067996658385,True,30,-,-,-
Y2-S2-091M19,5,495,AS,intra_train,43,→,right,→,1.1262282999232411,True,30,-,-,-
Y2-S2-091M19,5,496,AS,exp,40,↑,up,↑,0.755080099683255,True,20,0,0,0
Y2-S2-091M19,5,497,AS,exp,46,↓,up,↑,1.1332124001346529,False,20,-1,0,0
Y2-S2-091M19,5,498,AS,exp,44,→,down,↓,1.1464680996723473,False,21,-1,0,0
Y2-S2-091M19,5,499,AS,exp,26,↓,right,→,1.1958947000093758,False,22,-1,0,0
Y2-S2-091M19,5,500,AS,exp,50,↑,left,←,1.149695500265807,False,23,-1,0,0
Y2-S2-091M19,5,501,AS,exp,36,←,left,←,0.7261319998651743,True,24,-1,0,0
Y2-S2-091M19,5,502,AS,exp,43,↑,up,↑,0.7983127003535628,True,24,-1,0,0
Y2-S2-091M19,5,503,AS,exp,28,↓,down,↓,1.2539141001179814,True,24,1,1,1
Y2-S2-091M19,5,504,AS,exp,32,←,left,←,0.8772543999366462,True,23,1,0,1
Y2-S2-091M19,5,505,AS,exp,38,→,right,→,0.7570186997763813,True,23,1,0,1
Y2-S2-091M19,5,506,AS,exp,47,↑,up,↑,1.0613047000952065,True,23,1,0,1
Y2-S2-091M19,5,507,AS,exp,37,←,up,↑,1.2618629997596145,False,22,-1,1,2
Y2-S2-091M19,5,508,AS,exp,39,→,right,→,0.9562566000968218,True,23,-1,0,2
Y2-S2-091M19,5,509,AS,exp,27,←,no_key,no_letter,-1.0,False,23,-1,0,2
Y2-S2-091M19,5,510,AS,exp,48,↓,down,↓,0.906659800093621,True,24,-1,0,2
Y2-S2-091M19,5,511,AS,exp,49,←,left,←,0.8523980001918972,True,24,-1,0,2
Y2-S2-091M19,5,512,AS,exp,42,↓,down,↓,0.7396236001513898,True,24,1,1,3
Y2-S2-091M19,5,513,AS,exp,36,↑,up,↑,0.6140852002426982,True,23,1,0,3
Y2-S2-091M19,5,514,AS,exp,50,↓,down,↓,0.6764341001398861,True,23,1,0,3
Y2-S2-091M19,5,515,AS,exp,39,↑,up,↑,0.6224285000935197,True,23,1,0,3
Y2-S2-091M19,5,516,AS,exp,38,←,left,←,0.4674162003211677,True,22,1,0,3
Y2-S2-091M19,5,517,AS,exp,33,↓,down,↓,1.042988899629563,True,22,1,0,3
Y2-S2-091M19,5,518,AS,exp,31,←,left,←,0.4678564998321235,True,22,1,0,3
Y2-S2-091M19,5,519,AS,exp,43,→,right,→,0.9333156999200583,True,21,1,0,3
Y2-S2-091M19,5,520,AS,exp,48,↓,down,↓,0.7212601001374424,True,21,1,0,3
Y2-S2-091M19,5,521,AS,exp,42,→,left,←,1.059277200140059,False,21,-1,1,4
Y2-S2-091M19,5,522,AS,exp,49,↓,right,→,1.4727294999174774,False,22,-1,0,4
Y2-S2-091M19,5,523,AS,exp,39,→,right,→,0.4841328002512455,True,23,-1,0,4
Y2-S2-091M19,5,524,AS,exp,29,↑,right,→,1.0935495998710394,False,23,-1,0,4
Y2-S2-091M19,5,525,AS,exp,47,←,left,←,0.45054499991238117,True,24,-1,0,4
Y2-S2-091M19,5,526,AS,exp,25,→,right,→,0.7031068000942469,True,24,-1,0,4
Y2-S2-091M19,5,527,AS,exp,36,←,left,←,1.040432299952954,True,24,1,1,5
Y2-S2-091M19,5,528,AS,exp,39,↑,right,→,0.500798000022769,False,23,-1,1,6
Y2-S2-091M19,5,529,AS,exp,44,←,right,→,0.5006856000982225,False,24,-1,0,6
Y2-S2-091M19,5,530,AS,exp,38,↓,up,↑,0.2511922996491194,False,25,-1,0,6
Y2-S2-091M19,5,531,AS,exp,39,→,right,→,0.6877169003710151,True,26,-1,0,6
Y2-S2-091M19,5,532,AS,exp,32,↓,down,↓,0.8782945000566542,True,26,-1,0,6
Y2-S2-091M19,5,533,AS,exp,37,→,right,→,0.6435712999664247,True,26,1,1,7
Y2-S2-091M19,5,534,AS,exp,40,↑,up,↑,0.9802224999293685,True,25,1,0,7
Y2-S2-091M19,5,535,AS,exp,48,←,left,←,0.5172743001021445,True,25,1,0,7
Y2-S2-091M19,5,536,AS,exp,41,→,right,→,0.7365805003792048,True,25,1,0,7
Y2-S2-091M19,5,537,AS,exp,46,←,left,←,0.517329900059849,True,24,1,0,7
Y2-S2-091M19,5,538,AS,exp,35,↑,right,→,0.8243962000124156,False,24,-1,1,8
Y2-S2-091M19,5,539,AS,exp,46,←,left,←,0.5003402000293136,True,25,-1,0,8
Y2-S2-091M19,5,540,AS,exp,40,↓,right,→,0.8894524998031557,False,25,-1,0,8
Y2-S2-091M19,5,541,AS,exp,49,↑,right,→,0.6664320998825133,False,26,-1,0,8
Y2-S2-091M19,5,542,AS,exp,37,↓,up,↑,0.7812785003334284,False,27,-1,0,8
Y2-S2-091M19,5,543,AS,exp,33,←,left,←,0.8800290003418922,True,28,-1,0,8
Y2-S2-091M19,5,544,AS,exp,44,↑,no_key,no_letter,-1.0,False,28,-1,0,8
Y2-S2-091M19,5,545,AS,exp,30,→,right,→,0.46775569999590516,True,29,-1,0,8
Y2-S2-091M19,5,546,AS,exp,36,↑,up,↑,0.7723468998447061,True,29,-1,0,8
Y2-S2-091M19,5,547,AS,exp,41,→,right,→,0.715432200115174,True,29,1,1,9
Y2-S2-091M19,5,548,AS,exp,28,←,right,→,0.5008061998523772,False,28,-1,1,10
Y2-S2-091M19,5,549,AS,exp,31,→,right,→,1.2081562001258135,True,29,-1,0,10
Y2-S2-091M19,5,550,AS,exp,39,↑,no_key,no_letter,-1.0,False,29,-1,0,10
Y2-S2-091M19,5,551,AS,exp,42,↓,right,→,0.7231079000048339,False,30,-1,0,10
Y2-S2-091M19,5,552,AS,exp,47,←,right,→,1.5577516998164356,False,31,-1,0,10
Y2-S2-091M19,5,553,AS,exp,38,↓,right,→,0.8759947000071406,False,32,-1,0,10
Y2-S2-091M19,5,554,AS,exp,47,→,up,↑,0.0166124003008008,False,33,-1,0,10
Y2-S2-091M19,5,555,AS,exp,46,↓,down,↓,1.299497399944812,True,34,-1,0,10
Y2-S2-091M19,5,556,AS,exp,34,↑,left,←,1.7085730996914208,False,34,-1,0,10
Y2-S2-091M19,5,557,AS,exp,29,↓,no_key,no_letter,-1.0,False,35,-1,0,10
Y2-S2-091M19,5,558,AS,exp,36,↑,no_key,no_letter,-1.0,False,36,-1,0,10
Y2-S2-091M19,5,559,AS,exp,27,←,down,↓,0.9121324997395277,False,37,-1,0,10
Y2-S2-091M19,5,560,AS,exp,39,→,down,↓,0.3015739000402391,False,38,-1,0,10
Y2-S2-091M19,5,561,AS,exp,35,←,no_key,no_letter,-1.0,False,39,-1,0,10
Y2-S2-091M19,5,562,AS,exp,34,→,down,↓,0.4010137002915144,False,40,-1,0,10
Y2-S2-091M19,5,563,AS,exp,33,↑,left,←,1.5765711995773017,False,41,-1,0,10
Y2-S2-091M19,5,564,AS,exp,49,→,left,←,0.5339795001782477,False,42,-1,0,10
Y2-S2-091M19,5,565,AS,exp,48,←,no_key,no_letter,-1.0,False,43,-1,0,10
Y2-S2-091M19,5,566,AS,exp,29,↑,up,↑,1.3275775001384318,True,44,-1,0,10
Y2-S2-091M19,5,567,AS,exp,43,→,right,→,1.3219381999224424,True,44,-1,0,10
Y2-S2-091M19,5,568,AS,exp,47,↓,up,↑,0.834137300029397,False,44,-1,0,10
Y2-S2-091M19,5,569,AS,exp,28,←,left,←,0.4681335003115237,True,45,-1,0,10
Y2-S2-091M19,5,570,AS,exp,27,→,right,→,0.6511401999741793,True,45,-1,0,10
Y2-S2-091M19,5,571,AS,exp,50,↓,right,→,0.7178535000421107,False,45,-1,0,10
Y2-S2-091M19,5,572,AS,exp,30,←,left,←,1.4314990998245776,True,46,-1,0,10
Y2-S2-091M19,5,573,AS,exp,46,↓,down,↓,0.5677392999641597,True,46,-1,0,10
Y2-S2-091M19,5,574,AS,exp,46,↑,right,→,0.0012610000558197498,False,46,-1,0,10
Y2-S2-091M19,5,575,AS,exp,33,→,right,→,0.6519007002934813,True,47,-1,0,10
Y2-S2-091M19,5,576,AS,exp,33,↓,right,→,2.182950499933213,False,47,-1,0,10
Y2-S2-091M19,5,577,AS,exp,32,←,left,←,0.5180878997780383,True,48,-1,0,10
Y2-S2-091M19,5,578,AS,exp,50,↓,down,↓,0.7838041000068188,True,48,-1,0,10
Y2-S2-091M19,5,579,AS,exp,38,↑,up,↑,0.617973499931395,True,48,1,1,11
Y2-S2-091M19,5,580,AS,exp,46,→,no_key,no_letter,-1.0,False,47,-1,1,12
Y2-S2-091M19,5,581,AS,exp,43,↓,up,↑,1.986897500231862,False,48,-1,0,12
Y2-S2-091M19,5,582,AS,exp,35,↑,up,↑,0.5844596000388265,True,49,-1,0,12
Y2-S2-091M19,5,583,AS,exp,33,←,right,→,0.5670483000576496,False,49,-1,0,12
Y2-S2-091M19,5,584,AS,exp,26,→,right,→,0.5342935998924077,True,50,-1,0,12
Y2-S2-091M19,5,585,AS,exp,37,↓,down,↓,0.8676033997908235,True,50,-1,0,12
Y2-S2-091M19,5,586,AS,exp,38,→,right,→,0.6512072002515197,True,50,1,1,13
Y2-S2-091M19,5,587,AS,exp,47,↓,down,↓,0.8340475000441074,True,49,1,0,13
Y2-S2-091M19,5,588,AS,exp,31,→,right,→,0.6676030997186899,True,49,1,0,13
Y2-S2-091M19,5,589,AS,exp,47,↑,up,↑,1.2950234999880195,True,49,1,0,13
Y2-S2-091M19,5,590,AS,exp,49,↓,down,↓,0.7512261001393199,True,48,1,0,13
Y2-S2-091M19,5,591,AS,exp,28,←,left,←,0.8006474999710917,True,48,1,0,13
Y2-S2-091M19,5,592,AS,exp,36,→,right,→,0.5176801001653075,True,48,1,0,13
Y2-S2-091M19,5,593,AS,exp,30,↑,up,↑,0.8173775998875499,True,47,1,0,13
Y2-S2-091M19,5,594,AS,exp,34,↓,down,↓,0.8339085001498461,True,47,1,0,13
Y2-S2-091M19,5,595,AS,exp,42,→,right,→,0.8840220998972654,True,47,1,0,13
Y2-S2-091M19,5,596,AS,exp,42,↓,down,↓,1.293068700004369,True,46,1,0,13
Y2-S2-091M19,5,597,AS,exp,43,↑,up,↑,1.0806337003596127,True,46,1,0,13
Y2-S2-091M19,5,598,AS,exp,50,→,right,→,1.1129001998342574,True,46,1,0,13
Y2-S2-091M19,5,599,AS,exp,43,↓,down,↓,0.8507483000867069,True,45,1,0,13
Y2-S2-091M19,5,600,AS,exp,45,←,right,→,0.5175838000141084,False,45,-1,1,14
Y2-S2-091M19,5,601,AS,exp,27,↓,down,↓,1.4235796998254955,True,46,-1,0,14
Y2-S2-091M19,5,602,AS,exp,44,↑,up,↑,1.377009500283748,True,46,-1,0,14
Y2-S2-091M19,5,603,AS,exp,31,→,right,→,0.4508612002246082,True,46,1,1,15
Y2-S2-091M19,5,604,AS,exp,39,←,left,←,0.9536495003849268,True,45,1,0,15
Y2-S2-091M19,5,605,AS,exp,40,↑,left,←,1.2445728001184762,False,45,-1,1,16
Y2-S2-091M19,6,606,PS,intra_train,34,←,right,→,0.8105049002915621,False,16,-,-,-
Y2-S2-091M19,6,607,PS,intra_train,27,→,right,→,0.4976106001995504,True,16,-,-,-
Y2-S2-091M19,6,608,PS,intra_train,33,↓,down,↓,0.5874862000346184,True,16,-,-,-
Y2-S2-091M19,6,609,PS,intra_train,30,↑,up,↑,0.7017989996820688,True,16,-,-,-
Y2-S2-091M19,6,610,PS,intra_train,40,→,right,→,0.5652638003230095,True,16,-,-,-
Y2-S2-091M19,6,611,PS,exp,45,↑,right,→,0.826621999964118,False,11,-1,0,0
Y2-S2-091M19,6,612,PS,exp,29,→,right,→,0.680969700217247,True,12,-1,0,0
Y2-S2-091M19,6,613,PS,exp,49,←,right,→,0.7772977002896369,False,12,-1,0,0
Y2-S2-091M19,6,614,PS,exp,30,↓,no_key,no_letter,-1.0,False,13,-1,0,0
Y2-S2-091M19,6,615,PS,exp,37,→,right,→,0.6135800997726619,True,14,-1,0,0
Y2-S2-091M19,6,616,PS,exp,43,↑,up,↑,0.6278861002065241,True,14,-1,0,0
Y2-S2-091M19,6,617,PS,exp,33,↓,down,↓,0.7028262000530958,True,14,1,1,1
Y2-S2-091M19,6,618,PS,exp,32,↑,up,↑,0.6036392999812961,True,13,1,0,1
Y2-S2-091M19,6,619,PS,exp,36,←,left,←,0.5010836999863386,True,13,1,0,1
Y2-S2-091M19,6,620,PS,exp,39,↑,right,→,0.5741419000551105,False,13,-1,1,2
Y2-S2-091M19,6,621,PS,exp,41,→,right,→,0.4732495001517236,True,14,-1,0,2
Y2-S2-091M19,6,622,PS,exp,40,↑,up,↑,0.4492084002122283,True,14,-1,0,2
Y2-S2-091M19,6,623,PS,exp,34,←,left,←,0.5213701999746263,True,14,1,1,3
Y2-S2-091M19,6,624,PS,exp,32,↓,down,↓,0.7305004000663757,True,13,1,0,3
Y2-S2-091M19,6,625,PS,exp,25,→,right,→,0.49146119970828295,True,13,1,0,3
Y2-S2-091M19,6,626,PS,exp,36,←,right,→,0.7352664000354707,False,13,-1,1,4
Y2-S2-091M19,6,627,PS,exp,49,→,right,→,0.5964938001707196,True,14,-1,0,4
Y2-S2-091M19,6,628,PS,exp,44,↓,right,→,0.9263759003952146,False,14,-1,0,4
Y2-S2-091M19,6,629,PS,exp,49,←,right,→,0.7271851999685168,False,15,-1,0,4
Y2-S2-091M19,6,630,PS,exp,41,↑,down,↓,0.8287147996015847,False,16,-1,0,4
Y2-S2-091M19,6,631,PS,exp,32,↓,down,↓,0.4950280003249645,True,17,-1,0,4
Y2-S2-091M19,6,632,PS,exp,35,→,right,→,0.7837859001010656,True,17,-1,0,4
Y2-S2-091M19,6,633,PS,exp,38,←,left,←,0.6763500003144145,True,17,1,1,5
Y2-S2-091M19,6,634,PS,exp,46,↓,right,→,0.45565270027145743,False,16,-1,1,6
Y2-S2-091M19,6,635,PS,exp,39,←,right,→,0.6166244000196457,False,17,-1,0,6
Y2-S2-091M19,6,636,PS,exp,27,↑,right,→,0.7666013003326952,False,18,-1,0,6
Y2-S2-091M19,6,637,PS,exp,45,↓,no_key,no_letter,-1.0,False,19,-1,0,6
Y2-S2-091M19,6,638,PS,exp,44,→,right,→,1.4297009999863803,True,20,-1,0,6
Y2-S2-091M19,6,639,PS,exp,47,←,right,→,0.018054999876767397,False,20,-1,0,6
Y2-S2-091M19,6,640,PS,exp,47,→,right,→,1.5108729000203311,True,21,-1,0,6
Y2-S2-091M19,6,641,PS,exp,47,←,right,→,0.781623600050807,False,21,-1,0,6
Y2-S2-091M19,6,642,PS,exp,48,↓,down,↓,1.054549299646169,True,22,-1,0,6
Y2-S2-091M19,6,643,PS,exp,31,↑,down,↓,0.890378899872303,False,22,-1,0,6
Y2-S2-091M19,6,644,PS,exp,32,→,right,→,0.6716295001097023,True,23,-1,0,6
Y2-S2-091M19,6,645,PS,exp,46,↑,left,←,0.9689762000925839,False,23,-1,0,6
Y2-S2-091M19,6,646,PS,exp,29,←,left,←,0.5334187000989914,True,24,-1,0,6
Y2-S2-091M19,6,647,PS,exp,31,↓,right,→,1.2188272001221776,False,24,-1,0,6
Y2-S2-091M19,6,648,PS,exp,49,↑,left,←,1.2539381003007293,False,25,-1,0,6
Y2-S2-091M19,6,649,PS,exp,46,↓,left,←,1.1505188001319766,False,26,-1,0,6
Y2-S2-091M19,6,650,PS,exp,29,←,left,←,0.6836787997744977,True,27,-1,0,6
Y2-S2-091M19,6,651,PS,exp,25,↑,up,↑,0.6248004999943078,True,27,-1,0,6
Y2-S2-091M19,6,652,PS,exp,26,←,left,←,0.4669626001268625,True,27,1,1,7
Y2-S2-091M19,6,653,PS,exp,46,↑,right,→,0.6246067001484334,False,26,-1,1,8
Y2-S2-091M19,6,654,PS,exp,41,↓,left,←,1.2747595999389887,False,27,-1,0,8
Y2-S2-091M19,6,655,PS,exp,31,←,left,←,0.8757838997989893,True,28,-1,0,8
Y2-S2-091M19,6,656,PS,exp,50,↓,left,←,0.40098040038719773,False,28,-1,0,8
Y2-S2-091M19,6,657,PS,exp,42,←,left,←,0.7088584001176059,True,29,-1,0,8
Y2-S2-091M19,6,658,PS,exp,30,↑,up,↑,1.0101232999004424,True,29,-1,0,8
Y2-S2-091M19,6,659,PS,exp,32,←,left,←,1.217556900344789,True,29,1,1,9
Y2-S2-091M19,6,660,PS,exp,34,↓,right,→,1.1265372997149825,False,28,-1,1,10
Y2-S2-091M19,6,661,PS,exp,35,←,left,←,0.4344227002002299,True,29,-1,0,10
Y2-S2-091M19,6,662,PS,exp,29,↓,left,←,0.8667152002453804,False,29,-1,0,10
Y2-S2-091M19,6,663,PS,exp,44,←,left,←,1.3991160998120904,True,30,-1,0,10
Y2-S2-091M19,6,664,PS,exp,48,→,right,→,0.5838954001665115,True,30,-1,0,10
Y2-S2-091M19,6,665,PS,exp,42,↑,up,↑,0.6003248002380133,True,30,1,1,11
Y2-S2-091M19,6,666,PS,exp,43,↓,down,↓,0.9615852003917098,True,29,1,0,11
Y2-S2-091M19,6,667,PS,exp,43,↑,right,→,0.9243139000609517,False,29,-1,1,12
Y2-S2-091M19,6,668,PS,exp,36,↓,down,↓,0.9611178003251553,True,30,-1,0,12
Y2-S2-091M19,6,669,PS,exp,41,↑,left,←,0.9250948000699282,False,30,-1,0,12
Y2-S2-091M19,6,670,PS,exp,40,↓,up,↑,1.5071153999306262,False,31,-1,0,12
Y2-S2-091M19,6,671,PS,exp,43,↑,up,↑,0.5839325003325939,True,32,-1,0,12
Y2-S2-091M19,6,672,PS,exp,32,↓,down,↓,0.5839489996433258,True,32,-1,0,12
Y2-S2-091M19,6,673,PS,exp,43,→,right,→,0.5009376998059452,True,32,1,1,13
Y2-S2-091M19,6,674,PS,exp,35,↓,down,↓,0.8195913000963628,True,31,1,0,13
Y2-S2-091M19,6,675,PS,exp,37,→,right,→,1.1026901002041996,True,31,1,0,13
Y2-S2-091M19,6,676,PS,exp,30,↓,down,↓,0.7071271003223956,True,31,1,0,13
Y2-S2-091M19,6,677,PS,exp,28,↑,up,↑,0.6172181000001729,True,30,1,0,13
Y2-S2-091M19,6,678,PS,exp,39,→,right,→,0.4009615001268685,True,30,1,0,13
Y2-S2-091M19,6,679,PS,exp,42,↓,right,→,0.43429729994386435,False,30,-1,1,14
Y2-S2-091M19,6,680,PS,exp,31,→,right,→,0.7451896001584828,True,31,-1,0,14
Y2-S2-091M19,6,681,PS,exp,42,↑,up,↑,0.7369872000999749,True,31,-1,0,14
Y2-S2-091M19,6,682,PS,exp,43,→,right,→,0.5837197997607291,True,31,1,1,15
Y2-S2-091M19,6,683,PS,exp,49,↓,down,↓,1.3646923997439444,True,30,1,0,15
Y2-S2-091M19,6,684,PS,exp,33,→,right,→,0.5838576001115143,True,30,1,0,15
Y2-S2-091M19,6,685,PS,exp,34,↑,up,↑,0.772907099686563,True,30,1,0,15
Y2-S2-091M19,6,686,PS,exp,37,↓,down,↓,0.9674982996657491,True,29,1,0,15
Y2-S2-091M19,6,687,PS,exp,33,←,right,→,0.5337485000491142,False,29,-1,1,16
Y2-S2-091M19,7,688,PS,intra_train,25,→,right,→,0.5683078998699784,True,16,-,-,-
Y2-S2-091M19,7,689,PS,intra_train,32,←,left,←,0.5611858000047505,True,16,-,-,-
Y2-S2-091M19,7,690,PS,intra_train,45,↓,up,↑,0.8029890996403992,False,16,-,-,-
Y2-S2-091M19,7,691,PS,intra_train,44,↑,up,↑,0.5526642999611795,True,16,-,-,-
Y2-S2-091M19,7,692,PS,intra_train,44,←,left,←,0.7087529003620148,True,16,-,-,-
Y2-S2-091M19,7,693,PS,exp,32,→,left,←,0.866692699957639,False,11,-1,0,0
Y2-S2-091M19,7,694,PS,exp,50,←,left,←,0.604914200026542,True,12,-1,0,0
Y2-S2-091M19,7,695,PS,exp,40,→,right,→,0.8923168000765145,True,12,-1,0,0
Y2-S2-091M19,7,696,PS,exp,28,←,no_key,no_letter,-1.0,False,12,-1,0,0
Y2-S2-091M19,7,697,PS,exp,38,→,right,→,0.847946900408715,True,13,-1,0,0
Y2-S2-091M19,7,698,PS,exp,32,↑,right,→,1.158016299828887,False,13,-1,0,0
Y2-S2-091M19,7,699,PS,exp,40,↓,right,→,0.25049120001494884,False,14,-1,0,0
Y2-S2-091M19,7,700,PS,exp,41,←,right,→,0.518102299887687,False,15,-1,0,0
Y2-S2-091M19,7,701,PS,exp,46,↓,down,↓,0.6195188998244703,True,16,-1,0,0
Y2-S2-091M19,7,702,PS,exp,48,↑,up,↑,0.6384461000561714,True,16,-1,0,0
Y2-S2-091M19,7,703,PS,exp,34,→,right,→,1.146461000200361,True,16,1,1,1
Y2-S2-091M19,7,704,PS,exp,31,↓,down,↓,0.6734249000437558,True,15,1,0,1
Y2-S2-091M19,7,705,PS,exp,46,←,left,←,0.8705230001360178,True,15,1,0,1
Y2-S2-091M19,7,706,PS,exp,41,→,right,→,0.4247503997758031,True,15,1,0,1
Y2-S2-091M19,7,707,PS,exp,49,←,left,←,0.7956157997250557,True,14,1,0,1
Y2-S2-091M19,7,708,PS,exp,34,→,left,←,0.9224652000702918,False,14,-1,1,2
Y2-S2-091M19,7,709,PS,exp,25,←,right,→,0.42921889992430806,False,15,-1,0,2
Y2-S2-091M19,7,710,PS,exp,32,→,right,→,0.7144418000243604,True,16,-1,0,2
Y2-S2-091M19,7,711,PS,exp,50,↑,right,→,0.5736941001378,False,16,-1,0,2
Y2-S2-091M19,7,712,PS,exp,37,→,right,→,0.738421400077641,True,17,-1,0,2
Y2-S2-091M19,7,713,PS,exp,28,↓,right,→,0.4960463000461459,False,17,-1,0,2
Y2-S2-091M19,7,714,PS,exp,44,↑,right,→,0.5731461001560092,False,18,-1,0,2
Y2-S2-091M19,7,715,PS,exp,32,←,right,→,0.982018900103867,False,19,-1,0,2
Y2-S2-091M19,7,716,PS,exp,46,↑,up,↑,0.4341827998869121,True,20,-1,0,2
Y2-S2-091M19,7,717,PS,exp,31,↓,up,↑,0.8118710997514427,False,20,-1,0,2
Y2-S2-091M19,7,718,PS,exp,35,→,right,→,0.8068769997917116,True,21,-1,0,2
Y2-S2-091M19,7,719,PS,exp,31,↑,right,→,0.7724780002608895,False,21,-1,0,2
Y2-S2-091M19,7,720,PS,exp,41,→,right,→,0.9993942999280989,True,22,-1,0,2
Y2-S2-091M19,7,721,PS,exp,43,↑,up,↑,0.5828915000893176,True,22,-1,0,2
Y2-S2-091M19,7,722,PS,exp,47,←,left,←,1.0229482003487647,True,22,1,1,3
Y2-S2-091M19,7,723,PS,exp,28,↑,left,←,1.1190061997622252,False,21,-1,1,4
Y2-S2-091M19,7,724,PS,exp,37,↓,down,↓,0.7652104003354907,True,22,-1,0,4
Y2-S2-091M19,7,725,PS,exp,44,↑,up,↑,1.1550962999463081,True,22,-1,0,4
Y2-S2-091M19,7,726,PS,exp,49,↓,down,↓,0.8262798003852367,True,22,1,1,5
Y2-S2-091M19,7,727,PS,exp,42,←,right,→,0.6110384999774396,False,21,-1,1,6
Y2-S2-091M19,7,728,PS,exp,26,↑,up,↑,0.9938245001249015,True,22,-1,0,6
Y2-S2-091M19,7,729,PS,exp,30,↓,down,↓,0.6550657004117966,True,22,-1,0,6
Y2-S2-091M19,7,730,PS,exp,39,↑,right,→,0.8390525998547673,False,22,-1,0,6
Y2-S2-091M19,7,731,PS,exp,31,→,right,→,0.43383799958974123,True,23,-1,0,6
Y2-S2-091M19,7,732,PS,exp,35,↓,down,↓,0.8136793999001384,True,23,-1,0,6
Y2-S2-091M19,7,733,PS,exp,30,←,right,→,0.9618115001358092,False,23,-1,0,6
Y2-S2-091M19,7,734,PS,exp,46,→,left,←,0.7492721998132765,False,24,-1,0,6
Y2-S2-091M19,7,735,PS,exp,42,↑,up,↑,0.8775267000310123,True,25,-1,0,6
Y2-S2-091M19,7,736,PS,exp,31,→,right,→,0.6675817999057472,True,25,-1,0,6
Y2-S2-091M19,7,737,PS,exp,28,↓,right,→,0.5173165001906455,False,25,-1,0,6
Y2-S2-091M19,7,738,PS,exp,47,→,right,→,0.5506086996756494,True,26,-1,0,6
Y2-S2-091M19,7,739,PS,exp,33,↑,up,↑,0.46713380003347993,True,26,-1,0,6
Y2-S2-091M19,7,740,PS,exp,40,←,down,↓,0.06752759963274002,False,26,-1,0,6
Y2-S2-091M19,7,741,PS,exp,39,↑,right,→,0.7818839000537992,False,27,-1,0,6
Y2-S2-091M19,7,742,PS,exp,42,→,right,→,0.8606790001504123,True,28,-1,0,6
Y2-S2-091M19,7,743,PS,exp,32,↓,down,↓,0.7991318996064365,True,28,-1,0,6
Y2-S2-091M19,7,744,PS,exp,28,←,left,←,0.6599991000257432,True,28,1,1,7
Y2-S2-091M19,7,745,PS,exp,43,↓,down,↓,0.6686291000805795,True,27,1,0,7
Y2-S2-091M19,7,746,PS,exp,34,↑,down,↓,0.8791845999658108,False,27,-1,1,8
Y2-S2-091M19,7,747,PS,exp,30,→,right,→,0.4505862002260983,True,28,-1,0,8
Y2-S2-091M19,7,748,PS,exp,25,←,left,←,0.48367680003866553,True,28,-1,0,8
Y2-S2-091M19,7,749,PS,exp,37,→,right,→,0.5667823003605008,True,28,1,1,9
Y2-S2-091M19,7,750,PS,exp,29,←,right,→,0.48391509987413883,False,27,-1,1,10
Y2-S2-091M19,7,751,PS,exp,38,↑,left,←,0.5007038000039756,False,28,-1,0,10
Y2-S2-091M19,7,752,PS,exp,48,←,left,←,0.4345732997171581,True,29,-1,0,10
Y2-S2-091M19,7,753,PS,exp,36,↑,left,←,0.4344456000253558,False,29,-1,0,10
Y2-S2-091M19,7,754,PS,exp,44,←,left,←,0.5508775999769568,True,30,-1,0,10
Y2-S2-091M19,7,755,PS,exp,26,↑,left,←,0.6841681995429099,False,30,-1,0,10
Y2-S2-091M19,7,756,PS,exp,37,→,left,←,0.1846644002944231,False,31,-1,0,10
Y2-S2-091M19,7,757,PS,exp,25,←,up,↑,0.3843421000055969,False,32,-1,0,10
Y2-S2-091M19,7,758,PS,exp,50,→,right,→,1.4711036998778582,True,33,-1,0,10
Y2-S2-091M19,7,759,PS,exp,50,←,right,→,0.0013374998234212399,False,33,-1,0,10
Y2-S2-091M19,7,760,PS,exp,49,→,up,↑,0.1675602998584509,False,34,-1,0,10
Y2-S2-091M19,7,761,PS,exp,45,↓,right,→,0.28484079986810684,False,35,-1,0,10
Y2-S2-091M19,7,762,PS,exp,32,→,right,→,0.5009984001517296,True,36,-1,0,10
Y2-S2-091M19,7,763,PS,exp,34,↑,up,↑,0.6673881998285651,True,36,-1,0,10
Y2-S2-091M19,7,764,PS,exp,49,→,right,→,0.6337112002074718,True,36,1,1,11
Y2-S2-091M19,7,765,PS,exp,29,←,left,←,0.48448130022734404,True,35,1,0,11
Y2-S2-091M19,7,766,PS,exp,46,↓,down,↓,0.7008195002563298,True,35,1,0,11
Y2-S2-091M19,7,767,PS,exp,50,→,right,→,0.5506374002434313,True,35,1,0,11
Y2-S2-091M19,7,768,PS,exp,49,←,left,←,1.2326913001015782,True,34,1,0,11
Y2-S2-091M19,7,769,PS,exp,43,↓,right,→,1.5828029001131654,False,34,-1,1,12
Y2-S2-091M19,7,770,PS,exp,26,→,right,→,0.9655102998949587,True,35,-1,0,12
Y2-S2-091M19,7,771,PS,exp,40,←,right,→,0.9099174998700619,False,35,-1,0,12
Y2-S2-091M19,7,772,PS,exp,50,→,right,→,1.614539499860257,True,36,-1,0,12
Y2-S2-091M19,7,773,PS,exp,47,←,right,→,0.05102550005540252,False,36,-1,0,12
Y2-S2-091M19,7,774,PS,exp,30,↑,left,←,0.20124829979613423,False,37,-1,0,12
Y2-S2-091M19,7,775,PS,exp,35,↓,left,←,1.0326187000609934,False,38,-1,0,12
Y2-S2-091M19,7,776,PS,exp,27,←,left,←,1.347487200051546,True,39,-1,0,12
Y2-S2-091M19,7,777,PS,exp,45,↑,no_key,no_letter,-1.0,False,39,-1,0,12
Y2-S2-091M19,7,778,PS,exp,26,←,down,↓,1.2569450000301003,False,40,-1,0,12
Y2-S2-091M19,7,779,PS,exp,38,↓,down,↓,1.6212956998497248,True,41,-1,0,12
Y2-S2-091M19,7,780,PS,exp,32,→,left,←,0.5010227002203465,False,41,-1,0,12
Y2-S2-091M19,7,781,PS,exp,25,↓,up,↑,0.41773039987310767,False,42,-1,0,12
Y2-S2-091M19,7,782,PS,exp,37,↑,right,→,0.18387880036607385,False,43,-1,0,12
Y2-S2-091M19,7,783,PS,exp,32,↓,left,←,0.03431699983775616,False,44,-1,0,12
Y2-S2-091M19,7,784,PS,exp,33,←,down,↓,2.279384400229901,False,45,-1,0,12
Y2-S2-091M19,7,785,PS,exp,49,→,down,↓,0.03448119992390275,False,46,-1,0,12
Y2-S2-091M19,7,786,PS,exp,49,↑,down,↓,0.3176020001992583,False,47,-1,0,12
Y2-S2-091M19,7,787,PS,exp,28,←,down,↓,1.7583808000199497,False,48,-1,0,12
Y2-S2-091M19,7,788,PS,exp,39,↓,left,←,1.743518800009042,False,49,-1,0,12
Y2-S2-091M19,7,789,PS,exp,30,→,right,→,1.074579100124538,True,50,-1,0,12
Y2-S2-091M19,7,790,PS,exp,39,←,right,→,1.804572300054133,False,50,-1,0,12
Y2-S2-091M19,7,791,PS,exp,33,→,no_key,no_letter,-1.0,False,51,-1,0,12
Y2-S2-091M19,7,792,PS,exp,40,←,left,←,0.23443459998816252,True,52,-1,0,12
Y2-S2-091M19,7,793,PS,exp,47,↓,no_key,no_letter,-1.0,False,52,-1,0,12
Y2-S2-091M19,7,794,PS,exp,44,←,no_key,no_letter,-1.0,False,53,-1,0,12
Y2-S2-091M19,7,795,PS,exp,30,↓,up,↑,2.0806900998577476,False,54,-1,0,12
Y2-S2-091M19,7,796,PS,exp,30,↑,no_key,no_letter,-1.0,False,55,-1,0,12
Y2-S2-091M19,7,797,PS,exp,45,→,left,←,2.034788300283253,False,56,-1,0,12
Y2-S2-091M19,7,798,PS,exp,48,↓,no_key,no_letter,-1.0,False,57,-1,0,12
Y2-S2-091M19,7,799,PS,exp,35,→,up,↑,2.024490900337696,False,58,-1,0,12
Y2-S2-091M19,7,800,PS,exp,29,↑,left,←,1.956453800201416,False,59,-1,0,12
Y2-S2-091M19,7,801,PS,exp,39,→,right,→,2.4762820000760257,True,60,-1,0,12
Y2-S2-091M19,7,802,PS,exp,29,←,right,→,0.2677553999237716,False,60,-1,0,12
Y2-S2-091M19,7,803,PS,exp,35,↑,left,←,1.9995447001419961,False,61,-1,0,12
Y2-S2-091M19,7,804,PS,exp,33,→,right,→,0.6843042001128197,True,62,-1,0,12
Y2-S2-091M19,7,805,PS,exp,41,↓,up,↑,0.8512089001014829,False,62,-1,0,12
Y2-S2-091M19,7,806,PS,exp,49,→,right,→,0.601411699783057,True,63,-1,0,12
Y2-S2-091M19,7,807,PS,exp,35,↑,up,↑,1.100643599871546,True,63,-1,0,12
Y2-S2-091M19,7,808,PS,exp,49,→,right,→,0.5344292996451259,True,63,1,1,13
Y2-S2-091M19,7,809,PS,exp,33,↓,down,↓,0.6179001000709832,True,62,1,0,13
Y2-S2-091M19,7,810,PS,exp,39,↑,up,↑,1.303076300304383,True,62,1,0,13
Y2-S2-091M19,7,811,PS,exp,27,→,right,→,0.901362800039351,True,62,1,0,13
Y2-S2-091M19,7,812,PS,exp,46,←,right,→,0.7344697997905314,False,61,-1,1,14
Y2-S2-091M19,7,813,PS,exp,36,↑,right,→,1.5710837999358773,False,62,-1,0,14
Y2-S2-091M19,7,814,PS,exp,43,→,right,→,1.712714500259608,True,63,-1,0,14
Y2-S2-091M19,7,815,PS,exp,41,←,left,←,0.601356599945575,True,63,-1,0,14
Y2-S2-091M19,7,816,PS,exp,37,↑,up,↑,0.8512515998445451,True,63,1,1,15
Y2-S2-091M19,7,817,PS,exp,35,←,left,←,0.9174834000878036,True,62,1,0,15
Y2-S2-091M19,7,818,PS,exp,48,↓,up,↑,1.3584170998074114,False,62,-1,1,16
Y2-S2-091M19,8,819,AS,intra_train,39,↑,right,→,0.765521100256592,False,30,-,-,-
Y2-S2-091M19,8,820,AS,intra_train,26,←,left,←,0.43462210008874536,True,30,-,-,-
Y2-S2-091M19,8,821,AS,intra_train,26,↑,right,→,1.046405500266701,False,30,-,-,-
Y2-S2-091M19,8,822,AS,intra_train,45,←,right,→,1.0218094000592828,False,30,-,-,-
Y2-S2-091M19,8,823,AS,intra_train,44,↑,up,↑,0.6341268001124263,True,30,-,-,-
Y2-S2-091M19,8,824,AS,exp,44,↓,right,→,0.7686985000036657,False,20,-1,0,0
Y2-S2-091M19,8,825,AS,exp,45,→,right,→,0.5710358000360429,True,21,-1,0,0
Y2-S2-091M19,8,826,AS,exp,40,↓,up,↑,1.2055323999375105,False,21,-1,0,0
Y2-S2-091M19,8,827,AS,exp,25,↑,no_key,no_letter,-1.0,False,22,-1,0,0
Y2-S2-091M19,8,828,AS,exp,28,←,up,↑,1.0995557000860572,False,23,-1,0,0
Y2-S2-091M19,8,829,AS,exp,26,↑,up,↑,0.8727361001074314,True,24,-1,0,0
Y2-S2-091M19,8,830,AS,exp,42,←,no_key,no_letter,-1.0,False,24,-1,0,0
Y2-S2-091M19,8,831,AS,exp,35,↑,up,↑,0.7512582000344992,True,25,-1,0,0
Y2-S2-091M19,8,832,AS,exp,36,→,right,→,1.8236696003004909,True,25,-1,0,0
Y2-S2-091M19,8,833,AS,exp,42,↓,no_key,no_letter,-1.0,False,25,-1,0,0
Y2-S2-091M19,8,834,AS,exp,33,↑,right,→,1.765777399763465,False,26,-1,0,0
Y2-S2-091M19,8,835,AS,exp,45,←,no_key,no_letter,-1.0,False,27,-1,0,0
Y2-S2-091M19,8,836,AS,exp,32,↑,up,↑,0.4506518002599478,True,28,-1,0,0
Y2-S2-091M19,8,837,AS,exp,36,←,up,↑,1.5176484999246895,False,28,-1,0,0
Y2-S2-091M19,8,838,AS,exp,35,→,right,→,0.7776823001913726,True,29,-1,0,0
Y2-S2-091M19,8,839,AS,exp,41,↑,no_key,no_letter,-1.0,False,29,-1,0,0
Y2-S2-091M19,8,840,AS,exp,46,←,no_key,no_letter,-1.0,False,30,-1,0,0
Y2-S2-091M19,8,841,AS,exp,45,↑,right,→,0.914470599964261,False,31,-1,0,0
Y2-S2-091M19,8,842,AS,exp,38,→,up,↑,1.739076899830252,False,32,-1,0,0
Y2-S2-091M19,8,843,AS,exp,27,↓,no_key,no_letter,-1.0,False,33,-1,0,0
Y2-S2-091M19,8,844,AS,exp,25,↑,left,←,1.2886701002717018,False,34,-1,0,0
Y2-S2-091M19,8,845,AS,exp,39,→,right,→,0.6842594002373517,True,35,-1,0,0
Y2-S2-091M19,8,846,AS,exp,37,←,no_key,no_letter,-1.0,False,35,-1,0,0
Y2-S2-091M19,8,847,AS,exp,43,→,right,→,0.6674811001867056,True,36,-1,0,0
Y2-S2-091M19,8,848,AS,exp,34,↑,up,↑,1.8446228001266718,True,36,-1,0,0
Y2-S2-091M19,8,849,AS,exp,45,←,down,↓,0.6671967003494501,False,36,-1,0,0
Y2-S2-091M19,8,850,AS,exp,32,→,left,←,2.245292200241238,False,37,-1,0,0
Y2-S2-091M19,8,851,AS,exp,39,↓,left,←,1.0070160999894142,False,38,-1,0,0
Y2-S2-091M19,8,852,AS,exp,27,←,left,←,0.06759069999679923,True,39,-1,0,0
Y2-S2-091M19,8,853,AS,exp,39,↑,left,←,0.8609615997411311,False,39,-1,0,0
Y2-S2-091M19,8,854,AS,exp,30,↓,down,↓,0.8400995000265539,True,40,-1,0,0
Y2-S2-091M19,8,855,AS,exp,36,↑,up,↑,1.2385285999625921,True,40,-1,0,0
Y2-S2-091M19,8,856,AS,exp,39,↓,down,↓,0.7504014000296593,True,40,1,1,1
Y2-S2-091M19,8,857,AS,exp,25,→,right,→,0.5847223997116089,True,39,1,0,1
Y2-S2-091M19,8,858,AS,exp,31,↑,right,→,1.176426799967885,False,39,-1,1,2
Y2-S2-091M19,8,859,AS,exp,44,↓,down,↓,1.1625422998331487,True,40,-1,0,2
Y2-S2-091M19,8,860,AS,exp,41,↑,right,→,0.6012021000497043,False,40,-1,0,2
Y2-S2-091M19,8,861,AS,exp,47,→,right,→,0.7176516000181437,True,41,-1,0,2
Y2-S2-091M19,8,862,AS,exp,43,←,left,←,0.41762860026210546,True,41,-1,0,2
Y2-S2-091M19,8,863,AS,exp,41,↓,down,↓,0.8006402999162674,True,41,1,1,3
Y2-S2-091M19,8,864,AS,exp,37,→,down,↓,0.6673443000763655,False,40,-1,1,4
Y2-S2-091M19,8,865,AS,exp,37,←,right,→,0.6177024999633431,False,41,-1,0,4
Y2-S2-091M19,8,866,AS,exp,35,↑,up,↑,0.4508409001864493,True,42,-1,0,4
Y2-S2-091M19,8,867,AS,exp,46,↓,down,↓,0.48459120001643896,True,42,-1,0,4
Y2-S2-091M19,8,868,AS,exp,37,←,left,←,0.5675849001854658,True,42,1,1,5
Y2-S2-091M19,8,869,AS,exp,47,↑,right,→,0.6510302000679076,False,41,-1,1,6
Y2-S2-091M19,8,870,AS,exp,44,→,right,→,0.7008028002455831,True,42,-1,0,6
Y2-S2-091M19,8,871,AS,exp,44,←,left,←,0.7178001999855042,True,42,-1,0,6
Y2-S2-091M19,8,872,AS,exp,27,↓,down,↓,0.6010312000289559,True,42,1,1,7
Y2-S2-091M19,8,873,AS,exp,35,→,right,→,0.8005845998413861,True,41,1,0,7
Y2-S2-091M19,8,874,AS,exp,25,↑,up,↑,0.5343276001513004,True,41,1,0,7
Y2-S2-091M19,8,875,AS,exp,41,↓,down,↓,1.3057662001810968,True,41,1,0,7
Y2-S2-091M19,8,876,AS,exp,45,→,right,→,0.7171669998206198,True,40,1,0,7
Y2-S2-091M19,8,877,AS,exp,42,↓,down,↓,0.6671779002062976,True,40,1,0,7
Y2-S2-091M19,8,878,AS,exp,42,→,right,→,0.7673329999670386,True,40,1,0,7
Y2-S2-091M19,8,879,AS,exp,40,←,right,→,0.8501879000104964,False,39,-1,1,8
Y2-S2-091M19,8,880,AS,exp,38,→,right,→,0.6341655999422073,True,40,-1,0,8
Y2-S2-091M19,8,881,AS,exp,28,←,right,→,0.6668740999884903,False,40,-1,0,8
Y2-S2-091M19,8,882,AS,exp,27,↑,right,→,0.5509848999790847,False,41,-1,0,8
Y2-S2-091M19,8,883,AS,exp,39,←,left,←,0.43466900009661913,True,42,-1,0,8
Y2-S2-091M19,8,884,AS,exp,31,↑,no_key,no_letter,-1.0,False,42,-1,0,8
Y2-S2-091M19,8,885,AS,exp,26,←,left,←,0.850622100289911,True,43,-1,0,8
Y2-S2-091M19,8,886,AS,exp,32,↑,up,↑,0.800509000197053,True,43,-1,0,8
Y2-S2-091M19,8,887,AS,exp,31,→,right,→,0.8005644003860652,True,43,1,1,9
Y2-S2-091M19,8,888,AS,exp,35,↑,up,↑,0.5676720002666116,True,42,1,0,9
Y2-S2-091M19,8,889,AS,exp,36,→,right,→,0.750702400226146,True,42,1,0,9
Y2-S2-091M19,8,890,AS,exp,34,←,left,←,1.0289867003448308,True,42,1,0,9
Y2-S2-091M19,8,891,AS,exp,34,↓,down,↓,0.8173575000837445,True,41,1,0,9
Y2-S2-091M19,8,892,AS,exp,25,→,up,↑,0.4517094003967941,False,41,-1,1,10
Y2-S2-091M19,8,893,AS,exp,27,←,left,←,0.9362173001281917,True,42,-1,0,10
Y2-S2-091M19,8,894,AS,exp,46,→,right,→,1.3920308002270758,True,42,-1,0,10
Y2-S2-091M19,8,895,AS,exp,44,←,left,←,0.5180039000697434,True,42,1,1,11
Y2-S2-091M19,8,896,AS,exp,26,↑,up,↑,0.7336289999075234,True,41,1,0,11
Y2-S2-091M19,8,897,AS,exp,32,←,right,→,0.6347308000549674,False,41,-1,1,12
Y2-S2-091M19,8,898,AS,exp,41,→,right,→,0.7339399000629783,True,42,-1,0,12
Y2-S2-091M19,8,899,AS,exp,40,↓,down,↓,1.4849629998207092,True,42,-1,0,12
Y2-S2-091M19,8,900,AS,exp,37,↑,up,↑,1.312610600143671,True,42,1,1,13
Y2-S2-091M19,8,901,AS,exp,48,→,right,→,0.6841330998577178,True,41,1,0,13
Y2-S2-091M19,8,902,AS,exp,47,↓,down,↓,1.3640487999655306,True,41,1,0,13
Y2-S2-091M19,8,903,AS,exp,26,↑,up,↑,0.871128199622035,True,41,1,0,13
Y2-S2-091M19,8,904,AS,exp,33,↓,down,↓,0.800405400339514,True,40,1,0,13
Y2-S2-091M19,8,905,AS,exp,37,←,left,←,1.3625009004026651,True,40,1,0,13
Y2-S2-091M19,8,906,AS,exp,39,↑,up,↑,0.9738067002035677,True,40,1,0,13
Y2-S2-091M19,8,907,AS,exp,40,→,right,→,0.43447550013661385,True,39,1,0,13
Y2-S2-091M19,8,908,AS,exp,45,↑,up,↑,0.6510799000971019,True,39,1,0,13
Y2-S2-091M19,8,909,AS,exp,39,←,left,←,1.0240997998043895,True,39,1,0,13
Y2-S2-091M19,8,910,AS,exp,46,→,right,→,0.7005257001146674,True,38,1,0,13
Y2-S2-091M19,8,911,AS,exp,48,↑,up,↑,0.8344632000662386,True,38,1,0,13
Y2-S2-091M19,8,912,AS,exp,38,↓,down,↓,0.9582309001125395,True,38,1,0,13
Y2-S2-091M19,8,913,AS,exp,45,→,right,→,0.418268000241369,True,37,1,0,13
Y2-S2-091M19,8,914,AS,exp,46,↓,right,→,1.3134540999308228,False,37,-1,1,14
Y2-S2-091M19,8,915,AS,exp,41,→,right,→,0.8802954000420868,True,38,-1,0,14
Y2-S2-091M19,8,916,AS,exp,50,↑,up,↑,0.717236100230366,True,38,-1,0,14
Y2-S2-091M19,8,917,AS,exp,32,←,right,→,0.6181970001198351,False,38,-1,0,14
Y2-S2-091M19,8,918,AS,exp,45,↑,up,↑,0.7338258000090718,True,39,-1,0,14
Y2-S2-091M19,8,919,AS,exp,40,↓,down,↓,1.5111531997099519,True,39,-1,0,14
Y2-S2-091M19,8,920,AS,exp,34,←,left,←,0.8478671000339091,True,39,1,1,15
Y2-S2-091M19,8,921,AS,exp,33,↑,up,↑,0.5175918000750244,True,38,1,0,15
Y2-S2-091M19,8,922,AS,exp,39,←,left,←,0.9481963003054261,True,38,1,0,15
Y2-S2-091M19,8,923,AS,exp,37,→,right,→,0.5342933000065386,True,38,1,0,15
Y2-S2-091M19,8,924,AS,exp,33,←,left,←,0.842236400116235,True,37,1,0,15
Y2-S2-091M19,8,925,AS,exp,32,↓,down,↓,0.902950800023973,True,37,1,0,15
Y2-S2-091M19,8,926,AS,exp,40,↑,up,↑,1.1614020001143217,True,37,1,0,15
Y2-S2-091M19,8,927,AS,exp,30,→,right,→,0.6504981997422874,True,36,1,0,15
Y2-S2-091M19,8,928,AS,exp,36,↑,up,↑,0.7173714996315539,True,36,1,0,15
Y2-S2-091M19,8,929,AS,exp,25,↓,down,↓,0.7005043001845479,True,36,1,0,15
Y2-S2-091M19,8,930,AS,exp,35,↑,up,↑,0.8299257000908256,True,35,1,0,15
Y2-S2-091M19,8,931,AS,exp,34,←,right,→,0.5509840003214777,False,35,-1,1,16
