PART_ID,Block_no,Trial_no,Block_type,Trial_type,CSI,Stim_letter,Key_pressed,letter_choose,Rt,Corr,Stimulus Time,Level,Reversal,Revs_count
Y2-S2-289M18,1,1,PS,train,26,↑,no_key,no_letter,-1.0,False,30,-,-,-
Y2-S2-289M18,1,2,PS,train,49,←,left,←,0.6813381998799741,True,30,-,-,-
Y2-S2-289M18,1,3,PS,train,25,→,right,→,0.6003176998347044,True,30,-,-,-
Y2-S2-289M18,1,4,PS,train,36,↓,down,↓,0.9020976000465453,True,30,-,-,-
Y2-S2-289M18,1,5,PS,train,30,→,right,→,0.753547600004822,True,30,-,-,-
Y2-S2-289M18,1,6,PS,train,46,↓,down,↓,0.7197037003934383,True,30,-,-,-
Y2-S2-289M18,1,7,PS,train,31,←,left,←,0.6342127998359501,True,30,-,-,-
Y2-S2-289M18,1,8,PS,train,27,↑,up,↑,0.7096294001676142,True,30,-,-,-
Y2-S2-289M18,1,9,PS,train,43,←,down,↓,1.3193550002761185,False,30,-,-,-
Y2-S2-289M18,1,10,PS,train,34,→,up,↑,1.2882640999741852,False,30,-,-,-
Y2-S2-289M18,2,11,AS,train,34,↓,down,↓,0.8673966000787914,True,45,-,-,-
Y2-S2-289M18,2,12,AS,train,41,→,right,→,0.817319200374186,True,45,-,-,-
Y2-S2-289M18,2,13,AS,train,27,↓,down,↓,0.6511529996059835,True,45,-,-,-
Y2-S2-289M18,2,14,AS,train,30,↑,up,↑,0.717815900221467,True,45,-,-,-
Y2-S2-289M18,2,15,AS,train,34,→,right,→,0.6348306001164019,True,45,-,-,-
Y2-S2-289M18,2,16,AS,train,26,↓,down,↓,0.5839094999246299,True,45,-,-,-
Y2-S2-289M18,2,17,AS,train,28,←,left,←,2.3582343999296427,True,45,-,-,-
Y2-S2-289M18,2,18,AS,train,44,→,right,→,0.9485608995892107,True,45,-,-,-
Y2-S2-289M18,2,19,AS,train,41,←,left,←,1.3202319000847638,True,45,-,-,-
Y2-S2-289M18,2,20,AS,train,27,→,right,→,0.667703100014478,True,45,-,-,-
Y2-S2-289M18,-,21,PS,adaptive,33,↓,up,↑,0.9122875002212822,False,10,-1,0,0
Y2-S2-289M18,-,22,PS,adaptive,39,↑,up,↑,0.5590566000901163,True,11,-1,0,0
Y2-S2-289M18,-,23,PS,adaptive,32,←,no_key,no_letter,-1.0,False,11,-1,0,0
Y2-S2-289M18,-,24,PS,adaptive,27,↓,up,↑,0.9663521000184119,False,12,-1,0,0
Y2-S2-289M18,-,25,PS,adaptive,27,→,no_key,no_letter,-1.0,False,13,-1,0,0
Y2-S2-289M18,-,26,PS,adaptive,34,←,left,←,0.5103633999824524,True,14,-1,0,0
Y2-S2-289M18,-,27,PS,adaptive,32,↓,left,←,0.6460688998922706,False,14,-1,0,0
Y2-S2-289M18,-,28,PS,adaptive,26,→,up,↑,1.0986732002347708,False,15,-1,0,0
Y2-S2-289M18,-,29,PS,adaptive,31,↓,down,↓,1.3795381002128124,True,16,-1,0,0
Y2-S2-289M18,-,30,PS,adaptive,36,←,left,←,0.7182654002681375,True,16,-1,0,0
Y2-S2-289M18,-,31,PS,adaptive,30,↑,left,←,0.7301452998071909,False,16,-1,0,0
Y2-S2-289M18,-,32,PS,adaptive,29,←,up,↑,1.2435928001068532,False,17,-1,0,0
Y2-S2-289M18,-,33,PS,adaptive,49,↑,up,↑,0.8327282001264393,True,18,-1,0,0
Y2-S2-289M18,-,34,PS,adaptive,38,↓,up,↑,0.983689600136131,False,18,-1,0,0
Y2-S2-289M18,-,35,PS,adaptive,50,→,right,→,0.9274039003066719,True,19,-1,0,0
Y2-S2-289M18,-,36,PS,adaptive,36,←,left,←,0.7674016999080777,True,19,-1,0,0
Y2-S2-289M18,-,37,PS,adaptive,43,↓,down,↓,0.4912499003112316,True,19,1,1,1
Y2-S2-289M18,-,38,PS,adaptive,45,→,right,→,0.4926566001959145,True,18,1,0,1
Y2-S2-289M18,-,39,PS,adaptive,46,↑,right,→,0.30098940012976527,False,18,-1,1,2
Y2-S2-289M18,-,40,PS,adaptive,28,↓,down,↓,0.7469783001579344,True,19,-1,0,2
Y2-S2-289M18,-,41,PS,adaptive,39,↑,up,↑,0.5807378999888897,True,19,-1,0,2
Y2-S2-289M18,-,42,PS,adaptive,48,→,right,→,0.6392622999846935,True,19,1,1,3
Y2-S2-289M18,-,43,PS,adaptive,37,←,right,→,0.3669936000369489,False,18,-1,1,4
Y2-S2-289M18,-,44,AS,adaptive,46,↑,up,↑,0.6286565000191331,True,20,0,0,0
Y2-S2-289M18,-,45,AS,adaptive,45,←,left,←,0.8774501997977495,True,20,0,0,0
Y2-S2-289M18,-,46,AS,adaptive,25,↓,down,↓,0.8403646000660956,True,20,1,0,0
Y2-S2-289M18,-,47,AS,adaptive,41,↑,no_key,no_letter,-1.0,False,19,-1,1,1
Y2-S2-289M18,-,48,AS,adaptive,37,↓,down,↓,0.8992349999025464,True,20,-1,0,1
Y2-S2-289M18,-,49,AS,adaptive,30,→,right,→,0.6344015002250671,True,20,-1,0,1
Y2-S2-289M18,-,50,AS,adaptive,33,←,left,←,0.467217699624598,True,20,1,1,2
Y2-S2-289M18,-,51,AS,adaptive,45,↑,up,↑,0.6381824002601206,True,19,1,0,2
Y2-S2-289M18,-,52,AS,adaptive,37,→,right,→,1.3266225000843406,True,19,1,0,2
Y2-S2-289M18,-,53,AS,adaptive,26,↓,up,↑,0.8225384997203946,False,19,-1,1,3
Y2-S2-289M18,-,54,AS,adaptive,34,↑,down,↓,0.7215220998041332,False,20,-1,0,3
Y2-S2-289M18,-,55,AS,adaptive,39,↓,down,↓,0.8121367995627224,True,21,-1,0,3
Y2-S2-289M18,-,56,AS,adaptive,31,↑,up,↑,0.9770557996816933,True,21,-1,0,3
Y2-S2-289M18,-,57,AS,adaptive,28,↓,down,↓,0.8555299998261034,True,21,1,1,4
Y2-S2-289M18,1,58,AS,intra_train,28,→,right,→,0.782109699677676,True,30,-,-,-
Y2-S2-289M18,1,59,AS,intra_train,29,↑,up,↑,0.6174989999271929,True,30,-,-,-
Y2-S2-289M18,1,60,AS,intra_train,33,←,left,←,1.1336579998023808,True,30,-,-,-
Y2-S2-289M18,1,61,AS,intra_train,50,→,right,→,0.5675101997330785,True,30,-,-,-
Y2-S2-289M18,1,62,AS,intra_train,47,↑,up,↑,0.7745024003088474,True,30,-,-,-
Y2-S2-289M18,1,63,AS,exp,48,←,left,←,0.7026713001541793,True,20,0,0,0
Y2-S2-289M18,1,64,AS,exp,28,↓,down,↓,0.6493215002119541,True,20,0,0,0
Y2-S2-289M18,1,65,AS,exp,46,→,right,→,0.6461002002470195,True,20,1,0,0
Y2-S2-289M18,1,66,AS,exp,41,↑,up,↑,0.48751460015773773,True,19,1,0,0
Y2-S2-289M18,1,67,AS,exp,37,→,right,→,1.682963500265032,True,19,1,0,0
Y2-S2-289M18,1,68,AS,exp,48,↓,down,↓,0.6205884995870292,True,19,1,0,0
Y2-S2-289M18,1,69,AS,exp,39,→,right,→,0.6738384002819657,True,18,1,0,0
Y2-S2-289M18,1,70,AS,exp,43,↑,up,↑,0.7555510001257062,True,18,1,0,0
Y2-S2-289M18,1,71,AS,exp,27,→,right,→,0.3838838003575802,True,18,1,0,0
Y2-S2-289M18,1,72,AS,exp,46,↓,down,↓,0.7278397004120052,True,17,1,0,0
Y2-S2-289M18,1,73,AS,exp,32,→,right,→,0.4710984001867473,True,17,1,0,0
Y2-S2-289M18,1,74,AS,exp,42,↓,down,↓,1.1754256002604961,True,17,1,0,0
Y2-S2-289M18,1,75,AS,exp,32,↑,down,↓,1.0990677997469902,False,16,-1,1,1
Y2-S2-289M18,1,76,AS,exp,48,←,right,→,1.0916822999715805,False,17,-1,0,1
Y2-S2-289M18,1,77,AS,exp,26,↓,up,↑,0.7685267003253102,False,18,-1,0,1
Y2-S2-289M18,1,78,AS,exp,42,←,left,←,0.6336320000700653,True,19,-1,0,1
Y2-S2-289M18,1,79,AS,exp,42,↓,down,↓,0.6480028000660241,True,19,-1,0,1
Y2-S2-289M18,1,80,AS,exp,45,←,down,↓,0.6298998999409378,False,19,-1,0,1
Y2-S2-289M18,1,81,AS,exp,33,↓,up,↑,1.8426589998416603,False,20,-1,0,1
Y2-S2-289M18,1,82,AS,exp,26,→,right,→,0.7247581998817623,True,21,-1,0,1
Y2-S2-289M18,1,83,AS,exp,31,←,left,←,0.6986909001134336,True,21,-1,0,1
Y2-S2-289M18,1,84,AS,exp,38,↓,down,↓,0.6151344999670982,True,21,1,1,2
Y2-S2-289M18,1,85,AS,exp,44,→,right,→,0.6026007998734713,True,20,1,0,2
Y2-S2-289M18,1,86,AS,exp,48,↓,down,↓,0.595265899784863,True,20,1,0,2
Y2-S2-289M18,1,87,AS,exp,50,←,left,←,0.5228252001106739,True,20,1,0,2
Y2-S2-289M18,1,88,AS,exp,32,→,right,→,0.5850728000514209,True,19,1,0,2
Y2-S2-289M18,1,89,AS,exp,33,←,left,←,0.5052629997953773,True,19,1,0,2
Y2-S2-289M18,1,90,AS,exp,45,↑,up,↑,0.48392589995637536,True,19,1,0,2
Y2-S2-289M18,1,91,AS,exp,49,↓,down,↓,1.6107796002179384,True,18,1,0,2
Y2-S2-289M18,1,92,AS,exp,45,↑,up,↑,1.3040938996709883,True,18,1,0,2
Y2-S2-289M18,1,93,AS,exp,31,↓,right,→,1.0080889998935163,False,18,-1,1,3
Y2-S2-289M18,1,94,AS,exp,34,→,left,←,0.9283182001672685,False,19,-1,0,3
Y2-S2-289M18,1,95,AS,exp,27,←,right,→,1.3484148997813463,False,20,-1,0,3
Y2-S2-289M18,1,96,AS,exp,32,↓,down,↓,0.6213706000708044,True,21,-1,0,3
Y2-S2-289M18,1,97,AS,exp,41,↑,up,↑,0.56134740030393,True,21,-1,0,3
Y2-S2-289M18,1,98,AS,exp,45,↓,down,↓,0.8211493999697268,True,21,1,1,4
Y2-S2-289M18,1,99,AS,exp,41,→,right,→,0.5024264003150165,True,20,1,0,4
Y2-S2-289M18,1,100,AS,exp,28,←,no_key,no_letter,-1.0,False,20,-1,1,5
Y2-S2-289M18,1,101,AS,exp,33,↓,right,→,0.5560376001521945,False,21,-1,0,5
Y2-S2-289M18,1,102,AS,exp,43,↑,up,↑,0.5005699000321329,True,22,-1,0,5
Y2-S2-289M18,1,103,AS,exp,27,→,right,→,0.7677419004030526,True,22,-1,0,5
Y2-S2-289M18,1,104,AS,exp,39,↓,down,↓,0.8416702002286911,True,22,1,1,6
Y2-S2-289M18,1,105,AS,exp,43,←,left,←,0.7073441999964416,True,21,1,0,6
Y2-S2-289M18,1,106,AS,exp,37,↓,down,↓,0.9454989000223577,True,21,1,0,6
Y2-S2-289M18,1,107,AS,exp,49,↑,up,↑,0.8553102998994291,True,21,1,0,6
Y2-S2-289M18,1,108,AS,exp,36,←,no_key,no_letter,-1.0,False,20,-1,1,7
Y2-S2-289M18,1,109,AS,exp,50,↑,up,↑,0.483787199947983,True,21,-1,0,7
Y2-S2-289M18,1,110,AS,exp,44,→,right,→,0.9090104000642896,True,21,-1,0,7
Y2-S2-289M18,1,111,AS,exp,42,↑,up,↑,0.6661235000938177,True,21,1,1,8
Y2-S2-289M18,1,112,AS,exp,50,←,left,←,0.8986788000911474,True,20,1,0,8
Y2-S2-289M18,1,113,AS,exp,32,→,down,↓,1.4944358002394438,False,20,-1,1,9
Y2-S2-289M18,1,114,AS,exp,36,↓,down,↓,0.7186702000908554,True,21,-1,0,9
Y2-S2-289M18,1,115,AS,exp,35,←,left,←,0.6081094997934997,True,21,-1,0,9
Y2-S2-289M18,1,116,AS,exp,36,↓,down,↓,0.8387947999872267,True,21,1,1,10
Y2-S2-289M18,1,117,AS,exp,41,←,left,←,0.8404391999356449,True,20,1,0,10
Y2-S2-289M18,1,118,AS,exp,26,→,right,→,0.8507550000213087,True,20,1,0,10
Y2-S2-289M18,1,119,AS,exp,39,↑,up,↑,0.5080285998992622,True,20,1,0,10
Y2-S2-289M18,1,120,AS,exp,43,→,right,→,0.7907213997095823,True,19,1,0,10
Y2-S2-289M18,1,121,AS,exp,41,↑,right,→,0.4956919997930527,False,19,-1,1,11
Y2-S2-289M18,1,122,AS,exp,45,↓,up,↑,1.5965662999078631,False,20,-1,0,11
Y2-S2-289M18,1,123,AS,exp,43,→,right,→,0.7115130997262895,True,21,-1,0,11
Y2-S2-289M18,1,124,AS,exp,44,↑,up,↑,1.9113549999892712,True,21,-1,0,11
Y2-S2-289M18,1,125,AS,exp,30,↓,down,↓,1.0116314003244042,True,21,1,1,12
Y2-S2-289M18,1,126,AS,exp,48,→,right,→,0.8576936000026762,True,20,1,0,12
Y2-S2-289M18,1,127,AS,exp,43,←,left,←,0.8689071997068822,True,20,1,0,12
Y2-S2-289M18,1,128,AS,exp,44,↑,up,↑,1.5162361999973655,True,20,1,0,12
Y2-S2-289M18,1,129,AS,exp,41,←,up,↑,1.6956886001862586,False,19,-1,1,13
Y2-S2-289M18,1,130,AS,exp,32,↑,up,↑,0.5778505001217127,True,20,-1,0,13
Y2-S2-289M18,1,131,AS,exp,43,↓,down,↓,1.4740597996860743,True,20,-1,0,13
Y2-S2-289M18,1,132,AS,exp,43,→,right,→,0.7504286002367735,True,20,1,1,14
Y2-S2-289M18,1,133,AS,exp,47,↓,down,↓,0.6263049999251962,True,19,1,0,14
Y2-S2-289M18,1,134,AS,exp,33,↑,left,←,1.4368735002353787,False,19,-1,1,15
Y2-S2-289M18,1,135,AS,exp,45,→,right,→,0.8408661000430584,True,20,-1,0,15
Y2-S2-289M18,1,136,AS,exp,34,←,left,←,1.1943966001272202,True,20,-1,0,15
Y2-S2-289M18,1,137,AS,exp,33,↑,up,↑,1.2253474001772702,True,20,1,1,16
Y2-S2-289M18,2,138,PS,intra_train,39,→,right,→,0.6795402998104692,True,28,-,-,-
Y2-S2-289M18,2,139,PS,intra_train,42,↑,up,↑,1.0117814000695944,True,28,-,-,-
Y2-S2-289M18,2,140,PS,intra_train,38,→,right,→,0.550637099891901,True,28,-,-,-
Y2-S2-289M18,2,141,PS,intra_train,34,←,left,←,0.8526180000044405,True,28,-,-,-
Y2-S2-289M18,2,142,PS,intra_train,45,→,right,→,0.5007750997319818,True,28,-,-,-
Y2-S2-289M18,2,143,PS,exp,39,↑,up,↑,1.1502951998263597,True,19,0,0,0
Y2-S2-289M18,2,144,PS,exp,38,→,right,→,0.6658511003479362,True,19,0,0,0
Y2-S2-289M18,2,145,PS,exp,41,↓,left,←,1.063653999939561,False,19,-1,0,0
Y2-S2-289M18,2,146,PS,exp,42,→,up,↑,1.3721648999489844,False,20,-1,0,0
Y2-S2-289M18,2,147,PS,exp,29,↓,down,↓,0.9943428002297878,True,21,-1,0,0
Y2-S2-289M18,2,148,PS,exp,34,←,left,←,0.7282567000947893,True,21,-1,0,0
Y2-S2-289M18,2,149,PS,exp,36,↓,down,↓,0.6509455996565521,True,21,1,1,1
Y2-S2-289M18,2,150,PS,exp,30,→,right,→,0.5026132999919355,True,20,1,0,1
Y2-S2-289M18,2,151,PS,exp,32,↓,right,→,0.8687228001654148,False,20,-1,1,2
Y2-S2-289M18,2,152,PS,exp,27,←,left,←,0.6650788001716137,True,21,-1,0,2
Y2-S2-289M18,2,153,PS,exp,37,↓,left,←,0.802394799888134,False,21,-1,0,2
Y2-S2-289M18,2,154,PS,exp,35,←,no_key,no_letter,-1.0,False,22,-1,0,2
Y2-S2-289M18,2,155,PS,exp,49,↑,up,↑,0.5919328001327813,True,23,-1,0,2
Y2-S2-289M18,2,156,PS,exp,25,←,right,→,0.7645769002847373,False,23,-1,0,2
Y2-S2-289M18,2,157,PS,exp,33,↓,down,↓,0.6181058003567159,True,24,-1,0,2
Y2-S2-289M18,2,158,PS,exp,26,→,right,→,0.7849949998781085,True,24,-1,0,2
Y2-S2-289M18,2,159,PS,exp,33,↓,down,↓,0.6560137001797557,True,24,1,1,3
Y2-S2-289M18,2,160,PS,exp,28,↑,up,↑,0.5705343000590801,True,23,1,0,3
Y2-S2-289M18,2,161,PS,exp,25,→,right,→,0.5883792000822723,True,23,1,0,3
Y2-S2-289M18,2,162,PS,exp,32,←,down,↓,1.236227999906987,False,23,-1,1,4
Y2-S2-289M18,2,163,PS,exp,25,→,right,→,0.6078320001251996,True,24,-1,0,4
Y2-S2-289M18,2,164,PS,exp,37,↓,down,↓,0.7873816997744143,True,24,-1,0,4
Y2-S2-289M18,2,165,PS,exp,26,←,left,←,0.7461477001197636,True,24,1,1,5
Y2-S2-289M18,2,166,PS,exp,38,↓,right,→,1.769693700131029,False,23,-1,1,6
Y2-S2-289M18,2,167,PS,exp,37,←,no_key,no_letter,-1.0,False,24,-1,0,6
Y2-S2-289M18,2,168,PS,exp,26,↑,up,↑,0.5949118002317846,True,25,-1,0,6
Y2-S2-289M18,2,169,PS,exp,42,→,right,→,0.5331851998344064,True,25,-1,0,6
Y2-S2-289M18,2,170,PS,exp,45,↓,down,↓,0.6006415002048016,True,25,1,1,7
Y2-S2-289M18,2,171,PS,exp,37,→,down,↓,1.4840986002236605,False,24,-1,1,8
Y2-S2-289M18,2,172,PS,exp,33,←,left,←,0.5176772000268102,True,25,-1,0,8
Y2-S2-289M18,2,173,PS,exp,37,↑,down,↓,1.8132690996862948,False,25,-1,0,8
Y2-S2-289M18,2,174,PS,exp,33,←,left,←,0.7209963002242148,True,26,-1,0,8
Y2-S2-289M18,2,175,PS,exp,46,↑,up,↑,0.5003529000096023,True,26,-1,0,8
Y2-S2-289M18,2,176,PS,exp,45,→,right,→,1.8645230000838637,True,26,1,1,9
Y2-S2-289M18,2,177,PS,exp,50,←,left,←,0.7200287999585271,True,25,1,0,9
Y2-S2-289M18,2,178,PS,exp,27,↓,down,↓,1.630823700223118,True,25,1,0,9
Y2-S2-289M18,2,179,PS,exp,50,→,right,→,0.9644015999510884,True,25,1,0,9
Y2-S2-289M18,2,180,PS,exp,46,↓,left,←,0.672040999867022,False,24,-1,1,10
Y2-S2-289M18,2,181,PS,exp,46,→,right,→,0.6335040000267327,True,25,-1,0,10
Y2-S2-289M18,2,182,PS,exp,40,↓,down,↓,0.5893886000849307,True,25,-1,0,10
Y2-S2-289M18,2,183,PS,exp,39,←,left,←,0.6260526003316045,True,25,1,1,11
Y2-S2-289M18,2,184,PS,exp,45,→,right,→,0.8171290000900626,True,24,1,0,11
Y2-S2-289M18,2,185,PS,exp,25,↑,up,↑,0.9035439998842776,True,24,1,0,11
Y2-S2-289M18,2,186,PS,exp,49,↓,down,↓,0.500452000182122,True,24,1,0,11
Y2-S2-289M18,2,187,PS,exp,44,↑,up,↑,0.6553915003314614,True,23,1,0,11
Y2-S2-289M18,2,188,PS,exp,34,←,right,→,0.9110296000726521,False,23,-1,1,12
Y2-S2-289M18,2,189,PS,exp,40,↑,up,↑,0.581852899864316,True,24,-1,0,12
Y2-S2-289M18,2,190,PS,exp,49,↓,down,↓,0.6581560997292399,True,24,-1,0,12
Y2-S2-289M18,2,191,PS,exp,35,→,right,→,0.5170645001344383,True,24,1,1,13
Y2-S2-289M18,2,192,PS,exp,46,←,left,←,1.4259609999135137,True,23,1,0,13
Y2-S2-289M18,2,193,PS,exp,44,↑,up,↑,0.5883732000365853,True,23,1,0,13
Y2-S2-289M18,2,194,PS,exp,41,↓,down,↓,0.6129303001798689,True,23,1,0,13
Y2-S2-289M18,2,195,PS,exp,43,←,left,←,0.9079577000811696,True,22,1,0,13
Y2-S2-289M18,2,196,PS,exp,29,→,right,→,0.50046749971807,True,22,1,0,13
Y2-S2-289M18,2,197,PS,exp,30,↓,down,↓,0.7480940003879368,True,22,1,0,13
Y2-S2-289M18,2,198,PS,exp,45,↑,up,↑,0.5536524998024106,True,21,1,0,13
Y2-S2-289M18,2,199,PS,exp,50,←,right,→,1.0671381996944547,False,21,-1,1,14
Y2-S2-289M18,2,200,PS,exp,43,→,right,→,0.45000570034608245,True,22,-1,0,14
Y2-S2-289M18,2,201,PS,exp,46,↑,up,↑,0.4839806002564728,True,22,-1,0,14
Y2-S2-289M18,2,202,PS,exp,33,→,right,→,0.6243210001848638,True,22,1,1,15
Y2-S2-289M18,2,203,PS,exp,32,↑,up,↑,1.3540639001876116,True,21,1,0,15
Y2-S2-289M18,2,204,PS,exp,41,↓,no_key,no_letter,-1.0,False,21,-1,1,16
Y2-S2-289M18,3,205,PS,intra_train,38,↑,no_key,no_letter,-1.0,False,28,-,-,-
Y2-S2-289M18,3,206,PS,intra_train,33,←,right,→,0.808489799965173,False,28,-,-,-
Y2-S2-289M18,3,207,PS,intra_train,39,↓,down,↓,0.7319622999057174,True,28,-,-,-
Y2-S2-289M18,3,208,PS,intra_train,49,↑,up,↑,0.5672812000848353,True,28,-,-,-
Y2-S2-289M18,3,209,PS,intra_train,44,↓,down,↓,0.7645573997870088,True,28,-,-,-
Y2-S2-289M18,3,210,PS,exp,49,←,left,←,0.6588520999066532,True,19,0,0,0
Y2-S2-289M18,3,211,PS,exp,35,↓,down,↓,0.8225500001572073,True,19,0,0,0
Y2-S2-289M18,3,212,PS,exp,41,→,right,→,0.9629139001481235,True,19,1,0,0
Y2-S2-289M18,3,213,PS,exp,34,↓,right,→,0.4888809002004564,False,18,-1,1,1
Y2-S2-289M18,3,214,PS,exp,42,←,left,←,0.5264789001084864,True,19,-1,0,1
Y2-S2-289M18,3,215,PS,exp,50,↑,up,↑,0.43421960016712546,True,19,-1,0,1
Y2-S2-289M18,3,216,PS,exp,42,←,left,←,0.5994712002575397,True,19,1,1,2
Y2-S2-289M18,3,217,PS,exp,37,↓,down,↓,0.6186889000236988,True,18,1,0,2
Y2-S2-289M18,3,218,PS,exp,43,↑,up,↑,0.6466256999410689,True,18,1,0,2
Y2-S2-289M18,3,219,PS,exp,32,←,left,←,0.4339812002144754,True,18,1,0,2
Y2-S2-289M18,3,220,PS,exp,42,↓,left,←,0.9614675999619067,False,17,-1,1,3
Y2-S2-289M18,3,221,PS,exp,34,→,right,→,0.5444355001673102,True,18,-1,0,3
Y2-S2-289M18,3,222,PS,exp,29,↓,down,↓,0.7240106998942792,True,18,-1,0,3
Y2-S2-289M18,3,223,PS,exp,29,←,left,←,0.7569746999070048,True,18,1,1,4
Y2-S2-289M18,3,224,PS,exp,26,↑,right,→,0.9667817000299692,False,17,-1,1,5
Y2-S2-289M18,3,225,PS,exp,38,→,right,→,0.6486770999617875,True,18,-1,0,5
Y2-S2-289M18,3,226,PS,exp,31,↑,up,↑,1.834694200195372,True,18,-1,0,5
Y2-S2-289M18,3,227,PS,exp,37,←,left,←,0.5652132998220623,True,18,1,1,6
Y2-S2-289M18,3,228,PS,exp,44,→,right,→,0.5988778001628816,True,17,1,0,6
Y2-S2-289M18,3,229,PS,exp,49,↓,down,↓,0.763640200253576,True,17,1,0,6
Y2-S2-289M18,3,230,PS,exp,43,→,right,→,0.5510288001969457,True,17,1,0,6
Y2-S2-289M18,3,231,PS,exp,35,↓,down,↓,0.6582991001196206,True,16,1,0,6
Y2-S2-289M18,3,232,PS,exp,43,→,right,→,0.6017884002067149,True,16,1,0,6
Y2-S2-289M18,3,233,PS,exp,30,↓,right,→,0.9269628003239632,False,16,-1,1,7
Y2-S2-289M18,3,234,PS,exp,46,←,left,←,1.3472630996257067,True,17,-1,0,7
Y2-S2-289M18,3,235,PS,exp,37,↑,up,↑,0.549847099930048,True,17,-1,0,7
Y2-S2-289M18,3,236,PS,exp,37,→,no_key,no_letter,-1.0,False,17,-1,0,7
Y2-S2-289M18,3,237,PS,exp,42,←,left,←,0.4722349001094699,True,18,-1,0,7
Y2-S2-289M18,3,238,PS,exp,41,↑,right,→,0.5638024997897446,False,18,-1,0,7
Y2-S2-289M18,3,239,PS,exp,39,↓,down,↓,0.45077469991520047,True,19,-1,0,7
Y2-S2-289M18,3,240,PS,exp,40,↑,up,↑,0.5128677999600768,True,19,-1,0,7
Y2-S2-289M18,3,241,PS,exp,44,→,right,→,0.563249500002712,True,19,1,1,8
Y2-S2-289M18,3,242,PS,exp,33,↑,up,↑,0.4902118002064526,True,18,1,0,8
Y2-S2-289M18,3,243,PS,exp,29,→,right,→,0.5750768999569118,True,18,1,0,8
Y2-S2-289M18,3,244,PS,exp,26,↑,up,↑,0.8572591999545693,True,18,1,0,8
Y2-S2-289M18,3,245,PS,exp,47,→,right,→,0.5527420002035797,True,17,1,0,8
Y2-S2-289M18,3,246,PS,exp,25,↓,down,↓,1.3447068999521434,True,17,1,0,8
Y2-S2-289M18,3,247,PS,exp,39,←,left,←,0.5064126001670957,True,17,1,0,8
Y2-S2-289M18,3,248,PS,exp,28,↑,up,↑,0.9400452999398112,True,16,1,0,8
Y2-S2-289M18,3,249,PS,exp,46,↓,down,↓,1.234831899870187,True,16,1,0,8
Y2-S2-289M18,3,250,PS,exp,27,↑,up,↑,0.6098422002978623,True,16,1,0,8
Y2-S2-289M18,3,251,PS,exp,47,→,right,→,0.5549347996711731,True,15,1,0,8
Y2-S2-289M18,3,252,PS,exp,37,←,left,←,0.5748601998202503,True,15,1,0,8
Y2-S2-289M18,3,253,PS,exp,48,↓,down,↓,0.6276628002524376,True,15,1,0,8
Y2-S2-289M18,3,254,PS,exp,31,→,up,↑,1.255027700215578,False,14,-1,1,9
Y2-S2-289M18,3,255,PS,exp,40,↑,up,↑,0.48621079977601767,True,15,-1,0,9
Y2-S2-289M18,3,256,PS,exp,27,←,left,←,0.9667238001711667,True,15,-1,0,9
Y2-S2-289M18,3,257,PS,exp,47,↑,up,↑,0.6014021998271346,True,15,1,1,10
Y2-S2-289M18,3,258,PS,exp,36,→,left,←,0.892022100277245,False,14,-1,1,11
Y2-S2-289M18,3,259,PS,exp,38,↓,down,↓,1.6061780997551978,True,15,-1,0,11
Y2-S2-289M18,3,260,PS,exp,35,↑,up,↑,0.5477875000797212,True,15,-1,0,11
Y2-S2-289M18,3,261,PS,exp,41,↓,right,→,1.8492328003048897,False,15,-1,0,11
Y2-S2-289M18,3,262,PS,exp,43,→,right,→,0.5910296002402902,True,16,-1,0,11
Y2-S2-289M18,3,263,PS,exp,43,↓,down,↓,0.7195470002479851,True,16,-1,0,11
Y2-S2-289M18,3,264,PS,exp,27,↑,right,→,0.6262994999997318,False,16,-1,0,11
Y2-S2-289M18,3,265,PS,exp,35,←,left,←,0.6953674000687897,True,17,-1,0,11
Y2-S2-289M18,3,266,PS,exp,36,↑,up,↑,0.5588936000131071,True,17,-1,0,11
Y2-S2-289M18,3,267,PS,exp,27,↓,right,→,1.2227945001795888,False,17,-1,0,11
Y2-S2-289M18,3,268,PS,exp,49,↑,up,↑,0.4888277999125421,True,18,-1,0,11
Y2-S2-289M18,3,269,PS,exp,31,↓,down,↓,0.6721840999089181,True,18,-1,0,11
Y2-S2-289M18,3,270,PS,exp,48,←,left,←,1.4056909000501037,True,18,1,1,12
Y2-S2-289M18,3,271,PS,exp,39,↑,up,↑,0.7754548001103103,True,17,1,0,12
Y2-S2-289M18,3,272,PS,exp,37,→,down,↓,0.9903907002881169,False,17,-1,1,13
Y2-S2-289M18,3,273,PS,exp,27,↑,down,↓,1.5182734997943044,False,18,-1,0,13
Y2-S2-289M18,3,274,PS,exp,47,→,right,→,0.5835780999623239,True,19,-1,0,13
Y2-S2-289M18,3,275,PS,exp,39,↑,up,↑,0.5751924999058247,True,19,-1,0,13
Y2-S2-289M18,3,276,PS,exp,34,←,left,←,0.4007341000251472,True,19,1,1,14
Y2-S2-289M18,3,277,PS,exp,37,↑,left,←,0.735292199999094,False,18,-1,1,15
Y2-S2-289M18,3,278,PS,exp,27,→,right,→,0.8069911999627948,True,19,-1,0,15
Y2-S2-289M18,3,279,PS,exp,37,↑,up,↑,1.5963345002382994,True,19,-1,0,15
Y2-S2-289M18,3,280,PS,exp,30,↓,down,↓,0.8912544003687799,True,19,1,1,16
Y2-S2-289M18,4,281,AS,intra_train,29,↑,right,→,0.6172068999148905,False,30,-,-,-
Y2-S2-289M18,4,282,AS,intra_train,50,↓,down,↓,1.4247761997394264,True,30,-,-,-
Y2-S2-289M18,4,283,AS,intra_train,26,←,left,←,0.9896269999444485,True,30,-,-,-
Y2-S2-289M18,4,284,AS,intra_train,41,↑,up,↑,0.7592337001115084,True,30,-,-,-
Y2-S2-289M18,4,285,AS,intra_train,42,↓,down,↓,0.6890482003800571,True,30,-,-,-
Y2-S2-289M18,4,286,AS,exp,48,←,left,←,0.7465412998571992,True,20,0,0,0
Y2-S2-289M18,4,287,AS,exp,42,↓,down,↓,0.7081281999126077,True,20,0,0,0
Y2-S2-289M18,4,288,AS,exp,36,↑,up,↑,0.6173927998170257,True,20,1,0,0
Y2-S2-289M18,4,289,AS,exp,26,→,right,→,0.4931804998777807,True,19,1,0,0
Y2-S2-289M18,4,290,AS,exp,35,←,left,←,0.8170452998019755,True,19,1,0,0
Y2-S2-289M18,4,291,AS,exp,42,↑,down,↓,0.804199299775064,False,19,-1,1,1
Y2-S2-289M18,4,292,AS,exp,42,↓,down,↓,0.5726915998384356,True,20,-1,0,1
Y2-S2-289M18,4,293,AS,exp,25,←,left,←,0.9321857001632452,True,20,-1,0,1
Y2-S2-289M18,4,294,AS,exp,28,↓,down,↓,0.5143182002939284,True,20,1,1,2
Y2-S2-289M18,4,295,AS,exp,43,→,right,→,0.7122733001597226,True,19,1,0,2
Y2-S2-289M18,4,296,AS,exp,49,↑,up,↑,1.8556808000430465,True,19,1,0,2
Y2-S2-289M18,4,297,AS,exp,35,→,right,→,0.9676091996952891,True,19,1,0,2
Y2-S2-289M18,4,298,AS,exp,38,←,left,←,0.5553278001025319,True,18,1,0,2
Y2-S2-289M18,4,299,AS,exp,36,↓,down,↓,0.5842190999537706,True,18,1,0,2
Y2-S2-289M18,4,300,AS,exp,28,↑,up,↑,0.9210732001811266,True,18,1,0,2
Y2-S2-289M18,4,301,AS,exp,25,↓,down,↓,0.4636709997430444,True,17,1,0,2
Y2-S2-289M18,4,302,AS,exp,46,←,up,↑,0.9091825000941753,False,17,-1,1,3
Y2-S2-289M18,4,303,AS,exp,30,↓,down,↓,0.9197937999852002,True,18,-1,0,3
Y2-S2-289M18,4,304,AS,exp,33,←,right,→,0.8915413003414869,False,18,-1,0,3
Y2-S2-289M18,4,305,AS,exp,46,↓,down,↓,0.7789753000251949,True,19,-1,0,3
Y2-S2-289M18,4,306,AS,exp,44,↑,up,↑,0.8857430000789464,True,19,-1,0,3
Y2-S2-289M18,4,307,AS,exp,39,←,left,←,0.5543009997345507,True,19,1,1,4
Y2-S2-289M18,4,308,AS,exp,49,↓,right,→,0.9827496004290879,False,18,-1,1,5
Y2-S2-289M18,4,309,AS,exp,27,→,right,→,0.6214891001582146,True,19,-1,0,5
Y2-S2-289M18,4,310,AS,exp,38,←,left,←,0.45050569996237755,True,19,-1,0,5
Y2-S2-289M18,4,311,AS,exp,30,↓,down,↓,0.45052800001576543,True,19,1,1,6
Y2-S2-289M18,4,312,AS,exp,32,→,right,→,0.6059781000949442,True,18,1,0,6
Y2-S2-289M18,4,313,AS,exp,50,↓,left,←,0.5804418995976448,False,18,-1,1,7
Y2-S2-289M18,4,314,AS,exp,45,←,left,←,0.618749599903822,True,19,-1,0,7
Y2-S2-289M18,4,315,AS,exp,34,→,down,↓,0.4338708999566734,False,19,-1,0,7
Y2-S2-289M18,4,316,AS,exp,29,↓,down,↓,0.7346105999313295,True,20,-1,0,7
Y2-S2-289M18,4,317,AS,exp,41,↑,up,↑,0.8950462001375854,True,20,-1,0,7
Y2-S2-289M18,4,318,AS,exp,37,→,right,→,1.2844247999601066,True,20,1,1,8
Y2-S2-289M18,4,319,AS,exp,31,↑,up,↑,0.5219438001513481,True,19,1,0,8
Y2-S2-289M18,4,320,AS,exp,35,→,up,↑,0.7940740999765694,False,19,-1,1,9
Y2-S2-289M18,4,321,AS,exp,33,↑,up,↑,0.5973847000859678,True,20,-1,0,9
Y2-S2-289M18,4,322,AS,exp,36,↓,down,↓,0.6397015997208655,True,20,-1,0,9
Y2-S2-289M18,4,323,AS,exp,34,←,left,←,0.5661809998564422,True,20,1,1,10
Y2-S2-289M18,4,324,AS,exp,43,↓,down,↓,0.6371289002709091,True,19,1,0,10
Y2-S2-289M18,4,325,AS,exp,26,←,left,←,0.4881071001291275,True,19,1,0,10
Y2-S2-289M18,4,326,AS,exp,33,→,right,→,0.4918319000862539,True,19,1,0,10
Y2-S2-289M18,4,327,AS,exp,39,↑,left,←,1.3682391000911593,False,18,-1,1,11
Y2-S2-289M18,4,328,AS,exp,26,←,left,←,0.5966375996358693,True,19,-1,0,11
Y2-S2-289M18,4,329,AS,exp,48,↑,up,↑,0.9502632999792695,True,19,-1,0,11
Y2-S2-289M18,4,330,AS,exp,32,↓,down,↓,0.8077610000036657,True,19,1,1,12
Y2-S2-289M18,4,331,AS,exp,27,←,left,←,0.5434111999347806,True,18,1,0,12
Y2-S2-289M18,4,332,AS,exp,37,↓,down,↓,0.7479489999823272,True,18,1,0,12
Y2-S2-289M18,4,333,AS,exp,43,↑,up,↑,1.0339772999286652,True,18,1,0,12
Y2-S2-289M18,4,334,AS,exp,38,←,left,←,0.7736626998521388,True,17,1,0,12
Y2-S2-289M18,4,335,AS,exp,47,→,right,→,0.5055347997695208,True,17,1,0,12
Y2-S2-289M18,4,336,AS,exp,35,↑,up,↑,0.5439581996761262,True,17,1,0,12
Y2-S2-289M18,4,337,AS,exp,29,↓,down,↓,0.5130591997876763,True,16,1,0,12
Y2-S2-289M18,4,338,AS,exp,35,→,right,→,0.4475731002166867,True,16,1,0,12
Y2-S2-289M18,4,339,AS,exp,43,↑,up,↑,0.631863999646157,True,16,1,0,12
Y2-S2-289M18,4,340,AS,exp,44,→,right,→,0.5041570998728275,True,15,1,0,12
Y2-S2-289M18,4,341,AS,exp,31,↓,left,←,1.006020300090313,False,15,-1,1,13
Y2-S2-289M18,4,342,AS,exp,50,→,right,→,0.6139989998191595,True,16,-1,0,13
Y2-S2-289M18,4,343,AS,exp,29,←,left,←,0.5450224000960588,True,16,-1,0,13
Y2-S2-289M18,4,344,AS,exp,28,→,up,↑,0.7914883997291327,False,16,-1,0,13
Y2-S2-289M18,4,345,AS,exp,38,↓,down,↓,0.6767226997762918,True,17,-1,0,13
Y2-S2-289M18,4,346,AS,exp,41,→,right,→,0.6555365999229252,True,17,-1,0,13
Y2-S2-289M18,4,347,AS,exp,29,←,up,↑,0.47650729957967997,False,17,-1,0,13
Y2-S2-289M18,4,348,AS,exp,43,→,down,↓,1.451312500052154,False,18,-1,0,13
Y2-S2-289M18,4,349,AS,exp,40,←,down,↓,0.9020535000599921,False,19,-1,0,13
Y2-S2-289M18,4,350,AS,exp,36,→,right,→,0.779109800234437,True,20,-1,0,13
Y2-S2-289M18,4,351,AS,exp,31,↓,down,↓,0.616986199747771,True,20,-1,0,13
Y2-S2-289M18,4,352,AS,exp,36,←,left,←,0.8191499998793006,True,20,1,1,14
Y2-S2-289M18,4,353,AS,exp,29,↑,up,↑,0.49687650008127093,True,19,1,0,14
Y2-S2-289M18,4,354,AS,exp,36,→,right,→,0.9023382999002934,True,19,1,0,14
Y2-S2-289M18,4,355,AS,exp,48,↓,down,↓,0.6057631997391582,True,19,1,0,14
Y2-S2-289M18,4,356,AS,exp,46,↑,up,↑,0.7078053997829556,True,18,1,0,14
Y2-S2-289M18,4,357,AS,exp,45,↓,down,↓,0.8976877997629344,True,18,1,0,14
Y2-S2-289M18,4,358,AS,exp,49,↑,no_key,no_letter,-1.0,False,18,-1,1,15
Y2-S2-289M18,4,359,AS,exp,36,←,up,↑,0.9697557003237307,False,19,-1,0,15
Y2-S2-289M18,4,360,AS,exp,26,→,left,←,0.569855900015682,False,20,-1,0,15
Y2-S2-289M18,4,361,AS,exp,34,↑,up,↑,0.5629606996662915,True,21,-1,0,15
Y2-S2-289M18,4,362,AS,exp,34,←,left,←,0.5341900000348687,True,21,-1,0,15
Y2-S2-289M18,4,363,AS,exp,35,↑,up,↑,0.4841231000609696,True,21,1,1,16
Y2-S2-289M18,5,364,AS,intra_train,45,←,left,←,1.2053434001281857,True,30,-,-,-
Y2-S2-289M18,5,365,AS,intra_train,41,↑,up,↑,0.7884610001929104,True,30,-,-,-
Y2-S2-289M18,5,366,AS,intra_train,32,↓,down,↓,0.5341076999902725,True,30,-,-,-
Y2-S2-289M18,5,367,AS,intra_train,47,←,left,←,0.9416405996307731,True,30,-,-,-
Y2-S2-289M18,5,368,AS,intra_train,50,↓,down,↓,0.6171577996574342,True,30,-,-,-
Y2-S2-289M18,5,369,AS,exp,31,→,right,→,0.8178473999723792,True,20,0,0,0
Y2-S2-289M18,5,370,AS,exp,35,↓,down,↓,0.8389937998726964,True,20,0,0,0
Y2-S2-289M18,5,371,AS,exp,47,↑,up,↑,0.5389772998169065,True,20,1,0,0
Y2-S2-289M18,5,372,AS,exp,27,←,left,←,0.5254035000689328,True,19,1,0,0
Y2-S2-289M18,5,373,AS,exp,45,↑,up,↑,0.5618464001454413,True,19,1,0,0
Y2-S2-289M18,5,374,AS,exp,38,←,left,←,0.8785771001130342,True,19,1,0,0
Y2-S2-289M18,5,375,AS,exp,26,→,right,→,0.5131639000028372,True,18,1,0,0
Y2-S2-289M18,5,376,AS,exp,47,↓,down,↓,1.1205162000842392,True,18,1,0,0
Y2-S2-289M18,5,377,AS,exp,40,↑,up,↑,0.5966143999248743,True,18,1,0,0
Y2-S2-289M18,5,378,AS,exp,42,↓,down,↓,0.5831666998565197,True,17,1,0,0
Y2-S2-289M18,5,379,AS,exp,38,↑,right,→,1.7609710996039212,False,17,-1,1,1
Y2-S2-289M18,5,380,AS,exp,29,←,left,←,0.5705422000028193,True,18,-1,0,1
Y2-S2-289M18,5,381,AS,exp,48,↓,down,↓,0.5580370002426207,True,18,-1,0,1
Y2-S2-289M18,5,382,AS,exp,28,↑,up,↑,1.1745024998672307,True,18,1,1,2
Y2-S2-289M18,5,383,AS,exp,32,→,right,→,0.5068642003461719,True,17,1,0,2
Y2-S2-289M18,5,384,AS,exp,36,↓,down,↓,0.9868963998742402,True,17,1,0,2
Y2-S2-289M18,5,385,AS,exp,29,↑,up,↑,0.8643287997692823,True,17,1,0,2
Y2-S2-289M18,5,386,AS,exp,50,←,right,→,1.5131370997987688,False,16,-1,1,3
Y2-S2-289M18,5,387,AS,exp,44,↑,up,↑,0.5578327998518944,True,17,-1,0,3
Y2-S2-289M18,5,388,AS,exp,36,↓,up,↑,0.7980017000809312,False,17,-1,0,3
Y2-S2-289M18,5,389,AS,exp,32,←,right,→,0.658211600035429,False,18,-1,0,3
Y2-S2-289M18,5,390,AS,exp,25,↑,up,↑,0.6126978998072445,True,19,-1,0,3
Y2-S2-289M18,5,391,AS,exp,29,←,up,↑,0.9376198998652399,False,19,-1,0,3
Y2-S2-289M18,5,392,AS,exp,27,→,right,→,0.7802593000233173,True,20,-1,0,3
Y2-S2-289M18,5,393,AS,exp,37,↑,up,↑,0.45090229995548725,True,20,-1,0,3
Y2-S2-289M18,5,394,AS,exp,34,←,left,←,0.4672415000386536,True,20,1,1,4
Y2-S2-289M18,5,395,AS,exp,44,↓,down,↓,0.40061890007928014,True,19,1,0,4
Y2-S2-289M18,5,396,AS,exp,32,←,left,←,0.5388913997448981,True,19,1,0,4
Y2-S2-289M18,5,397,AS,exp,43,↓,right,→,0.5852334001101553,False,19,-1,1,5
Y2-S2-289M18,5,398,AS,exp,43,→,right,→,1.2913655997253954,True,20,-1,0,5
Y2-S2-289M18,5,399,AS,exp,40,←,left,←,1.2144460999406874,True,20,-1,0,5
Y2-S2-289M18,5,400,AS,exp,46,↓,down,↓,0.564400200266391,True,20,1,1,6
Y2-S2-289M18,5,401,AS,exp,49,→,right,→,0.7902008998207748,True,19,1,0,6
Y2-S2-289M18,5,402,AS,exp,37,←,left,←,0.4970602001994848,True,19,1,0,6
Y2-S2-289M18,5,403,AS,exp,28,↑,up,↑,0.5261344998143613,True,19,1,0,6
Y2-S2-289M18,5,404,AS,exp,49,←,left,←,0.5068609998561442,True,18,1,0,6
Y2-S2-289M18,5,405,AS,exp,48,↑,up,↑,0.5502523998729885,True,18,1,0,6
Y2-S2-289M18,5,406,AS,exp,35,←,right,→,1.0482003996148705,False,18,-1,1,7
Y2-S2-289M18,5,407,AS,exp,50,↑,no_key,no_letter,-1.0,False,19,-1,0,7
Y2-S2-289M18,5,408,AS,exp,38,↓,left,←,1.1082411999814212,False,20,-1,0,7
Y2-S2-289M18,5,409,AS,exp,33,↑,up,↑,0.7339653000235558,True,21,-1,0,7
Y2-S2-289M18,5,410,AS,exp,46,→,right,→,0.7702005999162793,True,21,-1,0,7
Y2-S2-289M18,5,411,AS,exp,32,←,left,←,0.6401090999133885,True,21,1,1,8
Y2-S2-289M18,5,412,AS,exp,32,↑,up,↑,0.7411053003743291,True,20,1,0,8
Y2-S2-289M18,5,413,AS,exp,48,←,left,←,0.5603165999054909,True,20,1,0,8
Y2-S2-289M18,5,414,AS,exp,32,↑,up,↑,0.6388340000994503,True,20,1,0,8
Y2-S2-289M18,5,415,AS,exp,25,→,right,→,0.6205761004239321,True,19,1,0,8
Y2-S2-289M18,5,416,AS,exp,34,←,left,←,0.5735915997065604,True,19,1,0,8
Y2-S2-289M18,5,417,AS,exp,50,↑,up,↑,0.49658049969002604,True,19,1,0,8
Y2-S2-289M18,5,418,AS,exp,31,↓,up,↑,0.9580959002487361,False,18,-1,1,9
Y2-S2-289M18,5,419,AS,exp,34,←,left,←,0.5591720999218524,True,19,-1,0,9
Y2-S2-289M18,5,420,AS,exp,30,↑,up,↑,1.3197135999798775,True,19,-1,0,9
Y2-S2-289M18,5,421,AS,exp,46,↓,down,↓,0.7828819002024829,True,19,1,1,10
Y2-S2-289M18,5,422,AS,exp,45,←,left,←,0.6056778999045491,True,18,1,0,10
Y2-S2-289M18,5,423,AS,exp,40,↓,down,↓,0.7028051000088453,True,18,1,0,10
Y2-S2-289M18,5,424,AS,exp,29,↑,right,→,1.2115064999088645,False,18,-1,1,11
Y2-S2-289M18,5,425,AS,exp,33,←,right,→,0.843943300191313,False,19,-1,0,11
Y2-S2-289M18,5,426,AS,exp,27,↑,up,↑,0.7869156002998352,True,20,-1,0,11
Y2-S2-289M18,5,427,AS,exp,25,→,right,→,0.7299616998061538,True,20,-1,0,11
Y2-S2-289M18,5,428,AS,exp,38,←,left,←,0.6300865998491645,True,20,1,1,12
Y2-S2-289M18,5,429,AS,exp,46,↓,right,→,1.1015294999815524,False,19,-1,1,13
Y2-S2-289M18,5,430,AS,exp,42,→,left,←,0.9627588000148535,False,20,-1,0,13
Y2-S2-289M18,5,431,AS,exp,35,←,right,→,1.1340842000208795,False,21,-1,0,13
Y2-S2-289M18,5,432,AS,exp,35,→,right,→,0.8536671996116638,True,22,-1,0,13
Y2-S2-289M18,5,433,AS,exp,26,←,left,←,0.5650578001514077,True,22,-1,0,13
Y2-S2-289M18,5,434,AS,exp,26,↓,down,↓,0.6451559998095036,True,22,1,1,14
Y2-S2-289M18,5,435,AS,exp,27,←,left,←,0.8766900999471545,True,21,1,0,14
Y2-S2-289M18,5,436,AS,exp,26,↓,down,↓,1.6417569001205266,True,21,1,0,14
Y2-S2-289M18,5,437,AS,exp,47,→,right,→,0.80098249996081,True,21,1,0,14
Y2-S2-289M18,5,438,AS,exp,26,↑,up,↑,0.7739845002070069,True,20,1,0,14
Y2-S2-289M18,5,439,AS,exp,34,→,down,↓,0.5820470000617206,False,20,-1,1,15
Y2-S2-289M18,5,440,AS,exp,33,↓,right,→,1.0221985997632146,False,21,-1,0,15
Y2-S2-289M18,5,441,AS,exp,29,←,right,→,1.2312723998911679,False,22,-1,0,15
Y2-S2-289M18,5,442,AS,exp,39,↓,down,↓,0.6634295997209847,True,23,-1,0,15
Y2-S2-289M18,5,443,AS,exp,25,↑,up,↑,1.2407025997526944,True,23,-1,0,15
Y2-S2-289M18,5,444,AS,exp,48,→,right,→,0.5007835999131203,True,23,1,1,16
Y2-S2-289M18,6,445,PS,intra_train,35,↑,right,→,1.1737716002389789,False,28,-,-,-
Y2-S2-289M18,6,446,PS,intra_train,49,←,left,←,0.6004498000256717,True,28,-,-,-
Y2-S2-289M18,6,447,PS,intra_train,45,↑,up,↑,0.46718910010531545,True,28,-,-,-
Y2-S2-289M18,6,448,PS,intra_train,37,←,left,←,0.8431365001015365,True,28,-,-,-
Y2-S2-289M18,6,449,PS,intra_train,26,→,right,→,0.4672205997630954,True,28,-,-,-
Y2-S2-289M18,6,450,PS,exp,29,←,left,←,1.3234777003526688,True,19,0,0,0
Y2-S2-289M18,6,451,PS,exp,25,↑,up,↑,0.6766321999020875,True,19,0,0,0
Y2-S2-289M18,6,452,PS,exp,40,←,right,→,0.6430414002388716,False,19,-1,0,0
Y2-S2-289M18,6,453,PS,exp,31,↑,up,↑,0.5370636996813118,True,20,-1,0,0
Y2-S2-289M18,6,454,PS,exp,47,↓,down,↓,0.5801725001074374,True,20,-1,0,0
Y2-S2-289M18,6,455,PS,exp,47,→,up,↑,1.10106740007177,False,20,-1,0,0
Y2-S2-289M18,6,456,PS,exp,28,↓,left,←,1.0229110000655055,False,21,-1,0,0
Y2-S2-289M18,6,457,PS,exp,49,→,right,→,0.7274914998561144,True,22,-1,0,0
Y2-S2-289M18,6,458,PS,exp,25,↓,up,↑,0.8240980999544263,False,22,-1,0,0
Y2-S2-289M18,6,459,PS,exp,36,→,right,→,0.5821090000681579,True,23,-1,0,0
Y2-S2-289M18,6,460,PS,exp,44,↑,up,↑,1.055784699972719,True,23,-1,0,0
Y2-S2-289M18,6,461,PS,exp,34,↓,left,←,1.1018372997641563,False,23,-1,0,0
Y2-S2-289M18,6,462,PS,exp,36,←,left,←,0.5831619002856314,True,24,-1,0,0
Y2-S2-289M18,6,463,PS,exp,29,↑,up,↑,0.6212486000731587,True,24,-1,0,0
Y2-S2-289M18,6,464,PS,exp,31,↓,down,↓,1.0174047998152673,True,24,1,1,1
Y2-S2-289M18,6,465,PS,exp,45,↑,up,↑,0.6672502998262644,True,23,1,0,1
Y2-S2-289M18,6,466,PS,exp,25,↓,down,↓,0.7355687003582716,True,23,1,0,1
Y2-S2-289M18,6,467,PS,exp,45,↑,up,↑,0.4505284000188112,True,23,1,0,1
Y2-S2-289M18,6,468,PS,exp,26,→,no_key,no_letter,-1.0,False,22,-1,1,2
Y2-S2-289M18,6,469,PS,exp,25,↓,down,↓,0.8870630003511906,True,23,-1,0,2
Y2-S2-289M18,6,470,PS,exp,26,↑,up,↑,0.4672352001070976,True,23,-1,0,2
Y2-S2-289M18,6,471,PS,exp,29,↓,left,←,0.9263059003278613,False,23,-1,0,2
Y2-S2-289M18,6,472,PS,exp,41,→,right,→,0.5864589000120759,True,24,-1,0,2
Y2-S2-289M18,6,473,PS,exp,33,←,left,←,0.5901395003311336,True,24,-1,0,2
Y2-S2-289M18,6,474,PS,exp,42,↓,left,←,0.41791269974783063,False,24,-1,0,2
Y2-S2-289M18,6,475,PS,exp,47,↑,up,↑,0.5505590997636318,True,25,-1,0,2
Y2-S2-289M18,6,476,PS,exp,38,→,right,→,0.46746179973706603,True,25,-1,0,2
Y2-S2-289M18,6,477,PS,exp,35,↑,up,↑,1.3935507000423968,True,25,1,1,3
Y2-S2-289M18,6,478,PS,exp,48,↓,down,↓,0.7217250997200608,True,24,1,0,3
Y2-S2-289M18,6,479,PS,exp,49,←,left,←,0.7426625001244247,True,24,1,0,3
Y2-S2-289M18,6,480,PS,exp,40,→,right,→,0.8355742003768682,True,24,1,0,3
Y2-S2-289M18,6,481,PS,exp,39,↓,down,↓,0.7579940999858081,True,23,1,0,3
Y2-S2-289M18,6,482,PS,exp,39,→,left,←,0.36839119996875525,False,23,-1,1,4
Y2-S2-289M18,6,483,PS,exp,39,↓,down,↓,0.6669609001837671,True,24,-1,0,4
Y2-S2-289M18,6,484,PS,exp,47,→,right,→,0.6105160997249186,True,24,-1,0,4
Y2-S2-289M18,6,485,PS,exp,37,↑,no_key,no_letter,-1.0,False,24,-1,0,4
Y2-S2-289M18,6,486,PS,exp,50,↓,down,↓,0.828863300383091,True,25,-1,0,4
Y2-S2-289M18,6,487,PS,exp,25,↑,up,↑,0.664083399809897,True,25,-1,0,4
Y2-S2-289M18,6,488,PS,exp,27,→,right,→,0.46759080002084374,True,25,1,1,5
Y2-S2-289M18,6,489,PS,exp,30,↓,down,↓,0.6553804003633559,True,24,1,0,5
Y2-S2-289M18,6,490,PS,exp,45,←,left,←,0.6192600000649691,True,24,1,0,5
Y2-S2-289M18,6,491,PS,exp,49,↓,down,↓,0.699064000044018,True,24,1,0,5
Y2-S2-289M18,6,492,PS,exp,47,↑,up,↑,0.6227339999750257,True,23,1,0,5
Y2-S2-289M18,6,493,PS,exp,28,←,no_key,no_letter,-1.0,False,23,-1,1,6
Y2-S2-289M18,6,494,PS,exp,30,↑,up,↑,0.9603638998232782,True,24,-1,0,6
Y2-S2-289M18,6,495,PS,exp,40,→,right,→,0.9659694000147283,True,24,-1,0,6
Y2-S2-289M18,6,496,PS,exp,45,←,left,←,0.500586099922657,True,24,1,1,7
Y2-S2-289M18,6,497,PS,exp,47,→,right,→,0.7966215000487864,True,23,1,0,7
Y2-S2-289M18,6,498,PS,exp,27,←,left,←,0.6131933997385204,True,23,1,0,7
Y2-S2-289M18,6,499,PS,exp,32,↓,down,↓,0.5646208003163338,True,23,1,0,7
Y2-S2-289M18,6,500,PS,exp,48,→,right,→,0.6987717002630234,True,22,1,0,7
Y2-S2-289M18,6,501,PS,exp,25,↓,down,↓,0.6412905002944171,True,22,1,0,7
Y2-S2-289M18,6,502,PS,exp,35,→,right,→,0.8075998001731932,True,22,1,0,7
Y2-S2-289M18,6,503,PS,exp,44,←,right,→,0.5571665000170469,False,21,-1,1,8
Y2-S2-289M18,6,504,PS,exp,45,↓,down,↓,0.7326751998625696,True,22,-1,0,8
Y2-S2-289M18,6,505,PS,exp,47,↑,up,↑,1.4825342996045947,True,22,-1,0,8
Y2-S2-289M18,6,506,PS,exp,33,→,right,→,0.563831599894911,True,22,1,1,9
Y2-S2-289M18,6,507,PS,exp,39,↑,up,↑,1.629426899831742,True,21,1,0,9
Y2-S2-289M18,6,508,PS,exp,48,←,left,←,0.5635048002004623,True,21,1,0,9
Y2-S2-289M18,6,509,PS,exp,27,→,right,→,0.8989242003299296,True,21,1,0,9
Y2-S2-289M18,6,510,PS,exp,50,←,left,←,0.5941693000495434,True,20,1,0,9
Y2-S2-289M18,6,511,PS,exp,39,→,right,→,1.1392959002405405,True,20,1,0,9
Y2-S2-289M18,6,512,PS,exp,33,↑,up,↑,1.47102539986372,True,20,1,0,9
Y2-S2-289M18,6,513,PS,exp,29,↓,down,↓,0.6900769998319447,True,19,1,0,9
Y2-S2-289M18,6,514,PS,exp,26,←,left,←,0.9625693000853062,True,19,1,0,9
Y2-S2-289M18,6,515,PS,exp,39,↑,up,↑,1.0855585997924209,True,19,1,0,9
Y2-S2-289M18,6,516,PS,exp,45,→,right,→,0.5400934997014701,True,18,1,0,9
Y2-S2-289M18,6,517,PS,exp,33,↓,up,↑,1.1156516000628471,False,18,-1,1,10
Y2-S2-289M18,6,518,PS,exp,40,→,up,↑,0.7354564997367561,False,19,-1,0,10
Y2-S2-289M18,6,519,PS,exp,33,↑,up,↑,0.7695184997282922,True,20,-1,0,10
Y2-S2-289M18,6,520,PS,exp,35,←,left,←,0.7323328997008502,True,20,-1,0,10
Y2-S2-289M18,6,521,PS,exp,34,→,right,→,0.5514941001310945,True,20,1,1,11
Y2-S2-289M18,6,522,PS,exp,50,↓,down,↓,0.5653162999078631,True,19,1,0,11
Y2-S2-289M18,6,523,PS,exp,45,↑,left,←,0.9377259998582304,False,19,-1,1,12
Y2-S2-289M18,6,524,PS,exp,47,←,left,←,0.451494500041008,True,20,-1,0,12
Y2-S2-289M18,6,525,PS,exp,49,↑,up,↑,0.7230783998966217,True,20,-1,0,12
Y2-S2-289M18,6,526,PS,exp,36,↓,up,↑,0.8605711003765464,False,20,-1,0,12
Y2-S2-289M18,6,527,PS,exp,28,→,left,←,0.5652037998661399,False,21,-1,0,12
Y2-S2-289M18,6,528,PS,exp,33,←,left,←,0.5370897999964654,True,22,-1,0,12
Y2-S2-289M18,6,529,PS,exp,44,↑,up,↑,0.6007183999754488,True,22,-1,0,12
Y2-S2-289M18,6,530,PS,exp,38,→,up,↑,0.6628797999583185,False,22,-1,0,12
Y2-S2-289M18,6,531,PS,exp,45,↑,up,↑,1.3053220002911985,True,23,-1,0,12
Y2-S2-289M18,6,532,PS,exp,28,↓,up,↑,0.7585653997957706,False,23,-1,0,12
Y2-S2-289M18,6,533,PS,exp,50,←,left,←,0.612608399707824,True,24,-1,0,12
Y2-S2-289M18,6,534,PS,exp,32,→,right,→,0.6038767998106778,True,24,-1,0,12
Y2-S2-289M18,6,535,PS,exp,36,↓,up,↑,0.964168599806726,False,24,-1,0,12
Y2-S2-289M18,6,536,PS,exp,44,→,right,→,0.5506870998069644,True,25,-1,0,12
Y2-S2-289M18,6,537,PS,exp,49,↓,down,↓,0.7420164002105594,True,25,-1,0,12
Y2-S2-289M18,6,538,PS,exp,50,→,right,→,0.8277969001792371,True,25,1,1,13
Y2-S2-289M18,6,539,PS,exp,35,←,left,←,0.6550611001439393,True,24,1,0,13
Y2-S2-289M18,6,540,PS,exp,48,↑,up,↑,0.6757227000780404,True,24,1,0,13
Y2-S2-289M18,6,541,PS,exp,47,→,right,→,1.3434035000391304,True,24,1,0,13
Y2-S2-289M18,6,542,PS,exp,31,↑,left,←,0.43389370013028383,False,23,-1,1,14
Y2-S2-289M18,6,543,PS,exp,32,→,right,→,0.6986489002592862,True,24,-1,0,14
Y2-S2-289M18,6,544,PS,exp,47,←,right,→,1.060376700013876,False,24,-1,0,14
Y2-S2-289M18,6,545,PS,exp,43,↑,up,↑,0.5172282001003623,True,25,-1,0,14
Y2-S2-289M18,6,546,PS,exp,47,↓,down,↓,0.8115393999032676,True,25,-1,0,14
Y2-S2-289M18,6,547,PS,exp,39,↑,up,↑,0.7163741998374462,True,25,1,1,15
Y2-S2-289M18,6,548,PS,exp,44,←,left,←,0.6717687998898327,True,24,1,0,15
Y2-S2-289M18,6,549,PS,exp,45,↑,up,↑,0.6044510998763144,True,24,1,0,15
Y2-S2-289M18,6,550,PS,exp,45,→,right,→,0.45068580005317926,True,24,1,0,15
Y2-S2-289M18,6,551,PS,exp,27,←,left,←,0.6382471998222172,True,23,1,0,15
Y2-S2-289M18,6,552,PS,exp,32,→,right,→,0.6895070001482964,True,23,1,0,15
Y2-S2-289M18,6,553,PS,exp,47,↑,up,↑,0.4507297002710402,True,23,1,0,15
Y2-S2-289M18,6,554,PS,exp,43,↓,down,↓,1.0007952000014484,True,22,1,0,15
Y2-S2-289M18,6,555,PS,exp,40,→,right,→,0.5009512999095023,True,22,1,0,15
Y2-S2-289M18,6,556,PS,exp,37,↑,right,→,1.0862271003425121,False,22,-1,1,16
Y2-S2-289M18,7,557,PS,intra_train,32,←,left,←,0.6005795998498797,True,28,-,-,-
Y2-S2-289M18,7,558,PS,intra_train,50,↓,down,↓,0.7090634000487626,True,28,-,-,-
Y2-S2-289M18,7,559,PS,intra_train,49,→,right,→,0.6374193001538515,True,28,-,-,-
Y2-S2-289M18,7,560,PS,intra_train,29,↓,down,↓,0.9062378001399338,True,28,-,-,-
Y2-S2-289M18,7,561,PS,intra_train,46,↑,up,↑,0.5008768998086452,True,28,-,-,-
Y2-S2-289M18,7,562,PS,exp,36,←,left,←,0.5164353996515274,True,19,0,0,0
Y2-S2-289M18,7,563,PS,exp,45,→,right,→,0.5097166998311877,True,19,0,0,0
Y2-S2-289M18,7,564,PS,exp,36,←,left,←,0.6329826996661723,True,19,1,0,0
Y2-S2-289M18,7,565,PS,exp,29,↓,down,↓,0.5964730000123382,True,18,1,0,0
Y2-S2-289M18,7,566,PS,exp,32,→,right,→,0.5512381000444293,True,18,1,0,0
Y2-S2-289M18,7,567,PS,exp,34,←,left,←,0.5716721997596323,True,18,1,0,0
Y2-S2-289M18,7,568,PS,exp,37,→,right,→,0.5641972003504634,True,17,1,0,0
Y2-S2-289M18,7,569,PS,exp,43,↑,up,↑,0.5083937998861074,True,17,1,0,0
Y2-S2-289M18,7,570,PS,exp,49,→,right,→,0.47691209986805916,True,17,1,0,0
Y2-S2-289M18,7,571,PS,exp,25,↓,up,↑,0.7661329000256956,False,16,-1,1,1
Y2-S2-289M18,7,572,PS,exp,30,↑,up,↑,0.6648677997291088,True,17,-1,0,1
Y2-S2-289M18,7,573,PS,exp,34,→,left,←,0.7863876996561885,False,17,-1,0,1
Y2-S2-289M18,7,574,PS,exp,45,↑,up,↑,0.5440175998955965,True,18,-1,0,1
Y2-S2-289M18,7,575,PS,exp,35,←,right,→,0.40034579997882247,False,18,-1,0,1
Y2-S2-289M18,7,576,PS,exp,40,↓,up,↑,0.9088850002735853,False,19,-1,0,1
Y2-S2-289M18,7,577,PS,exp,48,←,right,→,0.6844015996903181,False,20,-1,0,1
Y2-S2-289M18,7,578,PS,exp,35,↑,up,↑,0.6745838997885585,True,21,-1,0,1
Y2-S2-289M18,7,579,PS,exp,38,→,right,→,0.5756412004120648,True,21,-1,0,1
Y2-S2-289M18,7,580,PS,exp,43,↓,down,↓,0.9642061996273696,True,21,1,1,2
Y2-S2-289M18,7,581,PS,exp,47,↑,up,↑,0.5493474998511374,True,20,1,0,2
Y2-S2-289M18,7,582,PS,exp,25,→,up,↑,0.8123212000355124,False,20,-1,1,3
Y2-S2-289M18,7,583,PS,exp,47,↓,down,↓,0.527596399653703,True,21,-1,0,3
Y2-S2-289M18,7,584,PS,exp,33,↑,up,↑,0.7599622998386621,True,21,-1,0,3
Y2-S2-289M18,7,585,PS,exp,50,↓,down,↓,0.7267015003599226,True,21,1,1,4
Y2-S2-289M18,7,586,PS,exp,28,→,right,→,0.6080893999896944,True,20,1,0,4
Y2-S2-289M18,7,587,PS,exp,42,↑,up,↑,0.6393141001462936,True,20,1,0,4
Y2-S2-289M18,7,588,PS,exp,39,↓,down,↓,0.6264736000448465,True,20,1,0,4
Y2-S2-289M18,7,589,PS,exp,26,↑,up,↑,0.8174119000323117,True,19,1,0,4
Y2-S2-289M18,7,590,PS,exp,38,↓,up,↑,1.0167343001812696,False,19,-1,1,5
Y2-S2-289M18,7,591,PS,exp,28,→,right,→,0.7167730000801384,True,20,-1,0,5
Y2-S2-289M18,7,592,PS,exp,44,←,left,←,0.9865306001156569,True,20,-1,0,5
Y2-S2-289M18,7,593,PS,exp,32,→,right,→,0.46693559968844056,True,20,1,1,6
Y2-S2-289M18,7,594,PS,exp,50,↑,up,↑,1.2019952000118792,True,19,1,0,6
Y2-S2-289M18,7,595,PS,exp,48,←,left,←,0.4965053997002542,True,19,1,0,6
Y2-S2-289M18,7,596,PS,exp,45,→,right,→,1.267375299707055,True,19,1,0,6
Y2-S2-289M18,7,597,PS,exp,37,←,right,→,1.0927242999896407,False,18,-1,1,7
Y2-S2-289M18,7,598,PS,exp,36,→,right,→,0.8398269000463188,True,19,-1,0,7
Y2-S2-289M18,7,599,PS,exp,50,←,left,←,0.5264923004433513,True,19,-1,0,7
Y2-S2-289M18,7,600,PS,exp,30,↑,up,↑,0.5048676999285817,True,19,1,1,8
Y2-S2-289M18,7,601,PS,exp,38,←,left,←,0.38380319997668266,True,18,1,0,8
Y2-S2-289M18,7,602,PS,exp,40,↓,left,←,0.4790525999851525,False,18,-1,1,9
Y2-S2-289M18,7,603,PS,exp,33,←,left,←,1.2846776996739209,True,19,-1,0,9
Y2-S2-289M18,7,604,PS,exp,34,↑,up,↑,0.5468243998475373,True,19,-1,0,9
Y2-S2-289M18,7,605,PS,exp,36,→,right,→,0.8859798000194132,True,19,1,1,10
Y2-S2-289M18,7,606,PS,exp,40,↑,up,↑,0.43377049965783954,True,18,1,0,10
Y2-S2-289M18,7,607,PS,exp,28,↓,down,↓,0.656666699796915,True,18,1,0,10
Y2-S2-289M18,7,608,PS,exp,45,←,left,←,0.5800300999544561,True,18,1,0,10
Y2-S2-289M18,7,609,PS,exp,43,↑,up,↑,0.7629244001582265,True,17,1,0,10
Y2-S2-289M18,7,610,PS,exp,46,↓,down,↓,0.5658713998273015,True,17,1,0,10
Y2-S2-289M18,7,611,PS,exp,48,→,right,→,0.5797979002818465,True,17,1,0,10
Y2-S2-289M18,7,612,PS,exp,43,←,left,←,0.45432210015133023,True,16,1,0,10
Y2-S2-289M18,7,613,PS,exp,36,↑,up,↑,0.5365549996495247,True,16,1,0,10
Y2-S2-289M18,7,614,PS,exp,44,→,right,→,0.5445921998471022,True,16,1,0,10
Y2-S2-289M18,7,615,PS,exp,48,←,down,↓,0.9246684997342527,False,15,-1,1,11
Y2-S2-289M18,7,616,PS,exp,35,↓,down,↓,0.5833720997907221,True,16,-1,0,11
Y2-S2-289M18,7,617,PS,exp,47,←,left,←,0.6057742000557482,True,16,-1,0,11
Y2-S2-289M18,7,618,PS,exp,25,↑,up,↑,0.7245265003293753,True,16,1,1,12
Y2-S2-289M18,7,619,PS,exp,44,←,left,←,0.5336242998018861,True,15,1,0,12
Y2-S2-289M18,7,620,PS,exp,46,→,right,→,0.7471746997907758,True,15,1,0,12
Y2-S2-289M18,7,621,PS,exp,43,←,left,←,0.7073301002383232,True,15,1,0,12
Y2-S2-289M18,7,622,PS,exp,27,↑,up,↑,0.8481462001800537,True,14,1,0,12
Y2-S2-289M18,7,623,PS,exp,31,→,right,→,0.5345636000856757,True,14,1,0,12
Y2-S2-289M18,7,624,PS,exp,35,←,left,←,0.6140339998528361,True,14,1,0,12
Y2-S2-289M18,7,625,PS,exp,32,↓,up,↑,0.8849017000757158,False,13,-1,1,13
Y2-S2-289M18,7,626,PS,exp,38,→,right,→,0.5589012997224927,True,14,-1,0,13
Y2-S2-289M18,7,627,PS,exp,29,←,left,←,0.6451967000029981,True,14,-1,0,13
Y2-S2-289M18,7,628,PS,exp,47,→,down,↓,0.7671234998852015,False,14,-1,0,13
Y2-S2-289M18,7,629,PS,exp,37,←,right,→,0.547632799949497,False,15,-1,0,13
Y2-S2-289M18,7,630,PS,exp,34,→,right,→,0.54142289981246,True,16,-1,0,13
Y2-S2-289M18,7,631,PS,exp,29,↑,up,↑,0.4862138000316918,True,16,-1,0,13
Y2-S2-289M18,7,632,PS,exp,44,→,right,→,0.47189259994775057,True,16,1,1,14
Y2-S2-289M18,7,633,PS,exp,46,←,left,←,0.6846714001148939,True,15,1,0,14
Y2-S2-289M18,7,634,PS,exp,48,↑,up,↑,1.349942300003022,True,15,1,0,14
Y2-S2-289M18,7,635,PS,exp,47,↓,up,↑,0.7213046001270413,False,15,-1,1,15
Y2-S2-289M18,7,636,PS,exp,33,→,right,→,0.6708690002560616,True,16,-1,0,15
Y2-S2-289M18,7,637,PS,exp,36,↓,down,↓,0.7258647000417113,True,16,-1,0,15
Y2-S2-289M18,7,638,PS,exp,37,↑,up,↑,0.6317720003426075,True,16,1,1,16
Y2-S2-289M18,8,639,AS,intra_train,28,↓,down,↓,1.088622100185603,True,30,-,-,-
Y2-S2-289M18,8,640,AS,intra_train,38,←,left,←,0.7829622998833656,True,30,-,-,-
Y2-S2-289M18,8,641,AS,intra_train,27,→,right,→,0.7332235998474061,True,30,-,-,-
Y2-S2-289M18,8,642,AS,intra_train,28,↑,up,↑,0.901501199696213,True,30,-,-,-
Y2-S2-289M18,8,643,AS,intra_train,30,←,left,←,0.7851360999047756,True,30,-,-,-
Y2-S2-289M18,8,644,AS,exp,46,↑,up,↑,0.5226843999698758,True,20,0,0,0
Y2-S2-289M18,8,645,AS,exp,31,←,up,↑,1.1936829998157918,False,20,-1,0,0
Y2-S2-289M18,8,646,AS,exp,44,→,right,→,0.6083824997767806,True,21,-1,0,0
Y2-S2-289M18,8,647,AS,exp,47,←,up,↑,1.0745091997087002,False,21,-1,0,0
Y2-S2-289M18,8,648,AS,exp,45,↑,up,↑,0.570342100225389,True,22,-1,0,0
Y2-S2-289M18,8,649,AS,exp,27,←,left,←,0.7869154000654817,True,22,-1,0,0
Y2-S2-289M18,8,650,AS,exp,38,→,right,→,0.6404516003094614,True,22,1,1,1
Y2-S2-289M18,8,651,AS,exp,35,↑,up,↑,0.6975997001864016,True,21,1,0,1
Y2-S2-289M18,8,652,AS,exp,34,→,right,→,0.5862993998453021,True,21,1,0,1
Y2-S2-289M18,8,653,AS,exp,27,↓,down,↓,0.8387378002516925,True,21,1,0,1
Y2-S2-289M18,8,654,AS,exp,40,←,left,←,0.6580297998152673,True,20,1,0,1
Y2-S2-289M18,8,655,AS,exp,35,→,right,→,0.467503999825567,True,20,1,0,1
Y2-S2-289M18,8,656,AS,exp,42,↓,down,↓,0.6925746998749673,True,20,1,0,1
Y2-S2-289M18,8,657,AS,exp,34,←,up,↑,1.2036709999665618,False,19,-1,1,2
Y2-S2-289M18,8,658,AS,exp,27,↑,down,↓,1.037205500062555,False,20,-1,0,2
Y2-S2-289M18,8,659,AS,exp,35,↓,down,↓,0.5199692002497613,True,21,-1,0,2
Y2-S2-289M18,8,660,AS,exp,38,↑,up,↑,0.7783126002177596,True,21,-1,0,2
Y2-S2-289M18,8,661,AS,exp,47,→,right,→,0.5482216998934746,True,21,1,1,3
Y2-S2-289M18,8,662,AS,exp,47,←,up,↑,0.863399799913168,False,20,-1,1,4
Y2-S2-289M18,8,663,AS,exp,25,→,right,→,0.5521196997724473,True,21,-1,0,4
Y2-S2-289M18,8,664,AS,exp,38,↑,up,↑,0.7007158002816141,True,21,-1,0,4
Y2-S2-289M18,8,665,AS,exp,43,→,right,→,0.9478243999183178,True,21,1,1,5
Y2-S2-289M18,8,666,AS,exp,44,←,left,←,0.6060505001805723,True,20,1,0,5
Y2-S2-289M18,8,667,AS,exp,41,→,right,→,0.6062117000110447,True,20,1,0,5
Y2-S2-289M18,8,668,AS,exp,25,↓,down,↓,0.6502042999491096,True,20,1,0,5
Y2-S2-289M18,8,669,AS,exp,43,↑,up,↑,0.5798268998041749,True,19,1,0,5
Y2-S2-289M18,8,670,AS,exp,33,←,left,←,0.6254560998640954,True,19,1,0,5
Y2-S2-289M18,8,671,AS,exp,30,↑,up,↑,0.8671591999009252,True,19,1,0,5
Y2-S2-289M18,8,672,AS,exp,33,←,left,←,0.6054914998821914,True,18,1,0,5
Y2-S2-289M18,8,673,AS,exp,26,↓,up,↑,1.145380100235343,False,18,-1,1,6
Y2-S2-289M18,8,674,AS,exp,36,←,down,↓,0.59039940033108,False,19,-1,0,6
Y2-S2-289M18,8,675,AS,exp,31,→,right,→,0.5318217999301851,True,20,-1,0,6
Y2-S2-289M18,8,676,AS,exp,48,↑,up,↑,0.9876647000201046,True,20,-1,0,6
Y2-S2-289M18,8,677,AS,exp,25,↓,up,↑,0.9312637001276016,False,20,-1,0,6
Y2-S2-289M18,8,678,AS,exp,43,←,left,←,0.7280393997207284,True,21,-1,0,6
Y2-S2-289M18,8,679,AS,exp,36,↑,up,↑,1.3488042000681162,True,21,-1,0,6
Y2-S2-289M18,8,680,AS,exp,44,→,right,→,0.5284734996967018,True,21,1,1,7
Y2-S2-289M18,8,681,AS,exp,45,↑,up,↑,0.5074463998898864,True,20,1,0,7
Y2-S2-289M18,8,682,AS,exp,34,→,right,→,1.2847792003303766,True,20,1,0,7
Y2-S2-289M18,8,683,AS,exp,29,↑,up,↑,1.1315295998938382,True,20,1,0,7
Y2-S2-289M18,8,684,AS,exp,46,↓,down,↓,0.7787238997407258,True,19,1,0,7
Y2-S2-289M18,8,685,AS,exp,38,←,left,←,0.6116095995530486,True,19,1,0,7
Y2-S2-289M18,8,686,AS,exp,29,→,right,→,1.0743792001158,True,19,1,0,7
Y2-S2-289M18,8,687,AS,exp,30,↑,up,↑,0.8318250998854637,True,18,1,0,7
Y2-S2-289M18,8,688,AS,exp,33,←,left,←,0.5819861995987594,True,18,1,0,7
Y2-S2-289M18,8,689,AS,exp,38,↑,up,↑,0.48029670026153326,True,18,1,0,7
Y2-S2-289M18,8,690,AS,exp,47,→,right,→,0.9417175003327429,True,17,1,0,7
Y2-S2-289M18,8,691,AS,exp,31,↑,up,↑,0.7859812001697719,True,17,1,0,7
Y2-S2-289M18,8,692,AS,exp,49,→,right,→,0.4980792999267578,True,17,1,0,7
Y2-S2-289M18,8,693,AS,exp,34,←,left,←,0.740336500108242,True,16,1,0,7
Y2-S2-289M18,8,694,AS,exp,30,→,up,↑,0.721087200101465,False,16,-1,1,8
Y2-S2-289M18,8,695,AS,exp,36,←,right,→,0.7230851999484003,False,17,-1,0,8
Y2-S2-289M18,8,696,AS,exp,38,→,up,↑,0.6837391001172364,False,18,-1,0,8
Y2-S2-289M18,8,697,AS,exp,33,←,left,←,0.7706665000878274,True,19,-1,0,8
Y2-S2-289M18,8,698,AS,exp,32,↑,up,↑,0.4337991001084447,True,19,-1,0,8
Y2-S2-289M18,8,699,AS,exp,35,↓,down,↓,0.7622056999243796,True,19,1,1,9
Y2-S2-289M18,8,700,AS,exp,34,→,right,→,0.7494981000199914,True,18,1,0,9
Y2-S2-289M18,8,701,AS,exp,39,↑,up,↑,0.72230160003528,True,18,1,0,9
Y2-S2-289M18,8,702,AS,exp,28,→,up,↑,1.1428825999610126,False,18,-1,1,10
Y2-S2-289M18,8,703,AS,exp,39,↓,down,↓,0.6937343999743462,True,19,-1,0,10
Y2-S2-289M18,8,704,AS,exp,39,←,down,↓,1.2435989999212325,False,19,-1,0,10
Y2-S2-289M18,8,705,AS,exp,27,→,right,→,1.26510989991948,True,20,-1,0,10
Y2-S2-289M18,8,706,AS,exp,32,↓,right,→,1.0157093000598252,False,20,-1,0,10
Y2-S2-289M18,8,707,AS,exp,38,↑,up,↑,0.48377890000119805,True,21,-1,0,10
Y2-S2-289M18,8,708,AS,exp,38,←,left,←,0.5705089000985026,True,21,-1,0,10
Y2-S2-289M18,8,709,AS,exp,29,↓,down,↓,0.9851358002051711,True,21,1,1,11
Y2-S2-289M18,8,710,AS,exp,34,↑,up,↑,1.0373608996160328,True,20,1,0,11
Y2-S2-289M18,8,711,AS,exp,50,→,up,↑,0.18432660028338432,False,20,-1,1,12
Y2-S2-289M18,8,712,AS,exp,34,↓,up,↑,0.7226826003752649,False,21,-1,0,12
Y2-S2-289M18,8,713,AS,exp,50,→,right,→,0.450649400241673,True,22,-1,0,12
Y2-S2-289M18,8,714,AS,exp,49,↓,down,↓,1.3475059997290373,True,22,-1,0,12
Y2-S2-289M18,8,715,AS,exp,38,→,right,→,0.8297737999819219,True,22,1,1,13
Y2-S2-289M18,8,716,AS,exp,34,↓,right,→,1.291668700054288,False,21,-1,1,14
Y2-S2-289M18,8,717,AS,exp,31,→,right,→,1.7100828001275659,True,22,-1,0,14
Y2-S2-289M18,8,718,AS,exp,34,↑,up,↑,1.1579820001497865,True,22,-1,0,14
Y2-S2-289M18,8,719,AS,exp,35,→,right,→,0.5545017998665571,True,22,1,1,15
Y2-S2-289M18,8,720,AS,exp,25,↓,down,↓,0.8669600002467632,True,21,1,0,15
Y2-S2-289M18,8,721,AS,exp,47,←,left,←,0.5526558998972178,True,21,1,0,15
Y2-S2-289M18,8,722,AS,exp,38,↑,up,↑,0.5766543000936508,True,21,1,0,15
Y2-S2-289M18,8,723,AS,exp,45,↓,down,↓,0.6415291000157595,True,20,1,0,15
Y2-S2-289M18,8,724,AS,exp,32,←,left,←,0.9901891998015344,True,20,1,0,15
Y2-S2-289M18,8,725,AS,exp,31,→,right,→,0.7435917002148926,True,20,1,0,15
Y2-S2-289M18,8,726,AS,exp,29,↑,up,↑,0.4511640998534858,True,19,1,0,15
Y2-S2-289M18,8,727,AS,exp,27,←,left,←,0.5273374998942018,True,19,1,0,15
Y2-S2-289M18,8,728,AS,exp,27,↑,up,↑,0.6064518000930548,True,19,1,0,15
Y2-S2-289M18,8,729,AS,exp,27,→,right,→,0.5707239001058042,True,18,1,0,15
Y2-S2-289M18,8,730,AS,exp,36,↓,up,↑,0.7716978997923434,False,18,-1,1,16
