PART_ID,Block_no,Trial_no,Block_type,Trial_type,CSI,Stim_letter,Key_pressed,letter_choose,Rt,Corr,Stimulus Time,Level,Reversal,Revs_count
Y2-S2-122K22,1,1,PS,train,46,↑,up,↑,0.7089969001244754,True,30,-,-,-
Y2-S2-122K22,1,2,PS,train,39,→,right,→,0.534354800125584,True,30,-,-,-
Y2-S2-122K22,1,3,PS,train,45,↑,up,↑,0.5838834999594837,True,30,-,-,-
Y2-S2-122K22,1,4,PS,train,28,←,left,←,0.8700921998824924,True,30,-,-,-
Y2-S2-122K22,1,5,PS,train,27,↑,up,↑,0.45098700001835823,True,30,-,-,-
Y2-S2-122K22,1,6,PS,train,26,↓,down,↓,0.9482593999709934,True,30,-,-,-
Y2-S2-122K22,1,7,PS,train,48,↑,up,↑,0.4836198999546468,True,30,-,-,-
Y2-S2-122K22,1,8,PS,train,36,←,left,←,0.4519589999690652,True,30,-,-,-
Y2-S2-122K22,1,9,PS,train,39,→,right,→,0.6007610000669956,True,30,-,-,-
Y2-S2-122K22,1,10,PS,train,31,↓,down,↓,0.8085372999776155,True,30,-,-,-
Y2-S2-122K22,2,11,AS,train,41,→,right,→,0.5180043000727892,True,45,-,-,-
Y2-S2-122K22,2,12,AS,train,34,↑,left,←,0.5011139998678118,False,45,-,-,-
Y2-S2-122K22,2,13,AS,train,45,→,right,→,1.496573399985209,True,45,-,-,-
Y2-S2-122K22,2,14,AS,train,26,←,left,←,0.46762949996627867,True,45,-,-,-
Y2-S2-122K22,2,15,AS,train,42,→,right,→,0.46763049997389317,True,45,-,-,-
Y2-S2-122K22,2,16,AS,train,31,←,left,←,0.5011527999304235,True,45,-,-,-
Y2-S2-122K22,2,17,AS,train,45,→,right,→,0.5841480998788029,True,45,-,-,-
Y2-S2-122K22,2,18,AS,train,30,↑,up,↑,0.6498757000081241,True,45,-,-,-
Y2-S2-122K22,2,19,AS,train,50,↓,down,↓,0.6181130998302251,True,45,-,-,-
Y2-S2-122K22,2,20,AS,train,50,→,right,→,0.41743879998102784,True,45,-,-,-
Y2-S2-122K22,-,21,PS,adaptive,35,←,left,←,0.43154389993287623,True,10,0,0,0
Y2-S2-122K22,-,22,PS,adaptive,31,↓,down,↓,0.6887271997984499,True,10,0,0,0
Y2-S2-122K22,-,23,PS,adaptive,39,←,right,→,0.7744622000027448,False,10,-1,0,0
Y2-S2-122K22,-,24,PS,adaptive,26,↓,down,↓,0.49695420009084046,True,11,-1,0,0
Y2-S2-122K22,-,25,PS,adaptive,31,↑,up,↑,0.7492488999851048,True,11,-1,0,0
Y2-S2-122K22,-,26,PS,adaptive,45,→,right,→,0.40683940006420016,True,11,1,1,1
Y2-S2-122K22,-,27,PS,adaptive,27,←,left,←,0.45141200022771955,True,10,1,0,1
Y2-S2-122K22,-,28,PS,adaptive,32,↑,up,↑,0.374436300015077,True,10,1,0,1
Y2-S2-122K22,-,29,PS,adaptive,31,←,left,←,0.7769591000396758,True,10,1,0,1
Y2-S2-122K22,-,30,PS,adaptive,37,→,right,→,0.4360422999598086,True,9,1,0,1
Y2-S2-122K22,-,31,PS,adaptive,43,←,left,←,0.3686958998441696,True,9,1,0,1
Y2-S2-122K22,-,32,PS,adaptive,31,↓,up,↑,0.6668018999043852,False,9,-1,1,2
Y2-S2-122K22,-,33,PS,adaptive,39,↑,up,↑,0.5848995998967439,True,10,-1,0,2
Y2-S2-122K22,-,34,PS,adaptive,42,↓,up,↑,0.591299399966374,False,10,-1,0,2
Y2-S2-122K22,-,35,PS,adaptive,35,←,left,←,0.6096232000272721,True,11,-1,0,2
Y2-S2-122K22,-,36,PS,adaptive,36,↓,down,↓,0.5386353000067174,True,11,-1,0,2
Y2-S2-122K22,-,37,PS,adaptive,45,←,left,←,0.4380425999406725,True,11,1,1,3
Y2-S2-122K22,-,38,PS,adaptive,25,→,right,→,0.46064119995571673,True,10,1,0,3
Y2-S2-122K22,-,39,PS,adaptive,42,←,left,←,0.608590800082311,True,10,1,0,3
Y2-S2-122K22,-,40,PS,adaptive,37,↓,down,↓,0.5800384001340717,True,10,1,0,3
Y2-S2-122K22,-,41,PS,adaptive,35,↑,up,↑,0.3969388999976218,True,9,1,0,3
Y2-S2-122K22,-,42,PS,adaptive,28,←,up,↑,0.623403999954462,False,9,-1,1,4
Y2-S2-122K22,-,43,AS,adaptive,42,↓,down,↓,0.7466748999431729,True,20,0,0,0
Y2-S2-122K22,-,44,AS,adaptive,45,←,left,←,0.5732348000165075,True,20,0,0,0
Y2-S2-122K22,-,45,AS,adaptive,46,↓,down,↓,0.6748071000911295,True,20,1,0,0
Y2-S2-122K22,-,46,AS,adaptive,44,→,right,→,0.5504046001005918,True,19,1,0,0
Y2-S2-122K22,-,47,AS,adaptive,39,↑,up,↑,0.5017369999550283,True,19,1,0,0
Y2-S2-122K22,-,48,AS,adaptive,44,←,left,←,0.6331658998969942,True,19,1,0,0
Y2-S2-122K22,-,49,AS,adaptive,44,→,right,→,0.4826792001258582,True,18,1,0,0
Y2-S2-122K22,-,50,AS,adaptive,36,↑,up,↑,0.7143129000905901,True,18,1,0,0
Y2-S2-122K22,-,51,AS,adaptive,46,←,left,←,0.46910850005224347,True,18,1,0,0
Y2-S2-122K22,-,52,AS,adaptive,49,→,right,→,0.45857859984971583,True,17,1,0,0
Y2-S2-122K22,-,53,AS,adaptive,34,←,left,←,0.4926296998746693,True,17,1,0,0
Y2-S2-122K22,-,54,AS,adaptive,40,↑,up,↑,0.5321635000873357,True,17,1,0,0
Y2-S2-122K22,-,55,AS,adaptive,27,←,left,←,0.6359749000985175,True,16,1,0,0
Y2-S2-122K22,-,56,AS,adaptive,31,↑,up,↑,0.5229756999760866,True,16,1,0,0
Y2-S2-122K22,-,57,AS,adaptive,42,←,left,←,1.2308860998600721,True,16,1,0,0
Y2-S2-122K22,-,58,AS,adaptive,41,↓,down,↓,0.6750074999872595,True,15,1,0,0
Y2-S2-122K22,-,59,AS,adaptive,29,→,right,→,0.4768170998431742,True,15,1,0,0
Y2-S2-122K22,-,60,AS,adaptive,27,↓,down,↓,0.6558504998683929,True,15,1,0,0
Y2-S2-122K22,-,61,AS,adaptive,27,↑,up,↑,0.4597300000023097,True,14,1,0,0
Y2-S2-122K22,-,62,AS,adaptive,26,↓,up,↑,0.7140174999367446,False,14,-1,1,1
Y2-S2-122K22,-,63,AS,adaptive,49,→,right,→,0.517222800059244,True,15,-1,0,1
Y2-S2-122K22,-,64,AS,adaptive,39,↓,up,↑,0.8566191999707371,False,15,-1,0,1
Y2-S2-122K22,-,65,AS,adaptive,48,↑,up,↑,0.6430933999363333,True,16,-1,0,1
Y2-S2-122K22,-,66,AS,adaptive,50,↓,down,↓,0.6403189999982715,True,16,-1,0,1
Y2-S2-122K22,-,67,AS,adaptive,50,←,left,←,0.9742548000067472,True,16,1,1,2
Y2-S2-122K22,-,68,AS,adaptive,37,→,right,→,0.5247799998614937,True,15,1,0,2
Y2-S2-122K22,-,69,AS,adaptive,35,↓,down,↓,0.8169293999671936,True,15,1,0,2
Y2-S2-122K22,-,70,AS,adaptive,37,→,right,→,0.46932510007172823,True,15,1,0,2
Y2-S2-122K22,-,71,AS,adaptive,38,←,left,←,0.6487115998752415,True,14,1,0,2
Y2-S2-122K22,-,72,AS,adaptive,29,↑,up,↑,0.41866130009293556,True,14,1,0,2
Y2-S2-122K22,-,73,AS,adaptive,39,→,right,→,0.536418299889192,True,14,1,0,2
Y2-S2-122K22,-,74,AS,adaptive,30,↑,down,↓,0.9699785998091102,False,13,-1,1,3
Y2-S2-122K22,-,75,AS,adaptive,42,→,right,→,0.5072580999694765,True,14,-1,0,3
Y2-S2-122K22,-,76,AS,adaptive,39,↑,up,↑,0.4716558998916298,True,14,-1,0,3
Y2-S2-122K22,-,77,AS,adaptive,44,↓,down,↓,0.5422749000135809,True,14,1,1,4
Y2-S2-122K22,1,78,AS,intra_train,25,↑,up,↑,0.6078495001420379,True,19,-,-,-
Y2-S2-122K22,1,79,AS,intra_train,26,←,left,←,0.5457894999999553,True,19,-,-,-
Y2-S2-122K22,1,80,AS,intra_train,45,→,right,→,0.4506852999329567,True,19,-,-,-
Y2-S2-122K22,1,81,AS,intra_train,30,↓,down,↓,0.6896497001871467,True,19,-,-,-
Y2-S2-122K22,1,82,AS,intra_train,28,→,left,←,0.5093185000587255,False,19,-,-,-
Y2-S2-122K22,1,83,AS,exp,44,←,left,←,0.527577499859035,True,13,0,0,0
Y2-S2-122K22,1,84,AS,exp,46,↓,up,↑,0.8396820998750627,False,13,-1,0,0
Y2-S2-122K22,1,85,AS,exp,25,→,right,→,0.49693910009227693,True,14,-1,0,0
Y2-S2-122K22,1,86,AS,exp,38,↓,left,←,0.4939617000054568,False,14,-1,0,0
Y2-S2-122K22,1,87,AS,exp,27,↑,right,→,0.5997960998211056,False,15,-1,0,0
Y2-S2-122K22,1,88,AS,exp,40,→,no_key,no_letter,-1.0,False,16,-1,0,0
Y2-S2-122K22,1,89,AS,exp,49,↑,up,↑,0.6670942998025566,True,17,-1,0,0
Y2-S2-122K22,1,90,AS,exp,30,↓,down,↓,0.6094269999302924,True,17,-1,0,0
Y2-S2-122K22,1,91,AS,exp,27,↑,up,↑,0.5001725999172777,True,17,1,1,1
Y2-S2-122K22,1,92,AS,exp,35,→,left,←,0.48319320008158684,False,16,-1,1,2
Y2-S2-122K22,1,93,AS,exp,38,←,left,←,0.6109285999555141,True,17,-1,0,2
Y2-S2-122K22,1,94,AS,exp,39,↓,down,↓,0.8566592999268323,True,17,-1,0,2
Y2-S2-122K22,1,95,AS,exp,43,↑,up,↑,0.41724540013819933,True,17,1,1,3
Y2-S2-122K22,1,96,AS,exp,45,→,right,→,0.5445008999668062,True,16,1,0,3
Y2-S2-122K22,1,97,AS,exp,28,↑,up,↑,0.45042659994214773,True,16,1,0,3
Y2-S2-122K22,1,98,AS,exp,41,←,left,←,0.45622340007685125,True,16,1,0,3
Y2-S2-122K22,1,99,AS,exp,28,↑,up,↑,0.4469927998725325,True,15,1,0,3
Y2-S2-122K22,1,100,AS,exp,31,↓,down,↓,0.6020280998200178,True,15,1,0,3
Y2-S2-122K22,1,101,AS,exp,38,↑,up,↑,0.5568125999998301,True,15,1,0,3
Y2-S2-122K22,1,102,AS,exp,48,→,right,→,0.4062898000702262,True,14,1,0,3
Y2-S2-122K22,1,103,AS,exp,41,←,left,←,1.3607119999360293,True,14,1,0,3
Y2-S2-122K22,1,104,AS,exp,36,↓,down,↓,0.5055931000970304,True,14,1,0,3
Y2-S2-122K22,1,105,AS,exp,39,↑,up,↑,1.2898857002146542,True,13,1,0,3
Y2-S2-122K22,1,106,AS,exp,50,→,left,←,0.5551072999369353,False,13,-1,1,4
Y2-S2-122K22,1,107,AS,exp,27,↑,up,↑,0.8025352000258863,True,14,-1,0,4
Y2-S2-122K22,1,108,AS,exp,27,↓,down,↓,0.5636322000063956,True,14,-1,0,4
Y2-S2-122K22,1,109,AS,exp,38,↑,up,↑,0.615425799973309,True,14,1,1,5
Y2-S2-122K22,1,110,AS,exp,28,←,right,→,0.7979406998492777,False,13,-1,1,6
Y2-S2-122K22,1,111,AS,exp,41,↓,up,↑,0.7345012000296265,False,14,-1,0,6
Y2-S2-122K22,1,112,AS,exp,40,→,right,→,0.5204739000182599,True,15,-1,0,6
Y2-S2-122K22,1,113,AS,exp,36,↓,down,↓,0.6828304999507964,True,15,-1,0,6
Y2-S2-122K22,1,114,AS,exp,26,→,right,→,0.7266617999412119,True,15,1,1,7
Y2-S2-122K22,1,115,AS,exp,33,↑,up,↑,0.44329140009358525,True,14,1,0,7
Y2-S2-122K22,1,116,AS,exp,46,←,left,←,0.7239773999899626,True,14,1,0,7
Y2-S2-122K22,1,117,AS,exp,39,↑,up,↑,0.5698977999854833,True,14,1,0,7
Y2-S2-122K22,1,118,AS,exp,41,→,down,↓,0.5613395997788757,False,13,-1,1,8
Y2-S2-122K22,1,119,AS,exp,37,↑,up,↑,0.6227255999110639,True,14,-1,0,8
Y2-S2-122K22,1,120,AS,exp,45,←,left,←,1.028090599924326,True,14,-1,0,8
Y2-S2-122K22,1,121,AS,exp,26,↑,up,↑,0.5674835999961942,True,14,1,1,9
Y2-S2-122K22,1,122,AS,exp,38,→,left,←,0.6435157000087202,False,13,-1,1,10
Y2-S2-122K22,1,123,AS,exp,37,↓,right,→,0.5203563999384642,False,14,-1,0,10
Y2-S2-122K22,1,124,AS,exp,49,→,right,→,0.5055231000296772,True,15,-1,0,10
Y2-S2-122K22,1,125,AS,exp,30,↓,down,↓,0.6387346999254078,True,15,-1,0,10
Y2-S2-122K22,1,126,AS,exp,32,→,right,→,0.6264040998648852,True,15,1,1,11
Y2-S2-122K22,1,127,AS,exp,25,←,left,←,0.4413908999413252,True,14,1,0,11
Y2-S2-122K22,1,128,AS,exp,27,→,right,→,0.5374616000335664,True,14,1,0,11
Y2-S2-122K22,1,129,AS,exp,28,↓,down,↓,0.5635480000637472,True,14,1,0,11
Y2-S2-122K22,1,130,AS,exp,29,→,right,→,0.6203445999417454,True,13,1,0,11
Y2-S2-122K22,1,131,AS,exp,29,↑,up,↑,0.47299370006658137,True,13,1,0,11
Y2-S2-122K22,1,132,AS,exp,38,↓,down,↓,0.47548729996196926,True,13,1,0,11
Y2-S2-122K22,1,133,AS,exp,48,→,right,→,0.6570989000611007,True,12,1,0,11
Y2-S2-122K22,1,134,AS,exp,35,↑,up,↑,0.5989379999227822,True,12,1,0,11
Y2-S2-122K22,1,135,AS,exp,38,→,down,↓,0.6696343999356031,False,12,-1,1,12
Y2-S2-122K22,1,136,AS,exp,35,↑,right,→,0.8493927998933941,False,13,-1,0,12
Y2-S2-122K22,1,137,AS,exp,49,←,right,→,0.9537461001891643,False,14,-1,0,12
Y2-S2-122K22,1,138,AS,exp,45,↓,down,↓,0.6579627001192421,True,15,-1,0,12
Y2-S2-122K22,1,139,AS,exp,49,↑,left,←,0.9879408001434058,False,15,-1,0,12
Y2-S2-122K22,1,140,AS,exp,33,→,down,↓,0.7299198000691831,False,16,-1,0,12
Y2-S2-122K22,1,141,AS,exp,42,↓,down,↓,0.8452785999979824,True,17,-1,0,12
Y2-S2-122K22,1,142,AS,exp,48,↑,left,←,0.742405700031668,False,17,-1,0,12
Y2-S2-122K22,1,143,AS,exp,40,→,right,→,0.5362895999569446,True,18,-1,0,12
Y2-S2-122K22,1,144,AS,exp,40,←,left,←,0.6140368001069874,True,18,-1,0,12
Y2-S2-122K22,1,145,AS,exp,31,→,right,→,0.577306300168857,True,18,1,1,13
Y2-S2-122K22,1,146,AS,exp,35,↑,up,↑,0.5467957998625934,True,17,1,0,13
Y2-S2-122K22,1,147,AS,exp,43,↓,up,↑,0.771893700119108,False,17,-1,1,14
Y2-S2-122K22,1,148,AS,exp,46,→,right,→,0.4694954000879079,True,18,-1,0,14
Y2-S2-122K22,1,149,AS,exp,38,↑,up,↑,0.47919600014574826,True,18,-1,0,14
Y2-S2-122K22,1,150,AS,exp,48,↓,down,↓,0.5950236001517624,True,18,1,1,15
Y2-S2-122K22,1,151,AS,exp,30,→,left,←,0.4743166998960078,False,17,-1,1,16
Y2-S2-122K22,2,152,PS,intra_train,25,↓,down,↓,0.5939778001047671,True,15,-,-,-
Y2-S2-122K22,2,153,PS,intra_train,31,↑,up,↑,0.5900845001451671,True,15,-,-,-
Y2-S2-122K22,2,154,PS,intra_train,43,→,right,→,0.5073791998438537,True,15,-,-,-
Y2-S2-122K22,2,155,PS,intra_train,30,↓,down,↓,0.6888255998492241,True,15,-,-,-
Y2-S2-122K22,2,156,PS,intra_train,38,↑,up,↑,0.4466516999527812,True,15,-,-,-
Y2-S2-122K22,2,157,PS,exp,44,↓,up,↑,0.5326243999879807,False,10,-1,0,0
Y2-S2-122K22,2,158,PS,exp,46,→,right,→,0.5813531999010593,True,11,-1,0,0
Y2-S2-122K22,2,159,PS,exp,42,↓,down,↓,0.5807316000573337,True,11,-1,0,0
Y2-S2-122K22,2,160,PS,exp,36,←,left,←,0.5665007000789046,True,11,1,1,1
Y2-S2-122K22,2,161,PS,exp,29,↑,left,←,0.8996754998806864,False,10,-1,1,2
Y2-S2-122K22,2,162,PS,exp,33,←,left,←,0.46053289994597435,True,11,-1,0,2
Y2-S2-122K22,2,163,PS,exp,40,↓,down,↓,0.5722632000688463,True,11,-1,0,2
Y2-S2-122K22,2,164,PS,exp,27,←,left,←,0.547082900069654,True,11,1,1,3
Y2-S2-122K22,2,165,PS,exp,47,↑,up,↑,0.8471351999323815,True,10,1,0,3
Y2-S2-122K22,2,166,PS,exp,42,→,left,←,0.6405501000117511,False,10,-1,1,4
Y2-S2-122K22,2,167,PS,exp,35,↑,right,→,0.9236328999977559,False,11,-1,0,4
Y2-S2-122K22,2,168,PS,exp,46,→,right,→,0.7644817000254989,True,12,-1,0,4
Y2-S2-122K22,2,169,PS,exp,43,↓,left,←,0.8699751000385731,False,12,-1,0,4
Y2-S2-122K22,2,170,PS,exp,28,←,left,←,0.5336191998794675,True,13,-1,0,4
Y2-S2-122K22,2,171,PS,exp,35,↓,down,↓,0.6092453999444842,True,13,-1,0,4
Y2-S2-122K22,2,172,PS,exp,27,←,left,←,0.6252912001218647,True,13,1,1,5
Y2-S2-122K22,2,173,PS,exp,33,→,right,→,0.44023159984499216,True,12,1,0,5
Y2-S2-122K22,2,174,PS,exp,41,↑,up,↑,0.43396060005761683,True,12,1,0,5
Y2-S2-122K22,2,175,PS,exp,30,←,left,←,0.48130239988677204,True,12,1,0,5
Y2-S2-122K22,2,176,PS,exp,40,↓,left,←,0.7831841001752764,False,11,-1,1,6
Y2-S2-122K22,2,177,PS,exp,26,←,left,←,0.45492349984124303,True,12,-1,0,6
Y2-S2-122K22,2,178,PS,exp,43,↑,right,→,0.8412093999795616,False,12,-1,0,6
Y2-S2-122K22,2,179,PS,exp,42,↓,down,↓,0.6597248001489788,True,13,-1,0,6
Y2-S2-122K22,2,180,PS,exp,38,←,left,←,0.5386986001394689,True,13,-1,0,6
Y2-S2-122K22,2,181,PS,exp,46,→,right,→,0.4477475001476705,True,13,1,1,7
Y2-S2-122K22,2,182,PS,exp,28,↓,down,↓,1.083470999961719,True,12,1,0,7
Y2-S2-122K22,2,183,PS,exp,26,↑,left,←,0.6422172000166029,False,12,-1,1,8
Y2-S2-122K22,2,184,PS,exp,29,←,up,↑,0.9042491000145674,False,13,-1,0,8
Y2-S2-122K22,2,185,PS,exp,45,↑,up,↑,0.5292114000767469,True,14,-1,0,8
Y2-S2-122K22,2,186,PS,exp,36,←,left,←,1.0211157000157982,True,14,-1,0,8
Y2-S2-122K22,2,187,PS,exp,50,→,right,→,0.4859127001836896,True,14,1,1,9
Y2-S2-122K22,2,188,PS,exp,43,←,left,←,0.5369518999941647,True,13,1,0,9
Y2-S2-122K22,2,189,PS,exp,29,↓,down,↓,0.6574700998608023,True,13,1,0,9
Y2-S2-122K22,2,190,PS,exp,43,↑,up,↑,0.4190521000418812,True,13,1,0,9
Y2-S2-122K22,2,191,PS,exp,30,→,right,→,0.4700494999997318,True,12,1,0,9
Y2-S2-122K22,2,192,PS,exp,27,←,left,←,0.5184304001741111,True,12,1,0,9
Y2-S2-122K22,2,193,PS,exp,49,→,right,→,0.4986532998736948,True,12,1,0,9
Y2-S2-122K22,2,194,PS,exp,36,←,right,→,0.9531627998221666,False,11,-1,1,10
Y2-S2-122K22,2,195,PS,exp,33,↓,down,↓,0.6327767998445779,True,12,-1,0,10
Y2-S2-122K22,2,196,PS,exp,26,↑,up,↑,0.4087960000615567,True,12,-1,0,10
Y2-S2-122K22,2,197,PS,exp,26,→,right,→,0.7813637999352068,True,12,1,1,11
Y2-S2-122K22,2,198,PS,exp,47,↑,up,↑,0.6148120001889765,True,11,1,0,11
Y2-S2-122K22,2,199,PS,exp,40,←,right,→,0.6197702998761088,False,11,-1,1,12
Y2-S2-122K22,2,200,PS,exp,34,↓,down,↓,0.5413528999779373,True,12,-1,0,12
Y2-S2-122K22,2,201,PS,exp,39,←,left,←,0.4973263000138104,True,12,-1,0,12
Y2-S2-122K22,2,202,PS,exp,48,↑,up,↑,0.4125715000554919,True,12,1,1,13
Y2-S2-122K22,2,203,PS,exp,26,↓,down,↓,0.6289922001305968,True,11,1,0,13
Y2-S2-122K22,2,204,PS,exp,33,←,right,→,0.6304373999591917,False,11,-1,1,14
Y2-S2-122K22,2,205,PS,exp,30,→,right,→,0.436429199995473,True,12,-1,0,14
Y2-S2-122K22,2,206,PS,exp,25,↓,down,↓,0.6252809998113662,True,12,-1,0,14
Y2-S2-122K22,2,207,PS,exp,48,←,left,←,0.582084699999541,True,12,1,1,15
Y2-S2-122K22,2,208,PS,exp,45,↑,up,↑,0.41745320009067655,True,11,1,0,15
Y2-S2-122K22,2,209,PS,exp,32,←,right,→,0.6206492001656443,False,11,-1,1,16
Y2-S2-122K22,3,210,PS,intra_train,30,→,right,→,0.9375148999970406,True,15,-,-,-
Y2-S2-122K22,3,211,PS,intra_train,30,↑,up,↑,1.5248048000503331,True,15,-,-,-
Y2-S2-122K22,3,212,PS,intra_train,49,→,right,→,0.4779712001327425,True,15,-,-,-
Y2-S2-122K22,3,213,PS,intra_train,25,↓,up,↑,0.4603778999298811,False,15,-,-,-
Y2-S2-122K22,3,214,PS,intra_train,40,←,left,←,0.5242330001201481,True,15,-,-,-
Y2-S2-122K22,3,215,PS,exp,43,↑,up,↑,0.4127509999088943,True,10,0,0,0
Y2-S2-122K22,3,216,PS,exp,34,←,left,←,0.6049322998151183,True,10,0,0,0
Y2-S2-122K22,3,217,PS,exp,27,↓,down,↓,0.5072506000287831,True,10,1,0,0
Y2-S2-122K22,3,218,PS,exp,38,→,right,→,0.3999318000860512,True,9,1,0,0
Y2-S2-122K22,3,219,PS,exp,26,↓,down,↓,0.5052340000402182,True,9,1,0,0
Y2-S2-122K22,3,220,PS,exp,33,→,right,→,0.44892379990778863,True,9,1,0,0
Y2-S2-122K22,3,221,PS,exp,26,↓,down,↓,0.4836158000398427,True,8,1,0,0
Y2-S2-122K22,3,222,PS,exp,37,→,right,→,0.46348019992001355,True,8,1,0,0
Y2-S2-122K22,3,223,PS,exp,26,←,left,←,0.4999810999725014,True,8,1,0,0
Y2-S2-122K22,3,224,PS,exp,27,↓,down,↓,0.6087239000480622,True,7,1,0,0
Y2-S2-122K22,3,225,PS,exp,37,←,left,←,0.7031032000668347,True,7,1,0,0
Y2-S2-122K22,3,226,PS,exp,29,→,right,→,0.7861664998345077,True,7,1,0,0
Y2-S2-122K22,3,227,PS,exp,34,↑,up,↑,0.3757218001410365,True,6,1,0,0
Y2-S2-122K22,3,228,PS,exp,45,↓,down,↓,0.5185000000055879,True,6,1,0,0
Y2-S2-122K22,3,229,PS,exp,26,←,right,→,0.7933559999801219,False,6,-1,1,1
Y2-S2-122K22,3,230,PS,exp,47,↓,right,→,0.6634279999416322,False,7,-1,0,1
Y2-S2-122K22,3,231,PS,exp,28,↑,up,↑,0.4542272000107914,True,8,-1,0,1
Y2-S2-122K22,3,232,PS,exp,43,↓,left,←,0.6125761000439525,False,8,-1,0,1
Y2-S2-122K22,3,233,PS,exp,45,↑,up,↑,0.4268283999990672,True,9,-1,0,1
Y2-S2-122K22,3,234,PS,exp,29,→,right,→,0.9189379999879748,True,9,-1,0,1
Y2-S2-122K22,3,235,PS,exp,45,↑,right,→,0.843953900039196,False,9,-1,0,1
Y2-S2-122K22,3,236,PS,exp,27,↓,down,↓,0.5308739000465721,True,10,-1,0,1
Y2-S2-122K22,3,237,PS,exp,37,↑,up,↑,0.5357804999221116,True,10,-1,0,1
Y2-S2-122K22,3,238,PS,exp,50,←,left,←,0.43016409990377724,True,10,1,1,2
Y2-S2-122K22,3,239,PS,exp,30,↑,up,↑,0.4272662999574095,True,9,1,0,2
Y2-S2-122K22,3,240,PS,exp,41,↓,down,↓,0.5477301999926567,True,9,1,0,2
Y2-S2-122K22,3,241,PS,exp,45,→,down,↓,1.028110799845308,False,9,-1,1,3
Y2-S2-122K22,3,242,PS,exp,36,←,left,←,0.42708240007050335,True,10,-1,0,3
Y2-S2-122K22,3,243,PS,exp,31,↑,up,↑,0.46619389997795224,True,10,-1,0,3
Y2-S2-122K22,3,244,PS,exp,46,↓,down,↓,0.6268114000558853,True,10,1,1,4
Y2-S2-122K22,3,245,PS,exp,31,→,right,→,0.6294344000052661,True,9,1,0,4
Y2-S2-122K22,3,246,PS,exp,50,←,left,←,0.5043955999426544,True,9,1,0,4
Y2-S2-122K22,3,247,PS,exp,30,↑,left,←,0.372110600117594,False,9,-1,1,5
Y2-S2-122K22,3,248,PS,exp,48,↓,down,↓,0.5269522999878973,True,10,-1,0,5
Y2-S2-122K22,3,249,PS,exp,36,→,right,→,0.5693555001635104,True,10,-1,0,5
Y2-S2-122K22,3,250,PS,exp,47,↑,up,↑,0.43188930000178516,True,10,1,1,6
Y2-S2-122K22,3,251,PS,exp,45,←,left,←,0.5308552000205964,True,9,1,0,6
Y2-S2-122K22,3,252,PS,exp,32,↓,down,↓,0.5457117999903858,True,9,1,0,6
Y2-S2-122K22,3,253,PS,exp,47,↑,up,↑,0.5232316001784056,True,9,1,0,6
Y2-S2-122K22,3,254,PS,exp,48,→,right,→,0.4281164000276476,True,8,1,0,6
Y2-S2-122K22,3,255,PS,exp,33,↑,up,↑,0.4629482999444008,True,8,1,0,6
Y2-S2-122K22,3,256,PS,exp,43,→,right,→,0.4102614000439644,True,8,1,0,6
Y2-S2-122K22,3,257,PS,exp,49,↓,left,←,0.9464920999016613,False,7,-1,1,7
Y2-S2-122K22,3,258,PS,exp,42,←,left,←,0.6562083999160677,True,8,-1,0,7
Y2-S2-122K22,3,259,PS,exp,48,→,right,→,0.48092089989222586,True,8,-1,0,7
Y2-S2-122K22,3,260,PS,exp,25,↑,up,↑,0.5196475000120699,True,8,1,1,8
Y2-S2-122K22,3,261,PS,exp,33,←,left,←,0.5762034000363201,True,7,1,0,8
Y2-S2-122K22,3,262,PS,exp,34,→,right,→,0.43098950013518333,True,7,1,0,8
Y2-S2-122K22,3,263,PS,exp,25,←,right,→,0.80478630005382,False,7,-1,1,9
Y2-S2-122K22,3,264,PS,exp,25,→,right,→,0.6322727000806481,True,8,-1,0,9
Y2-S2-122K22,3,265,PS,exp,43,↑,right,→,0.7083686001133174,False,8,-1,0,9
Y2-S2-122K22,3,266,PS,exp,40,→,right,→,0.7547710000071675,True,9,-1,0,9
Y2-S2-122K22,3,267,PS,exp,49,↓,down,↓,0.6354511000681669,True,9,-1,0,9
Y2-S2-122K22,3,268,PS,exp,32,→,right,→,0.7349234998691827,True,9,1,1,10
Y2-S2-122K22,3,269,PS,exp,27,↓,up,↑,0.6149091999977827,False,8,-1,1,11
Y2-S2-122K22,3,270,PS,exp,49,↑,left,←,0.6056872000917792,False,9,-1,0,11
Y2-S2-122K22,3,271,PS,exp,34,←,left,←,0.4814699001144618,True,10,-1,0,11
Y2-S2-122K22,3,272,PS,exp,41,↑,up,↑,0.8409206001088023,True,10,-1,0,11
Y2-S2-122K22,3,273,PS,exp,40,→,right,→,0.6380982999689877,True,10,1,1,12
Y2-S2-122K22,3,274,PS,exp,26,↑,left,←,0.674058899981901,False,9,-1,1,13
Y2-S2-122K22,3,275,PS,exp,48,→,right,→,0.44116759998723865,True,10,-1,0,13
Y2-S2-122K22,3,276,PS,exp,34,↓,down,↓,0.6245214999653399,True,10,-1,0,13
Y2-S2-122K22,3,277,PS,exp,38,→,right,→,0.7855276998598129,True,10,1,1,14
Y2-S2-122K22,3,278,PS,exp,30,↓,down,↓,0.6682470999658108,True,9,1,0,14
Y2-S2-122K22,3,279,PS,exp,39,→,right,→,0.42434289981611073,True,9,1,0,14
Y2-S2-122K22,3,280,PS,exp,36,↑,up,↑,0.4616955001838505,True,9,1,0,14
Y2-S2-122K22,3,281,PS,exp,38,→,right,→,0.5737245997879654,True,8,1,0,14
Y2-S2-122K22,3,282,PS,exp,25,↓,down,↓,0.5725672000553459,True,8,1,0,14
Y2-S2-122K22,3,283,PS,exp,31,↑,up,↑,0.43801529984921217,True,8,1,0,14
Y2-S2-122K22,3,284,PS,exp,42,↓,right,→,0.5487889999058098,False,7,-1,1,15
Y2-S2-122K22,3,285,PS,exp,45,→,right,→,0.6148843998089433,True,8,-1,0,15
Y2-S2-122K22,3,286,PS,exp,47,↓,down,↓,0.5819463001098484,True,8,-1,0,15
Y2-S2-122K22,3,287,PS,exp,26,←,left,←,0.552695200080052,True,8,1,1,16
Y2-S2-122K22,4,288,AS,intra_train,34,↑,up,↑,0.7337235999293625,True,19,-,-,-
Y2-S2-122K22,4,289,AS,intra_train,39,←,left,←,0.6805585999973118,True,19,-,-,-
Y2-S2-122K22,4,290,AS,intra_train,47,↑,up,↑,0.7831194999162108,True,19,-,-,-
Y2-S2-122K22,4,291,AS,intra_train,48,↓,down,↓,1.0530872999224812,True,19,-,-,-
Y2-S2-122K22,4,292,AS,intra_train,48,←,left,←,0.7970757000148296,True,19,-,-,-
Y2-S2-122K22,4,293,AS,exp,25,↑,down,↓,0.7797792998608202,False,13,-1,0,0
Y2-S2-122K22,4,294,AS,exp,45,→,right,→,0.638410700019449,True,14,-1,0,0
Y2-S2-122K22,4,295,AS,exp,28,←,left,←,0.5045469000469893,True,14,-1,0,0
Y2-S2-122K22,4,296,AS,exp,25,↓,left,←,0.5133352000266314,False,14,-1,0,0
Y2-S2-122K22,4,297,AS,exp,39,↑,right,→,0.42581050004810095,False,15,-1,0,0
Y2-S2-122K22,4,298,AS,exp,28,→,right,→,0.6190223000012338,True,16,-1,0,0
Y2-S2-122K22,4,299,AS,exp,36,↑,up,↑,0.4006226002238691,True,16,-1,0,0
Y2-S2-122K22,4,300,AS,exp,29,→,right,→,0.5038612999487668,True,16,1,1,1
Y2-S2-122K22,4,301,AS,exp,38,↑,down,↓,0.7395472000353038,False,15,-1,1,2
Y2-S2-122K22,4,302,AS,exp,45,→,right,→,0.4917462000157684,True,16,-1,0,2
Y2-S2-122K22,4,303,AS,exp,32,↓,down,↓,0.6579193000216037,True,16,-1,0,2
Y2-S2-122K22,4,304,AS,exp,28,↑,up,↑,0.7798280999995768,True,16,1,1,3
Y2-S2-122K22,4,305,AS,exp,40,←,left,←,1.0284387001302093,True,15,1,0,3
Y2-S2-122K22,4,306,AS,exp,48,→,right,→,0.5071684999857098,True,15,1,0,3
Y2-S2-122K22,4,307,AS,exp,40,←,left,←,0.4892877000384033,True,15,1,0,3
Y2-S2-122K22,4,308,AS,exp,37,↑,up,↑,0.41868859995156527,True,14,1,0,3
Y2-S2-122K22,4,309,AS,exp,42,→,right,→,0.43429560004733503,True,14,1,0,3
Y2-S2-122K22,4,310,AS,exp,44,↑,down,↓,0.8605637999717146,False,14,-1,1,4
Y2-S2-122K22,4,311,AS,exp,50,→,right,→,0.46441989997401834,True,15,-1,0,4
Y2-S2-122K22,4,312,AS,exp,48,↓,down,↓,0.6283253999426961,True,15,-1,0,4
Y2-S2-122K22,4,313,AS,exp,41,↑,up,↑,0.5845957000274211,True,15,1,1,5
Y2-S2-122K22,4,314,AS,exp,26,←,left,←,0.3174625998362899,True,14,1,0,5
Y2-S2-122K22,4,315,AS,exp,37,↑,up,↑,0.594101799884811,True,14,1,0,5
Y2-S2-122K22,4,316,AS,exp,36,→,right,→,0.4618987001013011,True,14,1,0,5
Y2-S2-122K22,4,317,AS,exp,29,←,right,→,0.6677496000193059,False,13,-1,1,6
Y2-S2-122K22,4,318,AS,exp,29,↑,up,↑,0.4276044999714941,True,14,-1,0,6
Y2-S2-122K22,4,319,AS,exp,47,→,left,←,0.5850875999312848,False,14,-1,0,6
Y2-S2-122K22,4,320,AS,exp,45,←,left,←,1.2106294999830425,True,15,-1,0,6
Y2-S2-122K22,4,321,AS,exp,46,↑,up,↑,0.4582322998903692,True,15,-1,0,6
Y2-S2-122K22,4,322,AS,exp,25,↓,down,↓,0.5494160000234842,True,15,1,1,7
Y2-S2-122K22,4,323,AS,exp,49,←,right,→,0.6307928999885917,False,14,-1,1,8
Y2-S2-122K22,4,324,AS,exp,49,↑,up,↑,0.4460375001654029,True,15,-1,0,8
Y2-S2-122K22,4,325,AS,exp,31,←,left,←,0.5512503001373261,True,15,-1,0,8
Y2-S2-122K22,4,326,AS,exp,49,↓,up,↑,0.8313912998419255,False,15,-1,0,8
Y2-S2-122K22,4,327,AS,exp,34,↑,up,↑,0.49342920002527535,True,16,-1,0,8
Y2-S2-122K22,4,328,AS,exp,27,→,right,→,0.4933575999457389,True,16,-1,0,8
Y2-S2-122K22,4,329,AS,exp,34,←,left,←,0.36720229987986386,True,16,1,1,9
Y2-S2-122K22,4,330,AS,exp,35,↓,down,↓,0.633572000078857,True,15,1,0,9
Y2-S2-122K22,4,331,AS,exp,46,→,right,→,0.5545499001163989,True,15,1,0,9
Y2-S2-122K22,4,332,AS,exp,36,←,right,→,0.7356487000361085,False,15,-1,1,10
Y2-S2-122K22,4,333,AS,exp,46,↓,up,↑,0.7766587000805885,False,16,-1,0,10
Y2-S2-122K22,4,334,AS,exp,32,↑,right,→,0.6910669000353664,False,17,-1,0,10
Y2-S2-122K22,4,335,AS,exp,44,←,left,←,0.5140525999013335,True,18,-1,0,10
Y2-S2-122K22,4,336,AS,exp,29,↑,up,↑,1.0772398000117391,True,18,-1,0,10
Y2-S2-122K22,4,337,AS,exp,42,↓,down,↓,0.7729303000960499,True,18,1,1,11
Y2-S2-122K22,4,338,AS,exp,25,↑,down,↓,0.782538800034672,False,17,-1,1,12
Y2-S2-122K22,4,339,AS,exp,26,←,left,←,0.6319472999311984,True,18,-1,0,12
Y2-S2-122K22,4,340,AS,exp,45,→,right,→,0.4693167998921126,True,18,-1,0,12
Y2-S2-122K22,4,341,AS,exp,27,↓,right,→,0.8019228000193834,False,18,-1,0,12
Y2-S2-122K22,4,342,AS,exp,41,↑,up,↑,0.5238229997921735,True,19,-1,0,12
Y2-S2-122K22,4,343,AS,exp,42,←,left,←,1.075482599902898,True,19,-1,0,12
Y2-S2-122K22,4,344,AS,exp,37,↓,down,↓,0.5312232000287622,True,19,1,1,13
Y2-S2-122K22,4,345,AS,exp,42,↑,up,↑,0.5159801000263542,True,18,1,0,13
Y2-S2-122K22,4,346,AS,exp,42,←,left,←,0.6449802001006901,True,18,1,0,13
Y2-S2-122K22,4,347,AS,exp,30,↓,down,↓,0.7295913000125438,True,18,1,0,13
Y2-S2-122K22,4,348,AS,exp,39,↑,up,↑,0.48539799987338483,True,17,1,0,13
Y2-S2-122K22,4,349,AS,exp,46,→,right,→,0.5184353000950068,True,17,1,0,13
Y2-S2-122K22,4,350,AS,exp,49,↓,down,↓,0.742538700113073,True,17,1,0,13
Y2-S2-122K22,4,351,AS,exp,41,→,right,→,0.494258200051263,True,16,1,0,13
Y2-S2-122K22,4,352,AS,exp,48,↓,down,↓,0.5383464000187814,True,16,1,0,13
Y2-S2-122K22,4,353,AS,exp,30,→,right,→,0.7473042998462915,True,16,1,0,13
Y2-S2-122K22,4,354,AS,exp,48,↓,down,↓,0.5780507000163198,True,15,1,0,13
Y2-S2-122K22,4,355,AS,exp,43,←,right,→,0.8472745001781732,False,15,-1,1,14
Y2-S2-122K22,4,356,AS,exp,44,↓,down,↓,0.9002617001533508,True,16,-1,0,14
Y2-S2-122K22,4,357,AS,exp,45,→,up,↑,0.9519608998671174,False,16,-1,0,14
Y2-S2-122K22,4,358,AS,exp,28,↑,up,↑,0.509653199929744,True,17,-1,0,14
Y2-S2-122K22,4,359,AS,exp,28,↓,down,↓,0.6157261999323964,True,17,-1,0,14
Y2-S2-122K22,4,360,AS,exp,32,→,right,→,0.4768163999542594,True,17,1,1,15
Y2-S2-122K22,4,361,AS,exp,44,↓,down,↓,0.5362073997966945,True,16,1,0,15
Y2-S2-122K22,4,362,AS,exp,45,↑,left,←,0.8820557000581175,False,16,-1,1,16
Y2-S2-122K22,5,363,AS,intra_train,44,→,right,→,0.5103261999320239,True,19,-,-,-
Y2-S2-122K22,5,364,AS,intra_train,44,←,left,←,0.36771510005928576,True,19,-,-,-
Y2-S2-122K22,5,365,AS,intra_train,33,↑,up,↑,0.6524764997884631,True,19,-,-,-
Y2-S2-122K22,5,366,AS,intra_train,43,→,right,→,0.5737030000891536,True,19,-,-,-
Y2-S2-122K22,5,367,AS,intra_train,36,↓,down,↓,0.7083415000233799,True,19,-,-,-
Y2-S2-122K22,5,368,AS,exp,45,↑,up,↑,0.4303550999611616,True,13,0,0,0
Y2-S2-122K22,5,369,AS,exp,32,→,right,→,0.5806716999504715,True,13,0,0,0
Y2-S2-122K22,5,370,AS,exp,32,↑,right,→,1.010737600037828,False,13,-1,0,0
Y2-S2-122K22,5,371,AS,exp,31,↓,down,↓,0.7129241002257913,True,14,-1,0,0
Y2-S2-122K22,5,372,AS,exp,50,↑,up,↑,0.7241875999607146,True,14,-1,0,0
Y2-S2-122K22,5,373,AS,exp,33,↓,down,↓,0.5929876000154763,True,14,1,1,1
Y2-S2-122K22,5,374,AS,exp,48,←,right,→,0.7199318001512438,False,13,-1,1,2
Y2-S2-122K22,5,375,AS,exp,30,↑,up,↑,0.4937588998582214,True,14,-1,0,2
Y2-S2-122K22,5,376,AS,exp,40,↓,down,↓,0.6174268999602646,True,14,-1,0,2
Y2-S2-122K22,5,377,AS,exp,31,→,right,→,0.48108360008336604,True,14,1,1,3
Y2-S2-122K22,5,378,AS,exp,45,←,left,←,0.6714711000677198,True,13,1,0,3
Y2-S2-122K22,5,379,AS,exp,44,↓,down,↓,0.5539516999851912,True,13,1,0,3
Y2-S2-122K22,5,380,AS,exp,46,←,up,↑,0.6602929001674056,False,13,-1,1,4
Y2-S2-122K22,5,381,AS,exp,39,↑,up,↑,0.527714499970898,True,14,-1,0,4
Y2-S2-122K22,5,382,AS,exp,28,←,left,←,1.029411799972877,True,14,-1,0,4
Y2-S2-122K22,5,383,AS,exp,50,↑,left,←,0.6025995998643339,False,14,-1,0,4
Y2-S2-122K22,5,384,AS,exp,44,→,right,→,0.9803995999973267,True,15,-1,0,4
Y2-S2-122K22,5,385,AS,exp,48,↓,down,↓,0.5475971999112517,True,15,-1,0,4
Y2-S2-122K22,5,386,AS,exp,50,↑,left,←,0.4991405000910163,False,15,-1,0,4
Y2-S2-122K22,5,387,AS,exp,33,↓,down,↓,0.7055724000092596,True,16,-1,0,4
Y2-S2-122K22,5,388,AS,exp,26,↑,right,→,0.994068400003016,False,16,-1,0,4
Y2-S2-122K22,5,389,AS,exp,25,→,right,→,0.7841053998563439,True,17,-1,0,4
Y2-S2-122K22,5,390,AS,exp,46,↑,up,↑,0.592406699899584,True,17,-1,0,4
Y2-S2-122K22,5,391,AS,exp,42,←,right,→,0.591736099915579,False,17,-1,0,4
Y2-S2-122K22,5,392,AS,exp,25,↑,down,↓,0.7020075998734683,False,18,-1,0,4
Y2-S2-122K22,5,393,AS,exp,39,→,right,→,0.5449983000289649,True,19,-1,0,4
Y2-S2-122K22,5,394,AS,exp,48,↓,down,↓,0.48468200000934303,True,19,-1,0,4
Y2-S2-122K22,5,395,AS,exp,27,→,right,→,0.40053949994035065,True,19,1,1,5
Y2-S2-122K22,5,396,AS,exp,37,↑,up,↑,0.4009296998847276,True,18,1,0,5
Y2-S2-122K22,5,397,AS,exp,35,→,left,←,0.5143038998357952,False,18,-1,1,6
Y2-S2-122K22,5,398,AS,exp,33,←,left,←,0.6629023998975754,True,19,-1,0,6
Y2-S2-122K22,5,399,AS,exp,44,↓,down,↓,0.7155241998843849,True,19,-1,0,6
Y2-S2-122K22,5,400,AS,exp,49,←,left,←,0.7932696999050677,True,19,1,1,7
Y2-S2-122K22,5,401,AS,exp,44,→,right,→,0.6119250999763608,True,18,1,0,7
Y2-S2-122K22,5,402,AS,exp,38,↑,up,↑,0.6364931999705732,True,18,1,0,7
Y2-S2-122K22,5,403,AS,exp,29,↓,down,↓,0.7584949999582022,True,18,1,0,7
Y2-S2-122K22,5,404,AS,exp,43,→,right,→,0.7121929000131786,True,17,1,0,7
Y2-S2-122K22,5,405,AS,exp,28,↑,up,↑,1.4699704002123326,True,17,1,0,7
Y2-S2-122K22,5,406,AS,exp,42,←,left,←,0.6306053998414427,True,17,1,0,7
Y2-S2-122K22,5,407,AS,exp,34,↓,down,↓,0.6590235999319702,True,16,1,0,7
Y2-S2-122K22,5,408,AS,exp,29,↑,up,↑,1.0222238001879305,True,16,1,0,7
Y2-S2-122K22,5,409,AS,exp,34,←,left,←,0.709250400075689,True,16,1,0,7
Y2-S2-122K22,5,410,AS,exp,29,↓,down,↓,0.6040210998617113,True,15,1,0,7
Y2-S2-122K22,5,411,AS,exp,50,←,left,←,0.43033720017410815,True,15,1,0,7
Y2-S2-122K22,5,412,AS,exp,32,→,right,→,0.527468099957332,True,15,1,0,7
Y2-S2-122K22,5,413,AS,exp,33,↓,down,↓,0.54720010003075,True,14,1,0,7
Y2-S2-122K22,5,414,AS,exp,49,↑,up,↑,0.528664099983871,True,14,1,0,7
Y2-S2-122K22,5,415,AS,exp,48,←,right,→,0.6280034000519663,False,14,-1,1,8
Y2-S2-122K22,5,416,AS,exp,43,→,right,→,0.5580898998305202,True,15,-1,0,8
Y2-S2-122K22,5,417,AS,exp,29,↓,down,↓,0.7037516999989748,True,15,-1,0,8
Y2-S2-122K22,5,418,AS,exp,42,←,left,←,0.4783537001349032,True,15,1,1,9
Y2-S2-122K22,5,419,AS,exp,45,→,right,→,0.44561899988912046,True,14,1,0,9
Y2-S2-122K22,5,420,AS,exp,28,↓,left,←,0.5895342999137938,False,14,-1,1,10
Y2-S2-122K22,5,421,AS,exp,46,←,left,←,0.4286183000076562,True,15,-1,0,10
Y2-S2-122K22,5,422,AS,exp,48,↑,right,→,0.5185742999892682,False,15,-1,0,10
Y2-S2-122K22,5,423,AS,exp,48,↓,down,↓,0.653863999992609,True,16,-1,0,10
Y2-S2-122K22,5,424,AS,exp,28,←,left,←,0.6421858000103384,True,16,-1,0,10
Y2-S2-122K22,5,425,AS,exp,45,↑,up,↑,0.4514288001228124,True,16,1,1,11
Y2-S2-122K22,5,426,AS,exp,47,↓,down,↓,0.5739098000340164,True,15,1,0,11
Y2-S2-122K22,5,427,AS,exp,27,←,left,←,0.562077600043267,True,15,1,0,11
Y2-S2-122K22,5,428,AS,exp,27,↑,left,←,0.7413081999402493,False,15,-1,1,12
Y2-S2-122K22,5,429,AS,exp,45,↓,down,↓,0.612267900025472,True,16,-1,0,12
Y2-S2-122K22,5,430,AS,exp,28,↑,down,↓,0.8198865000158548,False,16,-1,0,12
Y2-S2-122K22,5,431,AS,exp,48,→,right,→,0.6120635999832302,True,17,-1,0,12
Y2-S2-122K22,5,432,AS,exp,30,↓,down,↓,0.6265485000330955,True,17,-1,0,12
Y2-S2-122K22,5,433,AS,exp,33,→,right,→,0.5045866000000387,True,17,1,1,13
Y2-S2-122K22,5,434,AS,exp,38,←,left,←,0.5161683999467641,True,16,1,0,13
Y2-S2-122K22,5,435,AS,exp,49,↑,up,↑,0.5905387999955565,True,16,1,0,13
Y2-S2-122K22,5,436,AS,exp,45,←,left,←,0.5815339998807758,True,16,1,0,13
Y2-S2-122K22,5,437,AS,exp,49,→,right,→,0.649669700069353,True,15,1,0,13
Y2-S2-122K22,5,438,AS,exp,50,←,left,←,0.5733317998237908,True,15,1,0,13
Y2-S2-122K22,5,439,AS,exp,49,→,right,→,0.49491799995303154,True,15,1,0,13
Y2-S2-122K22,5,440,AS,exp,39,↑,up,↑,0.5531371999531984,True,14,1,0,13
Y2-S2-122K22,5,441,AS,exp,25,↓,down,↓,0.6106355998199433,True,14,1,0,13
Y2-S2-122K22,5,442,AS,exp,43,→,right,→,0.4709465999621898,True,14,1,0,13
Y2-S2-122K22,5,443,AS,exp,49,←,right,→,0.7841537999920547,False,13,-1,1,14
Y2-S2-122K22,5,444,AS,exp,28,→,right,→,0.5532076999079436,True,14,-1,0,14
Y2-S2-122K22,5,445,AS,exp,32,↑,up,↑,0.5563225999940187,True,14,-1,0,14
Y2-S2-122K22,5,446,AS,exp,43,←,left,←,0.8715343999210745,True,14,1,1,15
Y2-S2-122K22,5,447,AS,exp,27,→,right,→,0.44191720010712743,True,13,1,0,15
Y2-S2-122K22,5,448,AS,exp,42,↑,down,↓,0.6598744001239538,False,13,-1,1,16
Y2-S2-122K22,6,449,PS,intra_train,47,↓,down,↓,0.6153489998541772,True,15,-,-,-
Y2-S2-122K22,6,450,PS,intra_train,49,↑,up,↑,0.46394409984350204,True,15,-,-,-
Y2-S2-122K22,6,451,PS,intra_train,32,↓,down,↓,0.5290951000060886,True,15,-,-,-
Y2-S2-122K22,6,452,PS,intra_train,34,→,right,→,0.43044030014425516,True,15,-,-,-
Y2-S2-122K22,6,453,PS,intra_train,31,↓,down,↓,0.5075103000272065,True,15,-,-,-
Y2-S2-122K22,6,454,PS,exp,49,→,right,→,0.4470518999733031,True,10,0,0,0
Y2-S2-122K22,6,455,PS,exp,38,↑,up,↑,0.4893002000171691,True,10,0,0,0
Y2-S2-122K22,6,456,PS,exp,45,↓,down,↓,0.5366500001400709,True,10,1,0,0
Y2-S2-122K22,6,457,PS,exp,30,↑,up,↑,0.39772060001268983,True,9,1,0,0
Y2-S2-122K22,6,458,PS,exp,45,←,down,↓,0.7427718001417816,False,9,-1,1,1
Y2-S2-122K22,6,459,PS,exp,43,↑,up,↑,0.3763981000520289,True,10,-1,0,1
Y2-S2-122K22,6,460,PS,exp,48,→,right,→,0.520377199864015,True,10,-1,0,1
Y2-S2-122K22,6,461,PS,exp,41,↑,up,↑,0.42311610002070665,True,10,1,1,2
Y2-S2-122K22,6,462,PS,exp,48,↓,down,↓,0.6106624000240117,True,9,1,0,2
Y2-S2-122K22,6,463,PS,exp,25,→,left,←,0.4520789999514818,False,9,-1,1,3
Y2-S2-122K22,6,464,PS,exp,25,←,left,←,0.5418132999911904,True,10,-1,0,3
Y2-S2-122K22,6,465,PS,exp,36,↓,down,↓,0.5456622999627143,True,10,-1,0,3
Y2-S2-122K22,6,466,PS,exp,47,↑,up,↑,0.42023869999684393,True,10,1,1,4
Y2-S2-122K22,6,467,PS,exp,31,←,right,→,0.6117040000390261,False,9,-1,1,5
Y2-S2-122K22,6,468,PS,exp,50,→,up,↑,0.5193829999770969,False,10,-1,0,5
Y2-S2-122K22,6,469,PS,exp,37,↑,up,↑,0.578179799951613,True,11,-1,0,5
Y2-S2-122K22,6,470,PS,exp,27,←,left,←,0.5174279999919236,True,11,-1,0,5
Y2-S2-122K22,6,471,PS,exp,42,↓,down,↓,0.6405159998685122,True,11,1,1,6
Y2-S2-122K22,6,472,PS,exp,33,→,right,→,0.4963094999548048,True,10,1,0,6
Y2-S2-122K22,6,473,PS,exp,43,↓,down,↓,0.6222550000529736,True,10,1,0,6
Y2-S2-122K22,6,474,PS,exp,37,←,left,←,0.479888099944219,True,10,1,0,6
Y2-S2-122K22,6,475,PS,exp,37,↑,up,↑,0.8359007998369634,True,9,1,0,6
Y2-S2-122K22,6,476,PS,exp,33,←,left,←,0.4662417999934405,True,9,1,0,6
Y2-S2-122K22,6,477,PS,exp,27,↑,down,↓,0.7669236999936402,False,9,-1,1,7
Y2-S2-122K22,6,478,PS,exp,50,→,right,→,0.5189030000474304,True,10,-1,0,7
Y2-S2-122K22,6,479,PS,exp,29,←,right,→,0.8917457000352442,False,10,-1,0,7
Y2-S2-122K22,6,480,PS,exp,37,→,right,→,0.449577699881047,True,11,-1,0,7
Y2-S2-122K22,6,481,PS,exp,40,↓,down,↓,0.587680600117892,True,11,-1,0,7
Y2-S2-122K22,6,482,PS,exp,44,→,right,→,0.5459322000388056,True,11,1,1,8
Y2-S2-122K22,6,483,PS,exp,26,↑,up,↑,0.4518679999746382,True,10,1,0,8
Y2-S2-122K22,6,484,PS,exp,33,↓,down,↓,0.7185525998938829,True,10,1,0,8
Y2-S2-122K22,6,485,PS,exp,47,→,right,→,0.453983899904415,True,10,1,0,8
Y2-S2-122K22,6,486,PS,exp,41,↓,down,↓,0.6644876999780536,True,9,1,0,8
Y2-S2-122K22,6,487,PS,exp,27,↑,up,↑,0.4691727999597788,True,9,1,0,8
Y2-S2-122K22,6,488,PS,exp,34,→,right,→,0.46775300009176135,True,9,1,0,8
Y2-S2-122K22,6,489,PS,exp,46,↑,up,↑,0.5525807999074459,True,8,1,0,8
Y2-S2-122K22,6,490,PS,exp,34,→,right,→,0.4273835001513362,True,8,1,0,8
Y2-S2-122K22,6,491,PS,exp,33,↓,down,↓,0.5253796000033617,True,8,1,0,8
Y2-S2-122K22,6,492,PS,exp,32,→,right,→,0.4207208000589162,True,7,1,0,8
Y2-S2-122K22,6,493,PS,exp,48,←,right,→,0.7134946000296623,False,7,-1,1,9
Y2-S2-122K22,6,494,PS,exp,26,↑,up,↑,0.5162199998740107,True,8,-1,0,9
Y2-S2-122K22,6,495,PS,exp,48,→,right,→,0.5025386000052094,True,8,-1,0,9
Y2-S2-122K22,6,496,PS,exp,33,↑,up,↑,0.47774440003558993,True,8,1,1,10
Y2-S2-122K22,6,497,PS,exp,35,←,left,←,0.511227099923417,True,7,1,0,10
Y2-S2-122K22,6,498,PS,exp,26,→,left,←,0.7817439998034388,False,7,-1,1,11
Y2-S2-122K22,6,499,PS,exp,37,↑,up,↑,0.4970790999941528,True,8,-1,0,11
Y2-S2-122K22,6,500,PS,exp,45,↓,down,↓,0.5300503000617027,True,8,-1,0,11
Y2-S2-122K22,6,501,PS,exp,31,→,right,→,0.5047816999722272,True,8,1,1,12
Y2-S2-122K22,6,502,PS,exp,38,←,left,←,0.5336298998445272,True,7,1,0,12
Y2-S2-122K22,6,503,PS,exp,25,→,left,←,0.58497150009498,False,7,-1,1,13
Y2-S2-122K22,6,504,PS,exp,27,↑,up,↑,0.8165961001068354,True,8,-1,0,13
Y2-S2-122K22,6,505,PS,exp,25,↓,down,↓,0.5187842999584973,True,8,-1,0,13
Y2-S2-122K22,6,506,PS,exp,47,←,left,←,0.3955959000159055,True,8,1,1,14
Y2-S2-122K22,6,507,PS,exp,25,↑,up,↑,0.43497600010596216,True,7,1,0,14
Y2-S2-122K22,6,508,PS,exp,36,←,left,←,0.4562747001182288,True,7,1,0,14
Y2-S2-122K22,6,509,PS,exp,35,→,right,→,0.5124665999319404,True,7,1,0,14
Y2-S2-122K22,6,510,PS,exp,31,↓,left,←,0.7648567999713123,False,6,-1,1,15
Y2-S2-122K22,6,511,PS,exp,32,→,left,←,0.5348048000596464,False,7,-1,0,15
Y2-S2-122K22,6,512,PS,exp,28,↑,up,↑,0.5085042999126017,True,8,-1,0,15
Y2-S2-122K22,6,513,PS,exp,35,↓,down,↓,0.5837511999998242,True,8,-1,0,15
Y2-S2-122K22,6,514,PS,exp,49,→,right,→,0.4632504000328481,True,8,1,1,16
Y2-S2-122K22,7,515,PS,intra_train,39,↓,down,↓,0.5693219001404941,True,15,-,-,-
Y2-S2-122K22,7,516,PS,intra_train,45,↑,up,↑,0.4476115999277681,True,15,-,-,-
Y2-S2-122K22,7,517,PS,intra_train,37,←,left,←,0.6702928000595421,True,15,-,-,-
Y2-S2-122K22,7,518,PS,intra_train,49,↑,up,↑,0.46553019993007183,True,15,-,-,-
Y2-S2-122K22,7,519,PS,intra_train,46,→,left,←,0.3671897000167519,False,15,-,-,-
Y2-S2-122K22,7,520,PS,exp,49,↓,right,→,0.9116815999150276,False,10,-1,0,0
Y2-S2-122K22,7,521,PS,exp,38,↑,up,↑,0.4824013998731971,True,11,-1,0,0
Y2-S2-122K22,7,522,PS,exp,29,→,right,→,0.45424819993786514,True,11,-1,0,0
Y2-S2-122K22,7,523,PS,exp,49,↓,down,↓,0.5934498000424355,True,11,1,1,1
Y2-S2-122K22,7,524,PS,exp,40,↑,down,↓,0.5904220000375062,False,10,-1,1,2
Y2-S2-122K22,7,525,PS,exp,38,↓,right,→,0.5454919999465346,False,11,-1,0,2
Y2-S2-122K22,7,526,PS,exp,38,↑,up,↑,0.41386660002171993,True,12,-1,0,2
Y2-S2-122K22,7,527,PS,exp,45,↓,left,←,0.3006492001004517,False,12,-1,0,2
Y2-S2-122K22,7,528,PS,exp,34,→,right,→,0.6922198999673128,True,13,-1,0,2
Y2-S2-122K22,7,529,PS,exp,31,↓,down,↓,0.5319206998683512,True,13,-1,0,2
Y2-S2-122K22,7,530,PS,exp,36,↑,up,↑,0.4222416998818517,True,13,1,1,3
Y2-S2-122K22,7,531,PS,exp,40,→,right,→,0.3951530000194907,True,12,1,0,3
Y2-S2-122K22,7,532,PS,exp,28,←,left,←,0.4938817999791354,True,12,1,0,3
Y2-S2-122K22,7,533,PS,exp,45,↓,down,↓,0.4368535000830889,True,12,1,0,3
Y2-S2-122K22,7,534,PS,exp,38,←,left,←,0.6258550998754799,True,11,1,0,3
Y2-S2-122K22,7,535,PS,exp,46,↓,down,↓,0.5060898000374436,True,11,1,0,3
Y2-S2-122K22,7,536,PS,exp,50,←,left,←,0.47594709997065365,True,11,1,0,3
Y2-S2-122K22,7,537,PS,exp,41,↑,up,↑,0.7996267999988049,True,10,1,0,3
Y2-S2-122K22,7,538,PS,exp,46,↓,down,↓,0.47001739987172186,True,10,1,0,3
Y2-S2-122K22,7,539,PS,exp,45,←,left,←,0.4259872999973595,True,10,1,0,3
Y2-S2-122K22,7,540,PS,exp,31,↑,up,↑,0.5299002998508513,True,9,1,0,3
Y2-S2-122K22,7,541,PS,exp,42,↓,down,↓,0.5265267000067979,True,9,1,0,3
Y2-S2-122K22,7,542,PS,exp,32,↑,right,→,0.6416438999585807,False,9,-1,1,4
Y2-S2-122K22,7,543,PS,exp,44,↓,right,→,0.5639026998542249,False,10,-1,0,4
Y2-S2-122K22,7,544,PS,exp,50,↑,up,↑,0.4692708000075072,True,11,-1,0,4
Y2-S2-122K22,7,545,PS,exp,35,↓,down,↓,0.6466285001952201,True,11,-1,0,4
Y2-S2-122K22,7,546,PS,exp,35,→,left,←,0.661517399828881,False,11,-1,0,4
Y2-S2-122K22,7,547,PS,exp,35,←,left,←,0.6997768001165241,True,12,-1,0,4
Y2-S2-122K22,7,548,PS,exp,31,↑,up,↑,0.5123404997866601,True,12,-1,0,4
Y2-S2-122K22,7,549,PS,exp,28,←,right,→,0.8079474000260234,False,12,-1,0,4
Y2-S2-122K22,7,550,PS,exp,29,↑,up,↑,0.5038065998815,True,13,-1,0,4
Y2-S2-122K22,7,551,PS,exp,32,↓,down,↓,0.5373197000008076,True,13,-1,0,4
Y2-S2-122K22,7,552,PS,exp,50,↑,up,↑,0.47984490008093417,True,13,1,1,5
Y2-S2-122K22,7,553,PS,exp,36,←,left,←,0.6074930999893695,True,12,1,0,5
Y2-S2-122K22,7,554,PS,exp,40,↓,down,↓,0.5732146000955254,True,12,1,0,5
Y2-S2-122K22,7,555,PS,exp,46,←,left,←,0.6111034001223743,True,12,1,0,5
Y2-S2-122K22,7,556,PS,exp,33,↑,up,↑,0.6866916001308709,True,11,1,0,5
Y2-S2-122K22,7,557,PS,exp,45,←,left,←,0.45669760019518435,True,11,1,0,5
Y2-S2-122K22,7,558,PS,exp,31,→,right,→,0.5763848000206053,True,11,1,0,5
Y2-S2-122K22,7,559,PS,exp,29,↑,up,↑,0.5272121001034975,True,10,1,0,5
Y2-S2-122K22,7,560,PS,exp,43,↓,down,↓,0.5943931001238525,True,10,1,0,5
Y2-S2-122K22,7,561,PS,exp,47,↑,right,→,0.6129258000291884,False,10,-1,1,6
Y2-S2-122K22,7,562,PS,exp,41,→,right,→,0.5011020998936146,True,11,-1,0,6
Y2-S2-122K22,7,563,PS,exp,42,←,left,←,0.5595665001310408,True,11,-1,0,6
Y2-S2-122K22,7,564,PS,exp,50,↓,down,↓,0.6480346000753343,True,11,1,1,7
Y2-S2-122K22,7,565,PS,exp,39,→,right,→,0.42292669997550547,True,10,1,0,7
Y2-S2-122K22,7,566,PS,exp,25,←,left,←,1.1711079000961035,True,10,1,0,7
Y2-S2-122K22,7,567,PS,exp,35,↑,up,↑,0.7655644998885691,True,10,1,0,7
Y2-S2-122K22,7,568,PS,exp,33,↓,right,→,0.8537834999151528,False,9,-1,1,8
Y2-S2-122K22,7,569,PS,exp,26,↑,up,↑,0.5135510999243706,True,10,-1,0,8
Y2-S2-122K22,7,570,PS,exp,28,←,left,←,0.46893759979866445,True,10,-1,0,8
Y2-S2-122K22,7,571,PS,exp,43,↓,down,↓,0.6307353000156581,True,10,1,1,9
Y2-S2-122K22,7,572,PS,exp,48,↑,up,↑,0.5075966999866068,True,9,1,0,9
Y2-S2-122K22,7,573,PS,exp,41,↓,left,←,0.7285943999886513,False,9,-1,1,10
Y2-S2-122K22,7,574,PS,exp,34,→,left,←,0.6261058000382036,False,10,-1,0,10
Y2-S2-122K22,7,575,PS,exp,25,←,left,←,0.5035936001222581,True,11,-1,0,10
Y2-S2-122K22,7,576,PS,exp,44,↓,down,↓,0.6654916000552475,True,11,-1,0,10
Y2-S2-122K22,7,577,PS,exp,40,←,left,←,0.46608230005949736,True,11,1,1,11
Y2-S2-122K22,7,578,PS,exp,40,↑,up,↑,0.4865220000501722,True,10,1,0,11
Y2-S2-122K22,7,579,PS,exp,32,↓,down,↓,0.6033354999963194,True,10,1,0,11
Y2-S2-122K22,7,580,PS,exp,49,→,right,→,0.5068381999153644,True,10,1,0,11
Y2-S2-122K22,7,581,PS,exp,30,↓,down,↓,0.6530826999805868,True,9,1,0,11
Y2-S2-122K22,7,582,PS,exp,33,←,left,←,0.6235844998154789,True,9,1,0,11
Y2-S2-122K22,7,583,PS,exp,37,↑,up,↑,0.49587919982150197,True,9,1,0,11
Y2-S2-122K22,7,584,PS,exp,44,←,left,←,0.4068831999320537,True,8,1,0,11
Y2-S2-122K22,7,585,PS,exp,42,→,right,→,0.4589563000481576,True,8,1,0,11
Y2-S2-122K22,7,586,PS,exp,43,←,left,←,0.44156809989362955,True,8,1,0,11
Y2-S2-122K22,7,587,PS,exp,47,→,right,→,0.4555903000291437,True,7,1,0,11
Y2-S2-122K22,7,588,PS,exp,42,↓,right,→,0.8273944000247866,False,7,-1,1,12
Y2-S2-122K22,7,589,PS,exp,28,↑,left,←,0.5999938999302685,False,8,-1,0,12
Y2-S2-122K22,7,590,PS,exp,42,↓,down,↓,0.5520015999209136,True,9,-1,0,12
Y2-S2-122K22,7,591,PS,exp,28,→,right,→,0.7278666999191046,True,9,-1,0,12
Y2-S2-122K22,7,592,PS,exp,25,←,left,←,0.411074599949643,True,9,1,1,13
Y2-S2-122K22,7,593,PS,exp,47,↓,down,↓,0.4898365999106318,True,8,1,0,13
Y2-S2-122K22,7,594,PS,exp,27,←,left,←,0.4606797001324594,True,8,1,0,13
Y2-S2-122K22,7,595,PS,exp,42,→,right,→,0.43571270001120865,True,8,1,0,13
Y2-S2-122K22,7,596,PS,exp,27,←,left,←,0.4207049000542611,True,7,1,0,13
Y2-S2-122K22,7,597,PS,exp,35,↓,down,↓,0.4677381000947207,True,7,1,0,13
Y2-S2-122K22,7,598,PS,exp,46,→,right,→,0.7695710000116378,True,7,1,0,13
Y2-S2-122K22,7,599,PS,exp,28,←,right,→,0.515285599976778,False,6,-1,1,14
Y2-S2-122K22,7,600,PS,exp,35,↓,up,↑,0.5667180998716503,False,7,-1,0,14
Y2-S2-122K22,7,601,PS,exp,45,→,right,→,0.4496975000947714,True,8,-1,0,14
Y2-S2-122K22,7,602,PS,exp,48,↓,down,↓,0.5032063000835478,True,8,-1,0,14
Y2-S2-122K22,7,603,PS,exp,47,→,right,→,0.3850197000429034,True,8,1,1,15
Y2-S2-122K22,7,604,PS,exp,29,↑,up,↑,0.5291393001098186,True,7,1,0,15
Y2-S2-122K22,7,605,PS,exp,48,→,right,→,0.4385854001156986,True,7,1,0,15
Y2-S2-122K22,7,606,PS,exp,43,←,right,→,0.6215647000353783,False,7,-1,1,16
Y2-S2-122K22,8,607,AS,intra_train,49,→,right,→,1.3894362000282854,True,19,-,-,-
Y2-S2-122K22,8,608,AS,intra_train,39,↑,down,↓,0.8643356000538915,False,19,-,-,-
Y2-S2-122K22,8,609,AS,intra_train,33,→,right,→,0.45070630009286106,True,19,-,-,-
Y2-S2-122K22,8,610,AS,intra_train,44,↑,up,↑,1.136721699964255,True,19,-,-,-
Y2-S2-122K22,8,611,AS,intra_train,25,←,left,←,0.4007075000554323,True,19,-,-,-
Y2-S2-122K22,8,612,AS,exp,31,→,left,←,0.6255540999118239,False,13,-1,0,0
Y2-S2-122K22,8,613,AS,exp,45,↑,up,↑,0.9265485999640077,True,14,-1,0,0
Y2-S2-122K22,8,614,AS,exp,42,←,left,←,0.4044701000675559,True,14,-1,0,0
Y2-S2-122K22,8,615,AS,exp,39,↑,left,←,0.6501900001894683,False,14,-1,0,0
Y2-S2-122K22,8,616,AS,exp,34,↓,right,→,0.6601623999886215,False,15,-1,0,0
Y2-S2-122K22,8,617,AS,exp,43,↑,up,↑,0.467216300079599,True,16,-1,0,0
Y2-S2-122K22,8,618,AS,exp,34,←,left,←,0.5006373999640346,True,16,-1,0,0
Y2-S2-122K22,8,619,AS,exp,38,↓,down,↓,1.0171169999521226,True,16,1,1,1
Y2-S2-122K22,8,620,AS,exp,27,→,left,←,0.9656777000054717,False,15,-1,1,2
Y2-S2-122K22,8,621,AS,exp,43,←,left,←,0.4788880997803062,True,16,-1,0,2
Y2-S2-122K22,8,622,AS,exp,30,↓,up,↑,0.7954549000132829,False,16,-1,0,2
Y2-S2-122K22,8,623,AS,exp,38,←,right,→,0.6240703000221401,False,17,-1,0,2
Y2-S2-122K22,8,624,AS,exp,49,→,right,→,0.6230909998994321,True,18,-1,0,2
Y2-S2-122K22,8,625,AS,exp,35,↓,down,↓,0.6281518000178039,True,18,-1,0,2
Y2-S2-122K22,8,626,AS,exp,42,→,right,→,1.1192251001484692,True,18,1,1,3
Y2-S2-122K22,8,627,AS,exp,27,↑,left,←,0.8182100001722574,False,17,-1,1,4
Y2-S2-122K22,8,628,AS,exp,26,←,up,↑,1.2114428000058979,False,18,-1,0,4
Y2-S2-122K22,8,629,AS,exp,45,↑,up,↑,1.0461935000494123,True,19,-1,0,4
Y2-S2-122K22,8,630,AS,exp,50,→,right,→,0.5723315998911858,True,19,-1,0,4
Y2-S2-122K22,8,631,AS,exp,41,↓,down,↓,0.6842873999848962,True,19,1,1,5
Y2-S2-122K22,8,632,AS,exp,41,↑,up,↑,0.5030316999182105,True,18,1,0,5
Y2-S2-122K22,8,633,AS,exp,38,→,right,→,0.8115413999184966,True,18,1,0,5
Y2-S2-122K22,8,634,AS,exp,49,←,left,←,0.7804411000106484,True,18,1,0,5
Y2-S2-122K22,8,635,AS,exp,25,→,right,→,0.7234823999460787,True,17,1,0,5
Y2-S2-122K22,8,636,AS,exp,25,←,right,→,0.8349372998345643,False,17,-1,1,6
Y2-S2-122K22,8,637,AS,exp,32,→,right,→,0.8755043998826295,True,18,-1,0,6
Y2-S2-122K22,8,638,AS,exp,43,↑,right,→,0.7002753000706434,False,18,-1,0,6
Y2-S2-122K22,8,639,AS,exp,28,→,right,→,0.6156099000945687,True,19,-1,0,6
Y2-S2-122K22,8,640,AS,exp,29,↑,up,↑,0.6040189999621361,True,19,-1,0,6
Y2-S2-122K22,8,641,AS,exp,41,←,right,→,0.7234682999551296,False,19,-1,0,6
Y2-S2-122K22,8,642,AS,exp,34,↓,right,→,0.7972577000036836,False,20,-1,0,6
Y2-S2-122K22,8,643,AS,exp,31,←,left,←,0.5949943999294192,True,21,-1,0,6
Y2-S2-122K22,8,644,AS,exp,50,↓,down,↓,0.7979168999008834,True,21,-1,0,6
Y2-S2-122K22,8,645,AS,exp,34,→,right,→,0.614896000130102,True,21,1,1,7
Y2-S2-122K22,8,646,AS,exp,36,←,left,←,0.8084966000169516,True,20,1,0,7
Y2-S2-122K22,8,647,AS,exp,41,↑,up,↑,0.8253030001651496,True,20,1,0,7
Y2-S2-122K22,8,648,AS,exp,38,←,left,←,0.7295188000425696,True,20,1,0,7
Y2-S2-122K22,8,649,AS,exp,40,↓,down,↓,0.8333236000034958,True,19,1,0,7
Y2-S2-122K22,8,650,AS,exp,43,↑,up,↑,0.5184262001421303,True,19,1,0,7
Y2-S2-122K22,8,651,AS,exp,38,→,left,←,0.6167091999668628,False,19,-1,1,8
Y2-S2-122K22,8,652,AS,exp,28,↑,up,↑,0.4503541998565197,True,20,-1,0,8
Y2-S2-122K22,8,653,AS,exp,32,←,left,←,0.71893380000256,True,20,-1,0,8
Y2-S2-122K22,8,654,AS,exp,34,→,left,←,0.40080800000578165,False,20,-1,0,8
Y2-S2-122K22,8,655,AS,exp,38,↓,down,↓,0.7152085998095572,True,21,-1,0,8
Y2-S2-122K22,8,656,AS,exp,33,→,right,→,0.5307746999897063,True,21,-1,0,8
Y2-S2-122K22,8,657,AS,exp,29,←,left,←,0.605530499946326,True,21,1,1,9
Y2-S2-122K22,8,658,AS,exp,35,↑,up,↑,0.7388402000069618,True,20,1,0,9
Y2-S2-122K22,8,659,AS,exp,30,←,left,←,0.7516793999820948,True,20,1,0,9
Y2-S2-122K22,8,660,AS,exp,38,→,right,→,0.8299659001640975,True,20,1,0,9
Y2-S2-122K22,8,661,AS,exp,46,↑,up,↑,0.5873060000594705,True,19,1,0,9
Y2-S2-122K22,8,662,AS,exp,25,←,left,←,0.562984999967739,True,19,1,0,9
Y2-S2-122K22,8,663,AS,exp,32,↓,left,←,0.779383699875325,False,19,-1,1,10
Y2-S2-122K22,8,664,AS,exp,28,↑,up,↑,0.5670320999342948,True,20,-1,0,10
Y2-S2-122K22,8,665,AS,exp,41,←,right,→,0.8926848999690264,False,20,-1,0,10
Y2-S2-122K22,8,666,AS,exp,44,→,right,→,0.7600970999337733,True,21,-1,0,10
Y2-S2-122K22,8,667,AS,exp,37,↑,up,↑,0.6358146001584828,True,21,-1,0,10
Y2-S2-122K22,8,668,AS,exp,45,←,left,←,0.4507891000248492,True,21,1,1,11
Y2-S2-122K22,8,669,AS,exp,41,↑,up,↑,0.7755611999891698,True,20,1,0,11
Y2-S2-122K22,8,670,AS,exp,25,→,right,→,0.45076910010538995,True,20,1,0,11
Y2-S2-122K22,8,671,AS,exp,48,↑,up,↑,0.6824211999773979,True,20,1,0,11
Y2-S2-122K22,8,672,AS,exp,32,←,left,←,0.6164572001434863,True,19,1,0,11
Y2-S2-122K22,8,673,AS,exp,49,↑,up,↑,0.4005885000806302,True,19,1,0,11
Y2-S2-122K22,8,674,AS,exp,37,↓,down,↓,0.589123300043866,True,19,1,0,11
Y2-S2-122K22,8,675,AS,exp,37,↑,up,↑,0.6379025999922305,True,18,1,0,11
Y2-S2-122K22,8,676,AS,exp,38,←,right,→,0.635452400194481,False,18,-1,1,12
Y2-S2-122K22,8,677,AS,exp,30,↑,up,↑,0.6151463000569493,True,19,-1,0,12
Y2-S2-122K22,8,678,AS,exp,32,→,right,→,0.5180868001189083,True,19,-1,0,12
Y2-S2-122K22,8,679,AS,exp,34,↓,up,↑,0.6943155999761075,False,19,-1,0,12
Y2-S2-122K22,8,680,AS,exp,28,↑,up,↑,1.2042439999058843,True,20,-1,0,12
Y2-S2-122K22,8,681,AS,exp,41,→,right,→,1.141921600094065,True,20,-1,0,12
Y2-S2-122K22,8,682,AS,exp,50,↓,up,↑,0.6440047998912632,False,20,-1,0,12
Y2-S2-122K22,8,683,AS,exp,29,↑,up,↑,0.6798535000998527,True,21,-1,0,12
Y2-S2-122K22,8,684,AS,exp,43,←,left,←,0.6326689999550581,True,21,-1,0,12
Y2-S2-122K22,8,685,AS,exp,32,→,right,→,1.1331635999958962,True,21,1,1,13
Y2-S2-122K22,8,686,AS,exp,34,↑,up,↑,0.7365329000167549,True,20,1,0,13
Y2-S2-122K22,8,687,AS,exp,34,←,left,←,1.0882429999765009,True,20,1,0,13
Y2-S2-122K22,8,688,AS,exp,38,→,right,→,0.5018368000164628,True,20,1,0,13
Y2-S2-122K22,8,689,AS,exp,45,↑,up,↑,0.6334856997709721,True,19,1,0,13
Y2-S2-122K22,8,690,AS,exp,37,→,right,→,0.5944902999326587,True,19,1,0,13
Y2-S2-122K22,8,691,AS,exp,48,↑,left,←,0.43396699987351894,False,19,-1,1,14
Y2-S2-122K22,8,692,AS,exp,36,→,right,→,0.5930865001864731,True,20,-1,0,14
Y2-S2-122K22,8,693,AS,exp,27,←,left,←,0.5403229999355972,True,20,-1,0,14
Y2-S2-122K22,8,694,AS,exp,27,↑,right,→,0.7674543999601156,False,20,-1,0,14
Y2-S2-122K22,8,695,AS,exp,29,←,left,←,0.48381019989028573,True,21,-1,0,14
Y2-S2-122K22,8,696,AS,exp,47,→,right,→,0.5476017999462783,True,21,-1,0,14
Y2-S2-122K22,8,697,AS,exp,34,←,left,←,0.433827199973166,True,21,1,1,15
Y2-S2-122K22,8,698,AS,exp,44,→,left,←,0.4506753000896424,False,20,-1,1,16
