PART_ID,Block_no,Trial_no,Block_type,Trial_type,CSI,Stim_letter,Key_pressed,letter_choose,Rt,Corr,Stimulus Time,Level,Reversal,Revs_count
Y2-S2-120K25,1,1,PS,train,37,→,right,→,1.334866600111127,True,30,-,-,-
Y2-S2-120K25,1,2,PS,train,48,↓,down,↓,0.8227801998145878,True,30,-,-,-
Y2-S2-120K25,1,3,PS,train,27,←,left,←,0.7239863001741469,True,30,-,-,-
Y2-S2-120K25,1,4,PS,train,26,↑,up,↑,0.7163507002405822,True,30,-,-,-
Y2-S2-120K25,1,5,PS,train,30,→,right,→,0.6171610997989774,True,30,-,-,-
Y2-S2-120K25,1,6,PS,train,28,←,left,←,0.5171828996390104,True,30,-,-,-
Y2-S2-120K25,1,7,PS,train,34,→,right,→,0.48385730013251305,True,30,-,-,-
Y2-S2-120K25,1,8,PS,train,48,↑,up,↑,0.8509374000132084,True,30,-,-,-
Y2-S2-120K25,1,9,PS,train,39,←,left,←,0.567113000433892,True,30,-,-,-
Y2-S2-120K25,1,10,PS,train,27,↑,up,↑,0.7829714003019035,True,30,-,-,-
Y2-S2-120K25,2,11,AS,train,38,↓,down,↓,0.8010134999640286,True,45,-,-,-
Y2-S2-120K25,2,12,AS,train,26,→,right,→,0.48435139982029796,True,45,-,-,-
Y2-S2-120K25,2,13,AS,train,40,↑,up,↑,0.9402419999241829,True,45,-,-,-
Y2-S2-120K25,2,14,AS,train,32,↓,down,↓,0.7515850998461246,True,45,-,-,-
Y2-S2-120K25,2,15,AS,train,45,↑,up,↑,0.6687411000020802,True,45,-,-,-
Y2-S2-120K25,2,16,AS,train,32,←,left,←,0.6346979001536965,True,45,-,-,-
Y2-S2-120K25,2,17,AS,train,35,→,right,→,0.6174510000273585,True,45,-,-,-
Y2-S2-120K25,2,18,AS,train,29,←,left,←,0.6843926999717951,True,45,-,-,-
Y2-S2-120K25,2,19,AS,train,28,↓,down,↓,0.800804500002414,True,45,-,-,-
Y2-S2-120K25,2,20,AS,train,38,↑,up,↑,0.6509255999699235,True,45,-,-,-
Y2-S2-120K25,-,21,PS,adaptive,29,→,right,→,0.7747334996238351,True,10,0,0,0
Y2-S2-120K25,-,22,PS,adaptive,46,←,right,→,0.9059435999952257,False,10,-1,0,0
Y2-S2-120K25,-,23,PS,adaptive,33,↓,down,↓,0.8343598996289074,True,11,-1,0,0
Y2-S2-120K25,-,24,PS,adaptive,32,←,left,←,0.6368792001157999,True,11,-1,0,0
Y2-S2-120K25,-,25,PS,adaptive,29,→,right,→,0.48136680014431477,True,11,1,1,1
Y2-S2-120K25,-,26,PS,adaptive,42,↓,down,↓,0.8781031002290547,True,10,1,0,1
Y2-S2-120K25,-,27,PS,adaptive,36,←,down,↓,0.7317812996916473,False,10,-1,1,2
Y2-S2-120K25,-,28,PS,adaptive,34,→,right,→,0.7527429996989667,True,11,-1,0,2
Y2-S2-120K25,-,29,PS,adaptive,47,↑,down,↓,0.8865772997960448,False,11,-1,0,2
Y2-S2-120K25,-,30,PS,adaptive,30,←,left,←,0.5935324998572469,True,12,-1,0,2
Y2-S2-120K25,-,31,PS,adaptive,41,↑,up,↑,1.052127500064671,True,12,-1,0,2
Y2-S2-120K25,-,32,PS,adaptive,35,←,left,←,0.6071020998060703,True,12,1,1,3
Y2-S2-120K25,-,33,PS,adaptive,34,↑,up,↑,0.7525047003291547,True,11,1,0,3
Y2-S2-120K25,-,34,PS,adaptive,48,←,left,←,0.6931383996270597,True,11,1,0,3
Y2-S2-120K25,-,35,PS,adaptive,41,→,right,→,0.7591568999923766,True,11,1,0,3
Y2-S2-120K25,-,36,PS,adaptive,43,↑,up,↑,0.5589766995981336,True,10,1,0,3
Y2-S2-120K25,-,37,PS,adaptive,36,↓,down,↓,0.6451121000573039,True,10,1,0,3
Y2-S2-120K25,-,38,PS,adaptive,36,←,left,←,0.6017813002690673,True,10,1,0,3
Y2-S2-120K25,-,39,PS,adaptive,27,→,right,→,0.5611384003423154,True,9,1,0,3
Y2-S2-120K25,-,40,PS,adaptive,42,↓,down,↓,0.6486399001441896,True,9,1,0,3
Y2-S2-120K25,-,41,PS,adaptive,42,→,right,→,0.4804218001663685,True,9,1,0,3
Y2-S2-120K25,-,42,PS,adaptive,26,←,down,↓,0.7476979000493884,False,8,-1,1,4
Y2-S2-120K25,-,43,AS,adaptive,26,↑,up,↑,0.8185284999199212,True,20,0,0,0
Y2-S2-120K25,-,44,AS,adaptive,42,←,left,←,0.7090402999892831,True,20,0,0,0
Y2-S2-120K25,-,45,AS,adaptive,29,↑,right,→,1.0324447001330554,False,20,-1,0,0
Y2-S2-120K25,-,46,AS,adaptive,35,↓,down,↓,1.0522549003362656,True,21,-1,0,0
Y2-S2-120K25,-,47,AS,adaptive,42,↑,up,↑,0.8410959001630545,True,21,-1,0,0
Y2-S2-120K25,-,48,AS,adaptive,26,↓,down,↓,0.7354831001721323,True,21,1,1,1
Y2-S2-120K25,-,49,AS,adaptive,48,←,left,←,0.6339891999959946,True,20,1,0,1
Y2-S2-120K25,-,50,AS,adaptive,39,→,right,→,0.7623127996921539,True,20,1,0,1
Y2-S2-120K25,-,51,AS,adaptive,40,↑,up,↑,0.6530107003636658,True,20,1,0,1
Y2-S2-120K25,-,52,AS,adaptive,28,↓,down,↓,0.5887321000918746,True,19,1,0,1
Y2-S2-120K25,-,53,AS,adaptive,29,←,right,→,0.7522708000615239,False,19,-1,1,2
Y2-S2-120K25,-,54,AS,adaptive,45,→,right,→,0.8015544996596873,True,20,-1,0,2
Y2-S2-120K25,-,55,AS,adaptive,47,←,left,←,0.7034951001405716,True,20,-1,0,2
Y2-S2-120K25,-,56,AS,adaptive,31,↑,up,↑,0.8760843998752534,True,20,1,1,3
Y2-S2-120K25,-,57,AS,adaptive,48,↓,right,→,0.552091300021857,False,19,-1,1,4
Y2-S2-120K25,1,58,AS,intra_train,39,↑,up,↑,0.8217949001118541,True,30,-,-,-
Y2-S2-120K25,1,59,AS,intra_train,35,↓,down,↓,0.6172954998910427,True,30,-,-,-
Y2-S2-120K25,1,60,AS,intra_train,49,←,left,←,0.6881289999000728,True,30,-,-,-
Y2-S2-120K25,1,61,AS,intra_train,37,→,right,→,1.4990318999625742,True,30,-,-,-
Y2-S2-120K25,1,62,AS,intra_train,45,←,left,←,0.6769129997119308,True,30,-,-,-
Y2-S2-120K25,1,63,AS,exp,32,↑,up,↑,0.918236400000751,True,20,0,0,0
Y2-S2-120K25,1,64,AS,exp,46,→,right,→,0.8087369999848306,True,20,0,0,0
Y2-S2-120K25,1,65,AS,exp,40,←,left,←,0.6332060000859201,True,20,1,0,0
Y2-S2-120K25,1,66,AS,exp,35,↓,down,↓,0.7799984999001026,True,19,1,0,0
Y2-S2-120K25,1,67,AS,exp,45,→,right,→,0.6602783999405801,True,19,1,0,0
Y2-S2-120K25,1,68,AS,exp,35,↑,up,↑,0.6505418000742793,True,19,1,0,0
Y2-S2-120K25,1,69,AS,exp,46,→,right,→,0.6857718001119792,True,18,1,0,0
Y2-S2-120K25,1,70,AS,exp,36,↑,left,←,1.015010999981314,False,18,-1,1,1
Y2-S2-120K25,1,71,AS,exp,44,→,right,→,0.6678274003788829,True,19,-1,0,1
Y2-S2-120K25,1,72,AS,exp,37,←,right,→,0.9330857996828854,False,19,-1,0,1
Y2-S2-120K25,1,73,AS,exp,50,↓,down,↓,0.7861508000642061,True,20,-1,0,1
Y2-S2-120K25,1,74,AS,exp,28,→,right,→,0.6526673003099859,True,20,-1,0,1
Y2-S2-120K25,1,75,AS,exp,37,↑,up,↑,0.6819371003657579,True,20,1,1,2
Y2-S2-120K25,1,76,AS,exp,29,↓,down,↓,0.4969374998472631,True,19,1,0,2
Y2-S2-120K25,1,77,AS,exp,29,←,right,→,0.7246765997260809,False,19,-1,1,3
Y2-S2-120K25,1,78,AS,exp,42,→,right,→,0.6012484999373555,True,20,-1,0,3
Y2-S2-120K25,1,79,AS,exp,35,↓,down,↓,0.6678810003213584,True,20,-1,0,3
Y2-S2-120K25,1,80,AS,exp,26,←,left,←,1.5973252998664975,True,20,1,1,4
Y2-S2-120K25,1,81,AS,exp,33,↓,down,↓,0.5925297997891903,True,19,1,0,4
Y2-S2-120K25,1,82,AS,exp,40,←,left,←,0.6208184002898633,True,19,1,0,4
Y2-S2-120K25,1,83,AS,exp,27,↓,down,↓,0.5649859001860023,True,19,1,0,4
Y2-S2-120K25,1,84,AS,exp,28,←,right,→,0.5420460999011993,False,18,-1,1,5
Y2-S2-120K25,1,85,AS,exp,35,↑,down,↓,0.6458939998410642,False,19,-1,0,5
Y2-S2-120K25,1,86,AS,exp,43,←,left,←,0.6077656000852585,True,20,-1,0,5
Y2-S2-120K25,1,87,AS,exp,39,→,right,→,0.5658136000856757,True,20,-1,0,5
Y2-S2-120K25,1,88,AS,exp,36,↓,down,↓,0.5524319997057319,True,20,1,1,6
Y2-S2-120K25,1,89,AS,exp,28,←,left,←,0.4975707000121474,True,19,1,0,6
Y2-S2-120K25,1,90,AS,exp,50,↑,left,←,0.8294182000681758,False,19,-1,1,7
Y2-S2-120K25,1,91,AS,exp,41,↓,down,↓,0.6931690997444093,True,20,-1,0,7
Y2-S2-120K25,1,92,AS,exp,28,↑,left,←,0.6361868004314601,False,20,-1,0,7
Y2-S2-120K25,1,93,AS,exp,48,↓,right,→,0.4678506003692746,False,21,-1,0,7
Y2-S2-120K25,1,94,AS,exp,42,→,right,→,0.6697847000323236,True,22,-1,0,7
Y2-S2-120K25,1,95,AS,exp,47,←,left,←,0.5566253000870347,True,22,-1,0,7
Y2-S2-120K25,1,96,AS,exp,46,↓,down,↓,0.6286058002151549,True,22,1,1,8
Y2-S2-120K25,1,97,AS,exp,42,←,left,←,0.6071293000131845,True,21,1,0,8
Y2-S2-120K25,1,98,AS,exp,26,→,right,→,0.46727260015904903,True,21,1,0,8
Y2-S2-120K25,1,99,AS,exp,29,←,right,→,0.4505015001632273,False,21,-1,1,9
Y2-S2-120K25,1,100,AS,exp,36,↓,down,↓,0.8154074000194669,True,22,-1,0,9
Y2-S2-120K25,1,101,AS,exp,34,←,left,←,0.5759800001978874,True,22,-1,0,9
Y2-S2-120K25,1,102,AS,exp,49,→,right,→,0.6842914000153542,True,22,1,1,10
Y2-S2-120K25,1,103,AS,exp,27,←,left,←,0.5788829000666738,True,21,1,0,10
Y2-S2-120K25,1,104,AS,exp,34,↓,down,↓,0.573819300159812,True,21,1,0,10
Y2-S2-120K25,1,105,AS,exp,26,↑,up,↑,1.257564099971205,True,21,1,0,10
Y2-S2-120K25,1,106,AS,exp,29,←,right,→,0.8635653997771442,False,20,-1,1,11
Y2-S2-120K25,1,107,AS,exp,41,→,right,→,0.6677794000133872,True,21,-1,0,11
Y2-S2-120K25,1,108,AS,exp,28,↓,down,↓,0.5541093000210822,True,21,-1,0,11
Y2-S2-120K25,1,109,AS,exp,29,→,right,→,0.57670470001176,True,21,1,1,12
Y2-S2-120K25,1,110,AS,exp,43,↓,down,↓,0.7958885999396443,True,20,1,0,12
Y2-S2-120K25,1,111,AS,exp,35,→,right,→,0.7241826998069882,True,20,1,0,12
Y2-S2-120K25,1,112,AS,exp,34,↑,down,↓,0.8053426002152264,False,20,-1,1,13
Y2-S2-120K25,1,113,AS,exp,40,↓,down,↓,0.577401100192219,True,21,-1,0,13
Y2-S2-120K25,1,114,AS,exp,42,→,right,→,0.5711036999709904,True,21,-1,0,13
Y2-S2-120K25,1,115,AS,exp,35,↑,up,↑,1.2073123999871314,True,21,1,1,14
Y2-S2-120K25,1,116,AS,exp,46,←,left,←,0.6861442001536489,True,20,1,0,14
Y2-S2-120K25,1,117,AS,exp,27,↓,down,↓,0.5013097999617457,True,20,1,0,14
Y2-S2-120K25,1,118,AS,exp,27,→,right,→,0.7246742001734674,True,20,1,0,14
Y2-S2-120K25,1,119,AS,exp,26,↑,up,↑,0.6874971999786794,True,19,1,0,14
Y2-S2-120K25,1,120,AS,exp,47,↓,down,↓,0.7774811000563204,True,19,1,0,14
Y2-S2-120K25,1,121,AS,exp,30,←,left,←,0.6237160000018775,True,19,1,0,14
Y2-S2-120K25,1,122,AS,exp,38,↑,right,→,1.3119343002326787,False,18,-1,1,15
Y2-S2-120K25,1,123,AS,exp,46,←,left,←,0.8407700997777283,True,19,-1,0,15
Y2-S2-120K25,1,124,AS,exp,35,↓,down,↓,0.6484321998432279,True,19,-1,0,15
Y2-S2-120K25,1,125,AS,exp,33,→,right,→,0.691809699870646,True,19,1,1,16
Y2-S2-120K25,2,126,PS,intra_train,50,↓,down,↓,0.5917302002198994,True,13,-,-,-
Y2-S2-120K25,2,127,PS,intra_train,36,←,left,←,0.5238268002867699,True,13,-,-,-
Y2-S2-120K25,2,128,PS,intra_train,37,↓,left,←,0.932252099737525,False,13,-,-,-
Y2-S2-120K25,2,129,PS,intra_train,27,←,left,←,0.6250946000218391,True,13,-,-,-
Y2-S2-120K25,2,130,PS,intra_train,29,→,right,→,0.5570416999980807,True,13,-,-,-
Y2-S2-120K25,2,131,PS,exp,27,↑,up,↑,0.5575615996494889,True,9,0,0,0
Y2-S2-120K25,2,132,PS,exp,50,↓,down,↓,0.5005439999513328,True,9,0,0,0
Y2-S2-120K25,2,133,PS,exp,28,→,left,←,0.832207900006324,False,9,-1,0,0
Y2-S2-120K25,2,134,PS,exp,41,↑,up,↑,0.6777335000224411,True,10,-1,0,0
Y2-S2-120K25,2,135,PS,exp,46,→,right,→,0.6808997998014092,True,10,-1,0,0
Y2-S2-120K25,2,136,PS,exp,48,←,left,←,0.5520627000369132,True,10,1,1,1
Y2-S2-120K25,2,137,PS,exp,35,↓,down,↓,0.5039030998013914,True,9,1,0,1
Y2-S2-120K25,2,138,PS,exp,38,↑,up,↑,0.8218522998504341,True,9,1,0,1
Y2-S2-120K25,2,139,PS,exp,29,↓,down,↓,0.5780487000010908,True,9,1,0,1
Y2-S2-120K25,2,140,PS,exp,47,←,down,↓,0.7391420002095401,False,8,-1,1,2
Y2-S2-120K25,2,141,PS,exp,30,↑,up,↑,0.5533580998890102,True,9,-1,0,2
Y2-S2-120K25,2,142,PS,exp,26,←,left,←,0.603993299882859,True,9,-1,0,2
Y2-S2-120K25,2,143,PS,exp,34,↑,up,↑,0.46442220034077764,True,9,1,1,3
Y2-S2-120K25,2,144,PS,exp,47,←,left,←,0.5059593003243208,True,8,1,0,3
Y2-S2-120K25,2,145,PS,exp,48,→,up,↑,0.6905288002453744,False,8,-1,1,4
Y2-S2-120K25,2,146,PS,exp,36,←,up,↑,0.6306712003424764,False,9,-1,0,4
Y2-S2-120K25,2,147,PS,exp,49,→,right,→,0.859850499778986,True,10,-1,0,4
Y2-S2-120K25,2,148,PS,exp,47,←,left,←,0.6552752000279725,True,10,-1,0,4
Y2-S2-120K25,2,149,PS,exp,43,↑,up,↑,0.5170177998952568,True,10,1,1,5
Y2-S2-120K25,2,150,PS,exp,49,←,left,←,0.49974200036376715,True,9,1,0,5
Y2-S2-120K25,2,151,PS,exp,46,→,left,←,0.6136185000650585,False,9,-1,1,6
Y2-S2-120K25,2,152,PS,exp,50,↑,up,↑,0.9819239000789821,True,10,-1,0,6
Y2-S2-120K25,2,153,PS,exp,35,↓,down,↓,0.6716676000505686,True,10,-1,0,6
Y2-S2-120K25,2,154,PS,exp,30,←,right,→,0.7362714000046253,False,10,-1,0,6
Y2-S2-120K25,2,155,PS,exp,42,↓,down,↓,0.5596854998730123,True,11,-1,0,6
Y2-S2-120K25,2,156,PS,exp,39,↑,up,↑,0.5239195004105568,True,11,-1,0,6
Y2-S2-120K25,2,157,PS,exp,31,→,right,→,0.5842093997634947,True,11,1,1,7
Y2-S2-120K25,2,158,PS,exp,31,↑,up,↑,0.596229299902916,True,10,1,0,7
Y2-S2-120K25,2,159,PS,exp,42,↓,down,↓,0.6309806001372635,True,10,1,0,7
Y2-S2-120K25,2,160,PS,exp,30,→,right,→,0.7194905001670122,True,10,1,0,7
Y2-S2-120K25,2,161,PS,exp,46,↑,right,→,0.7839128002524376,False,9,-1,1,8
Y2-S2-120K25,2,162,PS,exp,47,→,right,→,1.0592611003667116,True,10,-1,0,8
Y2-S2-120K25,2,163,PS,exp,34,←,left,←,0.5228543998673558,True,10,-1,0,8
Y2-S2-120K25,2,164,PS,exp,36,↓,down,↓,0.8367553004063666,True,10,1,1,9
Y2-S2-120K25,2,165,PS,exp,25,←,left,←,0.7329432000406086,True,9,1,0,9
Y2-S2-120K25,2,166,PS,exp,49,↓,right,→,0.6706862999126315,False,9,-1,1,10
Y2-S2-120K25,2,167,PS,exp,50,↑,up,↑,1.4941932000219822,True,10,-1,0,10
Y2-S2-120K25,2,168,PS,exp,35,→,up,↑,0.636158499866724,False,10,-1,0,10
Y2-S2-120K25,2,169,PS,exp,44,↑,up,↑,0.5413657003082335,True,11,-1,0,10
Y2-S2-120K25,2,170,PS,exp,32,←,left,←,0.5750928996130824,True,11,-1,0,10
Y2-S2-120K25,2,171,PS,exp,44,↑,up,↑,0.6774622001685202,True,11,1,1,11
Y2-S2-120K25,2,172,PS,exp,41,→,right,→,0.4800714999437332,True,10,1,0,11
Y2-S2-120K25,2,173,PS,exp,44,↓,down,↓,0.5494643002748489,True,10,1,0,11
Y2-S2-120K25,2,174,PS,exp,40,↑,up,↑,0.6678059003315866,True,10,1,0,11
Y2-S2-120K25,2,175,PS,exp,44,→,right,→,0.5704657998867333,True,9,1,0,11
Y2-S2-120K25,2,176,PS,exp,29,←,up,↑,0.8201506999321282,False,9,-1,1,12
Y2-S2-120K25,2,177,PS,exp,49,↑,up,↑,0.49176429957151413,True,10,-1,0,12
Y2-S2-120K25,2,178,PS,exp,33,↓,up,↑,0.7861937000416219,False,10,-1,0,12
Y2-S2-120K25,2,179,PS,exp,41,→,up,↑,0.6612483998760581,False,11,-1,0,12
Y2-S2-120K25,2,180,PS,exp,47,↓,right,→,0.5035745999775827,False,12,-1,0,12
Y2-S2-120K25,2,181,PS,exp,50,↑,up,↑,0.4270949997007847,True,13,-1,0,12
Y2-S2-120K25,2,182,PS,exp,31,→,right,→,0.42464990029111505,True,13,-1,0,12
Y2-S2-120K25,2,183,PS,exp,31,↑,up,↑,1.6651269998401403,True,13,1,1,13
Y2-S2-120K25,2,184,PS,exp,35,←,left,←,0.5783525998704135,True,12,1,0,13
Y2-S2-120K25,2,185,PS,exp,36,↑,left,←,0.7935361000709236,False,12,-1,1,14
Y2-S2-120K25,2,186,PS,exp,27,←,up,↑,0.4841769998893142,False,13,-1,0,14
Y2-S2-120K25,2,187,PS,exp,33,↓,down,↓,0.5276435003615916,True,14,-1,0,14
Y2-S2-120K25,2,188,PS,exp,43,←,right,→,0.5497103999368846,False,14,-1,0,14
Y2-S2-120K25,2,189,PS,exp,44,↓,down,↓,0.7335653002373874,True,15,-1,0,14
Y2-S2-120K25,2,190,PS,exp,41,←,left,←,0.4944592001847923,True,15,-1,0,14
Y2-S2-120K25,2,191,PS,exp,40,↓,down,↓,0.790230699814856,True,15,1,1,15
Y2-S2-120K25,2,192,PS,exp,41,↑,down,↓,0.5260568996891379,False,14,-1,1,16
Y2-S2-120K25,3,193,PS,intra_train,29,←,left,←,0.5340338000096381,True,13,-,-,-
Y2-S2-120K25,3,194,PS,intra_train,30,→,right,→,0.5523572000674903,True,13,-,-,-
Y2-S2-120K25,3,195,PS,intra_train,49,←,left,←,0.4442044999450445,True,13,-,-,-
Y2-S2-120K25,3,196,PS,intra_train,36,↓,down,↓,0.67147809965536,True,13,-,-,-
Y2-S2-120K25,3,197,PS,intra_train,50,→,right,→,0.5305828000418842,True,13,-,-,-
Y2-S2-120K25,3,198,PS,exp,25,←,left,←,0.39298810018226504,True,9,0,0,0
Y2-S2-120K25,3,199,PS,exp,50,→,right,→,0.793641499709338,True,9,0,0,0
Y2-S2-120K25,3,200,PS,exp,35,↑,up,↑,0.5291899000294507,True,9,1,0,0
Y2-S2-120K25,3,201,PS,exp,49,↓,down,↓,0.6518024997785687,True,8,1,0,0
Y2-S2-120K25,3,202,PS,exp,26,↑,up,↑,0.868019700050354,True,8,1,0,0
Y2-S2-120K25,3,203,PS,exp,30,←,left,←,0.639198400080204,True,8,1,0,0
Y2-S2-120K25,3,204,PS,exp,43,↑,up,↑,0.8421746999956667,True,7,1,0,0
Y2-S2-120K25,3,205,PS,exp,30,→,right,→,0.5789514002390206,True,7,1,0,0
Y2-S2-120K25,3,206,PS,exp,33,←,left,←,0.682449999731034,True,7,1,0,0
Y2-S2-120K25,3,207,PS,exp,38,↓,up,↑,0.9036336001008749,False,6,-1,1,1
Y2-S2-120K25,3,208,PS,exp,43,→,up,↑,0.7379356003366411,False,7,-1,0,1
Y2-S2-120K25,3,209,PS,exp,38,←,left,←,1.131585800088942,True,8,-1,0,1
Y2-S2-120K25,3,210,PS,exp,50,→,right,→,0.6547201001085341,True,8,-1,0,1
Y2-S2-120K25,3,211,PS,exp,29,↓,down,↓,0.6094498001039028,True,8,1,1,2
Y2-S2-120K25,3,212,PS,exp,30,→,no_key,no_letter,-1.0,False,7,-1,1,3
Y2-S2-120K25,3,213,PS,exp,49,↓,left,←,1.0459811999462545,False,8,-1,0,3
Y2-S2-120K25,3,214,PS,exp,38,→,left,←,0.8151245000772178,False,9,-1,0,3
Y2-S2-120K25,3,215,PS,exp,44,↑,left,←,0.49962650006636977,False,10,-1,0,3
Y2-S2-120K25,3,216,PS,exp,42,↓,down,↓,0.5488110999576747,True,11,-1,0,3
Y2-S2-120K25,3,217,PS,exp,26,↑,down,↓,0.5014369999989867,False,11,-1,0,3
Y2-S2-120K25,3,218,PS,exp,46,←,left,←,0.5899538001976907,True,12,-1,0,3
Y2-S2-120K25,3,219,PS,exp,33,↓,down,↓,0.5748501000925899,True,12,-1,0,3
Y2-S2-120K25,3,220,PS,exp,48,←,down,↓,0.6113754999823868,False,12,-1,0,3
Y2-S2-120K25,3,221,PS,exp,25,↓,left,←,0.5112438001669943,False,13,-1,0,3
Y2-S2-120K25,3,222,PS,exp,49,↑,left,←,0.0010975999757647514,False,14,-1,0,3
Y2-S2-120K25,3,223,PS,exp,45,↓,left,←,0.35052229976281524,False,15,-1,0,3
Y2-S2-120K25,3,224,PS,exp,35,→,left,←,0.317450700327754,False,16,-1,0,3
Y2-S2-120K25,3,225,PS,exp,40,←,right,→,0.9481889000162482,False,17,-1,0,3
Y2-S2-120K25,3,226,PS,exp,31,↑,up,↑,0.5364582003094256,True,18,-1,0,3
Y2-S2-120K25,3,227,PS,exp,44,↓,down,↓,0.9408636000007391,True,18,-1,0,3
Y2-S2-120K25,3,228,PS,exp,27,←,left,←,1.1068794000893831,True,18,1,1,4
Y2-S2-120K25,3,229,PS,exp,38,↑,up,↑,0.5468283998779953,True,17,1,0,4
Y2-S2-120K25,3,230,PS,exp,30,←,left,←,0.526116400025785,True,17,1,0,4
Y2-S2-120K25,3,231,PS,exp,30,↑,up,↑,0.671830500010401,True,17,1,0,4
Y2-S2-120K25,3,232,PS,exp,28,→,right,→,0.604432700201869,True,16,1,0,4
Y2-S2-120K25,3,233,PS,exp,48,↑,up,↑,0.544406299944967,True,16,1,0,4
Y2-S2-120K25,3,234,PS,exp,35,↓,down,↓,0.5736866998486221,True,16,1,0,4
Y2-S2-120K25,3,235,PS,exp,38,←,left,←,0.6559735001064837,True,15,1,0,4
Y2-S2-120K25,3,236,PS,exp,38,↓,down,↓,0.6998279001563787,True,15,1,0,4
Y2-S2-120K25,3,237,PS,exp,47,→,right,→,0.616607700008899,True,15,1,0,4
Y2-S2-120K25,3,238,PS,exp,44,←,left,←,0.663728800136596,True,14,1,0,4
Y2-S2-120K25,3,239,PS,exp,33,→,right,→,0.6886991998180747,True,14,1,0,4
Y2-S2-120K25,3,240,PS,exp,42,←,left,←,0.5380448000505567,True,14,1,0,4
Y2-S2-120K25,3,241,PS,exp,48,→,right,→,0.5319045004434884,True,13,1,0,4
Y2-S2-120K25,3,242,PS,exp,48,↓,down,↓,0.6197673999704421,True,13,1,0,4
Y2-S2-120K25,3,243,PS,exp,36,↑,right,→,0.5903647998347878,False,13,-1,1,5
Y2-S2-120K25,3,244,PS,exp,48,←,left,←,0.5613115997985005,True,14,-1,0,5
Y2-S2-120K25,3,245,PS,exp,50,↑,up,↑,0.7193698999471962,True,14,-1,0,5
Y2-S2-120K25,3,246,PS,exp,50,→,right,→,0.7577117998152971,True,14,1,1,6
Y2-S2-120K25,3,247,PS,exp,38,↓,down,↓,0.5006173001602292,True,13,1,0,6
Y2-S2-120K25,3,248,PS,exp,30,↑,up,↑,0.634277599863708,True,13,1,0,6
Y2-S2-120K25,3,249,PS,exp,28,→,right,→,0.44538960000500083,True,13,1,0,6
Y2-S2-120K25,3,250,PS,exp,40,←,left,←,0.5743981995619833,True,12,1,0,6
Y2-S2-120K25,3,251,PS,exp,48,→,right,→,0.6079499004408717,True,12,1,0,6
Y2-S2-120K25,3,252,PS,exp,42,↓,down,↓,0.5785495000891387,True,12,1,0,6
Y2-S2-120K25,3,253,PS,exp,43,↑,right,→,1.098469499964267,False,11,-1,1,7
Y2-S2-120K25,3,254,PS,exp,32,←,left,←,0.5347335999831557,True,12,-1,0,7
Y2-S2-120K25,3,255,PS,exp,40,↑,down,↓,0.609750899951905,False,12,-1,0,7
Y2-S2-120K25,3,256,PS,exp,30,↓,left,←,1.1907635000534356,False,13,-1,0,7
Y2-S2-120K25,3,257,PS,exp,38,→,right,→,0.5479120002128184,True,14,-1,0,7
Y2-S2-120K25,3,258,PS,exp,50,←,left,←,0.5420433999970555,True,14,-1,0,7
Y2-S2-120K25,3,259,PS,exp,38,→,right,→,0.5972645999863744,True,14,1,1,8
Y2-S2-120K25,3,260,PS,exp,37,↓,down,↓,0.8531584003940225,True,13,1,0,8
Y2-S2-120K25,3,261,PS,exp,50,←,down,↓,0.6885086996480823,False,13,-1,1,9
Y2-S2-120K25,3,262,PS,exp,42,↓,down,↓,0.6426686998456717,True,14,-1,0,9
Y2-S2-120K25,3,263,PS,exp,32,↑,up,↑,0.6392352003604174,True,14,-1,0,9
Y2-S2-120K25,3,264,PS,exp,43,↓,down,↓,0.6848785001784563,True,14,1,1,10
Y2-S2-120K25,3,265,PS,exp,36,←,right,→,0.7134392000734806,False,13,-1,1,11
Y2-S2-120K25,3,266,PS,exp,38,↑,right,→,1.3535408996976912,False,14,-1,0,11
Y2-S2-120K25,3,267,PS,exp,25,↓,no_key,no_letter,-1.0,False,15,-1,0,11
Y2-S2-120K25,3,268,PS,exp,38,←,down,↓,0.7379966001026332,False,16,-1,0,11
Y2-S2-120K25,3,269,PS,exp,44,↓,down,↓,0.5431734998710454,True,17,-1,0,11
Y2-S2-120K25,3,270,PS,exp,50,↑,up,↑,0.6882138000801206,True,17,-1,0,11
Y2-S2-120K25,3,271,PS,exp,39,↓,down,↓,0.5003657001070678,True,17,1,1,12
Y2-S2-120K25,3,272,PS,exp,50,←,down,↓,1.0282472004182637,False,16,-1,1,13
Y2-S2-120K25,3,273,PS,exp,29,↓,down,↓,0.5839021997526288,True,17,-1,0,13
Y2-S2-120K25,3,274,PS,exp,34,→,right,→,0.5139162996783853,True,17,-1,0,13
Y2-S2-120K25,3,275,PS,exp,33,←,left,←,0.5804376001469791,True,17,1,1,14
Y2-S2-120K25,3,276,PS,exp,34,→,right,→,0.45827209996059537,True,16,1,0,14
Y2-S2-120K25,3,277,PS,exp,37,←,left,←,0.6153704999014735,True,16,1,0,14
Y2-S2-120K25,3,278,PS,exp,35,↓,down,↓,1.7185057001188397,True,16,1,0,14
Y2-S2-120K25,3,279,PS,exp,34,→,right,→,0.5693594999611378,True,15,1,0,14
Y2-S2-120K25,3,280,PS,exp,27,↓,down,↓,0.6269140997901559,True,15,1,0,14
Y2-S2-120K25,3,281,PS,exp,46,←,left,←,0.46303260000422597,True,15,1,0,14
Y2-S2-120K25,3,282,PS,exp,36,↑,down,↓,0.9297202997840941,False,14,-1,1,15
Y2-S2-120K25,3,283,PS,exp,34,→,right,→,0.6088511999696493,True,15,-1,0,15
Y2-S2-120K25,3,284,PS,exp,35,↓,down,↓,0.4802137999795377,True,15,-1,0,15
Y2-S2-120K25,3,285,PS,exp,33,←,left,←,0.5094643998891115,True,15,1,1,16
Y2-S2-120K25,4,286,AS,intra_train,48,↓,down,↓,1.2412727000191808,True,30,-,-,-
Y2-S2-120K25,4,287,AS,intra_train,26,←,left,←,0.777325099799782,True,30,-,-,-
Y2-S2-120K25,4,288,AS,intra_train,43,→,right,→,0.767922599799931,True,30,-,-,-
Y2-S2-120K25,4,289,AS,intra_train,49,↓,down,↓,0.5839768997393548,True,30,-,-,-
Y2-S2-120K25,4,290,AS,intra_train,50,←,left,←,0.721316899638623,True,30,-,-,-
Y2-S2-120K25,4,291,AS,exp,36,↓,down,↓,0.4675340000540018,True,20,0,0,0
Y2-S2-120K25,4,292,AS,exp,25,←,right,→,0.9172797999344766,False,20,-1,0,0
Y2-S2-120K25,4,293,AS,exp,42,→,right,→,0.6892482000403106,True,21,-1,0,0
Y2-S2-120K25,4,294,AS,exp,29,←,left,←,0.5536246001720428,True,21,-1,0,0
Y2-S2-120K25,4,295,AS,exp,25,↑,up,↑,0.9662601999007165,True,21,1,1,1
Y2-S2-120K25,4,296,AS,exp,36,←,down,↓,1.0982707999646664,False,20,-1,1,2
Y2-S2-120K25,4,297,AS,exp,44,↓,down,↓,0.706788600422442,True,21,-1,0,2
Y2-S2-120K25,4,298,AS,exp,43,→,right,→,0.7133059999905527,True,21,-1,0,2
Y2-S2-120K25,4,299,AS,exp,46,↑,up,↑,0.7521874001249671,True,21,1,1,3
Y2-S2-120K25,4,300,AS,exp,43,→,right,→,0.7020531999878585,True,20,1,0,3
Y2-S2-120K25,4,301,AS,exp,29,↓,down,↓,0.5667791999876499,True,20,1,0,3
Y2-S2-120K25,4,302,AS,exp,28,↑,up,↑,0.8187553999014199,True,20,1,0,3
Y2-S2-120K25,4,303,AS,exp,29,→,right,→,0.4338930998928845,True,19,1,0,3
Y2-S2-120K25,4,304,AS,exp,42,↓,down,↓,1.2792790997773409,True,19,1,0,3
Y2-S2-120K25,4,305,AS,exp,43,↑,up,↑,0.761359800118953,True,19,1,0,3
Y2-S2-120K25,4,306,AS,exp,30,↓,down,↓,0.7017355998978019,True,18,1,0,3
Y2-S2-120K25,4,307,AS,exp,36,→,right,→,0.702299399767071,True,18,1,0,3
Y2-S2-120K25,4,308,AS,exp,40,←,left,←,0.7094643996097147,True,18,1,0,3
Y2-S2-120K25,4,309,AS,exp,30,↑,up,↑,0.6395485000684857,True,17,1,0,3
Y2-S2-120K25,4,310,AS,exp,35,↓,down,↓,0.5736270998604596,True,17,1,0,3
Y2-S2-120K25,4,311,AS,exp,49,←,right,→,0.760820500086993,False,17,-1,1,4
Y2-S2-120K25,4,312,AS,exp,40,↓,down,↓,0.5688908998854458,True,18,-1,0,4
Y2-S2-120K25,4,313,AS,exp,39,→,right,→,1.0956465997733176,True,18,-1,0,4
Y2-S2-120K25,4,314,AS,exp,25,↑,down,↓,0.751666999887675,False,18,-1,0,4
Y2-S2-120K25,4,315,AS,exp,41,↓,down,↓,0.6700392002239823,True,19,-1,0,4
Y2-S2-120K25,4,316,AS,exp,50,↑,up,↑,0.8899437999352813,True,19,-1,0,4
Y2-S2-120K25,4,317,AS,exp,26,↓,down,↓,0.8969756001606584,True,19,1,1,5
Y2-S2-120K25,4,318,AS,exp,29,→,right,→,0.9207374998368323,True,18,1,0,5
Y2-S2-120K25,4,319,AS,exp,26,←,left,←,0.6542097995989025,True,18,1,0,5
Y2-S2-120K25,4,320,AS,exp,33,↑,right,→,0.9379441998898983,False,18,-1,1,6
Y2-S2-120K25,4,321,AS,exp,46,↓,down,↓,0.639372699894011,True,19,-1,0,6
Y2-S2-120K25,4,322,AS,exp,47,↑,up,↑,0.5836928002536297,True,19,-1,0,6
Y2-S2-120K25,4,323,AS,exp,44,↓,up,↑,0.7996188001707196,False,19,-1,0,6
Y2-S2-120K25,4,324,AS,exp,43,↑,up,↑,0.8659782996401191,True,20,-1,0,6
Y2-S2-120K25,4,325,AS,exp,47,↓,down,↓,0.6286522001028061,True,20,-1,0,6
Y2-S2-120K25,4,326,AS,exp,34,←,left,←,0.9703735001385212,True,20,1,1,7
Y2-S2-120K25,4,327,AS,exp,47,↑,up,↑,0.5890553002245724,True,19,1,0,7
Y2-S2-120K25,4,328,AS,exp,38,→,right,→,0.6662498000077903,True,19,1,0,7
Y2-S2-120K25,4,329,AS,exp,32,↑,up,↑,0.5772727001458406,True,19,1,0,7
Y2-S2-120K25,4,330,AS,exp,30,←,down,↓,0.8777046999894083,False,18,-1,1,8
Y2-S2-120K25,4,331,AS,exp,42,↑,up,↑,0.5157385999336839,True,19,-1,0,8
Y2-S2-120K25,4,332,AS,exp,41,→,right,→,0.5516503001563251,True,19,-1,0,8
Y2-S2-120K25,4,333,AS,exp,33,↑,up,↑,0.6982976999133825,True,19,1,1,9
Y2-S2-120K25,4,334,AS,exp,43,→,right,→,0.5216824999079108,True,18,1,0,9
Y2-S2-120K25,4,335,AS,exp,50,↓,down,↓,0.628305200021714,True,18,1,0,9
Y2-S2-120K25,4,336,AS,exp,31,↑,down,↓,0.8190007000230253,False,18,-1,1,10
Y2-S2-120K25,4,337,AS,exp,39,←,left,←,0.7238438003696501,True,19,-1,0,10
Y2-S2-120K25,4,338,AS,exp,37,→,right,→,0.5310917003080249,True,19,-1,0,10
Y2-S2-120K25,4,339,AS,exp,27,←,left,←,0.6308988002128899,True,19,1,1,11
Y2-S2-120K25,4,340,AS,exp,33,↑,right,→,0.6995557998307049,False,18,-1,1,12
Y2-S2-120K25,4,341,AS,exp,25,↓,up,↑,0.7617131001316011,False,19,-1,0,12
Y2-S2-120K25,4,342,AS,exp,34,↑,up,↑,0.6993040000088513,True,20,-1,0,12
Y2-S2-120K25,4,343,AS,exp,49,→,right,→,0.38445379957556725,True,20,-1,0,12
Y2-S2-120K25,4,344,AS,exp,50,←,left,←,0.7398263001814485,True,20,1,1,13
Y2-S2-120K25,4,345,AS,exp,39,↓,down,↓,0.7084872000850737,True,19,1,0,13
Y2-S2-120K25,4,346,AS,exp,27,→,right,→,0.5405006003566086,True,19,1,0,13
Y2-S2-120K25,4,347,AS,exp,50,←,left,←,0.7767850998789072,True,19,1,0,13
Y2-S2-120K25,4,348,AS,exp,28,↓,right,→,1.2547169998288155,False,18,-1,1,14
Y2-S2-120K25,4,349,AS,exp,25,←,left,←,0.5238775997422636,True,19,-1,0,14
Y2-S2-120K25,4,350,AS,exp,43,→,right,→,0.5593562996946275,True,19,-1,0,14
Y2-S2-120K25,4,351,AS,exp,26,←,left,←,0.5450597000308335,True,19,1,1,15
Y2-S2-120K25,4,352,AS,exp,50,↑,right,→,0.7820497998036444,False,18,-1,1,16
Y2-S2-120K25,5,353,AS,intra_train,33,↓,down,↓,0.6758222999051213,True,30,-,-,-
Y2-S2-120K25,5,354,AS,intra_train,49,→,right,→,0.7144859000109136,True,30,-,-,-
Y2-S2-120K25,5,355,AS,intra_train,36,←,left,←,0.5005773999728262,True,30,-,-,-
Y2-S2-120K25,5,356,AS,intra_train,40,→,right,→,0.6341980998404324,True,30,-,-,-
Y2-S2-120K25,5,357,AS,intra_train,49,←,left,←,0.5837900000624359,True,30,-,-,-
Y2-S2-120K25,5,358,AS,exp,30,→,right,→,0.7613571002148092,True,20,0,0,0
Y2-S2-120K25,5,359,AS,exp,33,↑,up,↑,0.8466424997895956,True,20,0,0,0
Y2-S2-120K25,5,360,AS,exp,45,↓,up,↑,0.9001406999304891,False,20,-1,0,0
Y2-S2-120K25,5,361,AS,exp,43,←,left,←,0.7726312996819615,True,21,-1,0,0
Y2-S2-120K25,5,362,AS,exp,43,↓,down,↓,0.6805930999107659,True,21,-1,0,0
Y2-S2-120K25,5,363,AS,exp,37,→,right,→,0.6396114001981914,True,21,1,1,1
Y2-S2-120K25,5,364,AS,exp,27,↓,down,↓,0.657148199621588,True,20,1,0,1
Y2-S2-120K25,5,365,AS,exp,31,→,right,→,0.6219950001686811,True,20,1,0,1
Y2-S2-120K25,5,366,AS,exp,33,↓,down,↓,0.5678048999980092,True,20,1,0,1
Y2-S2-120K25,5,367,AS,exp,32,←,left,←,1.1935804998502135,True,19,1,0,1
Y2-S2-120K25,5,368,AS,exp,43,→,right,→,0.6102709998376667,True,19,1,0,1
Y2-S2-120K25,5,369,AS,exp,41,↓,down,↓,0.8630217001773417,True,19,1,0,1
Y2-S2-120K25,5,370,AS,exp,34,↑,up,↑,1.4060761001892388,True,18,1,0,1
Y2-S2-120K25,5,371,AS,exp,29,→,right,→,1.162707599811256,True,18,1,0,1
Y2-S2-120K25,5,372,AS,exp,31,↓,down,↓,0.6536420001648366,True,18,1,0,1
Y2-S2-120K25,5,373,AS,exp,26,→,right,→,0.6187374000437558,True,17,1,0,1
Y2-S2-120K25,5,374,AS,exp,37,↑,up,↑,0.7214537998661399,True,17,1,0,1
Y2-S2-120K25,5,375,AS,exp,40,→,right,→,0.40062319999560714,True,17,1,0,1
Y2-S2-120K25,5,376,AS,exp,33,↓,up,↑,0.9351739003323019,False,16,-1,1,2
Y2-S2-120K25,5,377,AS,exp,35,←,left,←,0.5275379000231624,True,17,-1,0,2
Y2-S2-120K25,5,378,AS,exp,38,→,right,→,0.45435089990496635,True,17,-1,0,2
Y2-S2-120K25,5,379,AS,exp,29,↓,up,↑,0.820819600019604,False,17,-1,0,2
Y2-S2-120K25,5,380,AS,exp,25,→,down,↓,0.960842200089246,False,18,-1,0,2
Y2-S2-120K25,5,381,AS,exp,27,↑,up,↑,0.5955412001349032,True,19,-1,0,2
Y2-S2-120K25,5,382,AS,exp,46,→,right,→,0.6911492999643087,True,19,-1,0,2
Y2-S2-120K25,5,383,AS,exp,47,↓,up,↑,1.087994100060314,False,19,-1,0,2
Y2-S2-120K25,5,384,AS,exp,30,→,right,→,0.6441711001098156,True,20,-1,0,2
Y2-S2-120K25,5,385,AS,exp,50,↓,down,↓,0.6363609000109136,True,20,-1,0,2
Y2-S2-120K25,5,386,AS,exp,41,↑,up,↑,0.8428421001881361,True,20,1,1,3
Y2-S2-120K25,5,387,AS,exp,50,←,left,←,0.6278772000223398,True,19,1,0,3
Y2-S2-120K25,5,388,AS,exp,39,↓,right,→,0.6499222000129521,False,19,-1,1,4
Y2-S2-120K25,5,389,AS,exp,38,←,left,←,0.6985248001292348,True,20,-1,0,4
Y2-S2-120K25,5,390,AS,exp,37,↑,up,↑,1.895198400132358,True,20,-1,0,4
Y2-S2-120K25,5,391,AS,exp,34,↓,down,↓,0.5262716002762318,True,20,1,1,5
Y2-S2-120K25,5,392,AS,exp,27,↑,down,↓,0.7755044000223279,False,19,-1,1,6
Y2-S2-120K25,5,393,AS,exp,30,↓,down,↓,0.6182732000015676,True,20,-1,0,6
Y2-S2-120K25,5,394,AS,exp,30,←,left,←,0.9804277997463942,True,20,-1,0,6
Y2-S2-120K25,5,395,AS,exp,46,↑,up,↑,0.8591199000366032,True,20,1,1,7
Y2-S2-120K25,5,396,AS,exp,40,←,right,→,0.4507847996428609,False,19,-1,1,8
Y2-S2-120K25,5,397,AS,exp,49,↓,down,↓,0.674583200365305,True,20,-1,0,8
Y2-S2-120K25,5,398,AS,exp,40,→,right,→,0.7301833000965416,True,20,-1,0,8
Y2-S2-120K25,5,399,AS,exp,42,↑,up,↑,1.003111899830401,True,20,1,1,9
Y2-S2-120K25,5,400,AS,exp,49,→,right,→,0.7390453000552952,True,19,1,0,9
Y2-S2-120K25,5,401,AS,exp,34,↑,up,↑,0.6518186000175774,True,19,1,0,9
Y2-S2-120K25,5,402,AS,exp,40,↓,down,↓,0.400740799959749,True,19,1,0,9
Y2-S2-120K25,5,403,AS,exp,37,←,left,←,0.6540051000192761,True,18,1,0,9
Y2-S2-120K25,5,404,AS,exp,43,→,right,→,0.82048249989748,True,18,1,0,9
Y2-S2-120K25,5,405,AS,exp,49,↓,down,↓,0.752337499987334,True,18,1,0,9
Y2-S2-120K25,5,406,AS,exp,37,↑,up,↑,0.8436385998502374,True,17,1,0,9
Y2-S2-120K25,5,407,AS,exp,46,→,right,→,0.5572150000371039,True,17,1,0,9
Y2-S2-120K25,5,408,AS,exp,50,←,right,→,0.6790061998181045,False,17,-1,1,10
Y2-S2-120K25,5,409,AS,exp,28,↑,right,→,0.779194800183177,False,18,-1,0,10
Y2-S2-120K25,5,410,AS,exp,50,→,right,→,0.7799957999959588,True,19,-1,0,10
Y2-S2-120K25,5,411,AS,exp,48,←,down,↓,1.013957700226456,False,19,-1,0,10
Y2-S2-120K25,5,412,AS,exp,41,↓,down,↓,0.8380189002491534,True,20,-1,0,10
Y2-S2-120K25,5,413,AS,exp,32,←,left,←,0.6261392999440432,True,20,-1,0,10
Y2-S2-120K25,5,414,AS,exp,43,↓,down,↓,0.7326384000480175,True,20,1,1,11
Y2-S2-120K25,5,415,AS,exp,36,→,right,→,0.6068596001714468,True,19,1,0,11
Y2-S2-120K25,5,416,AS,exp,49,↑,up,↑,1.4884448000229895,True,19,1,0,11
Y2-S2-120K25,5,417,AS,exp,29,↓,down,↓,0.657929299864918,True,19,1,0,11
Y2-S2-120K25,5,418,AS,exp,29,←,left,←,0.4811156000941992,True,18,1,0,11
Y2-S2-120K25,5,419,AS,exp,43,→,right,→,0.6164470002986491,True,18,1,0,11
Y2-S2-120K25,5,420,AS,exp,33,←,left,←,0.5168141000904143,True,18,1,0,11
Y2-S2-120K25,5,421,AS,exp,35,→,right,→,0.537737499922514,True,17,1,0,11
Y2-S2-120K25,5,422,AS,exp,48,←,right,→,0.7958293999545276,False,17,-1,1,12
Y2-S2-120K25,5,423,AS,exp,33,↓,down,↓,0.5199946998618543,True,18,-1,0,12
Y2-S2-120K25,5,424,AS,exp,49,←,left,←,0.5075612999498844,True,18,-1,0,12
Y2-S2-120K25,5,425,AS,exp,41,↓,down,↓,0.5564619000069797,True,18,1,1,13
Y2-S2-120K25,5,426,AS,exp,25,←,left,←,0.7011877000331879,True,17,1,0,13
Y2-S2-120K25,5,427,AS,exp,28,↓,left,←,0.4936152999289334,False,17,-1,1,14
Y2-S2-120K25,5,428,AS,exp,31,←,left,←,0.4338064999319613,True,18,-1,0,14
Y2-S2-120K25,5,429,AS,exp,39,→,right,→,0.3174016000702977,True,18,-1,0,14
Y2-S2-120K25,5,430,AS,exp,39,←,right,→,0.4968973002396524,False,18,-1,0,14
Y2-S2-120K25,5,431,AS,exp,32,↑,left,←,0.6525328001007438,False,19,-1,0,14
Y2-S2-120K25,5,432,AS,exp,28,→,left,←,0.5934228003025055,False,20,-1,0,14
Y2-S2-120K25,5,433,AS,exp,32,←,left,←,0.5860220002941787,True,21,-1,0,14
Y2-S2-120K25,5,434,AS,exp,35,→,right,→,0.6069947998039424,True,21,-1,0,14
Y2-S2-120K25,5,435,AS,exp,29,↓,right,→,0.3671150002628565,False,21,-1,0,14
Y2-S2-120K25,5,436,AS,exp,50,←,down,↓,0.5867107002995908,False,22,-1,0,14
Y2-S2-120K25,5,437,AS,exp,30,→,left,←,0.6276094000786543,False,23,-1,0,14
Y2-S2-120K25,5,438,AS,exp,49,↓,down,↓,0.620197799988091,True,24,-1,0,14
Y2-S2-120K25,5,439,AS,exp,25,←,left,←,0.6371251000091434,True,24,-1,0,14
Y2-S2-120K25,5,440,AS,exp,40,↓,left,←,0.6193416002206504,False,24,-1,0,14
Y2-S2-120K25,5,441,AS,exp,34,←,left,←,0.7793087000027299,True,25,-1,0,14
Y2-S2-120K25,5,442,AS,exp,34,↑,up,↑,0.6663265000097454,True,25,-1,0,14
Y2-S2-120K25,5,443,AS,exp,38,↓,down,↓,0.6771471998654306,True,25,1,1,15
Y2-S2-120K25,5,444,AS,exp,33,→,right,→,0.7035580999217927,True,24,1,0,15
Y2-S2-120K25,5,445,AS,exp,38,↓,down,↓,0.5338999000377953,True,24,1,0,15
Y2-S2-120K25,5,446,AS,exp,39,↑,up,↑,0.6213070000521839,True,24,1,0,15
Y2-S2-120K25,5,447,AS,exp,27,←,left,←,0.8187116999179125,True,23,1,0,15
Y2-S2-120K25,5,448,AS,exp,39,→,right,→,0.5171220996417105,True,23,1,0,15
Y2-S2-120K25,5,449,AS,exp,29,←,left,←,0.5169913000427186,True,23,1,0,15
Y2-S2-120K25,5,450,AS,exp,47,→,right,→,0.46743670012801886,True,22,1,0,15
Y2-S2-120K25,5,451,AS,exp,49,←,left,←,0.4837552001699805,True,22,1,0,15
Y2-S2-120K25,5,452,AS,exp,43,↑,right,→,0.9174032998271286,False,22,-1,1,16
Y2-S2-120K25,6,453,PS,intra_train,45,↓,up,↑,0.9317147000692785,False,13,-,-,-
Y2-S2-120K25,6,454,PS,intra_train,35,↑,up,↑,1.2656425000168383,True,13,-,-,-
Y2-S2-120K25,6,455,PS,intra_train,28,←,left,←,0.8199380999431014,True,13,-,-,-
Y2-S2-120K25,6,456,PS,intra_train,43,↓,down,↓,0.8585700001567602,True,13,-,-,-
Y2-S2-120K25,6,457,PS,intra_train,34,↑,up,↑,0.4888625000603497,True,13,-,-,-
Y2-S2-120K25,6,458,PS,exp,40,↓,up,↑,0.7790697999298573,False,9,-1,0,0
Y2-S2-120K25,6,459,PS,exp,30,→,right,→,0.4904646002687514,True,10,-1,0,0
Y2-S2-120K25,6,460,PS,exp,46,↓,left,←,0.6171724000014365,False,10,-1,0,0
Y2-S2-120K25,6,461,PS,exp,41,↑,right,→,0.810236300341785,False,11,-1,0,0
Y2-S2-120K25,6,462,PS,exp,42,→,right,→,0.5520000997930765,True,12,-1,0,0
Y2-S2-120K25,6,463,PS,exp,36,←,right,→,0.7666449001990259,False,12,-1,0,0
Y2-S2-120K25,6,464,PS,exp,41,↓,down,↓,0.7428107000887394,True,13,-1,0,0
Y2-S2-120K25,6,465,PS,exp,49,←,left,←,0.5128504000604153,True,13,-1,0,0
Y2-S2-120K25,6,466,PS,exp,29,→,right,→,0.6203094003722072,True,13,1,1,1
Y2-S2-120K25,6,467,PS,exp,26,↑,right,→,0.6739655002020299,False,12,-1,1,2
Y2-S2-120K25,6,468,PS,exp,32,←,right,→,0.5517927003093064,False,13,-1,0,2
Y2-S2-120K25,6,469,PS,exp,28,↑,up,↑,0.5751931997947395,True,14,-1,0,2
Y2-S2-120K25,6,470,PS,exp,29,→,right,→,0.43660120014101267,True,14,-1,0,2
Y2-S2-120K25,6,471,PS,exp,36,←,left,←,0.3346029999665916,True,14,1,1,3
Y2-S2-120K25,6,472,PS,exp,34,→,right,→,0.4201160999946296,True,13,1,0,3
Y2-S2-120K25,6,473,PS,exp,50,←,left,←,0.7222262001596391,True,13,1,0,3
Y2-S2-120K25,6,474,PS,exp,30,→,right,→,0.35079789999872446,True,13,1,0,3
Y2-S2-120K25,6,475,PS,exp,33,←,left,←,1.3456218000501394,True,12,1,0,3
Y2-S2-120K25,6,476,PS,exp,25,→,right,→,0.43253299966454506,True,12,1,0,3
Y2-S2-120K25,6,477,PS,exp,34,←,left,←,0.4856877001002431,True,12,1,0,3
Y2-S2-120K25,6,478,PS,exp,30,→,right,→,0.3690749001689255,True,11,1,0,3
Y2-S2-120K25,6,479,PS,exp,26,↓,right,→,1.2095874003134668,False,11,-1,1,4
Y2-S2-120K25,6,480,PS,exp,28,←,left,←,0.4178674998693168,True,12,-1,0,4
Y2-S2-120K25,6,481,PS,exp,30,↓,down,↓,0.45358769968152046,True,12,-1,0,4
Y2-S2-120K25,6,482,PS,exp,40,←,left,←,0.4615625999867916,True,12,1,1,5
Y2-S2-120K25,6,483,PS,exp,28,↑,up,↑,0.5511644999496639,True,11,1,0,5
Y2-S2-120K25,6,484,PS,exp,43,←,left,←,0.5161464000120759,True,11,1,0,5
Y2-S2-120K25,6,485,PS,exp,45,↓,down,↓,0.5013156998902559,True,11,1,0,5
Y2-S2-120K25,6,486,PS,exp,50,↑,left,←,0.592321699950844,False,10,-1,1,6
Y2-S2-120K25,6,487,PS,exp,25,←,left,←,0.3899004999548197,True,11,-1,0,6
Y2-S2-120K25,6,488,PS,exp,47,→,right,→,0.49553950037807226,True,11,-1,0,6
Y2-S2-120K25,6,489,PS,exp,25,←,left,←,0.43281150003895164,True,11,1,1,7
Y2-S2-120K25,6,490,PS,exp,31,↓,right,→,0.7705950001254678,False,10,-1,1,8
Y2-S2-120K25,6,491,PS,exp,30,→,down,↓,1.3666661996394396,False,11,-1,0,8
Y2-S2-120K25,6,492,PS,exp,34,↓,up,↑,0.7738871001638472,False,12,-1,0,8
Y2-S2-120K25,6,493,PS,exp,39,→,right,→,0.9059415999799967,True,13,-1,0,8
Y2-S2-120K25,6,494,PS,exp,50,←,left,←,0.8725899998098612,True,13,-1,0,8
Y2-S2-120K25,6,495,PS,exp,41,↓,down,↓,0.47326190024614334,True,13,1,1,9
Y2-S2-120K25,6,496,PS,exp,38,←,left,←,0.4406888000667095,True,12,1,0,9
Y2-S2-120K25,6,497,PS,exp,45,↑,right,→,0.7821897999383509,False,12,-1,1,10
Y2-S2-120K25,6,498,PS,exp,38,←,left,←,0.49647439969703555,True,13,-1,0,10
Y2-S2-120K25,6,499,PS,exp,49,→,right,→,0.679986400064081,True,13,-1,0,10
Y2-S2-120K25,6,500,PS,exp,44,↑,up,↑,0.6771689001470804,True,13,1,1,11
Y2-S2-120K25,6,501,PS,exp,41,↓,down,↓,0.598083300050348,True,12,1,0,11
Y2-S2-120K25,6,502,PS,exp,36,↑,down,↓,0.6910585002042353,False,12,-1,1,12
Y2-S2-120K25,6,503,PS,exp,34,↓,down,↓,0.5057777999900281,True,13,-1,0,12
Y2-S2-120K25,6,504,PS,exp,46,↑,down,↓,0.6232002000324428,False,13,-1,0,12
Y2-S2-120K25,6,505,PS,exp,30,→,down,↓,0.4803851996548474,False,14,-1,0,12
Y2-S2-120K25,6,506,PS,exp,30,↑,up,↑,0.5704250000417233,True,15,-1,0,12
Y2-S2-120K25,6,507,PS,exp,33,←,left,←,0.4633605000562966,True,15,-1,0,12
Y2-S2-120K25,6,508,PS,exp,25,→,right,→,0.5018092002719641,True,15,1,1,13
Y2-S2-120K25,6,509,PS,exp,42,↓,down,↓,0.4500541999004781,True,14,1,0,13
Y2-S2-120K25,6,510,PS,exp,36,→,right,→,0.6285306001082063,True,14,1,0,13
Y2-S2-120K25,6,511,PS,exp,41,←,left,←,0.49623489985242486,True,14,1,0,13
Y2-S2-120K25,6,512,PS,exp,47,→,right,→,0.46272609988227487,True,13,1,0,13
Y2-S2-120K25,6,513,PS,exp,46,↑,up,↑,1.199742800090462,True,13,1,0,13
Y2-S2-120K25,6,514,PS,exp,37,←,left,←,0.784075400326401,True,13,1,0,13
Y2-S2-120K25,6,515,PS,exp,41,→,right,→,0.624696800019592,True,12,1,0,13
Y2-S2-120K25,6,516,PS,exp,44,←,left,←,0.51995600014925,True,12,1,0,13
Y2-S2-120K25,6,517,PS,exp,49,→,right,→,0.44853589963167906,True,12,1,0,13
Y2-S2-120K25,6,518,PS,exp,40,↑,up,↑,1.5364421997219324,True,11,1,0,13
Y2-S2-120K25,6,519,PS,exp,44,←,left,←,0.657952600158751,True,11,1,0,13
Y2-S2-120K25,6,520,PS,exp,43,→,up,↑,0.6828832998871803,False,11,-1,1,14
Y2-S2-120K25,6,521,PS,exp,27,↑,right,→,0.5026136999949813,False,12,-1,0,14
Y2-S2-120K25,6,522,PS,exp,38,→,up,↑,0.6583791999146342,False,13,-1,0,14
Y2-S2-120K25,6,523,PS,exp,40,↓,up,↑,0.9297484001144767,False,14,-1,0,14
Y2-S2-120K25,6,524,PS,exp,45,↑,up,↑,0.7818706999532878,True,15,-1,0,14
Y2-S2-120K25,6,525,PS,exp,39,←,left,←,0.7670076000504196,True,15,-1,0,14
Y2-S2-120K25,6,526,PS,exp,34,↓,down,↓,0.4805617001838982,True,15,1,1,15
Y2-S2-120K25,6,527,PS,exp,31,→,right,→,0.577328700106591,True,14,1,0,15
Y2-S2-120K25,6,528,PS,exp,41,↓,down,↓,0.5905026998370886,True,14,1,0,15
Y2-S2-120K25,6,529,PS,exp,49,→,right,→,0.5536590996198356,True,14,1,0,15
Y2-S2-120K25,6,530,PS,exp,38,↓,left,←,0.9677582997828722,False,13,-1,1,16
Y2-S2-120K25,7,531,PS,intra_train,32,←,left,←,0.6104608001187444,True,13,-,-,-
Y2-S2-120K25,7,532,PS,intra_train,44,↑,up,↑,0.5397502002306283,True,13,-,-,-
Y2-S2-120K25,7,533,PS,intra_train,25,←,left,←,0.49024639977142215,True,13,-,-,-
Y2-S2-120K25,7,534,PS,intra_train,25,↓,down,↓,0.6028271997347474,True,13,-,-,-
Y2-S2-120K25,7,535,PS,intra_train,27,←,left,←,0.4419677001424134,True,13,-,-,-
Y2-S2-120K25,7,536,PS,exp,27,↑,up,↑,0.45233239978551865,True,9,0,0,0
Y2-S2-120K25,7,537,PS,exp,36,↓,down,↓,0.7458522999659181,True,9,0,0,0
Y2-S2-120K25,7,538,PS,exp,43,↑,left,←,0.5822467999532819,False,9,-1,0,0
Y2-S2-120K25,7,539,PS,exp,40,→,right,→,0.37274409970268607,True,10,-1,0,0
Y2-S2-120K25,7,540,PS,exp,28,↑,up,↑,0.4611247000284493,True,10,-1,0,0
Y2-S2-120K25,7,541,PS,exp,45,→,down,↓,0.6230991999618709,False,10,-1,0,0
Y2-S2-120K25,7,542,PS,exp,36,←,up,↑,0.659470499958843,False,11,-1,0,0
Y2-S2-120K25,7,543,PS,exp,31,↓,down,↓,0.5457534999586642,True,12,-1,0,0
Y2-S2-120K25,7,544,PS,exp,34,↑,up,↑,0.5327365002594888,True,12,-1,0,0
Y2-S2-120K25,7,545,PS,exp,45,←,down,↓,0.8488743999041617,False,12,-1,0,0
Y2-S2-120K25,7,546,PS,exp,36,↑,down,↓,0.779012099839747,False,13,-1,0,0
Y2-S2-120K25,7,547,PS,exp,43,←,up,↑,0.6575745004229248,False,14,-1,0,0
Y2-S2-120K25,7,548,PS,exp,35,↓,down,↓,0.6968502998352051,True,15,-1,0,0
Y2-S2-120K25,7,549,PS,exp,43,↑,up,↑,0.5169978002086282,True,15,-1,0,0
Y2-S2-120K25,7,550,PS,exp,25,↓,down,↓,0.4907828001305461,True,15,1,1,1
Y2-S2-120K25,7,551,PS,exp,46,→,right,→,0.5521128000691533,True,14,1,0,1
Y2-S2-120K25,7,552,PS,exp,29,↑,up,↑,0.5064228996634483,True,14,1,0,1
Y2-S2-120K25,7,553,PS,exp,35,→,down,↓,0.7403698000125587,False,14,-1,1,2
Y2-S2-120K25,7,554,PS,exp,34,↑,down,↓,0.9156281999312341,False,15,-1,0,2
Y2-S2-120K25,7,555,PS,exp,32,←,left,←,1.442803899757564,True,16,-1,0,2
Y2-S2-120K25,7,556,PS,exp,47,→,right,→,0.48077249992638826,True,16,-1,0,2
Y2-S2-120K25,7,557,PS,exp,32,↓,down,↓,0.5760643002577126,True,16,1,1,3
Y2-S2-120K25,7,558,PS,exp,49,↑,up,↑,0.5684100999496877,True,15,1,0,3
Y2-S2-120K25,7,559,PS,exp,27,←,left,←,0.635721200145781,True,15,1,0,3
Y2-S2-120K25,7,560,PS,exp,33,↑,up,↑,0.6749245999380946,True,15,1,0,3
Y2-S2-120K25,7,561,PS,exp,46,↓,down,↓,0.6139842001721263,True,14,1,0,3
Y2-S2-120K25,7,562,PS,exp,49,→,right,→,1.0898989997804165,True,14,1,0,3
Y2-S2-120K25,7,563,PS,exp,28,↓,right,→,0.4446812001988292,False,14,-1,1,4
Y2-S2-120K25,7,564,PS,exp,31,↑,up,↑,0.7314909999258816,True,15,-1,0,4
Y2-S2-120K25,7,565,PS,exp,33,→,right,→,0.494790299795568,True,15,-1,0,4
Y2-S2-120K25,7,566,PS,exp,36,↑,right,→,1.2972685997374356,False,15,-1,0,4
Y2-S2-120K25,7,567,PS,exp,41,→,right,→,0.3839472997933626,True,16,-1,0,4
Y2-S2-120K25,7,568,PS,exp,40,↓,down,↓,0.45862630009651184,True,16,-1,0,4
Y2-S2-120K25,7,569,PS,exp,43,←,left,←,0.5452486998401582,True,16,1,1,5
Y2-S2-120K25,7,570,PS,exp,28,→,right,→,0.6167935002595186,True,15,1,0,5
Y2-S2-120K25,7,571,PS,exp,46,↑,up,↑,0.9149660998955369,True,15,1,0,5
Y2-S2-120K25,7,572,PS,exp,27,→,right,→,0.5353610003367066,True,15,1,0,5
Y2-S2-120K25,7,573,PS,exp,40,↑,up,↑,1.0018852995708585,True,14,1,0,5
Y2-S2-120K25,7,574,PS,exp,38,←,left,←,0.527314499951899,True,14,1,0,5
Y2-S2-120K25,7,575,PS,exp,36,↑,up,↑,0.6296442002058029,True,14,1,0,5
Y2-S2-120K25,7,576,PS,exp,30,→,left,←,0.6593788000755012,False,13,-1,1,6
Y2-S2-120K25,7,577,PS,exp,29,←,left,←,0.46862930012866855,True,14,-1,0,6
Y2-S2-120K25,7,578,PS,exp,46,↑,up,↑,1.5531021999195218,True,14,-1,0,6
Y2-S2-120K25,7,579,PS,exp,47,→,right,→,0.5010685999877751,True,14,1,1,7
Y2-S2-120K25,7,580,PS,exp,26,↑,up,↑,0.6605041003786027,True,13,1,0,7
Y2-S2-120K25,7,581,PS,exp,30,→,right,→,0.44863029988482594,True,13,1,0,7
Y2-S2-120K25,7,582,PS,exp,46,←,left,←,0.4667015001177788,True,13,1,0,7
Y2-S2-120K25,7,583,PS,exp,25,↑,up,↑,0.7230678000487387,True,12,1,0,7
Y2-S2-120K25,7,584,PS,exp,30,→,right,→,0.568229400087148,True,12,1,0,7
Y2-S2-120K25,7,585,PS,exp,47,←,left,←,0.5990831996314228,True,12,1,0,7
Y2-S2-120K25,7,586,PS,exp,50,→,right,→,0.41186350025236607,True,11,1,0,7
Y2-S2-120K25,7,587,PS,exp,43,↑,right,→,0.8754937001504004,False,11,-1,1,8
Y2-S2-120K25,7,588,PS,exp,45,←,right,→,0.7977827000431716,False,12,-1,0,8
Y2-S2-120K25,7,589,PS,exp,28,↓,down,↓,0.6914503998123109,True,13,-1,0,8
Y2-S2-120K25,7,590,PS,exp,46,←,right,→,0.7094052997417748,False,13,-1,0,8
Y2-S2-120K25,7,591,PS,exp,39,→,right,→,0.5373621000908315,True,14,-1,0,8
Y2-S2-120K25,7,592,PS,exp,50,↑,up,↑,0.5344801000319421,True,14,-1,0,8
Y2-S2-120K25,7,593,PS,exp,50,↓,up,↑,0.8814237997867167,False,14,-1,0,8
Y2-S2-120K25,7,594,PS,exp,30,→,right,→,1.1355608999729156,True,15,-1,0,8
Y2-S2-120K25,7,595,PS,exp,48,↑,up,↑,0.5276220999658108,True,15,-1,0,8
Y2-S2-120K25,7,596,PS,exp,45,↓,down,↓,0.4626445001922548,True,15,1,1,9
Y2-S2-120K25,7,597,PS,exp,32,←,left,←,0.4598268000409007,True,14,1,0,9
Y2-S2-120K25,7,598,PS,exp,46,→,right,→,0.5804542996920645,True,14,1,0,9
Y2-S2-120K25,7,599,PS,exp,29,↓,down,↓,0.44983579963445663,True,14,1,0,9
Y2-S2-120K25,7,600,PS,exp,37,←,right,→,0.7769376998767257,False,13,-1,1,10
Y2-S2-120K25,7,601,PS,exp,43,→,left,←,0.7083788001909852,False,14,-1,0,10
Y2-S2-120K25,7,602,PS,exp,34,←,right,→,0.7619458995759487,False,15,-1,0,10
Y2-S2-120K25,7,603,PS,exp,35,↓,right,→,0.6735132001340389,False,16,-1,0,10
Y2-S2-120K25,7,604,PS,exp,25,→,right,→,0.4837495000101626,True,17,-1,0,10
Y2-S2-120K25,7,605,PS,exp,35,↓,down,↓,1.0639257999137044,True,17,-1,0,10
Y2-S2-120K25,7,606,PS,exp,38,↑,up,↑,0.6765533997677267,True,17,1,1,11
Y2-S2-120K25,7,607,PS,exp,38,↓,down,↓,0.47010530019178987,True,16,1,0,11
Y2-S2-120K25,7,608,PS,exp,48,↑,up,↑,1.653384500183165,True,16,1,0,11
Y2-S2-120K25,7,609,PS,exp,41,→,up,↑,0.9654534999281168,False,16,-1,1,12
Y2-S2-120K25,7,610,PS,exp,47,↑,up,↑,0.467211099807173,True,17,-1,0,12
Y2-S2-120K25,7,611,PS,exp,42,↓,down,↓,0.5967410001903772,True,17,-1,0,12
Y2-S2-120K25,7,612,PS,exp,46,←,down,↓,0.80468579987064,False,17,-1,0,12
Y2-S2-120K25,7,613,PS,exp,30,→,right,→,1.0997258997522295,True,18,-1,0,12
Y2-S2-120K25,7,614,PS,exp,50,←,left,←,0.8245133999735117,True,18,-1,0,12
Y2-S2-120K25,7,615,PS,exp,30,→,right,→,0.5668234000913799,True,18,1,1,13
Y2-S2-120K25,7,616,PS,exp,25,↓,down,↓,0.5862008999101818,True,17,1,0,13
Y2-S2-120K25,7,617,PS,exp,28,←,left,←,0.6508482000790536,True,17,1,0,13
Y2-S2-120K25,7,618,PS,exp,50,↓,down,↓,0.5346247996203601,True,17,1,0,13
Y2-S2-120K25,7,619,PS,exp,50,↑,up,↑,0.6127555002458394,True,16,1,0,13
Y2-S2-120K25,7,620,PS,exp,35,↓,up,↑,0.8677582000382245,False,16,-1,1,14
Y2-S2-120K25,7,621,PS,exp,36,↑,down,↓,0.7357911001890898,False,17,-1,0,14
Y2-S2-120K25,7,622,PS,exp,42,←,left,←,0.5597565001808107,True,18,-1,0,14
Y2-S2-120K25,7,623,PS,exp,28,→,right,→,0.6582063999958336,True,18,-1,0,14
Y2-S2-120K25,7,624,PS,exp,49,↑,up,↑,0.5092535000294447,True,18,1,1,15
Y2-S2-120K25,7,625,PS,exp,27,↓,down,↓,1.0532896001823246,True,17,1,0,15
Y2-S2-120K25,7,626,PS,exp,28,↑,up,↑,0.5564522002823651,True,17,1,0,15
Y2-S2-120K25,7,627,PS,exp,42,↓,down,↓,0.6347286999225616,True,17,1,0,15
Y2-S2-120K25,7,628,PS,exp,31,→,right,→,0.600730299949646,True,16,1,0,15
Y2-S2-120K25,7,629,PS,exp,37,←,left,←,0.5892792996019125,True,16,1,0,15
Y2-S2-120K25,7,630,PS,exp,49,→,right,→,0.6756870998069644,True,16,1,0,15
Y2-S2-120K25,7,631,PS,exp,33,↑,up,↑,0.5977594000287354,True,15,1,0,15
Y2-S2-120K25,7,632,PS,exp,47,←,left,←,0.46158350026234984,True,15,1,0,15
Y2-S2-120K25,7,633,PS,exp,48,↓,down,↓,0.5276442002505064,True,15,1,0,15
Y2-S2-120K25,7,634,PS,exp,47,→,right,→,0.7766175996512175,True,14,1,0,15
Y2-S2-120K25,7,635,PS,exp,46,←,left,←,0.5311990003101528,True,14,1,0,15
Y2-S2-120K25,7,636,PS,exp,27,→,down,↓,0.9203979000449181,False,14,-1,1,16
Y2-S2-120K25,8,637,AS,intra_train,43,↑,up,↑,1.1260257000103593,True,30,-,-,-
Y2-S2-120K25,8,638,AS,intra_train,38,←,left,←,0.6703365999273956,True,30,-,-,-
Y2-S2-120K25,8,639,AS,intra_train,28,↓,down,↓,0.7819277998059988,True,30,-,-,-
Y2-S2-120K25,8,640,AS,intra_train,37,←,left,←,0.8044082000851631,True,30,-,-,-
Y2-S2-120K25,8,641,AS,intra_train,34,↑,up,↑,0.7568806000053883,True,30,-,-,-
Y2-S2-120K25,8,642,AS,exp,29,→,right,→,0.712328199762851,True,20,0,0,0
Y2-S2-120K25,8,643,AS,exp,28,↑,up,↑,0.571571999695152,True,20,0,0,0
Y2-S2-120K25,8,644,AS,exp,26,←,left,←,0.884277899749577,True,20,1,0,0
Y2-S2-120K25,8,645,AS,exp,45,↑,up,↑,1.113015899900347,True,19,1,0,0
Y2-S2-120K25,8,646,AS,exp,44,←,left,←,0.5502486997283995,True,19,1,0,0
Y2-S2-120K25,8,647,AS,exp,33,↑,right,→,1.1422353000380099,False,19,-1,1,1
Y2-S2-120K25,8,648,AS,exp,36,→,right,→,0.6333469999954104,True,20,-1,0,1
Y2-S2-120K25,8,649,AS,exp,30,↓,down,↓,0.9048260003328323,True,20,-1,0,1
Y2-S2-120K25,8,650,AS,exp,33,↑,up,↑,0.5669767996296287,True,20,1,1,2
Y2-S2-120K25,8,651,AS,exp,35,↓,down,↓,0.6891175997443497,True,19,1,0,2
Y2-S2-120K25,8,652,AS,exp,39,→,right,→,0.5153612997382879,True,19,1,0,2
Y2-S2-120K25,8,653,AS,exp,33,←,left,←,0.6970839998684824,True,19,1,0,2
Y2-S2-120K25,8,654,AS,exp,27,→,right,→,0.6251576999202371,True,18,1,0,2
Y2-S2-120K25,8,655,AS,exp,45,↓,down,↓,0.6605401001870632,True,18,1,0,2
Y2-S2-120K25,8,656,AS,exp,31,←,down,↓,0.6698767999187112,False,18,-1,1,3
Y2-S2-120K25,8,657,AS,exp,25,↓,down,↓,0.5923333000391722,True,19,-1,0,3
Y2-S2-120K25,8,658,AS,exp,36,→,right,→,0.5140109998174012,True,19,-1,0,3
Y2-S2-120K25,8,659,AS,exp,31,↓,right,→,0.7904949001967907,False,19,-1,0,3
Y2-S2-120K25,8,660,AS,exp,27,↑,right,→,0.9429436000064015,False,20,-1,0,3
Y2-S2-120K25,8,661,AS,exp,41,→,up,↑,0.9984152996912599,False,21,-1,0,3
Y2-S2-120K25,8,662,AS,exp,48,↑,up,↑,0.7229777001775801,True,22,-1,0,3
Y2-S2-120K25,8,663,AS,exp,29,→,right,→,0.5010681999847293,True,22,-1,0,3
Y2-S2-120K25,8,664,AS,exp,29,↑,up,↑,0.43398380000144243,True,22,1,1,4
Y2-S2-120K25,8,665,AS,exp,33,↓,down,↓,1.1925741001032293,True,21,1,0,4
Y2-S2-120K25,8,666,AS,exp,41,→,right,→,1.3941688002087176,True,21,1,0,4
Y2-S2-120K25,8,667,AS,exp,39,←,left,←,0.6791281998157501,True,21,1,0,4
Y2-S2-120K25,8,668,AS,exp,39,↓,up,↑,0.6414552996866405,False,20,-1,1,5
Y2-S2-120K25,8,669,AS,exp,26,←,right,→,0.5241366000846028,False,21,-1,0,5
Y2-S2-120K25,8,670,AS,exp,41,↓,down,↓,1.3031783001497388,True,22,-1,0,5
Y2-S2-120K25,8,671,AS,exp,39,→,right,→,0.3843498998321593,True,22,-1,0,5
Y2-S2-120K25,8,672,AS,exp,37,↓,down,↓,0.7001030999235809,True,22,1,1,6
Y2-S2-120K25,8,673,AS,exp,26,↑,down,↓,0.5867091999389231,False,21,-1,1,7
Y2-S2-120K25,8,674,AS,exp,50,→,right,→,0.5007873000577092,True,22,-1,0,7
Y2-S2-120K25,8,675,AS,exp,38,↑,up,↑,1.552800899837166,True,22,-1,0,7
Y2-S2-120K25,8,676,AS,exp,28,→,up,↑,0.9665199997834861,False,22,-1,0,7
Y2-S2-120K25,8,677,AS,exp,26,←,left,←,1.0928167002275586,True,23,-1,0,7
Y2-S2-120K25,8,678,AS,exp,48,→,right,→,0.46768390014767647,True,23,-1,0,7
Y2-S2-120K25,8,679,AS,exp,45,←,left,←,1.2161906999535859,True,23,1,1,8
Y2-S2-120K25,8,680,AS,exp,48,→,right,→,0.7007710998877883,True,22,1,0,8
Y2-S2-120K25,8,681,AS,exp,41,↓,right,→,0.9913276000879705,False,22,-1,1,9
Y2-S2-120K25,8,682,AS,exp,35,↑,up,↑,0.8474614997394383,True,23,-1,0,9
Y2-S2-120K25,8,683,AS,exp,43,→,right,→,0.4335599998012185,True,23,-1,0,9
Y2-S2-120K25,8,684,AS,exp,29,↑,up,↑,0.6765584996901453,True,23,1,1,10
Y2-S2-120K25,8,685,AS,exp,44,↓,down,↓,0.7530915001407266,True,22,1,0,10
Y2-S2-120K25,8,686,AS,exp,39,←,left,←,0.654649700038135,True,22,1,0,10
Y2-S2-120K25,8,687,AS,exp,35,↓,left,←,0.8382183001376688,False,22,-1,1,11
Y2-S2-120K25,8,688,AS,exp,43,↑,up,↑,0.6245673997327685,True,23,-1,0,11
Y2-S2-120K25,8,689,AS,exp,49,←,left,←,0.7988476003520191,True,23,-1,0,11
Y2-S2-120K25,8,690,AS,exp,42,↓,down,↓,0.517480700276792,True,23,1,1,12
Y2-S2-120K25,8,691,AS,exp,42,↑,up,↑,0.8263360001146793,True,22,1,0,12
Y2-S2-120K25,8,692,AS,exp,47,↓,down,↓,1.2712202998809516,True,22,1,0,12
Y2-S2-120K25,8,693,AS,exp,49,←,left,←,0.7410165998153389,True,22,1,0,12
Y2-S2-120K25,8,694,AS,exp,48,→,right,→,1.1411593002267182,True,21,1,0,12
Y2-S2-120K25,8,695,AS,exp,31,↓,down,↓,1.139304899610579,True,21,1,0,12
Y2-S2-120K25,8,696,AS,exp,26,←,right,→,0.871958099771291,False,21,-1,1,13
Y2-S2-120K25,8,697,AS,exp,28,→,right,→,0.6061070999130607,True,22,-1,0,13
Y2-S2-120K25,8,698,AS,exp,28,↑,right,→,0.9926705001853406,False,22,-1,0,13
Y2-S2-120K25,8,699,AS,exp,41,←,left,←,0.5775481997989118,True,23,-1,0,13
Y2-S2-120K25,8,700,AS,exp,40,↑,up,↑,1.0184324001893401,True,23,-1,0,13
Y2-S2-120K25,8,701,AS,exp,31,→,right,→,0.7836989997886121,True,23,1,1,14
Y2-S2-120K25,8,702,AS,exp,37,←,left,←,0.7250724001787603,True,22,1,0,14
Y2-S2-120K25,8,703,AS,exp,28,→,right,→,0.4503466999158263,True,22,1,0,14
Y2-S2-120K25,8,704,AS,exp,29,←,left,←,1.5498160002753139,True,22,1,0,14
Y2-S2-120K25,8,705,AS,exp,30,↓,down,↓,0.627561999950558,True,21,1,0,14
Y2-S2-120K25,8,706,AS,exp,30,→,right,→,0.6551725999452174,True,21,1,0,14
Y2-S2-120K25,8,707,AS,exp,47,↓,down,↓,0.6570942997932434,True,21,1,0,14
Y2-S2-120K25,8,708,AS,exp,39,←,right,→,1.2431858000345528,False,20,-1,1,15
Y2-S2-120K25,8,709,AS,exp,38,→,right,→,0.6188070001080632,True,21,-1,0,15
Y2-S2-120K25,8,710,AS,exp,42,↓,down,↓,0.74931830028072,True,21,-1,0,15
Y2-S2-120K25,8,711,AS,exp,41,←,right,→,0.5566104999743402,False,21,-1,0,15
Y2-S2-120K25,8,712,AS,exp,38,→,down,↓,0.5494755003601313,False,22,-1,0,15
Y2-S2-120K25,8,713,AS,exp,32,←,left,←,0.6834992999210954,True,23,-1,0,15
Y2-S2-120K25,8,714,AS,exp,44,↓,down,↓,1.1128974999301136,True,23,-1,0,15
Y2-S2-120K25,8,715,AS,exp,48,→,right,→,0.7176843998022377,True,23,1,1,16
