PART_ID,Block_no,Trial_no,Block_type,Trial_type,CSI,Stim_letter,Key_pressed,letter_choose,Rt,Corr,Stimulus Time,Level,Reversal,Revs_count
Y2-S2-179K21,1,1,PS,train,30,→,right,→,0.6171993999741971,True,30,-,-,-
Y2-S2-179K21,1,2,PS,train,43,↑,up,↑,0.6733251998666674,True,30,-,-,-
Y2-S2-179K21,1,3,PS,train,25,←,left,←,0.5672142999246716,True,30,-,-,-
Y2-S2-179K21,1,4,PS,train,45,→,right,→,0.5672591999173164,True,30,-,-,-
Y2-S2-179K21,1,5,PS,train,31,↓,down,↓,0.7192041000816971,True,30,-,-,-
Y2-S2-179K21,1,6,PS,train,36,←,left,←,0.5006118000019342,True,30,-,-,-
Y2-S2-179K21,1,7,PS,train,48,↓,down,↓,0.6170507001224905,True,30,-,-,-
Y2-S2-179K21,1,8,PS,train,25,↑,up,↑,0.8434394001960754,True,30,-,-,-
Y2-S2-179K21,1,9,PS,train,37,↓,down,↓,0.5681640999391675,True,30,-,-,-
Y2-S2-179K21,1,10,PS,train,34,←,left,←,0.5672466000542045,True,30,-,-,-
Y2-S2-179K21,2,11,AS,train,40,↓,down,↓,0.5511755999177694,True,45,-,-,-
Y2-S2-179K21,2,12,AS,train,30,↑,up,↑,0.7179133999161422,True,45,-,-,-
Y2-S2-179K21,2,13,AS,train,42,←,left,←,0.5012175999581814,True,45,-,-,-
Y2-S2-179K21,2,14,AS,train,33,→,right,→,0.7840054000262171,True,45,-,-,-
Y2-S2-179K21,2,15,AS,train,29,↓,down,↓,0.6011472998652607,True,45,-,-,-
Y2-S2-179K21,2,16,AS,train,33,←,left,←,0.6845565000548959,True,45,-,-,-
Y2-S2-179K21,2,17,AS,train,36,↓,down,↓,0.5510464999824762,True,45,-,-,-
Y2-S2-179K21,2,18,AS,train,29,↑,up,↑,0.7008762001059949,True,45,-,-,-
Y2-S2-179K21,2,19,AS,train,36,→,left,←,0.48441109992563725,False,45,-,-,-
Y2-S2-179K21,2,20,AS,train,47,←,left,←,2.1336649002041668,True,45,-,-,-
Y2-S2-179K21,-,21,PS,adaptive,40,↓,down,↓,1.74739779997617,True,10,0,0,0
Y2-S2-179K21,-,22,PS,adaptive,32,↑,up,↑,0.8987251999787986,True,10,0,0,0
Y2-S2-179K21,-,23,PS,adaptive,26,←,left,←,0.7071673998143524,True,10,1,0,0
Y2-S2-179K21,-,24,PS,adaptive,30,→,right,→,0.6257104000542313,True,9,1,0,0
Y2-S2-179K21,-,25,PS,adaptive,41,↓,down,↓,0.8521356999408454,True,9,1,0,0
Y2-S2-179K21,-,26,PS,adaptive,34,↑,left,←,0.6643107000272721,False,9,-1,1,1
Y2-S2-179K21,-,27,PS,adaptive,32,←,left,←,0.724938299972564,True,10,-1,0,1
Y2-S2-179K21,-,28,PS,adaptive,30,→,right,→,0.6467575998976827,True,10,-1,0,1
Y2-S2-179K21,-,29,PS,adaptive,27,↑,right,→,1.31299509992823,False,10,-1,0,1
Y2-S2-179K21,-,30,PS,adaptive,35,←,right,→,1.0074835000559688,False,11,-1,0,1
Y2-S2-179K21,-,31,PS,adaptive,36,↓,left,←,1.3293446998577565,False,12,-1,0,1
Y2-S2-179K21,-,32,PS,adaptive,25,↑,no_key,no_letter,-1.0,False,13,-1,0,1
Y2-S2-179K21,-,33,PS,adaptive,26,←,right,→,1.208280900027603,False,14,-1,0,1
Y2-S2-179K21,-,34,PS,adaptive,26,↓,down,↓,0.8179122000001371,True,15,-1,0,1
Y2-S2-179K21,-,35,PS,adaptive,47,↑,up,↑,0.801616300130263,True,15,-1,0,1
Y2-S2-179K21,-,36,PS,adaptive,44,←,left,←,0.719330299878493,True,15,1,1,2
Y2-S2-179K21,-,37,PS,adaptive,33,↑,up,↑,0.616437999997288,True,14,1,0,2
Y2-S2-179K21,-,38,PS,adaptive,34,→,right,→,0.5989292000886053,True,14,1,0,2
Y2-S2-179K21,-,39,PS,adaptive,41,↓,down,↓,0.7393012000247836,True,14,1,0,2
Y2-S2-179K21,-,40,PS,adaptive,44,↑,up,↑,0.5170928000006825,True,13,1,0,2
Y2-S2-179K21,-,41,PS,adaptive,28,↓,down,↓,0.749585899990052,True,13,1,0,2
Y2-S2-179K21,-,42,PS,adaptive,31,→,right,→,0.8265612998511642,True,13,1,0,2
Y2-S2-179K21,-,43,PS,adaptive,32,↓,down,↓,0.7252519000321627,True,12,1,0,2
Y2-S2-179K21,-,44,PS,adaptive,47,→,right,→,0.721108399797231,True,12,1,0,2
Y2-S2-179K21,-,45,PS,adaptive,38,↑,down,↓,0.5633489000611007,False,12,-1,1,3
Y2-S2-179K21,-,46,PS,adaptive,40,↓,down,↓,0.704577700002119,True,13,-1,0,3
Y2-S2-179K21,-,47,PS,adaptive,37,←,right,→,0.7519245999865234,False,13,-1,0,3
Y2-S2-179K21,-,48,PS,adaptive,26,→,right,→,0.6161678999196738,True,14,-1,0,3
Y2-S2-179K21,-,49,PS,adaptive,44,↓,down,↓,0.7045324000064284,True,14,-1,0,3
Y2-S2-179K21,-,50,PS,adaptive,28,→,right,→,0.5857226999942213,True,14,1,1,4
Y2-S2-179K21,-,51,AS,adaptive,48,↑,up,↑,0.5826108001638204,True,20,0,0,0
Y2-S2-179K21,-,52,AS,adaptive,26,↓,down,↓,0.6525259998161346,True,20,0,0,0
Y2-S2-179K21,-,53,AS,adaptive,38,→,right,→,1.8297921000048518,True,20,1,0,0
Y2-S2-179K21,-,54,AS,adaptive,33,↓,down,↓,0.5207152001094073,True,19,1,0,0
Y2-S2-179K21,-,55,AS,adaptive,40,→,right,→,1.74913389980793,True,19,1,0,0
Y2-S2-179K21,-,56,AS,adaptive,36,↑,up,↑,0.6895583001896739,True,19,1,0,0
Y2-S2-179K21,-,57,AS,adaptive,26,↓,up,↑,0.7753538000397384,False,18,-1,1,1
Y2-S2-179K21,-,58,AS,adaptive,36,↑,up,↑,0.6222761000972241,True,19,-1,0,1
Y2-S2-179K21,-,59,AS,adaptive,50,←,left,←,0.6245472000446171,True,19,-1,0,1
Y2-S2-179K21,-,60,AS,adaptive,35,↓,down,↓,0.6249426000285894,True,19,1,1,2
Y2-S2-179K21,-,61,AS,adaptive,34,←,left,←,0.5920115001499653,True,18,1,0,2
Y2-S2-179K21,-,62,AS,adaptive,38,↑,up,↑,1.2255557000171393,True,18,1,0,2
Y2-S2-179K21,-,63,AS,adaptive,35,←,left,←,1.0239393999800086,True,18,1,0,2
Y2-S2-179K21,-,64,AS,adaptive,41,↓,down,↓,0.6349408000241965,True,17,1,0,2
Y2-S2-179K21,-,65,AS,adaptive,25,→,left,←,1.8948117999825627,False,17,-1,1,3
Y2-S2-179K21,-,66,AS,adaptive,35,↑,up,↑,0.9568141999188811,True,18,-1,0,3
Y2-S2-179K21,-,67,AS,adaptive,43,→,right,→,0.6215621998999268,True,18,-1,0,3
Y2-S2-179K21,-,68,AS,adaptive,35,↓,down,↓,0.6772923001553863,True,18,1,1,4
Y2-S2-179K21,1,69,PS,intra_train,28,→,right,→,0.4863136000931263,True,19,-,-,-
Y2-S2-179K21,1,70,PS,intra_train,38,↓,down,↓,0.6195783999282867,True,19,-,-,-
Y2-S2-179K21,1,71,PS,intra_train,46,→,right,→,0.5295055999886245,True,19,-,-,-
Y2-S2-179K21,1,72,PS,intra_train,45,↑,up,↑,0.5785487000830472,True,19,-,-,-
Y2-S2-179K21,1,73,PS,intra_train,40,←,left,←,0.4979467000812292,True,19,-,-,-
Y2-S2-179K21,1,74,PS,exp,33,↑,up,↑,0.5678908000700176,True,13,0,0,0
Y2-S2-179K21,1,75,PS,exp,37,↓,down,↓,0.5896916000638157,True,13,0,0,0
Y2-S2-179K21,1,76,PS,exp,39,←,left,←,0.5829885001294315,True,13,1,0,0
Y2-S2-179K21,1,77,PS,exp,39,→,right,→,0.6838003001175821,True,12,1,0,0
Y2-S2-179K21,1,78,PS,exp,26,↓,down,↓,0.6626896001398563,True,12,1,0,0
Y2-S2-179K21,1,79,PS,exp,29,→,right,→,0.616724300198257,True,12,1,0,0
Y2-S2-179K21,1,80,PS,exp,47,↑,no_key,no_letter,-1.0,False,11,-1,1,1
Y2-S2-179K21,1,81,PS,exp,26,←,left,←,0.6476036999374628,True,12,-1,0,1
Y2-S2-179K21,1,82,PS,exp,41,→,left,←,0.6112744000274688,False,12,-1,0,1
Y2-S2-179K21,1,83,PS,exp,33,↓,down,↓,0.5351776001043618,True,13,-1,0,1
Y2-S2-179K21,1,84,PS,exp,26,↑,up,↑,0.6459955999162048,True,13,-1,0,1
Y2-S2-179K21,1,85,PS,exp,44,↓,down,↓,0.6976868999190629,True,13,1,1,2
Y2-S2-179K21,1,86,PS,exp,50,←,left,←,1.541966199874878,True,12,1,0,2
Y2-S2-179K21,1,87,PS,exp,50,↑,down,↓,0.6755555002018809,False,12,-1,1,3
Y2-S2-179K21,1,88,PS,exp,28,←,left,←,0.602362500037998,True,13,-1,0,3
Y2-S2-179K21,1,89,PS,exp,39,→,left,←,0.6277389999013394,False,13,-1,0,3
Y2-S2-179K21,1,90,PS,exp,49,↓,left,←,1.4082171998452395,False,14,-1,0,3
Y2-S2-179K21,1,91,PS,exp,32,←,left,←,0.7011893999297172,True,15,-1,0,3
Y2-S2-179K21,1,92,PS,exp,33,↓,down,↓,0.6256107999943197,True,15,-1,0,3
Y2-S2-179K21,1,93,PS,exp,49,←,left,←,0.58230090001598,True,15,1,1,4
Y2-S2-179K21,1,94,PS,exp,44,↑,down,↓,1.0559170001652092,False,14,-1,1,5
Y2-S2-179K21,1,95,PS,exp,39,→,right,→,0.6233882999513298,True,15,-1,0,5
Y2-S2-179K21,1,96,PS,exp,41,↑,up,↑,1.6430530999787152,True,15,-1,0,5
Y2-S2-179K21,1,97,PS,exp,43,↓,down,↓,0.6174695000518113,True,15,1,1,6
Y2-S2-179K21,1,98,PS,exp,27,↑,up,↑,0.7472522999159992,True,14,1,0,6
Y2-S2-179K21,1,99,PS,exp,26,→,right,→,0.5256776001770049,True,14,1,0,6
Y2-S2-179K21,1,100,PS,exp,49,←,left,←,0.47464410006068647,True,14,1,0,6
Y2-S2-179K21,1,101,PS,exp,44,↓,down,↓,0.753347699996084,True,13,1,0,6
Y2-S2-179K21,1,102,PS,exp,48,→,right,→,0.6746817999519408,True,13,1,0,6
Y2-S2-179K21,1,103,PS,exp,32,↓,down,↓,0.5749757001176476,True,13,1,0,6
Y2-S2-179K21,1,104,PS,exp,48,→,right,→,0.5802101998124272,True,12,1,0,6
Y2-S2-179K21,1,105,PS,exp,49,↓,down,↓,0.7117933998815715,True,12,1,0,6
Y2-S2-179K21,1,106,PS,exp,37,→,right,→,0.7771113000344485,True,12,1,0,6
Y2-S2-179K21,1,107,PS,exp,30,←,right,→,1.801521300105378,False,11,-1,1,7
Y2-S2-179K21,1,108,PS,exp,32,→,right,→,0.6215488999150693,True,12,-1,0,7
Y2-S2-179K21,1,109,PS,exp,34,←,left,←,0.577466499991715,True,12,-1,0,7
Y2-S2-179K21,1,110,PS,exp,26,↓,down,↓,0.6345939999446273,True,12,1,1,8
Y2-S2-179K21,1,111,PS,exp,26,→,right,→,0.545656899921596,True,11,1,0,8
Y2-S2-179K21,1,112,PS,exp,33,↓,down,↓,1.0010950998403132,True,11,1,0,8
Y2-S2-179K21,1,113,PS,exp,42,→,right,→,0.5019053998403251,True,11,1,0,8
Y2-S2-179K21,1,114,PS,exp,25,↓,down,↓,1.5964196999557316,True,10,1,0,8
Y2-S2-179K21,1,115,PS,exp,40,←,no_key,no_letter,-1.0,False,10,-1,1,9
Y2-S2-179K21,1,116,PS,exp,31,↓,down,↓,0.915785500081256,True,11,-1,0,9
Y2-S2-179K21,1,117,PS,exp,49,↑,up,↑,1.5297470998484641,True,11,-1,0,9
Y2-S2-179K21,1,118,PS,exp,27,→,right,→,0.5938548999838531,True,11,1,1,10
Y2-S2-179K21,1,119,PS,exp,49,↓,right,→,1.4246718999929726,False,10,-1,1,11
Y2-S2-179K21,1,120,PS,exp,38,←,left,←,0.5399521000217646,True,11,-1,0,11
Y2-S2-179K21,1,121,PS,exp,50,↓,down,↓,0.5569381001405418,True,11,-1,0,11
Y2-S2-179K21,1,122,PS,exp,29,←,left,←,0.45948410010896623,True,11,1,1,12
Y2-S2-179K21,1,123,PS,exp,43,↑,up,↑,0.9836850999854505,True,10,1,0,12
Y2-S2-179K21,1,124,PS,exp,30,→,right,→,0.9300551998894662,True,10,1,0,12
Y2-S2-179K21,1,125,PS,exp,35,↑,up,↑,0.6477580000646412,True,10,1,0,12
Y2-S2-179K21,1,126,PS,exp,46,←,right,→,0.92768369987607,False,9,-1,1,13
Y2-S2-179K21,1,127,PS,exp,47,→,right,→,0.7463537000585347,True,10,-1,0,13
Y2-S2-179K21,1,128,PS,exp,39,↓,right,→,0.8910203000996262,False,10,-1,0,13
Y2-S2-179K21,1,129,PS,exp,41,↑,no_key,no_letter,-1.0,False,11,-1,0,13
Y2-S2-179K21,1,130,PS,exp,28,→,right,→,0.4648346998728812,True,12,-1,0,13
Y2-S2-179K21,1,131,PS,exp,32,↑,right,→,1.2407363001257181,False,12,-1,0,13
Y2-S2-179K21,1,132,PS,exp,27,↓,down,↓,0.5069903000257909,True,13,-1,0,13
Y2-S2-179K21,1,133,PS,exp,48,→,right,→,0.5084109001327306,True,13,-1,0,13
Y2-S2-179K21,1,134,PS,exp,36,↓,down,↓,0.5074574998579919,True,13,1,1,14
Y2-S2-179K21,1,135,PS,exp,36,↑,up,↑,0.5852550000417978,True,12,1,0,14
Y2-S2-179K21,1,136,PS,exp,36,←,right,→,0.8866701000370085,False,12,-1,1,15
Y2-S2-179K21,1,137,PS,exp,46,→,right,→,0.674247199902311,True,13,-1,0,15
Y2-S2-179K21,1,138,PS,exp,36,↑,right,→,1.5249014000874013,False,13,-1,0,15
Y2-S2-179K21,1,139,PS,exp,37,→,right,→,0.5499726000707597,True,14,-1,0,15
Y2-S2-179K21,1,140,PS,exp,50,↑,up,↑,0.5467195000965148,True,14,-1,0,15
Y2-S2-179K21,1,141,PS,exp,27,←,left,←,0.5204666000790894,True,14,1,1,16
Y2-S2-179K21,2,142,AS,intra_train,37,↓,down,↓,1.513303800020367,True,25,-,-,-
Y2-S2-179K21,2,143,AS,intra_train,31,←,left,←,1.7087099000345916,True,25,-,-,-
Y2-S2-179K21,2,144,AS,intra_train,25,↓,down,↓,0.9913810999132693,True,25,-,-,-
Y2-S2-179K21,2,145,AS,intra_train,29,←,left,←,0.6198058999143541,True,25,-,-,-
Y2-S2-179K21,2,146,AS,intra_train,28,→,right,→,0.6142730000428855,True,25,-,-,-
Y2-S2-179K21,2,147,AS,exp,28,↑,down,↓,1.2850023999344558,False,17,-1,0,0
Y2-S2-179K21,2,148,AS,exp,27,↓,down,↓,0.5652643002104014,True,18,-1,0,0
Y2-S2-179K21,2,149,AS,exp,45,→,right,→,0.6109367001336068,True,18,-1,0,0
Y2-S2-179K21,2,150,AS,exp,32,↑,down,↓,0.5059018000029027,False,18,-1,0,0
Y2-S2-179K21,2,151,AS,exp,44,→,right,→,0.5680307000875473,True,19,-1,0,0
Y2-S2-179K21,2,152,AS,exp,44,↑,up,↑,0.6465978999622166,True,19,-1,0,0
Y2-S2-179K21,2,153,AS,exp,28,←,left,←,0.8178528000134975,True,19,1,1,1
Y2-S2-179K21,2,154,AS,exp,39,→,right,→,0.5586486998945475,True,18,1,0,1
Y2-S2-179K21,2,155,AS,exp,40,↓,down,↓,0.8579390000086278,True,18,1,0,1
Y2-S2-179K21,2,156,AS,exp,41,→,right,→,0.5504627998452634,True,18,1,0,1
Y2-S2-179K21,2,157,AS,exp,41,←,left,←,0.6852963001001626,True,17,1,0,1
Y2-S2-179K21,2,158,AS,exp,44,→,right,→,0.6444639000110328,True,17,1,0,1
Y2-S2-179K21,2,159,AS,exp,29,←,left,←,0.5378223999869078,True,17,1,0,1
Y2-S2-179K21,2,160,AS,exp,34,↓,down,↓,0.5720365000888705,True,16,1,0,1
Y2-S2-179K21,2,161,AS,exp,49,↑,up,↑,0.7717256001196802,True,16,1,0,1
Y2-S2-179K21,2,162,AS,exp,29,↓,down,↓,0.5478219001088291,True,16,1,0,1
Y2-S2-179K21,2,163,AS,exp,44,→,down,↓,0.8215620000846684,False,15,-1,1,2
Y2-S2-179K21,2,164,AS,exp,39,↑,up,↑,0.6700208999682218,True,16,-1,0,2
Y2-S2-179K21,2,165,AS,exp,36,←,left,←,0.45205809990875423,True,16,-1,0,2
Y2-S2-179K21,2,166,AS,exp,38,→,right,→,0.5386310000903904,True,16,1,1,3
Y2-S2-179K21,2,167,AS,exp,39,↑,up,↑,0.5963946001138538,True,15,1,0,3
Y2-S2-179K21,2,168,AS,exp,32,→,right,→,0.546147100161761,True,15,1,0,3
Y2-S2-179K21,2,169,AS,exp,30,←,left,←,0.5301985000260174,True,15,1,0,3
Y2-S2-179K21,2,170,AS,exp,44,↑,down,↓,0.9341446000616997,False,14,-1,1,4
Y2-S2-179K21,2,171,AS,exp,35,→,right,→,0.5061242999508977,True,15,-1,0,4
Y2-S2-179K21,2,172,AS,exp,38,↓,down,↓,0.6246780999936163,True,15,-1,0,4
Y2-S2-179K21,2,173,AS,exp,37,↑,up,↑,0.657738900044933,True,15,1,1,5
Y2-S2-179K21,2,174,AS,exp,50,←,left,←,0.4714069999754429,True,14,1,0,5
Y2-S2-179K21,2,175,AS,exp,44,→,right,→,0.5204013001639396,True,14,1,0,5
Y2-S2-179K21,2,176,AS,exp,40,←,left,←,0.3670832999050617,True,14,1,0,5
Y2-S2-179K21,2,177,AS,exp,46,↑,up,↑,0.7930834998842329,True,13,1,0,5
Y2-S2-179K21,2,178,AS,exp,42,←,up,↑,1.6047816001810133,False,13,-1,1,6
Y2-S2-179K21,2,179,AS,exp,31,↑,up,↑,0.5721193999052048,True,14,-1,0,6
Y2-S2-179K21,2,180,AS,exp,44,↓,up,↑,0.9057000000029802,False,14,-1,0,6
Y2-S2-179K21,2,181,AS,exp,32,←,left,←,0.8094539998564869,True,15,-1,0,6
Y2-S2-179K21,2,182,AS,exp,32,→,right,→,0.548657099949196,True,15,-1,0,6
Y2-S2-179K21,2,183,AS,exp,30,↑,up,↑,1.1362987000029534,True,15,1,1,7
Y2-S2-179K21,2,184,AS,exp,39,←,left,←,0.6953004999086261,True,14,1,0,7
Y2-S2-179K21,2,185,AS,exp,26,↓,down,↓,0.8625712001230568,True,14,1,0,7
Y2-S2-179K21,2,186,AS,exp,28,↑,up,↑,0.5601689000613987,True,14,1,0,7
Y2-S2-179K21,2,187,AS,exp,25,↓,down,↓,0.9359496999531984,True,13,1,0,7
Y2-S2-179K21,2,188,AS,exp,33,→,right,→,0.6791040999814868,True,13,1,0,7
Y2-S2-179K21,2,189,AS,exp,43,←,left,←,1.1410010000690818,True,13,1,0,7
Y2-S2-179K21,2,190,AS,exp,42,↓,down,↓,0.6723817999009043,True,12,1,0,7
Y2-S2-179K21,2,191,AS,exp,29,→,right,→,0.5895438999868929,True,12,1,0,7
Y2-S2-179K21,2,192,AS,exp,35,↑,up,↑,0.6868904000148177,True,12,1,0,7
Y2-S2-179K21,2,193,AS,exp,44,→,right,→,0.6780087999068201,True,11,1,0,7
Y2-S2-179K21,2,194,AS,exp,50,←,right,→,1.5555229999590665,False,11,-1,1,8
Y2-S2-179K21,2,195,AS,exp,49,↑,up,↑,0.6278722998686135,True,12,-1,0,8
Y2-S2-179K21,2,196,AS,exp,33,←,left,←,0.8183038998395205,True,12,-1,0,8
Y2-S2-179K21,2,197,AS,exp,28,→,right,→,1.2279749000445008,True,12,1,1,9
Y2-S2-179K21,2,198,AS,exp,47,↓,down,↓,0.6904627999756485,True,11,1,0,9
Y2-S2-179K21,2,199,AS,exp,27,→,right,→,0.704836199991405,True,11,1,0,9
Y2-S2-179K21,2,200,AS,exp,36,↑,up,↑,0.7095208999235183,True,11,1,0,9
Y2-S2-179K21,2,201,AS,exp,49,→,left,←,0.6943129999563098,False,10,-1,1,10
Y2-S2-179K21,2,202,AS,exp,35,↑,no_key,no_letter,-1.0,False,11,-1,0,10
Y2-S2-179K21,2,203,AS,exp,25,↓,down,↓,0.8888669998850673,True,12,-1,0,10
Y2-S2-179K21,2,204,AS,exp,41,↑,up,↑,0.7076818000059575,True,12,-1,0,10
Y2-S2-179K21,2,205,AS,exp,29,←,left,←,0.7892505000345409,True,12,1,1,11
Y2-S2-179K21,2,206,AS,exp,34,→,right,→,0.884771800134331,True,11,1,0,11
Y2-S2-179K21,2,207,AS,exp,47,↑,up,↑,0.6728038999717683,True,11,1,0,11
Y2-S2-179K21,2,208,AS,exp,47,↓,down,↓,0.893796400167048,True,11,1,0,11
Y2-S2-179K21,2,209,AS,exp,27,←,left,←,0.914753699908033,True,10,1,0,11
Y2-S2-179K21,2,210,AS,exp,29,↓,down,↓,0.6935016000643373,True,10,1,0,11
Y2-S2-179K21,2,211,AS,exp,40,→,right,→,0.795028799911961,True,10,1,0,11
Y2-S2-179K21,2,212,AS,exp,38,↑,up,↑,0.6945440000854433,True,9,1,0,11
Y2-S2-179K21,2,213,AS,exp,38,→,left,←,0.6047538998536766,False,9,-1,1,12
Y2-S2-179K21,2,214,AS,exp,25,↓,down,↓,1.3243185998871922,True,10,-1,0,12
Y2-S2-179K21,2,215,AS,exp,33,→,right,→,0.5813078999053687,True,10,-1,0,12
Y2-S2-179K21,2,216,AS,exp,36,←,left,←,0.6183054000139236,True,10,1,1,13
Y2-S2-179K21,2,217,AS,exp,29,↑,up,↑,0.643419099971652,True,9,1,0,13
Y2-S2-179K21,2,218,AS,exp,44,→,up,↑,1.3276318998541683,False,9,-1,1,14
Y2-S2-179K21,2,219,AS,exp,45,↓,left,←,1.508311100071296,False,10,-1,0,14
Y2-S2-179K21,2,220,AS,exp,27,↑,down,↓,0.8352868999354541,False,11,-1,0,14
Y2-S2-179K21,2,221,AS,exp,44,↓,down,↓,1.2959439000114799,True,12,-1,0,14
Y2-S2-179K21,2,222,AS,exp,28,→,up,↑,1.6531291001010686,False,12,-1,0,14
Y2-S2-179K21,2,223,AS,exp,47,↓,no_key,no_letter,-1.0,False,13,-1,0,14
Y2-S2-179K21,2,224,AS,exp,40,↑,up,↑,0.8926709999796003,True,14,-1,0,14
Y2-S2-179K21,2,225,AS,exp,47,←,right,→,1.1698119000066072,False,14,-1,0,14
Y2-S2-179K21,2,226,AS,exp,39,→,right,→,1.1300149001181126,True,15,-1,0,14
Y2-S2-179K21,2,227,AS,exp,48,←,left,←,0.7311577000655234,True,15,-1,0,14
Y2-S2-179K21,2,228,AS,exp,32,→,right,→,0.9020565999671817,True,15,1,1,15
Y2-S2-179K21,2,229,AS,exp,25,↑,down,↓,1.1552059000823647,False,14,-1,1,16
Y2-S2-179K21,3,230,AS,intra_train,37,→,left,←,1.2531223001424223,False,25,-,-,-
Y2-S2-179K21,3,231,AS,intra_train,43,←,left,←,0.604216700186953,True,25,-,-,-
Y2-S2-179K21,3,232,AS,intra_train,49,↓,down,↓,0.9569860999472439,True,25,-,-,-
Y2-S2-179K21,3,233,AS,intra_train,35,←,left,←,0.5505703000817448,True,25,-,-,-
Y2-S2-179K21,3,234,AS,intra_train,36,→,right,→,0.5338308999780566,True,25,-,-,-
Y2-S2-179K21,3,235,AS,exp,39,↑,up,↑,0.6594750999938697,True,17,0,0,0
Y2-S2-179K21,3,236,AS,exp,28,↓,up,↑,1.367294100113213,False,17,-1,0,0
Y2-S2-179K21,3,237,AS,exp,34,←,left,←,0.5494911998976022,True,18,-1,0,0
Y2-S2-179K21,3,238,AS,exp,38,↓,down,↓,0.6555171001236886,True,18,-1,0,0
Y2-S2-179K21,3,239,AS,exp,33,→,right,→,0.6474500000476837,True,18,1,1,1
Y2-S2-179K21,3,240,AS,exp,25,←,left,←,0.5608862000517547,True,17,1,0,1
Y2-S2-179K21,3,241,AS,exp,44,↓,down,↓,0.48616559989750385,True,17,1,0,1
Y2-S2-179K21,3,242,AS,exp,44,↑,up,↑,0.7111806999891996,True,17,1,0,1
Y2-S2-179K21,3,243,AS,exp,47,→,right,→,0.6257436000742018,True,16,1,0,1
Y2-S2-179K21,3,244,AS,exp,26,←,right,→,1.0365448999218643,False,16,-1,1,2
Y2-S2-179K21,3,245,AS,exp,50,↓,down,↓,0.7923632001038641,True,17,-1,0,2
Y2-S2-179K21,3,246,AS,exp,42,←,left,←,0.798765700077638,True,17,-1,0,2
Y2-S2-179K21,3,247,AS,exp,50,→,right,→,0.5918159999419004,True,17,1,1,3
Y2-S2-179K21,3,248,AS,exp,28,↑,up,↑,0.7476663999259472,True,16,1,0,3
Y2-S2-179K21,3,249,AS,exp,37,←,left,←,0.7092327999416739,True,16,1,0,3
Y2-S2-179K21,3,250,AS,exp,26,→,right,→,0.5246389000676572,True,16,1,0,3
Y2-S2-179K21,3,251,AS,exp,33,↑,up,↑,0.5504924999549985,True,15,1,0,3
Y2-S2-179K21,3,252,AS,exp,43,←,left,←,0.5264600000809878,True,15,1,0,3
Y2-S2-179K21,3,253,AS,exp,26,↓,down,↓,0.7244722000323236,True,15,1,0,3
Y2-S2-179K21,3,254,AS,exp,36,→,right,→,0.5849446000065655,True,14,1,0,3
Y2-S2-179K21,3,255,AS,exp,33,←,right,→,0.42363699991256,False,14,-1,1,4
Y2-S2-179K21,3,256,AS,exp,48,↓,down,↓,0.6386685997713357,True,15,-1,0,4
Y2-S2-179K21,3,257,AS,exp,40,→,right,→,0.623020000057295,True,15,-1,0,4
Y2-S2-179K21,3,258,AS,exp,29,↑,left,←,0.30033589992672205,False,15,-1,0,4
Y2-S2-179K21,3,259,AS,exp,33,→,down,↓,0.9518116998951882,False,16,-1,0,4
Y2-S2-179K21,3,260,AS,exp,39,←,no_key,no_letter,-1.0,False,17,-1,0,4
Y2-S2-179K21,3,261,AS,exp,29,↓,down,↓,0.708090899977833,True,18,-1,0,4
Y2-S2-179K21,3,262,AS,exp,33,↑,up,↑,0.652740600053221,True,18,-1,0,4
Y2-S2-179K21,3,263,AS,exp,29,→,right,→,0.8712615999393165,True,18,1,1,5
Y2-S2-179K21,3,264,AS,exp,27,↑,up,↑,0.7455982000101358,True,17,1,0,5
Y2-S2-179K21,3,265,AS,exp,25,→,right,→,0.5475791001226753,True,17,1,0,5
Y2-S2-179K21,3,266,AS,exp,35,←,left,←,1.3223007000051439,True,17,1,0,5
Y2-S2-179K21,3,267,AS,exp,40,↓,down,↓,0.650589199969545,True,16,1,0,5
Y2-S2-179K21,3,268,AS,exp,43,→,right,→,0.5094774998724461,True,16,1,0,5
Y2-S2-179K21,3,269,AS,exp,50,↑,up,↑,0.615047600120306,True,16,1,0,5
Y2-S2-179K21,3,270,AS,exp,35,↓,down,↓,0.664864799939096,True,15,1,0,5
Y2-S2-179K21,3,271,AS,exp,34,→,right,→,0.5344901999924332,True,15,1,0,5
Y2-S2-179K21,3,272,AS,exp,38,←,left,←,0.4913679000455886,True,15,1,0,5
Y2-S2-179K21,3,273,AS,exp,27,↑,no_key,no_letter,-1.0,False,14,-1,1,6
Y2-S2-179K21,3,274,AS,exp,45,→,right,→,0.5952266999520361,True,15,-1,0,6
Y2-S2-179K21,3,275,AS,exp,37,↑,up,↑,0.6758603001944721,True,15,-1,0,6
Y2-S2-179K21,3,276,AS,exp,43,←,left,←,0.5109020001254976,True,15,1,1,7
Y2-S2-179K21,3,277,AS,exp,50,→,right,→,0.6001417001243681,True,14,1,0,7
Y2-S2-179K21,3,278,AS,exp,25,↑,up,↑,0.7471501999534667,True,14,1,0,7
Y2-S2-179K21,3,279,AS,exp,37,←,left,←,0.5357163001317531,True,14,1,0,7
Y2-S2-179K21,3,280,AS,exp,43,→,right,→,0.5902960998937488,True,13,1,0,7
Y2-S2-179K21,3,281,AS,exp,48,↑,down,↓,0.8052417000290006,False,13,-1,1,8
Y2-S2-179K21,3,282,AS,exp,36,←,left,←,0.6024583999533206,True,14,-1,0,8
Y2-S2-179K21,3,283,AS,exp,29,↑,up,↑,0.9034508001059294,True,14,-1,0,8
Y2-S2-179K21,3,284,AS,exp,43,↓,down,↓,0.8110614998731762,True,14,1,1,9
Y2-S2-179K21,3,285,AS,exp,42,←,left,←,0.5790013999212533,True,13,1,0,9
Y2-S2-179K21,3,286,AS,exp,43,↑,up,↑,0.6789309000596404,True,13,1,0,9
Y2-S2-179K21,3,287,AS,exp,35,↓,down,↓,0.700014199828729,True,13,1,0,9
Y2-S2-179K21,3,288,AS,exp,27,→,right,→,0.7010090998373926,True,12,1,0,9
Y2-S2-179K21,3,289,AS,exp,41,←,left,←,0.6079074998851866,True,12,1,0,9
Y2-S2-179K21,3,290,AS,exp,39,↑,down,↓,0.9133138000033796,False,12,-1,1,10
Y2-S2-179K21,3,291,AS,exp,49,↓,down,↓,0.6737812000792474,True,13,-1,0,10
Y2-S2-179K21,3,292,AS,exp,27,←,no_key,no_letter,-1.0,False,13,-1,0,10
Y2-S2-179K21,3,293,AS,exp,29,→,right,→,0.783360900124535,True,14,-1,0,10
Y2-S2-179K21,3,294,AS,exp,27,↑,up,↑,0.6231822001282126,True,14,-1,0,10
Y2-S2-179K21,3,295,AS,exp,48,←,left,←,0.8186870999634266,True,14,1,1,11
Y2-S2-179K21,3,296,AS,exp,33,→,right,→,0.7924210000783205,True,13,1,0,11
Y2-S2-179K21,3,297,AS,exp,35,←,left,←,0.6892597998958081,True,13,1,0,11
Y2-S2-179K21,3,298,AS,exp,38,↑,down,↓,1.690496199997142,False,13,-1,1,12
Y2-S2-179K21,3,299,AS,exp,26,←,left,←,0.846748000010848,True,14,-1,0,12
Y2-S2-179K21,3,300,AS,exp,37,→,right,→,1.3235696000047028,True,14,-1,0,12
Y2-S2-179K21,3,301,AS,exp,27,←,left,←,0.6233344001229852,True,14,1,1,13
Y2-S2-179K21,3,302,AS,exp,44,→,no_key,no_letter,-1.0,False,13,-1,1,14
Y2-S2-179K21,3,303,AS,exp,37,↑,up,↑,0.6853413998614997,True,14,-1,0,14
Y2-S2-179K21,3,304,AS,exp,29,→,right,→,0.7021880999673158,True,14,-1,0,14
Y2-S2-179K21,3,305,AS,exp,28,←,left,←,0.5496207000687718,True,14,1,1,15
Y2-S2-179K21,3,306,AS,exp,47,↓,down,↓,0.8957344000227749,True,13,1,0,15
Y2-S2-179K21,3,307,AS,exp,45,↑,up,↑,0.717814699979499,True,13,1,0,15
Y2-S2-179K21,3,308,AS,exp,28,→,right,→,0.6168575999327004,True,13,1,0,15
Y2-S2-179K21,3,309,AS,exp,25,↓,down,↓,0.9664608999155462,True,12,1,0,15
Y2-S2-179K21,3,310,AS,exp,49,←,left,←,0.7126281999517232,True,12,1,0,15
Y2-S2-179K21,3,311,AS,exp,41,↓,up,↑,0.7790363000240177,False,12,-1,1,16
Y2-S2-179K21,4,312,PS,intra_train,31,→,right,→,1.467675699852407,True,19,-,-,-
Y2-S2-179K21,4,313,PS,intra_train,43,↑,up,↑,0.5414990000426769,True,19,-,-,-
Y2-S2-179K21,4,314,PS,intra_train,32,←,left,←,0.5508913998492062,True,19,-,-,-
Y2-S2-179K21,4,315,PS,intra_train,37,↑,up,↑,0.5496501000598073,True,19,-,-,-
Y2-S2-179K21,4,316,PS,intra_train,42,←,left,←,0.5069360001944005,True,19,-,-,-
Y2-S2-179K21,4,317,PS,exp,44,→,right,→,0.5524720000103116,True,13,0,0,0
Y2-S2-179K21,4,318,PS,exp,39,↓,up,↑,1.292481199838221,False,13,-1,0,0
Y2-S2-179K21,4,319,PS,exp,49,→,right,→,0.7269119000993669,True,14,-1,0,0
Y2-S2-179K21,4,320,PS,exp,48,↓,down,↓,0.6786553000565618,True,14,-1,0,0
Y2-S2-179K21,4,321,PS,exp,36,↑,up,↑,0.5116098001599312,True,14,1,1,1
Y2-S2-179K21,4,322,PS,exp,30,↓,down,↓,0.7324353000149131,True,13,1,0,1
Y2-S2-179K21,4,323,PS,exp,25,↑,down,↓,0.8365208001341671,False,13,-1,1,2
Y2-S2-179K21,4,324,PS,exp,47,→,left,←,0.661193799925968,False,14,-1,0,2
Y2-S2-179K21,4,325,PS,exp,39,↑,down,↓,0.7809087999630719,False,15,-1,0,2
Y2-S2-179K21,4,326,PS,exp,33,↓,down,↓,0.6326578001026064,True,16,-1,0,2
Y2-S2-179K21,4,327,PS,exp,45,→,right,→,0.5856860999483615,True,16,-1,0,2
Y2-S2-179K21,4,328,PS,exp,45,↓,down,↓,0.5544932999182492,True,16,1,1,3
Y2-S2-179K21,4,329,PS,exp,42,↑,down,↓,0.4673260999843478,False,15,-1,1,4
Y2-S2-179K21,4,330,PS,exp,41,→,right,→,0.5368828000500798,True,16,-1,0,4
Y2-S2-179K21,4,331,PS,exp,38,←,right,→,0.7386547999922186,False,16,-1,0,4
Y2-S2-179K21,4,332,PS,exp,38,↑,up,↑,0.6349486999679357,True,17,-1,0,4
Y2-S2-179K21,4,333,PS,exp,31,↓,down,↓,0.6880925998557359,True,17,-1,0,4
Y2-S2-179K21,4,334,PS,exp,35,↑,up,↑,0.5023074999917299,True,17,1,1,5
Y2-S2-179K21,4,335,PS,exp,28,←,left,←,0.5880235999356955,True,16,1,0,5
Y2-S2-179K21,4,336,PS,exp,44,↑,up,↑,0.8180851000361145,True,16,1,0,5
Y2-S2-179K21,4,337,PS,exp,32,↓,down,↓,0.7420693999156356,True,16,1,0,5
Y2-S2-179K21,4,338,PS,exp,38,↑,up,↑,0.5664512000512332,True,15,1,0,5
Y2-S2-179K21,4,339,PS,exp,41,→,right,→,0.4796868998091668,True,15,1,0,5
Y2-S2-179K21,4,340,PS,exp,39,↑,up,↑,0.4416984999552369,True,15,1,0,5
Y2-S2-179K21,4,341,PS,exp,39,←,left,←,0.5808449999894947,True,14,1,0,5
Y2-S2-179K21,4,342,PS,exp,30,↓,down,↓,0.6480183999519795,True,14,1,0,5
Y2-S2-179K21,4,343,PS,exp,28,←,left,←,0.5254161998163909,True,14,1,0,5
Y2-S2-179K21,4,344,PS,exp,25,↑,up,↑,0.5130233000963926,True,13,1,0,5
Y2-S2-179K21,4,345,PS,exp,47,←,left,←,0.518725800095126,True,13,1,0,5
Y2-S2-179K21,4,346,PS,exp,35,→,right,→,0.5406114000361413,True,13,1,0,5
Y2-S2-179K21,4,347,PS,exp,31,↓,left,←,0.45472240005619824,False,12,-1,1,6
Y2-S2-179K21,4,348,PS,exp,48,↑,right,→,0.7285259000491351,False,13,-1,0,6
Y2-S2-179K21,4,349,PS,exp,29,→,right,→,0.4788615999277681,True,14,-1,0,6
Y2-S2-179K21,4,350,PS,exp,37,↑,up,↑,0.518148000119254,True,14,-1,0,6
Y2-S2-179K21,4,351,PS,exp,40,←,left,←,0.49831719999201596,True,14,1,1,7
Y2-S2-179K21,4,352,PS,exp,46,→,right,→,0.4279873000923544,True,13,1,0,7
Y2-S2-179K21,4,353,PS,exp,29,↓,up,↑,0.9423760999925435,False,13,-1,1,8
Y2-S2-179K21,4,354,PS,exp,32,→,right,→,0.547303200000897,True,14,-1,0,8
Y2-S2-179K21,4,355,PS,exp,30,←,left,←,0.4759274998214096,True,14,-1,0,8
Y2-S2-179K21,4,356,PS,exp,49,↓,down,↓,0.607831200119108,True,14,1,1,9
Y2-S2-179K21,4,357,PS,exp,49,→,right,→,0.5343082998879254,True,13,1,0,9
Y2-S2-179K21,4,358,PS,exp,45,←,left,←,0.60152170015499,True,13,1,0,9
Y2-S2-179K21,4,359,PS,exp,39,↑,up,↑,0.47575980005785823,True,13,1,0,9
Y2-S2-179K21,4,360,PS,exp,44,↓,down,↓,0.7427602999377996,True,12,1,0,9
Y2-S2-179K21,4,361,PS,exp,50,←,left,←,0.5116575001738966,True,12,1,0,9
Y2-S2-179K21,4,362,PS,exp,34,↑,up,↑,0.5522988999728113,True,12,1,0,9
Y2-S2-179K21,4,363,PS,exp,48,↓,down,↓,1.4382315000984818,True,11,1,0,9
Y2-S2-179K21,4,364,PS,exp,50,→,left,←,0.4895459001418203,False,11,-1,1,10
Y2-S2-179K21,4,365,PS,exp,40,←,left,←,0.8925451000686735,True,12,-1,0,10
Y2-S2-179K21,4,366,PS,exp,39,↓,down,↓,0.6392353000119328,True,12,-1,0,10
Y2-S2-179K21,4,367,PS,exp,28,↑,down,↓,1.5417475998401642,False,12,-1,0,10
Y2-S2-179K21,4,368,PS,exp,33,→,right,→,0.5857832999899983,True,13,-1,0,10
Y2-S2-179K21,4,369,PS,exp,34,↑,up,↑,1.34960119985044,True,13,-1,0,10
Y2-S2-179K21,4,370,PS,exp,33,→,right,→,0.671921799890697,True,13,1,1,11
Y2-S2-179K21,4,371,PS,exp,25,↑,up,↑,0.7532619000412524,True,12,1,0,11
Y2-S2-179K21,4,372,PS,exp,30,→,right,→,0.6359737000893801,True,12,1,0,11
Y2-S2-179K21,4,373,PS,exp,43,↑,down,↓,0.8399514998309314,False,12,-1,1,12
Y2-S2-179K21,4,374,PS,exp,47,→,right,→,0.5805444000288844,True,13,-1,0,12
Y2-S2-179K21,4,375,PS,exp,29,↑,up,↑,0.7354894999880344,True,13,-1,0,12
Y2-S2-179K21,4,376,PS,exp,26,←,left,←,0.5641343002207577,True,13,1,1,13
Y2-S2-179K21,4,377,PS,exp,25,→,right,→,0.5679464999120682,True,12,1,0,13
Y2-S2-179K21,4,378,PS,exp,40,←,left,←,0.5952756002079695,True,12,1,0,13
Y2-S2-179K21,4,379,PS,exp,29,↑,left,←,0.7333941000979394,False,12,-1,1,14
Y2-S2-179K21,4,380,PS,exp,43,↓,down,↓,0.6641967999748886,True,13,-1,0,14
Y2-S2-179K21,4,381,PS,exp,46,←,left,←,0.5469416999258101,True,13,-1,0,14
Y2-S2-179K21,4,382,PS,exp,36,→,right,→,0.4904859000816941,True,13,1,1,15
Y2-S2-179K21,4,383,PS,exp,27,↓,down,↓,0.6121513000689447,True,12,1,0,15
Y2-S2-179K21,4,384,PS,exp,29,↑,up,↑,0.7238307001534849,True,12,1,0,15
Y2-S2-179K21,4,385,PS,exp,29,→,right,→,0.5244138000998646,True,12,1,0,15
Y2-S2-179K21,4,386,PS,exp,43,←,left,←,0.6950331998523325,True,11,1,0,15
Y2-S2-179K21,4,387,PS,exp,42,↓,down,↓,0.6820376999676228,True,11,1,0,15
Y2-S2-179K21,4,388,PS,exp,38,←,up,↑,1.0561953999567777,False,11,-1,1,16
Y2-S2-179K21,5,389,PS,intra_train,34,↑,up,↑,0.5498538999818265,True,19,-,-,-
Y2-S2-179K21,5,390,PS,intra_train,43,↓,down,↓,0.6581121999770403,True,19,-,-,-
Y2-S2-179K21,5,391,PS,intra_train,33,←,left,←,0.6641192999668419,True,19,-,-,-
Y2-S2-179K21,5,392,PS,intra_train,31,↑,up,↑,0.7310904001351446,True,19,-,-,-
Y2-S2-179K21,5,393,PS,intra_train,41,→,right,→,0.5141002000309527,True,19,-,-,-
Y2-S2-179K21,5,394,PS,exp,34,↑,up,↑,0.5975979000795633,True,13,0,0,0
Y2-S2-179K21,5,395,PS,exp,29,→,left,←,0.4915374000556767,False,13,-1,0,0
Y2-S2-179K21,5,396,PS,exp,26,↓,down,↓,0.61943419999443,True,14,-1,0,0
Y2-S2-179K21,5,397,PS,exp,41,→,right,→,0.4669951999094337,True,14,-1,0,0
Y2-S2-179K21,5,398,PS,exp,31,↓,down,↓,0.5144573000725359,True,14,1,1,1
Y2-S2-179K21,5,399,PS,exp,43,↑,up,↑,0.5683426999021322,True,13,1,0,1
Y2-S2-179K21,5,400,PS,exp,44,↓,down,↓,0.48148610000498593,True,13,1,0,1
Y2-S2-179K21,5,401,PS,exp,32,↑,up,↑,0.693276199977845,True,13,1,0,1
Y2-S2-179K21,5,402,PS,exp,49,←,left,←,0.5227129000704736,True,12,1,0,1
Y2-S2-179K21,5,403,PS,exp,41,↑,up,↑,0.6166934999637306,True,12,1,0,1
Y2-S2-179K21,5,404,PS,exp,41,←,left,←,0.4622694000136107,True,12,1,0,1
Y2-S2-179K21,5,405,PS,exp,43,↑,up,↑,0.5198494999203831,True,11,1,0,1
Y2-S2-179K21,5,406,PS,exp,46,→,right,→,0.5560604999773204,True,11,1,0,1
Y2-S2-179K21,5,407,PS,exp,46,↓,down,↓,0.8423881998751312,True,11,1,0,1
Y2-S2-179K21,5,408,PS,exp,42,←,right,→,0.9949501999653876,False,10,-1,1,2
Y2-S2-179K21,5,409,PS,exp,26,→,left,←,0.4702306999824941,False,11,-1,0,2
Y2-S2-179K21,5,410,PS,exp,48,←,left,←,0.8618169999681413,True,12,-1,0,2
Y2-S2-179K21,5,411,PS,exp,45,↑,up,↑,0.5850567000452429,True,12,-1,0,2
Y2-S2-179K21,5,412,PS,exp,25,←,left,←,0.5060810998547822,True,12,1,1,3
Y2-S2-179K21,5,413,PS,exp,41,→,no_key,no_letter,-1.0,False,11,-1,1,4
Y2-S2-179K21,5,414,PS,exp,25,↓,down,↓,0.6968350000679493,True,12,-1,0,4
Y2-S2-179K21,5,415,PS,exp,50,→,right,→,0.5589447999373078,True,12,-1,0,4
Y2-S2-179K21,5,416,PS,exp,37,↑,up,↑,0.4804056000430137,True,12,1,1,5
Y2-S2-179K21,5,417,PS,exp,50,→,right,→,0.6815867000259459,True,11,1,0,5
Y2-S2-179K21,5,418,PS,exp,44,←,left,←,0.4521288999821991,True,11,1,0,5
Y2-S2-179K21,5,419,PS,exp,35,↑,up,↑,0.7485362999141216,True,11,1,0,5
Y2-S2-179K21,5,420,PS,exp,40,→,left,←,0.5556021998636425,False,10,-1,1,6
Y2-S2-179K21,5,421,PS,exp,35,↑,up,↑,0.5220639000181109,True,11,-1,0,6
Y2-S2-179K21,5,422,PS,exp,38,←,no_key,no_letter,-1.0,False,11,-1,0,6
Y2-S2-179K21,5,423,PS,exp,37,↑,up,↑,0.5933633001986891,True,12,-1,0,6
Y2-S2-179K21,5,424,PS,exp,28,→,right,→,0.8812422999180853,True,12,-1,0,6
Y2-S2-179K21,5,425,PS,exp,28,←,left,←,0.5478427999187261,True,12,1,1,7
Y2-S2-179K21,5,426,PS,exp,33,↑,up,↑,0.47685779980383813,True,11,1,0,7
Y2-S2-179K21,5,427,PS,exp,32,↓,up,↑,0.5357680998276919,False,11,-1,1,8
Y2-S2-179K21,5,428,PS,exp,38,→,right,→,0.5623053000308573,True,12,-1,0,8
Y2-S2-179K21,5,429,PS,exp,27,↑,left,←,0.6948472999501973,False,12,-1,0,8
Y2-S2-179K21,5,430,PS,exp,47,→,right,→,0.4640291000250727,True,13,-1,0,8
Y2-S2-179K21,5,431,PS,exp,47,↑,down,↓,0.9188377000391483,False,13,-1,0,8
Y2-S2-179K21,5,432,PS,exp,41,↓,right,→,0.9254914000630379,False,14,-1,0,8
Y2-S2-179K21,5,433,PS,exp,50,←,left,←,0.5457383999601007,True,15,-1,0,8
Y2-S2-179K21,5,434,PS,exp,36,↓,left,←,1.0369218999985605,False,15,-1,0,8
Y2-S2-179K21,5,435,PS,exp,30,←,right,→,0.9259888997767121,False,16,-1,0,8
Y2-S2-179K21,5,436,PS,exp,30,↑,up,↑,0.6946652000769973,True,17,-1,0,8
Y2-S2-179K21,5,437,PS,exp,46,→,right,→,0.6107183999847621,True,17,-1,0,8
Y2-S2-179K21,5,438,PS,exp,42,↑,up,↑,0.552709500072524,True,17,1,1,9
Y2-S2-179K21,5,439,PS,exp,29,↓,down,↓,0.6764086000621319,True,16,1,0,9
Y2-S2-179K21,5,440,PS,exp,37,↑,down,↓,1.1029636000748724,False,16,-1,1,10
Y2-S2-179K21,5,441,PS,exp,43,←,left,←,0.6097009000368416,True,17,-1,0,10
Y2-S2-179K21,5,442,PS,exp,42,↑,up,↑,0.6288278999272734,True,17,-1,0,10
Y2-S2-179K21,5,443,PS,exp,27,←,left,←,0.47497520013712347,True,17,1,1,11
Y2-S2-179K21,5,444,PS,exp,26,↑,up,↑,0.5755102001130581,True,16,1,0,11
Y2-S2-179K21,5,445,PS,exp,39,↓,down,↓,0.6653644000180066,True,16,1,0,11
Y2-S2-179K21,5,446,PS,exp,33,→,right,→,0.5267642999533564,True,16,1,0,11
Y2-S2-179K21,5,447,PS,exp,28,←,left,←,0.5450733001343906,True,15,1,0,11
Y2-S2-179K21,5,448,PS,exp,47,↑,down,↓,1.0827647000551224,False,15,-1,1,12
Y2-S2-179K21,5,449,PS,exp,39,←,right,→,0.9329153001308441,False,16,-1,0,12
Y2-S2-179K21,5,450,PS,exp,42,↓,down,↓,0.861599100055173,True,17,-1,0,12
Y2-S2-179K21,5,451,PS,exp,45,←,left,←,0.5944300000555813,True,17,-1,0,12
Y2-S2-179K21,5,452,PS,exp,33,↓,down,↓,0.9389309999532998,True,17,1,1,13
Y2-S2-179K21,5,453,PS,exp,33,→,right,→,0.709089000010863,True,16,1,0,13
Y2-S2-179K21,5,454,PS,exp,38,↓,down,↓,0.5673102999571711,True,16,1,0,13
Y2-S2-179K21,5,455,PS,exp,33,←,left,←,0.6170248999260366,True,16,1,0,13
Y2-S2-179K21,5,456,PS,exp,50,→,right,→,0.46662610000930727,True,15,1,0,13
Y2-S2-179K21,5,457,PS,exp,34,↓,down,↓,0.5066732000559568,True,15,1,0,13
Y2-S2-179K21,5,458,PS,exp,40,→,right,→,0.47979429992847145,True,15,1,0,13
Y2-S2-179K21,5,459,PS,exp,44,↑,down,↓,1.0927339000627398,False,14,-1,1,14
Y2-S2-179K21,5,460,PS,exp,32,←,left,←,0.5655318000353873,True,15,-1,0,14
Y2-S2-179K21,5,461,PS,exp,29,↑,up,↑,0.5775097999721766,True,15,-1,0,14
Y2-S2-179K21,5,462,PS,exp,28,←,left,←,0.460816300008446,True,15,1,1,15
Y2-S2-179K21,5,463,PS,exp,38,↓,down,↓,0.5911165999714285,True,14,1,0,15
Y2-S2-179K21,5,464,PS,exp,44,↑,up,↑,0.5014599999412894,True,14,1,0,15
Y2-S2-179K21,5,465,PS,exp,48,→,right,→,0.9453200998250395,True,14,1,0,15
Y2-S2-179K21,5,466,PS,exp,38,←,left,←,0.40419719996862113,True,13,1,0,15
Y2-S2-179K21,5,467,PS,exp,45,↑,up,↑,1.5823601000010967,True,13,1,0,15
Y2-S2-179K21,5,468,PS,exp,43,↓,down,↓,0.6495598000474274,True,13,1,0,15
Y2-S2-179K21,5,469,PS,exp,27,←,left,←,0.6309042999055237,True,12,1,0,15
Y2-S2-179K21,5,470,PS,exp,50,↑,up,↑,0.5325919000897557,True,12,1,0,15
Y2-S2-179K21,5,471,PS,exp,27,→,right,→,0.6758841001428664,True,12,1,0,15
Y2-S2-179K21,5,472,PS,exp,49,↓,down,↓,0.5471330001018941,True,11,1,0,15
Y2-S2-179K21,5,473,PS,exp,37,←,left,←,0.4503277000039816,True,11,1,0,15
Y2-S2-179K21,5,474,PS,exp,45,↓,down,↓,0.6084521999582648,True,11,1,0,15
Y2-S2-179K21,5,475,PS,exp,34,←,right,→,0.4627915001474321,False,10,-1,1,16
Y2-S2-179K21,6,476,AS,intra_train,34,↓,down,↓,1.6691453999374062,True,25,-,-,-
Y2-S2-179K21,6,477,AS,intra_train,35,←,left,←,0.6707737999968231,True,25,-,-,-
Y2-S2-179K21,6,478,AS,intra_train,49,↓,down,↓,0.48393520014360547,True,25,-,-,-
Y2-S2-179K21,6,479,AS,intra_train,49,←,left,←,0.621721199946478,True,25,-,-,-
Y2-S2-179K21,6,480,AS,intra_train,49,↓,down,↓,1.2812711000442505,True,25,-,-,-
Y2-S2-179K21,6,481,AS,exp,32,←,left,←,0.6040397000033408,True,17,0,0,0
Y2-S2-179K21,6,482,AS,exp,40,↑,up,↑,0.6745442999526858,True,17,0,0,0
Y2-S2-179K21,6,483,AS,exp,35,↓,down,↓,0.5514980000443757,True,17,1,0,0
Y2-S2-179K21,6,484,AS,exp,46,→,right,→,0.5069947999436408,True,16,1,0,0
Y2-S2-179K21,6,485,AS,exp,34,↑,up,↑,0.6578502000775188,True,16,1,0,0
Y2-S2-179K21,6,486,AS,exp,46,←,left,←,0.5091173998080194,True,16,1,0,0
Y2-S2-179K21,6,487,AS,exp,33,↓,down,↓,0.661743100034073,True,15,1,0,0
Y2-S2-179K21,6,488,AS,exp,50,↑,up,↑,0.5290374998003244,True,15,1,0,0
Y2-S2-179K21,6,489,AS,exp,42,←,left,←,0.45870440010912716,True,15,1,0,0
Y2-S2-179K21,6,490,AS,exp,47,→,right,→,0.6256281000096351,True,14,1,0,0
Y2-S2-179K21,6,491,AS,exp,31,↓,down,↓,0.5989095999393612,True,14,1,0,0
Y2-S2-179K21,6,492,AS,exp,49,→,right,→,0.812574699986726,True,14,1,0,0
Y2-S2-179K21,6,493,AS,exp,34,↑,down,↓,0.5998742000665516,False,13,-1,1,1
Y2-S2-179K21,6,494,AS,exp,49,→,right,→,0.5947060999460518,True,14,-1,0,1
Y2-S2-179K21,6,495,AS,exp,50,←,left,←,0.5450671999715269,True,14,-1,0,1
Y2-S2-179K21,6,496,AS,exp,31,↑,up,↑,0.7974472001660615,True,14,1,1,2
Y2-S2-179K21,6,497,AS,exp,29,↓,down,↓,0.6088525999803096,True,13,1,0,2
Y2-S2-179K21,6,498,AS,exp,31,→,left,←,0.5903188001830131,False,13,-1,1,3
Y2-S2-179K21,6,499,AS,exp,33,↑,up,↑,0.6637142999097705,True,14,-1,0,3
Y2-S2-179K21,6,500,AS,exp,37,↓,down,↓,0.6527537999209017,True,14,-1,0,3
Y2-S2-179K21,6,501,AS,exp,30,←,left,←,0.6064032998401672,True,14,1,1,4
Y2-S2-179K21,6,502,AS,exp,28,→,left,←,0.9309306000359356,False,13,-1,1,5
Y2-S2-179K21,6,503,AS,exp,30,↑,down,↓,0.5853717001155019,False,14,-1,0,5
Y2-S2-179K21,6,504,AS,exp,30,→,right,→,0.4953754998277873,True,15,-1,0,5
Y2-S2-179K21,6,505,AS,exp,48,↓,down,↓,0.6390156999696046,True,15,-1,0,5
Y2-S2-179K21,6,506,AS,exp,29,↑,up,↑,0.6512233999092132,True,15,1,1,6
Y2-S2-179K21,6,507,AS,exp,30,←,left,←,0.680160699877888,True,14,1,0,6
Y2-S2-179K21,6,508,AS,exp,41,↓,down,↓,0.5988663001917303,True,14,1,0,6
Y2-S2-179K21,6,509,AS,exp,45,←,right,→,0.5895950000267476,False,14,-1,1,7
Y2-S2-179K21,6,510,AS,exp,45,↑,down,↓,0.7023380000609905,False,15,-1,0,7
Y2-S2-179K21,6,511,AS,exp,25,↓,down,↓,0.5385843999683857,True,16,-1,0,7
Y2-S2-179K21,6,512,AS,exp,39,↑,up,↑,0.6753990999422967,True,16,-1,0,7
Y2-S2-179K21,6,513,AS,exp,41,↓,down,↓,0.6107831001281738,True,16,1,1,8
Y2-S2-179K21,6,514,AS,exp,27,→,right,→,0.6097056001890451,True,15,1,0,8
Y2-S2-179K21,6,515,AS,exp,25,↓,down,↓,0.7517496000509709,True,15,1,0,8
Y2-S2-179K21,6,516,AS,exp,48,↑,up,↑,1.0625450001098216,True,15,1,0,8
Y2-S2-179K21,6,517,AS,exp,25,→,right,→,0.5965108999516815,True,14,1,0,8
Y2-S2-179K21,6,518,AS,exp,42,←,right,→,0.5488366999197751,False,14,-1,1,9
Y2-S2-179K21,6,519,AS,exp,33,↓,down,↓,0.6250553000718355,True,15,-1,0,9
Y2-S2-179K21,6,520,AS,exp,48,↑,up,↑,0.6636862999293953,True,15,-1,0,9
Y2-S2-179K21,6,521,AS,exp,35,←,left,←,0.7642439999617636,True,15,1,1,10
Y2-S2-179K21,6,522,AS,exp,43,↓,down,↓,0.6805865000933409,True,14,1,0,10
Y2-S2-179K21,6,523,AS,exp,46,→,right,→,0.679703300120309,True,14,1,0,10
Y2-S2-179K21,6,524,AS,exp,30,←,left,←,0.6821278999559581,True,14,1,0,10
Y2-S2-179K21,6,525,AS,exp,25,↓,down,↓,0.5737312999553978,True,13,1,0,10
Y2-S2-179K21,6,526,AS,exp,46,←,left,←,1.1804864001460373,True,13,1,0,10
Y2-S2-179K21,6,527,AS,exp,35,↑,down,↓,0.7533960998989642,False,13,-1,1,11
Y2-S2-179K21,6,528,AS,exp,25,↓,down,↓,1.0178215000778437,True,14,-1,0,11
Y2-S2-179K21,6,529,AS,exp,37,←,left,←,0.7269450998865068,True,14,-1,0,11
Y2-S2-179K21,6,530,AS,exp,40,↓,down,↓,0.739902300061658,True,14,1,1,12
Y2-S2-179K21,6,531,AS,exp,47,→,right,→,0.6737067999783903,True,13,1,0,12
Y2-S2-179K21,6,532,AS,exp,46,↓,down,↓,0.5962928999215364,True,13,1,0,12
Y2-S2-179K21,6,533,AS,exp,25,←,no_key,no_letter,-1.0,False,13,-1,1,13
Y2-S2-179K21,6,534,AS,exp,46,→,right,→,0.5268808999098837,True,14,-1,0,13
Y2-S2-179K21,6,535,AS,exp,26,↑,down,↓,0.6330709999892861,False,14,-1,0,13
Y2-S2-179K21,6,536,AS,exp,32,←,left,←,0.618732700124383,True,15,-1,0,13
Y2-S2-179K21,6,537,AS,exp,49,↓,down,↓,0.5389203999657184,True,15,-1,0,13
Y2-S2-179K21,6,538,AS,exp,39,←,left,←,1.0542950998060405,True,15,1,1,14
Y2-S2-179K21,6,539,AS,exp,36,↑,up,↑,0.7262749001383781,True,14,1,0,14
Y2-S2-179K21,6,540,AS,exp,26,↓,no_key,no_letter,-1.0,False,14,-1,1,15
Y2-S2-179K21,6,541,AS,exp,46,→,right,→,0.5136170999612659,True,15,-1,0,15
Y2-S2-179K21,6,542,AS,exp,47,↑,down,↓,0.6650135000236332,False,15,-1,0,15
Y2-S2-179K21,6,543,AS,exp,44,←,left,←,0.5191615999210626,True,16,-1,0,15
Y2-S2-179K21,6,544,AS,exp,33,→,right,→,0.6039329001214355,True,16,-1,0,15
Y2-S2-179K21,6,545,AS,exp,25,↓,down,↓,0.5444312999024987,True,16,1,1,16
Y2-S2-179K21,7,546,AS,intra_train,38,↑,left,←,0.6807375999633223,False,25,-,-,-
Y2-S2-179K21,7,547,AS,intra_train,49,↓,down,↓,0.5504634999670088,True,25,-,-,-
Y2-S2-179K21,7,548,AS,intra_train,32,←,left,←,0.6489774999208748,True,25,-,-,-
Y2-S2-179K21,7,549,AS,intra_train,36,→,right,→,1.5540134001057595,True,25,-,-,-
Y2-S2-179K21,7,550,AS,intra_train,42,←,left,←,0.6879061998333782,True,25,-,-,-
Y2-S2-179K21,7,551,AS,exp,32,→,right,→,0.5446265998762101,True,17,0,0,0
Y2-S2-179K21,7,552,AS,exp,32,←,left,←,0.510732299881056,True,17,0,0,0
Y2-S2-179K21,7,553,AS,exp,40,→,right,→,0.5414317999966443,True,17,1,0,0
Y2-S2-179K21,7,554,AS,exp,25,↓,down,↓,0.6968640999402851,True,16,1,0,0
Y2-S2-179K21,7,555,AS,exp,30,←,left,←,0.48941870010457933,True,16,1,0,0
Y2-S2-179K21,7,556,AS,exp,29,↑,up,↑,0.7066832999698818,True,16,1,0,0
Y2-S2-179K21,7,557,AS,exp,40,↓,down,↓,0.6250799000263214,True,15,1,0,0
Y2-S2-179K21,7,558,AS,exp,44,→,right,→,0.49237910006195307,True,15,1,0,0
Y2-S2-179K21,7,559,AS,exp,35,↑,up,↑,0.8704780999105424,True,15,1,0,0
Y2-S2-179K21,7,560,AS,exp,35,→,left,←,0.7677322998642921,False,14,-1,1,1
Y2-S2-179K21,7,561,AS,exp,43,←,right,→,0.9073553001508117,False,15,-1,0,1
Y2-S2-179K21,7,562,AS,exp,39,→,right,→,0.5359263999853283,True,16,-1,0,1
Y2-S2-179K21,7,563,AS,exp,30,↓,down,↓,0.5663050999864936,True,16,-1,0,1
Y2-S2-179K21,7,564,AS,exp,42,↑,up,↑,0.6874633999541402,True,16,1,1,2
Y2-S2-179K21,7,565,AS,exp,29,←,left,←,0.5049790001939982,True,15,1,0,2
Y2-S2-179K21,7,566,AS,exp,40,↓,down,↓,0.656589400023222,True,15,1,0,2
Y2-S2-179K21,7,567,AS,exp,36,←,left,←,0.7182140999939293,True,15,1,0,2
Y2-S2-179K21,7,568,AS,exp,41,→,right,→,0.598184100119397,True,14,1,0,2
Y2-S2-179K21,7,569,AS,exp,49,↑,up,↑,0.5807366999797523,True,14,1,0,2
Y2-S2-179K21,7,570,AS,exp,37,→,right,→,0.5855986999813467,True,14,1,0,2
Y2-S2-179K21,7,571,AS,exp,29,↓,down,↓,0.5475732998456806,True,13,1,0,2
Y2-S2-179K21,7,572,AS,exp,32,→,right,→,0.48475740011781454,True,13,1,0,2
Y2-S2-179K21,7,573,AS,exp,40,↑,down,↓,0.7540706000290811,False,13,-1,1,3
Y2-S2-179K21,7,574,AS,exp,37,↓,down,↓,0.4654484000056982,True,14,-1,0,3
Y2-S2-179K21,7,575,AS,exp,38,←,left,←,0.46867830003611743,True,14,-1,0,3
Y2-S2-179K21,7,576,AS,exp,37,↑,up,↑,0.6522929999046028,True,14,1,1,4
Y2-S2-179K21,7,577,AS,exp,29,→,left,←,0.7472882000729442,False,13,-1,1,5
Y2-S2-179K21,7,578,AS,exp,25,↑,up,↑,0.5337693998590112,True,14,-1,0,5
Y2-S2-179K21,7,579,AS,exp,26,←,left,←,0.48503819992765784,True,14,-1,0,5
Y2-S2-179K21,7,580,AS,exp,31,→,left,←,0.5753991999663413,False,14,-1,0,5
Y2-S2-179K21,7,581,AS,exp,44,↓,down,↓,0.6958582000806928,True,15,-1,0,5
Y2-S2-179K21,7,582,AS,exp,27,←,left,←,0.5281618000008166,True,15,-1,0,5
Y2-S2-179K21,7,583,AS,exp,29,↑,up,↑,0.5807361998595297,True,15,1,1,6
Y2-S2-179K21,7,584,AS,exp,36,→,right,→,0.7808320999611169,True,14,1,0,6
Y2-S2-179K21,7,585,AS,exp,25,↓,down,↓,0.8915059000719339,True,14,1,0,6
Y2-S2-179K21,7,586,AS,exp,42,←,left,←,0.5009441000875086,True,14,1,0,6
Y2-S2-179K21,7,587,AS,exp,38,→,right,→,0.49577740021049976,True,13,1,0,6
Y2-S2-179K21,7,588,AS,exp,37,←,right,→,0.7173671000637114,False,13,-1,1,7
Y2-S2-179K21,7,589,AS,exp,38,↑,up,↑,0.6876995000056922,True,14,-1,0,7
Y2-S2-179K21,7,590,AS,exp,35,→,right,→,0.727402999997139,True,14,-1,0,7
Y2-S2-179K21,7,591,AS,exp,47,↓,down,↓,0.6768797999247909,True,14,1,1,8
Y2-S2-179K21,7,592,AS,exp,45,→,no_key,no_letter,-1.0,False,13,-1,1,9
Y2-S2-179K21,7,593,AS,exp,38,↓,down,↓,0.5382566000334918,True,14,-1,0,9
Y2-S2-179K21,7,594,AS,exp,38,↑,down,↓,0.7753578999545425,False,14,-1,0,9
Y2-S2-179K21,7,595,AS,exp,50,↓,down,↓,0.8356667999178171,True,15,-1,0,9
Y2-S2-179K21,7,596,AS,exp,43,←,left,←,0.6292599001899362,True,15,-1,0,9
Y2-S2-179K21,7,597,AS,exp,48,↑,up,↑,0.7100484999828041,True,15,1,1,10
Y2-S2-179K21,7,598,AS,exp,31,←,left,←,0.6222435999661684,True,14,1,0,10
Y2-S2-179K21,7,599,AS,exp,30,↓,down,↓,0.7083137999288738,True,14,1,0,10
Y2-S2-179K21,7,600,AS,exp,43,←,left,←,0.4916679000016302,True,14,1,0,10
Y2-S2-179K21,7,601,AS,exp,33,↓,down,↓,0.8393141999840736,True,13,1,0,10
Y2-S2-179K21,7,602,AS,exp,25,↑,up,↑,0.7559565999545157,True,13,1,0,10
Y2-S2-179K21,7,603,AS,exp,25,←,left,←,0.5455644999165088,True,13,1,0,10
Y2-S2-179K21,7,604,AS,exp,48,↑,up,↑,0.8105089999735355,True,12,1,0,10
Y2-S2-179K21,7,605,AS,exp,47,→,left,←,1.8218526998534799,False,12,-1,1,11
Y2-S2-179K21,7,606,AS,exp,41,←,left,←,0.8840516000054777,True,13,-1,0,11
Y2-S2-179K21,7,607,AS,exp,34,↑,down,↓,0.8656097000930458,False,13,-1,0,11
Y2-S2-179K21,7,608,AS,exp,27,→,right,→,0.6436973998788744,True,14,-1,0,11
Y2-S2-179K21,7,609,AS,exp,34,↑,up,↑,1.8984550000168383,True,14,-1,0,11
Y2-S2-179K21,7,610,AS,exp,26,←,right,→,1.3005067000631243,False,14,-1,0,11
Y2-S2-179K21,7,611,AS,exp,30,↓,down,↓,0.7430273001082242,True,15,-1,0,11
Y2-S2-179K21,7,612,AS,exp,31,→,right,→,0.6184853999875486,True,15,-1,0,11
Y2-S2-179K21,7,613,AS,exp,43,↑,up,↑,0.6581510999239981,True,15,1,1,12
Y2-S2-179K21,7,614,AS,exp,41,←,left,←,0.6140546998940408,True,14,1,0,12
Y2-S2-179K21,7,615,AS,exp,45,→,right,→,0.7365931000094861,True,14,1,0,12
Y2-S2-179K21,7,616,AS,exp,38,↑,up,↑,0.662092899903655,True,14,1,0,12
Y2-S2-179K21,7,617,AS,exp,41,←,left,←,0.44667620002292097,True,13,1,0,12
Y2-S2-179K21,7,618,AS,exp,38,↓,left,←,1.1200937998946756,False,13,-1,1,13
Y2-S2-179K21,7,619,AS,exp,48,←,left,←,0.6502843999769539,True,14,-1,0,13
Y2-S2-179K21,7,620,AS,exp,49,→,left,←,0.4883207001257688,False,14,-1,0,13
Y2-S2-179K21,7,621,AS,exp,38,←,left,←,0.6115972001571208,True,15,-1,0,13
Y2-S2-179K21,7,622,AS,exp,45,↑,up,↑,0.5434384001418948,True,15,-1,0,13
Y2-S2-179K21,7,623,AS,exp,49,→,left,←,0.616696999873966,False,15,-1,0,13
Y2-S2-179K21,7,624,AS,exp,44,↓,down,↓,1.346826900029555,True,16,-1,0,13
Y2-S2-179K21,7,625,AS,exp,25,↑,down,↓,1.2421361999586225,False,16,-1,0,13
Y2-S2-179K21,7,626,AS,exp,42,↓,down,↓,0.8611095999367535,True,17,-1,0,13
Y2-S2-179K21,7,627,AS,exp,28,↑,down,↓,1.0257866000756621,False,17,-1,0,13
Y2-S2-179K21,7,628,AS,exp,27,→,right,→,0.6376632999163121,True,18,-1,0,13
Y2-S2-179K21,7,629,AS,exp,50,←,left,←,0.6351383000146598,True,18,-1,0,13
Y2-S2-179K21,7,630,AS,exp,32,↑,up,↑,0.773290199926123,True,18,1,1,14
Y2-S2-179K21,7,631,AS,exp,40,←,left,←,0.5728951999917626,True,17,1,0,14
Y2-S2-179K21,7,632,AS,exp,38,→,right,→,0.574955000076443,True,17,1,0,14
Y2-S2-179K21,7,633,AS,exp,38,↓,down,↓,0.7302719000726938,True,17,1,0,14
Y2-S2-179K21,7,634,AS,exp,47,→,right,→,0.5742607000283897,True,16,1,0,14
Y2-S2-179K21,7,635,AS,exp,47,↑,up,↑,0.5404048999771476,True,16,1,0,14
Y2-S2-179K21,7,636,AS,exp,46,↓,down,↓,0.6815504999831319,True,16,1,0,14
Y2-S2-179K21,7,637,AS,exp,28,→,right,→,0.5071505999658257,True,15,1,0,14
Y2-S2-179K21,7,638,AS,exp,38,←,left,←,0.704625700134784,True,15,1,0,14
Y2-S2-179K21,7,639,AS,exp,36,↑,up,↑,0.6715998998843133,True,15,1,0,14
Y2-S2-179K21,7,640,AS,exp,44,↓,up,↑,0.9760959001723677,False,14,-1,1,15
Y2-S2-179K21,7,641,AS,exp,31,→,down,↓,1.0537312999367714,False,15,-1,0,15
Y2-S2-179K21,7,642,AS,exp,49,↑,up,↑,0.8141815999988467,True,16,-1,0,15
Y2-S2-179K21,7,643,AS,exp,37,→,right,→,0.5587677001021802,True,16,-1,0,15
Y2-S2-179K21,7,644,AS,exp,39,←,left,←,0.5991905999835581,True,16,1,1,16
Y2-S2-179K21,8,645,PS,intra_train,45,↓,right,→,1.5539577000308782,False,19,-,-,-
Y2-S2-179K21,8,646,PS,intra_train,50,↑,up,↑,0.8517430999781936,True,19,-,-,-
Y2-S2-179K21,8,647,PS,intra_train,39,↓,down,↓,0.7153461000416428,True,19,-,-,-
Y2-S2-179K21,8,648,PS,intra_train,50,←,left,←,0.5563749000430107,True,19,-,-,-
Y2-S2-179K21,8,649,PS,intra_train,39,→,right,→,0.5649482998996973,True,19,-,-,-
Y2-S2-179K21,8,650,PS,exp,50,↓,down,↓,0.6398964000400156,True,13,0,0,0
Y2-S2-179K21,8,651,PS,exp,26,→,right,→,0.4887482998892665,True,13,0,0,0
Y2-S2-179K21,8,652,PS,exp,43,↓,down,↓,0.48037809995003045,True,13,1,0,0
Y2-S2-179K21,8,653,PS,exp,32,→,left,←,0.5783402000088245,False,12,-1,1,1
Y2-S2-179K21,8,654,PS,exp,25,↑,up,↑,0.5519753000698984,True,13,-1,0,1
Y2-S2-179K21,8,655,PS,exp,28,←,right,→,0.6045674998313189,False,13,-1,0,1
Y2-S2-179K21,8,656,PS,exp,34,→,right,→,0.5877334999386221,True,14,-1,0,1
Y2-S2-179K21,8,657,PS,exp,47,←,left,←,0.3671437001321465,True,14,-1,0,1
Y2-S2-179K21,8,658,PS,exp,29,→,left,←,0.47455790010280907,False,14,-1,0,1
Y2-S2-179K21,8,659,PS,exp,40,←,left,←,0.6094532001297921,True,15,-1,0,1
Y2-S2-179K21,8,660,PS,exp,25,→,right,→,0.43205410009250045,True,15,-1,0,1
Y2-S2-179K21,8,661,PS,exp,47,←,left,←,0.6457555999513716,True,15,1,1,2
Y2-S2-179K21,8,662,PS,exp,25,↓,down,↓,0.6784097999334335,True,14,1,0,2
Y2-S2-179K21,8,663,PS,exp,48,→,right,→,0.5007751998491585,True,14,1,0,2
Y2-S2-179K21,8,664,PS,exp,33,↑,up,↑,0.5165146000217646,True,14,1,0,2
Y2-S2-179K21,8,665,PS,exp,50,↓,down,↓,0.6154916000086814,True,13,1,0,2
Y2-S2-179K21,8,666,PS,exp,41,←,right,→,0.8363288000691682,False,13,-1,1,3
Y2-S2-179K21,8,667,PS,exp,49,→,right,→,0.6381049999035895,True,14,-1,0,3
Y2-S2-179K21,8,668,PS,exp,29,←,left,←,0.4942954999860376,True,14,-1,0,3
Y2-S2-179K21,8,669,PS,exp,48,→,right,→,0.7495466000400484,True,14,1,1,4
Y2-S2-179K21,8,670,PS,exp,49,↓,right,→,0.8220796000678092,False,13,-1,1,5
Y2-S2-179K21,8,671,PS,exp,44,←,left,←,0.509778399951756,True,14,-1,0,5
Y2-S2-179K21,8,672,PS,exp,34,↑,up,↑,0.5130500001832843,True,14,-1,0,5
Y2-S2-179K21,8,673,PS,exp,40,↓,down,↓,0.6806629002094269,True,14,1,1,6
Y2-S2-179K21,8,674,PS,exp,48,↑,up,↑,0.5327264999505132,True,13,1,0,6
Y2-S2-179K21,8,675,PS,exp,33,←,left,←,0.4613286000676453,True,13,1,0,6
Y2-S2-179K21,8,676,PS,exp,42,↑,up,↑,0.4907534997910261,True,13,1,0,6
Y2-S2-179K21,8,677,PS,exp,33,↓,down,↓,0.6885880001354963,True,12,1,0,6
Y2-S2-179K21,8,678,PS,exp,30,→,left,←,0.4658705999609083,False,12,-1,1,7
Y2-S2-179K21,8,679,PS,exp,37,↓,down,↓,0.542246799916029,True,13,-1,0,7
Y2-S2-179K21,8,680,PS,exp,27,←,left,←,0.6297190999612212,True,13,-1,0,7
Y2-S2-179K21,8,681,PS,exp,50,→,right,→,0.6384632000699639,True,13,1,1,8
Y2-S2-179K21,8,682,PS,exp,47,←,left,←,0.4837120999582112,True,12,1,0,8
Y2-S2-179K21,8,683,PS,exp,27,↑,up,↑,0.560841399943456,True,12,1,0,8
Y2-S2-179K21,8,684,PS,exp,34,←,left,←,0.5552000000607222,True,12,1,0,8
Y2-S2-179K21,8,685,PS,exp,26,→,right,→,0.6169181999284774,True,11,1,0,8
Y2-S2-179K21,8,686,PS,exp,45,←,left,←,0.39223139989189804,True,11,1,0,8
Y2-S2-179K21,8,687,PS,exp,34,↓,down,↓,0.6252415000926703,True,11,1,0,8
Y2-S2-179K21,8,688,PS,exp,35,↑,down,↓,0.7226127998437732,False,10,-1,1,9
Y2-S2-179K21,8,689,PS,exp,34,→,right,→,0.7698729000985622,True,11,-1,0,9
Y2-S2-179K21,8,690,PS,exp,38,↑,up,↑,0.5770485000684857,True,11,-1,0,9
Y2-S2-179K21,8,691,PS,exp,44,↓,down,↓,0.5975787998177111,True,11,1,1,10
Y2-S2-179K21,8,692,PS,exp,28,←,left,←,0.6816547999624163,True,10,1,0,10
Y2-S2-179K21,8,693,PS,exp,40,↑,up,↑,0.6279109998140484,True,10,1,0,10
Y2-S2-179K21,8,694,PS,exp,31,→,left,←,0.5033176001161337,False,10,-1,1,11
Y2-S2-179K21,8,695,PS,exp,49,←,left,←,0.5206515998579562,True,11,-1,0,11
Y2-S2-179K21,8,696,PS,exp,48,→,right,→,0.7324993000365794,True,11,-1,0,11
Y2-S2-179K21,8,697,PS,exp,38,↑,up,↑,0.790579600026831,True,11,1,1,12
Y2-S2-179K21,8,698,PS,exp,50,←,left,←,0.45232509984634817,True,10,1,0,12
Y2-S2-179K21,8,699,PS,exp,41,↑,up,↑,0.4742894999217242,True,10,1,0,12
Y2-S2-179K21,8,700,PS,exp,32,→,right,→,0.5948942000977695,True,10,1,0,12
Y2-S2-179K21,8,701,PS,exp,33,←,left,←,0.5886327000334859,True,9,1,0,12
Y2-S2-179K21,8,702,PS,exp,35,↓,down,↓,0.7732416000217199,True,9,1,0,12
Y2-S2-179K21,8,703,PS,exp,46,↑,left,←,0.5887507000006735,False,9,-1,1,13
Y2-S2-179K21,8,704,PS,exp,26,↓,down,↓,0.7660825999919325,True,10,-1,0,13
Y2-S2-179K21,8,705,PS,exp,47,↑,down,↓,1.361441200133413,False,10,-1,0,13
Y2-S2-179K21,8,706,PS,exp,25,↓,up,↑,0.7914209999144077,False,11,-1,0,13
Y2-S2-179K21,8,707,PS,exp,38,←,left,←,0.47182580013759434,True,12,-1,0,13
Y2-S2-179K21,8,708,PS,exp,36,↓,no_key,no_letter,-1.0,False,12,-1,0,13
Y2-S2-179K21,8,709,PS,exp,35,↑,up,↑,0.765659200027585,True,13,-1,0,13
Y2-S2-179K21,8,710,PS,exp,34,←,left,←,0.5404530002269894,True,13,-1,0,13
Y2-S2-179K21,8,711,PS,exp,48,↑,left,←,0.7252899999730289,False,13,-1,0,13
Y2-S2-179K21,8,712,PS,exp,26,↓,down,↓,1.382859000004828,True,14,-1,0,13
Y2-S2-179K21,8,713,PS,exp,34,→,right,→,0.5313122000079602,True,14,-1,0,13
Y2-S2-179K21,8,714,PS,exp,40,←,left,←,0.48507319996133447,True,14,1,1,14
Y2-S2-179K21,8,715,PS,exp,27,↑,up,↑,0.4970760999713093,True,13,1,0,14
Y2-S2-179K21,8,716,PS,exp,35,←,left,←,0.5784889000933617,True,13,1,0,14
Y2-S2-179K21,8,717,PS,exp,33,↓,down,↓,0.6739007001742721,True,13,1,0,14
Y2-S2-179K21,8,718,PS,exp,32,↑,down,↓,0.5123382997699082,False,12,-1,1,15
Y2-S2-179K21,8,719,PS,exp,34,→,right,→,0.5416701999492943,True,13,-1,0,15
Y2-S2-179K21,8,720,PS,exp,35,↓,down,↓,0.661796199856326,True,13,-1,0,15
Y2-S2-179K21,8,721,PS,exp,40,→,right,→,0.5018692999146879,True,13,1,1,16
