PART_ID,Block_no,Trial_no,Block_type,Trial_type,CSI,Stim_letter,Key_pressed,letter_choose,Rt,Corr,Stimulus Time,Level,Reversal,Revs_count
Y2-S2-267K23,1,1,PS,train,29,←,left,←,0.6955037000589073,True,30,-,-,-
Y2-S2-267K23,1,2,PS,train,47,→,right,→,0.7021216996945441,True,30,-,-,-
Y2-S2-267K23,1,3,PS,train,28,↓,down,↓,0.773526200093329,True,30,-,-,-
Y2-S2-267K23,1,4,PS,train,45,↑,up,↑,0.6011740998364985,True,30,-,-,-
Y2-S2-267K23,1,5,PS,train,42,←,right,→,0.8276072996668518,False,30,-,-,-
Y2-S2-267K23,1,6,PS,train,46,↑,up,↑,0.8376339999958873,True,30,-,-,-
Y2-S2-267K23,1,7,PS,train,48,→,right,→,0.6338662002235651,True,30,-,-,-
Y2-S2-267K23,1,8,PS,train,36,←,left,←,1.2113407999277115,True,30,-,-,-
Y2-S2-267K23,1,9,PS,train,34,→,right,→,0.808827499859035,True,30,-,-,-
Y2-S2-267K23,1,10,PS,train,45,↑,up,↑,0.7879849998280406,True,30,-,-,-
Y2-S2-267K23,2,11,AS,train,46,←,left,←,0.7344859996810555,True,45,-,-,-
Y2-S2-267K23,2,12,AS,train,33,→,right,→,0.6843500998802483,True,45,-,-,-
Y2-S2-267K23,2,13,AS,train,47,←,left,←,0.5674756998196244,True,45,-,-,-
Y2-S2-267K23,2,14,AS,train,37,↓,down,↓,0.8838363997638226,True,45,-,-,-
Y2-S2-267K23,2,15,AS,train,30,→,right,→,0.6844986001960933,True,45,-,-,-
Y2-S2-267K23,2,16,AS,train,40,↓,down,↓,0.6513630002737045,True,45,-,-,-
Y2-S2-267K23,2,17,AS,train,44,→,right,→,0.7839321997016668,True,45,-,-,-
Y2-S2-267K23,2,18,AS,train,47,←,left,←,0.5343051999807358,True,45,-,-,-
Y2-S2-267K23,2,19,AS,train,38,→,right,→,0.5175598002970219,True,45,-,-,-
Y2-S2-267K23,2,20,AS,train,35,↑,up,↑,0.6175548997707665,True,45,-,-,-
Y2-S2-267K23,-,21,PS,adaptive,28,←,left,←,0.6865981002338231,True,10,0,0,0
Y2-S2-267K23,-,22,PS,adaptive,26,↓,down,↓,0.6766682001762092,True,10,0,0,0
Y2-S2-267K23,-,23,PS,adaptive,29,←,left,←,0.5548586999066174,True,10,1,0,0
Y2-S2-267K23,-,24,PS,adaptive,39,↑,up,↑,0.4745907001197338,True,9,1,0,0
Y2-S2-267K23,-,25,PS,adaptive,26,↓,down,↓,0.7108423998579383,True,9,1,0,0
Y2-S2-267K23,-,26,PS,adaptive,30,→,right,→,0.49522490007802844,True,9,1,0,0
Y2-S2-267K23,-,27,PS,adaptive,37,↓,down,↓,0.6604833002202213,True,8,1,0,0
Y2-S2-267K23,-,28,PS,adaptive,43,→,left,←,0.9442803002893925,False,8,-1,1,1
Y2-S2-267K23,-,29,PS,adaptive,47,↓,down,↓,0.6122581996023655,True,9,-1,0,1
Y2-S2-267K23,-,30,PS,adaptive,43,↑,down,↓,1.1289038001559675,False,9,-1,0,1
Y2-S2-267K23,-,31,PS,adaptive,37,→,left,←,0.7956277998164296,False,10,-1,0,1
Y2-S2-267K23,-,32,PS,adaptive,47,↑,up,↑,0.6489714998751879,True,11,-1,0,1
Y2-S2-267K23,-,33,PS,adaptive,41,←,left,←,0.5292400997132063,True,11,-1,0,1
Y2-S2-267K23,-,34,PS,adaptive,34,↓,down,↓,0.8720944998785853,True,11,1,1,2
Y2-S2-267K23,-,35,PS,adaptive,27,→,right,→,0.4718194999732077,True,10,1,0,2
Y2-S2-267K23,-,36,PS,adaptive,40,↓,down,↓,0.9105020998977125,True,10,1,0,2
Y2-S2-267K23,-,37,PS,adaptive,49,→,right,→,0.582549000158906,True,10,1,0,2
Y2-S2-267K23,-,38,PS,adaptive,33,↑,left,←,0.8860414000228047,False,9,-1,1,3
Y2-S2-267K23,-,39,PS,adaptive,29,→,right,→,0.5000973003916442,True,10,-1,0,3
Y2-S2-267K23,-,40,PS,adaptive,48,←,right,→,0.8565909001044929,False,10,-1,0,3
Y2-S2-267K23,-,41,PS,adaptive,37,→,right,→,0.6249143998138607,True,11,-1,0,3
Y2-S2-267K23,-,42,PS,adaptive,31,↑,up,↑,0.44010369991883636,True,11,-1,0,3
Y2-S2-267K23,-,43,PS,adaptive,38,→,left,←,0.6831006002612412,False,11,-1,0,3
Y2-S2-267K23,-,44,PS,adaptive,27,↓,down,↓,0.5644389996305108,True,12,-1,0,3
Y2-S2-267K23,-,45,PS,adaptive,44,↑,down,↓,1.123449900187552,False,12,-1,0,3
Y2-S2-267K23,-,46,PS,adaptive,31,↓,up,↑,0.7361208000220358,False,13,-1,0,3
Y2-S2-267K23,-,47,PS,adaptive,36,↑,up,↑,0.5808428996242583,True,14,-1,0,3
Y2-S2-267K23,-,48,PS,adaptive,33,→,right,→,0.596032400149852,True,14,-1,0,3
Y2-S2-267K23,-,49,PS,adaptive,39,↓,down,↓,0.7618096000514925,True,14,1,1,4
Y2-S2-267K23,-,50,AS,adaptive,28,→,right,→,0.6040668003261089,True,20,0,0,0
Y2-S2-267K23,-,51,AS,adaptive,41,↑,up,↑,0.38390510017052293,True,20,0,0,0
Y2-S2-267K23,-,52,AS,adaptive,41,↓,down,↓,0.6975533999502659,True,20,1,0,0
Y2-S2-267K23,-,53,AS,adaptive,49,→,right,→,0.554695500060916,True,19,1,0,0
Y2-S2-267K23,-,54,AS,adaptive,33,←,left,←,0.7144348002038896,True,19,1,0,0
Y2-S2-267K23,-,55,AS,adaptive,46,↑,up,↑,0.9954769001342356,True,19,1,0,0
Y2-S2-267K23,-,56,AS,adaptive,41,↓,down,↓,0.6999737001024187,True,18,1,0,0
Y2-S2-267K23,-,57,AS,adaptive,29,↑,up,↑,0.8889584001153708,True,18,1,0,0
Y2-S2-267K23,-,58,AS,adaptive,40,←,right,→,0.6301299999468029,False,18,-1,1,1
Y2-S2-267K23,-,59,AS,adaptive,26,→,right,→,0.7169868000783026,True,19,-1,0,1
Y2-S2-267K23,-,60,AS,adaptive,46,↓,down,↓,0.7549219997599721,True,19,-1,0,1
Y2-S2-267K23,-,61,AS,adaptive,30,↑,up,↑,1.021356100216508,True,19,1,1,2
Y2-S2-267K23,-,62,AS,adaptive,36,→,right,→,0.9729148000478745,True,18,1,0,2
Y2-S2-267K23,-,63,AS,adaptive,27,↓,down,↓,0.7030731998383999,True,18,1,0,2
Y2-S2-267K23,-,64,AS,adaptive,43,→,right,→,0.5247613997198641,True,18,1,0,2
Y2-S2-267K23,-,65,AS,adaptive,48,←,left,←,0.8272624001838267,True,17,1,0,2
Y2-S2-267K23,-,66,AS,adaptive,49,↓,down,↓,0.6804546001367271,True,17,1,0,2
Y2-S2-267K23,-,67,AS,adaptive,37,↑,up,↑,0.7744652000255883,True,17,1,0,2
Y2-S2-267K23,-,68,AS,adaptive,50,↓,down,↓,0.6310736001469195,True,16,1,0,2
Y2-S2-267K23,-,69,AS,adaptive,49,←,left,←,0.7778587997891009,True,16,1,0,2
Y2-S2-267K23,-,70,AS,adaptive,25,↓,down,↓,0.8087226999923587,True,16,1,0,2
Y2-S2-267K23,-,71,AS,adaptive,41,↑,up,↑,0.46363529982045293,True,15,1,0,2
Y2-S2-267K23,-,72,AS,adaptive,42,↓,down,↓,0.6226164996623993,True,15,1,0,2
Y2-S2-267K23,-,73,AS,adaptive,47,←,left,←,0.8185813999734819,True,15,1,0,2
Y2-S2-267K23,-,74,AS,adaptive,43,↑,up,↑,0.4055391997098923,True,14,1,0,2
Y2-S2-267K23,-,75,AS,adaptive,34,↓,down,↓,0.9112791996449232,True,14,1,0,2
Y2-S2-267K23,-,76,AS,adaptive,38,↑,up,↑,0.446928100194782,True,14,1,0,2
Y2-S2-267K23,-,77,AS,adaptive,25,→,left,←,0.7694603996351361,False,13,-1,1,3
Y2-S2-267K23,-,78,AS,adaptive,43,←,left,←,0.8066009995527565,True,14,-1,0,3
Y2-S2-267K23,-,79,AS,adaptive,36,↑,right,→,0.9801346003077924,False,14,-1,0,3
Y2-S2-267K23,-,80,AS,adaptive,32,↓,down,↓,0.6850271001458168,True,15,-1,0,3
Y2-S2-267K23,-,81,AS,adaptive,47,↑,up,↑,0.5701600001193583,True,15,-1,0,3
Y2-S2-267K23,-,82,AS,adaptive,36,↓,down,↓,0.6685652998276055,True,15,1,1,4
Y2-S2-267K23,1,83,AS,intra_train,39,→,right,→,1.1136607001535594,True,21,-,-,-
Y2-S2-267K23,1,84,AS,intra_train,39,↓,down,↓,0.739166900049895,True,21,-,-,-
Y2-S2-267K23,1,85,AS,intra_train,28,←,left,←,0.7455160999670625,True,21,-,-,-
Y2-S2-267K23,1,86,AS,intra_train,48,↑,up,↑,0.6973446998745203,True,21,-,-,-
Y2-S2-267K23,1,87,AS,intra_train,48,→,right,→,0.6651510000228882,True,21,-,-,-
Y2-S2-267K23,1,88,AS,exp,27,←,left,←,1.0522622996941209,True,14,0,0,0
Y2-S2-267K23,1,89,AS,exp,39,↓,up,↑,0.6328297001309693,False,14,-1,0,0
Y2-S2-267K23,1,90,AS,exp,48,↑,down,↓,0.737842199858278,False,15,-1,0,0
Y2-S2-267K23,1,91,AS,exp,27,→,left,←,0.8144890000112355,False,16,-1,0,0
Y2-S2-267K23,1,92,AS,exp,27,↓,down,↓,0.6615273002535105,True,17,-1,0,0
Y2-S2-267K23,1,93,AS,exp,46,←,left,←,0.667454999871552,True,17,-1,0,0
Y2-S2-267K23,1,94,AS,exp,40,↓,down,↓,0.6036945995874703,True,17,1,1,1
Y2-S2-267K23,1,95,AS,exp,38,↑,up,↑,1.363869299646467,True,16,1,0,1
Y2-S2-267K23,1,96,AS,exp,39,←,left,←,0.6883016000501812,True,16,1,0,1
Y2-S2-267K23,1,97,AS,exp,40,↓,down,↓,0.6959385997615755,True,16,1,0,1
Y2-S2-267K23,1,98,AS,exp,33,←,left,←,0.7083177003078163,True,15,1,0,1
Y2-S2-267K23,1,99,AS,exp,41,↓,down,↓,0.6767825996503234,True,15,1,0,1
Y2-S2-267K23,1,100,AS,exp,43,←,left,←,0.5670511000789702,True,15,1,0,1
Y2-S2-267K23,1,101,AS,exp,36,→,left,←,0.6513431998901069,False,14,-1,1,2
Y2-S2-267K23,1,102,AS,exp,49,↓,down,↓,0.5222638002596796,True,15,-1,0,2
Y2-S2-267K23,1,103,AS,exp,45,→,right,→,0.4756733998656273,True,15,-1,0,2
Y2-S2-267K23,1,104,AS,exp,29,←,left,←,0.6577031998895109,True,15,1,1,3
Y2-S2-267K23,1,105,AS,exp,28,↑,down,↓,0.7328736996278167,False,14,-1,1,4
Y2-S2-267K23,1,106,AS,exp,35,←,left,←,0.5371109000407159,True,15,-1,0,4
Y2-S2-267K23,1,107,AS,exp,44,↑,up,↑,0.814593699760735,True,15,-1,0,4
Y2-S2-267K23,1,108,AS,exp,25,→,left,←,0.7301645996049047,False,15,-1,0,4
Y2-S2-267K23,1,109,AS,exp,46,↑,up,↑,0.7388527998700738,True,16,-1,0,4
Y2-S2-267K23,1,110,AS,exp,34,↓,up,↑,0.9891299000009894,False,16,-1,0,4
Y2-S2-267K23,1,111,AS,exp,47,↑,up,↑,0.7106869998387992,True,17,-1,0,4
Y2-S2-267K23,1,112,AS,exp,32,↓,down,↓,0.5984869003295898,True,17,-1,0,4
Y2-S2-267K23,1,113,AS,exp,45,←,left,←,0.46069199964404106,True,17,1,1,5
Y2-S2-267K23,1,114,AS,exp,50,↑,up,↑,0.4366495003923774,True,16,1,0,5
Y2-S2-267K23,1,115,AS,exp,31,→,right,→,0.4999028001911938,True,16,1,0,5
Y2-S2-267K23,1,116,AS,exp,47,↑,up,↑,0.5775830000638962,True,16,1,0,5
Y2-S2-267K23,1,117,AS,exp,39,←,left,←,0.6572354002855718,True,15,1,0,5
Y2-S2-267K23,1,118,AS,exp,50,↓,down,↓,0.842403800226748,True,15,1,0,5
Y2-S2-267K23,1,119,AS,exp,46,→,left,←,0.6736765000969172,False,15,-1,1,6
Y2-S2-267K23,1,120,AS,exp,34,↓,down,↓,0.5773160997778177,True,16,-1,0,6
Y2-S2-267K23,1,121,AS,exp,48,↑,up,↑,0.5843977001495659,True,16,-1,0,6
Y2-S2-267K23,1,122,AS,exp,33,↓,down,↓,0.5908468002453446,True,16,1,1,7
Y2-S2-267K23,1,123,AS,exp,46,←,left,←,0.7681987001560628,True,15,1,0,7
Y2-S2-267K23,1,124,AS,exp,36,↑,up,↑,0.643550300039351,True,15,1,0,7
Y2-S2-267K23,1,125,AS,exp,48,→,right,→,0.5022164997644722,True,15,1,0,7
Y2-S2-267K23,1,126,AS,exp,43,←,right,→,0.7724111001007259,False,14,-1,1,8
Y2-S2-267K23,1,127,AS,exp,31,↑,up,↑,0.6072212001308799,True,15,-1,0,8
Y2-S2-267K23,1,128,AS,exp,49,←,left,←,0.5223774001933634,True,15,-1,0,8
Y2-S2-267K23,1,129,AS,exp,27,↓,left,←,0.7108395001851022,False,15,-1,0,8
Y2-S2-267K23,1,130,AS,exp,27,→,right,→,0.6782756000757217,True,16,-1,0,8
Y2-S2-267K23,1,131,AS,exp,44,↓,down,↓,0.6522317999042571,True,16,-1,0,8
Y2-S2-267K23,1,132,AS,exp,38,→,right,→,0.6827861997298896,True,16,1,1,9
Y2-S2-267K23,1,133,AS,exp,41,←,right,→,0.5882046995684505,False,15,-1,1,10
Y2-S2-267K23,1,134,AS,exp,48,↑,up,↑,0.49885289976373315,True,16,-1,0,10
Y2-S2-267K23,1,135,AS,exp,44,→,right,→,0.44661480002105236,True,16,-1,0,10
Y2-S2-267K23,1,136,AS,exp,26,↓,down,↓,0.668249299749732,True,16,1,1,11
Y2-S2-267K23,1,137,AS,exp,29,↑,up,↑,0.8213987001217902,True,15,1,0,11
Y2-S2-267K23,1,138,AS,exp,29,↓,down,↓,0.6278295000083745,True,15,1,0,11
Y2-S2-267K23,1,139,AS,exp,47,↑,up,↑,0.6828832998871803,True,15,1,0,11
Y2-S2-267K23,1,140,AS,exp,28,↓,down,↓,0.6632528002373874,True,14,1,0,11
Y2-S2-267K23,1,141,AS,exp,33,↑,right,→,0.9261072999797761,False,14,-1,1,12
Y2-S2-267K23,1,142,AS,exp,46,→,right,→,0.46231909980997443,True,15,-1,0,12
Y2-S2-267K23,1,143,AS,exp,28,↑,right,→,1.1049661003053188,False,15,-1,0,12
Y2-S2-267K23,1,144,AS,exp,48,↓,up,↑,1.125906600151211,False,16,-1,0,12
Y2-S2-267K23,1,145,AS,exp,45,↑,up,↑,0.5588966999202967,True,17,-1,0,12
Y2-S2-267K23,1,146,AS,exp,39,↓,down,↓,0.7618072000332177,True,17,-1,0,12
Y2-S2-267K23,1,147,AS,exp,49,↑,up,↑,0.7764114998281002,True,17,1,1,13
Y2-S2-267K23,1,148,AS,exp,33,↓,down,↓,0.5695026000030339,True,16,1,0,13
Y2-S2-267K23,1,149,AS,exp,45,→,right,→,0.8395825000479817,True,16,1,0,13
Y2-S2-267K23,1,150,AS,exp,29,↑,up,↑,0.7302554002963006,True,16,1,0,13
Y2-S2-267K23,1,151,AS,exp,43,→,right,→,0.7497343998402357,True,15,1,0,13
Y2-S2-267K23,1,152,AS,exp,40,↓,up,↑,0.7080558999441564,False,15,-1,1,14
Y2-S2-267K23,1,153,AS,exp,43,←,left,←,0.5118237002752721,True,16,-1,0,14
Y2-S2-267K23,1,154,AS,exp,46,↓,down,↓,0.8479984998703003,True,16,-1,0,14
Y2-S2-267K23,1,155,AS,exp,45,↑,up,↑,0.7456185999326408,True,16,1,1,15
Y2-S2-267K23,1,156,AS,exp,39,→,right,→,0.8324489998631179,True,15,1,0,15
Y2-S2-267K23,1,157,AS,exp,35,↑,up,↑,0.47518130019307137,True,15,1,0,15
Y2-S2-267K23,1,158,AS,exp,42,↓,down,↓,0.6136914999224246,True,15,1,0,15
Y2-S2-267K23,1,159,AS,exp,42,←,left,←,0.7122678998857737,True,14,1,0,15
Y2-S2-267K23,1,160,AS,exp,31,→,right,→,0.7697461000643671,True,14,1,0,15
Y2-S2-267K23,1,161,AS,exp,38,←,right,→,0.7470204997807741,False,14,-1,1,16
Y2-S2-267K23,2,162,PS,intra_train,31,↓,up,↑,0.837442500051111,False,19,-,-,-
Y2-S2-267K23,2,163,PS,intra_train,42,↑,up,↑,1.0074037997983396,True,19,-,-,-
Y2-S2-267K23,2,164,PS,intra_train,37,←,right,→,0.8036465998739004,False,19,-,-,-
Y2-S2-267K23,2,165,PS,intra_train,26,→,right,→,0.6642902996391058,True,19,-,-,-
Y2-S2-267K23,2,166,PS,intra_train,46,↑,up,↑,0.4858363000676036,True,19,-,-,-
Y2-S2-267K23,2,167,PS,exp,50,→,right,→,0.5059472997672856,True,13,0,0,0
Y2-S2-267K23,2,168,PS,exp,28,↓,down,↓,0.6832760996185243,True,13,0,0,0
Y2-S2-267K23,2,169,PS,exp,48,↑,up,↑,0.4317632997408509,True,13,1,0,0
Y2-S2-267K23,2,170,PS,exp,40,↓,down,↓,0.5689969002269208,True,12,1,0,0
Y2-S2-267K23,2,171,PS,exp,46,←,left,←,0.6013954998925328,True,12,1,0,0
Y2-S2-267K23,2,172,PS,exp,39,↓,down,↓,0.6205277000553906,True,12,1,0,0
Y2-S2-267K23,2,173,PS,exp,47,→,right,→,0.8924992000684142,True,11,1,0,0
Y2-S2-267K23,2,174,PS,exp,47,←,left,←,0.574479500297457,True,11,1,0,0
Y2-S2-267K23,2,175,PS,exp,27,↑,up,↑,0.8504249001853168,True,11,1,0,0
Y2-S2-267K23,2,176,PS,exp,44,↓,up,↑,0.6701004998758435,False,10,-1,1,1
Y2-S2-267K23,2,177,PS,exp,43,↑,up,↑,0.6128432997502387,True,11,-1,0,1
Y2-S2-267K23,2,178,PS,exp,34,←,left,←,0.6002420000731945,True,11,-1,0,1
Y2-S2-267K23,2,179,PS,exp,36,↑,up,↑,0.6180076999589801,True,11,1,1,2
Y2-S2-267K23,2,180,PS,exp,36,↓,down,↓,0.668573500122875,True,10,1,0,2
Y2-S2-267K23,2,181,PS,exp,39,←,right,→,0.7790149999782443,False,10,-1,1,3
Y2-S2-267K23,2,182,PS,exp,25,↑,up,↑,0.46941279992461205,True,11,-1,0,3
Y2-S2-267K23,2,183,PS,exp,35,→,right,→,0.5176078998483717,True,11,-1,0,3
Y2-S2-267K23,2,184,PS,exp,36,↑,up,↑,0.5071221999824047,True,11,1,1,4
Y2-S2-267K23,2,185,PS,exp,41,→,right,→,0.4919055998325348,True,10,1,0,4
Y2-S2-267K23,2,186,PS,exp,49,↑,up,↑,0.46775959990918636,True,10,1,0,4
Y2-S2-267K23,2,187,PS,exp,27,←,left,←,0.577114200219512,True,10,1,0,4
Y2-S2-267K23,2,188,PS,exp,30,→,up,↑,0.759451299905777,False,9,-1,1,5
Y2-S2-267K23,2,189,PS,exp,27,↑,right,→,0.7320679002441466,False,10,-1,0,5
Y2-S2-267K23,2,190,PS,exp,41,↓,left,←,1.0355082000605762,False,11,-1,0,5
Y2-S2-267K23,2,191,PS,exp,30,←,right,→,0.7192019000649452,False,12,-1,0,5
Y2-S2-267K23,2,192,PS,exp,31,↓,down,↓,0.7047330001369119,True,13,-1,0,5
Y2-S2-267K23,2,193,PS,exp,43,←,up,↑,0.6070640999823809,False,13,-1,0,5
Y2-S2-267K23,2,194,PS,exp,28,↑,up,↑,0.4505651001818478,True,14,-1,0,5
Y2-S2-267K23,2,195,PS,exp,46,↓,down,↓,0.529237899929285,True,14,-1,0,5
Y2-S2-267K23,2,196,PS,exp,29,←,left,←,0.5452967998571694,True,14,1,1,6
Y2-S2-267K23,2,197,PS,exp,42,→,right,→,0.45325430016964674,True,13,1,0,6
Y2-S2-267K23,2,198,PS,exp,36,←,left,←,0.644711900036782,True,13,1,0,6
Y2-S2-267K23,2,199,PS,exp,27,↓,down,↓,0.5591655997559428,True,13,1,0,6
Y2-S2-267K23,2,200,PS,exp,42,←,left,←,0.5893747000955045,True,12,1,0,6
Y2-S2-267K23,2,201,PS,exp,28,↑,up,↑,0.4025970003567636,True,12,1,0,6
Y2-S2-267K23,2,202,PS,exp,31,↓,up,↑,0.7497372999787331,False,12,-1,1,7
Y2-S2-267K23,2,203,PS,exp,40,→,right,→,0.7299290001392365,True,13,-1,0,7
Y2-S2-267K23,2,204,PS,exp,45,←,left,←,0.5342346001416445,True,13,-1,0,7
Y2-S2-267K23,2,205,PS,exp,32,↑,up,↑,0.539567600004375,True,13,1,1,8
Y2-S2-267K23,2,206,PS,exp,40,↓,right,→,0.6470559001900256,False,12,-1,1,9
Y2-S2-267K23,2,207,PS,exp,47,↑,up,↑,0.4402474001981318,True,13,-1,0,9
Y2-S2-267K23,2,208,PS,exp,32,↓,down,↓,0.622900600079447,True,13,-1,0,9
Y2-S2-267K23,2,209,PS,exp,49,←,left,←,0.9632419999688864,True,13,1,1,10
Y2-S2-267K23,2,210,PS,exp,33,↓,down,↓,0.6031708000227809,True,12,1,0,10
Y2-S2-267K23,2,211,PS,exp,28,←,left,←,0.5003741001710296,True,12,1,0,10
Y2-S2-267K23,2,212,PS,exp,28,↓,down,↓,0.6045470000244677,True,12,1,0,10
Y2-S2-267K23,2,213,PS,exp,37,←,left,←,0.5329664000310004,True,11,1,0,10
Y2-S2-267K23,2,214,PS,exp,45,↓,down,↓,0.5509442999027669,True,11,1,0,10
Y2-S2-267K23,2,215,PS,exp,26,←,right,→,0.9564872998744249,False,11,-1,1,11
Y2-S2-267K23,2,216,PS,exp,49,↓,down,↓,0.6348594003356993,True,12,-1,0,11
Y2-S2-267K23,2,217,PS,exp,36,←,left,←,0.813975099939853,True,12,-1,0,11
Y2-S2-267K23,2,218,PS,exp,35,↑,up,↑,0.46985029987990856,True,12,1,1,12
Y2-S2-267K23,2,219,PS,exp,30,↓,right,→,0.6005807002075016,False,11,-1,1,13
Y2-S2-267K23,2,220,PS,exp,36,↑,up,↑,0.7408012999221683,True,12,-1,0,13
Y2-S2-267K23,2,221,PS,exp,48,↓,down,↓,0.9907673001289368,True,12,-1,0,13
Y2-S2-267K23,2,222,PS,exp,44,←,left,←,0.7511865003034472,True,12,1,1,14
Y2-S2-267K23,2,223,PS,exp,27,↓,down,↓,0.5839911000803113,True,11,1,0,14
Y2-S2-267K23,2,224,PS,exp,38,↑,up,↑,0.6616650000214577,True,11,1,0,14
Y2-S2-267K23,2,225,PS,exp,49,←,right,→,0.649978700093925,False,11,-1,1,15
Y2-S2-267K23,2,226,PS,exp,35,↓,down,↓,0.6928185001015663,True,12,-1,0,15
Y2-S2-267K23,2,227,PS,exp,45,↑,up,↑,0.5086693996563554,True,12,-1,0,15
Y2-S2-267K23,2,228,PS,exp,37,←,left,←,0.7446146998554468,True,12,1,1,16
Y2-S2-267K23,3,229,PS,intra_train,47,↑,up,↑,0.6716466001234949,True,19,-,-,-
Y2-S2-267K23,3,230,PS,intra_train,32,↓,down,↓,0.6378870001062751,True,19,-,-,-
Y2-S2-267K23,3,231,PS,intra_train,43,←,left,←,0.5179387996904552,True,19,-,-,-
Y2-S2-267K23,3,232,PS,intra_train,28,↓,down,↓,0.727483999915421,True,19,-,-,-
Y2-S2-267K23,3,233,PS,intra_train,43,←,left,←,0.6816361998207867,True,19,-,-,-
Y2-S2-267K23,3,234,PS,exp,27,↓,down,↓,0.6437325999140739,True,13,0,0,0
Y2-S2-267K23,3,235,PS,exp,50,←,left,←,0.6902272999286652,True,13,0,0,0
Y2-S2-267K23,3,236,PS,exp,37,↑,up,↑,0.5949834999628365,True,13,1,0,0
Y2-S2-267K23,3,237,PS,exp,36,→,right,→,0.526929400395602,True,12,1,0,0
Y2-S2-267K23,3,238,PS,exp,39,↓,left,←,0.7932992996647954,False,12,-1,1,1
Y2-S2-267K23,3,239,PS,exp,49,→,right,→,0.40987969981506467,True,13,-1,0,1
Y2-S2-267K23,3,240,PS,exp,48,↑,up,↑,0.5001837001182139,True,13,-1,0,1
Y2-S2-267K23,3,241,PS,exp,42,→,left,←,0.7769362004473805,False,13,-1,0,1
Y2-S2-267K23,3,242,PS,exp,37,←,right,→,0.527065800037235,False,14,-1,0,1
Y2-S2-267K23,3,243,PS,exp,25,↑,up,↑,0.6204679002985358,True,15,-1,0,1
Y2-S2-267K23,3,244,PS,exp,26,↓,down,↓,0.5810682000592351,True,15,-1,0,1
Y2-S2-267K23,3,245,PS,exp,49,→,right,→,0.7109221001155674,True,15,1,1,2
Y2-S2-267K23,3,246,PS,exp,26,↓,down,↓,0.6933364002034068,True,14,1,0,2
Y2-S2-267K23,3,247,PS,exp,25,↑,up,↑,0.5642161001451313,True,14,1,0,2
Y2-S2-267K23,3,248,PS,exp,50,→,right,→,0.6308504003100097,True,14,1,0,2
Y2-S2-267K23,3,249,PS,exp,45,←,right,→,0.46975209983065724,False,13,-1,1,3
Y2-S2-267K23,3,250,PS,exp,37,→,right,→,0.5048946999013424,True,14,-1,0,3
Y2-S2-267K23,3,251,PS,exp,28,↑,up,↑,0.47378209978342056,True,14,-1,0,3
Y2-S2-267K23,3,252,PS,exp,26,→,right,→,0.4863561000674963,True,14,1,1,4
Y2-S2-267K23,3,253,PS,exp,28,↓,down,↓,0.9153054999187589,True,13,1,0,4
Y2-S2-267K23,3,254,PS,exp,26,←,right,→,0.9681684002280235,False,13,-1,1,5
Y2-S2-267K23,3,255,PS,exp,46,↓,down,↓,0.6926066000014544,True,14,-1,0,5
Y2-S2-267K23,3,256,PS,exp,30,↑,up,↑,0.6792481001466513,True,14,-1,0,5
Y2-S2-267K23,3,257,PS,exp,32,→,up,↑,0.6734357997775078,False,14,-1,0,5
Y2-S2-267K23,3,258,PS,exp,25,↑,up,↑,0.5512649002484977,True,15,-1,0,5
Y2-S2-267K23,3,259,PS,exp,33,←,left,←,0.6929390002042055,True,15,-1,0,5
Y2-S2-267K23,3,260,PS,exp,35,↓,down,↓,0.7870267000980675,True,15,1,1,6
Y2-S2-267K23,3,261,PS,exp,36,↑,up,↑,0.519833100028336,True,14,1,0,6
Y2-S2-267K23,3,262,PS,exp,40,↓,down,↓,0.8048450998030603,True,14,1,0,6
Y2-S2-267K23,3,263,PS,exp,47,→,right,→,0.5298288995400071,True,14,1,0,6
Y2-S2-267K23,3,264,PS,exp,46,↑,up,↑,0.5941753997467458,True,13,1,0,6
Y2-S2-267K23,3,265,PS,exp,48,←,left,←,0.6173578002490103,True,13,1,0,6
Y2-S2-267K23,3,266,PS,exp,26,↑,left,←,0.7567670000717044,False,13,-1,1,7
Y2-S2-267K23,3,267,PS,exp,37,→,right,→,0.40165030024945736,True,14,-1,0,7
Y2-S2-267K23,3,268,PS,exp,40,↑,up,↑,0.5777662000618875,True,14,-1,0,7
Y2-S2-267K23,3,269,PS,exp,44,←,left,←,0.6568455002270639,True,14,1,1,8
Y2-S2-267K23,3,270,PS,exp,44,↓,down,↓,0.6412246995605528,True,13,1,0,8
Y2-S2-267K23,3,271,PS,exp,38,↑,up,↑,0.49357829988002777,True,13,1,0,8
Y2-S2-267K23,3,272,PS,exp,41,↓,down,↓,0.6254011001437902,True,13,1,0,8
Y2-S2-267K23,3,273,PS,exp,29,↑,up,↑,0.5481505002826452,True,12,1,0,8
Y2-S2-267K23,3,274,PS,exp,36,←,left,←,0.46128790033981204,True,12,1,0,8
Y2-S2-267K23,3,275,PS,exp,33,→,right,→,0.42914059991016984,True,12,1,0,8
Y2-S2-267K23,3,276,PS,exp,39,↑,up,↑,0.38339219987392426,True,11,1,0,8
Y2-S2-267K23,3,277,PS,exp,50,↓,down,↓,0.6951574003323913,True,11,1,0,8
Y2-S2-267K23,3,278,PS,exp,28,←,left,←,0.4583546998910606,True,11,1,0,8
Y2-S2-267K23,3,279,PS,exp,33,↓,down,↓,0.6590690999291837,True,10,1,0,8
Y2-S2-267K23,3,280,PS,exp,50,←,right,→,0.5367454001680017,False,10,-1,1,9
Y2-S2-267K23,3,281,PS,exp,42,→,right,→,0.6630273000337183,True,11,-1,0,9
Y2-S2-267K23,3,282,PS,exp,33,↑,up,↑,0.4418549998663366,True,11,-1,0,9
Y2-S2-267K23,3,283,PS,exp,34,←,left,←,0.6145404996350408,True,11,1,1,10
Y2-S2-267K23,3,284,PS,exp,42,→,right,→,0.48165579978376627,True,10,1,0,10
Y2-S2-267K23,3,285,PS,exp,41,←,left,←,0.6169389998540282,True,10,1,0,10
Y2-S2-267K23,3,286,PS,exp,30,→,left,←,1.7988912002183497,False,10,-1,1,11
Y2-S2-267K23,3,287,PS,exp,50,↑,right,→,0.8352957000024617,False,11,-1,0,11
Y2-S2-267K23,3,288,PS,exp,32,→,right,→,0.6779306996613741,True,12,-1,0,11
Y2-S2-267K23,3,289,PS,exp,50,←,up,↑,0.8018676000647247,False,12,-1,0,11
Y2-S2-267K23,3,290,PS,exp,46,→,right,→,0.5915478998795152,True,13,-1,0,11
Y2-S2-267K23,3,291,PS,exp,46,←,up,↑,1.0794159998185933,False,13,-1,0,11
Y2-S2-267K23,3,292,PS,exp,29,↓,down,↓,0.8417036999017,True,14,-1,0,11
Y2-S2-267K23,3,293,PS,exp,48,↑,right,→,0.7599590998142958,False,14,-1,0,11
Y2-S2-267K23,3,294,PS,exp,31,→,right,→,0.6009514001198113,True,15,-1,0,11
Y2-S2-267K23,3,295,PS,exp,48,↓,right,→,0.8699809000827372,False,15,-1,0,11
Y2-S2-267K23,3,296,PS,exp,25,→,right,→,0.49088050005957484,True,16,-1,0,11
Y2-S2-267K23,3,297,PS,exp,45,↑,down,↓,0.7811696003191173,False,16,-1,0,11
Y2-S2-267K23,3,298,PS,exp,41,→,right,→,0.6268356000073254,True,17,-1,0,11
Y2-S2-267K23,3,299,PS,exp,33,↑,no_key,no_letter,-1.0,False,17,-1,0,11
Y2-S2-267K23,3,300,PS,exp,39,→,right,→,0.5708239995874465,True,18,-1,0,11
Y2-S2-267K23,3,301,PS,exp,47,←,left,←,0.4343435000628233,True,18,-1,0,11
Y2-S2-267K23,3,302,PS,exp,38,↓,down,↓,0.6128568002022803,True,18,1,1,12
Y2-S2-267K23,3,303,PS,exp,44,→,right,→,0.5283723003230989,True,17,1,0,12
Y2-S2-267K23,3,304,PS,exp,50,↓,down,↓,0.7249553999863565,True,17,1,0,12
Y2-S2-267K23,3,305,PS,exp,50,↑,up,↑,0.5352603001520038,True,17,1,0,12
Y2-S2-267K23,3,306,PS,exp,32,←,right,→,0.6265810998156667,False,16,-1,1,13
Y2-S2-267K23,3,307,PS,exp,47,↑,down,↓,0.845543300267309,False,17,-1,0,13
Y2-S2-267K23,3,308,PS,exp,31,↓,left,←,1.1386171001940966,False,18,-1,0,13
Y2-S2-267K23,3,309,PS,exp,50,↑,up,↑,0.7031283001415431,True,19,-1,0,13
Y2-S2-267K23,3,310,PS,exp,42,←,left,←,0.6961345998570323,True,19,-1,0,13
Y2-S2-267K23,3,311,PS,exp,32,↑,up,↑,0.5521404999308288,True,19,1,1,14
Y2-S2-267K23,3,312,PS,exp,41,←,left,←,0.5685647004283965,True,18,1,0,14
Y2-S2-267K23,3,313,PS,exp,44,→,right,→,0.4724802002310753,True,18,1,0,14
Y2-S2-267K23,3,314,PS,exp,25,↓,down,↓,0.5236332998611033,True,18,1,0,14
Y2-S2-267K23,3,315,PS,exp,30,←,left,←,0.6770569998770952,True,17,1,0,14
Y2-S2-267K23,3,316,PS,exp,35,↓,down,↓,0.6632719002664089,True,17,1,0,14
Y2-S2-267K23,3,317,PS,exp,48,←,left,←,0.7880262997932732,True,17,1,0,14
Y2-S2-267K23,3,318,PS,exp,38,↓,down,↓,0.7870209999382496,True,16,1,0,14
Y2-S2-267K23,3,319,PS,exp,44,↑,up,↑,0.6302260002121329,True,16,1,0,14
Y2-S2-267K23,3,320,PS,exp,43,→,left,←,0.7224707002751529,False,16,-1,1,15
Y2-S2-267K23,3,321,PS,exp,39,↓,right,→,1.002664600033313,False,17,-1,0,15
Y2-S2-267K23,3,322,PS,exp,35,←,left,←,0.5669685998000205,True,18,-1,0,15
Y2-S2-267K23,3,323,PS,exp,27,↑,up,↑,0.5225170999765396,True,18,-1,0,15
Y2-S2-267K23,3,324,PS,exp,29,←,left,←,0.5927920998074114,True,18,1,1,16
Y2-S2-267K23,4,325,AS,intra_train,41,→,right,→,0.6711899000220001,True,21,-,-,-
Y2-S2-267K23,4,326,AS,intra_train,28,↑,up,↑,1.1134489998221397,True,21,-,-,-
Y2-S2-267K23,4,327,AS,intra_train,50,↓,down,↓,0.7026060996577144,True,21,-,-,-
Y2-S2-267K23,4,328,AS,intra_train,36,↑,up,↑,0.6209958996623755,True,21,-,-,-
Y2-S2-267K23,4,329,AS,intra_train,29,←,left,←,0.7181063997559249,True,21,-,-,-
Y2-S2-267K23,4,330,AS,exp,47,↓,up,↑,0.6059874999336898,False,14,-1,0,0
Y2-S2-267K23,4,331,AS,exp,27,→,right,→,0.8154132999479771,True,15,-1,0,0
Y2-S2-267K23,4,332,AS,exp,28,←,left,←,0.6146133998408914,True,15,-1,0,0
Y2-S2-267K23,4,333,AS,exp,35,↑,up,↑,0.5460411999374628,True,15,1,1,1
Y2-S2-267K23,4,334,AS,exp,35,↓,down,↓,0.7345421998761594,True,14,1,0,1
Y2-S2-267K23,4,335,AS,exp,48,→,left,←,0.9999199002049863,False,14,-1,1,2
Y2-S2-267K23,4,336,AS,exp,28,↓,left,←,0.8369982000440359,False,15,-1,0,2
Y2-S2-267K23,4,337,AS,exp,29,↑,up,↑,0.6337203001603484,True,16,-1,0,2
Y2-S2-267K23,4,338,AS,exp,27,↓,down,↓,0.6226892997510731,True,16,-1,0,2
Y2-S2-267K23,4,339,AS,exp,46,→,left,←,0.6908853999339044,False,16,-1,0,2
Y2-S2-267K23,4,340,AS,exp,41,↑,up,↑,0.6030799997970462,True,17,-1,0,2
Y2-S2-267K23,4,341,AS,exp,43,←,right,→,1.5723422998562455,False,17,-1,0,2
Y2-S2-267K23,4,342,AS,exp,33,↓,down,↓,0.8972201002761722,True,18,-1,0,2
Y2-S2-267K23,4,343,AS,exp,33,←,left,←,0.6216249000281096,True,18,-1,0,2
Y2-S2-267K23,4,344,AS,exp,46,→,right,→,0.6483112000860274,True,18,1,1,3
Y2-S2-267K23,4,345,AS,exp,27,↑,up,↑,0.400452499743551,True,17,1,0,3
Y2-S2-267K23,4,346,AS,exp,46,↓,down,↓,0.5876016998663545,True,17,1,0,3
Y2-S2-267K23,4,347,AS,exp,35,→,right,→,0.6205001999624074,True,17,1,0,3
Y2-S2-267K23,4,348,AS,exp,44,↑,up,↑,0.47021609963849187,True,16,1,0,3
Y2-S2-267K23,4,349,AS,exp,27,→,right,→,0.4824886000715196,True,16,1,0,3
Y2-S2-267K23,4,350,AS,exp,50,←,left,←,0.7849773000925779,True,16,1,0,3
Y2-S2-267K23,4,351,AS,exp,37,↑,no_key,no_letter,-1.0,False,15,-1,1,4
Y2-S2-267K23,4,352,AS,exp,25,←,right,→,1.0311344000510871,False,16,-1,0,4
Y2-S2-267K23,4,353,AS,exp,29,→,left,←,0.5554202003404498,False,17,-1,0,4
Y2-S2-267K23,4,354,AS,exp,32,↑,down,↓,0.7566326996311545,False,18,-1,0,4
Y2-S2-267K23,4,355,AS,exp,39,↓,up,↑,0.5944496998563409,False,19,-1,0,4
Y2-S2-267K23,4,356,AS,exp,40,↑,up,↑,0.7189459004439414,True,20,-1,0,4
Y2-S2-267K23,4,357,AS,exp,49,↓,left,←,0.6122524999082088,False,20,-1,0,4
Y2-S2-267K23,4,358,AS,exp,32,↑,right,→,0.8232972002588212,False,21,-1,0,4
Y2-S2-267K23,4,359,AS,exp,40,↓,down,↓,0.6690631001256406,True,22,-1,0,4
Y2-S2-267K23,4,360,AS,exp,48,←,left,←,0.8849658002145588,True,22,-1,0,4
Y2-S2-267K23,4,361,AS,exp,38,↑,up,↑,0.6788602001033723,True,22,1,1,5
Y2-S2-267K23,4,362,AS,exp,26,↓,up,↑,0.7041786001063883,False,21,-1,1,6
Y2-S2-267K23,4,363,AS,exp,33,→,right,→,0.41758970031514764,True,22,-1,0,6
Y2-S2-267K23,4,364,AS,exp,37,↑,down,↓,0.9358617998659611,False,22,-1,0,6
Y2-S2-267K23,4,365,AS,exp,40,↓,down,↓,0.7222390999086201,True,23,-1,0,6
Y2-S2-267K23,4,366,AS,exp,47,←,left,←,0.7877001999877393,True,23,-1,0,6
Y2-S2-267K23,4,367,AS,exp,35,↓,down,↓,0.8646792001090944,True,23,1,1,7
Y2-S2-267K23,4,368,AS,exp,48,←,left,←,0.6124055003747344,True,22,1,0,7
Y2-S2-267K23,4,369,AS,exp,49,↓,up,↑,0.7620378998108208,False,22,-1,1,8
Y2-S2-267K23,4,370,AS,exp,39,→,right,→,0.731235499959439,True,23,-1,0,8
Y2-S2-267K23,4,371,AS,exp,33,↑,up,↑,0.4337176000699401,True,23,-1,0,8
Y2-S2-267K23,4,372,AS,exp,29,→,right,→,0.3837465001270175,True,23,1,1,9
Y2-S2-267K23,4,373,AS,exp,43,↓,down,↓,0.661171399988234,True,22,1,0,9
Y2-S2-267K23,4,374,AS,exp,29,←,left,←,0.7107726996764541,True,22,1,0,9
Y2-S2-267K23,4,375,AS,exp,47,→,right,→,0.500331399962306,True,22,1,0,9
Y2-S2-267K23,4,376,AS,exp,50,↓,down,↓,0.6878646998666227,True,21,1,0,9
Y2-S2-267K23,4,377,AS,exp,45,↑,up,↑,0.6260704002343118,True,21,1,0,9
Y2-S2-267K23,4,378,AS,exp,35,↓,down,↓,0.41726089967414737,True,21,1,0,9
Y2-S2-267K23,4,379,AS,exp,49,→,right,→,0.4504539002664387,True,20,1,0,9
Y2-S2-267K23,4,380,AS,exp,43,↑,up,↑,0.38442410016432405,True,20,1,0,9
Y2-S2-267K23,4,381,AS,exp,32,←,left,←,0.633826999925077,True,20,1,0,9
Y2-S2-267K23,4,382,AS,exp,47,↑,up,↑,0.4171949001029134,True,19,1,0,9
Y2-S2-267K23,4,383,AS,exp,27,←,left,←,0.5129257999360561,True,19,1,0,9
Y2-S2-267K23,4,384,AS,exp,32,→,right,→,0.7344513996504247,True,19,1,0,9
Y2-S2-267K23,4,385,AS,exp,48,↑,up,↑,0.7902160002849996,True,18,1,0,9
Y2-S2-267K23,4,386,AS,exp,47,→,up,↑,1.5150697999633849,False,18,-1,1,10
Y2-S2-267K23,4,387,AS,exp,38,←,left,←,0.5211460003629327,True,19,-1,0,10
Y2-S2-267K23,4,388,AS,exp,30,↓,down,↓,0.5446852999739349,True,19,-1,0,10
Y2-S2-267K23,4,389,AS,exp,38,←,left,←,0.4341144999489188,True,19,1,1,11
Y2-S2-267K23,4,390,AS,exp,26,↑,up,↑,0.43377669993788004,True,18,1,0,11
Y2-S2-267K23,4,391,AS,exp,36,↓,down,↓,0.5496564996428788,True,18,1,0,11
Y2-S2-267K23,4,392,AS,exp,44,→,left,←,0.543701599817723,False,18,-1,1,12
Y2-S2-267K23,4,393,AS,exp,48,←,left,←,0.4006502996198833,True,19,-1,0,12
Y2-S2-267K23,4,394,AS,exp,28,→,left,←,0.8133314000442624,False,19,-1,0,12
Y2-S2-267K23,4,395,AS,exp,29,↑,up,↑,0.6296700998209417,True,20,-1,0,12
Y2-S2-267K23,4,396,AS,exp,38,↓,down,↓,0.732908200006932,True,20,-1,0,12
Y2-S2-267K23,4,397,AS,exp,48,→,left,←,0.7644495000131428,False,20,-1,0,12
Y2-S2-267K23,4,398,AS,exp,39,↑,up,↑,0.36719000013545156,True,21,-1,0,12
Y2-S2-267K23,4,399,AS,exp,47,→,right,→,0.7488799998536706,True,21,-1,0,12
Y2-S2-267K23,4,400,AS,exp,46,↓,down,↓,0.6392365996725857,True,21,1,1,13
Y2-S2-267K23,4,401,AS,exp,34,↑,right,→,0.7969382000155747,False,20,-1,1,14
Y2-S2-267K23,4,402,AS,exp,44,←,left,←,0.38428260013461113,True,21,-1,0,14
Y2-S2-267K23,4,403,AS,exp,48,↑,up,↑,0.795335500035435,True,21,-1,0,14
Y2-S2-267K23,4,404,AS,exp,50,←,right,→,0.23439890006557107,False,21,-1,0,14
Y2-S2-267K23,4,405,AS,exp,38,↓,right,→,1.0782365999184549,False,22,-1,0,14
Y2-S2-267K23,4,406,AS,exp,47,→,right,→,0.633065499830991,True,23,-1,0,14
Y2-S2-267K23,4,407,AS,exp,33,←,left,←,0.8624081998132169,True,23,-1,0,14
Y2-S2-267K23,4,408,AS,exp,29,→,right,→,0.43399890000000596,True,23,1,1,15
Y2-S2-267K23,4,409,AS,exp,44,↓,down,↓,0.9707754999399185,True,22,1,0,15
Y2-S2-267K23,4,410,AS,exp,39,→,right,→,0.9225790998898447,True,22,1,0,15
Y2-S2-267K23,4,411,AS,exp,27,↓,right,→,0.5609916001558304,False,22,-1,1,16
Y2-S2-267K23,5,412,AS,intra_train,47,→,right,→,0.786222199909389,True,21,-,-,-
Y2-S2-267K23,5,413,AS,intra_train,29,←,left,←,0.6838047001510859,True,21,-,-,-
Y2-S2-267K23,5,414,AS,intra_train,32,→,right,→,0.6301094000227749,True,21,-,-,-
Y2-S2-267K23,5,415,AS,intra_train,35,←,left,←,0.35045599984005094,True,21,-,-,-
Y2-S2-267K23,5,416,AS,intra_train,27,↓,down,↓,0.800677599851042,True,21,-,-,-
Y2-S2-267K23,5,417,AS,exp,48,→,right,→,0.8325000996701419,True,14,0,0,0
Y2-S2-267K23,5,418,AS,exp,38,↓,down,↓,0.7949934001080692,True,14,0,0,0
Y2-S2-267K23,5,419,AS,exp,34,↑,down,↓,0.9249462997540832,False,14,-1,0,0
Y2-S2-267K23,5,420,AS,exp,26,↓,no_key,no_letter,-1.0,False,15,-1,0,0
Y2-S2-267K23,5,421,AS,exp,26,↑,up,↑,0.47356059961020947,True,16,-1,0,0
Y2-S2-267K23,5,422,AS,exp,41,→,right,→,0.5437288996763527,True,16,-1,0,0
Y2-S2-267K23,5,423,AS,exp,36,↓,down,↓,0.7286276002414525,True,16,1,1,1
Y2-S2-267K23,5,424,AS,exp,33,→,left,←,0.6760478997603059,False,15,-1,1,2
Y2-S2-267K23,5,425,AS,exp,27,←,left,←,0.3506975998170674,True,16,-1,0,2
Y2-S2-267K23,5,426,AS,exp,25,↓,down,↓,0.5768761998042464,True,16,-1,0,2
Y2-S2-267K23,5,427,AS,exp,38,→,right,→,0.44098230032250285,True,16,1,1,3
Y2-S2-267K23,5,428,AS,exp,27,↓,down,↓,0.49617790011689067,True,15,1,0,3
Y2-S2-267K23,5,429,AS,exp,26,↑,up,↑,0.42158770002424717,True,15,1,0,3
Y2-S2-267K23,5,430,AS,exp,46,↓,down,↓,0.4781804997473955,True,15,1,0,3
Y2-S2-267K23,5,431,AS,exp,34,↑,up,↑,0.45564569998532534,True,14,1,0,3
Y2-S2-267K23,5,432,AS,exp,41,←,down,↓,0.9181662001647055,False,14,-1,1,4
Y2-S2-267K23,5,433,AS,exp,30,↑,up,↑,0.628292600158602,True,15,-1,0,4
Y2-S2-267K23,5,434,AS,exp,40,←,left,←,0.470170000102371,True,15,-1,0,4
Y2-S2-267K23,5,435,AS,exp,47,↓,up,↑,0.7365535004064441,False,15,-1,0,4
Y2-S2-267K23,5,436,AS,exp,34,↑,up,↑,0.7421288001351058,True,16,-1,0,4
Y2-S2-267K23,5,437,AS,exp,49,↓,down,↓,0.5623155999928713,True,16,-1,0,4
Y2-S2-267K23,5,438,AS,exp,26,→,left,←,0.7165423999540508,False,16,-1,0,4
Y2-S2-267K23,5,439,AS,exp,33,↑,up,↑,0.6890610000118613,True,17,-1,0,4
Y2-S2-267K23,5,440,AS,exp,30,←,left,←,0.4983574999496341,True,17,-1,0,4
Y2-S2-267K23,5,441,AS,exp,29,→,right,→,0.5858811000362039,True,17,1,1,5
Y2-S2-267K23,5,442,AS,exp,26,↓,down,↓,0.5633788998238742,True,16,1,0,5
Y2-S2-267K23,5,443,AS,exp,26,↑,down,↓,0.7966539999470115,False,16,-1,1,6
Y2-S2-267K23,5,444,AS,exp,32,↓,down,↓,0.4846221995539963,True,17,-1,0,6
Y2-S2-267K23,5,445,AS,exp,28,→,left,←,0.6768554002046585,False,17,-1,0,6
Y2-S2-267K23,5,446,AS,exp,50,↓,up,↑,0.7454808000475168,False,18,-1,0,6
Y2-S2-267K23,5,447,AS,exp,31,→,no_key,no_letter,-1.0,False,19,-1,0,6
Y2-S2-267K23,5,448,AS,exp,38,↓,down,↓,0.5483872997574508,True,20,-1,0,6
Y2-S2-267K23,5,449,AS,exp,48,→,right,→,0.6568968999199569,True,20,-1,0,6
Y2-S2-267K23,5,450,AS,exp,45,↑,up,↑,0.7035064999945462,True,20,1,1,7
Y2-S2-267K23,5,451,AS,exp,38,↓,down,↓,0.7009576000273228,True,19,1,0,7
Y2-S2-267K23,5,452,AS,exp,47,→,left,←,0.7023621997795999,False,19,-1,1,8
Y2-S2-267K23,5,453,AS,exp,29,↑,up,↑,1.2027580002322793,True,20,-1,0,8
Y2-S2-267K23,5,454,AS,exp,50,↓,down,↓,0.7056330000050366,True,20,-1,0,8
Y2-S2-267K23,5,455,AS,exp,42,→,right,→,0.4174242001026869,True,20,1,1,9
Y2-S2-267K23,5,456,AS,exp,38,↓,down,↓,0.5384436002932489,True,19,1,0,9
Y2-S2-267K23,5,457,AS,exp,45,→,right,→,0.48628449998795986,True,19,1,0,9
Y2-S2-267K23,5,458,AS,exp,33,↑,down,↓,0.7857905998826027,False,19,-1,1,10
Y2-S2-267K23,5,459,AS,exp,48,←,right,→,0.6702312999404967,False,20,-1,0,10
Y2-S2-267K23,5,460,AS,exp,42,→,right,→,0.8960051997564733,True,21,-1,0,10
Y2-S2-267K23,5,461,AS,exp,31,←,up,↑,0.5646135001443326,False,21,-1,0,10
Y2-S2-267K23,5,462,AS,exp,28,↑,right,→,0.2512654000893235,False,22,-1,0,10
Y2-S2-267K23,5,463,AS,exp,43,←,left,←,0.5005957996472716,True,23,-1,0,10
Y2-S2-267K23,5,464,AS,exp,33,↑,up,↑,0.5170878996141255,True,23,-1,0,10
Y2-S2-267K23,5,465,AS,exp,27,↓,down,↓,1.105961799621582,True,23,1,1,11
Y2-S2-267K23,5,466,AS,exp,31,→,right,→,0.8064858000725508,True,22,1,0,11
Y2-S2-267K23,5,467,AS,exp,29,←,left,←,0.9916349998675287,True,22,1,0,11
Y2-S2-267K23,5,468,AS,exp,37,↓,no_key,no_letter,-1.0,False,22,-1,1,12
Y2-S2-267K23,5,469,AS,exp,30,←,left,←,0.6737946001812816,True,23,-1,0,12
Y2-S2-267K23,5,470,AS,exp,27,↑,right,→,0.696113399695605,False,23,-1,0,12
Y2-S2-267K23,5,471,AS,exp,46,↓,down,↓,0.41721329977735877,True,24,-1,0,12
Y2-S2-267K23,5,472,AS,exp,40,↑,up,↑,0.4837747998535633,True,24,-1,0,12
Y2-S2-267K23,5,473,AS,exp,25,←,left,←,0.6011385000310838,True,24,1,1,13
Y2-S2-267K23,5,474,AS,exp,32,→,right,→,0.6524765002541244,True,23,1,0,13
Y2-S2-267K23,5,475,AS,exp,45,↑,up,↑,0.795903000049293,True,23,1,0,13
Y2-S2-267K23,5,476,AS,exp,42,→,right,→,0.5858732000924647,True,23,1,0,13
Y2-S2-267K23,5,477,AS,exp,39,←,left,←,0.45037709968164563,True,22,1,0,13
Y2-S2-267K23,5,478,AS,exp,28,→,right,→,0.667391199618578,True,22,1,0,13
Y2-S2-267K23,5,479,AS,exp,32,←,left,←,0.46712630009278655,True,22,1,0,13
Y2-S2-267K23,5,480,AS,exp,48,↓,down,↓,0.6987018999643624,True,21,1,0,13
Y2-S2-267K23,5,481,AS,exp,38,→,right,→,0.5483679999597371,True,21,1,0,13
Y2-S2-267K23,5,482,AS,exp,35,↓,down,↓,0.5386881995946169,True,21,1,0,13
Y2-S2-267K23,5,483,AS,exp,31,→,left,←,0.5770763996988535,False,20,-1,1,14
Y2-S2-267K23,5,484,AS,exp,49,↓,down,↓,0.6735307998023927,True,21,-1,0,14
Y2-S2-267K23,5,485,AS,exp,35,←,left,←,0.7908018999733031,True,21,-1,0,14
Y2-S2-267K23,5,486,AS,exp,31,→,right,→,0.48406169982627034,True,21,1,1,15
Y2-S2-267K23,5,487,AS,exp,46,↑,up,↑,1.7501718001440167,True,20,1,0,15
Y2-S2-267K23,5,488,AS,exp,39,←,left,←,0.46753530018031597,True,20,1,0,15
Y2-S2-267K23,5,489,AS,exp,47,→,right,→,0.6648336998187006,True,20,1,0,15
Y2-S2-267K23,5,490,AS,exp,47,↑,down,↓,0.7591506000608206,False,19,-1,1,16
Y2-S2-267K23,6,491,PS,intra_train,29,→,right,→,0.5354062998667359,True,19,-,-,-
Y2-S2-267K23,6,492,PS,intra_train,45,↑,up,↑,0.4507109997794032,True,19,-,-,-
Y2-S2-267K23,6,493,PS,intra_train,35,←,left,←,0.5246498002670705,True,19,-,-,-
Y2-S2-267K23,6,494,PS,intra_train,46,→,right,→,0.7732692998833954,True,19,-,-,-
Y2-S2-267K23,6,495,PS,intra_train,40,↑,up,↑,0.41705310018733144,True,19,-,-,-
Y2-S2-267K23,6,496,PS,exp,26,↓,up,↑,0.7528076996095479,False,13,-1,0,0
Y2-S2-267K23,6,497,PS,exp,29,↑,up,↑,0.5398380998522043,True,14,-1,0,0
Y2-S2-267K23,6,498,PS,exp,31,←,right,→,0.6951639000326395,False,14,-1,0,0
Y2-S2-267K23,6,499,PS,exp,37,↑,up,↑,0.4250058997422457,True,15,-1,0,0
Y2-S2-267K23,6,500,PS,exp,26,↓,down,↓,0.8042913000099361,True,15,-1,0,0
Y2-S2-267K23,6,501,PS,exp,47,←,left,←,0.5560836000367999,True,15,1,1,1
Y2-S2-267K23,6,502,PS,exp,28,↓,down,↓,0.8527103001251817,True,14,1,0,1
Y2-S2-267K23,6,503,PS,exp,29,←,left,←,0.4561282997019589,True,14,1,0,1
Y2-S2-267K23,6,504,PS,exp,35,↓,up,↑,0.6318866000510752,False,14,-1,1,2
Y2-S2-267K23,6,505,PS,exp,35,→,right,→,0.6596018997952342,True,15,-1,0,2
Y2-S2-267K23,6,506,PS,exp,38,↓,left,←,0.8219250002875924,False,15,-1,0,2
Y2-S2-267K23,6,507,PS,exp,49,↑,up,↑,0.526696200016886,True,16,-1,0,2
Y2-S2-267K23,6,508,PS,exp,48,↓,right,→,0.7786945002153516,False,16,-1,0,2
Y2-S2-267K23,6,509,PS,exp,27,↑,up,↑,0.7737607001326978,True,17,-1,0,2
Y2-S2-267K23,6,510,PS,exp,48,↓,down,↓,0.5793205997906625,True,17,-1,0,2
Y2-S2-267K23,6,511,PS,exp,30,↑,up,↑,0.47905430011451244,True,17,1,1,3
Y2-S2-267K23,6,512,PS,exp,31,←,left,←,0.8437302997335792,True,16,1,0,3
Y2-S2-267K23,6,513,PS,exp,34,↓,right,→,0.6872987002134323,False,16,-1,1,4
Y2-S2-267K23,6,514,PS,exp,44,→,up,↑,0.23448040010407567,False,17,-1,0,4
Y2-S2-267K23,6,515,PS,exp,44,←,up,↑,0.6087028002366424,False,18,-1,0,4
Y2-S2-267K23,6,516,PS,exp,31,→,left,←,0.9492782996967435,False,19,-1,0,4
Y2-S2-267K23,6,517,PS,exp,43,←,left,←,0.4338458003476262,True,20,-1,0,4
Y2-S2-267K23,6,518,PS,exp,44,↑,up,↑,0.8165639000944793,True,20,-1,0,4
Y2-S2-267K23,6,519,PS,exp,38,↓,down,↓,0.9799736998975277,True,20,1,1,5
Y2-S2-267K23,6,520,PS,exp,38,←,left,←,0.5789944003336132,True,19,1,0,5
Y2-S2-267K23,6,521,PS,exp,37,↑,up,↑,0.7626761002466083,True,19,1,0,5
Y2-S2-267K23,6,522,PS,exp,49,→,right,→,1.0205362001433969,True,19,1,0,5
Y2-S2-267K23,6,523,PS,exp,48,↑,up,↑,0.619078999850899,True,18,1,0,5
Y2-S2-267K23,6,524,PS,exp,34,↓,down,↓,0.7349029998295009,True,18,1,0,5
Y2-S2-267K23,6,525,PS,exp,26,→,right,→,0.5502649997361004,True,18,1,0,5
Y2-S2-267K23,6,526,PS,exp,29,←,left,←,0.45640960009768605,True,17,1,0,5
Y2-S2-267K23,6,527,PS,exp,31,→,right,→,0.6473142998293042,True,17,1,0,5
Y2-S2-267K23,6,528,PS,exp,34,↓,right,→,0.5864422996528447,False,17,-1,1,6
Y2-S2-267K23,6,529,PS,exp,46,→,right,→,0.4339570002630353,True,18,-1,0,6
Y2-S2-267K23,6,530,PS,exp,35,↑,up,↑,0.7059386000037193,True,18,-1,0,6
Y2-S2-267K23,6,531,PS,exp,47,→,right,→,0.6887286999262869,True,18,1,1,7
Y2-S2-267K23,6,532,PS,exp,46,↓,down,↓,0.6301490999758244,True,17,1,0,7
Y2-S2-267K23,6,533,PS,exp,26,↑,up,↑,0.49697580002248287,True,17,1,0,7
Y2-S2-267K23,6,534,PS,exp,45,→,right,→,0.5865774000994861,True,17,1,0,7
Y2-S2-267K23,6,535,PS,exp,42,↓,down,↓,0.5874478998593986,True,16,1,0,7
Y2-S2-267K23,6,536,PS,exp,44,→,right,→,0.502227199729532,True,16,1,0,7
Y2-S2-267K23,6,537,PS,exp,29,↓,down,↓,0.5169123001396656,True,16,1,0,7
Y2-S2-267K23,6,538,PS,exp,25,→,left,←,0.8536779996939003,False,15,-1,1,8
Y2-S2-267K23,6,539,PS,exp,33,←,left,←,0.5359237999655306,True,16,-1,0,8
Y2-S2-267K23,6,540,PS,exp,42,↑,up,↑,0.7120171999558806,True,16,-1,0,8
Y2-S2-267K23,6,541,PS,exp,47,↓,left,←,0.6804466997273266,False,16,-1,0,8
Y2-S2-267K23,6,542,PS,exp,28,←,left,←,0.4006182001903653,True,17,-1,0,8
Y2-S2-267K23,6,543,PS,exp,30,↓,right,→,0.7541426001116633,False,17,-1,0,8
Y2-S2-267K23,6,544,PS,exp,50,↑,left,←,0.4013616000302136,False,18,-1,0,8
Y2-S2-267K23,6,545,PS,exp,33,↓,down,↓,0.59370579989627,True,19,-1,0,8
Y2-S2-267K23,6,546,PS,exp,45,↑,up,↑,0.7307591000571847,True,19,-1,0,8
Y2-S2-267K23,6,547,PS,exp,28,→,right,→,0.433916499838233,True,19,1,1,9
Y2-S2-267K23,6,548,PS,exp,26,↑,up,↑,0.4176074997521937,True,18,1,0,9
Y2-S2-267K23,6,549,PS,exp,49,←,left,←,0.4974088999442756,True,18,1,0,9
Y2-S2-267K23,6,550,PS,exp,29,↑,up,↑,0.9200245998799801,True,18,1,0,9
Y2-S2-267K23,6,551,PS,exp,45,→,right,→,0.5371518996544182,True,17,1,0,9
Y2-S2-267K23,6,552,PS,exp,37,←,left,←,0.516675400082022,True,17,1,0,9
Y2-S2-267K23,6,553,PS,exp,41,↓,down,↓,0.7214913996867836,True,17,1,0,9
Y2-S2-267K23,6,554,PS,exp,48,←,left,←,0.48629210004583,True,16,1,0,9
Y2-S2-267K23,6,555,PS,exp,45,→,right,→,0.4671351998113096,True,16,1,0,9
Y2-S2-267K23,6,556,PS,exp,30,↓,down,↓,0.8213967001065612,True,16,1,0,9
Y2-S2-267K23,6,557,PS,exp,26,←,right,→,0.6273757996968925,False,15,-1,1,10
Y2-S2-267K23,6,558,PS,exp,39,↓,left,←,0.6037357999011874,False,16,-1,0,10
Y2-S2-267K23,6,559,PS,exp,47,←,left,←,0.8759941002354026,True,17,-1,0,10
Y2-S2-267K23,6,560,PS,exp,35,→,right,→,0.4005367001518607,True,17,-1,0,10
Y2-S2-267K23,6,561,PS,exp,26,↑,right,→,0.5567666999995708,False,17,-1,0,10
Y2-S2-267K23,6,562,PS,exp,36,→,right,→,0.41709630005061626,True,18,-1,0,10
Y2-S2-267K23,6,563,PS,exp,31,←,left,←,0.4924178998917341,True,18,-1,0,10
Y2-S2-267K23,6,564,PS,exp,41,↓,down,↓,0.7432211004197598,True,18,1,1,11
Y2-S2-267K23,6,565,PS,exp,27,↑,right,→,0.5681043001823127,False,17,-1,1,12
Y2-S2-267K23,6,566,PS,exp,49,↓,down,↓,0.5679504997096956,True,18,-1,0,12
Y2-S2-267K23,6,567,PS,exp,46,→,right,→,0.4904200001619756,True,18,-1,0,12
Y2-S2-267K23,6,568,PS,exp,29,↓,down,↓,0.6043726000934839,True,18,1,1,13
Y2-S2-267K23,6,569,PS,exp,30,←,left,←,1.4864603001624346,True,17,1,0,13
Y2-S2-267K23,6,570,PS,exp,27,↓,down,↓,0.9754262999631464,True,17,1,0,13
Y2-S2-267K23,6,571,PS,exp,34,←,left,←,0.47934480011463165,True,17,1,0,13
Y2-S2-267K23,6,572,PS,exp,50,↑,up,↑,0.9975240998901427,True,16,1,0,13
Y2-S2-267K23,6,573,PS,exp,33,→,right,→,0.4838665002025664,True,16,1,0,13
Y2-S2-267K23,6,574,PS,exp,45,←,left,←,0.522667100187391,True,16,1,0,13
Y2-S2-267K23,6,575,PS,exp,26,→,right,→,0.5943641001358628,True,15,1,0,13
Y2-S2-267K23,6,576,PS,exp,29,↓,down,↓,0.5544805997051299,True,15,1,0,13
Y2-S2-267K23,6,577,PS,exp,29,→,left,←,0.7338292999193072,False,15,-1,1,14
Y2-S2-267K23,6,578,PS,exp,32,←,left,←,0.48606349993497133,True,16,-1,0,14
Y2-S2-267K23,6,579,PS,exp,42,↑,up,↑,0.6935074999928474,True,16,-1,0,14
Y2-S2-267K23,6,580,PS,exp,48,→,right,→,0.5415447996929288,True,16,1,1,15
Y2-S2-267K23,6,581,PS,exp,28,↓,down,↓,0.7201900999061763,True,15,1,0,15
Y2-S2-267K23,6,582,PS,exp,48,→,right,→,1.038523900322616,True,15,1,0,15
Y2-S2-267K23,6,583,PS,exp,48,↑,up,↑,0.6765062999911606,True,15,1,0,15
Y2-S2-267K23,6,584,PS,exp,31,→,left,←,0.7244122000411153,False,14,-1,1,16
Y2-S2-267K23,7,585,PS,intra_train,39,↓,down,↓,0.543229500297457,True,19,-,-,-
Y2-S2-267K23,7,586,PS,intra_train,27,←,left,←,0.5186536000110209,True,19,-,-,-
Y2-S2-267K23,7,587,PS,intra_train,30,→,right,→,0.6421198998577893,True,19,-,-,-
Y2-S2-267K23,7,588,PS,intra_train,38,↓,down,↓,0.6519833002239466,True,19,-,-,-
Y2-S2-267K23,7,589,PS,intra_train,30,←,left,←,0.7044783998280764,True,19,-,-,-
Y2-S2-267K23,7,590,PS,exp,45,↓,down,↓,0.5750644002109766,True,13,0,0,0
Y2-S2-267K23,7,591,PS,exp,37,←,left,←,0.7032209001481533,True,13,0,0,0
Y2-S2-267K23,7,592,PS,exp,40,↑,up,↑,0.877502900082618,True,13,1,0,0
Y2-S2-267K23,7,593,PS,exp,34,↓,down,↓,0.5108428997918963,True,12,1,0,0
Y2-S2-267K23,7,594,PS,exp,43,↑,up,↑,0.4413502002134919,True,12,1,0,0
Y2-S2-267K23,7,595,PS,exp,49,←,left,←,0.7156263999640942,True,12,1,0,0
Y2-S2-267K23,7,596,PS,exp,27,→,right,→,0.7280970998108387,True,11,1,0,0
Y2-S2-267K23,7,597,PS,exp,25,←,left,←,0.49260189989581704,True,11,1,0,0
Y2-S2-267K23,7,598,PS,exp,49,↓,up,↑,0.5233457996509969,False,11,-1,1,1
Y2-S2-267K23,7,599,PS,exp,35,↑,up,↑,0.9633927000686526,True,12,-1,0,1
Y2-S2-267K23,7,600,PS,exp,41,↓,down,↓,0.6301959999836981,True,12,-1,0,1
Y2-S2-267K23,7,601,PS,exp,42,↑,up,↑,1.0138090001419187,True,12,1,1,2
Y2-S2-267K23,7,602,PS,exp,43,←,left,←,0.35707159992307425,True,11,1,0,2
Y2-S2-267K23,7,603,PS,exp,25,↑,up,↑,0.48332920018583536,True,11,1,0,2
Y2-S2-267K23,7,604,PS,exp,26,↓,down,↓,0.6852227998897433,True,11,1,0,2
Y2-S2-267K23,7,605,PS,exp,28,→,right,→,0.4426993001252413,True,10,1,0,2
Y2-S2-267K23,7,606,PS,exp,37,↑,up,↑,0.4921376002021134,True,10,1,0,2
Y2-S2-267K23,7,607,PS,exp,26,→,right,→,0.502532500308007,True,10,1,0,2
Y2-S2-267K23,7,608,PS,exp,41,↑,up,↑,0.5260717999190092,True,9,1,0,2
Y2-S2-267K23,7,609,PS,exp,45,←,left,←,0.4587169997394085,True,9,1,0,2
Y2-S2-267K23,7,610,PS,exp,42,↑,left,←,0.8753046998754144,False,9,-1,1,3
Y2-S2-267K23,7,611,PS,exp,30,→,right,→,0.6732022003270686,True,10,-1,0,3
Y2-S2-267K23,7,612,PS,exp,34,↓,down,↓,0.5970212002284825,True,10,-1,0,3
Y2-S2-267K23,7,613,PS,exp,42,→,right,→,0.4504032996483147,True,10,1,1,4
Y2-S2-267K23,7,614,PS,exp,31,←,right,→,0.5535766999237239,False,9,-1,1,5
Y2-S2-267K23,7,615,PS,exp,36,→,left,←,0.8013793001882732,False,10,-1,0,5
Y2-S2-267K23,7,616,PS,exp,47,↓,down,↓,0.9981654998846352,True,11,-1,0,5
Y2-S2-267K23,7,617,PS,exp,40,→,right,→,0.5023823003284633,True,11,-1,0,5
Y2-S2-267K23,7,618,PS,exp,31,↓,down,↓,0.6497301002964377,True,11,1,1,6
Y2-S2-267K23,7,619,PS,exp,30,↑,up,↑,0.4364061001688242,True,10,1,0,6
Y2-S2-267K23,7,620,PS,exp,34,→,left,←,0.6428486001677811,False,10,-1,1,7
Y2-S2-267K23,7,621,PS,exp,31,↑,up,↑,0.5662668999284506,True,11,-1,0,7
Y2-S2-267K23,7,622,PS,exp,34,↓,left,←,0.7011187002062798,False,11,-1,0,7
Y2-S2-267K23,7,623,PS,exp,37,←,left,←,0.7661791001446545,True,12,-1,0,7
Y2-S2-267K23,7,624,PS,exp,27,↓,down,↓,0.566641699988395,True,12,-1,0,7
Y2-S2-267K23,7,625,PS,exp,28,←,left,←,0.6751661002635956,True,12,1,1,8
Y2-S2-267K23,7,626,PS,exp,42,↓,down,↓,0.564937099814415,True,11,1,0,8
Y2-S2-267K23,7,627,PS,exp,48,→,left,←,0.5267457999289036,False,11,-1,1,9
Y2-S2-267K23,7,628,PS,exp,48,↓,down,↓,0.5925596999004483,True,12,-1,0,9
Y2-S2-267K23,7,629,PS,exp,36,←,right,→,0.6090098000131547,False,12,-1,0,9
Y2-S2-267K23,7,630,PS,exp,36,↑,up,↑,0.5872138999402523,True,13,-1,0,9
Y2-S2-267K23,7,631,PS,exp,49,←,left,←,0.46980510000139475,True,13,-1,0,9
Y2-S2-267K23,7,632,PS,exp,50,→,right,→,0.4719295999966562,True,13,1,1,10
Y2-S2-267K23,7,633,PS,exp,26,↓,down,↓,0.6197657999582589,True,12,1,0,10
Y2-S2-267K23,7,634,PS,exp,25,←,left,←,0.5602370998822153,True,12,1,0,10
Y2-S2-267K23,7,635,PS,exp,36,→,right,→,0.4693537000566721,True,12,1,0,10
Y2-S2-267K23,7,636,PS,exp,26,↓,down,↓,0.621745000127703,True,11,1,0,10
Y2-S2-267K23,7,637,PS,exp,43,↑,up,↑,0.41845230013132095,True,11,1,0,10
Y2-S2-267K23,7,638,PS,exp,27,←,left,←,0.5749655999243259,True,11,1,0,10
Y2-S2-267K23,7,639,PS,exp,25,↑,up,↑,0.48791550006717443,True,10,1,0,10
Y2-S2-267K23,7,640,PS,exp,41,↓,down,↓,0.8434584001079202,True,10,1,0,10
Y2-S2-267K23,7,641,PS,exp,32,↑,left,←,0.7248559999279678,False,10,-1,1,11
Y2-S2-267K23,7,642,PS,exp,46,→,up,↑,1.0807210002094507,False,11,-1,0,11
Y2-S2-267K23,7,643,PS,exp,39,←,up,↑,0.7334511000663042,False,12,-1,0,11
Y2-S2-267K23,7,644,PS,exp,49,↑,left,←,0.6231216001324356,False,13,-1,0,11
Y2-S2-267K23,7,645,PS,exp,39,←,up,↑,0.6940071997232735,False,14,-1,0,11
Y2-S2-267K23,7,646,PS,exp,41,↑,up,↑,0.44965160032734275,True,15,-1,0,11
Y2-S2-267K23,7,647,PS,exp,50,↓,up,↑,0.46434890013188124,False,15,-1,0,11
Y2-S2-267K23,7,648,PS,exp,42,↑,up,↑,0.4004803001880646,True,16,-1,0,11
Y2-S2-267K23,7,649,PS,exp,46,↓,left,←,0.9592838999815285,False,16,-1,0,11
Y2-S2-267K23,7,650,PS,exp,33,→,right,→,1.0503072999417782,True,17,-1,0,11
Y2-S2-267K23,7,651,PS,exp,32,←,right,→,0.7803573999553919,False,17,-1,0,11
Y2-S2-267K23,7,652,PS,exp,31,↑,right,→,0.6889883000403643,False,18,-1,0,11
Y2-S2-267K23,7,653,PS,exp,25,←,left,←,0.3843356999568641,True,19,-1,0,11
Y2-S2-267K23,7,654,PS,exp,33,↑,up,↑,0.4343777997419238,True,19,-1,0,11
Y2-S2-267K23,7,655,PS,exp,33,←,left,←,0.48958769999444485,True,19,1,1,12
Y2-S2-267K23,7,656,PS,exp,32,↓,right,→,0.7293849000707269,False,18,-1,1,13
Y2-S2-267K23,7,657,PS,exp,29,←,right,→,0.5348871001042426,False,19,-1,0,13
Y2-S2-267K23,7,658,PS,exp,31,→,right,→,0.7086537997238338,True,20,-1,0,13
Y2-S2-267K23,7,659,PS,exp,33,↑,left,←,0.46713689994066954,False,20,-1,0,13
Y2-S2-267K23,7,660,PS,exp,49,→,right,→,0.4340021996758878,True,21,-1,0,13
Y2-S2-267K23,7,661,PS,exp,46,←,left,←,1.893571199849248,True,21,-1,0,13
Y2-S2-267K23,7,662,PS,exp,32,↑,up,↑,0.9029586003161967,True,21,1,1,14
Y2-S2-267K23,7,663,PS,exp,30,←,left,←,0.4005554001778364,True,20,1,0,14
Y2-S2-267K23,7,664,PS,exp,48,→,left,←,0.1843049000017345,False,20,-1,1,15
Y2-S2-267K23,7,665,PS,exp,30,←,left,←,0.7287926999852061,True,21,-1,0,15
Y2-S2-267K23,7,666,PS,exp,36,↓,down,↓,1.0128528997302055,True,21,-1,0,15
Y2-S2-267K23,7,667,PS,exp,30,↑,up,↑,1.0827347002923489,True,21,1,1,16
Y2-S2-267K23,8,668,AS,intra_train,31,→,left,←,1.273588899988681,False,21,-,-,-
Y2-S2-267K23,8,669,AS,intra_train,35,←,left,←,0.4173711999319494,True,21,-,-,-
Y2-S2-267K23,8,670,AS,intra_train,40,↑,up,↑,0.6913667996414006,True,21,-,-,-
Y2-S2-267K23,8,671,AS,intra_train,45,→,right,→,0.6558583998121321,True,21,-,-,-
Y2-S2-267K23,8,672,AS,intra_train,34,↓,down,↓,1.1847402001731098,True,21,-,-,-
Y2-S2-267K23,8,673,AS,exp,37,↑,up,↑,0.4644218999892473,True,14,0,0,0
Y2-S2-267K23,8,674,AS,exp,43,→,right,→,0.5698555000126362,True,14,0,0,0
Y2-S2-267K23,8,675,AS,exp,46,←,left,←,0.621301700361073,True,14,1,0,0
Y2-S2-267K23,8,676,AS,exp,44,→,right,→,0.4235375998541713,True,13,1,0,0
Y2-S2-267K23,8,677,AS,exp,49,←,left,←,0.6329959998838603,True,13,1,0,0
Y2-S2-267K23,8,678,AS,exp,38,↓,down,↓,0.517501899972558,True,13,1,0,0
Y2-S2-267K23,8,679,AS,exp,33,←,right,→,0.48591569997370243,False,12,-1,1,1
Y2-S2-267K23,8,680,AS,exp,48,↓,down,↓,0.6659420998767018,True,13,-1,0,1
Y2-S2-267K23,8,681,AS,exp,30,←,left,←,0.6589956004172564,True,13,-1,0,1
Y2-S2-267K23,8,682,AS,exp,38,↓,down,↓,0.661688799969852,True,13,1,1,2
Y2-S2-267K23,8,683,AS,exp,44,←,left,←,0.4935236996971071,True,12,1,0,2
Y2-S2-267K23,8,684,AS,exp,39,↑,up,↑,0.3792011998593807,True,12,1,0,2
Y2-S2-267K23,8,685,AS,exp,43,↓,up,↑,0.5850500999949872,False,12,-1,1,3
Y2-S2-267K23,8,686,AS,exp,27,←,left,←,1.1544506000354886,True,13,-1,0,3
Y2-S2-267K23,8,687,AS,exp,35,↓,down,↓,0.45715950010344386,True,13,-1,0,3
Y2-S2-267K23,8,688,AS,exp,40,↑,up,↑,0.5981153999455273,True,13,1,1,4
Y2-S2-267K23,8,689,AS,exp,39,←,left,←,0.4292211998254061,True,12,1,0,4
Y2-S2-267K23,8,690,AS,exp,48,→,right,→,0.9848374002613127,True,12,1,0,4
Y2-S2-267K23,8,691,AS,exp,26,←,left,←,0.4390068002976477,True,12,1,0,4
Y2-S2-267K23,8,692,AS,exp,45,↑,up,↑,0.6171790999360383,True,11,1,0,4
Y2-S2-267K23,8,693,AS,exp,34,←,left,←,0.5043498002924025,True,11,1,0,4
Y2-S2-267K23,8,694,AS,exp,35,→,right,→,0.5606901999562979,True,11,1,0,4
Y2-S2-267K23,8,695,AS,exp,33,↑,up,↑,0.5594908003695309,True,10,1,0,4
Y2-S2-267K23,8,696,AS,exp,29,→,right,→,0.4143389002420008,True,10,1,0,4
Y2-S2-267K23,8,697,AS,exp,35,←,up,↑,0.5347914998419583,False,10,-1,1,5
Y2-S2-267K23,8,698,AS,exp,47,→,left,←,0.7195496000349522,False,11,-1,0,5
Y2-S2-267K23,8,699,AS,exp,41,←,left,←,0.4065339001826942,True,12,-1,0,5
Y2-S2-267K23,8,700,AS,exp,47,↓,right,→,0.6251932000741363,False,12,-1,0,5
Y2-S2-267K23,8,701,AS,exp,38,→,left,←,0.6081864000298083,False,13,-1,0,5
Y2-S2-267K23,8,702,AS,exp,33,←,left,←,0.4799616001546383,True,14,-1,0,5
Y2-S2-267K23,8,703,AS,exp,26,→,right,→,0.4757564002647996,True,14,-1,0,5
Y2-S2-267K23,8,704,AS,exp,42,↓,up,↑,0.8041635998524725,False,14,-1,0,5
Y2-S2-267K23,8,705,AS,exp,46,↑,up,↑,0.38397209998220205,True,15,-1,0,5
Y2-S2-267K23,8,706,AS,exp,36,→,down,↓,0.913342900108546,False,15,-1,0,5
Y2-S2-267K23,8,707,AS,exp,37,←,right,→,0.463574199937284,False,16,-1,0,5
Y2-S2-267K23,8,708,AS,exp,40,→,right,→,0.41717590019106865,True,17,-1,0,5
Y2-S2-267K23,8,709,AS,exp,33,←,left,←,0.5816222997382283,True,17,-1,0,5
Y2-S2-267K23,8,710,AS,exp,37,↑,up,↑,0.5725002996623516,True,17,1,1,6
Y2-S2-267K23,8,711,AS,exp,28,←,left,←,0.8170786001719534,True,16,1,0,6
Y2-S2-267K23,8,712,AS,exp,29,→,right,→,0.6491612996906042,True,16,1,0,6
Y2-S2-267K23,8,713,AS,exp,32,↓,down,↓,0.6923899999819696,True,16,1,0,6
Y2-S2-267K23,8,714,AS,exp,32,↑,up,↑,0.7112453002482653,True,15,1,0,6
Y2-S2-267K23,8,715,AS,exp,28,←,left,←,0.5893177003599703,True,15,1,0,6
Y2-S2-267K23,8,716,AS,exp,31,→,right,→,1.19524580007419,True,15,1,0,6
Y2-S2-267K23,8,717,AS,exp,35,↑,up,↑,0.5723673002794385,True,14,1,0,6
Y2-S2-267K23,8,718,AS,exp,43,↓,down,↓,0.5889117997139692,True,14,1,0,6
Y2-S2-267K23,8,719,AS,exp,37,←,right,→,0.6747290999628603,False,14,-1,1,7
Y2-S2-267K23,8,720,AS,exp,34,↑,up,↑,0.4260057997889817,True,15,-1,0,7
Y2-S2-267K23,8,721,AS,exp,45,→,left,←,0.5831327000632882,False,15,-1,0,7
Y2-S2-267K23,8,722,AS,exp,46,↑,up,↑,0.5669402997009456,True,16,-1,0,7
Y2-S2-267K23,8,723,AS,exp,34,→,up,↑,0.5893247001804411,False,16,-1,0,7
Y2-S2-267K23,8,724,AS,exp,37,↓,down,↓,0.5454319003038108,True,17,-1,0,7
Y2-S2-267K23,8,725,AS,exp,40,→,right,→,0.4566305000334978,True,17,-1,0,7
Y2-S2-267K23,8,726,AS,exp,25,↓,down,↓,0.6890024999156594,True,17,1,1,8
Y2-S2-267K23,8,727,AS,exp,43,←,left,←,0.4768908997066319,True,16,1,0,8
Y2-S2-267K23,8,728,AS,exp,48,→,right,→,0.4395900000818074,True,16,1,0,8
Y2-S2-267K23,8,729,AS,exp,35,↓,down,↓,0.7331940997391939,True,16,1,0,8
Y2-S2-267K23,8,730,AS,exp,25,↑,up,↑,0.642996100243181,True,15,1,0,8
Y2-S2-267K23,8,731,AS,exp,39,←,left,←,1.3402040996588767,True,15,1,0,8
Y2-S2-267K23,8,732,AS,exp,38,↑,up,↑,0.6058252002112567,True,15,1,0,8
Y2-S2-267K23,8,733,AS,exp,30,←,left,←,0.5778729002922773,True,14,1,0,8
Y2-S2-267K23,8,734,AS,exp,28,→,right,→,0.7006316999904811,True,14,1,0,8
Y2-S2-267K23,8,735,AS,exp,31,←,left,←,0.7231280999258161,True,14,1,0,8
Y2-S2-267K23,8,736,AS,exp,35,↓,down,↓,0.5828563002869487,True,13,1,0,8
Y2-S2-267K23,8,737,AS,exp,25,←,right,→,0.6595660001039505,False,13,-1,1,9
Y2-S2-267K23,8,738,AS,exp,37,→,right,→,0.48632619995623827,True,14,-1,0,9
Y2-S2-267K23,8,739,AS,exp,30,↑,up,↑,0.4457133999094367,True,14,-1,0,9
Y2-S2-267K23,8,740,AS,exp,49,↓,down,↓,0.7419921001419425,True,14,1,1,10
Y2-S2-267K23,8,741,AS,exp,49,←,right,→,0.5695470999926329,False,13,-1,1,11
Y2-S2-267K23,8,742,AS,exp,37,↓,left,←,0.6631855997256935,False,14,-1,0,11
Y2-S2-267K23,8,743,AS,exp,42,←,left,←,0.7834939998574555,True,15,-1,0,11
Y2-S2-267K23,8,744,AS,exp,39,↓,right,→,0.7774358000606298,False,15,-1,0,11
Y2-S2-267K23,8,745,AS,exp,31,↑,up,↑,0.6913951002061367,True,16,-1,0,11
Y2-S2-267K23,8,746,AS,exp,41,←,left,←,0.3505525002256036,True,16,-1,0,11
Y2-S2-267K23,8,747,AS,exp,45,↓,down,↓,0.5158693003468215,True,16,1,1,12
Y2-S2-267K23,8,748,AS,exp,31,↑,up,↑,0.602356200106442,True,15,1,0,12
Y2-S2-267K23,8,749,AS,exp,46,←,right,→,0.5050969999283552,False,15,-1,1,13
Y2-S2-267K23,8,750,AS,exp,49,↓,down,↓,0.4687988003715873,True,16,-1,0,13
Y2-S2-267K23,8,751,AS,exp,28,↑,up,↑,1.3594380002468824,True,16,-1,0,13
Y2-S2-267K23,8,752,AS,exp,50,←,left,←,0.48797859996557236,True,16,1,1,14
Y2-S2-267K23,8,753,AS,exp,37,↓,up,↑,0.5921652996912599,False,15,-1,1,15
Y2-S2-267K23,8,754,AS,exp,41,→,right,→,0.46739780018106103,True,16,-1,0,15
Y2-S2-267K23,8,755,AS,exp,46,↑,up,↑,0.538370500318706,True,16,-1,0,15
Y2-S2-267K23,8,756,AS,exp,41,←,left,←,0.40059399977326393,True,16,1,1,16
