PART_ID,Block_no,Trial_no,Block_type,Trial_type,CSI,Stim_letter,Key_pressed,letter_choose,Rt,Corr,Stimulus Time,Level,Reversal,Revs_count
Y2-S2-014K21,1,1,PS,train,28,↑,up,↑,0.6973118999740109,True,30,-,-,-
Y2-S2-014K21,1,2,PS,train,36,↓,down,↓,0.787791799986735,True,30,-,-,-
Y2-S2-014K21,1,3,PS,train,47,→,right,→,0.7310599000193179,True,30,-,-,-
Y2-S2-014K21,1,4,PS,train,30,↓,down,↓,1.0203613999765366,True,30,-,-,-
Y2-S2-014K21,1,5,PS,train,50,←,left,←,0.6966809999430552,True,30,-,-,-
Y2-S2-014K21,1,6,PS,train,44,↓,down,↓,0.8098994999891147,True,30,-,-,-
Y2-S2-014K21,1,7,PS,train,35,←,left,←,0.6799161999952048,True,30,-,-,-
Y2-S2-014K21,1,8,PS,train,41,↑,up,↑,0.6861728000221774,True,30,-,-,-
Y2-S2-014K21,1,9,PS,train,29,→,right,→,0.7627109000459313,True,30,-,-,-
Y2-S2-014K21,1,10,PS,train,28,←,left,←,0.7113698000321165,True,30,-,-,-
Y2-S2-014K21,2,11,AS,train,29,↑,up,↑,0.6511252999771386,True,45,-,-,-
Y2-S2-014K21,2,12,AS,train,48,↓,down,↓,0.9258837000234053,True,45,-,-,-
Y2-S2-014K21,2,13,AS,train,29,→,right,→,0.6679242999525741,True,45,-,-,-
Y2-S2-014K21,2,14,AS,train,36,↓,down,↓,0.9988076000008732,True,45,-,-,-
Y2-S2-014K21,2,15,AS,train,32,→,right,→,0.6343540999805555,True,45,-,-,-
Y2-S2-014K21,2,16,AS,train,32,←,left,←,0.5509477000450715,True,45,-,-,-
Y2-S2-014K21,2,17,AS,train,40,↑,up,↑,0.6337544999551028,True,45,-,-,-
Y2-S2-014K21,2,18,AS,train,49,←,left,←,0.7178527000360191,True,45,-,-,-
Y2-S2-014K21,2,19,AS,train,41,↓,down,↓,1.8282326000044122,True,45,-,-,-
Y2-S2-014K21,2,20,AS,train,31,←,left,←,0.6344800000078976,True,45,-,-,-
Y2-S2-014K21,-,21,PS,adaptive,42,↓,left,←,1.4958600000245497,False,10,-1,0,0
Y2-S2-014K21,-,22,PS,adaptive,35,→,right,→,0.6774112000130117,True,11,-1,0,0
Y2-S2-014K21,-,23,PS,adaptive,42,↑,up,↑,1.2919383000116795,True,11,-1,0,0
Y2-S2-014K21,-,24,PS,adaptive,32,→,right,→,0.531965299975127,True,11,1,1,1
Y2-S2-014K21,-,25,PS,adaptive,46,←,left,←,0.6155098000308499,True,10,1,0,1
Y2-S2-014K21,-,26,PS,adaptive,26,↓,up,↑,0.7461005999939516,False,10,-1,1,2
Y2-S2-014K21,-,27,PS,adaptive,40,↑,up,↑,0.7646792000159621,True,11,-1,0,2
Y2-S2-014K21,-,28,PS,adaptive,33,↓,up,↑,0.9018301999894902,False,11,-1,0,2
Y2-S2-014K21,-,29,PS,adaptive,32,↑,down,↓,0.9544327999465168,False,12,-1,0,2
Y2-S2-014K21,-,30,PS,adaptive,48,←,left,←,0.6928572000470012,True,13,-1,0,2
Y2-S2-014K21,-,31,PS,adaptive,50,↑,up,↑,0.7028103999327868,True,13,-1,0,2
Y2-S2-014K21,-,32,PS,adaptive,46,←,up,↑,0.9125817000167444,False,13,-1,0,2
Y2-S2-014K21,-,33,PS,adaptive,31,→,left,←,1.0736202999250963,False,14,-1,0,2
Y2-S2-014K21,-,34,PS,adaptive,34,←,left,←,0.7540006000781432,True,15,-1,0,2
Y2-S2-014K21,-,35,PS,adaptive,37,→,right,→,0.6320261000655591,True,15,-1,0,2
Y2-S2-014K21,-,36,PS,adaptive,44,↓,down,↓,0.821650099940598,True,15,1,1,3
Y2-S2-014K21,-,37,PS,adaptive,48,←,left,←,0.587404299993068,True,14,1,0,3
Y2-S2-014K21,-,38,PS,adaptive,41,→,right,→,0.838839300093241,True,14,1,0,3
Y2-S2-014K21,-,39,PS,adaptive,30,←,left,←,0.6079770000651479,True,14,1,0,3
Y2-S2-014K21,-,40,PS,adaptive,50,↓,down,↓,0.8792032999917865,True,13,1,0,3
Y2-S2-014K21,-,41,PS,adaptive,46,↑,up,↑,0.7795951999723911,True,13,1,0,3
Y2-S2-014K21,-,42,PS,adaptive,48,←,left,←,0.6299694000044838,True,13,1,0,3
Y2-S2-014K21,-,43,PS,adaptive,28,↓,down,↓,0.7136354999383911,True,12,1,0,3
Y2-S2-014K21,-,44,PS,adaptive,40,↑,up,↑,0.6736014999914914,True,12,1,0,3
Y2-S2-014K21,-,45,PS,adaptive,25,↓,down,↓,0.7275075999787077,True,12,1,0,3
Y2-S2-014K21,-,46,PS,adaptive,47,↑,down,↓,0.7316599000478163,False,11,-1,1,4
Y2-S2-014K21,-,47,AS,adaptive,44,→,right,→,0.5231373000424355,True,20,0,0,0
Y2-S2-014K21,-,48,AS,adaptive,30,←,left,←,0.6976192999863997,True,20,0,0,0
Y2-S2-014K21,-,49,AS,adaptive,26,→,left,←,0.8197432999731973,False,20,-1,0,0
Y2-S2-014K21,-,50,AS,adaptive,30,←,left,←,0.6451665000058711,True,21,-1,0,0
Y2-S2-014K21,-,51,AS,adaptive,47,↑,up,↑,0.8153952000429854,True,21,-1,0,0
Y2-S2-014K21,-,52,AS,adaptive,32,↓,down,↓,0.7493966999463737,True,21,1,1,1
Y2-S2-014K21,-,53,AS,adaptive,30,←,left,←,0.7488503999775276,True,20,1,0,1
Y2-S2-014K21,-,54,AS,adaptive,26,→,right,→,0.7254193000262603,True,20,1,0,1
Y2-S2-014K21,-,55,AS,adaptive,25,↓,down,↓,0.7838040000060573,True,20,1,0,1
Y2-S2-014K21,-,56,AS,adaptive,28,←,left,←,0.6991660000057891,True,19,1,0,1
Y2-S2-014K21,-,57,AS,adaptive,46,→,right,→,0.6673382999142632,True,19,1,0,1
Y2-S2-014K21,-,58,AS,adaptive,49,↑,up,↑,0.8143847000319511,True,19,1,0,1
Y2-S2-014K21,-,59,AS,adaptive,26,↓,down,↓,1.082683900021948,True,18,1,0,1
Y2-S2-014K21,-,60,AS,adaptive,45,←,left,←,0.665415900060907,True,18,1,0,1
Y2-S2-014K21,-,61,AS,adaptive,30,↓,down,↓,0.7087487999815494,True,18,1,0,1
Y2-S2-014K21,-,62,AS,adaptive,49,↑,up,↑,0.7771544000133872,True,17,1,0,1
Y2-S2-014K21,-,63,AS,adaptive,36,←,up,↑,0.7446545999264345,False,17,-1,1,2
Y2-S2-014K21,-,64,AS,adaptive,27,↓,down,↓,0.7653626999817789,True,18,-1,0,2
Y2-S2-014K21,-,65,AS,adaptive,37,←,left,←,0.7054295999696478,True,18,-1,0,2
Y2-S2-014K21,-,66,AS,adaptive,33,↑,up,↑,0.7465824000537395,True,18,1,1,3
Y2-S2-014K21,-,67,AS,adaptive,41,↓,down,↓,0.7689826999558136,True,17,1,0,3
Y2-S2-014K21,-,68,AS,adaptive,46,←,right,→,0.7102948999963701,False,17,-1,1,4
Y2-S2-014K21,1,69,AS,intra_train,33,↑,up,↑,0.6643258000258356,True,27,-,-,-
Y2-S2-014K21,1,70,AS,intra_train,47,→,right,→,0.6794520999537781,True,27,-,-,-
Y2-S2-014K21,1,71,AS,intra_train,40,←,left,←,1.1704925999511033,True,27,-,-,-
Y2-S2-014K21,1,72,AS,intra_train,43,→,right,→,1.1244611999718472,True,27,-,-,-
Y2-S2-014K21,1,73,AS,intra_train,34,←,left,←,0.82245590002276,True,27,-,-,-
Y2-S2-014K21,1,74,AS,exp,42,→,left,←,0.72058039996773,False,18,-1,0,0
Y2-S2-014K21,1,75,AS,exp,27,↓,down,↓,0.8446062000002712,True,19,-1,0,0
Y2-S2-014K21,1,76,AS,exp,38,←,left,←,0.7206355000380427,True,19,-1,0,0
Y2-S2-014K21,1,77,AS,exp,41,→,right,→,0.6222238999325782,True,19,1,1,1
Y2-S2-014K21,1,78,AS,exp,33,↓,down,↓,0.6805989000713453,True,18,1,0,1
Y2-S2-014K21,1,79,AS,exp,49,↑,up,↑,0.8628132999874651,True,18,1,0,1
Y2-S2-014K21,1,80,AS,exp,26,←,right,→,0.7800568001111969,False,18,-1,1,2
Y2-S2-014K21,1,81,AS,exp,45,→,right,→,0.7348367000231519,True,19,-1,0,2
Y2-S2-014K21,1,82,AS,exp,48,↓,up,↑,0.7814888000721112,False,19,-1,0,2
Y2-S2-014K21,1,83,AS,exp,42,→,right,→,0.6906601000810042,True,20,-1,0,2
Y2-S2-014K21,1,84,AS,exp,45,←,left,←,0.6277600000612438,True,20,-1,0,2
Y2-S2-014K21,1,85,AS,exp,39,→,left,←,0.5621153000975028,False,20,-1,0,2
Y2-S2-014K21,1,86,AS,exp,41,↓,down,↓,0.8917566000018269,True,21,-1,0,2
Y2-S2-014K21,1,87,AS,exp,48,↑,right,→,0.7244934000773355,False,21,-1,0,2
Y2-S2-014K21,1,88,AS,exp,36,→,right,→,0.782250199932605,True,22,-1,0,2
Y2-S2-014K21,1,89,AS,exp,34,↑,up,↑,0.6339113999856636,True,22,-1,0,2
Y2-S2-014K21,1,90,AS,exp,43,↓,down,↓,0.8553539999993518,True,22,1,1,3
Y2-S2-014K21,1,91,AS,exp,29,↑,up,↑,0.9404484999831766,True,21,1,0,3
Y2-S2-014K21,1,92,AS,exp,39,↓,down,↓,0.8126888000406325,True,21,1,0,3
Y2-S2-014K21,1,93,AS,exp,40,←,left,←,0.6559110999805853,True,21,1,0,3
Y2-S2-014K21,1,94,AS,exp,25,↑,up,↑,0.7873261000495404,True,20,1,0,3
Y2-S2-014K21,1,95,AS,exp,32,→,right,→,0.6682086000218987,True,20,1,0,3
Y2-S2-014K21,1,96,AS,exp,29,←,left,←,0.6648006000323221,True,20,1,0,3
Y2-S2-014K21,1,97,AS,exp,27,↓,down,↓,0.846339900046587,True,19,1,0,3
Y2-S2-014K21,1,98,AS,exp,26,←,left,←,0.6694451000075787,True,19,1,0,3
Y2-S2-014K21,1,99,AS,exp,45,→,left,←,0.9009723999770358,False,19,-1,1,4
Y2-S2-014K21,1,100,AS,exp,27,↑,up,↑,0.9764354999642819,True,20,-1,0,4
Y2-S2-014K21,1,101,AS,exp,34,←,left,←,0.9701494000619277,True,20,-1,0,4
Y2-S2-014K21,1,102,AS,exp,49,↓,up,↑,0.7121623000130057,False,20,-1,0,4
Y2-S2-014K21,1,103,AS,exp,29,→,right,→,0.689575600088574,True,21,-1,0,4
Y2-S2-014K21,1,104,AS,exp,45,←,right,→,0.5787997998995706,False,21,-1,0,4
Y2-S2-014K21,1,105,AS,exp,29,↑,up,↑,0.5897460000123829,True,22,-1,0,4
Y2-S2-014K21,1,106,AS,exp,25,←,right,→,0.6281155999749899,False,22,-1,0,4
Y2-S2-014K21,1,107,AS,exp,30,→,right,→,0.7746772000100464,True,23,-1,0,4
Y2-S2-014K21,1,108,AS,exp,30,↑,up,↑,0.7769662000937387,True,23,-1,0,4
Y2-S2-014K21,1,109,AS,exp,28,→,right,→,0.6212142999283969,True,23,1,1,5
Y2-S2-014K21,1,110,AS,exp,31,↓,down,↓,0.8103053999366239,True,22,1,0,5
Y2-S2-014K21,1,111,AS,exp,49,←,left,←,0.8634689999744296,True,22,1,0,5
Y2-S2-014K21,1,112,AS,exp,34,↓,down,↓,0.8214634000323713,True,22,1,0,5
Y2-S2-014K21,1,113,AS,exp,28,→,left,←,1.6011784999864176,False,21,-1,1,6
Y2-S2-014K21,1,114,AS,exp,43,←,left,←,0.6380600999109447,True,22,-1,0,6
Y2-S2-014K21,1,115,AS,exp,26,↑,down,↓,1.0440579999703914,False,22,-1,0,6
Y2-S2-014K21,1,116,AS,exp,34,←,left,←,0.773893800098449,True,23,-1,0,6
Y2-S2-014K21,1,117,AS,exp,34,→,left,←,1.0329380999319255,False,23,-1,0,6
Y2-S2-014K21,1,118,AS,exp,28,↑,up,↑,0.6827337000286207,True,24,-1,0,6
Y2-S2-014K21,1,119,AS,exp,29,→,right,→,0.7514997000107542,True,24,-1,0,6
Y2-S2-014K21,1,120,AS,exp,46,↓,down,↓,0.8249562999699265,True,24,1,1,7
Y2-S2-014K21,1,121,AS,exp,43,←,left,←,0.6873768999939784,True,23,1,0,7
Y2-S2-014K21,1,122,AS,exp,46,↓,down,↓,0.8544929000781849,True,23,1,0,7
Y2-S2-014K21,1,123,AS,exp,33,↑,up,↑,0.9235573000041768,True,23,1,0,7
Y2-S2-014K21,1,124,AS,exp,36,↓,down,↓,0.8033287998987362,True,22,1,0,7
Y2-S2-014K21,1,125,AS,exp,45,↑,up,↑,0.9981416999362409,True,22,1,0,7
Y2-S2-014K21,1,126,AS,exp,25,→,right,→,0.6675346000120044,True,22,1,0,7
Y2-S2-014K21,1,127,AS,exp,32,↑,up,↑,0.8681027001002803,True,21,1,0,7
Y2-S2-014K21,1,128,AS,exp,26,←,left,←,0.6334946999559179,True,21,1,0,7
Y2-S2-014K21,1,129,AS,exp,33,→,right,→,0.7423705999972299,True,21,1,0,7
Y2-S2-014K21,1,130,AS,exp,25,←,left,←,0.770807099994272,True,20,1,0,7
Y2-S2-014K21,1,131,AS,exp,31,↓,down,↓,0.7868622000096366,True,20,1,0,7
Y2-S2-014K21,1,132,AS,exp,33,↑,up,↑,1.1200120999710634,True,20,1,0,7
Y2-S2-014K21,1,133,AS,exp,41,↓,down,↓,0.7433937999885529,True,19,1,0,7
Y2-S2-014K21,1,134,AS,exp,36,↑,up,↑,0.89026430004742,True,19,1,0,7
Y2-S2-014K21,1,135,AS,exp,36,↓,down,↓,0.9743577999761328,True,19,1,0,7
Y2-S2-014K21,1,136,AS,exp,27,→,right,→,0.7086148000089452,True,18,1,0,7
Y2-S2-014K21,1,137,AS,exp,39,←,left,←,0.6914695000741631,True,18,1,0,7
Y2-S2-014K21,1,138,AS,exp,46,→,right,→,0.7238528000889346,True,18,1,0,7
Y2-S2-014K21,1,139,AS,exp,31,←,left,←,0.7199561999877915,True,17,1,0,7
Y2-S2-014K21,1,140,AS,exp,39,→,right,→,0.6930243000388145,True,17,1,0,7
Y2-S2-014K21,1,141,AS,exp,46,↑,up,↑,0.6272216999204829,True,17,1,0,7
Y2-S2-014K21,1,142,AS,exp,27,→,up,↑,0.8491026000119746,False,16,-1,1,8
Y2-S2-014K21,1,143,AS,exp,25,↓,up,↑,0.852170699974522,False,17,-1,0,8
Y2-S2-014K21,1,144,AS,exp,26,→,right,→,0.6656580000417307,True,18,-1,0,8
Y2-S2-014K21,1,145,AS,exp,30,←,up,↑,0.8585134000750259,False,18,-1,0,8
Y2-S2-014K21,1,146,AS,exp,43,↑,up,↑,0.7400838000467047,True,19,-1,0,8
Y2-S2-014K21,1,147,AS,exp,29,→,right,→,0.707301199901849,True,19,-1,0,8
Y2-S2-014K21,1,148,AS,exp,44,↓,down,↓,0.7907364999409765,True,19,1,1,9
Y2-S2-014K21,1,149,AS,exp,41,↑,up,↑,0.776981900096871,True,18,1,0,9
Y2-S2-014K21,1,150,AS,exp,40,←,left,←,0.7589677999494597,True,18,1,0,9
Y2-S2-014K21,1,151,AS,exp,28,↑,up,↑,0.6376020000316203,True,18,1,0,9
Y2-S2-014K21,1,152,AS,exp,31,→,right,→,0.7699503999901935,True,17,1,0,9
Y2-S2-014K21,1,153,AS,exp,44,↓,down,↓,0.779506599996239,True,17,1,0,9
Y2-S2-014K21,1,154,AS,exp,48,←,right,→,1.0069109000032768,False,17,-1,1,10
Y2-S2-014K21,1,155,AS,exp,46,↓,down,↓,0.6140793999657035,True,18,-1,0,10
Y2-S2-014K21,1,156,AS,exp,38,→,right,→,0.7388995999936014,True,18,-1,0,10
Y2-S2-014K21,1,157,AS,exp,33,←,left,←,0.8137656999751925,True,18,1,1,11
Y2-S2-014K21,1,158,AS,exp,34,↓,down,↓,0.719609500025399,True,17,1,0,11
Y2-S2-014K21,1,159,AS,exp,27,↑,down,↓,0.6815323000773787,False,17,-1,1,12
Y2-S2-014K21,1,160,AS,exp,29,→,right,→,0.8203151000197977,True,18,-1,0,12
Y2-S2-014K21,1,161,AS,exp,27,↓,down,↓,0.8118358999490738,True,18,-1,0,12
Y2-S2-014K21,1,162,AS,exp,46,↑,up,↑,0.7587422999786213,True,18,1,1,13
Y2-S2-014K21,1,163,AS,exp,39,←,left,←,0.7330246999626979,True,17,1,0,13
Y2-S2-014K21,1,164,AS,exp,26,→,right,→,0.7120876000262797,True,17,1,0,13
Y2-S2-014K21,1,165,AS,exp,25,↓,down,↓,0.6909466999350116,True,17,1,0,13
Y2-S2-014K21,1,166,AS,exp,33,↑,up,↑,0.9262700999388471,True,16,1,0,13
Y2-S2-014K21,1,167,AS,exp,45,↓,down,↓,0.6901902999961749,True,16,1,0,13
Y2-S2-014K21,1,168,AS,exp,49,→,right,→,0.4973255000077188,True,16,1,0,13
Y2-S2-014K21,1,169,AS,exp,42,↑,up,↑,0.7989396000048146,True,15,1,0,13
Y2-S2-014K21,1,170,AS,exp,46,↓,up,↑,0.8383078000042588,False,15,-1,1,14
Y2-S2-014K21,1,171,AS,exp,50,↑,up,↑,0.8521135000046343,True,16,-1,0,14
Y2-S2-014K21,1,172,AS,exp,32,→,right,→,0.6954425000585616,True,16,-1,0,14
Y2-S2-014K21,1,173,AS,exp,29,↑,up,↑,0.7604428000049666,True,16,1,1,15
Y2-S2-014K21,1,174,AS,exp,35,↓,up,↑,0.8629019999643788,False,15,-1,1,16
Y2-S2-014K21,2,175,PS,intra_train,31,→,right,→,0.6264686000067741,True,18,-,-,-
Y2-S2-014K21,2,176,PS,intra_train,37,↓,down,↓,0.5768714000005275,True,18,-,-,-
Y2-S2-014K21,2,177,PS,intra_train,27,→,left,←,0.7791639999486506,False,18,-,-,-
Y2-S2-014K21,2,178,PS,intra_train,42,↓,down,↓,0.7234885999932885,True,18,-,-,-
Y2-S2-014K21,2,179,PS,intra_train,33,→,right,→,0.5564111999701709,True,18,-,-,-
Y2-S2-014K21,2,180,PS,exp,50,↑,up,↑,0.8050639000721276,True,12,0,0,0
Y2-S2-014K21,2,181,PS,exp,30,↓,no_key,no_letter,-1.0,False,12,-1,0,0
Y2-S2-014K21,2,182,PS,exp,46,↑,up,↑,0.743667499977164,True,13,-1,0,0
Y2-S2-014K21,2,183,PS,exp,48,→,right,→,0.6328713999828324,True,13,-1,0,0
Y2-S2-014K21,2,184,PS,exp,39,←,left,←,0.5220630000112578,True,13,1,1,1
Y2-S2-014K21,2,185,PS,exp,25,→,right,→,0.560263599967584,True,12,1,0,1
Y2-S2-014K21,2,186,PS,exp,38,↓,down,↓,0.6180587999988347,True,12,1,0,1
Y2-S2-014K21,2,187,PS,exp,38,↑,up,↑,0.8500793999992311,True,12,1,0,1
Y2-S2-014K21,2,188,PS,exp,34,→,left,←,0.661233099992387,False,11,-1,1,2
Y2-S2-014K21,2,189,PS,exp,33,↑,right,→,0.7210981000680476,False,12,-1,0,2
Y2-S2-014K21,2,190,PS,exp,50,↓,left,←,0.814867899985984,False,13,-1,0,2
Y2-S2-014K21,2,191,PS,exp,49,←,right,→,0.5924430000595748,False,14,-1,0,2
Y2-S2-014K21,2,192,PS,exp,38,↑,up,↑,0.7381100000347942,True,15,-1,0,2
Y2-S2-014K21,2,193,PS,exp,47,←,up,↑,0.8316821000771597,False,15,-1,0,2
Y2-S2-014K21,2,194,PS,exp,41,→,right,→,0.51128430000972,True,16,-1,0,2
Y2-S2-014K21,2,195,PS,exp,31,↓,up,↑,0.7591422999976203,False,16,-1,0,2
Y2-S2-014K21,2,196,PS,exp,37,←,left,←,0.6279378000181168,True,17,-1,0,2
Y2-S2-014K21,2,197,PS,exp,34,↓,down,↓,0.90270530001726,True,17,-1,0,2
Y2-S2-014K21,2,198,PS,exp,39,→,right,→,0.9240479000145569,True,17,1,1,3
Y2-S2-014K21,2,199,PS,exp,43,↓,down,↓,0.7762122000567615,True,16,1,0,3
Y2-S2-014K21,2,200,PS,exp,29,↑,up,↑,0.7837162000359967,True,16,1,0,3
Y2-S2-014K21,2,201,PS,exp,36,→,right,→,0.7392195999855176,True,16,1,0,3
Y2-S2-014K21,2,202,PS,exp,36,↓,down,↓,0.7497063999762759,True,15,1,0,3
Y2-S2-014K21,2,203,PS,exp,41,←,left,←,0.5763912999536842,True,15,1,0,3
Y2-S2-014K21,2,204,PS,exp,26,↓,down,↓,0.7865497999591753,True,15,1,0,3
Y2-S2-014K21,2,205,PS,exp,39,↑,up,↑,0.9466015000361949,True,14,1,0,3
Y2-S2-014K21,2,206,PS,exp,38,→,right,→,0.6657677999464795,True,14,1,0,3
Y2-S2-014K21,2,207,PS,exp,38,↑,up,↑,0.7562895999290049,True,14,1,0,3
Y2-S2-014K21,2,208,PS,exp,28,←,left,←,0.6804356999928132,True,13,1,0,3
Y2-S2-014K21,2,209,PS,exp,26,↑,up,↑,0.836246500024572,True,13,1,0,3
Y2-S2-014K21,2,210,PS,exp,42,↓,down,↓,0.8523227999685332,True,13,1,0,3
Y2-S2-014K21,2,211,PS,exp,28,←,left,←,0.7550166000146419,True,12,1,0,3
Y2-S2-014K21,2,212,PS,exp,45,↓,left,←,0.8812333000823855,False,12,-1,1,4
Y2-S2-014K21,2,213,PS,exp,29,→,right,→,0.5665359999984503,True,13,-1,0,4
Y2-S2-014K21,2,214,PS,exp,29,↑,up,↑,1.2149011000292376,True,13,-1,0,4
Y2-S2-014K21,2,215,PS,exp,42,↓,down,↓,0.8256092999363318,True,13,1,1,5
Y2-S2-014K21,2,216,PS,exp,50,→,right,→,0.7705442999722436,True,12,1,0,5
Y2-S2-014K21,2,217,PS,exp,44,↑,up,↑,0.7883985999505967,True,12,1,0,5
Y2-S2-014K21,2,218,PS,exp,27,→,right,→,0.64064849994611,True,12,1,0,5
Y2-S2-014K21,2,219,PS,exp,39,↑,up,↑,0.8961448000045493,True,11,1,0,5
Y2-S2-014K21,2,220,PS,exp,32,→,right,→,0.6049259999999776,True,11,1,0,5
Y2-S2-014K21,2,221,PS,exp,40,↑,left,←,0.7522514000302181,False,11,-1,1,6
Y2-S2-014K21,2,222,PS,exp,50,←,left,←,0.5529207999352366,True,12,-1,0,6
Y2-S2-014K21,2,223,PS,exp,46,→,right,→,0.4786143999081105,True,12,-1,0,6
Y2-S2-014K21,2,224,PS,exp,44,←,left,←,0.4579714999999851,True,12,1,1,7
Y2-S2-014K21,2,225,PS,exp,46,↑,up,↑,0.815534699941054,True,11,1,0,7
Y2-S2-014K21,2,226,PS,exp,26,→,up,↑,0.8742452999576926,False,11,-1,1,8
Y2-S2-014K21,2,227,PS,exp,29,↓,down,↓,0.6859221999766305,True,12,-1,0,8
Y2-S2-014K21,2,228,PS,exp,34,↑,right,→,0.6656802999787033,False,12,-1,0,8
Y2-S2-014K21,2,229,PS,exp,45,↓,down,↓,0.6748936999356374,True,13,-1,0,8
Y2-S2-014K21,2,230,PS,exp,49,↑,up,↑,0.9376991000026464,True,13,-1,0,8
Y2-S2-014K21,2,231,PS,exp,46,→,right,→,0.5715214000083506,True,13,1,1,9
Y2-S2-014K21,2,232,PS,exp,32,↑,up,↑,1.134131500031799,True,12,1,0,9
Y2-S2-014K21,2,233,PS,exp,44,←,left,←,0.7301374999806285,True,12,1,0,9
Y2-S2-014K21,2,234,PS,exp,35,→,right,→,0.5387887000106275,True,12,1,0,9
Y2-S2-014K21,2,235,PS,exp,35,↓,down,↓,0.593626799993217,True,11,1,0,9
Y2-S2-014K21,2,236,PS,exp,25,←,left,←,0.9051619999809191,True,11,1,0,9
Y2-S2-014K21,2,237,PS,exp,25,↑,up,↑,0.8086581999668851,True,11,1,0,9
Y2-S2-014K21,2,238,PS,exp,30,←,right,→,0.5947446000063792,False,10,-1,1,10
Y2-S2-014K21,2,239,PS,exp,27,→,right,→,0.6164767999434844,True,11,-1,0,10
Y2-S2-014K21,2,240,PS,exp,34,↑,up,↑,0.9321162000996992,True,11,-1,0,10
Y2-S2-014K21,2,241,PS,exp,44,←,left,←,0.6265533999539912,True,11,1,1,11
Y2-S2-014K21,2,242,PS,exp,36,↓,down,↓,0.7441407999722287,True,10,1,0,11
Y2-S2-014K21,2,243,PS,exp,48,←,right,→,0.5515709000173956,False,10,-1,1,12
Y2-S2-014K21,2,244,PS,exp,26,→,right,→,0.6114253000123426,True,11,-1,0,12
Y2-S2-014K21,2,245,PS,exp,43,↓,down,↓,0.7186479999218136,True,11,-1,0,12
Y2-S2-014K21,2,246,PS,exp,44,↑,up,↑,0.7793828999856487,True,11,1,1,13
Y2-S2-014K21,2,247,PS,exp,32,→,right,→,0.5717376000247896,True,10,1,0,13
Y2-S2-014K21,2,248,PS,exp,34,↑,left,←,0.8146343999542296,False,10,-1,1,14
Y2-S2-014K21,2,249,PS,exp,32,←,left,←,0.6776331999571994,True,11,-1,0,14
Y2-S2-014K21,2,250,PS,exp,26,→,right,→,0.6484421000350267,True,11,-1,0,14
Y2-S2-014K21,2,251,PS,exp,44,←,left,←,0.5785767999477684,True,11,1,1,15
Y2-S2-014K21,2,252,PS,exp,49,→,right,→,0.6312444000504911,True,10,1,0,15
Y2-S2-014K21,2,253,PS,exp,29,↓,down,↓,0.742642099969089,True,10,1,0,15
Y2-S2-014K21,2,254,PS,exp,30,↑,down,↓,0.8498182999901474,False,10,-1,1,16
Y2-S2-014K21,3,255,PS,intra_train,25,→,right,→,0.6967877999413759,True,18,-,-,-
Y2-S2-014K21,3,256,PS,intra_train,44,↓,down,↓,0.6994685999816284,True,18,-,-,-
Y2-S2-014K21,3,257,PS,intra_train,28,←,right,→,0.5162166999652982,False,18,-,-,-
Y2-S2-014K21,3,258,PS,intra_train,25,↓,down,↓,0.6684974000090733,True,18,-,-,-
Y2-S2-014K21,3,259,PS,intra_train,35,←,left,←,0.7634165999479592,True,18,-,-,-
Y2-S2-014K21,3,260,PS,exp,47,↑,up,↑,0.8919149999273941,True,12,0,0,0
Y2-S2-014K21,3,261,PS,exp,39,↓,down,↓,0.6485787000274286,True,12,0,0,0
Y2-S2-014K21,3,262,PS,exp,49,←,left,←,0.5153684000251815,True,12,1,0,0
Y2-S2-014K21,3,263,PS,exp,39,↓,down,↓,0.7175770999165252,True,11,1,0,0
Y2-S2-014K21,3,264,PS,exp,43,↑,up,↑,0.7668364000273868,True,11,1,0,0
Y2-S2-014K21,3,265,PS,exp,28,←,right,→,0.6779314000159502,False,11,-1,1,1
Y2-S2-014K21,3,266,PS,exp,49,↓,down,↓,0.5934426999883726,True,12,-1,0,1
Y2-S2-014K21,3,267,PS,exp,40,←,up,↑,0.6944715999998152,False,12,-1,0,1
Y2-S2-014K21,3,268,PS,exp,29,↑,up,↑,0.48151250008959323,True,13,-1,0,1
Y2-S2-014K21,3,269,PS,exp,34,→,up,↑,0.4582360000349581,False,13,-1,0,1
Y2-S2-014K21,3,270,PS,exp,32,↑,up,↑,0.6223663999699056,True,14,-1,0,1
Y2-S2-014K21,3,271,PS,exp,35,↓,down,↓,0.8476807000115514,True,14,-1,0,1
Y2-S2-014K21,3,272,PS,exp,48,←,left,←,0.7118069999851286,True,14,1,1,2
Y2-S2-014K21,3,273,PS,exp,35,↑,up,↑,0.686559300054796,True,13,1,0,2
Y2-S2-014K21,3,274,PS,exp,44,→,right,→,0.4990763000678271,True,13,1,0,2
Y2-S2-014K21,3,275,PS,exp,27,↑,up,↑,0.6461278999922797,True,13,1,0,2
Y2-S2-014K21,3,276,PS,exp,49,←,right,→,0.7430695000803098,False,12,-1,1,3
Y2-S2-014K21,3,277,PS,exp,45,↑,up,↑,0.708757400047034,True,13,-1,0,3
Y2-S2-014K21,3,278,PS,exp,31,↓,down,↓,0.6627466999925673,True,13,-1,0,3
Y2-S2-014K21,3,279,PS,exp,37,↑,up,↑,0.8116589999990538,True,13,1,1,4
Y2-S2-014K21,3,280,PS,exp,47,←,left,←,0.4992265000473708,True,12,1,0,4
Y2-S2-014K21,3,281,PS,exp,50,↓,down,↓,0.520774699980393,True,12,1,0,4
Y2-S2-014K21,3,282,PS,exp,37,→,down,↓,0.6848615000490099,False,12,-1,1,5
Y2-S2-014K21,3,283,PS,exp,37,↑,up,↑,0.5442043000366539,True,13,-1,0,5
Y2-S2-014K21,3,284,PS,exp,44,→,right,→,0.6072836000239477,True,13,-1,0,5
Y2-S2-014K21,3,285,PS,exp,43,←,left,←,0.6558096000226215,True,13,1,1,6
Y2-S2-014K21,3,286,PS,exp,48,↑,up,↑,0.5751187999267131,True,12,1,0,6
Y2-S2-014K21,3,287,PS,exp,47,↓,down,↓,0.517857400001958,True,12,1,0,6
Y2-S2-014K21,3,288,PS,exp,40,←,left,←,0.4668788000708446,True,12,1,0,6
Y2-S2-014K21,3,289,PS,exp,25,↑,up,↑,0.46022830007132143,True,11,1,0,6
Y2-S2-014K21,3,290,PS,exp,47,←,left,←,0.5444112999830395,True,11,1,0,6
Y2-S2-014K21,3,291,PS,exp,44,↓,down,↓,0.6146074999123812,True,11,1,0,6
Y2-S2-014K21,3,292,PS,exp,46,↑,up,↑,0.45471489999908954,True,10,1,0,6
Y2-S2-014K21,3,293,PS,exp,26,↓,right,→,0.8706290000118315,False,10,-1,1,7
Y2-S2-014K21,3,294,PS,exp,42,→,down,↓,0.6352923000231385,False,11,-1,0,7
Y2-S2-014K21,3,295,PS,exp,41,↓,up,↑,0.8570763999596238,False,12,-1,0,7
Y2-S2-014K21,3,296,PS,exp,38,↑,up,↑,0.6586335999891162,True,13,-1,0,7
Y2-S2-014K21,3,297,PS,exp,46,↓,down,↓,0.6614891999633983,True,13,-1,0,7
Y2-S2-014K21,3,298,PS,exp,33,→,right,→,0.7920368000632152,True,13,1,1,8
Y2-S2-014K21,3,299,PS,exp,25,←,left,←,0.6919840999180451,True,12,1,0,8
Y2-S2-014K21,3,300,PS,exp,50,↑,left,←,0.7720162000041455,False,12,-1,1,9
Y2-S2-014K21,3,301,PS,exp,30,←,left,←,0.5491655999794602,True,13,-1,0,9
Y2-S2-014K21,3,302,PS,exp,50,↓,down,↓,0.6876229000044987,True,13,-1,0,9
Y2-S2-014K21,3,303,PS,exp,31,←,right,→,0.6294977000216022,False,13,-1,0,9
Y2-S2-014K21,3,304,PS,exp,39,↓,down,↓,0.6301979999989271,True,14,-1,0,9
Y2-S2-014K21,3,305,PS,exp,47,↑,up,↑,0.5263516999548301,True,14,-1,0,9
Y2-S2-014K21,3,306,PS,exp,36,↓,down,↓,0.6489034999394789,True,14,1,1,10
Y2-S2-014K21,3,307,PS,exp,31,↑,up,↑,0.7090618999209255,True,13,1,0,10
Y2-S2-014K21,3,308,PS,exp,47,→,right,→,0.5905907000415027,True,13,1,0,10
Y2-S2-014K21,3,309,PS,exp,35,↓,left,←,0.707326199975796,False,13,-1,1,11
Y2-S2-014K21,3,310,PS,exp,45,↑,up,↑,0.7152424000669271,True,14,-1,0,11
Y2-S2-014K21,3,311,PS,exp,49,→,right,→,0.5368590999860317,True,14,-1,0,11
Y2-S2-014K21,3,312,PS,exp,44,←,right,→,0.6247674999758601,False,14,-1,0,11
Y2-S2-014K21,3,313,PS,exp,41,↑,up,↑,0.6204719999805093,True,15,-1,0,11
Y2-S2-014K21,3,314,PS,exp,28,↓,down,↓,0.6975678000599146,True,15,-1,0,11
Y2-S2-014K21,3,315,PS,exp,25,↑,up,↑,0.6900190999731421,True,15,1,1,12
Y2-S2-014K21,3,316,PS,exp,25,→,right,→,0.5334988000104204,True,14,1,0,12
Y2-S2-014K21,3,317,PS,exp,42,←,left,←,0.645930300001055,True,14,1,0,12
Y2-S2-014K21,3,318,PS,exp,41,↑,up,↑,0.6349572000326589,True,14,1,0,12
Y2-S2-014K21,3,319,PS,exp,41,→,right,→,0.5621121000731364,True,13,1,0,12
Y2-S2-014K21,3,320,PS,exp,46,←,left,←,0.5377338000107557,True,13,1,0,12
Y2-S2-014K21,3,321,PS,exp,48,→,right,→,0.462457999936305,True,13,1,0,12
Y2-S2-014K21,3,322,PS,exp,30,↑,up,↑,0.4716340999584645,True,12,1,0,12
Y2-S2-014K21,3,323,PS,exp,41,↓,left,←,0.8027204000391066,False,12,-1,1,13
Y2-S2-014K21,3,324,PS,exp,29,←,right,→,0.5414031000109389,False,13,-1,0,13
Y2-S2-014K21,3,325,PS,exp,25,↑,up,↑,0.6793434000574052,True,14,-1,0,13
Y2-S2-014K21,3,326,PS,exp,48,↓,up,↑,0.7303665999788791,False,14,-1,0,13
Y2-S2-014K21,3,327,PS,exp,40,↑,up,↑,0.6832203000085428,True,15,-1,0,13
Y2-S2-014K21,3,328,PS,exp,45,↓,down,↓,0.5927975999657065,True,15,-1,0,13
Y2-S2-014K21,3,329,PS,exp,49,↑,up,↑,0.5497991000302136,True,15,1,1,14
Y2-S2-014K21,3,330,PS,exp,41,←,right,→,0.7147396999644116,False,14,-1,1,15
Y2-S2-014K21,3,331,PS,exp,50,→,right,→,0.5699573999736458,True,15,-1,0,15
Y2-S2-014K21,3,332,PS,exp,31,↓,down,↓,0.6218778999755159,True,15,-1,0,15
Y2-S2-014K21,3,333,PS,exp,49,↑,up,↑,0.736017799936235,True,15,1,1,16
Y2-S2-014K21,4,334,AS,intra_train,31,→,right,→,0.6352403999771923,True,27,-,-,-
Y2-S2-014K21,4,335,AS,intra_train,35,←,left,←,0.5339418000075966,True,27,-,-,-
Y2-S2-014K21,4,336,AS,intra_train,28,→,right,→,0.6238599000498652,True,27,-,-,-
Y2-S2-014K21,4,337,AS,intra_train,31,↓,down,↓,0.5675743999890983,True,27,-,-,-
Y2-S2-014K21,4,338,AS,intra_train,47,→,right,→,0.6919807000085711,True,27,-,-,-
Y2-S2-014K21,4,339,AS,exp,49,↑,up,↑,0.7048055999912322,True,18,0,0,0
Y2-S2-014K21,4,340,AS,exp,25,↓,up,↑,0.9443431000690907,False,18,-1,0,0
Y2-S2-014K21,4,341,AS,exp,46,←,left,←,0.635778299998492,True,19,-1,0,0
Y2-S2-014K21,4,342,AS,exp,32,↑,up,↑,0.700719500076957,True,19,-1,0,0
Y2-S2-014K21,4,343,AS,exp,45,←,left,←,0.6488801999948919,True,19,1,1,1
Y2-S2-014K21,4,344,AS,exp,49,↑,up,↑,0.6401505999965593,True,18,1,0,1
Y2-S2-014K21,4,345,AS,exp,48,→,right,→,0.8757957000052556,True,18,1,0,1
Y2-S2-014K21,4,346,AS,exp,41,↑,up,↑,0.773786999983713,True,18,1,0,1
Y2-S2-014K21,4,347,AS,exp,48,↓,down,↓,0.648384099942632,True,17,1,0,1
Y2-S2-014K21,4,348,AS,exp,42,→,right,→,0.5795899999793619,True,17,1,0,1
Y2-S2-014K21,4,349,AS,exp,47,←,right,→,0.8490702999988571,False,17,-1,1,2
Y2-S2-014K21,4,350,AS,exp,43,→,right,→,0.7718015999998897,True,18,-1,0,2
Y2-S2-014K21,4,351,AS,exp,25,↑,up,↑,0.6213799000252038,True,18,-1,0,2
Y2-S2-014K21,4,352,AS,exp,48,←,left,←,0.6768284999998286,True,18,1,1,3
Y2-S2-014K21,4,353,AS,exp,25,→,left,←,0.7160537000745535,False,17,-1,1,4
Y2-S2-014K21,4,354,AS,exp,35,←,left,←,0.8192035000538453,True,18,-1,0,4
Y2-S2-014K21,4,355,AS,exp,34,↑,up,↑,0.7404464000137523,True,18,-1,0,4
Y2-S2-014K21,4,356,AS,exp,35,→,right,→,0.6084003000287339,True,18,1,1,5
Y2-S2-014K21,4,357,AS,exp,35,←,left,←,0.7094339999603108,True,17,1,0,5
Y2-S2-014K21,4,358,AS,exp,44,↑,up,↑,0.7355584999313578,True,17,1,0,5
Y2-S2-014K21,4,359,AS,exp,31,↓,down,↓,0.9466562999878079,True,17,1,0,5
Y2-S2-014K21,4,360,AS,exp,34,→,right,→,0.5239171999273822,True,16,1,0,5
Y2-S2-014K21,4,361,AS,exp,41,↑,up,↑,0.8168356000678614,True,16,1,0,5
Y2-S2-014K21,4,362,AS,exp,25,↓,down,↓,0.5263320999220014,True,16,1,0,5
Y2-S2-014K21,4,363,AS,exp,37,→,right,→,0.7078182999975979,True,15,1,0,5
Y2-S2-014K21,4,364,AS,exp,45,↓,down,↓,0.5366166000021622,True,15,1,0,5
Y2-S2-014K21,4,365,AS,exp,47,↑,up,↑,0.7107597000431269,True,15,1,0,5
Y2-S2-014K21,4,366,AS,exp,45,←,left,←,0.6065718000754714,True,14,1,0,5
Y2-S2-014K21,4,367,AS,exp,50,↑,up,↑,0.6815474999602884,True,14,1,0,5
Y2-S2-014K21,4,368,AS,exp,45,←,right,→,0.8226857000263408,False,14,-1,1,6
Y2-S2-014K21,4,369,AS,exp,50,↓,down,↓,0.6749444999732077,True,15,-1,0,6
Y2-S2-014K21,4,370,AS,exp,25,→,right,→,0.8645362000679597,True,15,-1,0,6
Y2-S2-014K21,4,371,AS,exp,48,↓,right,→,0.5682529000332579,False,15,-1,0,6
Y2-S2-014K21,4,372,AS,exp,36,↑,up,↑,0.7566946999868378,True,16,-1,0,6
Y2-S2-014K21,4,373,AS,exp,49,↓,down,↓,0.6451571000507101,True,16,-1,0,6
Y2-S2-014K21,4,374,AS,exp,34,→,right,→,0.7364414000185207,True,16,1,1,7
Y2-S2-014K21,4,375,AS,exp,31,↓,down,↓,0.6486435999395326,True,15,1,0,7
Y2-S2-014K21,4,376,AS,exp,47,→,right,→,0.5783466999419034,True,15,1,0,7
Y2-S2-014K21,4,377,AS,exp,49,←,left,←,0.6290077000157908,True,15,1,0,7
Y2-S2-014K21,4,378,AS,exp,25,→,right,→,0.5511840999824926,True,14,1,0,7
Y2-S2-014K21,4,379,AS,exp,30,↓,left,←,0.8411231000209227,False,14,-1,1,8
Y2-S2-014K21,4,380,AS,exp,40,←,left,←,0.5799961000448093,True,15,-1,0,8
Y2-S2-014K21,4,381,AS,exp,48,↓,down,↓,0.6560026999795809,True,15,-1,0,8
Y2-S2-014K21,4,382,AS,exp,48,↑,up,↑,0.7260204999474809,True,15,1,1,9
Y2-S2-014K21,4,383,AS,exp,28,→,right,→,0.5180450000334531,True,14,1,0,9
Y2-S2-014K21,4,384,AS,exp,37,↓,down,↓,0.6492844000458717,True,14,1,0,9
Y2-S2-014K21,4,385,AS,exp,25,←,left,←,0.571991499979049,True,14,1,0,9
Y2-S2-014K21,4,386,AS,exp,46,↓,up,↑,0.8300355999963358,False,13,-1,1,10
Y2-S2-014K21,4,387,AS,exp,47,→,right,→,0.5978699000552297,True,14,-1,0,10
Y2-S2-014K21,4,388,AS,exp,45,←,left,←,0.6329614999704063,True,14,-1,0,10
Y2-S2-014K21,4,389,AS,exp,49,↑,up,↑,0.7976275000255555,True,14,1,1,11
Y2-S2-014K21,4,390,AS,exp,47,↓,down,↓,0.5639632999664173,True,13,1,0,11
Y2-S2-014K21,4,391,AS,exp,41,↑,up,↑,0.6967282000696287,True,13,1,0,11
Y2-S2-014K21,4,392,AS,exp,38,↓,up,↑,0.6623881000559777,False,13,-1,1,12
Y2-S2-014K21,4,393,AS,exp,30,↑,up,↑,0.47171839990187436,True,14,-1,0,12
Y2-S2-014K21,4,394,AS,exp,47,→,left,←,0.7668185000075027,False,14,-1,0,12
Y2-S2-014K21,4,395,AS,exp,28,↓,up,↑,0.8159670999739319,False,15,-1,0,12
Y2-S2-014K21,4,396,AS,exp,26,↑,up,↑,0.6765463999472558,True,16,-1,0,12
Y2-S2-014K21,4,397,AS,exp,44,←,right,→,0.6227499999804422,False,16,-1,0,12
Y2-S2-014K21,4,398,AS,exp,30,↓,down,↓,0.7122146999463439,True,17,-1,0,12
Y2-S2-014K21,4,399,AS,exp,28,→,right,→,0.6509530999464914,True,17,-1,0,12
Y2-S2-014K21,4,400,AS,exp,32,↑,up,↑,0.6841830000048503,True,17,1,1,13
Y2-S2-014K21,4,401,AS,exp,36,→,left,←,0.6509683999465778,False,16,-1,1,14
Y2-S2-014K21,4,402,AS,exp,26,←,left,←,0.620413800003007,True,17,-1,0,14
Y2-S2-014K21,4,403,AS,exp,30,→,right,→,0.5770652999635786,True,17,-1,0,14
Y2-S2-014K21,4,404,AS,exp,25,↑,up,↑,0.8090245999628678,True,17,1,1,15
Y2-S2-014K21,4,405,AS,exp,25,→,left,←,1.0046443999744952,False,16,-1,1,16
Y2-S2-014K21,5,406,AS,intra_train,47,↑,up,↑,0.6743885000469163,True,27,-,-,-
Y2-S2-014K21,5,407,AS,intra_train,49,↓,down,↓,0.6521623999578878,True,27,-,-,-
Y2-S2-014K21,5,408,AS,intra_train,28,↑,up,↑,0.764371500001289,True,27,-,-,-
Y2-S2-014K21,5,409,AS,intra_train,33,→,right,→,0.7436211999738589,True,27,-,-,-
Y2-S2-014K21,5,410,AS,intra_train,38,↑,up,↑,0.928708599996753,True,27,-,-,-
Y2-S2-014K21,5,411,AS,exp,28,←,left,←,0.5386169999837875,True,18,0,0,0
Y2-S2-014K21,5,412,AS,exp,29,↓,down,↓,0.6058728999923915,True,18,0,0,0
Y2-S2-014K21,5,413,AS,exp,36,→,right,→,0.836136500001885,True,18,1,0,0
Y2-S2-014K21,5,414,AS,exp,30,↑,up,↑,0.718638899968937,True,17,1,0,0
Y2-S2-014K21,5,415,AS,exp,28,←,left,←,0.5560680999187753,True,17,1,0,0
Y2-S2-014K21,5,416,AS,exp,41,→,right,→,0.6075436000246555,True,17,1,0,0
Y2-S2-014K21,5,417,AS,exp,32,↑,up,↑,0.6173422000138089,True,16,1,0,0
Y2-S2-014K21,5,418,AS,exp,33,↓,down,↓,0.5189113999949768,True,16,1,0,0
Y2-S2-014K21,5,419,AS,exp,50,←,left,←,0.7001870000967756,True,16,1,0,0
Y2-S2-014K21,5,420,AS,exp,46,↑,up,↑,0.6493143000407144,True,15,1,0,0
Y2-S2-014K21,5,421,AS,exp,43,→,left,←,0.6456325000617653,False,15,-1,1,1
Y2-S2-014K21,5,422,AS,exp,48,↓,right,→,0.7794277999782935,False,16,-1,0,1
Y2-S2-014K21,5,423,AS,exp,36,→,right,→,0.5489932999480516,True,17,-1,0,1
Y2-S2-014K21,5,424,AS,exp,32,←,left,←,0.6025949999457225,True,17,-1,0,1
Y2-S2-014K21,5,425,AS,exp,29,↓,down,↓,0.8021615999750793,True,17,1,1,2
Y2-S2-014K21,5,426,AS,exp,33,←,left,←,0.647425299976021,True,16,1,0,2
Y2-S2-014K21,5,427,AS,exp,49,↑,up,↑,0.48893110000062734,True,16,1,0,2
Y2-S2-014K21,5,428,AS,exp,31,↓,down,↓,0.859667000011541,True,16,1,0,2
Y2-S2-014K21,5,429,AS,exp,44,←,left,←,0.5599722999613732,True,15,1,0,2
Y2-S2-014K21,5,430,AS,exp,26,↑,up,↑,0.6923625000054017,True,15,1,0,2
Y2-S2-014K21,5,431,AS,exp,48,←,left,←,0.5810278999852017,True,15,1,0,2
Y2-S2-014K21,5,432,AS,exp,43,↓,up,↑,0.8074548000004143,False,14,-1,1,3
Y2-S2-014K21,5,433,AS,exp,33,←,left,←,0.6080488000297919,True,15,-1,0,3
Y2-S2-014K21,5,434,AS,exp,25,↑,up,↑,0.6545403000200167,True,15,-1,0,3
Y2-S2-014K21,5,435,AS,exp,42,→,right,→,0.5304236999945715,True,15,1,1,4
Y2-S2-014K21,5,436,AS,exp,27,↑,up,↑,0.7777244000462815,True,14,1,0,4
Y2-S2-014K21,5,437,AS,exp,45,→,right,→,0.6647009000880644,True,14,1,0,4
Y2-S2-014K21,5,438,AS,exp,27,↑,up,↑,0.7466859000269324,True,14,1,0,4
Y2-S2-014K21,5,439,AS,exp,36,←,left,←,0.5712571999756619,True,13,1,0,4
Y2-S2-014K21,5,440,AS,exp,50,↓,down,↓,0.7006350998999551,True,13,1,0,4
Y2-S2-014K21,5,441,AS,exp,43,→,left,←,0.6147083999821916,False,13,-1,1,5
Y2-S2-014K21,5,442,AS,exp,29,↑,right,→,1.0501616999972612,False,14,-1,0,5
Y2-S2-014K21,5,443,AS,exp,38,↓,down,↓,0.5789398999186233,True,15,-1,0,5
Y2-S2-014K21,5,444,AS,exp,50,→,right,→,0.5009195999009535,True,15,-1,0,5
Y2-S2-014K21,5,445,AS,exp,37,←,left,←,0.5565076000057161,True,15,1,1,6
Y2-S2-014K21,5,446,AS,exp,46,↓,down,↓,0.825163200031966,True,14,1,0,6
Y2-S2-014K21,5,447,AS,exp,47,→,right,→,0.6436353999888524,True,14,1,0,6
Y2-S2-014K21,5,448,AS,exp,44,↑,up,↑,0.654499200056307,True,14,1,0,6
Y2-S2-014K21,5,449,AS,exp,48,→,up,↑,0.7496465001022443,False,13,-1,1,7
Y2-S2-014K21,5,450,AS,exp,48,↑,up,↑,0.6625909999711439,True,14,-1,0,7
Y2-S2-014K21,5,451,AS,exp,31,←,left,←,0.9032422000309452,True,14,-1,0,7
Y2-S2-014K21,5,452,AS,exp,40,→,up,↑,0.8208779999986291,False,14,-1,0,7
Y2-S2-014K21,5,453,AS,exp,33,←,left,←,0.476271599996835,True,15,-1,0,7
Y2-S2-014K21,5,454,AS,exp,34,↑,up,↑,0.7179891000268981,True,15,-1,0,7
Y2-S2-014K21,5,455,AS,exp,27,→,right,→,0.5196465000044554,True,15,1,1,8
Y2-S2-014K21,5,456,AS,exp,25,↓,down,↓,0.48978139995597303,True,14,1,0,8
Y2-S2-014K21,5,457,AS,exp,41,→,right,→,0.5867658000206575,True,14,1,0,8
Y2-S2-014K21,5,458,AS,exp,30,↓,down,↓,0.6299685999983922,True,14,1,0,8
Y2-S2-014K21,5,459,AS,exp,31,←,left,←,0.4410390999400988,True,13,1,0,8
Y2-S2-014K21,5,460,AS,exp,28,↓,up,↑,0.8799805999733508,False,13,-1,1,9
Y2-S2-014K21,5,461,AS,exp,30,↑,up,↑,0.6890033000381663,True,14,-1,0,9
Y2-S2-014K21,5,462,AS,exp,26,↓,down,↓,0.4536055999342352,True,14,-1,0,9
Y2-S2-014K21,5,463,AS,exp,46,→,right,→,0.533748299931176,True,14,1,1,10
Y2-S2-014K21,5,464,AS,exp,33,↑,left,←,0.41873060003854334,False,13,-1,1,11
Y2-S2-014K21,5,465,AS,exp,46,↓,down,↓,0.5151521000079811,True,14,-1,0,11
Y2-S2-014K21,5,466,AS,exp,41,↑,up,↑,0.5418112999759614,True,14,-1,0,11
Y2-S2-014K21,5,467,AS,exp,32,↓,down,↓,0.5585764999268577,True,14,1,1,12
Y2-S2-014K21,5,468,AS,exp,29,←,left,←,0.5763907000655308,True,13,1,0,12
Y2-S2-014K21,5,469,AS,exp,47,↑,down,↓,0.4414228000678122,False,13,-1,1,13
Y2-S2-014K21,5,470,AS,exp,46,↓,left,←,0.6097619000356644,False,14,-1,0,13
Y2-S2-014K21,5,471,AS,exp,50,→,right,→,0.4721610000124201,True,15,-1,0,13
Y2-S2-014K21,5,472,AS,exp,39,←,right,→,0.501077700057067,False,15,-1,0,13
Y2-S2-014K21,5,473,AS,exp,40,→,left,←,0.5339500000700355,False,16,-1,0,13
Y2-S2-014K21,5,474,AS,exp,27,←,right,→,0.5335680999560282,False,17,-1,0,13
Y2-S2-014K21,5,475,AS,exp,44,↓,down,↓,0.6166869000298902,True,18,-1,0,13
Y2-S2-014K21,5,476,AS,exp,39,→,right,→,0.6035933000966907,True,18,-1,0,13
Y2-S2-014K21,5,477,AS,exp,33,←,left,←,0.598519500112161,True,18,1,1,14
Y2-S2-014K21,5,478,AS,exp,33,↑,down,↓,0.7023687000619248,False,17,-1,1,15
Y2-S2-014K21,5,479,AS,exp,35,↓,up,↑,0.7385482999961823,False,18,-1,0,15
Y2-S2-014K21,5,480,AS,exp,26,←,down,↓,0.6363826000597328,False,19,-1,0,15
Y2-S2-014K21,5,481,AS,exp,41,↑,no_key,no_letter,-1.0,False,20,-1,0,15
Y2-S2-014K21,5,482,AS,exp,29,↓,down,↓,1.1397560999030247,True,21,-1,0,15
Y2-S2-014K21,5,483,AS,exp,28,↑,up,↑,0.7329398998990655,True,21,-1,0,15
Y2-S2-014K21,5,484,AS,exp,31,→,right,→,0.5920142999384552,True,21,1,1,16
Y2-S2-014K21,6,485,PS,intra_train,42,↓,up,↑,0.8615974999265745,False,18,-,-,-
Y2-S2-014K21,6,486,PS,intra_train,25,↑,up,↑,0.6148270999547094,True,18,-,-,-
Y2-S2-014K21,6,487,PS,intra_train,40,→,right,→,0.5842138000298291,True,18,-,-,-
Y2-S2-014K21,6,488,PS,intra_train,49,↓,down,↓,0.6036829999648035,True,18,-,-,-
Y2-S2-014K21,6,489,PS,intra_train,30,→,right,→,0.4716547999996692,True,18,-,-,-
Y2-S2-014K21,6,490,PS,exp,31,↓,left,←,0.6569700000109151,False,12,-1,0,0
Y2-S2-014K21,6,491,PS,exp,48,←,right,→,0.642852499964647,False,13,-1,0,0
Y2-S2-014K21,6,492,PS,exp,47,↑,up,↑,1.0765800999943167,True,14,-1,0,0
Y2-S2-014K21,6,493,PS,exp,40,←,left,←,0.5573328000027686,True,14,-1,0,0
Y2-S2-014K21,6,494,PS,exp,43,↑,down,↓,1.1121034999378026,False,14,-1,0,0
Y2-S2-014K21,6,495,PS,exp,41,→,right,→,0.5029459999641404,True,15,-1,0,0
Y2-S2-014K21,6,496,PS,exp,25,←,right,→,0.7457973000127822,False,15,-1,0,0
Y2-S2-014K21,6,497,PS,exp,39,↓,down,↓,0.9074382999679074,True,16,-1,0,0
Y2-S2-014K21,6,498,PS,exp,36,↑,down,↓,1.4766144000459462,False,16,-1,0,0
Y2-S2-014K21,6,499,PS,exp,45,←,down,↓,0.6883250999962911,False,17,-1,0,0
Y2-S2-014K21,6,500,PS,exp,33,→,right,→,0.5438452999806032,True,18,-1,0,0
Y2-S2-014K21,6,501,PS,exp,33,↓,down,↓,0.43392879993189126,True,18,-1,0,0
Y2-S2-014K21,6,502,PS,exp,32,←,left,←,0.6889739000471309,True,18,1,1,1
Y2-S2-014K21,6,503,PS,exp,42,→,right,→,0.965569099993445,True,17,1,0,1
Y2-S2-014K21,6,504,PS,exp,38,↑,down,↓,0.7388481999514624,False,17,-1,1,2
Y2-S2-014K21,6,505,PS,exp,45,→,left,←,0.6048298999667168,False,18,-1,0,2
Y2-S2-014K21,6,506,PS,exp,29,↑,up,↑,0.7792292999802157,True,19,-1,0,2
Y2-S2-014K21,6,507,PS,exp,37,←,left,←,0.5462672000285238,True,19,-1,0,2
Y2-S2-014K21,6,508,PS,exp,29,↑,up,↑,0.7750442998949438,True,19,1,1,3
Y2-S2-014K21,6,509,PS,exp,31,↓,down,↓,0.48758159996941686,True,18,1,0,3
Y2-S2-014K21,6,510,PS,exp,27,→,right,→,0.7497207999695092,True,18,1,0,3
Y2-S2-014K21,6,511,PS,exp,27,↑,down,↓,0.8330496000126004,False,18,-1,1,4
Y2-S2-014K21,6,512,PS,exp,40,←,down,↓,0.43391779996454716,False,19,-1,0,4
Y2-S2-014K21,6,513,PS,exp,43,↓,down,↓,0.41723369993269444,True,20,-1,0,4
Y2-S2-014K21,6,514,PS,exp,37,↑,left,←,0.6119505999376997,False,20,-1,0,4
Y2-S2-014K21,6,515,PS,exp,46,→,down,↓,0.626415399950929,False,21,-1,0,4
Y2-S2-014K21,6,516,PS,exp,41,←,left,←,0.702384400065057,True,22,-1,0,4
Y2-S2-014K21,6,517,PS,exp,43,→,right,→,0.6227492999751121,True,22,-1,0,4
Y2-S2-014K21,6,518,PS,exp,37,↑,right,→,0.38404989999253303,False,22,-1,0,4
Y2-S2-014K21,6,519,PS,exp,40,→,left,←,1.2485297999810427,False,23,-1,0,4
Y2-S2-014K21,6,520,PS,exp,33,↓,down,↓,0.8275707000866532,True,24,-1,0,4
Y2-S2-014K21,6,521,PS,exp,34,↑,right,→,0.4839440999785438,False,24,-1,0,4
Y2-S2-014K21,6,522,PS,exp,49,→,right,→,0.8304214000236243,True,25,-1,0,4
Y2-S2-014K21,6,523,PS,exp,27,↓,up,↑,1.0216957000084221,False,25,-1,0,4
Y2-S2-014K21,6,524,PS,exp,43,↑,up,↑,0.8173481000121683,True,26,-1,0,4
Y2-S2-014K21,6,525,PS,exp,38,→,right,→,0.6895921999821439,True,26,-1,0,4
Y2-S2-014K21,6,526,PS,exp,35,↑,up,↑,0.6430640999460593,True,26,1,1,5
Y2-S2-014K21,6,527,PS,exp,25,→,right,→,0.6315110001014546,True,25,1,0,5
Y2-S2-014K21,6,528,PS,exp,26,↑,up,↑,0.6548578999936581,True,25,1,0,5
Y2-S2-014K21,6,529,PS,exp,48,→,right,→,0.517291700001806,True,25,1,0,5
Y2-S2-014K21,6,530,PS,exp,42,↑,up,↑,0.8953844000352547,True,24,1,0,5
Y2-S2-014K21,6,531,PS,exp,29,↓,down,↓,0.5182703000027686,True,24,1,0,5
Y2-S2-014K21,6,532,PS,exp,35,→,right,→,0.45058539998717606,True,24,1,0,5
Y2-S2-014K21,6,533,PS,exp,49,↓,down,↓,1.2083740000380203,True,23,1,0,5
Y2-S2-014K21,6,534,PS,exp,30,→,up,↑,0.8600932999979705,False,23,-1,1,6
Y2-S2-014K21,6,535,PS,exp,32,←,left,←,0.5337170000420883,True,24,-1,0,6
Y2-S2-014K21,6,536,PS,exp,48,↑,up,↑,0.533676499966532,True,24,-1,0,6
Y2-S2-014K21,6,537,PS,exp,27,←,left,←,0.46712450007908046,True,24,1,1,7
Y2-S2-014K21,6,538,PS,exp,41,↑,up,↑,0.6901373999426141,True,23,1,0,7
Y2-S2-014K21,6,539,PS,exp,41,↓,up,↑,0.653309499961324,False,23,-1,1,8
Y2-S2-014K21,6,540,PS,exp,49,↑,up,↑,0.7787759000202641,True,24,-1,0,8
Y2-S2-014K21,6,541,PS,exp,39,↓,down,↓,0.6898712000111118,True,24,-1,0,8
Y2-S2-014K21,6,542,PS,exp,28,←,left,←,0.7783624000148848,True,24,1,1,9
Y2-S2-014K21,6,543,PS,exp,43,↑,left,←,0.6102218000451103,False,23,-1,1,10
Y2-S2-014K21,6,544,PS,exp,44,←,left,←,0.5999034000560641,True,24,-1,0,10
Y2-S2-014K21,6,545,PS,exp,28,→,right,→,0.5004965999396518,True,24,-1,0,10
Y2-S2-014K21,6,546,PS,exp,42,↑,up,↑,0.4668428000295535,True,24,1,1,11
Y2-S2-014K21,6,547,PS,exp,26,↓,down,↓,1.2680629999376833,True,23,1,0,11
Y2-S2-014K21,6,548,PS,exp,29,→,left,←,0.7884788999799639,False,23,-1,1,12
Y2-S2-014K21,6,549,PS,exp,37,↑,up,↑,0.6274562999606133,True,24,-1,0,12
Y2-S2-014K21,6,550,PS,exp,44,→,right,→,0.4336941000074148,True,24,-1,0,12
Y2-S2-014K21,6,551,PS,exp,36,↑,up,↑,0.6108634000411257,True,24,1,1,13
Y2-S2-014K21,6,552,PS,exp,27,←,left,←,0.5171989999944344,True,23,1,0,13
Y2-S2-014K21,6,553,PS,exp,44,↑,up,↑,0.45038900000508875,True,23,1,0,13
Y2-S2-014K21,6,554,PS,exp,37,↓,down,↓,0.7871036999858916,True,23,1,0,13
Y2-S2-014K21,6,555,PS,exp,30,←,right,→,1.4508599999826401,False,22,-1,1,14
Y2-S2-014K21,6,556,PS,exp,30,↓,up,↑,0.8302921000868082,False,23,-1,0,14
Y2-S2-014K21,6,557,PS,exp,28,←,left,←,0.45042440004181117,True,24,-1,0,14
Y2-S2-014K21,6,558,PS,exp,43,↑,up,↑,0.4502994999056682,True,24,-1,0,14
Y2-S2-014K21,6,559,PS,exp,50,→,right,→,0.7525247000157833,True,24,1,1,15
Y2-S2-014K21,6,560,PS,exp,43,↑,down,↓,0.48398459993768483,False,23,-1,1,16
Y2-S2-014K21,7,561,PS,intra_train,49,←,left,←,0.43377360003069043,True,18,-,-,-
Y2-S2-014K21,7,562,PS,intra_train,50,↑,up,↑,0.5629871999844909,True,18,-,-,-
Y2-S2-014K21,7,563,PS,intra_train,44,→,right,→,0.49429110006894916,True,18,-,-,-
Y2-S2-014K21,7,564,PS,intra_train,45,↓,down,↓,0.5749126999871805,True,18,-,-,-
Y2-S2-014K21,7,565,PS,intra_train,33,←,left,←,0.5058111000107601,True,18,-,-,-
Y2-S2-014K21,7,566,PS,exp,28,↓,left,←,0.4915646999143064,False,12,-1,0,0
Y2-S2-014K21,7,567,PS,exp,42,↑,up,↑,0.6016929999459535,True,13,-1,0,0
Y2-S2-014K21,7,568,PS,exp,46,↓,down,↓,0.6112109000096098,True,13,-1,0,0
Y2-S2-014K21,7,569,PS,exp,31,↑,down,↓,0.8822101000696421,False,13,-1,0,0
Y2-S2-014K21,7,570,PS,exp,39,↓,down,↓,0.6644009000156075,True,14,-1,0,0
Y2-S2-014K21,7,571,PS,exp,29,↑,up,↑,0.6084220000775531,True,14,-1,0,0
Y2-S2-014K21,7,572,PS,exp,25,←,left,←,0.5224352999357507,True,14,1,1,1
Y2-S2-014K21,7,573,PS,exp,31,→,left,←,0.7296153000788763,False,13,-1,1,2
Y2-S2-014K21,7,574,PS,exp,33,↑,up,↑,0.5303720000665635,True,14,-1,0,2
Y2-S2-014K21,7,575,PS,exp,45,←,left,←,0.4817724999738857,True,14,-1,0,2
Y2-S2-014K21,7,576,PS,exp,45,→,right,→,0.5404033000813797,True,14,1,1,3
Y2-S2-014K21,7,577,PS,exp,45,↓,up,↑,0.6084947999333963,False,13,-1,1,4
Y2-S2-014K21,7,578,PS,exp,49,↑,up,↑,0.5634438999695703,True,14,-1,0,4
Y2-S2-014K21,7,579,PS,exp,46,→,right,→,0.6246759999776259,True,14,-1,0,4
Y2-S2-014K21,7,580,PS,exp,47,↑,down,↓,0.8823900999268517,False,14,-1,0,4
Y2-S2-014K21,7,581,PS,exp,46,←,left,←,0.5360540999099612,True,15,-1,0,4
Y2-S2-014K21,7,582,PS,exp,41,↓,down,↓,0.5688589999917895,True,15,-1,0,4
Y2-S2-014K21,7,583,PS,exp,27,↑,up,↑,0.5527838000562042,True,15,1,1,5
Y2-S2-014K21,7,584,PS,exp,32,↓,up,↑,0.6696927000302821,False,14,-1,1,6
Y2-S2-014K21,7,585,PS,exp,36,←,left,←,0.623306000023149,True,15,-1,0,6
Y2-S2-014K21,7,586,PS,exp,42,→,right,→,0.7881428999826312,True,15,-1,0,6
Y2-S2-014K21,7,587,PS,exp,36,↓,down,↓,0.7247183000436053,True,15,1,1,7
Y2-S2-014K21,7,588,PS,exp,36,↑,up,↑,0.5596351999556646,True,14,1,0,7
Y2-S2-014K21,7,589,PS,exp,32,↓,down,↓,0.6838184000225738,True,14,1,0,7
Y2-S2-014K21,7,590,PS,exp,50,←,left,←,0.513962100027129,True,14,1,0,7
Y2-S2-014K21,7,591,PS,exp,37,→,right,→,0.6061499000061303,True,13,1,0,7
Y2-S2-014K21,7,592,PS,exp,37,↓,down,↓,0.6953767000231892,True,13,1,0,7
Y2-S2-014K21,7,593,PS,exp,48,↑,up,↑,0.5101402000291273,True,13,1,0,7
Y2-S2-014K21,7,594,PS,exp,33,↓,down,↓,0.44634319993201643,True,12,1,0,7
Y2-S2-014K21,7,595,PS,exp,30,↑,down,↓,0.6310323999496177,False,12,-1,1,8
Y2-S2-014K21,7,596,PS,exp,35,←,left,←,0.4632139999885112,True,13,-1,0,8
Y2-S2-014K21,7,597,PS,exp,40,→,down,↓,0.6209503000136465,False,13,-1,0,8
Y2-S2-014K21,7,598,PS,exp,30,↑,right,→,0.4470261000096798,False,14,-1,0,8
Y2-S2-014K21,7,599,PS,exp,48,→,right,→,0.6419137999182567,True,15,-1,0,8
Y2-S2-014K21,7,600,PS,exp,33,←,down,↓,0.5145991999888793,False,15,-1,0,8
Y2-S2-014K21,7,601,PS,exp,37,→,right,→,0.5129327999893576,True,16,-1,0,8
Y2-S2-014K21,7,602,PS,exp,30,↑,up,↑,0.6414710999233648,True,16,-1,0,8
Y2-S2-014K21,7,603,PS,exp,31,↓,down,↓,0.996259699924849,True,16,1,1,9
Y2-S2-014K21,7,604,PS,exp,30,↑,up,↑,0.6626359999645501,True,15,1,0,9
Y2-S2-014K21,7,605,PS,exp,43,→,right,→,0.5851993999676779,True,15,1,0,9
Y2-S2-014K21,7,606,PS,exp,39,←,left,←,0.602031399961561,True,15,1,0,9
Y2-S2-014K21,7,607,PS,exp,34,↓,down,↓,0.5916088999947533,True,14,1,0,9
Y2-S2-014K21,7,608,PS,exp,37,←,left,←,0.5631785000441596,True,14,1,0,9
Y2-S2-014K21,7,609,PS,exp,42,↑,up,↑,0.5567742000566795,True,14,1,0,9
Y2-S2-014K21,7,610,PS,exp,34,↓,down,↓,0.6513498000567779,True,13,1,0,9
Y2-S2-014K21,7,611,PS,exp,29,←,left,←,0.5571191000053659,True,13,1,0,9
Y2-S2-014K21,7,612,PS,exp,47,↓,down,↓,0.6108824999537319,True,13,1,0,9
Y2-S2-014K21,7,613,PS,exp,37,→,right,→,0.4372537999879569,True,12,1,0,9
Y2-S2-014K21,7,614,PS,exp,33,↑,down,↓,0.631254700012505,False,12,-1,1,10
Y2-S2-014K21,7,615,PS,exp,47,→,right,→,0.47922430001199245,True,13,-1,0,10
Y2-S2-014K21,7,616,PS,exp,39,↑,down,↓,0.6068763000657782,False,13,-1,0,10
Y2-S2-014K21,7,617,PS,exp,28,←,down,↓,0.5921857999637723,False,14,-1,0,10
Y2-S2-014K21,7,618,PS,exp,41,↓,right,→,0.38397740002255887,False,15,-1,0,10
Y2-S2-014K21,7,619,PS,exp,40,←,left,←,0.4990600999444723,True,16,-1,0,10
Y2-S2-014K21,7,620,PS,exp,38,↑,right,→,0.6591855000006035,False,16,-1,0,10
Y2-S2-014K21,7,621,PS,exp,47,←,right,→,0.6383277999702841,False,17,-1,0,10
Y2-S2-014K21,7,622,PS,exp,27,→,right,→,0.750949600012973,True,18,-1,0,10
Y2-S2-014K21,7,623,PS,exp,25,←,right,→,0.6709801000542939,False,18,-1,0,10
Y2-S2-014K21,7,624,PS,exp,44,↓,down,↓,0.5346615999005735,True,19,-1,0,10
Y2-S2-014K21,7,625,PS,exp,25,→,right,→,0.5031342000002041,True,19,-1,0,10
Y2-S2-014K21,7,626,PS,exp,28,↓,down,↓,0.6575482001062483,True,19,1,1,11
Y2-S2-014K21,7,627,PS,exp,43,↑,up,↑,0.7381945999804884,True,18,1,0,11
Y2-S2-014K21,7,628,PS,exp,25,↓,down,↓,0.552887599915266,True,18,1,0,11
Y2-S2-014K21,7,629,PS,exp,44,↑,up,↑,0.7298919999739155,True,18,1,0,11
Y2-S2-014K21,7,630,PS,exp,37,↓,down,↓,0.6028173000086099,True,17,1,0,11
Y2-S2-014K21,7,631,PS,exp,35,↑,up,↑,0.5204029000597075,True,17,1,0,11
Y2-S2-014K21,7,632,PS,exp,38,←,left,←,0.6326436999952421,True,17,1,0,11
Y2-S2-014K21,7,633,PS,exp,31,→,right,→,0.6251749000512064,True,16,1,0,11
Y2-S2-014K21,7,634,PS,exp,32,↑,up,↑,0.50419249990955,True,16,1,0,11
Y2-S2-014K21,7,635,PS,exp,30,←,left,←,0.5263601000187919,True,16,1,0,11
Y2-S2-014K21,7,636,PS,exp,33,→,right,→,0.6193714000983164,True,15,1,0,11
Y2-S2-014K21,7,637,PS,exp,40,↑,down,↓,0.4318247000919655,False,15,-1,1,12
Y2-S2-014K21,7,638,PS,exp,34,→,left,←,0.5271404000231996,False,16,-1,0,12
Y2-S2-014K21,7,639,PS,exp,45,↓,down,↓,0.46515519998501986,True,17,-1,0,12
Y2-S2-014K21,7,640,PS,exp,45,↑,up,↑,0.7536985999904573,True,17,-1,0,12
Y2-S2-014K21,7,641,PS,exp,42,→,right,→,0.483050600043498,True,17,1,1,13
Y2-S2-014K21,7,642,PS,exp,43,←,left,←,0.7481423000572249,True,16,1,0,13
Y2-S2-014K21,7,643,PS,exp,37,↓,down,↓,0.5580574000487104,True,16,1,0,13
Y2-S2-014K21,7,644,PS,exp,32,←,left,←,0.4891150000039488,True,16,1,0,13
Y2-S2-014K21,7,645,PS,exp,32,↓,up,↑,0.7080330000026152,False,15,-1,1,14
Y2-S2-014K21,7,646,PS,exp,37,↑,down,↓,0.5997941000387073,False,16,-1,0,14
Y2-S2-014K21,7,647,PS,exp,40,←,left,←,0.490818600053899,True,17,-1,0,14
Y2-S2-014K21,7,648,PS,exp,28,↑,left,←,0.653235699981451,False,17,-1,0,14
Y2-S2-014K21,7,649,PS,exp,28,↓,down,↓,0.6523015999700874,True,18,-1,0,14
Y2-S2-014K21,7,650,PS,exp,31,←,left,←,0.4685613999608904,True,18,-1,0,14
Y2-S2-014K21,7,651,PS,exp,41,→,right,→,1.5425029000034556,True,18,1,1,15
Y2-S2-014K21,7,652,PS,exp,46,↑,up,↑,0.47566290001850575,True,17,1,0,15
Y2-S2-014K21,7,653,PS,exp,42,→,right,→,0.5676370000001043,True,17,1,0,15
Y2-S2-014K21,7,654,PS,exp,47,↓,down,↓,0.6634744999464601,True,17,1,0,15
Y2-S2-014K21,7,655,PS,exp,30,→,right,→,0.6946465999353677,True,16,1,0,15
Y2-S2-014K21,7,656,PS,exp,44,↓,down,↓,0.6496637999080122,True,16,1,0,15
Y2-S2-014K21,7,657,PS,exp,48,→,right,→,0.483855800004676,True,16,1,0,15
Y2-S2-014K21,7,658,PS,exp,31,↓,down,↓,0.5379845999414101,True,15,1,0,15
Y2-S2-014K21,7,659,PS,exp,31,→,right,→,0.5892347999615595,True,15,1,0,15
Y2-S2-014K21,7,660,PS,exp,33,←,left,←,0.5647160999942571,True,15,1,0,15
Y2-S2-014K21,7,661,PS,exp,46,↓,down,↓,0.5263613999122754,True,14,1,0,15
Y2-S2-014K21,7,662,PS,exp,26,←,left,←,0.6838548999512568,True,14,1,0,15
Y2-S2-014K21,7,663,PS,exp,49,↓,down,↓,0.504159800009802,True,14,1,0,15
Y2-S2-014K21,7,664,PS,exp,27,↑,up,↑,0.5478606999386102,True,13,1,0,15
Y2-S2-014K21,7,665,PS,exp,32,←,left,←,0.4389855000190437,True,13,1,0,15
Y2-S2-014K21,7,666,PS,exp,32,→,left,←,1.3931506000226364,False,13,-1,1,16
Y2-S2-014K21,8,667,AS,intra_train,44,↑,up,↑,0.5503723999718204,True,27,-,-,-
Y2-S2-014K21,8,668,AS,intra_train,36,↓,down,↓,0.7457509000087157,True,27,-,-,-
Y2-S2-014K21,8,669,AS,intra_train,34,←,left,←,0.5338161999825388,True,27,-,-,-
Y2-S2-014K21,8,670,AS,intra_train,40,→,right,→,0.6365446000127122,True,27,-,-,-
Y2-S2-014K21,8,671,AS,intra_train,28,↓,down,↓,0.8798676000442356,True,27,-,-,-
Y2-S2-014K21,8,672,AS,exp,44,←,left,←,1.0944448999362066,True,18,0,0,0
Y2-S2-014K21,8,673,AS,exp,38,→,right,→,0.49010990001261234,True,18,0,0,0
Y2-S2-014K21,8,674,AS,exp,40,←,right,→,0.6833110000006855,False,18,-1,0,0
Y2-S2-014K21,8,675,AS,exp,27,→,right,→,0.891824800055474,True,19,-1,0,0
Y2-S2-014K21,8,676,AS,exp,43,←,left,←,0.4905449999496341,True,19,-1,0,0
Y2-S2-014K21,8,677,AS,exp,41,↑,right,→,0.6605184999061748,False,19,-1,0,0
Y2-S2-014K21,8,678,AS,exp,43,↓,down,↓,0.7036051000468433,True,20,-1,0,0
Y2-S2-014K21,8,679,AS,exp,30,→,up,↑,0.8904784000478685,False,20,-1,0,0
Y2-S2-014K21,8,680,AS,exp,37,↑,up,↑,1.1204323000274599,True,21,-1,0,0
Y2-S2-014K21,8,681,AS,exp,48,↓,down,↓,0.6647459000814706,True,21,-1,0,0
Y2-S2-014K21,8,682,AS,exp,39,→,right,→,1.351352500030771,True,21,1,1,1
Y2-S2-014K21,8,683,AS,exp,32,←,right,→,0.6779965999303386,False,20,-1,1,2
Y2-S2-014K21,8,684,AS,exp,43,→,right,→,0.48373129998799413,True,21,-1,0,2
Y2-S2-014K21,8,685,AS,exp,26,↑,up,↑,0.7525783000746742,True,21,-1,0,2
Y2-S2-014K21,8,686,AS,exp,48,→,right,→,0.4839654000243172,True,21,1,1,3
Y2-S2-014K21,8,687,AS,exp,38,↓,down,↓,0.5845416999654844,True,20,1,0,3
Y2-S2-014K21,8,688,AS,exp,44,↑,up,↑,0.7581412999425083,True,20,1,0,3
Y2-S2-014K21,8,689,AS,exp,25,←,left,←,0.5091893000062555,True,20,1,0,3
Y2-S2-014K21,8,690,AS,exp,45,↑,up,↑,0.4924141999799758,True,19,1,0,3
Y2-S2-014K21,8,691,AS,exp,48,→,right,→,1.1026215000310913,True,19,1,0,3
Y2-S2-014K21,8,692,AS,exp,45,↓,down,↓,0.5072446999838576,True,19,1,0,3
Y2-S2-014K21,8,693,AS,exp,36,→,right,→,0.4739593000849709,True,18,1,0,3
Y2-S2-014K21,8,694,AS,exp,44,←,left,←,0.4904289999976754,True,18,1,0,3
Y2-S2-014K21,8,695,AS,exp,42,→,right,→,0.5537874000146985,True,18,1,0,3
Y2-S2-014K21,8,696,AS,exp,49,←,left,←,0.505471600103192,True,17,1,0,3
Y2-S2-014K21,8,697,AS,exp,44,↑,up,↑,0.7769212999846786,True,17,1,0,3
Y2-S2-014K21,8,698,AS,exp,39,↓,down,↓,0.7432297000195831,True,17,1,0,3
Y2-S2-014K21,8,699,AS,exp,49,←,right,→,0.7003305000253022,False,16,-1,1,4
Y2-S2-014K21,8,700,AS,exp,46,→,left,←,0.557015800033696,False,17,-1,0,4
Y2-S2-014K21,8,701,AS,exp,28,↑,up,↑,0.5510493000037968,True,18,-1,0,4
Y2-S2-014K21,8,702,AS,exp,30,↓,down,↓,0.6764550999505445,True,18,-1,0,4
Y2-S2-014K21,8,703,AS,exp,47,←,left,←,0.6246654000133276,True,18,1,1,5
Y2-S2-014K21,8,704,AS,exp,47,→,right,→,0.4174051999580115,True,17,1,0,5
Y2-S2-014K21,8,705,AS,exp,38,↑,up,↑,1.0686692000599578,True,17,1,0,5
Y2-S2-014K21,8,706,AS,exp,41,←,left,←,0.6155366000020877,True,17,1,0,5
Y2-S2-014K21,8,707,AS,exp,26,↑,up,↑,0.757135400082916,True,16,1,0,5
Y2-S2-014K21,8,708,AS,exp,30,→,right,→,0.44455479993484914,True,16,1,0,5
Y2-S2-014K21,8,709,AS,exp,32,←,left,←,0.4955243000295013,True,16,1,0,5
Y2-S2-014K21,8,710,AS,exp,32,↑,up,↑,0.700160100008361,True,15,1,0,5
Y2-S2-014K21,8,711,AS,exp,25,←,left,←,0.5248820999404415,True,15,1,0,5
Y2-S2-014K21,8,712,AS,exp,36,↑,up,↑,0.5097714000148699,True,15,1,0,5
Y2-S2-014K21,8,713,AS,exp,44,→,down,↓,0.6639314999338239,False,14,-1,1,6
Y2-S2-014K21,8,714,AS,exp,35,↓,up,↑,0.5738383000716567,False,15,-1,0,6
Y2-S2-014K21,8,715,AS,exp,35,→,left,←,0.47171119996346533,False,16,-1,0,6
Y2-S2-014K21,8,716,AS,exp,29,←,left,←,1.1177666001021862,True,17,-1,0,6
Y2-S2-014K21,8,717,AS,exp,34,↓,down,↓,0.531449900008738,True,17,-1,0,6
Y2-S2-014K21,8,718,AS,exp,30,→,right,→,0.4940871000289917,True,17,1,1,7
Y2-S2-014K21,8,719,AS,exp,25,↓,down,↓,0.5269009000621736,True,16,1,0,7
Y2-S2-014K21,8,720,AS,exp,31,→,right,→,0.668334599933587,True,16,1,0,7
Y2-S2-014K21,8,721,AS,exp,42,←,left,←,0.507083100033924,True,16,1,0,7
Y2-S2-014K21,8,722,AS,exp,30,↑,down,↓,0.8223393999505788,False,15,-1,1,8
Y2-S2-014K21,8,723,AS,exp,44,→,left,←,0.6728585000382736,False,16,-1,0,8
Y2-S2-014K21,8,724,AS,exp,31,←,left,←,0.5448521999642253,True,17,-1,0,8
Y2-S2-014K21,8,725,AS,exp,38,→,right,→,0.4173517000162974,True,17,-1,0,8
Y2-S2-014K21,8,726,AS,exp,25,↑,up,↑,0.6827666000463068,True,17,1,1,9
Y2-S2-014K21,8,727,AS,exp,33,→,up,↑,0.6371472000610083,False,16,-1,1,10
Y2-S2-014K21,8,728,AS,exp,47,↑,up,↑,0.5477813000325114,True,17,-1,0,10
Y2-S2-014K21,8,729,AS,exp,39,→,right,→,0.46802949998527765,True,17,-1,0,10
Y2-S2-014K21,8,730,AS,exp,35,↑,up,↑,0.5870046000927687,True,17,1,1,11
Y2-S2-014K21,8,731,AS,exp,46,→,right,→,0.6488967000041157,True,16,1,0,11
Y2-S2-014K21,8,732,AS,exp,27,←,up,↑,0.7704595999093726,False,16,-1,1,12
Y2-S2-014K21,8,733,AS,exp,30,→,up,↑,0.6662547000451013,False,17,-1,0,12
Y2-S2-014K21,8,734,AS,exp,34,←,left,←,0.5156839999835938,True,18,-1,0,12
Y2-S2-014K21,8,735,AS,exp,29,↓,down,↓,0.6408700000029057,True,18,-1,0,12
Y2-S2-014K21,8,736,AS,exp,45,←,left,←,0.5665621999651194,True,18,1,1,13
Y2-S2-014K21,8,737,AS,exp,34,↑,down,↓,0.8397042999276891,False,17,-1,1,14
Y2-S2-014K21,8,738,AS,exp,36,←,left,←,0.5207239000592381,True,18,-1,0,14
Y2-S2-014K21,8,739,AS,exp,42,→,left,←,0.7121819000458345,False,18,-1,0,14
Y2-S2-014K21,8,740,AS,exp,25,↓,down,↓,0.7879872000776231,True,19,-1,0,14
Y2-S2-014K21,8,741,AS,exp,37,↑,up,↑,0.7420941001037136,True,19,-1,0,14
Y2-S2-014K21,8,742,AS,exp,25,↓,down,↓,0.5183987999334931,True,19,1,1,15
Y2-S2-014K21,8,743,AS,exp,30,→,right,→,0.7589176000328735,True,18,1,0,15
Y2-S2-014K21,8,744,AS,exp,40,↑,up,↑,0.7506775999208912,True,18,1,0,15
Y2-S2-014K21,8,745,AS,exp,41,←,right,→,0.7085071998881176,False,18,-1,1,16
