PART_ID,Block_no,Trial_no,Block_type,Trial_type,CSI,Stim_letter,Key_pressed,letter_choose,Rt,Corr,Stimulus Time,Level,Reversal,Revs_count
Y2-S2-156K20,1,1,PS,train,50,←,left,←,1.994308500085026,True,30,-,-,-
Y2-S2-156K20,1,2,PS,train,43,→,right,→,0.7533042000140995,True,30,-,-,-
Y2-S2-156K20,1,3,PS,train,40,←,left,←,1.0089987001847476,True,30,-,-,-
Y2-S2-156K20,1,4,PS,train,40,→,right,→,0.5840459999162704,True,30,-,-,-
Y2-S2-156K20,1,5,PS,train,32,↑,up,↑,0.5842836999800056,True,30,-,-,-
Y2-S2-156K20,1,6,PS,train,28,↓,down,↓,0.7380733999889344,True,30,-,-,-
Y2-S2-156K20,1,7,PS,train,48,↑,up,↑,1.9645609001163393,True,30,-,-,-
Y2-S2-156K20,1,8,PS,train,33,→,right,→,0.5840315001551062,True,30,-,-,-
Y2-S2-156K20,1,9,PS,train,42,↑,up,↑,0.6338492000941187,True,30,-,-,-
Y2-S2-156K20,1,10,PS,train,33,→,right,→,0.5169550001155585,True,30,-,-,-
Y2-S2-156K20,2,11,AS,train,38,←,left,←,1.5678651998750865,True,45,-,-,-
Y2-S2-156K20,2,12,AS,train,39,↓,down,↓,0.9673665000591427,True,45,-,-,-
Y2-S2-156K20,2,13,AS,train,43,↑,up,↑,0.7176798000000417,True,45,-,-,-
Y2-S2-156K20,2,14,AS,train,41,→,right,→,0.7009146998170763,True,45,-,-,-
Y2-S2-156K20,2,15,AS,train,35,↓,down,↓,2.317219299962744,True,45,-,-,-
Y2-S2-156K20,2,16,AS,train,37,←,left,←,0.8504965000320226,True,45,-,-,-
Y2-S2-156K20,2,17,AS,train,30,↑,up,↑,0.8340625001583248,True,45,-,-,-
Y2-S2-156K20,2,18,AS,train,36,←,left,←,0.7336591000203043,True,45,-,-,-
Y2-S2-156K20,2,19,AS,train,32,↑,up,↑,0.7675292000640184,True,45,-,-,-
Y2-S2-156K20,2,20,AS,train,49,→,right,→,0.6346251000650227,True,45,-,-,-
Y2-S2-156K20,-,21,PS,adaptive,48,↑,up,↑,0.8261724999174476,True,10,0,0,0
Y2-S2-156K20,-,22,PS,adaptive,33,→,right,→,0.8108977999072522,True,10,0,0,0
Y2-S2-156K20,-,23,PS,adaptive,36,←,left,←,0.5930182000156492,True,10,1,0,0
Y2-S2-156K20,-,24,PS,adaptive,43,↑,no_key,no_letter,-1.0,False,9,-1,1,1
Y2-S2-156K20,-,25,PS,adaptive,41,←,right,→,0.9859499998856336,False,10,-1,0,1
Y2-S2-156K20,-,26,PS,adaptive,43,↓,down,↓,0.5135828999336809,True,11,-1,0,1
Y2-S2-156K20,-,27,PS,adaptive,33,←,left,←,1.0776790999807417,True,11,-1,0,1
Y2-S2-156K20,-,28,PS,adaptive,31,→,right,→,0.5763646999839693,True,11,1,1,2
Y2-S2-156K20,-,29,PS,adaptive,28,↓,left,←,0.9815075001679361,False,10,-1,1,3
Y2-S2-156K20,-,30,PS,adaptive,31,←,left,←,0.564300499856472,True,11,-1,0,3
Y2-S2-156K20,-,31,PS,adaptive,36,↑,up,↑,0.6554362999740988,True,11,-1,0,3
Y2-S2-156K20,-,32,PS,adaptive,36,↓,down,↓,0.6116476999595761,True,11,1,1,4
Y2-S2-156K20,-,33,AS,adaptive,49,←,left,←,0.6329648001119494,True,20,0,0,0
Y2-S2-156K20,-,34,AS,adaptive,34,→,right,→,0.6641061999835074,True,20,0,0,0
Y2-S2-156K20,-,35,AS,adaptive,28,↓,down,↓,0.8360248999670148,True,20,1,0,0
Y2-S2-156K20,-,36,AS,adaptive,27,→,right,→,0.686655499972403,True,19,1,0,0
Y2-S2-156K20,-,37,AS,adaptive,31,↓,down,↓,0.6021783000323921,True,19,1,0,0
Y2-S2-156K20,-,38,AS,adaptive,33,↑,down,↓,0.8630625999066979,False,19,-1,1,1
Y2-S2-156K20,-,39,AS,adaptive,41,↓,down,↓,0.9413165000732988,True,20,-1,0,1
Y2-S2-156K20,-,40,AS,adaptive,33,→,right,→,0.46731570013798773,True,20,-1,0,1
Y2-S2-156K20,-,41,AS,adaptive,38,↓,down,↓,0.6938909001182765,True,20,1,1,2
Y2-S2-156K20,-,42,AS,adaptive,35,↑,up,↑,0.5291858999989927,True,19,1,0,2
Y2-S2-156K20,-,43,AS,adaptive,45,→,right,→,0.5922270000446588,True,19,1,0,2
Y2-S2-156K20,-,44,AS,adaptive,42,←,left,←,0.8163297998253256,True,19,1,0,2
Y2-S2-156K20,-,45,AS,adaptive,28,→,right,→,0.8159753999207169,True,18,1,0,2
Y2-S2-156K20,-,46,AS,adaptive,36,←,right,→,0.6728954999707639,False,18,-1,1,3
Y2-S2-156K20,-,47,AS,adaptive,40,↓,up,↑,0.8772632998879999,False,19,-1,0,3
Y2-S2-156K20,-,48,AS,adaptive,38,↑,up,↑,1.017436700174585,True,20,-1,0,3
Y2-S2-156K20,-,49,AS,adaptive,43,←,left,←,0.7369685000739992,True,20,-1,0,3
Y2-S2-156K20,-,50,AS,adaptive,47,↑,up,↑,0.5670135000254959,True,20,1,1,4
Y2-S2-156K20,1,51,AS,intra_train,28,→,right,→,0.7646380998194218,True,28,-,-,-
Y2-S2-156K20,1,52,AS,intra_train,48,←,left,←,0.6478283000178635,True,28,-,-,-
Y2-S2-156K20,1,53,AS,intra_train,34,↑,up,↑,0.4838787999469787,True,28,-,-,-
Y2-S2-156K20,1,54,AS,intra_train,34,→,right,→,0.5671889001969248,True,28,-,-,-
Y2-S2-156K20,1,55,AS,intra_train,39,↓,down,↓,0.7240414000116289,True,28,-,-,-
Y2-S2-156K20,1,56,AS,exp,32,↑,up,↑,0.6355011998675764,True,19,0,0,0
Y2-S2-156K20,1,57,AS,exp,35,→,right,→,0.6443754001520574,True,19,0,0,0
Y2-S2-156K20,1,58,AS,exp,49,↓,down,↓,0.6424922000151128,True,19,1,0,0
Y2-S2-156K20,1,59,AS,exp,38,↑,up,↑,0.5974785999860615,True,18,1,0,0
Y2-S2-156K20,1,60,AS,exp,44,→,right,→,0.49246040009893477,True,18,1,0,0
Y2-S2-156K20,1,61,AS,exp,25,←,left,←,1.0235941000282764,True,18,1,0,0
Y2-S2-156K20,1,62,AS,exp,44,↓,down,↓,0.7626374999526888,True,17,1,0,0
Y2-S2-156K20,1,63,AS,exp,41,→,right,→,0.6741118000354618,True,17,1,0,0
Y2-S2-156K20,1,64,AS,exp,33,↑,up,↑,0.6481538999360055,True,17,1,0,0
Y2-S2-156K20,1,65,AS,exp,27,↓,down,↓,0.5941830000374466,True,16,1,0,0
Y2-S2-156K20,1,66,AS,exp,50,→,right,→,0.5378230002243072,True,16,1,0,0
Y2-S2-156K20,1,67,AS,exp,38,↓,down,↓,0.6186780999414623,True,16,1,0,0
Y2-S2-156K20,1,68,AS,exp,33,→,right,→,0.48383660009130836,True,15,1,0,0
Y2-S2-156K20,1,69,AS,exp,40,↓,down,↓,0.45925100008025765,True,15,1,0,0
Y2-S2-156K20,1,70,AS,exp,49,←,right,→,0.682594700017944,False,15,-1,1,1
Y2-S2-156K20,1,71,AS,exp,42,↓,down,↓,0.714733799919486,True,16,-1,0,1
Y2-S2-156K20,1,72,AS,exp,29,↑,up,↑,0.803929700050503,True,16,-1,0,1
Y2-S2-156K20,1,73,AS,exp,31,↓,down,↓,0.6199250998906791,True,16,1,1,2
Y2-S2-156K20,1,74,AS,exp,31,←,right,→,0.9256865999195725,False,15,-1,1,3
Y2-S2-156K20,1,75,AS,exp,42,→,right,→,0.6302594000007957,True,16,-1,0,3
Y2-S2-156K20,1,76,AS,exp,34,←,left,←,0.7083957998547703,True,16,-1,0,3
Y2-S2-156K20,1,77,AS,exp,50,→,right,→,0.7111949999816716,True,16,1,1,4
Y2-S2-156K20,1,78,AS,exp,27,↓,down,↓,0.6814699999522418,True,15,1,0,4
Y2-S2-156K20,1,79,AS,exp,41,→,left,←,0.8424235000275075,False,15,-1,1,5
Y2-S2-156K20,1,80,AS,exp,26,←,left,←,0.5787718000356108,True,16,-1,0,5
Y2-S2-156K20,1,81,AS,exp,26,↓,up,↑,0.7476133999880403,False,16,-1,0,5
Y2-S2-156K20,1,82,AS,exp,41,↑,up,↑,0.5841869001742452,True,17,-1,0,5
Y2-S2-156K20,1,83,AS,exp,49,→,right,→,0.5405986998230219,True,17,-1,0,5
Y2-S2-156K20,1,84,AS,exp,40,↓,down,↓,0.6455809001345187,True,17,1,1,6
Y2-S2-156K20,1,85,AS,exp,34,←,left,←,0.9847495001740754,True,16,1,0,6
Y2-S2-156K20,1,86,AS,exp,27,↑,up,↑,0.4663432000670582,True,16,1,0,6
Y2-S2-156K20,1,87,AS,exp,47,←,right,→,0.5629350000526756,False,16,-1,1,7
Y2-S2-156K20,1,88,AS,exp,39,→,right,→,0.5583224000874907,True,17,-1,0,7
Y2-S2-156K20,1,89,AS,exp,26,↓,down,↓,0.5047519998624921,True,17,-1,0,7
Y2-S2-156K20,1,90,AS,exp,26,←,right,→,1.0051267000380903,False,17,-1,0,7
Y2-S2-156K20,1,91,AS,exp,41,→,right,→,0.7933482998050749,True,18,-1,0,7
Y2-S2-156K20,1,92,AS,exp,35,←,left,←,0.4851325999479741,True,18,-1,0,7
Y2-S2-156K20,1,93,AS,exp,44,→,right,→,0.6496208000462502,True,18,1,1,8
Y2-S2-156K20,1,94,AS,exp,26,↑,up,↑,0.7164574000053108,True,17,1,0,8
Y2-S2-156K20,1,95,AS,exp,33,←,left,←,0.6149909000378102,True,17,1,0,8
Y2-S2-156K20,1,96,AS,exp,37,↓,up,↑,0.6412466999609023,False,17,-1,1,9
Y2-S2-156K20,1,97,AS,exp,48,→,right,→,0.6509593999944627,True,18,-1,0,9
Y2-S2-156K20,1,98,AS,exp,39,↓,down,↓,0.5858362999279052,True,18,-1,0,9
Y2-S2-156K20,1,99,AS,exp,43,↑,up,↑,0.6167683000676334,True,18,1,1,10
Y2-S2-156K20,1,100,AS,exp,45,←,left,←,0.5623627998866141,True,17,1,0,10
Y2-S2-156K20,1,101,AS,exp,47,↑,up,↑,0.49164039990864694,True,17,1,0,10
Y2-S2-156K20,1,102,AS,exp,45,↓,down,↓,0.4790140998084098,True,17,1,0,10
Y2-S2-156K20,1,103,AS,exp,26,←,right,→,0.9117244998924434,False,16,-1,1,11
Y2-S2-156K20,1,104,AS,exp,39,↓,down,↓,1.42250379989855,True,17,-1,0,11
Y2-S2-156K20,1,105,AS,exp,47,↑,up,↑,0.5429183999076486,True,17,-1,0,11
Y2-S2-156K20,1,106,AS,exp,25,←,right,→,0.6837124000303447,False,17,-1,0,11
Y2-S2-156K20,1,107,AS,exp,41,↑,up,↑,0.6567867998965085,True,18,-1,0,11
Y2-S2-156K20,1,108,AS,exp,49,↓,down,↓,0.5248493000399321,True,18,-1,0,11
Y2-S2-156K20,1,109,AS,exp,37,←,left,←,0.6555075000505894,True,18,1,1,12
Y2-S2-156K20,1,110,AS,exp,26,↑,up,↑,0.6852766999509186,True,17,1,0,12
Y2-S2-156K20,1,111,AS,exp,32,→,no_key,no_letter,-1.0,False,17,-1,1,13
Y2-S2-156K20,1,112,AS,exp,49,↑,up,↑,1.9337859000079334,True,18,-1,0,13
Y2-S2-156K20,1,113,AS,exp,32,↓,down,↓,0.4772640001028776,True,18,-1,0,13
Y2-S2-156K20,1,114,AS,exp,35,→,right,→,0.6741456999443471,True,18,1,1,14
Y2-S2-156K20,1,115,AS,exp,31,↓,down,↓,0.7007223998662084,True,17,1,0,14
Y2-S2-156K20,1,116,AS,exp,32,→,right,→,0.6985865000169724,True,17,1,0,14
Y2-S2-156K20,1,117,AS,exp,31,↓,down,↓,0.4586821000557393,True,17,1,0,14
Y2-S2-156K20,1,118,AS,exp,29,→,right,→,0.5153397999238223,True,16,1,0,14
Y2-S2-156K20,1,119,AS,exp,39,←,left,←,0.4790775999426842,True,16,1,0,14
Y2-S2-156K20,1,120,AS,exp,27,↑,up,↑,0.6933874001260847,True,16,1,0,14
Y2-S2-156K20,1,121,AS,exp,45,←,left,←,1.0216484998818487,True,15,1,0,14
Y2-S2-156K20,1,122,AS,exp,40,→,right,→,0.532844000030309,True,15,1,0,14
Y2-S2-156K20,1,123,AS,exp,31,↓,down,↓,0.5244777000043541,True,15,1,0,14
Y2-S2-156K20,1,124,AS,exp,29,→,right,→,0.6839006000664085,True,14,1,0,14
Y2-S2-156K20,1,125,AS,exp,46,↓,right,→,0.6210924000479281,False,14,-1,1,15
Y2-S2-156K20,1,126,AS,exp,35,→,down,↓,0.8078795000910759,False,15,-1,0,15
Y2-S2-156K20,1,127,AS,exp,50,↑,up,↑,0.6439662999473512,True,16,-1,0,15
Y2-S2-156K20,1,128,AS,exp,38,←,left,←,0.6105251999106258,True,16,-1,0,15
Y2-S2-156K20,1,129,AS,exp,34,→,right,→,0.5685912999324501,True,16,1,1,16
Y2-S2-156K20,2,130,PS,intra_train,37,↓,down,↓,0.7583647000137717,True,15,-,-,-
Y2-S2-156K20,2,131,PS,intra_train,27,←,left,←,0.5955531999934465,True,15,-,-,-
Y2-S2-156K20,2,132,PS,intra_train,28,↓,down,↓,0.47824149997904897,True,15,-,-,-
Y2-S2-156K20,2,133,PS,intra_train,27,←,left,←,0.5484877999406308,True,15,-,-,-
Y2-S2-156K20,2,134,PS,intra_train,48,↓,down,↓,0.4676675000227988,True,15,-,-,-
Y2-S2-156K20,2,135,PS,exp,49,↑,up,↑,0.7531375999096781,True,10,0,0,0
Y2-S2-156K20,2,136,PS,exp,46,↓,down,↓,0.5078278000000864,True,10,0,0,0
Y2-S2-156K20,2,137,PS,exp,29,→,left,←,0.7453559001442045,False,10,-1,0,0
Y2-S2-156K20,2,138,PS,exp,38,←,left,←,0.5050160000100732,True,11,-1,0,0
Y2-S2-156K20,2,139,PS,exp,43,↑,up,↑,0.4749781000427902,True,11,-1,0,0
Y2-S2-156K20,2,140,PS,exp,42,↓,right,→,0.7927268000785261,False,11,-1,0,0
Y2-S2-156K20,2,141,PS,exp,30,→,right,→,0.5771063999272883,True,12,-1,0,0
Y2-S2-156K20,2,142,PS,exp,33,↓,down,↓,0.496072200126946,True,12,-1,0,0
Y2-S2-156K20,2,143,PS,exp,40,←,left,←,0.523255999898538,True,12,1,1,1
Y2-S2-156K20,2,144,PS,exp,44,↑,up,↑,0.502531300066039,True,11,1,0,1
Y2-S2-156K20,2,145,PS,exp,30,↓,down,↓,0.4925786000676453,True,11,1,0,1
Y2-S2-156K20,2,146,PS,exp,45,←,left,←,0.4486157998908311,True,11,1,0,1
Y2-S2-156K20,2,147,PS,exp,35,↓,down,↓,0.5695088000502437,True,10,1,0,1
Y2-S2-156K20,2,148,PS,exp,50,↑,right,→,0.6845831999089569,False,10,-1,1,2
Y2-S2-156K20,2,149,PS,exp,28,→,right,→,0.8736331998370588,True,11,-1,0,2
Y2-S2-156K20,2,150,PS,exp,46,←,left,←,0.5266241999343038,True,11,-1,0,2
Y2-S2-156K20,2,151,PS,exp,42,→,right,→,0.600812999997288,True,11,1,1,3
Y2-S2-156K20,2,152,PS,exp,29,←,left,←,1.6119378998409957,True,10,1,0,3
Y2-S2-156K20,2,153,PS,exp,40,→,right,→,0.7505333998706192,True,10,1,0,3
Y2-S2-156K20,2,154,PS,exp,35,↑,left,←,0.8633600000757724,False,10,-1,1,4
Y2-S2-156K20,2,155,PS,exp,43,→,right,→,0.9163884001318365,True,11,-1,0,4
Y2-S2-156K20,2,156,PS,exp,32,←,left,←,0.4992509000003338,True,11,-1,0,4
Y2-S2-156K20,2,157,PS,exp,47,↓,down,↓,0.5660735000856221,True,11,1,1,5
Y2-S2-156K20,2,158,PS,exp,38,↑,up,↑,0.5614255999680609,True,10,1,0,5
Y2-S2-156K20,2,159,PS,exp,47,→,right,→,0.5140460999682546,True,10,1,0,5
Y2-S2-156K20,2,160,PS,exp,27,↑,left,←,0.668671099934727,False,10,-1,1,6
Y2-S2-156K20,2,161,PS,exp,29,↓,down,↓,0.5102402998600155,True,11,-1,0,6
Y2-S2-156K20,2,162,PS,exp,50,←,left,←,0.4616107000038028,True,11,-1,0,6
Y2-S2-156K20,2,163,PS,exp,27,→,right,→,0.4801153000444174,True,11,1,1,7
Y2-S2-156K20,2,164,PS,exp,28,↓,down,↓,0.6946068999823183,True,10,1,0,7
Y2-S2-156K20,2,165,PS,exp,25,→,right,→,0.4904267000965774,True,10,1,0,7
Y2-S2-156K20,2,166,PS,exp,34,↓,down,↓,0.43498000013642013,True,10,1,0,7
Y2-S2-156K20,2,167,PS,exp,27,←,left,←,0.8394039999693632,True,9,1,0,7
Y2-S2-156K20,2,168,PS,exp,47,↑,up,↑,0.4797735000029206,True,9,1,0,7
Y2-S2-156K20,2,169,PS,exp,47,→,right,→,0.8601808999665082,True,9,1,0,7
Y2-S2-156K20,2,170,PS,exp,39,←,left,←,0.6212174999527633,True,8,1,0,7
Y2-S2-156K20,2,171,PS,exp,28,→,right,→,0.6524763000197709,True,8,1,0,7
Y2-S2-156K20,2,172,PS,exp,33,↓,down,↓,0.5947392999660224,True,8,1,0,7
Y2-S2-156K20,2,173,PS,exp,36,↑,left,←,0.8278226000256836,False,7,-1,1,8
Y2-S2-156K20,2,174,PS,exp,41,←,right,→,1.1220848001539707,False,8,-1,0,8
Y2-S2-156K20,2,175,PS,exp,44,↓,down,↓,0.5172131999861449,True,9,-1,0,8
Y2-S2-156K20,2,176,PS,exp,47,↑,up,↑,0.4544963000807911,True,9,-1,0,8
Y2-S2-156K20,2,177,PS,exp,50,↓,down,↓,0.4673941000364721,True,9,1,1,9
Y2-S2-156K20,2,178,PS,exp,47,↑,up,↑,0.48555679991841316,True,8,1,0,9
Y2-S2-156K20,2,179,PS,exp,45,↓,right,→,0.8515291998628527,False,8,-1,1,10
Y2-S2-156K20,2,180,PS,exp,48,→,right,→,0.5597909002099186,True,9,-1,0,10
Y2-S2-156K20,2,181,PS,exp,35,←,up,↑,0.7664681999012828,False,9,-1,0,10
Y2-S2-156K20,2,182,PS,exp,38,↓,down,↓,0.5185085001867265,True,10,-1,0,10
Y2-S2-156K20,2,183,PS,exp,29,←,left,←,0.6684975998941809,True,10,-1,0,10
Y2-S2-156K20,2,184,PS,exp,45,↓,down,↓,0.4855583000462502,True,10,1,1,11
Y2-S2-156K20,2,185,PS,exp,26,↑,right,→,0.6990240998566151,False,9,-1,1,12
Y2-S2-156K20,2,186,PS,exp,26,↓,down,↓,0.46084180008620024,True,10,-1,0,12
Y2-S2-156K20,2,187,PS,exp,48,←,left,←,0.627935100113973,True,10,-1,0,12
Y2-S2-156K20,2,188,PS,exp,36,↓,right,→,0.5391371001023799,False,10,-1,0,12
Y2-S2-156K20,2,189,PS,exp,25,→,right,→,0.6187574998475611,True,11,-1,0,12
Y2-S2-156K20,2,190,PS,exp,47,←,left,←,0.5614475999027491,True,11,-1,0,12
Y2-S2-156K20,2,191,PS,exp,37,↓,right,→,0.9582111998461187,False,11,-1,0,12
Y2-S2-156K20,2,192,PS,exp,40,←,left,←,0.5226134001277387,True,12,-1,0,12
Y2-S2-156K20,2,193,PS,exp,47,→,right,→,0.5443959999829531,True,12,-1,0,12
Y2-S2-156K20,2,194,PS,exp,38,←,left,←,0.634711500024423,True,12,1,1,13
Y2-S2-156K20,2,195,PS,exp,42,↑,up,↑,0.6287664000410587,True,11,1,0,13
Y2-S2-156K20,2,196,PS,exp,31,↓,down,↓,0.6872356000822037,True,11,1,0,13
Y2-S2-156K20,2,197,PS,exp,43,↑,down,↓,0.6521945998538285,False,11,-1,1,14
Y2-S2-156K20,2,198,PS,exp,46,←,left,←,0.6305541999172419,True,12,-1,0,14
Y2-S2-156K20,2,199,PS,exp,29,→,right,→,0.5455998999532312,True,12,-1,0,14
Y2-S2-156K20,2,200,PS,exp,44,←,left,←,0.5608449999708682,True,12,1,1,15
Y2-S2-156K20,2,201,PS,exp,49,↓,down,↓,0.7100543000269681,True,11,1,0,15
Y2-S2-156K20,2,202,PS,exp,39,→,right,→,0.48457779991440475,True,11,1,0,15
Y2-S2-156K20,2,203,PS,exp,41,←,left,←,0.4974877000786364,True,11,1,0,15
Y2-S2-156K20,2,204,PS,exp,42,↓,down,↓,0.49995189998298883,True,10,1,0,15
Y2-S2-156K20,2,205,PS,exp,30,↑,up,↑,0.6362453999463469,True,10,1,0,15
Y2-S2-156K20,2,206,PS,exp,36,←,left,←,0.5560111000668257,True,10,1,0,15
Y2-S2-156K20,2,207,PS,exp,31,↑,up,↑,0.5751181000377983,True,9,1,0,15
Y2-S2-156K20,2,208,PS,exp,44,↓,down,↓,0.4710063000675291,True,9,1,0,15
Y2-S2-156K20,2,209,PS,exp,49,←,left,←,0.6344290999695659,True,9,1,0,15
Y2-S2-156K20,2,210,PS,exp,25,↑,left,←,0.543771400116384,False,8,-1,1,16
Y2-S2-156K20,3,211,PS,intra_train,37,←,left,←,1.20541590009816,True,15,-,-,-
Y2-S2-156K20,3,212,PS,intra_train,46,↑,up,↑,0.48032810003496706,True,15,-,-,-
Y2-S2-156K20,3,213,PS,intra_train,37,↓,down,↓,0.6433114998508245,True,15,-,-,-
Y2-S2-156K20,3,214,PS,intra_train,43,→,right,→,0.6007795000914484,True,15,-,-,-
Y2-S2-156K20,3,215,PS,intra_train,25,←,left,←,0.5150705000851303,True,15,-,-,-
Y2-S2-156K20,3,216,PS,exp,26,↓,down,↓,0.5777992000803351,True,10,0,0,0
Y2-S2-156K20,3,217,PS,exp,29,→,right,→,0.5176468999125063,True,10,0,0,0
Y2-S2-156K20,3,218,PS,exp,29,↓,down,↓,0.6766158998943865,True,10,1,0,0
Y2-S2-156K20,3,219,PS,exp,39,↑,up,↑,0.5551499000284821,True,9,1,0,0
Y2-S2-156K20,3,220,PS,exp,28,→,right,→,0.5644089998677373,True,9,1,0,0
Y2-S2-156K20,3,221,PS,exp,28,↑,up,↑,0.6089330001268536,True,9,1,0,0
Y2-S2-156K20,3,222,PS,exp,48,↓,down,↓,0.4796315999701619,True,8,1,0,0
Y2-S2-156K20,3,223,PS,exp,30,→,right,→,0.5665442000608891,True,8,1,0,0
Y2-S2-156K20,3,224,PS,exp,38,↑,right,→,0.8059247999917716,False,8,-1,1,1
Y2-S2-156K20,3,225,PS,exp,42,↓,down,↓,0.5750810999888927,True,9,-1,0,1
Y2-S2-156K20,3,226,PS,exp,42,↑,up,↑,1.0988115998916328,True,9,-1,0,1
Y2-S2-156K20,3,227,PS,exp,25,→,up,↑,1.104156699962914,False,9,-1,0,1
Y2-S2-156K20,3,228,PS,exp,45,←,right,→,0.9844814999960363,False,10,-1,0,1
Y2-S2-156K20,3,229,PS,exp,43,→,right,→,0.496347300009802,True,11,-1,0,1
Y2-S2-156K20,3,230,PS,exp,49,↑,up,↑,0.5027270000427961,True,11,-1,0,1
Y2-S2-156K20,3,231,PS,exp,45,←,left,←,0.583935100119561,True,11,1,1,2
Y2-S2-156K20,3,232,PS,exp,40,→,right,→,0.43442960013635457,True,10,1,0,2
Y2-S2-156K20,3,233,PS,exp,47,↓,down,↓,0.5176905000116676,True,10,1,0,2
Y2-S2-156K20,3,234,PS,exp,38,↑,up,↑,0.6785005000419915,True,10,1,0,2
Y2-S2-156K20,3,235,PS,exp,40,→,right,→,0.48842069995589554,True,9,1,0,2
Y2-S2-156K20,3,236,PS,exp,40,↑,left,←,0.8725580000318587,False,9,-1,1,3
Y2-S2-156K20,3,237,PS,exp,26,↓,right,→,1.0968310998287052,False,10,-1,0,3
Y2-S2-156K20,3,238,PS,exp,36,→,right,→,0.5708025000058115,True,11,-1,0,3
Y2-S2-156K20,3,239,PS,exp,49,↓,down,↓,0.5034824998583645,True,11,-1,0,3
Y2-S2-156K20,3,240,PS,exp,39,→,right,→,0.44431739998981357,True,11,1,1,4
Y2-S2-156K20,3,241,PS,exp,41,↑,up,↑,1.5603755000047386,True,10,1,0,4
Y2-S2-156K20,3,242,PS,exp,41,→,right,→,0.4244487998075783,True,10,1,0,4
Y2-S2-156K20,3,243,PS,exp,42,←,left,←,0.9759076000191271,True,10,1,0,4
Y2-S2-156K20,3,244,PS,exp,28,↑,up,↑,0.5840761000290513,True,9,1,0,4
Y2-S2-156K20,3,245,PS,exp,44,↓,down,↓,0.4448993999976665,True,9,1,0,4
Y2-S2-156K20,3,246,PS,exp,48,→,right,→,0.4328014999628067,True,9,1,0,4
Y2-S2-156K20,3,247,PS,exp,44,↑,left,←,0.7401123999152333,False,8,-1,1,5
Y2-S2-156K20,3,248,PS,exp,29,→,right,→,0.5252662999555469,True,9,-1,0,5
Y2-S2-156K20,3,249,PS,exp,37,↓,left,←,0.6678708998952061,False,9,-1,0,5
Y2-S2-156K20,3,250,PS,exp,50,↑,left,←,0.4806987999472767,False,10,-1,0,5
Y2-S2-156K20,3,251,PS,exp,39,→,right,→,0.6145363000687212,True,11,-1,0,5
Y2-S2-156K20,3,252,PS,exp,31,←,left,←,0.6352208000607789,True,11,-1,0,5
Y2-S2-156K20,3,253,PS,exp,32,↓,down,↓,0.7174988000188023,True,11,1,1,6
Y2-S2-156K20,3,254,PS,exp,47,←,left,←,0.5537537999916822,True,10,1,0,6
Y2-S2-156K20,3,255,PS,exp,34,↓,down,↓,0.5119477999396622,True,10,1,0,6
Y2-S2-156K20,3,256,PS,exp,39,↑,down,↓,0.6820728001184762,False,10,-1,1,7
Y2-S2-156K20,3,257,PS,exp,40,↓,down,↓,0.623945000115782,True,11,-1,0,7
Y2-S2-156K20,3,258,PS,exp,35,→,left,←,0.796949699986726,False,11,-1,0,7
Y2-S2-156K20,3,259,PS,exp,41,←,left,←,0.794573400169611,True,12,-1,0,7
Y2-S2-156K20,3,260,PS,exp,45,↓,left,←,0.6832543001510203,False,12,-1,0,7
Y2-S2-156K20,3,261,PS,exp,36,↑,right,→,1.0447108999360353,False,13,-1,0,7
Y2-S2-156K20,3,262,PS,exp,43,↓,down,↓,0.6346539000514895,True,14,-1,0,7
Y2-S2-156K20,3,263,PS,exp,34,↑,up,↑,0.4825134000275284,True,14,-1,0,7
Y2-S2-156K20,3,264,PS,exp,27,→,right,→,0.5210563999135047,True,14,1,1,8
Y2-S2-156K20,3,265,PS,exp,43,↓,down,↓,0.5794736999087036,True,13,1,0,8
Y2-S2-156K20,3,266,PS,exp,30,↑,left,←,1.7633066999260336,False,13,-1,1,9
Y2-S2-156K20,3,267,PS,exp,25,↓,down,↓,0.5492438001092523,True,14,-1,0,9
Y2-S2-156K20,3,268,PS,exp,25,↑,right,→,0.770124200033024,False,14,-1,0,9
Y2-S2-156K20,3,269,PS,exp,43,↓,down,↓,0.4914098000153899,True,15,-1,0,9
Y2-S2-156K20,3,270,PS,exp,41,↑,right,→,1.5002621000166982,False,15,-1,0,9
Y2-S2-156K20,3,271,PS,exp,43,→,right,→,0.49267850001342595,True,16,-1,0,9
Y2-S2-156K20,3,272,PS,exp,49,↑,up,↑,0.46965710003860295,True,16,-1,0,9
Y2-S2-156K20,3,273,PS,exp,47,→,right,→,0.5606961001176387,True,16,1,1,10
Y2-S2-156K20,3,274,PS,exp,28,↓,down,↓,0.7052358000073582,True,15,1,0,10
Y2-S2-156K20,3,275,PS,exp,43,←,left,←,0.4924170000012964,True,15,1,0,10
Y2-S2-156K20,3,276,PS,exp,49,↓,down,↓,0.7166212999727577,True,15,1,0,10
Y2-S2-156K20,3,277,PS,exp,40,←,right,→,0.6423921000678092,False,14,-1,1,11
Y2-S2-156K20,3,278,PS,exp,36,→,left,←,0.8170140997972339,False,15,-1,0,11
Y2-S2-156K20,3,279,PS,exp,50,←,left,←,0.5744417998939753,True,16,-1,0,11
Y2-S2-156K20,3,280,PS,exp,34,↓,right,→,1.0151255000382662,False,16,-1,0,11
Y2-S2-156K20,3,281,PS,exp,46,↑,up,↑,0.6116202000994235,True,17,-1,0,11
Y2-S2-156K20,3,282,PS,exp,28,→,right,→,0.6679807000327855,True,17,-1,0,11
Y2-S2-156K20,3,283,PS,exp,49,↑,up,↑,0.5414376000408083,True,17,1,1,12
Y2-S2-156K20,3,284,PS,exp,36,←,left,←,0.7246545001398772,True,16,1,0,12
Y2-S2-156K20,3,285,PS,exp,38,→,right,→,0.4867569000925869,True,16,1,0,12
Y2-S2-156K20,3,286,PS,exp,47,↑,up,↑,0.5266666000243276,True,16,1,0,12
Y2-S2-156K20,3,287,PS,exp,36,→,right,→,0.5193565001245588,True,15,1,0,12
Y2-S2-156K20,3,288,PS,exp,25,↑,up,↑,0.6480928999371827,True,15,1,0,12
Y2-S2-156K20,3,289,PS,exp,45,←,left,←,0.8099818001501262,True,15,1,0,12
Y2-S2-156K20,3,290,PS,exp,31,↑,up,↑,0.4941688000690192,True,14,1,0,12
Y2-S2-156K20,3,291,PS,exp,30,→,right,→,0.9049009999725968,True,14,1,0,12
Y2-S2-156K20,3,292,PS,exp,45,←,left,←,0.6307745999656618,True,14,1,0,12
Y2-S2-156K20,3,293,PS,exp,48,↓,down,↓,0.6681601000018418,True,13,1,0,12
Y2-S2-156K20,3,294,PS,exp,30,←,left,←,0.9971408999990672,True,13,1,0,12
Y2-S2-156K20,3,295,PS,exp,35,↑,up,↑,0.6743971998803318,True,13,1,0,12
Y2-S2-156K20,3,296,PS,exp,44,→,right,→,0.6104939000215381,True,12,1,0,12
Y2-S2-156K20,3,297,PS,exp,45,↑,down,↓,0.9029029000084847,False,12,-1,1,13
Y2-S2-156K20,3,298,PS,exp,39,→,right,→,0.65857890015468,True,13,-1,0,13
Y2-S2-156K20,3,299,PS,exp,34,↑,right,→,0.8480199000332505,False,13,-1,0,13
Y2-S2-156K20,3,300,PS,exp,47,→,no_key,no_letter,-1.0,False,14,-1,0,13
Y2-S2-156K20,3,301,PS,exp,34,↓,down,↓,0.6158797999378294,True,15,-1,0,13
Y2-S2-156K20,3,302,PS,exp,39,→,right,→,0.8200234000105411,True,15,-1,0,13
Y2-S2-156K20,3,303,PS,exp,26,↓,down,↓,0.5838923999108374,True,15,1,1,14
Y2-S2-156K20,3,304,PS,exp,36,→,up,↑,0.9113100001122802,False,14,-1,1,15
Y2-S2-156K20,3,305,PS,exp,44,←,left,←,0.6219738000072539,True,15,-1,0,15
Y2-S2-156K20,3,306,PS,exp,38,→,right,→,0.5197387000080198,True,15,-1,0,15
Y2-S2-156K20,3,307,PS,exp,28,↑,up,↑,0.6689804000779986,True,15,1,1,16
Y2-S2-156K20,4,308,AS,intra_train,42,↓,down,↓,1.104209200013429,True,28,-,-,-
Y2-S2-156K20,4,309,AS,intra_train,39,→,right,→,1.701037700055167,True,28,-,-,-
Y2-S2-156K20,4,310,AS,intra_train,28,↓,down,↓,1.32576739997603,True,28,-,-,-
Y2-S2-156K20,4,311,AS,intra_train,41,←,left,←,0.6687332999426872,True,28,-,-,-
Y2-S2-156K20,4,312,AS,intra_train,46,→,right,→,0.7710978998802602,True,28,-,-,-
Y2-S2-156K20,4,313,AS,exp,29,↓,down,↓,1.0239442000165582,True,19,0,0,0
Y2-S2-156K20,4,314,AS,exp,27,←,left,←,1.0457399000879377,True,19,0,0,0
Y2-S2-156K20,4,315,AS,exp,45,→,right,→,0.65417500003241,True,19,1,0,0
Y2-S2-156K20,4,316,AS,exp,42,←,left,←,0.8492761000525206,True,18,1,0,0
Y2-S2-156K20,4,317,AS,exp,42,↓,left,←,1.133104900131002,False,18,-1,1,1
Y2-S2-156K20,4,318,AS,exp,27,↑,up,↑,0.5485751000232995,True,19,-1,0,1
Y2-S2-156K20,4,319,AS,exp,48,←,right,→,0.7125969999469817,False,19,-1,0,1
Y2-S2-156K20,4,320,AS,exp,39,↑,down,↓,1.0199605000671,False,20,-1,0,1
Y2-S2-156K20,4,321,AS,exp,46,←,left,←,0.9941322000231594,True,21,-1,0,1
Y2-S2-156K20,4,322,AS,exp,40,↓,left,←,1.8004053998738527,False,21,-1,0,1
Y2-S2-156K20,4,323,AS,exp,25,←,left,←,0.6876477999612689,True,22,-1,0,1
Y2-S2-156K20,4,324,AS,exp,27,→,right,→,0.6033955998718739,True,22,-1,0,1
Y2-S2-156K20,4,325,AS,exp,42,↑,left,←,1.367874599993229,False,22,-1,0,1
Y2-S2-156K20,4,326,AS,exp,27,→,right,→,0.829033900052309,True,23,-1,0,1
Y2-S2-156K20,4,327,AS,exp,31,←,left,←,0.517022900050506,True,23,-1,0,1
Y2-S2-156K20,4,328,AS,exp,27,→,right,→,0.6884216000325978,True,23,1,1,2
Y2-S2-156K20,4,329,AS,exp,29,↓,down,↓,0.5362472000997514,True,22,1,0,2
Y2-S2-156K20,4,330,AS,exp,43,←,left,←,0.939297900069505,True,22,1,0,2
Y2-S2-156K20,4,331,AS,exp,43,↓,down,↓,1.5362552001606673,True,22,1,0,2
Y2-S2-156K20,4,332,AS,exp,29,←,left,←,0.8986126000527292,True,21,1,0,2
Y2-S2-156K20,4,333,AS,exp,26,↓,down,↓,1.1213116999715567,True,21,1,0,2
Y2-S2-156K20,4,334,AS,exp,45,→,down,↓,1.259880900150165,False,21,-1,1,3
Y2-S2-156K20,4,335,AS,exp,38,↑,up,↑,1.1369366000872105,True,22,-1,0,3
Y2-S2-156K20,4,336,AS,exp,27,←,right,→,1.0983040002174675,False,22,-1,0,3
Y2-S2-156K20,4,337,AS,exp,44,↑,up,↑,0.6900665001012385,True,23,-1,0,3
Y2-S2-156K20,4,338,AS,exp,42,←,no_key,no_letter,-1.0,False,23,-1,0,3
Y2-S2-156K20,4,339,AS,exp,32,↓,down,↓,0.6181819001212716,True,24,-1,0,3
Y2-S2-156K20,4,340,AS,exp,35,↑,up,↑,0.6821621998678893,True,24,-1,0,3
Y2-S2-156K20,4,341,AS,exp,48,←,left,←,1.2009761000517756,True,24,1,1,4
Y2-S2-156K20,4,342,AS,exp,48,↑,up,↑,1.0738601998891681,True,23,1,0,4
Y2-S2-156K20,4,343,AS,exp,28,↓,down,↓,1.8233968999702483,True,23,1,0,4
Y2-S2-156K20,4,344,AS,exp,31,←,left,←,0.7534702001139522,True,23,1,0,4
Y2-S2-156K20,4,345,AS,exp,49,↓,down,↓,0.6514910000842065,True,22,1,0,4
Y2-S2-156K20,4,346,AS,exp,36,↑,up,↑,1.377985900035128,True,22,1,0,4
Y2-S2-156K20,4,347,AS,exp,33,→,right,→,0.8395382000599056,True,22,1,0,4
Y2-S2-156K20,4,348,AS,exp,28,↑,up,↑,0.5433632000349462,True,21,1,0,4
Y2-S2-156K20,4,349,AS,exp,28,→,right,→,0.9149543000385165,True,21,1,0,4
Y2-S2-156K20,4,350,AS,exp,27,←,left,←,0.7087733000516891,True,21,1,0,4
Y2-S2-156K20,4,351,AS,exp,40,→,right,→,0.9427796001546085,True,20,1,0,4
Y2-S2-156K20,4,352,AS,exp,27,↑,right,→,0.6077091998886317,False,20,-1,1,5
Y2-S2-156K20,4,353,AS,exp,47,↓,down,↓,0.676317400066182,True,21,-1,0,5
Y2-S2-156K20,4,354,AS,exp,43,←,left,←,0.7184190000407398,True,21,-1,0,5
Y2-S2-156K20,4,355,AS,exp,27,→,left,←,0.6862280000932515,False,21,-1,0,5
Y2-S2-156K20,4,356,AS,exp,47,←,right,→,0.6397921000607312,False,22,-1,0,5
Y2-S2-156K20,4,357,AS,exp,34,→,right,→,1.1720901001244783,True,23,-1,0,5
Y2-S2-156K20,4,358,AS,exp,25,↑,up,↑,0.5865608998574317,True,23,-1,0,5
Y2-S2-156K20,4,359,AS,exp,37,←,left,←,0.750817600172013,True,23,1,1,6
Y2-S2-156K20,4,360,AS,exp,37,↓,down,↓,0.6203590999357402,True,22,1,0,6
Y2-S2-156K20,4,361,AS,exp,36,→,right,→,0.5710404000710696,True,22,1,0,6
Y2-S2-156K20,4,362,AS,exp,47,↑,up,↑,0.8039585000369698,True,22,1,0,6
Y2-S2-156K20,4,363,AS,exp,34,→,right,→,0.5580458000767976,True,21,1,0,6
Y2-S2-156K20,4,364,AS,exp,30,↓,up,↑,0.7982016999740154,False,21,-1,1,7
Y2-S2-156K20,4,365,AS,exp,39,←,up,↑,1.2076345002278686,False,22,-1,0,7
Y2-S2-156K20,4,366,AS,exp,25,↓,down,↓,0.821353199891746,True,23,-1,0,7
Y2-S2-156K20,4,367,AS,exp,41,↑,down,↓,0.9977478000801057,False,23,-1,0,7
Y2-S2-156K20,4,368,AS,exp,49,←,down,↓,1.1258982000872493,False,24,-1,0,7
Y2-S2-156K20,4,369,AS,exp,49,↓,no_key,no_letter,-1.0,False,25,-1,0,7
Y2-S2-156K20,4,370,AS,exp,29,←,left,←,0.8340886998921633,True,26,-1,0,7
Y2-S2-156K20,4,371,AS,exp,39,↑,up,↑,0.6275312001816928,True,26,-1,0,7
Y2-S2-156K20,4,372,AS,exp,36,→,right,→,0.7034662000369281,True,26,1,1,8
Y2-S2-156K20,4,373,AS,exp,48,↓,right,→,1.760061000008136,False,25,-1,1,9
Y2-S2-156K20,4,374,AS,exp,50,→,no_key,no_letter,-1.0,False,26,-1,0,9
Y2-S2-156K20,4,375,AS,exp,33,↓,down,↓,1.036573600023985,True,27,-1,0,9
Y2-S2-156K20,4,376,AS,exp,26,→,no_key,no_letter,-1.0,False,27,-1,0,9
Y2-S2-156K20,4,377,AS,exp,42,↑,up,↑,0.9066675999201834,True,28,-1,0,9
Y2-S2-156K20,4,378,AS,exp,39,↓,down,↓,1.082745699910447,True,28,-1,0,9
Y2-S2-156K20,4,379,AS,exp,44,←,right,→,0.663959400029853,False,28,-1,0,9
Y2-S2-156K20,4,380,AS,exp,37,↑,up,↑,0.5170577000826597,True,29,-1,0,9
Y2-S2-156K20,4,381,AS,exp,38,→,right,→,0.7763328000437468,True,29,-1,0,9
Y2-S2-156K20,4,382,AS,exp,47,←,left,←,0.7126034998800606,True,29,1,1,10
Y2-S2-156K20,4,383,AS,exp,45,↓,down,↓,1.1124828001484275,True,28,1,0,10
Y2-S2-156K20,4,384,AS,exp,26,←,left,←,1.7308728999923915,True,28,1,0,10
Y2-S2-156K20,4,385,AS,exp,37,→,right,→,0.5338536999188364,True,28,1,0,10
Y2-S2-156K20,4,386,AS,exp,29,←,left,←,0.5836231999564916,True,27,1,0,10
Y2-S2-156K20,4,387,AS,exp,35,↑,down,↓,1.0073508999776095,False,27,-1,1,11
Y2-S2-156K20,4,388,AS,exp,36,←,left,←,0.8537576000671834,True,28,-1,0,11
Y2-S2-156K20,4,389,AS,exp,43,↓,right,→,1.0608660001307726,False,28,-1,0,11
Y2-S2-156K20,4,390,AS,exp,30,→,right,→,1.398333900142461,True,29,-1,0,11
Y2-S2-156K20,4,391,AS,exp,50,←,left,←,0.9788029999472201,True,29,-1,0,11
Y2-S2-156K20,4,392,AS,exp,32,↑,down,↓,1.2417347999289632,False,29,-1,0,11
Y2-S2-156K20,4,393,AS,exp,25,↓,down,↓,0.7812389000318944,True,30,-1,0,11
Y2-S2-156K20,4,394,AS,exp,41,↑,up,↑,0.9924435000866652,True,30,-1,0,11
Y2-S2-156K20,4,395,AS,exp,34,←,up,↑,0.9532871001865715,False,30,-1,0,11
Y2-S2-156K20,4,396,AS,exp,47,↑,no_key,no_letter,-1.0,False,31,-1,0,11
Y2-S2-156K20,4,397,AS,exp,38,←,left,←,0.8176835998892784,True,32,-1,0,11
Y2-S2-156K20,4,398,AS,exp,42,↓,no_key,no_letter,-1.0,False,32,-1,0,11
Y2-S2-156K20,4,399,AS,exp,47,←,left,←,0.865211799973622,True,33,-1,0,11
Y2-S2-156K20,4,400,AS,exp,47,→,right,→,0.8253454000223428,True,33,-1,0,11
Y2-S2-156K20,4,401,AS,exp,33,↓,down,↓,0.683964499970898,True,33,1,1,12
Y2-S2-156K20,4,402,AS,exp,30,→,right,→,0.6174554999452084,True,32,1,0,12
Y2-S2-156K20,4,403,AS,exp,40,↓,down,↓,0.6503375000320375,True,32,1,0,12
Y2-S2-156K20,4,404,AS,exp,32,↑,up,↑,0.667365700006485,True,32,1,0,12
Y2-S2-156K20,4,405,AS,exp,42,←,left,←,0.730796700110659,True,31,1,0,12
Y2-S2-156K20,4,406,AS,exp,42,↑,up,↑,1.0248762001283467,True,31,1,0,12
Y2-S2-156K20,4,407,AS,exp,26,←,left,←,1.883648700080812,True,31,1,0,12
Y2-S2-156K20,4,408,AS,exp,41,↑,up,↑,0.6745645999908447,True,30,1,0,12
Y2-S2-156K20,4,409,AS,exp,39,→,right,→,0.782338900025934,True,30,1,0,12
Y2-S2-156K20,4,410,AS,exp,34,↓,down,↓,1.6169879001099616,True,30,1,0,12
Y2-S2-156K20,4,411,AS,exp,41,←,no_key,no_letter,-1.0,False,29,-1,1,13
Y2-S2-156K20,4,412,AS,exp,27,↓,down,↓,0.9111772999167442,True,30,-1,0,13
Y2-S2-156K20,4,413,AS,exp,34,↑,up,↑,0.6172382000368088,True,30,-1,0,13
Y2-S2-156K20,4,414,AS,exp,48,←,left,←,0.7131451999302953,True,30,1,1,14
Y2-S2-156K20,4,415,AS,exp,27,↑,up,↑,0.8040630000177771,True,29,1,0,14
Y2-S2-156K20,4,416,AS,exp,42,←,left,←,0.7264002000447363,True,29,1,0,14
Y2-S2-156K20,4,417,AS,exp,42,↓,down,↓,0.7349405998829752,True,29,1,0,14
Y2-S2-156K20,4,418,AS,exp,27,←,left,←,0.8794320998713374,True,28,1,0,14
Y2-S2-156K20,4,419,AS,exp,48,↑,up,↑,0.8775640998501331,True,28,1,0,14
Y2-S2-156K20,4,420,AS,exp,40,↓,down,↓,1.1558114001527429,True,28,1,0,14
Y2-S2-156K20,4,421,AS,exp,30,↑,up,↑,0.7795777001883835,True,27,1,0,14
Y2-S2-156K20,4,422,AS,exp,38,→,right,→,1.2212969998363405,True,27,1,0,14
Y2-S2-156K20,4,423,AS,exp,30,↓,down,↓,0.7557554999366403,True,27,1,0,14
Y2-S2-156K20,4,424,AS,exp,47,↑,up,↑,0.831291199894622,True,26,1,0,14
Y2-S2-156K20,4,425,AS,exp,45,→,left,←,1.2761713999789208,False,26,-1,1,15
Y2-S2-156K20,4,426,AS,exp,27,↑,up,↑,1.844249399844557,True,27,-1,0,15
Y2-S2-156K20,4,427,AS,exp,41,→,right,→,0.9553361001890153,True,27,-1,0,15
Y2-S2-156K20,4,428,AS,exp,46,↑,up,↑,0.700417899992317,True,27,1,1,16
Y2-S2-156K20,5,429,AS,intra_train,48,→,right,→,0.7052855999208987,True,28,-,-,-
Y2-S2-156K20,5,430,AS,intra_train,40,↓,down,↓,0.9029068001545966,True,28,-,-,-
Y2-S2-156K20,5,431,AS,intra_train,45,←,left,←,0.7351303000468761,True,28,-,-,-
Y2-S2-156K20,5,432,AS,intra_train,41,↑,up,↑,0.764602999901399,True,28,-,-,-
Y2-S2-156K20,5,433,AS,intra_train,25,↓,down,↓,0.722941700136289,True,28,-,-,-
Y2-S2-156K20,5,434,AS,exp,41,↑,up,↑,1.044384100008756,True,19,0,0,0
Y2-S2-156K20,5,435,AS,exp,38,→,right,→,0.5298266999889165,True,19,0,0,0
Y2-S2-156K20,5,436,AS,exp,43,↓,down,↓,0.5854044000152498,True,19,1,0,0
Y2-S2-156K20,5,437,AS,exp,29,→,down,↓,0.8555247997865081,False,18,-1,1,1
Y2-S2-156K20,5,438,AS,exp,26,←,down,↓,1.0350991999730468,False,19,-1,0,1
Y2-S2-156K20,5,439,AS,exp,31,→,right,→,0.815708399983123,True,20,-1,0,1
Y2-S2-156K20,5,440,AS,exp,25,↑,no_key,no_letter,-1.0,False,20,-1,0,1
Y2-S2-156K20,5,441,AS,exp,40,→,right,→,0.6184290000237525,True,21,-1,0,1
Y2-S2-156K20,5,442,AS,exp,26,↑,up,↑,0.5313086998648942,True,21,-1,0,1
Y2-S2-156K20,5,443,AS,exp,42,←,left,←,0.6233138998504728,True,21,1,1,2
Y2-S2-156K20,5,444,AS,exp,47,↓,right,→,1.2899707001633942,False,20,-1,1,3
Y2-S2-156K20,5,445,AS,exp,48,→,right,→,1.8143493998795748,True,21,-1,0,3
Y2-S2-156K20,5,446,AS,exp,34,↓,down,↓,0.8432042000349611,True,21,-1,0,3
Y2-S2-156K20,5,447,AS,exp,36,↑,up,↑,0.8444998001214117,True,21,1,1,4
Y2-S2-156K20,5,448,AS,exp,25,→,right,→,0.7035960000939667,True,20,1,0,4
Y2-S2-156K20,5,449,AS,exp,29,↑,right,→,1.2896854998543859,False,20,-1,1,5
Y2-S2-156K20,5,450,AS,exp,47,←,left,←,0.5988491999451071,True,21,-1,0,5
Y2-S2-156K20,5,451,AS,exp,27,↑,right,→,1.4488959000445902,False,21,-1,0,5
Y2-S2-156K20,5,452,AS,exp,26,↓,no_key,no_letter,-1.0,False,22,-1,0,5
Y2-S2-156K20,5,453,AS,exp,34,↑,up,↑,0.620448200032115,True,23,-1,0,5
Y2-S2-156K20,5,454,AS,exp,36,↓,down,↓,0.6349923999514431,True,23,-1,0,5
Y2-S2-156K20,5,455,AS,exp,50,→,right,→,0.9133874999824911,True,23,1,1,6
Y2-S2-156K20,5,456,AS,exp,34,↓,down,↓,0.6363989000674337,True,22,1,0,6
Y2-S2-156K20,5,457,AS,exp,43,←,left,←,0.7466750000603497,True,22,1,0,6
Y2-S2-156K20,5,458,AS,exp,50,↑,down,↓,1.4930858998559415,False,22,-1,1,7
Y2-S2-156K20,5,459,AS,exp,49,↓,down,↓,0.8886361999902874,True,23,-1,0,7
Y2-S2-156K20,5,460,AS,exp,37,←,left,←,1.0356232000049204,True,23,-1,0,7
Y2-S2-156K20,5,461,AS,exp,39,↓,down,↓,0.8508239998482168,True,23,1,1,8
Y2-S2-156K20,5,462,AS,exp,28,←,left,←,0.8138278000988066,True,22,1,0,8
Y2-S2-156K20,5,463,AS,exp,34,↑,left,←,0.8733854999300092,False,22,-1,1,9
Y2-S2-156K20,5,464,AS,exp,49,↓,down,↓,0.6447761999443173,True,23,-1,0,9
Y2-S2-156K20,5,465,AS,exp,43,←,down,↓,1.4569927998818457,False,23,-1,0,9
Y2-S2-156K20,5,466,AS,exp,50,→,right,→,0.8676846998278052,True,24,-1,0,9
Y2-S2-156K20,5,467,AS,exp,47,↑,up,↑,0.7175509000662714,True,24,-1,0,9
Y2-S2-156K20,5,468,AS,exp,47,→,right,→,1.8205075000878423,True,24,1,1,10
Y2-S2-156K20,5,469,AS,exp,35,↑,no_key,no_letter,-1.0,False,23,-1,1,11
Y2-S2-156K20,5,470,AS,exp,37,→,no_key,no_letter,-1.0,False,24,-1,0,11
Y2-S2-156K20,5,471,AS,exp,25,↓,down,↓,0.6309987001586705,True,25,-1,0,11
Y2-S2-156K20,5,472,AS,exp,47,↑,up,↑,0.5169449001550674,True,25,-1,0,11
Y2-S2-156K20,5,473,AS,exp,49,←,left,←,0.9184524999000132,True,25,1,1,12
Y2-S2-156K20,5,474,AS,exp,28,↓,right,→,1.661852000048384,False,24,-1,1,13
Y2-S2-156K20,5,475,AS,exp,33,→,right,→,0.7054146998561919,True,25,-1,0,13
Y2-S2-156K20,5,476,AS,exp,46,←,left,←,0.6169076000805944,True,25,-1,0,13
Y2-S2-156K20,5,477,AS,exp,30,↓,down,↓,0.8375770000275224,True,25,1,1,14
Y2-S2-156K20,5,478,AS,exp,28,→,right,→,0.5900135999545455,True,24,1,0,14
Y2-S2-156K20,5,479,AS,exp,38,↓,down,↓,0.6909656000789255,True,24,1,0,14
Y2-S2-156K20,5,480,AS,exp,44,←,left,←,0.6142094999086112,True,24,1,0,14
Y2-S2-156K20,5,481,AS,exp,25,↓,down,↓,0.866336400154978,True,23,1,0,14
Y2-S2-156K20,5,482,AS,exp,48,←,no_key,no_letter,-1.0,False,23,-1,1,15
Y2-S2-156K20,5,483,AS,exp,36,↓,down,↓,1.5569924998562783,True,24,-1,0,15
Y2-S2-156K20,5,484,AS,exp,48,↑,up,↑,0.60261519998312,True,24,-1,0,15
Y2-S2-156K20,5,485,AS,exp,42,↓,down,↓,1.8647202998399734,True,24,1,1,16
Y2-S2-156K20,6,486,PS,intra_train,27,↑,up,↑,1.5687372998800129,True,15,-,-,-
Y2-S2-156K20,6,487,PS,intra_train,25,↓,down,↓,0.5184146000538021,True,15,-,-,-
Y2-S2-156K20,6,488,PS,intra_train,28,↑,up,↑,0.5088988000061363,True,15,-,-,-
Y2-S2-156K20,6,489,PS,intra_train,37,↓,right,→,0.692031699931249,False,15,-,-,-
Y2-S2-156K20,6,490,PS,intra_train,47,↑,up,↑,0.48613930004648864,True,15,-,-,-
Y2-S2-156K20,6,491,PS,exp,29,↓,down,↓,0.5777253999840468,True,10,0,0,0
Y2-S2-156K20,6,492,PS,exp,30,←,right,→,0.8199398000724614,False,10,-1,0,0
Y2-S2-156K20,6,493,PS,exp,37,↑,left,←,1.2384195001795888,False,11,-1,0,0
Y2-S2-156K20,6,494,PS,exp,28,→,right,→,0.6188742998056114,True,12,-1,0,0
Y2-S2-156K20,6,495,PS,exp,27,↑,up,↑,0.6341472000349313,True,12,-1,0,0
Y2-S2-156K20,6,496,PS,exp,39,↓,down,↓,0.512628500116989,True,12,1,1,1
Y2-S2-156K20,6,497,PS,exp,32,→,right,→,0.5480532001238316,True,11,1,0,1
Y2-S2-156K20,6,498,PS,exp,46,↓,down,↓,0.4864582000300288,True,11,1,0,1
Y2-S2-156K20,6,499,PS,exp,28,→,left,←,0.6880856999196112,False,11,-1,1,2
Y2-S2-156K20,6,500,PS,exp,44,↓,down,↓,0.47318949992768466,True,12,-1,0,2
Y2-S2-156K20,6,501,PS,exp,25,→,right,→,0.4725433001294732,True,12,-1,0,2
Y2-S2-156K20,6,502,PS,exp,35,↑,up,↑,0.514318099943921,True,12,1,1,3
Y2-S2-156K20,6,503,PS,exp,28,←,left,←,0.4810725999996066,True,11,1,0,3
Y2-S2-156K20,6,504,PS,exp,40,↓,down,↓,0.5629076000768691,True,11,1,0,3
Y2-S2-156K20,6,505,PS,exp,25,←,left,←,0.5916111001279205,True,11,1,0,3
Y2-S2-156K20,6,506,PS,exp,43,↑,up,↑,0.5125851999036968,True,10,1,0,3
Y2-S2-156K20,6,507,PS,exp,33,→,right,→,0.657395499991253,True,10,1,0,3
Y2-S2-156K20,6,508,PS,exp,36,↓,down,↓,0.47982170013710856,True,10,1,0,3
Y2-S2-156K20,6,509,PS,exp,30,↑,up,↑,0.48633049987256527,True,9,1,0,3
Y2-S2-156K20,6,510,PS,exp,39,↓,down,↓,0.4865202000364661,True,9,1,0,3
Y2-S2-156K20,6,511,PS,exp,45,←,right,→,0.5603976999409497,False,9,-1,1,4
Y2-S2-156K20,6,512,PS,exp,26,→,right,→,0.46980670001357794,True,10,-1,0,4
Y2-S2-156K20,6,513,PS,exp,42,↑,up,↑,0.467661099974066,True,10,-1,0,4
Y2-S2-156K20,6,514,PS,exp,48,→,right,→,0.4596994000021368,True,10,1,1,5
Y2-S2-156K20,6,515,PS,exp,29,↓,left,←,1.0125831000041217,False,9,-1,1,6
Y2-S2-156K20,6,516,PS,exp,30,↑,left,←,1.0512848999351263,False,10,-1,0,6
Y2-S2-156K20,6,517,PS,exp,38,←,left,←,0.5118213000241667,True,11,-1,0,6
Y2-S2-156K20,6,518,PS,exp,44,→,right,→,0.9523565999697894,True,11,-1,0,6
Y2-S2-156K20,6,519,PS,exp,42,↓,down,↓,0.47644730005413294,True,11,1,1,7
Y2-S2-156K20,6,520,PS,exp,37,↑,up,↑,0.49792380002327263,True,10,1,0,7
Y2-S2-156K20,6,521,PS,exp,40,←,down,↓,0.6882060999050736,False,10,-1,1,8
Y2-S2-156K20,6,522,PS,exp,39,↑,up,↑,0.4883594000712037,True,11,-1,0,8
Y2-S2-156K20,6,523,PS,exp,32,↓,left,←,0.6513300000224262,False,11,-1,0,8
Y2-S2-156K20,6,524,PS,exp,44,↑,up,↑,1.0230447999201715,True,12,-1,0,8
Y2-S2-156K20,6,525,PS,exp,42,↓,right,→,1.0728101001586765,False,12,-1,0,8
Y2-S2-156K20,6,526,PS,exp,45,→,right,→,0.5130366999655962,True,13,-1,0,8
Y2-S2-156K20,6,527,PS,exp,39,↑,up,↑,0.5591138999443501,True,13,-1,0,8
Y2-S2-156K20,6,528,PS,exp,37,↓,down,↓,0.6467465998139232,True,13,1,1,9
Y2-S2-156K20,6,529,PS,exp,43,←,up,↑,0.8094732000026852,False,12,-1,1,10
Y2-S2-156K20,6,530,PS,exp,32,↓,right,→,0.9740128999110311,False,13,-1,0,10
Y2-S2-156K20,6,531,PS,exp,28,←,left,←,0.5997309000231326,True,14,-1,0,10
Y2-S2-156K20,6,532,PS,exp,34,↓,down,↓,0.525777000002563,True,14,-1,0,10
Y2-S2-156K20,6,533,PS,exp,33,→,right,→,0.5926588999573141,True,14,1,1,11
Y2-S2-156K20,6,534,PS,exp,36,←,left,←,0.9455987000837922,True,13,1,0,11
Y2-S2-156K20,6,535,PS,exp,39,→,right,→,0.5012602000497282,True,13,1,0,11
Y2-S2-156K20,6,536,PS,exp,33,←,left,←,0.5202271998859942,True,13,1,0,11
Y2-S2-156K20,6,537,PS,exp,30,↓,down,↓,1.0160263001453131,True,12,1,0,11
Y2-S2-156K20,6,538,PS,exp,29,↑,up,↑,0.7017942999955267,True,12,1,0,11
Y2-S2-156K20,6,539,PS,exp,43,↓,down,↓,0.5578076997771859,True,12,1,0,11
Y2-S2-156K20,6,540,PS,exp,28,↑,up,↑,0.4821787001565099,True,11,1,0,11
Y2-S2-156K20,6,541,PS,exp,50,→,right,→,0.4854226999450475,True,11,1,0,11
Y2-S2-156K20,6,542,PS,exp,46,↓,down,↓,0.5330574000254273,True,11,1,0,11
Y2-S2-156K20,6,543,PS,exp,49,←,left,←,0.5577808001544327,True,10,1,0,11
Y2-S2-156K20,6,544,PS,exp,28,↑,up,↑,0.6151279001496732,True,10,1,0,11
Y2-S2-156K20,6,545,PS,exp,26,↓,left,←,0.39228600007481873,False,10,-1,1,12
Y2-S2-156K20,6,546,PS,exp,25,←,left,←,0.49029810004867613,True,11,-1,0,12
Y2-S2-156K20,6,547,PS,exp,39,→,right,→,0.5426715998910367,True,11,-1,0,12
Y2-S2-156K20,6,548,PS,exp,33,↑,up,↑,0.5574157999362797,True,11,1,1,13
Y2-S2-156K20,6,549,PS,exp,47,↓,down,↓,0.4233589000068605,True,10,1,0,13
Y2-S2-156K20,6,550,PS,exp,49,→,right,→,0.38675359985791147,True,10,1,0,13
Y2-S2-156K20,6,551,PS,exp,26,↓,left,←,0.5067872998770326,False,10,-1,1,14
Y2-S2-156K20,6,552,PS,exp,27,→,right,→,0.6709425000008196,True,11,-1,0,14
Y2-S2-156K20,6,553,PS,exp,49,↓,down,↓,0.4284657998941839,True,11,-1,0,14
Y2-S2-156K20,6,554,PS,exp,45,←,up,↑,0.6041802000254393,False,11,-1,0,14
Y2-S2-156K20,6,555,PS,exp,37,→,up,↑,0.7451714999042451,False,12,-1,0,14
Y2-S2-156K20,6,556,PS,exp,42,←,left,←,0.6862087000627071,True,13,-1,0,14
Y2-S2-156K20,6,557,PS,exp,29,↓,down,↓,0.5809875000268221,True,13,-1,0,14
Y2-S2-156K20,6,558,PS,exp,35,←,up,↑,0.5098164998926222,False,13,-1,0,14
Y2-S2-156K20,6,559,PS,exp,27,→,right,→,0.6077560998965055,True,14,-1,0,14
Y2-S2-156K20,6,560,PS,exp,44,↓,down,↓,0.5414557000622153,True,14,-1,0,14
Y2-S2-156K20,6,561,PS,exp,44,←,left,←,0.643980799941346,True,14,1,1,15
Y2-S2-156K20,6,562,PS,exp,48,↓,right,→,0.6388151000719517,False,13,-1,1,16
Y2-S2-156K20,7,563,PS,intra_train,42,←,left,←,0.44424399989657104,True,15,-,-,-
Y2-S2-156K20,7,564,PS,intra_train,49,→,right,→,0.5117043999489397,True,15,-,-,-
Y2-S2-156K20,7,565,PS,intra_train,42,↓,down,↓,0.7341839999426156,True,15,-,-,-
Y2-S2-156K20,7,566,PS,intra_train,43,→,right,→,0.5950759002007544,True,15,-,-,-
Y2-S2-156K20,7,567,PS,intra_train,37,↑,right,→,0.4302475000731647,False,15,-,-,-
Y2-S2-156K20,7,568,PS,exp,48,→,right,→,0.5189551999792457,True,10,0,0,0
Y2-S2-156K20,7,569,PS,exp,32,↓,down,↓,0.6756534997839481,True,10,0,0,0
Y2-S2-156K20,7,570,PS,exp,44,←,right,→,0.7738463000860065,False,10,-1,0,0
Y2-S2-156K20,7,571,PS,exp,38,→,right,→,0.5306211998686194,True,11,-1,0,0
Y2-S2-156K20,7,572,PS,exp,36,↓,down,↓,0.6443940999452025,True,11,-1,0,0
Y2-S2-156K20,7,573,PS,exp,38,→,right,→,0.5030463000293821,True,11,1,1,1
Y2-S2-156K20,7,574,PS,exp,25,←,right,→,1.2327453000470996,False,10,-1,1,2
Y2-S2-156K20,7,575,PS,exp,25,↓,down,↓,0.513885400025174,True,11,-1,0,2
Y2-S2-156K20,7,576,PS,exp,32,→,right,→,0.47684370004571974,True,11,-1,0,2
Y2-S2-156K20,7,577,PS,exp,28,↓,down,↓,0.5577819999307394,True,11,1,1,3
Y2-S2-156K20,7,578,PS,exp,50,↑,up,↑,0.8883430000860244,True,10,1,0,3
Y2-S2-156K20,7,579,PS,exp,36,↓,left,←,0.5879784999415278,False,10,-1,1,4
Y2-S2-156K20,7,580,PS,exp,32,→,right,→,0.9612759000156075,True,11,-1,0,4
Y2-S2-156K20,7,581,PS,exp,26,←,left,←,0.7126968000084162,True,11,-1,0,4
Y2-S2-156K20,7,582,PS,exp,26,↑,up,↑,0.5194178000092506,True,11,1,1,5
Y2-S2-156K20,7,583,PS,exp,36,↓,right,→,0.8199810001533478,False,10,-1,1,6
Y2-S2-156K20,7,584,PS,exp,31,↑,up,↑,0.5185668999329209,True,11,-1,0,6
Y2-S2-156K20,7,585,PS,exp,47,↓,down,↓,1.1402089998591691,True,11,-1,0,6
Y2-S2-156K20,7,586,PS,exp,32,←,right,→,0.9335875001270324,False,11,-1,0,6
Y2-S2-156K20,7,587,PS,exp,31,↑,up,↑,0.47100680018775165,True,12,-1,0,6
Y2-S2-156K20,7,588,PS,exp,42,↓,down,↓,0.4925021999515593,True,12,-1,0,6
Y2-S2-156K20,7,589,PS,exp,47,↑,right,→,0.6714707999490201,False,12,-1,0,6
Y2-S2-156K20,7,590,PS,exp,36,↓,down,↓,0.8427490000613034,True,13,-1,0,6
Y2-S2-156K20,7,591,PS,exp,44,↑,up,↑,0.49257080000825226,True,13,-1,0,6
Y2-S2-156K20,7,592,PS,exp,27,→,left,←,0.8476647001225501,False,13,-1,0,6
Y2-S2-156K20,7,593,PS,exp,36,←,left,←,0.46456329990178347,True,14,-1,0,6
Y2-S2-156K20,7,594,PS,exp,27,↑,up,↑,0.5947632999159396,True,14,-1,0,6
Y2-S2-156K20,7,595,PS,exp,42,↓,down,↓,0.5433448001276702,True,14,1,1,7
Y2-S2-156K20,7,596,PS,exp,40,→,right,→,0.4157789999153465,True,13,1,0,7
Y2-S2-156K20,7,597,PS,exp,32,←,left,←,1.1565402001142502,True,13,1,0,7
Y2-S2-156K20,7,598,PS,exp,40,→,right,→,0.5791265999432653,True,13,1,0,7
Y2-S2-156K20,7,599,PS,exp,26,↓,down,↓,0.5480391001328826,True,12,1,0,7
Y2-S2-156K20,7,600,PS,exp,49,↑,up,↑,0.5605658998247236,True,12,1,0,7
Y2-S2-156K20,7,601,PS,exp,44,→,right,→,0.703668599948287,True,12,1,0,7
Y2-S2-156K20,7,602,PS,exp,44,←,right,→,0.9209039998240769,False,11,-1,1,8
Y2-S2-156K20,7,603,PS,exp,48,↓,left,←,0.9821916001383215,False,12,-1,0,8
Y2-S2-156K20,7,604,PS,exp,32,←,left,←,0.5418555000796914,True,13,-1,0,8
Y2-S2-156K20,7,605,PS,exp,42,↑,up,↑,0.5469827998895198,True,13,-1,0,8
Y2-S2-156K20,7,606,PS,exp,40,←,left,←,1.30883749993518,True,13,1,1,9
Y2-S2-156K20,7,607,PS,exp,39,↓,down,↓,0.5193716001231223,True,12,1,0,9
Y2-S2-156K20,7,608,PS,exp,27,←,left,←,0.5779309999197721,True,12,1,0,9
Y2-S2-156K20,7,609,PS,exp,28,↓,down,↓,0.7484959000721574,True,12,1,0,9
Y2-S2-156K20,7,610,PS,exp,46,←,left,←,0.5331114002037793,True,11,1,0,9
Y2-S2-156K20,7,611,PS,exp,30,↓,down,↓,0.4748625000938773,True,11,1,0,9
Y2-S2-156K20,7,612,PS,exp,36,→,right,→,0.4313795000780374,True,11,1,0,9
Y2-S2-156K20,7,613,PS,exp,27,←,left,←,0.503329599974677,True,10,1,0,9
Y2-S2-156K20,7,614,PS,exp,44,↓,down,↓,0.5481484001502395,True,10,1,0,9
Y2-S2-156K20,7,615,PS,exp,29,→,left,←,1.142922499915585,False,10,-1,1,10
Y2-S2-156K20,7,616,PS,exp,47,←,left,←,0.6486186999827623,True,11,-1,0,10
Y2-S2-156K20,7,617,PS,exp,30,↓,right,→,0.9159828000701964,False,11,-1,0,10
Y2-S2-156K20,7,618,PS,exp,49,↑,left,←,1.125363500090316,False,12,-1,0,10
Y2-S2-156K20,7,619,PS,exp,44,→,right,→,0.6402085002046078,True,13,-1,0,10
Y2-S2-156K20,7,620,PS,exp,37,↓,down,↓,0.7788287000730634,True,13,-1,0,10
Y2-S2-156K20,7,621,PS,exp,25,→,right,→,0.5544630999211222,True,13,1,1,11
Y2-S2-156K20,7,622,PS,exp,30,←,left,←,0.5984036000445485,True,12,1,0,11
Y2-S2-156K20,7,623,PS,exp,36,→,right,→,0.594012200133875,True,12,1,0,11
Y2-S2-156K20,7,624,PS,exp,38,↑,up,↑,0.4984540001023561,True,12,1,0,11
Y2-S2-156K20,7,625,PS,exp,46,→,right,→,0.4795917000155896,True,11,1,0,11
Y2-S2-156K20,7,626,PS,exp,35,↓,left,←,1.3668972000014037,False,11,-1,1,12
Y2-S2-156K20,7,627,PS,exp,50,←,left,←,0.5790498000569642,True,12,-1,0,12
Y2-S2-156K20,7,628,PS,exp,33,↓,left,←,0.9097971001174301,False,12,-1,0,12
Y2-S2-156K20,7,629,PS,exp,46,←,left,←,0.619393200147897,True,13,-1,0,12
Y2-S2-156K20,7,630,PS,exp,33,→,right,→,0.4784747001249343,True,13,-1,0,12
Y2-S2-156K20,7,631,PS,exp,50,↑,up,↑,0.5394617000129074,True,13,1,1,13
Y2-S2-156K20,7,632,PS,exp,40,←,left,←,0.5432470999658108,True,12,1,0,13
Y2-S2-156K20,7,633,PS,exp,28,↓,down,↓,0.5966356999706477,True,12,1,0,13
Y2-S2-156K20,7,634,PS,exp,48,←,left,←,0.5497208000160754,True,12,1,0,13
Y2-S2-156K20,7,635,PS,exp,47,↑,up,↑,0.5862948999274522,True,11,1,0,13
Y2-S2-156K20,7,636,PS,exp,31,↓,down,↓,0.6231543999165297,True,11,1,0,13
Y2-S2-156K20,7,637,PS,exp,43,→,right,→,0.5311686999630183,True,11,1,0,13
Y2-S2-156K20,7,638,PS,exp,30,↓,down,↓,0.6806034001056105,True,10,1,0,13
Y2-S2-156K20,7,639,PS,exp,37,←,left,←,0.5371586000546813,True,10,1,0,13
Y2-S2-156K20,7,640,PS,exp,30,↑,left,←,0.8286590999923646,False,10,-1,1,14
Y2-S2-156K20,7,641,PS,exp,26,→,right,→,0.6973832999356091,True,11,-1,0,14
Y2-S2-156K20,7,642,PS,exp,26,↑,up,↑,0.750070899957791,True,11,-1,0,14
Y2-S2-156K20,7,643,PS,exp,31,←,right,→,0.6669034999795258,False,11,-1,0,14
Y2-S2-156K20,7,644,PS,exp,27,↑,up,↑,0.5593195999972522,True,12,-1,0,14
Y2-S2-156K20,7,645,PS,exp,32,→,right,→,0.559024800080806,True,12,-1,0,14
Y2-S2-156K20,7,646,PS,exp,48,↑,up,↑,0.4543822999112308,True,12,1,1,15
Y2-S2-156K20,7,647,PS,exp,33,←,up,↑,0.8541266000829637,False,11,-1,1,16
Y2-S2-156K20,8,648,AS,intra_train,40,↓,down,↓,0.800182799808681,True,28,-,-,-
Y2-S2-156K20,8,649,AS,intra_train,26,←,left,←,0.5507700999733061,True,28,-,-,-
Y2-S2-156K20,8,650,AS,intra_train,25,→,right,→,0.6936083999462426,True,28,-,-,-
Y2-S2-156K20,8,651,AS,intra_train,35,↓,down,↓,0.6475434000603855,True,28,-,-,-
Y2-S2-156K20,8,652,AS,intra_train,34,←,right,→,0.8535372000187635,False,28,-,-,-
Y2-S2-156K20,8,653,AS,exp,39,↓,down,↓,0.6050986000336707,True,19,0,0,0
Y2-S2-156K20,8,654,AS,exp,36,→,right,→,0.7204368999227881,True,19,0,0,0
Y2-S2-156K20,8,655,AS,exp,30,↑,up,↑,0.5810998999513686,True,19,1,0,0
Y2-S2-156K20,8,656,AS,exp,33,←,left,←,0.5492249999660999,True,18,1,0,0
Y2-S2-156K20,8,657,AS,exp,29,→,right,→,0.6857024000491947,True,18,1,0,0
Y2-S2-156K20,8,658,AS,exp,41,←,right,→,0.7973904998507351,False,18,-1,1,1
Y2-S2-156K20,8,659,AS,exp,46,↑,up,↑,0.7983362998347729,True,19,-1,0,1
Y2-S2-156K20,8,660,AS,exp,27,↓,left,←,0.8885262999683619,False,19,-1,0,1
Y2-S2-156K20,8,661,AS,exp,47,↑,up,↑,0.6297169998288155,True,20,-1,0,1
Y2-S2-156K20,8,662,AS,exp,42,←,left,←,1.4732435999903828,True,20,-1,0,1
Y2-S2-156K20,8,663,AS,exp,27,↓,down,↓,0.699536900036037,True,20,1,1,2
Y2-S2-156K20,8,664,AS,exp,38,↑,up,↑,0.5810660999268293,True,19,1,0,2
Y2-S2-156K20,8,665,AS,exp,45,→,right,→,0.4175756999757141,True,19,1,0,2
Y2-S2-156K20,8,666,AS,exp,46,↓,down,↓,0.5852829001378268,True,19,1,0,2
Y2-S2-156K20,8,667,AS,exp,44,↑,up,↑,0.542097499826923,True,18,1,0,2
Y2-S2-156K20,8,668,AS,exp,32,↓,left,←,0.511225099908188,False,18,-1,1,3
Y2-S2-156K20,8,669,AS,exp,46,↑,up,↑,0.49058949993923306,True,19,-1,0,3
Y2-S2-156K20,8,670,AS,exp,41,←,right,→,0.6835811999626458,False,19,-1,0,3
Y2-S2-156K20,8,671,AS,exp,25,↓,up,↑,1.0320367000531405,False,20,-1,0,3
Y2-S2-156K20,8,672,AS,exp,35,↑,up,↑,0.7188591999001801,True,21,-1,0,3
Y2-S2-156K20,8,673,AS,exp,37,→,right,→,0.6740961000323296,True,21,-1,0,3
Y2-S2-156K20,8,674,AS,exp,50,↓,down,↓,0.7927419999614358,True,21,1,1,4
Y2-S2-156K20,8,675,AS,exp,30,→,right,→,0.4506346001289785,True,20,1,0,4
Y2-S2-156K20,8,676,AS,exp,28,↑,right,→,1.0032031999435276,False,20,-1,1,5
Y2-S2-156K20,8,677,AS,exp,44,←,left,←,0.7116562000010163,True,21,-1,0,5
Y2-S2-156K20,8,678,AS,exp,27,→,right,→,0.4506012999918312,True,21,-1,0,5
Y2-S2-156K20,8,679,AS,exp,30,↑,up,↑,1.4328263001516461,True,21,1,1,6
Y2-S2-156K20,8,680,AS,exp,36,↓,down,↓,0.5661251000128686,True,20,1,0,6
Y2-S2-156K20,8,681,AS,exp,50,↑,up,↑,0.8265001000836492,True,20,1,0,6
Y2-S2-156K20,8,682,AS,exp,25,↓,right,→,1.0708809001371264,False,20,-1,1,7
Y2-S2-156K20,8,683,AS,exp,47,→,right,→,0.7269058001693338,True,21,-1,0,7
Y2-S2-156K20,8,684,AS,exp,34,↓,down,↓,0.5513488999567926,True,21,-1,0,7
Y2-S2-156K20,8,685,AS,exp,25,←,left,←,1.5462942000012845,True,21,1,1,8
Y2-S2-156K20,8,686,AS,exp,44,↑,up,↑,0.603662199806422,True,20,1,0,8
Y2-S2-156K20,8,687,AS,exp,48,↓,right,→,0.701735399896279,False,20,-1,1,9
Y2-S2-156K20,8,688,AS,exp,46,↑,up,↑,0.400696599856019,True,21,-1,0,9
Y2-S2-156K20,8,689,AS,exp,28,↓,down,↓,0.5659994999878109,True,21,-1,0,9
Y2-S2-156K20,8,690,AS,exp,36,→,right,→,0.6478186999447644,True,21,1,1,10
Y2-S2-156K20,8,691,AS,exp,45,↑,up,↑,0.6479257999453694,True,20,1,0,10
Y2-S2-156K20,8,692,AS,exp,40,↓,up,↑,1.0184162000659853,False,20,-1,1,11
Y2-S2-156K20,8,693,AS,exp,29,←,left,←,0.7758076000027359,True,21,-1,0,11
Y2-S2-156K20,8,694,AS,exp,32,↓,down,↓,0.5408320999704301,True,21,-1,0,11
Y2-S2-156K20,8,695,AS,exp,25,→,no_key,no_letter,-1.0,False,21,-1,0,11
Y2-S2-156K20,8,696,AS,exp,28,↑,up,↑,0.4675664999522269,True,22,-1,0,11
Y2-S2-156K20,8,697,AS,exp,41,←,left,←,0.6781095999758691,True,22,-1,0,11
Y2-S2-156K20,8,698,AS,exp,42,↑,up,↑,0.5588276998605579,True,22,1,1,12
Y2-S2-156K20,8,699,AS,exp,32,→,right,→,0.9670051001012325,True,21,1,0,12
Y2-S2-156K20,8,700,AS,exp,49,↑,up,↑,0.8748717999551445,True,21,1,0,12
Y2-S2-156K20,8,701,AS,exp,25,↓,down,↓,0.7585634998977184,True,21,1,0,12
Y2-S2-156K20,8,702,AS,exp,25,←,left,←,0.5284643000923097,True,20,1,0,12
Y2-S2-156K20,8,703,AS,exp,27,→,right,→,0.4672417000401765,True,20,1,0,12
Y2-S2-156K20,8,704,AS,exp,47,↓,down,↓,1.2588391001336277,True,20,1,0,12
Y2-S2-156K20,8,705,AS,exp,28,→,right,→,1.0991267000790685,True,19,1,0,12
Y2-S2-156K20,8,706,AS,exp,37,←,left,←,0.5075917998328805,True,19,1,0,12
Y2-S2-156K20,8,707,AS,exp,37,↑,up,↑,0.7553436001762748,True,19,1,0,12
Y2-S2-156K20,8,708,AS,exp,44,←,left,←,1.1144713999237865,True,18,1,0,12
Y2-S2-156K20,8,709,AS,exp,48,↑,up,↑,0.8808835002128035,True,18,1,0,12
Y2-S2-156K20,8,710,AS,exp,40,↓,down,↓,0.6907482000533491,True,18,1,0,12
Y2-S2-156K20,8,711,AS,exp,38,→,right,→,0.6849513999186456,True,17,1,0,12
Y2-S2-156K20,8,712,AS,exp,37,↓,down,↓,0.5922338999807835,True,17,1,0,12
Y2-S2-156K20,8,713,AS,exp,39,←,right,→,0.5735015000682324,False,17,-1,1,13
Y2-S2-156K20,8,714,AS,exp,35,↑,right,→,1.0575309998821467,False,18,-1,0,13
Y2-S2-156K20,8,715,AS,exp,33,←,left,←,1.5221530999988317,True,19,-1,0,13
Y2-S2-156K20,8,716,AS,exp,46,↑,up,↑,0.7232176999095827,True,19,-1,0,13
Y2-S2-156K20,8,717,AS,exp,36,→,down,↓,0.888943700119853,False,19,-1,0,13
Y2-S2-156K20,8,718,AS,exp,30,←,left,←,0.6360989001113921,True,20,-1,0,13
Y2-S2-156K20,8,719,AS,exp,36,→,right,→,0.5216850000433624,True,20,-1,0,13
Y2-S2-156K20,8,720,AS,exp,38,←,left,←,0.9334413998294622,True,20,1,1,14
Y2-S2-156K20,8,721,AS,exp,49,→,right,→,0.6136352000758052,True,19,1,0,14
Y2-S2-156K20,8,722,AS,exp,40,↑,left,←,0.9400771001819521,False,19,-1,1,15
Y2-S2-156K20,8,723,AS,exp,46,→,right,→,0.7125160000286996,True,20,-1,0,15
Y2-S2-156K20,8,724,AS,exp,33,←,left,←,1.1407147999852896,True,20,-1,0,15
Y2-S2-156K20,8,725,AS,exp,37,↓,no_key,no_letter,-1.0,False,20,-1,0,15
Y2-S2-156K20,8,726,AS,exp,29,↑,up,↑,0.5347286001779139,True,21,-1,0,15
Y2-S2-156K20,8,727,AS,exp,35,←,down,↓,1.1150040000211447,False,21,-1,0,15
Y2-S2-156K20,8,728,AS,exp,46,→,right,→,0.5004980999510735,True,22,-1,0,15
Y2-S2-156K20,8,729,AS,exp,47,↑,left,←,1.3012945000082254,False,22,-1,0,15
Y2-S2-156K20,8,730,AS,exp,49,←,right,→,1.2185227000154555,False,23,-1,0,15
Y2-S2-156K20,8,731,AS,exp,44,↓,left,←,1.6121362999547273,False,24,-1,0,15
Y2-S2-156K20,8,732,AS,exp,48,←,left,←,1.6187082000542432,True,25,-1,0,15
Y2-S2-156K20,8,733,AS,exp,31,↑,up,↑,0.589206799864769,True,25,-1,0,15
Y2-S2-156K20,8,734,AS,exp,38,→,right,→,0.43381670000962913,True,25,1,1,16
