PART_ID,Block_no,Trial_no,Block_type,Trial_type,CSI,Stim_letter,Key_pressed,letter_choose,Rt,Corr,Stimulus Time,Level,Reversal,Revs_count
Y2-S2-248K22,1,1,PS,train,39,←,left,←,1.0964365000836551,True,30,-,-,-
Y2-S2-248K22,1,2,PS,train,28,↑,no_key,no_letter,-1.0,False,30,-,-,-
Y2-S2-248K22,1,3,PS,train,47,←,left,←,0.8438715999945998,True,30,-,-,-
Y2-S2-248K22,1,4,PS,train,38,↑,up,↑,1.9872363000176847,True,30,-,-,-
Y2-S2-248K22,1,5,PS,train,42,↓,down,↓,1.380531500093639,True,30,-,-,-
Y2-S2-248K22,1,6,PS,train,41,←,left,←,1.1116786000784487,True,30,-,-,-
Y2-S2-248K22,1,7,PS,train,28,↑,up,↑,1.1560209000017494,True,30,-,-,-
Y2-S2-248K22,1,8,PS,train,42,→,no_key,no_letter,-1.0,False,30,-,-,-
Y2-S2-248K22,1,9,PS,train,38,←,left,←,1.084600199945271,True,30,-,-,-
Y2-S2-248K22,1,10,PS,train,26,→,right,→,1.1101630998309702,True,30,-,-,-
Y2-S2-248K22,2,11,AS,train,42,←,left,←,1.2652133000083268,True,45,-,-,-
Y2-S2-248K22,2,12,AS,train,33,↑,up,↑,1.3220160999335349,True,45,-,-,-
Y2-S2-248K22,2,13,AS,train,41,↓,down,↓,1.5923439001198858,True,45,-,-,-
Y2-S2-248K22,2,14,AS,train,42,→,right,→,1.2669662998523563,True,45,-,-,-
Y2-S2-248K22,2,15,AS,train,44,↓,down,↓,1.5866674000862986,True,45,-,-,-
Y2-S2-248K22,2,16,AS,train,42,↑,up,↑,1.2670360999181867,True,45,-,-,-
Y2-S2-248K22,2,17,AS,train,34,↓,down,↓,1.3558677998371422,True,45,-,-,-
Y2-S2-248K22,2,18,AS,train,34,←,left,←,1.2282602000050247,True,45,-,-,-
Y2-S2-248K22,2,19,AS,train,49,↑,up,↑,1.2212115000002086,True,45,-,-,-
Y2-S2-248K22,2,20,AS,train,42,↓,down,↓,1.2483757000882179,True,45,-,-,-
Y2-S2-248K22,-,21,PS,adaptive,25,↑,up,↑,0.7392962998710573,True,10,0,0,0
Y2-S2-248K22,-,22,PS,adaptive,50,←,right,→,0.7659948000218719,False,10,-1,0,0
Y2-S2-248K22,-,23,PS,adaptive,42,→,right,→,0.7402440998703241,True,11,-1,0,0
Y2-S2-248K22,-,24,PS,adaptive,39,←,left,←,0.7285674999002367,True,11,-1,0,0
Y2-S2-248K22,-,25,PS,adaptive,38,↑,up,↑,0.9570826999843121,True,11,1,1,1
Y2-S2-248K22,-,26,PS,adaptive,35,→,right,→,0.7549242000095546,True,10,1,0,1
Y2-S2-248K22,-,27,PS,adaptive,39,↓,up,↑,0.9554376001469791,False,10,-1,1,2
Y2-S2-248K22,-,28,PS,adaptive,43,→,right,→,0.7355657999869436,True,11,-1,0,2
Y2-S2-248K22,-,29,PS,adaptive,26,↓,down,↓,1.4309493999462575,True,11,-1,0,2
Y2-S2-248K22,-,30,PS,adaptive,26,→,up,↑,0.9026172999292612,False,11,-1,0,2
Y2-S2-248K22,-,31,PS,adaptive,42,←,left,←,1.0015082000754774,True,12,-1,0,2
Y2-S2-248K22,-,32,PS,adaptive,32,↓,right,→,0.9400780000723898,False,12,-1,0,2
Y2-S2-248K22,-,33,PS,adaptive,50,←,left,←,0.7568475999869406,True,13,-1,0,2
Y2-S2-248K22,-,34,PS,adaptive,30,→,right,→,0.8718791999854147,True,13,-1,0,2
Y2-S2-248K22,-,35,PS,adaptive,42,↓,down,↓,0.8194063999690115,True,13,1,1,3
Y2-S2-248K22,-,36,PS,adaptive,27,←,right,→,0.893716000020504,False,12,-1,1,4
Y2-S2-248K22,-,37,AS,adaptive,26,↓,up,↑,1.2485881999600679,False,20,-1,0,0
Y2-S2-248K22,-,38,AS,adaptive,32,↑,up,↑,0.7976005000527948,True,21,-1,0,0
Y2-S2-248K22,-,39,AS,adaptive,36,←,left,←,0.8760267999023199,True,21,-1,0,0
Y2-S2-248K22,-,40,AS,adaptive,35,↓,down,↓,1.1644335999153554,True,21,1,1,1
Y2-S2-248K22,-,41,AS,adaptive,28,→,right,→,0.8249232999514788,True,20,1,0,1
Y2-S2-248K22,-,42,AS,adaptive,36,↓,down,↓,1.2637058000545949,True,20,1,0,1
Y2-S2-248K22,-,43,AS,adaptive,40,→,right,→,0.7817192000802606,True,20,1,0,1
Y2-S2-248K22,-,44,AS,adaptive,43,←,left,←,0.7914283000864089,True,19,1,0,1
Y2-S2-248K22,-,45,AS,adaptive,47,↓,up,↑,1.139164000051096,False,19,-1,1,2
Y2-S2-248K22,-,46,AS,adaptive,39,↑,up,↑,1.093624999979511,True,20,-1,0,2
Y2-S2-248K22,-,47,AS,adaptive,34,←,left,←,0.9056249998975545,True,20,-1,0,2
Y2-S2-248K22,-,48,AS,adaptive,25,→,right,→,0.5454236001241952,True,20,1,1,3
Y2-S2-248K22,-,49,AS,adaptive,48,↓,down,↓,1.0926800000015646,True,19,1,0,3
Y2-S2-248K22,-,50,AS,adaptive,30,←,left,←,0.8665843999478966,True,19,1,0,3
Y2-S2-248K22,-,51,AS,adaptive,29,↓,down,↓,1.0613907999359071,True,19,1,0,3
Y2-S2-248K22,-,52,AS,adaptive,25,→,right,→,0.7443778000306338,True,18,1,0,3
Y2-S2-248K22,-,53,AS,adaptive,49,←,left,←,0.9151312001049519,True,18,1,0,3
Y2-S2-248K22,-,54,AS,adaptive,47,→,right,→,0.841317200101912,True,18,1,0,3
Y2-S2-248K22,-,55,AS,adaptive,43,←,left,←,0.8375311999116093,True,17,1,0,3
Y2-S2-248K22,-,56,AS,adaptive,31,↑,up,↑,0.6994511000812054,True,17,1,0,3
Y2-S2-248K22,-,57,AS,adaptive,29,↓,down,↓,1.0017267998773605,True,17,1,0,3
Y2-S2-248K22,-,58,AS,adaptive,30,↑,down,↓,0.8433205999899656,False,16,-1,1,4
Y2-S2-248K22,1,59,AS,intra_train,47,→,right,→,0.8928728001192212,True,25,-,-,-
Y2-S2-248K22,1,60,AS,intra_train,32,↑,up,↑,0.9578555000480264,True,25,-,-,-
Y2-S2-248K22,1,61,AS,intra_train,33,→,right,→,0.8800391000695527,True,25,-,-,-
Y2-S2-248K22,1,62,AS,intra_train,42,←,left,←,0.8442589999176562,True,25,-,-,-
Y2-S2-248K22,1,63,AS,intra_train,37,→,right,→,0.9045565000269562,True,25,-,-,-
Y2-S2-248K22,1,64,AS,exp,45,↓,down,↓,1.2736949000973254,True,17,0,0,0
Y2-S2-248K22,1,65,AS,exp,31,←,right,→,0.9413848000112921,False,17,-1,0,0
Y2-S2-248K22,1,66,AS,exp,25,→,up,↑,1.4878716999664903,False,18,-1,0,0
Y2-S2-248K22,1,67,AS,exp,29,↑,up,↑,1.6925212000496686,True,19,-1,0,0
Y2-S2-248K22,1,68,AS,exp,32,→,right,→,0.8403545999899507,True,19,-1,0,0
Y2-S2-248K22,1,69,AS,exp,39,↓,down,↓,1.4268799000419676,True,19,1,1,1
Y2-S2-248K22,1,70,AS,exp,27,→,right,→,0.9162953000050038,True,18,1,0,1
Y2-S2-248K22,1,71,AS,exp,32,←,right,→,0.9661061000078917,False,18,-1,1,2
Y2-S2-248K22,1,72,AS,exp,37,↑,up,↑,0.863302499987185,True,19,-1,0,2
Y2-S2-248K22,1,73,AS,exp,43,→,left,←,0.8875431998167187,False,19,-1,0,2
Y2-S2-248K22,1,74,AS,exp,40,↓,up,↑,0.7817357000894845,False,20,-1,0,2
Y2-S2-248K22,1,75,AS,exp,50,←,left,←,0.7598349000327289,True,21,-1,0,2
Y2-S2-248K22,1,76,AS,exp,48,→,right,→,0.782163199968636,True,21,-1,0,2
Y2-S2-248K22,1,77,AS,exp,44,←,left,←,1.0421851000282913,True,21,1,1,3
Y2-S2-248K22,1,78,AS,exp,41,→,left,←,0.9051300999708474,False,20,-1,1,4
Y2-S2-248K22,1,79,AS,exp,28,←,left,←,0.7969559000339359,True,21,-1,0,4
Y2-S2-248K22,1,80,AS,exp,35,↓,down,↓,1.2535366998054087,True,21,-1,0,4
Y2-S2-248K22,1,81,AS,exp,49,↑,right,→,1.0557770000305027,False,21,-1,0,4
Y2-S2-248K22,1,82,AS,exp,30,←,left,←,0.9280737999361008,True,22,-1,0,4
Y2-S2-248K22,1,83,AS,exp,36,↑,up,↑,0.8460345000494272,True,22,-1,0,4
Y2-S2-248K22,1,84,AS,exp,37,↓,down,↓,1.1903429999947548,True,22,1,1,5
Y2-S2-248K22,1,85,AS,exp,42,→,right,→,0.7747317999601364,True,21,1,0,5
Y2-S2-248K22,1,86,AS,exp,43,↓,down,↓,1.0924702999182045,True,21,1,0,5
Y2-S2-248K22,1,87,AS,exp,35,←,left,←,0.8357575999107212,True,21,1,0,5
Y2-S2-248K22,1,88,AS,exp,47,↑,up,↑,1.1073810998350382,True,20,1,0,5
Y2-S2-248K22,1,89,AS,exp,42,←,left,←,0.7010264999698848,True,20,1,0,5
Y2-S2-248K22,1,90,AS,exp,25,→,right,→,0.5420635000336915,True,20,1,0,5
Y2-S2-248K22,1,91,AS,exp,48,↑,up,↑,0.7401131999213248,True,19,1,0,5
Y2-S2-248K22,1,92,AS,exp,39,→,left,←,0.8917401998769492,False,19,-1,1,6
Y2-S2-248K22,1,93,AS,exp,42,←,left,←,0.7298398001585156,True,20,-1,0,6
Y2-S2-248K22,1,94,AS,exp,44,↓,up,↑,0.9085486000403762,False,20,-1,0,6
Y2-S2-248K22,1,95,AS,exp,34,←,left,←,0.8051420000847429,True,21,-1,0,6
Y2-S2-248K22,1,96,AS,exp,44,↓,up,↑,1.519491400104016,False,21,-1,0,6
Y2-S2-248K22,1,97,AS,exp,36,→,right,→,0.8328400000464171,True,22,-1,0,6
Y2-S2-248K22,1,98,AS,exp,43,←,left,←,0.809107800014317,True,22,-1,0,6
Y2-S2-248K22,1,99,AS,exp,33,→,right,→,0.7684728000313044,True,22,1,1,7
Y2-S2-248K22,1,100,AS,exp,32,↑,up,↑,0.7754279000218958,True,21,1,0,7
Y2-S2-248K22,1,101,AS,exp,43,→,right,→,0.7458978001959622,True,21,1,0,7
Y2-S2-248K22,1,102,AS,exp,35,↓,down,↓,0.9975988001096994,True,21,1,0,7
Y2-S2-248K22,1,103,AS,exp,26,↑,up,↑,0.8056610999628901,True,20,1,0,7
Y2-S2-248K22,1,104,AS,exp,28,←,left,←,0.7770195000339299,True,20,1,0,7
Y2-S2-248K22,1,105,AS,exp,43,↓,down,↓,0.9503217998426408,True,20,1,0,7
Y2-S2-248K22,1,106,AS,exp,28,←,left,←,0.7828039000742137,True,19,1,0,7
Y2-S2-248K22,1,107,AS,exp,34,↑,up,↑,0.9021914000622928,True,19,1,0,7
Y2-S2-248K22,1,108,AS,exp,47,←,left,←,0.7764357000123709,True,19,1,0,7
Y2-S2-248K22,1,109,AS,exp,35,↓,down,↓,1.058885799953714,True,18,1,0,7
Y2-S2-248K22,1,110,AS,exp,30,→,right,→,0.7011237998958677,True,18,1,0,7
Y2-S2-248K22,1,111,AS,exp,35,↓,down,↓,0.9163031000643969,True,18,1,0,7
Y2-S2-248K22,1,112,AS,exp,42,←,right,→,0.8170914999209344,False,17,-1,1,8
Y2-S2-248K22,1,113,AS,exp,42,↑,up,↑,0.7273430000059307,True,18,-1,0,8
Y2-S2-248K22,1,114,AS,exp,43,←,left,←,0.7534719000104815,True,18,-1,0,8
Y2-S2-248K22,1,115,AS,exp,39,↓,down,↓,1.034961000084877,True,18,1,1,9
Y2-S2-248K22,1,116,AS,exp,32,↑,up,↑,0.7805657000280917,True,17,1,0,9
Y2-S2-248K22,1,117,AS,exp,41,↓,down,↓,1.0500037998426706,True,17,1,0,9
Y2-S2-248K22,1,118,AS,exp,48,←,left,←,0.7692980000283569,True,17,1,0,9
Y2-S2-248K22,1,119,AS,exp,42,↓,down,↓,0.7544416999444366,True,16,1,0,9
Y2-S2-248K22,1,120,AS,exp,40,→,left,←,0.7740205000154674,False,16,-1,1,10
Y2-S2-248K22,1,121,AS,exp,35,↓,down,↓,0.9125081000383943,True,17,-1,0,10
Y2-S2-248K22,1,122,AS,exp,29,↑,up,↑,0.7067252001725137,True,17,-1,0,10
Y2-S2-248K22,1,123,AS,exp,48,←,left,←,0.6777178000193089,True,17,1,1,11
Y2-S2-248K22,1,124,AS,exp,45,→,right,→,0.8198652998544276,True,16,1,0,11
Y2-S2-248K22,1,125,AS,exp,50,↓,down,↓,0.9286082000471652,True,16,1,0,11
Y2-S2-248K22,1,126,AS,exp,44,↑,up,↑,1.2174228001385927,True,16,1,0,11
Y2-S2-248K22,1,127,AS,exp,31,↓,down,↓,0.9662132000084966,True,15,1,0,11
Y2-S2-248K22,1,128,AS,exp,47,←,left,←,0.6491476001683623,True,15,1,0,11
Y2-S2-248K22,1,129,AS,exp,49,→,right,→,0.9145037999842316,True,15,1,0,11
Y2-S2-248K22,1,130,AS,exp,41,↓,down,↓,0.8746476001106203,True,14,1,0,11
Y2-S2-248K22,1,131,AS,exp,29,↑,up,↑,0.7532063000835478,True,14,1,0,11
Y2-S2-248K22,1,132,AS,exp,44,→,left,←,0.6936870000790805,False,14,-1,1,12
Y2-S2-248K22,1,133,AS,exp,33,↑,up,↑,0.5158581000287086,True,15,-1,0,12
Y2-S2-248K22,1,134,AS,exp,25,→,up,↑,1.111904100049287,False,15,-1,0,12
Y2-S2-248K22,1,135,AS,exp,38,←,left,←,0.8835279000923038,True,16,-1,0,12
Y2-S2-248K22,1,136,AS,exp,39,↑,up,↑,0.7127280000131577,True,16,-1,0,12
Y2-S2-248K22,1,137,AS,exp,31,↓,down,↓,0.926063199993223,True,16,1,1,13
Y2-S2-248K22,1,138,AS,exp,36,←,left,←,0.7405925998464227,True,15,1,0,13
Y2-S2-248K22,1,139,AS,exp,25,↓,down,↓,0.750276800012216,True,15,1,0,13
Y2-S2-248K22,1,140,AS,exp,32,→,left,←,0.8273238998372108,False,15,-1,1,14
Y2-S2-248K22,1,141,AS,exp,26,↑,up,↑,0.8091981001198292,True,16,-1,0,14
Y2-S2-248K22,1,142,AS,exp,32,↓,down,↓,0.8008629998657852,True,16,-1,0,14
Y2-S2-248K22,1,143,AS,exp,36,↑,up,↑,1.1580352000892162,True,16,1,1,15
Y2-S2-248K22,1,144,AS,exp,38,↓,down,↓,0.9314766998868436,True,15,1,0,15
Y2-S2-248K22,1,145,AS,exp,35,←,left,←,0.7783152000047266,True,15,1,0,15
Y2-S2-248K22,1,146,AS,exp,48,→,left,←,0.7653704998083413,False,15,-1,1,16
Y2-S2-248K22,2,147,PS,intra_train,45,↓,down,↓,0.9347318999934942,True,19,-,-,-
Y2-S2-248K22,2,148,PS,intra_train,44,→,right,→,1.0049970999825746,True,19,-,-,-
Y2-S2-248K22,2,149,PS,intra_train,40,↑,up,↑,0.7357904000673443,True,19,-,-,-
Y2-S2-248K22,2,150,PS,intra_train,40,→,up,↑,1.0303680999204516,False,19,-,-,-
Y2-S2-248K22,2,151,PS,intra_train,33,↓,down,↓,1.010541700059548,True,19,-,-,-
Y2-S2-248K22,2,152,PS,exp,49,←,left,←,0.8706628000363708,True,13,0,0,0
Y2-S2-248K22,2,153,PS,exp,25,↓,left,←,0.8992680998053402,False,13,-1,0,0
Y2-S2-248K22,2,154,PS,exp,34,←,left,←,0.6675562998279929,True,14,-1,0,0
Y2-S2-248K22,2,155,PS,exp,40,↑,down,↓,1.2633591000922024,False,14,-1,0,0
Y2-S2-248K22,2,156,PS,exp,45,←,left,←,0.6775272998493165,True,15,-1,0,0
Y2-S2-248K22,2,157,PS,exp,46,→,right,→,0.7694343000184745,True,15,-1,0,0
Y2-S2-248K22,2,158,PS,exp,50,←,left,←,0.6412136000581086,True,15,1,1,1
Y2-S2-248K22,2,159,PS,exp,39,→,left,←,0.9134194001089782,False,14,-1,1,2
Y2-S2-248K22,2,160,PS,exp,46,↓,down,↓,0.9736179001629353,True,15,-1,0,2
Y2-S2-248K22,2,161,PS,exp,40,←,left,←,0.7587439999915659,True,15,-1,0,2
Y2-S2-248K22,2,162,PS,exp,31,↑,down,↓,0.9499428998678923,False,15,-1,0,2
Y2-S2-248K22,2,163,PS,exp,27,←,left,←,0.8012431999668479,True,16,-1,0,2
Y2-S2-248K22,2,164,PS,exp,36,→,right,→,0.763606799999252,True,16,-1,0,2
Y2-S2-248K22,2,165,PS,exp,50,↑,up,↑,0.6996258001308888,True,16,1,1,3
Y2-S2-248K22,2,166,PS,exp,38,→,left,←,0.9327169000171125,False,15,-1,1,4
Y2-S2-248K22,2,167,PS,exp,44,←,left,←,0.7238292000256479,True,16,-1,0,4
Y2-S2-248K22,2,168,PS,exp,49,↓,up,↑,0.8259580999147147,False,16,-1,0,4
Y2-S2-248K22,2,169,PS,exp,39,←,left,←,1.001230400055647,True,17,-1,0,4
Y2-S2-248K22,2,170,PS,exp,46,↑,up,↑,0.5640153000131249,True,17,-1,0,4
Y2-S2-248K22,2,171,PS,exp,50,→,left,←,0.8263877998106182,False,17,-1,0,4
Y2-S2-248K22,2,172,PS,exp,44,↓,down,↓,1.0756458002142608,True,18,-1,0,4
Y2-S2-248K22,2,173,PS,exp,39,←,up,↑,1.0668321000412107,False,18,-1,0,4
Y2-S2-248K22,2,174,PS,exp,35,→,left,←,0.8146432000212371,False,19,-1,0,4
Y2-S2-248K22,2,175,PS,exp,40,↓,down,↓,0.9107840999495238,True,20,-1,0,4
Y2-S2-248K22,2,176,PS,exp,25,→,down,↓,1.1385189997963607,False,20,-1,0,4
Y2-S2-248K22,2,177,PS,exp,34,↓,up,↑,0.9847114998847246,False,21,-1,0,4
Y2-S2-248K22,2,178,PS,exp,43,→,right,→,0.7335550000425428,True,22,-1,0,4
Y2-S2-248K22,2,179,PS,exp,35,←,left,←,1.0473084999248385,True,22,-1,0,4
Y2-S2-248K22,2,180,PS,exp,48,↑,up,↑,0.7684532999992371,True,22,1,1,5
Y2-S2-248K22,2,181,PS,exp,29,→,right,→,0.7602758000139147,True,21,1,0,5
Y2-S2-248K22,2,182,PS,exp,32,↓,no_key,no_letter,-1.0,False,21,-1,1,6
Y2-S2-248K22,2,183,PS,exp,32,→,right,→,0.62957390001975,True,22,-1,0,6
Y2-S2-248K22,2,184,PS,exp,33,←,right,→,1.1250428999774158,False,22,-1,0,6
Y2-S2-248K22,2,185,PS,exp,30,↑,up,↑,0.7486137000378221,True,23,-1,0,6
Y2-S2-248K22,2,186,PS,exp,48,↓,up,↑,1.4279388999566436,False,23,-1,0,6
Y2-S2-248K22,2,187,PS,exp,41,←,left,←,0.8835875999648124,True,24,-1,0,6
Y2-S2-248K22,2,188,PS,exp,32,→,right,→,0.8255968000739813,True,24,-1,0,6
Y2-S2-248K22,2,189,PS,exp,34,←,left,←,0.8429747000336647,True,24,1,1,7
Y2-S2-248K22,2,190,PS,exp,44,↓,down,↓,0.9590495000593364,True,23,1,0,7
Y2-S2-248K22,2,191,PS,exp,46,↑,up,↑,0.5006107999943197,True,23,1,0,7
Y2-S2-248K22,2,192,PS,exp,35,→,right,→,0.7897615998517722,True,23,1,0,7
Y2-S2-248K22,2,193,PS,exp,44,↓,left,←,0.9270379000809044,False,22,-1,1,8
Y2-S2-248K22,2,194,PS,exp,35,←,left,←,0.9305314000230283,True,23,-1,0,8
Y2-S2-248K22,2,195,PS,exp,45,↓,down,↓,1.2640893999487162,True,23,-1,0,8
Y2-S2-248K22,2,196,PS,exp,42,↑,up,↑,0.8774900999851525,True,23,1,1,9
Y2-S2-248K22,2,197,PS,exp,32,←,right,→,1.1563142999075353,False,22,-1,1,10
Y2-S2-248K22,2,198,PS,exp,41,↑,up,↑,1.5613713001366705,True,23,-1,0,10
Y2-S2-248K22,2,199,PS,exp,37,→,right,→,0.5812446000054479,True,23,-1,0,10
Y2-S2-248K22,2,200,PS,exp,36,↑,up,↑,0.5011277999728918,True,23,1,1,11
Y2-S2-248K22,2,201,PS,exp,27,←,left,←,0.5664209998212755,True,22,1,0,11
Y2-S2-248K22,2,202,PS,exp,42,↑,up,↑,0.5004640999250114,True,22,1,0,11
Y2-S2-248K22,2,203,PS,exp,31,↓,up,↑,1.1156627999152988,False,22,-1,1,12
Y2-S2-248K22,2,204,PS,exp,45,→,right,→,0.750458599999547,True,23,-1,0,12
Y2-S2-248K22,2,205,PS,exp,39,←,left,←,0.8656828999519348,True,23,-1,0,12
Y2-S2-248K22,2,206,PS,exp,32,→,right,→,0.8250363999977708,True,23,1,1,13
Y2-S2-248K22,2,207,PS,exp,34,↑,up,↑,1.4868311998434365,True,22,1,0,13
Y2-S2-248K22,2,208,PS,exp,30,←,left,←,0.7337495000101626,True,22,1,0,13
Y2-S2-248K22,2,209,PS,exp,46,→,right,→,0.500897099962458,True,22,1,0,13
Y2-S2-248K22,2,210,PS,exp,37,←,no_key,no_letter,-1.0,False,21,-1,1,14
Y2-S2-248K22,2,211,PS,exp,33,↓,down,↓,1.0683990998659283,True,22,-1,0,14
Y2-S2-248K22,2,212,PS,exp,30,→,right,→,0.8012475001160055,True,22,-1,0,14
Y2-S2-248K22,2,213,PS,exp,36,↓,down,↓,1.0376145998016,True,22,1,1,15
Y2-S2-248K22,2,214,PS,exp,26,↑,up,↑,0.8157356001902372,True,21,1,0,15
Y2-S2-248K22,2,215,PS,exp,47,→,right,→,0.7992946000304073,True,21,1,0,15
Y2-S2-248K22,2,216,PS,exp,40,↑,up,↑,0.7566311999689788,True,21,1,0,15
Y2-S2-248K22,2,217,PS,exp,47,→,right,→,0.7852107998915017,True,20,1,0,15
Y2-S2-248K22,2,218,PS,exp,26,↓,down,↓,0.9324688999913633,True,20,1,0,15
Y2-S2-248K22,2,219,PS,exp,25,←,right,→,0.8574376001488417,False,20,-1,1,16
Y2-S2-248K22,3,220,PS,intra_train,39,→,left,←,0.9534616998862475,False,19,-,-,-
Y2-S2-248K22,3,221,PS,intra_train,27,←,left,←,0.7997313998639584,True,19,-,-,-
Y2-S2-248K22,3,222,PS,intra_train,37,↓,down,↓,0.9266684998292476,True,19,-,-,-
Y2-S2-248K22,3,223,PS,intra_train,43,←,left,←,0.7050383999012411,True,19,-,-,-
Y2-S2-248K22,3,224,PS,intra_train,25,↑,up,↑,0.8693840000778437,True,19,-,-,-
Y2-S2-248K22,3,225,PS,exp,30,→,right,→,0.715358299901709,True,13,0,0,0
Y2-S2-248K22,3,226,PS,exp,44,←,left,←,0.8915299000218511,True,13,0,0,0
Y2-S2-248K22,3,227,PS,exp,34,↓,down,↓,0.9394466001540422,True,13,1,0,0
Y2-S2-248K22,3,228,PS,exp,35,→,left,←,0.7283820000011474,False,12,-1,1,1
Y2-S2-248K22,3,229,PS,exp,33,↑,up,↑,0.7330072999466211,True,13,-1,0,1
Y2-S2-248K22,3,230,PS,exp,40,↓,down,↓,0.8769543000962585,True,13,-1,0,1
Y2-S2-248K22,3,231,PS,exp,38,←,left,←,0.7707958000246435,True,13,1,1,2
Y2-S2-248K22,3,232,PS,exp,42,↓,down,↓,0.82413119985722,True,12,1,0,2
Y2-S2-248K22,3,233,PS,exp,28,↑,up,↑,1.0023851001169533,True,12,1,0,2
Y2-S2-248K22,3,234,PS,exp,30,↓,down,↓,0.7711400000844151,True,12,1,0,2
Y2-S2-248K22,3,235,PS,exp,42,→,right,→,0.6471213998738676,True,11,1,0,2
Y2-S2-248K22,3,236,PS,exp,49,↑,up,↑,0.6391553999856114,True,11,1,0,2
Y2-S2-248K22,3,237,PS,exp,50,→,left,←,0.6979259999934584,False,11,-1,1,3
Y2-S2-248K22,3,238,PS,exp,49,←,left,←,1.093174000037834,True,12,-1,0,3
Y2-S2-248K22,3,239,PS,exp,27,↓,down,↓,1.1175299999304116,True,12,-1,0,3
Y2-S2-248K22,3,240,PS,exp,28,↑,right,→,0.9236886000726372,False,12,-1,0,3
Y2-S2-248K22,3,241,PS,exp,31,↓,up,↑,1.0703216001857072,False,13,-1,0,3
Y2-S2-248K22,3,242,PS,exp,35,→,right,→,0.7623451999388635,True,14,-1,0,3
Y2-S2-248K22,3,243,PS,exp,49,↓,down,↓,0.8526105000637472,True,14,-1,0,3
Y2-S2-248K22,3,244,PS,exp,44,←,left,←,0.5911714001558721,True,14,1,1,4
Y2-S2-248K22,3,245,PS,exp,27,↑,down,↓,0.9570073999930173,False,13,-1,1,5
Y2-S2-248K22,3,246,PS,exp,47,→,right,→,0.6763444999232888,True,14,-1,0,5
Y2-S2-248K22,3,247,PS,exp,37,↓,down,↓,0.7079201999586076,True,14,-1,0,5
Y2-S2-248K22,3,248,PS,exp,44,→,down,↓,0.872821600176394,False,14,-1,0,5
Y2-S2-248K22,3,249,PS,exp,47,↑,down,↓,0.8055243000853807,False,15,-1,0,5
Y2-S2-248K22,3,250,PS,exp,44,↓,down,↓,1.092473200056702,True,16,-1,0,5
Y2-S2-248K22,3,251,PS,exp,41,←,left,←,0.8247616000007838,True,16,-1,0,5
Y2-S2-248K22,3,252,PS,exp,29,↑,up,↑,0.851617299951613,True,16,1,1,6
Y2-S2-248K22,3,253,PS,exp,41,←,left,←,0.637166399974376,True,15,1,0,6
Y2-S2-248K22,3,254,PS,exp,36,↑,up,↑,0.6670721999835223,True,15,1,0,6
Y2-S2-248K22,3,255,PS,exp,25,→,right,→,0.7242857997771353,True,15,1,0,6
Y2-S2-248K22,3,256,PS,exp,48,←,right,→,0.8035715001169592,False,14,-1,1,7
Y2-S2-248K22,3,257,PS,exp,50,→,right,→,0.676978699862957,True,15,-1,0,7
Y2-S2-248K22,3,258,PS,exp,31,↑,up,↑,1.187894199974835,True,15,-1,0,7
Y2-S2-248K22,3,259,PS,exp,37,←,right,→,0.9094196998048574,False,15,-1,0,7
Y2-S2-248K22,3,260,PS,exp,28,↓,left,←,1.2958574001677334,False,16,-1,0,7
Y2-S2-248K22,3,261,PS,exp,25,↑,right,→,0.9566468000411987,False,17,-1,0,7
Y2-S2-248K22,3,262,PS,exp,34,↓,down,↓,1.1282057999633253,True,18,-1,0,7
Y2-S2-248K22,3,263,PS,exp,46,→,right,→,0.6759897000156343,True,18,-1,0,7
Y2-S2-248K22,3,264,PS,exp,44,←,right,→,0.8014720999635756,False,18,-1,0,7
Y2-S2-248K22,3,265,PS,exp,46,↓,down,↓,0.8623808000702411,True,19,-1,0,7
Y2-S2-248K22,3,266,PS,exp,36,↑,up,↑,0.7744793999008834,True,19,-1,0,7
Y2-S2-248K22,3,267,PS,exp,27,↓,down,↓,1.0291236999910325,True,19,1,1,8
Y2-S2-248K22,3,268,PS,exp,49,←,right,→,0.626266400096938,False,18,-1,1,9
Y2-S2-248K22,3,269,PS,exp,38,↓,down,↓,1.1337393000721931,True,19,-1,0,9
Y2-S2-248K22,3,270,PS,exp,25,←,left,←,0.747033900115639,True,19,-1,0,9
Y2-S2-248K22,3,271,PS,exp,44,↓,down,↓,0.9416930999141186,True,19,1,1,10
Y2-S2-248K22,3,272,PS,exp,43,←,left,←,0.5543023999780416,True,18,1,0,10
Y2-S2-248K22,3,273,PS,exp,44,↓,down,↓,0.9004142999183387,True,18,1,0,10
Y2-S2-248K22,3,274,PS,exp,44,←,left,←,0.7997793999966234,True,18,1,0,10
Y2-S2-248K22,3,275,PS,exp,44,→,right,→,0.6307816000189632,True,17,1,0,10
Y2-S2-248K22,3,276,PS,exp,30,↑,up,↑,1.0303141998592764,True,17,1,0,10
Y2-S2-248K22,3,277,PS,exp,29,↓,down,↓,0.922519400017336,True,17,1,0,10
Y2-S2-248K22,3,278,PS,exp,45,→,left,←,0.7710045001003891,False,16,-1,1,11
Y2-S2-248K22,3,279,PS,exp,41,←,left,←,0.7122114000376314,True,17,-1,0,11
Y2-S2-248K22,3,280,PS,exp,30,→,right,→,0.5839740999508649,True,17,-1,0,11
Y2-S2-248K22,3,281,PS,exp,47,↑,up,↑,0.8045744001865387,True,17,1,1,12
Y2-S2-248K22,3,282,PS,exp,43,→,left,←,0.9129047999158502,False,16,-1,1,13
Y2-S2-248K22,3,283,PS,exp,43,←,left,←,0.6967865999322385,True,17,-1,0,13
Y2-S2-248K22,3,284,PS,exp,42,↓,down,↓,0.5504876000341028,True,17,-1,0,13
Y2-S2-248K22,3,285,PS,exp,43,←,left,←,1.1254336999263614,True,17,1,1,14
Y2-S2-248K22,3,286,PS,exp,27,→,right,→,0.7061440001707524,True,16,1,0,14
Y2-S2-248K22,3,287,PS,exp,50,↑,left,←,0.7984717001672834,False,16,-1,1,15
Y2-S2-248K22,3,288,PS,exp,35,↓,left,←,0.8923866001423448,False,17,-1,0,15
Y2-S2-248K22,3,289,PS,exp,42,↑,up,↑,1.09803680004552,True,18,-1,0,15
Y2-S2-248K22,3,290,PS,exp,48,→,right,→,0.6536388001404703,True,18,-1,0,15
Y2-S2-248K22,3,291,PS,exp,50,↑,right,→,0.9220153999049217,False,18,-1,0,15
Y2-S2-248K22,3,292,PS,exp,37,←,right,→,0.8914443000685424,False,19,-1,0,15
Y2-S2-248K22,3,293,PS,exp,35,↓,right,→,0.9009672000538558,False,20,-1,0,15
Y2-S2-248K22,3,294,PS,exp,40,←,left,←,0.5280422999057919,True,21,-1,0,15
Y2-S2-248K22,3,295,PS,exp,36,↓,down,↓,1.0743889999575913,True,21,-1,0,15
Y2-S2-248K22,3,296,PS,exp,29,←,left,←,0.8901555000338703,True,21,1,1,16
Y2-S2-248K22,4,297,AS,intra_train,40,→,right,→,1.0307271000929177,True,25,-,-,-
Y2-S2-248K22,4,298,AS,intra_train,32,↓,down,↓,1.0915066997986287,True,25,-,-,-
Y2-S2-248K22,4,299,AS,intra_train,41,→,right,→,0.9040397999342531,True,25,-,-,-
Y2-S2-248K22,4,300,AS,intra_train,39,←,left,←,0.9529313000384718,True,25,-,-,-
Y2-S2-248K22,4,301,AS,intra_train,48,→,right,→,0.9444256001152098,True,25,-,-,-
Y2-S2-248K22,4,302,AS,exp,42,←,right,→,0.98887770017609,False,17,-1,0,0
Y2-S2-248K22,4,303,AS,exp,48,→,right,→,0.838440999854356,True,18,-1,0,0
Y2-S2-248K22,4,304,AS,exp,39,↓,down,↓,1.1111580000724643,True,18,-1,0,0
Y2-S2-248K22,4,305,AS,exp,30,↑,up,↑,0.8625809999648482,True,18,1,1,1
Y2-S2-248K22,4,306,AS,exp,30,←,left,←,0.8564271999057382,True,17,1,0,1
Y2-S2-248K22,4,307,AS,exp,34,↑,up,↑,0.822542899986729,True,17,1,0,1
Y2-S2-248K22,4,308,AS,exp,32,↓,down,↓,1.1951496999245137,True,17,1,0,1
Y2-S2-248K22,4,309,AS,exp,39,←,left,←,0.8079520000610501,True,16,1,0,1
Y2-S2-248K22,4,310,AS,exp,49,↓,right,→,0.7901043999008834,False,16,-1,1,2
Y2-S2-248K22,4,311,AS,exp,40,←,left,←,0.9169634999707341,True,17,-1,0,2
Y2-S2-248K22,4,312,AS,exp,47,→,left,←,0.8787362000439316,False,17,-1,0,2
Y2-S2-248K22,4,313,AS,exp,28,↑,up,↑,0.6831518998369575,True,18,-1,0,2
Y2-S2-248K22,4,314,AS,exp,26,←,left,←,0.832094700075686,True,18,-1,0,2
Y2-S2-248K22,4,315,AS,exp,49,↑,left,←,0.8497948998119682,False,18,-1,0,2
Y2-S2-248K22,4,316,AS,exp,50,↓,down,↓,1.2227394999936223,True,19,-1,0,2
Y2-S2-248K22,4,317,AS,exp,40,↑,up,↑,1.0103484999854118,True,19,-1,0,2
Y2-S2-248K22,4,318,AS,exp,44,→,right,→,0.7946657000575215,True,19,1,1,3
Y2-S2-248K22,4,319,AS,exp,31,↑,up,↑,0.5487301000393927,True,18,1,0,3
Y2-S2-248K22,4,320,AS,exp,43,←,left,←,0.7270502001047134,True,18,1,0,3
Y2-S2-248K22,4,321,AS,exp,48,↑,down,↓,1.2473023000638932,False,18,-1,1,4
Y2-S2-248K22,4,322,AS,exp,26,←,right,→,0.8497520999517292,False,19,-1,0,4
Y2-S2-248K22,4,323,AS,exp,50,→,right,→,0.6909858998842537,True,20,-1,0,4
Y2-S2-248K22,4,324,AS,exp,47,↑,right,→,1.03304239991121,False,20,-1,0,4
Y2-S2-248K22,4,325,AS,exp,41,←,left,←,0.8190226999577135,True,21,-1,0,4
Y2-S2-248K22,4,326,AS,exp,31,↓,left,←,1.2390875001437962,False,21,-1,0,4
Y2-S2-248K22,4,327,AS,exp,26,↑,up,↑,0.8899995998945087,True,22,-1,0,4
Y2-S2-248K22,4,328,AS,exp,43,←,left,←,0.7837757999077439,True,22,-1,0,4
Y2-S2-248K22,4,329,AS,exp,48,↑,down,↓,0.5512853998225182,False,22,-1,0,4
Y2-S2-248K22,4,330,AS,exp,45,↓,down,↓,1.2378047998063266,True,23,-1,0,4
Y2-S2-248K22,4,331,AS,exp,34,→,right,→,0.8109895999077708,True,23,-1,0,4
Y2-S2-248K22,4,332,AS,exp,29,↑,down,↓,1.2163034998811781,False,23,-1,0,4
Y2-S2-248K22,4,333,AS,exp,34,↓,down,↓,1.0178449000231922,True,24,-1,0,4
Y2-S2-248K22,4,334,AS,exp,29,↑,up,↑,1.1519864001311362,True,24,-1,0,4
Y2-S2-248K22,4,335,AS,exp,49,→,right,→,0.8139972998760641,True,24,1,1,5
Y2-S2-248K22,4,336,AS,exp,35,↑,up,↑,0.8672631999943405,True,23,1,0,5
Y2-S2-248K22,4,337,AS,exp,50,←,left,←,0.8126179999671876,True,23,1,0,5
Y2-S2-248K22,4,338,AS,exp,30,↑,up,↑,0.7096488999668509,True,23,1,0,5
Y2-S2-248K22,4,339,AS,exp,30,↓,down,↓,0.9441173998638988,True,22,1,0,5
Y2-S2-248K22,4,340,AS,exp,25,→,right,→,0.8018390000797808,True,22,1,0,5
Y2-S2-248K22,4,341,AS,exp,35,↑,up,↑,0.7940996999386698,True,22,1,0,5
Y2-S2-248K22,4,342,AS,exp,30,←,left,←,0.6759947000537068,True,21,1,0,5
Y2-S2-248K22,4,343,AS,exp,27,→,right,→,1.1862022001296282,True,21,1,0,5
Y2-S2-248K22,4,344,AS,exp,25,↑,up,↑,0.5883015999570489,True,21,1,0,5
Y2-S2-248K22,4,345,AS,exp,47,↓,down,↓,1.2193128000944853,True,20,1,0,5
Y2-S2-248K22,4,346,AS,exp,32,→,right,→,0.7327776001766324,True,20,1,0,5
Y2-S2-248K22,4,347,AS,exp,30,←,left,←,0.7906912001781166,True,20,1,0,5
Y2-S2-248K22,4,348,AS,exp,35,→,right,→,0.6363274999894202,True,19,1,0,5
Y2-S2-248K22,4,349,AS,exp,30,↑,up,↑,0.5489604000467807,True,19,1,0,5
Y2-S2-248K22,4,350,AS,exp,46,←,left,←,0.7752517000772059,True,19,1,0,5
Y2-S2-248K22,4,351,AS,exp,40,→,right,→,0.6895365999080241,True,18,1,0,5
Y2-S2-248K22,4,352,AS,exp,25,↓,down,↓,1.0303764999844134,True,18,1,0,5
Y2-S2-248K22,4,353,AS,exp,47,←,left,←,0.8206525999121368,True,18,1,0,5
Y2-S2-248K22,4,354,AS,exp,37,→,right,→,0.7910058000124991,True,17,1,0,5
Y2-S2-248K22,4,355,AS,exp,38,↑,up,↑,0.7410613999236375,True,17,1,0,5
Y2-S2-248K22,4,356,AS,exp,41,↓,down,↓,1.582838699920103,True,17,1,0,5
Y2-S2-248K22,4,357,AS,exp,42,←,left,←,0.8025588998571038,True,16,1,0,5
Y2-S2-248K22,4,358,AS,exp,48,↓,up,↑,0.9085303000174463,False,16,-1,1,6
Y2-S2-248K22,4,359,AS,exp,28,↑,up,↑,0.8762614999432117,True,17,-1,0,6
Y2-S2-248K22,4,360,AS,exp,31,←,left,←,0.7374573999550194,True,17,-1,0,6
Y2-S2-248K22,4,361,AS,exp,45,↑,up,↑,0.5433400999754667,True,17,1,1,7
Y2-S2-248K22,4,362,AS,exp,26,→,left,←,0.8211559001356363,False,16,-1,1,8
Y2-S2-248K22,4,363,AS,exp,38,↓,down,↓,1.288377699907869,True,17,-1,0,8
Y2-S2-248K22,4,364,AS,exp,33,→,right,→,0.6297140999231488,True,17,-1,0,8
Y2-S2-248K22,4,365,AS,exp,50,↑,up,↑,0.8366126001346856,True,17,1,1,9
Y2-S2-248K22,4,366,AS,exp,44,→,down,↓,1.0549473999999464,False,16,-1,1,10
Y2-S2-248K22,4,367,AS,exp,37,↑,up,↑,0.8710052000824362,True,17,-1,0,10
Y2-S2-248K22,4,368,AS,exp,27,←,left,←,0.6454588999040425,True,17,-1,0,10
Y2-S2-248K22,4,369,AS,exp,36,↑,up,↑,1.0419677998870611,True,17,1,1,11
Y2-S2-248K22,4,370,AS,exp,50,←,left,←,0.7274384000338614,True,16,1,0,11
Y2-S2-248K22,4,371,AS,exp,25,↓,down,↓,0.9187781000509858,True,16,1,0,11
Y2-S2-248K22,4,372,AS,exp,48,→,right,→,0.6670935999136418,True,16,1,0,11
Y2-S2-248K22,4,373,AS,exp,37,↑,up,↑,0.910436199977994,True,15,1,0,11
Y2-S2-248K22,4,374,AS,exp,49,↓,down,↓,0.8741714998614043,True,15,1,0,11
Y2-S2-248K22,4,375,AS,exp,36,→,right,→,0.7544317999854684,True,15,1,0,11
Y2-S2-248K22,4,376,AS,exp,40,↑,up,↑,0.829864899860695,True,14,1,0,11
Y2-S2-248K22,4,377,AS,exp,49,←,left,←,0.7340287000406533,True,14,1,0,11
Y2-S2-248K22,4,378,AS,exp,33,↑,up,↑,0.7035155000630766,True,14,1,0,11
Y2-S2-248K22,4,379,AS,exp,46,↓,down,↓,1.030866299988702,True,13,1,0,11
Y2-S2-248K22,4,380,AS,exp,26,→,right,→,0.7573771001771092,True,13,1,0,11
Y2-S2-248K22,4,381,AS,exp,50,↑,down,↓,0.7908314000815153,False,13,-1,1,12
Y2-S2-248K22,4,382,AS,exp,49,←,left,←,0.7685965001583099,True,14,-1,0,12
Y2-S2-248K22,4,383,AS,exp,42,↓,right,→,0.7378100000787526,False,14,-1,0,12
Y2-S2-248K22,4,384,AS,exp,31,←,left,←,0.7589522998314351,True,15,-1,0,12
Y2-S2-248K22,4,385,AS,exp,49,↑,up,↑,1.4271207000128925,True,15,-1,0,12
Y2-S2-248K22,4,386,AS,exp,48,↓,up,↑,0.9095668999943882,False,15,-1,0,12
Y2-S2-248K22,4,387,AS,exp,46,→,right,→,0.8442536999937147,True,16,-1,0,12
Y2-S2-248K22,4,388,AS,exp,30,←,left,←,0.9147615998517722,True,16,-1,0,12
Y2-S2-248K22,4,389,AS,exp,38,→,left,←,0.8006603999529034,False,16,-1,0,12
Y2-S2-248K22,4,390,AS,exp,30,←,left,←,0.6754578000400215,True,17,-1,0,12
Y2-S2-248K22,4,391,AS,exp,36,↓,down,↓,1.1343563001137227,True,17,-1,0,12
Y2-S2-248K22,4,392,AS,exp,42,↑,up,↑,0.5048613999970257,True,17,1,1,13
Y2-S2-248K22,4,393,AS,exp,30,↓,up,↑,0.6938616998959333,False,16,-1,1,14
Y2-S2-248K22,4,394,AS,exp,42,↑,right,→,0.8491181000135839,False,17,-1,0,14
Y2-S2-248K22,4,395,AS,exp,44,→,right,→,0.8066738001070917,True,18,-1,0,14
Y2-S2-248K22,4,396,AS,exp,30,←,left,←,0.8523611000273377,True,18,-1,0,14
Y2-S2-248K22,4,397,AS,exp,43,↑,up,↑,0.5344932998996228,True,18,1,1,15
Y2-S2-248K22,4,398,AS,exp,49,→,right,→,0.819215799914673,True,17,1,0,15
Y2-S2-248K22,4,399,AS,exp,46,←,left,←,0.8208648001309484,True,17,1,0,15
Y2-S2-248K22,4,400,AS,exp,31,↑,up,↑,0.7037785998545587,True,17,1,0,15
Y2-S2-248K22,4,401,AS,exp,35,←,left,←,0.8245950997807086,True,16,1,0,15
Y2-S2-248K22,4,402,AS,exp,27,↑,up,↑,0.5084255000110716,True,16,1,0,15
Y2-S2-248K22,4,403,AS,exp,41,↓,up,↑,0.9241087001282722,False,16,-1,1,16
Y2-S2-248K22,5,404,AS,intra_train,32,→,right,→,0.8121593999676406,True,25,-,-,-
Y2-S2-248K22,5,405,AS,intra_train,47,↑,up,↑,0.8498943001031876,True,25,-,-,-
Y2-S2-248K22,5,406,AS,intra_train,39,→,right,→,0.8005426998715848,True,25,-,-,-
Y2-S2-248K22,5,407,AS,intra_train,48,←,left,←,1.8657583000604063,True,25,-,-,-
Y2-S2-248K22,5,408,AS,intra_train,37,→,right,→,0.843983800150454,True,25,-,-,-
Y2-S2-248K22,5,409,AS,exp,42,↑,up,↑,0.6917656001169235,True,17,0,0,0
Y2-S2-248K22,5,410,AS,exp,26,↓,down,↓,1.1343342000618577,True,17,0,0,0
Y2-S2-248K22,5,411,AS,exp,43,←,left,←,0.7487848999444395,True,17,1,0,0
Y2-S2-248K22,5,412,AS,exp,33,→,right,→,0.4957735000643879,True,16,1,0,0
Y2-S2-248K22,5,413,AS,exp,38,←,left,←,0.7556657998356968,True,16,1,0,0
Y2-S2-248K22,5,414,AS,exp,47,↓,down,↓,1.2377808999735862,True,16,1,0,0
Y2-S2-248K22,5,415,AS,exp,45,→,right,→,0.6653459998778999,True,15,1,0,0
Y2-S2-248K22,5,416,AS,exp,38,↓,up,↑,0.8851813999935985,False,15,-1,1,1
Y2-S2-248K22,5,417,AS,exp,37,→,right,→,0.7318890001624823,True,16,-1,0,1
Y2-S2-248K22,5,418,AS,exp,26,↑,up,↑,0.8996554999612272,True,16,-1,0,1
Y2-S2-248K22,5,419,AS,exp,35,←,right,→,1.512544599827379,False,16,-1,0,1
Y2-S2-248K22,5,420,AS,exp,36,↑,left,←,0.7910034998785704,False,17,-1,0,1
Y2-S2-248K22,5,421,AS,exp,38,→,right,→,0.7041276001837105,True,18,-1,0,1
Y2-S2-248K22,5,422,AS,exp,28,↑,up,↑,0.7098924999590963,True,18,-1,0,1
Y2-S2-248K22,5,423,AS,exp,48,↓,down,↓,1.0451036000158638,True,18,1,1,2
Y2-S2-248K22,5,424,AS,exp,40,↑,up,↑,0.6567333999555558,True,17,1,0,2
Y2-S2-248K22,5,425,AS,exp,26,←,left,←,0.7461178000085056,True,17,1,0,2
Y2-S2-248K22,5,426,AS,exp,32,→,left,←,0.7677881999406964,False,17,-1,1,3
Y2-S2-248K22,5,427,AS,exp,25,↑,up,↑,0.737320400075987,True,18,-1,0,3
Y2-S2-248K22,5,428,AS,exp,27,↓,up,↑,0.6273060999810696,False,18,-1,0,3
Y2-S2-248K22,5,429,AS,exp,30,←,left,←,0.5873157000169158,True,19,-1,0,3
Y2-S2-248K22,5,430,AS,exp,40,→,right,→,0.8108245001640171,True,19,-1,0,3
Y2-S2-248K22,5,431,AS,exp,34,↓,down,↓,1.1457732999697328,True,19,1,1,4
Y2-S2-248K22,5,432,AS,exp,48,→,right,→,0.856417000060901,True,18,1,0,4
Y2-S2-248K22,5,433,AS,exp,31,↓,down,↓,1.2249022000469267,True,18,1,0,4
Y2-S2-248K22,5,434,AS,exp,35,←,left,←,0.7908908999525011,True,18,1,0,4
Y2-S2-248K22,5,435,AS,exp,40,→,right,→,0.7308237999677658,True,17,1,0,4
Y2-S2-248K22,5,436,AS,exp,46,↓,down,↓,1.0109914001077414,True,17,1,0,4
Y2-S2-248K22,5,437,AS,exp,47,←,left,←,0.7784325999673456,True,17,1,0,4
Y2-S2-248K22,5,438,AS,exp,32,→,right,→,0.7152723001781851,True,16,1,0,4
Y2-S2-248K22,5,439,AS,exp,33,↓,down,↓,1.0610210001468658,True,16,1,0,4
Y2-S2-248K22,5,440,AS,exp,42,→,right,→,0.6810037998948246,True,16,1,0,4
Y2-S2-248K22,5,441,AS,exp,28,↓,down,↓,0.9939984998200089,True,15,1,0,4
Y2-S2-248K22,5,442,AS,exp,30,→,right,→,0.7719834998715669,True,15,1,0,4
Y2-S2-248K22,5,443,AS,exp,25,←,right,→,0.7469363999553025,False,15,-1,1,5
Y2-S2-248K22,5,444,AS,exp,40,↑,up,↑,1.3404216999188066,True,16,-1,0,5
Y2-S2-248K22,5,445,AS,exp,31,↓,down,↓,1.0009322999976575,True,16,-1,0,5
Y2-S2-248K22,5,446,AS,exp,47,→,right,→,0.6976209999993443,True,16,1,1,6
Y2-S2-248K22,5,447,AS,exp,50,↑,up,↑,0.9681877999100834,True,15,1,0,6
Y2-S2-248K22,5,448,AS,exp,32,←,left,←,0.7210060001816601,True,15,1,0,6
Y2-S2-248K22,5,449,AS,exp,44,↓,down,↓,1.0094071000348777,True,15,1,0,6
Y2-S2-248K22,5,450,AS,exp,42,↑,up,↑,0.8860641999635845,True,14,1,0,6
Y2-S2-248K22,5,451,AS,exp,41,←,left,←,0.6965713000390679,True,14,1,0,6
Y2-S2-248K22,5,452,AS,exp,49,↑,up,↑,0.7820776000153273,True,14,1,0,6
Y2-S2-248K22,5,453,AS,exp,40,→,right,→,0.5260742998216301,True,13,1,0,6
Y2-S2-248K22,5,454,AS,exp,47,↓,down,↓,1.8286737001035362,True,13,1,0,6
Y2-S2-248K22,5,455,AS,exp,33,↑,up,↑,1.0635067000985146,True,13,1,0,6
Y2-S2-248K22,5,456,AS,exp,37,↓,down,↓,0.9708819000516087,True,12,1,0,6
Y2-S2-248K22,5,457,AS,exp,29,→,right,→,0.6938541000708938,True,12,1,0,6
Y2-S2-248K22,5,458,AS,exp,41,←,left,←,0.6553039001300931,True,12,1,0,6
Y2-S2-248K22,5,459,AS,exp,25,↓,down,↓,1.0513411001302302,True,11,1,0,6
Y2-S2-248K22,5,460,AS,exp,48,↑,up,↑,1.1550696999765933,True,11,1,0,6
Y2-S2-248K22,5,461,AS,exp,50,→,right,→,0.7887101999949664,True,11,1,0,6
Y2-S2-248K22,5,462,AS,exp,33,↓,down,↓,1.026698000030592,True,10,1,0,6
Y2-S2-248K22,5,463,AS,exp,42,↑,up,↑,0.625361799960956,True,10,1,0,6
Y2-S2-248K22,5,464,AS,exp,50,←,right,→,0.7754653000738472,False,10,-1,1,7
Y2-S2-248K22,5,465,AS,exp,40,↓,down,↓,1.7911861001048237,True,11,-1,0,7
Y2-S2-248K22,5,466,AS,exp,28,↑,up,↑,0.9002994999755174,True,11,-1,0,7
Y2-S2-248K22,5,467,AS,exp,38,←,left,←,0.8147523000370711,True,11,1,1,8
Y2-S2-248K22,5,468,AS,exp,50,↑,down,↓,1.7719578999094665,False,10,-1,1,9
Y2-S2-248K22,5,469,AS,exp,33,↓,down,↓,0.8208984001539648,True,11,-1,0,9
Y2-S2-248K22,5,470,AS,exp,47,↑,up,↑,1.0017713999841362,True,11,-1,0,9
Y2-S2-248K22,5,471,AS,exp,41,↓,down,↓,0.9573343999218196,True,11,1,1,10
Y2-S2-248K22,5,472,AS,exp,42,←,left,←,0.6632264999207109,True,10,1,0,10
Y2-S2-248K22,5,473,AS,exp,42,→,right,→,0.6512392000295222,True,10,1,0,10
Y2-S2-248K22,5,474,AS,exp,44,↓,down,↓,0.9702828999143094,True,10,1,0,10
Y2-S2-248K22,5,475,AS,exp,49,→,right,→,0.6364241000264883,True,9,1,0,10
Y2-S2-248K22,5,476,AS,exp,37,↓,down,↓,0.8087202000897378,True,9,1,0,10
Y2-S2-248K22,5,477,AS,exp,38,→,left,←,0.7326223000418395,False,9,-1,1,11
Y2-S2-248K22,5,478,AS,exp,37,←,left,←,0.7772005000151694,True,10,-1,0,11
Y2-S2-248K22,5,479,AS,exp,28,↓,right,→,0.7659011001233011,False,10,-1,0,11
Y2-S2-248K22,5,480,AS,exp,26,→,left,←,0.7462452000472695,False,11,-1,0,11
Y2-S2-248K22,5,481,AS,exp,47,←,left,←,0.8450070000253618,True,12,-1,0,11
Y2-S2-248K22,5,482,AS,exp,29,↑,down,↓,1.5694190999493003,False,12,-1,0,11
Y2-S2-248K22,5,483,AS,exp,44,↓,down,↓,0.8080760000739247,True,13,-1,0,11
Y2-S2-248K22,5,484,AS,exp,44,→,right,→,0.6878329999744892,True,13,-1,0,11
Y2-S2-248K22,5,485,AS,exp,44,↓,down,↓,0.6900698998942971,True,13,1,1,12
Y2-S2-248K22,5,486,AS,exp,46,→,right,→,0.6854479000903666,True,12,1,0,12
Y2-S2-248K22,5,487,AS,exp,50,↑,down,↓,1.4727311001624912,False,12,-1,1,13
Y2-S2-248K22,5,488,AS,exp,28,←,left,←,0.7621551998890936,True,13,-1,0,13
Y2-S2-248K22,5,489,AS,exp,31,↑,up,↑,1.2834878999274224,True,13,-1,0,13
Y2-S2-248K22,5,490,AS,exp,48,←,right,→,0.8543094000779092,False,13,-1,0,13
Y2-S2-248K22,5,491,AS,exp,45,↑,up,↑,0.8490625000558794,True,14,-1,0,13
Y2-S2-248K22,5,492,AS,exp,29,→,right,→,0.8696459999773651,True,14,-1,0,13
Y2-S2-248K22,5,493,AS,exp,42,←,left,←,0.7228656001389027,True,14,1,1,14
Y2-S2-248K22,5,494,AS,exp,33,↑,up,↑,0.933287899941206,True,13,1,0,14
Y2-S2-248K22,5,495,AS,exp,49,↓,down,↓,1.1297766000498086,True,13,1,0,14
Y2-S2-248K22,5,496,AS,exp,41,↑,down,↓,0.920803900109604,False,13,-1,1,15
Y2-S2-248K22,5,497,AS,exp,39,↓,down,↓,0.7788895999547094,True,14,-1,0,15
Y2-S2-248K22,5,498,AS,exp,27,↑,up,↑,1.2046917998231947,True,14,-1,0,15
Y2-S2-248K22,5,499,AS,exp,30,↓,down,↓,1.753734900150448,True,14,1,1,16
Y2-S2-248K22,6,500,PS,intra_train,49,↑,up,↑,1.3020641999319196,True,19,-,-,-
Y2-S2-248K22,6,501,PS,intra_train,43,→,right,→,0.7299578001257032,True,19,-,-,-
Y2-S2-248K22,6,502,PS,intra_train,28,↑,up,↑,0.7069063999224454,True,19,-,-,-
Y2-S2-248K22,6,503,PS,intra_train,38,←,left,←,0.8505756999365985,True,19,-,-,-
Y2-S2-248K22,6,504,PS,intra_train,36,↑,up,↑,0.8202257999219,True,19,-,-,-
Y2-S2-248K22,6,505,PS,exp,35,→,right,→,0.7036214000545442,True,13,0,0,0
Y2-S2-248K22,6,506,PS,exp,38,←,left,←,0.881969999987632,True,13,0,0,0
Y2-S2-248K22,6,507,PS,exp,47,↑,up,↑,0.7005435999017209,True,13,1,0,0
Y2-S2-248K22,6,508,PS,exp,50,→,no_key,no_letter,-1.0,False,12,-1,1,1
Y2-S2-248K22,6,509,PS,exp,29,↓,down,↓,0.9273892000783235,True,13,-1,0,1
Y2-S2-248K22,6,510,PS,exp,46,↑,down,↓,0.6644868000876158,False,13,-1,0,1
Y2-S2-248K22,6,511,PS,exp,40,←,left,←,0.6973663000389934,True,14,-1,0,1
Y2-S2-248K22,6,512,PS,exp,45,↑,up,↑,0.7078040998894721,True,14,-1,0,1
Y2-S2-248K22,6,513,PS,exp,43,→,right,→,0.5582137000747025,True,14,1,1,2
Y2-S2-248K22,6,514,PS,exp,33,↑,up,↑,0.9539600000716746,True,13,1,0,2
Y2-S2-248K22,6,515,PS,exp,38,↓,down,↓,0.9159837001934648,True,13,1,0,2
Y2-S2-248K22,6,516,PS,exp,40,↑,up,↑,0.8749651000835001,True,13,1,0,2
Y2-S2-248K22,6,517,PS,exp,50,←,left,←,0.9339606000576168,True,12,1,0,2
Y2-S2-248K22,6,518,PS,exp,34,→,right,→,0.7245974000543356,True,12,1,0,2
Y2-S2-248K22,6,519,PS,exp,34,←,right,→,0.9408020998816937,False,12,-1,1,3
Y2-S2-248K22,6,520,PS,exp,43,↓,down,↓,1.3734279000200331,True,13,-1,0,3
Y2-S2-248K22,6,521,PS,exp,50,→,right,→,0.5545644999947399,True,13,-1,0,3
Y2-S2-248K22,6,522,PS,exp,42,↑,up,↑,0.7778365002013743,True,13,1,1,4
Y2-S2-248K22,6,523,PS,exp,28,↓,down,↓,0.9284791999962181,True,12,1,0,4
Y2-S2-248K22,6,524,PS,exp,45,→,right,→,0.6651192000135779,True,12,1,0,4
Y2-S2-248K22,6,525,PS,exp,35,↑,down,↓,1.1009408000390977,False,12,-1,1,5
Y2-S2-248K22,6,526,PS,exp,32,↓,down,↓,0.6992264001164585,True,13,-1,0,5
Y2-S2-248K22,6,527,PS,exp,34,→,right,→,0.6635964000597596,True,13,-1,0,5
Y2-S2-248K22,6,528,PS,exp,49,←,left,←,0.5094497001264244,True,13,1,1,6
Y2-S2-248K22,6,529,PS,exp,25,↓,right,→,0.8172601999249309,False,12,-1,1,7
Y2-S2-248K22,6,530,PS,exp,27,←,left,←,0.6120329000987113,True,13,-1,0,7
Y2-S2-248K22,6,531,PS,exp,48,→,right,→,0.5255943001247942,True,13,-1,0,7
Y2-S2-248K22,6,532,PS,exp,29,↓,down,↓,0.8777312999591231,True,13,1,1,8
Y2-S2-248K22,6,533,PS,exp,46,←,left,←,0.6796542000956833,True,12,1,0,8
Y2-S2-248K22,6,534,PS,exp,29,↓,down,↓,0.6566129999700934,True,12,1,0,8
Y2-S2-248K22,6,535,PS,exp,37,→,right,→,0.8769832998514175,True,12,1,0,8
Y2-S2-248K22,6,536,PS,exp,44,←,left,←,0.8207993998657912,True,11,1,0,8
Y2-S2-248K22,6,537,PS,exp,28,↓,down,↓,0.6553337001241744,True,11,1,0,8
Y2-S2-248K22,6,538,PS,exp,43,↑,down,↓,0.6072995001450181,False,11,-1,1,9
Y2-S2-248K22,6,539,PS,exp,40,←,left,←,0.6747763999737799,True,12,-1,0,9
Y2-S2-248K22,6,540,PS,exp,33,→,left,←,0.8101072998251766,False,12,-1,0,9
Y2-S2-248K22,6,541,PS,exp,26,←,left,←,0.8665982000529766,True,13,-1,0,9
Y2-S2-248K22,6,542,PS,exp,27,↓,down,↓,0.7511266998481005,True,13,-1,0,9
Y2-S2-248K22,6,543,PS,exp,32,↑,up,↑,0.8568510999903083,True,13,1,1,10
Y2-S2-248K22,6,544,PS,exp,36,↓,down,↓,1.0273314001969993,True,12,1,0,10
Y2-S2-248K22,6,545,PS,exp,31,↑,up,↑,0.6744558999780566,True,12,1,0,10
Y2-S2-248K22,6,546,PS,exp,47,↓,down,↓,0.9524185999762267,True,12,1,0,10
Y2-S2-248K22,6,547,PS,exp,32,←,left,←,0.5687168999575078,True,11,1,0,10
Y2-S2-248K22,6,548,PS,exp,48,↓,down,↓,0.5797613000031561,True,11,1,0,10
Y2-S2-248K22,6,549,PS,exp,37,→,right,→,0.56903350003995,True,11,1,0,10
Y2-S2-248K22,6,550,PS,exp,41,↓,down,↓,0.7767240998800844,True,10,1,0,10
Y2-S2-248K22,6,551,PS,exp,26,←,left,←,0.6356125001329929,True,10,1,0,10
Y2-S2-248K22,6,552,PS,exp,28,↑,up,↑,1.0135118002071977,True,10,1,0,10
Y2-S2-248K22,6,553,PS,exp,31,←,left,←,0.8652556000743061,True,9,1,0,10
Y2-S2-248K22,6,554,PS,exp,35,→,left,←,0.7703274998348206,False,9,-1,1,11
Y2-S2-248K22,6,555,PS,exp,38,←,left,←,0.5970469999592751,True,10,-1,0,11
Y2-S2-248K22,6,556,PS,exp,48,↓,down,↓,1.0280212999787182,True,10,-1,0,11
Y2-S2-248K22,6,557,PS,exp,32,→,right,→,1.1360782000701874,True,10,1,1,12
Y2-S2-248K22,6,558,PS,exp,28,↓,down,↓,0.9090422000735998,True,9,1,0,12
Y2-S2-248K22,6,559,PS,exp,29,↑,down,↓,0.731296099955216,False,9,-1,1,13
Y2-S2-248K22,6,560,PS,exp,34,←,left,←,0.6665745999198407,True,10,-1,0,13
Y2-S2-248K22,6,561,PS,exp,33,↑,up,↑,0.8437793999910355,True,10,-1,0,13
Y2-S2-248K22,6,562,PS,exp,42,→,right,→,0.5255667001474649,True,10,1,1,14
Y2-S2-248K22,6,563,PS,exp,31,↓,up,↑,0.8451792001724243,False,9,-1,1,15
Y2-S2-248K22,6,564,PS,exp,42,←,left,←,0.6453513000160456,True,10,-1,0,15
Y2-S2-248K22,6,565,PS,exp,44,↑,right,→,0.7143110001925379,False,10,-1,0,15
Y2-S2-248K22,6,566,PS,exp,28,↓,right,→,1.0132806000765413,False,11,-1,0,15
Y2-S2-248K22,6,567,PS,exp,29,←,left,←,0.6148355999030173,True,12,-1,0,15
Y2-S2-248K22,6,568,PS,exp,25,↑,up,↑,0.6956140000838786,True,12,-1,0,15
Y2-S2-248K22,6,569,PS,exp,32,→,left,←,0.8630187001544982,False,12,-1,0,15
Y2-S2-248K22,6,570,PS,exp,36,↑,up,↑,0.6291857999749482,True,13,-1,0,15
Y2-S2-248K22,6,571,PS,exp,50,←,left,←,0.6337802999187261,True,13,-1,0,15
Y2-S2-248K22,6,572,PS,exp,40,→,right,→,0.6426059000659734,True,13,1,1,16
Y2-S2-248K22,7,573,PS,intra_train,26,↓,down,↓,0.8570373998954892,True,19,-,-,-
Y2-S2-248K22,7,574,PS,intra_train,29,↑,up,↑,0.912468499969691,True,19,-,-,-
Y2-S2-248K22,7,575,PS,intra_train,49,↓,down,↓,0.9751682998612523,True,19,-,-,-
Y2-S2-248K22,7,576,PS,intra_train,45,↑,up,↑,0.854253500001505,True,19,-,-,-
Y2-S2-248K22,7,577,PS,intra_train,34,↓,down,↓,1.0292966000270098,True,19,-,-,-
Y2-S2-248K22,7,578,PS,exp,45,→,right,→,0.7363940000068396,True,13,0,0,0
Y2-S2-248K22,7,579,PS,exp,45,←,left,←,0.728028800105676,True,13,0,0,0
Y2-S2-248K22,7,580,PS,exp,48,↑,up,↑,0.8117438000626862,True,13,1,0,0
Y2-S2-248K22,7,581,PS,exp,46,↓,up,↑,0.6933619000483304,False,12,-1,1,1
Y2-S2-248K22,7,582,PS,exp,43,←,left,←,0.6240145000629127,True,13,-1,0,1
Y2-S2-248K22,7,583,PS,exp,42,↓,down,↓,0.855655699968338,True,13,-1,0,1
Y2-S2-248K22,7,584,PS,exp,37,↑,right,→,1.4530294998548925,False,13,-1,0,1
Y2-S2-248K22,7,585,PS,exp,44,↓,down,↓,0.9931955998763442,True,14,-1,0,1
Y2-S2-248K22,7,586,PS,exp,33,↑,up,↑,0.884071399923414,True,14,-1,0,1
Y2-S2-248K22,7,587,PS,exp,50,→,right,→,0.795010499889031,True,14,1,1,2
Y2-S2-248K22,7,588,PS,exp,49,←,left,←,0.700146600138396,True,13,1,0,2
Y2-S2-248K22,7,589,PS,exp,31,↓,down,↓,0.9043548998888582,True,13,1,0,2
Y2-S2-248K22,7,590,PS,exp,27,→,left,←,0.9457596999127418,False,13,-1,1,3
Y2-S2-248K22,7,591,PS,exp,50,←,right,→,0.8829620000906289,False,14,-1,0,3
Y2-S2-248K22,7,592,PS,exp,36,→,right,→,0.8365404999349266,True,15,-1,0,3
Y2-S2-248K22,7,593,PS,exp,31,↑,left,←,0.866541099967435,False,15,-1,0,3
Y2-S2-248K22,7,594,PS,exp,43,→,right,→,0.7543802000582218,True,16,-1,0,3
Y2-S2-248K22,7,595,PS,exp,27,↓,down,↓,1.5378801000770181,True,16,-1,0,3
Y2-S2-248K22,7,596,PS,exp,30,←,left,←,0.9337482000701129,True,16,1,1,4
Y2-S2-248K22,7,597,PS,exp,33,→,right,→,0.9229872000869364,True,15,1,0,4
Y2-S2-248K22,7,598,PS,exp,41,↓,down,↓,0.79047070001252,True,15,1,0,4
Y2-S2-248K22,7,599,PS,exp,35,↑,down,↓,0.8757390999235213,False,15,-1,1,5
Y2-S2-248K22,7,600,PS,exp,34,↓,down,↓,0.9709810998756438,True,16,-1,0,5
Y2-S2-248K22,7,601,PS,exp,46,←,left,←,0.9702634001150727,True,16,-1,0,5
Y2-S2-248K22,7,602,PS,exp,45,→,right,→,0.8952526000794023,True,16,1,1,6
Y2-S2-248K22,7,603,PS,exp,50,↑,up,↑,1.5951057998463511,True,15,1,0,6
Y2-S2-248K22,7,604,PS,exp,35,↓,down,↓,0.9919521999545395,True,15,1,0,6
Y2-S2-248K22,7,605,PS,exp,38,↑,up,↑,0.8685136998537928,True,15,1,0,6
Y2-S2-248K22,7,606,PS,exp,29,←,left,←,0.9877096998970956,True,14,1,0,6
Y2-S2-248K22,7,607,PS,exp,28,↓,up,↑,0.9186511998996139,False,14,-1,1,7
Y2-S2-248K22,7,608,PS,exp,26,↑,down,↓,0.9643306999932975,False,15,-1,0,7
Y2-S2-248K22,7,609,PS,exp,42,→,right,→,0.9185834999661893,True,16,-1,0,7
Y2-S2-248K22,7,610,PS,exp,50,↓,down,↓,1.011763900052756,True,16,-1,0,7
Y2-S2-248K22,7,611,PS,exp,42,←,left,←,1.0539524001069367,True,16,1,1,8
Y2-S2-248K22,7,612,PS,exp,29,↓,down,↓,0.872878500027582,True,15,1,0,8
Y2-S2-248K22,7,613,PS,exp,47,←,right,→,0.9257484001573175,False,15,-1,1,9
Y2-S2-248K22,7,614,PS,exp,37,↑,left,←,0.8060387999285012,False,16,-1,0,9
Y2-S2-248K22,7,615,PS,exp,29,↓,down,↓,0.9761698001530021,True,17,-1,0,9
Y2-S2-248K22,7,616,PS,exp,44,→,right,→,0.8892887001857162,True,17,-1,0,9
Y2-S2-248K22,7,617,PS,exp,25,↓,down,↓,0.8501091001089662,True,17,1,1,10
Y2-S2-248K22,7,618,PS,exp,27,→,right,→,0.858766800025478,True,16,1,0,10
Y2-S2-248K22,7,619,PS,exp,50,↓,down,↓,0.8913688999600708,True,16,1,0,10
Y2-S2-248K22,7,620,PS,exp,35,←,left,←,1.1026951998937875,True,16,1,0,10
Y2-S2-248K22,7,621,PS,exp,28,↑,down,↓,0.9770152000710368,False,15,-1,1,11
Y2-S2-248K22,7,622,PS,exp,38,←,left,←,0.8515413999557495,True,16,-1,0,11
Y2-S2-248K22,7,623,PS,exp,34,→,down,↓,1.0612933000084013,False,16,-1,0,11
Y2-S2-248K22,7,624,PS,exp,30,←,left,←,0.7946589000057429,True,17,-1,0,11
Y2-S2-248K22,7,625,PS,exp,30,→,left,←,0.8858632000628859,False,17,-1,0,11
Y2-S2-248K22,7,626,PS,exp,34,←,left,←,0.859397399937734,True,18,-1,0,11
Y2-S2-248K22,7,627,PS,exp,37,↓,down,↓,0.9108595000579953,True,18,-1,0,11
Y2-S2-248K22,7,628,PS,exp,28,→,down,↓,0.8976692000869662,False,18,-1,0,11
Y2-S2-248K22,7,629,PS,exp,48,↓,down,↓,1.034724700031802,True,19,-1,0,11
Y2-S2-248K22,7,630,PS,exp,50,→,left,←,1.055136299924925,False,19,-1,0,11
Y2-S2-248K22,7,631,PS,exp,33,↓,down,↓,0.7396257999353111,True,20,-1,0,11
Y2-S2-248K22,7,632,PS,exp,34,←,left,←,0.9704171000048518,True,20,-1,0,11
Y2-S2-248K22,7,633,PS,exp,36,↑,up,↑,0.8960352998692542,True,20,1,1,12
Y2-S2-248K22,7,634,PS,exp,43,↓,down,↓,1.1576362999621779,True,19,1,0,12
Y2-S2-248K22,7,635,PS,exp,40,←,left,←,0.9417028999887407,True,19,1,0,12
Y2-S2-248K22,7,636,PS,exp,50,↑,left,←,1.137929799966514,False,19,-1,1,13
Y2-S2-248K22,7,637,PS,exp,29,→,right,→,0.9333134000189602,True,20,-1,0,13
Y2-S2-248K22,7,638,PS,exp,46,↑,up,↑,0.9253372999373823,True,20,-1,0,13
Y2-S2-248K22,7,639,PS,exp,46,↓,left,←,1.499212799826637,False,20,-1,0,13
Y2-S2-248K22,7,640,PS,exp,31,↑,up,↑,0.9021889998111874,True,21,-1,0,13
Y2-S2-248K22,7,641,PS,exp,30,←,up,↑,1.1242899999488145,False,21,-1,0,13
Y2-S2-248K22,7,642,PS,exp,35,→,left,←,1.1055736001580954,False,22,-1,0,13
Y2-S2-248K22,7,643,PS,exp,45,↓,down,↓,0.9621564000844955,True,23,-1,0,13
Y2-S2-248K22,7,644,PS,exp,36,←,left,←,1.1893939001020044,True,23,-1,0,13
Y2-S2-248K22,7,645,PS,exp,45,→,right,→,0.7576473001390696,True,23,1,1,14
Y2-S2-248K22,7,646,PS,exp,28,←,left,←,1.6555238000582904,True,22,1,0,14
Y2-S2-248K22,7,647,PS,exp,48,↓,down,↓,0.8741030998062342,True,22,1,0,14
Y2-S2-248K22,7,648,PS,exp,29,←,left,←,0.8014155998826027,True,22,1,0,14
Y2-S2-248K22,7,649,PS,exp,46,→,right,→,0.8235052998643368,True,21,1,0,14
Y2-S2-248K22,7,650,PS,exp,27,↑,up,↑,1.1523573000449687,True,21,1,0,14
Y2-S2-248K22,7,651,PS,exp,39,→,right,→,0.6943002000916749,True,21,1,0,14
Y2-S2-248K22,7,652,PS,exp,25,←,left,←,0.7902005000505596,True,20,1,0,14
Y2-S2-248K22,7,653,PS,exp,40,↑,up,↑,0.7321081999689341,True,20,1,0,14
Y2-S2-248K22,7,654,PS,exp,31,→,left,←,0.9891233998350799,False,20,-1,1,15
Y2-S2-248K22,7,655,PS,exp,42,↑,up,↑,1.2952787999529392,True,21,-1,0,15
Y2-S2-248K22,7,656,PS,exp,40,→,left,←,0.9731107999105006,False,21,-1,0,15
Y2-S2-248K22,7,657,PS,exp,33,←,left,←,0.9325204000342637,True,22,-1,0,15
Y2-S2-248K22,7,658,PS,exp,35,↓,down,↓,0.9894059000071138,True,22,-1,0,15
Y2-S2-248K22,7,659,PS,exp,46,←,left,←,0.9864990999922156,True,22,1,1,16
Y2-S2-248K22,8,660,AS,intra_train,37,→,right,→,0.9898705000523478,True,25,-,-,-
Y2-S2-248K22,8,661,AS,intra_train,42,↑,up,↑,0.881381900049746,True,25,-,-,-
Y2-S2-248K22,8,662,AS,intra_train,48,→,right,→,0.8138848000671715,True,25,-,-,-
Y2-S2-248K22,8,663,AS,intra_train,50,←,left,←,0.8064798000268638,True,25,-,-,-
Y2-S2-248K22,8,664,AS,intra_train,45,↑,up,↑,0.8648597998544574,True,25,-,-,-
Y2-S2-248K22,8,665,AS,exp,26,→,right,→,0.6941458999644965,True,17,0,0,0
Y2-S2-248K22,8,666,AS,exp,29,↓,up,↑,0.794723000144586,False,17,-1,0,0
Y2-S2-248K22,8,667,AS,exp,36,↑,up,↑,0.6262395998928696,True,18,-1,0,0
Y2-S2-248K22,8,668,AS,exp,29,←,left,←,0.7660821999888867,True,18,-1,0,0
Y2-S2-248K22,8,669,AS,exp,35,↑,up,↑,0.6397067999932915,True,18,1,1,1
Y2-S2-248K22,8,670,AS,exp,38,←,left,←,1.2279898999258876,True,17,1,0,1
Y2-S2-248K22,8,671,AS,exp,41,→,left,←,0.7822928999084979,False,17,-1,1,2
Y2-S2-248K22,8,672,AS,exp,42,↑,up,↑,0.6461229999549687,True,18,-1,0,2
Y2-S2-248K22,8,673,AS,exp,38,→,right,→,0.6482770000584424,True,18,-1,0,2
Y2-S2-248K22,8,674,AS,exp,37,↑,up,↑,0.7166595999151468,True,18,1,1,3
Y2-S2-248K22,8,675,AS,exp,26,→,right,→,0.4545777998864651,True,17,1,0,3
Y2-S2-248K22,8,676,AS,exp,30,↓,down,↓,1.0224403999745846,True,17,1,0,3
Y2-S2-248K22,8,677,AS,exp,35,↑,up,↑,0.6776614999398589,True,17,1,0,3
Y2-S2-248K22,8,678,AS,exp,42,←,left,←,0.6805938999168575,True,16,1,0,3
Y2-S2-248K22,8,679,AS,exp,47,↓,down,↓,0.868486300110817,True,16,1,0,3
Y2-S2-248K22,8,680,AS,exp,25,↑,up,↑,0.8602769998833537,True,16,1,0,3
Y2-S2-248K22,8,681,AS,exp,39,↓,down,↓,0.9207200000528246,True,15,1,0,3
Y2-S2-248K22,8,682,AS,exp,41,→,right,→,0.7103466000407934,True,15,1,0,3
Y2-S2-248K22,8,683,AS,exp,39,←,left,←,0.7314342998433858,True,15,1,0,3
Y2-S2-248K22,8,684,AS,exp,46,↓,down,↓,0.8285457999445498,True,14,1,0,3
Y2-S2-248K22,8,685,AS,exp,35,↑,up,↑,0.44639239995740354,True,14,1,0,3
Y2-S2-248K22,8,686,AS,exp,43,→,left,←,0.6647809001151472,False,14,-1,1,4
Y2-S2-248K22,8,687,AS,exp,46,↑,up,↑,0.6764499000273645,True,15,-1,0,4
Y2-S2-248K22,8,688,AS,exp,40,←,left,←,0.7424353000242263,True,15,-1,0,4
Y2-S2-248K22,8,689,AS,exp,32,→,right,→,0.7847702000290155,True,15,1,1,5
Y2-S2-248K22,8,690,AS,exp,29,↑,up,↑,0.781912500038743,True,14,1,0,5
Y2-S2-248K22,8,691,AS,exp,39,→,right,→,0.6756328998599201,True,14,1,0,5
Y2-S2-248K22,8,692,AS,exp,49,↓,down,↓,0.9681487001944333,True,14,1,0,5
Y2-S2-248K22,8,693,AS,exp,39,←,left,←,0.640416500158608,True,13,1,0,5
Y2-S2-248K22,8,694,AS,exp,45,→,left,←,0.7227924999315292,False,13,-1,1,6
Y2-S2-248K22,8,695,AS,exp,43,↑,up,↑,0.7303045000880957,True,14,-1,0,6
Y2-S2-248K22,8,696,AS,exp,32,↓,down,↓,0.7099480000324547,True,14,-1,0,6
Y2-S2-248K22,8,697,AS,exp,48,↑,down,↓,1.2126643999945372,False,14,-1,0,6
Y2-S2-248K22,8,698,AS,exp,47,→,left,←,0.7507213999051601,False,15,-1,0,6
Y2-S2-248K22,8,699,AS,exp,37,←,left,←,0.7582835999783128,True,16,-1,0,6
Y2-S2-248K22,8,700,AS,exp,36,↓,down,↓,0.7392130000516772,True,16,-1,0,6
Y2-S2-248K22,8,701,AS,exp,37,↑,up,↑,0.5977306000422686,True,16,1,1,7
Y2-S2-248K22,8,702,AS,exp,50,↓,down,↓,0.7448523999191821,True,15,1,0,7
Y2-S2-248K22,8,703,AS,exp,44,←,left,←,0.6840407000854611,True,15,1,0,7
Y2-S2-248K22,8,704,AS,exp,47,↑,up,↑,0.4611352998763323,True,15,1,0,7
Y2-S2-248K22,8,705,AS,exp,38,→,left,←,0.8073593999724835,False,14,-1,1,8
Y2-S2-248K22,8,706,AS,exp,38,←,left,←,0.7768086998257786,True,15,-1,0,8
Y2-S2-248K22,8,707,AS,exp,26,→,right,→,0.4838355998508632,True,15,-1,0,8
Y2-S2-248K22,8,708,AS,exp,41,←,left,←,0.6550984000787139,True,15,1,1,9
Y2-S2-248K22,8,709,AS,exp,35,↑,down,↓,1.0266398000530899,False,14,-1,1,10
Y2-S2-248K22,8,710,AS,exp,27,←,left,←,0.43855469999834895,True,15,-1,0,10
Y2-S2-248K22,8,711,AS,exp,42,→,right,→,1.0902942998800427,True,15,-1,0,10
Y2-S2-248K22,8,712,AS,exp,46,↑,up,↑,0.5472062001936138,True,15,1,1,11
Y2-S2-248K22,8,713,AS,exp,26,←,left,←,0.640309999929741,True,14,1,0,11
Y2-S2-248K22,8,714,AS,exp,46,→,left,←,0.6208194000646472,False,14,-1,1,12
Y2-S2-248K22,8,715,AS,exp,28,↓,down,↓,0.8959350001532584,True,15,-1,0,12
Y2-S2-248K22,8,716,AS,exp,27,↑,up,↑,0.7102981999050826,True,15,-1,0,12
Y2-S2-248K22,8,717,AS,exp,29,↓,down,↓,0.9151355000212789,True,15,1,1,13
Y2-S2-248K22,8,718,AS,exp,25,↑,left,←,0.9887577001936734,False,14,-1,1,14
Y2-S2-248K22,8,719,AS,exp,47,↓,down,↓,1.0061329999007285,True,15,-1,0,14
Y2-S2-248K22,8,720,AS,exp,38,↑,down,↓,0.7816022001206875,False,15,-1,0,14
Y2-S2-248K22,8,721,AS,exp,49,←,left,←,0.705561000155285,True,16,-1,0,14
Y2-S2-248K22,8,722,AS,exp,25,→,right,→,0.7062178999185562,True,16,-1,0,14
Y2-S2-248K22,8,723,AS,exp,49,↑,up,↑,0.7224648999981582,True,16,1,1,15
Y2-S2-248K22,8,724,AS,exp,36,→,left,←,0.7335524999070913,False,15,-1,1,16
