PART_ID,Block_no,Trial_no,Block_type,Trial_type,CSI,Stim_letter,Key_pressed,letter_choose,Rt,Corr,Stimulus Time,Level,Reversal,Revs_count
Y2-S2-057K24,1,1,PS,train,42,↓,down,↓,0.7684943999629468,True,30,-,-,-
Y2-S2-057K24,1,2,PS,train,45,→,right,→,0.7477961000986397,True,30,-,-,-
Y2-S2-057K24,1,3,PS,train,30,↓,down,↓,0.5666774001438171,True,30,-,-,-
Y2-S2-057K24,1,4,PS,train,32,↑,up,↑,0.878216200042516,True,30,-,-,-
Y2-S2-057K24,1,5,PS,train,34,↓,down,↓,0.5841335998848081,True,30,-,-,-
Y2-S2-057K24,1,6,PS,train,31,↑,right,→,1.434011199977249,False,30,-,-,-
Y2-S2-057K24,1,7,PS,train,41,↓,down,↓,1.3965475000441074,True,30,-,-,-
Y2-S2-057K24,1,8,PS,train,26,→,right,→,0.8855489001143724,True,30,-,-,-
Y2-S2-057K24,1,9,PS,train,27,↓,left,←,1.50860850000754,False,30,-,-,-
Y2-S2-057K24,1,10,PS,train,34,→,right,→,0.7379199999850243,True,30,-,-,-
Y2-S2-057K24,2,11,AS,train,31,↓,down,↓,0.6344884999562055,True,45,-,-,-
Y2-S2-057K24,2,12,AS,train,39,←,left,←,0.6510216000024229,True,45,-,-,-
Y2-S2-057K24,2,13,AS,train,37,→,right,→,0.6345359000843018,True,45,-,-,-
Y2-S2-057K24,2,14,AS,train,48,←,left,←,0.6672414999920875,True,45,-,-,-
Y2-S2-057K24,2,15,AS,train,43,↑,up,↑,0.6842574998736382,True,45,-,-,-
Y2-S2-057K24,2,16,AS,train,33,→,right,→,0.6674856999889016,True,45,-,-,-
Y2-S2-057K24,2,17,AS,train,28,←,left,←,0.7178698999341577,True,45,-,-,-
Y2-S2-057K24,2,18,AS,train,25,↓,down,↓,0.750713599845767,True,45,-,-,-
Y2-S2-057K24,2,19,AS,train,31,←,left,←,0.7672282999847084,True,45,-,-,-
Y2-S2-057K24,2,20,AS,train,35,→,right,→,0.6511822999455035,True,45,-,-,-
Y2-S2-057K24,-,21,PS,adaptive,48,↑,left,←,0.9152252001222223,False,10,-1,0,0
Y2-S2-057K24,-,22,PS,adaptive,33,→,right,→,0.5310003999620676,True,11,-1,0,0
Y2-S2-057K24,-,23,PS,adaptive,39,↑,left,←,0.769639499951154,False,11,-1,0,0
Y2-S2-057K24,-,24,PS,adaptive,48,→,left,←,0.7494294999632984,False,12,-1,0,0
Y2-S2-057K24,-,25,PS,adaptive,37,↓,left,←,0.9476527001243085,False,13,-1,0,0
Y2-S2-057K24,-,26,PS,adaptive,39,←,left,←,0.47675440018065274,True,14,-1,0,0
Y2-S2-057K24,-,27,PS,adaptive,42,→,right,→,0.6324239999521524,True,14,-1,0,0
Y2-S2-057K24,-,28,PS,adaptive,26,↑,left,←,0.839657099917531,False,14,-1,0,0
Y2-S2-057K24,-,29,PS,adaptive,45,↓,up,↑,1.2771160998381674,False,15,-1,0,0
Y2-S2-057K24,-,30,PS,adaptive,50,←,left,←,0.5236779002007097,True,16,-1,0,0
Y2-S2-057K24,-,31,PS,adaptive,28,↑,up,↑,0.6106430999934673,True,16,-1,0,0
Y2-S2-057K24,-,32,PS,adaptive,44,→,left,←,0.6831651998218149,False,16,-1,0,0
Y2-S2-057K24,-,33,PS,adaptive,33,↓,down,↓,0.9322848999872804,True,17,-1,0,0
Y2-S2-057K24,-,34,PS,adaptive,41,↑,up,↑,0.5611833999864757,True,17,-1,0,0
Y2-S2-057K24,-,35,PS,adaptive,45,↓,down,↓,0.5250487001612782,True,17,1,1,1
Y2-S2-057K24,-,36,PS,adaptive,26,←,right,→,0.6440351000055671,False,16,-1,1,2
Y2-S2-057K24,-,37,PS,adaptive,44,↑,up,↑,1.1423418999183923,True,17,-1,0,2
Y2-S2-057K24,-,38,PS,adaptive,41,→,right,→,0.6224422000814229,True,17,-1,0,2
Y2-S2-057K24,-,39,PS,adaptive,36,←,left,←,0.7311866001691669,True,17,1,1,3
Y2-S2-057K24,-,40,PS,adaptive,29,↑,up,↑,0.5625998000614345,True,16,1,0,3
Y2-S2-057K24,-,41,PS,adaptive,41,→,right,→,0.7131411000154912,True,16,1,0,3
Y2-S2-057K24,-,42,PS,adaptive,46,↓,down,↓,0.6274625000078231,True,16,1,0,3
Y2-S2-057K24,-,43,PS,adaptive,41,→,left,←,0.7565164999105036,False,15,-1,1,4
Y2-S2-057K24,-,44,AS,adaptive,47,←,left,←,1.2256750999949872,True,20,0,0,0
Y2-S2-057K24,-,45,AS,adaptive,48,↑,up,↑,0.7817999999970198,True,20,0,0,0
Y2-S2-057K24,-,46,AS,adaptive,37,←,left,←,0.5388948998879641,True,20,1,0,0
Y2-S2-057K24,-,47,AS,adaptive,41,↑,up,↑,0.536985999904573,True,19,1,0,0
Y2-S2-057K24,-,48,AS,adaptive,28,↓,down,↓,1.1336360999848694,True,19,1,0,0
Y2-S2-057K24,-,49,AS,adaptive,32,↑,up,↑,0.5530888999346644,True,19,1,0,0
Y2-S2-057K24,-,50,AS,adaptive,50,←,left,←,0.9001635001040995,True,18,1,0,0
Y2-S2-057K24,-,51,AS,adaptive,49,↓,down,↓,0.679893400054425,True,18,1,0,0
Y2-S2-057K24,-,52,AS,adaptive,32,←,left,←,0.5801858999766409,True,18,1,0,0
Y2-S2-057K24,-,53,AS,adaptive,31,↓,down,↓,0.7819903001654893,True,17,1,0,0
Y2-S2-057K24,-,54,AS,adaptive,42,↑,up,↑,0.6937116999179125,True,17,1,0,0
Y2-S2-057K24,-,55,AS,adaptive,31,→,right,→,0.6548047999385744,True,17,1,0,0
Y2-S2-057K24,-,56,AS,adaptive,30,←,left,←,0.7143724001944065,True,16,1,0,0
Y2-S2-057K24,-,57,AS,adaptive,27,→,right,→,0.542969899950549,True,16,1,0,0
Y2-S2-057K24,-,58,AS,adaptive,45,↓,down,↓,0.8769783000461757,True,16,1,0,0
Y2-S2-057K24,-,59,AS,adaptive,49,↑,up,↑,0.6507061999291182,True,15,1,0,0
Y2-S2-057K24,-,60,AS,adaptive,28,↓,down,↓,0.6622950001619756,True,15,1,0,0
Y2-S2-057K24,-,61,AS,adaptive,36,←,down,↓,0.7929663001559675,False,15,-1,1,1
Y2-S2-057K24,-,62,AS,adaptive,46,↓,up,↑,0.8097844999283552,False,16,-1,0,1
Y2-S2-057K24,-,63,AS,adaptive,49,→,right,→,0.704216199927032,True,17,-1,0,1
Y2-S2-057K24,-,64,AS,adaptive,40,↓,down,↓,0.5603649998083711,True,17,-1,0,1
Y2-S2-057K24,-,65,AS,adaptive,49,→,right,→,1.1375146999489516,True,17,1,1,2
Y2-S2-057K24,-,66,AS,adaptive,41,↓,down,↓,0.659193999832496,True,16,1,0,2
Y2-S2-057K24,-,67,AS,adaptive,31,→,right,→,0.6631748001091182,True,16,1,0,2
Y2-S2-057K24,-,68,AS,adaptive,33,←,left,←,0.5337759000249207,True,16,1,0,2
Y2-S2-057K24,-,69,AS,adaptive,37,↓,down,↓,0.48079639999195933,True,15,1,0,2
Y2-S2-057K24,-,70,AS,adaptive,49,←,left,←,0.5452353998553008,True,15,1,0,2
Y2-S2-057K24,-,71,AS,adaptive,33,↓,down,↓,0.5613891999237239,True,15,1,0,2
Y2-S2-057K24,-,72,AS,adaptive,45,←,left,←,0.4779234000016004,True,14,1,0,2
Y2-S2-057K24,-,73,AS,adaptive,48,→,right,→,0.4720384001266211,True,14,1,0,2
Y2-S2-057K24,-,74,AS,adaptive,39,←,left,←,0.4393496001139283,True,14,1,0,2
Y2-S2-057K24,-,75,AS,adaptive,32,→,left,←,0.7621989001054317,False,13,-1,1,3
Y2-S2-057K24,-,76,AS,adaptive,44,↑,up,↑,0.707480699988082,True,14,-1,0,3
Y2-S2-057K24,-,77,AS,adaptive,44,↓,down,↓,0.5342642001342028,True,14,-1,0,3
Y2-S2-057K24,-,78,AS,adaptive,28,↑,up,↑,0.4958073999732733,True,14,1,1,4
Y2-S2-057K24,1,79,AS,intra_train,41,←,left,←,0.5280775998253375,True,19,-,-,-
Y2-S2-057K24,1,80,AS,intra_train,38,↑,up,↑,0.5520073999650776,True,19,-,-,-
Y2-S2-057K24,1,81,AS,intra_train,25,↓,down,↓,0.5012529001105577,True,19,-,-,-
Y2-S2-057K24,1,82,AS,intra_train,36,↑,up,↑,0.48596109985373914,True,19,-,-,-
Y2-S2-057K24,1,83,AS,intra_train,34,←,left,←,0.9565957000013441,True,19,-,-,-
Y2-S2-057K24,1,84,AS,exp,33,↓,down,↓,0.9552996999118477,True,13,0,0,0
Y2-S2-057K24,1,85,AS,exp,33,↑,up,↑,0.7515827000606805,True,13,0,0,0
Y2-S2-057K24,1,86,AS,exp,48,→,left,←,0.8758290999103338,False,13,-1,0,0
Y2-S2-057K24,1,87,AS,exp,48,↓,left,←,0.5301529997959733,False,14,-1,0,0
Y2-S2-057K24,1,88,AS,exp,33,→,down,↓,0.7004295000806451,False,15,-1,0,0
Y2-S2-057K24,1,89,AS,exp,44,↑,up,↑,0.7194659998640418,True,16,-1,0,0
Y2-S2-057K24,1,90,AS,exp,37,→,right,→,0.6056577998679131,True,16,-1,0,0
Y2-S2-057K24,1,91,AS,exp,44,↓,down,↓,0.5716363999526948,True,16,1,1,1
Y2-S2-057K24,1,92,AS,exp,30,←,left,←,0.8487438000738621,True,15,1,0,1
Y2-S2-057K24,1,93,AS,exp,38,→,right,→,0.41801710007712245,True,15,1,0,1
Y2-S2-057K24,1,94,AS,exp,25,↓,down,↓,0.8925554000306875,True,15,1,0,1
Y2-S2-057K24,1,95,AS,exp,27,↑,up,↑,0.707417800091207,True,14,1,0,1
Y2-S2-057K24,1,96,AS,exp,27,←,left,←,0.768635000102222,True,14,1,0,1
Y2-S2-057K24,1,97,AS,exp,33,→,right,→,1.0385058000683784,True,14,1,0,1
Y2-S2-057K24,1,98,AS,exp,31,↑,up,↑,0.6754391000140458,True,13,1,0,1
Y2-S2-057K24,1,99,AS,exp,34,↓,down,↓,0.4685653999913484,True,13,1,0,1
Y2-S2-057K24,1,100,AS,exp,37,→,right,→,0.5995401998516172,True,13,1,0,1
Y2-S2-057K24,1,101,AS,exp,38,↑,up,↑,0.6793462999630719,True,12,1,0,1
Y2-S2-057K24,1,102,AS,exp,28,→,down,↓,0.9063800999429077,False,12,-1,1,2
Y2-S2-057K24,1,103,AS,exp,36,↓,down,↓,0.4839399999473244,True,13,-1,0,2
Y2-S2-057K24,1,104,AS,exp,25,←,right,→,0.8814806998707354,False,13,-1,0,2
Y2-S2-057K24,1,105,AS,exp,36,↓,up,↑,0.8729515001177788,False,14,-1,0,2
Y2-S2-057K24,1,106,AS,exp,41,←,left,←,0.5409825001843274,True,15,-1,0,2
Y2-S2-057K24,1,107,AS,exp,27,↓,down,↓,0.6433334001339972,True,15,-1,0,2
Y2-S2-057K24,1,108,AS,exp,31,→,right,→,0.4417214998975396,True,15,1,1,3
Y2-S2-057K24,1,109,AS,exp,45,↑,down,↓,0.7818221000488847,False,14,-1,1,4
Y2-S2-057K24,1,110,AS,exp,27,↓,down,↓,0.7704022000543773,True,15,-1,0,4
Y2-S2-057K24,1,111,AS,exp,44,↑,down,↓,0.8859039000235498,False,15,-1,0,4
Y2-S2-057K24,1,112,AS,exp,40,←,left,←,0.8962570999283344,True,16,-1,0,4
Y2-S2-057K24,1,113,AS,exp,50,↑,up,↑,0.6355061000213027,True,16,-1,0,4
Y2-S2-057K24,1,114,AS,exp,29,←,left,←,0.6625141000840813,True,16,1,1,5
Y2-S2-057K24,1,115,AS,exp,39,↓,down,↓,0.45567780011333525,True,15,1,0,5
Y2-S2-057K24,1,116,AS,exp,38,←,right,→,0.674357800045982,False,15,-1,1,6
Y2-S2-057K24,1,117,AS,exp,35,↑,up,↑,0.5875785001553595,True,16,-1,0,6
Y2-S2-057K24,1,118,AS,exp,50,←,left,←,0.5662274998612702,True,16,-1,0,6
Y2-S2-057K24,1,119,AS,exp,40,↑,up,↑,0.7335439000744373,True,16,1,1,7
Y2-S2-057K24,1,120,AS,exp,33,↓,up,↑,1.0704606999643147,False,15,-1,1,8
Y2-S2-057K24,1,121,AS,exp,35,←,left,←,0.5475232000462711,True,16,-1,0,8
Y2-S2-057K24,1,122,AS,exp,31,↑,up,↑,0.7524349999148399,True,16,-1,0,8
Y2-S2-057K24,1,123,AS,exp,38,←,right,→,0.7517469001468271,False,16,-1,0,8
Y2-S2-057K24,1,124,AS,exp,47,↑,up,↑,0.8613855000585318,True,17,-1,0,8
Y2-S2-057K24,1,125,AS,exp,25,→,right,→,0.6026995999272913,True,17,-1,0,8
Y2-S2-057K24,1,126,AS,exp,33,↑,up,↑,0.6061105998232961,True,17,1,1,9
Y2-S2-057K24,1,127,AS,exp,39,←,up,↑,1.1549239000305533,False,16,-1,1,10
Y2-S2-057K24,1,128,AS,exp,28,→,right,→,0.6932728998363018,True,17,-1,0,10
Y2-S2-057K24,1,129,AS,exp,44,↑,up,↑,0.8281044000759721,True,17,-1,0,10
Y2-S2-057K24,1,130,AS,exp,39,→,right,→,0.5517851000186056,True,17,1,1,11
Y2-S2-057K24,1,131,AS,exp,33,↓,left,←,0.5519956001080573,False,16,-1,1,12
Y2-S2-057K24,1,132,AS,exp,47,→,right,→,0.5536295000929385,True,17,-1,0,12
Y2-S2-057K24,1,133,AS,exp,28,↓,right,→,0.739356700098142,False,17,-1,0,12
Y2-S2-057K24,1,134,AS,exp,43,←,left,←,0.5236865999177098,True,18,-1,0,12
Y2-S2-057K24,1,135,AS,exp,48,↑,up,↑,0.6502109998837113,True,18,-1,0,12
Y2-S2-057K24,1,136,AS,exp,41,→,right,→,0.38468729984015226,True,18,1,1,13
Y2-S2-057K24,1,137,AS,exp,42,↑,up,↑,0.952236199984327,True,17,1,0,13
Y2-S2-057K24,1,138,AS,exp,25,→,left,←,0.6890104000922292,False,17,-1,1,14
Y2-S2-057K24,1,139,AS,exp,50,↑,up,↑,0.6810920999851078,True,18,-1,0,14
Y2-S2-057K24,1,140,AS,exp,38,↓,left,←,0.8846450999844819,False,18,-1,0,14
Y2-S2-057K24,1,141,AS,exp,30,←,left,←,0.8010784999933094,True,19,-1,0,14
Y2-S2-057K24,1,142,AS,exp,46,→,right,→,0.5476590001489967,True,19,-1,0,14
Y2-S2-057K24,1,143,AS,exp,26,↑,up,↑,0.6857859999872744,True,19,1,1,15
Y2-S2-057K24,1,144,AS,exp,50,↓,down,↓,0.5428952998481691,True,18,1,0,15
Y2-S2-057K24,1,145,AS,exp,48,↑,up,↑,0.586854699999094,True,18,1,0,15
Y2-S2-057K24,1,146,AS,exp,38,←,left,←,1.0127443000674248,True,18,1,0,15
Y2-S2-057K24,1,147,AS,exp,34,↑,up,↑,0.5119942999444902,True,17,1,0,15
Y2-S2-057K24,1,148,AS,exp,32,→,left,←,0.9230056998785585,False,17,-1,1,16
Y2-S2-057K24,2,149,PS,intra_train,29,↑,up,↑,0.783706899965182,True,24,-,-,-
Y2-S2-057K24,2,150,PS,intra_train,41,↓,down,↓,0.6191281999927014,True,24,-,-,-
Y2-S2-057K24,2,151,PS,intra_train,38,↑,up,↑,0.8047179998829961,True,24,-,-,-
Y2-S2-057K24,2,152,PS,intra_train,42,←,left,←,0.728914299979806,True,24,-,-,-
Y2-S2-057K24,2,153,PS,intra_train,31,→,right,→,0.6745537999086082,True,24,-,-,-
Y2-S2-057K24,2,154,PS,exp,27,←,right,→,0.7004267000593245,False,16,-1,0,0
Y2-S2-057K24,2,155,PS,exp,33,↓,down,↓,0.7457554000429809,True,17,-1,0,0
Y2-S2-057K24,2,156,PS,exp,37,←,left,←,0.5341987998690456,True,17,-1,0,0
Y2-S2-057K24,2,157,PS,exp,42,↑,right,→,0.832092400174588,False,17,-1,0,0
Y2-S2-057K24,2,158,PS,exp,29,↓,down,↓,0.5857012001797557,True,18,-1,0,0
Y2-S2-057K24,2,159,PS,exp,28,→,left,←,0.5709886001423001,False,18,-1,0,0
Y2-S2-057K24,2,160,PS,exp,37,↓,down,↓,0.5453494000248611,True,19,-1,0,0
Y2-S2-057K24,2,161,PS,exp,45,→,right,→,1.5830022001173347,True,19,-1,0,0
Y2-S2-057K24,2,162,PS,exp,34,←,left,←,1.1564629001077265,True,19,1,1,1
Y2-S2-057K24,2,163,PS,exp,46,→,right,→,0.545020200079307,True,18,1,0,1
Y2-S2-057K24,2,164,PS,exp,47,↑,up,↑,0.7266303000506014,True,18,1,0,1
Y2-S2-057K24,2,165,PS,exp,47,→,right,→,0.5009691000450402,True,18,1,0,1
Y2-S2-057K24,2,166,PS,exp,35,←,right,→,1.6227267000358552,False,17,-1,1,2
Y2-S2-057K24,2,167,PS,exp,40,→,right,→,0.7901936999987811,True,18,-1,0,2
Y2-S2-057K24,2,168,PS,exp,48,↓,right,→,0.8993751001544297,False,18,-1,0,2
Y2-S2-057K24,2,169,PS,exp,40,←,left,←,0.561070199823007,True,19,-1,0,2
Y2-S2-057K24,2,170,PS,exp,30,↓,down,↓,0.7027449999004602,True,19,-1,0,2
Y2-S2-057K24,2,171,PS,exp,28,→,left,←,1.0075079998932779,False,19,-1,0,2
Y2-S2-057K24,2,172,PS,exp,27,↑,right,→,0.7321460000239313,False,20,-1,0,2
Y2-S2-057K24,2,173,PS,exp,50,→,right,→,0.5819535001646727,True,21,-1,0,2
Y2-S2-057K24,2,174,PS,exp,34,←,left,←,1.0379776998888701,True,21,-1,0,2
Y2-S2-057K24,2,175,PS,exp,29,↓,down,↓,0.9502164998557419,True,21,1,1,3
Y2-S2-057K24,2,176,PS,exp,39,←,left,←,0.5467189999762923,True,20,1,0,3
Y2-S2-057K24,2,177,PS,exp,50,→,left,←,1.6398892002180219,False,20,-1,1,4
Y2-S2-057K24,2,178,PS,exp,29,↓,down,↓,0.559430800145492,True,21,-1,0,4
Y2-S2-057K24,2,179,PS,exp,33,→,right,→,0.7013511001132429,True,21,-1,0,4
Y2-S2-057K24,2,180,PS,exp,29,↑,up,↑,0.7696350999176502,True,21,1,1,5
Y2-S2-057K24,2,181,PS,exp,33,↓,down,↓,0.5398976998403668,True,20,1,0,5
Y2-S2-057K24,2,182,PS,exp,48,→,right,→,0.7123634000308812,True,20,1,0,5
Y2-S2-057K24,2,183,PS,exp,42,↓,down,↓,0.5798731001559645,True,20,1,0,5
Y2-S2-057K24,2,184,PS,exp,46,←,right,→,0.8674351999070495,False,19,-1,1,6
Y2-S2-057K24,2,185,PS,exp,50,↓,down,↓,0.9639469000976533,True,20,-1,0,6
Y2-S2-057K24,2,186,PS,exp,37,↑,down,↓,0.7885277001187205,False,20,-1,0,6
Y2-S2-057K24,2,187,PS,exp,32,↓,down,↓,0.9405418999958783,True,21,-1,0,6
Y2-S2-057K24,2,188,PS,exp,47,→,up,↑,0.8545278999954462,False,21,-1,0,6
Y2-S2-057K24,2,189,PS,exp,29,←,left,←,0.964662600075826,True,22,-1,0,6
Y2-S2-057K24,2,190,PS,exp,34,→,right,→,0.8747474001720548,True,22,-1,0,6
Y2-S2-057K24,2,191,PS,exp,39,↓,down,↓,0.8247499000281096,True,22,1,1,7
Y2-S2-057K24,2,192,PS,exp,35,↑,up,↑,0.5751097002066672,True,21,1,0,7
Y2-S2-057K24,2,193,PS,exp,37,←,left,←,0.5571718001738191,True,21,1,0,7
Y2-S2-057K24,2,194,PS,exp,45,↑,up,↑,0.6539421998895705,True,21,1,0,7
Y2-S2-057K24,2,195,PS,exp,47,←,left,←,0.5094222000334412,True,20,1,0,7
Y2-S2-057K24,2,196,PS,exp,50,↓,left,←,0.30096359993331134,False,20,-1,1,8
Y2-S2-057K24,2,197,PS,exp,42,→,right,→,0.6115672998130322,True,21,-1,0,8
Y2-S2-057K24,2,198,PS,exp,29,←,left,←,0.6196469001006335,True,21,-1,0,8
Y2-S2-057K24,2,199,PS,exp,29,→,right,→,0.7540122999344021,True,21,1,1,9
Y2-S2-057K24,2,200,PS,exp,45,↑,up,↑,0.9403216999489814,True,20,1,0,9
Y2-S2-057K24,2,201,PS,exp,25,→,right,→,0.5982186999171972,True,20,1,0,9
Y2-S2-057K24,2,202,PS,exp,28,↓,down,↓,0.5500705998856574,True,20,1,0,9
Y2-S2-057K24,2,203,PS,exp,33,←,left,←,0.6719063001219183,True,19,1,0,9
Y2-S2-057K24,2,204,PS,exp,30,→,right,→,0.5398631000425667,True,19,1,0,9
Y2-S2-057K24,2,205,PS,exp,26,↑,up,↑,0.6965995999053121,True,19,1,0,9
Y2-S2-057K24,2,206,PS,exp,37,↓,down,↓,1.3012653000187129,True,18,1,0,9
Y2-S2-057K24,2,207,PS,exp,38,→,left,←,0.535151599906385,False,18,-1,1,10
Y2-S2-057K24,2,208,PS,exp,43,↑,up,↑,0.5561349000781775,True,19,-1,0,10
Y2-S2-057K24,2,209,PS,exp,32,↓,up,↑,0.6902755000628531,False,19,-1,0,10
Y2-S2-057K24,2,210,PS,exp,44,←,left,←,0.6611258001066744,True,20,-1,0,10
Y2-S2-057K24,2,211,PS,exp,47,↓,right,→,0.8112977999262512,False,20,-1,0,10
Y2-S2-057K24,2,212,PS,exp,35,↑,up,↑,0.5547893000766635,True,21,-1,0,10
Y2-S2-057K24,2,213,PS,exp,50,→,right,→,0.5970838000066578,True,21,-1,0,10
Y2-S2-057K24,2,214,PS,exp,45,↑,up,↑,0.7061985000036657,True,21,1,1,11
Y2-S2-057K24,2,215,PS,exp,35,↓,down,↓,0.7277657999657094,True,20,1,0,11
Y2-S2-057K24,2,216,PS,exp,39,↑,up,↑,0.5781766001600772,True,20,1,0,11
Y2-S2-057K24,2,217,PS,exp,27,↓,down,↓,0.6430035000666976,True,20,1,0,11
Y2-S2-057K24,2,218,PS,exp,50,←,right,→,1.1047674999572337,False,19,-1,1,12
Y2-S2-057K24,2,219,PS,exp,49,→,right,→,0.7604644000530243,True,20,-1,0,12
Y2-S2-057K24,2,220,PS,exp,46,←,left,←,0.7404992000665516,True,20,-1,0,12
Y2-S2-057K24,2,221,PS,exp,50,↑,left,←,0.8662259001284838,False,20,-1,0,12
Y2-S2-057K24,2,222,PS,exp,39,←,left,←,0.43383140000514686,True,21,-1,0,12
Y2-S2-057K24,2,223,PS,exp,28,↑,right,→,1.150023000082001,False,21,-1,0,12
Y2-S2-057K24,2,224,PS,exp,47,→,right,→,0.4503077999688685,True,22,-1,0,12
Y2-S2-057K24,2,225,PS,exp,40,←,left,←,0.6072682000230998,True,22,-1,0,12
Y2-S2-057K24,2,226,PS,exp,47,↓,down,↓,0.6683741000015289,True,22,1,1,13
Y2-S2-057K24,2,227,PS,exp,32,→,right,→,0.7435392998158932,True,21,1,0,13
Y2-S2-057K24,2,228,PS,exp,37,↑,down,↓,0.8892705000471324,False,21,-1,1,14
Y2-S2-057K24,2,229,PS,exp,48,←,no_key,no_letter,-1.0,False,22,-1,0,14
Y2-S2-057K24,2,230,PS,exp,34,→,right,→,0.622593899955973,True,23,-1,0,14
Y2-S2-057K24,2,231,PS,exp,27,↓,no_key,no_letter,-1.0,False,23,-1,0,14
Y2-S2-057K24,2,232,PS,exp,40,→,right,→,0.66954500018619,True,24,-1,0,14
Y2-S2-057K24,2,233,PS,exp,25,↓,down,↓,0.7199293999001384,True,24,-1,0,14
Y2-S2-057K24,2,234,PS,exp,35,←,left,←,1.3425495000556111,True,24,1,1,15
Y2-S2-057K24,2,235,PS,exp,42,↓,down,↓,0.8230606000870466,True,23,1,0,15
Y2-S2-057K24,2,236,PS,exp,36,↑,up,↑,0.7148641999810934,True,23,1,0,15
Y2-S2-057K24,2,237,PS,exp,36,→,right,→,0.6774133001454175,True,23,1,0,15
Y2-S2-057K24,2,238,PS,exp,49,↓,down,↓,0.7791182000655681,True,22,1,0,15
Y2-S2-057K24,2,239,PS,exp,43,↑,up,↑,0.5672508999705315,True,22,1,0,15
Y2-S2-057K24,2,240,PS,exp,48,→,right,→,0.5669285000767559,True,22,1,0,15
Y2-S2-057K24,2,241,PS,exp,41,↑,up,↑,0.55257279984653,True,21,1,0,15
Y2-S2-057K24,2,242,PS,exp,30,→,right,→,1.000959200086072,True,21,1,0,15
Y2-S2-057K24,2,243,PS,exp,41,←,left,←,0.8997994000092149,True,21,1,0,15
Y2-S2-057K24,2,244,PS,exp,35,↓,up,↑,0.9359621999319643,False,20,-1,1,16
Y2-S2-057K24,3,245,PS,intra_train,35,↑,up,↑,0.46741840010508895,True,24,-,-,-
Y2-S2-057K24,3,246,PS,intra_train,26,→,right,→,1.0537101000081748,True,24,-,-,-
Y2-S2-057K24,3,247,PS,intra_train,41,←,left,←,1.0243530999869108,True,24,-,-,-
Y2-S2-057K24,3,248,PS,intra_train,38,↓,down,↓,0.6196900000795722,True,24,-,-,-
Y2-S2-057K24,3,249,PS,intra_train,42,→,right,→,0.4670560001395643,True,24,-,-,-
Y2-S2-057K24,3,250,PS,exp,49,↑,up,↑,1.0356293998192996,True,16,0,0,0
Y2-S2-057K24,3,251,PS,exp,46,→,right,→,0.5176484999246895,True,16,0,0,0
Y2-S2-057K24,3,252,PS,exp,48,↓,down,↓,0.750543000176549,True,16,1,0,0
Y2-S2-057K24,3,253,PS,exp,34,←,right,→,0.8070408999919891,False,15,-1,1,1
Y2-S2-057K24,3,254,PS,exp,39,→,right,→,0.5643136999569833,True,16,-1,0,1
Y2-S2-057K24,3,255,PS,exp,37,←,right,→,0.8317195000126958,False,16,-1,0,1
Y2-S2-057K24,3,256,PS,exp,43,↓,down,↓,0.47465899982489645,True,17,-1,0,1
Y2-S2-057K24,3,257,PS,exp,45,←,left,←,0.47214660001918674,True,17,-1,0,1
Y2-S2-057K24,3,258,PS,exp,45,↓,right,→,0.7155001000501215,False,17,-1,0,1
Y2-S2-057K24,3,259,PS,exp,36,→,right,→,0.6656109001487494,True,18,-1,0,1
Y2-S2-057K24,3,260,PS,exp,40,↓,right,→,0.8534085999708623,False,18,-1,0,1
Y2-S2-057K24,3,261,PS,exp,45,←,right,→,0.78275700006634,False,19,-1,0,1
Y2-S2-057K24,3,262,PS,exp,42,↓,down,↓,0.6251725999172777,True,20,-1,0,1
Y2-S2-057K24,3,263,PS,exp,41,←,left,←,0.41699689999222755,True,20,-1,0,1
Y2-S2-057K24,3,264,PS,exp,43,→,right,→,0.8062442999798805,True,20,1,1,2
Y2-S2-057K24,3,265,PS,exp,34,←,left,←,0.7759364999365062,True,19,1,0,2
Y2-S2-057K24,3,266,PS,exp,39,↓,right,→,0.7212412001099437,False,19,-1,1,3
Y2-S2-057K24,3,267,PS,exp,50,→,right,→,0.578454399947077,True,20,-1,0,3
Y2-S2-057K24,3,268,PS,exp,26,↑,up,↑,0.8659802998881787,True,20,-1,0,3
Y2-S2-057K24,3,269,PS,exp,40,→,right,→,0.569113900186494,True,20,1,1,4
Y2-S2-057K24,3,270,PS,exp,45,↓,down,↓,0.655362999998033,True,19,1,0,4
Y2-S2-057K24,3,271,PS,exp,43,←,left,←,0.740714899962768,True,19,1,0,4
Y2-S2-057K24,3,272,PS,exp,48,↑,up,↑,0.7750699000898749,True,19,1,0,4
Y2-S2-057K24,3,273,PS,exp,28,←,left,←,0.5876611000858247,True,18,1,0,4
Y2-S2-057K24,3,274,PS,exp,30,→,left,←,1.01555659994483,False,18,-1,1,5
Y2-S2-057K24,3,275,PS,exp,40,↓,down,↓,0.5989501997828484,True,19,-1,0,5
Y2-S2-057K24,3,276,PS,exp,30,↑,up,↑,0.6367111001163721,True,19,-1,0,5
Y2-S2-057K24,3,277,PS,exp,41,↓,down,↓,0.568157099885866,True,19,1,1,6
Y2-S2-057K24,3,278,PS,exp,31,→,right,→,0.49933050014078617,True,18,1,0,6
Y2-S2-057K24,3,279,PS,exp,28,←,left,←,1.0355235999450088,True,18,1,0,6
Y2-S2-057K24,3,280,PS,exp,35,↑,up,↑,0.6976036999840289,True,18,1,0,6
Y2-S2-057K24,3,281,PS,exp,31,↓,down,↓,0.7017820000182837,True,17,1,0,6
Y2-S2-057K24,3,282,PS,exp,40,←,left,←,0.6842991998419166,True,17,1,0,6
Y2-S2-057K24,3,283,PS,exp,45,↑,up,↑,0.6394060000311583,True,17,1,0,6
Y2-S2-057K24,3,284,PS,exp,34,→,right,→,0.5619354001246393,True,16,1,0,6
Y2-S2-057K24,3,285,PS,exp,48,↓,down,↓,0.6945549000520259,True,16,1,0,6
Y2-S2-057K24,3,286,PS,exp,49,↑,up,↑,0.6313749998807907,True,16,1,0,6
Y2-S2-057K24,3,287,PS,exp,35,↓,down,↓,0.5945412998553365,True,15,1,0,6
Y2-S2-057K24,3,288,PS,exp,30,↑,left,←,1.035375300096348,False,15,-1,1,7
Y2-S2-057K24,3,289,PS,exp,31,↓,down,↓,0.6873760998714715,True,16,-1,0,7
Y2-S2-057K24,3,290,PS,exp,41,→,right,→,0.6065223999321461,True,16,-1,0,7
Y2-S2-057K24,3,291,PS,exp,36,←,right,→,0.8298913000617176,False,16,-1,0,7
Y2-S2-057K24,3,292,PS,exp,50,↑,up,↑,0.5829016999341547,True,17,-1,0,7
Y2-S2-057K24,3,293,PS,exp,39,→,right,→,0.757305899867788,True,17,-1,0,7
Y2-S2-057K24,3,294,PS,exp,38,←,left,←,0.5693846000358462,True,17,1,1,8
Y2-S2-057K24,3,295,PS,exp,46,↑,up,↑,0.5332553999032825,True,16,1,0,8
Y2-S2-057K24,3,296,PS,exp,35,↓,right,→,0.6732502998784184,False,16,-1,1,9
Y2-S2-057K24,3,297,PS,exp,36,←,left,←,0.5051311000715941,True,17,-1,0,9
Y2-S2-057K24,3,298,PS,exp,32,↓,down,↓,0.5692108999937773,True,17,-1,0,9
Y2-S2-057K24,3,299,PS,exp,44,↑,right,→,0.8203589001204818,False,17,-1,0,9
Y2-S2-057K24,3,300,PS,exp,44,←,left,←,0.9746497001033276,True,18,-1,0,9
Y2-S2-057K24,3,301,PS,exp,45,↑,right,→,0.8334321000147611,False,18,-1,0,9
Y2-S2-057K24,3,302,PS,exp,35,→,left,←,0.5659806998446584,False,19,-1,0,9
Y2-S2-057K24,3,303,PS,exp,26,←,left,←,0.9305587999988347,True,20,-1,0,9
Y2-S2-057K24,3,304,PS,exp,35,↑,up,↑,0.7063380000181496,True,20,-1,0,9
Y2-S2-057K24,3,305,PS,exp,27,↓,down,↓,0.6452765001449734,True,20,1,1,10
Y2-S2-057K24,3,306,PS,exp,48,↑,up,↑,0.6714482000097632,True,19,1,0,10
Y2-S2-057K24,3,307,PS,exp,35,↓,right,→,0.7322809000033885,False,19,-1,1,11
Y2-S2-057K24,3,308,PS,exp,44,←,right,→,0.6663663000799716,False,20,-1,0,11
Y2-S2-057K24,3,309,PS,exp,35,→,right,→,0.41719790012575686,True,21,-1,0,11
Y2-S2-057K24,3,310,PS,exp,45,↓,down,↓,0.9997751000337303,True,21,-1,0,11
Y2-S2-057K24,3,311,PS,exp,47,→,right,→,0.4341378998942673,True,21,1,1,12
Y2-S2-057K24,3,312,PS,exp,28,↓,down,↓,0.7772955000400543,True,20,1,0,12
Y2-S2-057K24,3,313,PS,exp,39,→,right,→,0.7633329001255333,True,20,1,0,12
Y2-S2-057K24,3,314,PS,exp,41,←,left,←,0.7351349999662489,True,20,1,0,12
Y2-S2-057K24,3,315,PS,exp,46,→,right,→,0.6068239000160247,True,19,1,0,12
Y2-S2-057K24,3,316,PS,exp,42,←,right,→,0.7437116000801325,False,19,-1,1,13
Y2-S2-057K24,3,317,PS,exp,31,↑,up,↑,0.7475805000867695,True,20,-1,0,13
Y2-S2-057K24,3,318,PS,exp,49,←,left,←,0.5722706001251936,True,20,-1,0,13
Y2-S2-057K24,3,319,PS,exp,31,↑,up,↑,0.608989299973473,True,20,1,1,14
Y2-S2-057K24,3,320,PS,exp,31,→,right,→,0.7550202999264002,True,19,1,0,14
Y2-S2-057K24,3,321,PS,exp,25,↓,down,↓,0.623476899927482,True,19,1,0,14
Y2-S2-057K24,3,322,PS,exp,28,→,right,→,0.6319505998399109,True,19,1,0,14
Y2-S2-057K24,3,323,PS,exp,26,↓,down,↓,0.7307553999125957,True,18,1,0,14
Y2-S2-057K24,3,324,PS,exp,43,←,left,←,0.6470221998170018,True,18,1,0,14
Y2-S2-057K24,3,325,PS,exp,32,→,right,→,0.5762958999257535,True,18,1,0,14
Y2-S2-057K24,3,326,PS,exp,46,←,left,←,0.6191925001330674,True,17,1,0,14
Y2-S2-057K24,3,327,PS,exp,27,→,right,→,0.5905893999151886,True,17,1,0,14
Y2-S2-057K24,3,328,PS,exp,41,↑,up,↑,0.5227169999852777,True,17,1,0,14
Y2-S2-057K24,3,329,PS,exp,47,→,right,→,0.705432299990207,True,16,1,0,14
Y2-S2-057K24,3,330,PS,exp,50,←,left,←,0.6741956998594105,True,16,1,0,14
Y2-S2-057K24,3,331,PS,exp,45,↓,left,←,0.8861190997995436,False,16,-1,1,15
Y2-S2-057K24,3,332,PS,exp,50,→,right,→,0.8197268999647349,True,17,-1,0,15
Y2-S2-057K24,3,333,PS,exp,50,↓,down,↓,0.7768190000206232,True,17,-1,0,15
Y2-S2-057K24,3,334,PS,exp,36,↑,up,↑,0.5789484002161771,True,17,1,1,16
Y2-S2-057K24,4,335,AS,intra_train,46,→,right,→,0.6762468998786062,True,19,-,-,-
Y2-S2-057K24,4,336,AS,intra_train,31,←,left,←,0.665402399841696,True,19,-,-,-
Y2-S2-057K24,4,337,AS,intra_train,34,↓,down,↓,0.6087213999126107,True,19,-,-,-
Y2-S2-057K24,4,338,AS,intra_train,25,←,left,←,0.6140771000646055,True,19,-,-,-
Y2-S2-057K24,4,339,AS,intra_train,33,↓,down,↓,0.7396897000726312,True,19,-,-,-
Y2-S2-057K24,4,340,AS,exp,31,→,right,→,0.6869254000484943,True,13,0,0,0
Y2-S2-057K24,4,341,AS,exp,34,↑,down,↓,1.002390000037849,False,13,-1,0,0
Y2-S2-057K24,4,342,AS,exp,40,←,left,←,0.7366971999872476,True,14,-1,0,0
Y2-S2-057K24,4,343,AS,exp,48,↑,up,↑,0.5483111999928951,True,14,-1,0,0
Y2-S2-057K24,4,344,AS,exp,47,↓,up,↑,0.8917764998041093,False,14,-1,0,0
Y2-S2-057K24,4,345,AS,exp,33,→,right,→,0.5454714999068528,True,15,-1,0,0
Y2-S2-057K24,4,346,AS,exp,29,↑,down,↓,0.6523094000294805,False,15,-1,0,0
Y2-S2-057K24,4,347,AS,exp,27,←,left,←,0.48442530003376305,True,16,-1,0,0
Y2-S2-057K24,4,348,AS,exp,38,↓,up,↑,0.953165499959141,False,16,-1,0,0
Y2-S2-057K24,4,349,AS,exp,28,↑,down,↓,0.8506060999352485,False,17,-1,0,0
Y2-S2-057K24,4,350,AS,exp,41,→,right,→,0.6837986998725682,True,18,-1,0,0
Y2-S2-057K24,4,351,AS,exp,48,↓,right,→,0.9354784998577088,False,18,-1,0,0
Y2-S2-057K24,4,352,AS,exp,26,←,left,←,0.5552913001738489,True,19,-1,0,0
Y2-S2-057K24,4,353,AS,exp,31,↓,down,↓,0.7081247000023723,True,19,-1,0,0
Y2-S2-057K24,4,354,AS,exp,44,←,left,←,0.7316481000743806,True,19,1,1,1
Y2-S2-057K24,4,355,AS,exp,34,↓,down,↓,0.7431801001075655,True,18,1,0,1
Y2-S2-057K24,4,356,AS,exp,35,↑,up,↑,0.757949799997732,True,18,1,0,1
Y2-S2-057K24,4,357,AS,exp,31,↓,down,↓,0.9383107000030577,True,18,1,0,1
Y2-S2-057K24,4,358,AS,exp,41,←,left,←,0.7225834000855684,True,17,1,0,1
Y2-S2-057K24,4,359,AS,exp,40,↑,down,↓,0.8237636000849307,False,17,-1,1,2
Y2-S2-057K24,4,360,AS,exp,36,←,right,→,0.5292415001895279,False,18,-1,0,2
Y2-S2-057K24,4,361,AS,exp,50,↑,up,↑,0.6798296000342816,True,19,-1,0,2
Y2-S2-057K24,4,362,AS,exp,50,←,left,←,0.6132815999444574,True,19,-1,0,2
Y2-S2-057K24,4,363,AS,exp,40,↓,down,↓,0.5447583999484777,True,19,1,1,3
Y2-S2-057K24,4,364,AS,exp,28,→,right,→,0.6599524000193924,True,18,1,0,3
Y2-S2-057K24,4,365,AS,exp,48,↑,down,↓,0.9571805000305176,False,18,-1,1,4
Y2-S2-057K24,4,366,AS,exp,31,→,right,→,0.4507403001189232,True,19,-1,0,4
Y2-S2-057K24,4,367,AS,exp,30,↑,up,↑,0.9772810998838395,True,19,-1,0,4
Y2-S2-057K24,4,368,AS,exp,29,→,right,→,0.4862182999495417,True,19,1,1,5
Y2-S2-057K24,4,369,AS,exp,32,↓,down,↓,0.4823680999688804,True,18,1,0,5
Y2-S2-057K24,4,370,AS,exp,49,←,left,←,0.9591707000508904,True,18,1,0,5
Y2-S2-057K24,4,371,AS,exp,42,↑,down,↓,0.7050494998693466,False,18,-1,1,6
Y2-S2-057K24,4,372,AS,exp,26,←,left,←,0.5486668001394719,True,19,-1,0,6
Y2-S2-057K24,4,373,AS,exp,31,→,right,→,0.45060690003447235,True,19,-1,0,6
Y2-S2-057K24,4,374,AS,exp,31,←,left,←,0.936812800122425,True,19,1,1,7
Y2-S2-057K24,4,375,AS,exp,27,↑,up,↑,0.8845571000128984,True,18,1,0,7
Y2-S2-057K24,4,376,AS,exp,40,→,right,→,0.8443028000183403,True,18,1,0,7
Y2-S2-057K24,4,377,AS,exp,36,↓,down,↓,0.7532816000748426,True,18,1,0,7
Y2-S2-057K24,4,378,AS,exp,29,→,right,→,0.6088964999653399,True,17,1,0,7
Y2-S2-057K24,4,379,AS,exp,44,↑,up,↑,0.6254021998029202,True,17,1,0,7
Y2-S2-057K24,4,380,AS,exp,40,↓,down,↓,0.8465530998073518,True,17,1,0,7
Y2-S2-057K24,4,381,AS,exp,33,↑,up,↑,0.5894196000881493,True,16,1,0,7
Y2-S2-057K24,4,382,AS,exp,28,←,left,←,0.6729721000883728,True,16,1,0,7
Y2-S2-057K24,4,383,AS,exp,27,↓,down,↓,0.8633314000908285,True,16,1,0,7
Y2-S2-057K24,4,384,AS,exp,47,→,right,→,0.8516538999974728,True,15,1,0,7
Y2-S2-057K24,4,385,AS,exp,32,←,left,←,0.7531897998414934,True,15,1,0,7
Y2-S2-057K24,4,386,AS,exp,31,↑,up,↑,0.723745500203222,True,15,1,0,7
Y2-S2-057K24,4,387,AS,exp,30,←,left,←,0.556156300008297,True,14,1,0,7
Y2-S2-057K24,4,388,AS,exp,42,↑,up,↑,0.6336761000566185,True,14,1,0,7
Y2-S2-057K24,4,389,AS,exp,41,→,right,→,0.7715730001218617,True,14,1,0,7
Y2-S2-057K24,4,390,AS,exp,48,↓,down,↓,0.636945600155741,True,13,1,0,7
Y2-S2-057K24,4,391,AS,exp,47,↑,up,↑,0.5987295000813901,True,13,1,0,7
Y2-S2-057K24,4,392,AS,exp,37,↓,down,↓,0.5168490000069141,True,13,1,0,7
Y2-S2-057K24,4,393,AS,exp,25,↑,up,↑,0.6603972997982055,True,12,1,0,7
Y2-S2-057K24,4,394,AS,exp,33,←,left,←,0.6046302998438478,True,12,1,0,7
Y2-S2-057K24,4,395,AS,exp,39,↑,up,↑,0.9433019999414682,True,12,1,0,7
Y2-S2-057K24,4,396,AS,exp,33,→,right,→,0.592939900001511,True,11,1,0,7
Y2-S2-057K24,4,397,AS,exp,26,←,right,→,0.6307357999030501,False,11,-1,1,8
Y2-S2-057K24,4,398,AS,exp,27,↑,up,↑,0.749442599946633,True,12,-1,0,8
Y2-S2-057K24,4,399,AS,exp,43,↓,up,↑,0.7248426000587642,False,12,-1,0,8
Y2-S2-057K24,4,400,AS,exp,40,→,left,←,0.7816425999626517,False,13,-1,0,8
Y2-S2-057K24,4,401,AS,exp,49,↓,down,↓,0.6354002000298351,True,14,-1,0,8
Y2-S2-057K24,4,402,AS,exp,31,←,left,←,0.926055199932307,True,14,-1,0,8
Y2-S2-057K24,4,403,AS,exp,31,→,left,←,0.7601995998993516,False,14,-1,0,8
Y2-S2-057K24,4,404,AS,exp,27,←,down,↓,0.8400814000051469,False,15,-1,0,8
Y2-S2-057K24,4,405,AS,exp,49,↓,down,↓,0.7266366998665035,True,16,-1,0,8
Y2-S2-057K24,4,406,AS,exp,35,↑,up,↑,0.7060839999467134,True,16,-1,0,8
Y2-S2-057K24,4,407,AS,exp,40,→,left,←,0.6643298000562936,False,16,-1,0,8
Y2-S2-057K24,4,408,AS,exp,27,↓,down,↓,0.7503032002132386,True,17,-1,0,8
Y2-S2-057K24,4,409,AS,exp,43,→,right,→,0.6587706999853253,True,17,-1,0,8
Y2-S2-057K24,4,410,AS,exp,48,↓,down,↓,0.706876200158149,True,17,1,1,9
Y2-S2-057K24,4,411,AS,exp,40,←,left,←,0.4634823000524193,True,16,1,0,9
Y2-S2-057K24,4,412,AS,exp,50,→,right,→,0.5424579998943955,True,16,1,0,9
Y2-S2-057K24,4,413,AS,exp,43,↑,up,↑,0.5948520000092685,True,16,1,0,9
Y2-S2-057K24,4,414,AS,exp,30,↓,up,↑,0.7889221999794245,False,15,-1,1,10
Y2-S2-057K24,4,415,AS,exp,47,↑,down,↓,0.7418403001502156,False,16,-1,0,10
Y2-S2-057K24,4,416,AS,exp,25,↓,up,↑,0.7849300999660045,False,17,-1,0,10
Y2-S2-057K24,4,417,AS,exp,38,→,right,→,0.6392172002233565,True,18,-1,0,10
Y2-S2-057K24,4,418,AS,exp,29,↑,up,↑,0.5407243999652565,True,18,-1,0,10
Y2-S2-057K24,4,419,AS,exp,47,→,right,→,0.5021893000230193,True,18,1,1,11
Y2-S2-057K24,4,420,AS,exp,41,↓,down,↓,0.8043757998384535,True,17,1,0,11
Y2-S2-057K24,4,421,AS,exp,43,→,right,→,0.6259876999538392,True,17,1,0,11
Y2-S2-057K24,4,422,AS,exp,27,↓,down,↓,0.48837030003778636,True,17,1,0,11
Y2-S2-057K24,4,423,AS,exp,38,↑,right,→,0.6743232000153512,False,16,-1,1,12
Y2-S2-057K24,4,424,AS,exp,39,→,left,←,0.6458263001404703,False,17,-1,0,12
Y2-S2-057K24,4,425,AS,exp,36,←,left,←,0.497924700146541,True,18,-1,0,12
Y2-S2-057K24,4,426,AS,exp,40,→,right,→,0.5687198000960052,True,18,-1,0,12
Y2-S2-057K24,4,427,AS,exp,38,↓,down,↓,0.8579812999814749,True,18,1,1,13
Y2-S2-057K24,4,428,AS,exp,27,←,left,←,0.9399090998340398,True,17,1,0,13
Y2-S2-057K24,4,429,AS,exp,46,→,right,→,0.6212828999850899,True,17,1,0,13
Y2-S2-057K24,4,430,AS,exp,42,↑,down,↓,0.7667169000487775,False,17,-1,1,14
Y2-S2-057K24,4,431,AS,exp,50,→,right,→,0.570440299808979,True,18,-1,0,14
Y2-S2-057K24,4,432,AS,exp,39,↑,up,↑,0.6051851999945939,True,18,-1,0,14
Y2-S2-057K24,4,433,AS,exp,46,←,left,←,0.5227690001484007,True,18,1,1,15
Y2-S2-057K24,4,434,AS,exp,25,↓,down,↓,0.8343407998327166,True,17,1,0,15
Y2-S2-057K24,4,435,AS,exp,34,←,left,←,0.5231964001432061,True,17,1,0,15
Y2-S2-057K24,4,436,AS,exp,26,→,right,→,0.9884414998814464,True,17,1,0,15
Y2-S2-057K24,4,437,AS,exp,45,←,left,←,0.9333714998792857,True,16,1,0,15
Y2-S2-057K24,4,438,AS,exp,42,→,right,→,1.0700344000943005,True,16,1,0,15
Y2-S2-057K24,4,439,AS,exp,48,↓,down,↓,0.9426203998737037,True,16,1,0,15
Y2-S2-057K24,4,440,AS,exp,30,↑,up,↑,0.6826006001792848,True,15,1,0,15
Y2-S2-057K24,4,441,AS,exp,29,→,right,→,0.5382456001825631,True,15,1,0,15
Y2-S2-057K24,4,442,AS,exp,32,←,left,←,0.8041210998781025,True,15,1,0,15
Y2-S2-057K24,4,443,AS,exp,40,→,right,→,0.908935199957341,True,14,1,0,15
Y2-S2-057K24,4,444,AS,exp,45,↓,down,↓,0.8813777999021113,True,14,1,0,15
Y2-S2-057K24,4,445,AS,exp,29,↑,down,↓,0.9728474000003189,False,14,-1,1,16
Y2-S2-057K24,5,446,AS,intra_train,30,←,left,←,0.9291624999605119,True,19,-,-,-
Y2-S2-057K24,5,447,AS,intra_train,47,→,right,→,0.8997825998812914,True,19,-,-,-
Y2-S2-057K24,5,448,AS,intra_train,38,↓,down,↓,0.9939776000101119,True,19,-,-,-
Y2-S2-057K24,5,449,AS,intra_train,38,←,left,←,0.665646999841556,True,19,-,-,-
Y2-S2-057K24,5,450,AS,intra_train,31,→,right,→,0.8354828997980803,True,19,-,-,-
Y2-S2-057K24,5,451,AS,exp,27,↓,right,→,0.9561296000611037,False,13,-1,0,0
Y2-S2-057K24,5,452,AS,exp,43,↑,up,↑,0.7543899000156671,True,14,-1,0,0
Y2-S2-057K24,5,453,AS,exp,50,←,left,←,0.6988836999516934,True,14,-1,0,0
Y2-S2-057K24,5,454,AS,exp,50,↓,up,↑,1.0821630000136793,False,14,-1,0,0
Y2-S2-057K24,5,455,AS,exp,38,←,left,←,0.5243683001026511,True,15,-1,0,0
Y2-S2-057K24,5,456,AS,exp,28,→,right,→,0.7526719998568296,True,15,-1,0,0
Y2-S2-057K24,5,457,AS,exp,28,↑,up,↑,0.49792010011151433,True,15,1,1,1
Y2-S2-057K24,5,458,AS,exp,26,←,right,→,0.8003617997746915,False,14,-1,1,2
Y2-S2-057K24,5,459,AS,exp,32,→,right,→,0.742287099827081,True,15,-1,0,2
Y2-S2-057K24,5,460,AS,exp,48,←,right,→,0.8825413000304252,False,15,-1,0,2
Y2-S2-057K24,5,461,AS,exp,31,→,right,→,0.7626713002100587,True,16,-1,0,2
Y2-S2-057K24,5,462,AS,exp,34,↓,down,↓,0.9578456000890583,True,16,-1,0,2
Y2-S2-057K24,5,463,AS,exp,46,→,right,→,0.6498793999198824,True,16,1,1,3
Y2-S2-057K24,5,464,AS,exp,49,↓,down,↓,0.5805059000849724,True,15,1,0,3
Y2-S2-057K24,5,465,AS,exp,48,→,right,→,0.7701552000362426,True,15,1,0,3
Y2-S2-057K24,5,466,AS,exp,28,↑,up,↑,0.5699639997910708,True,15,1,0,3
Y2-S2-057K24,5,467,AS,exp,31,→,left,←,1.0129557999316603,False,14,-1,1,4
Y2-S2-057K24,5,468,AS,exp,39,↓,down,↓,0.7645531999878585,True,15,-1,0,4
Y2-S2-057K24,5,469,AS,exp,43,→,right,→,1.2424431999679655,True,15,-1,0,4
Y2-S2-057K24,5,470,AS,exp,33,↑,down,↓,1.0050855001900345,False,15,-1,0,4
Y2-S2-057K24,5,471,AS,exp,46,→,right,→,0.6281004000920802,True,16,-1,0,4
Y2-S2-057K24,5,472,AS,exp,39,←,left,←,0.7471364999655634,True,16,-1,0,4
Y2-S2-057K24,5,473,AS,exp,43,→,right,→,0.8675083999987692,True,16,1,1,5
Y2-S2-057K24,5,474,AS,exp,31,←,left,←,0.7682994001079351,True,15,1,0,5
Y2-S2-057K24,5,475,AS,exp,32,↑,up,↑,0.5372091000899673,True,15,1,0,5
Y2-S2-057K24,5,476,AS,exp,30,↓,down,↓,0.5327620999887586,True,15,1,0,5
Y2-S2-057K24,5,477,AS,exp,50,←,left,←,0.7959862998686731,True,14,1,0,5
Y2-S2-057K24,5,478,AS,exp,45,↓,down,↓,0.7823950999882072,True,14,1,0,5
Y2-S2-057K24,5,479,AS,exp,50,←,right,→,0.7689626000355929,False,14,-1,1,6
Y2-S2-057K24,5,480,AS,exp,40,↑,up,↑,0.635465000057593,True,15,-1,0,6
Y2-S2-057K24,5,481,AS,exp,25,↓,up,↑,0.9024946999270469,False,15,-1,0,6
Y2-S2-057K24,5,482,AS,exp,41,→,right,→,0.8173088999465108,True,16,-1,0,6
Y2-S2-057K24,5,483,AS,exp,49,↑,up,↑,0.791653900174424,True,16,-1,0,6
Y2-S2-057K24,5,484,AS,exp,31,↓,down,↓,0.754370299866423,True,16,1,1,7
Y2-S2-057K24,5,485,AS,exp,36,↑,up,↑,0.82043829979375,True,15,1,0,7
Y2-S2-057K24,5,486,AS,exp,49,→,right,→,0.722558599896729,True,15,1,0,7
Y2-S2-057K24,5,487,AS,exp,37,↑,up,↑,0.5961325999815017,True,15,1,0,7
Y2-S2-057K24,5,488,AS,exp,34,↓,up,↑,0.8885154000017792,False,14,-1,1,8
Y2-S2-057K24,5,489,AS,exp,36,→,right,→,0.7181313000619411,True,15,-1,0,8
Y2-S2-057K24,5,490,AS,exp,31,↓,down,↓,0.849356000078842,True,15,-1,0,8
Y2-S2-057K24,5,491,AS,exp,46,←,left,←,1.2228402998298407,True,15,1,1,9
Y2-S2-057K24,5,492,AS,exp,37,↓,up,↑,0.9736176000442356,False,14,-1,1,10
Y2-S2-057K24,5,493,AS,exp,33,←,left,←,0.7803603999782354,True,15,-1,0,10
Y2-S2-057K24,5,494,AS,exp,33,→,right,→,1.7236619999166578,True,15,-1,0,10
Y2-S2-057K24,5,495,AS,exp,34,←,left,←,1.0044984000269324,True,15,1,1,11
Y2-S2-057K24,5,496,AS,exp,34,→,right,→,0.7352539000567049,True,14,1,0,11
Y2-S2-057K24,5,497,AS,exp,36,↓,down,↓,0.9260138999670744,True,14,1,0,11
Y2-S2-057K24,5,498,AS,exp,32,→,right,→,0.6345920001622289,True,14,1,0,11
Y2-S2-057K24,5,499,AS,exp,31,↓,down,↓,0.6559138000011444,True,13,1,0,11
Y2-S2-057K24,5,500,AS,exp,43,↑,right,→,0.6576427000109106,False,13,-1,1,12
Y2-S2-057K24,5,501,AS,exp,34,←,left,←,0.8203721998725086,True,14,-1,0,12
Y2-S2-057K24,5,502,AS,exp,32,↑,up,↑,0.7126645999960601,True,14,-1,0,12
Y2-S2-057K24,5,503,AS,exp,35,←,left,←,0.5260117000434548,True,14,1,1,13
Y2-S2-057K24,5,504,AS,exp,33,→,right,→,0.7874767000321299,True,13,1,0,13
Y2-S2-057K24,5,505,AS,exp,34,←,left,←,0.6646233999636024,True,13,1,0,13
Y2-S2-057K24,5,506,AS,exp,25,↓,down,↓,0.5375266999471933,True,13,1,0,13
Y2-S2-057K24,5,507,AS,exp,27,→,right,→,0.6003785999491811,True,12,1,0,13
Y2-S2-057K24,5,508,AS,exp,25,←,left,←,0.6184956999495625,True,12,1,0,13
Y2-S2-057K24,5,509,AS,exp,49,↓,right,→,1.315586500102654,False,12,-1,1,14
Y2-S2-057K24,5,510,AS,exp,47,←,left,←,0.4698332999832928,True,13,-1,0,14
Y2-S2-057K24,5,511,AS,exp,45,→,right,→,0.6105564997997135,True,13,-1,0,14
Y2-S2-057K24,5,512,AS,exp,38,↑,down,↓,0.6660689997952431,False,13,-1,0,14
Y2-S2-057K24,5,513,AS,exp,46,←,left,←,0.61177509999834,True,14,-1,0,14
Y2-S2-057K24,5,514,AS,exp,39,↓,right,→,0.8609559000469744,False,14,-1,0,14
Y2-S2-057K24,5,515,AS,exp,30,↑,down,↓,0.7071662999223918,False,15,-1,0,14
Y2-S2-057K24,5,516,AS,exp,46,→,right,→,0.5740251999814063,True,16,-1,0,14
Y2-S2-057K24,5,517,AS,exp,36,←,left,←,0.5075978999957442,True,16,-1,0,14
Y2-S2-057K24,5,518,AS,exp,40,→,right,→,0.7184849998448044,True,16,1,1,15
Y2-S2-057K24,5,519,AS,exp,25,←,left,←,0.5478902000468224,True,15,1,0,15
Y2-S2-057K24,5,520,AS,exp,46,→,right,→,0.7983306001406163,True,15,1,0,15
Y2-S2-057K24,5,521,AS,exp,45,↓,right,→,0.6856581999454647,False,15,-1,1,16
Y2-S2-057K24,6,522,PS,intra_train,30,→,right,→,0.6057933000847697,True,24,-,-,-
Y2-S2-057K24,6,523,PS,intra_train,38,↓,down,↓,1.4587648999877274,True,24,-,-,-
Y2-S2-057K24,6,524,PS,intra_train,33,→,right,→,0.8415802998933941,True,24,-,-,-
Y2-S2-057K24,6,525,PS,intra_train,49,↓,down,↓,1.2211068000178784,True,24,-,-,-
Y2-S2-057K24,6,526,PS,intra_train,30,←,left,←,0.7660833999980241,True,24,-,-,-
Y2-S2-057K24,6,527,PS,exp,35,→,left,←,0.9871626999229193,False,16,-1,0,0
Y2-S2-057K24,6,528,PS,exp,44,↓,down,↓,0.6719045999925584,True,17,-1,0,0
Y2-S2-057K24,6,529,PS,exp,26,→,right,→,0.7055931999348104,True,17,-1,0,0
Y2-S2-057K24,6,530,PS,exp,32,↑,up,↑,0.5432482999749482,True,17,1,1,1
Y2-S2-057K24,6,531,PS,exp,39,↓,down,↓,0.5589715000241995,True,16,1,0,1
Y2-S2-057K24,6,532,PS,exp,39,→,right,→,0.9801753000356257,True,16,1,0,1
Y2-S2-057K24,6,533,PS,exp,41,↓,down,↓,0.7321470999158919,True,16,1,0,1
Y2-S2-057K24,6,534,PS,exp,33,←,left,←,0.880979600129649,True,15,1,0,1
Y2-S2-057K24,6,535,PS,exp,29,↑,up,↑,0.7237243999261409,True,15,1,0,1
Y2-S2-057K24,6,536,PS,exp,49,←,left,←,0.8547567999921739,True,15,1,0,1
Y2-S2-057K24,6,537,PS,exp,44,↓,down,↓,0.7146039998624474,True,14,1,0,1
Y2-S2-057K24,6,538,PS,exp,43,→,right,→,0.8646260998211801,True,14,1,0,1
Y2-S2-057K24,6,539,PS,exp,32,↓,down,↓,0.7192042998503894,True,14,1,0,1
Y2-S2-057K24,6,540,PS,exp,34,→,right,→,0.8644139000680298,True,13,1,0,1
Y2-S2-057K24,6,541,PS,exp,50,↑,up,↑,0.8247845999430865,True,13,1,0,1
Y2-S2-057K24,6,542,PS,exp,28,←,right,→,0.7076563001610339,False,13,-1,1,2
Y2-S2-057K24,6,543,PS,exp,25,↓,down,↓,0.7465035999193788,True,14,-1,0,2
Y2-S2-057K24,6,544,PS,exp,48,→,right,→,0.8189940000884235,True,14,-1,0,2
Y2-S2-057K24,6,545,PS,exp,46,↑,up,↑,0.9890493000857532,True,14,1,1,3
Y2-S2-057K24,6,546,PS,exp,41,→,right,→,0.8107935001607984,True,13,1,0,3
Y2-S2-057K24,6,547,PS,exp,43,←,up,↑,1.0401808000169694,False,13,-1,1,4
Y2-S2-057K24,6,548,PS,exp,31,↓,down,↓,0.7037829000037163,True,14,-1,0,4
Y2-S2-057K24,6,549,PS,exp,42,→,right,→,0.6985015000682324,True,14,-1,0,4
Y2-S2-057K24,6,550,PS,exp,47,↑,up,↑,0.7261322000995278,True,14,1,1,5
Y2-S2-057K24,6,551,PS,exp,28,→,right,→,0.7324266999494284,True,13,1,0,5
Y2-S2-057K24,6,552,PS,exp,42,↑,down,↓,0.9575867000967264,False,13,-1,1,6
Y2-S2-057K24,6,553,PS,exp,39,↓,up,↑,0.9469964001327753,False,14,-1,0,6
Y2-S2-057K24,6,554,PS,exp,26,↑,up,↑,0.8454672999214381,True,15,-1,0,6
Y2-S2-057K24,6,555,PS,exp,37,↓,down,↓,0.9082109001465142,True,15,-1,0,6
Y2-S2-057K24,6,556,PS,exp,37,←,left,←,0.865911099826917,True,15,1,1,7
Y2-S2-057K24,6,557,PS,exp,37,↓,down,↓,0.6824064999818802,True,14,1,0,7
Y2-S2-057K24,6,558,PS,exp,32,→,right,→,1.0628844001330435,True,14,1,0,7
Y2-S2-057K24,6,559,PS,exp,32,↑,up,↑,0.7743404000066221,True,14,1,0,7
Y2-S2-057K24,6,560,PS,exp,27,↓,down,↓,0.7224785001017153,True,13,1,0,7
Y2-S2-057K24,6,561,PS,exp,26,→,right,→,0.6899192999117076,True,13,1,0,7
Y2-S2-057K24,6,562,PS,exp,27,←,left,←,0.9803864001296461,True,13,1,0,7
Y2-S2-057K24,6,563,PS,exp,33,→,right,→,1.0153677000198513,True,12,1,0,7
Y2-S2-057K24,6,564,PS,exp,25,←,left,←,0.7750421999953687,True,12,1,0,7
Y2-S2-057K24,6,565,PS,exp,49,→,right,→,1.0011148999910802,True,12,1,0,7
Y2-S2-057K24,6,566,PS,exp,50,↑,right,→,0.9320443000178784,False,11,-1,1,8
Y2-S2-057K24,6,567,PS,exp,50,←,left,←,0.7801395000424236,True,12,-1,0,8
Y2-S2-057K24,6,568,PS,exp,47,↓,down,↓,0.6653174001257867,True,12,-1,0,8
Y2-S2-057K24,6,569,PS,exp,49,→,right,→,1.234332000138238,True,12,1,1,9
Y2-S2-057K24,6,570,PS,exp,35,←,left,←,0.8045666001271456,True,11,1,0,9
Y2-S2-057K24,6,571,PS,exp,48,↑,right,→,0.7843160000629723,False,11,-1,1,10
Y2-S2-057K24,6,572,PS,exp,41,←,left,←,0.975449200021103,True,12,-1,0,10
Y2-S2-057K24,6,573,PS,exp,46,↑,up,↑,0.8415059999097139,True,12,-1,0,10
Y2-S2-057K24,6,574,PS,exp,30,←,left,←,0.9910453998018056,True,12,1,1,11
Y2-S2-057K24,6,575,PS,exp,33,↑,left,←,1.345374699914828,False,11,-1,1,12
Y2-S2-057K24,6,576,PS,exp,28,→,right,→,0.7703891000710428,True,12,-1,0,12
Y2-S2-057K24,6,577,PS,exp,50,↓,down,↓,0.8121249999385327,True,12,-1,0,12
Y2-S2-057K24,6,578,PS,exp,50,↑,up,↑,0.7647226999979466,True,12,1,1,13
Y2-S2-057K24,6,579,PS,exp,47,←,left,←,0.7393992999568582,True,11,1,0,13
Y2-S2-057K24,6,580,PS,exp,50,→,left,←,0.9803796999622136,False,11,-1,1,14
Y2-S2-057K24,6,581,PS,exp,46,←,down,↓,0.9269425000529736,False,12,-1,0,14
Y2-S2-057K24,6,582,PS,exp,40,↓,down,↓,0.5549282000865787,True,13,-1,0,14
Y2-S2-057K24,6,583,PS,exp,25,→,right,→,0.6665976999793202,True,13,-1,0,14
Y2-S2-057K24,6,584,PS,exp,28,←,left,←,0.6734136000741273,True,13,1,1,15
Y2-S2-057K24,6,585,PS,exp,30,↓,down,↓,0.9594165000598878,True,12,1,0,15
Y2-S2-057K24,6,586,PS,exp,26,↑,up,↑,0.7543183998204768,True,12,1,0,15
Y2-S2-057K24,6,587,PS,exp,45,→,up,↑,1.1575575000606477,False,12,-1,1,16
Y2-S2-057K24,7,588,PS,intra_train,41,↓,down,↓,0.7399115001317114,True,24,-,-,-
Y2-S2-057K24,7,589,PS,intra_train,48,→,right,→,0.7063211998902261,True,24,-,-,-
Y2-S2-057K24,7,590,PS,intra_train,26,←,left,←,1.0543974000029266,True,24,-,-,-
Y2-S2-057K24,7,591,PS,intra_train,47,→,right,→,0.7756556000094861,True,24,-,-,-
Y2-S2-057K24,7,592,PS,intra_train,32,↓,down,↓,0.6846071998588741,True,24,-,-,-
Y2-S2-057K24,7,593,PS,exp,34,→,right,→,0.6905491000507027,True,16,0,0,0
Y2-S2-057K24,7,594,PS,exp,26,↑,up,↑,0.6790200001560152,True,16,0,0,0
Y2-S2-057K24,7,595,PS,exp,40,↓,up,↑,1.0131493001244962,False,16,-1,0,0
Y2-S2-057K24,7,596,PS,exp,45,←,left,←,0.7935425001196563,True,17,-1,0,0
Y2-S2-057K24,7,597,PS,exp,39,→,right,→,0.7286257001105696,True,17,-1,0,0
Y2-S2-057K24,7,598,PS,exp,41,←,left,←,0.6642283000983298,True,17,1,1,1
Y2-S2-057K24,7,599,PS,exp,46,↑,up,↑,0.8107806998305023,True,16,1,0,1
Y2-S2-057K24,7,600,PS,exp,29,↓,down,↓,0.6371005999390036,True,16,1,0,1
Y2-S2-057K24,7,601,PS,exp,40,↑,up,↑,0.7654083000961691,True,16,1,0,1
Y2-S2-057K24,7,602,PS,exp,50,↓,down,↓,0.6703595002181828,True,15,1,0,1
Y2-S2-057K24,7,603,PS,exp,45,→,left,←,0.9633589000441134,False,15,-1,1,2
Y2-S2-057K24,7,604,PS,exp,46,←,left,←,0.7947549000382423,True,16,-1,0,2
Y2-S2-057K24,7,605,PS,exp,29,→,right,→,0.6653382000513375,True,16,-1,0,2
Y2-S2-057K24,7,606,PS,exp,46,↓,up,↑,0.9090997001621872,False,16,-1,0,2
Y2-S2-057K24,7,607,PS,exp,26,←,left,←,0.7461544000543654,True,17,-1,0,2
Y2-S2-057K24,7,608,PS,exp,25,↓,down,↓,1.142459100112319,True,17,-1,0,2
Y2-S2-057K24,7,609,PS,exp,34,↑,up,↑,0.7718513000290841,True,17,1,1,3
Y2-S2-057K24,7,610,PS,exp,35,→,right,→,1.0317118000239134,True,16,1,0,3
Y2-S2-057K24,7,611,PS,exp,34,↓,down,↓,0.7825524001382291,True,16,1,0,3
Y2-S2-057K24,7,612,PS,exp,28,→,right,→,0.6284509999677539,True,16,1,0,3
Y2-S2-057K24,7,613,PS,exp,36,←,left,←,1.0526699000038207,True,15,1,0,3
Y2-S2-057K24,7,614,PS,exp,47,→,right,→,0.6774182000663131,True,15,1,0,3
Y2-S2-057K24,7,615,PS,exp,31,←,left,←,0.6778056998737156,True,15,1,0,3
Y2-S2-057K24,7,616,PS,exp,45,↑,up,↑,0.7549845001194626,True,14,1,0,3
Y2-S2-057K24,7,617,PS,exp,49,→,right,→,0.6725467001087964,True,14,1,0,3
Y2-S2-057K24,7,618,PS,exp,34,←,left,←,0.7771377998869866,True,14,1,0,3
Y2-S2-057K24,7,619,PS,exp,38,→,left,←,0.9690757000353187,False,13,-1,1,4
Y2-S2-057K24,7,620,PS,exp,50,↑,right,→,1.1331313999835402,False,14,-1,0,4
Y2-S2-057K24,7,621,PS,exp,31,→,up,↑,0.9926403998397291,False,15,-1,0,4
Y2-S2-057K24,7,622,PS,exp,47,↓,down,↓,0.7923187999986112,True,16,-1,0,4
Y2-S2-057K24,7,623,PS,exp,31,←,left,←,0.7715698999818414,True,16,-1,0,4
Y2-S2-057K24,7,624,PS,exp,30,↑,up,↑,0.8552667000330985,True,16,1,1,5
Y2-S2-057K24,7,625,PS,exp,49,→,right,→,0.7177653999533504,True,15,1,0,5
Y2-S2-057K24,7,626,PS,exp,26,↓,up,↑,1.0733867001254112,False,15,-1,1,6
Y2-S2-057K24,7,627,PS,exp,27,→,right,→,0.9207449001260102,True,16,-1,0,6
Y2-S2-057K24,7,628,PS,exp,31,←,left,←,0.8594110000412911,True,16,-1,0,6
Y2-S2-057K24,7,629,PS,exp,40,→,right,→,0.6352878999896348,True,16,1,1,7
Y2-S2-057K24,7,630,PS,exp,31,↓,down,↓,0.8960998998954892,True,15,1,0,7
Y2-S2-057K24,7,631,PS,exp,32,←,left,←,0.6729327000211924,True,15,1,0,7
Y2-S2-057K24,7,632,PS,exp,47,↓,down,↓,0.696063700132072,True,15,1,0,7
Y2-S2-057K24,7,633,PS,exp,27,→,right,→,0.5768637999426574,True,14,1,0,7
Y2-S2-057K24,7,634,PS,exp,32,←,left,←,0.6681512000504881,True,14,1,0,7
Y2-S2-057K24,7,635,PS,exp,38,↓,down,↓,0.6441226000897586,True,14,1,0,7
Y2-S2-057K24,7,636,PS,exp,35,→,right,→,0.7436312998179346,True,13,1,0,7
Y2-S2-057K24,7,637,PS,exp,36,←,left,←,0.7750248999800533,True,13,1,0,7
Y2-S2-057K24,7,638,PS,exp,42,→,right,→,0.7416892000474036,True,13,1,0,7
Y2-S2-057K24,7,639,PS,exp,25,←,left,←,0.7311925999820232,True,12,1,0,7
Y2-S2-057K24,7,640,PS,exp,35,→,left,←,0.8196532998699695,False,12,-1,1,8
Y2-S2-057K24,7,641,PS,exp,26,←,right,→,0.8991958999540657,False,13,-1,0,8
Y2-S2-057K24,7,642,PS,exp,35,↑,up,↑,0.7900433999020606,True,14,-1,0,8
Y2-S2-057K24,7,643,PS,exp,46,→,right,→,0.806851499946788,True,14,-1,0,8
Y2-S2-057K24,7,644,PS,exp,35,←,left,←,0.7994814999401569,True,14,1,1,9
Y2-S2-057K24,7,645,PS,exp,42,↑,up,↑,0.7542268999386579,True,13,1,0,9
Y2-S2-057K24,7,646,PS,exp,29,→,right,→,0.635053499834612,True,13,1,0,9
Y2-S2-057K24,7,647,PS,exp,32,↑,up,↑,0.6671367001254112,True,13,1,0,9
Y2-S2-057K24,7,648,PS,exp,35,←,left,←,0.6901662000454962,True,12,1,0,9
Y2-S2-057K24,7,649,PS,exp,25,↓,down,↓,0.8152205001097172,True,12,1,0,9
Y2-S2-057K24,7,650,PS,exp,46,↑,up,↑,1.128105000127107,True,12,1,0,9
Y2-S2-057K24,7,651,PS,exp,34,←,left,←,0.7305685998871922,True,11,1,0,9
Y2-S2-057K24,7,652,PS,exp,37,↑,left,←,0.9994238999206573,False,11,-1,1,10
Y2-S2-057K24,7,653,PS,exp,26,→,right,→,0.5947184998076409,True,12,-1,0,10
Y2-S2-057K24,7,654,PS,exp,38,←,left,←,0.7088127001188695,True,12,-1,0,10
Y2-S2-057K24,7,655,PS,exp,32,↓,up,↑,0.7273088998626918,False,12,-1,0,10
Y2-S2-057K24,7,656,PS,exp,27,→,right,→,0.6894779000431299,True,13,-1,0,10
Y2-S2-057K24,7,657,PS,exp,33,↓,down,↓,0.6109444000758231,True,13,-1,0,10
Y2-S2-057K24,7,658,PS,exp,48,↑,up,↑,0.7970952999312431,True,13,1,1,11
Y2-S2-057K24,7,659,PS,exp,48,→,right,→,0.6369485999457538,True,12,1,0,11
Y2-S2-057K24,7,660,PS,exp,36,←,left,←,0.7211800999939442,True,12,1,0,11
Y2-S2-057K24,7,661,PS,exp,34,↑,right,→,0.781274100067094,False,12,-1,1,12
Y2-S2-057K24,7,662,PS,exp,38,↓,down,↓,0.7090992000885308,True,13,-1,0,12
Y2-S2-057K24,7,663,PS,exp,25,←,left,←,0.7874978999607265,True,13,-1,0,12
Y2-S2-057K24,7,664,PS,exp,41,→,right,→,0.49982180004008114,True,13,1,1,13
Y2-S2-057K24,7,665,PS,exp,37,↑,down,↓,0.8749084000010043,False,12,-1,1,14
Y2-S2-057K24,7,666,PS,exp,37,←,down,↓,0.7303374998737127,False,13,-1,0,14
Y2-S2-057K24,7,667,PS,exp,31,↓,down,↓,0.6848134000319988,True,14,-1,0,14
Y2-S2-057K24,7,668,PS,exp,25,←,left,←,0.6564887999556959,True,14,-1,0,14
Y2-S2-057K24,7,669,PS,exp,37,↓,down,↓,0.5941947000101209,True,14,1,1,15
Y2-S2-057K24,7,670,PS,exp,29,←,left,←,0.6360836999956518,True,13,1,0,15
Y2-S2-057K24,7,671,PS,exp,33,↓,up,↑,0.8625058999750763,False,13,-1,1,16
Y2-S2-057K24,8,672,AS,intra_train,35,←,left,←,0.8822361000347883,True,19,-,-,-
Y2-S2-057K24,8,673,AS,intra_train,33,↑,up,↑,0.8295754999853671,True,19,-,-,-
Y2-S2-057K24,8,674,AS,intra_train,41,←,left,←,0.9948243999388069,True,19,-,-,-
Y2-S2-057K24,8,675,AS,intra_train,41,↓,down,↓,0.6936661000363529,True,19,-,-,-
Y2-S2-057K24,8,676,AS,intra_train,29,←,left,←,0.6493518999777734,True,19,-,-,-
Y2-S2-057K24,8,677,AS,exp,34,↑,up,↑,0.7997008999809623,True,13,0,0,0
Y2-S2-057K24,8,678,AS,exp,26,↓,up,↑,0.9858260001055896,False,13,-1,0,0
Y2-S2-057K24,8,679,AS,exp,28,←,left,←,1.2445346000604331,True,14,-1,0,0
Y2-S2-057K24,8,680,AS,exp,48,↑,up,↑,1.1211258999537677,True,14,-1,0,0
Y2-S2-057K24,8,681,AS,exp,34,↓,down,↓,0.6714423999655992,True,14,1,1,1
Y2-S2-057K24,8,682,AS,exp,36,↑,up,↑,0.4439373998902738,True,13,1,0,1
Y2-S2-057K24,8,683,AS,exp,42,↓,down,↓,0.48887640004977584,True,13,1,0,1
Y2-S2-057K24,8,684,AS,exp,34,↑,up,↑,1.0276170999277383,True,13,1,0,1
Y2-S2-057K24,8,685,AS,exp,34,←,left,←,0.779082200024277,True,12,1,0,1
Y2-S2-057K24,8,686,AS,exp,44,↑,up,↑,0.9349298002198339,True,12,1,0,1
Y2-S2-057K24,8,687,AS,exp,33,↓,down,↓,0.7615692999679595,True,12,1,0,1
Y2-S2-057K24,8,688,AS,exp,32,→,right,→,0.6993881999514997,True,11,1,0,1
Y2-S2-057K24,8,689,AS,exp,25,←,right,→,0.9977468999568373,False,11,-1,1,2
Y2-S2-057K24,8,690,AS,exp,39,↓,down,↓,0.6049001000355929,True,12,-1,0,2
Y2-S2-057K24,8,691,AS,exp,36,↑,up,↑,0.9236894000787288,True,12,-1,0,2
Y2-S2-057K24,8,692,AS,exp,31,←,left,←,0.7177156000398099,True,12,1,1,3
Y2-S2-057K24,8,693,AS,exp,46,↑,up,↑,0.7265973000321537,True,11,1,0,3
Y2-S2-057K24,8,694,AS,exp,27,←,left,←,0.6917614000849426,True,11,1,0,3
Y2-S2-057K24,8,695,AS,exp,25,↓,up,↑,0.6873427999671549,False,11,-1,1,4
Y2-S2-057K24,8,696,AS,exp,40,←,up,↑,1.1228087998460978,False,12,-1,0,4
Y2-S2-057K24,8,697,AS,exp,31,↓,down,↓,0.8275160000193864,True,13,-1,0,4
Y2-S2-057K24,8,698,AS,exp,31,↑,up,↑,0.7256547999568284,True,13,-1,0,4
Y2-S2-057K24,8,699,AS,exp,25,→,right,→,0.8469140999950469,True,13,1,1,5
Y2-S2-057K24,8,700,AS,exp,49,←,left,←,0.8056421999353915,True,12,1,0,5
Y2-S2-057K24,8,701,AS,exp,42,↓,up,↑,0.6609322000294924,False,12,-1,1,6
Y2-S2-057K24,8,702,AS,exp,27,←,left,←,0.703987899934873,True,13,-1,0,6
Y2-S2-057K24,8,703,AS,exp,41,→,left,←,0.9915114000905305,False,13,-1,0,6
Y2-S2-057K24,8,704,AS,exp,37,←,left,←,0.8916767998598516,True,14,-1,0,6
Y2-S2-057K24,8,705,AS,exp,31,→,right,→,0.6858970001339912,True,14,-1,0,6
Y2-S2-057K24,8,706,AS,exp,28,↓,down,↓,0.8190959999337792,True,14,1,1,7
Y2-S2-057K24,8,707,AS,exp,43,←,right,→,0.7535067999269813,False,13,-1,1,8
Y2-S2-057K24,8,708,AS,exp,45,↑,down,↓,0.84343699994497,False,14,-1,0,8
Y2-S2-057K24,8,709,AS,exp,32,←,left,←,0.9454270000569522,True,15,-1,0,8
Y2-S2-057K24,8,710,AS,exp,26,↑,up,↑,0.7091246000491083,True,15,-1,0,8
Y2-S2-057K24,8,711,AS,exp,50,↓,down,↓,0.6824991998728365,True,15,1,1,9
Y2-S2-057K24,8,712,AS,exp,45,→,right,→,0.6574797001667321,True,14,1,0,9
Y2-S2-057K24,8,713,AS,exp,32,↓,down,↓,0.8181004000362009,True,14,1,0,9
Y2-S2-057K24,8,714,AS,exp,49,↑,up,↑,0.7718571999575943,True,14,1,0,9
Y2-S2-057K24,8,715,AS,exp,38,←,left,←,0.7181695001199841,True,13,1,0,9
Y2-S2-057K24,8,716,AS,exp,44,↓,up,↑,0.7977773998863995,False,13,-1,1,10
Y2-S2-057K24,8,717,AS,exp,33,←,left,←,0.6959473001770675,True,14,-1,0,10
Y2-S2-057K24,8,718,AS,exp,44,↑,up,↑,0.8638812999706715,True,14,-1,0,10
Y2-S2-057K24,8,719,AS,exp,37,←,left,←,0.8524233000352979,True,14,1,1,11
Y2-S2-057K24,8,720,AS,exp,50,→,right,→,0.8118920000270009,True,13,1,0,11
Y2-S2-057K24,8,721,AS,exp,46,↑,up,↑,0.8932711000088602,True,13,1,0,11
Y2-S2-057K24,8,722,AS,exp,45,→,right,→,0.7854089001193643,True,13,1,0,11
Y2-S2-057K24,8,723,AS,exp,44,↓,up,↑,0.8849975999910384,False,12,-1,1,12
Y2-S2-057K24,8,724,AS,exp,35,↑,up,↑,0.8377333001699299,True,13,-1,0,12
Y2-S2-057K24,8,725,AS,exp,27,↓,down,↓,0.6604780999477953,True,13,-1,0,12
Y2-S2-057K24,8,726,AS,exp,34,↑,down,↓,0.782236099941656,False,13,-1,0,12
Y2-S2-057K24,8,727,AS,exp,46,←,left,←,0.8005564999766648,True,14,-1,0,12
Y2-S2-057K24,8,728,AS,exp,41,→,right,→,0.6668428999837488,True,14,-1,0,12
Y2-S2-057K24,8,729,AS,exp,26,↓,up,↑,0.8379546001087874,False,14,-1,0,12
Y2-S2-057K24,8,730,AS,exp,34,←,left,←,0.7988249000627548,True,15,-1,0,12
Y2-S2-057K24,8,731,AS,exp,40,↓,down,↓,0.6918544000945985,True,15,-1,0,12
Y2-S2-057K24,8,732,AS,exp,33,↑,down,↓,0.8881204999051988,False,15,-1,0,12
Y2-S2-057K24,8,733,AS,exp,32,→,right,→,0.9163343000691384,True,16,-1,0,12
Y2-S2-057K24,8,734,AS,exp,30,↑,up,↑,0.78982810000889,True,16,-1,0,12
Y2-S2-057K24,8,735,AS,exp,46,→,right,→,0.8419218000490218,True,16,1,1,13
Y2-S2-057K24,8,736,AS,exp,50,↓,down,↓,0.9285042998380959,True,15,1,0,13
Y2-S2-057K24,8,737,AS,exp,33,↑,up,↑,0.7609528000466526,True,15,1,0,13
Y2-S2-057K24,8,738,AS,exp,50,←,left,←,0.9426445998251438,True,15,1,0,13
Y2-S2-057K24,8,739,AS,exp,29,→,right,→,0.6679501000326127,True,14,1,0,13
Y2-S2-057K24,8,740,AS,exp,38,↑,up,↑,0.7179938000626862,True,14,1,0,13
Y2-S2-057K24,8,741,AS,exp,29,→,right,→,0.7974847001023591,True,14,1,0,13
Y2-S2-057K24,8,742,AS,exp,32,↑,up,↑,0.7886175999883562,True,13,1,0,13
Y2-S2-057K24,8,743,AS,exp,47,←,left,←,0.7542734001763165,True,13,1,0,13
Y2-S2-057K24,8,744,AS,exp,30,↑,up,↑,0.7566611000802368,True,13,1,0,13
Y2-S2-057K24,8,745,AS,exp,37,←,left,←,0.671850600047037,True,12,1,0,13
Y2-S2-057K24,8,746,AS,exp,39,↓,up,↑,0.9877031000796705,False,12,-1,1,14
Y2-S2-057K24,8,747,AS,exp,27,←,left,←,0.8701798999682069,True,13,-1,0,14
Y2-S2-057K24,8,748,AS,exp,40,↑,up,↑,0.7439663000404835,True,13,-1,0,14
Y2-S2-057K24,8,749,AS,exp,39,←,left,←,0.7056577000766993,True,13,1,1,15
Y2-S2-057K24,8,750,AS,exp,47,↑,up,↑,0.7598850000649691,True,12,1,0,15
Y2-S2-057K24,8,751,AS,exp,26,↓,up,↑,0.6872559001203626,False,12,-1,1,16
