PART_ID,Block_no,Trial_no,Block_type,Trial_type,CSI,Stim_letter,Key_pressed,letter_choose,Rt,Corr,Stimulus Time,Level,Reversal,Revs_count
Y2-S2-127K20,1,1,PS,train,50,↓,down,↓,1.1264618998393416,True,30,-,-,-
Y2-S2-127K20,1,2,PS,train,48,←,left,←,0.6004885998554528,True,30,-,-,-
Y2-S2-127K20,1,3,PS,train,35,↓,down,↓,1.1709463996812701,True,30,-,-,-
Y2-S2-127K20,1,4,PS,train,46,↑,up,↑,0.8751487000845373,True,30,-,-,-
Y2-S2-127K20,1,5,PS,train,33,←,left,←,0.9189214003272355,True,30,-,-,-
Y2-S2-127K20,1,6,PS,train,41,→,right,→,1.043331999797374,True,30,-,-,-
Y2-S2-127K20,1,7,PS,train,48,↓,down,↓,1.0601546997204423,True,30,-,-,-
Y2-S2-127K20,1,8,PS,train,28,↑,up,↑,0.8708315002731979,True,30,-,-,-
Y2-S2-127K20,1,9,PS,train,31,←,left,←,0.6338433003984392,True,30,-,-,-
Y2-S2-127K20,1,10,PS,train,49,↓,down,↓,0.7792007001116872,True,30,-,-,-
Y2-S2-127K20,2,11,AS,train,41,←,left,←,1.1410495000891387,True,45,-,-,-
Y2-S2-127K20,2,12,AS,train,30,↓,down,↓,1.1382545996457338,True,45,-,-,-
Y2-S2-127K20,2,13,AS,train,40,→,right,→,1.3101798999123275,True,45,-,-,-
Y2-S2-127K20,2,14,AS,train,39,↑,up,↑,0.9961735000833869,True,45,-,-,-
Y2-S2-127K20,2,15,AS,train,33,→,right,→,1.0305565996095538,True,45,-,-,-
Y2-S2-127K20,2,16,AS,train,28,↓,down,↓,0.7672105003148317,True,45,-,-,-
Y2-S2-127K20,2,17,AS,train,38,↑,up,↑,0.9285860997624695,True,45,-,-,-
Y2-S2-127K20,2,18,AS,train,31,↓,down,↓,0.7008976996876299,True,45,-,-,-
Y2-S2-127K20,2,19,AS,train,46,↑,up,↑,1.0103555996902287,True,45,-,-,-
Y2-S2-127K20,2,20,AS,train,29,↓,down,↓,1.0281452001072466,True,45,-,-,-
Y2-S2-127K20,-,21,PS,adaptive,33,→,right,→,1.0182541999965906,True,10,0,0,0
Y2-S2-127K20,-,22,PS,adaptive,37,↑,up,↑,0.5341265997849405,True,10,0,0,0
Y2-S2-127K20,-,23,PS,adaptive,50,↓,down,↓,0.5769235002808273,True,10,1,0,0
Y2-S2-127K20,-,24,PS,adaptive,50,←,left,←,0.5441507999785244,True,9,1,0,0
Y2-S2-127K20,-,25,PS,adaptive,41,→,right,→,0.6401471002027392,True,9,1,0,0
Y2-S2-127K20,-,26,PS,adaptive,38,↓,left,←,1.119094000197947,False,9,-1,1,1
Y2-S2-127K20,-,27,PS,adaptive,37,←,left,←,0.7009296999312937,True,10,-1,0,1
Y2-S2-127K20,-,28,PS,adaptive,50,→,right,→,0.6369644999504089,True,10,-1,0,1
Y2-S2-127K20,-,29,PS,adaptive,49,↑,up,↑,0.6132926000282168,True,10,1,1,2
Y2-S2-127K20,-,30,PS,adaptive,29,↓,down,↓,0.6394040999002755,True,9,1,0,2
Y2-S2-127K20,-,31,PS,adaptive,35,←,left,←,0.6367711997590959,True,9,1,0,2
Y2-S2-127K20,-,32,PS,adaptive,44,→,right,→,0.7424081000499427,True,9,1,0,2
Y2-S2-127K20,-,33,PS,adaptive,38,↓,up,↑,1.367491299752146,False,8,-1,1,3
Y2-S2-127K20,-,34,PS,adaptive,37,↑,up,↑,0.5514484997838736,True,9,-1,0,3
Y2-S2-127K20,-,35,PS,adaptive,42,↓,down,↓,0.6305996002629399,True,9,-1,0,3
Y2-S2-127K20,-,36,PS,adaptive,48,↑,up,↑,0.5197511999867857,True,9,1,1,4
Y2-S2-127K20,-,37,AS,adaptive,37,←,left,←,0.8122714003548026,True,20,0,0,0
Y2-S2-127K20,-,38,AS,adaptive,27,↑,up,↑,0.6328344997018576,True,20,0,0,0
Y2-S2-127K20,-,39,AS,adaptive,39,↓,down,↓,0.7657990003935993,True,20,1,0,0
Y2-S2-127K20,-,40,AS,adaptive,50,↑,up,↑,0.7327834996394813,True,19,1,0,0
Y2-S2-127K20,-,41,AS,adaptive,25,↓,down,↓,0.8608552999794483,True,19,1,0,0
Y2-S2-127K20,-,42,AS,adaptive,26,↑,up,↑,0.7272458001971245,True,19,1,0,0
Y2-S2-127K20,-,43,AS,adaptive,50,↓,down,↓,0.8023235998116434,True,18,1,0,0
Y2-S2-127K20,-,44,AS,adaptive,49,←,left,←,1.3225649995729327,True,18,1,0,0
Y2-S2-127K20,-,45,AS,adaptive,37,↑,up,↑,0.7113589001819491,True,18,1,0,0
Y2-S2-127K20,-,46,AS,adaptive,35,←,left,←,0.6811473001725972,True,17,1,0,0
Y2-S2-127K20,-,47,AS,adaptive,45,→,up,↑,1.3044175002723932,False,17,-1,1,1
Y2-S2-127K20,-,48,AS,adaptive,27,↑,up,↑,0.5904733999632299,True,18,-1,0,1
Y2-S2-127K20,-,49,AS,adaptive,46,↓,down,↓,0.8512523001991212,True,18,-1,0,1
Y2-S2-127K20,-,50,AS,adaptive,50,→,left,←,1.4670094000175595,False,18,-1,0,1
Y2-S2-127K20,-,51,AS,adaptive,26,↓,down,↓,1.1759937000460923,True,19,-1,0,1
Y2-S2-127K20,-,52,AS,adaptive,43,←,left,←,0.6744530997239053,True,19,-1,0,1
Y2-S2-127K20,-,53,AS,adaptive,48,↑,up,↑,0.6231857999227941,True,19,1,1,2
Y2-S2-127K20,-,54,AS,adaptive,25,↓,down,↓,0.9118985999375582,True,18,1,0,2
Y2-S2-127K20,-,55,AS,adaptive,42,←,right,→,1.0255927997641265,False,18,-1,1,3
Y2-S2-127K20,-,56,AS,adaptive,30,→,right,→,0.5859030997380614,True,19,-1,0,3
Y2-S2-127K20,-,57,AS,adaptive,39,↑,up,↑,0.7398606999777257,True,19,-1,0,3
Y2-S2-127K20,-,58,AS,adaptive,30,←,left,←,0.646155099850148,True,19,1,1,4
Y2-S2-127K20,1,59,AS,intra_train,25,↓,down,↓,0.550519899930805,True,27,-,-,-
Y2-S2-127K20,1,60,AS,intra_train,36,→,right,→,0.6400603000074625,True,27,-,-,-
Y2-S2-127K20,1,61,AS,intra_train,42,←,left,←,0.6965161003172398,True,27,-,-,-
Y2-S2-127K20,1,62,AS,intra_train,30,↓,down,↓,0.9796605999581516,True,27,-,-,-
Y2-S2-127K20,1,63,AS,intra_train,37,→,right,→,0.7009813999757171,True,27,-,-,-
Y2-S2-127K20,1,64,AS,exp,32,←,left,←,0.5637742001563311,True,18,0,0,0
Y2-S2-127K20,1,65,AS,exp,43,↓,down,↓,0.8309593996964395,True,18,0,0,0
Y2-S2-127K20,1,66,AS,exp,47,↑,up,↑,1.120793600101024,True,18,1,0,0
Y2-S2-127K20,1,67,AS,exp,29,←,left,←,0.6356834000907838,True,17,1,0,0
Y2-S2-127K20,1,68,AS,exp,38,→,right,→,0.6846221000887454,True,17,1,0,0
Y2-S2-127K20,1,69,AS,exp,49,←,left,←,0.6288415002636611,True,17,1,0,0
Y2-S2-127K20,1,70,AS,exp,26,↓,down,↓,0.9905642000958323,True,16,1,0,0
Y2-S2-127K20,1,71,AS,exp,34,↑,up,↑,0.6706956000998616,True,16,1,0,0
Y2-S2-127K20,1,72,AS,exp,34,↓,down,↓,0.7211754000745714,True,16,1,0,0
Y2-S2-127K20,1,73,AS,exp,39,↑,up,↑,0.6577928001061082,True,15,1,0,0
Y2-S2-127K20,1,74,AS,exp,34,→,right,→,0.7172322999686003,True,15,1,0,0
Y2-S2-127K20,1,75,AS,exp,26,↑,up,↑,0.8887653998099267,True,15,1,0,0
Y2-S2-127K20,1,76,AS,exp,45,→,left,←,1.1548970001749694,False,14,-1,1,1
Y2-S2-127K20,1,77,AS,exp,36,↑,up,↑,0.9616823000833392,True,15,-1,0,1
Y2-S2-127K20,1,78,AS,exp,47,↓,down,↓,0.8432338000275195,True,15,-1,0,1
Y2-S2-127K20,1,79,AS,exp,39,←,left,←,0.6127140000462532,True,15,1,1,2
Y2-S2-127K20,1,80,AS,exp,49,↑,down,↓,0.6396800000220537,False,14,-1,1,3
Y2-S2-127K20,1,81,AS,exp,32,↓,up,↑,1.0370812001638114,False,15,-1,0,3
Y2-S2-127K20,1,82,AS,exp,31,←,left,←,0.7197471996769309,True,16,-1,0,3
Y2-S2-127K20,1,83,AS,exp,50,↓,down,↓,0.8222161997109652,True,16,-1,0,3
Y2-S2-127K20,1,84,AS,exp,45,↑,up,↑,0.9587623002007604,True,16,1,1,4
Y2-S2-127K20,1,85,AS,exp,34,←,left,←,0.656130800023675,True,15,1,0,4
Y2-S2-127K20,1,86,AS,exp,28,↑,up,↑,0.7155826999805868,True,15,1,0,4
Y2-S2-127K20,1,87,AS,exp,34,→,right,→,0.7417064998298883,True,15,1,0,4
Y2-S2-127K20,1,88,AS,exp,45,↑,up,↑,0.6696394002065063,True,14,1,0,4
Y2-S2-127K20,1,89,AS,exp,36,→,left,←,1.0815968997776508,False,14,-1,1,5
Y2-S2-127K20,1,90,AS,exp,40,↓,down,↓,0.807880099862814,True,15,-1,0,5
Y2-S2-127K20,1,91,AS,exp,50,←,left,←,0.5251499000005424,True,15,-1,0,5
Y2-S2-127K20,1,92,AS,exp,44,→,left,←,1.5264071002602577,False,15,-1,0,5
Y2-S2-127K20,1,93,AS,exp,39,←,left,←,0.6503022001124918,True,16,-1,0,5
Y2-S2-127K20,1,94,AS,exp,48,→,right,→,0.7380305998958647,True,16,-1,0,5
Y2-S2-127K20,1,95,AS,exp,30,↓,down,↓,1.060033299960196,True,16,1,1,6
Y2-S2-127K20,1,96,AS,exp,25,←,left,←,0.5756248002871871,True,15,1,0,6
Y2-S2-127K20,1,97,AS,exp,32,→,left,←,0.6886919997632504,False,15,-1,1,7
Y2-S2-127K20,1,98,AS,exp,39,↑,up,↑,0.651986800134182,True,16,-1,0,7
Y2-S2-127K20,1,99,AS,exp,29,←,left,←,0.531330999918282,True,16,-1,0,7
Y2-S2-127K20,1,100,AS,exp,40,↓,down,↓,0.911516500171274,True,16,1,1,8
Y2-S2-127K20,1,101,AS,exp,50,↑,up,↑,0.7334728999994695,True,15,1,0,8
Y2-S2-127K20,1,102,AS,exp,32,←,left,←,1.1989834997802973,True,15,1,0,8
Y2-S2-127K20,1,103,AS,exp,30,↓,down,↓,0.8271460998803377,True,15,1,0,8
Y2-S2-127K20,1,104,AS,exp,48,→,right,→,1.1966921999119222,True,14,1,0,8
Y2-S2-127K20,1,105,AS,exp,43,←,no_key,no_letter,-1.0,False,14,-1,1,9
Y2-S2-127K20,1,106,AS,exp,41,↓,down,↓,0.634100700262934,True,15,-1,0,9
Y2-S2-127K20,1,107,AS,exp,29,↑,up,↑,0.9991406998597085,True,15,-1,0,9
Y2-S2-127K20,1,108,AS,exp,43,→,right,→,1.2333133998326957,True,15,1,1,10
Y2-S2-127K20,1,109,AS,exp,26,←,right,→,0.8658063998445868,False,14,-1,1,11
Y2-S2-127K20,1,110,AS,exp,48,↓,down,↓,1.1147169000469148,True,15,-1,0,11
Y2-S2-127K20,1,111,AS,exp,46,→,right,→,0.8521064999513328,True,15,-1,0,11
Y2-S2-127K20,1,112,AS,exp,45,←,left,←,0.8177518001757562,True,15,1,1,12
Y2-S2-127K20,1,113,AS,exp,37,→,right,→,0.6912095998413861,True,14,1,0,12
Y2-S2-127K20,1,114,AS,exp,50,↓,down,↓,0.938903400208801,True,14,1,0,12
Y2-S2-127K20,1,115,AS,exp,27,↑,up,↑,1.33103740029037,True,14,1,0,12
Y2-S2-127K20,1,116,AS,exp,40,→,right,→,0.6199142001569271,True,13,1,0,12
Y2-S2-127K20,1,117,AS,exp,28,↑,up,↑,0.744257299695164,True,13,1,0,12
Y2-S2-127K20,1,118,AS,exp,39,←,right,→,0.9401823002845049,False,13,-1,1,13
Y2-S2-127K20,1,119,AS,exp,46,↓,down,↓,0.8011822998523712,True,14,-1,0,13
Y2-S2-127K20,1,120,AS,exp,50,←,left,←,0.663841400295496,True,14,-1,0,13
Y2-S2-127K20,1,121,AS,exp,27,↓,down,↓,0.719068800099194,True,14,1,1,14
Y2-S2-127K20,1,122,AS,exp,42,→,right,→,0.9326547002419829,True,13,1,0,14
Y2-S2-127K20,1,123,AS,exp,31,↓,down,↓,0.9552752999588847,True,13,1,0,14
Y2-S2-127K20,1,124,AS,exp,30,↑,up,↑,1.3298960998654366,True,13,1,0,14
Y2-S2-127K20,1,125,AS,exp,30,↓,down,↓,0.7290118001401424,True,12,1,0,14
Y2-S2-127K20,1,126,AS,exp,28,↑,up,↑,0.6674477001652122,True,12,1,0,14
Y2-S2-127K20,1,127,AS,exp,36,→,right,→,0.8489986998029053,True,12,1,0,14
Y2-S2-127K20,1,128,AS,exp,36,↓,left,←,1.1509551000781357,False,11,-1,1,15
Y2-S2-127K20,1,129,AS,exp,32,←,left,←,0.9875389002263546,True,12,-1,0,15
Y2-S2-127K20,1,130,AS,exp,48,↑,up,↑,0.5744310999289155,True,12,-1,0,15
Y2-S2-127K20,1,131,AS,exp,31,→,right,→,0.7708411999046803,True,12,1,1,16
Y2-S2-127K20,2,132,PS,intra_train,25,↓,down,↓,0.6150330998934805,True,12,-,-,-
Y2-S2-127K20,2,133,PS,intra_train,39,↑,up,↑,0.640278700273484,True,12,-,-,-
Y2-S2-127K20,2,134,PS,intra_train,45,→,right,→,0.7701897001825273,True,12,-,-,-
Y2-S2-127K20,2,135,PS,intra_train,29,↓,down,↓,0.7275108001194894,True,12,-,-,-
Y2-S2-127K20,2,136,PS,intra_train,42,←,left,←,0.537960599642247,True,12,-,-,-
Y2-S2-127K20,2,137,PS,exp,33,↑,up,↑,0.7263313997536898,True,8,0,0,0
Y2-S2-127K20,2,138,PS,exp,46,←,right,→,0.5961959999985993,False,8,-1,0,0
Y2-S2-127K20,2,139,PS,exp,49,→,right,→,0.5984223000705242,True,9,-1,0,0
Y2-S2-127K20,2,140,PS,exp,45,↑,up,↑,0.5147998998872936,True,9,-1,0,0
Y2-S2-127K20,2,141,PS,exp,30,→,right,→,0.623573400080204,True,9,1,1,1
Y2-S2-127K20,2,142,PS,exp,43,↓,down,↓,0.9464636999182403,True,8,1,0,1
Y2-S2-127K20,2,143,PS,exp,50,↑,left,←,0.931810200214386,False,8,-1,1,2
Y2-S2-127K20,2,144,PS,exp,48,↓,down,↓,0.5720081999897957,True,9,-1,0,2
Y2-S2-127K20,2,145,PS,exp,41,←,right,→,0.8774892003275454,False,9,-1,0,2
Y2-S2-127K20,2,146,PS,exp,44,↓,down,↓,0.615966200362891,True,10,-1,0,2
Y2-S2-127K20,2,147,PS,exp,31,↑,up,↑,0.49480019975453615,True,10,-1,0,2
Y2-S2-127K20,2,148,PS,exp,28,↓,down,↓,0.6810161997564137,True,10,1,1,3
Y2-S2-127K20,2,149,PS,exp,25,→,right,→,0.5138130001723766,True,9,1,0,3
Y2-S2-127K20,2,150,PS,exp,41,↑,up,↑,0.5016554999165237,True,9,1,0,3
Y2-S2-127K20,2,151,PS,exp,46,↓,down,↓,0.5848250999115407,True,9,1,0,3
Y2-S2-127K20,2,152,PS,exp,32,←,right,→,1.1649688999168575,False,8,-1,1,4
Y2-S2-127K20,2,153,PS,exp,40,→,right,→,0.6376801999285817,True,9,-1,0,4
Y2-S2-127K20,2,154,PS,exp,44,↑,up,↑,0.5421780999749899,True,9,-1,0,4
Y2-S2-127K20,2,155,PS,exp,47,↓,up,↑,0.9491790002211928,False,9,-1,0,4
Y2-S2-127K20,2,156,PS,exp,35,↑,up,↑,0.4019224001094699,True,10,-1,0,4
Y2-S2-127K20,2,157,PS,exp,37,↓,right,→,0.7533118999563158,False,10,-1,0,4
Y2-S2-127K20,2,158,PS,exp,30,→,left,←,1.0079008000902832,False,11,-1,0,4
Y2-S2-127K20,2,159,PS,exp,35,↑,up,↑,0.5992898000404239,True,12,-1,0,4
Y2-S2-127K20,2,160,PS,exp,29,↓,right,→,0.8966522999107838,False,12,-1,0,4
Y2-S2-127K20,2,161,PS,exp,41,↑,up,↑,0.45541979977861047,True,13,-1,0,4
Y2-S2-127K20,2,162,PS,exp,32,←,left,←,0.9050459996797144,True,13,-1,0,4
Y2-S2-127K20,2,163,PS,exp,40,→,right,→,0.6178935002535582,True,13,1,1,5
Y2-S2-127K20,2,164,PS,exp,37,↓,down,↓,0.6033167997375131,True,12,1,0,5
Y2-S2-127K20,2,165,PS,exp,29,↑,up,↑,0.6751143001019955,True,12,1,0,5
Y2-S2-127K20,2,166,PS,exp,26,↓,down,↓,0.6485954001545906,True,12,1,0,5
Y2-S2-127K20,2,167,PS,exp,28,→,right,→,0.5380873996764421,True,11,1,0,5
Y2-S2-127K20,2,168,PS,exp,43,↓,left,←,1.016482399776578,False,11,-1,1,6
Y2-S2-127K20,2,169,PS,exp,26,↑,up,↑,0.4782172003760934,True,12,-1,0,6
Y2-S2-127K20,2,170,PS,exp,26,→,right,→,0.44072529999539256,True,12,-1,0,6
Y2-S2-127K20,2,171,PS,exp,26,←,left,←,0.45569749968126416,True,12,1,1,7
Y2-S2-127K20,2,172,PS,exp,47,→,right,→,0.47404920030385256,True,11,1,0,7
Y2-S2-127K20,2,173,PS,exp,40,↑,up,↑,0.4569873996078968,True,11,1,0,7
Y2-S2-127K20,2,174,PS,exp,37,←,left,←,0.44942109985277057,True,11,1,0,7
Y2-S2-127K20,2,175,PS,exp,25,→,right,→,1.0605539004318416,True,10,1,0,7
Y2-S2-127K20,2,176,PS,exp,40,←,left,←,0.4665450002066791,True,10,1,0,7
Y2-S2-127K20,2,177,PS,exp,48,↓,left,←,1.0093124997802079,False,10,-1,1,8
Y2-S2-127K20,2,178,PS,exp,40,←,left,←,0.37445920007303357,True,11,-1,0,8
Y2-S2-127K20,2,179,PS,exp,35,→,right,→,0.3864307999610901,True,11,-1,0,8
Y2-S2-127K20,2,180,PS,exp,28,↓,down,↓,0.6086880997754633,True,11,1,1,9
Y2-S2-127K20,2,181,PS,exp,26,↑,up,↑,0.46461059991270304,True,10,1,0,9
Y2-S2-127K20,2,182,PS,exp,35,→,right,→,0.4340396001935005,True,10,1,0,9
Y2-S2-127K20,2,183,PS,exp,32,←,up,↑,0.9952446999959648,False,10,-1,1,10
Y2-S2-127K20,2,184,PS,exp,45,↓,down,↓,0.7801621998660266,True,11,-1,0,10
Y2-S2-127K20,2,185,PS,exp,36,↑,up,↑,0.5290643996559083,True,11,-1,0,10
Y2-S2-127K20,2,186,PS,exp,32,→,right,→,0.4998058998025954,True,11,1,1,11
Y2-S2-127K20,2,187,PS,exp,27,↓,down,↓,0.6406778004020452,True,10,1,0,11
Y2-S2-127K20,2,188,PS,exp,40,→,right,→,0.46580660017207265,True,10,1,0,11
Y2-S2-127K20,2,189,PS,exp,25,↓,right,→,0.7996965004131198,False,10,-1,1,12
Y2-S2-127K20,2,190,PS,exp,26,←,left,←,0.9010665002278984,True,11,-1,0,12
Y2-S2-127K20,2,191,PS,exp,45,↓,down,↓,0.7037820001132786,True,11,-1,0,12
Y2-S2-127K20,2,192,PS,exp,30,←,left,←,0.49414389999583364,True,11,1,1,13
Y2-S2-127K20,2,193,PS,exp,34,↓,right,→,0.9923664000816643,False,10,-1,1,14
Y2-S2-127K20,2,194,PS,exp,47,←,left,←,0.4504621997475624,True,11,-1,0,14
Y2-S2-127K20,2,195,PS,exp,38,↑,up,↑,0.400320400018245,True,11,-1,0,14
Y2-S2-127K20,2,196,PS,exp,31,↓,down,↓,0.6069982000626624,True,11,1,1,15
Y2-S2-127K20,2,197,PS,exp,33,↑,left,←,0.37188420025631785,False,10,-1,1,16
Y2-S2-127K20,3,198,PS,intra_train,33,↓,down,↓,0.5960952001623809,True,12,-,-,-
Y2-S2-127K20,3,199,PS,intra_train,48,↑,up,↑,0.4644484999589622,True,12,-,-,-
Y2-S2-127K20,3,200,PS,intra_train,28,←,left,←,0.4631562000140548,True,12,-,-,-
Y2-S2-127K20,3,201,PS,intra_train,40,↓,down,↓,0.7016568998806179,True,12,-,-,-
Y2-S2-127K20,3,202,PS,intra_train,27,→,right,→,0.6207573004066944,True,12,-,-,-
Y2-S2-127K20,3,203,PS,exp,44,←,left,←,0.4542466001585126,True,8,0,0,0
Y2-S2-127K20,3,204,PS,exp,49,→,right,→,0.4586330000311136,True,8,0,0,0
Y2-S2-127K20,3,205,PS,exp,40,↓,down,↓,0.7311487002298236,True,8,1,0,0
Y2-S2-127K20,3,206,PS,exp,25,←,right,→,0.6913515003398061,False,7,-1,1,1
Y2-S2-127K20,3,207,PS,exp,39,↑,up,↑,0.603655300103128,True,8,-1,0,1
Y2-S2-127K20,3,208,PS,exp,45,→,right,→,0.7180491997860372,True,8,-1,0,1
Y2-S2-127K20,3,209,PS,exp,35,↓,left,←,0.7357215997762978,False,8,-1,0,1
Y2-S2-127K20,3,210,PS,exp,36,←,left,←,0.9129463997669518,True,9,-1,0,1
Y2-S2-127K20,3,211,PS,exp,46,↑,left,←,0.9394300002604723,False,9,-1,0,1
Y2-S2-127K20,3,212,PS,exp,40,↓,down,↓,0.5890374002046883,True,10,-1,0,1
Y2-S2-127K20,3,213,PS,exp,33,→,right,→,0.8417289000935853,True,10,-1,0,1
Y2-S2-127K20,3,214,PS,exp,48,↓,up,↑,0.9654272999614477,False,10,-1,0,1
Y2-S2-127K20,3,215,PS,exp,50,→,right,→,0.6138566001318395,True,11,-1,0,1
Y2-S2-127K20,3,216,PS,exp,29,↓,down,↓,0.6139595001004636,True,11,-1,0,1
Y2-S2-127K20,3,217,PS,exp,26,→,right,→,0.41834549978375435,True,11,1,1,2
Y2-S2-127K20,3,218,PS,exp,35,←,left,←,0.4393005999736488,True,10,1,0,2
Y2-S2-127K20,3,219,PS,exp,39,↑,up,↑,0.5260374997742474,True,10,1,0,2
Y2-S2-127K20,3,220,PS,exp,45,←,left,←,0.5429519996978343,True,10,1,0,2
Y2-S2-127K20,3,221,PS,exp,36,↓,down,↓,0.7928508999757469,True,9,1,0,2
Y2-S2-127K20,3,222,PS,exp,30,↑,up,↑,0.47324700001627207,True,9,1,0,2
Y2-S2-127K20,3,223,PS,exp,33,←,left,←,0.49580129981040955,True,9,1,0,2
Y2-S2-127K20,3,224,PS,exp,36,↑,up,↑,0.41163119999691844,True,8,1,0,2
Y2-S2-127K20,3,225,PS,exp,40,→,right,→,0.47488960018381476,True,8,1,0,2
Y2-S2-127K20,3,226,PS,exp,31,←,up,↑,0.871488300152123,False,8,-1,1,3
Y2-S2-127K20,3,227,PS,exp,35,→,right,→,0.5441366001032293,True,9,-1,0,3
Y2-S2-127K20,3,228,PS,exp,42,↓,down,↓,0.7189120003022254,True,9,-1,0,3
Y2-S2-127K20,3,229,PS,exp,42,↑,up,↑,0.4358303998596966,True,9,1,1,4
Y2-S2-127K20,3,230,PS,exp,27,→,right,→,0.5703875003382564,True,8,1,0,4
Y2-S2-127K20,3,231,PS,exp,38,↑,up,↑,0.5070651997812092,True,8,1,0,4
Y2-S2-127K20,3,232,PS,exp,33,→,left,←,1.0334646999835968,False,8,-1,1,5
Y2-S2-127K20,3,233,PS,exp,37,↑,right,→,0.6034185998141766,False,9,-1,0,5
Y2-S2-127K20,3,234,PS,exp,40,↓,down,↓,0.6053885999135673,True,10,-1,0,5
Y2-S2-127K20,3,235,PS,exp,26,↑,up,↑,0.7459583999589086,True,10,-1,0,5
Y2-S2-127K20,3,236,PS,exp,49,↓,up,↑,0.8476881999522448,False,10,-1,0,5
Y2-S2-127K20,3,237,PS,exp,33,↑,up,↑,0.4290864998474717,True,11,-1,0,5
Y2-S2-127K20,3,238,PS,exp,27,↓,down,↓,0.8304765000939369,True,11,-1,0,5
Y2-S2-127K20,3,239,PS,exp,25,→,right,→,1.036468300037086,True,11,1,1,6
Y2-S2-127K20,3,240,PS,exp,25,↓,down,↓,0.5272912001237273,True,10,1,0,6
Y2-S2-127K20,3,241,PS,exp,33,→,right,→,0.46619699988514185,True,10,1,0,6
Y2-S2-127K20,3,242,PS,exp,33,←,left,←,0.6102954000234604,True,10,1,0,6
Y2-S2-127K20,3,243,PS,exp,26,→,right,→,0.4429379999637604,True,9,1,0,6
Y2-S2-127K20,3,244,PS,exp,34,↑,up,↑,0.44193850038573146,True,9,1,0,6
Y2-S2-127K20,3,245,PS,exp,36,←,left,←,0.5699614002369344,True,9,1,0,6
Y2-S2-127K20,3,246,PS,exp,41,↑,up,↑,0.5619460996240377,True,8,1,0,6
Y2-S2-127K20,3,247,PS,exp,48,↓,left,←,1.5227910997346044,False,8,-1,1,7
Y2-S2-127K20,3,248,PS,exp,29,→,right,→,0.4591915002092719,True,9,-1,0,7
Y2-S2-127K20,3,249,PS,exp,25,←,left,←,0.4503783001564443,True,9,-1,0,7
Y2-S2-127K20,3,250,PS,exp,43,↑,up,↑,0.4232863001525402,True,9,1,1,8
Y2-S2-127K20,3,251,PS,exp,50,→,right,→,0.9475998003035784,True,8,1,0,8
Y2-S2-127K20,3,252,PS,exp,26,↑,up,↑,0.5710980999283493,True,8,1,0,8
Y2-S2-127K20,3,253,PS,exp,33,↓,down,↓,0.6924904999323189,True,8,1,0,8
Y2-S2-127K20,3,254,PS,exp,47,→,right,→,0.5436306996271014,True,7,1,0,8
Y2-S2-127K20,3,255,PS,exp,40,↑,up,↑,0.4335631998255849,True,7,1,0,8
Y2-S2-127K20,3,256,PS,exp,40,←,left,←,0.5383115001022816,True,7,1,0,8
Y2-S2-127K20,3,257,PS,exp,45,↑,up,↑,0.46790389996021986,True,6,1,0,8
Y2-S2-127K20,3,258,PS,exp,34,←,right,→,0.7863835003226995,False,6,-1,1,9
Y2-S2-127K20,3,259,PS,exp,50,↑,up,↑,0.4028688999824226,True,7,-1,0,9
Y2-S2-127K20,3,260,PS,exp,50,→,right,→,0.5370533000677824,True,7,-1,0,9
Y2-S2-127K20,3,261,PS,exp,43,↑,up,↑,0.4454884002916515,True,7,1,1,10
Y2-S2-127K20,3,262,PS,exp,45,→,right,→,0.6714439000934362,True,6,1,0,10
Y2-S2-127K20,3,263,PS,exp,31,↓,right,→,0.8083342998288572,False,6,-1,1,11
Y2-S2-127K20,3,264,PS,exp,36,←,left,←,0.4569116998463869,True,7,-1,0,11
Y2-S2-127K20,3,265,PS,exp,38,↓,left,←,0.8768215999007225,False,7,-1,0,11
Y2-S2-127K20,3,266,PS,exp,31,→,up,↑,1.03758140001446,False,8,-1,0,11
Y2-S2-127K20,3,267,PS,exp,38,↑,up,↑,0.6036928999237716,True,9,-1,0,11
Y2-S2-127K20,3,268,PS,exp,42,←,left,←,0.49792169965803623,True,9,-1,0,11
Y2-S2-127K20,3,269,PS,exp,25,↑,up,↑,0.4025969998911023,True,9,1,1,12
Y2-S2-127K20,3,270,PS,exp,37,↓,down,↓,0.6806419999338686,True,8,1,0,12
Y2-S2-127K20,3,271,PS,exp,42,→,right,→,0.5514047998003662,True,8,1,0,12
Y2-S2-127K20,3,272,PS,exp,47,←,left,←,0.5821035001426935,True,8,1,0,12
Y2-S2-127K20,3,273,PS,exp,41,↑,up,↑,0.4735979000106454,True,7,1,0,12
Y2-S2-127K20,3,274,PS,exp,50,↓,left,←,1.6432201000861824,False,7,-1,1,13
Y2-S2-127K20,3,275,PS,exp,27,↑,up,↑,0.4930688999593258,True,8,-1,0,13
Y2-S2-127K20,3,276,PS,exp,50,→,right,→,0.7806183998472989,True,8,-1,0,13
Y2-S2-127K20,3,277,PS,exp,42,↑,up,↑,0.556876799557358,True,8,1,1,14
Y2-S2-127K20,3,278,PS,exp,30,↓,right,→,0.7877340000122786,False,7,-1,1,15
Y2-S2-127K20,3,279,PS,exp,29,↑,up,↑,0.8000149000436068,True,8,-1,0,15
Y2-S2-127K20,3,280,PS,exp,36,↓,down,↓,0.6304955999366939,True,8,-1,0,15
Y2-S2-127K20,3,281,PS,exp,36,←,left,←,0.49286590004339814,True,8,1,1,16
Y2-S2-127K20,4,282,AS,intra_train,28,↑,up,↑,0.6418902999721467,True,27,-,-,-
Y2-S2-127K20,4,283,AS,intra_train,37,→,right,→,1.3197735999710858,True,27,-,-,-
Y2-S2-127K20,4,284,AS,intra_train,30,↑,up,↑,1.1114499997347593,True,27,-,-,-
Y2-S2-127K20,4,285,AS,intra_train,25,↓,down,↓,0.8162858998402953,True,27,-,-,-
Y2-S2-127K20,4,286,AS,intra_train,39,↑,up,↑,0.5674840998835862,True,27,-,-,-
Y2-S2-127K20,4,287,AS,exp,41,←,left,←,0.69319609971717,True,18,0,0,0
Y2-S2-127K20,4,288,AS,exp,41,→,right,→,0.7349268002435565,True,18,0,0,0
Y2-S2-127K20,4,289,AS,exp,49,←,right,→,1.111525900196284,False,18,-1,0,0
Y2-S2-127K20,4,290,AS,exp,25,→,right,→,1.5783075001090765,True,19,-1,0,0
Y2-S2-127K20,4,291,AS,exp,25,↑,up,↑,0.5160660003311932,True,19,-1,0,0
Y2-S2-127K20,4,292,AS,exp,26,→,right,→,0.5576585000380874,True,19,1,1,1
Y2-S2-127K20,4,293,AS,exp,39,↑,up,↑,0.618221300188452,True,18,1,0,1
Y2-S2-127K20,4,294,AS,exp,37,↓,down,↓,0.7717455998063087,True,18,1,0,1
Y2-S2-127K20,4,295,AS,exp,43,↑,up,↑,0.7010486000217497,True,18,1,0,1
Y2-S2-127K20,4,296,AS,exp,50,←,left,←,0.8393148998729885,True,17,1,0,1
Y2-S2-127K20,4,297,AS,exp,26,→,right,→,0.5922574000433087,True,17,1,0,1
Y2-S2-127K20,4,298,AS,exp,34,↓,down,↓,0.7736275000497699,True,17,1,0,1
Y2-S2-127K20,4,299,AS,exp,42,↑,up,↑,0.47097929986193776,True,16,1,0,1
Y2-S2-127K20,4,300,AS,exp,38,→,right,→,0.5805297000333667,True,16,1,0,1
Y2-S2-127K20,4,301,AS,exp,48,←,left,←,0.6564965001307428,True,16,1,0,1
Y2-S2-127K20,4,302,AS,exp,26,↑,right,→,1.120880200061947,False,15,-1,1,2
Y2-S2-127K20,4,303,AS,exp,36,←,right,→,0.7102831997908652,False,16,-1,0,2
Y2-S2-127K20,4,304,AS,exp,49,↑,up,↑,0.6828747000545263,True,17,-1,0,2
Y2-S2-127K20,4,305,AS,exp,40,→,right,→,0.4871185002848506,True,17,-1,0,2
Y2-S2-127K20,4,306,AS,exp,45,↑,right,→,1.1495476998388767,False,17,-1,0,2
Y2-S2-127K20,4,307,AS,exp,34,→,right,→,0.7708577997982502,True,18,-1,0,2
Y2-S2-127K20,4,308,AS,exp,43,←,left,←,0.7075157002545893,True,18,-1,0,2
Y2-S2-127K20,4,309,AS,exp,43,↓,down,↓,0.9590234998613596,True,18,1,1,3
Y2-S2-127K20,4,310,AS,exp,26,→,right,→,0.6627806001342833,True,17,1,0,3
Y2-S2-127K20,4,311,AS,exp,49,↓,down,↓,0.6857652002945542,True,17,1,0,3
Y2-S2-127K20,4,312,AS,exp,47,→,right,→,0.5565027999691665,True,17,1,0,3
Y2-S2-127K20,4,313,AS,exp,42,←,right,→,0.9536170000210404,False,16,-1,1,4
Y2-S2-127K20,4,314,AS,exp,33,→,right,→,0.5097488001920283,True,17,-1,0,4
Y2-S2-127K20,4,315,AS,exp,32,↓,left,←,1.1015341999009252,False,17,-1,0,4
Y2-S2-127K20,4,316,AS,exp,43,←,left,←,0.6509708999656141,True,18,-1,0,4
Y2-S2-127K20,4,317,AS,exp,47,↑,up,↑,0.730391800403595,True,18,-1,0,4
Y2-S2-127K20,4,318,AS,exp,41,←,left,←,0.6779829999431968,True,18,1,1,5
Y2-S2-127K20,4,319,AS,exp,37,→,right,→,0.5542019996792078,True,17,1,0,5
Y2-S2-127K20,4,320,AS,exp,38,←,left,←,0.5828416999429464,True,17,1,0,5
Y2-S2-127K20,4,321,AS,exp,42,↓,down,↓,0.8613733001984656,True,17,1,0,5
Y2-S2-127K20,4,322,AS,exp,26,↑,up,↑,0.5055360002443194,True,16,1,0,5
Y2-S2-127K20,4,323,AS,exp,28,→,right,→,0.529441200196743,True,16,1,0,5
Y2-S2-127K20,4,324,AS,exp,41,↑,up,↑,0.6148599996231496,True,16,1,0,5
Y2-S2-127K20,4,325,AS,exp,49,←,left,←,0.47496260004118085,True,15,1,0,5
Y2-S2-127K20,4,326,AS,exp,39,↑,up,↑,0.8189155999571085,True,15,1,0,5
Y2-S2-127K20,4,327,AS,exp,37,→,right,→,0.4997612996958196,True,15,1,0,5
Y2-S2-127K20,4,328,AS,exp,37,←,left,←,0.6982452003285289,True,14,1,0,5
Y2-S2-127K20,4,329,AS,exp,47,↑,left,←,0.9106900999322534,False,14,-1,1,6
Y2-S2-127K20,4,330,AS,exp,36,→,up,↑,1.000543599948287,False,15,-1,0,6
Y2-S2-127K20,4,331,AS,exp,29,←,left,←,0.5329709998331964,True,16,-1,0,6
Y2-S2-127K20,4,332,AS,exp,40,↓,down,↓,0.767416600137949,True,16,-1,0,6
Y2-S2-127K20,4,333,AS,exp,36,→,right,→,0.49680509977042675,True,16,1,1,7
Y2-S2-127K20,4,334,AS,exp,42,↓,up,↑,0.8109583999030292,False,15,-1,1,8
Y2-S2-127K20,4,335,AS,exp,42,←,left,←,0.5073736002668738,True,16,-1,0,8
Y2-S2-127K20,4,336,AS,exp,33,↑,up,↑,0.6406013001687825,True,16,-1,0,8
Y2-S2-127K20,4,337,AS,exp,35,→,right,→,0.579995300155133,True,16,1,1,9
Y2-S2-127K20,4,338,AS,exp,33,↓,down,↓,0.8023680998012424,True,15,1,0,9
Y2-S2-127K20,4,339,AS,exp,25,↑,up,↑,0.6860642000101507,True,15,1,0,9
Y2-S2-127K20,4,340,AS,exp,42,→,right,→,0.6149181998334825,True,15,1,0,9
Y2-S2-127K20,4,341,AS,exp,45,↓,down,↓,0.8034689002670348,True,14,1,0,9
Y2-S2-127K20,4,342,AS,exp,26,↑,up,↑,0.7731408998370171,True,14,1,0,9
Y2-S2-127K20,4,343,AS,exp,46,→,right,→,0.9952981001697481,True,14,1,0,9
Y2-S2-127K20,4,344,AS,exp,34,←,up,↑,0.7801908999681473,False,13,-1,1,10
Y2-S2-127K20,4,345,AS,exp,36,↑,down,↓,0.967635199893266,False,14,-1,0,10
Y2-S2-127K20,4,346,AS,exp,44,←,left,←,0.5121909002773464,True,15,-1,0,10
Y2-S2-127K20,4,347,AS,exp,35,↑,up,↑,0.8494659997522831,True,15,-1,0,10
Y2-S2-127K20,4,348,AS,exp,26,←,right,→,1.801078099757433,False,15,-1,0,10
Y2-S2-127K20,4,349,AS,exp,45,→,right,→,1.0761664002202451,True,16,-1,0,10
Y2-S2-127K20,4,350,AS,exp,38,↑,up,↑,1.6979701998643577,True,16,-1,0,10
Y2-S2-127K20,4,351,AS,exp,25,↓,down,↓,0.5514011001214385,True,16,1,1,11
Y2-S2-127K20,4,352,AS,exp,38,←,left,←,0.46418979996815324,True,15,1,0,11
Y2-S2-127K20,4,353,AS,exp,28,↑,up,↑,1.1088967001996934,True,15,1,0,11
Y2-S2-127K20,4,354,AS,exp,27,←,left,←,0.48031309992074966,True,15,1,0,11
Y2-S2-127K20,4,355,AS,exp,25,↑,right,→,0.8434220999479294,False,14,-1,1,12
Y2-S2-127K20,4,356,AS,exp,43,←,left,←,0.592270300257951,True,15,-1,0,12
Y2-S2-127K20,4,357,AS,exp,48,→,right,→,0.5002879002131522,True,15,-1,0,12
Y2-S2-127K20,4,358,AS,exp,39,←,left,←,0.6872553001157939,True,15,1,1,13
Y2-S2-127K20,4,359,AS,exp,36,↓,down,↓,1.1548195998184383,True,14,1,0,13
Y2-S2-127K20,4,360,AS,exp,26,→,right,→,0.7133403001353145,True,14,1,0,13
Y2-S2-127K20,4,361,AS,exp,37,←,left,←,0.5744685004465282,True,14,1,0,13
Y2-S2-127K20,4,362,AS,exp,29,↓,right,→,0.9516075002029538,False,13,-1,1,14
Y2-S2-127K20,4,363,AS,exp,33,←,right,→,0.9998313998803496,False,14,-1,0,14
Y2-S2-127K20,4,364,AS,exp,30,↓,left,←,1.0074844001792371,False,15,-1,0,14
Y2-S2-127K20,4,365,AS,exp,30,↑,up,↑,0.9178494000807405,True,16,-1,0,14
Y2-S2-127K20,4,366,AS,exp,38,→,right,→,0.6011203001253307,True,16,-1,0,14
Y2-S2-127K20,4,367,AS,exp,44,↓,up,↑,0.8286790000274777,False,16,-1,0,14
Y2-S2-127K20,4,368,AS,exp,38,↑,up,↑,0.5067952997051179,True,17,-1,0,14
Y2-S2-127K20,4,369,AS,exp,30,↓,right,→,1.0296405996195972,False,17,-1,0,14
Y2-S2-127K20,4,370,AS,exp,38,←,up,↑,0.8504419000819325,False,18,-1,0,14
Y2-S2-127K20,4,371,AS,exp,36,↑,up,↑,0.6544948001392186,True,19,-1,0,14
Y2-S2-127K20,4,372,AS,exp,35,←,left,←,0.8032005000859499,True,19,-1,0,14
Y2-S2-127K20,4,373,AS,exp,50,↑,up,↑,0.8830901999026537,True,19,1,1,15
Y2-S2-127K20,4,374,AS,exp,30,→,right,→,0.6258942000567913,True,18,1,0,15
Y2-S2-127K20,4,375,AS,exp,36,↓,down,↓,0.7128365999087691,True,18,1,0,15
Y2-S2-127K20,4,376,AS,exp,27,←,left,←,0.7263166001066566,True,18,1,0,15
Y2-S2-127K20,4,377,AS,exp,27,↓,down,↓,0.8938806001096964,True,17,1,0,15
Y2-S2-127K20,4,378,AS,exp,50,↑,up,↑,0.4852578998543322,True,17,1,0,15
Y2-S2-127K20,4,379,AS,exp,38,←,right,→,0.8869789000600576,False,17,-1,1,16
Y2-S2-127K20,5,380,AS,intra_train,36,↑,up,↑,0.6200629998929799,True,27,-,-,-
Y2-S2-127K20,5,381,AS,intra_train,47,←,left,←,1.0831768000498414,True,27,-,-,-
Y2-S2-127K20,5,382,AS,intra_train,36,→,right,→,1.1100214999169111,True,27,-,-,-
Y2-S2-127K20,5,383,AS,intra_train,42,←,left,←,0.6200473001226783,True,27,-,-,-
Y2-S2-127K20,5,384,AS,intra_train,43,↑,up,↑,1.0763766001909971,True,27,-,-,-
Y2-S2-127K20,5,385,AS,exp,31,←,left,←,0.6179102999158204,True,18,0,0,0
Y2-S2-127K20,5,386,AS,exp,42,→,right,→,0.49874680023640394,True,18,0,0,0
Y2-S2-127K20,5,387,AS,exp,41,↑,up,↑,0.6896434002555907,True,18,1,0,0
Y2-S2-127K20,5,388,AS,exp,32,←,up,↑,1.346743400208652,False,17,-1,1,1
Y2-S2-127K20,5,389,AS,exp,26,→,right,→,0.5475321998819709,True,18,-1,0,1
Y2-S2-127K20,5,390,AS,exp,29,←,left,←,0.48188129998743534,True,18,-1,0,1
Y2-S2-127K20,5,391,AS,exp,34,↓,down,↓,0.6961898999288678,True,18,1,1,2
Y2-S2-127K20,5,392,AS,exp,33,←,left,←,1.0305695002898574,True,17,1,0,2
Y2-S2-127K20,5,393,AS,exp,25,↓,right,→,1.0033664000220597,False,17,-1,1,3
Y2-S2-127K20,5,394,AS,exp,36,←,left,←,0.6133972997777164,True,18,-1,0,3
Y2-S2-127K20,5,395,AS,exp,47,↑,down,↓,1.118794099893421,False,18,-1,0,3
Y2-S2-127K20,5,396,AS,exp,27,←,left,←,0.6441523996181786,True,19,-1,0,3
Y2-S2-127K20,5,397,AS,exp,39,↑,up,↑,0.9498390997759998,True,19,-1,0,3
Y2-S2-127K20,5,398,AS,exp,44,←,left,←,0.7187891001813114,True,19,1,1,4
Y2-S2-127K20,5,399,AS,exp,47,↑,up,↑,0.936608100309968,True,18,1,0,4
Y2-S2-127K20,5,400,AS,exp,45,→,right,→,1.0038465997204185,True,18,1,0,4
Y2-S2-127K20,5,401,AS,exp,37,↑,up,↑,0.7302125999704003,True,18,1,0,4
Y2-S2-127K20,5,402,AS,exp,31,→,right,→,0.6534032002091408,True,17,1,0,4
Y2-S2-127K20,5,403,AS,exp,40,↑,left,←,0.8554759998805821,False,17,-1,1,5
Y2-S2-127K20,5,404,AS,exp,49,←,left,←,0.7353519997559488,True,18,-1,0,5
Y2-S2-127K20,5,405,AS,exp,49,→,right,→,0.6605952000245452,True,18,-1,0,5
Y2-S2-127K20,5,406,AS,exp,47,↑,up,↑,0.6967874001711607,True,18,1,1,6
Y2-S2-127K20,5,407,AS,exp,39,↓,down,↓,0.8925577001646161,True,17,1,0,6
Y2-S2-127K20,5,408,AS,exp,37,←,left,←,0.561230500228703,True,17,1,0,6
Y2-S2-127K20,5,409,AS,exp,40,→,right,→,0.7564356001093984,True,17,1,0,6
Y2-S2-127K20,5,410,AS,exp,45,↓,down,↓,0.7213667999021709,True,16,1,0,6
Y2-S2-127K20,5,411,AS,exp,47,↑,up,↑,0.5037882002070546,True,16,1,0,6
Y2-S2-127K20,5,412,AS,exp,41,←,left,←,0.6533034001477063,True,16,1,0,6
Y2-S2-127K20,5,413,AS,exp,46,↑,up,↑,0.7278406000696123,True,15,1,0,6
Y2-S2-127K20,5,414,AS,exp,43,→,right,→,0.4616160001605749,True,15,1,0,6
Y2-S2-127K20,5,415,AS,exp,48,↑,up,↑,0.5336504001170397,True,15,1,0,6
Y2-S2-127K20,5,416,AS,exp,42,→,right,→,0.8605975997634232,True,14,1,0,6
Y2-S2-127K20,5,417,AS,exp,39,↑,up,↑,0.8222798998467624,True,14,1,0,6
Y2-S2-127K20,5,418,AS,exp,47,→,right,→,0.6099097998812795,True,14,1,0,6
Y2-S2-127K20,5,419,AS,exp,36,↑,up,↑,0.636961099691689,True,13,1,0,6
Y2-S2-127K20,5,420,AS,exp,33,→,right,→,0.5586906997486949,True,13,1,0,6
Y2-S2-127K20,5,421,AS,exp,38,↓,up,↑,1.019813499879092,False,13,-1,1,7
Y2-S2-127K20,5,422,AS,exp,32,↑,up,↑,0.48475749976933,True,14,-1,0,7
Y2-S2-127K20,5,423,AS,exp,48,→,right,→,0.6309686000458896,True,14,-1,0,7
Y2-S2-127K20,5,424,AS,exp,36,↑,up,↑,0.8020207001827657,True,14,1,1,8
Y2-S2-127K20,5,425,AS,exp,39,←,left,←,0.6571598998270929,True,13,1,0,8
Y2-S2-127K20,5,426,AS,exp,31,→,right,→,0.6385739003308117,True,13,1,0,8
Y2-S2-127K20,5,427,AS,exp,27,↑,up,↑,0.5621477998793125,True,13,1,0,8
Y2-S2-127K20,5,428,AS,exp,43,←,right,→,0.8844961998984218,False,12,-1,1,9
Y2-S2-127K20,5,429,AS,exp,46,→,left,←,0.9729857998900115,False,13,-1,0,9
Y2-S2-127K20,5,430,AS,exp,48,←,left,←,0.6730999001301825,True,14,-1,0,9
Y2-S2-127K20,5,431,AS,exp,26,↓,right,→,0.8032475998625159,False,14,-1,0,9
Y2-S2-127K20,5,432,AS,exp,41,→,right,→,0.6515021002851427,True,15,-1,0,9
Y2-S2-127K20,5,433,AS,exp,47,↑,up,↑,0.9152326001785696,True,15,-1,0,9
Y2-S2-127K20,5,434,AS,exp,29,↓,down,↓,0.8555191000923514,True,15,1,1,10
Y2-S2-127K20,5,435,AS,exp,26,←,left,←,0.6078967000357807,True,14,1,0,10
Y2-S2-127K20,5,436,AS,exp,43,→,right,→,0.6586608001962304,True,14,1,0,10
Y2-S2-127K20,5,437,AS,exp,48,↑,up,↑,1.6330153001472354,True,14,1,0,10
Y2-S2-127K20,5,438,AS,exp,44,←,down,↓,1.7050938000902534,False,13,-1,1,11
Y2-S2-127K20,5,439,AS,exp,45,↓,down,↓,0.6588862002827227,True,14,-1,0,11
Y2-S2-127K20,5,440,AS,exp,50,→,right,→,0.5628133998252451,True,14,-1,0,11
Y2-S2-127K20,5,441,AS,exp,40,↓,up,↑,1.284150400198996,False,14,-1,0,11
Y2-S2-127K20,5,442,AS,exp,45,→,right,→,0.6442015999928117,True,15,-1,0,11
Y2-S2-127K20,5,443,AS,exp,26,←,left,←,0.8263016999699175,True,15,-1,0,11
Y2-S2-127K20,5,444,AS,exp,39,↓,down,↓,0.9419189002364874,True,15,1,1,12
Y2-S2-127K20,5,445,AS,exp,37,←,left,←,1.0421155001968145,True,14,1,0,12
Y2-S2-127K20,5,446,AS,exp,43,↑,up,↑,0.6388058997690678,True,14,1,0,12
Y2-S2-127K20,5,447,AS,exp,42,←,left,←,0.6578532001003623,True,14,1,0,12
Y2-S2-127K20,5,448,AS,exp,41,↑,up,↑,0.41641469998285174,True,13,1,0,12
Y2-S2-127K20,5,449,AS,exp,25,→,right,→,0.6691464995965362,True,13,1,0,12
Y2-S2-127K20,5,450,AS,exp,25,←,right,→,0.7062224000692368,False,13,-1,1,13
Y2-S2-127K20,5,451,AS,exp,39,↓,down,↓,0.8859596997499466,True,14,-1,0,13
Y2-S2-127K20,5,452,AS,exp,38,→,left,←,1.074653800111264,False,14,-1,0,13
Y2-S2-127K20,5,453,AS,exp,31,↑,up,↑,0.5322361998260021,True,15,-1,0,13
Y2-S2-127K20,5,454,AS,exp,41,←,left,←,0.6505769998766482,True,15,-1,0,13
Y2-S2-127K20,5,455,AS,exp,26,↓,down,↓,0.8464795998297632,True,15,1,1,14
Y2-S2-127K20,5,456,AS,exp,30,←,left,←,0.4871104001067579,True,14,1,0,14
Y2-S2-127K20,5,457,AS,exp,31,↑,up,↑,0.8564973999746144,True,14,1,0,14
Y2-S2-127K20,5,458,AS,exp,26,↓,down,↓,1.097219799645245,True,14,1,0,14
Y2-S2-127K20,5,459,AS,exp,37,→,right,→,0.6891052997671068,True,13,1,0,14
Y2-S2-127K20,5,460,AS,exp,49,↓,down,↓,0.651779499836266,True,13,1,0,14
Y2-S2-127K20,5,461,AS,exp,39,→,right,→,0.5181435998529196,True,13,1,0,14
Y2-S2-127K20,5,462,AS,exp,48,↓,down,↓,0.56438949983567,True,12,1,0,14
Y2-S2-127K20,5,463,AS,exp,45,←,down,↓,1.2205815999768674,False,12,-1,1,15
Y2-S2-127K20,5,464,AS,exp,48,→,right,→,0.6372106997296214,True,13,-1,0,15
Y2-S2-127K20,5,465,AS,exp,34,←,left,←,0.5306718996725976,True,13,-1,0,15
Y2-S2-127K20,5,466,AS,exp,33,↓,down,↓,0.746369699947536,True,13,1,1,16
Y2-S2-127K20,6,467,PS,intra_train,25,→,left,←,1.6926095997914672,False,12,-,-,-
Y2-S2-127K20,6,468,PS,intra_train,41,↓,down,↓,0.5165407001040876,True,12,-,-,-
Y2-S2-127K20,6,469,PS,intra_train,39,↑,up,↑,0.5368315996602178,True,12,-,-,-
Y2-S2-127K20,6,470,PS,intra_train,27,←,left,←,0.5106640998274088,True,12,-,-,-
Y2-S2-127K20,6,471,PS,intra_train,44,↑,up,↑,0.4898332003504038,True,12,-,-,-
Y2-S2-127K20,6,472,PS,exp,29,→,right,→,0.5311286002397537,True,8,0,0,0
Y2-S2-127K20,6,473,PS,exp,49,↓,left,←,0.514459399972111,False,8,-1,0,0
Y2-S2-127K20,6,474,PS,exp,38,→,right,→,0.38148760003969073,True,9,-1,0,0
Y2-S2-127K20,6,475,PS,exp,45,↓,down,↓,0.6092655998654664,True,9,-1,0,0
Y2-S2-127K20,6,476,PS,exp,27,→,right,→,0.8502078000456095,True,9,1,1,1
Y2-S2-127K20,6,477,PS,exp,40,←,left,←,0.4050620999187231,True,8,1,0,1
Y2-S2-127K20,6,478,PS,exp,42,→,right,→,0.6667455998249352,True,8,1,0,1
Y2-S2-127K20,6,479,PS,exp,31,↓,left,←,1.3828926999121904,False,8,-1,1,2
Y2-S2-127K20,6,480,PS,exp,32,↑,up,↑,0.47243740037083626,True,9,-1,0,2
Y2-S2-127K20,6,481,PS,exp,26,↓,down,↓,0.810572899878025,True,9,-1,0,2
Y2-S2-127K20,6,482,PS,exp,26,→,right,→,0.47778449999168515,True,9,1,1,3
Y2-S2-127K20,6,483,PS,exp,33,↑,up,↑,0.4356753001920879,True,8,1,0,3
Y2-S2-127K20,6,484,PS,exp,35,→,right,→,0.4557823999784887,True,8,1,0,3
Y2-S2-127K20,6,485,PS,exp,42,←,left,←,0.4134146003052592,True,8,1,0,3
Y2-S2-127K20,6,486,PS,exp,27,→,right,→,0.478587799705565,True,7,1,0,3
Y2-S2-127K20,6,487,PS,exp,40,↓,down,↓,0.5841950001195073,True,7,1,0,3
Y2-S2-127K20,6,488,PS,exp,47,→,right,→,0.4055293998681009,True,7,1,0,3
Y2-S2-127K20,6,489,PS,exp,47,↑,left,←,0.8302861000411212,False,6,-1,1,4
Y2-S2-127K20,6,490,PS,exp,36,↓,down,↓,0.5685295998118818,True,7,-1,0,4
Y2-S2-127K20,6,491,PS,exp,47,→,right,→,0.4221874000504613,True,7,-1,0,4
Y2-S2-127K20,6,492,PS,exp,47,↑,up,↑,0.6277223001234233,True,7,1,1,5
Y2-S2-127K20,6,493,PS,exp,44,↓,down,↓,0.5854515000246465,True,6,1,0,5
Y2-S2-127K20,6,494,PS,exp,37,←,left,←,0.4372219000943005,True,6,1,0,5
Y2-S2-127K20,6,495,PS,exp,33,↓,down,↓,0.5541782998479903,True,6,1,0,5
Y2-S2-127K20,6,496,PS,exp,44,↑,right,→,0.7349632000550628,False,5,-1,1,6
Y2-S2-127K20,6,497,PS,exp,45,→,right,→,0.6651435997337103,True,6,-1,0,6
Y2-S2-127K20,6,498,PS,exp,30,↓,up,↑,1.0637575001455843,False,6,-1,0,6
Y2-S2-127K20,6,499,PS,exp,26,←,up,↑,0.5994589999318123,False,7,-1,0,6
Y2-S2-127K20,6,500,PS,exp,43,↑,left,←,1.162067299708724,False,8,-1,0,6
Y2-S2-127K20,6,501,PS,exp,45,→,right,→,0.5755224996246397,True,9,-1,0,6
Y2-S2-127K20,6,502,PS,exp,29,↑,up,↑,0.5463484995998442,True,9,-1,0,6
Y2-S2-127K20,6,503,PS,exp,36,↓,down,↓,0.5663843997754157,True,9,1,1,7
Y2-S2-127K20,6,504,PS,exp,44,↑,up,↑,0.4160096999257803,True,8,1,0,7
Y2-S2-127K20,6,505,PS,exp,44,↓,left,←,0.8741349996998906,False,8,-1,1,8
Y2-S2-127K20,6,506,PS,exp,29,←,left,←,1.6154370997101068,True,9,-1,0,8
Y2-S2-127K20,6,507,PS,exp,49,→,right,→,0.4726813999004662,True,9,-1,0,8
Y2-S2-127K20,6,508,PS,exp,38,↓,left,←,0.7829809999093413,False,9,-1,0,8
Y2-S2-127K20,6,509,PS,exp,25,↑,up,↑,0.392126000020653,True,10,-1,0,8
Y2-S2-127K20,6,510,PS,exp,46,←,left,←,0.4155768998898566,True,10,-1,0,8
Y2-S2-127K20,6,511,PS,exp,32,↑,right,→,0.7464932999573648,False,10,-1,0,8
Y2-S2-127K20,6,512,PS,exp,30,←,left,←,0.459007500205189,True,11,-1,0,8
Y2-S2-127K20,6,513,PS,exp,27,↓,down,↓,0.6236911998130381,True,11,-1,0,8
Y2-S2-127K20,6,514,PS,exp,42,→,right,→,0.5087485001422465,True,11,1,1,9
Y2-S2-127K20,6,515,PS,exp,35,←,left,←,0.41771170031279325,True,10,1,0,9
Y2-S2-127K20,6,516,PS,exp,34,↓,down,↓,0.6186042996123433,True,10,1,0,9
Y2-S2-127K20,6,517,PS,exp,45,←,right,→,0.8946755998767912,False,10,-1,1,10
Y2-S2-127K20,6,518,PS,exp,42,↓,left,←,0.8061641003005207,False,11,-1,0,10
Y2-S2-127K20,6,519,PS,exp,50,→,right,→,0.6122351000085473,True,12,-1,0,10
Y2-S2-127K20,6,520,PS,exp,47,←,left,←,0.632067299913615,True,12,-1,0,10
Y2-S2-127K20,6,521,PS,exp,33,↑,up,↑,0.45692520029842854,True,12,1,1,11
Y2-S2-127K20,6,522,PS,exp,43,→,right,→,0.4807349001057446,True,11,1,0,11
Y2-S2-127K20,6,523,PS,exp,31,↓,down,↓,0.6753827002830803,True,11,1,0,11
Y2-S2-127K20,6,524,PS,exp,40,↑,up,↑,0.48150760028511286,True,11,1,0,11
Y2-S2-127K20,6,525,PS,exp,40,↓,down,↓,0.7251679999753833,True,10,1,0,11
Y2-S2-127K20,6,526,PS,exp,36,↑,right,→,0.750118600204587,False,10,-1,1,12
Y2-S2-127K20,6,527,PS,exp,32,↓,down,↓,0.8721026000566781,True,11,-1,0,12
Y2-S2-127K20,6,528,PS,exp,25,→,right,→,0.6291720001026988,True,11,-1,0,12
Y2-S2-127K20,6,529,PS,exp,36,↑,up,↑,0.5405462998896837,True,11,1,1,13
Y2-S2-127K20,6,530,PS,exp,32,→,right,→,0.5369027000851929,True,10,1,0,13
Y2-S2-127K20,6,531,PS,exp,33,←,left,←,0.4434234001673758,True,10,1,0,13
Y2-S2-127K20,6,532,PS,exp,29,↓,down,↓,0.7402972001582384,True,10,1,0,13
Y2-S2-127K20,6,533,PS,exp,41,↑,up,↑,0.6409836001694202,True,9,1,0,13
Y2-S2-127K20,6,534,PS,exp,44,→,right,→,0.7052755998447537,True,9,1,0,13
Y2-S2-127K20,6,535,PS,exp,25,←,left,←,0.4227848001755774,True,9,1,0,13
Y2-S2-127K20,6,536,PS,exp,50,→,right,→,0.6353875999338925,True,8,1,0,13
Y2-S2-127K20,6,537,PS,exp,25,←,left,←,0.6934360000304878,True,8,1,0,13
Y2-S2-127K20,6,538,PS,exp,31,↓,down,↓,0.6575299999676645,True,8,1,0,13
Y2-S2-127K20,6,539,PS,exp,37,↑,right,→,0.733513300307095,False,7,-1,1,14
Y2-S2-127K20,6,540,PS,exp,46,↓,up,↑,0.7434374000877142,False,8,-1,0,14
Y2-S2-127K20,6,541,PS,exp,38,←,left,←,0.420652000233531,True,9,-1,0,14
Y2-S2-127K20,6,542,PS,exp,27,↓,right,→,0.6299041998572648,False,9,-1,0,14
Y2-S2-127K20,6,543,PS,exp,28,↑,right,→,0.5164701999165118,False,10,-1,0,14
Y2-S2-127K20,6,544,PS,exp,37,↓,down,↓,0.5744648999534547,True,11,-1,0,14
Y2-S2-127K20,6,545,PS,exp,47,→,right,→,0.5355910998769104,True,11,-1,0,14
Y2-S2-127K20,6,546,PS,exp,35,↑,down,↓,1.152549299877137,False,11,-1,0,14
Y2-S2-127K20,6,547,PS,exp,49,↓,down,↓,0.5952883996069431,True,12,-1,0,14
Y2-S2-127K20,6,548,PS,exp,32,←,left,←,0.5241431999020278,True,12,-1,0,14
Y2-S2-127K20,6,549,PS,exp,37,→,right,→,0.4881734000518918,True,12,1,1,15
Y2-S2-127K20,6,550,PS,exp,41,↓,down,↓,0.6845658998936415,True,11,1,0,15
Y2-S2-127K20,6,551,PS,exp,28,←,left,←,0.48285849997773767,True,11,1,0,15
Y2-S2-127K20,6,552,PS,exp,32,→,right,→,0.39097259985283017,True,11,1,0,15
Y2-S2-127K20,6,553,PS,exp,35,←,left,←,0.7012446001172066,True,10,1,0,15
Y2-S2-127K20,6,554,PS,exp,37,↓,down,↓,0.5854616998694837,True,10,1,0,15
Y2-S2-127K20,6,555,PS,exp,45,→,right,→,0.6205571000464261,True,10,1,0,15
Y2-S2-127K20,6,556,PS,exp,29,←,left,←,0.6068710000254214,True,9,1,0,15
Y2-S2-127K20,6,557,PS,exp,31,↑,up,↑,0.8175252000801265,True,9,1,0,15
Y2-S2-127K20,6,558,PS,exp,35,←,right,→,0.6706496002152562,False,9,-1,1,16
Y2-S2-127K20,7,559,PS,intra_train,46,→,right,→,0.6649585999548435,True,12,-,-,-
Y2-S2-127K20,7,560,PS,intra_train,27,↑,up,↑,0.5197872002609074,True,12,-,-,-
Y2-S2-127K20,7,561,PS,intra_train,28,←,left,←,0.5271544000133872,True,12,-,-,-
Y2-S2-127K20,7,562,PS,intra_train,31,→,right,→,0.4333611000329256,True,12,-,-,-
Y2-S2-127K20,7,563,PS,intra_train,44,↑,up,↑,0.5827178000472486,True,12,-,-,-
Y2-S2-127K20,7,564,PS,exp,49,→,right,→,0.48288390040397644,True,8,0,0,0
Y2-S2-127K20,7,565,PS,exp,44,↑,up,↑,0.5030074999667704,True,8,0,0,0
Y2-S2-127K20,7,566,PS,exp,34,←,left,←,0.6445681001059711,True,8,1,0,0
Y2-S2-127K20,7,567,PS,exp,46,↑,up,↑,0.5136969001032412,True,7,1,0,0
Y2-S2-127K20,7,568,PS,exp,38,↓,right,→,0.8196237999945879,False,7,-1,1,1
Y2-S2-127K20,7,569,PS,exp,30,→,right,→,1.0232311002910137,True,8,-1,0,1
Y2-S2-127K20,7,570,PS,exp,33,↑,up,↑,0.43403750006109476,True,8,-1,0,1
Y2-S2-127K20,7,571,PS,exp,38,→,right,→,0.5721628000028431,True,8,1,1,2
Y2-S2-127K20,7,572,PS,exp,50,↑,up,↑,0.5409347000531852,True,7,1,0,2
Y2-S2-127K20,7,573,PS,exp,29,↓,down,↓,0.5229714000597596,True,7,1,0,2
Y2-S2-127K20,7,574,PS,exp,48,↑,up,↑,0.5535680996254086,True,7,1,0,2
Y2-S2-127K20,7,575,PS,exp,31,→,left,←,0.8152932999655604,False,6,-1,1,3
Y2-S2-127K20,7,576,PS,exp,44,←,left,←,0.9577035000547767,True,7,-1,0,3
Y2-S2-127K20,7,577,PS,exp,27,→,left,←,1.0850268001668155,False,7,-1,0,3
Y2-S2-127K20,7,578,PS,exp,31,↑,up,↑,0.48456589970737696,True,8,-1,0,3
Y2-S2-127K20,7,579,PS,exp,33,→,right,→,0.7266122000291944,True,8,-1,0,3
Y2-S2-127K20,7,580,PS,exp,29,↑,up,↑,0.4847025000490248,True,8,1,1,4
Y2-S2-127K20,7,581,PS,exp,25,→,right,→,0.512946099974215,True,7,1,0,4
Y2-S2-127K20,7,582,PS,exp,50,↓,down,↓,0.8449432998895645,True,7,1,0,4
Y2-S2-127K20,7,583,PS,exp,29,→,right,→,0.4999684002250433,True,7,1,0,4
Y2-S2-127K20,7,584,PS,exp,43,↑,up,↑,0.5152867999859154,True,6,1,0,4
Y2-S2-127K20,7,585,PS,exp,26,→,right,→,0.5430169003084302,True,6,1,0,4
Y2-S2-127K20,7,586,PS,exp,35,↓,right,→,0.7961380998604,False,6,-1,1,5
Y2-S2-127K20,7,587,PS,exp,26,→,right,→,0.5352905998006463,True,7,-1,0,5
Y2-S2-127K20,7,588,PS,exp,49,↑,up,↑,0.43715969985350966,True,7,-1,0,5
Y2-S2-127K20,7,589,PS,exp,38,→,right,→,0.7560479999519885,True,7,1,1,6
Y2-S2-127K20,7,590,PS,exp,30,↑,left,←,0.8718334999866784,False,6,-1,1,7
Y2-S2-127K20,7,591,PS,exp,36,←,left,←,0.6697949999943376,True,7,-1,0,7
Y2-S2-127K20,7,592,PS,exp,30,↑,up,↑,0.8019970003515482,True,7,-1,0,7
Y2-S2-127K20,7,593,PS,exp,49,→,left,←,0.7093687001615763,False,7,-1,0,7
Y2-S2-127K20,7,594,PS,exp,36,↓,up,↑,0.92058219993487,False,8,-1,0,7
Y2-S2-127K20,7,595,PS,exp,39,→,right,→,0.48831709986552596,True,9,-1,0,7
Y2-S2-127K20,7,596,PS,exp,48,↓,down,↓,0.6668567997403443,True,9,-1,0,7
Y2-S2-127K20,7,597,PS,exp,32,←,up,↑,0.8098826999776065,False,9,-1,0,7
Y2-S2-127K20,7,598,PS,exp,46,→,right,→,0.49978219997137785,True,10,-1,0,7
Y2-S2-127K20,7,599,PS,exp,47,↑,down,↓,1.0752480002120137,False,10,-1,0,7
Y2-S2-127K20,7,600,PS,exp,32,→,right,→,0.6508806999772787,True,11,-1,0,7
Y2-S2-127K20,7,601,PS,exp,47,↑,up,↑,0.628963999915868,True,11,-1,0,7
Y2-S2-127K20,7,602,PS,exp,38,→,right,→,0.5524750999175012,True,11,1,1,8
Y2-S2-127K20,7,603,PS,exp,45,←,left,←,0.5465012998320162,True,10,1,0,8
Y2-S2-127K20,7,604,PS,exp,37,→,right,→,0.43875040020793676,True,10,1,0,8
Y2-S2-127K20,7,605,PS,exp,47,↑,up,↑,0.49277229979634285,True,10,1,0,8
Y2-S2-127K20,7,606,PS,exp,45,↓,down,↓,0.6026435997337103,True,9,1,0,8
Y2-S2-127K20,7,607,PS,exp,25,→,right,→,0.5658132000826299,True,9,1,0,8
Y2-S2-127K20,7,608,PS,exp,40,↓,down,↓,0.5586659000255167,True,9,1,0,8
Y2-S2-127K20,7,609,PS,exp,43,←,right,→,0.5880301999859512,False,8,-1,1,9
Y2-S2-127K20,7,610,PS,exp,32,↓,right,→,0.6592089999467134,False,9,-1,0,9
Y2-S2-127K20,7,611,PS,exp,42,↑,up,↑,0.6149534997530282,True,10,-1,0,9
Y2-S2-127K20,7,612,PS,exp,28,←,left,←,0.4818619000725448,True,10,-1,0,9
Y2-S2-127K20,7,613,PS,exp,26,→,right,→,0.5659977998584509,True,10,1,1,10
Y2-S2-127K20,7,614,PS,exp,37,↑,up,↑,0.42116970010101795,True,9,1,0,10
Y2-S2-127K20,7,615,PS,exp,49,↓,down,↓,0.8651930997148156,True,9,1,0,10
Y2-S2-127K20,7,616,PS,exp,31,↑,left,←,0.9727390999905765,False,9,-1,1,11
Y2-S2-127K20,7,617,PS,exp,35,↓,down,↓,0.5344925001263618,True,10,-1,0,11
Y2-S2-127K20,7,618,PS,exp,40,↑,up,↑,0.42263330006971955,True,10,-1,0,11
Y2-S2-127K20,7,619,PS,exp,38,↓,left,←,1.2425409001298249,False,10,-1,0,11
Y2-S2-127K20,7,620,PS,exp,48,→,right,→,0.8441522000357509,True,11,-1,0,11
Y2-S2-127K20,7,621,PS,exp,28,←,left,←,0.5163822001777589,True,11,-1,0,11
Y2-S2-127K20,7,622,PS,exp,37,↓,down,↓,0.591907599940896,True,11,1,1,12
Y2-S2-127K20,7,623,PS,exp,27,←,left,←,0.520856199786067,True,10,1,0,12
Y2-S2-127K20,7,624,PS,exp,36,↑,up,↑,0.533704100176692,True,10,1,0,12
Y2-S2-127K20,7,625,PS,exp,40,→,right,→,0.840671899728477,True,10,1,0,12
Y2-S2-127K20,7,626,PS,exp,38,↓,down,↓,0.5801603998988867,True,9,1,0,12
Y2-S2-127K20,7,627,PS,exp,32,→,right,→,0.5218563000671566,True,9,1,0,12
Y2-S2-127K20,7,628,PS,exp,38,↑,left,←,0.7304818001575768,False,9,-1,1,13
Y2-S2-127K20,7,629,PS,exp,49,→,right,→,0.477982500102371,True,10,-1,0,13
Y2-S2-127K20,7,630,PS,exp,46,↑,left,←,0.9869025000371039,False,10,-1,0,13
Y2-S2-127K20,7,631,PS,exp,26,←,left,←,0.5185529002919793,True,11,-1,0,13
Y2-S2-127K20,7,632,PS,exp,26,↑,up,↑,0.3950884002260864,True,11,-1,0,13
Y2-S2-127K20,7,633,PS,exp,42,→,right,→,0.44512120028957725,True,11,1,1,14
Y2-S2-127K20,7,634,PS,exp,25,←,left,←,0.8349784999154508,True,10,1,0,14
Y2-S2-127K20,7,635,PS,exp,35,↓,down,↓,0.7328160000033677,True,10,1,0,14
Y2-S2-127K20,7,636,PS,exp,50,←,left,←,0.4381073000840843,True,10,1,0,14
Y2-S2-127K20,7,637,PS,exp,32,↓,down,↓,0.6197271002456546,True,9,1,0,14
Y2-S2-127K20,7,638,PS,exp,32,←,right,→,1.0865362002514303,False,9,-1,1,15
Y2-S2-127K20,7,639,PS,exp,45,↑,up,↑,0.5707302996888757,True,10,-1,0,15
Y2-S2-127K20,7,640,PS,exp,25,→,right,→,0.49709399975836277,True,10,-1,0,15
Y2-S2-127K20,7,641,PS,exp,46,↓,down,↓,0.6959613999351859,True,10,1,1,16
Y2-S2-127K20,8,642,AS,intra_train,48,←,left,←,0.5838878001086414,True,27,-,-,-
Y2-S2-127K20,8,643,AS,intra_train,41,↓,down,↓,1.4607687001116574,True,27,-,-,-
Y2-S2-127K20,8,644,AS,intra_train,40,↑,up,↑,0.7313401000574231,True,27,-,-,-
Y2-S2-127K20,8,645,AS,intra_train,31,↓,down,↓,0.8678888999857008,True,27,-,-,-
Y2-S2-127K20,8,646,AS,intra_train,44,↑,up,↑,0.6816680999472737,True,27,-,-,-
Y2-S2-127K20,8,647,AS,exp,43,←,left,←,0.4862780999392271,True,18,0,0,0
Y2-S2-127K20,8,648,AS,exp,35,↑,up,↑,0.9428964997641742,True,18,0,0,0
Y2-S2-127K20,8,649,AS,exp,27,→,right,→,0.5037499000318348,True,18,1,0,0
Y2-S2-127K20,8,650,AS,exp,34,↓,left,←,0.8069358998909593,False,17,-1,1,1
Y2-S2-127K20,8,651,AS,exp,35,←,left,←,0.6189505998045206,True,18,-1,0,1
Y2-S2-127K20,8,652,AS,exp,39,↑,up,↑,0.5529454997740686,True,18,-1,0,1
Y2-S2-127K20,8,653,AS,exp,41,→,right,→,0.5942697999998927,True,18,1,1,2
Y2-S2-127K20,8,654,AS,exp,37,←,left,←,0.7438207003287971,True,17,1,0,2
Y2-S2-127K20,8,655,AS,exp,46,→,right,→,0.6392227998003364,True,17,1,0,2
Y2-S2-127K20,8,656,AS,exp,42,↓,down,↓,0.852651100140065,True,17,1,0,2
Y2-S2-127K20,8,657,AS,exp,39,↑,left,←,0.9097557999193668,False,16,-1,1,3
Y2-S2-127K20,8,658,AS,exp,27,→,right,→,0.5486206999048591,True,17,-1,0,3
Y2-S2-127K20,8,659,AS,exp,44,↑,up,↑,0.545389199629426,True,17,-1,0,3
Y2-S2-127K20,8,660,AS,exp,50,↓,down,↓,0.803640500176698,True,17,1,1,4
Y2-S2-127K20,8,661,AS,exp,30,↑,up,↑,0.46721600042656064,True,16,1,0,4
Y2-S2-127K20,8,662,AS,exp,47,←,left,←,0.7360403002239764,True,16,1,0,4
Y2-S2-127K20,8,663,AS,exp,50,→,right,→,0.4641025001183152,True,16,1,0,4
Y2-S2-127K20,8,664,AS,exp,36,←,left,←,0.518804999999702,True,15,1,0,4
Y2-S2-127K20,8,665,AS,exp,32,↑,up,↑,0.53815559996292,True,15,1,0,4
Y2-S2-127K20,8,666,AS,exp,29,↓,down,↓,0.6685593002475798,True,15,1,0,4
Y2-S2-127K20,8,667,AS,exp,49,←,left,←,0.7539024003781378,True,14,1,0,4
Y2-S2-127K20,8,668,AS,exp,29,→,right,→,0.6064900998026133,True,14,1,0,4
Y2-S2-127K20,8,669,AS,exp,32,←,right,→,1.094386300072074,False,14,-1,1,5
Y2-S2-127K20,8,670,AS,exp,37,↑,up,↑,1.0349428001791239,True,15,-1,0,5
Y2-S2-127K20,8,671,AS,exp,34,→,left,←,0.8624585997313261,False,15,-1,0,5
Y2-S2-127K20,8,672,AS,exp,35,↓,down,↓,0.6283829999156296,True,16,-1,0,5
Y2-S2-127K20,8,673,AS,exp,44,←,left,←,0.5438351002521813,True,16,-1,0,5
Y2-S2-127K20,8,674,AS,exp,31,↓,down,↓,0.6271175001747906,True,16,1,1,6
Y2-S2-127K20,8,675,AS,exp,42,←,left,←,0.7252409998327494,True,15,1,0,6
Y2-S2-127K20,8,676,AS,exp,28,→,right,→,0.5369278998114169,True,15,1,0,6
Y2-S2-127K20,8,677,AS,exp,42,←,left,←,0.6863291002810001,True,15,1,0,6
Y2-S2-127K20,8,678,AS,exp,45,→,right,→,0.6837232001125813,True,14,1,0,6
Y2-S2-127K20,8,679,AS,exp,37,←,left,←,0.8082963000051677,True,14,1,0,6
Y2-S2-127K20,8,680,AS,exp,26,→,left,←,1.6724535999819636,False,14,-1,1,7
Y2-S2-127K20,8,681,AS,exp,38,←,left,←,0.8376866998150945,True,15,-1,0,7
Y2-S2-127K20,8,682,AS,exp,43,↓,down,↓,0.8089777999557555,True,15,-1,0,7
Y2-S2-127K20,8,683,AS,exp,27,↑,up,↑,1.2828301996923983,True,15,1,1,8
Y2-S2-127K20,8,684,AS,exp,43,←,left,←,0.7078728997148573,True,14,1,0,8
Y2-S2-127K20,8,685,AS,exp,35,→,left,←,1.0742370001971722,False,14,-1,1,9
Y2-S2-127K20,8,686,AS,exp,31,↓,down,↓,0.8142424002289772,True,15,-1,0,9
Y2-S2-127K20,8,687,AS,exp,44,↑,up,↑,0.4879948999732733,True,15,-1,0,9
Y2-S2-127K20,8,688,AS,exp,39,↓,down,↓,0.6492537995800376,True,15,1,1,10
Y2-S2-127K20,8,689,AS,exp,27,←,right,→,0.9512102003209293,False,14,-1,1,11
Y2-S2-127K20,8,690,AS,exp,25,→,right,→,0.6179941003210843,True,15,-1,0,11
Y2-S2-127K20,8,691,AS,exp,32,↓,down,↓,0.7558855996467173,True,15,-1,0,11
Y2-S2-127K20,8,692,AS,exp,29,→,right,→,0.6235949001275003,True,15,1,1,12
Y2-S2-127K20,8,693,AS,exp,44,↑,up,↑,0.5201671998947859,True,14,1,0,12
Y2-S2-127K20,8,694,AS,exp,38,↓,left,←,0.7805462996475399,False,14,-1,1,13
Y2-S2-127K20,8,695,AS,exp,26,←,left,←,0.5581163000315428,True,15,-1,0,13
Y2-S2-127K20,8,696,AS,exp,46,↑,up,↑,0.5851726001128554,True,15,-1,0,13
Y2-S2-127K20,8,697,AS,exp,28,↓,down,↓,0.652502799872309,True,15,1,1,14
Y2-S2-127K20,8,698,AS,exp,31,←,left,←,0.48044659988954663,True,14,1,0,14
Y2-S2-127K20,8,699,AS,exp,47,↑,up,↑,0.4039100003428757,True,14,1,0,14
Y2-S2-127K20,8,700,AS,exp,37,→,left,←,1.017717500217259,False,14,-1,1,15
Y2-S2-127K20,8,701,AS,exp,44,←,left,←,0.489308699965477,True,15,-1,0,15
Y2-S2-127K20,8,702,AS,exp,38,↑,right,→,0.9432133003138006,False,15,-1,0,15
Y2-S2-127K20,8,703,AS,exp,31,←,up,↑,0.6164718000218272,False,16,-1,0,15
Y2-S2-127K20,8,704,AS,exp,30,↑,up,↑,0.530745199881494,True,17,-1,0,15
Y2-S2-127K20,8,705,AS,exp,49,→,left,←,1.0068709002807736,False,17,-1,0,15
Y2-S2-127K20,8,706,AS,exp,39,↓,down,↓,0.8789880000986159,True,18,-1,0,15
Y2-S2-127K20,8,707,AS,exp,34,→,right,→,0.524715700186789,True,18,-1,0,15
Y2-S2-127K20,8,708,AS,exp,38,↓,down,↓,0.9423201000317931,True,18,1,1,16
