PART_ID,Block_no,Trial_no,Block_type,Trial_type,CSI,Stim_letter,Key_pressed,letter_choose,Rt,Corr,Stimulus Time,Level,Reversal,Revs_count
Y2-S2-140K31,1,1,PS,train,43,↑,up,↑,0.7018019002862275,True,30,-,-,-
Y2-S2-140K31,1,2,PS,train,50,↓,up,↑,0.551556000020355,False,30,-,-,-
Y2-S2-140K31,1,3,PS,train,36,←,left,←,1.3488723002374172,True,30,-,-,-
Y2-S2-140K31,1,4,PS,train,44,→,right,→,1.3312766999006271,True,30,-,-,-
Y2-S2-140K31,1,5,PS,train,26,←,left,←,0.696864599827677,True,30,-,-,-
Y2-S2-140K31,1,6,PS,train,43,↓,down,↓,0.850447699893266,True,30,-,-,-
Y2-S2-140K31,1,7,PS,train,44,↑,up,↑,0.5173120000399649,True,30,-,-,-
Y2-S2-140K31,1,8,PS,train,33,←,left,←,0.5839674999006093,True,30,-,-,-
Y2-S2-140K31,1,9,PS,train,30,↑,up,↑,0.5673356000334024,True,30,-,-,-
Y2-S2-140K31,1,10,PS,train,29,←,left,←,0.5348053998313844,True,30,-,-,-
Y2-S2-140K31,2,11,AS,train,37,↓,down,↓,1.021993299946189,True,45,-,-,-
Y2-S2-140K31,2,12,AS,train,39,↑,up,↑,0.650991799775511,True,45,-,-,-
Y2-S2-140K31,2,13,AS,train,28,↓,down,↓,0.6347158998250961,True,45,-,-,-
Y2-S2-140K31,2,14,AS,train,33,←,left,←,0.6510369000025094,True,45,-,-,-
Y2-S2-140K31,2,15,AS,train,28,↑,up,↑,0.6175569999031723,True,45,-,-,-
Y2-S2-140K31,2,16,AS,train,37,↓,down,↓,0.5676287999376655,True,45,-,-,-
Y2-S2-140K31,2,17,AS,train,36,↑,up,↑,0.9867488001473248,True,45,-,-,-
Y2-S2-140K31,2,18,AS,train,41,←,left,←,0.7677610004320741,True,45,-,-,-
Y2-S2-140K31,2,19,AS,train,47,→,right,→,0.6841051997616887,True,45,-,-,-
Y2-S2-140K31,2,20,AS,train,30,↑,up,↑,0.7838094001635909,True,45,-,-,-
Y2-S2-140K31,-,21,PS,adaptive,39,↓,up,↑,0.9470224999822676,False,10,-1,0,0
Y2-S2-140K31,-,22,PS,adaptive,39,←,left,←,0.5270408997312188,True,11,-1,0,0
Y2-S2-140K31,-,23,PS,adaptive,26,↓,right,→,0.9810942001640797,False,11,-1,0,0
Y2-S2-140K31,-,24,PS,adaptive,38,→,right,→,1.3834830997511744,True,12,-1,0,0
Y2-S2-140K31,-,25,PS,adaptive,35,↓,down,↓,0.6565679996274412,True,12,-1,0,0
Y2-S2-140K31,-,26,PS,adaptive,43,→,left,←,0.6622295998968184,False,12,-1,0,0
Y2-S2-140K31,-,27,PS,adaptive,50,↓,up,↑,1.2211795998737216,False,13,-1,0,0
Y2-S2-140K31,-,28,PS,adaptive,44,→,left,←,1.1411387999542058,False,14,-1,0,0
Y2-S2-140K31,-,29,PS,adaptive,41,←,up,↑,1.1329695000313222,False,15,-1,0,0
Y2-S2-140K31,-,30,PS,adaptive,40,→,right,→,0.6559790000319481,True,16,-1,0,0
Y2-S2-140K31,-,31,PS,adaptive,46,←,left,←,0.4963879999704659,True,16,-1,0,0
Y2-S2-140K31,-,32,PS,adaptive,42,→,right,→,0.657165499869734,True,16,1,1,1
Y2-S2-140K31,-,33,PS,adaptive,45,←,up,↑,1.131993199698627,False,15,-1,1,2
Y2-S2-140K31,-,34,PS,adaptive,44,↓,down,↓,0.6204888001084328,True,16,-1,0,2
Y2-S2-140K31,-,35,PS,adaptive,45,→,right,→,0.4947183998301625,True,16,-1,0,2
Y2-S2-140K31,-,36,PS,adaptive,50,↑,left,←,0.8288167999126017,False,16,-1,0,2
Y2-S2-140K31,-,37,PS,adaptive,30,↓,down,↓,1.2079733996652067,True,17,-1,0,2
Y2-S2-140K31,-,38,PS,adaptive,28,→,left,←,0.7629228997975588,False,17,-1,0,2
Y2-S2-140K31,-,39,PS,adaptive,46,↓,up,↑,1.115851900074631,False,18,-1,0,2
Y2-S2-140K31,-,40,PS,adaptive,34,←,left,←,1.209460699930787,True,19,-1,0,2
Y2-S2-140K31,-,41,PS,adaptive,26,→,right,→,0.780258699785918,True,19,-1,0,2
Y2-S2-140K31,-,42,PS,adaptive,43,←,left,←,0.5771483997814357,True,19,1,1,3
Y2-S2-140K31,-,43,PS,adaptive,25,↑,up,↑,0.5597975002601743,True,18,1,0,3
Y2-S2-140K31,-,44,PS,adaptive,33,←,left,←,0.5115454001352191,True,18,1,0,3
Y2-S2-140K31,-,45,PS,adaptive,37,↑,up,↑,0.4173953998833895,True,18,1,0,3
Y2-S2-140K31,-,46,PS,adaptive,41,→,right,→,0.48218700010329485,True,17,1,0,3
Y2-S2-140K31,-,47,PS,adaptive,45,↑,no_key,no_letter,-1.0,False,17,-1,1,4
Y2-S2-140K31,-,48,AS,adaptive,50,↓,down,↓,0.6974383001215756,True,20,0,0,0
Y2-S2-140K31,-,49,AS,adaptive,50,←,right,→,0.9376517999917269,False,20,-1,0,0
Y2-S2-140K31,-,50,AS,adaptive,31,↑,up,↑,0.6378378001973033,True,21,-1,0,0
Y2-S2-140K31,-,51,AS,adaptive,49,←,left,←,0.596923700068146,True,21,-1,0,0
Y2-S2-140K31,-,52,AS,adaptive,42,↓,down,↓,0.8137942999601364,True,21,1,1,1
Y2-S2-140K31,-,53,AS,adaptive,44,↑,up,↑,0.8843366000801325,True,20,1,0,1
Y2-S2-140K31,-,54,AS,adaptive,50,↓,down,↓,0.7408382999710739,True,20,1,0,1
Y2-S2-140K31,-,55,AS,adaptive,41,←,up,↑,0.9173881001770496,False,20,-1,1,2
Y2-S2-140K31,-,56,AS,adaptive,49,↓,down,↓,1.1133028999902308,True,21,-1,0,2
Y2-S2-140K31,-,57,AS,adaptive,30,↑,up,↑,0.7503980002366006,True,21,-1,0,2
Y2-S2-140K31,-,58,AS,adaptive,25,←,up,↑,0.9574559000320733,False,21,-1,0,2
Y2-S2-140K31,-,59,AS,adaptive,34,→,up,↑,0.8980356003157794,False,22,-1,0,2
Y2-S2-140K31,-,60,AS,adaptive,32,←,left,←,0.5010792999528348,True,23,-1,0,2
Y2-S2-140K31,-,61,AS,adaptive,42,→,right,→,0.6591131002642214,True,23,-1,0,2
Y2-S2-140K31,-,62,AS,adaptive,32,←,left,←,0.5904649002477527,True,23,1,1,3
Y2-S2-140K31,-,63,AS,adaptive,32,↑,up,↑,0.4339760998263955,True,22,1,0,3
Y2-S2-140K31,-,64,AS,adaptive,44,→,right,→,0.660251900088042,True,22,1,0,3
Y2-S2-140K31,-,65,AS,adaptive,42,←,left,←,0.5867875996045768,True,22,1,0,3
Y2-S2-140K31,-,66,AS,adaptive,48,→,right,→,0.6913592997007072,True,21,1,0,3
Y2-S2-140K31,-,67,AS,adaptive,39,↓,down,↓,0.7694334001280367,True,21,1,0,3
Y2-S2-140K31,-,68,AS,adaptive,50,→,right,→,0.9882017998024821,True,21,1,0,3
Y2-S2-140K31,-,69,AS,adaptive,30,↑,up,↑,0.7062939000315964,True,20,1,0,3
Y2-S2-140K31,-,70,AS,adaptive,48,↓,down,↓,1.1193534000776708,True,20,1,0,3
Y2-S2-140K31,-,71,AS,adaptive,49,←,left,←,0.5581279997713864,True,20,1,0,3
Y2-S2-140K31,-,72,AS,adaptive,35,↓,right,→,1.279338300228119,False,19,-1,1,4
Y2-S2-140K31,1,73,AS,intra_train,29,→,no_key,no_letter,-1.0,False,30,-,-,-
Y2-S2-140K31,1,74,AS,intra_train,31,↑,up,↑,1.2963128997944295,True,30,-,-,-
Y2-S2-140K31,1,75,AS,intra_train,46,↓,down,↓,0.5837224996648729,True,30,-,-,-
Y2-S2-140K31,1,76,AS,intra_train,29,←,left,←,0.9179719001986086,True,30,-,-,-
Y2-S2-140K31,1,77,AS,intra_train,25,↑,up,↑,0.7709068995900452,True,30,-,-,-
Y2-S2-140K31,1,78,AS,exp,39,→,right,→,0.8850004002451897,True,20,0,0,0
Y2-S2-140K31,1,79,AS,exp,36,↓,down,↓,0.9092016997747123,True,20,0,0,0
Y2-S2-140K31,1,80,AS,exp,41,↑,up,↑,0.5985954999923706,True,20,1,0,0
Y2-S2-140K31,1,81,AS,exp,37,→,right,→,0.6665139999240637,True,19,1,0,0
Y2-S2-140K31,1,82,AS,exp,44,←,left,←,0.6474533998407423,True,19,1,0,0
Y2-S2-140K31,1,83,AS,exp,30,↑,up,↑,0.8609902998432517,True,19,1,0,0
Y2-S2-140K31,1,84,AS,exp,34,→,right,→,0.9042759998701513,True,18,1,0,0
Y2-S2-140K31,1,85,AS,exp,41,↑,up,↑,1.1491036000661552,True,18,1,0,0
Y2-S2-140K31,1,86,AS,exp,39,↓,down,↓,0.8101961999200284,True,18,1,0,0
Y2-S2-140K31,1,87,AS,exp,25,→,right,→,0.5214565000496805,True,17,1,0,0
Y2-S2-140K31,1,88,AS,exp,28,↓,down,↓,0.9351547998376191,True,17,1,0,0
Y2-S2-140K31,1,89,AS,exp,30,←,left,←,0.4873762000352144,True,17,1,0,0
Y2-S2-140K31,1,90,AS,exp,35,↑,right,→,0.9948889999650419,False,16,-1,1,1
Y2-S2-140K31,1,91,AS,exp,50,→,right,→,1.0535745997913182,True,17,-1,0,1
Y2-S2-140K31,1,92,AS,exp,43,←,left,←,0.7623391002416611,True,17,-1,0,1
Y2-S2-140K31,1,93,AS,exp,37,↑,up,↑,1.409468200057745,True,17,1,1,2
Y2-S2-140K31,1,94,AS,exp,46,↓,left,←,1.103469599969685,False,16,-1,1,3
Y2-S2-140K31,1,95,AS,exp,28,←,left,←,0.7040956001728773,True,17,-1,0,3
Y2-S2-140K31,1,96,AS,exp,27,↓,down,↓,0.8665034002624452,True,17,-1,0,3
Y2-S2-140K31,1,97,AS,exp,45,←,left,←,0.6273648999631405,True,17,1,1,4
Y2-S2-140K31,1,98,AS,exp,36,→,right,→,0.6646567997522652,True,16,1,0,4
Y2-S2-140K31,1,99,AS,exp,46,↓,down,↓,0.7565093003213406,True,16,1,0,4
Y2-S2-140K31,1,100,AS,exp,36,←,left,←,0.7935338001698256,True,16,1,0,4
Y2-S2-140K31,1,101,AS,exp,25,→,right,→,0.5325337001122534,True,15,1,0,4
Y2-S2-140K31,1,102,AS,exp,30,↑,down,↓,1.1250878004357219,False,15,-1,1,5
Y2-S2-140K31,1,103,AS,exp,37,←,left,←,0.5801455001346767,True,16,-1,0,5
Y2-S2-140K31,1,104,AS,exp,46,↓,down,↓,0.7473504999652505,True,16,-1,0,5
Y2-S2-140K31,1,105,AS,exp,43,→,right,→,1.010126800276339,True,16,1,1,6
Y2-S2-140K31,1,106,AS,exp,36,↑,left,←,1.120265199802816,False,15,-1,1,7
Y2-S2-140K31,1,107,AS,exp,29,←,left,←,0.7920695999637246,True,16,-1,0,7
Y2-S2-140K31,1,108,AS,exp,32,→,right,→,0.8350774003192782,True,16,-1,0,7
Y2-S2-140K31,1,109,AS,exp,28,↓,left,←,0.7703790999948978,False,16,-1,0,7
Y2-S2-140K31,1,110,AS,exp,28,→,up,↑,1.1377053000032902,False,17,-1,0,7
Y2-S2-140K31,1,111,AS,exp,46,↓,down,↓,0.9975871001370251,True,18,-1,0,7
Y2-S2-140K31,1,112,AS,exp,26,←,up,↑,0.848500999622047,False,18,-1,0,7
Y2-S2-140K31,1,113,AS,exp,27,→,right,→,0.6490055001340806,True,19,-1,0,7
Y2-S2-140K31,1,114,AS,exp,32,↑,up,↑,0.8273368999361992,True,19,-1,0,7
Y2-S2-140K31,1,115,AS,exp,25,←,up,↑,0.9314887002110481,False,19,-1,0,7
Y2-S2-140K31,1,116,AS,exp,45,→,right,→,0.5260131000541151,True,20,-1,0,7
Y2-S2-140K31,1,117,AS,exp,33,←,left,←,0.7370799998752773,True,20,-1,0,7
Y2-S2-140K31,1,118,AS,exp,40,→,right,→,0.8216832000762224,True,20,1,1,8
Y2-S2-140K31,1,119,AS,exp,36,↑,up,↑,0.40094480011612177,True,19,1,0,8
Y2-S2-140K31,1,120,AS,exp,49,←,up,↑,1.113755099941045,False,19,-1,1,9
Y2-S2-140K31,1,121,AS,exp,32,↓,down,↓,0.7116984003223479,True,20,-1,0,9
Y2-S2-140K31,1,122,AS,exp,42,←,left,←,0.8150324001908302,True,20,-1,0,9
Y2-S2-140K31,1,123,AS,exp,37,↓,down,↓,0.8772672000341117,True,20,1,1,10
Y2-S2-140K31,1,124,AS,exp,43,→,right,→,0.6384482998400927,True,19,1,0,10
Y2-S2-140K31,1,125,AS,exp,37,↑,up,↑,0.6391460001468658,True,19,1,0,10
Y2-S2-140K31,1,126,AS,exp,30,←,left,←,0.5348771000280976,True,19,1,0,10
Y2-S2-140K31,1,127,AS,exp,46,↑,up,↑,0.40042189974337816,True,18,1,0,10
Y2-S2-140K31,1,128,AS,exp,28,↓,up,↑,0.4949228996410966,False,18,-1,1,11
Y2-S2-140K31,1,129,AS,exp,50,→,right,→,0.6785854999907315,True,19,-1,0,11
Y2-S2-140K31,1,130,AS,exp,46,←,left,←,0.7944173002615571,True,19,-1,0,11
Y2-S2-140K31,1,131,AS,exp,39,↑,up,↑,0.543346599675715,True,19,1,1,12
Y2-S2-140K31,1,132,AS,exp,47,→,left,←,0.6044843997806311,False,18,-1,1,13
Y2-S2-140K31,1,133,AS,exp,41,↓,down,↓,0.6461466997861862,True,19,-1,0,13
Y2-S2-140K31,1,134,AS,exp,47,←,left,←,0.769223100040108,True,19,-1,0,13
Y2-S2-140K31,1,135,AS,exp,35,↓,down,↓,0.657288399990648,True,19,1,1,14
Y2-S2-140K31,1,136,AS,exp,35,→,right,→,0.9528798996470869,True,18,1,0,14
Y2-S2-140K31,1,137,AS,exp,39,↓,down,↓,0.6783819999545813,True,18,1,0,14
Y2-S2-140K31,1,138,AS,exp,42,→,right,→,1.0262071997858584,True,18,1,0,14
Y2-S2-140K31,1,139,AS,exp,28,↑,up,↑,0.5147189004346728,True,17,1,0,14
Y2-S2-140K31,1,140,AS,exp,28,↓,down,↓,0.5774691002443433,True,17,1,0,14
Y2-S2-140K31,1,141,AS,exp,26,→,right,→,0.8479793998412788,True,17,1,0,14
Y2-S2-140K31,1,142,AS,exp,43,↑,up,↑,0.47527100006118417,True,16,1,0,14
Y2-S2-140K31,1,143,AS,exp,29,←,left,←,0.44787649996578693,True,16,1,0,14
Y2-S2-140K31,1,144,AS,exp,48,→,right,→,0.4580103000625968,True,16,1,0,14
Y2-S2-140K31,1,145,AS,exp,49,←,left,←,0.5822308999486268,True,15,1,0,14
Y2-S2-140K31,1,146,AS,exp,37,→,right,→,0.4544025002978742,True,15,1,0,14
Y2-S2-140K31,1,147,AS,exp,39,↑,down,↓,0.8145642997696996,False,15,-1,1,15
Y2-S2-140K31,1,148,AS,exp,39,←,left,←,0.5102400998584926,True,16,-1,0,15
Y2-S2-140K31,1,149,AS,exp,46,↑,up,↑,0.5935082999058068,True,16,-1,0,15
Y2-S2-140K31,1,150,AS,exp,33,←,left,←,0.5528209996409714,True,16,1,1,16
Y2-S2-140K31,2,151,PS,intra_train,25,→,right,→,0.5838031996972859,True,27,-,-,-
Y2-S2-140K31,2,152,PS,intra_train,25,↑,left,←,1.1812460999935865,False,27,-,-,-
Y2-S2-140K31,2,153,PS,intra_train,38,→,right,→,0.6988261002115905,True,27,-,-,-
Y2-S2-140K31,2,154,PS,intra_train,40,↑,up,↑,0.6281306999735534,True,27,-,-,-
Y2-S2-140K31,2,155,PS,intra_train,40,→,right,→,0.644697000272572,True,27,-,-,-
Y2-S2-140K31,2,156,PS,exp,38,←,left,←,0.6119200000539422,True,18,0,0,0
Y2-S2-140K31,2,157,PS,exp,36,↑,no_key,no_letter,-1.0,False,18,-1,0,0
Y2-S2-140K31,2,158,PS,exp,47,↓,down,↓,0.7564088003709912,True,19,-1,0,0
Y2-S2-140K31,2,159,PS,exp,41,↑,no_key,no_letter,-1.0,False,19,-1,0,0
Y2-S2-140K31,2,160,PS,exp,41,↓,down,↓,0.9335054000839591,True,20,-1,0,0
Y2-S2-140K31,2,161,PS,exp,42,↑,up,↑,0.45055750012397766,True,20,-1,0,0
Y2-S2-140K31,2,162,PS,exp,41,→,right,→,0.751683599781245,True,20,1,1,1
Y2-S2-140K31,2,163,PS,exp,25,↓,right,→,0.9787258002907038,False,19,-1,1,2
Y2-S2-140K31,2,164,PS,exp,47,↑,up,↑,0.5126166995614767,True,20,-1,0,2
Y2-S2-140K31,2,165,PS,exp,25,→,right,→,0.5056797000579536,True,20,-1,0,2
Y2-S2-140K31,2,166,PS,exp,46,↑,up,↑,0.4006892000325024,True,20,1,1,3
Y2-S2-140K31,2,167,PS,exp,43,→,right,→,0.4892516997642815,True,19,1,0,3
Y2-S2-140K31,2,168,PS,exp,42,←,up,↑,0.6630168999545276,False,19,-1,1,4
Y2-S2-140K31,2,169,PS,exp,26,→,right,→,0.6946065002121031,True,20,-1,0,4
Y2-S2-140K31,2,170,PS,exp,32,↓,right,→,1.3891608002595603,False,20,-1,0,4
Y2-S2-140K31,2,171,PS,exp,46,←,left,←,0.6728319996036589,True,21,-1,0,4
Y2-S2-140K31,2,172,PS,exp,30,↓,down,↓,0.7544999001547694,True,21,-1,0,4
Y2-S2-140K31,2,173,PS,exp,31,↑,up,↑,0.46708340011537075,True,21,1,1,5
Y2-S2-140K31,2,174,PS,exp,41,→,right,→,0.6554895001463592,True,20,1,0,5
Y2-S2-140K31,2,175,PS,exp,33,↓,down,↓,0.6715243998914957,True,20,1,0,5
Y2-S2-140K31,2,176,PS,exp,43,↑,up,↑,0.7317153001204133,True,20,1,0,5
Y2-S2-140K31,2,177,PS,exp,41,←,left,←,0.6980241001583636,True,19,1,0,5
Y2-S2-140K31,2,178,PS,exp,28,↓,down,↓,0.6108833001926541,True,19,1,0,5
Y2-S2-140K31,2,179,PS,exp,34,→,right,→,0.9755346002057195,True,19,1,0,5
Y2-S2-140K31,2,180,PS,exp,48,↓,down,↓,0.6203367998823524,True,18,1,0,5
Y2-S2-140K31,2,181,PS,exp,39,↑,down,↓,0.8662101998925209,False,18,-1,1,6
Y2-S2-140K31,2,182,PS,exp,38,←,down,↓,0.8257996002212167,False,19,-1,0,6
Y2-S2-140K31,2,183,PS,exp,27,↑,up,↑,0.7165860002860427,True,20,-1,0,6
Y2-S2-140K31,2,184,PS,exp,46,→,right,→,1.998277900274843,True,20,-1,0,6
Y2-S2-140K31,2,185,PS,exp,42,←,left,←,0.8556046998128295,True,20,1,1,7
Y2-S2-140K31,2,186,PS,exp,29,→,right,→,1.3674540999345481,True,19,1,0,7
Y2-S2-140K31,2,187,PS,exp,45,←,left,←,0.5454867002554238,True,19,1,0,7
Y2-S2-140K31,2,188,PS,exp,27,→,right,→,0.5177748999558389,True,19,1,0,7
Y2-S2-140K31,2,189,PS,exp,41,↑,right,→,0.9920357996597886,False,18,-1,1,8
Y2-S2-140K31,2,190,PS,exp,37,←,left,←,0.5478892000392079,True,19,-1,0,8
Y2-S2-140K31,2,191,PS,exp,28,→,right,→,0.5032466999255121,True,19,-1,0,8
Y2-S2-140K31,2,192,PS,exp,46,←,left,←,0.49571310030296445,True,19,1,1,9
Y2-S2-140K31,2,193,PS,exp,33,↑,up,↑,0.4695179997943342,True,18,1,0,9
Y2-S2-140K31,2,194,PS,exp,39,→,right,→,0.6103236000053585,True,18,1,0,9
Y2-S2-140K31,2,195,PS,exp,29,↑,up,↑,1.176789099816233,True,18,1,0,9
Y2-S2-140K31,2,196,PS,exp,48,→,right,→,0.5771614997647703,True,17,1,0,9
Y2-S2-140K31,2,197,PS,exp,39,↓,down,↓,0.6489054998382926,True,17,1,0,9
Y2-S2-140K31,2,198,PS,exp,37,←,right,→,0.9637585999444127,False,17,-1,1,10
Y2-S2-140K31,2,199,PS,exp,45,→,right,→,0.6588571001775563,True,18,-1,0,10
Y2-S2-140K31,2,200,PS,exp,29,←,left,←,0.539835199713707,True,18,-1,0,10
Y2-S2-140K31,2,201,PS,exp,28,↓,down,↓,0.75998800015077,True,18,1,1,11
Y2-S2-140K31,2,202,PS,exp,33,↑,up,↑,0.5402037003077567,True,17,1,0,11
Y2-S2-140K31,2,203,PS,exp,28,→,right,→,0.40058720018714666,True,17,1,0,11
Y2-S2-140K31,2,204,PS,exp,50,↑,left,←,0.9292758996598423,False,17,-1,1,12
Y2-S2-140K31,2,205,PS,exp,26,←,left,←,0.5341215003281832,True,18,-1,0,12
Y2-S2-140K31,2,206,PS,exp,47,→,right,→,0.6490708999335766,True,18,-1,0,12
Y2-S2-140K31,2,207,PS,exp,43,↓,down,↓,0.7093082997016609,True,18,1,1,13
Y2-S2-140K31,2,208,PS,exp,42,→,left,←,0.8084775996394455,False,17,-1,1,14
Y2-S2-140K31,2,209,PS,exp,33,↑,up,↑,0.48037989996373653,True,18,-1,0,14
Y2-S2-140K31,2,210,PS,exp,44,↓,up,↑,0.7673944998532534,False,18,-1,0,14
Y2-S2-140K31,2,211,PS,exp,45,←,left,←,0.5114380000159144,True,19,-1,0,14
Y2-S2-140K31,2,212,PS,exp,46,↑,right,→,0.955521899741143,False,19,-1,0,14
Y2-S2-140K31,2,213,PS,exp,41,←,left,←,0.7896251999773085,True,20,-1,0,14
Y2-S2-140K31,2,214,PS,exp,46,↓,down,↓,0.6484638000838459,True,20,-1,0,14
Y2-S2-140K31,2,215,PS,exp,33,←,left,←,0.5787482000887394,True,20,1,1,15
Y2-S2-140K31,2,216,PS,exp,39,→,right,→,0.5303531000390649,True,19,1,0,15
Y2-S2-140K31,2,217,PS,exp,44,↓,down,↓,0.5852879001758993,True,19,1,0,15
Y2-S2-140K31,2,218,PS,exp,33,↑,up,↑,0.5301791997626424,True,19,1,0,15
Y2-S2-140K31,2,219,PS,exp,45,→,up,↑,0.7118410002440214,False,18,-1,1,16
Y2-S2-140K31,3,220,PS,intra_train,45,↓,down,↓,0.816800800152123,True,27,-,-,-
Y2-S2-140K31,3,221,PS,intra_train,25,←,left,←,0.6825954001396894,True,27,-,-,-
Y2-S2-140K31,3,222,PS,intra_train,47,↓,down,↓,0.793130399659276,True,27,-,-,-
Y2-S2-140K31,3,223,PS,intra_train,43,←,left,←,0.5172378998249769,True,27,-,-,-
Y2-S2-140K31,3,224,PS,intra_train,28,→,right,→,0.7369602001272142,True,27,-,-,-
Y2-S2-140K31,3,225,PS,exp,40,↑,down,↓,1.0202349000610411,False,18,-1,0,0
Y2-S2-140K31,3,226,PS,exp,45,←,left,←,0.484462299849838,True,19,-1,0,0
Y2-S2-140K31,3,227,PS,exp,37,→,right,→,0.8610037001781166,True,19,-1,0,0
Y2-S2-140K31,3,228,PS,exp,41,↓,down,↓,0.9625053000636399,True,19,1,1,1
Y2-S2-140K31,3,229,PS,exp,32,→,right,→,0.6651245001703501,True,18,1,0,1
Y2-S2-140K31,3,230,PS,exp,27,↓,down,↓,0.7429084996692836,True,18,1,0,1
Y2-S2-140K31,3,231,PS,exp,29,→,right,→,0.5912441001273692,True,18,1,0,1
Y2-S2-140K31,3,232,PS,exp,40,↓,down,↓,0.5318740997463465,True,17,1,0,1
Y2-S2-140K31,3,233,PS,exp,38,↑,up,↑,0.5099113001488149,True,17,1,0,1
Y2-S2-140K31,3,234,PS,exp,31,←,up,↑,0.8003964000381529,False,17,-1,1,2
Y2-S2-140K31,3,235,PS,exp,31,↓,up,↑,0.6681507998146117,False,18,-1,0,2
Y2-S2-140K31,3,236,PS,exp,26,→,right,→,0.4905619998462498,True,19,-1,0,2
Y2-S2-140K31,3,237,PS,exp,28,←,left,←,0.513695300091058,True,19,-1,0,2
Y2-S2-140K31,3,238,PS,exp,32,↑,up,↑,0.4504680000245571,True,19,1,1,3
Y2-S2-140K31,3,239,PS,exp,50,←,left,←,0.5446120998822153,True,18,1,0,3
Y2-S2-140K31,3,240,PS,exp,38,→,left,←,0.6086021000519395,False,18,-1,1,4
Y2-S2-140K31,3,241,PS,exp,50,←,left,←,0.509228200186044,True,19,-1,0,4
Y2-S2-140K31,3,242,PS,exp,39,↓,down,↓,0.6537689003162086,True,19,-1,0,4
Y2-S2-140K31,3,243,PS,exp,38,→,right,→,0.4941487000323832,True,19,1,1,5
Y2-S2-140K31,3,244,PS,exp,40,↓,down,↓,0.6286377999931574,True,18,1,0,5
Y2-S2-140K31,3,245,PS,exp,30,←,left,←,0.4775803000666201,True,18,1,0,5
Y2-S2-140K31,3,246,PS,exp,42,→,right,→,0.6295101996511221,True,18,1,0,5
Y2-S2-140K31,3,247,PS,exp,26,↓,down,↓,0.7254890999756753,True,17,1,0,5
Y2-S2-140K31,3,248,PS,exp,41,→,right,→,0.471554699819535,True,17,1,0,5
Y2-S2-140K31,3,249,PS,exp,32,↑,up,↑,0.5323402001522481,True,17,1,0,5
Y2-S2-140K31,3,250,PS,exp,37,→,left,←,1.1263546999543905,False,16,-1,1,6
Y2-S2-140K31,3,251,PS,exp,28,↓,up,↑,0.8231751001439989,False,17,-1,0,6
Y2-S2-140K31,3,252,PS,exp,43,↑,up,↑,0.5781651004217565,True,18,-1,0,6
Y2-S2-140K31,3,253,PS,exp,50,←,up,↑,0.594715400133282,False,18,-1,0,6
Y2-S2-140K31,3,254,PS,exp,36,↓,down,↓,0.5311004999093711,True,19,-1,0,6
Y2-S2-140K31,3,255,PS,exp,38,↑,up,↑,0.4892497998662293,True,19,-1,0,6
Y2-S2-140K31,3,256,PS,exp,48,↓,down,↓,0.7248297003097832,True,19,1,1,7
Y2-S2-140K31,3,257,PS,exp,31,↑,up,↑,0.7732946998439729,True,18,1,0,7
Y2-S2-140K31,3,258,PS,exp,44,←,left,←,0.4903940004296601,True,18,1,0,7
Y2-S2-140K31,3,259,PS,exp,48,↑,up,↑,0.4722754000686109,True,18,1,0,7
Y2-S2-140K31,3,260,PS,exp,39,←,left,←,1.5650805998593569,True,17,1,0,7
Y2-S2-140K31,3,261,PS,exp,46,↑,up,↑,0.46094659995287657,True,17,1,0,7
Y2-S2-140K31,3,262,PS,exp,47,←,left,←,0.5637705000117421,True,17,1,0,7
Y2-S2-140K31,3,263,PS,exp,30,↑,up,↑,0.5615655998699367,True,16,1,0,7
Y2-S2-140K31,3,264,PS,exp,33,↓,down,↓,0.6247445996850729,True,16,1,0,7
Y2-S2-140K31,3,265,PS,exp,35,←,left,←,0.745195500086993,True,16,1,0,7
Y2-S2-140K31,3,266,PS,exp,43,→,left,←,0.9731943001970649,False,15,-1,1,8
Y2-S2-140K31,3,267,PS,exp,35,←,left,←,1.0779531998559833,True,16,-1,0,8
Y2-S2-140K31,3,268,PS,exp,42,↑,up,↑,0.5856424001976848,True,16,-1,0,8
Y2-S2-140K31,3,269,PS,exp,37,←,left,←,0.5212738001719117,True,16,1,1,9
Y2-S2-140K31,3,270,PS,exp,49,↓,down,↓,0.6653102999553084,True,15,1,0,9
Y2-S2-140K31,3,271,PS,exp,42,↑,up,↑,0.5515172001905739,True,15,1,0,9
Y2-S2-140K31,3,272,PS,exp,38,↓,down,↓,0.9095329004339874,True,15,1,0,9
Y2-S2-140K31,3,273,PS,exp,44,→,right,→,0.6677808002568781,True,14,1,0,9
Y2-S2-140K31,3,274,PS,exp,32,↓,down,↓,0.7324378001503646,True,14,1,0,9
Y2-S2-140K31,3,275,PS,exp,28,←,left,←,0.49679369991645217,True,14,1,0,9
Y2-S2-140K31,3,276,PS,exp,41,↑,up,↑,1.0070377998054028,True,13,1,0,9
Y2-S2-140K31,3,277,PS,exp,39,↓,down,↓,0.6717737000435591,True,13,1,0,9
Y2-S2-140K31,3,278,PS,exp,32,↑,up,↑,1.0567026999779046,True,13,1,0,9
Y2-S2-140K31,3,279,PS,exp,39,→,right,→,0.6093135001137853,True,12,1,0,9
Y2-S2-140K31,3,280,PS,exp,44,←,left,←,0.943435899913311,True,12,1,0,9
Y2-S2-140K31,3,281,PS,exp,26,↓,down,↓,0.660943899769336,True,12,1,0,9
Y2-S2-140K31,3,282,PS,exp,40,→,right,→,0.7966369003988802,True,11,1,0,9
Y2-S2-140K31,3,283,PS,exp,39,↓,down,↓,0.5959439002908766,True,11,1,0,9
Y2-S2-140K31,3,284,PS,exp,44,→,right,→,0.6555860000662506,True,11,1,0,9
Y2-S2-140K31,3,285,PS,exp,27,↑,up,↑,0.8828160003758967,True,10,1,0,9
Y2-S2-140K31,3,286,PS,exp,32,↓,right,→,1.0307006002403796,False,10,-1,1,10
Y2-S2-140K31,3,287,PS,exp,33,↑,up,↑,0.8496848000213504,True,11,-1,0,10
Y2-S2-140K31,3,288,PS,exp,35,↓,down,↓,0.606693200301379,True,11,-1,0,10
Y2-S2-140K31,3,289,PS,exp,49,↑,up,↑,0.6324991998262703,True,11,1,1,11
Y2-S2-140K31,3,290,PS,exp,30,↓,up,↑,0.6663766000419855,False,10,-1,1,12
Y2-S2-140K31,3,291,PS,exp,49,←,left,←,0.5189593001268804,True,11,-1,0,12
Y2-S2-140K31,3,292,PS,exp,47,→,right,→,0.9592375000938773,True,11,-1,0,12
Y2-S2-140K31,3,293,PS,exp,39,←,up,↑,0.7301055998541415,False,11,-1,0,12
Y2-S2-140K31,3,294,PS,exp,46,↑,up,↑,0.6092779999598861,True,12,-1,0,12
Y2-S2-140K31,3,295,PS,exp,39,→,right,→,0.5632529002614319,True,12,-1,0,12
Y2-S2-140K31,3,296,PS,exp,38,←,left,←,0.5262817000038922,True,12,1,1,13
Y2-S2-140K31,3,297,PS,exp,45,↑,up,↑,0.6851293998770416,True,11,1,0,13
Y2-S2-140K31,3,298,PS,exp,40,→,right,→,0.5167022002860904,True,11,1,0,13
Y2-S2-140K31,3,299,PS,exp,37,↑,up,↑,0.49236280005425215,True,11,1,0,13
Y2-S2-140K31,3,300,PS,exp,34,↓,left,←,0.7163275997154415,False,10,-1,1,14
Y2-S2-140K31,3,301,PS,exp,37,→,right,→,0.4496333999559283,True,11,-1,0,14
Y2-S2-140K31,3,302,PS,exp,28,↑,up,↑,0.49198690010234714,True,11,-1,0,14
Y2-S2-140K31,3,303,PS,exp,28,→,up,↑,0.6675100000575185,False,11,-1,0,14
Y2-S2-140K31,3,304,PS,exp,39,↓,down,↓,0.715869499836117,True,12,-1,0,14
Y2-S2-140K31,3,305,PS,exp,34,→,right,→,0.43026289995759726,True,12,-1,0,14
Y2-S2-140K31,3,306,PS,exp,33,↓,up,↑,0.9853075002320111,False,12,-1,0,14
Y2-S2-140K31,3,307,PS,exp,44,←,left,←,0.560531800147146,True,13,-1,0,14
Y2-S2-140K31,3,308,PS,exp,33,→,right,→,0.445979000069201,True,13,-1,0,14
Y2-S2-140K31,3,309,PS,exp,41,↓,down,↓,0.930368899833411,True,13,1,1,15
Y2-S2-140K31,3,310,PS,exp,49,→,right,→,0.4886344997212291,True,12,1,0,15
Y2-S2-140K31,3,311,PS,exp,25,↓,down,↓,0.6110384999774396,True,12,1,0,15
Y2-S2-140K31,3,312,PS,exp,47,↑,right,→,0.859966800082475,False,12,-1,1,16
Y2-S2-140K31,4,313,AS,intra_train,25,↓,right,→,1.3820027997717261,False,30,-,-,-
Y2-S2-140K31,4,314,AS,intra_train,39,←,left,←,0.9337808000855148,True,30,-,-,-
Y2-S2-140K31,4,315,AS,intra_train,40,↑,up,↑,0.4678271999582648,True,30,-,-,-
Y2-S2-140K31,4,316,AS,intra_train,45,←,left,←,0.43518989998847246,True,30,-,-,-
Y2-S2-140K31,4,317,AS,intra_train,49,↓,down,↓,0.7087085000239313,True,30,-,-,-
Y2-S2-140K31,4,318,AS,exp,32,←,left,←,1.6103440001606941,True,20,0,0,0
Y2-S2-140K31,4,319,AS,exp,41,→,right,→,0.6584002999588847,True,20,0,0,0
Y2-S2-140K31,4,320,AS,exp,50,←,left,←,0.6863755001686513,True,20,1,0,0
Y2-S2-140K31,4,321,AS,exp,44,↓,no_key,no_letter,-1.0,False,19,-1,1,1
Y2-S2-140K31,4,322,AS,exp,40,→,up,↑,1.1162044000811875,False,20,-1,0,1
Y2-S2-140K31,4,323,AS,exp,30,↑,up,↑,0.8969231997616589,True,21,-1,0,1
Y2-S2-140K31,4,324,AS,exp,50,←,left,←,0.6385508999228477,True,21,-1,0,1
Y2-S2-140K31,4,325,AS,exp,34,→,right,→,1.1112285000272095,True,21,1,1,2
Y2-S2-140K31,4,326,AS,exp,39,←,left,←,0.7692982000298798,True,20,1,0,2
Y2-S2-140K31,4,327,AS,exp,31,↑,up,↑,0.6339890998788178,True,20,1,0,2
Y2-S2-140K31,4,328,AS,exp,48,←,down,↓,0.8006699997931719,False,20,-1,1,3
Y2-S2-140K31,4,329,AS,exp,36,↓,down,↓,0.7220006003044546,True,21,-1,0,3
Y2-S2-140K31,4,330,AS,exp,46,↑,up,↑,0.7587085999548435,True,21,-1,0,3
Y2-S2-140K31,4,331,AS,exp,41,←,left,←,0.7052539000287652,True,21,1,1,4
Y2-S2-140K31,4,332,AS,exp,48,→,right,→,0.9864711002446711,True,20,1,0,4
Y2-S2-140K31,4,333,AS,exp,42,↑,up,↑,0.400844800285995,True,20,1,0,4
Y2-S2-140K31,4,334,AS,exp,47,↓,down,↓,0.753682800102979,True,20,1,0,4
Y2-S2-140K31,4,335,AS,exp,48,↑,up,↑,0.43418770004063845,True,19,1,0,4
Y2-S2-140K31,4,336,AS,exp,47,←,left,←,0.5211947001516819,True,19,1,0,4
Y2-S2-140K31,4,337,AS,exp,41,→,right,→,0.8449293999001384,True,19,1,0,4
Y2-S2-140K31,4,338,AS,exp,30,←,left,←,0.7167544001713395,True,18,1,0,4
Y2-S2-140K31,4,339,AS,exp,50,→,right,→,0.5601012003608048,True,18,1,0,4
Y2-S2-140K31,4,340,AS,exp,35,↑,up,↑,0.6048441003076732,True,18,1,0,4
Y2-S2-140K31,4,341,AS,exp,43,→,right,→,0.6512457998469472,True,17,1,0,4
Y2-S2-140K31,4,342,AS,exp,47,←,left,←,0.7442680997774005,True,17,1,0,4
Y2-S2-140K31,4,343,AS,exp,25,↑,up,↑,0.6177006000652909,True,17,1,0,4
Y2-S2-140K31,4,344,AS,exp,38,↓,down,↓,0.8421706999652088,True,16,1,0,4
Y2-S2-140K31,4,345,AS,exp,38,←,left,←,0.8196580000221729,True,16,1,0,4
Y2-S2-140K31,4,346,AS,exp,43,→,right,→,0.5879860003478825,True,16,1,0,4
Y2-S2-140K31,4,347,AS,exp,39,↑,down,↓,0.953490599989891,False,15,-1,1,5
Y2-S2-140K31,4,348,AS,exp,50,→,right,→,0.8579628001898527,True,16,-1,0,5
Y2-S2-140K31,4,349,AS,exp,36,↓,down,↓,0.5977851999923587,True,16,-1,0,5
Y2-S2-140K31,4,350,AS,exp,31,↑,up,↑,0.6480852998793125,True,16,1,1,6
Y2-S2-140K31,4,351,AS,exp,33,→,right,→,0.6509591001085937,True,15,1,0,6
Y2-S2-140K31,4,352,AS,exp,47,←,left,←,0.5916761998087168,True,15,1,0,6
Y2-S2-140K31,4,353,AS,exp,48,→,right,→,0.7592961001209915,True,15,1,0,6
Y2-S2-140K31,4,354,AS,exp,25,←,right,→,0.9573584999889135,False,14,-1,1,7
Y2-S2-140K31,4,355,AS,exp,26,↓,down,↓,1.0077692000195384,True,15,-1,0,7
Y2-S2-140K31,4,356,AS,exp,29,←,left,←,0.6708673001267016,True,15,-1,0,7
Y2-S2-140K31,4,357,AS,exp,36,↓,down,↓,0.638024200219661,True,15,1,1,8
Y2-S2-140K31,4,358,AS,exp,42,←,right,→,1.0117906001396477,False,14,-1,1,9
Y2-S2-140K31,4,359,AS,exp,33,→,right,→,0.559540499933064,True,15,-1,0,9
Y2-S2-140K31,4,360,AS,exp,27,←,left,←,0.5292787998914719,True,15,-1,0,9
Y2-S2-140K31,4,361,AS,exp,31,↑,down,↓,0.872267400380224,False,15,-1,0,9
Y2-S2-140K31,4,362,AS,exp,34,↓,down,↓,0.607926799915731,True,16,-1,0,9
Y2-S2-140K31,4,363,AS,exp,37,←,left,←,0.7045967001467943,True,16,-1,0,9
Y2-S2-140K31,4,364,AS,exp,32,→,left,←,0.7666770000942051,False,16,-1,0,9
Y2-S2-140K31,4,365,AS,exp,37,↓,down,↓,0.7435672995634377,True,17,-1,0,9
Y2-S2-140K31,4,366,AS,exp,47,←,left,←,0.41755299968644977,True,17,-1,0,9
Y2-S2-140K31,4,367,AS,exp,46,↓,down,↓,0.587303000036627,True,17,1,1,10
Y2-S2-140K31,4,368,AS,exp,44,↑,up,↑,0.7824233998544514,True,16,1,0,10
Y2-S2-140K31,4,369,AS,exp,42,↓,down,↓,0.9829853996634483,True,16,1,0,10
Y2-S2-140K31,4,370,AS,exp,41,→,right,→,0.7987365000881255,True,16,1,0,10
Y2-S2-140K31,4,371,AS,exp,35,↑,down,↓,0.6810716004110873,False,15,-1,1,11
Y2-S2-140K31,4,372,AS,exp,46,←,down,↓,0.6780081000179052,False,16,-1,0,11
Y2-S2-140K31,4,373,AS,exp,46,↓,down,↓,0.652570300269872,True,17,-1,0,11
Y2-S2-140K31,4,374,AS,exp,50,←,down,↓,0.9108610996045172,False,17,-1,0,11
Y2-S2-140K31,4,375,AS,exp,31,↓,right,→,1.2475107996724546,False,18,-1,0,11
Y2-S2-140K31,4,376,AS,exp,25,↑,up,↑,0.6634545000270009,True,19,-1,0,11
Y2-S2-140K31,4,377,AS,exp,35,↓,down,↓,0.5782943000085652,True,19,-1,0,11
Y2-S2-140K31,4,378,AS,exp,33,→,right,→,0.5914849997498095,True,19,1,1,12
Y2-S2-140K31,4,379,AS,exp,25,↑,right,→,1.058088899590075,False,18,-1,1,13
Y2-S2-140K31,4,380,AS,exp,42,↓,down,↓,0.5675610997714102,True,19,-1,0,13
Y2-S2-140K31,4,381,AS,exp,36,→,right,→,0.7835653000511229,True,19,-1,0,13
Y2-S2-140K31,4,382,AS,exp,44,↓,down,↓,0.7898452002555132,True,19,1,1,14
Y2-S2-140K31,4,383,AS,exp,29,↑,down,↓,1.0607437998987734,False,18,-1,1,15
Y2-S2-140K31,4,384,AS,exp,39,↓,down,↓,0.6638174001127481,True,19,-1,0,15
Y2-S2-140K31,4,385,AS,exp,34,→,right,→,0.7471952000632882,True,19,-1,0,15
Y2-S2-140K31,4,386,AS,exp,45,←,left,←,1.0097322002984583,True,19,1,1,16
Y2-S2-140K31,5,387,AS,intra_train,42,↓,down,↓,1.2006975002586842,True,30,-,-,-
Y2-S2-140K31,5,388,AS,intra_train,33,←,left,←,1.2201712001115084,True,30,-,-,-
Y2-S2-140K31,5,389,AS,intra_train,29,→,right,→,0.7385615003295243,True,30,-,-,-
Y2-S2-140K31,5,390,AS,intra_train,46,↑,up,↑,0.5505633996799588,True,30,-,-,-
Y2-S2-140K31,5,391,AS,intra_train,35,←,left,←,1.3679363997653127,True,30,-,-,-
Y2-S2-140K31,5,392,AS,exp,40,↑,up,↑,0.8580555999651551,True,20,0,0,0
Y2-S2-140K31,5,393,AS,exp,27,→,right,→,0.9057946000248194,True,20,0,0,0
Y2-S2-140K31,5,394,AS,exp,49,↓,down,↓,0.7873543999157846,True,20,1,0,0
Y2-S2-140K31,5,395,AS,exp,36,←,left,←,0.8130255001597106,True,19,1,0,0
Y2-S2-140K31,5,396,AS,exp,49,→,right,→,0.9267388000153005,True,19,1,0,0
Y2-S2-140K31,5,397,AS,exp,45,←,left,←,0.6438559000380337,True,19,1,0,0
Y2-S2-140K31,5,398,AS,exp,26,→,left,←,0.8333907998166978,False,18,-1,1,1
Y2-S2-140K31,5,399,AS,exp,43,↓,left,←,1.467634900007397,False,19,-1,0,1
Y2-S2-140K31,5,400,AS,exp,31,←,left,←,0.45079430006444454,True,20,-1,0,1
Y2-S2-140K31,5,401,AS,exp,49,→,right,→,0.9154181000776589,True,20,-1,0,1
Y2-S2-140K31,5,402,AS,exp,42,↓,down,↓,0.6719571002759039,True,20,1,1,2
Y2-S2-140K31,5,403,AS,exp,49,→,right,→,1.369519299827516,True,19,1,0,2
Y2-S2-140K31,5,404,AS,exp,49,↑,up,↑,0.9321763999760151,True,19,1,0,2
Y2-S2-140K31,5,405,AS,exp,46,←,left,←,0.6384743000380695,True,19,1,0,2
Y2-S2-140K31,5,406,AS,exp,42,→,right,→,0.41730459965765476,True,18,1,0,2
Y2-S2-140K31,5,407,AS,exp,30,←,left,←,0.8463031998835504,True,18,1,0,2
Y2-S2-140K31,5,408,AS,exp,32,↓,down,↓,0.8267860999330878,True,18,1,0,2
Y2-S2-140K31,5,409,AS,exp,41,↑,up,↑,0.8046246999874711,True,17,1,0,2
Y2-S2-140K31,5,410,AS,exp,48,→,right,→,0.6556208003312349,True,17,1,0,2
Y2-S2-140K31,5,411,AS,exp,43,←,left,←,1.0834375997073948,True,17,1,0,2
Y2-S2-140K31,5,412,AS,exp,31,↑,up,↑,0.6511433999985456,True,16,1,0,2
Y2-S2-140K31,5,413,AS,exp,42,↓,down,↓,0.537510400172323,True,16,1,0,2
Y2-S2-140K31,5,414,AS,exp,25,←,left,←,0.5738286003470421,True,16,1,0,2
Y2-S2-140K31,5,415,AS,exp,26,↑,up,↑,0.9634479000233114,True,15,1,0,2
Y2-S2-140K31,5,416,AS,exp,28,→,right,→,0.734667900018394,True,15,1,0,2
Y2-S2-140K31,5,417,AS,exp,50,↓,down,↓,0.7079193000681698,True,15,1,0,2
Y2-S2-140K31,5,418,AS,exp,32,→,right,→,0.7008584998548031,True,14,1,0,2
Y2-S2-140K31,5,419,AS,exp,37,↑,up,↑,0.718282800167799,True,14,1,0,2
Y2-S2-140K31,5,420,AS,exp,36,→,up,↑,0.8637533001601696,False,14,-1,1,3
Y2-S2-140K31,5,421,AS,exp,29,↓,down,↓,0.6461622002534568,True,15,-1,0,3
Y2-S2-140K31,5,422,AS,exp,29,←,left,←,0.6692602997645736,True,15,-1,0,3
Y2-S2-140K31,5,423,AS,exp,38,→,right,→,0.7010858999565244,True,15,1,1,4
Y2-S2-140K31,5,424,AS,exp,26,↑,down,↓,0.8353077000938356,False,14,-1,1,5
Y2-S2-140K31,5,425,AS,exp,50,↓,down,↓,0.5948667000047863,True,15,-1,0,5
Y2-S2-140K31,5,426,AS,exp,26,←,right,→,0.8198422999121249,False,15,-1,0,5
Y2-S2-140K31,5,427,AS,exp,47,→,right,→,0.520872600376606,True,16,-1,0,5
Y2-S2-140K31,5,428,AS,exp,45,↓,right,→,0.8225731002166867,False,16,-1,0,5
Y2-S2-140K31,5,429,AS,exp,40,→,right,→,0.6470847995951772,True,17,-1,0,5
Y2-S2-140K31,5,430,AS,exp,27,↓,down,↓,0.9276099996641278,True,17,-1,0,5
Y2-S2-140K31,5,431,AS,exp,48,←,left,←,0.8174983998760581,True,17,1,1,6
Y2-S2-140K31,5,432,AS,exp,44,↓,up,↑,1.0890786997042596,False,16,-1,1,7
Y2-S2-140K31,5,433,AS,exp,46,↑,up,↑,0.5987374000251293,True,17,-1,0,7
Y2-S2-140K31,5,434,AS,exp,42,↓,down,↓,0.8095864001661539,True,17,-1,0,7
Y2-S2-140K31,5,435,AS,exp,29,←,left,←,0.5886956001631916,True,17,1,1,8
Y2-S2-140K31,5,436,AS,exp,44,↑,up,↑,0.5192950996570289,True,16,1,0,8
Y2-S2-140K31,5,437,AS,exp,32,→,up,↑,0.8022180004045367,False,16,-1,1,9
Y2-S2-140K31,5,438,AS,exp,38,↓,down,↓,0.7743151998147368,True,17,-1,0,9
Y2-S2-140K31,5,439,AS,exp,25,←,left,←,0.8255992000922561,True,17,-1,0,9
Y2-S2-140K31,5,440,AS,exp,36,→,right,→,0.6799790002405643,True,17,1,1,10
Y2-S2-140K31,5,441,AS,exp,38,↓,down,↓,0.630938199814409,True,16,1,0,10
Y2-S2-140K31,5,442,AS,exp,33,↑,up,↑,1.2794667999260128,True,16,1,0,10
Y2-S2-140K31,5,443,AS,exp,28,↓,down,↓,0.5911950999870896,True,16,1,0,10
Y2-S2-140K31,5,444,AS,exp,38,→,right,→,0.4424306000582874,True,15,1,0,10
Y2-S2-140K31,5,445,AS,exp,41,↓,down,↓,0.3507691998966038,True,15,1,0,10
Y2-S2-140K31,5,446,AS,exp,49,←,left,←,0.5875456002540886,True,15,1,0,10
Y2-S2-140K31,5,447,AS,exp,30,→,right,→,1.1306166998110712,True,14,1,0,10
Y2-S2-140K31,5,448,AS,exp,35,↑,down,↓,0.7141820001415908,False,14,-1,1,11
Y2-S2-140K31,5,449,AS,exp,44,→,right,→,0.6983594000339508,True,15,-1,0,11
Y2-S2-140K31,5,450,AS,exp,42,←,right,→,1.13481119973585,False,15,-1,0,11
Y2-S2-140K31,5,451,AS,exp,26,↑,up,↑,0.5599768999963999,True,16,-1,0,11
Y2-S2-140K31,5,452,AS,exp,44,→,right,→,0.583100900053978,True,16,-1,0,11
Y2-S2-140K31,5,453,AS,exp,32,↑,up,↑,1.3254328998737037,True,16,1,1,12
Y2-S2-140K31,5,454,AS,exp,40,→,right,→,0.5737966001033783,True,15,1,0,12
Y2-S2-140K31,5,455,AS,exp,48,←,left,←,0.5682099000550807,True,15,1,0,12
Y2-S2-140K31,5,456,AS,exp,30,↓,up,↑,0.9268498001620173,False,15,-1,1,13
Y2-S2-140K31,5,457,AS,exp,46,←,left,←,0.6415695999749005,True,16,-1,0,13
Y2-S2-140K31,5,458,AS,exp,37,↑,up,↑,0.8749186997301877,True,16,-1,0,13
Y2-S2-140K31,5,459,AS,exp,50,↓,down,↓,0.6811254001222551,True,16,1,1,14
Y2-S2-140K31,5,460,AS,exp,43,←,left,←,0.5997133003547788,True,15,1,0,14
Y2-S2-140K31,5,461,AS,exp,38,→,right,→,0.6331992000341415,True,15,1,0,14
Y2-S2-140K31,5,462,AS,exp,37,←,down,↓,0.7935779001563787,False,15,-1,1,15
Y2-S2-140K31,5,463,AS,exp,25,↓,down,↓,0.7534707998856902,True,16,-1,0,15
Y2-S2-140K31,5,464,AS,exp,46,←,right,→,0.6873261001892388,False,16,-1,0,15
Y2-S2-140K31,5,465,AS,exp,40,↓,down,↓,0.6422423999756575,True,17,-1,0,15
Y2-S2-140K31,5,466,AS,exp,36,→,right,→,0.6668462003581226,True,17,-1,0,15
Y2-S2-140K31,5,467,AS,exp,39,↑,up,↑,0.5098343999125063,True,17,1,1,16
Y2-S2-140K31,6,468,PS,intra_train,44,↓,down,↓,0.6732636000961065,True,27,-,-,-
Y2-S2-140K31,6,469,PS,intra_train,34,↑,up,↑,1.0893892999738455,True,27,-,-,-
Y2-S2-140K31,6,470,PS,intra_train,43,↓,down,↓,0.7486506998538971,True,27,-,-,-
Y2-S2-140K31,6,471,PS,intra_train,48,←,left,←,0.86177619965747,True,27,-,-,-
Y2-S2-140K31,6,472,PS,intra_train,38,→,right,→,0.5182227003388107,True,27,-,-,-
Y2-S2-140K31,6,473,PS,exp,39,↑,up,↑,0.4865351999178529,True,18,0,0,0
Y2-S2-140K31,6,474,PS,exp,40,←,left,←,1.0404610997065902,True,18,0,0,0
Y2-S2-140K31,6,475,PS,exp,47,↑,up,↑,0.717047999612987,True,18,1,0,0
Y2-S2-140K31,6,476,PS,exp,29,↓,down,↓,0.83651759987697,True,17,1,0,0
Y2-S2-140K31,6,477,PS,exp,46,←,right,→,1.247378499712795,False,17,-1,1,1
Y2-S2-140K31,6,478,PS,exp,38,→,right,→,0.6567255998961627,True,18,-1,0,1
Y2-S2-140K31,6,479,PS,exp,44,←,left,←,0.5196603001095355,True,18,-1,0,1
Y2-S2-140K31,6,480,PS,exp,26,↓,down,↓,0.6141900001093745,True,18,1,1,2
Y2-S2-140K31,6,481,PS,exp,39,→,left,←,0.5662860996089876,False,17,-1,1,3
Y2-S2-140K31,6,482,PS,exp,27,↑,up,↑,0.4340198999270797,True,18,-1,0,3
Y2-S2-140K31,6,483,PS,exp,38,←,no_key,no_letter,-1.0,False,18,-1,0,3
Y2-S2-140K31,6,484,PS,exp,49,↑,up,↑,0.5347653003409505,True,19,-1,0,3
Y2-S2-140K31,6,485,PS,exp,38,↓,down,↓,0.5710057001560926,True,19,-1,0,3
Y2-S2-140K31,6,486,PS,exp,45,→,right,→,0.9536998001858592,True,19,1,1,4
Y2-S2-140K31,6,487,PS,exp,31,←,left,←,0.6687139999121428,True,18,1,0,4
Y2-S2-140K31,6,488,PS,exp,34,↓,down,↓,0.8820473998785019,True,18,1,0,4
Y2-S2-140K31,6,489,PS,exp,46,→,right,→,0.5469474997371435,True,18,1,0,4
Y2-S2-140K31,6,490,PS,exp,39,←,left,←,0.5959864999167621,True,17,1,0,4
Y2-S2-140K31,6,491,PS,exp,43,↓,right,→,0.8683695998042822,False,17,-1,1,5
Y2-S2-140K31,6,492,PS,exp,27,↑,up,↑,0.5116162998601794,True,18,-1,0,5
Y2-S2-140K31,6,493,PS,exp,35,←,left,←,0.6652599000371993,True,18,-1,0,5
Y2-S2-140K31,6,494,PS,exp,46,↑,up,↑,0.46787619963288307,True,18,1,1,6
Y2-S2-140K31,6,495,PS,exp,34,→,up,↑,1.1838672999292612,False,17,-1,1,7
Y2-S2-140K31,6,496,PS,exp,47,↑,up,↑,0.4172848998568952,True,18,-1,0,7
Y2-S2-140K31,6,497,PS,exp,44,↓,up,↑,0.5935537000186741,False,18,-1,0,7
Y2-S2-140K31,6,498,PS,exp,39,←,left,←,1.6706758998334408,True,19,-1,0,7
Y2-S2-140K31,6,499,PS,exp,27,→,right,→,1.1479756003245711,True,19,-1,0,7
Y2-S2-140K31,6,500,PS,exp,25,↑,up,↑,1.0692727998830378,True,19,1,1,8
Y2-S2-140K31,6,501,PS,exp,48,→,right,→,0.6946843997575343,True,18,1,0,8
Y2-S2-140K31,6,502,PS,exp,46,↑,up,↑,0.4338894998654723,True,18,1,0,8
Y2-S2-140K31,6,503,PS,exp,35,←,up,↑,0.6798743000254035,False,18,-1,1,9
Y2-S2-140K31,6,504,PS,exp,27,↑,up,↑,0.3839110000990331,True,19,-1,0,9
Y2-S2-140K31,6,505,PS,exp,32,↓,down,↓,0.6131303003057837,True,19,-1,0,9
Y2-S2-140K31,6,506,PS,exp,47,↑,up,↑,0.6170733999460936,True,19,1,1,10
Y2-S2-140K31,6,507,PS,exp,43,↓,down,↓,0.6562759000808001,True,18,1,0,10
Y2-S2-140K31,6,508,PS,exp,43,←,up,↑,0.7171315997838974,False,18,-1,1,11
Y2-S2-140K31,6,509,PS,exp,28,↑,up,↑,0.4513103999197483,True,19,-1,0,11
Y2-S2-140K31,6,510,PS,exp,39,←,left,←,0.5926413000561297,True,19,-1,0,11
Y2-S2-140K31,6,511,PS,exp,44,↑,up,↑,1.04010030021891,True,19,1,1,12
Y2-S2-140K31,6,512,PS,exp,34,↓,down,↓,0.6487940000370145,True,18,1,0,12
Y2-S2-140K31,6,513,PS,exp,31,←,left,←,0.7607176001183689,True,18,1,0,12
Y2-S2-140K31,6,514,PS,exp,44,↓,down,↓,0.6206886996515095,True,18,1,0,12
Y2-S2-140K31,6,515,PS,exp,50,↑,up,↑,0.4589104000478983,True,17,1,0,12
Y2-S2-140K31,6,516,PS,exp,26,←,left,←,0.9673716998659074,True,17,1,0,12
Y2-S2-140K31,6,517,PS,exp,39,↑,up,↑,0.5200811997056007,True,17,1,0,12
Y2-S2-140K31,6,518,PS,exp,29,→,right,→,0.6162412003614008,True,16,1,0,12
Y2-S2-140K31,6,519,PS,exp,27,↑,up,↑,0.48327580001205206,True,16,1,0,12
Y2-S2-140K31,6,520,PS,exp,46,↓,down,↓,0.6435898002237082,True,16,1,0,12
Y2-S2-140K31,6,521,PS,exp,49,←,left,←,0.5014876001514494,True,15,1,0,12
Y2-S2-140K31,6,522,PS,exp,42,↓,down,↓,0.8443701001815498,True,15,1,0,12
Y2-S2-140K31,6,523,PS,exp,31,→,right,→,0.983984500169754,True,15,1,0,12
Y2-S2-140K31,6,524,PS,exp,39,↓,down,↓,0.4810941000469029,True,14,1,0,12
Y2-S2-140K31,6,525,PS,exp,36,→,left,←,0.8531069001182914,False,14,-1,1,13
Y2-S2-140K31,6,526,PS,exp,36,↓,down,↓,0.7224691999144852,True,15,-1,0,13
Y2-S2-140K31,6,527,PS,exp,25,↑,up,↑,0.7085510999895632,True,15,-1,0,13
Y2-S2-140K31,6,528,PS,exp,36,←,left,←,0.563253200147301,True,15,1,1,14
Y2-S2-140K31,6,529,PS,exp,50,→,left,←,0.7572383997030556,False,14,-1,1,15
Y2-S2-140K31,6,530,PS,exp,26,↑,up,↑,0.4430615999735892,True,15,-1,0,15
Y2-S2-140K31,6,531,PS,exp,48,↓,left,←,0.6963700000196695,False,15,-1,0,15
Y2-S2-140K31,6,532,PS,exp,33,↑,up,↑,0.40073500014841557,True,16,-1,0,15
Y2-S2-140K31,6,533,PS,exp,43,↓,down,↓,0.8207001001574099,True,16,-1,0,15
Y2-S2-140K31,6,534,PS,exp,39,↑,up,↑,0.4716608999297023,True,16,1,1,16
Y2-S2-140K31,7,535,PS,intra_train,31,↓,down,↓,1.3216187003999949,True,27,-,-,-
Y2-S2-140K31,7,536,PS,intra_train,32,↑,up,↑,0.5509922998026013,True,27,-,-,-
Y2-S2-140K31,7,537,PS,intra_train,33,→,right,→,0.5008853003382683,True,27,-,-,-
Y2-S2-140K31,7,538,PS,intra_train,47,↓,down,↓,0.6301324996165931,True,27,-,-,-
Y2-S2-140K31,7,539,PS,intra_train,49,→,right,→,0.6368132000789046,True,27,-,-,-
Y2-S2-140K31,7,540,PS,exp,36,↑,up,↑,0.4338786001317203,True,18,0,0,0
Y2-S2-140K31,7,541,PS,exp,31,↓,down,↓,0.6931561999954283,True,18,0,0,0
Y2-S2-140K31,7,542,PS,exp,50,←,left,←,0.5285173999145627,True,18,1,0,0
Y2-S2-140K31,7,543,PS,exp,31,→,right,→,0.7121788999065757,True,17,1,0,0
Y2-S2-140K31,7,544,PS,exp,28,↑,up,↑,0.481697800103575,True,17,1,0,0
Y2-S2-140K31,7,545,PS,exp,27,↓,down,↓,1.5109343002550304,True,17,1,0,0
Y2-S2-140K31,7,546,PS,exp,33,←,left,←,0.7036568000912666,True,16,1,0,0
Y2-S2-140K31,7,547,PS,exp,40,↑,up,↑,1.1701126000843942,True,16,1,0,0
Y2-S2-140K31,7,548,PS,exp,45,→,right,→,0.5027369000017643,True,16,1,0,0
Y2-S2-140K31,7,549,PS,exp,40,←,left,←,0.47351460019126534,True,15,1,0,0
Y2-S2-140K31,7,550,PS,exp,41,↓,down,↓,0.5626408001407981,True,15,1,0,0
Y2-S2-140K31,7,551,PS,exp,40,↑,up,↑,0.4998614997602999,True,15,1,0,0
Y2-S2-140K31,7,552,PS,exp,27,→,right,→,0.5418401998467743,True,14,1,0,0
Y2-S2-140K31,7,553,PS,exp,50,←,left,←,0.5258745001628995,True,14,1,0,0
Y2-S2-140K31,7,554,PS,exp,46,↑,up,↑,0.9416441000066698,True,14,1,0,0
Y2-S2-140K31,7,555,PS,exp,43,↓,down,↓,0.5658000004477799,True,13,1,0,0
Y2-S2-140K31,7,556,PS,exp,37,↑,down,↓,0.9113888000138104,False,13,-1,1,1
Y2-S2-140K31,7,557,PS,exp,48,↓,down,↓,0.5308099002577364,True,14,-1,0,1
Y2-S2-140K31,7,558,PS,exp,41,→,down,↓,0.7545821000821888,False,14,-1,0,1
Y2-S2-140K31,7,559,PS,exp,36,↑,up,↑,0.9386708997189999,True,15,-1,0,1
Y2-S2-140K31,7,560,PS,exp,39,→,right,→,0.6148008001036942,True,15,-1,0,1
Y2-S2-140K31,7,561,PS,exp,46,↑,up,↑,0.5094002997502685,True,15,1,1,2
Y2-S2-140K31,7,562,PS,exp,34,→,right,→,0.48072020011022687,True,14,1,0,2
Y2-S2-140K31,7,563,PS,exp,46,↓,down,↓,0.7036415003240108,True,14,1,0,2
Y2-S2-140K31,7,564,PS,exp,38,→,right,→,0.5573240998201072,True,14,1,0,2
Y2-S2-140K31,7,565,PS,exp,29,↓,down,↓,0.5785016999579966,True,13,1,0,2
Y2-S2-140K31,7,566,PS,exp,48,←,left,←,0.5987497000023723,True,13,1,0,2
Y2-S2-140K31,7,567,PS,exp,44,↓,down,↓,0.5040132999420166,True,13,1,0,2
Y2-S2-140K31,7,568,PS,exp,26,→,down,↓,0.751133699901402,False,12,-1,1,3
Y2-S2-140K31,7,569,PS,exp,38,↓,down,↓,0.6380552002228796,True,13,-1,0,3
Y2-S2-140K31,7,570,PS,exp,41,←,left,←,0.5029389001429081,True,13,-1,0,3
Y2-S2-140K31,7,571,PS,exp,50,↓,down,↓,0.5949793998152018,True,13,1,1,4
Y2-S2-140K31,7,572,PS,exp,48,↑,up,↑,0.5437547997571528,True,12,1,0,4
Y2-S2-140K31,7,573,PS,exp,48,←,left,←,0.576341399922967,True,12,1,0,4
Y2-S2-140K31,7,574,PS,exp,25,↓,down,↓,0.6002694997005165,True,12,1,0,4
Y2-S2-140K31,7,575,PS,exp,29,↑,left,←,1.0425010998733342,False,11,-1,1,5
Y2-S2-140K31,7,576,PS,exp,26,↓,down,↓,0.9225650001317263,True,12,-1,0,5
Y2-S2-140K31,7,577,PS,exp,47,←,left,←,0.8137218002229929,True,12,-1,0,5
Y2-S2-140K31,7,578,PS,exp,25,↑,up,↑,0.5582162998616695,True,12,1,1,6
Y2-S2-140K31,7,579,PS,exp,46,→,right,→,0.8698388999328017,True,11,1,0,6
Y2-S2-140K31,7,580,PS,exp,42,↓,down,↓,0.5776006001979113,True,11,1,0,6
Y2-S2-140K31,7,581,PS,exp,41,←,left,←,0.5118684000335634,True,11,1,0,6
Y2-S2-140K31,7,582,PS,exp,43,↑,up,↑,0.496991700027138,True,10,1,0,6
Y2-S2-140K31,7,583,PS,exp,35,→,right,→,0.956948600243777,True,10,1,0,6
Y2-S2-140K31,7,584,PS,exp,38,↑,up,↑,0.5643050000071526,True,10,1,0,6
Y2-S2-140K31,7,585,PS,exp,30,←,left,←,0.5338519001379609,True,9,1,0,6
Y2-S2-140K31,7,586,PS,exp,47,↑,up,↑,0.44732039980590343,True,9,1,0,6
Y2-S2-140K31,7,587,PS,exp,37,↓,left,←,0.8000453002750874,False,9,-1,1,7
Y2-S2-140K31,7,588,PS,exp,49,↑,up,↑,0.7709152000024915,True,10,-1,0,7
Y2-S2-140K31,7,589,PS,exp,35,↓,down,↓,0.5839329003356397,True,10,-1,0,7
Y2-S2-140K31,7,590,PS,exp,40,↑,up,↑,0.5194310997612774,True,10,1,1,8
Y2-S2-140K31,7,591,PS,exp,36,←,up,↑,0.6994425002485514,False,9,-1,1,9
Y2-S2-140K31,7,592,PS,exp,50,↓,down,↓,0.5618492001667619,True,10,-1,0,9
Y2-S2-140K31,7,593,PS,exp,33,↑,up,↑,1.0198232000693679,True,10,-1,0,9
Y2-S2-140K31,7,594,PS,exp,47,↓,down,↓,0.6658349996432662,True,10,1,1,10
Y2-S2-140K31,7,595,PS,exp,25,←,left,←,0.6884781997650862,True,9,1,0,10
Y2-S2-140K31,7,596,PS,exp,39,→,up,↑,0.8601440000347793,False,9,-1,1,11
Y2-S2-140K31,7,597,PS,exp,39,↓,down,↓,0.719563300255686,True,10,-1,0,11
Y2-S2-140K31,7,598,PS,exp,50,→,right,→,1.0681795999407768,True,10,-1,0,11
Y2-S2-140K31,7,599,PS,exp,27,↓,down,↓,0.5961831999011338,True,10,1,1,12
Y2-S2-140K31,7,600,PS,exp,28,↑,right,→,0.9987078001722693,False,9,-1,1,13
Y2-S2-140K31,7,601,PS,exp,35,↓,down,↓,0.7068660999648273,True,10,-1,0,13
Y2-S2-140K31,7,602,PS,exp,26,←,right,→,0.7578411996364594,False,10,-1,0,13
Y2-S2-140K31,7,603,PS,exp,44,↑,up,↑,0.45895650004968047,True,11,-1,0,13
Y2-S2-140K31,7,604,PS,exp,37,→,up,↑,0.658877800218761,False,11,-1,0,13
Y2-S2-140K31,7,605,PS,exp,36,↓,down,↓,0.6235462999902666,True,12,-1,0,13
Y2-S2-140K31,7,606,PS,exp,38,↑,up,↑,0.7550068004056811,True,12,-1,0,13
Y2-S2-140K31,7,607,PS,exp,37,→,right,→,0.6493669003248215,True,12,1,1,14
Y2-S2-140K31,7,608,PS,exp,47,↓,down,↓,0.6136881001293659,True,11,1,0,14
Y2-S2-140K31,7,609,PS,exp,32,←,left,←,0.6480851997621357,True,11,1,0,14
Y2-S2-140K31,7,610,PS,exp,48,↑,up,↑,0.6572825997136533,True,11,1,0,14
Y2-S2-140K31,7,611,PS,exp,25,→,right,→,0.5450117997825146,True,10,1,0,14
Y2-S2-140K31,7,612,PS,exp,50,←,left,←,0.7486710003577173,True,10,1,0,14
Y2-S2-140K31,7,613,PS,exp,30,↓,down,↓,0.7020758995786309,True,10,1,0,14
Y2-S2-140K31,7,614,PS,exp,35,↑,up,↑,0.5000167000107467,True,9,1,0,14
Y2-S2-140K31,7,615,PS,exp,46,↓,down,↓,0.5991219999268651,True,9,1,0,14
Y2-S2-140K31,7,616,PS,exp,43,←,left,←,0.713412499986589,True,9,1,0,14
Y2-S2-140K31,7,617,PS,exp,30,↓,down,↓,0.5245513999834657,True,8,1,0,14
Y2-S2-140K31,7,618,PS,exp,26,←,left,←,0.8405881999060512,True,8,1,0,14
Y2-S2-140K31,7,619,PS,exp,43,→,down,↓,0.6684632999822497,False,8,-1,1,15
Y2-S2-140K31,7,620,PS,exp,41,↓,left,←,0.7563106999732554,False,9,-1,0,15
Y2-S2-140K31,7,621,PS,exp,28,→,left,←,0.9774162997491658,False,10,-1,0,15
Y2-S2-140K31,7,622,PS,exp,47,↓,down,↓,0.7785886996425688,True,11,-1,0,15
Y2-S2-140K31,7,623,PS,exp,42,→,left,←,0.687589599750936,False,11,-1,0,15
Y2-S2-140K31,7,624,PS,exp,26,←,left,←,0.8479984998703003,True,12,-1,0,15
Y2-S2-140K31,7,625,PS,exp,27,→,right,→,1.206905800383538,True,12,-1,0,15
Y2-S2-140K31,7,626,PS,exp,26,↑,up,↑,0.5480376002378762,True,12,1,1,16
Y2-S2-140K31,8,627,AS,intra_train,27,←,left,←,0.7212070999667048,True,30,-,-,-
Y2-S2-140K31,8,628,AS,intra_train,47,↓,down,↓,0.7053072000853717,True,30,-,-,-
Y2-S2-140K31,8,629,AS,intra_train,39,←,left,←,1.3043999997898936,True,30,-,-,-
Y2-S2-140K31,8,630,AS,intra_train,31,↑,up,↑,0.833688999991864,True,30,-,-,-
Y2-S2-140K31,8,631,AS,intra_train,33,→,up,↑,1.3723799996078014,False,30,-,-,-
Y2-S2-140K31,8,632,AS,exp,29,↓,up,↑,1.3003593999892473,False,20,-1,0,0
Y2-S2-140K31,8,633,AS,exp,41,↑,left,←,0.8101242003031075,False,21,-1,0,0
Y2-S2-140K31,8,634,AS,exp,32,←,left,←,0.613348700106144,True,22,-1,0,0
Y2-S2-140K31,8,635,AS,exp,41,↓,down,↓,0.5830108998343349,True,22,-1,0,0
Y2-S2-140K31,8,636,AS,exp,40,→,down,↓,1.323851800058037,False,22,-1,0,0
Y2-S2-140K31,8,637,AS,exp,46,↓,up,↑,1.21671470021829,False,23,-1,0,0
Y2-S2-140K31,8,638,AS,exp,30,←,no_key,no_letter,-1.0,False,24,-1,0,0
Y2-S2-140K31,8,639,AS,exp,29,↑,up,↑,0.5893661002628505,True,25,-1,0,0
Y2-S2-140K31,8,640,AS,exp,46,←,left,←,0.6543786996044219,True,25,-1,0,0
Y2-S2-140K31,8,641,AS,exp,45,↓,down,↓,0.7781626000069082,True,25,1,1,1
Y2-S2-140K31,8,642,AS,exp,37,→,right,→,0.6452444000169635,True,24,1,0,1
Y2-S2-140K31,8,643,AS,exp,47,←,left,←,0.43440070003271103,True,24,1,0,1
Y2-S2-140K31,8,644,AS,exp,29,↑,up,↑,0.768416800070554,True,24,1,0,1
Y2-S2-140K31,8,645,AS,exp,41,↓,up,↑,0.8647031001746655,False,23,-1,1,2
Y2-S2-140K31,8,646,AS,exp,26,←,left,←,0.6141131003387272,True,24,-1,0,2
Y2-S2-140K31,8,647,AS,exp,49,→,right,→,0.7835284997709095,True,24,-1,0,2
Y2-S2-140K31,8,648,AS,exp,39,↓,down,↓,0.6399019001983106,True,24,1,1,3
Y2-S2-140K31,8,649,AS,exp,33,←,right,→,0.9292291002348065,False,23,-1,1,4
Y2-S2-140K31,8,650,AS,exp,45,→,right,→,0.6343212998472154,True,24,-1,0,4
Y2-S2-140K31,8,651,AS,exp,27,←,left,←,0.612378700170666,True,24,-1,0,4
Y2-S2-140K31,8,652,AS,exp,46,→,right,→,0.6779543999582529,True,24,1,1,5
Y2-S2-140K31,8,653,AS,exp,43,←,left,←,0.7268400997854769,True,23,1,0,5
Y2-S2-140K31,8,654,AS,exp,28,↓,down,↓,0.7447937000542879,True,23,1,0,5
Y2-S2-140K31,8,655,AS,exp,44,←,left,←,0.8506486001424491,True,23,1,0,5
Y2-S2-140K31,8,656,AS,exp,40,↓,down,↓,0.721224999986589,True,22,1,0,5
Y2-S2-140K31,8,657,AS,exp,31,←,left,←,0.5005144998431206,True,22,1,0,5
Y2-S2-140K31,8,658,AS,exp,39,→,right,→,0.800889499951154,True,22,1,0,5
Y2-S2-140K31,8,659,AS,exp,41,←,left,←,0.6599170002155006,True,21,1,0,5
Y2-S2-140K31,8,660,AS,exp,31,→,right,→,0.7371270000003278,True,21,1,0,5
Y2-S2-140K31,8,661,AS,exp,46,←,left,←,0.7156641003675759,True,21,1,0,5
Y2-S2-140K31,8,662,AS,exp,43,→,right,→,1.201096000149846,True,20,1,0,5
Y2-S2-140K31,8,663,AS,exp,44,↓,down,↓,0.9043962000869215,True,20,1,0,5
Y2-S2-140K31,8,664,AS,exp,46,←,left,←,0.5092445001937449,True,20,1,0,5
Y2-S2-140K31,8,665,AS,exp,28,→,right,→,0.4348499998450279,True,19,1,0,5
Y2-S2-140K31,8,666,AS,exp,46,↓,down,↓,0.6034222999587655,True,19,1,0,5
Y2-S2-140K31,8,667,AS,exp,30,↑,down,↓,1.018970699980855,False,19,-1,1,6
Y2-S2-140K31,8,668,AS,exp,25,↓,down,↓,0.5395223000086844,True,20,-1,0,6
Y2-S2-140K31,8,669,AS,exp,27,←,left,←,0.7804004000499845,True,20,-1,0,6
Y2-S2-140K31,8,670,AS,exp,40,→,right,→,0.7203145995736122,True,20,1,1,7
Y2-S2-140K31,8,671,AS,exp,27,↓,down,↓,0.6211362001486123,True,19,1,0,7
Y2-S2-140K31,8,672,AS,exp,49,→,right,→,0.7176464004442096,True,19,1,0,7
Y2-S2-140K31,8,673,AS,exp,42,↓,down,↓,0.6371627002954483,True,19,1,0,7
Y2-S2-140K31,8,674,AS,exp,47,←,left,←,0.5363635001704097,True,18,1,0,7
Y2-S2-140K31,8,675,AS,exp,34,↑,left,←,1.1106083001941442,False,18,-1,1,8
Y2-S2-140K31,8,676,AS,exp,30,←,left,←,0.7544486997649074,True,19,-1,0,8
Y2-S2-140K31,8,677,AS,exp,45,→,right,→,0.7799137998372316,True,19,-1,0,8
Y2-S2-140K31,8,678,AS,exp,38,↓,down,↓,0.6348955002613366,True,19,1,1,9
Y2-S2-140K31,8,679,AS,exp,26,→,right,→,0.8555767997168005,True,18,1,0,9
Y2-S2-140K31,8,680,AS,exp,39,↑,up,↑,0.48986180033534765,True,18,1,0,9
Y2-S2-140K31,8,681,AS,exp,40,↓,down,↓,0.5460202996619046,True,18,1,0,9
Y2-S2-140K31,8,682,AS,exp,49,↑,down,↓,0.854778400156647,False,17,-1,1,10
Y2-S2-140K31,8,683,AS,exp,32,←,left,←,0.8198241000063717,True,18,-1,0,10
Y2-S2-140K31,8,684,AS,exp,37,→,right,→,0.8070376003161073,True,18,-1,0,10
Y2-S2-140K31,8,685,AS,exp,46,↓,up,↑,0.7721552001312375,False,18,-1,0,10
Y2-S2-140K31,8,686,AS,exp,30,←,left,←,0.5997170000337064,True,19,-1,0,10
Y2-S2-140K31,8,687,AS,exp,29,→,left,←,0.498074600007385,False,19,-1,0,10
Y2-S2-140K31,8,688,AS,exp,29,↓,down,↓,0.5663858000189066,True,20,-1,0,10
Y2-S2-140K31,8,689,AS,exp,32,→,right,→,0.7061530002392828,True,20,-1,0,10
Y2-S2-140K31,8,690,AS,exp,40,↑,up,↑,0.4173953998833895,True,20,1,1,11
Y2-S2-140K31,8,691,AS,exp,35,→,right,→,0.7356060999445617,True,19,1,0,11
Y2-S2-140K31,8,692,AS,exp,27,←,right,→,0.7359882001765072,False,19,-1,1,12
Y2-S2-140K31,8,693,AS,exp,42,→,right,→,0.6256843996234238,True,20,-1,0,12
Y2-S2-140K31,8,694,AS,exp,27,↑,up,↑,0.7224771999754012,True,20,-1,0,12
Y2-S2-140K31,8,695,AS,exp,27,←,left,←,0.6964205000549555,True,20,1,1,13
Y2-S2-140K31,8,696,AS,exp,30,→,right,→,1.0521456003189087,True,19,1,0,13
Y2-S2-140K31,8,697,AS,exp,29,↓,down,↓,0.754494400229305,True,19,1,0,13
Y2-S2-140K31,8,698,AS,exp,36,→,right,→,0.4900207999162376,True,19,1,0,13
Y2-S2-140K31,8,699,AS,exp,39,↑,up,↑,0.4777354998514056,True,18,1,0,13
Y2-S2-140K31,8,700,AS,exp,36,→,up,↑,0.5467870002612472,False,18,-1,1,14
Y2-S2-140K31,8,701,AS,exp,28,↓,down,↓,0.6704875999130309,True,19,-1,0,14
Y2-S2-140K31,8,702,AS,exp,29,→,right,→,0.7861790000461042,True,19,-1,0,14
Y2-S2-140K31,8,703,AS,exp,38,↓,down,↓,0.7312957998365164,True,19,1,1,15
Y2-S2-140K31,8,704,AS,exp,44,↑,up,↑,0.7922113002277911,True,18,1,0,15
Y2-S2-140K31,8,705,AS,exp,30,↓,down,↓,0.629297399893403,True,18,1,0,15
Y2-S2-140K31,8,706,AS,exp,47,↑,up,↑,0.8479712000116706,True,18,1,0,15
Y2-S2-140K31,8,707,AS,exp,34,←,left,←,1.1929866997525096,True,17,1,0,15
Y2-S2-140K31,8,708,AS,exp,45,→,right,→,0.6233594999648631,True,17,1,0,15
Y2-S2-140K31,8,709,AS,exp,36,↓,right,→,1.2932169996201992,False,17,-1,1,16
