PART_ID,Block_no,Trial_no,Block_type,Trial_type,CSI,Stim_letter,Key_pressed,letter_choose,Rt,Corr,Stimulus Time,Level,Reversal,Revs_count
Y2-S2-191K20,1,1,PS,train,48,↑,left,←,0.30101890000514686,False,30,-,-,-
Y2-S2-191K20,1,2,PS,train,44,←,left,←,0.5674193000886589,True,30,-,-,-
Y2-S2-191K20,1,3,PS,train,27,→,right,→,0.939763700007461,True,30,-,-,-
Y2-S2-191K20,1,4,PS,train,40,←,left,←,0.6167538999579847,True,30,-,-,-
Y2-S2-191K20,1,5,PS,train,43,↑,up,↑,0.7548937000101432,True,30,-,-,-
Y2-S2-191K20,1,6,PS,train,31,→,right,→,0.6734553000424057,True,30,-,-,-
Y2-S2-191K20,1,7,PS,train,25,←,left,←,0.5009316999930888,True,30,-,-,-
Y2-S2-191K20,1,8,PS,train,34,→,right,→,0.5844146000454202,True,30,-,-,-
Y2-S2-191K20,1,9,PS,train,25,←,left,←,0.5338988000294194,True,30,-,-,-
Y2-S2-191K20,1,10,PS,train,47,→,right,→,0.4010105999186635,True,30,-,-,-
Y2-S2-191K20,2,11,AS,train,42,←,left,←,0.41806249995715916,True,45,-,-,-
Y2-S2-191K20,2,12,AS,train,42,↓,down,↓,0.9225662000244483,True,45,-,-,-
Y2-S2-191K20,2,13,AS,train,45,←,left,←,0.701104799984023,True,45,-,-,-
Y2-S2-191K20,2,14,AS,train,46,↑,up,↑,0.5177610999671742,True,45,-,-,-
Y2-S2-191K20,2,15,AS,train,39,→,left,←,0.7010084999492392,False,45,-,-,-
Y2-S2-191K20,2,16,AS,train,46,←,left,←,0.9527570999925956,True,45,-,-,-
Y2-S2-191K20,2,17,AS,train,49,→,right,→,1.0015837999526411,True,45,-,-,-
Y2-S2-191K20,2,18,AS,train,31,↑,up,↑,0.7181672999868169,True,45,-,-,-
Y2-S2-191K20,2,19,AS,train,31,↓,no_key,no_letter,-1.0,False,45,-,-,-
Y2-S2-191K20,2,20,AS,train,27,↑,up,↑,0.867620800039731,True,45,-,-,-
Y2-S2-191K20,-,21,PS,adaptive,26,←,left,←,0.5231098999502137,True,10,0,0,0
Y2-S2-191K20,-,22,PS,adaptive,32,↑,up,↑,0.41456209996249527,True,10,0,0,0
Y2-S2-191K20,-,23,PS,adaptive,38,↓,down,↓,0.6573392000282183,True,10,1,0,0
Y2-S2-191K20,-,24,PS,adaptive,35,←,left,←,0.6070048999972641,True,9,1,0,0
Y2-S2-191K20,-,25,PS,adaptive,41,→,right,→,0.7214467999292538,True,9,1,0,0
Y2-S2-191K20,-,26,PS,adaptive,39,←,left,←,0.5367082000011578,True,9,1,0,0
Y2-S2-191K20,-,27,PS,adaptive,32,↓,down,↓,0.6069475000258535,True,8,1,0,0
Y2-S2-191K20,-,28,PS,adaptive,26,→,right,→,0.5048246999504045,True,8,1,0,0
Y2-S2-191K20,-,29,PS,adaptive,41,↓,down,↓,0.55912529991474,True,8,1,0,0
Y2-S2-191K20,-,30,PS,adaptive,43,↑,up,↑,0.5853453999152407,True,7,1,0,0
Y2-S2-191K20,-,31,PS,adaptive,41,→,right,→,1.4528213000157848,True,7,1,0,0
Y2-S2-191K20,-,32,PS,adaptive,26,↑,up,↑,0.8908374999882653,True,7,1,0,0
Y2-S2-191K20,-,33,PS,adaptive,40,↓,up,↑,0.7802961999550462,False,6,-1,1,1
Y2-S2-191K20,-,34,PS,adaptive,32,→,up,↑,0.8877773999702185,False,7,-1,0,1
Y2-S2-191K20,-,35,PS,adaptive,48,↑,up,↑,0.7842134999809787,True,8,-1,0,1
Y2-S2-191K20,-,36,PS,adaptive,26,←,up,↑,0.5400249999947846,False,8,-1,0,1
Y2-S2-191K20,-,37,PS,adaptive,45,↑,up,↑,0.3560750000178814,True,9,-1,0,1
Y2-S2-191K20,-,38,PS,adaptive,43,→,right,→,0.735851899953559,True,9,-1,0,1
Y2-S2-191K20,-,39,PS,adaptive,47,↑,up,↑,0.5661693000001833,True,9,1,1,2
Y2-S2-191K20,-,40,PS,adaptive,49,↓,down,↓,0.6554782000603154,True,8,1,0,2
Y2-S2-191K20,-,41,PS,adaptive,26,↑,up,↑,0.42305979994125664,True,8,1,0,2
Y2-S2-191K20,-,42,PS,adaptive,50,←,up,↑,0.5539752000477165,False,8,-1,1,3
Y2-S2-191K20,-,43,PS,adaptive,44,↓,up,↑,0.3430303999921307,False,9,-1,0,3
Y2-S2-191K20,-,44,PS,adaptive,49,↑,down,↓,0.41319180000573397,False,10,-1,0,3
Y2-S2-191K20,-,45,PS,adaptive,37,↓,down,↓,0.6337021000217646,True,11,-1,0,3
Y2-S2-191K20,-,46,PS,adaptive,37,←,up,↑,0.44547300005797297,False,11,-1,0,3
Y2-S2-191K20,-,47,PS,adaptive,31,↑,up,↑,0.5581654999405146,True,12,-1,0,3
Y2-S2-191K20,-,48,PS,adaptive,44,←,left,←,0.57402890000958,True,12,-1,0,3
Y2-S2-191K20,-,49,PS,adaptive,25,→,right,→,0.7390345999738201,True,12,1,1,4
Y2-S2-191K20,-,50,AS,adaptive,35,↑,up,↑,0.43413489998783916,True,20,0,0,0
Y2-S2-191K20,-,51,AS,adaptive,42,→,up,↑,0.6528179999440908,False,20,-1,0,0
Y2-S2-191K20,-,52,AS,adaptive,48,↓,up,↑,1.2882529000053182,False,21,-1,0,0
Y2-S2-191K20,-,53,AS,adaptive,28,←,up,↑,0.8905992999207228,False,22,-1,0,0
Y2-S2-191K20,-,54,AS,adaptive,42,↑,up,↑,0.8889463000232354,True,23,-1,0,0
Y2-S2-191K20,-,55,AS,adaptive,29,↓,down,↓,0.9630656000226736,True,23,-1,0,0
Y2-S2-191K20,-,56,AS,adaptive,40,→,right,→,0.8999474999727681,True,23,1,1,1
Y2-S2-191K20,-,57,AS,adaptive,26,↑,up,↑,0.6979089999804273,True,22,1,0,1
Y2-S2-191K20,-,58,AS,adaptive,48,↓,down,↓,0.9469209000235423,True,22,1,0,1
Y2-S2-191K20,-,59,AS,adaptive,43,→,down,↓,0.921309299999848,False,22,-1,1,2
Y2-S2-191K20,-,60,AS,adaptive,43,←,left,←,0.9691705999430269,True,23,-1,0,2
Y2-S2-191K20,-,61,AS,adaptive,37,→,right,→,0.7664524000138044,True,23,-1,0,2
Y2-S2-191K20,-,62,AS,adaptive,36,↑,up,↑,0.7447343999519944,True,23,1,1,3
Y2-S2-191K20,-,63,AS,adaptive,43,→,right,→,0.9253164000110701,True,22,1,0,3
Y2-S2-191K20,-,64,AS,adaptive,38,↑,right,→,1.070242999936454,False,22,-1,1,4
Y2-S2-191K20,1,65,PS,intra_train,50,↓,down,↓,0.6576790999388322,True,16,-,-,-
Y2-S2-191K20,1,66,PS,intra_train,40,←,left,←,0.6011420999420807,True,16,-,-,-
Y2-S2-191K20,1,67,PS,intra_train,36,↓,down,↓,0.6376497000455856,True,16,-,-,-
Y2-S2-191K20,1,68,PS,intra_train,31,←,left,←,0.661860299995169,True,16,-,-,-
Y2-S2-191K20,1,69,PS,intra_train,34,↓,down,↓,0.6219519999576733,True,16,-,-,-
Y2-S2-191K20,1,70,PS,exp,39,←,left,←,1.1381185000063851,True,11,0,0,0
Y2-S2-191K20,1,71,PS,exp,39,↓,down,↓,0.5785985999973491,True,11,0,0,0
Y2-S2-191K20,1,72,PS,exp,46,→,right,→,0.8579451999394223,True,11,1,0,0
Y2-S2-191K20,1,73,PS,exp,35,←,left,←,0.704249200061895,True,10,1,0,0
Y2-S2-191K20,1,74,PS,exp,45,↑,up,↑,0.43967579992022365,True,10,1,0,0
Y2-S2-191K20,1,75,PS,exp,39,↓,down,↓,0.4328082000138238,True,10,1,0,0
Y2-S2-191K20,1,76,PS,exp,30,→,right,→,0.6262975001009181,True,9,1,0,0
Y2-S2-191K20,1,77,PS,exp,31,↑,up,↑,0.5240824000211433,True,9,1,0,0
Y2-S2-191K20,1,78,PS,exp,31,↓,down,↓,0.555108500062488,True,9,1,0,0
Y2-S2-191K20,1,79,PS,exp,40,→,right,→,0.6203022999688983,True,8,1,0,0
Y2-S2-191K20,1,80,PS,exp,31,↑,up,↑,0.4570365999825299,True,8,1,0,0
Y2-S2-191K20,1,81,PS,exp,32,↓,down,↓,0.6701395000563934,True,8,1,0,0
Y2-S2-191K20,1,82,PS,exp,33,→,down,↓,0.794383900007233,False,7,-1,1,1
Y2-S2-191K20,1,83,PS,exp,37,↑,down,↓,0.9563195999944583,False,8,-1,0,1
Y2-S2-191K20,1,84,PS,exp,40,←,left,←,0.6243230000836775,True,9,-1,0,1
Y2-S2-191K20,1,85,PS,exp,45,↑,up,↑,0.43502580001950264,True,9,-1,0,1
Y2-S2-191K20,1,86,PS,exp,34,←,left,←,0.562798900064081,True,9,1,1,2
Y2-S2-191K20,1,87,PS,exp,37,↓,left,←,1.0400790999410674,False,8,-1,1,3
Y2-S2-191K20,1,88,PS,exp,31,←,up,↑,0.4061696999706328,False,9,-1,0,3
Y2-S2-191K20,1,89,PS,exp,39,↓,down,↓,0.5503701000707224,True,10,-1,0,3
Y2-S2-191K20,1,90,PS,exp,49,←,left,←,0.4192043000366539,True,10,-1,0,3
Y2-S2-191K20,1,91,PS,exp,39,→,right,→,0.9081961000338197,True,10,1,1,4
Y2-S2-191K20,1,92,PS,exp,48,↑,up,↑,0.3559956999961287,True,9,1,0,4
Y2-S2-191K20,1,93,PS,exp,43,→,right,→,1.1016081999987364,True,9,1,0,4
Y2-S2-191K20,1,94,PS,exp,25,←,up,↑,0.3780249000992626,False,9,-1,1,5
Y2-S2-191K20,1,95,PS,exp,28,↑,up,↑,0.5460016999859363,True,10,-1,0,5
Y2-S2-191K20,1,96,PS,exp,26,↓,down,↓,0.711419100058265,True,10,-1,0,5
Y2-S2-191K20,1,97,PS,exp,31,↑,up,↑,0.6250472000101581,True,10,1,1,6
Y2-S2-191K20,1,98,PS,exp,41,←,left,←,0.506303200032562,True,9,1,0,6
Y2-S2-191K20,1,99,PS,exp,28,↑,up,↑,0.48515710001811385,True,9,1,0,6
Y2-S2-191K20,1,100,PS,exp,32,←,up,↑,0.9314167000120506,False,9,-1,1,7
Y2-S2-191K20,1,101,PS,exp,29,↓,down,↓,1.2981936000287533,True,10,-1,0,7
Y2-S2-191K20,1,102,PS,exp,45,→,down,↓,0.9734045000514016,False,10,-1,0,7
Y2-S2-191K20,1,103,PS,exp,33,←,left,←,0.5222414000891149,True,11,-1,0,7
Y2-S2-191K20,1,104,PS,exp,39,↓,down,↓,0.6750085999956354,True,11,-1,0,7
Y2-S2-191K20,1,105,PS,exp,28,←,left,←,0.5770502000814304,True,11,1,1,8
Y2-S2-191K20,1,106,PS,exp,39,↓,down,↓,0.6015528999269009,True,10,1,0,8
Y2-S2-191K20,1,107,PS,exp,28,←,left,←,0.6507109999656677,True,10,1,0,8
Y2-S2-191K20,1,108,PS,exp,26,→,right,→,0.9494482000591233,True,10,1,0,8
Y2-S2-191K20,1,109,PS,exp,47,←,left,←,0.8731972000095993,True,9,1,0,8
Y2-S2-191K20,1,110,PS,exp,30,↓,down,↓,0.6054715999634936,True,9,1,0,8
Y2-S2-191K20,1,111,PS,exp,50,↑,up,↑,0.5246272999793291,True,9,1,0,8
Y2-S2-191K20,1,112,PS,exp,29,↓,down,↓,0.6219004000304267,True,8,1,0,8
Y2-S2-191K20,1,113,PS,exp,47,←,left,←,0.3913484000368044,True,8,1,0,8
Y2-S2-191K20,1,114,PS,exp,31,↓,down,↓,0.9005016000010073,True,8,1,0,8
Y2-S2-191K20,1,115,PS,exp,32,←,left,←,0.8603188999695703,True,7,1,0,8
Y2-S2-191K20,1,116,PS,exp,39,↓,down,↓,0.6166325000813231,True,7,1,0,8
Y2-S2-191K20,1,117,PS,exp,41,→,down,↓,1.0904920001048595,False,7,-1,1,9
Y2-S2-191K20,1,118,PS,exp,35,←,down,↓,0.7600730999838561,False,8,-1,0,9
Y2-S2-191K20,1,119,PS,exp,37,→,right,→,0.6385526999365538,True,9,-1,0,9
Y2-S2-191K20,1,120,PS,exp,41,←,left,←,0.7099999999627471,True,9,-1,0,9
Y2-S2-191K20,1,121,PS,exp,27,↓,down,↓,0.808011700049974,True,9,1,1,10
Y2-S2-191K20,1,122,PS,exp,37,←,down,↓,0.8142848999705166,False,8,-1,1,11
Y2-S2-191K20,1,123,PS,exp,44,↓,left,←,0.9677980999695137,False,9,-1,0,11
Y2-S2-191K20,1,124,PS,exp,41,→,right,→,0.748820099979639,True,10,-1,0,11
Y2-S2-191K20,1,125,PS,exp,31,←,right,→,0.9376437999308109,False,10,-1,0,11
Y2-S2-191K20,1,126,PS,exp,29,↑,up,↑,1.7273214999586344,True,11,-1,0,11
Y2-S2-191K20,1,127,PS,exp,42,←,left,←,0.9991074999561533,True,11,-1,0,11
Y2-S2-191K20,1,128,PS,exp,46,↑,up,↑,0.8590394000057131,True,11,1,1,12
Y2-S2-191K20,1,129,PS,exp,26,→,right,→,0.5648672999814153,True,10,1,0,12
Y2-S2-191K20,1,130,PS,exp,40,↑,up,↑,0.646541899885051,True,10,1,0,12
Y2-S2-191K20,1,131,PS,exp,31,←,left,←,0.5749893999891356,True,10,1,0,12
Y2-S2-191K20,1,132,PS,exp,43,↓,down,↓,0.6095909000141546,True,9,1,0,12
Y2-S2-191K20,1,133,PS,exp,40,↑,right,→,0.8824192000320181,False,9,-1,1,13
Y2-S2-191K20,1,134,PS,exp,29,→,right,→,0.21695430006366223,True,10,-1,0,13
Y2-S2-191K20,1,135,PS,exp,35,↑,up,↑,0.5341549000004306,True,10,-1,0,13
Y2-S2-191K20,1,136,PS,exp,29,→,right,→,0.9042605999857187,True,10,1,1,14
Y2-S2-191K20,1,137,PS,exp,27,↑,up,↑,0.44903359992895275,True,9,1,0,14
Y2-S2-191K20,1,138,PS,exp,50,←,left,←,1.2887005999218673,True,9,1,0,14
Y2-S2-191K20,1,139,PS,exp,30,↓,down,↓,0.6378892000066116,True,9,1,0,14
Y2-S2-191K20,1,140,PS,exp,33,→,right,→,0.6368605999741703,True,8,1,0,14
Y2-S2-191K20,1,141,PS,exp,38,←,left,←,0.5404332999605685,True,8,1,0,14
Y2-S2-191K20,1,142,PS,exp,32,↑,left,←,1.4852317000040784,False,8,-1,1,15
Y2-S2-191K20,1,143,PS,exp,29,→,right,→,0.7345979000674561,True,9,-1,0,15
Y2-S2-191K20,1,144,PS,exp,48,↑,up,↑,0.5053029000991955,True,9,-1,0,15
Y2-S2-191K20,1,145,PS,exp,41,←,no_key,no_letter,-1.0,False,9,-1,0,15
Y2-S2-191K20,1,146,PS,exp,40,↓,up,↑,0.9490398999769241,False,10,-1,0,15
Y2-S2-191K20,1,147,PS,exp,49,↑,up,↑,0.901849800022319,True,11,-1,0,15
Y2-S2-191K20,1,148,PS,exp,39,←,left,←,0.5513461999362335,True,11,-1,0,15
Y2-S2-191K20,1,149,PS,exp,43,→,right,→,0.7629180999938399,True,11,1,1,16
Y2-S2-191K20,2,150,AS,intra_train,37,↓,up,↑,2.047697399975732,False,34,-,-,-
Y2-S2-191K20,2,151,AS,intra_train,50,↑,left,←,0.8538395999930799,False,34,-,-,-
Y2-S2-191K20,2,152,AS,intra_train,29,←,right,→,0.73977359989658,False,34,-,-,-
Y2-S2-191K20,2,153,AS,intra_train,43,↓,left,←,0.8333365999860689,False,34,-,-,-
Y2-S2-191K20,2,154,AS,intra_train,29,→,right,→,0.417770899948664,True,34,-,-,-
Y2-S2-191K20,2,155,AS,exp,40,←,right,→,0.5624507999746129,False,23,-1,0,0
Y2-S2-191K20,2,156,AS,exp,35,↑,right,→,0.3840607999591157,False,24,-1,0,0
Y2-S2-191K20,2,157,AS,exp,33,←,right,→,0.38463500002399087,False,25,-1,0,0
Y2-S2-191K20,2,158,AS,exp,43,↑,right,→,0.23401550005655736,False,26,-1,0,0
Y2-S2-191K20,2,159,AS,exp,33,↓,right,→,0.36780740006361157,False,27,-1,0,0
Y2-S2-191K20,2,160,AS,exp,42,←,down,↓,0.3840754999546334,False,28,-1,0,0
Y2-S2-191K20,2,161,AS,exp,28,↑,up,↑,0.7176118999486789,True,29,-1,0,0
Y2-S2-191K20,2,162,AS,exp,47,↓,down,↓,1.8418491000775248,True,29,-1,0,0
Y2-S2-191K20,2,163,AS,exp,34,←,left,←,1.3583382000215352,True,29,1,1,1
Y2-S2-191K20,2,164,AS,exp,42,→,right,→,0.7054050000151619,True,28,1,0,1
Y2-S2-191K20,2,165,AS,exp,47,↑,left,←,0.7176669000182301,False,28,-1,1,2
Y2-S2-191K20,2,166,AS,exp,43,→,right,→,0.7062103999778628,True,29,-1,0,2
Y2-S2-191K20,2,167,AS,exp,49,↓,up,↑,0.7184694999596104,False,29,-1,0,2
Y2-S2-191K20,2,168,AS,exp,35,→,right,→,0.7445778000401333,True,30,-1,0,2
Y2-S2-191K20,2,169,AS,exp,50,↑,up,↑,0.5006489000516012,True,30,-1,0,2
Y2-S2-191K20,2,170,AS,exp,27,←,right,→,0.9078122000209987,False,30,-1,0,2
Y2-S2-191K20,2,171,AS,exp,40,→,right,→,1.1581495999125764,True,31,-1,0,2
Y2-S2-191K20,2,172,AS,exp,28,↓,down,↓,0.40132679999805987,True,31,-1,0,2
Y2-S2-191K20,2,173,AS,exp,28,↑,down,↓,0.4012499999953434,False,31,-1,0,2
Y2-S2-191K20,2,174,AS,exp,42,↓,up,↑,0.11803969996981323,False,32,-1,0,2
Y2-S2-191K20,2,175,AS,exp,29,↑,up,↑,0.7172483999747783,True,33,-1,0,2
Y2-S2-191K20,2,176,AS,exp,28,↓,down,↓,1.0187105999793857,True,33,-1,0,2
Y2-S2-191K20,2,177,AS,exp,41,↑,up,↑,0.5511609999230132,True,33,1,1,3
Y2-S2-191K20,2,178,AS,exp,44,←,up,↑,1.2155638999538496,False,32,-1,1,4
Y2-S2-191K20,2,179,AS,exp,27,↓,down,↓,0.5013559999642894,True,33,-1,0,4
Y2-S2-191K20,2,180,AS,exp,45,←,left,←,0.6175428000278771,True,33,-1,0,4
Y2-S2-191K20,2,181,AS,exp,44,↑,down,↓,1.531753299990669,False,33,-1,0,4
Y2-S2-191K20,2,182,AS,exp,30,↓,down,↓,0.7002986000152305,True,34,-1,0,4
Y2-S2-191K20,2,183,AS,exp,28,→,right,→,0.6673876000568271,True,34,-1,0,4
Y2-S2-191K20,2,184,AS,exp,32,←,right,→,0.5008140999125317,False,34,-1,0,4
Y2-S2-191K20,2,185,AS,exp,29,↓,left,←,0.4507307999301702,False,35,-1,0,4
Y2-S2-191K20,2,186,AS,exp,38,↑,down,↓,0.0012120000319555402,False,36,-1,0,4
Y2-S2-191K20,2,187,AS,exp,34,→,right,→,0.5175356999970973,True,37,-1,0,4
Y2-S2-191K20,2,188,AS,exp,44,↓,down,↓,1.1914858999662101,True,37,-1,0,4
Y2-S2-191K20,2,189,AS,exp,35,↑,up,↑,0.5343259999062866,True,37,1,1,5
Y2-S2-191K20,2,190,AS,exp,46,←,left,←,2.080627200077288,True,36,1,0,5
Y2-S2-191K20,2,191,AS,exp,46,↑,up,↑,1.059460600023158,True,36,1,0,5
Y2-S2-191K20,2,192,AS,exp,42,←,left,←,0.4842835000017658,True,36,1,0,5
Y2-S2-191K20,2,193,AS,exp,43,→,left,←,0.6507575999712572,False,35,-1,1,6
Y2-S2-191K20,2,194,AS,exp,47,↓,down,↓,0.6165955999167636,True,36,-1,0,6
Y2-S2-191K20,2,195,AS,exp,46,↑,up,↑,0.873467400087975,True,36,-1,0,6
Y2-S2-191K20,2,196,AS,exp,45,←,left,←,0.9709422000451013,True,36,1,1,7
Y2-S2-191K20,2,197,AS,exp,48,→,right,→,1.296574000036344,True,35,1,0,7
Y2-S2-191K20,2,198,AS,exp,26,↓,down,↓,0.842278299969621,True,35,1,0,7
Y2-S2-191K20,2,199,AS,exp,28,↑,up,↑,0.617746000061743,True,35,1,0,7
Y2-S2-191K20,2,200,AS,exp,33,→,right,→,0.8297851000679657,True,34,1,0,7
Y2-S2-191K20,2,201,AS,exp,50,↓,down,↓,0.599856200045906,True,34,1,0,7
Y2-S2-191K20,2,202,AS,exp,47,↑,up,↑,0.8323619000148028,True,34,1,0,7
Y2-S2-191K20,2,203,AS,exp,47,↓,down,↓,0.4841963000362739,True,33,1,0,7
Y2-S2-191K20,2,204,AS,exp,42,←,left,←,0.600465500028804,True,33,1,0,7
Y2-S2-191K20,2,205,AS,exp,50,↓,down,↓,1.5679742000065744,True,33,1,0,7
Y2-S2-191K20,2,206,AS,exp,47,→,right,→,0.6676046999637038,True,32,1,0,7
Y2-S2-191K20,2,207,AS,exp,41,↓,down,↓,1.088455899967812,True,32,1,0,7
Y2-S2-191K20,2,208,AS,exp,31,↑,up,↑,0.7463333000196144,True,32,1,0,7
Y2-S2-191K20,2,209,AS,exp,34,←,left,←,0.9549186000367627,True,31,1,0,7
Y2-S2-191K20,2,210,AS,exp,50,→,right,→,0.748090700013563,True,31,1,0,7
Y2-S2-191K20,2,211,AS,exp,44,←,left,←,0.5335663999430835,True,31,1,0,7
Y2-S2-191K20,2,212,AS,exp,40,↓,down,↓,0.7324069000314921,True,30,1,0,7
Y2-S2-191K20,2,213,AS,exp,33,→,right,→,0.5668845999753103,True,30,1,0,7
Y2-S2-191K20,2,214,AS,exp,27,←,down,↓,0.5503697000676766,False,30,-1,1,8
Y2-S2-191K20,2,215,AS,exp,25,↑,up,↑,0.5669131999602541,True,31,-1,0,8
Y2-S2-191K20,2,216,AS,exp,26,←,left,←,0.5511570000089705,True,31,-1,0,8
Y2-S2-191K20,2,217,AS,exp,45,↓,down,↓,0.6503402999369428,True,31,1,1,9
Y2-S2-191K20,2,218,AS,exp,37,↑,no_key,no_letter,-1.0,False,30,-1,1,10
Y2-S2-191K20,2,219,AS,exp,39,→,right,→,0.70377279992681,True,31,-1,0,10
Y2-S2-191K20,2,220,AS,exp,28,↑,up,↑,0.9991216999478638,True,31,-1,0,10
Y2-S2-191K20,2,221,AS,exp,42,↓,up,↑,0.3654543000739068,False,31,-1,0,10
Y2-S2-191K20,2,222,AS,exp,30,←,down,↓,0.30126219999510795,False,32,-1,0,10
Y2-S2-191K20,2,223,AS,exp,32,↓,left,←,0.7269860999658704,False,33,-1,0,10
Y2-S2-191K20,2,224,AS,exp,43,←,left,←,0.8893331999424845,True,34,-1,0,10
Y2-S2-191K20,2,225,AS,exp,35,↑,down,↓,1.3282564000692219,False,34,-1,0,10
Y2-S2-191K20,2,226,AS,exp,38,←,left,←,0.8699949999572709,True,35,-1,0,10
Y2-S2-191K20,2,227,AS,exp,48,↓,down,↓,1.1866377000696957,True,35,-1,0,10
Y2-S2-191K20,2,228,AS,exp,42,→,up,↑,1.0497418000595644,False,35,-1,0,10
Y2-S2-191K20,2,229,AS,exp,25,←,left,←,0.5341918000485748,True,36,-1,0,10
Y2-S2-191K20,2,230,AS,exp,48,↓,down,↓,0.5679973000660539,True,36,-1,0,10
Y2-S2-191K20,2,231,AS,exp,38,→,right,→,0.9094881999772042,True,36,1,1,11
Y2-S2-191K20,2,232,AS,exp,47,↑,up,↑,0.798322599963285,True,35,1,0,11
Y2-S2-191K20,2,233,AS,exp,46,→,right,→,0.6506061999825761,True,35,1,0,11
Y2-S2-191K20,2,234,AS,exp,39,↑,up,↑,0.5344669000478461,True,35,1,0,11
Y2-S2-191K20,2,235,AS,exp,30,↓,down,↓,0.5829472999321297,True,34,1,0,11
Y2-S2-191K20,2,236,AS,exp,42,→,right,→,0.7805684000486508,True,34,1,0,11
Y2-S2-191K20,2,237,AS,exp,50,↑,right,→,0.6665760999312624,False,34,-1,1,12
Y2-S2-191K20,2,238,AS,exp,30,←,left,←,0.9796561000403017,True,35,-1,0,12
Y2-S2-191K20,2,239,AS,exp,49,→,right,→,0.9509537999983877,True,35,-1,0,12
Y2-S2-191K20,2,240,AS,exp,49,↓,down,↓,0.6495063999900594,True,35,1,1,13
Y2-S2-191K20,2,241,AS,exp,27,↑,up,↑,0.7860174999805167,True,34,1,0,13
Y2-S2-191K20,2,242,AS,exp,42,→,down,↓,0.773170700063929,False,34,-1,1,14
Y2-S2-191K20,2,243,AS,exp,47,↓,no_key,no_letter,-1.0,False,35,-1,0,14
Y2-S2-191K20,2,244,AS,exp,46,←,left,←,0.83175469993148,True,36,-1,0,14
Y2-S2-191K20,2,245,AS,exp,48,↓,down,↓,0.5514994999393821,True,36,-1,0,14
Y2-S2-191K20,2,246,AS,exp,43,→,right,→,0.5511192000703886,True,36,1,1,15
Y2-S2-191K20,2,247,AS,exp,27,←,left,←,0.8953341000014916,True,35,1,0,15
Y2-S2-191K20,2,248,AS,exp,36,↑,right,→,0.6839511001016945,False,35,-1,1,16
Y2-S2-191K20,3,249,AS,intra_train,33,←,left,←,0.48416610003914684,True,34,-,-,-
Y2-S2-191K20,3,250,AS,intra_train,35,↑,up,↑,0.7798886999953538,True,34,-,-,-
Y2-S2-191K20,3,251,AS,intra_train,35,→,right,→,0.6841781999683008,True,34,-,-,-
Y2-S2-191K20,3,252,AS,intra_train,33,↓,down,↓,0.6674452000297606,True,34,-,-,-
Y2-S2-191K20,3,253,AS,intra_train,50,←,left,←,0.7465652000391856,True,34,-,-,-
Y2-S2-191K20,3,254,AS,exp,49,↓,down,↓,0.6817130000563338,True,23,0,0,0
Y2-S2-191K20,3,255,AS,exp,39,↑,up,↑,0.6040904999244958,True,23,0,0,0
Y2-S2-191K20,3,256,AS,exp,49,→,right,→,0.8802889999933541,True,23,1,0,0
Y2-S2-191K20,3,257,AS,exp,28,←,left,←,0.3997674999991432,True,22,1,0,0
Y2-S2-191K20,3,258,AS,exp,35,↓,up,↑,0.6502818000735715,False,22,-1,1,1
Y2-S2-191K20,3,259,AS,exp,40,→,up,↑,1.1450234999647364,False,23,-1,0,1
Y2-S2-191K20,3,260,AS,exp,36,↑,up,↑,0.8731271000579,True,24,-1,0,1
Y2-S2-191K20,3,261,AS,exp,41,↓,down,↓,0.6265865999739617,True,24,-1,0,1
Y2-S2-191K20,3,262,AS,exp,29,↑,up,↑,0.5860007000155747,True,24,1,1,2
Y2-S2-191K20,3,263,AS,exp,45,→,right,→,0.6845166999846697,True,23,1,0,2
Y2-S2-191K20,3,264,AS,exp,26,←,left,←,0.5770715000107884,True,23,1,0,2
Y2-S2-191K20,3,265,AS,exp,31,↑,right,→,0.6995626999996603,False,23,-1,1,3
Y2-S2-191K20,3,266,AS,exp,34,→,up,↑,1.1511904000071809,False,24,-1,0,3
Y2-S2-191K20,3,267,AS,exp,40,←,left,←,0.48362110008019954,True,25,-1,0,3
Y2-S2-191K20,3,268,AS,exp,39,→,right,→,1.0907697000075132,True,25,-1,0,3
Y2-S2-191K20,3,269,AS,exp,44,↑,up,↑,0.9741177000105381,True,25,1,1,4
Y2-S2-191K20,3,270,AS,exp,29,←,down,↓,0.23491100000683218,False,24,-1,1,5
Y2-S2-191K20,3,271,AS,exp,35,↓,down,↓,0.7045831000432372,True,25,-1,0,5
Y2-S2-191K20,3,272,AS,exp,45,→,right,→,0.6093098999699578,True,25,-1,0,5
Y2-S2-191K20,3,273,AS,exp,30,↑,up,↑,0.7256749999942258,True,25,1,1,6
Y2-S2-191K20,3,274,AS,exp,50,←,right,→,0.947246800060384,False,24,-1,1,7
Y2-S2-191K20,3,275,AS,exp,48,↓,up,↑,1.1375291000586003,False,25,-1,0,7
Y2-S2-191K20,3,276,AS,exp,37,↑,up,↑,0.68481729994528,True,26,-1,0,7
Y2-S2-191K20,3,277,AS,exp,49,↓,down,↓,1.1007891000481322,True,26,-1,0,7
Y2-S2-191K20,3,278,AS,exp,35,↑,up,↑,0.6388617000775412,True,26,1,1,8
Y2-S2-191K20,3,279,AS,exp,34,→,right,→,1.0017332000425085,True,25,1,0,8
Y2-S2-191K20,3,280,AS,exp,32,↑,up,↑,0.8603038999717683,True,25,1,0,8
Y2-S2-191K20,3,281,AS,exp,45,←,left,←,0.8411069000139832,True,25,1,0,8
Y2-S2-191K20,3,282,AS,exp,29,→,right,→,1.1484009999549016,True,24,1,0,8
Y2-S2-191K20,3,283,AS,exp,37,↑,down,↓,0.6356896000215784,False,24,-1,1,9
Y2-S2-191K20,3,284,AS,exp,37,→,up,↑,0.5334093000274152,False,25,-1,0,9
Y2-S2-191K20,3,285,AS,exp,35,↓,right,→,1.0433402000926435,False,26,-1,0,9
Y2-S2-191K20,3,286,AS,exp,50,←,left,←,0.7006517999107018,True,27,-1,0,9
Y2-S2-191K20,3,287,AS,exp,25,↓,down,↓,0.5839835999067873,True,27,-1,0,9
Y2-S2-191K20,3,288,AS,exp,38,←,left,←,0.6227956000948325,True,27,1,1,10
Y2-S2-191K20,3,289,AS,exp,35,↑,up,↑,0.4669392000650987,True,26,1,0,10
Y2-S2-191K20,3,290,AS,exp,38,←,left,←,0.5674764000577852,True,26,1,0,10
Y2-S2-191K20,3,291,AS,exp,48,→,right,→,1.0190866000484675,True,26,1,0,10
Y2-S2-191K20,3,292,AS,exp,35,↓,right,→,0.8793144000228494,False,25,-1,1,11
Y2-S2-191K20,3,293,AS,exp,26,→,up,↑,0.3841937000397593,False,26,-1,0,11
Y2-S2-191K20,3,294,AS,exp,39,↓,down,↓,1.6105096000246704,True,27,-1,0,11
Y2-S2-191K20,3,295,AS,exp,33,↑,up,↑,1.2972277000080794,True,27,-1,0,11
Y2-S2-191K20,3,296,AS,exp,29,←,down,↓,1.72631719999481,False,27,-1,0,11
Y2-S2-191K20,3,297,AS,exp,33,↑,up,↑,1.4711036999942735,True,28,-1,0,11
Y2-S2-191K20,3,298,AS,exp,26,↓,down,↓,0.567580199916847,True,28,-1,0,11
Y2-S2-191K20,3,299,AS,exp,46,→,right,→,0.9370769000379369,True,28,1,1,12
Y2-S2-191K20,3,300,AS,exp,31,↑,right,→,1.3436975999502465,False,27,-1,1,13
Y2-S2-191K20,3,301,AS,exp,45,←,left,←,1.339120200020261,True,28,-1,0,13
Y2-S2-191K20,3,302,AS,exp,27,↓,down,↓,1.008039699983783,True,28,-1,0,13
Y2-S2-191K20,3,303,AS,exp,25,↑,up,↑,0.7385320001048967,True,28,1,1,14
Y2-S2-191K20,3,304,AS,exp,34,→,right,→,0.8030115000437945,True,27,1,0,14
Y2-S2-191K20,3,305,AS,exp,31,↑,right,→,0.793456600047648,False,27,-1,1,15
Y2-S2-191K20,3,306,AS,exp,31,←,left,←,0.5508629999822006,True,28,-1,0,15
Y2-S2-191K20,3,307,AS,exp,27,↓,down,↓,0.6003468000562862,True,28,-1,0,15
Y2-S2-191K20,3,308,AS,exp,45,↑,up,↑,0.9192896999884397,True,28,1,1,16
Y2-S2-191K20,4,309,PS,intra_train,28,→,right,→,0.5900076000252739,True,16,-,-,-
Y2-S2-191K20,4,310,PS,intra_train,43,↑,up,↑,0.4821619999129325,True,16,-,-,-
Y2-S2-191K20,4,311,PS,intra_train,27,←,left,←,0.715686900075525,True,16,-,-,-
Y2-S2-191K20,4,312,PS,intra_train,47,↓,down,↓,0.5877040000632405,True,16,-,-,-
Y2-S2-191K20,4,313,PS,intra_train,50,↑,up,↑,0.444536600029096,True,16,-,-,-
Y2-S2-191K20,4,314,PS,exp,43,→,right,→,0.548767099971883,True,11,0,0,0
Y2-S2-191K20,4,315,PS,exp,29,↑,up,↑,0.40634829993359745,True,11,0,0,0
Y2-S2-191K20,4,316,PS,exp,29,→,right,→,0.3959071000572294,True,11,1,0,0
Y2-S2-191K20,4,317,PS,exp,46,↑,up,↑,0.6419550999999046,True,10,1,0,0
Y2-S2-191K20,4,318,PS,exp,48,←,left,←,0.4782413999782875,True,10,1,0,0
Y2-S2-191K20,4,319,PS,exp,28,↓,down,↓,0.5190647999988869,True,10,1,0,0
Y2-S2-191K20,4,320,PS,exp,49,←,down,↓,0.6293561999918893,False,9,-1,1,1
Y2-S2-191K20,4,321,PS,exp,48,↓,left,←,0.5847297000000253,False,10,-1,0,1
Y2-S2-191K20,4,322,PS,exp,35,→,up,↑,0.3805762999691069,False,11,-1,0,1
Y2-S2-191K20,4,323,PS,exp,38,↑,right,→,0.316821499960497,False,12,-1,0,1
Y2-S2-191K20,4,324,PS,exp,45,↓,down,↓,0.5015686000697315,True,13,-1,0,1
Y2-S2-191K20,4,325,PS,exp,39,→,down,↓,0.8634293000213802,False,13,-1,0,1
Y2-S2-191K20,4,326,PS,exp,33,↑,up,↑,1.4243167999666184,True,14,-1,0,1
Y2-S2-191K20,4,327,PS,exp,43,↓,down,↓,0.7937559999991208,True,14,-1,0,1
Y2-S2-191K20,4,328,PS,exp,33,→,right,→,0.544417200027965,True,14,1,1,2
Y2-S2-191K20,4,329,PS,exp,42,↑,right,→,0.6072196000022814,False,13,-1,1,3
Y2-S2-191K20,4,330,PS,exp,36,→,right,→,0.6400571999838576,True,14,-1,0,3
Y2-S2-191K20,4,331,PS,exp,34,←,right,→,0.536029199953191,False,14,-1,0,3
Y2-S2-191K20,4,332,PS,exp,33,↓,up,↑,0.7547990999883041,False,15,-1,0,3
Y2-S2-191K20,4,333,PS,exp,40,→,right,→,0.6618607999989763,True,16,-1,0,3
Y2-S2-191K20,4,334,PS,exp,32,←,left,←,0.4492521999636665,True,16,-1,0,3
Y2-S2-191K20,4,335,PS,exp,38,↓,down,↓,0.624880800023675,True,16,1,1,4
Y2-S2-191K20,4,336,PS,exp,46,←,left,←,0.33403370005544275,True,15,1,0,4
Y2-S2-191K20,4,337,PS,exp,26,↓,down,↓,1.6498644000384957,True,15,1,0,4
Y2-S2-191K20,4,338,PS,exp,43,↑,up,↑,0.4438784000230953,True,15,1,0,4
Y2-S2-191K20,4,339,PS,exp,25,↓,down,↓,0.8113176999613643,True,14,1,0,4
Y2-S2-191K20,4,340,PS,exp,41,→,down,↓,0.7950622999342158,False,14,-1,1,5
Y2-S2-191K20,4,341,PS,exp,44,↑,down,↓,0.4302184000844136,False,15,-1,0,5
Y2-S2-191K20,4,342,PS,exp,27,→,no_key,no_letter,-1.0,False,16,-1,0,5
Y2-S2-191K20,4,343,PS,exp,33,↑,up,↑,0.579831900075078,True,17,-1,0,5
Y2-S2-191K20,4,344,PS,exp,42,→,right,→,0.7888075999217108,True,17,-1,0,5
Y2-S2-191K20,4,345,PS,exp,34,↑,up,↑,0.5117397999856621,True,17,1,1,6
Y2-S2-191K20,4,346,PS,exp,37,↓,down,↓,0.5114523000083864,True,16,1,0,6
Y2-S2-191K20,4,347,PS,exp,31,→,right,→,0.7970694999676198,True,16,1,0,6
Y2-S2-191K20,4,348,PS,exp,30,←,left,←,0.5327010999899358,True,16,1,0,6
Y2-S2-191K20,4,349,PS,exp,30,↑,right,→,0.4369460999732837,False,15,-1,1,7
Y2-S2-191K20,4,350,PS,exp,29,←,left,←,0.5552937999600545,True,16,-1,0,7
Y2-S2-191K20,4,351,PS,exp,29,↑,up,↑,0.6393154000397772,True,16,-1,0,7
Y2-S2-191K20,4,352,PS,exp,30,←,left,←,0.4533623999450356,True,16,1,1,8
Y2-S2-191K20,4,353,PS,exp,48,↓,down,↓,0.5478556000161916,True,15,1,0,8
Y2-S2-191K20,4,354,PS,exp,41,→,right,→,0.5817990999203175,True,15,1,0,8
Y2-S2-191K20,4,355,PS,exp,47,↓,down,↓,0.7843556000152603,True,15,1,0,8
Y2-S2-191K20,4,356,PS,exp,33,↑,up,↑,0.47089420002885163,True,14,1,0,8
Y2-S2-191K20,4,357,PS,exp,32,↓,down,↓,0.4111776000354439,True,14,1,0,8
Y2-S2-191K20,4,358,PS,exp,28,↑,up,↑,0.5214332001050934,True,14,1,0,8
Y2-S2-191K20,4,359,PS,exp,33,→,down,↓,0.47324740001931787,False,13,-1,1,9
Y2-S2-191K20,4,360,PS,exp,30,←,left,←,0.7047484000213444,True,14,-1,0,9
Y2-S2-191K20,4,361,PS,exp,47,↑,up,↑,0.6938397000776604,True,14,-1,0,9
Y2-S2-191K20,4,362,PS,exp,39,→,right,→,0.5379952000221238,True,14,1,1,10
Y2-S2-191K20,4,363,PS,exp,42,↓,down,↓,0.5594020000426099,True,13,1,0,10
Y2-S2-191K20,4,364,PS,exp,34,←,left,←,0.5613081000046805,True,13,1,0,10
Y2-S2-191K20,4,365,PS,exp,49,↓,down,↓,0.6432689999928698,True,13,1,0,10
Y2-S2-191K20,4,366,PS,exp,49,←,left,←,0.9161349000642076,True,12,1,0,10
Y2-S2-191K20,4,367,PS,exp,43,↑,up,↑,0.5274838999612257,True,12,1,0,10
Y2-S2-191K20,4,368,PS,exp,47,←,down,↓,1.058840800076723,False,12,-1,1,11
Y2-S2-191K20,4,369,PS,exp,33,→,right,→,0.7159199999878183,True,13,-1,0,11
Y2-S2-191K20,4,370,PS,exp,26,←,right,→,0.782240999978967,False,13,-1,0,11
Y2-S2-191K20,4,371,PS,exp,34,↑,up,↑,0.54081480007153,True,14,-1,0,11
Y2-S2-191K20,4,372,PS,exp,41,←,left,←,0.6615738999098539,True,14,-1,0,11
Y2-S2-191K20,4,373,PS,exp,47,→,right,→,0.49975780001841486,True,14,1,1,12
Y2-S2-191K20,4,374,PS,exp,43,↑,up,↑,0.5238179999869317,True,13,1,0,12
Y2-S2-191K20,4,375,PS,exp,43,→,right,→,0.46538349997717887,True,13,1,0,12
Y2-S2-191K20,4,376,PS,exp,36,↑,up,↑,0.5751224000705406,True,13,1,0,12
Y2-S2-191K20,4,377,PS,exp,37,←,left,←,0.6146148999687284,True,12,1,0,12
Y2-S2-191K20,4,378,PS,exp,49,↑,up,↑,0.5832493000198156,True,12,1,0,12
Y2-S2-191K20,4,379,PS,exp,40,←,right,→,0.448651299928315,False,12,-1,1,13
Y2-S2-191K20,4,380,PS,exp,26,↓,down,↓,0.7376327000092715,True,13,-1,0,13
Y2-S2-191K20,4,381,PS,exp,40,←,left,←,0.40521540003828704,True,13,-1,0,13
Y2-S2-191K20,4,382,PS,exp,26,↑,up,↑,0.5617803999921307,True,13,1,1,14
Y2-S2-191K20,4,383,PS,exp,26,→,right,→,0.7305836000014096,True,12,1,0,14
Y2-S2-191K20,4,384,PS,exp,31,↓,up,↑,0.5612330000149086,False,12,-1,1,15
Y2-S2-191K20,4,385,PS,exp,44,↑,left,←,0.06799289991613477,False,13,-1,0,15
Y2-S2-191K20,4,386,PS,exp,44,←,up,↑,0.33346659992821515,False,14,-1,0,15
Y2-S2-191K20,4,387,PS,exp,27,↑,left,←,0.6446451999945566,False,15,-1,0,15
Y2-S2-191K20,4,388,PS,exp,32,↓,up,↑,0.4000330000417307,False,16,-1,0,15
Y2-S2-191K20,4,389,PS,exp,40,↑,down,↓,0.49391690001357347,False,17,-1,0,15
Y2-S2-191K20,4,390,PS,exp,39,↓,down,↓,0.6572691999608651,True,18,-1,0,15
Y2-S2-191K20,4,391,PS,exp,44,↑,up,↑,0.5300753000192344,True,18,-1,0,15
Y2-S2-191K20,4,392,PS,exp,32,→,right,→,0.5493534000124782,True,18,1,1,16
Y2-S2-191K20,5,393,PS,intra_train,41,↑,up,↑,0.5631144000217319,True,16,-,-,-
Y2-S2-191K20,5,394,PS,intra_train,43,↓,down,↓,1.079539499944076,True,16,-,-,-
Y2-S2-191K20,5,395,PS,intra_train,28,→,right,→,0.6264104000292718,True,16,-,-,-
Y2-S2-191K20,5,396,PS,intra_train,36,↓,down,↓,0.6912598999915645,True,16,-,-,-
Y2-S2-191K20,5,397,PS,intra_train,40,↑,up,↑,0.4908250999869779,True,16,-,-,-
Y2-S2-191K20,5,398,PS,exp,30,↓,down,↓,0.5760265999706462,True,11,0,0,0
Y2-S2-191K20,5,399,PS,exp,25,←,left,←,0.7360738000134006,True,11,0,0,0
Y2-S2-191K20,5,400,PS,exp,25,↓,down,↓,0.6121410001069307,True,11,1,0,0
Y2-S2-191K20,5,401,PS,exp,46,↑,up,↑,0.6767071000067517,True,10,1,0,0
Y2-S2-191K20,5,402,PS,exp,41,→,right,→,0.723199600004591,True,10,1,0,0
Y2-S2-191K20,5,403,PS,exp,35,↑,up,↑,0.6083583999425173,True,10,1,0,0
Y2-S2-191K20,5,404,PS,exp,50,↓,down,↓,0.6006116999778897,True,9,1,0,0
Y2-S2-191K20,5,405,PS,exp,36,↑,up,↑,0.4946042998926714,True,9,1,0,0
Y2-S2-191K20,5,406,PS,exp,45,↓,up,↑,0.4918939000926912,False,9,-1,1,1
Y2-S2-191K20,5,407,PS,exp,25,←,right,→,0.4986433000303805,False,10,-1,0,1
Y2-S2-191K20,5,408,PS,exp,42,↓,left,←,1.208184999995865,False,11,-1,0,1
Y2-S2-191K20,5,409,PS,exp,35,↑,down,↓,0.4473810000345111,False,12,-1,0,1
Y2-S2-191K20,5,410,PS,exp,38,↓,right,→,0.9582811000291258,False,13,-1,0,1
Y2-S2-191K20,5,411,PS,exp,39,→,up,↑,0.3166785999201238,False,14,-1,0,1
Y2-S2-191K20,5,412,PS,exp,38,←,up,↑,0.6885762000456452,False,15,-1,0,1
Y2-S2-191K20,5,413,PS,exp,27,→,down,↓,0.9813060999149457,False,16,-1,0,1
Y2-S2-191K20,5,414,PS,exp,39,↑,left,←,0.36724060005508363,False,17,-1,0,1
Y2-S2-191K20,5,415,PS,exp,50,↓,up,↑,0.3018556000897661,False,18,-1,0,1
Y2-S2-191K20,5,416,PS,exp,26,↑,up,↑,0.6092888000421226,True,19,-1,0,1
Y2-S2-191K20,5,417,PS,exp,38,←,left,←,0.6062943000579253,True,19,-1,0,1
Y2-S2-191K20,5,418,PS,exp,44,↑,up,↑,0.879537400091067,True,19,1,1,2
Y2-S2-191K20,5,419,PS,exp,45,→,right,→,0.5707222000928596,True,18,1,0,2
Y2-S2-191K20,5,420,PS,exp,46,↑,up,↑,0.5317447000415996,True,18,1,0,2
Y2-S2-191K20,5,421,PS,exp,27,→,right,→,1.0324259999906644,True,18,1,0,2
Y2-S2-191K20,5,422,PS,exp,25,↑,up,↑,0.7161454999586567,True,17,1,0,2
Y2-S2-191K20,5,423,PS,exp,41,→,right,→,0.7913748999126256,True,17,1,0,2
Y2-S2-191K20,5,424,PS,exp,43,↑,up,↑,0.6439236999722198,True,17,1,0,2
Y2-S2-191K20,5,425,PS,exp,43,↓,down,↓,0.8621056000702083,True,16,1,0,2
Y2-S2-191K20,5,426,PS,exp,45,→,right,→,0.45741969998925924,True,16,1,0,2
Y2-S2-191K20,5,427,PS,exp,34,↑,up,↑,0.5886070999549702,True,16,1,0,2
Y2-S2-191K20,5,428,PS,exp,44,←,left,←,0.5062904000515118,True,15,1,0,2
Y2-S2-191K20,5,429,PS,exp,26,↓,down,↓,0.523205199977383,True,15,1,0,2
Y2-S2-191K20,5,430,PS,exp,38,↑,up,↑,1.529610799974762,True,15,1,0,2
Y2-S2-191K20,5,431,PS,exp,34,→,right,→,0.5024484000168741,True,14,1,0,2
Y2-S2-191K20,5,432,PS,exp,36,↓,down,↓,0.7301699999952689,True,14,1,0,2
Y2-S2-191K20,5,433,PS,exp,43,→,right,→,0.6247730000177398,True,14,1,0,2
Y2-S2-191K20,5,434,PS,exp,38,↑,up,↑,0.4745657000457868,True,13,1,0,2
Y2-S2-191K20,5,435,PS,exp,36,←,right,→,0.4021202999865636,False,13,-1,1,3
Y2-S2-191K20,5,436,PS,exp,43,→,right,→,0.5017730999970809,True,14,-1,0,3
Y2-S2-191K20,5,437,PS,exp,39,←,left,←,0.5579873999813572,True,14,-1,0,3
Y2-S2-191K20,5,438,PS,exp,38,→,right,→,0.627879900042899,True,14,1,1,4
Y2-S2-191K20,5,439,PS,exp,46,↑,up,↑,0.584337400039658,True,13,1,0,4
Y2-S2-191K20,5,440,PS,exp,26,→,up,↑,0.9245908000739291,False,13,-1,1,5
Y2-S2-191K20,5,441,PS,exp,25,←,left,←,0.5305837999330834,True,14,-1,0,5
Y2-S2-191K20,5,442,PS,exp,43,→,right,→,0.8600711000617594,True,14,-1,0,5
Y2-S2-191K20,5,443,PS,exp,45,←,left,←,0.8125852000666782,True,14,1,1,6
Y2-S2-191K20,5,444,PS,exp,37,→,left,←,1.2968174999114126,False,13,-1,1,7
Y2-S2-191K20,5,445,PS,exp,40,↑,up,↑,0.5205368000315502,True,14,-1,0,7
Y2-S2-191K20,5,446,PS,exp,32,←,right,→,1.2312105000019073,False,14,-1,0,7
Y2-S2-191K20,5,447,PS,exp,48,→,right,→,0.42766210006084293,True,15,-1,0,7
Y2-S2-191K20,5,448,PS,exp,46,↓,down,↓,0.5022276999661699,True,15,-1,0,7
Y2-S2-191K20,5,449,PS,exp,40,↑,up,↑,1.0963823999045417,True,15,1,1,8
Y2-S2-191K20,5,450,PS,exp,32,←,left,←,1.558578300056979,True,14,1,0,8
Y2-S2-191K20,5,451,PS,exp,37,↑,up,↑,0.5265129000181332,True,14,1,0,8
Y2-S2-191K20,5,452,PS,exp,33,←,left,←,0.5336130000650883,True,14,1,0,8
Y2-S2-191K20,5,453,PS,exp,41,↓,up,↑,0.6324854999547824,False,13,-1,1,9
Y2-S2-191K20,5,454,PS,exp,44,↑,up,↑,0.9938833999913186,True,14,-1,0,9
Y2-S2-191K20,5,455,PS,exp,39,→,right,→,0.847090799943544,True,14,-1,0,9
Y2-S2-191K20,5,456,PS,exp,49,↑,up,↑,0.5299697000300512,True,14,1,1,10
Y2-S2-191K20,5,457,PS,exp,42,←,left,←,0.4573884999845177,True,13,1,0,10
Y2-S2-191K20,5,458,PS,exp,43,↑,up,↑,0.46489189995918423,True,13,1,0,10
Y2-S2-191K20,5,459,PS,exp,41,→,right,→,0.4833595999516547,True,13,1,0,10
Y2-S2-191K20,5,460,PS,exp,43,←,right,→,0.6320296000922099,False,12,-1,1,11
Y2-S2-191K20,5,461,PS,exp,30,↓,down,↓,0.8296469000633806,True,13,-1,0,11
Y2-S2-191K20,5,462,PS,exp,48,↑,up,↑,0.4277994999429211,True,13,-1,0,11
Y2-S2-191K20,5,463,PS,exp,26,←,left,←,0.4595636000158265,True,13,1,1,12
Y2-S2-191K20,5,464,PS,exp,44,→,right,→,1.136339099961333,True,12,1,0,12
Y2-S2-191K20,5,465,PS,exp,47,↑,up,↑,0.46195829997304827,True,12,1,0,12
Y2-S2-191K20,5,466,PS,exp,44,↓,up,↑,0.5245367999887094,False,12,-1,1,13
Y2-S2-191K20,5,467,PS,exp,30,↑,down,↓,0.6265584999928251,False,13,-1,0,13
Y2-S2-191K20,5,468,PS,exp,33,↓,down,↓,0.7310360000701621,True,14,-1,0,13
Y2-S2-191K20,5,469,PS,exp,30,→,right,→,0.5538036999059841,True,14,-1,0,13
Y2-S2-191K20,5,470,PS,exp,35,↑,right,→,0.6167348000453785,False,14,-1,0,13
Y2-S2-191K20,5,471,PS,exp,31,↓,down,↓,1.1414304999634624,True,15,-1,0,13
Y2-S2-191K20,5,472,PS,exp,50,↑,down,↓,1.1566184000112116,False,15,-1,0,13
Y2-S2-191K20,5,473,PS,exp,38,↓,right,→,0.5339756000321358,False,16,-1,0,13
Y2-S2-191K20,5,474,PS,exp,42,↑,down,↓,1.0094187000067905,False,17,-1,0,13
Y2-S2-191K20,5,475,PS,exp,31,→,down,↓,0.3512025000527501,False,18,-1,0,13
Y2-S2-191K20,5,476,PS,exp,39,←,left,←,0.49384979996830225,True,19,-1,0,13
Y2-S2-191K20,5,477,PS,exp,41,→,right,→,0.3683579999487847,True,19,-1,0,13
Y2-S2-191K20,5,478,PS,exp,40,←,left,←,0.7665850999765098,True,19,1,1,14
Y2-S2-191K20,5,479,PS,exp,30,↑,up,↑,0.6305523000191897,True,18,1,0,14
Y2-S2-191K20,5,480,PS,exp,45,→,right,→,0.5245104000205174,True,18,1,0,14
Y2-S2-191K20,5,481,PS,exp,38,↓,down,↓,0.7374950000084937,True,18,1,0,14
Y2-S2-191K20,5,482,PS,exp,47,↑,up,↑,0.540034499950707,True,17,1,0,14
Y2-S2-191K20,5,483,PS,exp,46,↓,down,↓,0.7121092000743374,True,17,1,0,14
Y2-S2-191K20,5,484,PS,exp,32,→,right,→,0.4927519999910146,True,17,1,0,14
Y2-S2-191K20,5,485,PS,exp,41,↑,up,↑,0.4840587000362575,True,16,1,0,14
Y2-S2-191K20,5,486,PS,exp,27,←,left,←,0.49329040001612157,True,16,1,0,14
Y2-S2-191K20,5,487,PS,exp,26,↑,up,↑,0.5042741999495775,True,16,1,0,14
Y2-S2-191K20,5,488,PS,exp,50,→,right,→,0.5812378000700846,True,15,1,0,14
Y2-S2-191K20,5,489,PS,exp,29,←,left,←,0.5737097000237554,True,15,1,0,14
Y2-S2-191K20,5,490,PS,exp,38,↑,up,↑,0.4478659000014886,True,15,1,0,14
Y2-S2-191K20,5,491,PS,exp,37,←,left,←,0.5099877000320703,True,14,1,0,14
Y2-S2-191K20,5,492,PS,exp,43,↓,right,→,0.13521619990933686,False,14,-1,1,15
Y2-S2-191K20,5,493,PS,exp,38,→,down,↓,0.11710419994778931,False,15,-1,0,15
Y2-S2-191K20,5,494,PS,exp,49,←,left,←,0.6404994000913575,True,16,-1,0,15
Y2-S2-191K20,5,495,PS,exp,34,↓,up,↑,1.428754199994728,False,16,-1,0,15
Y2-S2-191K20,5,496,PS,exp,50,←,left,←,1.151473700068891,True,17,-1,0,15
Y2-S2-191K20,5,497,PS,exp,30,→,right,→,0.35084079997614026,True,17,-1,0,15
Y2-S2-191K20,5,498,PS,exp,41,←,left,←,0.7883932000258937,True,17,1,1,16
Y2-S2-191K20,6,499,AS,intra_train,42,↑,right,→,0.35130119998939335,False,34,-,-,-
Y2-S2-191K20,6,500,AS,intra_train,50,↓,left,←,0.28426220000255853,False,34,-,-,-
Y2-S2-191K20,6,501,AS,intra_train,25,→,right,→,0.2513108999701217,True,34,-,-,-
Y2-S2-191K20,6,502,AS,intra_train,49,↓,right,→,0.2344392000231892,False,34,-,-,-
Y2-S2-191K20,6,503,AS,intra_train,40,→,left,←,0.23438139993231744,False,34,-,-,-
Y2-S2-191K20,6,504,AS,exp,26,↑,up,↑,0.7049391999607906,True,23,0,0,0
Y2-S2-191K20,6,505,AS,exp,50,↓,up,↑,1.0612128999782726,False,23,-1,0,0
Y2-S2-191K20,6,506,AS,exp,29,←,down,↓,0.15082260000053793,False,24,-1,0,0
Y2-S2-191K20,6,507,AS,exp,26,→,right,→,0.7628800000529736,True,25,-1,0,0
Y2-S2-191K20,6,508,AS,exp,32,←,left,←,0.5339391999877989,True,25,-1,0,0
Y2-S2-191K20,6,509,AS,exp,46,↓,down,↓,0.5510969000170007,True,25,1,1,1
Y2-S2-191K20,6,510,AS,exp,28,↑,no_key,no_letter,-1.0,False,24,-1,1,2
Y2-S2-191K20,6,511,AS,exp,46,↓,left,←,0.3847869000164792,False,25,-1,0,2
Y2-S2-191K20,6,512,AS,exp,47,→,down,↓,0.1515317999292165,False,26,-1,0,2
Y2-S2-191K20,6,513,AS,exp,48,←,left,←,0.28445190005004406,True,27,-1,0,2
Y2-S2-191K20,6,514,AS,exp,26,→,no_key,no_letter,-1.0,False,27,-1,0,2
Y2-S2-191K20,6,515,AS,exp,50,↓,up,↑,0.2846107000950724,False,28,-1,0,2
Y2-S2-191K20,6,516,AS,exp,40,←,up,↑,0.5509524999652058,False,29,-1,0,2
Y2-S2-191K20,6,517,AS,exp,48,→,right,→,0.3330716999480501,True,30,-1,0,2
Y2-S2-191K20,6,518,AS,exp,43,↓,down,↓,0.7794455999974161,True,30,-1,0,2
Y2-S2-191K20,6,519,AS,exp,32,←,up,↑,0.6819093000376597,False,30,-1,0,2
Y2-S2-191K20,6,520,AS,exp,44,↓,down,↓,0.8514385999878868,True,31,-1,0,2
Y2-S2-191K20,6,521,AS,exp,41,→,right,→,0.450825999956578,True,31,-1,0,2
Y2-S2-191K20,6,522,AS,exp,39,↑,up,↑,1.017992699984461,True,31,1,1,3
Y2-S2-191K20,6,523,AS,exp,45,↓,no_key,no_letter,-1.0,False,30,-1,1,4
Y2-S2-191K20,6,524,AS,exp,35,↑,up,↑,0.5679019000381231,True,31,-1,0,4
Y2-S2-191K20,6,525,AS,exp,49,↓,right,→,0.5681008000392467,False,31,-1,0,4
Y2-S2-191K20,6,526,AS,exp,33,→,down,↓,0.5668270000023767,False,32,-1,0,4
Y2-S2-191K20,6,527,AS,exp,37,↓,down,↓,1.061775999958627,True,33,-1,0,4
Y2-S2-191K20,6,528,AS,exp,49,←,left,←,0.8053668000502512,True,33,-1,0,4
Y2-S2-191K20,6,529,AS,exp,29,↑,up,↑,1.6995350000215694,True,33,1,1,5
Y2-S2-191K20,6,530,AS,exp,45,←,left,←,0.876661500078626,True,32,1,0,5
Y2-S2-191K20,6,531,AS,exp,37,→,right,→,0.5175639999797568,True,32,1,0,5
Y2-S2-191K20,6,532,AS,exp,40,↑,up,↑,0.5338936999905854,True,32,1,0,5
Y2-S2-191K20,6,533,AS,exp,25,←,left,←,0.650930600007996,True,31,1,0,5
Y2-S2-191K20,6,534,AS,exp,47,→,right,→,0.7551250000251457,True,31,1,0,5
Y2-S2-191K20,6,535,AS,exp,40,↑,up,↑,0.6904480999801308,True,31,1,0,5
Y2-S2-191K20,6,536,AS,exp,39,↓,down,↓,0.9648771999636665,True,30,1,0,5
Y2-S2-191K20,6,537,AS,exp,46,↑,up,↑,0.5503509000409395,True,30,1,0,5
Y2-S2-191K20,6,538,AS,exp,26,↓,down,↓,0.5173184999730438,True,30,1,0,5
Y2-S2-191K20,6,539,AS,exp,46,←,left,←,0.5508252000436187,True,29,1,0,5
Y2-S2-191K20,6,540,AS,exp,47,→,right,→,0.3515594999771565,True,29,1,0,5
Y2-S2-191K20,6,541,AS,exp,36,↓,down,↓,0.6992485000519082,True,29,1,0,5
Y2-S2-191K20,6,542,AS,exp,26,→,no_key,no_letter,-1.0,False,28,-1,1,6
Y2-S2-191K20,6,543,AS,exp,42,←,left,←,0.5344017000170425,True,29,-1,0,6
Y2-S2-191K20,6,544,AS,exp,33,→,right,→,0.7995931999757886,True,29,-1,0,6
Y2-S2-191K20,6,545,AS,exp,50,←,left,←,0.650391299976036,True,29,1,1,7
Y2-S2-191K20,6,546,AS,exp,49,→,right,→,0.6815154000651091,True,28,1,0,7
Y2-S2-191K20,6,547,AS,exp,27,↑,up,↑,0.4673461999045685,True,28,1,0,7
Y2-S2-191K20,6,548,AS,exp,31,→,left,←,0.6007668999955058,False,28,-1,1,8
Y2-S2-191K20,6,549,AS,exp,29,←,right,→,0.3515774999978021,False,29,-1,0,8
Y2-S2-191K20,6,550,AS,exp,39,→,no_key,no_letter,-1.0,False,30,-1,0,8
Y2-S2-191K20,6,551,AS,exp,44,←,left,←,0.53364490007516,True,31,-1,0,8
Y2-S2-191K20,6,552,AS,exp,26,↓,down,↓,1.167412200011313,True,31,-1,0,8
Y2-S2-191K20,6,553,AS,exp,42,↑,up,↑,0.5678508999990299,True,31,1,1,9
Y2-S2-191K20,6,554,AS,exp,27,←,left,←,0.4675209999550134,True,30,1,0,9
Y2-S2-191K20,6,555,AS,exp,28,→,right,→,0.7507196000078693,True,30,1,0,9
Y2-S2-191K20,6,556,AS,exp,48,←,left,←,0.5673410000745207,True,30,1,0,9
Y2-S2-191K20,6,557,AS,exp,33,→,right,→,0.7119125000899658,True,29,1,0,9
Y2-S2-191K20,6,558,AS,exp,44,↑,up,↑,0.46717610000632703,True,29,1,0,9
Y2-S2-191K20,6,559,AS,exp,25,↓,down,↓,0.46745319990441203,True,29,1,0,9
Y2-S2-191K20,6,560,AS,exp,27,↑,right,→,0.6527673000236973,False,28,-1,1,10
Y2-S2-191K20,6,561,AS,exp,25,↓,up,↑,0.23369410005398095,False,29,-1,0,10
Y2-S2-191K20,6,562,AS,exp,39,→,left,←,0.11843579995911568,False,30,-1,0,10
Y2-S2-191K20,6,563,AS,exp,25,←,right,→,0.184919000021182,False,31,-1,0,10
Y2-S2-191K20,6,564,AS,exp,46,↓,down,↓,0.0683344000717625,True,32,-1,0,10
Y2-S2-191K20,6,565,AS,exp,41,↑,left,←,1.3142165000317618,False,32,-1,0,10
Y2-S2-191K20,6,566,AS,exp,39,↓,left,←,0.3505204999819398,False,33,-1,0,10
Y2-S2-191K20,6,567,AS,exp,49,↑,down,↓,1.4896012000972405,False,34,-1,0,10
Y2-S2-191K20,6,568,AS,exp,25,↓,down,↓,0.4347348000155762,True,35,-1,0,10
Y2-S2-191K20,6,569,AS,exp,46,←,right,→,0.4841199000366032,False,35,-1,0,10
Y2-S2-191K20,6,570,AS,exp,33,↓,down,↓,0.8935613000066951,True,36,-1,0,10
Y2-S2-191K20,6,571,AS,exp,27,↑,up,↑,0.7758380000013858,True,36,-1,0,10
Y2-S2-191K20,6,572,AS,exp,41,←,right,→,0.5511426999000832,False,36,-1,0,10
Y2-S2-191K20,6,573,AS,exp,25,↓,left,←,1.7101541999727488,False,37,-1,0,10
Y2-S2-191K20,6,574,AS,exp,29,→,right,→,0.8835628998931497,True,38,-1,0,10
Y2-S2-191K20,6,575,AS,exp,27,←,left,←,0.6171464999206364,True,38,-1,0,10
Y2-S2-191K20,6,576,AS,exp,40,↑,up,↑,0.7511897999793291,True,38,1,1,11
Y2-S2-191K20,6,577,AS,exp,25,←,left,←,0.7340255999006331,True,37,1,0,11
Y2-S2-191K20,6,578,AS,exp,47,↑,up,↑,0.8772341000149027,True,37,1,0,11
Y2-S2-191K20,6,579,AS,exp,48,↓,down,↓,0.8476572999497876,True,37,1,0,11
Y2-S2-191K20,6,580,AS,exp,50,←,left,←,0.5341917999321595,True,36,1,0,11
Y2-S2-191K20,6,581,AS,exp,30,↑,up,↑,0.7175032999366522,True,36,1,0,11
Y2-S2-191K20,6,582,AS,exp,25,→,up,↑,0.6839809999801219,False,36,-1,1,12
Y2-S2-191K20,6,583,AS,exp,28,←,left,←,0.5843064000364393,True,37,-1,0,12
Y2-S2-191K20,6,584,AS,exp,47,↑,up,↑,0.9194056000560522,True,37,-1,0,12
Y2-S2-191K20,6,585,AS,exp,46,↓,down,↓,0.5847350999247283,True,37,1,1,13
Y2-S2-191K20,6,586,AS,exp,34,↑,right,→,0.5838399999774992,False,36,-1,1,14
Y2-S2-191K20,6,587,AS,exp,27,→,right,→,0.5176485000411049,True,37,-1,0,14
Y2-S2-191K20,6,588,AS,exp,45,↓,down,↓,1.6394740999676287,True,37,-1,0,14
Y2-S2-191K20,6,589,AS,exp,35,←,left,←,0.6670415999833494,True,37,1,1,15
Y2-S2-191K20,6,590,AS,exp,50,↓,down,↓,0.9412149999989197,True,36,1,0,15
Y2-S2-191K20,6,591,AS,exp,39,↑,up,↑,0.6667796999681741,True,36,1,0,15
Y2-S2-191K20,6,592,AS,exp,38,←,left,←,0.534290699986741,True,36,1,0,15
Y2-S2-191K20,6,593,AS,exp,47,↓,up,↑,0.716999200056307,False,35,-1,1,16
Y2-S2-191K20,7,594,AS,intra_train,45,→,right,→,0.7796714999713004,True,34,-,-,-
Y2-S2-191K20,7,595,AS,intra_train,26,↓,down,↓,0.7624225000618026,True,34,-,-,-
Y2-S2-191K20,7,596,AS,intra_train,42,→,right,→,0.8099276999710128,True,34,-,-,-
Y2-S2-191K20,7,597,AS,intra_train,47,↑,up,↑,0.9408124000765383,True,34,-,-,-
Y2-S2-191K20,7,598,AS,intra_train,48,←,left,←,0.8693974000634626,True,34,-,-,-
Y2-S2-191K20,7,599,AS,exp,35,→,right,→,0.500587199931033,True,23,0,0,0
Y2-S2-191K20,7,600,AS,exp,42,↓,down,↓,0.4836259000003338,True,23,0,0,0
Y2-S2-191K20,7,601,AS,exp,49,←,up,↑,1.2276508000213653,False,23,-1,0,0
Y2-S2-191K20,7,602,AS,exp,50,→,up,↑,0.28391120000742376,False,24,-1,0,0
Y2-S2-191K20,7,603,AS,exp,48,↓,down,↓,0.15098910010419786,True,25,-1,0,0
Y2-S2-191K20,7,604,AS,exp,46,↑,up,↑,0.6440845000324771,True,25,-1,0,0
Y2-S2-191K20,7,605,AS,exp,37,←,up,↑,1.9163233999861404,False,25,-1,0,0
Y2-S2-191K20,7,606,AS,exp,48,→,right,→,0.6048074000282213,True,26,-1,0,0
Y2-S2-191K20,7,607,AS,exp,28,↑,up,↑,0.5675789000233635,True,26,-1,0,0
Y2-S2-191K20,7,608,AS,exp,47,←,left,←,0.5005231000250205,True,26,1,1,1
Y2-S2-191K20,7,609,AS,exp,45,↓,down,↓,0.9758275999920443,True,25,1,0,1
Y2-S2-191K20,7,610,AS,exp,38,↑,up,↑,0.6861252000089735,True,25,1,0,1
Y2-S2-191K20,7,611,AS,exp,34,←,left,←,0.740108500001952,True,25,1,0,1
Y2-S2-191K20,7,612,AS,exp,42,↑,up,↑,0.4340181000297889,True,24,1,0,1
Y2-S2-191K20,7,613,AS,exp,28,→,up,↑,0.43489049992058426,False,24,-1,1,2
Y2-S2-191K20,7,614,AS,exp,49,↓,down,↓,0.5338382999179885,True,25,-1,0,2
Y2-S2-191K20,7,615,AS,exp,43,↑,right,→,0.6150215000379831,False,25,-1,0,2
Y2-S2-191K20,7,616,AS,exp,29,↓,down,↓,0.6512578000547364,True,26,-1,0,2
Y2-S2-191K20,7,617,AS,exp,43,→,right,→,0.9331551999785006,True,26,-1,0,2
Y2-S2-191K20,7,618,AS,exp,32,↓,down,↓,0.6249298999318853,True,26,1,1,3
Y2-S2-191K20,7,619,AS,exp,33,→,right,→,2.0123786999611184,True,25,1,0,3
Y2-S2-191K20,7,620,AS,exp,36,↓,down,↓,0.533555299974978,True,25,1,0,3
Y2-S2-191K20,7,621,AS,exp,38,←,left,←,0.6378797999350354,True,25,1,0,3
Y2-S2-191K20,7,622,AS,exp,37,↑,up,↑,0.7919941999716684,True,24,1,0,3
Y2-S2-191K20,7,623,AS,exp,35,↓,down,↓,1.0828793999971822,True,24,1,0,3
Y2-S2-191K20,7,624,AS,exp,50,↑,up,↑,1.1091206000419334,True,24,1,0,3
Y2-S2-191K20,7,625,AS,exp,31,↓,down,↓,0.5664038000395522,True,23,1,0,3
Y2-S2-191K20,7,626,AS,exp,38,→,right,→,0.6112614000448957,True,23,1,0,3
Y2-S2-191K20,7,627,AS,exp,36,↑,up,↑,1.6000364000210539,True,23,1,0,3
Y2-S2-191K20,7,628,AS,exp,34,→,left,←,0.5962222000816837,False,22,-1,1,4
Y2-S2-191K20,7,629,AS,exp,44,←,left,←,0.4842969999881461,True,23,-1,0,4
Y2-S2-191K20,7,630,AS,exp,25,↑,up,↑,1.2324550999328494,True,23,-1,0,4
Y2-S2-191K20,7,631,AS,exp,44,→,right,→,0.7287478999933228,True,23,1,1,5
Y2-S2-191K20,7,632,AS,exp,48,↓,down,↓,0.5374823999591172,True,22,1,0,5
Y2-S2-191K20,7,633,AS,exp,46,↑,up,↑,1.0771686000516638,True,22,1,0,5
Y2-S2-191K20,7,634,AS,exp,42,←,left,←,0.7934818000067025,True,22,1,0,5
Y2-S2-191K20,7,635,AS,exp,36,↓,down,↓,0.9777163999387994,True,21,1,0,5
Y2-S2-191K20,7,636,AS,exp,32,→,up,↑,0.7584086999995634,False,21,-1,1,6
Y2-S2-191K20,7,637,AS,exp,47,↓,down,↓,0.6642583999782801,True,22,-1,0,6
Y2-S2-191K20,7,638,AS,exp,43,←,left,←,0.4178533999947831,True,22,-1,0,6
Y2-S2-191K20,7,639,AS,exp,38,↑,up,↑,0.9083726999815553,True,22,1,1,7
Y2-S2-191K20,7,640,AS,exp,34,↓,down,↓,0.9701878998894244,True,21,1,0,7
Y2-S2-191K20,7,641,AS,exp,28,↑,up,↑,1.0527797000249848,True,21,1,0,7
Y2-S2-191K20,7,642,AS,exp,39,→,down,↓,0.33351050002966076,False,21,-1,1,8
Y2-S2-191K20,7,643,AS,exp,28,↑,right,→,1.0934857999673113,False,22,-1,0,8
Y2-S2-191K20,7,644,AS,exp,27,→,right,→,0.28380850004032254,True,23,-1,0,8
Y2-S2-191K20,7,645,AS,exp,28,←,left,←,0.38383409997913986,True,23,-1,0,8
Y2-S2-191K20,7,646,AS,exp,40,↑,up,↑,1.0978583000833169,True,23,1,1,9
Y2-S2-191K20,7,647,AS,exp,42,↓,down,↓,0.5000502000330016,True,22,1,0,9
Y2-S2-191K20,7,648,AS,exp,43,→,right,→,0.6204859000863507,True,22,1,0,9
Y2-S2-191K20,7,649,AS,exp,32,↓,up,↑,1.0439160000532866,False,22,-1,1,10
Y2-S2-191K20,7,650,AS,exp,38,↑,right,→,0.7827113999519497,False,23,-1,0,10
Y2-S2-191K20,7,651,AS,exp,27,→,right,→,0.9169317999621853,True,24,-1,0,10
Y2-S2-191K20,7,652,AS,exp,39,←,left,←,0.36745470005553216,True,24,-1,0,10
Y2-S2-191K20,7,653,AS,exp,44,↑,up,↑,0.8591703999554738,True,24,1,1,11
Y2-S2-191K20,7,654,AS,exp,36,→,down,↓,0.5709305999334902,False,23,-1,1,12
Y2-S2-191K20,7,655,AS,exp,27,↓,right,→,0.7096702998969704,False,24,-1,0,12
Y2-S2-191K20,7,656,AS,exp,37,→,left,←,0.3837628000183031,False,25,-1,0,12
Y2-S2-191K20,7,657,AS,exp,45,←,left,←,0.8383717000251636,True,26,-1,0,12
Y2-S2-191K20,7,658,AS,exp,42,↓,down,↓,1.041283099912107,True,26,-1,0,12
Y2-S2-191K20,7,659,AS,exp,25,←,left,←,1.7004410999361426,True,26,1,1,13
Y2-S2-191K20,7,660,AS,exp,26,→,left,←,0.6230773999122903,False,25,-1,1,14
Y2-S2-191K20,7,661,AS,exp,39,↓,down,↓,0.9924065999221057,True,26,-1,0,14
Y2-S2-191K20,7,662,AS,exp,32,←,left,←,0.7654077999759465,True,26,-1,0,14
Y2-S2-191K20,7,663,AS,exp,41,↓,down,↓,0.7338482999475673,True,26,1,1,15
Y2-S2-191K20,7,664,AS,exp,44,←,left,←,0.858346400083974,True,25,1,0,15
Y2-S2-191K20,7,665,AS,exp,31,↓,left,←,1.238295799936168,False,25,-1,1,16
Y2-S2-191K20,8,666,PS,intra_train,50,→,right,→,0.4935244999360293,True,16,-,-,-
Y2-S2-191K20,8,667,PS,intra_train,38,↓,down,↓,0.7051859000930563,True,16,-,-,-
Y2-S2-191K20,8,668,PS,intra_train,34,→,right,→,0.5301086000399664,True,16,-,-,-
Y2-S2-191K20,8,669,PS,intra_train,42,↑,up,↑,0.6653870999580249,True,16,-,-,-
Y2-S2-191K20,8,670,PS,intra_train,43,↓,down,↓,0.7423397999955341,True,16,-,-,-
Y2-S2-191K20,8,671,PS,exp,45,→,right,→,0.4730958000291139,True,11,0,0,0
Y2-S2-191K20,8,672,PS,exp,26,←,left,←,0.49673549993894994,True,11,0,0,0
Y2-S2-191K20,8,673,PS,exp,32,→,left,←,0.7738666000077501,False,11,-1,0,0
Y2-S2-191K20,8,674,PS,exp,44,↓,down,↓,0.5605146000161767,True,12,-1,0,0
Y2-S2-191K20,8,675,PS,exp,35,←,down,↓,0.8516003999393433,False,12,-1,0,0
Y2-S2-191K20,8,676,PS,exp,31,→,right,→,0.874712299904786,True,13,-1,0,0
Y2-S2-191K20,8,677,PS,exp,30,↓,down,↓,0.6110040999483317,True,13,-1,0,0
Y2-S2-191K20,8,678,PS,exp,41,→,left,←,0.6754294000566006,False,13,-1,0,0
Y2-S2-191K20,8,679,PS,exp,28,↓,up,↑,0.6689539999933913,False,14,-1,0,0
Y2-S2-191K20,8,680,PS,exp,41,→,right,→,0.47963549999985844,True,15,-1,0,0
Y2-S2-191K20,8,681,PS,exp,50,←,left,←,0.7571865000063553,True,15,-1,0,0
Y2-S2-191K20,8,682,PS,exp,50,→,right,→,0.8042093000840396,True,15,1,1,1
Y2-S2-191K20,8,683,PS,exp,31,↓,down,↓,0.8264845999656245,True,14,1,0,1
Y2-S2-191K20,8,684,PS,exp,28,←,left,←,0.45702490000985563,True,14,1,0,1
Y2-S2-191K20,8,685,PS,exp,47,→,right,→,0.6806204000022262,True,14,1,0,1
Y2-S2-191K20,8,686,PS,exp,43,↓,down,↓,0.48354120005387813,True,13,1,0,1
Y2-S2-191K20,8,687,PS,exp,38,←,left,←,0.5371994000161067,True,13,1,0,1
Y2-S2-191K20,8,688,PS,exp,39,↑,no_key,no_letter,-1.0,False,13,-1,1,2
Y2-S2-191K20,8,689,PS,exp,40,↓,left,←,0.6202190000331029,False,14,-1,0,2
Y2-S2-191K20,8,690,PS,exp,34,↑,left,←,1.3824504000367597,False,15,-1,0,2
Y2-S2-191K20,8,691,PS,exp,49,→,left,←,0.1511217999504879,False,16,-1,0,2
Y2-S2-191K20,8,692,PS,exp,29,↓,up,↑,0.349966200068593,False,17,-1,0,2
Y2-S2-191K20,8,693,PS,exp,50,→,up,↑,0.3837002000072971,False,18,-1,0,2
Y2-S2-191K20,8,694,PS,exp,50,←,right,→,0.33411950001027435,False,19,-1,0,2
Y2-S2-191K20,8,695,PS,exp,46,↑,right,→,0.18397170002572238,False,20,-1,0,2
Y2-S2-191K20,8,696,PS,exp,50,←,left,←,0.5922109999228269,True,21,-1,0,2
Y2-S2-191K20,8,697,PS,exp,31,↑,no_key,no_letter,-1.0,False,21,-1,0,2
Y2-S2-191K20,8,698,PS,exp,36,←,left,←,0.6359927000012249,True,22,-1,0,2
Y2-S2-191K20,8,699,PS,exp,43,↑,up,↑,0.6704643999692053,True,22,-1,0,2
Y2-S2-191K20,8,700,PS,exp,45,→,right,→,0.6733017000369728,True,22,1,1,3
Y2-S2-191K20,8,701,PS,exp,29,↓,down,↓,1.2127205999568105,True,21,1,0,3
Y2-S2-191K20,8,702,PS,exp,36,←,left,←,0.5499447000911459,True,21,1,0,3
Y2-S2-191K20,8,703,PS,exp,42,↑,up,↑,0.4829010999528691,True,21,1,0,3
Y2-S2-191K20,8,704,PS,exp,27,→,no_key,no_letter,-1.0,False,20,-1,1,4
Y2-S2-191K20,8,705,PS,exp,33,↓,down,↓,0.5796205000951886,True,21,-1,0,4
Y2-S2-191K20,8,706,PS,exp,35,↑,up,↑,0.48395570006687194,True,21,-1,0,4
Y2-S2-191K20,8,707,PS,exp,25,↓,down,↓,0.695476199965924,True,21,1,1,5
Y2-S2-191K20,8,708,PS,exp,36,→,down,↓,0.6552714999997988,False,20,-1,1,6
Y2-S2-191K20,8,709,PS,exp,43,↑,up,↑,0.6839183999691159,True,21,-1,0,6
Y2-S2-191K20,8,710,PS,exp,38,→,right,→,0.450601699994877,True,21,-1,0,6
Y2-S2-191K20,8,711,PS,exp,49,←,right,→,0.6700128999073058,False,21,-1,0,6
Y2-S2-191K20,8,712,PS,exp,39,↓,left,←,1.2601103000342846,False,22,-1,0,6
Y2-S2-191K20,8,713,PS,exp,47,↑,no_key,no_letter,-1.0,False,23,-1,0,6
Y2-S2-191K20,8,714,PS,exp,40,←,left,←,0.3174058999866247,True,24,-1,0,6
Y2-S2-191K20,8,715,PS,exp,25,↓,down,↓,1.006367199937813,True,24,-1,0,6
Y2-S2-191K20,8,716,PS,exp,43,→,right,→,0.5968797999667004,True,24,1,1,7
Y2-S2-191K20,8,717,PS,exp,40,←,up,↑,0.41673409997019917,False,23,-1,1,8
Y2-S2-191K20,8,718,PS,exp,49,→,right,→,0.5174209999386221,True,24,-1,0,8
Y2-S2-191K20,8,719,PS,exp,39,↑,up,↑,0.5005703999195248,True,24,-1,0,8
Y2-S2-191K20,8,720,PS,exp,41,→,right,→,0.5167296000290662,True,24,1,1,9
Y2-S2-191K20,8,721,PS,exp,37,←,left,←,0.5764407000970095,True,23,1,0,9
Y2-S2-191K20,8,722,PS,exp,44,↑,up,↑,0.5980486000189558,True,23,1,0,9
Y2-S2-191K20,8,723,PS,exp,34,↓,down,↓,0.5171711000148207,True,23,1,0,9
Y2-S2-191K20,8,724,PS,exp,37,↑,up,↑,1.2427877000300214,True,22,1,0,9
Y2-S2-191K20,8,725,PS,exp,45,↓,left,←,0.467784299980849,False,22,-1,1,10
Y2-S2-191K20,8,726,PS,exp,35,←,left,←,0.6530950999585912,True,23,-1,0,10
Y2-S2-191K20,8,727,PS,exp,33,↓,down,↓,0.7509408999467269,True,23,-1,0,10
Y2-S2-191K20,8,728,PS,exp,42,→,right,→,0.612526600016281,True,23,1,1,11
Y2-S2-191K20,8,729,PS,exp,47,↓,down,↓,0.46726359997410327,True,22,1,0,11
Y2-S2-191K20,8,730,PS,exp,31,←,left,←,0.568472099956125,True,22,1,0,11
Y2-S2-191K20,8,731,PS,exp,47,↓,down,↓,0.4841893999837339,True,22,1,0,11
Y2-S2-191K20,8,732,PS,exp,27,↑,up,↑,1.0464803000213578,True,21,1,0,11
Y2-S2-191K20,8,733,PS,exp,39,→,right,→,0.6041865999577567,True,21,1,0,11
Y2-S2-191K20,8,734,PS,exp,28,↑,down,↓,1.0490796000231057,False,21,-1,1,12
Y2-S2-191K20,8,735,PS,exp,30,→,right,→,0.4674916999647394,True,22,-1,0,12
Y2-S2-191K20,8,736,PS,exp,45,↓,left,←,0.11812360002659261,False,22,-1,0,12
Y2-S2-191K20,8,737,PS,exp,25,→,down,↓,0.3011703999945894,False,23,-1,0,12
Y2-S2-191K20,8,738,PS,exp,27,↓,down,↓,0.24978830001782626,True,24,-1,0,12
Y2-S2-191K20,8,739,PS,exp,40,→,up,↑,0.15189450001344085,False,24,-1,0,12
Y2-S2-191K20,8,740,PS,exp,29,↓,right,→,0.3338240999728441,False,25,-1,0,12
Y2-S2-191K20,8,741,PS,exp,50,→,right,→,0.8268197000725195,True,26,-1,0,12
Y2-S2-191K20,8,742,PS,exp,30,↑,up,↑,0.6149411000078544,True,26,-1,0,12
Y2-S2-191K20,8,743,PS,exp,26,↓,down,↓,0.6812497000209987,True,26,1,1,13
Y2-S2-191K20,8,744,PS,exp,27,↑,up,↑,0.666429900098592,True,25,1,0,13
Y2-S2-191K20,8,745,PS,exp,39,←,left,←,0.610803300049156,True,25,1,0,13
Y2-S2-191K20,8,746,PS,exp,41,↑,up,↑,0.6790940000209957,True,25,1,0,13
Y2-S2-191K20,8,747,PS,exp,28,↓,down,↓,1.1589422000106424,True,24,1,0,13
Y2-S2-191K20,8,748,PS,exp,30,→,right,→,0.5344851000700146,True,24,1,0,13
Y2-S2-191K20,8,749,PS,exp,32,↓,down,↓,0.6968823000788689,True,24,1,0,13
Y2-S2-191K20,8,750,PS,exp,27,←,left,←,0.7667629999341443,True,23,1,0,13
Y2-S2-191K20,8,751,PS,exp,42,↓,down,↓,0.5661008999450132,True,23,1,0,13
Y2-S2-191K20,8,752,PS,exp,40,←,left,←,0.467367299948819,True,23,1,0,13
Y2-S2-191K20,8,753,PS,exp,50,↓,down,↓,0.7403417000314221,True,22,1,0,13
Y2-S2-191K20,8,754,PS,exp,26,↑,up,↑,0.4845443000085652,True,22,1,0,13
Y2-S2-191K20,8,755,PS,exp,47,↓,down,↓,0.43401920003816485,True,22,1,0,13
Y2-S2-191K20,8,756,PS,exp,40,↑,up,↑,1.0799298000056297,True,21,1,0,13
Y2-S2-191K20,8,757,PS,exp,48,→,right,→,0.7384754000231624,True,21,1,0,13
Y2-S2-191K20,8,758,PS,exp,34,↑,down,↓,0.3498122999444604,False,21,-1,1,14
Y2-S2-191K20,8,759,PS,exp,44,←,left,←,0.5427902999799699,True,22,-1,0,14
Y2-S2-191K20,8,760,PS,exp,31,→,right,→,0.5964715000009164,True,22,-1,0,14
Y2-S2-191K20,8,761,PS,exp,28,←,left,←,0.6614431999623775,True,22,1,1,15
Y2-S2-191K20,8,762,PS,exp,37,→,right,→,0.7478185000363737,True,21,1,0,15
Y2-S2-191K20,8,763,PS,exp,32,←,left,←,0.7860144999576733,True,21,1,0,15
Y2-S2-191K20,8,764,PS,exp,40,↑,up,↑,0.847520700073801,True,21,1,0,15
Y2-S2-191K20,8,765,PS,exp,31,→,right,→,0.45038579998072237,True,20,1,0,15
Y2-S2-191K20,8,766,PS,exp,38,↑,up,↑,0.6066436999244615,True,20,1,0,15
Y2-S2-191K20,8,767,PS,exp,41,↓,down,↓,0.6221169999334961,True,20,1,0,15
Y2-S2-191K20,8,768,PS,exp,42,→,left,←,0.3678096999647096,False,19,-1,1,16
