PART_ID,Block_no,Trial_no,Block_type,Trial_type,CSI,Stim_letter,Key_pressed,letter_choose,Rt,Corr,Stimulus Time,Level,Reversal,Revs_count
Y2-S2-154K24,1,1,PS,train,28,↓,down,↓,0.6171055999584496,True,30,-,-,-
Y2-S2-154K24,1,2,PS,train,45,→,right,→,0.5341355999698862,True,30,-,-,-
Y2-S2-154K24,1,3,PS,train,46,←,no_key,no_letter,-1.0,False,30,-,-,-
Y2-S2-154K24,1,4,PS,train,34,→,no_key,no_letter,-1.0,False,30,-,-,-
Y2-S2-154K24,1,5,PS,train,26,←,left,←,0.5837674998911098,True,30,-,-,-
Y2-S2-154K24,1,6,PS,train,31,→,right,→,0.7442453999537975,True,30,-,-,-
Y2-S2-154K24,1,7,PS,train,33,←,left,←,0.5342667000368237,True,30,-,-,-
Y2-S2-154K24,1,8,PS,train,30,→,right,→,0.6010922000277787,True,30,-,-,-
Y2-S2-154K24,1,9,PS,train,38,↓,down,↓,0.6335967000341043,True,30,-,-,-
Y2-S2-154K24,1,10,PS,train,25,←,left,←,0.500551899895072,True,30,-,-,-
Y2-S2-154K24,2,11,AS,train,48,→,right,→,0.517784700030461,True,45,-,-,-
Y2-S2-154K24,2,12,AS,train,29,↑,up,↑,0.6511737999971956,True,45,-,-,-
Y2-S2-154K24,2,13,AS,train,50,↓,down,↓,0.567755600088276,True,45,-,-,-
Y2-S2-154K24,2,14,AS,train,39,→,right,→,0.6176186999073252,True,45,-,-,-
Y2-S2-154K24,2,15,AS,train,27,←,left,←,0.7339737000875175,True,45,-,-,-
Y2-S2-154K24,2,16,AS,train,47,→,right,→,0.7007463000481948,True,45,-,-,-
Y2-S2-154K24,2,17,AS,train,50,↓,down,↓,0.6343167999293655,True,45,-,-,-
Y2-S2-154K24,2,18,AS,train,27,←,left,←,0.46783760003745556,True,45,-,-,-
Y2-S2-154K24,2,19,AS,train,49,↓,down,↓,0.6513694999739528,True,45,-,-,-
Y2-S2-154K24,2,20,AS,train,47,←,left,←,0.7504972999449819,True,45,-,-,-
Y2-S2-154K24,-,21,PS,adaptive,50,→,down,↓,1.1004425000865012,False,10,-1,0,0
Y2-S2-154K24,-,22,PS,adaptive,45,↑,up,↑,1.4394325000466779,True,11,-1,0,0
Y2-S2-154K24,-,23,PS,adaptive,50,←,left,←,0.49379599990788847,True,11,-1,0,0
Y2-S2-154K24,-,24,PS,adaptive,50,↑,up,↑,0.5460684000281617,True,11,1,1,1
Y2-S2-154K24,-,25,PS,adaptive,42,↓,down,↓,0.8170629000524059,True,10,1,0,1
Y2-S2-154K24,-,26,PS,adaptive,29,↑,up,↑,1.0644520999630913,True,10,1,0,1
Y2-S2-154K24,-,27,PS,adaptive,49,↓,down,↓,0.6604523001005873,True,10,1,0,1
Y2-S2-154K24,-,28,PS,adaptive,27,←,up,↑,0.927420400083065,False,9,-1,1,2
Y2-S2-154K24,-,29,PS,adaptive,27,↓,down,↓,0.7392296999460086,True,10,-1,0,2
Y2-S2-154K24,-,30,PS,adaptive,50,←,left,←,0.4082565000280738,True,10,-1,0,2
Y2-S2-154K24,-,31,PS,adaptive,31,↓,left,←,0.6897989999270067,False,10,-1,0,2
Y2-S2-154K24,-,32,PS,adaptive,36,↑,up,↑,0.6150737000862136,True,11,-1,0,2
Y2-S2-154K24,-,33,PS,adaptive,41,←,right,→,0.8014141999883577,False,11,-1,0,2
Y2-S2-154K24,-,34,PS,adaptive,32,→,left,←,0.7863329999381676,False,12,-1,0,2
Y2-S2-154K24,-,35,PS,adaptive,47,↓,down,↓,0.6433405000716448,True,13,-1,0,2
Y2-S2-154K24,-,36,PS,adaptive,33,↑,up,↑,0.6122739999555051,True,13,-1,0,2
Y2-S2-154K24,-,37,PS,adaptive,29,→,right,→,0.5958133999956772,True,13,1,1,3
Y2-S2-154K24,-,38,PS,adaptive,37,←,left,←,0.7538159999530762,True,12,1,0,3
Y2-S2-154K24,-,39,PS,adaptive,48,↓,down,↓,0.6840588999912143,True,12,1,0,3
Y2-S2-154K24,-,40,PS,adaptive,32,←,up,↑,0.6636907000793144,False,12,-1,1,4
Y2-S2-154K24,-,41,AS,adaptive,37,↑,down,↓,0.9176073000999168,False,20,-1,0,0
Y2-S2-154K24,-,42,AS,adaptive,43,→,left,←,0.5650210999883711,False,21,-1,0,0
Y2-S2-154K24,-,43,AS,adaptive,39,↑,up,↑,0.5363754999125376,True,22,-1,0,0
Y2-S2-154K24,-,44,AS,adaptive,41,→,left,←,0.6681044000433758,False,22,-1,0,0
Y2-S2-154K24,-,45,AS,adaptive,39,↓,down,↓,0.829855400021188,True,23,-1,0,0
Y2-S2-154K24,-,46,AS,adaptive,34,↑,up,↑,0.5006632000440732,True,23,-1,0,0
Y2-S2-154K24,-,47,AS,adaptive,26,→,right,→,0.6045956000452861,True,23,1,1,1
Y2-S2-154K24,-,48,AS,adaptive,39,↓,down,↓,0.5662288999883458,True,22,1,0,1
Y2-S2-154K24,-,49,AS,adaptive,26,←,left,←,0.7055572000099346,True,22,1,0,1
Y2-S2-154K24,-,50,AS,adaptive,43,↓,down,↓,0.8805230000289157,True,22,1,0,1
Y2-S2-154K24,-,51,AS,adaptive,38,↑,up,↑,0.7533259999472648,True,21,1,0,1
Y2-S2-154K24,-,52,AS,adaptive,25,→,left,←,0.6436602999456227,False,21,-1,1,2
Y2-S2-154K24,-,53,AS,adaptive,37,↓,down,↓,0.5631204000674188,True,22,-1,0,2
Y2-S2-154K24,-,54,AS,adaptive,31,→,right,→,0.6396855999482796,True,22,-1,0,2
Y2-S2-154K24,-,55,AS,adaptive,50,↑,no_key,no_letter,-1.0,False,22,-1,0,2
Y2-S2-154K24,-,56,AS,adaptive,26,↓,up,↑,0.5967179000144824,False,23,-1,0,2
Y2-S2-154K24,-,57,AS,adaptive,43,↑,up,↑,0.7333620000863448,True,24,-1,0,2
Y2-S2-154K24,-,58,AS,adaptive,44,←,left,←,0.5172145999968052,True,24,-1,0,2
Y2-S2-154K24,-,59,AS,adaptive,33,→,right,→,0.5007389000384137,True,24,1,1,3
Y2-S2-154K24,-,60,AS,adaptive,25,↑,up,↑,0.798553999979049,True,23,1,0,3
Y2-S2-154K24,-,61,AS,adaptive,50,→,right,→,0.5842127000214532,True,23,1,0,3
Y2-S2-154K24,-,62,AS,adaptive,43,←,left,←,0.6492896999698132,True,23,1,0,3
Y2-S2-154K24,-,63,AS,adaptive,39,↓,up,↑,1.0812915000133216,False,22,-1,1,4
Y2-S2-154K24,1,64,PS,intra_train,47,←,left,←,0.5218853999394923,True,19,-,-,-
Y2-S2-154K24,1,65,PS,intra_train,30,↑,up,↑,0.7991448999382555,True,19,-,-,-
Y2-S2-154K24,1,66,PS,intra_train,33,→,right,→,0.6598526000743732,True,19,-,-,-
Y2-S2-154K24,1,67,PS,intra_train,44,↓,down,↓,0.4875052999705076,True,19,-,-,-
Y2-S2-154K24,1,68,PS,intra_train,39,←,left,←,0.5820832999888808,True,19,-,-,-
Y2-S2-154K24,1,69,PS,exp,44,→,right,→,0.8825319999596104,True,13,0,0,0
Y2-S2-154K24,1,70,PS,exp,43,↓,down,↓,0.5121637000702322,True,13,0,0,0
Y2-S2-154K24,1,71,PS,exp,27,↑,right,→,0.7663832999533042,False,13,-1,0,0
Y2-S2-154K24,1,72,PS,exp,34,↓,down,↓,0.5363443000242114,True,14,-1,0,0
Y2-S2-154K24,1,73,PS,exp,39,←,no_key,no_letter,-1.0,False,14,-1,0,0
Y2-S2-154K24,1,74,PS,exp,39,↑,up,↑,0.5289532999740914,True,15,-1,0,0
Y2-S2-154K24,1,75,PS,exp,25,↓,down,↓,0.5187049000523984,True,15,-1,0,0
Y2-S2-154K24,1,76,PS,exp,35,→,right,→,0.4572337999707088,True,15,1,1,1
Y2-S2-154K24,1,77,PS,exp,40,↓,down,↓,0.40340179996564984,True,14,1,0,1
Y2-S2-154K24,1,78,PS,exp,35,↑,up,↑,0.5309047000482678,True,14,1,0,1
Y2-S2-154K24,1,79,PS,exp,49,→,right,→,0.5126305000158027,True,14,1,0,1
Y2-S2-154K24,1,80,PS,exp,31,←,left,←,0.435267599998042,True,13,1,0,1
Y2-S2-154K24,1,81,PS,exp,36,→,right,→,0.6629610999953002,True,13,1,0,1
Y2-S2-154K24,1,82,PS,exp,33,↑,up,↑,0.423894599894993,True,13,1,0,1
Y2-S2-154K24,1,83,PS,exp,32,←,right,→,0.7450124999741092,False,12,-1,1,2
Y2-S2-154K24,1,84,PS,exp,37,↓,down,↓,0.5577936000190675,True,13,-1,0,2
Y2-S2-154K24,1,85,PS,exp,32,↑,up,↑,0.5468410999746993,True,13,-1,0,2
Y2-S2-154K24,1,86,PS,exp,41,→,right,→,0.40110600006300956,True,13,1,1,3
Y2-S2-154K24,1,87,PS,exp,37,↑,up,↑,0.5777188999345526,True,12,1,0,3
Y2-S2-154K24,1,88,PS,exp,41,↓,down,↓,0.7751443999586627,True,12,1,0,3
Y2-S2-154K24,1,89,PS,exp,30,→,right,→,0.40180160000454634,True,12,1,0,3
Y2-S2-154K24,1,90,PS,exp,32,↑,up,↑,0.5465724000241607,True,11,1,0,3
Y2-S2-154K24,1,91,PS,exp,26,→,left,←,0.729030599934049,False,11,-1,1,4
Y2-S2-154K24,1,92,PS,exp,26,↑,up,↑,0.6876567000290379,True,12,-1,0,4
Y2-S2-154K24,1,93,PS,exp,50,←,left,←,0.5483873999910429,True,12,-1,0,4
Y2-S2-154K24,1,94,PS,exp,45,↑,up,↑,0.6373152999440208,True,12,1,1,5
Y2-S2-154K24,1,95,PS,exp,46,→,right,→,0.8299004000145942,True,11,1,0,5
Y2-S2-154K24,1,96,PS,exp,37,↑,up,↑,0.7090843999758363,True,11,1,0,5
Y2-S2-154K24,1,97,PS,exp,44,←,left,←,0.5157464999938384,True,11,1,0,5
Y2-S2-154K24,1,98,PS,exp,45,↓,down,↓,0.6950454999459907,True,10,1,0,5
Y2-S2-154K24,1,99,PS,exp,32,↑,up,↑,0.5167574000079185,True,10,1,0,5
Y2-S2-154K24,1,100,PS,exp,39,→,up,↑,0.5678565000416711,False,10,-1,1,6
Y2-S2-154K24,1,101,PS,exp,34,←,left,←,0.49006680003367364,True,11,-1,0,6
Y2-S2-154K24,1,102,PS,exp,48,↑,up,↑,0.6134193999459967,True,11,-1,0,6
Y2-S2-154K24,1,103,PS,exp,45,↓,up,↑,0.7503487000940368,False,11,-1,0,6
Y2-S2-154K24,1,104,PS,exp,42,↑,up,↑,0.5256615999387577,True,12,-1,0,6
Y2-S2-154K24,1,105,PS,exp,37,↓,up,↑,0.4080092000076547,False,12,-1,0,6
Y2-S2-154K24,1,106,PS,exp,50,→,right,→,0.564380900003016,True,13,-1,0,6
Y2-S2-154K24,1,107,PS,exp,33,←,down,↓,1.0143571000080556,False,13,-1,0,6
Y2-S2-154K24,1,108,PS,exp,44,→,right,→,0.6646906000096351,True,14,-1,0,6
Y2-S2-154K24,1,109,PS,exp,45,↓,down,↓,0.596450199955143,True,14,-1,0,6
Y2-S2-154K24,1,110,PS,exp,27,←,left,←,0.576714999973774,True,14,1,1,7
Y2-S2-154K24,1,111,PS,exp,43,→,up,↑,0.703354699886404,False,13,-1,1,8
Y2-S2-154K24,1,112,PS,exp,25,←,left,←,0.5261234999634326,True,14,-1,0,8
Y2-S2-154K24,1,113,PS,exp,30,→,right,→,0.5820286999223754,True,14,-1,0,8
Y2-S2-154K24,1,114,PS,exp,47,↑,up,↑,0.4861205000197515,True,14,1,1,9
Y2-S2-154K24,1,115,PS,exp,27,→,right,→,0.565099100000225,True,13,1,0,9
Y2-S2-154K24,1,116,PS,exp,43,↑,up,↑,0.4694474000716582,True,13,1,0,9
Y2-S2-154K24,1,117,PS,exp,39,←,left,←,0.8301372999558225,True,13,1,0,9
Y2-S2-154K24,1,118,PS,exp,48,↑,up,↑,0.6238407000200823,True,12,1,0,9
Y2-S2-154K24,1,119,PS,exp,31,↓,down,↓,0.6572626999113709,True,12,1,0,9
Y2-S2-154K24,1,120,PS,exp,39,→,right,→,0.6191277999896556,True,12,1,0,9
Y2-S2-154K24,1,121,PS,exp,43,←,left,←,0.42820229998324066,True,11,1,0,9
Y2-S2-154K24,1,122,PS,exp,34,→,left,←,0.5277299999725074,False,11,-1,1,10
Y2-S2-154K24,1,123,PS,exp,38,↑,left,←,1.31951649999246,False,12,-1,0,10
Y2-S2-154K24,1,124,PS,exp,25,→,right,→,0.4504572000587359,True,13,-1,0,10
Y2-S2-154K24,1,125,PS,exp,44,↓,down,↓,0.6752861000131816,True,13,-1,0,10
Y2-S2-154K24,1,126,PS,exp,28,→,right,→,0.5036686999956146,True,13,1,1,11
Y2-S2-154K24,1,127,PS,exp,28,←,left,←,0.6618600999936461,True,12,1,0,11
Y2-S2-154K24,1,128,PS,exp,46,→,right,→,0.41741120000369847,True,12,1,0,11
Y2-S2-154K24,1,129,PS,exp,40,←,left,←,0.499103199923411,True,12,1,0,11
Y2-S2-154K24,1,130,PS,exp,36,↑,right,→,0.4020258999662474,False,11,-1,1,12
Y2-S2-154K24,1,131,PS,exp,25,↓,down,↓,0.5114465000806376,True,12,-1,0,12
Y2-S2-154K24,1,132,PS,exp,26,↑,up,↑,0.6870092999888584,True,12,-1,0,12
Y2-S2-154K24,1,133,PS,exp,33,→,right,→,0.6011829000199214,True,12,1,1,13
Y2-S2-154K24,1,134,PS,exp,50,↑,up,↑,0.5811012000776827,True,11,1,0,13
Y2-S2-154K24,1,135,PS,exp,37,←,right,→,0.6066459000576288,False,11,-1,1,14
Y2-S2-154K24,1,136,PS,exp,44,→,right,→,0.5301740999566391,True,12,-1,0,14
Y2-S2-154K24,1,137,PS,exp,31,↓,down,↓,0.7852878000121564,True,12,-1,0,14
Y2-S2-154K24,1,138,PS,exp,49,→,right,→,0.5340804000152275,True,12,1,1,15
Y2-S2-154K24,1,139,PS,exp,42,←,left,←,0.5239576000021771,True,11,1,0,15
Y2-S2-154K24,1,140,PS,exp,49,→,right,→,0.5349315999774262,True,11,1,0,15
Y2-S2-154K24,1,141,PS,exp,44,←,left,←,0.6208114000037313,True,11,1,0,15
Y2-S2-154K24,1,142,PS,exp,37,→,right,→,0.4173933999845758,True,10,1,0,15
Y2-S2-154K24,1,143,PS,exp,45,↑,up,↑,0.5801314000273123,True,10,1,0,15
Y2-S2-154K24,1,144,PS,exp,37,→,right,→,0.619298999896273,True,10,1,0,15
Y2-S2-154K24,1,145,PS,exp,36,↓,left,←,0.7063061000080779,False,9,-1,1,16
Y2-S2-154K24,2,146,AS,intra_train,47,↑,up,↑,0.7005463000386953,True,34,-,-,-
Y2-S2-154K24,2,147,AS,intra_train,30,←,left,←,0.567117500002496,True,34,-,-,-
Y2-S2-154K24,2,148,AS,intra_train,47,→,left,←,0.45111450005788356,False,34,-,-,-
Y2-S2-154K24,2,149,AS,intra_train,45,←,left,←,0.826270499965176,True,34,-,-,-
Y2-S2-154K24,2,150,AS,intra_train,34,↓,up,↑,0.5670515999663621,False,34,-,-,-
Y2-S2-154K24,2,151,AS,exp,38,←,left,←,0.5003878000425175,True,23,0,0,0
Y2-S2-154K24,2,152,AS,exp,31,→,right,→,0.4838066999800503,True,23,0,0,0
Y2-S2-154K24,2,153,AS,exp,32,↑,up,↑,0.7937844000989571,True,23,1,0,0
Y2-S2-154K24,2,154,AS,exp,30,←,left,←,0.5912536999676377,True,22,1,0,0
Y2-S2-154K24,2,155,AS,exp,48,↑,up,↑,0.583683600067161,True,22,1,0,0
Y2-S2-154K24,2,156,AS,exp,38,→,left,←,0.9805619999533519,False,22,-1,1,1
Y2-S2-154K24,2,157,AS,exp,33,↓,up,↑,0.6418134999694303,False,23,-1,0,1
Y2-S2-154K24,2,158,AS,exp,39,→,right,→,0.6773814000189304,True,24,-1,0,1
Y2-S2-154K24,2,159,AS,exp,47,↓,left,←,0.5988809000700712,False,24,-1,0,1
Y2-S2-154K24,2,160,AS,exp,44,→,right,→,0.5005445000715554,True,25,-1,0,1
Y2-S2-154K24,2,161,AS,exp,28,↑,up,↑,0.8026365999830887,True,25,-1,0,1
Y2-S2-154K24,2,162,AS,exp,43,↓,no_key,no_letter,-1.0,False,25,-1,0,1
Y2-S2-154K24,2,163,AS,exp,42,←,left,←,0.7429927000775933,True,26,-1,0,1
Y2-S2-154K24,2,164,AS,exp,38,↓,down,↓,0.5503930000122637,True,26,-1,0,1
Y2-S2-154K24,2,165,AS,exp,42,←,left,←,0.6518032000167295,True,26,1,1,2
Y2-S2-154K24,2,166,AS,exp,26,→,right,→,0.7057561000110582,True,25,1,0,2
Y2-S2-154K24,2,167,AS,exp,25,↓,up,↑,1.340498699923046,False,25,-1,1,3
Y2-S2-154K24,2,168,AS,exp,47,↑,up,↑,1.2195920000085607,True,26,-1,0,3
Y2-S2-154K24,2,169,AS,exp,28,→,right,→,0.6845175999915227,True,26,-1,0,3
Y2-S2-154K24,2,170,AS,exp,27,↓,down,↓,0.7478233999572694,True,26,1,1,4
Y2-S2-154K24,2,171,AS,exp,26,→,right,→,0.7530782000394538,True,25,1,0,4
Y2-S2-154K24,2,172,AS,exp,50,←,left,←,0.855944300070405,True,25,1,0,4
Y2-S2-154K24,2,173,AS,exp,31,↓,left,←,1.3671338999411091,False,25,-1,1,5
Y2-S2-154K24,2,174,AS,exp,44,→,right,→,0.4506433999631554,True,26,-1,0,5
Y2-S2-154K24,2,175,AS,exp,37,←,left,←,0.6031490999739617,True,26,-1,0,5
Y2-S2-154K24,2,176,AS,exp,45,→,right,→,0.5170764999929816,True,26,1,1,6
Y2-S2-154K24,2,177,AS,exp,45,↑,down,↓,0.7088624000316486,False,25,-1,1,7
Y2-S2-154K24,2,178,AS,exp,47,←,left,←,1.0275635999860242,True,26,-1,0,7
Y2-S2-154K24,2,179,AS,exp,38,↑,up,↑,0.8266266999999061,True,26,-1,0,7
Y2-S2-154K24,2,180,AS,exp,37,←,left,←,0.6011876000557095,True,26,1,1,8
Y2-S2-154K24,2,181,AS,exp,45,↓,down,↓,1.187111399951391,True,25,1,0,8
Y2-S2-154K24,2,182,AS,exp,27,↑,up,↑,0.9336485000094399,True,25,1,0,8
Y2-S2-154K24,2,183,AS,exp,31,→,right,→,0.8185171999502927,True,25,1,0,8
Y2-S2-154K24,2,184,AS,exp,48,↓,left,←,1.0373089000349864,False,24,-1,1,9
Y2-S2-154K24,2,185,AS,exp,45,→,up,↑,0.8489382000407204,False,25,-1,0,9
Y2-S2-154K24,2,186,AS,exp,38,↑,up,↑,0.6745704000350088,True,26,-1,0,9
Y2-S2-154K24,2,187,AS,exp,43,→,right,→,0.8305092999944463,True,26,-1,0,9
Y2-S2-154K24,2,188,AS,exp,50,↓,up,↑,0.948565199971199,False,26,-1,0,9
Y2-S2-154K24,2,189,AS,exp,42,↑,up,↑,0.8482670000521466,True,27,-1,0,9
Y2-S2-154K24,2,190,AS,exp,37,←,right,→,0.5668857999844477,False,27,-1,0,9
Y2-S2-154K24,2,191,AS,exp,42,→,right,→,0.8310218000551686,True,28,-1,0,9
Y2-S2-154K24,2,192,AS,exp,28,←,left,←,0.6447159999515861,True,28,-1,0,9
Y2-S2-154K24,2,193,AS,exp,35,→,right,→,0.5506570999277756,True,28,1,1,10
Y2-S2-154K24,2,194,AS,exp,34,↓,down,↓,0.7400388000532985,True,27,1,0,10
Y2-S2-154K24,2,195,AS,exp,32,→,left,←,1.191983800032176,False,27,-1,1,11
Y2-S2-154K24,2,196,AS,exp,49,↓,down,↓,0.7502572999801487,True,28,-1,0,11
Y2-S2-154K24,2,197,AS,exp,30,→,right,→,0.7729917999822646,True,28,-1,0,11
Y2-S2-154K24,2,198,AS,exp,32,↓,down,↓,0.5171800999669358,True,28,1,1,12
Y2-S2-154K24,2,199,AS,exp,40,↑,left,←,1.2964820000343025,False,27,-1,1,13
Y2-S2-154K24,2,200,AS,exp,34,←,left,←,0.7161311999661848,True,28,-1,0,13
Y2-S2-154K24,2,201,AS,exp,26,↓,up,↑,0.9109190999297425,False,28,-1,0,13
Y2-S2-154K24,2,202,AS,exp,39,←,left,←,0.5671818000264466,True,29,-1,0,13
Y2-S2-154K24,2,203,AS,exp,36,↑,up,↑,0.5837944000959396,True,29,-1,0,13
Y2-S2-154K24,2,204,AS,exp,25,↓,down,↓,0.7696731000905856,True,29,1,1,14
Y2-S2-154K24,2,205,AS,exp,37,↑,up,↑,0.8846284999744967,True,28,1,0,14
Y2-S2-154K24,2,206,AS,exp,43,→,no_key,no_letter,-1.0,False,28,-1,1,15
Y2-S2-154K24,2,207,AS,exp,39,←,left,←,0.4840208999812603,True,29,-1,0,15
Y2-S2-154K24,2,208,AS,exp,49,↓,down,↓,0.7976493000751361,True,29,-1,0,15
Y2-S2-154K24,2,209,AS,exp,31,→,right,→,0.4509352999739349,True,29,1,1,16
Y2-S2-154K24,3,210,AS,intra_train,40,↓,down,↓,0.5505281999940053,True,34,-,-,-
Y2-S2-154K24,3,211,AS,intra_train,48,→,left,←,0.4841479000169784,False,34,-,-,-
Y2-S2-154K24,3,212,AS,intra_train,35,↓,down,↓,0.5342506000306457,True,34,-,-,-
Y2-S2-154K24,3,213,AS,intra_train,29,↑,up,↑,0.5341378999873996,True,34,-,-,-
Y2-S2-154K24,3,214,AS,intra_train,44,→,right,→,0.7788892999524251,True,34,-,-,-
Y2-S2-154K24,3,215,AS,exp,47,←,right,→,1.2214802999515086,False,23,-1,0,0
Y2-S2-154K24,3,216,AS,exp,29,→,right,→,0.43358869990333915,True,24,-1,0,0
Y2-S2-154K24,3,217,AS,exp,32,↑,up,↑,0.53363109997008,True,24,-1,0,0
Y2-S2-154K24,3,218,AS,exp,43,↓,down,↓,0.9098780000349507,True,24,1,1,1
Y2-S2-154K24,3,219,AS,exp,43,→,right,→,0.5509328000480309,True,23,1,0,1
Y2-S2-154K24,3,220,AS,exp,37,↑,up,↑,0.4841728999745101,True,23,1,0,1
Y2-S2-154K24,3,221,AS,exp,46,←,left,←,0.4836578000104055,True,23,1,0,1
Y2-S2-154K24,3,222,AS,exp,28,↑,right,→,1.6244951001135632,False,22,-1,1,2
Y2-S2-154K24,3,223,AS,exp,31,↓,right,→,0.8227755000116304,False,23,-1,0,2
Y2-S2-154K24,3,224,AS,exp,40,→,no_key,no_letter,-1.0,False,24,-1,0,2
Y2-S2-154K24,3,225,AS,exp,29,↑,up,↑,0.6087833000347018,True,25,-1,0,2
Y2-S2-154K24,3,226,AS,exp,26,←,left,←,0.533981200074777,True,25,-1,0,2
Y2-S2-154K24,3,227,AS,exp,28,→,right,→,0.6890073000686243,True,25,1,1,3
Y2-S2-154K24,3,228,AS,exp,31,↓,down,↓,0.7105112000135705,True,24,1,0,3
Y2-S2-154K24,3,229,AS,exp,50,↑,up,↑,0.5771253999555483,True,24,1,0,3
Y2-S2-154K24,3,230,AS,exp,49,→,right,→,0.38441079994663596,True,24,1,0,3
Y2-S2-154K24,3,231,AS,exp,32,↑,up,↑,1.0351534999208525,True,23,1,0,3
Y2-S2-154K24,3,232,AS,exp,41,←,left,←,0.7667684000916779,True,23,1,0,3
Y2-S2-154K24,3,233,AS,exp,27,→,right,→,0.7386968999635428,True,23,1,0,3
Y2-S2-154K24,3,234,AS,exp,25,↓,up,↑,0.8021757000824437,False,22,-1,1,4
Y2-S2-154K24,3,235,AS,exp,26,→,right,→,0.6249240000033751,True,23,-1,0,4
Y2-S2-154K24,3,236,AS,exp,39,↑,down,↓,1.1149793000658974,False,23,-1,0,4
Y2-S2-154K24,3,237,AS,exp,48,↓,down,↓,0.8108756999718025,True,24,-1,0,4
Y2-S2-154K24,3,238,AS,exp,26,←,left,←,0.6799844999331981,True,24,-1,0,4
Y2-S2-154K24,3,239,AS,exp,41,↓,down,↓,0.5177033999934793,True,24,1,1,5
Y2-S2-154K24,3,240,AS,exp,29,→,right,→,0.5954349000239745,True,23,1,0,5
Y2-S2-154K24,3,241,AS,exp,35,↑,up,↑,0.7910262000514194,True,23,1,0,5
Y2-S2-154K24,3,242,AS,exp,41,→,right,→,0.46729910001158714,True,23,1,0,5
Y2-S2-154K24,3,243,AS,exp,47,←,left,←,0.4340510999318212,True,22,1,0,5
Y2-S2-154K24,3,244,AS,exp,41,↓,no_key,no_letter,-1.0,False,22,-1,1,6
Y2-S2-154K24,3,245,AS,exp,39,↑,up,↑,0.6223578000208363,True,23,-1,0,6
Y2-S2-154K24,3,246,AS,exp,32,→,right,→,0.4172313999151811,True,23,-1,0,6
Y2-S2-154K24,3,247,AS,exp,34,↑,up,↑,0.484160500112921,True,23,1,1,7
Y2-S2-154K24,3,248,AS,exp,37,←,no_key,no_letter,-1.0,False,22,-1,1,8
Y2-S2-154K24,3,249,AS,exp,34,→,right,→,0.7345072999596596,True,23,-1,0,8
Y2-S2-154K24,3,250,AS,exp,25,↓,up,↑,0.8328486999962479,False,23,-1,0,8
Y2-S2-154K24,3,251,AS,exp,34,↑,up,↑,0.6685303000267595,True,24,-1,0,8
Y2-S2-154K24,3,252,AS,exp,40,↓,no_key,no_letter,-1.0,False,24,-1,0,8
Y2-S2-154K24,3,253,AS,exp,41,→,right,→,0.48426659998949617,True,25,-1,0,8
Y2-S2-154K24,3,254,AS,exp,38,↑,up,↑,0.5504969001049176,True,25,-1,0,8
Y2-S2-154K24,3,255,AS,exp,32,↓,no_key,no_letter,-1.0,False,25,-1,0,8
Y2-S2-154K24,3,256,AS,exp,40,→,right,→,0.4507595000322908,True,26,-1,0,8
Y2-S2-154K24,3,257,AS,exp,44,↑,up,↑,0.6802954999729991,True,26,-1,0,8
Y2-S2-154K24,3,258,AS,exp,40,→,right,→,0.45023149996995926,True,26,1,1,9
Y2-S2-154K24,3,259,AS,exp,27,←,left,←,0.48445880005601794,True,25,1,0,9
Y2-S2-154K24,3,260,AS,exp,34,↓,no_key,no_letter,-1.0,False,25,-1,1,10
Y2-S2-154K24,3,261,AS,exp,48,→,right,→,0.4175781999947503,True,26,-1,0,10
Y2-S2-154K24,3,262,AS,exp,37,↓,down,↓,0.5671245000557974,True,26,-1,0,10
Y2-S2-154K24,3,263,AS,exp,39,→,right,→,0.5336381000233814,True,26,1,1,11
Y2-S2-154K24,3,264,AS,exp,33,↑,up,↑,0.6459118999773636,True,25,1,0,11
Y2-S2-154K24,3,265,AS,exp,35,→,right,→,0.6635748000117019,True,25,1,0,11
Y2-S2-154K24,3,266,AS,exp,41,↓,down,↓,0.6866882999893278,True,25,1,0,11
Y2-S2-154K24,3,267,AS,exp,25,→,right,→,0.7337848999304697,True,24,1,0,11
Y2-S2-154K24,3,268,AS,exp,46,←,left,←,0.7581033000024036,True,24,1,0,11
Y2-S2-154K24,3,269,AS,exp,31,→,down,↓,0.9290317000122741,False,24,-1,1,12
Y2-S2-154K24,3,270,AS,exp,36,←,no_key,no_letter,-1.0,False,25,-1,0,12
Y2-S2-154K24,3,271,AS,exp,33,↑,up,↑,0.6294495000038296,True,26,-1,0,12
Y2-S2-154K24,3,272,AS,exp,28,→,left,←,0.6148936999961734,False,26,-1,0,12
Y2-S2-154K24,3,273,AS,exp,44,←,left,←,0.8569335000356659,True,27,-1,0,12
Y2-S2-154K24,3,274,AS,exp,47,↓,down,↓,0.500638599973172,True,27,-1,0,12
Y2-S2-154K24,3,275,AS,exp,27,↑,up,↑,0.7828777999384329,True,27,1,1,13
Y2-S2-154K24,3,276,AS,exp,31,←,left,←,0.8245595000917092,True,26,1,0,13
Y2-S2-154K24,3,277,AS,exp,25,→,right,→,0.6877157000126317,True,26,1,0,13
Y2-S2-154K24,3,278,AS,exp,38,←,left,←,0.6300453000003472,True,26,1,0,13
Y2-S2-154K24,3,279,AS,exp,39,↓,up,↑,0.6703078000573441,False,25,-1,1,14
Y2-S2-154K24,3,280,AS,exp,27,←,left,←,0.9351219999371096,True,26,-1,0,14
Y2-S2-154K24,3,281,AS,exp,29,↓,down,↓,0.5169153000460938,True,26,-1,0,14
Y2-S2-154K24,3,282,AS,exp,49,→,right,→,0.684772799955681,True,26,1,1,15
Y2-S2-154K24,3,283,AS,exp,50,←,no_key,no_letter,-1.0,False,25,-1,1,16
Y2-S2-154K24,4,284,PS,intra_train,49,→,right,→,0.5019589000148699,True,19,-,-,-
Y2-S2-154K24,4,285,PS,intra_train,35,↓,up,↑,0.7331882999278605,False,19,-,-,-
Y2-S2-154K24,4,286,PS,intra_train,48,→,right,→,0.5028084999648854,True,19,-,-,-
Y2-S2-154K24,4,287,PS,intra_train,32,↓,down,↓,0.5498995999805629,True,19,-,-,-
Y2-S2-154K24,4,288,PS,intra_train,29,↑,no_key,no_letter,-1.0,False,19,-,-,-
Y2-S2-154K24,4,289,PS,exp,29,→,right,→,0.4587187001015991,True,13,0,0,0
Y2-S2-154K24,4,290,PS,exp,32,←,right,→,0.7049790000310168,False,13,-1,0,0
Y2-S2-154K24,4,291,PS,exp,39,↑,up,↑,0.4767798000248149,True,14,-1,0,0
Y2-S2-154K24,4,292,PS,exp,31,→,right,→,0.7972008000360802,True,14,-1,0,0
Y2-S2-154K24,4,293,PS,exp,44,↓,down,↓,0.6346821000333875,True,14,1,1,1
Y2-S2-154K24,4,294,PS,exp,37,↑,up,↑,0.6449289000593126,True,13,1,0,1
Y2-S2-154K24,4,295,PS,exp,41,←,left,←,0.5609556001145393,True,13,1,0,1
Y2-S2-154K24,4,296,PS,exp,40,↓,down,↓,0.5645162999862805,True,13,1,0,1
Y2-S2-154K24,4,297,PS,exp,40,←,left,←,0.4872682999121025,True,12,1,0,1
Y2-S2-154K24,4,298,PS,exp,48,↑,up,↑,0.5275965000037104,True,12,1,0,1
Y2-S2-154K24,4,299,PS,exp,39,←,right,→,0.711409000097774,False,12,-1,1,2
Y2-S2-154K24,4,300,PS,exp,34,↓,down,↓,0.5425071000354365,True,13,-1,0,2
Y2-S2-154K24,4,301,PS,exp,50,←,left,←,0.4542054000776261,True,13,-1,0,2
Y2-S2-154K24,4,302,PS,exp,27,↑,up,↑,0.7293627000181004,True,13,1,1,3
Y2-S2-154K24,4,303,PS,exp,42,←,left,←,0.6246246000519022,True,12,1,0,3
Y2-S2-154K24,4,304,PS,exp,48,↑,up,↑,0.501496700104326,True,12,1,0,3
Y2-S2-154K24,4,305,PS,exp,25,↓,down,↓,0.7828036999562755,True,12,1,0,3
Y2-S2-154K24,4,306,PS,exp,44,←,left,←,0.5702487999806181,True,11,1,0,3
Y2-S2-154K24,4,307,PS,exp,34,↓,down,↓,0.525341899949126,True,11,1,0,3
Y2-S2-154K24,4,308,PS,exp,48,←,left,←,0.47571270004846156,True,11,1,0,3
Y2-S2-154K24,4,309,PS,exp,29,↑,up,↑,0.5304254000075161,True,10,1,0,3
Y2-S2-154K24,4,310,PS,exp,33,→,left,←,0.8152155999559909,False,10,-1,1,4
Y2-S2-154K24,4,311,PS,exp,35,←,up,↑,0.6736694000428542,False,11,-1,0,4
Y2-S2-154K24,4,312,PS,exp,34,→,right,→,0.4715566000668332,True,12,-1,0,4
Y2-S2-154K24,4,313,PS,exp,50,←,no_key,no_letter,-1.0,False,12,-1,0,4
Y2-S2-154K24,4,314,PS,exp,32,↓,down,↓,0.683496700017713,True,13,-1,0,4
Y2-S2-154K24,4,315,PS,exp,50,↑,up,↑,0.589729500003159,True,13,-1,0,4
Y2-S2-154K24,4,316,PS,exp,46,→,right,→,0.453728900058195,True,13,1,1,5
Y2-S2-154K24,4,317,PS,exp,45,↓,up,↑,0.8649317999370396,False,12,-1,1,6
Y2-S2-154K24,4,318,PS,exp,29,→,right,→,0.5220585000934079,True,13,-1,0,6
Y2-S2-154K24,4,319,PS,exp,31,↑,up,↑,0.6465599000221118,True,13,-1,0,6
Y2-S2-154K24,4,320,PS,exp,27,←,left,←,0.4388794999103993,True,13,1,1,7
Y2-S2-154K24,4,321,PS,exp,34,↓,left,←,0.3716780999675393,False,12,-1,1,8
Y2-S2-154K24,4,322,PS,exp,29,→,right,→,0.44802759995218366,True,13,-1,0,8
Y2-S2-154K24,4,323,PS,exp,45,←,left,←,0.5192878999514505,True,13,-1,0,8
Y2-S2-154K24,4,324,PS,exp,36,→,right,→,0.5718696999829262,True,13,1,1,9
Y2-S2-154K24,4,325,PS,exp,34,←,right,→,0.6193002000218257,False,12,-1,1,10
Y2-S2-154K24,4,326,PS,exp,27,→,right,→,0.605581899988465,True,13,-1,0,10
Y2-S2-154K24,4,327,PS,exp,50,↑,left,←,0.3912388999015093,False,13,-1,0,10
Y2-S2-154K24,4,328,PS,exp,38,↓,down,↓,0.46688629989512265,True,14,-1,0,10
Y2-S2-154K24,4,329,PS,exp,26,→,right,→,0.5851833999622613,True,14,-1,0,10
Y2-S2-154K24,4,330,PS,exp,41,←,left,←,0.5799514000536874,True,14,1,1,11
Y2-S2-154K24,4,331,PS,exp,42,→,right,→,0.44485600001644343,True,13,1,0,11
Y2-S2-154K24,4,332,PS,exp,37,←,left,←,0.5661098000127822,True,13,1,0,11
Y2-S2-154K24,4,333,PS,exp,28,↓,down,↓,0.629796399967745,True,13,1,0,11
Y2-S2-154K24,4,334,PS,exp,48,←,left,←,0.6033400999149308,True,12,1,0,11
Y2-S2-154K24,4,335,PS,exp,37,→,right,→,0.46691819990519434,True,12,1,0,11
Y2-S2-154K24,4,336,PS,exp,45,↑,up,↑,0.5134343000827357,True,12,1,0,11
Y2-S2-154K24,4,337,PS,exp,49,←,left,←,0.7222101999213919,True,11,1,0,11
Y2-S2-154K24,4,338,PS,exp,43,↑,up,↑,0.4776484000030905,True,11,1,0,11
Y2-S2-154K24,4,339,PS,exp,43,←,left,←,0.49253399996086955,True,11,1,0,11
Y2-S2-154K24,4,340,PS,exp,44,→,right,→,0.47384689992759377,True,10,1,0,11
Y2-S2-154K24,4,341,PS,exp,47,←,left,←,0.7974607000360265,True,10,1,0,11
Y2-S2-154K24,4,342,PS,exp,26,↓,down,↓,0.5454319000709802,True,10,1,0,11
Y2-S2-154K24,4,343,PS,exp,50,↑,up,↑,0.5165648000547662,True,9,1,0,11
Y2-S2-154K24,4,344,PS,exp,38,←,left,←,0.5627300000051036,True,9,1,0,11
Y2-S2-154K24,4,345,PS,exp,47,↓,down,↓,0.5247532000066712,True,9,1,0,11
Y2-S2-154K24,4,346,PS,exp,44,←,left,←,0.6152849999489263,True,8,1,0,11
Y2-S2-154K24,4,347,PS,exp,42,↑,up,↑,0.4793418000917882,True,8,1,0,11
Y2-S2-154K24,4,348,PS,exp,28,←,up,↑,0.709440500009805,False,8,-1,1,12
Y2-S2-154K24,4,349,PS,exp,48,↑,up,↑,0.48862640000879765,True,9,-1,0,12
Y2-S2-154K24,4,350,PS,exp,38,→,up,↑,0.6718139000004157,False,9,-1,0,12
Y2-S2-154K24,4,351,PS,exp,40,↑,up,↑,0.53302580001764,True,10,-1,0,12
Y2-S2-154K24,4,352,PS,exp,29,→,up,↑,0.7325042000738904,False,10,-1,0,12
Y2-S2-154K24,4,353,PS,exp,26,↓,down,↓,0.5448608000297099,True,11,-1,0,12
Y2-S2-154K24,4,354,PS,exp,34,↑,up,↑,0.6347656999714673,True,11,-1,0,12
Y2-S2-154K24,4,355,PS,exp,31,←,left,←,0.5234989000018686,True,11,1,1,13
Y2-S2-154K24,4,356,PS,exp,47,↓,down,↓,0.6406672999728471,True,10,1,0,13
Y2-S2-154K24,4,357,PS,exp,37,←,left,←,0.4571041000308469,True,10,1,0,13
Y2-S2-154K24,4,358,PS,exp,29,→,right,→,0.5506549999117851,True,10,1,0,13
Y2-S2-154K24,4,359,PS,exp,43,↓,right,→,0.728677700040862,False,9,-1,1,14
Y2-S2-154K24,4,360,PS,exp,30,→,down,↓,0.8014697000617161,False,10,-1,0,14
Y2-S2-154K24,4,361,PS,exp,42,↑,up,↑,0.5790508999489248,True,11,-1,0,14
Y2-S2-154K24,4,362,PS,exp,31,↓,down,↓,0.7015227000229061,True,11,-1,0,14
Y2-S2-154K24,4,363,PS,exp,33,←,right,→,0.5423092000419274,False,11,-1,0,14
Y2-S2-154K24,4,364,PS,exp,27,↑,up,↑,0.4807233000174165,True,12,-1,0,14
Y2-S2-154K24,4,365,PS,exp,34,↓,down,↓,0.506657800055109,True,12,-1,0,14
Y2-S2-154K24,4,366,PS,exp,30,↑,down,↓,0.5207765999948606,False,12,-1,0,14
Y2-S2-154K24,4,367,PS,exp,32,→,left,←,0.72887069999706,False,13,-1,0,14
Y2-S2-154K24,4,368,PS,exp,46,←,left,←,0.49743129999842495,True,14,-1,0,14
Y2-S2-154K24,4,369,PS,exp,34,↓,down,↓,0.5555100999772549,True,14,-1,0,14
Y2-S2-154K24,4,370,PS,exp,39,←,right,→,0.4892412000335753,False,14,-1,0,14
Y2-S2-154K24,4,371,PS,exp,29,→,right,→,0.5760554999578744,True,15,-1,0,14
Y2-S2-154K24,4,372,PS,exp,49,↓,down,↓,0.5507374000735581,True,15,-1,0,14
Y2-S2-154K24,4,373,PS,exp,48,←,left,←,0.5630765999667346,True,15,1,1,15
Y2-S2-154K24,4,374,PS,exp,45,↑,up,↑,0.6202037000330165,True,14,1,0,15
Y2-S2-154K24,4,375,PS,exp,37,←,left,←,0.5250032999319956,True,14,1,0,15
Y2-S2-154K24,4,376,PS,exp,43,→,right,→,0.47854999999981374,True,14,1,0,15
Y2-S2-154K24,4,377,PS,exp,39,↓,down,↓,0.5909880000399426,True,13,1,0,15
Y2-S2-154K24,4,378,PS,exp,48,←,left,←,0.4669436999829486,True,13,1,0,15
Y2-S2-154K24,4,379,PS,exp,29,↓,down,↓,0.6626961999572814,True,13,1,0,15
Y2-S2-154K24,4,380,PS,exp,47,→,right,→,0.576255299965851,True,12,1,0,15
Y2-S2-154K24,4,381,PS,exp,35,←,left,←,0.4609677999978885,True,12,1,0,15
Y2-S2-154K24,4,382,PS,exp,27,→,right,→,0.5612734000897035,True,12,1,0,15
Y2-S2-154K24,4,383,PS,exp,48,↑,up,↑,0.6463221999583766,True,11,1,0,15
Y2-S2-154K24,4,384,PS,exp,25,←,left,←,0.47892689995933324,True,11,1,0,15
Y2-S2-154K24,4,385,PS,exp,30,↓,down,↓,0.5463709000032395,True,11,1,0,15
Y2-S2-154K24,4,386,PS,exp,38,←,left,←,0.48453550005797297,True,10,1,0,15
Y2-S2-154K24,4,387,PS,exp,35,↑,up,↑,0.47645550000015646,True,10,1,0,15
Y2-S2-154K24,4,388,PS,exp,50,↓,up,↑,0.5508253000443801,False,10,-1,1,16
Y2-S2-154K24,5,389,PS,intra_train,36,→,right,→,0.6320298999780789,True,19,-,-,-
Y2-S2-154K24,5,390,PS,intra_train,49,↑,up,↑,0.49585569999180734,True,19,-,-,-
Y2-S2-154K24,5,391,PS,intra_train,32,←,no_key,no_letter,-1.0,False,19,-,-,-
Y2-S2-154K24,5,392,PS,intra_train,49,→,right,→,0.4170666999416426,True,19,-,-,-
Y2-S2-154K24,5,393,PS,intra_train,50,↓,down,↓,0.5535152999218553,True,19,-,-,-
Y2-S2-154K24,5,394,PS,exp,42,↑,right,→,0.42841470008715987,False,13,-1,0,0
Y2-S2-154K24,5,395,PS,exp,32,→,right,→,0.46367409999947995,True,14,-1,0,0
Y2-S2-154K24,5,396,PS,exp,36,←,left,←,0.49933439993765205,True,14,-1,0,0
Y2-S2-154K24,5,397,PS,exp,33,↓,down,↓,0.5219810999697074,True,14,1,1,1
Y2-S2-154K24,5,398,PS,exp,35,→,right,→,0.4673004999058321,True,13,1,0,1
Y2-S2-154K24,5,399,PS,exp,26,↑,up,↑,0.4831446000607684,True,13,1,0,1
Y2-S2-154K24,5,400,PS,exp,34,→,no_key,no_letter,-1.0,False,13,-1,1,2
Y2-S2-154K24,5,401,PS,exp,46,↓,down,↓,0.5872791999718174,True,14,-1,0,2
Y2-S2-154K24,5,402,PS,exp,33,↑,up,↑,0.44815890002064407,True,14,-1,0,2
Y2-S2-154K24,5,403,PS,exp,39,↓,up,↑,0.6341258999891579,False,14,-1,0,2
Y2-S2-154K24,5,404,PS,exp,45,→,up,↑,0.5483593000099063,False,15,-1,0,2
Y2-S2-154K24,5,405,PS,exp,25,↓,down,↓,0.6614657999016345,True,16,-1,0,2
Y2-S2-154K24,5,406,PS,exp,31,→,right,→,0.4413110000314191,True,16,-1,0,2
Y2-S2-154K24,5,407,PS,exp,27,←,left,←,0.7665570999961346,True,16,1,1,3
Y2-S2-154K24,5,408,PS,exp,36,↑,up,↑,0.4582083000568673,True,15,1,0,3
Y2-S2-154K24,5,409,PS,exp,28,→,no_key,no_letter,-1.0,False,15,-1,1,4
Y2-S2-154K24,5,410,PS,exp,48,←,left,←,0.5154963999520987,True,16,-1,0,4
Y2-S2-154K24,5,411,PS,exp,27,↑,left,←,0.47701180004514754,False,16,-1,0,4
Y2-S2-154K24,5,412,PS,exp,38,→,up,↑,0.45265510003082454,False,17,-1,0,4
Y2-S2-154K24,5,413,PS,exp,41,←,left,←,0.4686934999190271,True,18,-1,0,4
Y2-S2-154K24,5,414,PS,exp,27,→,right,→,0.41730420000385493,True,18,-1,0,4
Y2-S2-154K24,5,415,PS,exp,27,↓,down,↓,0.5310107000404969,True,18,1,1,5
Y2-S2-154K24,5,416,PS,exp,40,↑,up,↑,0.4168665000470355,True,17,1,0,5
Y2-S2-154K24,5,417,PS,exp,44,→,right,→,0.6793121999362484,True,17,1,0,5
Y2-S2-154K24,5,418,PS,exp,25,↓,down,↓,0.5107321999967098,True,17,1,0,5
Y2-S2-154K24,5,419,PS,exp,29,→,up,↑,0.8035728000104427,False,16,-1,1,6
Y2-S2-154K24,5,420,PS,exp,27,←,left,←,0.5016023999778554,True,17,-1,0,6
Y2-S2-154K24,5,421,PS,exp,48,↑,up,↑,0.5812670000595972,True,17,-1,0,6
Y2-S2-154K24,5,422,PS,exp,40,←,left,←,0.5481230000732467,True,17,1,1,7
Y2-S2-154K24,5,423,PS,exp,50,→,right,→,0.5108160999370739,True,16,1,0,7
Y2-S2-154K24,5,424,PS,exp,49,←,left,←,0.49112489994149655,True,16,1,0,7
Y2-S2-154K24,5,425,PS,exp,40,↑,up,↑,0.5084178000688553,True,16,1,0,7
Y2-S2-154K24,5,426,PS,exp,31,←,up,↑,0.6815523999975994,False,15,-1,1,8
Y2-S2-154K24,5,427,PS,exp,36,↓,down,↓,0.524589299922809,True,16,-1,0,8
Y2-S2-154K24,5,428,PS,exp,35,↑,up,↑,0.5302606000332162,True,16,-1,0,8
Y2-S2-154K24,5,429,PS,exp,25,→,right,→,0.4877545000053942,True,16,1,1,9
Y2-S2-154K24,5,430,PS,exp,42,↓,down,↓,0.5879920000443235,True,15,1,0,9
Y2-S2-154K24,5,431,PS,exp,34,→,left,←,0.3338305000215769,False,15,-1,1,10
Y2-S2-154K24,5,432,PS,exp,42,↓,down,↓,0.4592228999827057,True,16,-1,0,10
Y2-S2-154K24,5,433,PS,exp,45,→,right,→,0.6240520999999717,True,16,-1,0,10
Y2-S2-154K24,5,434,PS,exp,26,↑,up,↑,0.5465513999806717,True,16,1,1,11
Y2-S2-154K24,5,435,PS,exp,42,←,left,←,0.5804852000437677,True,15,1,0,11
Y2-S2-154K24,5,436,PS,exp,42,↑,up,↑,0.5166267999447882,True,15,1,0,11
Y2-S2-154K24,5,437,PS,exp,43,↓,down,↓,0.5067494999384508,True,15,1,0,11
Y2-S2-154K24,5,438,PS,exp,29,→,left,←,0.8785224000457674,False,14,-1,1,12
Y2-S2-154K24,5,439,PS,exp,38,←,left,←,0.6143688000738621,True,15,-1,0,12
Y2-S2-154K24,5,440,PS,exp,46,→,right,→,0.6568689999403432,True,15,-1,0,12
Y2-S2-154K24,5,441,PS,exp,42,↑,up,↑,0.5555396999698132,True,15,1,1,13
Y2-S2-154K24,5,442,PS,exp,26,←,left,←,0.5395135999424383,True,14,1,0,13
Y2-S2-154K24,5,443,PS,exp,30,↓,down,↓,0.5242444999748841,True,14,1,0,13
Y2-S2-154K24,5,444,PS,exp,29,←,left,←,0.4578789999941364,True,14,1,0,13
Y2-S2-154K24,5,445,PS,exp,43,↑,down,↓,0.44366160000208765,False,13,-1,1,14
Y2-S2-154K24,5,446,PS,exp,46,←,left,←,0.5041424999944866,True,14,-1,0,14
Y2-S2-154K24,5,447,PS,exp,28,↑,up,↑,0.6070877000456676,True,14,-1,0,14
Y2-S2-154K24,5,448,PS,exp,30,→,right,→,0.5493467999622226,True,14,1,1,15
Y2-S2-154K24,5,449,PS,exp,44,←,left,←,0.4491898000705987,True,13,1,0,15
Y2-S2-154K24,5,450,PS,exp,50,↑,up,↑,0.455229299957864,True,13,1,0,15
Y2-S2-154K24,5,451,PS,exp,48,↓,down,↓,0.5529503000434488,True,13,1,0,15
Y2-S2-154K24,5,452,PS,exp,33,←,left,←,0.46264309994876385,True,12,1,0,15
Y2-S2-154K24,5,453,PS,exp,30,↑,up,↑,0.45990170002914965,True,12,1,0,15
Y2-S2-154K24,5,454,PS,exp,34,→,right,→,0.5688169000204653,True,12,1,0,15
Y2-S2-154K24,5,455,PS,exp,49,↓,down,↓,0.6843128999462351,True,11,1,0,15
Y2-S2-154K24,5,456,PS,exp,40,↑,up,↑,0.4043860000092536,True,11,1,0,15
Y2-S2-154K24,5,457,PS,exp,27,←,right,→,0.5087224999442697,False,11,-1,1,16
Y2-S2-154K24,6,458,AS,intra_train,34,→,right,→,0.5676708000246435,True,34,-,-,-
Y2-S2-154K24,6,459,AS,intra_train,29,←,left,←,0.5342612999957055,True,34,-,-,-
Y2-S2-154K24,6,460,AS,intra_train,34,→,left,←,0.5177663000067696,False,34,-,-,-
Y2-S2-154K24,6,461,AS,intra_train,36,←,left,←,0.6507829000474885,True,34,-,-,-
Y2-S2-154K24,6,462,AS,intra_train,48,→,left,←,0.5672493000747636,False,34,-,-,-
Y2-S2-154K24,6,463,AS,exp,32,↓,down,↓,0.7801366000203416,True,23,0,0,0
Y2-S2-154K24,6,464,AS,exp,35,↑,up,↑,1.167052699951455,True,23,0,0,0
Y2-S2-154K24,6,465,AS,exp,33,→,right,→,0.7637172000249848,True,23,1,0,0
Y2-S2-154K24,6,466,AS,exp,36,↑,up,↑,0.5480257000308484,True,22,1,0,0
Y2-S2-154K24,6,467,AS,exp,41,↓,down,↓,0.6633895999984816,True,22,1,0,0
Y2-S2-154K24,6,468,AS,exp,49,←,right,→,0.6385047000367194,False,22,-1,1,1
Y2-S2-154K24,6,469,AS,exp,39,→,right,→,0.8481537000043318,True,23,-1,0,1
Y2-S2-154K24,6,470,AS,exp,36,↓,down,↓,0.5936875999905169,True,23,-1,0,1
Y2-S2-154K24,6,471,AS,exp,34,←,no_key,no_letter,-1.0,False,23,-1,0,1
Y2-S2-154K24,6,472,AS,exp,26,↓,down,↓,0.7538231000071391,True,24,-1,0,1
Y2-S2-154K24,6,473,AS,exp,45,←,left,←,0.9132279999321327,True,24,-1,0,1
Y2-S2-154K24,6,474,AS,exp,41,↓,up,↑,0.6290033999830484,False,24,-1,0,1
Y2-S2-154K24,6,475,AS,exp,32,↑,up,↑,0.48425290000159293,True,25,-1,0,1
Y2-S2-154K24,6,476,AS,exp,46,↓,down,↓,1.1292975000105798,True,25,-1,0,1
Y2-S2-154K24,6,477,AS,exp,36,←,right,→,0.5914173000492156,False,25,-1,0,1
Y2-S2-154K24,6,478,AS,exp,28,↑,up,↑,0.517149499966763,True,26,-1,0,1
Y2-S2-154K24,6,479,AS,exp,35,→,right,→,0.6332036999519914,True,26,-1,0,1
Y2-S2-154K24,6,480,AS,exp,45,↓,no_key,no_letter,-1.0,False,26,-1,0,1
Y2-S2-154K24,6,481,AS,exp,27,↑,no_key,no_letter,-1.0,False,27,-1,0,1
Y2-S2-154K24,6,482,AS,exp,41,→,up,↑,0.6006911000004038,False,28,-1,0,1
Y2-S2-154K24,6,483,AS,exp,35,←,left,←,0.5505839999532327,True,29,-1,0,1
Y2-S2-154K24,6,484,AS,exp,43,↑,up,↑,0.6574911000207067,True,29,-1,0,1
Y2-S2-154K24,6,485,AS,exp,30,↓,down,↓,0.4835181999951601,True,29,1,1,2
Y2-S2-154K24,6,486,AS,exp,31,→,right,→,0.7234476000303403,True,28,1,0,2
Y2-S2-154K24,6,487,AS,exp,39,←,left,←,0.5012763000559062,True,28,1,0,2
Y2-S2-154K24,6,488,AS,exp,47,↑,no_key,no_letter,-1.0,False,28,-1,1,3
Y2-S2-154K24,6,489,AS,exp,44,→,no_key,no_letter,-1.0,False,29,-1,0,3
Y2-S2-154K24,6,490,AS,exp,35,↑,up,↑,0.633790299994871,True,30,-1,0,3
Y2-S2-154K24,6,491,AS,exp,38,←,left,←,0.7682163999415934,True,30,-1,0,3
Y2-S2-154K24,6,492,AS,exp,43,↓,down,↓,0.8254968000110239,True,30,1,1,4
Y2-S2-154K24,6,493,AS,exp,28,→,right,→,0.5345306000672281,True,29,1,0,4
Y2-S2-154K24,6,494,AS,exp,41,↓,down,↓,0.5507719999877736,True,29,1,0,4
Y2-S2-154K24,6,495,AS,exp,31,←,no_key,no_letter,-1.0,False,29,-1,1,5
Y2-S2-154K24,6,496,AS,exp,41,↓,down,↓,0.7689713999861851,True,30,-1,0,5
Y2-S2-154K24,6,497,AS,exp,50,→,right,→,0.6903995000757277,True,30,-1,0,5
Y2-S2-154K24,6,498,AS,exp,28,←,left,←,0.4837002999847755,True,30,1,1,6
Y2-S2-154K24,6,499,AS,exp,28,↑,up,↑,0.6574013000354171,True,29,1,0,6
Y2-S2-154K24,6,500,AS,exp,27,↓,down,↓,0.5836795000359416,True,29,1,0,6
Y2-S2-154K24,6,501,AS,exp,37,→,right,→,0.4839247999479994,True,29,1,0,6
Y2-S2-154K24,6,502,AS,exp,48,←,left,←,0.3843689999775961,True,28,1,0,6
Y2-S2-154K24,6,503,AS,exp,25,↑,down,↓,0.6383845000527799,False,28,-1,1,7
Y2-S2-154K24,6,504,AS,exp,33,↓,down,↓,0.6005822999868542,True,29,-1,0,7
Y2-S2-154K24,6,505,AS,exp,48,←,left,←,0.5338018999900669,True,29,-1,0,7
Y2-S2-154K24,6,506,AS,exp,41,↑,up,↑,0.5008977999677882,True,29,1,1,8
Y2-S2-154K24,6,507,AS,exp,47,←,no_key,no_letter,-1.0,False,28,-1,1,9
Y2-S2-154K24,6,508,AS,exp,42,↓,no_key,no_letter,-1.0,False,29,-1,0,9
Y2-S2-154K24,6,509,AS,exp,41,←,left,←,0.6818750000093132,True,30,-1,0,9
Y2-S2-154K24,6,510,AS,exp,40,→,left,←,0.6342293999623507,False,30,-1,0,9
Y2-S2-154K24,6,511,AS,exp,43,←,left,←,0.724780699936673,True,31,-1,0,9
Y2-S2-154K24,6,512,AS,exp,41,↓,down,↓,0.7592856000410393,True,31,-1,0,9
Y2-S2-154K24,6,513,AS,exp,42,←,right,→,0.600638100062497,False,31,-1,0,9
Y2-S2-154K24,6,514,AS,exp,38,↓,down,↓,0.8128348999889567,True,32,-1,0,9
Y2-S2-154K24,6,515,AS,exp,33,↑,down,↓,0.6670244999695569,False,32,-1,0,9
Y2-S2-154K24,6,516,AS,exp,47,↓,down,↓,0.7568479999899864,True,33,-1,0,9
Y2-S2-154K24,6,517,AS,exp,43,←,left,←,0.7765133999055251,True,33,-1,0,9
Y2-S2-154K24,6,518,AS,exp,28,↓,down,↓,0.6338414999190718,True,33,1,1,10
Y2-S2-154K24,6,519,AS,exp,39,→,right,→,0.6504642999498174,True,32,1,0,10
Y2-S2-154K24,6,520,AS,exp,38,↑,up,↑,0.46776259993202984,True,32,1,0,10
Y2-S2-154K24,6,521,AS,exp,41,←,left,←,0.5504988000029698,True,32,1,0,10
Y2-S2-154K24,6,522,AS,exp,39,↓,down,↓,0.8070247999858111,True,31,1,0,10
Y2-S2-154K24,6,523,AS,exp,30,→,right,→,0.733833699952811,True,31,1,0,10
Y2-S2-154K24,6,524,AS,exp,38,↓,no_key,no_letter,-1.0,False,31,-1,1,11
Y2-S2-154K24,6,525,AS,exp,40,↑,up,↑,0.7759042999241501,True,32,-1,0,11
Y2-S2-154K24,6,526,AS,exp,39,↓,down,↓,0.844750199932605,True,32,-1,0,11
Y2-S2-154K24,6,527,AS,exp,25,→,right,→,0.7684287000447512,True,32,1,1,12
Y2-S2-154K24,6,528,AS,exp,25,←,left,←,0.6968736000126228,True,31,1,0,12
Y2-S2-154K24,6,529,AS,exp,33,↑,up,↑,0.7727111000567675,True,31,1,0,12
Y2-S2-154K24,6,530,AS,exp,45,→,right,→,0.7323843999765813,True,31,1,0,12
Y2-S2-154K24,6,531,AS,exp,35,←,right,→,0.6337726999772713,False,30,-1,1,13
Y2-S2-154K24,6,532,AS,exp,44,↑,up,↑,0.5505319000221789,True,31,-1,0,13
Y2-S2-154K24,6,533,AS,exp,34,↓,down,↓,0.5174666000530124,True,31,-1,0,13
Y2-S2-154K24,6,534,AS,exp,42,↑,up,↑,0.6507121999748051,True,31,1,1,14
Y2-S2-154K24,6,535,AS,exp,31,←,left,←,0.853167699999176,True,30,1,0,14
Y2-S2-154K24,6,536,AS,exp,33,↓,down,↓,0.8894394999369979,True,30,1,0,14
Y2-S2-154K24,6,537,AS,exp,43,↑,up,↑,0.8268106000032276,True,30,1,0,14
Y2-S2-154K24,6,538,AS,exp,43,→,no_key,no_letter,-1.0,False,29,-1,1,15
Y2-S2-154K24,6,539,AS,exp,28,↓,down,↓,0.5672945999540389,True,30,-1,0,15
Y2-S2-154K24,6,540,AS,exp,41,↑,up,↑,1.0598320999415591,True,30,-1,0,15
Y2-S2-154K24,6,541,AS,exp,45,←,left,←,0.7005673999665305,True,30,1,1,16
Y2-S2-154K24,7,542,AS,intra_train,34,↑,up,↑,0.6170164999784902,True,34,-,-,-
Y2-S2-154K24,7,543,AS,intra_train,36,↓,down,↓,0.550801599980332,True,34,-,-,-
Y2-S2-154K24,7,544,AS,intra_train,36,→,down,↓,0.6339634000323713,False,34,-,-,-
Y2-S2-154K24,7,545,AS,intra_train,25,↑,up,↑,0.7581372000277042,True,34,-,-,-
Y2-S2-154K24,7,546,AS,intra_train,44,→,right,→,0.7005307000363246,True,34,-,-,-
Y2-S2-154K24,7,547,AS,exp,34,←,left,←,0.7467894000001252,True,23,0,0,0
Y2-S2-154K24,7,548,AS,exp,34,↓,down,↓,0.7853437000885606,True,23,0,0,0
Y2-S2-154K24,7,549,AS,exp,34,↑,up,↑,0.48396830004639924,True,23,1,0,0
Y2-S2-154K24,7,550,AS,exp,44,→,right,→,0.40070599992759526,True,22,1,0,0
Y2-S2-154K24,7,551,AS,exp,32,←,left,←,0.5941442999755964,True,22,1,0,0
Y2-S2-154K24,7,552,AS,exp,41,→,right,→,0.45089560002088547,True,22,1,0,0
Y2-S2-154K24,7,553,AS,exp,45,↓,down,↓,0.576424099970609,True,21,1,0,0
Y2-S2-154K24,7,554,AS,exp,43,↑,up,↑,0.4672061000019312,True,21,1,0,0
Y2-S2-154K24,7,555,AS,exp,26,←,left,←,1.1646696000825614,True,21,1,0,0
Y2-S2-154K24,7,556,AS,exp,29,→,up,↑,0.8663344000233337,False,20,-1,1,1
Y2-S2-154K24,7,557,AS,exp,26,←,no_key,no_letter,-1.0,False,21,-1,0,1
Y2-S2-154K24,7,558,AS,exp,41,↑,up,↑,0.48389800009317696,True,22,-1,0,1
Y2-S2-154K24,7,559,AS,exp,36,↓,down,↓,0.5797001000028104,True,22,-1,0,1
Y2-S2-154K24,7,560,AS,exp,27,←,right,→,0.5447397000389174,False,22,-1,0,1
Y2-S2-154K24,7,561,AS,exp,41,→,up,↑,1.2547725000185892,False,23,-1,0,1
Y2-S2-154K24,7,562,AS,exp,35,↓,down,↓,0.5008523999713361,True,24,-1,0,1
Y2-S2-154K24,7,563,AS,exp,47,→,right,→,0.5004289000062272,True,24,-1,0,1
Y2-S2-154K24,7,564,AS,exp,43,↓,down,↓,0.6417922000400722,True,24,1,1,2
Y2-S2-154K24,7,565,AS,exp,46,→,right,→,0.5944982999935746,True,23,1,0,2
Y2-S2-154K24,7,566,AS,exp,34,←,left,←,0.45065919996704906,True,23,1,0,2
Y2-S2-154K24,7,567,AS,exp,28,↓,down,↓,0.756122300052084,True,23,1,0,2
Y2-S2-154K24,7,568,AS,exp,38,←,right,→,0.8333612999413162,False,22,-1,1,3
Y2-S2-154K24,7,569,AS,exp,49,→,no_key,no_letter,-1.0,False,23,-1,0,3
Y2-S2-154K24,7,570,AS,exp,45,↑,up,↑,0.517250599921681,True,24,-1,0,3
Y2-S2-154K24,7,571,AS,exp,47,←,left,←,0.6321758999256417,True,24,-1,0,3
Y2-S2-154K24,7,572,AS,exp,44,→,right,→,0.6668754999991506,True,24,1,1,4
Y2-S2-154K24,7,573,AS,exp,34,↓,down,↓,0.6453749000793323,True,23,1,0,4
Y2-S2-154K24,7,574,AS,exp,38,↑,up,↑,0.4837586999638006,True,23,1,0,4
Y2-S2-154K24,7,575,AS,exp,40,→,no_key,no_letter,-1.0,False,23,-1,1,5
Y2-S2-154K24,7,576,AS,exp,29,↓,down,↓,0.8472101999213919,True,24,-1,0,5
Y2-S2-154K24,7,577,AS,exp,44,→,right,→,0.5340994000434875,True,24,-1,0,5
Y2-S2-154K24,7,578,AS,exp,45,↓,down,↓,0.5339187999488786,True,24,1,1,6
Y2-S2-154K24,7,579,AS,exp,48,↑,up,↑,0.6199172999477014,True,23,1,0,6
Y2-S2-154K24,7,580,AS,exp,44,←,no_key,no_letter,-1.0,False,23,-1,1,7
Y2-S2-154K24,7,581,AS,exp,35,→,right,→,0.5005408000433818,True,24,-1,0,7
Y2-S2-154K24,7,582,AS,exp,50,↑,no_key,no_letter,-1.0,False,24,-1,0,7
Y2-S2-154K24,7,583,AS,exp,25,←,left,←,0.6299718000227585,True,25,-1,0,7
Y2-S2-154K24,7,584,AS,exp,34,→,right,→,0.636746000032872,True,25,-1,0,7
Y2-S2-154K24,7,585,AS,exp,33,↓,down,↓,0.8188095999648795,True,25,1,1,8
Y2-S2-154K24,7,586,AS,exp,33,←,left,←,0.4505667999619618,True,24,1,0,8
Y2-S2-154K24,7,587,AS,exp,32,↓,up,↑,0.7433791999937966,False,24,-1,1,9
Y2-S2-154K24,7,588,AS,exp,27,→,right,→,0.6676235999912024,True,25,-1,0,9
Y2-S2-154K24,7,589,AS,exp,49,↓,down,↓,0.656488599954173,True,25,-1,0,9
Y2-S2-154K24,7,590,AS,exp,50,↑,up,↑,0.4339653999777511,True,25,1,1,10
Y2-S2-154K24,7,591,AS,exp,25,←,left,←,0.5820505999727175,True,24,1,0,10
Y2-S2-154K24,7,592,AS,exp,27,↓,up,↑,0.6655322998994961,False,24,-1,1,11
Y2-S2-154K24,7,593,AS,exp,43,→,right,→,0.4671898999949917,True,25,-1,0,11
Y2-S2-154K24,7,594,AS,exp,28,↑,down,↓,0.6671042999951169,False,25,-1,0,11
Y2-S2-154K24,7,595,AS,exp,41,↓,down,↓,0.6579877000767738,True,26,-1,0,11
Y2-S2-154K24,7,596,AS,exp,47,→,right,→,0.43382749997545034,True,26,-1,0,11
Y2-S2-154K24,7,597,AS,exp,47,←,right,→,0.6442979000275955,False,26,-1,0,11
Y2-S2-154K24,7,598,AS,exp,26,↑,up,↑,0.4507647999562323,True,27,-1,0,11
Y2-S2-154K24,7,599,AS,exp,37,→,right,→,0.483763900003396,True,27,-1,0,11
Y2-S2-154K24,7,600,AS,exp,32,↓,down,↓,0.8743988000787795,True,27,1,1,12
Y2-S2-154K24,7,601,AS,exp,28,←,left,←,0.45035059994552284,True,26,1,0,12
Y2-S2-154K24,7,602,AS,exp,45,↑,down,↓,0.9114346000133082,False,26,-1,1,13
Y2-S2-154K24,7,603,AS,exp,25,↓,down,↓,0.7419933000346646,True,27,-1,0,13
Y2-S2-154K24,7,604,AS,exp,26,↑,up,↑,0.8143984000198543,True,27,-1,0,13
Y2-S2-154K24,7,605,AS,exp,29,←,left,←,0.4338790000183508,True,27,1,1,14
Y2-S2-154K24,7,606,AS,exp,30,↓,down,↓,0.6644135999958962,True,26,1,0,14
Y2-S2-154K24,7,607,AS,exp,29,→,right,→,0.5004119999939576,True,26,1,0,14
Y2-S2-154K24,7,608,AS,exp,50,←,left,←,0.9000229999655858,True,26,1,0,14
Y2-S2-154K24,7,609,AS,exp,42,↓,down,↓,0.6283101999433711,True,25,1,0,14
Y2-S2-154K24,7,610,AS,exp,26,↑,up,↑,0.5507753000129014,True,25,1,0,14
Y2-S2-154K24,7,611,AS,exp,48,↓,no_key,no_letter,-1.0,False,25,-1,1,15
Y2-S2-154K24,7,612,AS,exp,37,←,left,←,0.40106329997070134,True,26,-1,0,15
Y2-S2-154K24,7,613,AS,exp,48,↑,up,↑,0.5672058999771252,True,26,-1,0,15
Y2-S2-154K24,7,614,AS,exp,40,←,right,→,0.6141128001036122,False,26,-1,0,15
Y2-S2-154K24,7,615,AS,exp,47,↓,down,↓,0.4841552999569103,True,27,-1,0,15
Y2-S2-154K24,7,616,AS,exp,32,←,left,←,0.41760549996979535,True,27,-1,0,15
Y2-S2-154K24,7,617,AS,exp,39,↑,up,↑,0.7609194000251591,True,27,1,1,16
Y2-S2-154K24,8,618,PS,intra_train,29,→,right,→,0.4980754000134766,True,19,-,-,-
Y2-S2-154K24,8,619,PS,intra_train,33,↑,up,↑,0.672231400036253,True,19,-,-,-
Y2-S2-154K24,8,620,PS,intra_train,50,→,right,→,0.743319800007157,True,19,-,-,-
Y2-S2-154K24,8,621,PS,intra_train,38,↓,down,↓,0.5699604999972507,True,19,-,-,-
Y2-S2-154K24,8,622,PS,intra_train,41,↑,left,←,0.9614501000614837,False,19,-,-,-
Y2-S2-154K24,8,623,PS,exp,40,←,up,↑,0.6932252999395132,False,13,-1,0,0
Y2-S2-154K24,8,624,PS,exp,48,→,down,↓,0.8131008000345901,False,14,-1,0,0
Y2-S2-154K24,8,625,PS,exp,26,←,left,←,0.4450494999764487,True,15,-1,0,0
Y2-S2-154K24,8,626,PS,exp,42,↓,down,↓,0.47700369998347014,True,15,-1,0,0
Y2-S2-154K24,8,627,PS,exp,29,↑,up,↑,0.6350704000797123,True,15,1,1,1
Y2-S2-154K24,8,628,PS,exp,28,←,left,←,0.5251275999471545,True,14,1,0,1
Y2-S2-154K24,8,629,PS,exp,36,↓,down,↓,0.5519502999959514,True,14,1,0,1
Y2-S2-154K24,8,630,PS,exp,40,→,right,→,0.6957667999668047,True,14,1,0,1
Y2-S2-154K24,8,631,PS,exp,47,←,left,←,0.4620453999377787,True,13,1,0,1
Y2-S2-154K24,8,632,PS,exp,48,↓,down,↓,0.5792625999310985,True,13,1,0,1
Y2-S2-154K24,8,633,PS,exp,39,→,right,→,0.4132124000461772,True,13,1,0,1
Y2-S2-154K24,8,634,PS,exp,45,←,down,↓,0.8241893999511376,False,12,-1,1,2
Y2-S2-154K24,8,635,PS,exp,43,↑,up,↑,0.5082190000684932,True,13,-1,0,2
Y2-S2-154K24,8,636,PS,exp,31,←,left,←,0.5218921999912709,True,13,-1,0,2
Y2-S2-154K24,8,637,PS,exp,27,↓,down,↓,0.7851653000107035,True,13,1,1,3
Y2-S2-154K24,8,638,PS,exp,26,→,right,→,0.655536700040102,True,12,1,0,3
Y2-S2-154K24,8,639,PS,exp,30,←,left,←,0.703095700009726,True,12,1,0,3
Y2-S2-154K24,8,640,PS,exp,31,→,right,→,0.4794819999951869,True,12,1,0,3
Y2-S2-154K24,8,641,PS,exp,47,←,right,→,0.8031867999816313,False,11,-1,1,4
Y2-S2-154K24,8,642,PS,exp,36,↑,up,↑,0.5050036000320688,True,12,-1,0,4
Y2-S2-154K24,8,643,PS,exp,27,←,left,←,0.5062067001126707,True,12,-1,0,4
Y2-S2-154K24,8,644,PS,exp,33,→,right,→,0.4894046999979764,True,12,1,1,5
Y2-S2-154K24,8,645,PS,exp,46,↓,up,↑,0.8394339999649674,False,11,-1,1,6
Y2-S2-154K24,8,646,PS,exp,47,↑,down,↓,0.6570428999839351,False,12,-1,0,6
Y2-S2-154K24,8,647,PS,exp,42,↓,up,↑,0.7758364999899641,False,13,-1,0,6
Y2-S2-154K24,8,648,PS,exp,42,↑,up,↑,0.546425300068222,True,14,-1,0,6
Y2-S2-154K24,8,649,PS,exp,41,←,left,←,0.5043587000109255,True,14,-1,0,6
Y2-S2-154K24,8,650,PS,exp,28,→,right,→,0.5211632000282407,True,14,1,1,7
Y2-S2-154K24,8,651,PS,exp,47,←,left,←,0.47668560000602156,True,13,1,0,7
Y2-S2-154K24,8,652,PS,exp,49,↓,down,↓,0.4614507999503985,True,13,1,0,7
Y2-S2-154K24,8,653,PS,exp,37,→,up,↑,0.8302925999742001,False,13,-1,1,8
Y2-S2-154K24,8,654,PS,exp,46,↓,down,↓,0.5152600000146776,True,14,-1,0,8
Y2-S2-154K24,8,655,PS,exp,27,↑,up,↑,0.6448136999970302,True,14,-1,0,8
Y2-S2-154K24,8,656,PS,exp,35,→,right,→,0.6638369000284001,True,14,1,1,9
Y2-S2-154K24,8,657,PS,exp,38,↓,up,↑,0.7556110000004992,False,13,-1,1,10
Y2-S2-154K24,8,658,PS,exp,36,←,left,←,0.6035940999863669,True,14,-1,0,10
Y2-S2-154K24,8,659,PS,exp,28,→,right,→,0.7324216000270098,True,14,-1,0,10
Y2-S2-154K24,8,660,PS,exp,50,↓,up,↑,0.46031700004823506,False,14,-1,0,10
Y2-S2-154K24,8,661,PS,exp,33,↑,up,↑,0.6803785999072716,True,15,-1,0,10
Y2-S2-154K24,8,662,PS,exp,47,↓,down,↓,0.5402360999723896,True,15,-1,0,10
Y2-S2-154K24,8,663,PS,exp,44,→,right,→,0.5022634000051767,True,15,1,1,11
Y2-S2-154K24,8,664,PS,exp,34,↓,down,↓,0.5138931000838056,True,14,1,0,11
Y2-S2-154K24,8,665,PS,exp,46,←,left,←,0.44560370000544935,True,14,1,0,11
Y2-S2-154K24,8,666,PS,exp,43,→,right,→,0.5606591999530792,True,14,1,0,11
Y2-S2-154K24,8,667,PS,exp,45,↓,down,↓,0.5549039000179619,True,13,1,0,11
Y2-S2-154K24,8,668,PS,exp,26,→,left,←,0.9135720999911427,False,13,-1,1,12
Y2-S2-154K24,8,669,PS,exp,28,←,left,←,0.8594609999563545,True,14,-1,0,12
Y2-S2-154K24,8,670,PS,exp,43,→,up,↑,0.9279338999185711,False,14,-1,0,12
Y2-S2-154K24,8,671,PS,exp,43,←,left,←,0.5948260000441223,True,15,-1,0,12
Y2-S2-154K24,8,672,PS,exp,27,↑,up,↑,0.6945496998960152,True,15,-1,0,12
Y2-S2-154K24,8,673,PS,exp,36,↓,down,↓,0.5558347000041977,True,15,1,1,13
Y2-S2-154K24,8,674,PS,exp,28,↑,up,↑,0.41139340004883707,True,14,1,0,13
Y2-S2-154K24,8,675,PS,exp,28,←,left,←,0.5103573999367654,True,14,1,0,13
Y2-S2-154K24,8,676,PS,exp,38,→,left,←,0.8207350999582559,False,14,-1,1,14
Y2-S2-154K24,8,677,PS,exp,45,↑,up,↑,0.49551339994650334,True,15,-1,0,14
Y2-S2-154K24,8,678,PS,exp,34,↓,down,↓,0.49918519996572286,True,15,-1,0,14
Y2-S2-154K24,8,679,PS,exp,38,←,left,←,0.5734294999856502,True,15,1,1,15
Y2-S2-154K24,8,680,PS,exp,27,↓,up,↑,0.8520254000322893,False,14,-1,1,16
