PART_ID,Block_no,Trial_no,Block_type,Trial_type,CSI,Stim_letter,Key_pressed,letter_choose,Rt,Corr,Stimulus Time,Level,Reversal,Revs_count
Y2-S2-017K23,1,1,PS,train,49,←,left,←,0.5342797999619506,True,30,-,-,-
Y2-S2-017K23,1,2,PS,train,30,↓,down,↓,0.45121570001356304,True,30,-,-,-
Y2-S2-017K23,1,3,PS,train,26,←,left,←,0.46822969999630004,True,30,-,-,-
Y2-S2-017K23,1,4,PS,train,47,→,right,→,0.4174988000304438,True,30,-,-,-
Y2-S2-017K23,1,5,PS,train,33,↑,up,↑,0.3844120999565348,True,30,-,-,-
Y2-S2-017K23,1,6,PS,train,50,←,left,←,0.4682459000032395,True,30,-,-,-
Y2-S2-017K23,1,7,PS,train,34,↑,up,↑,0.4839672999805771,True,30,-,-,-
Y2-S2-017K23,1,8,PS,train,48,↓,down,↓,0.5510415000026114,True,30,-,-,-
Y2-S2-017K23,1,9,PS,train,37,←,left,←,0.5341146000428125,True,30,-,-,-
Y2-S2-017K23,1,10,PS,train,27,↓,down,↓,0.51718919997802,True,30,-,-,-
Y2-S2-017K23,2,11,AS,train,26,←,down,↓,0.6676550999982283,False,45,-,-,-
Y2-S2-017K23,2,12,AS,train,35,↑,up,↑,0.7177065000287257,True,45,-,-,-
Y2-S2-017K23,2,13,AS,train,50,→,right,→,0.4512875000364147,True,45,-,-,-
Y2-S2-017K23,2,14,AS,train,29,←,right,→,0.5345901999971829,False,45,-,-,-
Y2-S2-017K23,2,15,AS,train,26,→,right,→,0.7506009000353515,True,45,-,-,-
Y2-S2-017K23,2,16,AS,train,42,↓,down,↓,0.5344480000203475,True,45,-,-,-
Y2-S2-017K23,2,17,AS,train,30,↑,down,↓,0.6179709999705665,False,45,-,-,-
Y2-S2-017K23,2,18,AS,train,32,↓,down,↓,0.5505355999921449,True,45,-,-,-
Y2-S2-017K23,2,19,AS,train,31,↑,up,↑,0.4683087000157684,True,45,-,-,-
Y2-S2-017K23,2,20,AS,train,47,→,right,→,0.4340610000072047,True,45,-,-,-
Y2-S2-017K23,-,21,PS,adaptive,30,↑,up,↑,0.4188575000152923,True,10,0,0,0
Y2-S2-017K23,-,22,PS,adaptive,49,↓,down,↓,0.7821827000007033,True,10,0,0,0
Y2-S2-017K23,-,23,PS,adaptive,48,↑,up,↑,0.4184724999940954,True,10,1,0,0
Y2-S2-017K23,-,24,PS,adaptive,26,↓,left,←,1.045964500051923,False,9,-1,1,1
Y2-S2-017K23,-,25,PS,adaptive,46,←,left,←,0.39312329998938367,True,10,-1,0,1
Y2-S2-017K23,-,26,PS,adaptive,31,↑,up,↑,0.8130425999988802,True,10,-1,0,1
Y2-S2-017K23,-,27,PS,adaptive,28,↓,down,↓,0.6718868000316434,True,10,1,1,2
Y2-S2-017K23,-,28,PS,adaptive,33,→,up,↑,0.9800797000061721,False,9,-1,1,3
Y2-S2-017K23,-,29,PS,adaptive,50,↑,up,↑,0.7157983999932185,True,10,-1,0,3
Y2-S2-017K23,-,30,PS,adaptive,45,↓,down,↓,0.505227800051216,True,10,-1,0,3
Y2-S2-017K23,-,31,PS,adaptive,26,→,right,→,0.4637198999989778,True,10,1,1,4
Y2-S2-017K23,-,32,AS,adaptive,40,↑,up,↑,0.6657318000216037,True,20,0,0,0
Y2-S2-017K23,-,33,AS,adaptive,43,→,left,←,0.5737577000400051,False,20,-1,0,0
Y2-S2-017K23,-,34,AS,adaptive,41,↑,up,↑,0.8238025000318885,True,21,-1,0,0
Y2-S2-017K23,-,35,AS,adaptive,40,→,right,→,0.45139990001916885,True,21,-1,0,0
Y2-S2-017K23,-,36,AS,adaptive,27,↓,down,↓,0.5286941000376828,True,21,1,1,1
Y2-S2-017K23,-,37,AS,adaptive,33,→,right,→,0.4173758000251837,True,20,1,0,1
Y2-S2-017K23,-,38,AS,adaptive,34,←,left,←,1.2298242999822833,True,20,1,0,1
Y2-S2-017K23,-,39,AS,adaptive,28,↓,down,↓,0.9172752000158653,True,20,1,0,1
Y2-S2-017K23,-,40,AS,adaptive,47,↑,up,↑,0.5974159000325017,True,19,1,0,1
Y2-S2-017K23,-,41,AS,adaptive,47,←,left,←,0.5386965000070632,True,19,1,0,1
Y2-S2-017K23,-,42,AS,adaptive,41,→,right,→,0.6188808000297286,True,19,1,0,1
Y2-S2-017K23,-,43,AS,adaptive,36,↑,up,↑,0.4172653999994509,True,18,1,0,1
Y2-S2-017K23,-,44,AS,adaptive,50,←,left,←,0.697923699975945,True,18,1,0,1
Y2-S2-017K23,-,45,AS,adaptive,35,→,right,→,0.5742091999854892,True,18,1,0,1
Y2-S2-017K23,-,46,AS,adaptive,42,↑,up,↑,1.197558099986054,True,17,1,0,1
Y2-S2-017K23,-,47,AS,adaptive,43,←,up,↑,0.7575407000258565,False,17,-1,1,2
Y2-S2-017K23,-,48,AS,adaptive,49,↓,down,↓,0.7720628000097349,True,18,-1,0,2
Y2-S2-017K23,-,49,AS,adaptive,39,←,left,←,0.642748299986124,True,18,-1,0,2
Y2-S2-017K23,-,50,AS,adaptive,26,→,right,→,0.7514335999730974,True,18,1,1,3
Y2-S2-017K23,-,51,AS,adaptive,37,←,left,←,0.6347868000157177,True,17,1,0,3
Y2-S2-017K23,-,52,AS,adaptive,47,↑,up,↑,0.49731720000272617,True,17,1,0,3
Y2-S2-017K23,-,53,AS,adaptive,30,←,up,↑,0.6340434000012465,False,17,-1,1,4
Y2-S2-017K23,1,54,PS,intra_train,34,→,right,→,0.5325031999964267,True,13,-,-,-
Y2-S2-017K23,1,55,PS,intra_train,31,←,right,→,0.45445469999685884,False,13,-,-,-
Y2-S2-017K23,1,56,PS,intra_train,50,↓,down,↓,0.5771412000176497,True,13,-,-,-
Y2-S2-017K23,1,57,PS,intra_train,32,→,down,↓,0.9777948000119068,False,13,-,-,-
Y2-S2-017K23,1,58,PS,intra_train,31,↑,up,↑,0.5835759000037797,True,13,-,-,-
Y2-S2-017K23,1,59,PS,exp,26,←,left,←,0.6017479000147432,True,9,0,0,0
Y2-S2-017K23,1,60,PS,exp,49,→,right,→,0.49268229998415336,True,9,0,0,0
Y2-S2-017K23,1,61,PS,exp,45,←,right,→,0.43146079999860376,False,9,-1,0,0
Y2-S2-017K23,1,62,PS,exp,47,→,right,→,0.6930032999953255,True,10,-1,0,0
Y2-S2-017K23,1,63,PS,exp,42,↓,down,↓,0.6056118999840692,True,10,-1,0,0
Y2-S2-017K23,1,64,PS,exp,29,→,right,→,0.5785797999706119,True,10,1,1,1
Y2-S2-017K23,1,65,PS,exp,29,←,left,←,0.46697569999378175,True,9,1,0,1
Y2-S2-017K23,1,66,PS,exp,47,↓,down,↓,1.2719006999977864,True,9,1,0,1
Y2-S2-017K23,1,67,PS,exp,46,↑,up,↑,0.48056509997695684,True,9,1,0,1
Y2-S2-017K23,1,68,PS,exp,37,→,left,←,0.21808710001641884,False,8,-1,1,2
Y2-S2-017K23,1,69,PS,exp,33,↓,down,↓,0.5747704000095837,True,9,-1,0,2
Y2-S2-017K23,1,70,PS,exp,32,←,left,←,0.4341499999864027,True,9,-1,0,2
Y2-S2-017K23,1,71,PS,exp,32,↑,up,↑,0.5042785000405274,True,9,1,1,3
Y2-S2-017K23,1,72,PS,exp,34,↓,down,↓,0.6833111000014469,True,8,1,0,3
Y2-S2-017K23,1,73,PS,exp,32,↑,up,↑,0.481550500029698,True,8,1,0,3
Y2-S2-017K23,1,74,PS,exp,28,→,right,→,0.5419174000271596,True,8,1,0,3
Y2-S2-017K23,1,75,PS,exp,32,←,right,→,0.3704769000178203,False,7,-1,1,4
Y2-S2-017K23,1,76,PS,exp,28,↓,right,→,0.4964308000053279,False,8,-1,0,4
Y2-S2-017K23,1,77,PS,exp,47,→,right,→,0.8249686000053771,True,9,-1,0,4
Y2-S2-017K23,1,78,PS,exp,26,←,left,←,0.6720455000177026,True,9,-1,0,4
Y2-S2-017K23,1,79,PS,exp,38,↓,left,←,0.9410992999910377,False,9,-1,0,4
Y2-S2-017K23,1,80,PS,exp,45,←,right,→,0.7257338000345044,False,10,-1,0,4
Y2-S2-017K23,1,81,PS,exp,26,↓,down,↓,0.5706489000003785,True,11,-1,0,4
Y2-S2-017K23,1,82,PS,exp,32,→,right,→,0.45298569998703897,True,11,-1,0,4
Y2-S2-017K23,1,83,PS,exp,35,↓,down,↓,0.6279948000446893,True,11,1,1,5
Y2-S2-017K23,1,84,PS,exp,27,←,left,←,0.6729163000127301,True,10,1,0,5
Y2-S2-017K23,1,85,PS,exp,38,↑,right,→,0.4757272999850102,False,10,-1,1,6
Y2-S2-017K23,1,86,PS,exp,50,↓,right,→,0.7100917000207119,False,11,-1,0,6
Y2-S2-017K23,1,87,PS,exp,30,↑,up,↑,0.4708379000076093,True,12,-1,0,6
Y2-S2-017K23,1,88,PS,exp,37,←,left,←,0.46062790002906695,True,12,-1,0,6
Y2-S2-017K23,1,89,PS,exp,33,↑,up,↑,0.7544141999678686,True,12,1,1,7
Y2-S2-017K23,1,90,PS,exp,26,→,right,→,0.48537949996534735,True,11,1,0,7
Y2-S2-017K23,1,91,PS,exp,44,↓,down,↓,0.5750438999966718,True,11,1,0,7
Y2-S2-017K23,1,92,PS,exp,33,↑,up,↑,0.5291664999676868,True,11,1,0,7
Y2-S2-017K23,1,93,PS,exp,39,←,left,←,0.39047990000108257,True,10,1,0,7
Y2-S2-017K23,1,94,PS,exp,40,↓,down,↓,0.5908135000499897,True,10,1,0,7
Y2-S2-017K23,1,95,PS,exp,42,↑,left,←,0.5343780999537557,False,10,-1,1,8
Y2-S2-017K23,1,96,PS,exp,26,←,left,←,0.49540900002466515,True,11,-1,0,8
Y2-S2-017K23,1,97,PS,exp,37,↓,down,↓,0.5342811999726109,True,11,-1,0,8
Y2-S2-017K23,1,98,PS,exp,32,←,left,←,0.5091934000374749,True,11,1,1,9
Y2-S2-017K23,1,99,PS,exp,27,↓,down,↓,0.39267840003594756,True,10,1,0,9
Y2-S2-017K23,1,100,PS,exp,49,→,right,→,0.42008990002796054,True,10,1,0,9
Y2-S2-017K23,1,101,PS,exp,34,←,left,←,0.38274440000532195,True,10,1,0,9
Y2-S2-017K23,1,102,PS,exp,49,↓,down,↓,0.6718157999566756,True,9,1,0,9
Y2-S2-017K23,1,103,PS,exp,50,←,left,←,0.3457505000405945,True,9,1,0,9
Y2-S2-017K23,1,104,PS,exp,42,↑,right,→,0.766840800002683,False,9,-1,1,10
Y2-S2-017K23,1,105,PS,exp,42,↓,down,↓,0.4206129999947734,True,10,-1,0,10
Y2-S2-017K23,1,106,PS,exp,34,→,right,→,0.36580480000702664,True,10,-1,0,10
Y2-S2-017K23,1,107,PS,exp,49,↓,right,→,0.5708339000120759,False,10,-1,0,10
Y2-S2-017K23,1,108,PS,exp,31,→,right,→,0.3877923999680206,True,11,-1,0,10
Y2-S2-017K23,1,109,PS,exp,43,↑,up,↑,0.4988606999977492,True,11,-1,0,10
Y2-S2-017K23,1,110,PS,exp,44,→,right,→,0.4270355000044219,True,11,1,1,11
Y2-S2-017K23,1,111,PS,exp,26,←,left,←,0.5062276000389829,True,10,1,0,11
Y2-S2-017K23,1,112,PS,exp,32,↑,up,↑,0.545354200003203,True,10,1,0,11
Y2-S2-017K23,1,113,PS,exp,47,→,right,→,0.42601450002985075,True,10,1,0,11
Y2-S2-017K23,1,114,PS,exp,35,↑,up,↑,0.47623000002931803,True,9,1,0,11
Y2-S2-017K23,1,115,PS,exp,48,←,left,←,0.4163023000000976,True,9,1,0,11
Y2-S2-017K23,1,116,PS,exp,49,↑,right,→,0.43408660002751276,False,9,-1,1,12
Y2-S2-017K23,1,117,PS,exp,26,→,no_key,no_letter,-1.0,False,10,-1,0,12
Y2-S2-017K23,1,118,PS,exp,50,↑,right,→,0.37224070000229403,False,11,-1,0,12
Y2-S2-017K23,1,119,PS,exp,47,←,right,→,0.5357786999666132,False,12,-1,0,12
Y2-S2-017K23,1,120,PS,exp,39,↑,right,→,0.30055510002421215,False,13,-1,0,12
Y2-S2-017K23,1,121,PS,exp,47,↓,right,→,0.2839797000051476,False,14,-1,0,12
Y2-S2-017K23,1,122,PS,exp,42,→,left,←,0.7517943000420928,False,15,-1,0,12
Y2-S2-017K23,1,123,PS,exp,27,←,left,←,0.6552461999817751,True,16,-1,0,12
Y2-S2-017K23,1,124,PS,exp,38,↓,down,↓,0.5614261999726295,True,16,-1,0,12
Y2-S2-017K23,1,125,PS,exp,47,→,no_key,no_letter,-1.0,False,16,-1,0,12
Y2-S2-017K23,1,126,PS,exp,50,←,right,→,0.29958589997841045,False,17,-1,0,12
Y2-S2-017K23,1,127,PS,exp,50,↑,up,↑,0.5489352999720722,True,18,-1,0,12
Y2-S2-017K23,1,128,PS,exp,32,→,left,←,0.4005862000049092,False,18,-1,0,12
Y2-S2-017K23,1,129,PS,exp,50,←,left,←,0.43425470002694055,True,19,-1,0,12
Y2-S2-017K23,1,130,PS,exp,27,↓,down,↓,0.5528933000168763,True,19,-1,0,12
Y2-S2-017K23,1,131,PS,exp,27,←,no_key,no_letter,-1.0,False,19,-1,0,12
Y2-S2-017K23,1,132,PS,exp,27,↓,down,↓,0.5423359999549575,True,20,-1,0,12
Y2-S2-017K23,1,133,PS,exp,40,→,right,→,0.4336961000226438,True,20,-1,0,12
Y2-S2-017K23,1,134,PS,exp,42,←,left,←,1.735655099968426,True,20,1,1,13
Y2-S2-017K23,1,135,PS,exp,29,→,right,→,0.3671226999722421,True,19,1,0,13
Y2-S2-017K23,1,136,PS,exp,27,↓,down,↓,0.6142867000307888,True,19,1,0,13
Y2-S2-017K23,1,137,PS,exp,39,→,right,→,0.5147124000359327,True,19,1,0,13
Y2-S2-017K23,1,138,PS,exp,44,↑,right,→,0.8345770000014454,False,18,-1,1,14
Y2-S2-017K23,1,139,PS,exp,31,↓,down,↓,0.525681099970825,True,19,-1,0,14
Y2-S2-017K23,1,140,PS,exp,34,←,left,←,0.5274097999790683,True,19,-1,0,14
Y2-S2-017K23,1,141,PS,exp,34,↑,up,↑,0.5241136000258848,True,19,1,1,15
Y2-S2-017K23,1,142,PS,exp,47,↓,down,↓,0.4175816000206396,True,18,1,0,15
Y2-S2-017K23,1,143,PS,exp,29,↑,up,↑,1.1153076000045985,True,18,1,0,15
Y2-S2-017K23,1,144,PS,exp,30,→,right,→,1.3461840999661945,True,18,1,0,15
Y2-S2-017K23,1,145,PS,exp,40,←,left,←,1.0991479000076652,True,17,1,0,15
Y2-S2-017K23,1,146,PS,exp,25,↓,down,↓,0.5471899000112899,True,17,1,0,15
Y2-S2-017K23,1,147,PS,exp,45,←,left,←,1.4477073000161909,True,17,1,0,15
Y2-S2-017K23,1,148,PS,exp,50,↓,down,↓,0.6266524000093341,True,16,1,0,15
Y2-S2-017K23,1,149,PS,exp,43,↑,up,↑,0.6673673000186682,True,16,1,0,15
Y2-S2-017K23,1,150,PS,exp,50,↓,down,↓,0.5659302999847569,True,16,1,0,15
Y2-S2-017K23,1,151,PS,exp,26,←,left,←,0.6221621999866329,True,15,1,0,15
Y2-S2-017K23,1,152,PS,exp,49,↓,down,↓,0.5518940999754705,True,15,1,0,15
Y2-S2-017K23,1,153,PS,exp,33,→,right,→,0.9378876999835484,True,15,1,0,15
Y2-S2-017K23,1,154,PS,exp,48,↓,down,↓,0.5312575999996625,True,14,1,0,15
Y2-S2-017K23,1,155,PS,exp,43,←,left,←,0.9114146999781951,True,14,1,0,15
Y2-S2-017K23,1,156,PS,exp,32,→,right,→,0.7893037000321783,True,14,1,0,15
Y2-S2-017K23,1,157,PS,exp,26,↑,up,↑,0.5351723000057973,True,13,1,0,15
Y2-S2-017K23,1,158,PS,exp,40,→,right,→,0.40969649999169633,True,13,1,0,15
Y2-S2-017K23,1,159,PS,exp,47,↑,up,↑,0.43376280000666156,True,13,1,0,15
Y2-S2-017K23,1,160,PS,exp,27,→,left,←,0.790708500018809,False,12,-1,1,16
Y2-S2-017K23,2,161,AS,intra_train,34,←,left,←,0.43423149996669963,True,27,-,-,-
Y2-S2-017K23,2,162,AS,intra_train,41,↑,up,↑,0.7348495000042021,True,27,-,-,-
Y2-S2-017K23,2,163,AS,intra_train,49,←,left,←,0.4339234000071883,True,27,-,-,-
Y2-S2-017K23,2,164,AS,intra_train,47,↓,up,↑,0.7499275999725796,False,27,-,-,-
Y2-S2-017K23,2,165,AS,intra_train,25,←,left,←,0.5169666000292636,True,27,-,-,-
Y2-S2-017K23,2,166,AS,exp,29,↓,up,↑,0.626033800013829,False,18,-1,0,0
Y2-S2-017K23,2,167,AS,exp,41,←,left,←,0.802910000027623,True,19,-1,0,0
Y2-S2-017K23,2,168,AS,exp,31,→,right,→,0.3838662000489421,True,19,-1,0,0
Y2-S2-017K23,2,169,AS,exp,42,↑,up,↑,1.8593173999688588,True,19,1,1,1
Y2-S2-017K23,2,170,AS,exp,50,→,right,→,0.967983600043226,True,18,1,0,1
Y2-S2-017K23,2,171,AS,exp,45,↓,down,↓,0.6210522999754176,True,18,1,0,1
Y2-S2-017K23,2,172,AS,exp,44,←,left,←,0.5084518999792635,True,18,1,0,1
Y2-S2-017K23,2,173,AS,exp,40,↓,up,↑,0.7486471000011079,False,17,-1,1,2
Y2-S2-017K23,2,174,AS,exp,34,→,right,→,0.4813298999797553,True,18,-1,0,2
Y2-S2-017K23,2,175,AS,exp,48,←,up,↑,0.777851999970153,False,18,-1,0,2
Y2-S2-017K23,2,176,AS,exp,32,→,right,→,1.0158264999627136,True,19,-1,0,2
Y2-S2-017K23,2,177,AS,exp,33,↑,up,↑,0.450349599996116,True,19,-1,0,2
Y2-S2-017K23,2,178,AS,exp,27,←,left,←,0.4504542999784462,True,19,1,1,3
Y2-S2-017K23,2,179,AS,exp,46,↑,up,↑,0.5008247999940068,True,18,1,0,3
Y2-S2-017K23,2,180,AS,exp,45,←,left,←,0.6544649999705143,True,18,1,0,3
Y2-S2-017K23,2,181,AS,exp,29,↑,up,↑,0.5997379999607801,True,18,1,0,3
Y2-S2-017K23,2,182,AS,exp,25,↓,left,←,1.0789588000043295,False,17,-1,1,4
Y2-S2-017K23,2,183,AS,exp,36,→,right,→,1.0031059000175446,True,18,-1,0,4
Y2-S2-017K23,2,184,AS,exp,30,↑,up,↑,0.6416516000172123,True,18,-1,0,4
Y2-S2-017K23,2,185,AS,exp,45,←,left,←,0.641919199959375,True,18,1,1,5
Y2-S2-017K23,2,186,AS,exp,45,↑,right,→,0.8032996000256389,False,17,-1,1,6
Y2-S2-017K23,2,187,AS,exp,25,→,right,→,0.41757670004153624,True,18,-1,0,6
Y2-S2-017K23,2,188,AS,exp,50,↓,down,↓,0.5190639999927953,True,18,-1,0,6
Y2-S2-017K23,2,189,AS,exp,49,↑,right,→,0.9464360999991186,False,18,-1,0,6
Y2-S2-017K23,2,190,AS,exp,31,←,left,←,0.9820945999817923,True,19,-1,0,6
Y2-S2-017K23,2,191,AS,exp,35,↑,down,↓,1.0745613999897614,False,19,-1,0,6
Y2-S2-017K23,2,192,AS,exp,33,←,left,←,0.6559234000160359,True,20,-1,0,6
Y2-S2-017K23,2,193,AS,exp,44,↑,up,↑,0.5088559999712743,True,20,-1,0,6
Y2-S2-017K23,2,194,AS,exp,36,↓,down,↓,0.7195002000080422,True,20,1,1,7
Y2-S2-017K23,2,195,AS,exp,40,↑,up,↑,0.49338919995352626,True,19,1,0,7
Y2-S2-017K23,2,196,AS,exp,38,←,left,←,0.5425961000146344,True,19,1,0,7
Y2-S2-017K23,2,197,AS,exp,25,→,no_key,no_letter,-1.0,False,19,-1,1,8
Y2-S2-017K23,2,198,AS,exp,41,↑,up,↑,0.5122466000029817,True,20,-1,0,8
Y2-S2-017K23,2,199,AS,exp,43,→,right,→,0.582333100028336,True,20,-1,0,8
Y2-S2-017K23,2,200,AS,exp,31,↓,down,↓,0.45081349997781217,True,20,1,1,9
Y2-S2-017K23,2,201,AS,exp,40,→,down,↓,0.8899686000077054,False,19,-1,1,10
Y2-S2-017K23,2,202,AS,exp,50,↓,down,↓,0.6905450000194833,True,20,-1,0,10
Y2-S2-017K23,2,203,AS,exp,40,←,left,←,0.7763329999870621,True,20,-1,0,10
Y2-S2-017K23,2,204,AS,exp,30,↓,no_key,no_letter,-1.0,False,20,-1,0,10
Y2-S2-017K23,2,205,AS,exp,28,↑,up,↑,0.7170005000079982,True,21,-1,0,10
Y2-S2-017K23,2,206,AS,exp,27,→,right,→,0.885194499976933,True,21,-1,0,10
Y2-S2-017K23,2,207,AS,exp,50,↓,down,↓,0.6233648000052199,True,21,1,1,11
Y2-S2-017K23,2,208,AS,exp,29,→,right,→,0.8129804000491276,True,20,1,0,11
Y2-S2-017K23,2,209,AS,exp,30,↑,up,↑,0.7663092999719083,True,20,1,0,11
Y2-S2-017K23,2,210,AS,exp,39,←,right,→,0.7732292000437155,False,20,-1,1,12
Y2-S2-017K23,2,211,AS,exp,28,→,right,→,0.46723910002037883,True,21,-1,0,12
Y2-S2-017K23,2,212,AS,exp,47,↑,up,↑,0.4508096000063233,True,21,-1,0,12
Y2-S2-017K23,2,213,AS,exp,39,→,right,→,0.6697802999988198,True,21,1,1,13
Y2-S2-017K23,2,214,AS,exp,31,←,left,←,0.7393850999651477,True,20,1,0,13
Y2-S2-017K23,2,215,AS,exp,26,↑,up,↑,0.5737388000125065,True,20,1,0,13
Y2-S2-017K23,2,216,AS,exp,35,←,left,←,0.50398259999929,True,20,1,0,13
Y2-S2-017K23,2,217,AS,exp,40,↑,up,↑,0.6283262000069954,True,19,1,0,13
Y2-S2-017K23,2,218,AS,exp,48,↓,down,↓,0.7392966999905184,True,19,1,0,13
Y2-S2-017K23,2,219,AS,exp,40,←,left,←,0.736097399960272,True,19,1,0,13
Y2-S2-017K23,2,220,AS,exp,34,↑,up,↑,0.873840200016275,True,18,1,0,13
Y2-S2-017K23,2,221,AS,exp,46,→,right,→,0.47456110001076013,True,18,1,0,13
Y2-S2-017K23,2,222,AS,exp,42,↑,up,↑,0.5157638000091538,True,18,1,0,13
Y2-S2-017K23,2,223,AS,exp,38,→,right,→,0.4909130000160076,True,17,1,0,13
Y2-S2-017K23,2,224,AS,exp,28,↓,down,↓,0.7011248999624513,True,17,1,0,13
Y2-S2-017K23,2,225,AS,exp,38,←,up,↑,0.5942651000223123,False,17,-1,1,14
Y2-S2-017K23,2,226,AS,exp,27,↓,down,↓,0.7207353999838233,True,18,-1,0,14
Y2-S2-017K23,2,227,AS,exp,45,←,left,←,0.9324420000193641,True,18,-1,0,14
Y2-S2-017K23,2,228,AS,exp,43,↑,up,↑,0.6577964999596588,True,18,1,1,15
Y2-S2-017K23,2,229,AS,exp,37,←,left,←,0.46801569999661297,True,17,1,0,15
Y2-S2-017K23,2,230,AS,exp,38,↓,down,↓,0.6465914999716915,True,17,1,0,15
Y2-S2-017K23,2,231,AS,exp,41,→,right,→,1.004754800000228,True,17,1,0,15
Y2-S2-017K23,2,232,AS,exp,40,↓,down,↓,0.5886100000352599,True,16,1,0,15
Y2-S2-017K23,2,233,AS,exp,42,↑,up,↑,0.4597987000015564,True,16,1,0,15
Y2-S2-017K23,2,234,AS,exp,34,↓,down,↓,0.5929732999647968,True,16,1,0,15
Y2-S2-017K23,2,235,AS,exp,49,←,down,↓,0.9215648000244983,False,15,-1,1,16
Y2-S2-017K23,3,236,AS,intra_train,44,↑,up,↑,0.43430739996256307,True,27,-,-,-
Y2-S2-017K23,3,237,AS,intra_train,42,→,right,→,0.43429220002144575,True,27,-,-,-
Y2-S2-017K23,3,238,AS,intra_train,39,↓,down,↓,0.4673077000188641,True,27,-,-,-
Y2-S2-017K23,3,239,AS,intra_train,33,←,left,←,0.3846106000128202,True,27,-,-,-
Y2-S2-017K23,3,240,AS,intra_train,40,→,right,→,0.7047496999730356,True,27,-,-,-
Y2-S2-017K23,3,241,AS,exp,32,↓,down,↓,0.6253016000264324,True,18,0,0,0
Y2-S2-017K23,3,242,AS,exp,35,↑,up,↑,0.8382569000241347,True,18,0,0,0
Y2-S2-017K23,3,243,AS,exp,31,→,right,→,0.41737119999015704,True,18,1,0,0
Y2-S2-017K23,3,244,AS,exp,41,←,left,←,1.173747299995739,True,17,1,0,0
Y2-S2-017K23,3,245,AS,exp,31,↓,down,↓,0.49432910000905395,True,17,1,0,0
Y2-S2-017K23,3,246,AS,exp,29,←,left,←,0.6791426999843679,True,17,1,0,0
Y2-S2-017K23,3,247,AS,exp,48,↓,right,→,0.9873489000019617,False,16,-1,1,1
Y2-S2-017K23,3,248,AS,exp,35,↑,right,→,0.8881115000112914,False,17,-1,0,1
Y2-S2-017K23,3,249,AS,exp,40,→,right,→,0.9026577000040561,True,18,-1,0,1
Y2-S2-017K23,3,250,AS,exp,50,↑,up,↑,0.6984530999907292,True,18,-1,0,1
Y2-S2-017K23,3,251,AS,exp,46,←,left,←,0.5834614000050351,True,18,1,1,2
Y2-S2-017K23,3,252,AS,exp,36,→,right,→,1.0260847000172362,True,17,1,0,2
Y2-S2-017K23,3,253,AS,exp,28,←,left,←,0.5694090999895707,True,17,1,0,2
Y2-S2-017K23,3,254,AS,exp,32,↓,down,↓,0.8674489999539219,True,17,1,0,2
Y2-S2-017K23,3,255,AS,exp,39,↑,right,→,0.8030761000118218,False,16,-1,1,3
Y2-S2-017K23,3,256,AS,exp,49,←,left,←,0.6313505000434816,True,17,-1,0,3
Y2-S2-017K23,3,257,AS,exp,46,↑,up,↑,0.8412019000388682,True,17,-1,0,3
Y2-S2-017K23,3,258,AS,exp,31,→,right,→,0.6391739000100642,True,17,1,1,4
Y2-S2-017K23,3,259,AS,exp,36,↑,up,↑,0.4693910999922082,True,16,1,0,4
Y2-S2-017K23,3,260,AS,exp,45,←,left,←,0.8739577000378631,True,16,1,0,4
Y2-S2-017K23,3,261,AS,exp,42,→,right,→,0.618667499977164,True,16,1,0,4
Y2-S2-017K23,3,262,AS,exp,30,←,left,←,0.9081320999539457,True,15,1,0,4
Y2-S2-017K23,3,263,AS,exp,26,→,right,→,0.8587272000149824,True,15,1,0,4
Y2-S2-017K23,3,264,AS,exp,29,←,left,←,0.6918805000022985,True,15,1,0,4
Y2-S2-017K23,3,265,AS,exp,27,↑,right,→,0.8516131000360474,False,14,-1,1,5
Y2-S2-017K23,3,266,AS,exp,42,←,left,←,0.6963856999645941,True,15,-1,0,5
Y2-S2-017K23,3,267,AS,exp,48,↓,down,↓,0.5717616000329144,True,15,-1,0,5
Y2-S2-017K23,3,268,AS,exp,40,←,left,←,0.5233621000079438,True,15,1,1,6
Y2-S2-017K23,3,269,AS,exp,44,→,right,→,0.9833313000272028,True,14,1,0,6
Y2-S2-017K23,3,270,AS,exp,29,←,down,↓,0.6666653999709524,False,14,-1,1,7
Y2-S2-017K23,3,271,AS,exp,48,→,right,→,0.46358030004194006,True,15,-1,0,7
Y2-S2-017K23,3,272,AS,exp,44,←,up,↑,0.9798097999882884,False,15,-1,0,7
Y2-S2-017K23,3,273,AS,exp,47,↑,up,↑,0.4905078000156209,True,16,-1,0,7
Y2-S2-017K23,3,274,AS,exp,41,↓,down,↓,0.6447753999964334,True,16,-1,0,7
Y2-S2-017K23,3,275,AS,exp,30,↑,up,↑,0.9134627999737859,True,16,1,1,8
Y2-S2-017K23,3,276,AS,exp,36,←,left,←,0.422693700005766,True,15,1,0,8
Y2-S2-017K23,3,277,AS,exp,49,↑,up,↑,0.4225399999995716,True,15,1,0,8
Y2-S2-017K23,3,278,AS,exp,43,↓,down,↓,0.8179831000161357,True,15,1,0,8
Y2-S2-017K23,3,279,AS,exp,26,←,left,←,0.4628648999496363,True,14,1,0,8
Y2-S2-017K23,3,280,AS,exp,41,↓,up,↑,0.6143779999692924,False,14,-1,1,9
Y2-S2-017K23,3,281,AS,exp,28,←,up,↑,0.7208933000219986,False,15,-1,0,9
Y2-S2-017K23,3,282,AS,exp,36,↑,up,↑,0.36728609999408945,True,16,-1,0,9
Y2-S2-017K23,3,283,AS,exp,38,↓,down,↓,0.5208151999977417,True,16,-1,0,9
Y2-S2-017K23,3,284,AS,exp,26,←,left,←,0.5416885999729857,True,16,1,1,10
Y2-S2-017K23,3,285,AS,exp,31,↑,up,↑,0.3673333000042476,True,15,1,0,10
Y2-S2-017K23,3,286,AS,exp,26,↓,right,→,0.46628699998836964,False,15,-1,1,11
Y2-S2-017K23,3,287,AS,exp,31,↑,up,↑,1.1732646999880672,True,16,-1,0,11
Y2-S2-017K23,3,288,AS,exp,26,←,left,←,0.471530300041195,True,16,-1,0,11
Y2-S2-017K23,3,289,AS,exp,40,↑,up,↑,0.4006811000290327,True,16,1,1,12
Y2-S2-017K23,3,290,AS,exp,48,←,left,←,0.4187227000365965,True,15,1,0,12
Y2-S2-017K23,3,291,AS,exp,30,↓,up,↑,0.5547643000027165,False,15,-1,1,13
Y2-S2-017K23,3,292,AS,exp,47,←,up,↑,0.31732909998390824,False,16,-1,0,13
Y2-S2-017K23,3,293,AS,exp,37,↓,up,↑,0.7272412999882363,False,17,-1,0,13
Y2-S2-017K23,3,294,AS,exp,32,→,right,→,0.6374336999724619,True,18,-1,0,13
Y2-S2-017K23,3,295,AS,exp,44,↓,down,↓,0.5072979999822564,True,18,-1,0,13
Y2-S2-017K23,3,296,AS,exp,37,→,right,→,0.6195595000172034,True,18,1,1,14
Y2-S2-017K23,3,297,AS,exp,48,←,left,←,0.9086535000242293,True,17,1,0,14
Y2-S2-017K23,3,298,AS,exp,41,↑,up,↑,0.5756824999698438,True,17,1,0,14
Y2-S2-017K23,3,299,AS,exp,37,←,right,→,0.46441840002080426,False,17,-1,1,15
Y2-S2-017K23,3,300,AS,exp,34,↓,down,↓,0.5012428999762051,True,18,-1,0,15
Y2-S2-017K23,3,301,AS,exp,29,→,right,→,0.41759129997808486,True,18,-1,0,15
Y2-S2-017K23,3,302,AS,exp,30,←,left,←,0.49575659999391064,True,18,1,1,16
Y2-S2-017K23,4,303,PS,intra_train,35,↑,down,↓,1.730953700025566,False,13,-,-,-
Y2-S2-017K23,4,304,PS,intra_train,42,→,right,→,0.5464857000042684,True,13,-,-,-
Y2-S2-017K23,4,305,PS,intra_train,40,↑,up,↑,0.4208640999859199,True,13,-,-,-
Y2-S2-017K23,4,306,PS,intra_train,37,←,left,←,1.1374446999980137,True,13,-,-,-
Y2-S2-017K23,4,307,PS,intra_train,28,↓,down,↓,0.5952287999680266,True,13,-,-,-
Y2-S2-017K23,4,308,PS,exp,25,→,right,→,0.614970600057859,True,9,0,0,0
Y2-S2-017K23,4,309,PS,exp,44,↓,down,↓,0.7468732999986969,True,9,0,0,0
Y2-S2-017K23,4,310,PS,exp,47,↑,right,→,0.9539659999427386,False,9,-1,0,0
Y2-S2-017K23,4,311,PS,exp,50,↓,down,↓,0.5054322000360116,True,10,-1,0,0
Y2-S2-017K23,4,312,PS,exp,26,←,down,↓,0.8264586000004783,False,10,-1,0,0
Y2-S2-017K23,4,313,PS,exp,40,→,right,→,0.9345998999779113,True,11,-1,0,0
Y2-S2-017K23,4,314,PS,exp,47,↑,up,↑,0.5537667999742553,True,11,-1,0,0
Y2-S2-017K23,4,315,PS,exp,47,↓,up,↑,0.7292345999740064,False,11,-1,0,0
Y2-S2-017K23,4,316,PS,exp,28,←,up,↑,0.5747381999972276,False,12,-1,0,0
Y2-S2-017K23,4,317,PS,exp,30,↓,down,↓,0.7510978999780491,True,13,-1,0,0
Y2-S2-017K23,4,318,PS,exp,25,←,left,←,0.5235926999594085,True,13,-1,0,0
Y2-S2-017K23,4,319,PS,exp,35,↑,up,↑,0.49041279999073595,True,13,1,1,1
Y2-S2-017K23,4,320,PS,exp,26,←,right,→,0.7466989000095055,False,12,-1,1,2
Y2-S2-017K23,4,321,PS,exp,44,↑,up,↑,0.5074330999632366,True,13,-1,0,2
Y2-S2-017K23,4,322,PS,exp,25,→,right,→,0.4019452999928035,True,13,-1,0,2
Y2-S2-017K23,4,323,PS,exp,28,←,left,←,0.6546245000208728,True,13,1,1,3
Y2-S2-017K23,4,324,PS,exp,44,↑,up,↑,0.38718839996727183,True,12,1,0,3
Y2-S2-017K23,4,325,PS,exp,44,←,right,→,0.7755665000295267,False,12,-1,1,4
Y2-S2-017K23,4,326,PS,exp,30,→,right,→,0.40658170002279803,True,13,-1,0,4
Y2-S2-017K23,4,327,PS,exp,37,↑,up,↑,0.4014309999765828,True,13,-1,0,4
Y2-S2-017K23,4,328,PS,exp,42,→,right,→,0.4117153000552207,True,13,1,1,5
Y2-S2-017K23,4,329,PS,exp,49,↓,down,↓,0.5355104999616742,True,12,1,0,5
Y2-S2-017K23,4,330,PS,exp,40,↑,up,↑,1.0499199000187218,True,12,1,0,5
Y2-S2-017K23,4,331,PS,exp,45,←,left,←,0.6333839000435546,True,12,1,0,5
Y2-S2-017K23,4,332,PS,exp,44,→,right,→,0.4796178000397049,True,11,1,0,5
Y2-S2-017K23,4,333,PS,exp,47,↓,down,↓,0.7031172999995761,True,11,1,0,5
Y2-S2-017K23,4,334,PS,exp,42,→,right,→,0.48033719998784363,True,11,1,0,5
Y2-S2-017K23,4,335,PS,exp,29,↑,up,↑,0.5196835999959148,True,10,1,0,5
Y2-S2-017K23,4,336,PS,exp,26,↓,down,↓,0.4974854000029154,True,10,1,0,5
Y2-S2-017K23,4,337,PS,exp,28,↑,down,↓,0.7063143000123091,False,10,-1,1,6
Y2-S2-017K23,4,338,PS,exp,29,↓,right,→,0.38487810001242906,False,11,-1,0,6
Y2-S2-017K23,4,339,PS,exp,32,↑,up,↑,0.5395328999729827,True,12,-1,0,6
Y2-S2-017K23,4,340,PS,exp,28,↓,down,↓,0.3977743000141345,True,12,-1,0,6
Y2-S2-017K23,4,341,PS,exp,49,←,left,←,0.8057110999943689,True,12,1,1,7
Y2-S2-017K23,4,342,PS,exp,44,↑,up,↑,0.46060559997567907,True,11,1,0,7
Y2-S2-017K23,4,343,PS,exp,30,←,right,→,0.7964355000294745,False,11,-1,1,8
Y2-S2-017K23,4,344,PS,exp,36,↑,up,↑,0.5376864999998361,True,12,-1,0,8
Y2-S2-017K23,4,345,PS,exp,36,→,right,→,0.4370702000451274,True,12,-1,0,8
Y2-S2-017K23,4,346,PS,exp,43,←,left,←,0.7741614000406116,True,12,1,1,9
Y2-S2-017K23,4,347,PS,exp,26,→,right,→,0.3926138000097126,True,11,1,0,9
Y2-S2-017K23,4,348,PS,exp,39,↓,right,→,0.7102978000184521,False,11,-1,1,10
Y2-S2-017K23,4,349,PS,exp,48,→,right,→,0.6637031999998726,True,12,-1,0,10
Y2-S2-017K23,4,350,PS,exp,28,↓,down,↓,0.6832591000129469,True,12,-1,0,10
Y2-S2-017K23,4,351,PS,exp,29,→,right,→,1.111564799968619,True,12,1,1,11
Y2-S2-017K23,4,352,PS,exp,39,↓,down,↓,0.5138156000175513,True,11,1,0,11
Y2-S2-017K23,4,353,PS,exp,46,←,left,←,0.5531670000054874,True,11,1,0,11
Y2-S2-017K23,4,354,PS,exp,34,↑,down,↓,0.7047439999878407,False,11,-1,1,12
Y2-S2-017K23,4,355,PS,exp,31,↓,down,↓,0.5452134999795817,True,12,-1,0,12
Y2-S2-017K23,4,356,PS,exp,33,→,right,→,0.7543372000218369,True,12,-1,0,12
Y2-S2-017K23,4,357,PS,exp,34,↑,up,↑,0.6245217999676242,True,12,1,1,13
Y2-S2-017K23,4,358,PS,exp,36,→,up,↑,0.5727517000050284,False,11,-1,1,14
Y2-S2-017K23,4,359,PS,exp,35,↓,down,↓,0.473480099986773,True,12,-1,0,14
Y2-S2-017K23,4,360,PS,exp,36,→,down,↓,0.6865600000019185,False,12,-1,0,14
Y2-S2-017K23,4,361,PS,exp,37,↑,up,↑,0.6393384000402875,True,13,-1,0,14
Y2-S2-017K23,4,362,PS,exp,33,↓,down,↓,0.41399380000075325,True,13,-1,0,14
Y2-S2-017K23,4,363,PS,exp,41,←,down,↓,0.8026023999555036,False,13,-1,0,14
Y2-S2-017K23,4,364,PS,exp,49,→,right,→,0.5314124999567866,True,14,-1,0,14
Y2-S2-017K23,4,365,PS,exp,36,←,left,←,0.9264975999831222,True,14,-1,0,14
Y2-S2-017K23,4,366,PS,exp,43,↓,down,↓,0.5099450999987312,True,14,1,1,15
Y2-S2-017K23,4,367,PS,exp,30,←,left,←,0.7109443000517786,True,13,1,0,15
Y2-S2-017K23,4,368,PS,exp,30,↓,down,↓,0.4862010999931954,True,13,1,0,15
Y2-S2-017K23,4,369,PS,exp,49,←,left,←,0.4624797999858856,True,13,1,0,15
Y2-S2-017K23,4,370,PS,exp,29,→,right,→,0.4645203999825753,True,12,1,0,15
Y2-S2-017K23,4,371,PS,exp,47,↑,up,↑,0.43005249998532236,True,12,1,0,15
Y2-S2-017K23,4,372,PS,exp,25,→,right,→,0.7734389000106603,True,12,1,0,15
Y2-S2-017K23,4,373,PS,exp,33,↓,down,↓,0.8084364999667741,True,11,1,0,15
Y2-S2-017K23,4,374,PS,exp,30,→,right,→,0.4679418999585323,True,11,1,0,15
Y2-S2-017K23,4,375,PS,exp,36,↓,right,→,0.6244416999979876,False,11,-1,1,16
Y2-S2-017K23,5,376,PS,intra_train,34,↑,up,↑,0.5496567999944091,True,13,-,-,-
Y2-S2-017K23,5,377,PS,intra_train,48,←,left,←,0.5332838000031188,True,13,-,-,-
Y2-S2-017K23,5,378,PS,intra_train,44,→,right,→,0.42245610000099987,True,13,-,-,-
Y2-S2-017K23,5,379,PS,intra_train,28,↑,up,↑,0.5081653000088409,True,13,-,-,-
Y2-S2-017K23,5,380,PS,intra_train,45,←,left,←,0.41359660000307485,True,13,-,-,-
Y2-S2-017K23,5,381,PS,exp,49,↑,left,←,0.5969831999973394,False,9,-1,0,0
Y2-S2-017K23,5,382,PS,exp,32,→,left,←,0.7050262000411749,False,10,-1,0,0
Y2-S2-017K23,5,383,PS,exp,36,←,right,→,0.6569918000022881,False,11,-1,0,0
Y2-S2-017K23,5,384,PS,exp,50,↓,right,→,0.952675900014583,False,12,-1,0,0
Y2-S2-017K23,5,385,PS,exp,38,←,left,←,0.46906279999529943,True,13,-1,0,0
Y2-S2-017K23,5,386,PS,exp,42,↑,right,→,0.7915513000334613,False,13,-1,0,0
Y2-S2-017K23,5,387,PS,exp,48,↓,down,↓,0.598805200017523,True,14,-1,0,0
Y2-S2-017K23,5,388,PS,exp,27,→,right,→,0.44755329994950444,True,14,-1,0,0
Y2-S2-017K23,5,389,PS,exp,50,↓,down,↓,0.4008797000278719,True,14,1,1,1
Y2-S2-017K23,5,390,PS,exp,38,→,right,→,0.4032504999777302,True,13,1,0,1
Y2-S2-017K23,5,391,PS,exp,33,↓,right,→,0.6159341000020504,False,13,-1,1,2
Y2-S2-017K23,5,392,PS,exp,34,→,right,→,1.0281096000107937,True,14,-1,0,2
Y2-S2-017K23,5,393,PS,exp,30,←,right,→,0.5871726999757811,False,14,-1,0,2
Y2-S2-017K23,5,394,PS,exp,36,↑,up,↑,0.5141971000120975,True,15,-1,0,2
Y2-S2-017K23,5,395,PS,exp,46,→,right,→,0.4688463000347838,True,15,-1,0,2
Y2-S2-017K23,5,396,PS,exp,44,↓,down,↓,0.598054800007958,True,15,1,1,3
Y2-S2-017K23,5,397,PS,exp,44,→,right,→,1.0014473000192083,True,14,1,0,3
Y2-S2-017K23,5,398,PS,exp,34,↓,down,↓,0.7507207000162452,True,14,1,0,3
Y2-S2-017K23,5,399,PS,exp,44,↑,up,↑,0.5969439999898896,True,14,1,0,3
Y2-S2-017K23,5,400,PS,exp,49,↓,down,↓,0.598039299948141,True,13,1,0,3
Y2-S2-017K23,5,401,PS,exp,46,→,right,→,0.4561509999912232,True,13,1,0,3
Y2-S2-017K23,5,402,PS,exp,48,←,left,←,0.5419001000118442,True,13,1,0,3
Y2-S2-017K23,5,403,PS,exp,35,↓,right,→,0.6282777999876998,False,12,-1,1,4
Y2-S2-017K23,5,404,PS,exp,32,←,left,←,0.5881030000164174,True,13,-1,0,4
Y2-S2-017K23,5,405,PS,exp,25,↑,up,↑,0.5253729000105523,True,13,-1,0,4
Y2-S2-017K23,5,406,PS,exp,41,←,right,→,0.44313879997935146,False,13,-1,0,4
Y2-S2-017K23,5,407,PS,exp,27,→,right,→,0.9160917999688536,True,14,-1,0,4
Y2-S2-017K23,5,408,PS,exp,47,↓,up,↑,0.7357025999808684,False,14,-1,0,4
Y2-S2-017K23,5,409,PS,exp,32,→,right,→,0.8261213999940082,True,15,-1,0,4
Y2-S2-017K23,5,410,PS,exp,32,↑,up,↑,0.49553260003449395,True,15,-1,0,4
Y2-S2-017K23,5,411,PS,exp,43,→,right,→,0.5394306999514811,True,15,1,1,5
Y2-S2-017K23,5,412,PS,exp,47,↑,up,↑,0.47394370002439246,True,14,1,0,5
Y2-S2-017K23,5,413,PS,exp,42,→,right,→,0.42332010000245646,True,14,1,0,5
Y2-S2-017K23,5,414,PS,exp,46,←,left,←,0.7517607000190765,True,14,1,0,5
Y2-S2-017K23,5,415,PS,exp,41,→,right,→,0.8555566999712028,True,13,1,0,5
Y2-S2-017K23,5,416,PS,exp,34,←,left,←,0.6568696000031196,True,13,1,0,5
Y2-S2-017K23,5,417,PS,exp,29,↓,down,↓,0.6534967999905348,True,13,1,0,5
Y2-S2-017K23,5,418,PS,exp,30,→,right,→,0.4513351999921724,True,12,1,0,5
Y2-S2-017K23,5,419,PS,exp,29,↓,down,↓,0.48037760000443086,True,12,1,0,5
Y2-S2-017K23,5,420,PS,exp,29,→,right,→,0.4481508999597281,True,12,1,0,5
Y2-S2-017K23,5,421,PS,exp,41,↓,down,↓,0.558696800027974,True,11,1,0,5
Y2-S2-017K23,5,422,PS,exp,42,←,left,←,0.5742053999565542,True,11,1,0,5
Y2-S2-017K23,5,423,PS,exp,27,↑,up,↑,0.4730547999497503,True,11,1,0,5
Y2-S2-017K23,5,424,PS,exp,28,→,right,→,0.425467099994421,True,10,1,0,5
Y2-S2-017K23,5,425,PS,exp,45,↑,up,↑,0.5940480999997817,True,10,1,0,5
Y2-S2-017K23,5,426,PS,exp,28,←,left,←,0.4125636999960989,True,10,1,0,5
Y2-S2-017K23,5,427,PS,exp,32,↑,right,→,0.6482170000090264,False,9,-1,1,6
Y2-S2-017K23,5,428,PS,exp,49,↓,down,↓,0.6109505000058562,True,10,-1,0,6
Y2-S2-017K23,5,429,PS,exp,27,→,right,→,0.4471977000357583,True,10,-1,0,6
Y2-S2-017K23,5,430,PS,exp,48,←,left,←,0.572027399961371,True,10,1,1,7
Y2-S2-017K23,5,431,PS,exp,49,↓,left,←,0.9916911000036635,False,9,-1,1,8
Y2-S2-017K23,5,432,PS,exp,29,←,left,←,0.6543351000291295,True,10,-1,0,8
Y2-S2-017K23,5,433,PS,exp,37,→,right,→,0.42601190001005307,True,10,-1,0,8
Y2-S2-017K23,5,434,PS,exp,37,↓,down,↓,0.4660833000089042,True,10,1,1,9
Y2-S2-017K23,5,435,PS,exp,33,→,down,↓,0.6128935000160709,False,9,-1,1,10
Y2-S2-017K23,5,436,PS,exp,42,↓,left,←,0.5961169999791309,False,10,-1,0,10
Y2-S2-017K23,5,437,PS,exp,44,↑,down,↓,0.5207787999534048,False,11,-1,0,10
Y2-S2-017K23,5,438,PS,exp,41,→,right,→,0.5424387999810278,True,12,-1,0,10
Y2-S2-017K23,5,439,PS,exp,26,↑,up,↑,0.5022129999706522,True,12,-1,0,10
Y2-S2-017K23,5,440,PS,exp,45,←,left,←,0.47011059999931604,True,12,1,1,11
Y2-S2-017K23,5,441,PS,exp,37,→,right,→,0.6157001999672502,True,11,1,0,11
Y2-S2-017K23,5,442,PS,exp,42,↑,left,←,0.3703413000330329,False,11,-1,1,12
Y2-S2-017K23,5,443,PS,exp,27,→,up,↑,0.8380519000347704,False,12,-1,0,12
Y2-S2-017K23,5,444,PS,exp,36,↓,down,↓,0.46836440003244206,True,13,-1,0,12
Y2-S2-017K23,5,445,PS,exp,44,↑,up,↑,0.5025279000401497,True,13,-1,0,12
Y2-S2-017K23,5,446,PS,exp,46,↓,down,↓,0.5070838999818079,True,13,1,1,13
Y2-S2-017K23,5,447,PS,exp,42,↑,up,↑,0.38341890001902357,True,12,1,0,13
Y2-S2-017K23,5,448,PS,exp,47,↓,down,↓,0.5165729000000283,True,12,1,0,13
Y2-S2-017K23,5,449,PS,exp,48,→,left,←,0.5982060999958776,False,12,-1,1,14
Y2-S2-017K23,5,450,PS,exp,33,↓,down,↓,0.5870392000069842,True,13,-1,0,14
Y2-S2-017K23,5,451,PS,exp,50,←,left,←,0.4912577999639325,True,13,-1,0,14
Y2-S2-017K23,5,452,PS,exp,30,↑,up,↑,0.5084831999847665,True,13,1,1,15
Y2-S2-017K23,5,453,PS,exp,25,↓,down,↓,0.5639266999787651,True,12,1,0,15
Y2-S2-017K23,5,454,PS,exp,49,→,right,→,0.48717529996065423,True,12,1,0,15
Y2-S2-017K23,5,455,PS,exp,43,↑,up,↑,0.38399260002188385,True,12,1,0,15
Y2-S2-017K23,5,456,PS,exp,43,→,up,↑,1.0509860000456683,False,11,-1,1,16
Y2-S2-017K23,6,457,AS,intra_train,30,↓,down,↓,0.651576699980069,True,27,-,-,-
Y2-S2-017K23,6,458,AS,intra_train,44,↑,up,↑,0.4669962999760173,True,27,-,-,-
Y2-S2-017K23,6,459,AS,intra_train,28,←,left,←,0.43399259995203465,True,27,-,-,-
Y2-S2-017K23,6,460,AS,intra_train,46,↓,down,↓,0.46722749999025837,True,27,-,-,-
Y2-S2-017K23,6,461,AS,intra_train,25,↑,up,↑,0.7597144999890588,True,27,-,-,-
Y2-S2-017K23,6,462,AS,exp,33,←,left,←,0.47061560000292957,True,18,0,0,0
Y2-S2-017K23,6,463,AS,exp,44,→,right,→,0.6463031999883242,True,18,0,0,0
Y2-S2-017K23,6,464,AS,exp,32,←,left,←,0.40088179998565465,True,18,1,0,0
Y2-S2-017K23,6,465,AS,exp,30,↑,up,↑,0.35089409997453913,True,17,1,0,0
Y2-S2-017K23,6,466,AS,exp,44,→,left,←,0.9007219999912195,False,17,-1,1,1
Y2-S2-017K23,6,467,AS,exp,45,↑,up,↑,0.6301520999986678,True,18,-1,0,1
Y2-S2-017K23,6,468,AS,exp,40,↓,up,↑,0.8534513000049628,False,18,-1,0,1
Y2-S2-017K23,6,469,AS,exp,31,←,left,←,0.4504726000013761,True,19,-1,0,1
Y2-S2-017K23,6,470,AS,exp,37,↓,down,↓,0.5221182000241242,True,19,-1,0,1
Y2-S2-017K23,6,471,AS,exp,35,↑,up,↑,0.8753256999771111,True,19,1,1,2
Y2-S2-017K23,6,472,AS,exp,34,→,right,→,0.6329197000013664,True,18,1,0,2
Y2-S2-017K23,6,473,AS,exp,30,←,left,←,0.6342841999721713,True,18,1,0,2
Y2-S2-017K23,6,474,AS,exp,25,↓,no_key,no_letter,-1.0,False,18,-1,1,3
Y2-S2-017K23,6,475,AS,exp,26,↑,up,↑,0.6268338999943808,True,19,-1,0,3
Y2-S2-017K23,6,476,AS,exp,41,→,right,→,0.7676251999801025,True,19,-1,0,3
Y2-S2-017K23,6,477,AS,exp,49,←,left,←,0.6012137000216171,True,19,1,1,4
Y2-S2-017K23,6,478,AS,exp,30,↑,right,→,0.9580412000068463,False,18,-1,1,5
Y2-S2-017K23,6,479,AS,exp,26,←,left,←,0.7595906000351533,True,19,-1,0,5
Y2-S2-017K23,6,480,AS,exp,26,→,right,→,0.43391339998925105,True,19,-1,0,5
Y2-S2-017K23,6,481,AS,exp,43,←,left,←,0.7526284999912605,True,19,1,1,6
Y2-S2-017K23,6,482,AS,exp,49,↑,up,↑,0.705024000024423,True,18,1,0,6
Y2-S2-017K23,6,483,AS,exp,25,←,left,←,1.0024883999722078,True,18,1,0,6
Y2-S2-017K23,6,484,AS,exp,43,→,right,→,0.43404299998655915,True,18,1,0,6
Y2-S2-017K23,6,485,AS,exp,38,←,left,←,0.4172872999915853,True,17,1,0,6
Y2-S2-017K23,6,486,AS,exp,33,↑,up,↑,0.3839017999707721,True,17,1,0,6
Y2-S2-017K23,6,487,AS,exp,33,→,right,→,0.7215610999846831,True,17,1,0,6
Y2-S2-017K23,6,488,AS,exp,45,↓,down,↓,0.7119496999657713,True,16,1,0,6
Y2-S2-017K23,6,489,AS,exp,46,→,right,→,0.8846437999745831,True,16,1,0,6
Y2-S2-017K23,6,490,AS,exp,39,↓,down,↓,0.6086113000055775,True,16,1,0,6
Y2-S2-017K23,6,491,AS,exp,31,↑,up,↑,0.4956711999839172,True,15,1,0,6
Y2-S2-017K23,6,492,AS,exp,34,↓,down,↓,0.43031229998450726,True,15,1,0,6
Y2-S2-017K23,6,493,AS,exp,31,←,right,→,0.8385545999626629,False,15,-1,1,7
Y2-S2-017K23,6,494,AS,exp,31,→,right,→,0.40052209998248145,True,16,-1,0,7
Y2-S2-017K23,6,495,AS,exp,44,↓,down,↓,0.6184915999765508,True,16,-1,0,7
Y2-S2-017K23,6,496,AS,exp,27,←,right,→,0.8554344999720342,False,16,-1,0,7
Y2-S2-017K23,6,497,AS,exp,35,↑,up,↑,1.8865736000007018,True,17,-1,0,7
Y2-S2-017K23,6,498,AS,exp,29,↓,down,↓,0.5446903000120074,True,17,-1,0,7
Y2-S2-017K23,6,499,AS,exp,33,↑,up,↑,0.6816265999805182,True,17,1,1,8
Y2-S2-017K23,6,500,AS,exp,29,←,left,←,0.8631918000173755,True,16,1,0,8
Y2-S2-017K23,6,501,AS,exp,25,→,right,→,0.5896663999883458,True,16,1,0,8
Y2-S2-017K23,6,502,AS,exp,41,←,right,→,0.6816778999636881,False,16,-1,1,9
Y2-S2-017K23,6,503,AS,exp,49,↓,down,↓,0.7305210999911651,True,17,-1,0,9
Y2-S2-017K23,6,504,AS,exp,33,→,right,→,0.40051489998586476,True,17,-1,0,9
Y2-S2-017K23,6,505,AS,exp,25,←,left,←,0.5050545999547467,True,17,1,1,10
Y2-S2-017K23,6,506,AS,exp,26,↑,up,↑,1.401585099985823,True,16,1,0,10
Y2-S2-017K23,6,507,AS,exp,31,↓,up,↑,0.6032590999966487,False,16,-1,1,11
Y2-S2-017K23,6,508,AS,exp,44,←,left,←,0.474352799996268,True,17,-1,0,11
Y2-S2-017K23,6,509,AS,exp,31,↓,down,↓,0.7732620000024326,True,17,-1,0,11
Y2-S2-017K23,6,510,AS,exp,44,↑,up,↑,0.5647286999737844,True,17,1,1,12
Y2-S2-017K23,6,511,AS,exp,34,↓,up,↑,0.5737579999840818,False,16,-1,1,13
Y2-S2-017K23,6,512,AS,exp,28,←,down,↓,0.7634776000049897,False,17,-1,0,13
Y2-S2-017K23,6,513,AS,exp,26,↑,up,↑,0.47323629999300465,True,18,-1,0,13
Y2-S2-017K23,6,514,AS,exp,38,→,right,→,0.5752681999583729,True,18,-1,0,13
Y2-S2-017K23,6,515,AS,exp,34,↑,down,↓,0.8246560000116006,False,18,-1,0,13
Y2-S2-017K23,6,516,AS,exp,35,←,left,←,0.36780870001530275,True,19,-1,0,13
Y2-S2-017K23,6,517,AS,exp,33,↑,up,↑,0.6086805000086315,True,19,-1,0,13
Y2-S2-017K23,6,518,AS,exp,29,→,right,→,0.43381570000201464,True,19,1,1,14
Y2-S2-017K23,6,519,AS,exp,26,↓,down,↓,0.7129256999469362,True,18,1,0,14
Y2-S2-017K23,6,520,AS,exp,48,→,right,→,0.5874559000367299,True,18,1,0,14
Y2-S2-017K23,6,521,AS,exp,36,←,left,←,0.5114317000261508,True,18,1,0,14
Y2-S2-017K23,6,522,AS,exp,31,↑,up,↑,0.40063650003867224,True,17,1,0,14
Y2-S2-017K23,6,523,AS,exp,25,→,right,→,0.6378079999703914,True,17,1,0,14
Y2-S2-017K23,6,524,AS,exp,35,↓,left,←,0.9799024000531062,False,17,-1,1,15
Y2-S2-017K23,6,525,AS,exp,31,←,left,←,0.952493200020399,True,18,-1,0,15
Y2-S2-017K23,6,526,AS,exp,50,→,right,→,0.6421016000094824,True,18,-1,0,15
Y2-S2-017K23,6,527,AS,exp,26,←,left,←,0.581346399965696,True,18,1,1,16
Y2-S2-017K23,7,528,AS,intra_train,49,→,right,→,0.6303491999860853,True,27,-,-,-
Y2-S2-017K23,7,529,AS,intra_train,27,↓,down,↓,0.6812580999685451,True,27,-,-,-
Y2-S2-017K23,7,530,AS,intra_train,32,←,left,←,0.4010262999800034,True,27,-,-,-
Y2-S2-017K23,7,531,AS,intra_train,26,↓,down,↓,0.30105499998899177,True,27,-,-,-
Y2-S2-017K23,7,532,AS,intra_train,42,↑,up,↑,0.8482103999704123,True,27,-,-,-
Y2-S2-017K23,7,533,AS,exp,32,→,right,→,0.5892419999581762,True,18,0,0,0
Y2-S2-017K23,7,534,AS,exp,46,↓,down,↓,0.6121399000403471,True,18,0,0,0
Y2-S2-017K23,7,535,AS,exp,48,→,right,→,0.5233885999768972,True,18,1,0,0
Y2-S2-017K23,7,536,AS,exp,34,←,left,←,0.6451994000235572,True,17,1,0,0
Y2-S2-017K23,7,537,AS,exp,30,↓,right,→,0.8035457999794744,False,17,-1,1,1
Y2-S2-017K23,7,538,AS,exp,49,↑,up,↑,0.5496860999846831,True,18,-1,0,1
Y2-S2-017K23,7,539,AS,exp,45,→,right,→,0.5974262999952771,True,18,-1,0,1
Y2-S2-017K23,7,540,AS,exp,44,↑,up,↑,0.4339541000081226,True,18,1,1,2
Y2-S2-017K23,7,541,AS,exp,41,←,left,←,0.7480831999564543,True,17,1,0,2
Y2-S2-017K23,7,542,AS,exp,40,↑,left,←,1.053232799982652,False,17,-1,1,3
Y2-S2-017K23,7,543,AS,exp,36,↓,down,↓,0.6876736999838613,True,18,-1,0,3
Y2-S2-017K23,7,544,AS,exp,48,→,right,→,0.4763513999641873,True,18,-1,0,3
Y2-S2-017K23,7,545,AS,exp,36,↓,down,↓,0.8728004000149667,True,18,1,1,4
Y2-S2-017K23,7,546,AS,exp,31,←,left,←,0.6933498999569565,True,17,1,0,4
Y2-S2-017K23,7,547,AS,exp,50,→,right,→,0.825019899988547,True,17,1,0,4
Y2-S2-017K23,7,548,AS,exp,37,←,left,←,0.8911963000427932,True,17,1,0,4
Y2-S2-017K23,7,549,AS,exp,34,↓,down,↓,0.594219200022053,True,16,1,0,4
Y2-S2-017K23,7,550,AS,exp,37,↑,up,↑,0.7437338999588974,True,16,1,0,4
Y2-S2-017K23,7,551,AS,exp,35,→,right,→,0.49417999997967854,True,16,1,0,4
Y2-S2-017K23,7,552,AS,exp,30,↓,down,↓,0.5871709999628365,True,15,1,0,4
Y2-S2-017K23,7,553,AS,exp,35,↑,up,↑,0.5245227999985218,True,15,1,0,4
Y2-S2-017K23,7,554,AS,exp,37,→,right,→,0.5502432000357658,True,15,1,0,4
Y2-S2-017K23,7,555,AS,exp,35,↓,down,↓,0.9212975999689661,True,14,1,0,4
Y2-S2-017K23,7,556,AS,exp,43,→,right,→,0.5536757999798283,True,14,1,0,4
Y2-S2-017K23,7,557,AS,exp,50,←,right,→,0.7879808999714442,False,14,-1,1,5
Y2-S2-017K23,7,558,AS,exp,43,↓,down,↓,0.6767548000207171,True,15,-1,0,5
Y2-S2-017K23,7,559,AS,exp,33,←,left,←,0.8351638999884017,True,15,-1,0,5
Y2-S2-017K23,7,560,AS,exp,28,→,right,→,1.0361560999881476,True,15,1,1,6
Y2-S2-017K23,7,561,AS,exp,34,↓,right,→,0.897561100020539,False,14,-1,1,7
Y2-S2-017K23,7,562,AS,exp,40,↑,left,←,0.8730557999806479,False,15,-1,0,7
Y2-S2-017K23,7,563,AS,exp,41,↓,left,←,0.954527199966833,False,16,-1,0,7
Y2-S2-017K23,7,564,AS,exp,50,→,right,→,0.4673877999885008,True,17,-1,0,7
Y2-S2-017K23,7,565,AS,exp,25,↓,down,↓,0.6138417000183836,True,17,-1,0,7
Y2-S2-017K23,7,566,AS,exp,48,←,left,←,0.6405282000196166,True,17,1,1,8
Y2-S2-017K23,7,567,AS,exp,48,↓,down,↓,0.7261866999906488,True,16,1,0,8
Y2-S2-017K23,7,568,AS,exp,34,→,right,→,0.6403966000070795,True,16,1,0,8
Y2-S2-017K23,7,569,AS,exp,32,←,left,←,0.4364400999620557,True,16,1,0,8
Y2-S2-017K23,7,570,AS,exp,45,↑,up,↑,0.5741788999876007,True,15,1,0,8
Y2-S2-017K23,7,571,AS,exp,34,→,right,→,0.5901127000106499,True,15,1,0,8
Y2-S2-017K23,7,572,AS,exp,25,↓,down,↓,0.6097571999998763,True,15,1,0,8
Y2-S2-017K23,7,573,AS,exp,46,→,right,→,0.6081699000205845,True,14,1,0,8
Y2-S2-017K23,7,574,AS,exp,38,←,right,→,1.1594507000409067,False,14,-1,1,9
Y2-S2-017K23,7,575,AS,exp,38,↑,up,↑,0.38370139995822683,True,15,-1,0,9
Y2-S2-017K23,7,576,AS,exp,40,←,up,↑,0.6529627999989316,False,15,-1,0,9
Y2-S2-017K23,7,577,AS,exp,25,↓,up,↑,0.628801700018812,False,16,-1,0,9
Y2-S2-017K23,7,578,AS,exp,27,→,right,→,0.38357070001075044,True,17,-1,0,9
Y2-S2-017K23,7,579,AS,exp,43,←,left,←,1.463588599988725,True,17,-1,0,9
Y2-S2-017K23,7,580,AS,exp,48,↑,up,↑,0.5840673000202514,True,17,1,1,10
Y2-S2-017K23,7,581,AS,exp,42,→,right,→,0.6382706000003964,True,16,1,0,10
Y2-S2-017K23,7,582,AS,exp,37,↓,down,↓,0.6644480000250041,True,16,1,0,10
Y2-S2-017K23,7,583,AS,exp,38,←,down,↓,0.6404933999874629,False,16,-1,1,11
Y2-S2-017K23,7,584,AS,exp,40,↑,up,↑,0.5110599000472575,True,17,-1,0,11
Y2-S2-017K23,7,585,AS,exp,44,↓,down,↓,0.6112961000180803,True,17,-1,0,11
Y2-S2-017K23,7,586,AS,exp,39,→,right,→,0.6276569999754429,True,17,1,1,12
Y2-S2-017K23,7,587,AS,exp,43,↑,up,↑,0.5039001000113785,True,16,1,0,12
Y2-S2-017K23,7,588,AS,exp,47,↓,right,→,0.908674800011795,False,16,-1,1,13
Y2-S2-017K23,7,589,AS,exp,45,↑,up,↑,0.5946322999661788,True,17,-1,0,13
Y2-S2-017K23,7,590,AS,exp,34,←,left,←,0.881674500007648,True,17,-1,0,13
Y2-S2-017K23,7,591,AS,exp,42,↓,up,↑,0.6097410999936983,False,17,-1,0,13
Y2-S2-017K23,7,592,AS,exp,45,↑,up,↑,0.36721210001269355,True,18,-1,0,13
Y2-S2-017K23,7,593,AS,exp,25,→,up,↑,0.6551073000300676,False,18,-1,0,13
Y2-S2-017K23,7,594,AS,exp,32,↓,up,↑,0.5284760999493301,False,19,-1,0,13
Y2-S2-017K23,7,595,AS,exp,38,←,up,↑,0.6536081999656744,False,20,-1,0,13
Y2-S2-017K23,7,596,AS,exp,27,↑,up,↑,0.659817399980966,True,21,-1,0,13
Y2-S2-017K23,7,597,AS,exp,41,→,right,→,0.5282930999528617,True,21,-1,0,13
Y2-S2-017K23,7,598,AS,exp,28,↑,up,↑,0.48370499996235594,True,21,1,1,14
Y2-S2-017K23,7,599,AS,exp,41,↓,down,↓,0.36731180001515895,True,20,1,0,14
Y2-S2-017K23,7,600,AS,exp,38,↑,up,↑,0.7945936000323854,True,20,1,0,14
Y2-S2-017K23,7,601,AS,exp,32,→,right,→,0.5539004000020213,True,20,1,0,14
Y2-S2-017K23,7,602,AS,exp,35,←,left,←,0.7399135999730788,True,19,1,0,14
Y2-S2-017K23,7,603,AS,exp,49,→,right,→,0.8398647999856621,True,19,1,0,14
Y2-S2-017K23,7,604,AS,exp,25,↑,up,↑,0.5078382000210695,True,19,1,0,14
Y2-S2-017K23,7,605,AS,exp,46,←,left,←,0.6457548000034876,True,18,1,0,14
Y2-S2-017K23,7,606,AS,exp,39,→,down,↓,1.229315000004135,False,18,-1,1,15
Y2-S2-017K23,7,607,AS,exp,44,←,left,←,0.5669549999875017,True,19,-1,0,15
Y2-S2-017K23,7,608,AS,exp,35,↑,up,↑,0.8410970999975689,True,19,-1,0,15
Y2-S2-017K23,7,609,AS,exp,32,↓,down,↓,0.7712859000312164,True,19,1,1,16
Y2-S2-017K23,8,610,PS,intra_train,33,→,right,→,0.4691560000064783,True,13,-,-,-
Y2-S2-017K23,8,611,PS,intra_train,34,↑,up,↑,0.5432784999720752,True,13,-,-,-
Y2-S2-017K23,8,612,PS,intra_train,47,→,right,→,0.48272470000665635,True,13,-,-,-
Y2-S2-017K23,8,613,PS,intra_train,43,↑,up,↑,0.418108299956657,True,13,-,-,-
Y2-S2-017K23,8,614,PS,intra_train,40,→,right,→,0.4141097000101581,True,13,-,-,-
Y2-S2-017K23,8,615,PS,exp,28,↓,down,↓,0.6310303999925964,True,9,0,0,0
Y2-S2-017K23,8,616,PS,exp,37,↑,left,←,0.9354910000110976,False,9,-1,0,0
Y2-S2-017K23,8,617,PS,exp,32,↓,right,→,0.6421962000313215,False,10,-1,0,0
Y2-S2-017K23,8,618,PS,exp,27,←,left,←,0.5891687999828719,True,11,-1,0,0
Y2-S2-017K23,8,619,PS,exp,29,↑,right,→,0.49749249999877065,False,11,-1,0,0
Y2-S2-017K23,8,620,PS,exp,28,↓,down,↓,0.5783185000182129,True,12,-1,0,0
Y2-S2-017K23,8,621,PS,exp,28,←,left,←,1.570885900000576,True,12,-1,0,0
Y2-S2-017K23,8,622,PS,exp,47,↑,up,↑,0.43489640002371743,True,12,1,1,1
Y2-S2-017K23,8,623,PS,exp,45,←,left,←,0.5107457000412978,True,11,1,0,1
Y2-S2-017K23,8,624,PS,exp,26,→,left,←,0.8823749999864958,False,11,-1,1,2
Y2-S2-017K23,8,625,PS,exp,45,↑,up,↑,0.39223800000036135,True,12,-1,0,2
Y2-S2-017K23,8,626,PS,exp,32,←,left,←,0.6083235999685712,True,12,-1,0,2
Y2-S2-017K23,8,627,PS,exp,41,↑,left,←,0.8273456000024453,False,12,-1,0,2
Y2-S2-017K23,8,628,PS,exp,40,↓,up,↑,0.5722733000293374,False,13,-1,0,2
Y2-S2-017K23,8,629,PS,exp,40,↑,up,↑,0.4940342999761924,True,14,-1,0,2
Y2-S2-017K23,8,630,PS,exp,28,→,right,→,0.4164432999677956,True,14,-1,0,2
Y2-S2-017K23,8,631,PS,exp,48,←,left,←,0.6154054999933578,True,14,1,1,3
Y2-S2-017K23,8,632,PS,exp,40,↑,up,↑,0.42916619998868555,True,13,1,0,3
Y2-S2-017K23,8,633,PS,exp,33,←,left,←,0.5758383999927901,True,13,1,0,3
Y2-S2-017K23,8,634,PS,exp,48,→,left,←,0.5671681999810971,False,13,-1,1,4
Y2-S2-017K23,8,635,PS,exp,34,↑,up,↑,0.42858479998540133,True,14,-1,0,4
Y2-S2-017K23,8,636,PS,exp,47,←,left,←,0.5311522000120021,True,14,-1,0,4
Y2-S2-017K23,8,637,PS,exp,47,↓,down,↓,0.5616104999789968,True,14,1,1,5
Y2-S2-017K23,8,638,PS,exp,38,→,right,→,0.4895024000434205,True,13,1,0,5
Y2-S2-017K23,8,639,PS,exp,25,←,left,←,0.4952301000012085,True,13,1,0,5
Y2-S2-017K23,8,640,PS,exp,42,↓,down,↓,0.5283520999946631,True,13,1,0,5
Y2-S2-017K23,8,641,PS,exp,37,←,left,←,0.5118214000249282,True,12,1,0,5
Y2-S2-017K23,8,642,PS,exp,33,→,right,→,0.4622603000025265,True,12,1,0,5
Y2-S2-017K23,8,643,PS,exp,40,←,right,→,0.8448880000505596,False,12,-1,1,6
Y2-S2-017K23,8,644,PS,exp,31,↑,up,↑,0.43765279999934137,True,13,-1,0,6
Y2-S2-017K23,8,645,PS,exp,36,↓,down,↓,0.5716434000059962,True,13,-1,0,6
Y2-S2-017K23,8,646,PS,exp,43,→,right,→,0.47802590002538636,True,13,1,1,7
Y2-S2-017K23,8,647,PS,exp,38,↓,down,↓,0.5434034999925643,True,12,1,0,7
Y2-S2-017K23,8,648,PS,exp,48,→,right,→,0.37966199999209493,True,12,1,0,7
Y2-S2-017K23,8,649,PS,exp,33,←,left,←,0.5513640999561176,True,12,1,0,7
Y2-S2-017K23,8,650,PS,exp,50,↑,up,↑,0.4460115000256337,True,11,1,0,7
Y2-S2-017K23,8,651,PS,exp,46,→,right,→,0.5929993000463583,True,11,1,0,7
Y2-S2-017K23,8,652,PS,exp,43,↓,down,↓,0.6019780000206083,True,11,1,0,7
Y2-S2-017K23,8,653,PS,exp,38,→,left,←,0.7126748000155203,False,10,-1,1,8
Y2-S2-017K23,8,654,PS,exp,41,←,left,←,0.48857679998036474,True,11,-1,0,8
Y2-S2-017K23,8,655,PS,exp,41,↓,down,↓,0.6468770999927074,True,11,-1,0,8
Y2-S2-017K23,8,656,PS,exp,30,→,right,→,0.8099615999963135,True,11,1,1,9
Y2-S2-017K23,8,657,PS,exp,28,↓,down,↓,0.49760619999142364,True,10,1,0,9
Y2-S2-017K23,8,658,PS,exp,31,→,right,→,0.3944872999563813,True,10,1,0,9
Y2-S2-017K23,8,659,PS,exp,32,↓,left,←,0.6202980999951251,False,10,-1,1,10
Y2-S2-017K23,8,660,PS,exp,39,↑,up,↑,0.6410483000217937,True,11,-1,0,10
Y2-S2-017K23,8,661,PS,exp,39,↓,left,←,0.832801999989897,False,11,-1,0,10
Y2-S2-017K23,8,662,PS,exp,48,←,left,←,0.5452715999563225,True,12,-1,0,10
Y2-S2-017K23,8,663,PS,exp,46,→,right,→,0.4554991000331938,True,12,-1,0,10
Y2-S2-017K23,8,664,PS,exp,45,←,left,←,1.5504059999948367,True,12,1,1,11
Y2-S2-017K23,8,665,PS,exp,37,↑,up,↑,0.4040161999873817,True,11,1,0,11
Y2-S2-017K23,8,666,PS,exp,34,←,left,←,0.43910209997557104,True,11,1,0,11
Y2-S2-017K23,8,667,PS,exp,30,→,up,↑,0.5627240000176243,False,11,-1,1,12
Y2-S2-017K23,8,668,PS,exp,46,↓,right,→,0.5011470000026748,False,12,-1,0,12
Y2-S2-017K23,8,669,PS,exp,34,↑,up,↑,0.41943030001129955,True,13,-1,0,12
Y2-S2-017K23,8,670,PS,exp,25,↓,up,↑,0.6144423999940045,False,13,-1,0,12
Y2-S2-017K23,8,671,PS,exp,47,←,left,←,1.3576121000223793,True,14,-1,0,12
Y2-S2-017K23,8,672,PS,exp,44,↓,down,↓,0.5856121999677271,True,14,-1,0,12
Y2-S2-017K23,8,673,PS,exp,32,←,left,←,0.43221130000893027,True,14,1,1,13
Y2-S2-017K23,8,674,PS,exp,48,↓,right,→,0.3175494000315666,False,13,-1,1,14
Y2-S2-017K23,8,675,PS,exp,37,←,down,↓,0.8332092000055127,False,14,-1,0,14
Y2-S2-017K23,8,676,PS,exp,40,↓,down,↓,0.8086758999852464,True,15,-1,0,14
Y2-S2-017K23,8,677,PS,exp,25,↑,right,→,0.9162934999912977,False,15,-1,0,14
Y2-S2-017K23,8,678,PS,exp,25,↓,down,↓,0.6964861999731511,True,16,-1,0,14
Y2-S2-017K23,8,679,PS,exp,33,→,right,→,1.064239700033795,True,16,-1,0,14
Y2-S2-017K23,8,680,PS,exp,42,↑,up,↑,0.6490482999943197,True,16,1,1,15
Y2-S2-017K23,8,681,PS,exp,34,→,right,→,0.5034080999903381,True,15,1,0,15
Y2-S2-017K23,8,682,PS,exp,45,↑,up,↑,0.47061409999150783,True,15,1,0,15
Y2-S2-017K23,8,683,PS,exp,38,↓,down,↓,1.0209783000173047,True,15,1,0,15
Y2-S2-017K23,8,684,PS,exp,34,↑,up,↑,0.8518775000120513,True,14,1,0,15
Y2-S2-017K23,8,685,PS,exp,45,→,right,→,0.8617922000121325,True,14,1,0,15
Y2-S2-017K23,8,686,PS,exp,25,↑,up,↑,0.5356734999804758,True,14,1,0,15
Y2-S2-017K23,8,687,PS,exp,41,↓,down,↓,0.5500288999755867,True,13,1,0,15
Y2-S2-017K23,8,688,PS,exp,35,→,right,→,0.4549778000218794,True,13,1,0,15
Y2-S2-017K23,8,689,PS,exp,30,↑,right,→,0.7110070000053383,False,13,-1,1,16
