PART_ID,Block_no,Trial_no,Block_type,Trial_type,CSI,Stim_letter,Key_pressed,letter_choose,Rt,Corr,Stimulus Time,Level,Reversal,Revs_count
Y2-S2-084K38,1,1,PS,train,47,↓,left,←,1.8579819998703897,False,30,-,-,-
Y2-S2-084K38,1,2,PS,train,47,←,left,←,0.8189269001595676,True,30,-,-,-
Y2-S2-084K38,1,3,PS,train,42,→,right,→,0.8337672003544867,True,30,-,-,-
Y2-S2-084K38,1,4,PS,train,39,↓,down,↓,1.383960799779743,True,30,-,-,-
Y2-S2-084K38,1,5,PS,train,49,↑,up,↑,0.48464860022068024,True,30,-,-,-
Y2-S2-084K38,1,6,PS,train,28,←,left,←,0.7138203997164965,True,30,-,-,-
Y2-S2-084K38,1,7,PS,train,28,→,right,→,0.6340639004483819,True,30,-,-,-
Y2-S2-084K38,1,8,PS,train,26,←,left,←,0.4851031000725925,True,30,-,-,-
Y2-S2-084K38,1,9,PS,train,27,↑,up,↑,0.5676289000548422,True,30,-,-,-
Y2-S2-084K38,1,10,PS,train,48,←,left,←,0.5670658000744879,True,30,-,-,-
Y2-S2-084K38,2,11,AS,train,43,↑,up,↑,0.6169070000760257,True,45,-,-,-
Y2-S2-084K38,2,12,AS,train,48,↓,right,→,0.6009884998202324,False,45,-,-,-
Y2-S2-084K38,2,13,AS,train,46,→,right,→,0.8005755003541708,True,45,-,-,-
Y2-S2-084K38,2,14,AS,train,49,↓,down,↓,0.9571512998081744,True,45,-,-,-
Y2-S2-084K38,2,15,AS,train,25,→,right,→,0.7335747997276485,True,45,-,-,-
Y2-S2-084K38,2,16,AS,train,40,←,left,←,0.8171540000475943,True,45,-,-,-
Y2-S2-084K38,2,17,AS,train,47,↓,down,↓,1.383065499830991,True,45,-,-,-
Y2-S2-084K38,2,18,AS,train,50,↑,up,↑,0.6511510000564158,True,45,-,-,-
Y2-S2-084K38,2,19,AS,train,43,↓,down,↓,0.7005377002060413,True,45,-,-,-
Y2-S2-084K38,2,20,AS,train,29,→,right,→,0.6345836999826133,True,45,-,-,-
Y2-S2-084K38,-,21,PS,adaptive,33,↓,down,↓,1.2249389998614788,True,10,0,0,0
Y2-S2-084K38,-,22,PS,adaptive,40,←,left,←,0.8498384999111295,True,10,0,0,0
Y2-S2-084K38,-,23,PS,adaptive,26,→,left,←,0.5544575001113117,False,10,-1,0,0
Y2-S2-084K38,-,24,PS,adaptive,37,←,left,←,0.49130250001326203,True,11,-1,0,0
Y2-S2-084K38,-,25,PS,adaptive,39,↑,left,←,0.8230451997369528,False,11,-1,0,0
Y2-S2-084K38,-,26,PS,adaptive,31,←,right,→,0.6684725000523031,False,12,-1,0,0
Y2-S2-084K38,-,27,PS,adaptive,28,↓,down,↓,0.67221669992432,True,13,-1,0,0
Y2-S2-084K38,-,28,PS,adaptive,46,→,right,→,0.5024434002116323,True,13,-1,0,0
Y2-S2-084K38,-,29,PS,adaptive,44,←,left,←,0.9185702996328473,True,13,1,1,1
Y2-S2-084K38,-,30,PS,adaptive,37,→,right,→,0.591393300332129,True,12,1,0,1
Y2-S2-084K38,-,31,PS,adaptive,33,↑,up,↑,0.5437869997695088,True,12,1,0,1
Y2-S2-084K38,-,32,PS,adaptive,44,→,right,→,0.5724837998859584,True,12,1,0,1
Y2-S2-084K38,-,33,PS,adaptive,47,←,left,←,0.49677470000460744,True,11,1,0,1
Y2-S2-084K38,-,34,PS,adaptive,25,↑,right,→,0.8550789002329111,False,11,-1,1,2
Y2-S2-084K38,-,35,PS,adaptive,29,↓,down,↓,0.650169599801302,True,12,-1,0,2
Y2-S2-084K38,-,36,PS,adaptive,28,→,right,→,0.4609608999453485,True,12,-1,0,2
Y2-S2-084K38,-,37,PS,adaptive,39,←,left,←,0.6045292997732759,True,12,1,1,3
Y2-S2-084K38,-,38,PS,adaptive,27,→,left,←,1.1877993000671268,False,11,-1,1,4
Y2-S2-084K38,-,39,AS,adaptive,49,↓,down,↓,1.1867758999578655,True,20,0,0,0
Y2-S2-084K38,-,40,AS,adaptive,26,←,left,←,0.5476663000881672,True,20,0,0,0
Y2-S2-084K38,-,41,AS,adaptive,45,↑,up,↑,0.7520190998911858,True,20,1,0,0
Y2-S2-084K38,-,42,AS,adaptive,44,←,left,←,0.5562183000147343,True,19,1,0,0
Y2-S2-084K38,-,43,AS,adaptive,30,→,right,→,0.6828642999753356,True,19,1,0,0
Y2-S2-084K38,-,44,AS,adaptive,33,↑,up,↑,0.5432008001953363,True,19,1,0,0
Y2-S2-084K38,-,45,AS,adaptive,42,←,right,→,0.609667900018394,False,18,-1,1,1
Y2-S2-084K38,-,46,AS,adaptive,47,→,right,→,0.6293684998527169,True,19,-1,0,1
Y2-S2-084K38,-,47,AS,adaptive,33,←,left,←,0.6509135998785496,True,19,-1,0,1
Y2-S2-084K38,-,48,AS,adaptive,31,↓,down,↓,0.9752933997660875,True,19,1,1,2
Y2-S2-084K38,-,49,AS,adaptive,48,→,right,→,0.5880158999934793,True,18,1,0,2
Y2-S2-084K38,-,50,AS,adaptive,27,↓,down,↓,0.7590283998288214,True,18,1,0,2
Y2-S2-084K38,-,51,AS,adaptive,28,→,right,→,0.6988026001490653,True,18,1,0,2
Y2-S2-084K38,-,52,AS,adaptive,44,←,left,←,0.5447069997899234,True,17,1,0,2
Y2-S2-084K38,-,53,AS,adaptive,33,↑,up,↑,0.759188000112772,True,17,1,0,2
Y2-S2-084K38,-,54,AS,adaptive,34,→,up,↑,0.553201099857688,False,17,-1,1,3
Y2-S2-084K38,-,55,AS,adaptive,33,←,left,←,0.5254104998894036,True,18,-1,0,3
Y2-S2-084K38,-,56,AS,adaptive,40,↓,down,↓,0.6169714997522533,True,18,-1,0,3
Y2-S2-084K38,-,57,AS,adaptive,34,→,right,→,0.5810879003256559,True,18,1,1,4
Y2-S2-084K38,1,58,AS,intra_train,37,↑,up,↑,0.792582799680531,True,25,-,-,-
Y2-S2-084K38,1,59,AS,intra_train,41,↓,down,↓,0.9587464998476207,True,25,-,-,-
Y2-S2-084K38,1,60,AS,intra_train,42,→,right,→,0.7625631997361779,True,25,-,-,-
Y2-S2-084K38,1,61,AS,intra_train,28,↑,up,↑,0.624844599980861,True,25,-,-,-
Y2-S2-084K38,1,62,AS,intra_train,38,↓,down,↓,0.9077566997148097,True,25,-,-,-
Y2-S2-084K38,1,63,AS,exp,48,←,left,←,0.8503891997970641,True,17,0,0,0
Y2-S2-084K38,1,64,AS,exp,28,↑,up,↑,1.659062399994582,True,17,0,0,0
Y2-S2-084K38,1,65,AS,exp,43,→,left,←,1.76876650005579,False,17,-1,0,0
Y2-S2-084K38,1,66,AS,exp,29,↑,up,↑,0.7780787004157901,True,18,-1,0,0
Y2-S2-084K38,1,67,AS,exp,26,→,right,→,0.896195599809289,True,18,-1,0,0
Y2-S2-084K38,1,68,AS,exp,27,↑,up,↑,0.5218925001099706,True,18,1,1,1
Y2-S2-084K38,1,69,AS,exp,50,→,right,→,0.9204885000362992,True,17,1,0,1
Y2-S2-084K38,1,70,AS,exp,43,↑,up,↑,0.601513999979943,True,17,1,0,1
Y2-S2-084K38,1,71,AS,exp,30,→,left,←,0.7596561000682414,False,17,-1,1,2
Y2-S2-084K38,1,72,AS,exp,28,↑,up,↑,0.6090359999798238,True,18,-1,0,2
Y2-S2-084K38,1,73,AS,exp,49,→,right,→,0.5017614001408219,True,18,-1,0,2
Y2-S2-084K38,1,74,AS,exp,45,←,left,←,0.826969999819994,True,18,1,1,3
Y2-S2-084K38,1,75,AS,exp,31,↑,up,↑,0.827281900215894,True,17,1,0,3
Y2-S2-084K38,1,76,AS,exp,43,→,right,→,0.5405956003814936,True,17,1,0,3
Y2-S2-084K38,1,77,AS,exp,50,←,left,←,0.6415009000338614,True,17,1,0,3
Y2-S2-084K38,1,78,AS,exp,44,↑,up,↑,1.27027179999277,True,16,1,0,3
Y2-S2-084K38,1,79,AS,exp,29,→,right,→,0.6481232000514865,True,16,1,0,3
Y2-S2-084K38,1,80,AS,exp,46,↑,up,↑,0.5582778002135456,True,16,1,0,3
Y2-S2-084K38,1,81,AS,exp,47,↓,no_key,no_letter,-1.0,False,15,-1,1,4
Y2-S2-084K38,1,82,AS,exp,37,↑,down,↓,1.0725155998952687,False,16,-1,0,4
Y2-S2-084K38,1,83,AS,exp,50,↓,right,→,1.039967400021851,False,17,-1,0,4
Y2-S2-084K38,1,84,AS,exp,29,←,left,←,0.6580063998699188,True,18,-1,0,4
Y2-S2-084K38,1,85,AS,exp,43,↓,down,↓,0.6227973997592926,True,18,-1,0,4
Y2-S2-084K38,1,86,AS,exp,47,←,left,←,0.6420986000448465,True,18,1,1,5
Y2-S2-084K38,1,87,AS,exp,47,↓,down,↓,0.8089059004560113,True,17,1,0,5
Y2-S2-084K38,1,88,AS,exp,42,←,left,←,0.7390465000644326,True,17,1,0,5
Y2-S2-084K38,1,89,AS,exp,38,↑,up,↑,0.5507205999456346,True,17,1,0,5
Y2-S2-084K38,1,90,AS,exp,46,↓,down,↓,0.6070151003077626,True,16,1,0,5
Y2-S2-084K38,1,91,AS,exp,32,↑,up,↑,0.6343998000957072,True,16,1,0,5
Y2-S2-084K38,1,92,AS,exp,30,↓,left,←,0.7461170996539295,False,16,-1,1,6
Y2-S2-084K38,1,93,AS,exp,28,↑,down,↓,0.8581085996702313,False,17,-1,0,6
Y2-S2-084K38,1,94,AS,exp,48,←,right,→,1.4765332001261413,False,18,-1,0,6
Y2-S2-084K38,1,95,AS,exp,46,→,right,→,0.5342199997976422,True,19,-1,0,6
Y2-S2-084K38,1,96,AS,exp,32,↑,up,↑,0.815586700104177,True,19,-1,0,6
Y2-S2-084K38,1,97,AS,exp,26,←,left,←,0.6098247999325395,True,19,1,1,7
Y2-S2-084K38,1,98,AS,exp,34,↑,up,↑,0.5564681999385357,True,18,1,0,7
Y2-S2-084K38,1,99,AS,exp,50,↓,down,↓,0.8788264002650976,True,18,1,0,7
Y2-S2-084K38,1,100,AS,exp,41,→,right,→,0.606384000275284,True,18,1,0,7
Y2-S2-084K38,1,101,AS,exp,33,←,left,←,0.5720404000021517,True,17,1,0,7
Y2-S2-084K38,1,102,AS,exp,40,→,right,→,0.5149093996733427,True,17,1,0,7
Y2-S2-084K38,1,103,AS,exp,40,←,right,→,0.6438152999617159,False,17,-1,1,8
Y2-S2-084K38,1,104,AS,exp,35,→,right,→,0.5716685997322202,True,18,-1,0,8
Y2-S2-084K38,1,105,AS,exp,50,↓,down,↓,0.769041100051254,True,18,-1,0,8
Y2-S2-084K38,1,106,AS,exp,41,→,right,→,0.6654900000430644,True,18,1,1,9
Y2-S2-084K38,1,107,AS,exp,42,↑,up,↑,0.7600500001572073,True,17,1,0,9
Y2-S2-084K38,1,108,AS,exp,37,↓,down,↓,0.7082801000215113,True,17,1,0,9
Y2-S2-084K38,1,109,AS,exp,40,→,right,→,0.5280887996777892,True,17,1,0,9
Y2-S2-084K38,1,110,AS,exp,33,↑,up,↑,0.6306185000576079,True,16,1,0,9
Y2-S2-084K38,1,111,AS,exp,34,←,left,←,0.5239269998855889,True,16,1,0,9
Y2-S2-084K38,1,112,AS,exp,27,→,right,→,0.5626361998729408,True,16,1,0,9
Y2-S2-084K38,1,113,AS,exp,26,↑,up,↑,0.5949880997650325,True,15,1,0,9
Y2-S2-084K38,1,114,AS,exp,27,←,left,←,0.5872172000817955,True,15,1,0,9
Y2-S2-084K38,1,115,AS,exp,48,→,left,←,0.8664800999686122,False,15,-1,1,10
Y2-S2-084K38,1,116,AS,exp,34,↑,down,↓,0.7022636998444796,False,16,-1,0,10
Y2-S2-084K38,1,117,AS,exp,43,↓,down,↓,0.5573468999937177,True,17,-1,0,10
Y2-S2-084K38,1,118,AS,exp,26,↑,down,↓,0.8097347002476454,False,17,-1,0,10
Y2-S2-084K38,1,119,AS,exp,41,→,right,→,0.4765488002449274,True,18,-1,0,10
Y2-S2-084K38,1,120,AS,exp,29,↑,up,↑,0.5539434999227524,True,18,-1,0,10
Y2-S2-084K38,1,121,AS,exp,28,←,left,←,0.557080399710685,True,18,1,1,11
Y2-S2-084K38,1,122,AS,exp,48,→,right,→,0.5627606003545225,True,17,1,0,11
Y2-S2-084K38,1,123,AS,exp,31,←,left,←,0.7503763004206121,True,17,1,0,11
Y2-S2-084K38,1,124,AS,exp,35,↑,up,↑,0.7415881999768317,True,17,1,0,11
Y2-S2-084K38,1,125,AS,exp,38,↓,down,↓,0.6203640000894666,True,16,1,0,11
Y2-S2-084K38,1,126,AS,exp,41,←,left,←,0.6826968002133071,True,16,1,0,11
Y2-S2-084K38,1,127,AS,exp,31,→,right,→,0.5976026002317667,True,16,1,0,11
Y2-S2-084K38,1,128,AS,exp,46,↓,down,↓,0.9196163001470268,True,15,1,0,11
Y2-S2-084K38,1,129,AS,exp,50,←,left,←,0.9526996002532542,True,15,1,0,11
Y2-S2-084K38,1,130,AS,exp,40,↓,down,↓,0.6634154999628663,True,15,1,0,11
Y2-S2-084K38,1,131,AS,exp,41,←,left,←,0.7330278996378183,True,14,1,0,11
Y2-S2-084K38,1,132,AS,exp,46,↑,down,↓,0.8273062999360263,False,14,-1,1,12
Y2-S2-084K38,1,133,AS,exp,25,↓,down,↓,1.4008670998737216,True,15,-1,0,12
Y2-S2-084K38,1,134,AS,exp,27,↑,up,↑,0.577895799651742,True,15,-1,0,12
Y2-S2-084K38,1,135,AS,exp,27,←,left,←,0.6031038002111018,True,15,1,1,13
Y2-S2-084K38,1,136,AS,exp,42,→,right,→,0.7608942002989352,True,14,1,0,13
Y2-S2-084K38,1,137,AS,exp,46,↑,no_key,no_letter,-1.0,False,14,-1,1,14
Y2-S2-084K38,1,138,AS,exp,37,→,up,↑,0.7093775998800993,False,15,-1,0,14
Y2-S2-084K38,1,139,AS,exp,32,↑,up,↑,0.6504522003233433,True,16,-1,0,14
Y2-S2-084K38,1,140,AS,exp,33,→,right,→,0.6517648999579251,True,16,-1,0,14
Y2-S2-084K38,1,141,AS,exp,31,↑,up,↑,0.6647257995791733,True,16,1,1,15
Y2-S2-084K38,1,142,AS,exp,47,→,right,→,0.7743030996061862,True,15,1,0,15
Y2-S2-084K38,1,143,AS,exp,36,←,left,←,0.48585940012708306,True,15,1,0,15
Y2-S2-084K38,1,144,AS,exp,45,↓,down,↓,0.7282916000112891,True,15,1,0,15
Y2-S2-084K38,1,145,AS,exp,43,→,left,←,0.8314839000813663,False,14,-1,1,16
Y2-S2-084K38,2,146,PS,intra_train,40,←,left,←,0.586665399838239,True,18,-,-,-
Y2-S2-084K38,2,147,PS,intra_train,49,→,right,→,0.5376714002341032,True,18,-,-,-
Y2-S2-084K38,2,148,PS,intra_train,46,↓,left,←,0.7287519997917116,False,18,-,-,-
Y2-S2-084K38,2,149,PS,intra_train,29,→,left,←,0.7773931999690831,False,18,-,-,-
Y2-S2-084K38,2,150,PS,intra_train,50,←,left,←,0.49518930027261376,True,18,-,-,-
Y2-S2-084K38,2,151,PS,exp,50,→,left,←,0.6848186003044248,False,12,-1,0,0
Y2-S2-084K38,2,152,PS,exp,50,↓,down,↓,0.6494968002662063,True,13,-1,0,0
Y2-S2-084K38,2,153,PS,exp,36,↑,up,↑,0.6585280997678638,True,13,-1,0,0
Y2-S2-084K38,2,154,PS,exp,32,→,right,→,0.7988064996898174,True,13,1,1,1
Y2-S2-084K38,2,155,PS,exp,40,←,left,←,0.8464882001280785,True,12,1,0,1
Y2-S2-084K38,2,156,PS,exp,30,↓,down,↓,0.8134956997819245,True,12,1,0,1
Y2-S2-084K38,2,157,PS,exp,33,←,left,←,1.1797123001888394,True,12,1,0,1
Y2-S2-084K38,2,158,PS,exp,42,↑,up,↑,0.6271240003407001,True,11,1,0,1
Y2-S2-084K38,2,159,PS,exp,31,→,left,←,0.7268950999714434,False,11,-1,1,2
Y2-S2-084K38,2,160,PS,exp,34,↑,left,←,0.773257500026375,False,12,-1,0,2
Y2-S2-084K38,2,161,PS,exp,37,→,right,→,0.6122318999841809,True,13,-1,0,2
Y2-S2-084K38,2,162,PS,exp,31,←,right,→,1.0511166998185217,False,13,-1,0,2
Y2-S2-084K38,2,163,PS,exp,35,→,right,→,0.9211392002180219,True,14,-1,0,2
Y2-S2-084K38,2,164,PS,exp,25,↓,down,↓,1.0687224003486335,True,14,-1,0,2
Y2-S2-084K38,2,165,PS,exp,29,↑,up,↑,0.5638534999452531,True,14,1,1,3
Y2-S2-084K38,2,166,PS,exp,26,→,right,→,0.5100974999368191,True,13,1,0,3
Y2-S2-084K38,2,167,PS,exp,28,↑,up,↑,0.5818604002706707,True,13,1,0,3
Y2-S2-084K38,2,168,PS,exp,34,→,right,→,0.5547134000808001,True,13,1,0,3
Y2-S2-084K38,2,169,PS,exp,31,←,left,←,0.49583359993994236,True,12,1,0,3
Y2-S2-084K38,2,170,PS,exp,29,→,right,→,0.43728769989684224,True,12,1,0,3
Y2-S2-084K38,2,171,PS,exp,45,↑,up,↑,0.46604719990864396,True,12,1,0,3
Y2-S2-084K38,2,172,PS,exp,50,←,left,←,0.5543435998260975,True,11,1,0,3
Y2-S2-084K38,2,173,PS,exp,32,↑,up,↑,0.7079521999694407,True,11,1,0,3
Y2-S2-084K38,2,174,PS,exp,26,↓,left,←,0.6926700999028981,False,11,-1,1,4
Y2-S2-084K38,2,175,PS,exp,38,↑,up,↑,0.45132579980418086,True,12,-1,0,4
Y2-S2-084K38,2,176,PS,exp,39,↓,up,↑,0.48594219982624054,False,12,-1,0,4
Y2-S2-084K38,2,177,PS,exp,49,↑,up,↑,0.5006884001195431,True,13,-1,0,4
Y2-S2-084K38,2,178,PS,exp,33,←,left,←,0.5594136002473533,True,13,-1,0,4
Y2-S2-084K38,2,179,PS,exp,31,↑,up,↑,0.49936720030382276,True,13,1,1,5
Y2-S2-084K38,2,180,PS,exp,33,↓,up,↑,0.5513528003357351,False,12,-1,1,6
Y2-S2-084K38,2,181,PS,exp,38,→,left,←,0.7667426997795701,False,13,-1,0,6
Y2-S2-084K38,2,182,PS,exp,48,↓,down,↓,0.6664049997925758,True,14,-1,0,6
Y2-S2-084K38,2,183,PS,exp,30,→,right,→,0.7231716997921467,True,14,-1,0,6
Y2-S2-084K38,2,184,PS,exp,35,←,left,←,0.5670770001597703,True,14,1,1,7
Y2-S2-084K38,2,185,PS,exp,48,→,right,→,0.5442864997312427,True,13,1,0,7
Y2-S2-084K38,2,186,PS,exp,32,←,left,←,0.5588378002867103,True,13,1,0,7
Y2-S2-084K38,2,187,PS,exp,43,↓,down,↓,0.9560783999040723,True,13,1,0,7
Y2-S2-084K38,2,188,PS,exp,36,↑,up,↑,0.5357392998412251,True,12,1,0,7
Y2-S2-084K38,2,189,PS,exp,27,←,left,←,0.4507285999134183,True,12,1,0,7
Y2-S2-084K38,2,190,PS,exp,32,↓,down,↓,0.6675149998627603,True,12,1,0,7
Y2-S2-084K38,2,191,PS,exp,44,←,left,←,0.5588267003186047,True,11,1,0,7
Y2-S2-084K38,2,192,PS,exp,28,↑,up,↑,0.5618480001576245,True,11,1,0,7
Y2-S2-084K38,2,193,PS,exp,29,←,left,←,0.48083809996023774,True,11,1,0,7
Y2-S2-084K38,2,194,PS,exp,39,↑,up,↑,0.5253856000490487,True,10,1,0,7
Y2-S2-084K38,2,195,PS,exp,30,←,left,←,0.5193305001594126,True,10,1,0,7
Y2-S2-084K38,2,196,PS,exp,41,→,left,←,0.7949321996420622,False,10,-1,1,8
Y2-S2-084K38,2,197,PS,exp,42,↑,up,↑,0.5596255999989808,True,11,-1,0,8
Y2-S2-084K38,2,198,PS,exp,41,←,left,←,0.5340394000522792,True,11,-1,0,8
Y2-S2-084K38,2,199,PS,exp,45,→,right,→,0.5516312001273036,True,11,1,1,9
Y2-S2-084K38,2,200,PS,exp,45,↑,up,↑,0.5028988998383284,True,10,1,0,9
Y2-S2-084K38,2,201,PS,exp,48,←,left,←,0.5787864997982979,True,10,1,0,9
Y2-S2-084K38,2,202,PS,exp,48,↓,down,↓,0.8649587999098003,True,10,1,0,9
Y2-S2-084K38,2,203,PS,exp,37,←,left,←,0.5590958995744586,True,9,1,0,9
Y2-S2-084K38,2,204,PS,exp,33,→,left,←,0.7162258997559547,False,9,-1,1,10
Y2-S2-084K38,2,205,PS,exp,44,↑,up,↑,0.5575338001362979,True,10,-1,0,10
Y2-S2-084K38,2,206,PS,exp,49,↓,down,↓,0.7247232999652624,True,10,-1,0,10
Y2-S2-084K38,2,207,PS,exp,44,→,down,↓,0.8962051998823881,False,10,-1,0,10
Y2-S2-084K38,2,208,PS,exp,43,←,left,←,0.48718729987740517,True,11,-1,0,10
Y2-S2-084K38,2,209,PS,exp,33,→,right,→,1.253475199919194,True,11,-1,0,10
Y2-S2-084K38,2,210,PS,exp,28,←,left,←,0.6603640001267195,True,11,1,1,11
Y2-S2-084K38,2,211,PS,exp,35,↓,down,↓,0.6307057999074459,True,10,1,0,11
Y2-S2-084K38,2,212,PS,exp,30,↑,up,↑,0.4984996998682618,True,10,1,0,11
Y2-S2-084K38,2,213,PS,exp,35,→,right,→,0.5894352998584509,True,10,1,0,11
Y2-S2-084K38,2,214,PS,exp,37,↑,down,↓,0.5440034000203013,False,9,-1,1,12
Y2-S2-084K38,2,215,PS,exp,30,←,down,↓,0.5261280997656286,False,10,-1,0,12
Y2-S2-084K38,2,216,PS,exp,25,↓,down,↓,0.5281907003372908,True,11,-1,0,12
Y2-S2-084K38,2,217,PS,exp,37,←,left,←,0.5150125999934971,True,11,-1,0,12
Y2-S2-084K38,2,218,PS,exp,43,→,right,→,0.5475661996752024,True,11,1,1,13
Y2-S2-084K38,2,219,PS,exp,45,←,down,↓,0.5930242999456823,False,10,-1,1,14
Y2-S2-084K38,2,220,PS,exp,32,↓,down,↓,0.5181498997844756,True,11,-1,0,14
Y2-S2-084K38,2,221,PS,exp,50,←,left,←,0.43704200023785233,True,11,-1,0,14
Y2-S2-084K38,2,222,PS,exp,26,→,right,→,0.5661132000386715,True,11,1,1,15
Y2-S2-084K38,2,223,PS,exp,39,↑,up,↑,0.4722504997625947,True,10,1,0,15
Y2-S2-084K38,2,224,PS,exp,41,←,down,↓,0.5508229001425207,False,10,-1,1,16
Y2-S2-084K38,3,225,PS,intra_train,36,↓,down,↓,0.7352797999046743,True,18,-,-,-
Y2-S2-084K38,3,226,PS,intra_train,39,→,down,↓,0.5744737000204623,False,18,-,-,-
Y2-S2-084K38,3,227,PS,intra_train,29,↓,down,↓,0.6990807997062802,True,18,-,-,-
Y2-S2-084K38,3,228,PS,intra_train,40,↑,down,↓,0.5320472000166774,False,18,-,-,-
Y2-S2-084K38,3,229,PS,intra_train,29,↓,down,↓,0.5454148999415338,True,18,-,-,-
Y2-S2-084K38,3,230,PS,exp,25,←,left,←,0.6160410000011325,True,12,0,0,0
Y2-S2-084K38,3,231,PS,exp,43,↑,down,↓,0.6387939997948706,False,12,-1,0,0
Y2-S2-084K38,3,232,PS,exp,38,→,right,→,0.5839757001958787,True,13,-1,0,0
Y2-S2-084K38,3,233,PS,exp,37,↓,down,↓,0.6048277001827955,True,13,-1,0,0
Y2-S2-084K38,3,234,PS,exp,37,↑,up,↑,0.5533450003713369,True,13,1,1,1
Y2-S2-084K38,3,235,PS,exp,48,↓,down,↓,0.5574042997322977,True,12,1,0,1
Y2-S2-084K38,3,236,PS,exp,47,←,down,↓,0.4988631000742316,False,12,-1,1,2
Y2-S2-084K38,3,237,PS,exp,45,↑,up,↑,0.5516062001697719,True,13,-1,0,2
Y2-S2-084K38,3,238,PS,exp,41,↓,down,↓,0.7656411002390087,True,13,-1,0,2
Y2-S2-084K38,3,239,PS,exp,46,↑,up,↑,0.7521031000651419,True,13,1,1,3
Y2-S2-084K38,3,240,PS,exp,32,→,right,→,0.5938336001709104,True,12,1,0,3
Y2-S2-084K38,3,241,PS,exp,27,↑,up,↑,0.6287648999132216,True,12,1,0,3
Y2-S2-084K38,3,242,PS,exp,29,↓,down,↓,0.6151566002517939,True,12,1,0,3
Y2-S2-084K38,3,243,PS,exp,26,↑,up,↑,0.4517350997775793,True,11,1,0,3
Y2-S2-084K38,3,244,PS,exp,47,←,down,↓,0.6942744003608823,False,11,-1,1,4
Y2-S2-084K38,3,245,PS,exp,29,↑,up,↑,0.46939950017258525,True,12,-1,0,4
Y2-S2-084K38,3,246,PS,exp,40,↓,down,↓,0.6412637000903487,True,12,-1,0,4
Y2-S2-084K38,3,247,PS,exp,46,←,left,←,0.48970160027965903,True,12,1,1,5
Y2-S2-084K38,3,248,PS,exp,30,↓,down,↓,0.6748110996559262,True,11,1,0,5
Y2-S2-084K38,3,249,PS,exp,36,→,down,↓,0.5768050001934171,False,11,-1,1,6
Y2-S2-084K38,3,250,PS,exp,47,↓,down,↓,0.4810055000707507,True,12,-1,0,6
Y2-S2-084K38,3,251,PS,exp,31,↑,up,↑,0.6005220003426075,True,12,-1,0,6
Y2-S2-084K38,3,252,PS,exp,49,←,left,←,0.5866494998335838,True,12,1,1,7
Y2-S2-084K38,3,253,PS,exp,26,↓,left,←,1.1074653998948634,False,11,-1,1,8
Y2-S2-084K38,3,254,PS,exp,40,↑,down,↓,0.7808306999504566,False,12,-1,0,8
Y2-S2-084K38,3,255,PS,exp,49,↓,down,↓,0.6176470001228154,True,13,-1,0,8
Y2-S2-084K38,3,256,PS,exp,45,→,right,→,0.5641582999378443,True,13,-1,0,8
Y2-S2-084K38,3,257,PS,exp,48,↑,left,←,1.2335896999575198,False,13,-1,0,8
Y2-S2-084K38,3,258,PS,exp,49,→,right,→,0.6105054002255201,True,14,-1,0,8
Y2-S2-084K38,3,259,PS,exp,36,↑,up,↑,0.5625725998543203,True,14,-1,0,8
Y2-S2-084K38,3,260,PS,exp,50,←,left,←,0.7111228001303971,True,14,1,1,9
Y2-S2-084K38,3,261,PS,exp,35,↓,down,↓,0.777397199999541,True,13,1,0,9
Y2-S2-084K38,3,262,PS,exp,28,←,left,←,0.52999969990924,True,13,1,0,9
Y2-S2-084K38,3,263,PS,exp,50,↓,down,↓,0.6203934997320175,True,13,1,0,9
Y2-S2-084K38,3,264,PS,exp,40,↑,up,↑,0.48810499999672174,True,12,1,0,9
Y2-S2-084K38,3,265,PS,exp,32,↓,down,↓,0.8185628997161984,True,12,1,0,9
Y2-S2-084K38,3,266,PS,exp,37,→,right,→,0.6181934997439384,True,12,1,0,9
Y2-S2-084K38,3,267,PS,exp,41,←,left,←,0.5847285999916494,True,11,1,0,9
Y2-S2-084K38,3,268,PS,exp,47,→,right,→,0.572344099637121,True,11,1,0,9
Y2-S2-084K38,3,269,PS,exp,39,↑,up,↑,0.5621286001987755,True,11,1,0,9
Y2-S2-084K38,3,270,PS,exp,39,↓,down,↓,0.7453382001258433,True,10,1,0,9
Y2-S2-084K38,3,271,PS,exp,37,→,right,→,0.6169590000063181,True,10,1,0,9
Y2-S2-084K38,3,272,PS,exp,46,←,left,←,0.5886576999910176,True,10,1,0,9
Y2-S2-084K38,3,273,PS,exp,25,↓,down,↓,0.9414777001366019,True,9,1,0,9
Y2-S2-084K38,3,274,PS,exp,46,→,left,←,0.8323356001637876,False,9,-1,1,10
Y2-S2-084K38,3,275,PS,exp,26,↓,down,↓,0.5219779997132719,True,10,-1,0,10
Y2-S2-084K38,3,276,PS,exp,47,↑,up,↑,0.6302193999290466,True,10,-1,0,10
Y2-S2-084K38,3,277,PS,exp,34,→,left,←,0.6030866000801325,False,10,-1,0,10
Y2-S2-084K38,3,278,PS,exp,44,↓,down,↓,0.5744068003259599,True,11,-1,0,10
Y2-S2-084K38,3,279,PS,exp,30,↑,up,↑,0.7930958000943065,True,11,-1,0,10
Y2-S2-084K38,3,280,PS,exp,30,←,left,←,0.5107546001672745,True,11,1,1,11
Y2-S2-084K38,3,281,PS,exp,44,↓,down,↓,0.5939683001488447,True,10,1,0,11
Y2-S2-084K38,3,282,PS,exp,40,→,down,↓,0.546779100317508,False,10,-1,1,12
Y2-S2-084K38,3,283,PS,exp,35,↓,down,↓,0.5282144001685083,True,11,-1,0,12
Y2-S2-084K38,3,284,PS,exp,28,←,left,←,0.8846248998306692,True,11,-1,0,12
Y2-S2-084K38,3,285,PS,exp,42,→,right,→,0.5340807000175118,True,11,1,1,13
Y2-S2-084K38,3,286,PS,exp,48,←,left,←,0.4841335997916758,True,10,1,0,13
Y2-S2-084K38,3,287,PS,exp,31,↑,up,↑,0.5019694003276527,True,10,1,0,13
Y2-S2-084K38,3,288,PS,exp,35,↓,down,↓,0.80906100012362,True,10,1,0,13
Y2-S2-084K38,3,289,PS,exp,48,←,left,←,0.5295151001773775,True,9,1,0,13
Y2-S2-084K38,3,290,PS,exp,39,→,right,→,0.557625699788332,True,9,1,0,13
Y2-S2-084K38,3,291,PS,exp,49,←,left,←,0.7516085999086499,True,9,1,0,13
Y2-S2-084K38,3,292,PS,exp,33,→,right,→,0.5627745999954641,True,8,1,0,13
Y2-S2-084K38,3,293,PS,exp,50,←,left,←,0.5977501999586821,True,8,1,0,13
Y2-S2-084K38,3,294,PS,exp,34,↓,left,←,0.5517487996257842,False,8,-1,1,14
Y2-S2-084K38,3,295,PS,exp,29,↑,up,↑,0.6528441002592444,True,9,-1,0,14
Y2-S2-084K38,3,296,PS,exp,45,→,left,←,1.786403200123459,False,9,-1,0,14
Y2-S2-084K38,3,297,PS,exp,47,←,left,←,0.5404027001932263,True,10,-1,0,14
Y2-S2-084K38,3,298,PS,exp,42,→,right,→,0.523772899992764,True,10,-1,0,14
Y2-S2-084K38,3,299,PS,exp,46,↓,left,←,0.693886199966073,False,10,-1,0,14
Y2-S2-084K38,3,300,PS,exp,33,←,left,←,0.5321137998253107,True,11,-1,0,14
Y2-S2-084K38,3,301,PS,exp,42,↑,up,↑,0.5223244000226259,True,11,-1,0,14
Y2-S2-084K38,3,302,PS,exp,29,←,up,↑,0.8314975998364389,False,11,-1,0,14
Y2-S2-084K38,3,303,PS,exp,35,↑,left,←,0.9043785003013909,False,12,-1,0,14
Y2-S2-084K38,3,304,PS,exp,33,←,left,←,0.44526199996471405,True,13,-1,0,14
Y2-S2-084K38,3,305,PS,exp,42,↑,up,↑,0.45517809968441725,True,13,-1,0,14
Y2-S2-084K38,3,306,PS,exp,33,←,left,←,0.46067299973219633,True,13,1,1,15
Y2-S2-084K38,3,307,PS,exp,43,↑,up,↑,0.633103100117296,True,12,1,0,15
Y2-S2-084K38,3,308,PS,exp,46,→,up,↑,0.5594993997365236,False,12,-1,1,16
Y2-S2-084K38,4,309,AS,intra_train,34,↑,down,↓,0.8939495999366045,False,25,-,-,-
Y2-S2-084K38,4,310,AS,intra_train,37,→,right,→,0.6488983002491295,True,25,-,-,-
Y2-S2-084K38,4,311,AS,intra_train,40,↓,no_key,no_letter,-1.0,False,25,-,-,-
Y2-S2-084K38,4,312,AS,intra_train,47,→,right,→,0.5341378999873996,True,25,-,-,-
Y2-S2-084K38,4,313,AS,intra_train,48,↑,up,↑,0.7052005999721587,True,25,-,-,-
Y2-S2-084K38,4,314,AS,exp,35,←,left,←,0.7896433002315462,True,17,0,0,0
Y2-S2-084K38,4,315,AS,exp,41,↑,up,↑,0.6204540999606252,True,17,0,0,0
Y2-S2-084K38,4,316,AS,exp,26,→,right,→,0.5026362002827227,True,17,1,0,0
Y2-S2-084K38,4,317,AS,exp,25,←,left,←,0.5287973000667989,True,16,1,0,0
Y2-S2-084K38,4,318,AS,exp,36,↓,down,↓,0.5281835999339819,True,16,1,0,0
Y2-S2-084K38,4,319,AS,exp,43,↑,down,↓,0.5936671001836658,False,16,-1,1,1
Y2-S2-084K38,4,320,AS,exp,28,→,left,←,0.8933462998829782,False,17,-1,0,1
Y2-S2-084K38,4,321,AS,exp,48,↓,down,↓,0.5359398000873625,True,18,-1,0,1
Y2-S2-084K38,4,322,AS,exp,42,←,right,→,0.8269834001548588,False,18,-1,0,1
Y2-S2-084K38,4,323,AS,exp,28,↑,up,↑,0.6996631999500096,True,19,-1,0,1
Y2-S2-084K38,4,324,AS,exp,30,→,right,→,0.7676836997270584,True,19,-1,0,1
Y2-S2-084K38,4,325,AS,exp,50,↓,down,↓,0.6693975999951363,True,19,1,1,2
Y2-S2-084K38,4,326,AS,exp,42,←,left,←,0.6859056996181607,True,18,1,0,2
Y2-S2-084K38,4,327,AS,exp,32,↑,up,↑,0.5900904997251928,True,18,1,0,2
Y2-S2-084K38,4,328,AS,exp,41,←,left,←,0.587695199996233,True,18,1,0,2
Y2-S2-084K38,4,329,AS,exp,36,↑,up,↑,0.5620866999961436,True,17,1,0,2
Y2-S2-084K38,4,330,AS,exp,35,→,right,→,0.6434386000037193,True,17,1,0,2
Y2-S2-084K38,4,331,AS,exp,28,↓,down,↓,0.7280020997859538,True,17,1,0,2
Y2-S2-084K38,4,332,AS,exp,44,←,left,←,0.4409221997484565,True,16,1,0,2
Y2-S2-084K38,4,333,AS,exp,42,↓,down,↓,0.6614481997676194,True,16,1,0,2
Y2-S2-084K38,4,334,AS,exp,50,←,left,←,0.36733039980754256,True,16,1,0,2
Y2-S2-084K38,4,335,AS,exp,40,↑,up,↑,0.4677824997343123,True,15,1,0,2
Y2-S2-084K38,4,336,AS,exp,33,←,left,←,0.4631111999042332,True,15,1,0,2
Y2-S2-084K38,4,337,AS,exp,40,↑,up,↑,0.531676399987191,True,15,1,0,2
Y2-S2-084K38,4,338,AS,exp,35,→,right,→,0.5158703001216054,True,14,1,0,2
Y2-S2-084K38,4,339,AS,exp,48,↑,up,↑,1.6885542999953032,True,14,1,0,2
Y2-S2-084K38,4,340,AS,exp,32,→,left,←,0.832328800112009,False,14,-1,1,3
Y2-S2-084K38,4,341,AS,exp,27,←,left,←,0.46571070002391934,True,15,-1,0,3
Y2-S2-084K38,4,342,AS,exp,27,↑,right,→,0.9552528001368046,False,15,-1,0,3
Y2-S2-084K38,4,343,AS,exp,40,←,right,→,0.7846458000130951,False,16,-1,0,3
Y2-S2-084K38,4,344,AS,exp,30,↓,right,→,0.6685731001198292,False,17,-1,0,3
Y2-S2-084K38,4,345,AS,exp,35,↑,up,↑,0.5889897001907229,True,18,-1,0,3
Y2-S2-084K38,4,346,AS,exp,25,↓,down,↓,0.5431437999941409,True,18,-1,0,3
Y2-S2-084K38,4,347,AS,exp,49,↑,right,→,0.6039640000090003,False,18,-1,0,3
Y2-S2-084K38,4,348,AS,exp,47,→,right,→,0.6826801998540759,True,19,-1,0,3
Y2-S2-084K38,4,349,AS,exp,25,←,left,←,0.6078427000902593,True,19,-1,0,3
Y2-S2-084K38,4,350,AS,exp,43,↑,up,↑,0.538958300370723,True,19,1,1,4
Y2-S2-084K38,4,351,AS,exp,33,↓,up,↑,1.3201786996796727,False,18,-1,1,5
Y2-S2-084K38,4,352,AS,exp,37,→,right,→,0.5466182003729045,True,19,-1,0,5
Y2-S2-084K38,4,353,AS,exp,46,↑,up,↑,0.5236837998963892,True,19,-1,0,5
Y2-S2-084K38,4,354,AS,exp,49,↓,down,↓,0.8624777998775244,True,19,1,1,6
Y2-S2-084K38,4,355,AS,exp,34,→,right,→,0.6348670003935695,True,18,1,0,6
Y2-S2-084K38,4,356,AS,exp,25,↑,up,↑,0.6490420000627637,True,18,1,0,6
Y2-S2-084K38,4,357,AS,exp,40,↓,down,↓,0.7030748999677598,True,18,1,0,6
Y2-S2-084K38,4,358,AS,exp,30,→,right,→,0.5764856999740005,True,17,1,0,6
Y2-S2-084K38,4,359,AS,exp,31,↓,down,↓,0.5452845003455877,True,17,1,0,6
Y2-S2-084K38,4,360,AS,exp,26,→,right,→,0.4919227999635041,True,17,1,0,6
Y2-S2-084K38,4,361,AS,exp,35,↓,right,→,0.7601856999099255,False,16,-1,1,7
Y2-S2-084K38,4,362,AS,exp,25,←,right,→,0.5323890997096896,False,17,-1,0,7
Y2-S2-084K38,4,363,AS,exp,26,→,right,→,1.1070789000950754,True,18,-1,0,7
Y2-S2-084K38,4,364,AS,exp,30,↓,down,↓,0.7149470001459122,True,18,-1,0,7
Y2-S2-084K38,4,365,AS,exp,26,←,left,←,0.5643450999632478,True,18,1,1,8
Y2-S2-084K38,4,366,AS,exp,41,↓,down,↓,0.5817392002791166,True,17,1,0,8
Y2-S2-084K38,4,367,AS,exp,45,←,left,←,0.6375718000344932,True,17,1,0,8
Y2-S2-084K38,4,368,AS,exp,44,→,left,←,0.744569200091064,False,17,-1,1,9
Y2-S2-084K38,4,369,AS,exp,46,↓,down,↓,0.6651425999589264,True,18,-1,0,9
Y2-S2-084K38,4,370,AS,exp,40,↑,up,↑,0.691467700060457,True,18,-1,0,9
Y2-S2-084K38,4,371,AS,exp,30,←,left,←,0.6470284000970423,True,18,1,1,10
Y2-S2-084K38,4,372,AS,exp,38,↑,up,↑,0.7420716998167336,True,17,1,0,10
Y2-S2-084K38,4,373,AS,exp,38,→,left,←,0.9111462999135256,False,17,-1,1,11
Y2-S2-084K38,4,374,AS,exp,37,←,left,←,0.6872263001278043,True,18,-1,0,11
Y2-S2-084K38,4,375,AS,exp,37,↓,up,↑,0.6573939002119005,False,18,-1,0,11
Y2-S2-084K38,4,376,AS,exp,47,→,down,↓,0.8384099001996219,False,19,-1,0,11
Y2-S2-084K38,4,377,AS,exp,25,↓,left,←,0.6117921001277864,False,20,-1,0,11
Y2-S2-084K38,4,378,AS,exp,34,↑,up,↑,0.8143787002190948,True,21,-1,0,11
Y2-S2-084K38,4,379,AS,exp,25,→,no_key,no_letter,-1.0,False,21,-1,0,11
Y2-S2-084K38,4,380,AS,exp,44,↓,down,↓,0.7618192997761071,True,22,-1,0,11
Y2-S2-084K38,4,381,AS,exp,45,↑,up,↑,0.7610121998004615,True,22,-1,0,11
Y2-S2-084K38,4,382,AS,exp,40,→,no_key,no_letter,-1.0,False,22,-1,0,11
Y2-S2-084K38,4,383,AS,exp,27,↑,up,↑,0.5727136000059545,True,23,-1,0,11
Y2-S2-084K38,4,384,AS,exp,34,→,right,→,0.6035343003459275,True,23,-1,0,11
Y2-S2-084K38,4,385,AS,exp,43,↓,down,↓,0.7148427995853126,True,23,1,1,12
Y2-S2-084K38,4,386,AS,exp,45,←,left,←,0.6077394001185894,True,22,1,0,12
Y2-S2-084K38,4,387,AS,exp,38,→,left,←,0.9696773001924157,False,22,-1,1,13
Y2-S2-084K38,4,388,AS,exp,49,↓,down,↓,0.6421777000650764,True,23,-1,0,13
Y2-S2-084K38,4,389,AS,exp,28,←,left,←,0.5585230998694897,True,23,-1,0,13
Y2-S2-084K38,4,390,AS,exp,25,↑,up,↑,0.691548699978739,True,23,1,1,14
Y2-S2-084K38,4,391,AS,exp,29,←,left,←,0.6080692000687122,True,22,1,0,14
Y2-S2-084K38,4,392,AS,exp,38,→,left,←,0.8563142004422843,False,22,-1,1,15
Y2-S2-084K38,4,393,AS,exp,47,←,left,←,0.6868524998426437,True,23,-1,0,15
Y2-S2-084K38,4,394,AS,exp,44,→,right,→,1.04754179995507,True,23,-1,0,15
Y2-S2-084K38,4,395,AS,exp,47,←,left,←,0.5661212000995874,True,23,1,1,16
Y2-S2-084K38,5,396,AS,intra_train,48,→,right,→,0.5843746997416019,True,25,-,-,-
Y2-S2-084K38,5,397,AS,intra_train,31,↑,up,↑,0.4836355000734329,True,25,-,-,-
Y2-S2-084K38,5,398,AS,intra_train,50,→,right,→,1.8495323001407087,True,25,-,-,-
Y2-S2-084K38,5,399,AS,intra_train,32,↑,up,↑,0.4009330999106169,True,25,-,-,-
Y2-S2-084K38,5,400,AS,intra_train,42,→,right,→,0.5854132999666035,True,25,-,-,-
Y2-S2-084K38,5,401,AS,exp,26,↓,down,↓,1.0819457001052797,True,17,0,0,0
Y2-S2-084K38,5,402,AS,exp,42,←,left,←,0.672713799867779,True,17,0,0,0
Y2-S2-084K38,5,403,AS,exp,26,↓,down,↓,0.8361611999571323,True,17,1,0,0
Y2-S2-084K38,5,404,AS,exp,50,→,left,←,0.9516284996643662,False,16,-1,1,1
Y2-S2-084K38,5,405,AS,exp,44,←,left,←,0.8346661999821663,True,17,-1,0,1
Y2-S2-084K38,5,406,AS,exp,49,↑,down,↓,0.48046760028228164,False,17,-1,0,1
Y2-S2-084K38,5,407,AS,exp,48,↓,down,↓,0.721026100218296,True,18,-1,0,1
Y2-S2-084K38,5,408,AS,exp,32,→,down,↓,0.8868561997078359,False,18,-1,0,1
Y2-S2-084K38,5,409,AS,exp,37,↓,down,↓,0.5853120996616781,True,19,-1,0,1
Y2-S2-084K38,5,410,AS,exp,48,↑,up,↑,0.7164155002683401,True,19,-1,0,1
Y2-S2-084K38,5,411,AS,exp,43,↓,down,↓,0.6810312001034617,True,19,1,1,2
Y2-S2-084K38,5,412,AS,exp,40,←,left,←,0.5245934999547899,True,18,1,0,2
Y2-S2-084K38,5,413,AS,exp,38,↑,up,↑,0.6733618997968733,True,18,1,0,2
Y2-S2-084K38,5,414,AS,exp,30,↓,down,↓,0.8798878998495638,True,18,1,0,2
Y2-S2-084K38,5,415,AS,exp,49,↑,up,↑,0.49540780019015074,True,17,1,0,2
Y2-S2-084K38,5,416,AS,exp,48,←,down,↓,0.8428116999566555,False,17,-1,1,3
Y2-S2-084K38,5,417,AS,exp,40,↓,down,↓,0.7630762998014688,True,18,-1,0,3
Y2-S2-084K38,5,418,AS,exp,35,→,right,→,0.6470876997336745,True,18,-1,0,3
Y2-S2-084K38,5,419,AS,exp,31,↓,down,↓,0.6786185000091791,True,18,1,1,4
Y2-S2-084K38,5,420,AS,exp,35,→,right,→,0.4986866000108421,True,17,1,0,4
Y2-S2-084K38,5,421,AS,exp,32,↓,down,↓,0.6944575002416968,True,17,1,0,4
Y2-S2-084K38,5,422,AS,exp,39,↑,down,↓,1.0532394000329077,False,17,-1,1,5
Y2-S2-084K38,5,423,AS,exp,50,→,right,→,0.6808266001753509,True,18,-1,0,5
Y2-S2-084K38,5,424,AS,exp,50,↑,up,↑,0.6322929998859763,True,18,-1,0,5
Y2-S2-084K38,5,425,AS,exp,49,↓,up,↑,0.849017399828881,False,18,-1,0,5
Y2-S2-084K38,5,426,AS,exp,44,↑,up,↑,0.5528879002667964,True,19,-1,0,5
Y2-S2-084K38,5,427,AS,exp,45,→,right,→,0.5902289999648929,True,19,-1,0,5
Y2-S2-084K38,5,428,AS,exp,31,↑,up,↑,0.5640049003995955,True,19,1,1,6
Y2-S2-084K38,5,429,AS,exp,37,←,down,↓,0.5455609001219273,False,18,-1,1,7
Y2-S2-084K38,5,430,AS,exp,33,↓,left,←,0.9528688001446426,False,19,-1,0,7
Y2-S2-084K38,5,431,AS,exp,32,←,left,←,0.7001072000712156,True,20,-1,0,7
Y2-S2-084K38,5,432,AS,exp,35,↓,down,↓,0.6203370997682214,True,20,-1,0,7
Y2-S2-084K38,5,433,AS,exp,45,←,left,←,0.5530420998111367,True,20,1,1,8
Y2-S2-084K38,5,434,AS,exp,34,→,right,→,0.5754637997597456,True,19,1,0,8
Y2-S2-084K38,5,435,AS,exp,40,↑,up,↑,0.5917595000937581,True,19,1,0,8
Y2-S2-084K38,5,436,AS,exp,49,←,left,←,0.8017862001433969,True,19,1,0,8
Y2-S2-084K38,5,437,AS,exp,43,↓,down,↓,0.841196000110358,True,18,1,0,8
Y2-S2-084K38,5,438,AS,exp,43,↑,up,↑,1.3085692999884486,True,18,1,0,8
Y2-S2-084K38,5,439,AS,exp,43,↓,down,↓,0.6939757000654936,True,18,1,0,8
Y2-S2-084K38,5,440,AS,exp,43,←,left,←,0.8587199999019504,True,17,1,0,8
Y2-S2-084K38,5,441,AS,exp,37,↑,down,↓,0.819318599998951,False,17,-1,1,9
Y2-S2-084K38,5,442,AS,exp,36,↓,down,↓,0.656578800175339,True,18,-1,0,9
Y2-S2-084K38,5,443,AS,exp,47,→,right,→,0.6397416000254452,True,18,-1,0,9
Y2-S2-084K38,5,444,AS,exp,45,↓,down,↓,0.6408020001836121,True,18,1,1,10
Y2-S2-084K38,5,445,AS,exp,39,→,down,↓,0.8757123001851141,False,17,-1,1,11
Y2-S2-084K38,5,446,AS,exp,29,↑,up,↑,0.5871574003249407,True,18,-1,0,11
Y2-S2-084K38,5,447,AS,exp,42,←,left,←,0.6273301001638174,True,18,-1,0,11
Y2-S2-084K38,5,448,AS,exp,48,↑,left,←,1.3975096000358462,False,18,-1,0,11
Y2-S2-084K38,5,449,AS,exp,41,←,left,←,0.6178295998834074,True,19,-1,0,11
Y2-S2-084K38,5,450,AS,exp,39,→,down,↓,1.135205800179392,False,19,-1,0,11
Y2-S2-084K38,5,451,AS,exp,27,←,left,←,0.5401384001597762,True,20,-1,0,11
Y2-S2-084K38,5,452,AS,exp,48,↓,down,↓,0.7135039996355772,True,20,-1,0,11
Y2-S2-084K38,5,453,AS,exp,27,←,down,↓,0.8818767000921071,False,20,-1,0,11
Y2-S2-084K38,5,454,AS,exp,41,→,right,→,0.7246457999572158,True,21,-1,0,11
Y2-S2-084K38,5,455,AS,exp,31,←,left,←,0.8131978996098042,True,21,-1,0,11
Y2-S2-084K38,5,456,AS,exp,40,→,right,→,0.7087395000271499,True,21,1,1,12
Y2-S2-084K38,5,457,AS,exp,50,↓,down,↓,0.5996703999117017,True,20,1,0,12
Y2-S2-084K38,5,458,AS,exp,30,→,right,→,1.2997177001088858,True,20,1,0,12
Y2-S2-084K38,5,459,AS,exp,42,←,left,←,0.9501743000000715,True,20,1,0,12
Y2-S2-084K38,5,460,AS,exp,28,↑,up,↑,0.7615741998888552,True,19,1,0,12
Y2-S2-084K38,5,461,AS,exp,49,↓,left,←,1.2366319997236133,False,19,-1,1,13
Y2-S2-084K38,5,462,AS,exp,31,↑,up,↑,0.6668366999365389,True,20,-1,0,13
Y2-S2-084K38,5,463,AS,exp,50,→,right,→,0.6017498997971416,True,20,-1,0,13
Y2-S2-084K38,5,464,AS,exp,48,←,left,←,0.6836152002215385,True,20,1,1,14
Y2-S2-084K38,5,465,AS,exp,37,↑,up,↑,0.6248196000233293,True,19,1,0,14
Y2-S2-084K38,5,466,AS,exp,30,←,left,←,0.6544217998161912,True,19,1,0,14
Y2-S2-084K38,5,467,AS,exp,35,↓,down,↓,0.7410577000118792,True,19,1,0,14
Y2-S2-084K38,5,468,AS,exp,28,→,right,→,0.6657557999715209,True,18,1,0,14
Y2-S2-084K38,5,469,AS,exp,38,←,left,←,0.8227945999242365,True,18,1,0,14
Y2-S2-084K38,5,470,AS,exp,43,↑,no_key,no_letter,-1.0,False,18,-1,1,15
Y2-S2-084K38,5,471,AS,exp,31,↓,down,↓,0.7213114998303354,True,19,-1,0,15
Y2-S2-084K38,5,472,AS,exp,34,↑,up,↑,0.504935699980706,True,19,-1,0,15
Y2-S2-084K38,5,473,AS,exp,30,←,up,↑,1.1373366001062095,False,19,-1,0,15
Y2-S2-084K38,5,474,AS,exp,42,→,left,←,1.3264192999340594,False,20,-1,0,15
Y2-S2-084K38,5,475,AS,exp,25,↑,up,↑,0.5516629996709526,True,21,-1,0,15
Y2-S2-084K38,5,476,AS,exp,33,→,right,→,0.5542613998986781,True,21,-1,0,15
Y2-S2-084K38,5,477,AS,exp,27,↓,left,←,0.8413627999834716,False,21,-1,0,15
Y2-S2-084K38,5,478,AS,exp,40,←,left,←,0.562071300111711,True,22,-1,0,15
Y2-S2-084K38,5,479,AS,exp,39,↓,down,↓,0.8585266997106373,True,22,-1,0,15
Y2-S2-084K38,5,480,AS,exp,38,←,left,←,0.7066659000702202,True,22,1,1,16
Y2-S2-084K38,6,481,PS,intra_train,26,↓,down,↓,0.7692633997648954,True,18,-,-,-
Y2-S2-084K38,6,482,PS,intra_train,48,↑,up,↑,0.522165400441736,True,18,-,-,-
Y2-S2-084K38,6,483,PS,intra_train,33,↓,down,↓,0.634097000118345,True,18,-,-,-
Y2-S2-084K38,6,484,PS,intra_train,26,←,left,←,0.7921259999275208,True,18,-,-,-
Y2-S2-084K38,6,485,PS,intra_train,39,↑,up,↑,0.508026999887079,True,18,-,-,-
Y2-S2-084K38,6,486,PS,exp,35,←,left,←,0.5540334996767342,True,12,0,0,0
Y2-S2-084K38,6,487,PS,exp,38,→,left,←,0.6778079001232982,False,12,-1,0,0
Y2-S2-084K38,6,488,PS,exp,39,↑,up,↑,0.5505270999856293,True,13,-1,0,0
Y2-S2-084K38,6,489,PS,exp,44,←,left,←,0.46375450026243925,True,13,-1,0,0
Y2-S2-084K38,6,490,PS,exp,43,↑,left,←,0.7941686999984086,False,13,-1,0,0
Y2-S2-084K38,6,491,PS,exp,47,←,left,←,0.5498172999359667,True,14,-1,0,0
Y2-S2-084K38,6,492,PS,exp,30,↑,left,←,0.7291435999795794,False,14,-1,0,0
Y2-S2-084K38,6,493,PS,exp,32,←,left,←,0.5189268998801708,True,15,-1,0,0
Y2-S2-084K38,6,494,PS,exp,33,→,right,→,0.5970810996368527,True,15,-1,0,0
Y2-S2-084K38,6,495,PS,exp,34,↓,down,↓,0.6819179998710752,True,15,1,1,1
Y2-S2-084K38,6,496,PS,exp,30,←,left,←,0.6134269000031054,True,14,1,0,1
Y2-S2-084K38,6,497,PS,exp,30,↑,up,↑,0.5680111004039645,True,14,1,0,1
Y2-S2-084K38,6,498,PS,exp,50,→,right,→,0.5935994000174105,True,14,1,0,1
Y2-S2-084K38,6,499,PS,exp,44,←,left,←,0.472310499753803,True,13,1,0,1
Y2-S2-084K38,6,500,PS,exp,32,↓,down,↓,0.659183599986136,True,13,1,0,1
Y2-S2-084K38,6,501,PS,exp,26,→,right,→,0.48693190002813935,True,13,1,0,1
Y2-S2-084K38,6,502,PS,exp,50,↓,down,↓,0.5608267998322845,True,12,1,0,1
Y2-S2-084K38,6,503,PS,exp,47,←,left,←,0.44784060027450323,True,12,1,0,1
Y2-S2-084K38,6,504,PS,exp,44,↓,down,↓,0.7186261997558177,True,12,1,0,1
Y2-S2-084K38,6,505,PS,exp,41,←,left,←,0.37291849963366985,True,11,1,0,1
Y2-S2-084K38,6,506,PS,exp,28,↑,down,↓,0.9114524000324309,False,11,-1,1,2
Y2-S2-084K38,6,507,PS,exp,33,↓,down,↓,0.6438338998705149,True,12,-1,0,2
Y2-S2-084K38,6,508,PS,exp,40,↑,down,↓,0.6784973000176251,False,12,-1,0,2
Y2-S2-084K38,6,509,PS,exp,29,→,right,→,0.5838803998194635,True,13,-1,0,2
Y2-S2-084K38,6,510,PS,exp,46,↑,up,↑,0.5741812000051141,True,13,-1,0,2
Y2-S2-084K38,6,511,PS,exp,40,→,right,→,0.5803499999456108,True,13,1,1,3
Y2-S2-084K38,6,512,PS,exp,30,↑,up,↑,0.629553799983114,True,12,1,0,3
Y2-S2-084K38,6,513,PS,exp,32,→,right,→,0.5761819998733699,True,12,1,0,3
Y2-S2-084K38,6,514,PS,exp,47,←,down,↓,0.5139903002418578,False,12,-1,1,4
Y2-S2-084K38,6,515,PS,exp,43,↑,up,↑,0.5477460999973118,True,13,-1,0,4
Y2-S2-084K38,6,516,PS,exp,44,↓,down,↓,1.1214429000392556,True,13,-1,0,4
Y2-S2-084K38,6,517,PS,exp,36,←,no_key,no_letter,-1.0,False,13,-1,0,4
Y2-S2-084K38,6,518,PS,exp,29,→,right,→,0.5086173000745475,True,14,-1,0,4
Y2-S2-084K38,6,519,PS,exp,41,↓,left,←,1.0256778998300433,False,14,-1,0,4
Y2-S2-084K38,6,520,PS,exp,34,→,right,→,0.49451979994773865,True,15,-1,0,4
Y2-S2-084K38,6,521,PS,exp,32,↑,down,↓,1.297044400125742,False,15,-1,0,4
Y2-S2-084K38,6,522,PS,exp,48,→,right,→,0.6021981001831591,True,16,-1,0,4
Y2-S2-084K38,6,523,PS,exp,50,←,down,↓,0.669955899938941,False,16,-1,0,4
Y2-S2-084K38,6,524,PS,exp,41,→,right,→,0.5277227996848524,True,17,-1,0,4
Y2-S2-084K38,6,525,PS,exp,47,←,left,←,0.5166309997439384,True,17,-1,0,4
Y2-S2-084K38,6,526,PS,exp,40,↑,up,↑,0.5522642997093499,True,17,1,1,5
Y2-S2-084K38,6,527,PS,exp,37,→,up,↑,0.6843123999424279,False,16,-1,1,6
Y2-S2-084K38,6,528,PS,exp,48,←,left,←,0.585459599737078,True,17,-1,0,6
Y2-S2-084K38,6,529,PS,exp,35,→,right,→,0.6203922000713646,True,17,-1,0,6
Y2-S2-084K38,6,530,PS,exp,37,↓,down,↓,0.661120199598372,True,17,1,1,7
Y2-S2-084K38,6,531,PS,exp,46,←,left,←,0.5659006997011602,True,16,1,0,7
Y2-S2-084K38,6,532,PS,exp,31,→,left,←,0.783755199983716,False,16,-1,1,8
Y2-S2-084K38,6,533,PS,exp,46,←,left,←,0.4948440003208816,True,17,-1,0,8
Y2-S2-084K38,6,534,PS,exp,47,↓,down,↓,0.5943624996580184,True,17,-1,0,8
Y2-S2-084K38,6,535,PS,exp,40,→,right,→,0.5631908997893333,True,17,1,1,9
Y2-S2-084K38,6,536,PS,exp,32,←,left,←,0.5071586002595723,True,16,1,0,9
Y2-S2-084K38,6,537,PS,exp,36,↓,down,↓,0.544455399736762,True,16,1,0,9
Y2-S2-084K38,6,538,PS,exp,38,←,no_key,no_letter,-1.0,False,16,-1,1,10
Y2-S2-084K38,6,539,PS,exp,26,↑,up,↑,0.4979558000341058,True,17,-1,0,10
Y2-S2-084K38,6,540,PS,exp,42,→,left,←,0.7983768000267446,False,17,-1,0,10
Y2-S2-084K38,6,541,PS,exp,34,↓,down,↓,0.7107959999702871,True,18,-1,0,10
Y2-S2-084K38,6,542,PS,exp,36,→,right,→,0.6996276997961104,True,18,-1,0,10
Y2-S2-084K38,6,543,PS,exp,49,↑,up,↑,0.5974099999293685,True,18,1,1,11
Y2-S2-084K38,6,544,PS,exp,50,↓,down,↓,0.6862459001131356,True,17,1,0,11
Y2-S2-084K38,6,545,PS,exp,43,←,left,←,0.5517440000548959,True,17,1,0,11
Y2-S2-084K38,6,546,PS,exp,46,→,right,→,0.5373550001531839,True,17,1,0,11
Y2-S2-084K38,6,547,PS,exp,27,↓,down,↓,0.6406374000944197,True,16,1,0,11
Y2-S2-084K38,6,548,PS,exp,48,←,left,←,0.5111183999106288,True,16,1,0,11
Y2-S2-084K38,6,549,PS,exp,30,↑,up,↑,0.7142964997328818,True,16,1,0,11
Y2-S2-084K38,6,550,PS,exp,43,↓,down,↓,0.7352460999973118,True,15,1,0,11
Y2-S2-084K38,6,551,PS,exp,35,←,left,←,0.4828192996792495,True,15,1,0,11
Y2-S2-084K38,6,552,PS,exp,25,↓,down,↓,0.6088809999637306,True,15,1,0,11
Y2-S2-084K38,6,553,PS,exp,38,↑,up,↑,0.622091299854219,True,14,1,0,11
Y2-S2-084K38,6,554,PS,exp,48,→,left,←,0.3674121000804007,False,14,-1,1,12
Y2-S2-084K38,6,555,PS,exp,27,↓,up,↑,0.9036083999089897,False,15,-1,0,12
Y2-S2-084K38,6,556,PS,exp,44,↑,up,↑,0.47476290026679635,True,16,-1,0,12
Y2-S2-084K38,6,557,PS,exp,34,→,up,↑,0.8963317996822298,False,16,-1,0,12
Y2-S2-084K38,6,558,PS,exp,40,←,left,←,0.5557555998675525,True,17,-1,0,12
Y2-S2-084K38,6,559,PS,exp,25,↑,up,↑,0.6685675997287035,True,17,-1,0,12
Y2-S2-084K38,6,560,PS,exp,30,←,left,←,0.4814724000170827,True,17,1,1,13
Y2-S2-084K38,6,561,PS,exp,27,↑,up,↑,0.4467331999912858,True,16,1,0,13
Y2-S2-084K38,6,562,PS,exp,40,↓,down,↓,0.7336683999747038,True,16,1,0,13
Y2-S2-084K38,6,563,PS,exp,38,←,left,←,0.5819664997979999,True,16,1,0,13
Y2-S2-084K38,6,564,PS,exp,49,→,right,→,0.6666614003479481,True,15,1,0,13
Y2-S2-084K38,6,565,PS,exp,36,←,left,←,0.5711035998538136,True,15,1,0,13
Y2-S2-084K38,6,566,PS,exp,37,↑,up,↑,0.637536299880594,True,15,1,0,13
Y2-S2-084K38,6,567,PS,exp,41,↓,down,↓,0.7272878000512719,True,14,1,0,13
Y2-S2-084K38,6,568,PS,exp,44,→,right,→,0.5808510002680123,True,14,1,0,13
Y2-S2-084K38,6,569,PS,exp,45,↓,down,↓,0.6046949001029134,True,14,1,0,13
Y2-S2-084K38,6,570,PS,exp,33,↑,down,↓,0.9056370002217591,False,13,-1,1,14
Y2-S2-084K38,6,571,PS,exp,42,←,left,←,0.5588258998468518,True,14,-1,0,14
Y2-S2-084K38,6,572,PS,exp,30,→,right,→,0.5449704001657665,True,14,-1,0,14
Y2-S2-084K38,6,573,PS,exp,25,↑,up,↑,0.5173455001786351,True,14,1,1,15
Y2-S2-084K38,6,574,PS,exp,49,↓,down,↓,0.6570902997627854,True,13,1,0,15
Y2-S2-084K38,6,575,PS,exp,25,→,right,→,0.5234245997853577,True,13,1,0,15
Y2-S2-084K38,6,576,PS,exp,44,←,left,←,0.4479160998016596,True,13,1,0,15
Y2-S2-084K38,6,577,PS,exp,25,↓,down,↓,0.5712803001515567,True,12,1,0,15
Y2-S2-084K38,6,578,PS,exp,46,←,left,←,0.5333705996163189,True,12,1,0,15
Y2-S2-084K38,6,579,PS,exp,38,↑,up,↑,0.5193969998508692,True,12,1,0,15
Y2-S2-084K38,6,580,PS,exp,46,←,left,←,0.6519303000532091,True,11,1,0,15
Y2-S2-084K38,6,581,PS,exp,41,↑,up,↑,0.6434697997756302,True,11,1,0,15
Y2-S2-084K38,6,582,PS,exp,40,→,right,→,0.5034916000440717,True,11,1,0,15
Y2-S2-084K38,6,583,PS,exp,30,↓,down,↓,0.8952910001389682,True,10,1,0,15
Y2-S2-084K38,6,584,PS,exp,48,↑,up,↑,0.5775271998718381,True,10,1,0,15
Y2-S2-084K38,6,585,PS,exp,43,←,left,←,0.7272337996400893,True,10,1,0,15
Y2-S2-084K38,6,586,PS,exp,31,↓,up,↑,0.5990679999813437,False,9,-1,1,16
Y2-S2-084K38,7,587,PS,intra_train,34,←,left,←,0.79293920006603,True,18,-,-,-
Y2-S2-084K38,7,588,PS,intra_train,40,→,right,→,0.5713824001140893,True,18,-,-,-
Y2-S2-084K38,7,589,PS,intra_train,29,↓,left,←,0.8849346996285021,False,18,-,-,-
Y2-S2-084K38,7,590,PS,intra_train,48,↑,up,↑,0.5487908003851771,True,18,-,-,-
Y2-S2-084K38,7,591,PS,intra_train,50,→,right,→,0.4695981000550091,True,18,-,-,-
Y2-S2-084K38,7,592,PS,exp,27,↑,up,↑,0.5929879997856915,True,12,0,0,0
Y2-S2-084K38,7,593,PS,exp,32,↓,down,↓,0.7827582997269928,True,12,0,0,0
Y2-S2-084K38,7,594,PS,exp,44,→,right,→,0.45332479989156127,True,12,1,0,0
Y2-S2-084K38,7,595,PS,exp,46,↑,left,←,0.9384649000130594,False,11,-1,1,1
Y2-S2-084K38,7,596,PS,exp,42,←,left,←,0.4331821999512613,True,12,-1,0,1
Y2-S2-084K38,7,597,PS,exp,33,↑,up,↑,0.5414550001733005,True,12,-1,0,1
Y2-S2-084K38,7,598,PS,exp,33,←,right,→,0.6440218002535403,False,12,-1,0,1
Y2-S2-084K38,7,599,PS,exp,42,↑,up,↑,0.6405855999328196,True,13,-1,0,1
Y2-S2-084K38,7,600,PS,exp,28,→,right,→,0.7004387001506984,True,13,-1,0,1
Y2-S2-084K38,7,601,PS,exp,38,↓,down,↓,0.6372547000646591,True,13,1,1,2
Y2-S2-084K38,7,602,PS,exp,33,←,left,←,0.5782687999308109,True,12,1,0,2
Y2-S2-084K38,7,603,PS,exp,34,↓,down,↓,0.5421832003630698,True,12,1,0,2
Y2-S2-084K38,7,604,PS,exp,50,←,left,←,0.44451910024508834,True,12,1,0,2
Y2-S2-084K38,7,605,PS,exp,39,↑,up,↑,0.4670429998077452,True,11,1,0,2
Y2-S2-084K38,7,606,PS,exp,27,↓,down,↓,0.5359216001816094,True,11,1,0,2
Y2-S2-084K38,7,607,PS,exp,27,→,right,→,0.5263640000484884,True,11,1,0,2
Y2-S2-084K38,7,608,PS,exp,45,←,left,←,0.3949322998523712,True,10,1,0,2
Y2-S2-084K38,7,609,PS,exp,31,↓,down,↓,0.515461599919945,True,10,1,0,2
Y2-S2-084K38,7,610,PS,exp,41,↑,up,↑,0.5306783998385072,True,10,1,0,2
Y2-S2-084K38,7,611,PS,exp,34,↓,down,↓,0.5466574002057314,True,9,1,0,2
Y2-S2-084K38,7,612,PS,exp,34,←,left,←,0.5740774003788829,True,9,1,0,2
Y2-S2-084K38,7,613,PS,exp,34,↓,left,←,0.8719354001805186,False,9,-1,1,3
Y2-S2-084K38,7,614,PS,exp,33,↑,up,↑,0.5145736001431942,True,10,-1,0,3
Y2-S2-084K38,7,615,PS,exp,30,→,right,→,0.5861980002373457,True,10,-1,0,3
Y2-S2-084K38,7,616,PS,exp,50,↑,left,←,0.5420425003394485,False,10,-1,0,3
Y2-S2-084K38,7,617,PS,exp,32,↓,down,↓,0.5766108999960124,True,11,-1,0,3
Y2-S2-084K38,7,618,PS,exp,26,→,right,→,0.500123499892652,True,11,-1,0,3
Y2-S2-084K38,7,619,PS,exp,48,↓,down,↓,0.5262795998714864,True,11,1,1,4
Y2-S2-084K38,7,620,PS,exp,50,→,down,↓,0.6791854999028146,False,10,-1,1,5
Y2-S2-084K38,7,621,PS,exp,36,←,down,↓,0.45164560014382005,False,11,-1,0,5
Y2-S2-084K38,7,622,PS,exp,30,↑,up,↑,0.5918989996425807,True,12,-1,0,5
Y2-S2-084K38,7,623,PS,exp,31,→,up,↑,0.6264546001330018,False,12,-1,0,5
Y2-S2-084K38,7,624,PS,exp,33,←,up,↑,0.9735940997488797,False,13,-1,0,5
Y2-S2-084K38,7,625,PS,exp,32,→,right,→,0.6343860002234578,True,14,-1,0,5
Y2-S2-084K38,7,626,PS,exp,49,↑,up,↑,0.6052673999220133,True,14,-1,0,5
Y2-S2-084K38,7,627,PS,exp,27,↓,down,↓,0.6941711995750666,True,14,1,1,6
Y2-S2-084K38,7,628,PS,exp,46,↑,up,↑,0.4872332001104951,True,13,1,0,6
Y2-S2-084K38,7,629,PS,exp,29,←,left,←,0.630634699948132,True,13,1,0,6
Y2-S2-084K38,7,630,PS,exp,30,→,right,→,0.5294896000996232,True,13,1,0,6
Y2-S2-084K38,7,631,PS,exp,33,↑,up,↑,0.503915200009942,True,12,1,0,6
Y2-S2-084K38,7,632,PS,exp,39,→,right,→,0.5547323999926448,True,12,1,0,6
Y2-S2-084K38,7,633,PS,exp,35,←,right,→,0.8884177003055811,False,12,-1,1,7
Y2-S2-084K38,7,634,PS,exp,35,↑,up,↑,0.5955920000560582,True,13,-1,0,7
Y2-S2-084K38,7,635,PS,exp,26,↓,down,↓,1.0154403001070023,True,13,-1,0,7
Y2-S2-084K38,7,636,PS,exp,40,←,left,←,0.5774983000010252,True,13,1,1,8
Y2-S2-084K38,7,637,PS,exp,27,↑,left,←,0.6982150999829173,False,12,-1,1,9
Y2-S2-084K38,7,638,PS,exp,44,→,right,→,0.516091899946332,True,13,-1,0,9
Y2-S2-084K38,7,639,PS,exp,36,↑,down,↓,1.1496240003034472,False,13,-1,0,9
Y2-S2-084K38,7,640,PS,exp,38,→,right,→,0.5987388999201357,True,14,-1,0,9
Y2-S2-084K38,7,641,PS,exp,36,←,left,←,0.8197269001975656,True,14,-1,0,9
Y2-S2-084K38,7,642,PS,exp,30,→,right,→,0.5370526998303831,True,14,1,1,10
Y2-S2-084K38,7,643,PS,exp,45,↑,right,→,0.6051925998181105,False,13,-1,1,11
Y2-S2-084K38,7,644,PS,exp,42,←,no_key,no_letter,-1.0,False,14,-1,0,11
Y2-S2-084K38,7,645,PS,exp,26,↓,down,↓,0.769262199755758,True,15,-1,0,11
Y2-S2-084K38,7,646,PS,exp,48,↑,down,↓,0.5753770996816456,False,15,-1,0,11
Y2-S2-084K38,7,647,PS,exp,25,→,right,→,0.4674836997874081,True,16,-1,0,11
Y2-S2-084K38,7,648,PS,exp,37,↓,down,↓,0.6017637997865677,True,16,-1,0,11
Y2-S2-084K38,7,649,PS,exp,46,←,left,←,0.5694547002203763,True,16,1,1,12
Y2-S2-084K38,7,650,PS,exp,37,↓,down,↓,0.5894469004124403,True,15,1,0,12
Y2-S2-084K38,7,651,PS,exp,33,→,right,→,0.5429863999597728,True,15,1,0,12
Y2-S2-084K38,7,652,PS,exp,41,↑,up,↑,0.6072955001145601,True,15,1,0,12
Y2-S2-084K38,7,653,PS,exp,31,←,left,←,0.5638588997535408,True,14,1,0,12
Y2-S2-084K38,7,654,PS,exp,29,→,right,→,0.5266033997759223,True,14,1,0,12
Y2-S2-084K38,7,655,PS,exp,26,←,left,←,0.5203908002004027,True,14,1,0,12
Y2-S2-084K38,7,656,PS,exp,34,→,right,→,0.49094679998233914,True,13,1,0,12
Y2-S2-084K38,7,657,PS,exp,37,↑,up,↑,0.6490406999364495,True,13,1,0,12
Y2-S2-084K38,7,658,PS,exp,36,→,right,→,0.4911746997386217,True,13,1,0,12
Y2-S2-084K38,7,659,PS,exp,49,←,left,←,0.5584760997444391,True,12,1,0,12
Y2-S2-084K38,7,660,PS,exp,45,↓,down,↓,0.6168717998079956,True,12,1,0,12
Y2-S2-084K38,7,661,PS,exp,43,→,right,→,0.5493458998389542,True,12,1,0,12
Y2-S2-084K38,7,662,PS,exp,49,↑,up,↑,0.5146114001981914,True,11,1,0,12
Y2-S2-084K38,7,663,PS,exp,32,←,left,←,0.7035749000497162,True,11,1,0,12
Y2-S2-084K38,7,664,PS,exp,47,↑,up,↑,0.5193786998279393,True,11,1,0,12
Y2-S2-084K38,7,665,PS,exp,38,←,left,←,0.5766451000235975,True,10,1,0,12
Y2-S2-084K38,7,666,PS,exp,43,↓,up,↑,0.6529540996998549,False,10,-1,1,13
Y2-S2-084K38,7,667,PS,exp,40,←,left,←,0.46030439995229244,True,11,-1,0,13
Y2-S2-084K38,7,668,PS,exp,31,→,right,→,0.6460823002271354,True,11,-1,0,13
Y2-S2-084K38,7,669,PS,exp,28,↓,left,←,1.2114097001031041,False,11,-1,0,13
Y2-S2-084K38,7,670,PS,exp,29,↑,up,↑,0.5282584000378847,True,12,-1,0,13
Y2-S2-084K38,7,671,PS,exp,25,↓,up,↑,0.7701466996222734,False,12,-1,0,13
Y2-S2-084K38,7,672,PS,exp,46,↑,no_key,no_letter,-1.0,False,13,-1,0,13
Y2-S2-084K38,7,673,PS,exp,45,→,right,→,0.7822217997163534,True,14,-1,0,13
Y2-S2-084K38,7,674,PS,exp,32,←,left,←,0.5697901002131402,True,14,-1,0,13
Y2-S2-084K38,7,675,PS,exp,33,↓,left,←,0.9814623002894223,False,14,-1,0,13
Y2-S2-084K38,7,676,PS,exp,49,←,left,←,0.6141793001443148,True,15,-1,0,13
Y2-S2-084K38,7,677,PS,exp,49,↓,down,↓,0.523702499922365,True,15,-1,0,13
Y2-S2-084K38,7,678,PS,exp,46,↑,up,↑,0.7632281999103725,True,15,1,1,14
Y2-S2-084K38,7,679,PS,exp,31,↓,up,↑,0.6422598999924958,False,14,-1,1,15
Y2-S2-084K38,7,680,PS,exp,37,←,up,↑,0.43571989983320236,False,15,-1,0,15
Y2-S2-084K38,7,681,PS,exp,48,↑,up,↑,0.5968611002899706,True,16,-1,0,15
Y2-S2-084K38,7,682,PS,exp,38,↓,down,↓,0.693125800229609,True,16,-1,0,15
Y2-S2-084K38,7,683,PS,exp,47,↑,up,↑,0.5048898002132773,True,16,1,1,16
Y2-S2-084K38,8,684,AS,intra_train,38,→,left,←,1.6666103000752628,False,25,-,-,-
Y2-S2-084K38,8,685,AS,intra_train,42,↓,down,↓,1.4020104999653995,True,25,-,-,-
Y2-S2-084K38,8,686,AS,intra_train,26,↑,up,↑,0.5338611998595297,True,25,-,-,-
Y2-S2-084K38,8,687,AS,intra_train,30,←,down,↓,0.611714500002563,False,25,-,-,-
Y2-S2-084K38,8,688,AS,intra_train,41,↑,up,↑,0.46770030027255416,True,25,-,-,-
Y2-S2-084K38,8,689,AS,exp,38,→,right,→,0.6044116001576185,True,17,0,0,0
Y2-S2-084K38,8,690,AS,exp,43,↓,up,↑,0.6908067003823817,False,17,-1,0,0
Y2-S2-084K38,8,691,AS,exp,30,←,left,←,0.5292831002734601,True,18,-1,0,0
Y2-S2-084K38,8,692,AS,exp,39,→,right,→,0.7134430003352463,True,18,-1,0,0
Y2-S2-084K38,8,693,AS,exp,46,←,left,←,1.418380600400269,True,18,1,1,1
Y2-S2-084K38,8,694,AS,exp,29,↑,up,↑,0.4568892000243068,True,17,1,0,1
Y2-S2-084K38,8,695,AS,exp,26,→,right,→,0.49844929995015264,True,17,1,0,1
Y2-S2-084K38,8,696,AS,exp,47,↑,up,↑,0.5155178997665644,True,17,1,0,1
Y2-S2-084K38,8,697,AS,exp,33,←,left,←,0.565017499960959,True,16,1,0,1
Y2-S2-084K38,8,698,AS,exp,35,→,right,→,0.4770621000789106,True,16,1,0,1
Y2-S2-084K38,8,699,AS,exp,32,←,no_key,no_letter,-1.0,False,16,-1,1,2
Y2-S2-084K38,8,700,AS,exp,31,↑,left,←,0.7537088999524713,False,17,-1,0,2
Y2-S2-084K38,8,701,AS,exp,41,←,left,←,0.5742210997268558,True,18,-1,0,2
Y2-S2-084K38,8,702,AS,exp,28,↑,right,→,1.0866471999324858,False,18,-1,0,2
Y2-S2-084K38,8,703,AS,exp,29,↓,right,→,1.0338280000723898,False,19,-1,0,2
Y2-S2-084K38,8,704,AS,exp,41,↑,left,←,0.8887563003227115,False,20,-1,0,2
Y2-S2-084K38,8,705,AS,exp,46,→,right,→,0.6651634001173079,True,21,-1,0,2
Y2-S2-084K38,8,706,AS,exp,34,←,left,←,0.5623778002336621,True,21,-1,0,2
Y2-S2-084K38,8,707,AS,exp,40,↓,down,↓,0.7073327000252903,True,21,1,1,3
Y2-S2-084K38,8,708,AS,exp,30,↑,no_key,no_letter,-1.0,False,20,-1,1,4
Y2-S2-084K38,8,709,AS,exp,45,→,right,→,0.5731278001330793,True,21,-1,0,4
Y2-S2-084K38,8,710,AS,exp,27,↑,down,↓,1.168341999873519,False,21,-1,0,4
Y2-S2-084K38,8,711,AS,exp,30,←,left,←,0.5932536995969713,True,22,-1,0,4
Y2-S2-084K38,8,712,AS,exp,38,↓,down,↓,0.6922520003281534,True,22,-1,0,4
Y2-S2-084K38,8,713,AS,exp,44,→,right,→,0.752452400047332,True,22,1,1,5
Y2-S2-084K38,8,714,AS,exp,49,↑,up,↑,0.5511106997728348,True,21,1,0,5
Y2-S2-084K38,8,715,AS,exp,45,↓,down,↓,0.8329356997273862,True,21,1,0,5
Y2-S2-084K38,8,716,AS,exp,47,→,right,→,0.5416464000009,True,21,1,0,5
Y2-S2-084K38,8,717,AS,exp,36,←,left,←,0.5556934997439384,True,20,1,0,5
Y2-S2-084K38,8,718,AS,exp,50,↓,down,↓,0.6178509998135269,True,20,1,0,5
Y2-S2-084K38,8,719,AS,exp,49,↑,down,↓,0.9035369995981455,False,20,-1,1,6
Y2-S2-084K38,8,720,AS,exp,48,←,left,←,0.635642800014466,True,21,-1,0,6
Y2-S2-084K38,8,721,AS,exp,39,↓,down,↓,0.6898250998929143,True,21,-1,0,6
Y2-S2-084K38,8,722,AS,exp,43,↑,up,↑,0.6321705998852849,True,21,1,1,7
Y2-S2-084K38,8,723,AS,exp,34,←,up,↑,0.7607493000105023,False,20,-1,1,8
Y2-S2-084K38,8,724,AS,exp,49,↑,up,↑,0.5225615003146231,True,21,-1,0,8
Y2-S2-084K38,8,725,AS,exp,32,↓,down,↓,0.7018511998467147,True,21,-1,0,8
Y2-S2-084K38,8,726,AS,exp,32,←,down,↓,1.401641400065273,False,21,-1,0,8
Y2-S2-084K38,8,727,AS,exp,29,↑,up,↑,0.7434629001654685,True,22,-1,0,8
Y2-S2-084K38,8,728,AS,exp,29,↓,down,↓,0.7519021998159587,True,22,-1,0,8
Y2-S2-084K38,8,729,AS,exp,33,→,right,→,0.6411302001215518,True,22,1,1,9
Y2-S2-084K38,8,730,AS,exp,47,←,right,→,0.9478593003004789,False,21,-1,1,10
Y2-S2-084K38,8,731,AS,exp,30,→,right,→,0.5919617996551096,True,22,-1,0,10
Y2-S2-084K38,8,732,AS,exp,32,↓,down,↓,0.8423758000135422,True,22,-1,0,10
Y2-S2-084K38,8,733,AS,exp,34,→,right,→,0.8238556999713182,True,22,1,1,11
Y2-S2-084K38,8,734,AS,exp,27,↓,down,↓,0.5758008998818696,True,21,1,0,11
Y2-S2-084K38,8,735,AS,exp,48,←,right,→,0.6414665998890996,False,21,-1,1,12
Y2-S2-084K38,8,736,AS,exp,36,↓,down,↓,0.6541801998391747,True,22,-1,0,12
Y2-S2-084K38,8,737,AS,exp,47,←,left,←,0.5419892999343574,True,22,-1,0,12
Y2-S2-084K38,8,738,AS,exp,44,↓,down,↓,0.5747513002716005,True,22,1,1,13
Y2-S2-084K38,8,739,AS,exp,48,↑,down,↓,0.8053985000588,False,21,-1,1,14
Y2-S2-084K38,8,740,AS,exp,45,→,right,→,0.80467260023579,True,22,-1,0,14
Y2-S2-084K38,8,741,AS,exp,30,←,left,←,0.7524150996468961,True,22,-1,0,14
Y2-S2-084K38,8,742,AS,exp,44,↓,down,↓,0.6723619000986218,True,22,1,1,15
Y2-S2-084K38,8,743,AS,exp,38,←,left,←,0.636236300226301,True,21,1,0,15
Y2-S2-084K38,8,744,AS,exp,26,→,right,→,0.672388699837029,True,21,1,0,15
Y2-S2-084K38,8,745,AS,exp,27,↑,up,↑,0.7398411999456584,True,21,1,0,15
Y2-S2-084K38,8,746,AS,exp,38,←,left,←,0.5719285001978278,True,20,1,0,15
Y2-S2-084K38,8,747,AS,exp,34,→,up,↑,1.0215083002112806,False,20,-1,1,16
