PART_ID,Block_no,Trial_no,Block_type,Trial_type,CSI,Stim_letter,Key_pressed,letter_choose,Rt,Corr,Stimulus Time,Level,Reversal,Revs_count
Y2-S2-189K21,1,1,PS,train,46,↑,up,↑,1.3868541000410914,True,30,-,-,-
Y2-S2-189K21,1,2,PS,train,46,←,left,←,0.5671856000553817,True,30,-,-,-
Y2-S2-189K21,1,3,PS,train,47,↓,down,↓,1.2356851999647915,True,30,-,-,-
Y2-S2-189K21,1,4,PS,train,44,←,left,←,0.48401569994166493,True,30,-,-,-
Y2-S2-189K21,1,5,PS,train,31,↓,down,↓,0.5503607999999076,True,30,-,-,-
Y2-S2-189K21,1,6,PS,train,47,→,right,→,1.0785386000061408,True,30,-,-,-
Y2-S2-189K21,1,7,PS,train,46,↑,up,↑,0.6336122000357136,True,30,-,-,-
Y2-S2-189K21,1,8,PS,train,31,←,left,←,0.5006694999756292,True,30,-,-,-
Y2-S2-189K21,1,9,PS,train,48,↑,up,↑,0.5174044000450522,True,30,-,-,-
Y2-S2-189K21,1,10,PS,train,39,↓,down,↓,1.182962799910456,True,30,-,-,-
Y2-S2-189K21,2,11,AS,train,39,→,right,→,0.6175437000347301,True,45,-,-,-
Y2-S2-189K21,2,12,AS,train,45,↑,up,↑,0.484301200020127,True,45,-,-,-
Y2-S2-189K21,2,13,AS,train,39,→,right,→,0.5008925999281928,True,45,-,-,-
Y2-S2-189K21,2,14,AS,train,41,←,left,←,0.5343198999762535,True,45,-,-,-
Y2-S2-189K21,2,15,AS,train,28,↑,up,↑,0.484269900014624,True,45,-,-,-
Y2-S2-189K21,2,16,AS,train,43,↓,left,←,0.4840857000090182,False,45,-,-,-
Y2-S2-189K21,2,17,AS,train,32,←,right,→,0.43442840001080185,False,45,-,-,-
Y2-S2-189K21,2,18,AS,train,35,↑,up,↑,0.6509017000207677,True,45,-,-,-
Y2-S2-189K21,2,19,AS,train,37,←,left,←,0.5843882999615744,True,45,-,-,-
Y2-S2-189K21,2,20,AS,train,25,↑,up,↑,0.6510289999423549,True,45,-,-,-
Y2-S2-189K21,-,21,PS,adaptive,26,→,right,→,0.5052636000327766,True,10,0,0,0
Y2-S2-189K21,-,22,PS,adaptive,50,↑,up,↑,0.4477582999970764,True,10,0,0,0
Y2-S2-189K21,-,23,PS,adaptive,47,←,left,←,0.4572236000094563,True,10,1,0,0
Y2-S2-189K21,-,24,PS,adaptive,30,↑,up,↑,0.49180379998870194,True,9,1,0,0
Y2-S2-189K21,-,25,PS,adaptive,47,←,left,←,0.43119959998875856,True,9,1,0,0
Y2-S2-189K21,-,26,PS,adaptive,40,→,right,→,0.5273188999854028,True,9,1,0,0
Y2-S2-189K21,-,27,PS,adaptive,28,↓,down,↓,0.42080139997415245,True,8,1,0,0
Y2-S2-189K21,-,28,PS,adaptive,45,←,left,←,0.4515228000236675,True,8,1,0,0
Y2-S2-189K21,-,29,PS,adaptive,48,↓,down,↓,0.463485199958086,True,8,1,0,0
Y2-S2-189K21,-,30,PS,adaptive,46,←,left,←,0.5056448000250384,True,7,1,0,0
Y2-S2-189K21,-,31,PS,adaptive,48,→,left,←,0.5244516000384465,False,7,-1,1,1
Y2-S2-189K21,-,32,PS,adaptive,25,←,right,→,0.7804482000647113,False,8,-1,0,1
Y2-S2-189K21,-,33,PS,adaptive,39,↓,up,↑,1.6399749999400228,False,9,-1,0,1
Y2-S2-189K21,-,34,PS,adaptive,28,→,left,←,0.7801916999742389,False,10,-1,0,1
Y2-S2-189K21,-,35,PS,adaptive,50,←,left,←,0.9226220999844372,True,11,-1,0,1
Y2-S2-189K21,-,36,PS,adaptive,33,↓,down,↓,1.2666758999694139,True,11,-1,0,1
Y2-S2-189K21,-,37,PS,adaptive,31,↑,up,↑,0.7428782999049872,True,11,1,1,2
Y2-S2-189K21,-,38,PS,adaptive,45,→,right,→,0.47071350004989654,True,10,1,0,2
Y2-S2-189K21,-,39,PS,adaptive,41,↓,down,↓,0.42261440004222095,True,10,1,0,2
Y2-S2-189K21,-,40,PS,adaptive,44,↑,up,↑,0.4676912999711931,True,10,1,0,2
Y2-S2-189K21,-,41,PS,adaptive,29,↓,down,↓,0.4935791000025347,True,9,1,0,2
Y2-S2-189K21,-,42,PS,adaptive,46,→,right,→,0.7150457999669015,True,9,1,0,2
Y2-S2-189K21,-,43,PS,adaptive,36,←,left,←,0.6872774000512436,True,9,1,0,2
Y2-S2-189K21,-,44,PS,adaptive,47,↑,right,→,0.6232123000081629,False,8,-1,1,3
Y2-S2-189K21,-,45,PS,adaptive,44,→,right,→,0.7425877000205219,True,9,-1,0,3
Y2-S2-189K21,-,46,PS,adaptive,36,↑,up,↑,0.54580329998862,True,9,-1,0,3
Y2-S2-189K21,-,47,PS,adaptive,50,→,right,→,0.510448900051415,True,9,1,1,4
Y2-S2-189K21,-,48,AS,adaptive,30,↓,down,↓,0.5635769999353215,True,20,0,0,0
Y2-S2-189K21,-,49,AS,adaptive,42,→,right,→,1.5359314000234008,True,20,0,0,0
Y2-S2-189K21,-,50,AS,adaptive,38,←,left,←,0.5287139000138268,True,20,1,0,0
Y2-S2-189K21,-,51,AS,adaptive,48,→,right,→,0.621084599988535,True,19,1,0,0
Y2-S2-189K21,-,52,AS,adaptive,45,←,left,←,0.6680658999830484,True,19,1,0,0
Y2-S2-189K21,-,53,AS,adaptive,48,↓,down,↓,0.41730380000080913,True,19,1,0,0
Y2-S2-189K21,-,54,AS,adaptive,47,←,right,→,0.5140378000214696,False,18,-1,1,1
Y2-S2-189K21,-,55,AS,adaptive,42,→,right,→,1.1422980999341235,True,19,-1,0,1
Y2-S2-189K21,-,56,AS,adaptive,49,↓,down,↓,0.9266406999668106,True,19,-1,0,1
Y2-S2-189K21,-,57,AS,adaptive,44,→,right,→,0.5360379000194371,True,19,1,1,2
Y2-S2-189K21,-,58,AS,adaptive,26,↓,down,↓,0.7862212000181898,True,18,1,0,2
Y2-S2-189K21,-,59,AS,adaptive,48,↑,up,↑,0.5735648000845686,True,18,1,0,2
Y2-S2-189K21,-,60,AS,adaptive,42,←,left,←,0.5644217999652028,True,18,1,0,2
Y2-S2-189K21,-,61,AS,adaptive,36,↓,down,↓,0.6668093000771478,True,17,1,0,2
Y2-S2-189K21,-,62,AS,adaptive,27,↑,up,↑,0.6376671000616625,True,17,1,0,2
Y2-S2-189K21,-,63,AS,adaptive,25,↓,down,↓,0.6026278000790626,True,17,1,0,2
Y2-S2-189K21,-,64,AS,adaptive,34,↑,up,↑,0.7994701000861824,True,16,1,0,2
Y2-S2-189K21,-,65,AS,adaptive,39,↓,down,↓,0.5973446000134572,True,16,1,0,2
Y2-S2-189K21,-,66,AS,adaptive,45,←,left,←,0.6408449999289587,True,16,1,0,2
Y2-S2-189K21,-,67,AS,adaptive,40,↓,down,↓,0.6337634000228718,True,15,1,0,2
Y2-S2-189K21,-,68,AS,adaptive,26,→,right,→,0.5199150999542326,True,15,1,0,2
Y2-S2-189K21,-,69,AS,adaptive,34,↑,up,↑,0.5594029000494629,True,15,1,0,2
Y2-S2-189K21,-,70,AS,adaptive,31,→,right,→,1.1379666000138968,True,14,1,0,2
Y2-S2-189K21,-,71,AS,adaptive,26,←,left,←,0.9202933000633493,True,14,1,0,2
Y2-S2-189K21,-,72,AS,adaptive,41,↓,down,↓,0.6196258999407291,True,14,1,0,2
Y2-S2-189K21,-,73,AS,adaptive,43,↑,up,↑,0.8195993000408635,True,13,1,0,2
Y2-S2-189K21,-,74,AS,adaptive,25,→,right,→,0.5239353999495506,True,13,1,0,2
Y2-S2-189K21,-,75,AS,adaptive,35,↓,down,↓,0.44523960002698004,True,13,1,0,2
Y2-S2-189K21,-,76,AS,adaptive,47,→,right,→,0.6194920999696478,True,12,1,0,2
Y2-S2-189K21,-,77,AS,adaptive,47,↓,down,↓,0.44585090002510697,True,12,1,0,2
Y2-S2-189K21,-,78,AS,adaptive,29,←,down,↓,0.6185993999242783,False,12,-1,1,3
Y2-S2-189K21,-,79,AS,adaptive,38,↑,up,↑,0.7531965000089258,True,13,-1,0,3
Y2-S2-189K21,-,80,AS,adaptive,33,→,right,→,0.4254332999698818,True,13,-1,0,3
Y2-S2-189K21,-,81,AS,adaptive,30,←,left,←,0.512764000101015,True,13,1,1,4
Y2-S2-189K21,1,82,AS,intra_train,28,→,right,→,0.5762981999432668,True,18,-,-,-
Y2-S2-189K21,1,83,AS,intra_train,50,←,left,←,0.5430904000531882,True,18,-,-,-
Y2-S2-189K21,1,84,AS,intra_train,32,↑,up,↑,0.7002990999026224,True,18,-,-,-
Y2-S2-189K21,1,85,AS,intra_train,48,↓,down,↓,0.43384419998619705,True,18,-,-,-
Y2-S2-189K21,1,86,AS,intra_train,45,→,right,→,0.4778744000941515,True,18,-,-,-
Y2-S2-189K21,1,87,AS,exp,26,←,left,←,0.5528057999908924,True,12,0,0,0
Y2-S2-189K21,1,88,AS,exp,28,↑,up,↑,0.8588394999969751,True,12,0,0,0
Y2-S2-189K21,1,89,AS,exp,39,↓,down,↓,0.4772231000242755,True,12,1,0,0
Y2-S2-189K21,1,90,AS,exp,26,↑,up,↑,0.8158888999605551,True,11,1,0,0
Y2-S2-189K21,1,91,AS,exp,45,←,up,↑,1.4435122999129817,False,11,-1,1,1
Y2-S2-189K21,1,92,AS,exp,42,↑,up,↑,0.4838882000185549,True,12,-1,0,1
Y2-S2-189K21,1,93,AS,exp,47,→,right,→,0.576885599992238,True,12,-1,0,1
Y2-S2-189K21,1,94,AS,exp,32,←,left,←,0.4745376000646502,True,12,1,1,2
Y2-S2-189K21,1,95,AS,exp,49,↑,up,↑,0.47793249995447695,True,11,1,0,2
Y2-S2-189K21,1,96,AS,exp,44,↓,down,↓,0.4534559000749141,True,11,1,0,2
Y2-S2-189K21,1,97,AS,exp,42,←,right,→,0.6771533000282943,False,11,-1,1,3
Y2-S2-189K21,1,98,AS,exp,30,↓,up,↑,0.9427513999398798,False,12,-1,0,3
Y2-S2-189K21,1,99,AS,exp,43,←,left,←,0.6264916999498382,True,13,-1,0,3
Y2-S2-189K21,1,100,AS,exp,36,→,left,←,0.6833565999986604,False,13,-1,0,3
Y2-S2-189K21,1,101,AS,exp,30,←,right,→,0.6263740999856964,False,14,-1,0,3
Y2-S2-189K21,1,102,AS,exp,32,↓,left,←,0.7775290999561548,False,15,-1,0,3
Y2-S2-189K21,1,103,AS,exp,48,↑,up,↑,0.734538400080055,True,16,-1,0,3
Y2-S2-189K21,1,104,AS,exp,38,←,left,←,0.6639237999916077,True,16,-1,0,3
Y2-S2-189K21,1,105,AS,exp,42,↓,down,↓,0.4498470000689849,True,16,1,1,4
Y2-S2-189K21,1,106,AS,exp,40,→,right,→,0.5099260000279173,True,15,1,0,4
Y2-S2-189K21,1,107,AS,exp,29,↑,up,↑,0.585442699957639,True,15,1,0,4
Y2-S2-189K21,1,108,AS,exp,29,↓,down,↓,0.5182146000443026,True,15,1,0,4
Y2-S2-189K21,1,109,AS,exp,25,↑,up,↑,0.5269372001057491,True,14,1,0,4
Y2-S2-189K21,1,110,AS,exp,38,→,right,→,0.4446718000108376,True,14,1,0,4
Y2-S2-189K21,1,111,AS,exp,28,↑,up,↑,0.7921216000104323,True,14,1,0,4
Y2-S2-189K21,1,112,AS,exp,32,↓,down,↓,0.4637069000164047,True,13,1,0,4
Y2-S2-189K21,1,113,AS,exp,47,→,left,←,0.6795263999374583,False,13,-1,1,5
Y2-S2-189K21,1,114,AS,exp,42,↑,up,↑,0.5039475999074057,True,14,-1,0,5
Y2-S2-189K21,1,115,AS,exp,44,→,right,→,0.47439710004255176,True,14,-1,0,5
Y2-S2-189K21,1,116,AS,exp,26,←,left,←,0.5595712999347597,True,14,1,1,6
Y2-S2-189K21,1,117,AS,exp,44,↓,up,↑,0.8377394999843091,False,13,-1,1,7
Y2-S2-189K21,1,118,AS,exp,29,←,right,→,0.7130855999421328,False,14,-1,0,7
Y2-S2-189K21,1,119,AS,exp,27,→,left,←,0.647694000042975,False,15,-1,0,7
Y2-S2-189K21,1,120,AS,exp,39,←,left,←,0.862397399963811,True,16,-1,0,7
Y2-S2-189K21,1,121,AS,exp,47,↑,up,↑,0.7274864000501111,True,16,-1,0,7
Y2-S2-189K21,1,122,AS,exp,41,←,left,←,0.5146261999616399,True,16,1,1,8
Y2-S2-189K21,1,123,AS,exp,42,→,right,→,0.6357404000591487,True,15,1,0,8
Y2-S2-189K21,1,124,AS,exp,36,←,left,←,0.6211687999311835,True,15,1,0,8
Y2-S2-189K21,1,125,AS,exp,37,↑,up,↑,0.7328937000129372,True,15,1,0,8
Y2-S2-189K21,1,126,AS,exp,42,↓,down,↓,0.5522031999425963,True,14,1,0,8
Y2-S2-189K21,1,127,AS,exp,34,→,right,→,0.6555716999573633,True,14,1,0,8
Y2-S2-189K21,1,128,AS,exp,25,←,left,←,0.6065944000147283,True,14,1,0,8
Y2-S2-189K21,1,129,AS,exp,45,↓,up,↑,0.6843310999684036,False,13,-1,1,9
Y2-S2-189K21,1,130,AS,exp,28,↑,up,↑,1.203224299941212,True,14,-1,0,9
Y2-S2-189K21,1,131,AS,exp,37,↓,down,↓,0.732873700093478,True,14,-1,0,9
Y2-S2-189K21,1,132,AS,exp,27,←,left,←,0.5539302999386564,True,14,1,1,10
Y2-S2-189K21,1,133,AS,exp,47,↓,up,↑,0.7166725000133738,False,13,-1,1,11
Y2-S2-189K21,1,134,AS,exp,27,→,right,→,0.4803152000531554,True,14,-1,0,11
Y2-S2-189K21,1,135,AS,exp,49,←,left,←,0.5844672999810427,True,14,-1,0,11
Y2-S2-189K21,1,136,AS,exp,45,↓,down,↓,0.5652703999076039,True,14,1,1,12
Y2-S2-189K21,1,137,AS,exp,32,←,left,←,0.4297948000021279,True,13,1,0,12
Y2-S2-189K21,1,138,AS,exp,36,→,right,→,0.6746364999562502,True,13,1,0,12
Y2-S2-189K21,1,139,AS,exp,30,↓,down,↓,0.6291291000088677,True,13,1,0,12
Y2-S2-189K21,1,140,AS,exp,34,→,left,←,0.6623858000384644,False,12,-1,1,13
Y2-S2-189K21,1,141,AS,exp,49,←,left,←,0.4947910000337288,True,13,-1,0,13
Y2-S2-189K21,1,142,AS,exp,37,↓,right,→,0.6152321000117809,False,13,-1,0,13
Y2-S2-189K21,1,143,AS,exp,39,←,left,←,0.7032566999550909,True,14,-1,0,13
Y2-S2-189K21,1,144,AS,exp,50,→,left,←,0.6605329000158235,False,14,-1,0,13
Y2-S2-189K21,1,145,AS,exp,39,↑,up,↑,0.5510210000211373,True,15,-1,0,13
Y2-S2-189K21,1,146,AS,exp,30,↓,up,↑,0.79138970002532,False,15,-1,0,13
Y2-S2-189K21,1,147,AS,exp,50,←,left,←,0.46087720000650734,True,16,-1,0,13
Y2-S2-189K21,1,148,AS,exp,42,→,right,→,0.7875108000589535,True,16,-1,0,13
Y2-S2-189K21,1,149,AS,exp,30,↑,up,↑,0.5099392000120133,True,16,1,1,14
Y2-S2-189K21,1,150,AS,exp,30,→,right,→,0.43115630000829697,True,15,1,0,14
Y2-S2-189K21,1,151,AS,exp,42,↓,down,↓,0.48930490005295724,True,15,1,0,14
Y2-S2-189K21,1,152,AS,exp,28,↑,up,↑,0.8934115999145433,True,15,1,0,14
Y2-S2-189K21,1,153,AS,exp,43,←,left,←,0.478358699940145,True,14,1,0,14
Y2-S2-189K21,1,154,AS,exp,41,↑,up,↑,0.7221872999798506,True,14,1,0,14
Y2-S2-189K21,1,155,AS,exp,42,→,left,←,0.5958744999952614,False,14,-1,1,15
Y2-S2-189K21,1,156,AS,exp,32,↑,right,→,0.6637295999098569,False,15,-1,0,15
Y2-S2-189K21,1,157,AS,exp,44,→,right,→,0.6089984000427648,True,16,-1,0,15
Y2-S2-189K21,1,158,AS,exp,32,↓,up,↑,1.0108888000249863,False,16,-1,0,15
Y2-S2-189K21,1,159,AS,exp,31,↑,up,↑,0.5610052000265568,True,17,-1,0,15
Y2-S2-189K21,1,160,AS,exp,32,←,left,←,0.49523040000349283,True,17,-1,0,15
Y2-S2-189K21,1,161,AS,exp,45,→,right,→,0.6487453000154346,True,17,1,1,16
Y2-S2-189K21,2,162,PS,intra_train,49,↓,down,↓,0.5260908999480307,True,12,-,-,-
Y2-S2-189K21,2,163,PS,intra_train,46,→,right,→,0.7387895999709144,True,12,-,-,-
Y2-S2-189K21,2,164,PS,intra_train,30,↓,left,←,0.8071339998859912,False,12,-,-,-
Y2-S2-189K21,2,165,PS,intra_train,26,→,right,→,0.4769005000125617,True,12,-,-,-
Y2-S2-189K21,2,166,PS,intra_train,43,↓,down,↓,0.6792356999358162,True,12,-,-,-
Y2-S2-189K21,2,167,PS,exp,29,←,right,→,0.6584624999668449,False,8,-1,0,0
Y2-S2-189K21,2,168,PS,exp,26,↓,down,↓,0.5251350000035018,True,9,-1,0,0
Y2-S2-189K21,2,169,PS,exp,31,↑,up,↑,0.6619329999666661,True,9,-1,0,0
Y2-S2-189K21,2,170,PS,exp,29,→,left,←,0.828724900027737,False,9,-1,0,0
Y2-S2-189K21,2,171,PS,exp,49,↑,up,↑,0.515802999958396,True,10,-1,0,0
Y2-S2-189K21,2,172,PS,exp,34,→,right,→,0.5327441999688745,True,10,-1,0,0
Y2-S2-189K21,2,173,PS,exp,49,←,left,←,0.46972930000629276,True,10,1,1,1
Y2-S2-189K21,2,174,PS,exp,37,↓,down,↓,0.49771200004033744,True,9,1,0,1
Y2-S2-189K21,2,175,PS,exp,49,↑,right,→,0.6100647000130266,False,9,-1,1,2
Y2-S2-189K21,2,176,PS,exp,44,←,left,←,0.5311952999327332,True,10,-1,0,2
Y2-S2-189K21,2,177,PS,exp,31,→,right,→,0.49535389989614487,True,10,-1,0,2
Y2-S2-189K21,2,178,PS,exp,44,↓,down,↓,0.5129981000209227,True,10,1,1,3
Y2-S2-189K21,2,179,PS,exp,27,→,left,←,0.6718419999815524,False,9,-1,1,4
Y2-S2-189K21,2,180,PS,exp,33,↓,down,↓,0.45275599998421967,True,10,-1,0,4
Y2-S2-189K21,2,181,PS,exp,48,↑,right,→,0.7247085999697447,False,10,-1,0,4
Y2-S2-189K21,2,182,PS,exp,46,→,right,→,0.5337012000381947,True,11,-1,0,4
Y2-S2-189K21,2,183,PS,exp,46,↑,up,↑,0.5610146999824792,True,11,-1,0,4
Y2-S2-189K21,2,184,PS,exp,28,→,left,←,0.6320550999371335,False,11,-1,0,4
Y2-S2-189K21,2,185,PS,exp,29,←,left,←,0.49912699998822063,True,12,-1,0,4
Y2-S2-189K21,2,186,PS,exp,42,↓,right,→,0.8015224999981001,False,12,-1,0,4
Y2-S2-189K21,2,187,PS,exp,48,↑,up,↑,0.49980009999126196,True,13,-1,0,4
Y2-S2-189K21,2,188,PS,exp,50,→,right,→,0.4749153000302613,True,13,-1,0,4
Y2-S2-189K21,2,189,PS,exp,45,←,left,←,0.4555818000808358,True,13,1,1,5
Y2-S2-189K21,2,190,PS,exp,34,→,right,→,0.8425134000135586,True,12,1,0,5
Y2-S2-189K21,2,191,PS,exp,33,↑,up,↑,0.5820526999887079,True,12,1,0,5
Y2-S2-189K21,2,192,PS,exp,26,↓,left,←,0.7499013000633568,False,12,-1,1,6
Y2-S2-189K21,2,193,PS,exp,48,↑,up,↑,0.742627099971287,True,13,-1,0,6
Y2-S2-189K21,2,194,PS,exp,32,↓,left,←,0.7491731999907643,False,13,-1,0,6
Y2-S2-189K21,2,195,PS,exp,42,↑,up,↑,0.47538750001695007,True,14,-1,0,6
Y2-S2-189K21,2,196,PS,exp,40,→,left,←,0.7860554000362754,False,14,-1,0,6
Y2-S2-189K21,2,197,PS,exp,31,↓,down,↓,0.45106430002488196,True,15,-1,0,6
Y2-S2-189K21,2,198,PS,exp,38,→,right,→,0.47683990001678467,True,15,-1,0,6
Y2-S2-189K21,2,199,PS,exp,36,↑,up,↑,0.5816510000731796,True,15,1,1,7
Y2-S2-189K21,2,200,PS,exp,38,←,left,←,0.6022325000958517,True,14,1,0,7
Y2-S2-189K21,2,201,PS,exp,28,↓,down,↓,0.4236615000991151,True,14,1,0,7
Y2-S2-189K21,2,202,PS,exp,43,←,right,→,0.8620839000213891,False,14,-1,1,8
Y2-S2-189K21,2,203,PS,exp,31,→,right,→,0.5261763000162318,True,15,-1,0,8
Y2-S2-189K21,2,204,PS,exp,34,←,left,←,0.5090000999625772,True,15,-1,0,8
Y2-S2-189K21,2,205,PS,exp,41,→,right,→,0.46177389996591955,True,15,1,1,9
Y2-S2-189K21,2,206,PS,exp,34,↑,up,↑,0.5763738000532612,True,14,1,0,9
Y2-S2-189K21,2,207,PS,exp,35,←,left,←,0.6351744999410585,True,14,1,0,9
Y2-S2-189K21,2,208,PS,exp,50,→,right,→,0.49697269999887794,True,14,1,0,9
Y2-S2-189K21,2,209,PS,exp,46,↑,up,↑,0.815296099986881,True,13,1,0,9
Y2-S2-189K21,2,210,PS,exp,49,←,left,←,0.5536615999881178,True,13,1,0,9
Y2-S2-189K21,2,211,PS,exp,40,↑,up,↑,0.49830800003837794,True,13,1,0,9
Y2-S2-189K21,2,212,PS,exp,47,→,left,←,0.6730666999937966,False,12,-1,1,10
Y2-S2-189K21,2,213,PS,exp,43,↓,down,↓,0.448926999932155,True,13,-1,0,10
Y2-S2-189K21,2,214,PS,exp,31,→,right,→,0.5463765000458807,True,13,-1,0,10
Y2-S2-189K21,2,215,PS,exp,38,↓,down,↓,0.4401077999500558,True,13,1,1,11
Y2-S2-189K21,2,216,PS,exp,42,→,right,→,0.4795025000348687,True,12,1,0,11
Y2-S2-189K21,2,217,PS,exp,38,←,left,←,0.46681650006212294,True,12,1,0,11
Y2-S2-189K21,2,218,PS,exp,33,↓,down,↓,0.43434220005292445,True,12,1,0,11
Y2-S2-189K21,2,219,PS,exp,49,↑,up,↑,0.495048200013116,True,11,1,0,11
Y2-S2-189K21,2,220,PS,exp,47,←,left,←,0.5902470999862999,True,11,1,0,11
Y2-S2-189K21,2,221,PS,exp,38,↓,down,↓,0.46332770003937185,True,11,1,0,11
Y2-S2-189K21,2,222,PS,exp,43,→,right,→,0.49970190005842596,True,10,1,0,11
Y2-S2-189K21,2,223,PS,exp,46,←,left,←,0.3738571999128908,True,10,1,0,11
Y2-S2-189K21,2,224,PS,exp,32,↑,up,↑,0.6600192000623792,True,10,1,0,11
Y2-S2-189K21,2,225,PS,exp,35,←,left,←,0.4584474000148475,True,9,1,0,11
Y2-S2-189K21,2,226,PS,exp,30,↑,up,↑,0.4956592000089586,True,9,1,0,11
Y2-S2-189K21,2,227,PS,exp,27,→,right,→,0.5220940000144765,True,9,1,0,11
Y2-S2-189K21,2,228,PS,exp,36,↑,up,↑,0.5696777999401093,True,8,1,0,11
Y2-S2-189K21,2,229,PS,exp,31,←,right,→,0.6937867000233382,False,8,-1,1,12
Y2-S2-189K21,2,230,PS,exp,26,→,right,→,0.5769162999931723,True,9,-1,0,12
Y2-S2-189K21,2,231,PS,exp,41,↑,up,↑,0.5022457999875769,True,9,-1,0,12
Y2-S2-189K21,2,232,PS,exp,48,→,right,→,0.5088982000015676,True,9,1,1,13
Y2-S2-189K21,2,233,PS,exp,28,←,left,←,0.589331700000912,True,8,1,0,13
Y2-S2-189K21,2,234,PS,exp,41,↑,up,↑,0.5166744000744075,True,8,1,0,13
Y2-S2-189K21,2,235,PS,exp,25,←,left,←,0.5632149999728426,True,8,1,0,13
Y2-S2-189K21,2,236,PS,exp,40,↓,right,→,0.8137869000202045,False,7,-1,1,14
Y2-S2-189K21,2,237,PS,exp,47,↑,up,↑,0.5097008000593632,True,8,-1,0,14
Y2-S2-189K21,2,238,PS,exp,38,↓,down,↓,0.45683709997683764,True,8,-1,0,14
Y2-S2-189K21,2,239,PS,exp,31,↑,right,→,0.729997800081037,False,8,-1,0,14
Y2-S2-189K21,2,240,PS,exp,47,↓,up,↑,0.7473293000366539,False,9,-1,0,14
Y2-S2-189K21,2,241,PS,exp,46,←,left,←,0.5423988000256941,True,10,-1,0,14
Y2-S2-189K21,2,242,PS,exp,45,↑,up,↑,0.5153548000380397,True,10,-1,0,14
Y2-S2-189K21,2,243,PS,exp,38,→,right,→,0.46192270005121827,True,10,1,1,15
Y2-S2-189K21,2,244,PS,exp,29,←,left,←,0.5786092999624088,True,9,1,0,15
Y2-S2-189K21,2,245,PS,exp,31,↓,up,↑,0.5936934999190271,False,9,-1,1,16
Y2-S2-189K21,3,246,PS,intra_train,28,←,left,←,0.5667499999981374,True,12,-,-,-
Y2-S2-189K21,3,247,PS,intra_train,26,↑,up,↑,0.5053373000118881,True,12,-,-,-
Y2-S2-189K21,3,248,PS,intra_train,40,↓,down,↓,0.6552727000089362,True,12,-,-,-
Y2-S2-189K21,3,249,PS,intra_train,44,←,left,←,0.42665170005057007,True,12,-,-,-
Y2-S2-189K21,3,250,PS,intra_train,49,↓,down,↓,0.4919944000430405,True,12,-,-,-
Y2-S2-189K21,3,251,PS,exp,27,→,right,→,0.48567930003628135,True,8,0,0,0
Y2-S2-189K21,3,252,PS,exp,28,↓,down,↓,0.584025000105612,True,8,0,0,0
Y2-S2-189K21,3,253,PS,exp,48,←,left,←,0.46760279999580234,True,8,1,0,0
Y2-S2-189K21,3,254,PS,exp,42,↑,left,←,0.6746604000218213,False,7,-1,1,1
Y2-S2-189K21,3,255,PS,exp,41,←,left,←,0.4512295000022277,True,8,-1,0,1
Y2-S2-189K21,3,256,PS,exp,33,↑,left,←,0.6785666000796482,False,8,-1,0,1
Y2-S2-189K21,3,257,PS,exp,33,→,right,→,0.45877230004407465,True,9,-1,0,1
Y2-S2-189K21,3,258,PS,exp,44,←,right,→,0.5820838999934494,False,9,-1,0,1
Y2-S2-189K21,3,259,PS,exp,50,↓,down,↓,0.46254410000983626,True,10,-1,0,1
Y2-S2-189K21,3,260,PS,exp,49,↑,up,↑,0.5017517000669613,True,10,-1,0,1
Y2-S2-189K21,3,261,PS,exp,39,↓,right,→,0.5430631999624893,False,10,-1,0,1
Y2-S2-189K21,3,262,PS,exp,27,↑,up,↑,0.51359940005932,True,11,-1,0,1
Y2-S2-189K21,3,263,PS,exp,47,←,left,←,0.46402819990180433,True,11,-1,0,1
Y2-S2-189K21,3,264,PS,exp,33,↓,down,↓,0.4904346000403166,True,11,1,1,2
Y2-S2-189K21,3,265,PS,exp,39,→,right,→,0.5172561999643221,True,10,1,0,2
Y2-S2-189K21,3,266,PS,exp,28,←,left,←,0.5019824000773951,True,10,1,0,2
Y2-S2-189K21,3,267,PS,exp,41,↓,down,↓,0.5359243999700993,True,10,1,0,2
Y2-S2-189K21,3,268,PS,exp,31,←,left,←,0.4287643999559805,True,9,1,0,2
Y2-S2-189K21,3,269,PS,exp,40,→,right,→,0.5058613999281079,True,9,1,0,2
Y2-S2-189K21,3,270,PS,exp,36,←,left,←,0.7148823998868465,True,9,1,0,2
Y2-S2-189K21,3,271,PS,exp,31,→,right,→,0.4665935999946669,True,8,1,0,2
Y2-S2-189K21,3,272,PS,exp,41,↓,down,↓,0.48014309990685433,True,8,1,0,2
Y2-S2-189K21,3,273,PS,exp,35,↑,left,←,0.5411767000332475,False,8,-1,1,3
Y2-S2-189K21,3,274,PS,exp,40,←,left,←,0.47383660008199513,True,9,-1,0,3
Y2-S2-189K21,3,275,PS,exp,33,→,right,→,0.5048924000002444,True,9,-1,0,3
Y2-S2-189K21,3,276,PS,exp,38,↑,up,↑,0.5795137999812141,True,9,1,1,4
Y2-S2-189K21,3,277,PS,exp,33,→,left,←,0.5304970999713987,False,8,-1,1,5
Y2-S2-189K21,3,278,PS,exp,38,↑,up,↑,0.5555275999940932,True,9,-1,0,5
Y2-S2-189K21,3,279,PS,exp,32,←,left,←,0.49726790003478527,True,9,-1,0,5
Y2-S2-189K21,3,280,PS,exp,46,↓,left,←,0.6052364999195561,False,9,-1,0,5
Y2-S2-189K21,3,281,PS,exp,30,↑,up,↑,0.5098394000669941,True,10,-1,0,5
Y2-S2-189K21,3,282,PS,exp,35,←,left,←,0.6750076999887824,True,10,-1,0,5
Y2-S2-189K21,3,283,PS,exp,37,→,left,←,0.4998229999328032,False,10,-1,0,5
Y2-S2-189K21,3,284,PS,exp,30,↑,up,↑,0.5082672000862658,True,11,-1,0,5
Y2-S2-189K21,3,285,PS,exp,38,←,left,←,0.4969560999888927,True,11,-1,0,5
Y2-S2-189K21,3,286,PS,exp,48,→,right,→,0.544142400030978,True,11,1,1,6
Y2-S2-189K21,3,287,PS,exp,25,↓,down,↓,0.45989639998879284,True,10,1,0,6
Y2-S2-189K21,3,288,PS,exp,33,→,left,←,0.6286634999560192,False,10,-1,1,7
Y2-S2-189K21,3,289,PS,exp,42,↑,up,↑,0.5976527999155223,True,11,-1,0,7
Y2-S2-189K21,3,290,PS,exp,43,→,right,→,0.46252410009037703,True,11,-1,0,7
Y2-S2-189K21,3,291,PS,exp,44,←,left,←,0.3941162000410259,True,11,1,1,8
Y2-S2-189K21,3,292,PS,exp,28,↓,down,↓,0.5369186999741942,True,10,1,0,8
Y2-S2-189K21,3,293,PS,exp,27,←,left,←,0.6116600000532344,True,10,1,0,8
Y2-S2-189K21,3,294,PS,exp,44,↑,up,↑,0.4805445000529289,True,10,1,0,8
Y2-S2-189K21,3,295,PS,exp,26,→,right,→,0.42386889993213117,True,9,1,0,8
Y2-S2-189K21,3,296,PS,exp,34,↑,up,↑,0.47107860003598034,True,9,1,0,8
Y2-S2-189K21,3,297,PS,exp,26,→,right,→,0.45112550002522767,True,9,1,0,8
Y2-S2-189K21,3,298,PS,exp,34,←,left,←,0.4747053000610322,True,8,1,0,8
Y2-S2-189K21,3,299,PS,exp,35,↓,down,↓,0.4688744000159204,True,8,1,0,8
Y2-S2-189K21,3,300,PS,exp,32,→,left,←,0.6325152000645176,False,8,-1,1,9
Y2-S2-189K21,3,301,PS,exp,40,↑,right,→,0.8219884000718594,False,9,-1,0,9
Y2-S2-189K21,3,302,PS,exp,35,↓,down,↓,0.44266679999418557,True,10,-1,0,9
Y2-S2-189K21,3,303,PS,exp,40,↑,up,↑,0.508006599964574,True,10,-1,0,9
Y2-S2-189K21,3,304,PS,exp,36,→,right,→,0.4418541999766603,True,10,1,1,10
Y2-S2-189K21,3,305,PS,exp,26,↓,down,↓,0.4560806999215856,True,9,1,0,10
Y2-S2-189K21,3,306,PS,exp,26,→,right,→,0.4561839000089094,True,9,1,0,10
Y2-S2-189K21,3,307,PS,exp,27,←,left,←,0.4328999000135809,True,9,1,0,10
Y2-S2-189K21,3,308,PS,exp,31,↑,up,↑,0.46070890000555664,True,8,1,0,10
Y2-S2-189K21,3,309,PS,exp,31,←,left,←,0.4153940000105649,True,8,1,0,10
Y2-S2-189K21,3,310,PS,exp,30,↓,down,↓,0.43066929990891367,True,8,1,0,10
Y2-S2-189K21,3,311,PS,exp,42,→,right,→,0.43594180000945926,True,7,1,0,10
Y2-S2-189K21,3,312,PS,exp,37,↓,right,→,0.6356836999766529,False,7,-1,1,11
Y2-S2-189K21,3,313,PS,exp,29,→,right,→,0.4751450000330806,True,8,-1,0,11
Y2-S2-189K21,3,314,PS,exp,46,←,left,←,0.47809870005585253,True,8,-1,0,11
Y2-S2-189K21,3,315,PS,exp,50,↓,up,↑,0.7403765999479219,False,8,-1,0,11
Y2-S2-189K21,3,316,PS,exp,28,↑,up,↑,0.5281430000904948,True,9,-1,0,11
Y2-S2-189K21,3,317,PS,exp,34,→,left,←,0.6049420000053942,False,9,-1,0,11
Y2-S2-189K21,3,318,PS,exp,44,↑,right,→,0.5035760999890044,False,10,-1,0,11
Y2-S2-189K21,3,319,PS,exp,27,↓,down,↓,0.49501660000532866,True,11,-1,0,11
Y2-S2-189K21,3,320,PS,exp,35,↑,up,↑,0.6291207000613213,True,11,-1,0,11
Y2-S2-189K21,3,321,PS,exp,33,←,left,←,0.5464793000137433,True,11,1,1,12
Y2-S2-189K21,3,322,PS,exp,27,→,right,→,0.7007893999107182,True,10,1,0,12
Y2-S2-189K21,3,323,PS,exp,46,←,left,←,0.5792232999810949,True,10,1,0,12
Y2-S2-189K21,3,324,PS,exp,41,↓,down,↓,0.4313702000072226,True,10,1,0,12
Y2-S2-189K21,3,325,PS,exp,30,↑,up,↑,0.5376638000598177,True,9,1,0,12
Y2-S2-189K21,3,326,PS,exp,45,→,right,→,0.6623037999961525,True,9,1,0,12
Y2-S2-189K21,3,327,PS,exp,31,↓,down,↓,0.45251279999502003,True,9,1,0,12
Y2-S2-189K21,3,328,PS,exp,31,←,up,↑,0.7569067000877112,False,8,-1,1,13
Y2-S2-189K21,3,329,PS,exp,36,↑,up,↑,0.498548400006257,True,9,-1,0,13
Y2-S2-189K21,3,330,PS,exp,42,←,left,←,0.5546605000272393,True,9,-1,0,13
Y2-S2-189K21,3,331,PS,exp,31,↑,up,↑,0.4392281000036746,True,9,1,1,14
Y2-S2-189K21,3,332,PS,exp,47,↓,down,↓,0.4968744999496266,True,8,1,0,14
Y2-S2-189K21,3,333,PS,exp,26,↑,up,↑,0.5640181000344455,True,8,1,0,14
Y2-S2-189K21,3,334,PS,exp,34,→,right,→,0.4841074999421835,True,8,1,0,14
Y2-S2-189K21,3,335,PS,exp,39,↓,down,↓,0.48546180000994354,True,7,1,0,14
Y2-S2-189K21,3,336,PS,exp,30,←,left,←,0.5671361999120563,True,7,1,0,14
Y2-S2-189K21,3,337,PS,exp,36,↑,up,↑,0.47385289997328073,True,7,1,0,14
Y2-S2-189K21,3,338,PS,exp,37,→,up,↑,0.602223000023514,False,6,-1,1,15
Y2-S2-189K21,3,339,PS,exp,50,↓,down,↓,0.4918016999727115,True,7,-1,0,15
Y2-S2-189K21,3,340,PS,exp,30,←,left,←,0.5456262999214232,True,7,-1,0,15
Y2-S2-189K21,3,341,PS,exp,45,↑,up,↑,0.44180140004027635,True,7,1,1,16
Y2-S2-189K21,4,342,AS,intra_train,33,↓,down,↓,0.6255156000843272,True,18,-,-,-
Y2-S2-189K21,4,343,AS,intra_train,33,→,right,→,0.6170250000432134,True,18,-,-,-
Y2-S2-189K21,4,344,AS,intra_train,47,↑,up,↑,0.6443747999146581,True,18,-,-,-
Y2-S2-189K21,4,345,AS,intra_train,26,→,right,→,0.49179220001678914,True,18,-,-,-
Y2-S2-189K21,4,346,AS,intra_train,48,←,left,←,0.5041104999836534,True,18,-,-,-
Y2-S2-189K21,4,347,AS,exp,25,↑,up,↑,0.5632683000294492,True,12,0,0,0
Y2-S2-189K21,4,348,AS,exp,42,→,right,→,0.5832110999617726,True,12,0,0,0
Y2-S2-189K21,4,349,AS,exp,47,↑,up,↑,0.4327331999083981,True,12,1,0,0
Y2-S2-189K21,4,350,AS,exp,46,↓,up,↑,0.7142326000612229,False,11,-1,1,1
Y2-S2-189K21,4,351,AS,exp,39,←,left,←,0.4496758000459522,True,12,-1,0,1
Y2-S2-189K21,4,352,AS,exp,28,↑,right,→,0.8389636999927461,False,12,-1,0,1
Y2-S2-189K21,4,353,AS,exp,40,→,right,→,0.5460437999572605,True,13,-1,0,1
Y2-S2-189K21,4,354,AS,exp,32,↓,up,↑,0.4592673000879586,False,13,-1,0,1
Y2-S2-189K21,4,355,AS,exp,49,→,right,→,0.4498085998930037,True,14,-1,0,1
Y2-S2-189K21,4,356,AS,exp,42,↑,right,→,0.7529230000218377,False,14,-1,0,1
Y2-S2-189K21,4,357,AS,exp,35,→,right,→,0.5803667999571189,True,15,-1,0,1
Y2-S2-189K21,4,358,AS,exp,28,↑,up,↑,0.49987329996656626,True,15,-1,0,1
Y2-S2-189K21,4,359,AS,exp,48,←,left,←,0.6317987999645993,True,15,1,1,2
Y2-S2-189K21,4,360,AS,exp,35,→,left,←,0.6317369999596849,False,14,-1,1,3
Y2-S2-189K21,4,361,AS,exp,40,↓,up,↑,0.6637835999717936,False,15,-1,0,3
Y2-S2-189K21,4,362,AS,exp,44,↑,up,↑,0.6425183999817818,True,16,-1,0,3
Y2-S2-189K21,4,363,AS,exp,44,↓,down,↓,0.6563336999388412,True,16,-1,0,3
Y2-S2-189K21,4,364,AS,exp,50,←,left,←,0.5437341999495402,True,16,1,1,4
Y2-S2-189K21,4,365,AS,exp,43,↑,up,↑,0.5189096999820322,True,15,1,0,4
Y2-S2-189K21,4,366,AS,exp,34,→,right,→,0.462796000065282,True,15,1,0,4
Y2-S2-189K21,4,367,AS,exp,46,↓,down,↓,0.6913960000965744,True,15,1,0,4
Y2-S2-189K21,4,368,AS,exp,34,↑,up,↑,0.4585495999781415,True,14,1,0,4
Y2-S2-189K21,4,369,AS,exp,48,←,left,←,0.5108486999524757,True,14,1,0,4
Y2-S2-189K21,4,370,AS,exp,33,→,left,←,0.9087179000489414,False,14,-1,1,5
Y2-S2-189K21,4,371,AS,exp,44,↑,up,↑,0.5632802000036463,True,15,-1,0,5
Y2-S2-189K21,4,372,AS,exp,43,←,left,←,0.5521796999964863,True,15,-1,0,5
Y2-S2-189K21,4,373,AS,exp,28,→,right,→,0.49063619994558394,True,15,1,1,6
Y2-S2-189K21,4,374,AS,exp,48,↓,down,↓,0.4724013999802992,True,14,1,0,6
Y2-S2-189K21,4,375,AS,exp,38,↑,down,↓,0.6528472999343649,False,14,-1,1,7
Y2-S2-189K21,4,376,AS,exp,48,←,left,←,0.47844289999920875,True,15,-1,0,7
Y2-S2-189K21,4,377,AS,exp,38,→,right,→,0.49687109992373735,True,15,-1,0,7
Y2-S2-189K21,4,378,AS,exp,48,↓,up,↑,0.734651800012216,False,15,-1,0,7
Y2-S2-189K21,4,379,AS,exp,42,→,right,→,0.6557810000376776,True,16,-1,0,7
Y2-S2-189K21,4,380,AS,exp,50,↓,down,↓,0.6536919000791386,True,16,-1,0,7
Y2-S2-189K21,4,381,AS,exp,39,→,right,→,0.5894141999306157,True,16,1,1,8
Y2-S2-189K21,4,382,AS,exp,27,↑,up,↑,0.5030280000064522,True,15,1,0,8
Y2-S2-189K21,4,383,AS,exp,27,→,right,→,0.5683787000598386,True,15,1,0,8
Y2-S2-189K21,4,384,AS,exp,41,←,left,←,0.6210223999805748,True,15,1,0,8
Y2-S2-189K21,4,385,AS,exp,48,↑,up,↑,0.4872789999935776,True,14,1,0,8
Y2-S2-189K21,4,386,AS,exp,30,←,right,→,0.5063205000478774,False,14,-1,1,9
Y2-S2-189K21,4,387,AS,exp,27,↓,down,↓,0.4641555000562221,True,15,-1,0,9
Y2-S2-189K21,4,388,AS,exp,48,→,right,→,0.5752647999906912,True,15,-1,0,9
Y2-S2-189K21,4,389,AS,exp,41,↓,down,↓,0.419907100033015,True,15,1,1,10
Y2-S2-189K21,4,390,AS,exp,42,↑,up,↑,0.5205115000717342,True,14,1,0,10
Y2-S2-189K21,4,391,AS,exp,31,↓,up,↑,0.7986192000098526,False,14,-1,1,11
Y2-S2-189K21,4,392,AS,exp,43,↑,up,↑,0.43678659992292523,True,15,-1,0,11
Y2-S2-189K21,4,393,AS,exp,45,↓,down,↓,0.46157769998535514,True,15,-1,0,11
Y2-S2-189K21,4,394,AS,exp,43,→,right,→,0.6154354999307543,True,15,1,1,12
Y2-S2-189K21,4,395,AS,exp,25,←,left,←,0.5168015999952331,True,14,1,0,12
Y2-S2-189K21,4,396,AS,exp,49,↓,up,↑,0.5937340999953449,False,14,-1,1,13
Y2-S2-189K21,4,397,AS,exp,47,↑,up,↑,0.47705550002865493,True,15,-1,0,13
Y2-S2-189K21,4,398,AS,exp,43,←,left,←,0.5316976000322029,True,15,-1,0,13
Y2-S2-189K21,4,399,AS,exp,30,↓,down,↓,0.703938000020571,True,15,1,1,14
Y2-S2-189K21,4,400,AS,exp,39,→,right,→,0.5928002999862656,True,14,1,0,14
Y2-S2-189K21,4,401,AS,exp,43,↑,up,↑,0.6994255000026897,True,14,1,0,14
Y2-S2-189K21,4,402,AS,exp,42,↓,down,↓,0.436809099977836,True,14,1,0,14
Y2-S2-189K21,4,403,AS,exp,35,←,left,←,0.4540009000338614,True,13,1,0,14
Y2-S2-189K21,4,404,AS,exp,46,↑,up,↑,0.40481440001167357,True,13,1,0,14
Y2-S2-189K21,4,405,AS,exp,28,↓,down,↓,0.4093546000076458,True,13,1,0,14
Y2-S2-189K21,4,406,AS,exp,32,↑,up,↑,0.4187703999923542,True,12,1,0,14
Y2-S2-189K21,4,407,AS,exp,49,←,left,←,0.41539119998924434,True,12,1,0,14
Y2-S2-189K21,4,408,AS,exp,25,↑,right,→,0.8360124999890104,False,12,-1,1,15
Y2-S2-189K21,4,409,AS,exp,34,↓,up,↑,0.33470800006762147,False,13,-1,0,15
Y2-S2-189K21,4,410,AS,exp,40,→,right,→,0.4351885999785736,True,14,-1,0,15
Y2-S2-189K21,4,411,AS,exp,26,←,left,←,0.6546713000861928,True,14,-1,0,15
Y2-S2-189K21,4,412,AS,exp,29,→,right,→,0.8916720000561327,True,14,1,1,16
Y2-S2-189K21,5,413,AS,intra_train,40,↓,down,↓,0.4340396999614313,True,18,-,-,-
Y2-S2-189K21,5,414,AS,intra_train,46,↑,up,↑,0.6332852999912575,True,18,-,-,-
Y2-S2-189K21,5,415,AS,intra_train,34,←,left,←,0.41752459993585944,True,18,-,-,-
Y2-S2-189K21,5,416,AS,intra_train,43,↓,down,↓,0.43408199993427843,True,18,-,-,-
Y2-S2-189K21,5,417,AS,intra_train,34,→,right,→,0.43455620005261153,True,18,-,-,-
Y2-S2-189K21,5,418,AS,exp,44,↓,up,↑,0.6264128000475466,False,12,-1,0,0
Y2-S2-189K21,5,419,AS,exp,50,→,right,→,0.5689763999544084,True,13,-1,0,0
Y2-S2-189K21,5,420,AS,exp,49,↑,down,↓,0.6696912000188604,False,13,-1,0,0
Y2-S2-189K21,5,421,AS,exp,26,←,left,←,0.47646199993323535,True,14,-1,0,0
Y2-S2-189K21,5,422,AS,exp,42,↑,up,↑,0.416583500104025,True,14,-1,0,0
Y2-S2-189K21,5,423,AS,exp,45,↓,down,↓,0.4149049000116065,True,14,1,1,1
Y2-S2-189K21,5,424,AS,exp,35,↑,up,↑,0.4128962999675423,True,13,1,0,1
Y2-S2-189K21,5,425,AS,exp,41,←,left,←,0.689865899970755,True,13,1,0,1
Y2-S2-189K21,5,426,AS,exp,34,↓,down,↓,0.4004936000565067,True,13,1,0,1
Y2-S2-189K21,5,427,AS,exp,47,↑,up,↑,0.4475662000477314,True,12,1,0,1
Y2-S2-189K21,5,428,AS,exp,25,→,right,→,0.40660540002863854,True,12,1,0,1
Y2-S2-189K21,5,429,AS,exp,45,↑,left,←,0.8411511000012979,False,12,-1,1,2
Y2-S2-189K21,5,430,AS,exp,29,→,right,→,0.4533158000558615,True,13,-1,0,2
Y2-S2-189K21,5,431,AS,exp,38,↑,up,↑,0.4007341000251472,True,13,-1,0,2
Y2-S2-189K21,5,432,AS,exp,45,→,right,→,0.5147959999740124,True,13,1,1,3
Y2-S2-189K21,5,433,AS,exp,25,←,right,→,0.6994280000217259,False,12,-1,1,4
Y2-S2-189K21,5,434,AS,exp,48,↓,left,←,0.6048688000300899,False,13,-1,0,4
Y2-S2-189K21,5,435,AS,exp,28,←,left,←,0.4994839000282809,True,14,-1,0,4
Y2-S2-189K21,5,436,AS,exp,32,↓,down,↓,0.413360400008969,True,14,-1,0,4
Y2-S2-189K21,5,437,AS,exp,42,↑,up,↑,0.5905745999189094,True,14,1,1,5
Y2-S2-189K21,5,438,AS,exp,47,↓,down,↓,0.39621699997223914,True,13,1,0,5
Y2-S2-189K21,5,439,AS,exp,44,→,right,→,0.44161949993576854,True,13,1,0,5
Y2-S2-189K21,5,440,AS,exp,31,↓,right,→,0.6553965000202879,False,13,-1,1,6
Y2-S2-189K21,5,441,AS,exp,25,←,left,←,0.5236043999902904,True,14,-1,0,6
Y2-S2-189K21,5,442,AS,exp,25,↑,up,↑,0.4013037000549957,True,14,-1,0,6
Y2-S2-189K21,5,443,AS,exp,49,←,left,←,0.41534950002096593,True,14,1,1,7
Y2-S2-189K21,5,444,AS,exp,39,↑,up,↑,0.6216013000812382,True,13,1,0,7
Y2-S2-189K21,5,445,AS,exp,44,↓,down,↓,0.4478697000304237,True,13,1,0,7
Y2-S2-189K21,5,446,AS,exp,25,↑,left,←,0.6872500999597833,False,13,-1,1,8
Y2-S2-189K21,5,447,AS,exp,35,→,right,→,0.5772660999791697,True,14,-1,0,8
Y2-S2-189K21,5,448,AS,exp,26,←,right,→,0.5753475000383332,False,14,-1,0,8
Y2-S2-189K21,5,449,AS,exp,30,→,right,→,0.44775030005257577,True,15,-1,0,8
Y2-S2-189K21,5,450,AS,exp,49,←,left,←,0.5707512999651954,True,15,-1,0,8
Y2-S2-189K21,5,451,AS,exp,42,↓,down,↓,1.724685400025919,True,15,1,1,9
Y2-S2-189K21,5,452,AS,exp,49,→,right,→,1.435108899953775,True,14,1,0,9
Y2-S2-189K21,5,453,AS,exp,37,↑,up,↑,0.7768752999836579,True,14,1,0,9
Y2-S2-189K21,5,454,AS,exp,49,←,left,←,0.4460241000633687,True,14,1,0,9
Y2-S2-189K21,5,455,AS,exp,31,↑,up,↑,0.46135999995749444,True,13,1,0,9
Y2-S2-189K21,5,456,AS,exp,29,→,right,→,0.4786757999099791,True,13,1,0,9
Y2-S2-189K21,5,457,AS,exp,29,↑,up,↑,0.44287870009429753,True,13,1,0,9
Y2-S2-189K21,5,458,AS,exp,27,↓,down,↓,0.6464292000746354,True,12,1,0,9
Y2-S2-189K21,5,459,AS,exp,41,↑,up,↑,0.4076445000246167,True,12,1,0,9
Y2-S2-189K21,5,460,AS,exp,50,↓,down,↓,0.4326789000770077,True,12,1,0,9
Y2-S2-189K21,5,461,AS,exp,29,→,left,←,0.6639840001007542,False,11,-1,1,10
Y2-S2-189K21,5,462,AS,exp,47,↓,up,↑,0.6356040999526158,False,12,-1,0,10
Y2-S2-189K21,5,463,AS,exp,30,→,right,→,0.5551738000940531,True,13,-1,0,10
Y2-S2-189K21,5,464,AS,exp,35,↓,up,↑,0.590618500020355,False,13,-1,0,10
Y2-S2-189K21,5,465,AS,exp,43,→,right,→,0.4856664000544697,True,14,-1,0,10
Y2-S2-189K21,5,466,AS,exp,50,↓,up,↑,0.5140049000037834,False,14,-1,0,10
Y2-S2-189K21,5,467,AS,exp,40,↑,up,↑,0.4427038999274373,True,15,-1,0,10
Y2-S2-189K21,5,468,AS,exp,33,↓,down,↓,0.6984354000305757,True,15,-1,0,10
Y2-S2-189K21,5,469,AS,exp,33,→,right,→,0.49429539998527616,True,15,1,1,11
Y2-S2-189K21,5,470,AS,exp,31,↓,right,→,0.7512634000740945,False,14,-1,1,12
Y2-S2-189K21,5,471,AS,exp,35,→,right,→,0.4523170000175014,True,15,-1,0,12
Y2-S2-189K21,5,472,AS,exp,37,↓,no_key,no_letter,-1.0,False,15,-1,0,12
Y2-S2-189K21,5,473,AS,exp,36,←,left,←,0.6991170999826863,True,16,-1,0,12
Y2-S2-189K21,5,474,AS,exp,33,↓,up,↑,1.4044032000238076,False,16,-1,0,12
Y2-S2-189K21,5,475,AS,exp,36,→,right,→,0.4727077999850735,True,17,-1,0,12
Y2-S2-189K21,5,476,AS,exp,47,←,left,←,0.6180720999836922,True,17,-1,0,12
Y2-S2-189K21,5,477,AS,exp,49,↓,down,↓,0.7236183999339119,True,17,1,1,13
Y2-S2-189K21,5,478,AS,exp,44,←,left,←,0.4448794999625534,True,16,1,0,13
Y2-S2-189K21,5,479,AS,exp,27,↑,up,↑,0.4840880000265315,True,16,1,0,13
Y2-S2-189K21,5,480,AS,exp,48,→,right,→,1.160671400022693,True,16,1,0,13
Y2-S2-189K21,5,481,AS,exp,47,↓,down,↓,0.6381634999997914,True,15,1,0,13
Y2-S2-189K21,5,482,AS,exp,44,→,right,→,0.4596432999242097,True,15,1,0,13
Y2-S2-189K21,5,483,AS,exp,37,←,left,←,0.5916715000057593,True,15,1,0,13
Y2-S2-189K21,5,484,AS,exp,25,↑,right,→,0.7999046999029815,False,14,-1,1,14
Y2-S2-189K21,5,485,AS,exp,43,←,left,←,0.6101898999186233,True,15,-1,0,14
Y2-S2-189K21,5,486,AS,exp,48,→,right,→,0.5650232000043616,True,15,-1,0,14
Y2-S2-189K21,5,487,AS,exp,47,←,left,←,0.5383668000577018,True,15,1,1,15
Y2-S2-189K21,5,488,AS,exp,41,↓,right,→,0.6703474000096321,False,14,-1,1,16
Y2-S2-189K21,6,489,PS,intra_train,49,←,left,←,0.5801520999521017,True,12,-,-,-
Y2-S2-189K21,6,490,PS,intra_train,33,↓,down,↓,0.45584529999177903,True,12,-,-,-
Y2-S2-189K21,6,491,PS,intra_train,47,←,left,←,0.771061799954623,True,12,-,-,-
Y2-S2-189K21,6,492,PS,intra_train,27,↓,down,↓,0.49102279997896403,True,12,-,-,-
Y2-S2-189K21,6,493,PS,intra_train,42,↑,up,↑,0.4934877000050619,True,12,-,-,-
Y2-S2-189K21,6,494,PS,exp,43,←,left,←,0.4570568000199273,True,8,0,0,0
Y2-S2-189K21,6,495,PS,exp,36,↓,left,←,0.8136054000351578,False,8,-1,0,0
Y2-S2-189K21,6,496,PS,exp,48,↑,up,↑,0.429305600002408,True,9,-1,0,0
Y2-S2-189K21,6,497,PS,exp,44,←,left,←,0.7046231999993324,True,9,-1,0,0
Y2-S2-189K21,6,498,PS,exp,33,↓,down,↓,0.4588878999929875,True,9,1,1,1
Y2-S2-189K21,6,499,PS,exp,27,→,right,→,0.4506472999928519,True,8,1,0,1
Y2-S2-189K21,6,500,PS,exp,41,↑,up,↑,0.5786596999969333,True,8,1,0,1
Y2-S2-189K21,6,501,PS,exp,29,←,left,←,0.44255999999586493,True,8,1,0,1
Y2-S2-189K21,6,502,PS,exp,27,↓,down,↓,0.3910951000871137,True,7,1,0,1
Y2-S2-189K21,6,503,PS,exp,45,→,right,→,0.4542503000702709,True,7,1,0,1
Y2-S2-189K21,6,504,PS,exp,32,↑,left,←,0.7380579999880865,False,7,-1,1,2
Y2-S2-189K21,6,505,PS,exp,31,↓,down,↓,0.43021470005623996,True,8,-1,0,2
Y2-S2-189K21,6,506,PS,exp,45,→,left,←,0.6105118999257684,False,8,-1,0,2
Y2-S2-189K21,6,507,PS,exp,26,←,up,↑,0.7553227000171319,False,9,-1,0,2
Y2-S2-189K21,6,508,PS,exp,38,↓,left,←,0.5210030999733135,False,10,-1,0,2
Y2-S2-189K21,6,509,PS,exp,45,←,left,←,0.47233469993807375,True,11,-1,0,2
Y2-S2-189K21,6,510,PS,exp,31,↑,up,↑,0.5211028000339866,True,11,-1,0,2
Y2-S2-189K21,6,511,PS,exp,39,↓,left,←,0.5550994999939576,False,11,-1,0,2
Y2-S2-189K21,6,512,PS,exp,26,←,left,←,0.5462239000480622,True,12,-1,0,2
Y2-S2-189K21,6,513,PS,exp,35,↓,down,↓,0.45380990009289235,True,12,-1,0,2
Y2-S2-189K21,6,514,PS,exp,37,→,up,↑,0.563330499920994,False,12,-1,0,2
Y2-S2-189K21,6,515,PS,exp,26,↓,down,↓,0.4315155000658706,True,13,-1,0,2
Y2-S2-189K21,6,516,PS,exp,43,↑,up,↑,0.4889316000044346,True,13,-1,0,2
Y2-S2-189K21,6,517,PS,exp,40,→,right,→,0.440951400087215,True,13,1,1,3
Y2-S2-189K21,6,518,PS,exp,31,↑,up,↑,0.6274146999930963,True,12,1,0,3
Y2-S2-189K21,6,519,PS,exp,48,←,left,←,0.45296390005387366,True,12,1,0,3
Y2-S2-189K21,6,520,PS,exp,32,→,right,→,0.3972782000200823,True,12,1,0,3
Y2-S2-189K21,6,521,PS,exp,50,←,left,←,0.45253560005221516,True,11,1,0,3
Y2-S2-189K21,6,522,PS,exp,37,↑,up,↑,0.4171230000210926,True,11,1,0,3
Y2-S2-189K21,6,523,PS,exp,40,↓,up,↑,0.5405908999964595,False,11,-1,1,4
Y2-S2-189K21,6,524,PS,exp,26,→,right,→,0.5063957999227569,True,12,-1,0,4
Y2-S2-189K21,6,525,PS,exp,41,↑,up,↑,0.4149972000159323,True,12,-1,0,4
Y2-S2-189K21,6,526,PS,exp,36,←,left,←,0.4371690999250859,True,12,1,1,5
Y2-S2-189K21,6,527,PS,exp,45,↑,up,↑,0.36623320006765425,True,11,1,0,5
Y2-S2-189K21,6,528,PS,exp,27,←,right,→,0.7266361000947654,False,11,-1,1,6
Y2-S2-189K21,6,529,PS,exp,47,→,right,→,0.44030430004931986,True,12,-1,0,6
Y2-S2-189K21,6,530,PS,exp,25,←,left,←,0.7713584000011906,True,12,-1,0,6
Y2-S2-189K21,6,531,PS,exp,36,↑,left,←,0.4666410000063479,False,12,-1,0,6
Y2-S2-189K21,6,532,PS,exp,48,→,up,↑,0.394854599959217,False,13,-1,0,6
Y2-S2-189K21,6,533,PS,exp,25,↓,up,↑,0.859210699913092,False,14,-1,0,6
Y2-S2-189K21,6,534,PS,exp,34,↑,up,↑,0.44715069991070777,True,15,-1,0,6
Y2-S2-189K21,6,535,PS,exp,31,←,left,←,0.4836747000226751,True,15,-1,0,6
Y2-S2-189K21,6,536,PS,exp,26,↑,up,↑,0.4210488999960944,True,15,1,1,7
Y2-S2-189K21,6,537,PS,exp,39,←,left,←,0.4485433999216184,True,14,1,0,7
Y2-S2-189K21,6,538,PS,exp,49,↓,left,←,0.5964272000128403,False,14,-1,1,8
Y2-S2-189K21,6,539,PS,exp,43,←,left,←,0.4610019000247121,True,15,-1,0,8
Y2-S2-189K21,6,540,PS,exp,47,→,right,→,0.5125103999162093,True,15,-1,0,8
Y2-S2-189K21,6,541,PS,exp,39,↑,up,↑,0.46561940002720803,True,15,1,1,9
Y2-S2-189K21,6,542,PS,exp,31,←,left,←,0.47938240005169064,True,14,1,0,9
Y2-S2-189K21,6,543,PS,exp,42,→,right,→,0.5109702000627294,True,14,1,0,9
Y2-S2-189K21,6,544,PS,exp,42,↑,up,↑,0.4387509999796748,True,14,1,0,9
Y2-S2-189K21,6,545,PS,exp,38,←,left,←,0.5094346000114456,True,13,1,0,9
Y2-S2-189K21,6,546,PS,exp,44,→,right,→,0.684669499984011,True,13,1,0,9
Y2-S2-189K21,6,547,PS,exp,42,↑,up,↑,0.4223895000759512,True,13,1,0,9
Y2-S2-189K21,6,548,PS,exp,43,↓,down,↓,0.4191275999182835,True,12,1,0,9
Y2-S2-189K21,6,549,PS,exp,37,←,left,←,0.4227017998928204,True,12,1,0,9
Y2-S2-189K21,6,550,PS,exp,43,→,right,→,0.4547426999779418,True,12,1,0,9
Y2-S2-189K21,6,551,PS,exp,34,←,left,←,0.393338399939239,True,11,1,0,9
Y2-S2-189K21,6,552,PS,exp,41,↑,up,↑,0.44573070004116744,True,11,1,0,9
Y2-S2-189K21,6,553,PS,exp,48,→,right,→,0.515572699951008,True,11,1,0,9
Y2-S2-189K21,6,554,PS,exp,41,←,left,←,0.5290876999497414,True,10,1,0,9
Y2-S2-189K21,6,555,PS,exp,46,→,right,→,0.43072089995257556,True,10,1,0,9
Y2-S2-189K21,6,556,PS,exp,41,↑,up,↑,0.41371420002542436,True,10,1,0,9
Y2-S2-189K21,6,557,PS,exp,25,→,right,→,0.44893809990026057,True,9,1,0,9
Y2-S2-189K21,6,558,PS,exp,34,↑,up,↑,0.47295530000701547,True,9,1,0,9
Y2-S2-189K21,6,559,PS,exp,44,↓,down,↓,0.6814055999275297,True,9,1,0,9
Y2-S2-189K21,6,560,PS,exp,44,←,right,→,0.5402098000049591,False,8,-1,1,10
Y2-S2-189K21,6,561,PS,exp,37,→,right,→,0.44342960009817034,True,9,-1,0,10
Y2-S2-189K21,6,562,PS,exp,27,←,left,←,0.6509307000087574,True,9,-1,0,10
Y2-S2-189K21,6,563,PS,exp,34,↑,up,↑,0.4887956000166014,True,9,1,1,11
Y2-S2-189K21,6,564,PS,exp,41,←,left,←,0.4317235000198707,True,8,1,0,11
Y2-S2-189K21,6,565,PS,exp,30,↑,right,→,0.6863918999442831,False,8,-1,1,12
Y2-S2-189K21,6,566,PS,exp,33,←,left,←,0.44301459996495396,True,9,-1,0,12
Y2-S2-189K21,6,567,PS,exp,34,↓,up,↑,0.7061334999743849,False,9,-1,0,12
Y2-S2-189K21,6,568,PS,exp,45,↑,up,↑,0.6231058000121266,True,10,-1,0,12
Y2-S2-189K21,6,569,PS,exp,49,←,left,←,0.5368764000013471,True,10,-1,0,12
Y2-S2-189K21,6,570,PS,exp,28,↓,down,↓,0.533144999993965,True,10,1,1,13
Y2-S2-189K21,6,571,PS,exp,35,↑,up,↑,0.554076400003396,True,9,1,0,13
Y2-S2-189K21,6,572,PS,exp,38,←,left,←,0.4552632999839261,True,9,1,0,13
Y2-S2-189K21,6,573,PS,exp,29,→,up,↑,0.6116118999198079,False,9,-1,1,14
Y2-S2-189K21,6,574,PS,exp,44,↑,right,→,0.5776012000860646,False,10,-1,0,14
Y2-S2-189K21,6,575,PS,exp,33,←,left,←,0.4652105999412015,True,11,-1,0,14
Y2-S2-189K21,6,576,PS,exp,50,→,right,→,0.4933069999096915,True,11,-1,0,14
Y2-S2-189K21,6,577,PS,exp,34,↑,up,↑,0.6571417000377551,True,11,1,1,15
Y2-S2-189K21,6,578,PS,exp,26,→,right,→,0.5269833999918774,True,10,1,0,15
Y2-S2-189K21,6,579,PS,exp,31,↑,up,↑,0.5173309999518096,True,10,1,0,15
Y2-S2-189K21,6,580,PS,exp,28,→,right,→,0.4489017000887543,True,10,1,0,15
Y2-S2-189K21,6,581,PS,exp,35,↓,down,↓,0.4692305000498891,True,9,1,0,15
Y2-S2-189K21,6,582,PS,exp,27,↑,up,↑,0.4567940999986604,True,9,1,0,15
Y2-S2-189K21,6,583,PS,exp,29,←,left,←,0.4080042000859976,True,9,1,0,15
Y2-S2-189K21,6,584,PS,exp,31,↓,up,↑,0.7164410999976099,False,8,-1,1,16
Y2-S2-189K21,7,585,PS,intra_train,36,→,right,→,0.5104680999647826,True,12,-,-,-
Y2-S2-189K21,7,586,PS,intra_train,46,↓,down,↓,0.554703600006178,True,12,-,-,-
Y2-S2-189K21,7,587,PS,intra_train,46,←,left,←,0.41578639997169375,True,12,-,-,-
Y2-S2-189K21,7,588,PS,intra_train,38,→,right,→,0.4556094000581652,True,12,-,-,-
Y2-S2-189K21,7,589,PS,intra_train,47,↓,down,↓,0.45740460010711104,True,12,-,-,-
Y2-S2-189K21,7,590,PS,exp,48,→,right,→,0.45428970002103597,True,8,0,0,0
Y2-S2-189K21,7,591,PS,exp,48,←,left,←,0.4849666999652982,True,8,0,0,0
Y2-S2-189K21,7,592,PS,exp,37,↓,up,↑,0.8065054001053795,False,8,-1,0,0
Y2-S2-189K21,7,593,PS,exp,30,←,right,→,0.4630403999472037,False,9,-1,0,0
Y2-S2-189K21,7,594,PS,exp,50,↑,up,↑,0.45028150000143796,True,10,-1,0,0
Y2-S2-189K21,7,595,PS,exp,33,←,left,←,0.5757332999492064,True,10,-1,0,0
Y2-S2-189K21,7,596,PS,exp,28,↑,left,←,0.677569399937056,False,10,-1,0,0
Y2-S2-189K21,7,597,PS,exp,47,←,left,←,0.4200096999993548,True,11,-1,0,0
Y2-S2-189K21,7,598,PS,exp,40,↓,down,↓,0.4378038999857381,True,11,-1,0,0
Y2-S2-189K21,7,599,PS,exp,44,←,left,←,0.4494144000345841,True,11,1,1,1
Y2-S2-189K21,7,600,PS,exp,45,↑,up,↑,0.6285571999615058,True,10,1,0,1
Y2-S2-189K21,7,601,PS,exp,39,↓,down,↓,0.4070110999746248,True,10,1,0,1
Y2-S2-189K21,7,602,PS,exp,28,→,right,→,0.48151299997698516,True,10,1,0,1
Y2-S2-189K21,7,603,PS,exp,46,↓,left,←,0.686772899935022,False,9,-1,1,2
Y2-S2-189K21,7,604,PS,exp,27,←,left,←,0.466580200009048,True,10,-1,0,2
Y2-S2-189K21,7,605,PS,exp,31,↑,up,↑,0.4126428000163287,True,10,-1,0,2
Y2-S2-189K21,7,606,PS,exp,27,↓,down,↓,0.495442199986428,True,10,1,1,3
Y2-S2-189K21,7,607,PS,exp,31,→,right,→,0.5065784000325948,True,9,1,0,3
Y2-S2-189K21,7,608,PS,exp,30,↓,down,↓,0.5463035999564454,True,9,1,0,3
Y2-S2-189K21,7,609,PS,exp,26,←,left,←,0.4590942000504583,True,9,1,0,3
Y2-S2-189K21,7,610,PS,exp,43,↑,up,↑,0.6477442999603227,True,8,1,0,3
Y2-S2-189K21,7,611,PS,exp,34,←,left,←,0.5597841000417247,True,8,1,0,3
Y2-S2-189K21,7,612,PS,exp,46,→,up,↑,0.6268870000494644,False,8,-1,1,4
Y2-S2-189K21,7,613,PS,exp,47,↓,left,←,0.5178199999500066,False,9,-1,0,4
Y2-S2-189K21,7,614,PS,exp,36,←,left,←,0.4296526999678463,True,10,-1,0,4
Y2-S2-189K21,7,615,PS,exp,32,→,right,→,0.48449750000145286,True,10,-1,0,4
Y2-S2-189K21,7,616,PS,exp,46,←,left,←,0.5028384999604896,True,10,1,1,5
Y2-S2-189K21,7,617,PS,exp,40,→,left,←,0.702197500038892,False,9,-1,1,6
Y2-S2-189K21,7,618,PS,exp,25,↓,down,↓,0.4941186000360176,True,10,-1,0,6
Y2-S2-189K21,7,619,PS,exp,44,←,left,←,0.3948716000886634,True,10,-1,0,6
Y2-S2-189K21,7,620,PS,exp,27,↓,down,↓,0.464308200054802,True,10,1,1,7
Y2-S2-189K21,7,621,PS,exp,36,←,left,←,0.4765752999810502,True,9,1,0,7
Y2-S2-189K21,7,622,PS,exp,46,→,right,→,0.5353255000663921,True,9,1,0,7
Y2-S2-189K21,7,623,PS,exp,28,←,left,←,0.6504497999558225,True,9,1,0,7
Y2-S2-189K21,7,624,PS,exp,34,↑,up,↑,0.4289386000018567,True,8,1,0,7
Y2-S2-189K21,7,625,PS,exp,45,←,left,←,0.434278899920173,True,8,1,0,7
Y2-S2-189K21,7,626,PS,exp,30,→,right,→,0.4537666999967769,True,8,1,0,7
Y2-S2-189K21,7,627,PS,exp,44,←,left,←,0.43015730008482933,True,7,1,0,7
Y2-S2-189K21,7,628,PS,exp,27,↑,right,→,0.591440400108695,False,7,-1,1,8
Y2-S2-189K21,7,629,PS,exp,32,→,up,↑,0.4800752999726683,False,8,-1,0,8
Y2-S2-189K21,7,630,PS,exp,35,↓,down,↓,0.403959299903363,True,9,-1,0,8
Y2-S2-189K21,7,631,PS,exp,42,→,right,→,0.4320774000370875,True,9,-1,0,8
Y2-S2-189K21,7,632,PS,exp,31,←,left,←,0.4460690999403596,True,9,1,1,9
Y2-S2-189K21,7,633,PS,exp,35,↑,up,↑,0.4415807999903336,True,8,1,0,9
Y2-S2-189K21,7,634,PS,exp,48,→,right,→,0.30159899999853224,True,8,1,0,9
Y2-S2-189K21,7,635,PS,exp,26,↓,down,↓,0.5444859999697655,True,8,1,0,9
Y2-S2-189K21,7,636,PS,exp,31,←,up,↑,0.6274294999893755,False,7,-1,1,10
Y2-S2-189K21,7,637,PS,exp,45,↓,right,→,0.8045150000834838,False,8,-1,0,10
Y2-S2-189K21,7,638,PS,exp,43,↑,up,↑,0.42949939996469766,True,9,-1,0,10
Y2-S2-189K21,7,639,PS,exp,38,↓,down,↓,0.5381830999394879,True,9,-1,0,10
Y2-S2-189K21,7,640,PS,exp,50,←,left,←,0.4165860000066459,True,9,1,1,11
Y2-S2-189K21,7,641,PS,exp,27,→,right,→,0.46504759998060763,True,8,1,0,11
Y2-S2-189K21,7,642,PS,exp,50,↑,up,↑,0.4514887999976054,True,8,1,0,11
Y2-S2-189K21,7,643,PS,exp,26,↓,up,↑,0.7134904999984428,False,8,-1,1,12
Y2-S2-189K21,7,644,PS,exp,34,↑,up,↑,0.4892546000191942,True,9,-1,0,12
Y2-S2-189K21,7,645,PS,exp,47,→,right,→,0.48278610000852495,True,9,-1,0,12
Y2-S2-189K21,7,646,PS,exp,43,↑,left,←,0.6232493999414146,False,9,-1,0,12
Y2-S2-189K21,7,647,PS,exp,43,→,up,↑,0.5278260000050068,False,10,-1,0,12
Y2-S2-189K21,7,648,PS,exp,47,↓,down,↓,0.46449859999120235,True,11,-1,0,12
Y2-S2-189K21,7,649,PS,exp,35,←,left,←,0.42989269993267953,True,11,-1,0,12
Y2-S2-189K21,7,650,PS,exp,32,↓,down,↓,0.4348609000444412,True,11,1,1,13
Y2-S2-189K21,7,651,PS,exp,39,←,left,←,0.4422003999352455,True,10,1,0,13
Y2-S2-189K21,7,652,PS,exp,40,↓,down,↓,0.477924200007692,True,10,1,0,13
Y2-S2-189K21,7,653,PS,exp,50,→,right,→,0.606161400093697,True,10,1,0,13
Y2-S2-189K21,7,654,PS,exp,44,←,left,←,0.5446270999964327,True,9,1,0,13
Y2-S2-189K21,7,655,PS,exp,26,→,right,→,0.46223880001343787,True,9,1,0,13
Y2-S2-189K21,7,656,PS,exp,47,↓,down,↓,0.42672690004110336,True,9,1,0,13
Y2-S2-189K21,7,657,PS,exp,26,↑,up,↑,0.39230230008251965,True,8,1,0,13
Y2-S2-189K21,7,658,PS,exp,48,→,right,→,0.4877517999848351,True,8,1,0,13
Y2-S2-189K21,7,659,PS,exp,33,←,left,←,0.4643297999864444,True,8,1,0,13
Y2-S2-189K21,7,660,PS,exp,29,↑,up,↑,0.46086380002088845,True,7,1,0,13
Y2-S2-189K21,7,661,PS,exp,43,←,left,←,0.5403684999328107,True,7,1,0,13
Y2-S2-189K21,7,662,PS,exp,44,↑,up,↑,0.6667507000965998,True,7,1,0,13
Y2-S2-189K21,7,663,PS,exp,47,↓,down,↓,0.4255644999211654,True,6,1,0,13
Y2-S2-189K21,7,664,PS,exp,46,↑,left,←,0.45893940003588796,False,6,-1,1,14
Y2-S2-189K21,7,665,PS,exp,48,↓,left,←,0.5670502000721171,False,7,-1,0,14
Y2-S2-189K21,7,666,PS,exp,37,↑,left,←,0.9506490000057966,False,8,-1,0,14
Y2-S2-189K21,7,667,PS,exp,46,↓,up,↑,0.49339179997332394,False,9,-1,0,14
Y2-S2-189K21,7,668,PS,exp,39,↑,up,↑,0.4655860000057146,True,10,-1,0,14
Y2-S2-189K21,7,669,PS,exp,31,→,left,←,0.508111400064081,False,10,-1,0,14
Y2-S2-189K21,7,670,PS,exp,47,↓,down,↓,0.45409369992557913,True,11,-1,0,14
Y2-S2-189K21,7,671,PS,exp,27,→,right,→,0.4505284000188112,True,11,-1,0,14
Y2-S2-189K21,7,672,PS,exp,29,↑,up,↑,0.42146119999233633,True,11,1,1,15
Y2-S2-189K21,7,673,PS,exp,37,←,left,←,0.42690740001853555,True,10,1,0,15
Y2-S2-189K21,7,674,PS,exp,38,↓,right,→,0.5862930999137461,False,10,-1,1,16
Y2-S2-189K21,8,675,AS,intra_train,36,←,left,←,0.7002211000071838,True,18,-,-,-
Y2-S2-189K21,8,676,AS,intra_train,29,→,right,→,0.6489138999022543,True,18,-,-,-
Y2-S2-189K21,8,677,AS,intra_train,40,↓,down,↓,0.6085013000993058,True,18,-,-,-
Y2-S2-189K21,8,678,AS,intra_train,43,←,left,←,0.6970193999586627,True,18,-,-,-
Y2-S2-189K21,8,679,AS,intra_train,43,↑,up,↑,1.5780830000294372,True,18,-,-,-
Y2-S2-189K21,8,680,AS,exp,34,←,left,←,0.5751684999559075,True,12,0,0,0
Y2-S2-189K21,8,681,AS,exp,38,→,left,←,0.7747291000559926,False,12,-1,0,0
Y2-S2-189K21,8,682,AS,exp,30,↓,up,↑,0.6176638000179082,False,13,-1,0,0
Y2-S2-189K21,8,683,AS,exp,33,←,left,←,0.7007016999414191,True,14,-1,0,0
Y2-S2-189K21,8,684,AS,exp,25,↓,up,↑,0.6558249000227079,False,14,-1,0,0
Y2-S2-189K21,8,685,AS,exp,36,←,left,←,0.627203100011684,True,15,-1,0,0
Y2-S2-189K21,8,686,AS,exp,31,↑,up,↑,0.4653435000218451,True,15,-1,0,0
Y2-S2-189K21,8,687,AS,exp,28,→,right,→,0.5786261999746785,True,15,1,1,1
Y2-S2-189K21,8,688,AS,exp,30,↓,down,↓,0.45423500007018447,True,14,1,0,1
Y2-S2-189K21,8,689,AS,exp,35,←,left,←,0.476801999961026,True,14,1,0,1
Y2-S2-189K21,8,690,AS,exp,38,↑,up,↑,0.47345029993448406,True,14,1,0,1
Y2-S2-189K21,8,691,AS,exp,38,→,right,→,0.5869360999204218,True,13,1,0,1
Y2-S2-189K21,8,692,AS,exp,37,↑,up,↑,0.41407950001303107,True,13,1,0,1
Y2-S2-189K21,8,693,AS,exp,40,→,left,←,0.7067626999923959,False,13,-1,1,2
Y2-S2-189K21,8,694,AS,exp,26,↑,up,↑,0.5636433999752626,True,14,-1,0,2
Y2-S2-189K21,8,695,AS,exp,49,←,left,←,0.4648021999746561,True,14,-1,0,2
Y2-S2-189K21,8,696,AS,exp,42,↑,up,↑,0.4229790000244975,True,14,1,1,3
Y2-S2-189K21,8,697,AS,exp,47,↓,up,↑,0.6780739999376237,False,13,-1,1,4
Y2-S2-189K21,8,698,AS,exp,42,→,left,←,0.4827309000538662,False,14,-1,0,4
Y2-S2-189K21,8,699,AS,exp,25,↑,up,↑,0.41761219990439713,True,15,-1,0,4
Y2-S2-189K21,8,700,AS,exp,40,←,left,←,0.580117900040932,True,15,-1,0,4
Y2-S2-189K21,8,701,AS,exp,29,→,up,↑,0.8660939999390393,False,15,-1,0,4
Y2-S2-189K21,8,702,AS,exp,42,↑,up,↑,0.7906193999806419,True,16,-1,0,4
Y2-S2-189K21,8,703,AS,exp,43,→,right,→,0.4570467999437824,True,16,-1,0,4
Y2-S2-189K21,8,704,AS,exp,48,↑,up,↑,0.44505500001832843,True,16,1,1,5
Y2-S2-189K21,8,705,AS,exp,27,→,right,→,0.569663800066337,True,15,1,0,5
Y2-S2-189K21,8,706,AS,exp,31,↑,up,↑,1.27797409996856,True,15,1,0,5
Y2-S2-189K21,8,707,AS,exp,25,←,left,←,0.4390723999822512,True,15,1,0,5
Y2-S2-189K21,8,708,AS,exp,47,↓,up,↑,0.6370928999967873,False,14,-1,1,6
Y2-S2-189K21,8,709,AS,exp,47,←,left,←,0.6714509000303224,True,15,-1,0,6
Y2-S2-189K21,8,710,AS,exp,44,→,right,→,0.5695215000305325,True,15,-1,0,6
Y2-S2-189K21,8,711,AS,exp,39,↑,up,↑,0.4247109000571072,True,15,1,1,7
Y2-S2-189K21,8,712,AS,exp,41,←,up,↑,0.6083580000558868,False,14,-1,1,8
Y2-S2-189K21,8,713,AS,exp,47,↑,up,↑,0.5917430999688804,True,15,-1,0,8
Y2-S2-189K21,8,714,AS,exp,41,←,left,←,0.4181975999381393,True,15,-1,0,8
Y2-S2-189K21,8,715,AS,exp,33,↓,down,↓,0.42541210004128516,True,15,1,1,9
Y2-S2-189K21,8,716,AS,exp,50,←,left,←,0.4497219000477344,True,14,1,0,9
Y2-S2-189K21,8,717,AS,exp,49,↓,up,↑,0.7021034000208601,False,14,-1,1,10
Y2-S2-189K21,8,718,AS,exp,48,↑,left,←,0.5764389999676496,False,15,-1,0,10
Y2-S2-189K21,8,719,AS,exp,45,↓,up,↑,0.523576800012961,False,16,-1,0,10
Y2-S2-189K21,8,720,AS,exp,39,↑,up,↑,0.4514857999747619,True,17,-1,0,10
Y2-S2-189K21,8,721,AS,exp,43,←,left,←,0.8402351000113413,True,17,-1,0,10
Y2-S2-189K21,8,722,AS,exp,48,→,right,→,0.48058929992839694,True,17,1,1,11
Y2-S2-189K21,8,723,AS,exp,37,←,left,←,1.0460661000106484,True,16,1,0,11
Y2-S2-189K21,8,724,AS,exp,28,↓,up,↑,0.6764002999989316,False,16,-1,1,12
Y2-S2-189K21,8,725,AS,exp,36,←,left,←,0.5216197000117972,True,17,-1,0,12
Y2-S2-189K21,8,726,AS,exp,45,→,right,→,1.1184596000239253,True,17,-1,0,12
Y2-S2-189K21,8,727,AS,exp,28,↓,down,↓,0.41770370001904666,True,17,1,1,13
Y2-S2-189K21,8,728,AS,exp,40,←,right,→,0.57959470001515,False,16,-1,1,14
Y2-S2-189K21,8,729,AS,exp,36,→,right,→,0.6880658000009134,True,17,-1,0,14
Y2-S2-189K21,8,730,AS,exp,28,↓,down,↓,0.9696437000529841,True,17,-1,0,14
Y2-S2-189K21,8,731,AS,exp,49,←,left,←,0.4571451999945566,True,17,1,1,15
Y2-S2-189K21,8,732,AS,exp,39,↓,up,↑,0.5892050999682397,False,16,-1,1,16
