PART_ID,Block_no,Trial_no,Block_type,Trial_type,CSI,Stim_letter,Key_pressed,letter_choose,Rt,Corr,Stimulus Time,Level,Reversal,Revs_count
Y2-S2-100K21,1,1,PS,train,34,↑,up,↑,0.7970910000003641,True,30,-,-,-
Y2-S2-100K21,1,2,PS,train,42,↓,down,↓,0.7586545000085607,True,30,-,-,-
Y2-S2-100K21,1,3,PS,train,37,↑,up,↑,0.6003396999876713,True,30,-,-,-
Y2-S2-100K21,1,4,PS,train,46,↓,down,↓,0.7156715000019176,True,30,-,-,-
Y2-S2-100K21,1,5,PS,train,44,→,right,→,0.5671217999915825,True,30,-,-,-
Y2-S2-100K21,1,6,PS,train,43,←,left,←,0.5839704000100028,True,30,-,-,-
Y2-S2-100K21,1,7,PS,train,38,→,right,→,1.6999435000034282,True,30,-,-,-
Y2-S2-100K21,1,8,PS,train,49,↓,down,↓,0.5839816999941831,True,30,-,-,-
Y2-S2-100K21,1,9,PS,train,32,↑,up,↑,0.5341641999984859,True,30,-,-,-
Y2-S2-100K21,1,10,PS,train,28,↓,down,↓,0.5177744999964489,True,30,-,-,-
Y2-S2-100K21,2,11,AS,train,46,→,right,→,0.584401699990849,True,45,-,-,-
Y2-S2-100K21,2,12,AS,train,29,↓,down,↓,0.7012719000049401,True,45,-,-,-
Y2-S2-100K21,2,13,AS,train,35,←,left,←,0.6349329000076978,True,45,-,-,-
Y2-S2-100K21,2,14,AS,train,31,→,right,→,0.4183043999946676,True,45,-,-,-
Y2-S2-100K21,2,15,AS,train,32,←,left,←,0.5011939999967581,True,45,-,-,-
Y2-S2-100K21,2,16,AS,train,49,↓,down,↓,0.6511260999977821,True,45,-,-,-
Y2-S2-100K21,2,17,AS,train,40,→,right,→,0.567757700002403,True,45,-,-,-
Y2-S2-100K21,2,18,AS,train,50,↓,down,↓,0.517749200007529,True,45,-,-,-
Y2-S2-100K21,2,19,AS,train,41,↑,up,↑,0.6514840000018012,True,45,-,-,-
Y2-S2-100K21,2,20,AS,train,38,←,left,←,0.5009232000011252,True,45,-,-,-
Y2-S2-100K21,-,21,PS,adaptive,46,→,right,→,0.5271353999996791,True,10,0,0,0
Y2-S2-100K21,-,22,PS,adaptive,40,←,right,→,0.40565739999874495,False,10,-1,0,0
Y2-S2-100K21,-,23,PS,adaptive,26,↓,no_key,no_letter,-1.0,False,11,-1,0,0
Y2-S2-100K21,-,24,PS,adaptive,49,→,right,→,0.5366983999992954,True,12,-1,0,0
Y2-S2-100K21,-,25,PS,adaptive,28,↓,down,↓,0.4875380000012228,True,12,-1,0,0
Y2-S2-100K21,-,26,PS,adaptive,32,→,right,→,0.46812710000085644,True,12,1,1,1
Y2-S2-100K21,-,27,PS,adaptive,41,↑,up,↑,0.46437639999203384,True,11,1,0,1
Y2-S2-100K21,-,28,PS,adaptive,50,→,right,→,0.5220686999964528,True,11,1,0,1
Y2-S2-100K21,-,29,PS,adaptive,50,↑,up,↑,0.5178538000036497,True,11,1,0,1
Y2-S2-100K21,-,30,PS,adaptive,42,→,right,→,0.4530254999990575,True,10,1,0,1
Y2-S2-100K21,-,31,PS,adaptive,47,↓,right,→,0.6529747999884421,False,10,-1,1,2
Y2-S2-100K21,-,32,PS,adaptive,31,↑,up,↑,0.38083320000441745,True,11,-1,0,2
Y2-S2-100K21,-,33,PS,adaptive,28,→,right,→,0.42605740000726655,True,11,-1,0,2
Y2-S2-100K21,-,34,PS,adaptive,34,↑,up,↑,0.4371097999974154,True,11,1,1,3
Y2-S2-100K21,-,35,PS,adaptive,43,←,up,↑,0.5058985000068787,False,10,-1,1,4
Y2-S2-100K21,-,36,AS,adaptive,43,↑,up,↑,0.5323598000104539,True,20,0,0,0
Y2-S2-100K21,-,37,AS,adaptive,41,→,right,→,0.4510130999988178,True,20,0,0,0
Y2-S2-100K21,-,38,AS,adaptive,36,←,left,←,1.3729597000055946,True,20,1,0,0
Y2-S2-100K21,-,39,AS,adaptive,29,↓,up,↑,0.5079565000050934,False,19,-1,1,1
Y2-S2-100K21,-,40,AS,adaptive,44,←,left,←,1.1757574999937788,True,20,-1,0,1
Y2-S2-100K21,-,41,AS,adaptive,33,↑,up,↑,0.5046413999953074,True,20,-1,0,1
Y2-S2-100K21,-,42,AS,adaptive,48,←,left,←,1.3748790999961784,True,20,1,1,2
Y2-S2-100K21,-,43,AS,adaptive,38,↑,up,↑,0.8535527999920305,True,19,1,0,2
Y2-S2-100K21,-,44,AS,adaptive,32,↓,up,↑,0.5638859000027878,False,19,-1,1,3
Y2-S2-100K21,-,45,AS,adaptive,50,→,left,←,0.4512285999953747,False,20,-1,0,3
Y2-S2-100K21,-,46,AS,adaptive,43,↑,up,↑,0.5401988999947207,True,21,-1,0,3
Y2-S2-100K21,-,47,AS,adaptive,38,↓,down,↓,0.7290013000019826,True,21,-1,0,3
Y2-S2-100K21,-,48,AS,adaptive,36,←,left,←,0.943945300008636,True,21,1,1,4
Y2-S2-100K21,1,49,PS,intra_train,43,→,right,→,0.5142191000049934,True,16,-,-,-
Y2-S2-100K21,1,50,PS,intra_train,36,←,left,←,0.551426399993943,True,16,-,-,-
Y2-S2-100K21,1,51,PS,intra_train,49,↑,up,↑,0.4964839000022039,True,16,-,-,-
Y2-S2-100K21,1,52,PS,intra_train,46,↓,down,↓,0.4830827000114368,True,16,-,-,-
Y2-S2-100K21,1,53,PS,intra_train,32,↑,up,↑,0.49593150000146125,True,16,-,-,-
Y2-S2-100K21,1,54,PS,exp,50,←,left,←,0.5008780999924056,True,11,0,0,0
Y2-S2-100K21,1,55,PS,exp,47,→,right,→,0.6638151000079233,True,11,0,0,0
Y2-S2-100K21,1,56,PS,exp,43,↑,up,↑,0.4024217999976827,True,11,1,0,0
Y2-S2-100K21,1,57,PS,exp,30,←,up,↑,0.729338999997708,False,10,-1,1,1
Y2-S2-100K21,1,58,PS,exp,28,↑,up,↑,0.5452660000009928,True,11,-1,0,1
Y2-S2-100K21,1,59,PS,exp,45,→,left,←,0.7720291000005091,False,11,-1,0,1
Y2-S2-100K21,1,60,PS,exp,33,↑,up,↑,0.4627665000007255,True,12,-1,0,1
Y2-S2-100K21,1,61,PS,exp,31,←,left,←,0.44156700000166893,True,12,-1,0,1
Y2-S2-100K21,1,62,PS,exp,26,↑,up,↑,0.5322891999967396,True,12,1,1,2
Y2-S2-100K21,1,63,PS,exp,40,←,left,←,0.3601816000009421,True,11,1,0,2
Y2-S2-100K21,1,64,PS,exp,44,→,right,→,0.49727840001287404,True,11,1,0,2
Y2-S2-100K21,1,65,PS,exp,35,←,right,→,0.4020587999984855,False,11,-1,1,3
Y2-S2-100K21,1,66,PS,exp,42,↓,down,↓,0.4770601999916835,True,12,-1,0,3
Y2-S2-100K21,1,67,PS,exp,36,←,left,←,0.4342997000057949,True,12,-1,0,3
Y2-S2-100K21,1,68,PS,exp,42,→,right,→,0.4512797000061255,True,12,1,1,4
Y2-S2-100K21,1,69,PS,exp,47,↑,right,→,0.30083949999243487,False,11,-1,1,5
Y2-S2-100K21,1,70,PS,exp,25,←,left,←,0.6689826999936486,True,12,-1,0,5
Y2-S2-100K21,1,71,PS,exp,46,↓,down,↓,0.5608434000023408,True,12,-1,0,5
Y2-S2-100K21,1,72,PS,exp,35,→,left,←,0.9334304999938468,False,12,-1,0,5
Y2-S2-100K21,1,73,PS,exp,37,←,left,←,0.5087034000025596,True,13,-1,0,5
Y2-S2-100K21,1,74,PS,exp,36,↓,down,↓,0.4797785999980988,True,13,-1,0,5
Y2-S2-100K21,1,75,PS,exp,35,↑,up,↑,0.46458449999045115,True,13,1,1,6
Y2-S2-100K21,1,76,PS,exp,43,→,left,←,0.5227909999957774,False,12,-1,1,7
Y2-S2-100K21,1,77,PS,exp,27,←,left,←,0.47912540000106674,True,13,-1,0,7
Y2-S2-100K21,1,78,PS,exp,38,→,right,→,0.4106354999967152,True,13,-1,0,7
Y2-S2-100K21,1,79,PS,exp,41,↑,left,←,0.39937579999968875,False,13,-1,0,7
Y2-S2-100K21,1,80,PS,exp,38,←,left,←,0.5143517999968026,True,14,-1,0,7
Y2-S2-100K21,1,81,PS,exp,30,↑,up,↑,0.4521275000006426,True,14,-1,0,7
Y2-S2-100K21,1,82,PS,exp,48,→,right,→,0.5238131000078283,True,14,1,1,8
Y2-S2-100K21,1,83,PS,exp,34,↑,up,↑,0.39278350000677165,True,13,1,0,8
Y2-S2-100K21,1,84,PS,exp,46,←,up,↑,0.6049487999989651,False,13,-1,1,9
Y2-S2-100K21,1,85,PS,exp,41,↓,down,↓,0.43393189999915194,True,14,-1,0,9
Y2-S2-100K21,1,86,PS,exp,36,←,left,←,0.6228674000012688,True,14,-1,0,9
Y2-S2-100K21,1,87,PS,exp,40,→,right,→,0.5033799999946496,True,14,1,1,10
Y2-S2-100K21,1,88,PS,exp,37,↓,right,→,0.7008581999980379,False,13,-1,1,11
Y2-S2-100K21,1,89,PS,exp,48,→,right,→,0.43798590000369586,True,14,-1,0,11
Y2-S2-100K21,1,90,PS,exp,48,↓,down,↓,0.484991599994828,True,14,-1,0,11
Y2-S2-100K21,1,91,PS,exp,45,→,right,→,0.41414399999484885,True,14,1,1,12
Y2-S2-100K21,1,92,PS,exp,45,↓,left,←,0.6839179000089644,False,13,-1,1,13
Y2-S2-100K21,1,93,PS,exp,44,→,down,↓,0.7994221999979345,False,14,-1,0,13
Y2-S2-100K21,1,94,PS,exp,31,↑,up,↑,0.5093106999993324,True,15,-1,0,13
Y2-S2-100K21,1,95,PS,exp,50,→,no_key,no_letter,-1.0,False,15,-1,0,13
Y2-S2-100K21,1,96,PS,exp,36,↑,up,↑,0.4845775000139838,True,16,-1,0,13
Y2-S2-100K21,1,97,PS,exp,47,↓,down,↓,0.4932550999947125,True,16,-1,0,13
Y2-S2-100K21,1,98,PS,exp,32,←,left,←,0.5200078000052599,True,16,1,1,14
Y2-S2-100K21,1,99,PS,exp,45,→,right,→,0.5177161000028718,True,15,1,0,14
Y2-S2-100K21,1,100,PS,exp,28,↑,right,→,0.7862820000009378,False,15,-1,1,15
Y2-S2-100K21,1,101,PS,exp,26,↓,down,↓,0.4754763999953866,True,16,-1,0,15
Y2-S2-100K21,1,102,PS,exp,27,→,right,→,0.4518432000040775,True,16,-1,0,15
Y2-S2-100K21,1,103,PS,exp,42,←,left,←,0.3509845999942627,True,16,1,1,16
Y2-S2-100K21,2,104,AS,intra_train,40,↓,left,←,0.5671155000018189,False,30,-,-,-
Y2-S2-100K21,2,105,AS,intra_train,42,→,right,→,1.3839445999910822,True,30,-,-,-
Y2-S2-100K21,2,106,AS,intra_train,25,↑,up,↑,0.5178957000025548,True,30,-,-,-
Y2-S2-100K21,2,107,AS,intra_train,47,←,left,←,0.6906995000026654,True,30,-,-,-
Y2-S2-100K21,2,108,AS,intra_train,31,→,right,→,0.550442199993995,True,30,-,-,-
Y2-S2-100K21,2,109,AS,exp,29,←,left,←,0.6042232000036165,True,20,0,0,0
Y2-S2-100K21,2,110,AS,exp,29,→,left,←,0.5962641999940388,False,20,-1,0,0
Y2-S2-100K21,2,111,AS,exp,40,↑,up,↑,0.6955249000020558,True,21,-1,0,0
Y2-S2-100K21,2,112,AS,exp,36,←,right,→,0.78997640000307,False,21,-1,0,0
Y2-S2-100K21,2,113,AS,exp,31,→,right,→,0.46721360000083223,True,22,-1,0,0
Y2-S2-100K21,2,114,AS,exp,49,↓,down,↓,0.5002919000107795,True,22,-1,0,0
Y2-S2-100K21,2,115,AS,exp,37,↑,left,←,0.48408910000580363,False,22,-1,0,0
Y2-S2-100K21,2,116,AS,exp,27,←,left,←,0.8815744000021368,True,23,-1,0,0
Y2-S2-100K21,2,117,AS,exp,40,↑,up,↑,0.4839005999965593,True,23,-1,0,0
Y2-S2-100K21,2,118,AS,exp,43,↓,down,↓,0.48413739999523386,True,23,1,1,1
Y2-S2-100K21,2,119,AS,exp,32,→,left,←,0.5388035999931162,False,22,-1,1,2
Y2-S2-100K21,2,120,AS,exp,39,↑,up,↑,0.6110899999912363,True,23,-1,0,2
Y2-S2-100K21,2,121,AS,exp,37,←,right,→,0.4672707999998238,False,23,-1,0,2
Y2-S2-100K21,2,122,AS,exp,25,↑,up,↑,0.6007055999943987,True,24,-1,0,2
Y2-S2-100K21,2,123,AS,exp,42,→,right,→,0.5986883000005037,True,24,-1,0,2
Y2-S2-100K21,2,124,AS,exp,49,↓,down,↓,0.467282300000079,True,24,1,1,3
Y2-S2-100K21,2,125,AS,exp,25,←,left,←,0.9186425999942003,True,23,1,0,3
Y2-S2-100K21,2,126,AS,exp,40,↓,down,↓,0.5671753999922657,True,23,1,0,3
Y2-S2-100K21,2,127,AS,exp,35,←,left,←,0.6660864000004949,True,23,1,0,3
Y2-S2-100K21,2,128,AS,exp,34,↓,down,↓,0.43422759999521077,True,22,1,0,3
Y2-S2-100K21,2,129,AS,exp,42,←,left,←,1.7989739999902667,True,22,1,0,3
Y2-S2-100K21,2,130,AS,exp,27,→,right,→,0.4838649000012083,True,22,1,0,3
Y2-S2-100K21,2,131,AS,exp,50,↑,left,←,1.6743243999953847,False,21,-1,1,4
Y2-S2-100K21,2,132,AS,exp,49,↓,no_key,no_letter,-1.0,False,22,-1,0,4
Y2-S2-100K21,2,133,AS,exp,41,←,left,←,0.7134244999906514,True,23,-1,0,4
Y2-S2-100K21,2,134,AS,exp,35,→,right,→,1.2020468999980949,True,23,-1,0,4
Y2-S2-100K21,2,135,AS,exp,42,↓,down,↓,0.5553559999971185,True,23,1,1,5
Y2-S2-100K21,2,136,AS,exp,40,→,left,←,0.5494894000003114,False,22,-1,1,6
Y2-S2-100K21,2,137,AS,exp,32,←,left,←,0.6582213999936357,True,23,-1,0,6
Y2-S2-100K21,2,138,AS,exp,37,↓,no_key,no_letter,-1.0,False,23,-1,0,6
Y2-S2-100K21,2,139,AS,exp,41,←,left,←,0.6661451999971177,True,24,-1,0,6
Y2-S2-100K21,2,140,AS,exp,42,↑,up,↑,0.6754088000016054,True,24,-1,0,6
Y2-S2-100K21,2,141,AS,exp,41,→,right,→,1.25799339999503,True,24,1,1,7
Y2-S2-100K21,2,142,AS,exp,48,←,left,←,0.5511375999922166,True,23,1,0,7
Y2-S2-100K21,2,143,AS,exp,31,↑,up,↑,0.7254392000031658,True,23,1,0,7
Y2-S2-100K21,2,144,AS,exp,35,↓,down,↓,0.5007457000028808,True,23,1,0,7
Y2-S2-100K21,2,145,AS,exp,35,←,left,←,0.5780173000093782,True,22,1,0,7
Y2-S2-100K21,2,146,AS,exp,38,↑,up,↑,0.9940114000055473,True,22,1,0,7
Y2-S2-100K21,2,147,AS,exp,27,←,left,←,0.45136469999852125,True,22,1,0,7
Y2-S2-100K21,2,148,AS,exp,47,↓,down,↓,0.6153622999991057,True,21,1,0,7
Y2-S2-100K21,2,149,AS,exp,40,→,right,→,0.41774350000196137,True,21,1,0,7
Y2-S2-100K21,2,150,AS,exp,42,←,left,←,0.4839637999975821,True,21,1,0,7
Y2-S2-100K21,2,151,AS,exp,26,↓,down,↓,0.6005548000102863,True,20,1,0,7
Y2-S2-100K21,2,152,AS,exp,37,→,right,→,0.5503800000005867,True,20,1,0,7
Y2-S2-100K21,2,153,AS,exp,34,↓,down,↓,0.5728476999938721,True,20,1,0,7
Y2-S2-100K21,2,154,AS,exp,26,↑,up,↑,0.729973900000914,True,19,1,0,7
Y2-S2-100K21,2,155,AS,exp,49,→,right,→,0.4341478999995161,True,19,1,0,7
Y2-S2-100K21,2,156,AS,exp,49,↓,down,↓,0.5515305000008084,True,19,1,0,7
Y2-S2-100K21,2,157,AS,exp,48,←,left,←,0.6006602999987081,True,18,1,0,7
Y2-S2-100K21,2,158,AS,exp,39,↓,down,↓,0.6401601000106893,True,18,1,0,7
Y2-S2-100K21,2,159,AS,exp,29,↑,up,↑,0.7352370000007795,True,18,1,0,7
Y2-S2-100K21,2,160,AS,exp,45,↓,down,↓,0.6408530000044266,True,17,1,0,7
Y2-S2-100K21,2,161,AS,exp,40,↑,down,↓,0.7746269000053871,False,17,-1,1,8
Y2-S2-100K21,2,162,AS,exp,39,↓,down,↓,0.5102317000128096,True,18,-1,0,8
Y2-S2-100K21,2,163,AS,exp,38,←,left,←,0.4895741999935126,True,18,-1,0,8
Y2-S2-100K21,2,164,AS,exp,42,↓,down,↓,0.819459199992707,True,18,1,1,9
Y2-S2-100K21,2,165,AS,exp,31,↑,up,↑,0.5974069999938365,True,17,1,0,9
Y2-S2-100K21,2,166,AS,exp,25,←,left,←,0.6684611999953631,True,17,1,0,9
Y2-S2-100K21,2,167,AS,exp,40,↓,down,↓,0.5558594000031007,True,17,1,0,9
Y2-S2-100K21,2,168,AS,exp,34,←,left,←,0.44837829998868983,True,16,1,0,9
Y2-S2-100K21,2,169,AS,exp,47,→,right,→,0.5025144999963231,True,16,1,0,9
Y2-S2-100K21,2,170,AS,exp,47,↑,up,↑,0.46894599999359343,True,16,1,0,9
Y2-S2-100K21,2,171,AS,exp,32,→,left,←,0.35043219999352004,False,15,-1,1,10
Y2-S2-100K21,2,172,AS,exp,49,↓,down,↓,0.7279271000006702,True,16,-1,0,10
Y2-S2-100K21,2,173,AS,exp,47,←,right,→,0.9303885000117589,False,16,-1,0,10
Y2-S2-100K21,2,174,AS,exp,43,↓,down,↓,0.6123204000032274,True,17,-1,0,10
Y2-S2-100K21,2,175,AS,exp,33,←,right,→,0.5079690999991726,False,17,-1,0,10
Y2-S2-100K21,2,176,AS,exp,28,↑,up,↑,0.6408193000097526,True,18,-1,0,10
Y2-S2-100K21,2,177,AS,exp,44,←,right,→,0.7342317000002367,False,18,-1,0,10
Y2-S2-100K21,2,178,AS,exp,46,↓,down,↓,0.5213442999956897,True,19,-1,0,10
Y2-S2-100K21,2,179,AS,exp,40,↑,no_key,no_letter,-1.0,False,19,-1,0,10
Y2-S2-100K21,2,180,AS,exp,34,→,right,→,0.5599887999997009,True,20,-1,0,10
Y2-S2-100K21,2,181,AS,exp,37,↓,left,←,0.916634699999122,False,20,-1,0,10
Y2-S2-100K21,2,182,AS,exp,35,→,right,→,0.5183363999967696,True,21,-1,0,10
Y2-S2-100K21,2,183,AS,exp,26,↑,up,↑,0.5277670999930706,True,21,-1,0,10
Y2-S2-100K21,2,184,AS,exp,33,←,left,←,0.6336074999999255,True,21,1,1,11
Y2-S2-100K21,2,185,AS,exp,27,↑,up,↑,0.5559467999992194,True,20,1,0,11
Y2-S2-100K21,2,186,AS,exp,25,→,right,→,0.6628789999958826,True,20,1,0,11
Y2-S2-100K21,2,187,AS,exp,35,↓,left,←,0.40075489999435376,False,20,-1,1,12
Y2-S2-100K21,2,188,AS,exp,50,←,left,←,0.6762519000039902,True,21,-1,0,12
Y2-S2-100K21,2,189,AS,exp,28,↓,down,↓,0.5987329999916255,True,21,-1,0,12
Y2-S2-100K21,2,190,AS,exp,41,→,right,→,0.6663028000039048,True,21,1,1,13
Y2-S2-100K21,2,191,AS,exp,46,↓,down,↓,1.5699720999982674,True,20,1,0,13
Y2-S2-100K21,2,192,AS,exp,25,↑,up,↑,0.7038826999923913,True,20,1,0,13
Y2-S2-100K21,2,193,AS,exp,40,→,right,→,0.5629827999946428,True,20,1,0,13
Y2-S2-100K21,2,194,AS,exp,26,↓,down,↓,0.5850925999984611,True,19,1,0,13
Y2-S2-100K21,2,195,AS,exp,34,←,left,←,0.744540900006541,True,19,1,0,13
Y2-S2-100K21,2,196,AS,exp,38,→,right,→,0.6307111999922199,True,19,1,0,13
Y2-S2-100K21,2,197,AS,exp,31,←,left,←,0.47232979998807423,True,18,1,0,13
Y2-S2-100K21,2,198,AS,exp,46,↓,down,↓,0.6735878000035882,True,18,1,0,13
Y2-S2-100K21,2,199,AS,exp,49,↑,up,↑,0.5078950000024633,True,18,1,0,13
Y2-S2-100K21,2,200,AS,exp,37,↓,down,↓,0.752853400001186,True,17,1,0,13
Y2-S2-100K21,2,201,AS,exp,38,↑,up,↑,1.0092686999996658,True,17,1,0,13
Y2-S2-100K21,2,202,AS,exp,36,→,right,→,0.4816913999966346,True,17,1,0,13
Y2-S2-100K21,2,203,AS,exp,25,↑,up,↑,0.7565302000002703,True,16,1,0,13
Y2-S2-100K21,2,204,AS,exp,37,↓,right,→,0.3842560999910347,False,16,-1,1,14
Y2-S2-100K21,2,205,AS,exp,49,→,right,→,0.6051377999974648,True,17,-1,0,14
Y2-S2-100K21,2,206,AS,exp,41,←,left,←,0.4887545000092359,True,17,-1,0,14
Y2-S2-100K21,2,207,AS,exp,29,↓,down,↓,0.5241188000072725,True,17,1,1,15
Y2-S2-100K21,2,208,AS,exp,44,→,right,→,0.38392569999268744,True,16,1,0,15
Y2-S2-100K21,2,209,AS,exp,47,↑,up,↑,0.6115341999975499,True,16,1,0,15
Y2-S2-100K21,2,210,AS,exp,31,→,up,↑,0.6074328999966383,False,16,-1,1,16
Y2-S2-100K21,3,211,AS,intra_train,48,←,left,←,0.6170031000074232,True,30,-,-,-
Y2-S2-100K21,3,212,AS,intra_train,27,→,right,→,0.5176120000105584,True,30,-,-,-
Y2-S2-100K21,3,213,AS,intra_train,48,←,left,←,0.6339612000010675,True,30,-,-,-
Y2-S2-100K21,3,214,AS,intra_train,44,↓,down,↓,0.838510799992946,True,30,-,-,-
Y2-S2-100K21,3,215,AS,intra_train,50,→,right,→,0.4839349999965634,True,30,-,-,-
Y2-S2-100K21,3,216,AS,exp,37,↑,up,↑,0.5246163999981945,True,20,0,0,0
Y2-S2-100K21,3,217,AS,exp,33,→,right,→,1.0878545999876224,True,20,0,0,0
Y2-S2-100K21,3,218,AS,exp,44,↑,up,↑,0.40058390000194777,True,20,1,0,0
Y2-S2-100K21,3,219,AS,exp,50,↓,down,↓,0.5002426999999443,True,19,1,0,0
Y2-S2-100K21,3,220,AS,exp,27,↑,down,↓,0.6399043999990681,False,19,-1,1,1
Y2-S2-100K21,3,221,AS,exp,27,↓,down,↓,0.4339302000007592,True,20,-1,0,1
Y2-S2-100K21,3,222,AS,exp,25,↑,down,↓,0.61691179999616,False,20,-1,0,1
Y2-S2-100K21,3,223,AS,exp,35,→,right,→,1.4424887000059243,True,21,-1,0,1
Y2-S2-100K21,3,224,AS,exp,47,↓,left,←,0.9369359999982407,False,21,-1,0,1
Y2-S2-100K21,3,225,AS,exp,42,←,left,←,0.5904156000033254,True,22,-1,0,1
Y2-S2-100K21,3,226,AS,exp,32,↑,up,↑,0.5004211999912513,True,22,-1,0,1
Y2-S2-100K21,3,227,AS,exp,27,←,left,←,0.8322526999982074,True,22,1,1,2
Y2-S2-100K21,3,228,AS,exp,26,→,right,→,1.0999441999883857,True,21,1,0,2
Y2-S2-100K21,3,229,AS,exp,35,←,left,←,0.6823999999905936,True,21,1,0,2
Y2-S2-100K21,3,230,AS,exp,35,↓,down,↓,0.6926340999925742,True,21,1,0,2
Y2-S2-100K21,3,231,AS,exp,35,↑,up,↑,0.6625758000009228,True,20,1,0,2
Y2-S2-100K21,3,232,AS,exp,35,→,right,→,0.6604663000034634,True,20,1,0,2
Y2-S2-100K21,3,233,AS,exp,33,↓,down,↓,0.699894299992593,True,20,1,0,2
Y2-S2-100K21,3,234,AS,exp,39,→,right,→,0.7067425999994157,True,19,1,0,2
Y2-S2-100K21,3,235,AS,exp,42,↑,up,↑,0.7636723000032362,True,19,1,0,2
Y2-S2-100K21,3,236,AS,exp,37,→,right,→,0.6672137999994447,True,19,1,0,2
Y2-S2-100K21,3,237,AS,exp,34,↓,down,↓,0.4972604000067804,True,18,1,0,2
Y2-S2-100K21,3,238,AS,exp,50,←,left,←,0.7138544000044931,True,18,1,0,2
Y2-S2-100K21,3,239,AS,exp,34,→,right,→,0.5477602999890223,True,18,1,0,2
Y2-S2-100K21,3,240,AS,exp,49,←,left,←,0.607908200006932,True,17,1,0,2
Y2-S2-100K21,3,241,AS,exp,30,→,right,→,0.5188455000024987,True,17,1,0,2
Y2-S2-100K21,3,242,AS,exp,43,↓,down,↓,0.6317802999983542,True,17,1,0,2
Y2-S2-100K21,3,243,AS,exp,42,→,right,→,0.7570612999988953,True,16,1,0,2
Y2-S2-100K21,3,244,AS,exp,33,↓,down,↓,0.5219833000010112,True,16,1,0,2
Y2-S2-100K21,3,245,AS,exp,35,→,left,←,0.5100894000061089,False,16,-1,1,3
Y2-S2-100K21,3,246,AS,exp,37,←,left,←,0.5858396999974502,True,17,-1,0,3
Y2-S2-100K21,3,247,AS,exp,44,→,right,→,0.5619658999930834,True,17,-1,0,3
Y2-S2-100K21,3,248,AS,exp,47,↑,up,↑,0.5345325999951456,True,17,1,1,4
Y2-S2-100K21,3,249,AS,exp,49,→,right,→,0.7896028000104707,True,16,1,0,4
Y2-S2-100K21,3,250,AS,exp,27,↓,down,↓,0.55517009999312,True,16,1,0,4
Y2-S2-100K21,3,251,AS,exp,26,↑,up,↑,0.6781198999960907,True,16,1,0,4
Y2-S2-100K21,3,252,AS,exp,41,→,right,→,0.5495654000114882,True,15,1,0,4
Y2-S2-100K21,3,253,AS,exp,41,↑,up,↑,0.5199123000056716,True,15,1,0,4
Y2-S2-100K21,3,254,AS,exp,32,→,right,→,0.5684914000012213,True,15,1,0,4
Y2-S2-100K21,3,255,AS,exp,50,↓,down,↓,0.7711755000054836,True,14,1,0,4
Y2-S2-100K21,3,256,AS,exp,29,↑,up,↑,0.536036299992702,True,14,1,0,4
Y2-S2-100K21,3,257,AS,exp,31,←,left,←,0.5961919000110356,True,14,1,0,4
Y2-S2-100K21,3,258,AS,exp,34,↓,down,↓,0.5542628999974113,True,13,1,0,4
Y2-S2-100K21,3,259,AS,exp,47,→,right,→,0.5253699000022607,True,13,1,0,4
Y2-S2-100K21,3,260,AS,exp,49,↑,down,↓,0.5549338999990141,False,13,-1,1,5
Y2-S2-100K21,3,261,AS,exp,28,↓,down,↓,0.6124017999973148,True,14,-1,0,5
Y2-S2-100K21,3,262,AS,exp,31,↑,up,↑,0.5224201999953948,True,14,-1,0,5
Y2-S2-100K21,3,263,AS,exp,32,↓,right,→,0.7810260000114795,False,14,-1,0,5
Y2-S2-100K21,3,264,AS,exp,46,→,right,→,0.6916096000059042,True,15,-1,0,5
Y2-S2-100K21,3,265,AS,exp,50,←,right,→,0.6146249000012176,False,15,-1,0,5
Y2-S2-100K21,3,266,AS,exp,36,↑,up,↑,0.6424041999998735,True,16,-1,0,5
Y2-S2-100K21,3,267,AS,exp,44,→,right,→,0.45527940000465605,True,16,-1,0,5
Y2-S2-100K21,3,268,AS,exp,33,↑,up,↑,0.724198099997011,True,16,1,1,6
Y2-S2-100K21,3,269,AS,exp,42,↓,down,↓,0.9975518000137527,True,15,1,0,6
Y2-S2-100K21,3,270,AS,exp,35,←,left,←,0.6252808999997796,True,15,1,0,6
Y2-S2-100K21,3,271,AS,exp,41,↓,down,↓,0.5096556000062265,True,15,1,0,6
Y2-S2-100K21,3,272,AS,exp,31,←,right,→,0.5007303000020329,False,14,-1,1,7
Y2-S2-100K21,3,273,AS,exp,45,→,left,←,0.64547939998738,False,15,-1,0,7
Y2-S2-100K21,3,274,AS,exp,33,←,left,←,0.5057291999983136,True,16,-1,0,7
Y2-S2-100K21,3,275,AS,exp,48,↑,up,↑,0.6423623000009684,True,16,-1,0,7
Y2-S2-100K21,3,276,AS,exp,29,→,right,→,0.6640766999917105,True,16,1,1,8
Y2-S2-100K21,3,277,AS,exp,43,↑,up,↑,0.6934408999950392,True,15,1,0,8
Y2-S2-100K21,3,278,AS,exp,40,↓,left,←,1.0542271999875084,False,15,-1,1,9
Y2-S2-100K21,3,279,AS,exp,31,→,right,→,0.5740122999995947,True,16,-1,0,9
Y2-S2-100K21,3,280,AS,exp,38,↓,up,↑,0.6901655999972718,False,16,-1,0,9
Y2-S2-100K21,3,281,AS,exp,30,←,left,←,0.5055401999998139,True,17,-1,0,9
Y2-S2-100K21,3,282,AS,exp,47,↑,up,↑,0.6443505000061123,True,17,-1,0,9
Y2-S2-100K21,3,283,AS,exp,31,←,left,←,0.707887299999129,True,17,1,1,10
Y2-S2-100K21,3,284,AS,exp,29,↓,down,↓,0.5764578000089386,True,16,1,0,10
Y2-S2-100K21,3,285,AS,exp,29,←,down,↓,0.8718034000048647,False,16,-1,1,11
Y2-S2-100K21,3,286,AS,exp,34,↓,down,↓,0.4743740000121761,True,17,-1,0,11
Y2-S2-100K21,3,287,AS,exp,27,↑,down,↓,0.8700200000021141,False,17,-1,0,11
Y2-S2-100K21,3,288,AS,exp,28,←,left,←,0.5225932000030298,True,18,-1,0,11
Y2-S2-100K21,3,289,AS,exp,36,↑,up,↑,0.742190799996024,True,18,-1,0,11
Y2-S2-100K21,3,290,AS,exp,48,→,right,→,0.6268479999998817,True,18,1,1,12
Y2-S2-100K21,3,291,AS,exp,25,↑,up,↑,0.5818242999957874,True,17,1,0,12
Y2-S2-100K21,3,292,AS,exp,47,↓,down,↓,0.5060029000014765,True,17,1,0,12
Y2-S2-100K21,3,293,AS,exp,34,↑,up,↑,0.4933212000032654,True,17,1,0,12
Y2-S2-100K21,3,294,AS,exp,33,→,right,→,0.5528635999944527,True,16,1,0,12
Y2-S2-100K21,3,295,AS,exp,45,↑,up,↑,0.6158251000015298,True,16,1,0,12
Y2-S2-100K21,3,296,AS,exp,39,←,left,←,0.4462078999931691,True,16,1,0,12
Y2-S2-100K21,3,297,AS,exp,26,↓,down,↓,0.6570571000047494,True,15,1,0,12
Y2-S2-100K21,3,298,AS,exp,35,↑,up,↑,0.46158969998941757,True,15,1,0,12
Y2-S2-100K21,3,299,AS,exp,31,→,no_key,no_letter,-1.0,False,15,-1,1,13
Y2-S2-100K21,3,300,AS,exp,34,↓,up,↑,0.8336700000072597,False,16,-1,0,13
Y2-S2-100K21,3,301,AS,exp,40,↑,up,↑,0.5466855999984546,True,17,-1,0,13
Y2-S2-100K21,3,302,AS,exp,38,←,left,←,0.48643630000879057,True,17,-1,0,13
Y2-S2-100K21,3,303,AS,exp,28,↑,up,↑,0.41726550000021234,True,17,1,1,14
Y2-S2-100K21,3,304,AS,exp,31,←,left,←,0.5540891999989981,True,16,1,0,14
Y2-S2-100K21,3,305,AS,exp,27,↑,up,↑,0.35088379999797326,True,16,1,0,14
Y2-S2-100K21,3,306,AS,exp,28,↓,up,↑,0.5676950000051875,False,16,-1,1,15
Y2-S2-100K21,3,307,AS,exp,29,←,left,←,0.6660501000005752,True,17,-1,0,15
Y2-S2-100K21,3,308,AS,exp,42,↓,down,↓,0.5090330999955768,True,17,-1,0,15
Y2-S2-100K21,3,309,AS,exp,38,←,left,←,0.47651620001124684,True,17,1,1,16
Y2-S2-100K21,4,310,PS,intra_train,25,↓,left,←,0.8323174999968614,False,16,-,-,-
Y2-S2-100K21,4,311,PS,intra_train,41,→,right,→,0.48566969999228604,True,16,-,-,-
Y2-S2-100K21,4,312,PS,intra_train,27,↓,no_key,no_letter,-1.0,False,16,-,-,-
Y2-S2-100K21,4,313,PS,intra_train,37,→,right,→,0.47282919999270234,True,16,-,-,-
Y2-S2-100K21,4,314,PS,intra_train,43,↓,down,↓,0.7428649999928894,True,16,-,-,-
Y2-S2-100K21,4,315,PS,exp,40,→,left,←,0.7997758999990765,False,11,-1,0,0
Y2-S2-100K21,4,316,PS,exp,47,↓,down,↓,0.5449121999990894,True,12,-1,0,0
Y2-S2-100K21,4,317,PS,exp,28,→,right,→,0.46516340000380296,True,12,-1,0,0
Y2-S2-100K21,4,318,PS,exp,46,↑,up,↑,0.4478490000037709,True,12,1,1,1
Y2-S2-100K21,4,319,PS,exp,41,←,left,←,0.5539322000113316,True,11,1,0,1
Y2-S2-100K21,4,320,PS,exp,29,↓,down,↓,0.43901780000305735,True,11,1,0,1
Y2-S2-100K21,4,321,PS,exp,28,↑,up,↑,0.41581720000249334,True,11,1,0,1
Y2-S2-100K21,4,322,PS,exp,29,←,left,←,0.8010734999988927,True,10,1,0,1
Y2-S2-100K21,4,323,PS,exp,40,→,right,→,0.4005968999990728,True,10,1,0,1
Y2-S2-100K21,4,324,PS,exp,39,↑,right,→,0.6326387999870349,False,10,-1,1,2
Y2-S2-100K21,4,325,PS,exp,29,↓,down,↓,0.5377157999901101,True,11,-1,0,2
Y2-S2-100K21,4,326,PS,exp,34,↑,left,←,0.6064828999951715,False,11,-1,0,2
Y2-S2-100K21,4,327,PS,exp,46,→,right,→,0.9830169000051683,True,12,-1,0,2
Y2-S2-100K21,4,328,PS,exp,46,↓,down,↓,0.5938514999870677,True,12,-1,0,2
Y2-S2-100K21,4,329,PS,exp,33,←,left,←,0.4228259999945294,True,12,1,1,3
Y2-S2-100K21,4,330,PS,exp,49,↑,up,↑,0.4840152999968268,True,11,1,0,3
Y2-S2-100K21,4,331,PS,exp,36,↓,down,↓,0.5023268999939319,True,11,1,0,3
Y2-S2-100K21,4,332,PS,exp,27,→,right,→,0.47648579999804497,True,11,1,0,3
Y2-S2-100K21,4,333,PS,exp,35,↑,left,←,1.0324448000028497,False,10,-1,1,4
Y2-S2-100K21,4,334,PS,exp,46,←,left,←,0.7999086999916472,True,11,-1,0,4
Y2-S2-100K21,4,335,PS,exp,32,↓,down,↓,0.49485839999397285,True,11,-1,0,4
Y2-S2-100K21,4,336,PS,exp,30,←,right,→,0.6332822999975178,False,11,-1,0,4
Y2-S2-100K21,4,337,PS,exp,27,↑,up,↑,0.7187322000099812,True,12,-1,0,4
Y2-S2-100K21,4,338,PS,exp,48,←,left,←,0.6445548999909079,True,12,-1,0,4
Y2-S2-100K21,4,339,PS,exp,39,↓,down,↓,0.45515780001005623,True,12,1,1,5
Y2-S2-100K21,4,340,PS,exp,37,←,left,←,0.4735175999958301,True,11,1,0,5
Y2-S2-100K21,4,341,PS,exp,42,↓,down,↓,0.4424437999987276,True,11,1,0,5
Y2-S2-100K21,4,342,PS,exp,25,↑,left,←,0.6703572000114946,False,11,-1,1,6
Y2-S2-100K21,4,343,PS,exp,50,↓,down,↓,0.5173761999903945,True,12,-1,0,6
Y2-S2-100K21,4,344,PS,exp,44,←,left,←,0.44184100000711624,True,12,-1,0,6
Y2-S2-100K21,4,345,PS,exp,27,↑,up,↑,0.4109671000041999,True,12,1,1,7
Y2-S2-100K21,4,346,PS,exp,47,→,up,↑,0.5967346000106772,False,11,-1,1,8
Y2-S2-100K21,4,347,PS,exp,43,↓,left,←,0.42293499999505,False,12,-1,0,8
Y2-S2-100K21,4,348,PS,exp,35,←,left,←,0.43147519999183714,True,13,-1,0,8
Y2-S2-100K21,4,349,PS,exp,41,↓,left,←,0.6531066000025021,False,13,-1,0,8
Y2-S2-100K21,4,350,PS,exp,44,←,left,←,0.6369149000092875,True,14,-1,0,8
Y2-S2-100K21,4,351,PS,exp,33,→,right,→,0.5380168999981834,True,14,-1,0,8
Y2-S2-100K21,4,352,PS,exp,27,↑,up,↑,0.4391788000066299,True,14,1,1,9
Y2-S2-100K21,4,353,PS,exp,39,→,up,↑,0.41636649999418296,False,13,-1,1,10
Y2-S2-100K21,4,354,PS,exp,48,↑,up,↑,1.70762640000612,True,14,-1,0,10
Y2-S2-100K21,4,355,PS,exp,42,↓,up,↑,1.8973564999905648,False,14,-1,0,10
Y2-S2-100K21,4,356,PS,exp,36,↑,up,↑,0.6360619999904884,True,15,-1,0,10
Y2-S2-100K21,4,357,PS,exp,27,→,right,→,0.5829823999956716,True,15,-1,0,10
Y2-S2-100K21,4,358,PS,exp,47,↑,up,↑,0.48954710000543855,True,15,1,1,11
Y2-S2-100K21,4,359,PS,exp,36,→,right,→,0.5770478999911575,True,14,1,0,11
Y2-S2-100K21,4,360,PS,exp,29,↑,up,↑,0.4961431999981869,True,14,1,0,11
Y2-S2-100K21,4,361,PS,exp,44,↓,down,↓,0.5730696999962674,True,14,1,0,11
Y2-S2-100K21,4,362,PS,exp,37,↑,up,↑,0.4858886000001803,True,13,1,0,11
Y2-S2-100K21,4,363,PS,exp,27,→,right,→,0.7122682000044733,True,13,1,0,11
Y2-S2-100K21,4,364,PS,exp,49,↑,up,↑,0.49343560000124853,True,13,1,0,11
Y2-S2-100K21,4,365,PS,exp,37,→,right,→,0.4631890000018757,True,12,1,0,11
Y2-S2-100K21,4,366,PS,exp,49,↓,down,↓,0.4807639000064228,True,12,1,0,11
Y2-S2-100K21,4,367,PS,exp,35,←,left,←,0.49381179999909364,True,12,1,0,11
Y2-S2-100K21,4,368,PS,exp,50,↓,down,↓,0.48031000001356006,True,11,1,0,11
Y2-S2-100K21,4,369,PS,exp,30,↑,up,↑,0.5098873999959324,True,11,1,0,11
Y2-S2-100K21,4,370,PS,exp,35,→,right,→,0.40458300001046155,True,11,1,0,11
Y2-S2-100K21,4,371,PS,exp,26,↓,down,↓,0.445875999997952,True,10,1,0,11
Y2-S2-100K21,4,372,PS,exp,32,↑,down,↓,0.491748499989626,False,10,-1,1,12
Y2-S2-100K21,4,373,PS,exp,40,←,left,←,0.47786690000793897,True,11,-1,0,12
Y2-S2-100K21,4,374,PS,exp,39,→,right,→,0.8926761000038823,True,11,-1,0,12
Y2-S2-100K21,4,375,PS,exp,29,↓,down,↓,0.4807938000012655,True,11,1,1,13
Y2-S2-100K21,4,376,PS,exp,31,←,down,↓,0.5885247999976855,False,10,-1,1,14
Y2-S2-100K21,4,377,PS,exp,43,↑,down,↓,1.017046199995093,False,11,-1,0,14
Y2-S2-100K21,4,378,PS,exp,30,→,left,←,0.8459252000029664,False,12,-1,0,14
Y2-S2-100K21,4,379,PS,exp,40,↑,up,↑,0.44136270000308286,True,13,-1,0,14
Y2-S2-100K21,4,380,PS,exp,40,↓,left,←,0.594825000007404,False,13,-1,0,14
Y2-S2-100K21,4,381,PS,exp,35,↑,up,↑,0.43474670000432525,True,14,-1,0,14
Y2-S2-100K21,4,382,PS,exp,47,↓,up,↑,0.5372907999990275,False,14,-1,0,14
Y2-S2-100K21,4,383,PS,exp,45,↑,up,↑,1.4164252000045963,True,15,-1,0,14
Y2-S2-100K21,4,384,PS,exp,25,←,left,←,0.5842303999961587,True,15,-1,0,14
Y2-S2-100K21,4,385,PS,exp,40,↑,up,↑,0.4372693000041181,True,15,1,1,15
Y2-S2-100K21,4,386,PS,exp,50,←,left,←,0.526073400003952,True,14,1,0,15
Y2-S2-100K21,4,387,PS,exp,38,↓,down,↓,0.5234618999966187,True,14,1,0,15
Y2-S2-100K21,4,388,PS,exp,49,→,right,→,0.4977590000053169,True,14,1,0,15
Y2-S2-100K21,4,389,PS,exp,31,↑,left,←,0.7584755000134464,False,13,-1,1,16
Y2-S2-100K21,5,390,PS,intra_train,40,←,left,←,0.5770904000091832,True,16,-,-,-
Y2-S2-100K21,5,391,PS,intra_train,32,↓,down,↓,0.6801699999923585,True,16,-,-,-
Y2-S2-100K21,5,392,PS,intra_train,40,←,right,→,0.958634800001164,False,16,-,-,-
Y2-S2-100K21,5,393,PS,intra_train,39,↑,up,↑,0.6201536000007764,True,16,-,-,-
Y2-S2-100K21,5,394,PS,intra_train,48,←,left,←,0.4729123999859439,True,16,-,-,-
Y2-S2-100K21,5,395,PS,exp,33,↓,down,↓,0.7041661999974167,True,11,0,0,0
Y2-S2-100K21,5,396,PS,exp,38,←,left,←,0.45187889999942854,True,11,0,0,0
Y2-S2-100K21,5,397,PS,exp,48,↑,up,↑,0.474355900005321,True,11,1,0,0
Y2-S2-100K21,5,398,PS,exp,50,→,right,→,0.4533316000015475,True,10,1,0,0
Y2-S2-100K21,5,399,PS,exp,31,↑,up,↑,0.6404695000092033,True,10,1,0,0
Y2-S2-100K21,5,400,PS,exp,36,←,left,←,0.5763530999975046,True,10,1,0,0
Y2-S2-100K21,5,401,PS,exp,27,↑,up,↑,0.447933200004627,True,9,1,0,0
Y2-S2-100K21,5,402,PS,exp,45,↓,up,↑,0.5520511000067927,False,9,-1,1,1
Y2-S2-100K21,5,403,PS,exp,30,↑,up,↑,0.4967758999991929,True,10,-1,0,1
Y2-S2-100K21,5,404,PS,exp,39,←,left,←,0.49494619999313727,True,10,-1,0,1
Y2-S2-100K21,5,405,PS,exp,27,→,right,→,0.5151634000067133,True,10,1,1,2
Y2-S2-100K21,5,406,PS,exp,41,←,left,←,0.4355604000011226,True,9,1,0,2
Y2-S2-100K21,5,407,PS,exp,48,→,right,→,0.5311414999887347,True,9,1,0,2
Y2-S2-100K21,5,408,PS,exp,50,←,up,↑,0.9432522999995854,False,9,-1,1,3
Y2-S2-100K21,5,409,PS,exp,28,→,right,→,0.4300696999998763,True,10,-1,0,3
Y2-S2-100K21,5,410,PS,exp,41,↓,left,←,0.8484922999923583,False,10,-1,0,3
Y2-S2-100K21,5,411,PS,exp,40,↑,no_key,no_letter,-1.0,False,11,-1,0,3
Y2-S2-100K21,5,412,PS,exp,34,←,right,→,0.518563699995866,False,12,-1,0,3
Y2-S2-100K21,5,413,PS,exp,48,→,right,→,0.4287559000076726,True,13,-1,0,3
Y2-S2-100K21,5,414,PS,exp,42,↑,up,↑,0.45061790000181645,True,13,-1,0,3
Y2-S2-100K21,5,415,PS,exp,46,↓,left,←,0.6317156000004616,False,13,-1,0,3
Y2-S2-100K21,5,416,PS,exp,26,↑,left,←,0.6835250999865821,False,14,-1,0,3
Y2-S2-100K21,5,417,PS,exp,34,←,left,←,0.5044147000007797,True,15,-1,0,3
Y2-S2-100K21,5,418,PS,exp,47,↑,up,↑,0.4389896999928169,True,15,-1,0,3
Y2-S2-100K21,5,419,PS,exp,35,↓,down,↓,0.4941627999942284,True,15,1,1,4
Y2-S2-100K21,5,420,PS,exp,42,↑,up,↑,0.4123503000009805,True,14,1,0,4
Y2-S2-100K21,5,421,PS,exp,39,→,right,→,0.4035365999880014,True,14,1,0,4
Y2-S2-100K21,5,422,PS,exp,35,↓,down,↓,0.4391006999940146,True,14,1,0,4
Y2-S2-100K21,5,423,PS,exp,33,←,left,←,0.6323643000068842,True,13,1,0,4
Y2-S2-100K21,5,424,PS,exp,32,↓,down,↓,0.4561146999913035,True,13,1,0,4
Y2-S2-100K21,5,425,PS,exp,33,←,left,←,0.6155760999972699,True,13,1,0,4
Y2-S2-100K21,5,426,PS,exp,28,↓,down,↓,0.4482282000099076,True,12,1,0,4
Y2-S2-100K21,5,427,PS,exp,43,←,left,←,0.5232779000070877,True,12,1,0,4
Y2-S2-100K21,5,428,PS,exp,43,↓,up,↑,0.8709644000045955,False,12,-1,1,5
Y2-S2-100K21,5,429,PS,exp,44,↑,left,←,0.5382663999916986,False,13,-1,0,5
Y2-S2-100K21,5,430,PS,exp,48,→,right,→,0.4900216000096407,True,14,-1,0,5
Y2-S2-100K21,5,431,PS,exp,46,↓,down,↓,0.45156909999786876,True,14,-1,0,5
Y2-S2-100K21,5,432,PS,exp,42,↑,up,↑,0.7238158000109252,True,14,1,1,6
Y2-S2-100K21,5,433,PS,exp,36,→,right,→,0.4924327000044286,True,13,1,0,6
Y2-S2-100K21,5,434,PS,exp,45,↑,up,↑,0.543670099999872,True,13,1,0,6
Y2-S2-100K21,5,435,PS,exp,31,→,right,→,0.4424409000057494,True,13,1,0,6
Y2-S2-100K21,5,436,PS,exp,35,↑,up,↑,0.7088685000053374,True,12,1,0,6
Y2-S2-100K21,5,437,PS,exp,28,→,up,↑,0.8860963999904925,False,12,-1,1,7
Y2-S2-100K21,5,438,PS,exp,38,↓,up,↑,0.5467199000122491,False,13,-1,0,7
Y2-S2-100K21,5,439,PS,exp,36,↑,up,↑,0.47667180000280496,True,14,-1,0,7
Y2-S2-100K21,5,440,PS,exp,25,←,left,←,0.4324709000065923,True,14,-1,0,7
Y2-S2-100K21,5,441,PS,exp,45,↑,up,↑,0.5481852000084473,True,14,1,1,8
Y2-S2-100K21,5,442,PS,exp,32,↓,down,↓,0.4635922000015853,True,13,1,0,8
Y2-S2-100K21,5,443,PS,exp,33,←,left,←,0.47414869999920484,True,13,1,0,8
Y2-S2-100K21,5,444,PS,exp,47,↓,down,↓,0.450683700008085,True,13,1,0,8
Y2-S2-100K21,5,445,PS,exp,39,←,right,→,0.8208903999911854,False,12,-1,1,9
Y2-S2-100K21,5,446,PS,exp,49,→,left,←,0.38863680000940803,False,13,-1,0,9
Y2-S2-100K21,5,447,PS,exp,43,←,left,←,0.4037028000020655,True,14,-1,0,9
Y2-S2-100K21,5,448,PS,exp,25,↑,up,↑,0.4722442000056617,True,14,-1,0,9
Y2-S2-100K21,5,449,PS,exp,50,←,left,←,1.356451500003459,True,14,1,1,10
Y2-S2-100K21,5,450,PS,exp,25,↑,up,↑,0.44827100000111386,True,13,1,0,10
Y2-S2-100K21,5,451,PS,exp,44,→,right,→,0.44302500000048894,True,13,1,0,10
Y2-S2-100K21,5,452,PS,exp,27,↓,down,↓,0.44030539999948815,True,13,1,0,10
Y2-S2-100K21,5,453,PS,exp,47,→,left,←,0.4714341000071727,False,12,-1,1,11
Y2-S2-100K21,5,454,PS,exp,25,←,left,←,0.3971422999893548,True,13,-1,0,11
Y2-S2-100K21,5,455,PS,exp,45,↑,up,↑,0.5263108999934047,True,13,-1,0,11
Y2-S2-100K21,5,456,PS,exp,27,←,left,←,0.43135880000772886,True,13,1,1,12
Y2-S2-100K21,5,457,PS,exp,31,↓,down,↓,0.4520550000015646,True,12,1,0,12
Y2-S2-100K21,5,458,PS,exp,50,↑,down,↓,0.565649799988023,False,12,-1,1,13
Y2-S2-100K21,5,459,PS,exp,42,↓,left,←,1.1148125000036089,False,13,-1,0,13
Y2-S2-100K21,5,460,PS,exp,28,←,left,←,0.3507435999927111,True,14,-1,0,13
Y2-S2-100K21,5,461,PS,exp,36,↑,up,↑,0.43409409999730997,True,14,-1,0,13
Y2-S2-100K21,5,462,PS,exp,39,↓,up,↑,0.716586800001096,False,14,-1,0,13
Y2-S2-100K21,5,463,PS,exp,36,↑,up,↑,0.3845107000088319,True,15,-1,0,13
Y2-S2-100K21,5,464,PS,exp,27,←,left,←,0.4913477999944007,True,15,-1,0,13
Y2-S2-100K21,5,465,PS,exp,31,↓,down,↓,0.4371573999960674,True,15,1,1,14
Y2-S2-100K21,5,466,PS,exp,48,→,left,←,0.4992240999999922,False,14,-1,1,15
Y2-S2-100K21,5,467,PS,exp,47,↓,down,↓,0.5271090000023833,True,15,-1,0,15
Y2-S2-100K21,5,468,PS,exp,27,←,left,←,0.3840767999936361,True,15,-1,0,15
Y2-S2-100K21,5,469,PS,exp,38,→,right,→,0.4271430000080727,True,15,1,1,16
Y2-S2-100K21,6,470,AS,intra_train,28,←,left,←,1.4461155000026338,True,30,-,-,-
Y2-S2-100K21,6,471,AS,intra_train,35,↓,down,↓,0.5341393999988213,True,30,-,-,-
Y2-S2-100K21,6,472,AS,intra_train,35,←,left,←,0.5010770000080811,True,30,-,-,-
Y2-S2-100K21,6,473,AS,intra_train,39,↓,down,↓,0.6171136999910232,True,30,-,-,-
Y2-S2-100K21,6,474,AS,intra_train,48,←,left,←,0.5503754999954253,True,30,-,-,-
Y2-S2-100K21,6,475,AS,exp,32,↓,down,↓,0.5518887999933213,True,20,0,0,0
Y2-S2-100K21,6,476,AS,exp,28,→,right,→,0.5430964999977732,True,20,0,0,0
Y2-S2-100K21,6,477,AS,exp,30,←,left,←,0.43436250000377186,True,20,1,0,0
Y2-S2-100K21,6,478,AS,exp,47,↑,up,↑,0.6323766999994405,True,19,1,0,0
Y2-S2-100K21,6,479,AS,exp,27,←,left,←,0.5081415000022389,True,19,1,0,0
Y2-S2-100K21,6,480,AS,exp,29,↑,up,↑,0.4889050000056159,True,19,1,0,0
Y2-S2-100K21,6,481,AS,exp,41,←,left,←,0.7629926000081468,True,18,1,0,0
Y2-S2-100K21,6,482,AS,exp,46,↓,down,↓,0.4868904000031762,True,18,1,0,0
Y2-S2-100K21,6,483,AS,exp,28,↑,up,↑,1.3420960000075866,True,18,1,0,0
Y2-S2-100K21,6,484,AS,exp,25,→,right,→,1.4358620000130031,True,17,1,0,0
Y2-S2-100K21,6,485,AS,exp,39,↓,down,↓,0.4597795000008773,True,17,1,0,0
Y2-S2-100K21,6,486,AS,exp,27,↑,up,↑,0.4576550000056159,True,17,1,0,0
Y2-S2-100K21,6,487,AS,exp,42,↓,down,↓,0.9781430000002729,True,16,1,0,0
Y2-S2-100K21,6,488,AS,exp,35,→,right,→,0.3838829000014812,True,16,1,0,0
Y2-S2-100K21,6,489,AS,exp,40,↓,down,↓,0.9302023999916855,True,16,1,0,0
Y2-S2-100K21,6,490,AS,exp,46,←,left,←,0.827451100005419,True,15,1,0,0
Y2-S2-100K21,6,491,AS,exp,40,↓,down,↓,0.5845718999917153,True,15,1,0,0
Y2-S2-100K21,6,492,AS,exp,31,↑,down,↓,0.4928935000061756,False,15,-1,1,1
Y2-S2-100K21,6,493,AS,exp,34,←,right,→,0.6260206000006292,False,16,-1,0,1
Y2-S2-100K21,6,494,AS,exp,49,↑,up,↑,0.48002699999778997,True,17,-1,0,1
Y2-S2-100K21,6,495,AS,exp,46,←,left,←,0.47269819999928586,True,17,-1,0,1
Y2-S2-100K21,6,496,AS,exp,36,→,right,→,0.7021263999922667,True,17,1,1,2
Y2-S2-100K21,6,497,AS,exp,46,←,left,←,0.5480359999928623,True,16,1,0,2
Y2-S2-100K21,6,498,AS,exp,45,↓,up,↑,0.5385100999992574,False,16,-1,1,3
Y2-S2-100K21,6,499,AS,exp,35,→,right,→,0.5051725999946939,True,17,-1,0,3
Y2-S2-100K21,6,500,AS,exp,35,↓,left,←,0.6805032999982359,False,17,-1,0,3
Y2-S2-100K21,6,501,AS,exp,32,←,no_key,no_letter,-1.0,False,18,-1,0,3
Y2-S2-100K21,6,502,AS,exp,39,→,right,→,0.9707197999960044,True,19,-1,0,3
Y2-S2-100K21,6,503,AS,exp,40,←,left,←,0.5476592000050005,True,19,-1,0,3
Y2-S2-100K21,6,504,AS,exp,26,→,left,←,0.8801977999974042,False,19,-1,0,3
Y2-S2-100K21,6,505,AS,exp,47,↑,up,↑,0.5692151999974158,True,20,-1,0,3
Y2-S2-100K21,6,506,AS,exp,33,←,left,←,0.7833589000074426,True,20,-1,0,3
Y2-S2-100K21,6,507,AS,exp,42,↓,down,↓,0.5761919999931706,True,20,1,1,4
Y2-S2-100K21,6,508,AS,exp,44,←,down,↓,0.5311744999926304,False,19,-1,1,5
Y2-S2-100K21,6,509,AS,exp,27,→,right,→,0.7021880000102101,True,20,-1,0,5
Y2-S2-100K21,6,510,AS,exp,40,↓,down,↓,0.5445078999910038,True,20,-1,0,5
Y2-S2-100K21,6,511,AS,exp,38,→,right,→,0.5133695999975316,True,20,1,1,6
Y2-S2-100K21,6,512,AS,exp,29,↓,down,↓,0.5291798999969615,True,19,1,0,6
Y2-S2-100K21,6,513,AS,exp,26,↑,up,↑,0.48864349999348633,True,19,1,0,6
Y2-S2-100K21,6,514,AS,exp,34,↓,down,↓,0.43376839999109507,True,19,1,0,6
Y2-S2-100K21,6,515,AS,exp,38,←,left,←,1.1081054000096628,True,18,1,0,6
Y2-S2-100K21,6,516,AS,exp,35,→,right,→,0.5212094000016805,True,18,1,0,6
Y2-S2-100K21,6,517,AS,exp,44,←,left,←,0.5004772999964189,True,18,1,0,6
Y2-S2-100K21,6,518,AS,exp,25,→,up,↑,1.0616123999934644,False,17,-1,1,7
Y2-S2-100K21,6,519,AS,exp,34,↓,down,↓,0.5470363999920664,True,18,-1,0,7
Y2-S2-100K21,6,520,AS,exp,40,→,down,↓,0.547255799989216,False,18,-1,0,7
Y2-S2-100K21,6,521,AS,exp,50,←,left,←,0.5763927999942098,True,19,-1,0,7
Y2-S2-100K21,6,522,AS,exp,37,↓,down,↓,0.5553257999999914,True,19,-1,0,7
Y2-S2-100K21,6,523,AS,exp,37,→,right,→,0.8396310999960406,True,19,1,1,8
Y2-S2-100K21,6,524,AS,exp,33,↓,down,↓,0.597214300010819,True,18,1,0,8
Y2-S2-100K21,6,525,AS,exp,29,↑,down,↓,0.576432299989392,False,18,-1,1,9
Y2-S2-100K21,6,526,AS,exp,34,←,no_key,no_letter,-1.0,False,19,-1,0,9
Y2-S2-100K21,6,527,AS,exp,30,↓,down,↓,0.5406057999935001,True,20,-1,0,9
Y2-S2-100K21,6,528,AS,exp,50,→,right,→,0.6004202999902191,True,20,-1,0,9
Y2-S2-100K21,6,529,AS,exp,41,↑,up,↑,0.8388072999950964,True,20,1,1,10
Y2-S2-100K21,6,530,AS,exp,46,↓,down,↓,0.6273471000022255,True,19,1,0,10
Y2-S2-100K21,6,531,AS,exp,47,←,left,←,0.5005583000020124,True,19,1,0,10
Y2-S2-100K21,6,532,AS,exp,30,→,right,→,0.7212760999973398,True,19,1,0,10
Y2-S2-100K21,6,533,AS,exp,31,↓,down,↓,1.091841100002057,True,18,1,0,10
Y2-S2-100K21,6,534,AS,exp,26,→,right,→,0.48833449999801815,True,18,1,0,10
Y2-S2-100K21,6,535,AS,exp,30,←,left,←,0.6708359999902314,True,18,1,0,10
Y2-S2-100K21,6,536,AS,exp,41,→,right,→,0.6544625000096858,True,17,1,0,10
Y2-S2-100K21,6,537,AS,exp,41,←,right,→,0.5613301999983378,False,17,-1,1,11
Y2-S2-100K21,6,538,AS,exp,32,→,right,→,0.5094123000017134,True,18,-1,0,11
Y2-S2-100K21,6,539,AS,exp,41,←,left,←,0.5891397999948822,True,18,-1,0,11
Y2-S2-100K21,6,540,AS,exp,46,↑,up,↑,0.633603199996287,True,18,1,1,12
Y2-S2-100K21,6,541,AS,exp,32,↓,down,↓,0.7148222000105307,True,17,1,0,12
Y2-S2-100K21,6,542,AS,exp,29,←,left,←,0.6769344000058481,True,17,1,0,12
Y2-S2-100K21,6,543,AS,exp,35,↑,up,↑,0.6134069999970961,True,17,1,0,12
Y2-S2-100K21,6,544,AS,exp,43,↓,down,↓,0.8061354999954347,True,16,1,0,12
Y2-S2-100K21,6,545,AS,exp,40,↑,up,↑,0.4953964000014821,True,16,1,0,12
Y2-S2-100K21,6,546,AS,exp,35,→,right,→,0.4459989000024507,True,16,1,0,12
Y2-S2-100K21,6,547,AS,exp,43,↑,down,↓,0.6097956999874441,False,15,-1,1,13
Y2-S2-100K21,6,548,AS,exp,50,→,right,→,0.49468780000461265,True,16,-1,0,13
Y2-S2-100K21,6,549,AS,exp,49,↑,down,↓,0.7197135000023991,False,16,-1,0,13
Y2-S2-100K21,6,550,AS,exp,44,←,left,←,0.6417146999883698,True,17,-1,0,13
Y2-S2-100K21,6,551,AS,exp,41,↓,down,↓,0.724993199997698,True,17,-1,0,13
Y2-S2-100K21,6,552,AS,exp,28,↑,down,↓,0.7915004000096815,False,17,-1,0,13
Y2-S2-100K21,6,553,AS,exp,26,→,right,→,0.6245195000083186,True,18,-1,0,13
Y2-S2-100K21,6,554,AS,exp,43,↓,down,↓,1.0179295999987517,True,18,-1,0,13
Y2-S2-100K21,6,555,AS,exp,45,→,right,→,0.9511341999896104,True,18,1,1,14
Y2-S2-100K21,6,556,AS,exp,40,↓,down,↓,0.6003822999919066,True,17,1,0,14
Y2-S2-100K21,6,557,AS,exp,50,↑,up,↑,0.4937827000103425,True,17,1,0,14
Y2-S2-100K21,6,558,AS,exp,34,→,left,←,0.8543194999947445,False,17,-1,1,15
Y2-S2-100K21,6,559,AS,exp,32,↓,down,↓,0.5267399000003934,True,18,-1,0,15
Y2-S2-100K21,6,560,AS,exp,44,→,down,↓,0.9026550999988103,False,18,-1,0,15
Y2-S2-100K21,6,561,AS,exp,39,↓,down,↓,0.585427099998924,True,19,-1,0,15
Y2-S2-100K21,6,562,AS,exp,29,→,right,→,1.0555905000073835,True,19,-1,0,15
Y2-S2-100K21,6,563,AS,exp,31,←,right,→,0.5595861000037985,False,19,-1,0,15
Y2-S2-100K21,6,564,AS,exp,27,↑,up,↑,1.097687000001315,True,20,-1,0,15
Y2-S2-100K21,6,565,AS,exp,38,←,left,←,0.45074010000098497,True,20,-1,0,15
Y2-S2-100K21,6,566,AS,exp,35,↑,up,↑,0.5804671000078088,True,20,1,1,16
Y2-S2-100K21,7,567,AS,intra_train,30,↓,down,↓,0.5172740999987582,True,30,-,-,-
Y2-S2-100K21,7,568,AS,intra_train,25,→,right,→,0.5335658000112744,True,30,-,-,-
Y2-S2-100K21,7,569,AS,intra_train,35,↓,down,↓,0.5673955999955069,True,30,-,-,-
Y2-S2-100K21,7,570,AS,intra_train,30,←,left,←,0.4839207000040915,True,30,-,-,-
Y2-S2-100K21,7,571,AS,intra_train,26,↑,up,↑,0.7176112000015564,True,30,-,-,-
Y2-S2-100K21,7,572,AS,exp,32,→,right,→,0.5588787000015145,True,20,0,0,0
Y2-S2-100K21,7,573,AS,exp,45,←,left,←,1.0787353000050643,True,20,0,0,0
Y2-S2-100K21,7,574,AS,exp,48,↓,down,↓,0.8489529999933438,True,20,1,0,0
Y2-S2-100K21,7,575,AS,exp,47,→,right,→,0.4335914999974193,True,19,1,0,0
Y2-S2-100K21,7,576,AS,exp,49,↓,down,↓,0.767020200000843,True,19,1,0,0
Y2-S2-100K21,7,577,AS,exp,29,→,right,→,1.1446588999970118,True,19,1,0,0
Y2-S2-100K21,7,578,AS,exp,46,↓,down,↓,0.7094475999911083,True,18,1,0,0
Y2-S2-100K21,7,579,AS,exp,48,←,left,←,0.5393584999983432,True,18,1,0,0
Y2-S2-100K21,7,580,AS,exp,38,↓,down,↓,0.6500475000066217,True,18,1,0,0
Y2-S2-100K21,7,581,AS,exp,50,→,right,→,0.4678095999988727,True,17,1,0,0
Y2-S2-100K21,7,582,AS,exp,34,↑,up,↑,0.4779160000034608,True,17,1,0,0
Y2-S2-100K21,7,583,AS,exp,31,↓,down,↓,0.5050426999951014,True,17,1,0,0
Y2-S2-100K21,7,584,AS,exp,44,↑,up,↑,0.5057951000053436,True,16,1,0,0
Y2-S2-100K21,7,585,AS,exp,49,←,left,←,0.48104260000400245,True,16,1,0,0
Y2-S2-100K21,7,586,AS,exp,40,→,right,→,0.4632828000030713,True,16,1,0,0
Y2-S2-100K21,7,587,AS,exp,29,↓,down,↓,0.6461115999991307,True,15,1,0,0
Y2-S2-100K21,7,588,AS,exp,44,←,left,←,0.5678546999988612,True,15,1,0,0
Y2-S2-100K21,7,589,AS,exp,30,↑,up,↑,0.585960000011255,True,15,1,0,0
Y2-S2-100K21,7,590,AS,exp,43,↓,down,↓,0.5915263000060804,True,14,1,0,0
Y2-S2-100K21,7,591,AS,exp,32,→,right,→,0.6041941000003135,True,14,1,0,0
Y2-S2-100K21,7,592,AS,exp,27,↓,down,↓,0.494068599989987,True,14,1,0,0
Y2-S2-100K21,7,593,AS,exp,34,↑,up,↑,0.5289059000060661,True,13,1,0,0
Y2-S2-100K21,7,594,AS,exp,28,→,right,→,0.45251529999950435,True,13,1,0,0
Y2-S2-100K21,7,595,AS,exp,36,↑,down,↓,0.6177135999896564,False,13,-1,1,1
Y2-S2-100K21,7,596,AS,exp,26,→,right,→,0.5369783000060124,True,14,-1,0,1
Y2-S2-100K21,7,597,AS,exp,25,↓,up,↑,0.7563480000098934,False,14,-1,0,1
Y2-S2-100K21,7,598,AS,exp,25,←,left,←,0.44104109999898355,True,15,-1,0,1
Y2-S2-100K21,7,599,AS,exp,28,↓,down,↓,0.5747499999997672,True,15,-1,0,1
Y2-S2-100K21,7,600,AS,exp,26,←,left,←,0.4460548000060953,True,15,1,1,2
Y2-S2-100K21,7,601,AS,exp,28,↓,down,↓,0.5085034999938216,True,14,1,0,2
Y2-S2-100K21,7,602,AS,exp,39,←,left,←,0.4818193999963114,True,14,1,0,2
Y2-S2-100K21,7,603,AS,exp,42,↑,down,↓,0.7592337999958545,False,14,-1,1,3
Y2-S2-100K21,7,604,AS,exp,27,→,left,←,0.5408287000027485,False,15,-1,0,3
Y2-S2-100K21,7,605,AS,exp,42,↑,down,↓,0.6002001000015298,False,16,-1,0,3
Y2-S2-100K21,7,606,AS,exp,40,←,left,←,0.5975755999970715,True,17,-1,0,3
Y2-S2-100K21,7,607,AS,exp,33,↓,down,↓,0.6918421000009403,True,17,-1,0,3
Y2-S2-100K21,7,608,AS,exp,49,↑,up,↑,0.5211757000070065,True,17,1,1,4
Y2-S2-100K21,7,609,AS,exp,26,←,left,←,0.5608434000023408,True,16,1,0,4
Y2-S2-100K21,7,610,AS,exp,28,↑,up,↑,1.6509635999973398,True,16,1,0,4
Y2-S2-100K21,7,611,AS,exp,37,→,right,→,0.5764864000084344,True,16,1,0,4
Y2-S2-100K21,7,612,AS,exp,41,↑,up,↑,0.8944463999941945,True,15,1,0,4
Y2-S2-100K21,7,613,AS,exp,30,→,right,→,0.45529650000389665,True,15,1,0,4
Y2-S2-100K21,7,614,AS,exp,32,↓,down,↓,0.47780100000090897,True,15,1,0,4
Y2-S2-100K21,7,615,AS,exp,32,↑,up,↑,0.4961308000056306,True,14,1,0,4
Y2-S2-100K21,7,616,AS,exp,34,←,left,←,1.0131606999930227,True,14,1,0,4
Y2-S2-100K21,7,617,AS,exp,39,↑,down,↓,0.7567635000013979,False,14,-1,1,5
Y2-S2-100K21,7,618,AS,exp,35,→,right,→,0.7159315000026254,True,15,-1,0,5
Y2-S2-100K21,7,619,AS,exp,36,←,up,↑,0.6066381999989972,False,15,-1,0,5
Y2-S2-100K21,7,620,AS,exp,31,→,right,→,0.4543069000064861,True,16,-1,0,5
Y2-S2-100K21,7,621,AS,exp,42,↓,down,↓,0.47314380000170786,True,16,-1,0,5
Y2-S2-100K21,7,622,AS,exp,35,←,right,→,0.6571027000027243,False,16,-1,0,5
Y2-S2-100K21,7,623,AS,exp,39,→,left,←,0.6757713999977568,False,17,-1,0,5
Y2-S2-100K21,7,624,AS,exp,32,↓,down,↓,0.4767671000008704,True,18,-1,0,5
Y2-S2-100K21,7,625,AS,exp,46,↑,up,↑,0.5868475999886869,True,18,-1,0,5
Y2-S2-100K21,7,626,AS,exp,28,↓,down,↓,1.94987470000342,True,18,1,1,6
Y2-S2-100K21,7,627,AS,exp,37,↑,up,↑,0.8050592999934452,True,17,1,0,6
Y2-S2-100K21,7,628,AS,exp,28,↓,down,↓,0.6462997000053292,True,17,1,0,6
Y2-S2-100K21,7,629,AS,exp,36,←,left,←,0.4753950000012992,True,17,1,0,6
Y2-S2-100K21,7,630,AS,exp,40,↓,up,↑,1.0103252999979304,False,16,-1,1,7
Y2-S2-100K21,7,631,AS,exp,30,→,right,→,0.6767818000080297,True,17,-1,0,7
Y2-S2-100K21,7,632,AS,exp,27,↑,up,↑,0.5551696000038646,True,17,-1,0,7
Y2-S2-100K21,7,633,AS,exp,29,→,right,→,1.0381639999977779,True,17,1,1,8
Y2-S2-100K21,7,634,AS,exp,37,↑,up,↑,0.5754528999968898,True,16,1,0,8
Y2-S2-100K21,7,635,AS,exp,32,←,left,←,0.4575158000079682,True,16,1,0,8
Y2-S2-100K21,7,636,AS,exp,50,→,right,→,0.49047979999158997,True,16,1,0,8
Y2-S2-100K21,7,637,AS,exp,48,↑,up,↑,1.0426172000006773,True,15,1,0,8
Y2-S2-100K21,7,638,AS,exp,36,→,right,→,0.8406717000034405,True,15,1,0,8
Y2-S2-100K21,7,639,AS,exp,47,←,left,←,0.5490599000040675,True,15,1,0,8
Y2-S2-100K21,7,640,AS,exp,26,↓,up,↑,0.6017167000100017,False,14,-1,1,9
Y2-S2-100K21,7,641,AS,exp,26,↑,up,↑,0.5857210000103805,True,15,-1,0,9
Y2-S2-100K21,7,642,AS,exp,34,→,right,→,0.4626522000035038,True,15,-1,0,9
Y2-S2-100K21,7,643,AS,exp,27,←,left,←,0.4840744000102859,True,15,1,1,10
Y2-S2-100K21,7,644,AS,exp,26,↓,up,↑,0.6418218000035267,False,14,-1,1,11
Y2-S2-100K21,7,645,AS,exp,50,←,left,←,0.5420745000010356,True,15,-1,0,11
Y2-S2-100K21,7,646,AS,exp,30,↓,up,↑,0.5871535999904154,False,15,-1,0,11
Y2-S2-100K21,7,647,AS,exp,46,↑,up,↑,0.5992651999986265,True,16,-1,0,11
Y2-S2-100K21,7,648,AS,exp,49,→,up,↑,0.810815899996669,False,16,-1,0,11
Y2-S2-100K21,7,649,AS,exp,43,←,up,↑,0.5872744000080274,False,17,-1,0,11
Y2-S2-100K21,7,650,AS,exp,38,↑,up,↑,0.48612889999640174,True,18,-1,0,11
Y2-S2-100K21,7,651,AS,exp,41,←,left,←,0.7409286000038264,True,18,-1,0,11
Y2-S2-100K21,7,652,AS,exp,29,→,right,→,0.6259220999927493,True,18,1,1,12
Y2-S2-100K21,7,653,AS,exp,49,↓,down,↓,1.5969983999966644,True,17,1,0,12
Y2-S2-100K21,7,654,AS,exp,49,→,right,→,1.0591321000101743,True,17,1,0,12
Y2-S2-100K21,7,655,AS,exp,30,↑,up,↑,0.4972658000042429,True,17,1,0,12
Y2-S2-100K21,7,656,AS,exp,35,↓,down,↓,0.47875229999772273,True,16,1,0,12
Y2-S2-100K21,7,657,AS,exp,38,←,left,←,0.6572472999978345,True,16,1,0,12
Y2-S2-100K21,7,658,AS,exp,25,↑,up,↑,0.5268126000009943,True,16,1,0,12
Y2-S2-100K21,7,659,AS,exp,27,↓,down,↓,0.5091183000040473,True,15,1,0,12
Y2-S2-100K21,7,660,AS,exp,45,↑,right,→,0.5550125000008848,False,15,-1,1,13
Y2-S2-100K21,7,661,AS,exp,45,↓,down,↓,0.6353787999978522,True,16,-1,0,13
Y2-S2-100K21,7,662,AS,exp,41,↑,up,↑,1.0126988999982132,True,16,-1,0,13
Y2-S2-100K21,7,663,AS,exp,41,←,left,←,0.9354178000066895,True,16,1,1,14
Y2-S2-100K21,7,664,AS,exp,28,↑,down,↓,0.5648598999978276,False,15,-1,1,15
Y2-S2-100K21,7,665,AS,exp,32,→,left,←,0.6214162999967812,False,16,-1,0,15
Y2-S2-100K21,7,666,AS,exp,30,↓,down,↓,0.5519679000135511,True,17,-1,0,15
Y2-S2-100K21,7,667,AS,exp,26,↑,up,↑,0.9209507000050507,True,17,-1,0,15
Y2-S2-100K21,7,668,AS,exp,49,↓,down,↓,0.6451417000062065,True,17,1,1,16
Y2-S2-100K21,8,669,PS,intra_train,47,←,left,←,1.195303000000422,True,16,-,-,-
Y2-S2-100K21,8,670,PS,intra_train,29,↓,down,↓,0.6203918000101112,True,16,-,-,-
Y2-S2-100K21,8,671,PS,intra_train,32,↑,up,↑,0.43437919999996666,True,16,-,-,-
Y2-S2-100K21,8,672,PS,intra_train,39,←,left,←,0.5505346999998437,True,16,-,-,-
Y2-S2-100K21,8,673,PS,intra_train,41,→,right,→,0.7642300000006799,True,16,-,-,-
Y2-S2-100K21,8,674,PS,exp,31,↑,up,↑,0.46544350001204293,True,11,0,0,0
Y2-S2-100K21,8,675,PS,exp,42,←,left,←,0.5564564000087557,True,11,0,0,0
Y2-S2-100K21,8,676,PS,exp,35,→,right,→,0.5842676000029314,True,11,1,0,0
Y2-S2-100K21,8,677,PS,exp,43,←,left,←,0.4364257999986876,True,10,1,0,0
Y2-S2-100K21,8,678,PS,exp,36,→,right,→,0.41616949999297503,True,10,1,0,0
Y2-S2-100K21,8,679,PS,exp,38,←,left,←,0.4680452000029618,True,10,1,0,0
Y2-S2-100K21,8,680,PS,exp,41,↓,down,↓,0.45929069998965133,True,9,1,0,0
Y2-S2-100K21,8,681,PS,exp,36,←,up,↑,0.5870595000014873,False,9,-1,1,1
Y2-S2-100K21,8,682,PS,exp,27,↑,down,↓,0.5746132999920519,False,10,-1,0,1
Y2-S2-100K21,8,683,PS,exp,35,←,left,←,0.3743148000066867,True,11,-1,0,1
Y2-S2-100K21,8,684,PS,exp,37,↓,up,↑,0.5294520000024932,False,11,-1,0,1
Y2-S2-100K21,8,685,PS,exp,43,→,right,→,0.458385999998427,True,12,-1,0,1
Y2-S2-100K21,8,686,PS,exp,27,←,left,←,0.42577929999970365,True,12,-1,0,1
Y2-S2-100K21,8,687,PS,exp,38,→,right,→,0.4410331999970367,True,12,1,1,2
Y2-S2-100K21,8,688,PS,exp,42,↑,up,↑,0.5298519999923883,True,11,1,0,2
Y2-S2-100K21,8,689,PS,exp,45,←,left,←,0.5462302999949316,True,11,1,0,2
Y2-S2-100K21,8,690,PS,exp,28,↓,right,→,0.5337153000000399,False,11,-1,1,3
Y2-S2-100K21,8,691,PS,exp,36,↑,up,↑,0.4530841999949189,True,12,-1,0,3
Y2-S2-100K21,8,692,PS,exp,43,←,down,↓,0.6068690999964019,False,12,-1,0,3
Y2-S2-100K21,8,693,PS,exp,41,→,right,→,0.42575229999783915,True,13,-1,0,3
Y2-S2-100K21,8,694,PS,exp,26,↑,up,↑,0.5309458999981871,True,13,-1,0,3
Y2-S2-100K21,8,695,PS,exp,25,→,right,→,0.7740508999995654,True,13,1,1,4
Y2-S2-100K21,8,696,PS,exp,31,↓,down,↓,0.701429199994891,True,12,1,0,4
Y2-S2-100K21,8,697,PS,exp,31,→,right,→,0.43605179998849053,True,12,1,0,4
Y2-S2-100K21,8,698,PS,exp,44,↓,left,←,0.7265356999996584,False,12,-1,1,5
Y2-S2-100K21,8,699,PS,exp,26,↑,up,↑,0.4266404999943916,True,13,-1,0,5
Y2-S2-100K21,8,700,PS,exp,26,↓,down,↓,0.43052629999874625,True,13,-1,0,5
Y2-S2-100K21,8,701,PS,exp,41,←,left,←,1.2446042000083253,True,13,1,1,6
Y2-S2-100K21,8,702,PS,exp,41,→,right,→,0.706320000012056,True,12,1,0,6
Y2-S2-100K21,8,703,PS,exp,46,←,left,←,0.4300858999922639,True,12,1,0,6
Y2-S2-100K21,8,704,PS,exp,47,→,up,↑,0.5851967000053264,False,12,-1,1,7
Y2-S2-100K21,8,705,PS,exp,35,↓,down,↓,0.5094894000067143,True,13,-1,0,7
Y2-S2-100K21,8,706,PS,exp,41,↑,up,↑,0.41727109999919776,True,13,-1,0,7
Y2-S2-100K21,8,707,PS,exp,41,↓,up,↑,0.46862549999787007,False,13,-1,0,7
Y2-S2-100K21,8,708,PS,exp,36,←,left,←,0.44269870000425726,True,14,-1,0,7
Y2-S2-100K21,8,709,PS,exp,36,→,right,→,0.5090648000041256,True,14,-1,0,7
Y2-S2-100K21,8,710,PS,exp,48,←,left,←,0.44276959999115206,True,14,1,1,8
Y2-S2-100K21,8,711,PS,exp,30,↓,down,↓,0.4830101999978069,True,13,1,0,8
Y2-S2-100K21,8,712,PS,exp,43,→,right,→,0.414050599996699,True,13,1,0,8
Y2-S2-100K21,8,713,PS,exp,41,↑,up,↑,0.42939340000157245,True,13,1,0,8
Y2-S2-100K21,8,714,PS,exp,42,→,left,←,0.4390636000025552,False,12,-1,1,9
Y2-S2-100K21,8,715,PS,exp,27,←,right,→,0.7153772000019671,False,13,-1,0,9
Y2-S2-100K21,8,716,PS,exp,43,↑,up,↑,0.4329072999971686,True,14,-1,0,9
Y2-S2-100K21,8,717,PS,exp,29,←,up,↑,0.43032560001302045,False,14,-1,0,9
Y2-S2-100K21,8,718,PS,exp,42,→,left,←,1.0352429999911692,False,15,-1,0,9
Y2-S2-100K21,8,719,PS,exp,28,←,left,←,0.3835071999928914,True,16,-1,0,9
Y2-S2-100K21,8,720,PS,exp,25,↑,up,↑,1.1220708999899216,True,16,-1,0,9
Y2-S2-100K21,8,721,PS,exp,44,→,right,→,0.6543606000050204,True,16,1,1,10
Y2-S2-100K21,8,722,PS,exp,29,↑,up,↑,0.4298626000090735,True,15,1,0,10
Y2-S2-100K21,8,723,PS,exp,40,↓,down,↓,0.5084812999994028,True,15,1,0,10
Y2-S2-100K21,8,724,PS,exp,35,↑,left,←,0.45900540000002366,False,15,-1,1,11
Y2-S2-100K21,8,725,PS,exp,42,←,right,→,0.36740390000340994,False,16,-1,0,11
Y2-S2-100K21,8,726,PS,exp,33,↓,left,←,1.1862776999914786,False,17,-1,0,11
Y2-S2-100K21,8,727,PS,exp,30,←,left,←,0.49229530000593513,True,18,-1,0,11
Y2-S2-100K21,8,728,PS,exp,31,↑,up,↑,0.6063564999931259,True,18,-1,0,11
Y2-S2-100K21,8,729,PS,exp,46,←,left,←,0.49287400000321213,True,18,1,1,12
Y2-S2-100K21,8,730,PS,exp,36,↑,up,↑,0.5062551000009989,True,17,1,0,12
Y2-S2-100K21,8,731,PS,exp,34,↓,down,↓,0.5563459999975748,True,17,1,0,12
Y2-S2-100K21,8,732,PS,exp,47,→,right,→,0.5302905999997165,True,17,1,0,12
Y2-S2-100K21,8,733,PS,exp,35,↑,left,←,0.6953075999917928,False,16,-1,1,13
Y2-S2-100K21,8,734,PS,exp,40,↓,down,↓,0.5028289999900153,True,17,-1,0,13
Y2-S2-100K21,8,735,PS,exp,43,←,left,←,1.1594401000038488,True,17,-1,0,13
Y2-S2-100K21,8,736,PS,exp,31,→,up,↑,0.592639299997245,False,17,-1,0,13
Y2-S2-100K21,8,737,PS,exp,41,↑,down,↓,0.615700399997877,False,18,-1,0,13
Y2-S2-100K21,8,738,PS,exp,30,↓,down,↓,0.4930024999921443,True,19,-1,0,13
Y2-S2-100K21,8,739,PS,exp,40,←,left,←,0.776004200000898,True,19,-1,0,13
Y2-S2-100K21,8,740,PS,exp,27,→,right,→,0.4337046000000555,True,19,1,1,14
Y2-S2-100K21,8,741,PS,exp,40,←,left,←,0.6976638000051025,True,18,1,0,14
Y2-S2-100K21,8,742,PS,exp,28,→,up,↑,0.5061678999918513,False,18,-1,1,15
Y2-S2-100K21,8,743,PS,exp,31,←,left,←,0.5992378000082681,True,19,-1,0,15
Y2-S2-100K21,8,744,PS,exp,32,↑,down,↓,0.3174743999989005,False,19,-1,0,15
Y2-S2-100K21,8,745,PS,exp,28,←,left,←,1.1094678999943426,True,20,-1,0,15
Y2-S2-100K21,8,746,PS,exp,43,↑,up,↑,0.5633823000098346,True,20,-1,0,15
Y2-S2-100K21,8,747,PS,exp,47,↓,down,↓,0.6098001999926055,True,20,1,1,16
