PART_ID,Block_no,Trial_no,Block_type,Trial_type,CSI,Stim_letter,Key_pressed,letter_choose,Rt,Corr,Stimulus Time,Level,Reversal,Revs_count
Y2-S2-242K22,1,1,PS,train,35,↓,down,↓,0.7108549999538809,True,30,-,-,-
Y2-S2-242K22,1,2,PS,train,31,←,left,←,0.5338171999901533,True,30,-,-,-
Y2-S2-242K22,1,3,PS,train,27,→,right,→,0.5004381001926959,True,30,-,-,-
Y2-S2-242K22,1,4,PS,train,42,↑,up,↑,0.6007272999268025,True,30,-,-,-
Y2-S2-242K22,1,5,PS,train,47,←,left,←,0.8401764000300318,True,30,-,-,-
Y2-S2-242K22,1,6,PS,train,45,↑,up,↑,0.5172045000363141,True,30,-,-,-
Y2-S2-242K22,1,7,PS,train,41,↓,down,↓,0.5338771999813616,True,30,-,-,-
Y2-S2-242K22,1,8,PS,train,36,↑,up,↑,0.7787262001074851,True,30,-,-,-
Y2-S2-242K22,1,9,PS,train,46,↓,down,↓,1.2761232000775635,True,30,-,-,-
Y2-S2-242K22,1,10,PS,train,47,↑,up,↑,0.5837765000760555,True,30,-,-,-
Y2-S2-242K22,2,11,AS,train,50,→,right,→,0.5344879000913352,True,45,-,-,-
Y2-S2-242K22,2,12,AS,train,46,↑,up,↑,0.6513507999479771,True,45,-,-,-
Y2-S2-242K22,2,13,AS,train,30,↓,down,↓,0.4849104001186788,True,45,-,-,-
Y2-S2-242K22,2,14,AS,train,39,↑,up,↑,0.7668739000800997,True,45,-,-,-
Y2-S2-242K22,2,15,AS,train,26,→,right,→,0.5679112998768687,True,45,-,-,-
Y2-S2-242K22,2,16,AS,train,37,↑,up,↑,0.5513082998804748,True,45,-,-,-
Y2-S2-242K22,2,17,AS,train,32,↓,down,↓,0.4175974999088794,True,45,-,-,-
Y2-S2-242K22,2,18,AS,train,25,→,right,→,0.7010586000978947,True,45,-,-,-
Y2-S2-242K22,2,19,AS,train,47,↓,down,↓,0.5342785997781903,True,45,-,-,-
Y2-S2-242K22,2,20,AS,train,30,↑,up,↑,0.4008955000899732,True,45,-,-,-
Y2-S2-242K22,-,21,PS,adaptive,25,↓,down,↓,0.47983409999869764,True,10,0,0,0
Y2-S2-242K22,-,22,PS,adaptive,46,←,left,←,0.4141496999654919,True,10,0,0,0
Y2-S2-242K22,-,23,PS,adaptive,33,↓,up,↑,0.9093104000203311,False,10,-1,0,0
Y2-S2-242K22,-,24,PS,adaptive,32,←,left,←,0.8003348000347614,True,11,-1,0,0
Y2-S2-242K22,-,25,PS,adaptive,26,→,left,←,0.9223359001334757,False,11,-1,0,0
Y2-S2-242K22,-,26,PS,adaptive,33,↑,up,↑,0.5113990001846105,True,12,-1,0,0
Y2-S2-242K22,-,27,PS,adaptive,25,↓,down,↓,0.6794759000185877,True,12,-1,0,0
Y2-S2-242K22,-,28,PS,adaptive,48,↑,up,↑,0.5085314998868853,True,12,1,1,1
Y2-S2-242K22,-,29,PS,adaptive,42,←,left,←,0.41847450006753206,True,11,1,0,1
Y2-S2-242K22,-,30,PS,adaptive,33,↓,down,↓,0.4919010999146849,True,11,1,0,1
Y2-S2-242K22,-,31,PS,adaptive,41,←,left,←,0.4209344999399036,True,11,1,0,1
Y2-S2-242K22,-,32,PS,adaptive,31,↑,up,↑,0.4792343000881374,True,10,1,0,1
Y2-S2-242K22,-,33,PS,adaptive,37,←,left,←,0.9090909999795258,True,10,1,0,1
Y2-S2-242K22,-,34,PS,adaptive,45,→,right,→,0.4221103999298066,True,10,1,0,1
Y2-S2-242K22,-,35,PS,adaptive,30,↓,up,↑,0.9579721998888999,False,9,-1,1,2
Y2-S2-242K22,-,36,PS,adaptive,35,←,right,→,0.6431181998923421,False,10,-1,0,2
Y2-S2-242K22,-,37,PS,adaptive,41,↑,up,↑,0.5865225000306964,True,11,-1,0,2
Y2-S2-242K22,-,38,PS,adaptive,39,←,left,←,0.589477299945429,True,11,-1,0,2
Y2-S2-242K22,-,39,PS,adaptive,33,↑,left,←,0.7175501000601798,False,11,-1,0,2
Y2-S2-242K22,-,40,PS,adaptive,45,↓,down,↓,0.5868029999546707,True,12,-1,0,2
Y2-S2-242K22,-,41,PS,adaptive,30,↑,up,↑,0.6805096000898629,True,12,-1,0,2
Y2-S2-242K22,-,42,PS,adaptive,33,←,left,←,0.44701569993048906,True,12,1,1,3
Y2-S2-242K22,-,43,PS,adaptive,44,↑,up,↑,0.46763029997237027,True,11,1,0,3
Y2-S2-242K22,-,44,PS,adaptive,42,←,right,→,0.6496582999825478,False,11,-1,1,4
Y2-S2-242K22,-,45,AS,adaptive,45,→,right,→,0.43373259995132685,True,20,0,0,0
Y2-S2-242K22,-,46,AS,adaptive,28,↑,up,↑,0.5570383998565376,True,20,0,0,0
Y2-S2-242K22,-,47,AS,adaptive,49,↓,down,↓,0.7431943998672068,True,20,1,0,0
Y2-S2-242K22,-,48,AS,adaptive,42,←,left,←,0.4171462000813335,True,19,1,0,0
Y2-S2-242K22,-,49,AS,adaptive,34,↑,up,↑,0.4337794999592006,True,19,1,0,0
Y2-S2-242K22,-,50,AS,adaptive,47,→,right,→,0.7830163999460638,True,19,1,0,0
Y2-S2-242K22,-,51,AS,adaptive,26,↓,down,↓,0.7683286999817938,True,18,1,0,0
Y2-S2-242K22,-,52,AS,adaptive,49,↑,down,↓,0.636226800037548,False,18,-1,1,1
Y2-S2-242K22,-,53,AS,adaptive,31,←,left,←,0.5294066001661122,True,19,-1,0,1
Y2-S2-242K22,-,54,AS,adaptive,43,↓,down,↓,0.5866068999748677,True,19,-1,0,1
Y2-S2-242K22,-,55,AS,adaptive,50,→,right,→,0.6652540999930352,True,19,1,1,2
Y2-S2-242K22,-,56,AS,adaptive,46,↑,up,↑,0.6249484999570996,True,18,1,0,2
Y2-S2-242K22,-,57,AS,adaptive,41,→,right,→,0.5527949000243098,True,18,1,0,2
Y2-S2-242K22,-,58,AS,adaptive,49,←,left,←,0.6109174001030624,True,18,1,0,2
Y2-S2-242K22,-,59,AS,adaptive,43,↓,down,↓,0.8872230998240411,True,17,1,0,2
Y2-S2-242K22,-,60,AS,adaptive,32,↑,up,↑,0.5275677000172436,True,17,1,0,2
Y2-S2-242K22,-,61,AS,adaptive,35,←,left,←,0.5153349000029266,True,17,1,0,2
Y2-S2-242K22,-,62,AS,adaptive,44,→,right,→,0.5179909998551011,True,16,1,0,2
Y2-S2-242K22,-,63,AS,adaptive,36,↓,down,↓,0.8364985999651253,True,16,1,0,2
Y2-S2-242K22,-,64,AS,adaptive,40,→,right,→,0.49516880000010133,True,16,1,0,2
Y2-S2-242K22,-,65,AS,adaptive,30,←,left,←,0.6352866000961512,True,15,1,0,2
Y2-S2-242K22,-,66,AS,adaptive,35,→,right,→,0.5166251000482589,True,15,1,0,2
Y2-S2-242K22,-,67,AS,adaptive,44,←,left,←,0.5484713001642376,True,15,1,0,2
Y2-S2-242K22,-,68,AS,adaptive,33,→,left,←,0.6782313999719918,False,14,-1,1,3
Y2-S2-242K22,-,69,AS,adaptive,46,↑,up,↑,0.5861910998355597,True,15,-1,0,3
Y2-S2-242K22,-,70,AS,adaptive,28,↓,down,↓,0.6254388000816107,True,15,-1,0,3
Y2-S2-242K22,-,71,AS,adaptive,30,←,left,←,0.6102051001507789,True,15,1,1,4
Y2-S2-242K22,1,72,AS,intra_train,44,→,left,←,0.41725950012914836,False,21,-,-,-
Y2-S2-242K22,1,73,AS,intra_train,29,←,left,←,0.6457575000822544,True,21,-,-,-
Y2-S2-242K22,1,74,AS,intra_train,49,→,no_key,no_letter,-1.0,False,21,-,-,-
Y2-S2-242K22,1,75,AS,intra_train,44,←,left,←,0.817523900186643,True,21,-,-,-
Y2-S2-242K22,1,76,AS,intra_train,47,↓,down,↓,0.5851756001356989,True,21,-,-,-
Y2-S2-242K22,1,77,AS,exp,38,←,left,←,0.7571878000162542,True,14,0,0,0
Y2-S2-242K22,1,78,AS,exp,25,↑,up,↑,0.6384490998461843,True,14,0,0,0
Y2-S2-242K22,1,79,AS,exp,35,↓,down,↓,0.6883493999484926,True,14,1,0,0
Y2-S2-242K22,1,80,AS,exp,33,←,left,←,0.6295674999710172,True,13,1,0,0
Y2-S2-242K22,1,81,AS,exp,45,→,left,←,0.7161511001177132,False,13,-1,1,1
Y2-S2-242K22,1,82,AS,exp,37,↓,down,↓,0.5367229001130909,True,14,-1,0,1
Y2-S2-242K22,1,83,AS,exp,34,↑,up,↑,0.6941068000160158,True,14,-1,0,1
Y2-S2-242K22,1,84,AS,exp,26,↓,down,↓,0.5687656998634338,True,14,1,1,2
Y2-S2-242K22,1,85,AS,exp,26,→,down,↓,0.6534281999338418,False,13,-1,1,3
Y2-S2-242K22,1,86,AS,exp,48,↑,down,↓,0.7716767000965774,False,14,-1,0,3
Y2-S2-242K22,1,87,AS,exp,49,→,right,→,0.6568456999957561,True,15,-1,0,3
Y2-S2-242K22,1,88,AS,exp,40,↓,down,↓,0.5870815999805927,True,15,-1,0,3
Y2-S2-242K22,1,89,AS,exp,42,→,right,→,0.611724300077185,True,15,1,1,4
Y2-S2-242K22,1,90,AS,exp,31,↑,up,↑,0.5206135001499206,True,14,1,0,4
Y2-S2-242K22,1,91,AS,exp,35,←,left,←,0.5878109999466687,True,14,1,0,4
Y2-S2-242K22,1,92,AS,exp,33,↑,up,↑,0.46306819980964065,True,14,1,0,4
Y2-S2-242K22,1,93,AS,exp,38,→,right,→,0.49588069994933903,True,13,1,0,4
Y2-S2-242K22,1,94,AS,exp,48,↓,down,↓,0.5396034000441432,True,13,1,0,4
Y2-S2-242K22,1,95,AS,exp,42,→,right,→,0.6691203999798745,True,13,1,0,4
Y2-S2-242K22,1,96,AS,exp,36,←,down,↓,0.7487578000873327,False,12,-1,1,5
Y2-S2-242K22,1,97,AS,exp,46,→,right,→,0.6491237001027912,True,13,-1,0,5
Y2-S2-242K22,1,98,AS,exp,34,↑,up,↑,0.6966364998370409,True,13,-1,0,5
Y2-S2-242K22,1,99,AS,exp,34,←,down,↓,0.8448201999999583,False,13,-1,0,5
Y2-S2-242K22,1,100,AS,exp,46,→,right,→,0.5571941998787224,True,14,-1,0,5
Y2-S2-242K22,1,101,AS,exp,43,↓,down,↓,1.2051854999735951,True,14,-1,0,5
Y2-S2-242K22,1,102,AS,exp,34,↑,up,↑,0.729633100097999,True,14,1,1,6
Y2-S2-242K22,1,103,AS,exp,32,←,left,←,0.6416684000287205,True,13,1,0,6
Y2-S2-242K22,1,104,AS,exp,39,→,right,→,0.5837948000989854,True,13,1,0,6
Y2-S2-242K22,1,105,AS,exp,48,↑,up,↑,0.49243159987963736,True,13,1,0,6
Y2-S2-242K22,1,106,AS,exp,26,→,down,↓,0.8516520000994205,False,12,-1,1,7
Y2-S2-242K22,1,107,AS,exp,34,↓,no_key,no_letter,-1.0,False,13,-1,0,7
Y2-S2-242K22,1,108,AS,exp,37,↑,up,↑,0.6514128998387605,True,14,-1,0,7
Y2-S2-242K22,1,109,AS,exp,25,←,left,←,1.162276300136,True,14,-1,0,7
Y2-S2-242K22,1,110,AS,exp,48,↑,up,↑,0.6159874999430031,True,14,1,1,8
Y2-S2-242K22,1,111,AS,exp,31,↓,down,↓,0.5753614001441747,True,13,1,0,8
Y2-S2-242K22,1,112,AS,exp,40,↑,up,↑,0.902393399970606,True,13,1,0,8
Y2-S2-242K22,1,113,AS,exp,31,←,left,←,0.8104012999683619,True,13,1,0,8
Y2-S2-242K22,1,114,AS,exp,30,→,left,←,0.8734175998251885,False,12,-1,1,9
Y2-S2-242K22,1,115,AS,exp,25,↑,up,↑,0.6064591999165714,True,13,-1,0,9
Y2-S2-242K22,1,116,AS,exp,25,→,right,→,0.6067286999896169,True,13,-1,0,9
Y2-S2-242K22,1,117,AS,exp,35,←,left,←,0.47167850006371737,True,13,1,1,10
Y2-S2-242K22,1,118,AS,exp,31,→,left,←,0.8279049000702798,False,12,-1,1,11
Y2-S2-242K22,1,119,AS,exp,34,↓,right,→,1.0987826001364738,False,13,-1,0,11
Y2-S2-242K22,1,120,AS,exp,42,→,right,→,0.5427325000055134,True,14,-1,0,11
Y2-S2-242K22,1,121,AS,exp,43,↑,up,↑,0.5329968000296503,True,14,-1,0,11
Y2-S2-242K22,1,122,AS,exp,42,→,right,→,0.47562260017730296,True,14,1,1,12
Y2-S2-242K22,1,123,AS,exp,38,←,left,←,0.46936949994415045,True,13,1,0,12
Y2-S2-242K22,1,124,AS,exp,29,↓,down,↓,0.5435782000422478,True,13,1,0,12
Y2-S2-242K22,1,125,AS,exp,44,→,right,→,0.45033499994315207,True,13,1,0,12
Y2-S2-242K22,1,126,AS,exp,46,←,left,←,0.46621059998869896,True,12,1,0,12
Y2-S2-242K22,1,127,AS,exp,46,→,right,→,0.453028499847278,True,12,1,0,12
Y2-S2-242K22,1,128,AS,exp,31,←,left,←,0.43350509996525943,True,12,1,0,12
Y2-S2-242K22,1,129,AS,exp,50,↓,down,↓,0.6151652000844479,True,11,1,0,12
Y2-S2-242K22,1,130,AS,exp,29,→,left,←,0.7861904001329094,False,11,-1,1,13
Y2-S2-242K22,1,131,AS,exp,33,←,left,←,0.45684219989925623,True,12,-1,0,13
Y2-S2-242K22,1,132,AS,exp,37,→,right,→,1.1221924999263138,True,12,-1,0,13
Y2-S2-242K22,1,133,AS,exp,48,←,left,←,0.5133247999474406,True,12,1,1,14
Y2-S2-242K22,1,134,AS,exp,43,→,right,→,0.6795671000145376,True,11,1,0,14
Y2-S2-242K22,1,135,AS,exp,50,←,left,←,0.4363128999248147,True,11,1,0,14
Y2-S2-242K22,1,136,AS,exp,35,↑,up,↑,0.46010980010032654,True,11,1,0,14
Y2-S2-242K22,1,137,AS,exp,42,↓,down,↓,0.4304587999358773,True,10,1,0,14
Y2-S2-242K22,1,138,AS,exp,30,→,down,↓,0.8015234998892993,False,10,-1,1,15
Y2-S2-242K22,1,139,AS,exp,38,↓,down,↓,0.6510101000312716,True,11,-1,0,15
Y2-S2-242K22,1,140,AS,exp,45,→,right,→,0.47201260016299784,True,11,-1,0,15
Y2-S2-242K22,1,141,AS,exp,42,←,right,→,0.6297140999231488,False,11,-1,0,15
Y2-S2-242K22,1,142,AS,exp,29,↑,up,↑,0.4302273001521826,True,12,-1,0,15
Y2-S2-242K22,1,143,AS,exp,35,→,right,→,0.6535203999374062,True,12,-1,0,15
Y2-S2-242K22,1,144,AS,exp,42,←,left,←,0.5307560001965612,True,12,1,1,16
Y2-S2-242K22,2,145,PS,intra_train,41,→,right,→,0.4965701000764966,True,18,-,-,-
Y2-S2-242K22,2,146,PS,intra_train,41,↑,up,↑,0.5123617998324335,True,18,-,-,-
Y2-S2-242K22,2,147,PS,intra_train,44,←,left,←,0.54950310010463,True,18,-,-,-
Y2-S2-242K22,2,148,PS,intra_train,39,→,right,→,0.5480402000248432,True,18,-,-,-
Y2-S2-242K22,2,149,PS,intra_train,34,↑,up,↑,0.7968771001324058,True,18,-,-,-
Y2-S2-242K22,2,150,PS,exp,41,→,right,→,0.4965766000095755,True,12,0,0,0
Y2-S2-242K22,2,151,PS,exp,49,↓,left,←,0.9301336000207812,False,12,-1,0,0
Y2-S2-242K22,2,152,PS,exp,42,←,left,←,0.46596339996904135,True,13,-1,0,0
Y2-S2-242K22,2,153,PS,exp,50,↓,down,↓,0.6047064999584109,True,13,-1,0,0
Y2-S2-242K22,2,154,PS,exp,35,→,down,↓,0.8911272999830544,False,13,-1,0,0
Y2-S2-242K22,2,155,PS,exp,33,↑,up,↑,0.5933711999095976,True,14,-1,0,0
Y2-S2-242K22,2,156,PS,exp,40,←,left,←,0.4586075998377055,True,14,-1,0,0
Y2-S2-242K22,2,157,PS,exp,41,→,right,→,0.6336121000349522,True,14,1,1,1
Y2-S2-242K22,2,158,PS,exp,48,↓,down,↓,0.640525400172919,True,13,1,0,1
Y2-S2-242K22,2,159,PS,exp,35,→,right,→,0.5402629000600427,True,13,1,0,1
Y2-S2-242K22,2,160,PS,exp,43,←,left,←,0.6172277999576181,True,13,1,0,1
Y2-S2-242K22,2,161,PS,exp,46,→,right,→,0.474746499909088,True,12,1,0,1
Y2-S2-242K22,2,162,PS,exp,41,↑,up,↑,0.5482427999377251,True,12,1,0,1
Y2-S2-242K22,2,163,PS,exp,26,←,right,→,0.8085264000110328,False,12,-1,1,2
Y2-S2-242K22,2,164,PS,exp,48,→,right,→,0.4836003999225795,True,13,-1,0,2
Y2-S2-242K22,2,165,PS,exp,34,↑,up,↑,0.47097619995474815,True,13,-1,0,2
Y2-S2-242K22,2,166,PS,exp,49,→,right,→,0.5190087000373751,True,13,1,1,3
Y2-S2-242K22,2,167,PS,exp,26,←,left,←,0.5782736998517066,True,12,1,0,3
Y2-S2-242K22,2,168,PS,exp,43,↓,left,←,0.4354959998745471,False,12,-1,1,4
Y2-S2-242K22,2,169,PS,exp,31,↑,up,↑,0.5303062000311911,True,13,-1,0,4
Y2-S2-242K22,2,170,PS,exp,25,←,left,←,0.4612696000840515,True,13,-1,0,4
Y2-S2-242K22,2,171,PS,exp,40,→,right,→,0.5212695000227541,True,13,1,1,5
Y2-S2-242K22,2,172,PS,exp,28,↑,up,↑,0.4331924000289291,True,12,1,0,5
Y2-S2-242K22,2,173,PS,exp,39,←,left,←,0.4352131998166442,True,12,1,0,5
Y2-S2-242K22,2,174,PS,exp,48,→,right,→,0.4822652998846024,True,12,1,0,5
Y2-S2-242K22,2,175,PS,exp,34,←,left,←,0.5842621999327093,True,11,1,0,5
Y2-S2-242K22,2,176,PS,exp,43,→,left,←,0.6135533999186009,False,11,-1,1,6
Y2-S2-242K22,2,177,PS,exp,44,↓,down,↓,0.7122168000787497,True,12,-1,0,6
Y2-S2-242K22,2,178,PS,exp,48,↑,up,↑,0.5114043999928981,True,12,-1,0,6
Y2-S2-242K22,2,179,PS,exp,50,↓,down,↓,0.6886783998925239,True,12,1,1,7
Y2-S2-242K22,2,180,PS,exp,35,↑,up,↑,0.4757436001673341,True,11,1,0,7
Y2-S2-242K22,2,181,PS,exp,36,→,right,→,0.3707636999897659,True,11,1,0,7
Y2-S2-242K22,2,182,PS,exp,49,↑,up,↑,0.4837847000453621,True,11,1,0,7
Y2-S2-242K22,2,183,PS,exp,44,→,right,→,0.5436033001169562,True,10,1,0,7
Y2-S2-242K22,2,184,PS,exp,28,←,up,↑,1.2687744998838753,False,10,-1,1,8
Y2-S2-242K22,2,185,PS,exp,38,→,left,←,1.1152433999814093,False,11,-1,0,8
Y2-S2-242K22,2,186,PS,exp,36,←,right,→,0.9582577999681234,False,12,-1,0,8
Y2-S2-242K22,2,187,PS,exp,45,↓,down,↓,0.49833450000733137,True,13,-1,0,8
Y2-S2-242K22,2,188,PS,exp,37,←,left,←,0.6607593998778611,True,13,-1,0,8
Y2-S2-242K22,2,189,PS,exp,25,↑,up,↑,0.5790013000369072,True,13,1,1,9
Y2-S2-242K22,2,190,PS,exp,48,→,right,→,0.4706339999102056,True,12,1,0,9
Y2-S2-242K22,2,191,PS,exp,46,←,left,←,0.4659649000968784,True,12,1,0,9
Y2-S2-242K22,2,192,PS,exp,38,↓,down,↓,0.5879701999947429,True,12,1,0,9
Y2-S2-242K22,2,193,PS,exp,39,↑,up,↑,0.482308299979195,True,11,1,0,9
Y2-S2-242K22,2,194,PS,exp,39,↓,down,↓,0.6274476000107825,True,11,1,0,9
Y2-S2-242K22,2,195,PS,exp,38,↑,up,↑,0.5374636000487953,True,11,1,0,9
Y2-S2-242K22,2,196,PS,exp,39,→,left,←,0.7421063999645412,False,10,-1,1,10
Y2-S2-242K22,2,197,PS,exp,35,↓,down,↓,0.5321521000005305,True,11,-1,0,10
Y2-S2-242K22,2,198,PS,exp,31,↑,up,↑,0.548115500016138,True,11,-1,0,10
Y2-S2-242K22,2,199,PS,exp,30,→,right,→,0.570950300199911,True,11,1,1,11
Y2-S2-242K22,2,200,PS,exp,35,↑,up,↑,0.5047661999706179,True,10,1,0,11
Y2-S2-242K22,2,201,PS,exp,25,→,right,→,0.5991320998873562,True,10,1,0,11
Y2-S2-242K22,2,202,PS,exp,42,←,left,←,0.37133220001123846,True,10,1,0,11
Y2-S2-242K22,2,203,PS,exp,28,↑,up,↑,0.46634510019794106,True,9,1,0,11
Y2-S2-242K22,2,204,PS,exp,42,←,left,←,0.6660354000050575,True,9,1,0,11
Y2-S2-242K22,2,205,PS,exp,49,→,right,→,0.4427465999033302,True,9,1,0,11
Y2-S2-242K22,2,206,PS,exp,34,↓,down,↓,0.6577232999261469,True,8,1,0,11
Y2-S2-242K22,2,207,PS,exp,37,↑,up,↑,0.6561118999961764,True,8,1,0,11
Y2-S2-242K22,2,208,PS,exp,45,↓,down,↓,0.48816190008074045,True,8,1,0,11
Y2-S2-242K22,2,209,PS,exp,26,→,right,→,0.4571939001325518,True,7,1,0,11
Y2-S2-242K22,2,210,PS,exp,26,←,left,←,0.43328460003249347,True,7,1,0,11
Y2-S2-242K22,2,211,PS,exp,27,→,right,→,0.4637144999578595,True,7,1,0,11
Y2-S2-242K22,2,212,PS,exp,33,↑,up,↑,0.477101500146091,True,6,1,0,11
Y2-S2-242K22,2,213,PS,exp,39,→,right,→,0.6221545999869704,True,6,1,0,11
Y2-S2-242K22,2,214,PS,exp,50,↑,down,↓,0.7456456001382321,False,6,-1,1,12
Y2-S2-242K22,2,215,PS,exp,48,↓,up,↑,0.8009046998340636,False,7,-1,0,12
Y2-S2-242K22,2,216,PS,exp,36,→,right,→,0.49158939998596907,True,8,-1,0,12
Y2-S2-242K22,2,217,PS,exp,36,↑,left,←,0.7184829998295754,False,8,-1,0,12
Y2-S2-242K22,2,218,PS,exp,45,←,left,←,0.45855259988456964,True,9,-1,0,12
Y2-S2-242K22,2,219,PS,exp,37,↑,up,↑,0.5008937998209149,True,9,-1,0,12
Y2-S2-242K22,2,220,PS,exp,39,→,left,←,0.5980805000290275,False,9,-1,0,12
Y2-S2-242K22,2,221,PS,exp,34,←,left,←,1.3130665000062436,True,10,-1,0,12
Y2-S2-242K22,2,222,PS,exp,28,→,right,→,0.4754178998991847,True,10,-1,0,12
Y2-S2-242K22,2,223,PS,exp,49,↓,down,↓,0.5884612998925149,True,10,1,1,13
Y2-S2-242K22,2,224,PS,exp,37,→,right,→,0.45667890016920865,True,9,1,0,13
Y2-S2-242K22,2,225,PS,exp,30,↑,up,↑,0.5088882001582533,True,9,1,0,13
Y2-S2-242K22,2,226,PS,exp,31,→,right,→,0.7270971999969333,True,9,1,0,13
Y2-S2-242K22,2,227,PS,exp,48,←,left,←,1.003568299813196,True,8,1,0,13
Y2-S2-242K22,2,228,PS,exp,25,→,right,→,0.7897910999599844,True,8,1,0,13
Y2-S2-242K22,2,229,PS,exp,44,↓,down,↓,0.5580698999110609,True,8,1,0,13
Y2-S2-242K22,2,230,PS,exp,33,→,right,→,0.4886533999815583,True,7,1,0,13
Y2-S2-242K22,2,231,PS,exp,37,←,right,→,1.2555746999569237,False,7,-1,1,14
Y2-S2-242K22,2,232,PS,exp,44,→,right,→,0.5221490999683738,True,8,-1,0,14
Y2-S2-242K22,2,233,PS,exp,39,←,left,←,0.5529963001608849,True,8,-1,0,14
Y2-S2-242K22,2,234,PS,exp,35,→,right,→,0.5300370000768453,True,8,1,1,15
Y2-S2-242K22,2,235,PS,exp,42,↓,down,↓,0.6092967998702079,True,7,1,0,15
Y2-S2-242K22,2,236,PS,exp,46,←,right,→,0.5707473999354988,False,7,-1,1,16
Y2-S2-242K22,3,237,PS,intra_train,42,↓,down,↓,0.7206526999361813,True,18,-,-,-
Y2-S2-242K22,3,238,PS,intra_train,44,→,right,→,0.5027908999472857,True,18,-,-,-
Y2-S2-242K22,3,239,PS,intra_train,26,↓,down,↓,0.5666420001070946,True,18,-,-,-
Y2-S2-242K22,3,240,PS,intra_train,28,←,left,←,0.5033037001267076,True,18,-,-,-
Y2-S2-242K22,3,241,PS,intra_train,25,↑,up,↑,0.9922082999255508,True,18,-,-,-
Y2-S2-242K22,3,242,PS,exp,46,↓,down,↓,0.5694136000238359,True,12,0,0,0
Y2-S2-242K22,3,243,PS,exp,28,↑,up,↑,0.5356068999972194,True,12,0,0,0
Y2-S2-242K22,3,244,PS,exp,28,↓,down,↓,0.5824566001538187,True,12,1,0,0
Y2-S2-242K22,3,245,PS,exp,32,↑,down,↓,0.5499505999032408,False,11,-1,1,1
Y2-S2-242K22,3,246,PS,exp,44,↓,down,↓,0.46184190013445914,True,12,-1,0,1
Y2-S2-242K22,3,247,PS,exp,41,↑,up,↑,0.4835913998540491,True,12,-1,0,1
Y2-S2-242K22,3,248,PS,exp,25,←,left,←,0.5136543000116944,True,12,1,1,2
Y2-S2-242K22,3,249,PS,exp,27,→,right,→,0.5205236000474542,True,11,1,0,2
Y2-S2-242K22,3,250,PS,exp,37,↓,down,↓,0.5545410001650453,True,11,1,0,2
Y2-S2-242K22,3,251,PS,exp,34,→,right,→,0.49358490016311407,True,11,1,0,2
Y2-S2-242K22,3,252,PS,exp,30,↑,up,↑,0.5566149998921901,True,10,1,0,2
Y2-S2-242K22,3,253,PS,exp,38,→,right,→,0.5180506999604404,True,10,1,0,2
Y2-S2-242K22,3,254,PS,exp,29,↑,up,↑,0.6039634000044316,True,10,1,0,2
Y2-S2-242K22,3,255,PS,exp,26,←,left,←,0.5072081000544131,True,9,1,0,2
Y2-S2-242K22,3,256,PS,exp,30,↑,up,↑,0.8264544000849128,True,9,1,0,2
Y2-S2-242K22,3,257,PS,exp,44,↓,right,→,0.7422380999196321,False,9,-1,1,3
Y2-S2-242K22,3,258,PS,exp,39,↑,up,↑,0.4514953000470996,True,10,-1,0,3
Y2-S2-242K22,3,259,PS,exp,44,←,left,←,0.46717999991960824,True,10,-1,0,3
Y2-S2-242K22,3,260,PS,exp,48,→,right,→,0.5143875998910517,True,10,1,1,4
Y2-S2-242K22,3,261,PS,exp,43,←,right,→,0.6047169000376016,False,9,-1,1,5
Y2-S2-242K22,3,262,PS,exp,40,↓,down,↓,0.5795428000856191,True,10,-1,0,5
Y2-S2-242K22,3,263,PS,exp,30,→,right,→,0.7292834999971092,True,10,-1,0,5
Y2-S2-242K22,3,264,PS,exp,36,↑,left,←,0.933271799935028,False,10,-1,0,5
Y2-S2-242K22,3,265,PS,exp,49,←,left,←,0.4650192998815328,True,11,-1,0,5
Y2-S2-242K22,3,266,PS,exp,31,↓,down,↓,0.5755185000598431,True,11,-1,0,5
Y2-S2-242K22,3,267,PS,exp,47,→,right,→,0.6707128998823464,True,11,1,1,6
Y2-S2-242K22,3,268,PS,exp,42,←,left,←,0.7396209998987615,True,10,1,0,6
Y2-S2-242K22,3,269,PS,exp,34,↓,down,↓,0.5457705999724567,True,10,1,0,6
Y2-S2-242K22,3,270,PS,exp,29,↑,up,↑,0.5462156999856234,True,10,1,0,6
Y2-S2-242K22,3,271,PS,exp,48,←,left,←,0.9437829998787493,True,9,1,0,6
Y2-S2-242K22,3,272,PS,exp,36,↑,up,↑,0.5183601998724043,True,9,1,0,6
Y2-S2-242K22,3,273,PS,exp,41,↓,down,↓,0.6111623998731375,True,9,1,0,6
Y2-S2-242K22,3,274,PS,exp,50,↑,up,↑,0.5233177000191063,True,8,1,0,6
Y2-S2-242K22,3,275,PS,exp,41,←,right,→,0.5693975000176579,False,8,-1,1,7
Y2-S2-242K22,3,276,PS,exp,27,→,right,→,0.5150987000670284,True,9,-1,0,7
Y2-S2-242K22,3,277,PS,exp,31,↑,up,↑,0.4964563997928053,True,9,-1,0,7
Y2-S2-242K22,3,278,PS,exp,48,←,left,←,0.7394322999753058,True,9,1,1,8
Y2-S2-242K22,3,279,PS,exp,45,↓,right,→,0.6271325000561774,False,8,-1,1,9
Y2-S2-242K22,3,280,PS,exp,47,←,left,←,0.4907320998609066,True,9,-1,0,9
Y2-S2-242K22,3,281,PS,exp,32,↑,up,↑,0.5006709001027048,True,9,-1,0,9
Y2-S2-242K22,3,282,PS,exp,48,→,left,←,0.6592111999634653,False,9,-1,0,9
Y2-S2-242K22,3,283,PS,exp,27,←,left,←,0.6923078999388963,True,10,-1,0,9
Y2-S2-242K22,3,284,PS,exp,26,↓,down,↓,0.49522200017236173,True,10,-1,0,9
Y2-S2-242K22,3,285,PS,exp,32,←,right,→,0.8919510999694467,False,10,-1,0,9
Y2-S2-242K22,3,286,PS,exp,26,↓,down,↓,0.8172474000602961,True,11,-1,0,9
Y2-S2-242K22,3,287,PS,exp,45,→,right,→,0.4711116999387741,True,11,-1,0,9
Y2-S2-242K22,3,288,PS,exp,37,↑,up,↑,0.7125623999163508,True,11,1,1,10
Y2-S2-242K22,3,289,PS,exp,48,←,left,←,0.5354517998639494,True,10,1,0,10
Y2-S2-242K22,3,290,PS,exp,37,→,right,→,0.8505238001234829,True,10,1,0,10
Y2-S2-242K22,3,291,PS,exp,33,↓,left,←,0.624236200004816,False,10,-1,1,11
Y2-S2-242K22,3,292,PS,exp,46,←,right,→,0.6639062999747694,False,11,-1,0,11
Y2-S2-242K22,3,293,PS,exp,39,→,right,→,0.6673820000141859,True,12,-1,0,11
Y2-S2-242K22,3,294,PS,exp,31,↓,down,↓,0.9595612999983132,True,12,-1,0,11
Y2-S2-242K22,3,295,PS,exp,27,↑,up,↑,0.808212999952957,True,12,1,1,12
Y2-S2-242K22,3,296,PS,exp,39,→,right,→,0.8577521999832243,True,11,1,0,12
Y2-S2-242K22,3,297,PS,exp,36,↓,left,←,0.7663046999368817,False,11,-1,1,13
Y2-S2-242K22,3,298,PS,exp,25,→,right,→,0.5572786000557244,True,12,-1,0,13
Y2-S2-242K22,3,299,PS,exp,47,↓,down,↓,0.7302318001165986,True,12,-1,0,13
Y2-S2-242K22,3,300,PS,exp,32,←,left,←,0.4757434001658112,True,12,1,1,14
Y2-S2-242K22,3,301,PS,exp,41,→,right,→,0.4839004999957979,True,11,1,0,14
Y2-S2-242K22,3,302,PS,exp,35,↑,up,↑,0.7244043999817222,True,11,1,0,14
Y2-S2-242K22,3,303,PS,exp,29,←,left,←,0.694603499956429,True,11,1,0,14
Y2-S2-242K22,3,304,PS,exp,42,↑,right,→,0.7863579001277685,False,10,-1,1,15
Y2-S2-242K22,3,305,PS,exp,30,↓,down,↓,0.6379184999968857,True,11,-1,0,15
Y2-S2-242K22,3,306,PS,exp,28,→,right,→,0.5238195999991149,True,11,-1,0,15
Y2-S2-242K22,3,307,PS,exp,30,↓,down,↓,0.668058600043878,True,11,1,1,16
Y2-S2-242K22,4,308,AS,intra_train,25,←,left,←,0.7593497999478132,True,21,-,-,-
Y2-S2-242K22,4,309,AS,intra_train,35,↓,down,↓,1.4720354001037776,True,21,-,-,-
Y2-S2-242K22,4,310,AS,intra_train,35,↑,up,↑,0.6756588001735508,True,21,-,-,-
Y2-S2-242K22,4,311,AS,intra_train,46,←,left,←,0.7085309999529272,True,21,-,-,-
Y2-S2-242K22,4,312,AS,intra_train,34,↑,up,↑,0.6698069998528808,True,21,-,-,-
Y2-S2-242K22,4,313,AS,exp,45,←,left,←,0.5000201999209821,True,14,0,0,0
Y2-S2-242K22,4,314,AS,exp,30,→,right,→,0.6893217999022454,True,14,0,0,0
Y2-S2-242K22,4,315,AS,exp,49,↑,up,↑,0.6542891999706626,True,14,1,0,0
Y2-S2-242K22,4,316,AS,exp,50,←,left,←,0.4504331999924034,True,13,1,0,0
Y2-S2-242K22,4,317,AS,exp,41,↓,down,↓,0.5900885998271406,True,13,1,0,0
Y2-S2-242K22,4,318,AS,exp,39,←,right,→,0.7098892000503838,False,13,-1,1,1
Y2-S2-242K22,4,319,AS,exp,31,↑,up,↑,0.5807113000191748,True,14,-1,0,1
Y2-S2-242K22,4,320,AS,exp,30,↓,down,↓,0.711188199929893,True,14,-1,0,1
Y2-S2-242K22,4,321,AS,exp,25,↑,up,↑,0.587181800045073,True,14,1,1,2
Y2-S2-242K22,4,322,AS,exp,39,→,right,→,0.4427284998819232,True,13,1,0,2
Y2-S2-242K22,4,323,AS,exp,39,←,left,←,0.47842950001358986,True,13,1,0,2
Y2-S2-242K22,4,324,AS,exp,43,→,right,→,0.5362510001286864,True,13,1,0,2
Y2-S2-242K22,4,325,AS,exp,50,↑,up,↑,0.4899602001532912,True,12,1,0,2
Y2-S2-242K22,4,326,AS,exp,28,→,right,→,0.9869673999492079,True,12,1,0,2
Y2-S2-242K22,4,327,AS,exp,32,←,left,←,0.41476499987766147,True,12,1,0,2
Y2-S2-242K22,4,328,AS,exp,28,↓,right,→,0.7228711999487132,False,11,-1,1,3
Y2-S2-242K22,4,329,AS,exp,47,←,left,←,0.44031930016353726,True,12,-1,0,3
Y2-S2-242K22,4,330,AS,exp,39,↑,up,↑,0.6404805998317897,True,12,-1,0,3
Y2-S2-242K22,4,331,AS,exp,50,↓,down,↓,0.5259847000706941,True,12,1,1,4
Y2-S2-242K22,4,332,AS,exp,42,←,down,↓,0.606562800006941,False,11,-1,1,5
Y2-S2-242K22,4,333,AS,exp,37,↓,down,↓,1.1263416998554021,True,12,-1,0,5
Y2-S2-242K22,4,334,AS,exp,49,←,left,←,0.6148687999229878,True,12,-1,0,5
Y2-S2-242K22,4,335,AS,exp,28,→,down,↓,0.8168246001005173,False,12,-1,0,5
Y2-S2-242K22,4,336,AS,exp,39,↑,up,↑,0.4601225000806153,True,13,-1,0,5
Y2-S2-242K22,4,337,AS,exp,47,←,right,→,0.6026971999090165,False,13,-1,0,5
Y2-S2-242K22,4,338,AS,exp,44,↓,down,↓,0.5399044998921454,True,14,-1,0,5
Y2-S2-242K22,4,339,AS,exp,47,→,right,→,0.984717900166288,True,14,-1,0,5
Y2-S2-242K22,4,340,AS,exp,31,↓,down,↓,0.8237041998654604,True,14,1,1,6
Y2-S2-242K22,4,341,AS,exp,32,↑,down,↓,0.5758982999250293,False,13,-1,1,7
Y2-S2-242K22,4,342,AS,exp,36,←,left,←,0.821589200058952,True,14,-1,0,7
Y2-S2-242K22,4,343,AS,exp,30,↓,down,↓,0.5120594000909477,True,14,-1,0,7
Y2-S2-242K22,4,344,AS,exp,25,←,down,↓,0.7496631999965757,False,14,-1,0,7
Y2-S2-242K22,4,345,AS,exp,25,↓,down,↓,0.4869478000327945,True,15,-1,0,7
Y2-S2-242K22,4,346,AS,exp,38,←,left,←,0.4709407000336796,True,15,-1,0,7
Y2-S2-242K22,4,347,AS,exp,34,→,left,←,0.6958508000243455,False,15,-1,0,7
Y2-S2-242K22,4,348,AS,exp,39,↑,up,↑,0.678164399927482,True,16,-1,0,7
Y2-S2-242K22,4,349,AS,exp,37,↓,down,↓,0.6413568998686969,True,16,-1,0,7
Y2-S2-242K22,4,350,AS,exp,46,↑,up,↑,0.5118404000531882,True,16,1,1,8
Y2-S2-242K22,4,351,AS,exp,40,↓,down,↓,0.5819825001526624,True,15,1,0,8
Y2-S2-242K22,4,352,AS,exp,32,←,left,←,0.6944168000482023,True,15,1,0,8
Y2-S2-242K22,4,353,AS,exp,33,↑,up,↑,0.45772210019640625,True,15,1,0,8
Y2-S2-242K22,4,354,AS,exp,33,←,right,→,0.8417076000478119,False,14,-1,1,9
Y2-S2-242K22,4,355,AS,exp,42,↑,up,↑,0.5388171002268791,True,15,-1,0,9
Y2-S2-242K22,4,356,AS,exp,42,↓,down,↓,0.6940806000493467,True,15,-1,0,9
Y2-S2-242K22,4,357,AS,exp,50,↑,up,↑,0.4419962998945266,True,15,1,1,10
Y2-S2-242K22,4,358,AS,exp,37,←,right,→,0.7340772999450564,False,14,-1,1,11
Y2-S2-242K22,4,359,AS,exp,25,↑,up,↑,0.4331406999845058,True,15,-1,0,11
Y2-S2-242K22,4,360,AS,exp,47,←,up,↑,0.8770504998974502,False,15,-1,0,11
Y2-S2-242K22,4,361,AS,exp,43,→,right,→,0.49690279993228614,True,16,-1,0,11
Y2-S2-242K22,4,362,AS,exp,47,←,left,←,0.5345701999031007,True,16,-1,0,11
Y2-S2-242K22,4,363,AS,exp,35,↑,up,↑,0.641823599813506,True,16,1,1,12
Y2-S2-242K22,4,364,AS,exp,41,←,left,←,0.7257840998936445,True,15,1,0,12
Y2-S2-242K22,4,365,AS,exp,32,↓,down,↓,0.5248705002013594,True,15,1,0,12
Y2-S2-242K22,4,366,AS,exp,25,←,left,←,0.699209799990058,True,15,1,0,12
Y2-S2-242K22,4,367,AS,exp,33,→,right,→,0.546030499972403,True,14,1,0,12
Y2-S2-242K22,4,368,AS,exp,26,↑,up,↑,0.48744900012388825,True,14,1,0,12
Y2-S2-242K22,4,369,AS,exp,25,←,left,←,0.5444979001767933,True,14,1,0,12
Y2-S2-242K22,4,370,AS,exp,38,→,left,←,0.5759898999240249,False,13,-1,1,13
Y2-S2-242K22,4,371,AS,exp,30,←,left,←,0.6956941999960691,True,14,-1,0,13
Y2-S2-242K22,4,372,AS,exp,31,↑,up,↑,0.5902084999252111,True,14,-1,0,13
Y2-S2-242K22,4,373,AS,exp,33,→,right,→,0.754679299890995,True,14,1,1,14
Y2-S2-242K22,4,374,AS,exp,41,↑,right,→,0.7662597000598907,False,13,-1,1,15
Y2-S2-242K22,4,375,AS,exp,42,←,left,←,0.6037540000397712,True,14,-1,0,15
Y2-S2-242K22,4,376,AS,exp,32,↑,up,↑,0.4925245000049472,True,14,-1,0,15
Y2-S2-242K22,4,377,AS,exp,47,↓,down,↓,0.6481532999314368,True,14,1,1,16
Y2-S2-242K22,5,378,AS,intra_train,30,↑,up,↑,0.6043236998375505,True,21,-,-,-
Y2-S2-242K22,5,379,AS,intra_train,31,←,left,←,0.3840771000832319,True,21,-,-,-
Y2-S2-242K22,5,380,AS,intra_train,30,↓,down,↓,1.0561273999046534,True,21,-,-,-
Y2-S2-242K22,5,381,AS,intra_train,37,↑,up,↑,0.5257662001531571,True,21,-,-,-
Y2-S2-242K22,5,382,AS,intra_train,39,↓,down,↓,0.553129900014028,True,21,-,-,-
Y2-S2-242K22,5,383,AS,exp,34,↑,up,↑,0.6418676001485437,True,14,0,0,0
Y2-S2-242K22,5,384,AS,exp,45,→,right,→,0.5345694001298398,True,14,0,0,0
Y2-S2-242K22,5,385,AS,exp,32,↑,up,↑,0.6900542001239955,True,14,1,0,0
Y2-S2-242K22,5,386,AS,exp,49,↓,down,↓,0.5294102001935244,True,13,1,0,0
Y2-S2-242K22,5,387,AS,exp,34,→,right,→,0.5583371999673545,True,13,1,0,0
Y2-S2-242K22,5,388,AS,exp,34,←,left,←,0.7207630998454988,True,13,1,0,0
Y2-S2-242K22,5,389,AS,exp,39,↑,up,↑,0.7312944999430329,True,12,1,0,0
Y2-S2-242K22,5,390,AS,exp,41,↓,down,↓,0.6999550999607891,True,12,1,0,0
Y2-S2-242K22,5,391,AS,exp,48,←,left,←,0.5626540998928249,True,12,1,0,0
Y2-S2-242K22,5,392,AS,exp,37,→,left,←,0.8147044000215828,False,11,-1,1,1
Y2-S2-242K22,5,393,AS,exp,36,↓,down,↓,0.7720253001898527,True,12,-1,0,1
Y2-S2-242K22,5,394,AS,exp,35,←,right,→,0.9679270000196993,False,12,-1,0,1
Y2-S2-242K22,5,395,AS,exp,39,↓,down,↓,0.7171924998983741,True,13,-1,0,1
Y2-S2-242K22,5,396,AS,exp,42,↑,down,↓,0.6668316998984665,False,13,-1,0,1
Y2-S2-242K22,5,397,AS,exp,32,→,right,→,0.577155799837783,True,14,-1,0,1
Y2-S2-242K22,5,398,AS,exp,25,↓,down,↓,0.6811102998908609,True,14,-1,0,1
Y2-S2-242K22,5,399,AS,exp,32,↑,up,↑,0.48614609986543655,True,14,1,1,2
Y2-S2-242K22,5,400,AS,exp,35,↓,down,↓,0.5653762000147253,True,13,1,0,2
Y2-S2-242K22,5,401,AS,exp,35,↑,down,↓,0.751587999984622,False,13,-1,1,3
Y2-S2-242K22,5,402,AS,exp,47,→,right,→,0.52556709991768,True,14,-1,0,3
Y2-S2-242K22,5,403,AS,exp,50,↑,up,↑,0.5262097001541406,True,14,-1,0,3
Y2-S2-242K22,5,404,AS,exp,50,→,right,→,0.4924672001507133,True,14,1,1,4
Y2-S2-242K22,5,405,AS,exp,49,↓,down,↓,0.6480982999783009,True,13,1,0,4
Y2-S2-242K22,5,406,AS,exp,40,→,right,→,0.5335816000588238,True,13,1,0,4
Y2-S2-242K22,5,407,AS,exp,36,↓,down,↓,0.6550390999764204,True,13,1,0,4
Y2-S2-242K22,5,408,AS,exp,41,←,left,←,0.43956489977426827,True,12,1,0,4
Y2-S2-242K22,5,409,AS,exp,28,↓,down,↓,0.6377190998755395,True,12,1,0,4
Y2-S2-242K22,5,410,AS,exp,39,←,left,←,0.6909850998781621,True,12,1,0,4
Y2-S2-242K22,5,411,AS,exp,28,↓,down,↓,0.6332379998639226,True,11,1,0,4
Y2-S2-242K22,5,412,AS,exp,27,↑,down,↓,0.7780581000261009,False,11,-1,1,5
Y2-S2-242K22,5,413,AS,exp,34,↓,down,↓,0.7688404000364244,True,12,-1,0,5
Y2-S2-242K22,5,414,AS,exp,38,←,left,←,0.5101428001653403,True,12,-1,0,5
Y2-S2-242K22,5,415,AS,exp,25,→,right,→,0.6309036000166088,True,12,1,1,6
Y2-S2-242K22,5,416,AS,exp,25,↑,up,↑,0.4623573999851942,True,11,1,0,6
Y2-S2-242K22,5,417,AS,exp,48,→,right,→,0.5286255001556128,True,11,1,0,6
Y2-S2-242K22,5,418,AS,exp,47,↓,down,↓,0.5428442999254912,True,11,1,0,6
Y2-S2-242K22,5,419,AS,exp,31,←,left,←,0.4953630999661982,True,10,1,0,6
Y2-S2-242K22,5,420,AS,exp,40,↑,up,↑,0.7026720999274403,True,10,1,0,6
Y2-S2-242K22,5,421,AS,exp,50,↓,down,↓,0.5719922999851406,True,10,1,0,6
Y2-S2-242K22,5,422,AS,exp,39,←,left,←,0.8644797001034021,True,9,1,0,6
Y2-S2-242K22,5,423,AS,exp,31,→,right,→,0.936504099983722,True,9,1,0,6
Y2-S2-242K22,5,424,AS,exp,31,←,down,↓,0.6994302999228239,False,9,-1,1,7
Y2-S2-242K22,5,425,AS,exp,28,↓,down,↓,0.7227537999860942,True,10,-1,0,7
Y2-S2-242K22,5,426,AS,exp,48,←,down,↓,0.8994722000788897,False,10,-1,0,7
Y2-S2-242K22,5,427,AS,exp,30,↓,down,↓,0.7212268998846412,True,11,-1,0,7
Y2-S2-242K22,5,428,AS,exp,37,→,right,→,0.8147022998891771,True,11,-1,0,7
Y2-S2-242K22,5,429,AS,exp,38,←,left,←,0.43635630002245307,True,11,1,1,8
Y2-S2-242K22,5,430,AS,exp,25,↑,up,↑,0.50907490006648,True,10,1,0,8
Y2-S2-242K22,5,431,AS,exp,40,←,up,↑,0.8854731000028551,False,10,-1,1,9
Y2-S2-242K22,5,432,AS,exp,50,→,right,→,0.526240199804306,True,11,-1,0,9
Y2-S2-242K22,5,433,AS,exp,33,↑,up,↑,0.5439522000961006,True,11,-1,0,9
Y2-S2-242K22,5,434,AS,exp,34,→,right,→,0.542593999998644,True,11,1,1,10
Y2-S2-242K22,5,435,AS,exp,31,↑,up,↑,0.5948016999755055,True,10,1,0,10
Y2-S2-242K22,5,436,AS,exp,46,↓,up,↑,0.7179559001233429,False,10,-1,1,11
Y2-S2-242K22,5,437,AS,exp,28,→,right,→,0.4975049998611212,True,11,-1,0,11
Y2-S2-242K22,5,438,AS,exp,40,↑,up,↑,0.63481459999457,True,11,-1,0,11
Y2-S2-242K22,5,439,AS,exp,30,←,right,→,0.5369450999423862,False,11,-1,0,11
Y2-S2-242K22,5,440,AS,exp,45,↑,up,↑,0.4529235998634249,True,12,-1,0,11
Y2-S2-242K22,5,441,AS,exp,32,→,left,←,0.7898170999251306,False,12,-1,0,11
Y2-S2-242K22,5,442,AS,exp,43,↓,down,↓,0.6123311000410467,True,13,-1,0,11
Y2-S2-242K22,5,443,AS,exp,39,→,right,→,0.48354659997858107,True,13,-1,0,11
Y2-S2-242K22,5,444,AS,exp,47,↑,down,↓,0.6518868999555707,False,13,-1,0,11
Y2-S2-242K22,5,445,AS,exp,46,→,right,→,0.47555339988321066,True,14,-1,0,11
Y2-S2-242K22,5,446,AS,exp,34,↓,down,↓,0.6284465999342501,True,14,-1,0,11
Y2-S2-242K22,5,447,AS,exp,45,←,left,←,0.6071576999966055,True,14,1,1,12
Y2-S2-242K22,5,448,AS,exp,34,→,right,→,0.49992370000109076,True,13,1,0,12
Y2-S2-242K22,5,449,AS,exp,39,←,down,↓,0.7725283999461681,False,13,-1,1,13
Y2-S2-242K22,5,450,AS,exp,29,→,right,→,0.460747699951753,True,14,-1,0,13
Y2-S2-242K22,5,451,AS,exp,27,←,left,←,0.6813377998769283,True,14,-1,0,13
Y2-S2-242K22,5,452,AS,exp,27,↑,up,↑,0.5774658999871463,True,14,1,1,14
Y2-S2-242K22,5,453,AS,exp,49,↓,up,↑,0.7240699001122266,False,13,-1,1,15
Y2-S2-242K22,5,454,AS,exp,27,←,left,←,0.5656250999309123,True,14,-1,0,15
Y2-S2-242K22,5,455,AS,exp,39,↓,down,↓,0.4795500999316573,True,14,-1,0,15
Y2-S2-242K22,5,456,AS,exp,38,←,left,←,0.5234995000064373,True,14,1,1,16
Y2-S2-242K22,6,457,PS,intra_train,31,→,right,→,0.5012074001133442,True,18,-,-,-
Y2-S2-242K22,6,458,PS,intra_train,45,↓,down,↓,0.5954736000858247,True,18,-,-,-
Y2-S2-242K22,6,459,PS,intra_train,40,→,right,→,0.5243621000554413,True,18,-,-,-
Y2-S2-242K22,6,460,PS,intra_train,40,↓,down,↓,0.6095910000149161,True,18,-,-,-
Y2-S2-242K22,6,461,PS,intra_train,34,←,left,←,1.039941699942574,True,18,-,-,-
Y2-S2-242K22,6,462,PS,exp,49,→,down,↓,0.8230101999361068,False,12,-1,0,0
Y2-S2-242K22,6,463,PS,exp,48,←,left,←,0.8222809999715537,True,13,-1,0,0
Y2-S2-242K22,6,464,PS,exp,31,↑,up,↑,0.5969115998595953,True,13,-1,0,0
Y2-S2-242K22,6,465,PS,exp,37,↓,down,↓,0.5841397999320179,True,13,1,1,1
Y2-S2-242K22,6,466,PS,exp,40,→,right,→,0.4852486001327634,True,12,1,0,1
Y2-S2-242K22,6,467,PS,exp,49,↓,down,↓,0.5329209000337869,True,12,1,0,1
Y2-S2-242K22,6,468,PS,exp,44,→,right,→,0.5521170999854803,True,12,1,0,1
Y2-S2-242K22,6,469,PS,exp,42,←,right,→,0.65190239995718,False,11,-1,1,2
Y2-S2-242K22,6,470,PS,exp,46,↓,down,↓,0.6029478998389095,True,12,-1,0,2
Y2-S2-242K22,6,471,PS,exp,37,↑,up,↑,0.6156132000032812,True,12,-1,0,2
Y2-S2-242K22,6,472,PS,exp,45,→,right,→,0.5825347998179495,True,12,1,1,3
Y2-S2-242K22,6,473,PS,exp,38,↓,down,↓,0.5579101000912488,True,11,1,0,3
Y2-S2-242K22,6,474,PS,exp,30,↑,down,↓,0.8852371999528259,False,11,-1,1,4
Y2-S2-242K22,6,475,PS,exp,39,←,left,←,0.7209790002088994,True,12,-1,0,4
Y2-S2-242K22,6,476,PS,exp,48,→,right,→,0.41302910004742444,True,12,-1,0,4
Y2-S2-242K22,6,477,PS,exp,47,↑,up,↑,0.5458493998739868,True,12,1,1,5
Y2-S2-242K22,6,478,PS,exp,41,←,left,←,0.5363506998401135,True,11,1,0,5
Y2-S2-242K22,6,479,PS,exp,25,↑,left,←,0.7096204999834299,False,11,-1,1,6
Y2-S2-242K22,6,480,PS,exp,49,→,right,→,0.4959833000320941,True,12,-1,0,6
Y2-S2-242K22,6,481,PS,exp,41,↑,up,↑,0.5556206998880953,True,12,-1,0,6
Y2-S2-242K22,6,482,PS,exp,31,→,left,←,0.8451622999273241,False,12,-1,0,6
Y2-S2-242K22,6,483,PS,exp,49,↑,up,↑,0.6962971000466496,True,13,-1,0,6
Y2-S2-242K22,6,484,PS,exp,30,→,left,←,0.8190568001009524,False,13,-1,0,6
Y2-S2-242K22,6,485,PS,exp,26,↑,up,↑,0.7646301998756826,True,14,-1,0,6
Y2-S2-242K22,6,486,PS,exp,38,↓,down,↓,0.7242767999414355,True,14,-1,0,6
Y2-S2-242K22,6,487,PS,exp,49,↑,up,↑,0.6548287000041455,True,14,1,1,7
Y2-S2-242K22,6,488,PS,exp,49,←,right,→,0.7198338001035154,False,13,-1,1,8
Y2-S2-242K22,6,489,PS,exp,37,↓,left,←,0.8494823002256453,False,14,-1,0,8
Y2-S2-242K22,6,490,PS,exp,37,←,left,←,0.6988588001113385,True,15,-1,0,8
Y2-S2-242K22,6,491,PS,exp,34,↓,down,↓,0.665753599954769,True,15,-1,0,8
Y2-S2-242K22,6,492,PS,exp,48,→,right,→,0.4540071999654174,True,15,1,1,9
Y2-S2-242K22,6,493,PS,exp,44,←,left,←,0.8988132998347282,True,14,1,0,9
Y2-S2-242K22,6,494,PS,exp,38,↑,up,↑,0.6078814000356942,True,14,1,0,9
Y2-S2-242K22,6,495,PS,exp,32,→,right,→,0.4590846998617053,True,14,1,0,9
Y2-S2-242K22,6,496,PS,exp,43,↑,up,↑,0.5602045000996441,True,13,1,0,9
Y2-S2-242K22,6,497,PS,exp,30,→,right,→,0.6119401000905782,True,13,1,0,9
Y2-S2-242K22,6,498,PS,exp,26,↑,up,↑,0.4352958002127707,True,13,1,0,9
Y2-S2-242K22,6,499,PS,exp,49,↓,down,↓,0.5583328998181969,True,12,1,0,9
Y2-S2-242K22,6,500,PS,exp,31,←,left,←,0.7188675000797957,True,12,1,0,9
Y2-S2-242K22,6,501,PS,exp,36,↑,up,↑,0.5451911999844015,True,12,1,0,9
Y2-S2-242K22,6,502,PS,exp,42,→,right,→,0.4915238998364657,True,11,1,0,9
Y2-S2-242K22,6,503,PS,exp,41,↑,up,↑,0.5697800000198185,True,11,1,0,9
Y2-S2-242K22,6,504,PS,exp,29,↓,down,↓,0.48730590008199215,True,11,1,0,9
Y2-S2-242K22,6,505,PS,exp,33,←,left,←,0.43924400000832975,True,10,1,0,9
Y2-S2-242K22,6,506,PS,exp,31,→,right,→,0.4183040000498295,True,10,1,0,9
Y2-S2-242K22,6,507,PS,exp,50,↑,up,↑,0.5695048000197858,True,10,1,0,9
Y2-S2-242K22,6,508,PS,exp,41,↓,down,↓,0.6182732998859137,True,9,1,0,9
Y2-S2-242K22,6,509,PS,exp,33,↑,up,↑,0.5705458000302315,True,9,1,0,9
Y2-S2-242K22,6,510,PS,exp,37,↓,down,↓,0.5201498998794705,True,9,1,0,9
Y2-S2-242K22,6,511,PS,exp,29,←,left,←,0.7710907999426126,True,8,1,0,9
Y2-S2-242K22,6,512,PS,exp,48,↓,down,↓,0.4427272998727858,True,8,1,0,9
Y2-S2-242K22,6,513,PS,exp,50,→,right,→,0.5089332999195904,True,8,1,0,9
Y2-S2-242K22,6,514,PS,exp,40,↑,left,←,0.7943372000008821,False,7,-1,1,10
Y2-S2-242K22,6,515,PS,exp,48,↓,down,↓,0.6641939000692219,True,8,-1,0,10
Y2-S2-242K22,6,516,PS,exp,46,→,right,→,0.5415038000792265,True,8,-1,0,10
Y2-S2-242K22,6,517,PS,exp,38,←,left,←,0.43494409997947514,True,8,1,1,11
Y2-S2-242K22,6,518,PS,exp,35,↓,down,↓,0.5247080000117421,True,7,1,0,11
Y2-S2-242K22,6,519,PS,exp,50,↑,up,↑,0.5298705999739468,True,7,1,0,11
Y2-S2-242K22,6,520,PS,exp,36,→,right,→,0.5043807998299599,True,7,1,0,11
Y2-S2-242K22,6,521,PS,exp,48,↑,up,↑,0.505900600226596,True,6,1,0,11
Y2-S2-242K22,6,522,PS,exp,49,←,left,←,0.5052088000811636,True,6,1,0,11
Y2-S2-242K22,6,523,PS,exp,30,↑,up,↑,0.5636811999138445,True,6,1,0,11
Y2-S2-242K22,6,524,PS,exp,46,↓,right,→,0.45238399994559586,False,5,-1,1,12
Y2-S2-242K22,6,525,PS,exp,49,↑,left,←,1.3236866001971066,False,6,-1,0,12
Y2-S2-242K22,6,526,PS,exp,49,←,left,←,0.5291500000748783,True,7,-1,0,12
Y2-S2-242K22,6,527,PS,exp,46,↓,down,↓,0.6158447000198066,True,7,-1,0,12
Y2-S2-242K22,6,528,PS,exp,36,←,left,←,0.5577960999216884,True,7,1,1,13
Y2-S2-242K22,6,529,PS,exp,35,↑,up,↑,0.632911599939689,True,6,1,0,13
Y2-S2-242K22,6,530,PS,exp,33,↓,down,↓,0.5153105999343097,True,6,1,0,13
Y2-S2-242K22,6,531,PS,exp,35,→,right,→,0.4977887000422925,True,6,1,0,13
Y2-S2-242K22,6,532,PS,exp,44,←,right,→,0.6090859000105411,False,5,-1,1,14
Y2-S2-242K22,6,533,PS,exp,49,↓,left,←,0.6692673999350518,False,6,-1,0,14
Y2-S2-242K22,6,534,PS,exp,43,↑,up,↑,0.6379110999405384,True,7,-1,0,14
Y2-S2-242K22,6,535,PS,exp,44,↓,right,→,0.48261439986526966,False,7,-1,0,14
Y2-S2-242K22,6,536,PS,exp,25,←,left,←,0.4561985000036657,True,8,-1,0,14
Y2-S2-242K22,6,537,PS,exp,41,↑,up,↑,0.5621048999018967,True,8,-1,0,14
Y2-S2-242K22,6,538,PS,exp,36,←,left,←,0.7250681000296026,True,8,1,1,15
Y2-S2-242K22,6,539,PS,exp,42,↑,up,↑,0.7357493999879807,True,7,1,0,15
Y2-S2-242K22,6,540,PS,exp,42,→,left,←,0.931570100132376,False,7,-1,1,16
Y2-S2-242K22,7,541,PS,intra_train,49,←,left,←,0.5846347999759018,True,18,-,-,-
Y2-S2-242K22,7,542,PS,intra_train,42,↑,up,↑,0.5273661001119763,True,18,-,-,-
Y2-S2-242K22,7,543,PS,intra_train,34,←,left,←,0.4720408001448959,True,18,-,-,-
Y2-S2-242K22,7,544,PS,intra_train,49,↑,up,↑,0.4343086997978389,True,18,-,-,-
Y2-S2-242K22,7,545,PS,intra_train,27,←,left,←,1.0324954001698643,True,18,-,-,-
Y2-S2-242K22,7,546,PS,exp,31,↓,down,↓,0.6611134998966008,True,12,0,0,0
Y2-S2-242K22,7,547,PS,exp,48,→,right,→,0.5618210001848638,True,12,0,0,0
Y2-S2-242K22,7,548,PS,exp,45,↑,up,↑,0.5133490001317114,True,12,1,0,0
Y2-S2-242K22,7,549,PS,exp,46,→,right,→,0.4242896002251655,True,11,1,0,0
Y2-S2-242K22,7,550,PS,exp,37,↓,down,↓,0.5777010000310838,True,11,1,0,0
Y2-S2-242K22,7,551,PS,exp,50,←,left,←,0.691255500074476,True,11,1,0,0
Y2-S2-242K22,7,552,PS,exp,33,↓,down,↓,0.574307199800387,True,10,1,0,0
Y2-S2-242K22,7,553,PS,exp,36,→,right,→,0.5680130000691861,True,10,1,0,0
Y2-S2-242K22,7,554,PS,exp,35,←,left,←,0.6410005998332053,True,10,1,0,0
Y2-S2-242K22,7,555,PS,exp,41,↑,left,←,0.9128882000222802,False,9,-1,1,1
Y2-S2-242K22,7,556,PS,exp,29,↓,down,↓,0.6624716001097113,True,10,-1,0,1
Y2-S2-242K22,7,557,PS,exp,33,←,left,←,0.5976348000112921,True,10,-1,0,1
Y2-S2-242K22,7,558,PS,exp,48,→,right,→,0.45978299994021654,True,10,1,1,2
Y2-S2-242K22,7,559,PS,exp,46,↑,up,↑,0.5549540999345481,True,9,1,0,2
Y2-S2-242K22,7,560,PS,exp,38,→,right,→,0.4531132001429796,True,9,1,0,2
Y2-S2-242K22,7,561,PS,exp,48,←,left,←,0.4881170999724418,True,9,1,0,2
Y2-S2-242K22,7,562,PS,exp,37,↓,down,↓,0.5408163000829518,True,8,1,0,2
Y2-S2-242K22,7,563,PS,exp,25,→,right,→,0.36750000016763806,True,8,1,0,2
Y2-S2-242K22,7,564,PS,exp,30,←,left,←,0.6511550000868738,True,8,1,0,2
Y2-S2-242K22,7,565,PS,exp,44,↓,right,→,1.0832921999972314,False,7,-1,1,3
Y2-S2-242K22,7,566,PS,exp,37,→,right,→,0.5227737999521196,True,8,-1,0,3
Y2-S2-242K22,7,567,PS,exp,48,↑,up,↑,0.47726169996894896,True,8,-1,0,3
Y2-S2-242K22,7,568,PS,exp,37,→,right,→,0.49452219996601343,True,8,1,1,4
Y2-S2-242K22,7,569,PS,exp,49,↑,right,→,0.6937925000675023,False,7,-1,1,5
Y2-S2-242K22,7,570,PS,exp,33,→,left,←,0.6344645998906344,False,8,-1,0,5
Y2-S2-242K22,7,571,PS,exp,44,↓,right,→,1.1459083000663668,False,9,-1,0,5
Y2-S2-242K22,7,572,PS,exp,33,↑,left,←,0.504975900053978,False,10,-1,0,5
Y2-S2-242K22,7,573,PS,exp,31,↓,down,↓,0.5563793999608606,True,11,-1,0,5
Y2-S2-242K22,7,574,PS,exp,29,→,right,→,0.5608743000775576,True,11,-1,0,5
Y2-S2-242K22,7,575,PS,exp,42,↑,up,↑,0.965353999985382,True,11,1,1,6
Y2-S2-242K22,7,576,PS,exp,28,←,left,←,0.42798270005732775,True,10,1,0,6
Y2-S2-242K22,7,577,PS,exp,28,↑,left,←,0.7955083998385817,False,10,-1,1,7
Y2-S2-242K22,7,578,PS,exp,48,→,right,→,0.7089715998154134,True,11,-1,0,7
Y2-S2-242K22,7,579,PS,exp,42,↑,left,←,0.7390872999094427,False,11,-1,0,7
Y2-S2-242K22,7,580,PS,exp,47,→,right,→,0.7817341999616474,True,12,-1,0,7
Y2-S2-242K22,7,581,PS,exp,46,↓,down,↓,0.6021533999592066,True,12,-1,0,7
Y2-S2-242K22,7,582,PS,exp,25,→,right,→,0.49046160001307726,True,12,1,1,8
Y2-S2-242K22,7,583,PS,exp,50,↓,down,↓,0.5844360000919551,True,11,1,0,8
Y2-S2-242K22,7,584,PS,exp,50,↑,up,↑,0.50320990011096,True,11,1,0,8
Y2-S2-242K22,7,585,PS,exp,25,→,right,→,0.4589356000069529,True,11,1,0,8
Y2-S2-242K22,7,586,PS,exp,42,↓,down,↓,0.519528100034222,True,10,1,0,8
Y2-S2-242K22,7,587,PS,exp,26,←,left,←,0.5022170001175255,True,10,1,0,8
Y2-S2-242K22,7,588,PS,exp,40,→,right,→,0.4591685999184847,True,10,1,0,8
Y2-S2-242K22,7,589,PS,exp,34,↑,up,↑,0.5370022999122739,True,9,1,0,8
Y2-S2-242K22,7,590,PS,exp,31,←,down,↓,0.7529531000182033,False,9,-1,1,9
Y2-S2-242K22,7,591,PS,exp,43,↓,down,↓,0.5170057998038828,True,10,-1,0,9
Y2-S2-242K22,7,592,PS,exp,48,→,right,→,0.5104917997960001,True,10,-1,0,9
Y2-S2-242K22,7,593,PS,exp,45,↑,down,↓,0.8292193000670522,False,10,-1,0,9
Y2-S2-242K22,7,594,PS,exp,47,←,left,←,0.7682966000866145,True,11,-1,0,9
Y2-S2-242K22,7,595,PS,exp,50,→,right,→,0.5333459998946637,True,11,-1,0,9
Y2-S2-242K22,7,596,PS,exp,35,←,left,←,0.9900623001158237,True,11,1,1,10
Y2-S2-242K22,7,597,PS,exp,50,→,right,→,0.42216860014013946,True,10,1,0,10
Y2-S2-242K22,7,598,PS,exp,25,←,left,←,0.8116794000379741,True,10,1,0,10
Y2-S2-242K22,7,599,PS,exp,32,↑,right,→,1.1372091001830995,False,10,-1,1,11
Y2-S2-242K22,7,600,PS,exp,26,↓,down,↓,0.6592248000670224,True,11,-1,0,11
Y2-S2-242K22,7,601,PS,exp,32,→,right,→,0.5094419000670314,True,11,-1,0,11
Y2-S2-242K22,7,602,PS,exp,48,↓,down,↓,0.6093615998979658,True,11,1,1,12
Y2-S2-242K22,7,603,PS,exp,39,←,left,←,0.5913553999271244,True,10,1,0,12
Y2-S2-242K22,7,604,PS,exp,30,↓,down,↓,0.5771624001208693,True,10,1,0,12
Y2-S2-242K22,7,605,PS,exp,50,→,left,←,0.7524085000623018,False,10,-1,1,13
Y2-S2-242K22,7,606,PS,exp,34,←,left,←,0.6387426001019776,True,11,-1,0,13
Y2-S2-242K22,7,607,PS,exp,35,↓,down,↓,0.5972355001140386,True,11,-1,0,13
Y2-S2-242K22,7,608,PS,exp,40,←,left,←,0.7727156998589635,True,11,1,1,14
Y2-S2-242K22,7,609,PS,exp,39,→,right,→,0.46700720000080764,True,10,1,0,14
Y2-S2-242K22,7,610,PS,exp,45,↑,up,↑,0.6110690999776125,True,10,1,0,14
Y2-S2-242K22,7,611,PS,exp,25,←,right,→,0.8452539001591504,False,10,-1,1,15
Y2-S2-242K22,7,612,PS,exp,31,↓,down,↓,0.5743828001432121,True,11,-1,0,15
Y2-S2-242K22,7,613,PS,exp,44,↑,left,←,0.7319671998266131,False,11,-1,0,15
Y2-S2-242K22,7,614,PS,exp,47,↓,down,↓,0.6365624000318348,True,12,-1,0,15
Y2-S2-242K22,7,615,PS,exp,32,↑,down,↓,0.7514336998574436,False,12,-1,0,15
Y2-S2-242K22,7,616,PS,exp,39,←,left,←,1.0742595000192523,True,13,-1,0,15
Y2-S2-242K22,7,617,PS,exp,39,↓,down,↓,0.6193191998172551,True,13,-1,0,15
Y2-S2-242K22,7,618,PS,exp,29,←,left,←,0.6281797999981791,True,13,1,1,16
Y2-S2-242K22,8,619,AS,intra_train,33,↑,up,↑,0.5234250000212342,True,21,-,-,-
Y2-S2-242K22,8,620,AS,intra_train,29,↓,down,↓,0.680127700092271,True,21,-,-,-
Y2-S2-242K22,8,621,AS,intra_train,31,→,right,→,0.6287044000346214,True,21,-,-,-
Y2-S2-242K22,8,622,AS,intra_train,33,↓,down,↓,0.6001400998793542,True,21,-,-,-
Y2-S2-242K22,8,623,AS,intra_train,41,↑,up,↑,0.7075495000462979,True,21,-,-,-
Y2-S2-242K22,8,624,AS,exp,41,←,left,←,0.4841652000322938,True,14,0,0,0
Y2-S2-242K22,8,625,AS,exp,50,↑,up,↑,0.5518691001925617,True,14,0,0,0
Y2-S2-242K22,8,626,AS,exp,33,↓,down,↓,0.6426976998336613,True,14,1,0,0
Y2-S2-242K22,8,627,AS,exp,30,→,right,→,0.5730210999026895,True,13,1,0,0
Y2-S2-242K22,8,628,AS,exp,26,↑,up,↑,0.6834142000880092,True,13,1,0,0
Y2-S2-242K22,8,629,AS,exp,35,←,left,←,0.6643477999605238,True,13,1,0,0
Y2-S2-242K22,8,630,AS,exp,28,↑,up,↑,0.5871608001179993,True,12,1,0,0
Y2-S2-242K22,8,631,AS,exp,42,↓,down,↓,0.6747929998673499,True,12,1,0,0
Y2-S2-242K22,8,632,AS,exp,43,→,right,→,0.4297021001111716,True,12,1,0,0
Y2-S2-242K22,8,633,AS,exp,46,←,left,←,0.4830167000181973,True,11,1,0,0
Y2-S2-242K22,8,634,AS,exp,43,↑,up,↑,0.444178800098598,True,11,1,0,0
Y2-S2-242K22,8,635,AS,exp,32,→,right,→,0.43139670020900667,True,11,1,0,0
Y2-S2-242K22,8,636,AS,exp,45,↓,down,↓,0.5039248999673873,True,10,1,0,0
Y2-S2-242K22,8,637,AS,exp,33,→,right,→,0.5139282001182437,True,10,1,0,0
Y2-S2-242K22,8,638,AS,exp,36,↓,down,↓,1.375393200200051,True,10,1,0,0
Y2-S2-242K22,8,639,AS,exp,39,↑,up,↑,0.5361124000046402,True,9,1,0,0
Y2-S2-242K22,8,640,AS,exp,39,→,right,→,0.5788915001321584,True,9,1,0,0
Y2-S2-242K22,8,641,AS,exp,38,←,left,←,0.49399129999801517,True,9,1,0,0
Y2-S2-242K22,8,642,AS,exp,27,→,left,←,0.8707334999926388,False,8,-1,1,1
Y2-S2-242K22,8,643,AS,exp,26,↑,up,↑,1.3258849999401718,True,9,-1,0,1
Y2-S2-242K22,8,644,AS,exp,50,←,left,←,0.6669185000937432,True,9,-1,0,1
Y2-S2-242K22,8,645,AS,exp,39,↓,down,↓,0.6479418000672013,True,9,1,1,2
Y2-S2-242K22,8,646,AS,exp,30,←,down,↓,0.6573298000730574,False,8,-1,1,3
Y2-S2-242K22,8,647,AS,exp,32,↓,down,↓,0.6280024999286979,True,9,-1,0,3
Y2-S2-242K22,8,648,AS,exp,33,→,right,→,0.7306232999544591,True,9,-1,0,3
Y2-S2-242K22,8,649,AS,exp,50,←,left,←,0.6666598001029342,True,9,1,1,4
Y2-S2-242K22,8,650,AS,exp,32,↑,up,↑,0.6601948998868465,True,8,1,0,4
Y2-S2-242K22,8,651,AS,exp,41,↓,down,↓,0.7544018998742104,True,8,1,0,4
Y2-S2-242K22,8,652,AS,exp,25,→,no_key,no_letter,-1.0,False,8,-1,1,5
Y2-S2-242K22,8,653,AS,exp,36,←,left,←,0.537902400130406,True,9,-1,0,5
Y2-S2-242K22,8,654,AS,exp,37,↓,down,↓,0.5567638000939041,True,9,-1,0,5
Y2-S2-242K22,8,655,AS,exp,27,→,left,←,0.693300399929285,False,9,-1,0,5
Y2-S2-242K22,8,656,AS,exp,45,←,right,→,0.923790899803862,False,10,-1,0,5
Y2-S2-242K22,8,657,AS,exp,41,→,right,→,0.5845361999236047,True,11,-1,0,5
Y2-S2-242K22,8,658,AS,exp,34,↑,right,→,0.6354930000379682,False,11,-1,0,5
Y2-S2-242K22,8,659,AS,exp,43,→,right,→,0.5574663998559117,True,12,-1,0,5
Y2-S2-242K22,8,660,AS,exp,47,↓,down,↓,0.4862184999510646,True,12,-1,0,5
Y2-S2-242K22,8,661,AS,exp,47,→,right,→,0.603750899899751,True,12,1,1,6
Y2-S2-242K22,8,662,AS,exp,44,←,right,→,0.9489807998761535,False,11,-1,1,7
Y2-S2-242K22,8,663,AS,exp,30,↑,up,↑,0.5358808999881148,True,12,-1,0,7
Y2-S2-242K22,8,664,AS,exp,47,→,right,→,0.6689555000048131,True,12,-1,0,7
Y2-S2-242K22,8,665,AS,exp,42,↑,up,↑,0.5020223001483828,True,12,1,1,8
Y2-S2-242K22,8,666,AS,exp,37,←,left,←,0.43734090006910264,True,11,1,0,8
Y2-S2-242K22,8,667,AS,exp,49,↑,up,↑,0.4025101000443101,True,11,1,0,8
Y2-S2-242K22,8,668,AS,exp,46,↓,down,↓,0.8142206999473274,True,11,1,0,8
Y2-S2-242K22,8,669,AS,exp,35,→,right,→,0.5794368002098054,True,10,1,0,8
Y2-S2-242K22,8,670,AS,exp,31,↑,up,↑,0.5127681999001652,True,10,1,0,8
Y2-S2-242K22,8,671,AS,exp,29,←,right,→,0.8523438000120223,False,10,-1,1,9
Y2-S2-242K22,8,672,AS,exp,43,→,left,←,0.4425981999374926,False,11,-1,0,9
Y2-S2-242K22,8,673,AS,exp,37,←,left,←,0.8028074000030756,True,12,-1,0,9
Y2-S2-242K22,8,674,AS,exp,37,↑,right,→,0.8857845000457019,False,12,-1,0,9
Y2-S2-242K22,8,675,AS,exp,38,↓,down,↓,0.5693047000095248,True,13,-1,0,9
Y2-S2-242K22,8,676,AS,exp,50,→,left,←,0.683720099972561,False,13,-1,0,9
Y2-S2-242K22,8,677,AS,exp,25,↓,down,↓,0.5653783997986466,True,14,-1,0,9
Y2-S2-242K22,8,678,AS,exp,41,←,right,→,0.9161203000694513,False,14,-1,0,9
Y2-S2-242K22,8,679,AS,exp,39,↓,up,↑,1.2038910000119358,False,15,-1,0,9
Y2-S2-242K22,8,680,AS,exp,38,←,left,←,0.6198240001685917,True,16,-1,0,9
Y2-S2-242K22,8,681,AS,exp,36,→,left,←,0.8735226998105645,False,16,-1,0,9
Y2-S2-242K22,8,682,AS,exp,25,←,left,←,0.45261140004731715,True,17,-1,0,9
Y2-S2-242K22,8,683,AS,exp,26,↑,up,↑,1.176319100195542,True,17,-1,0,9
Y2-S2-242K22,8,684,AS,exp,37,→,right,→,0.8855329998768866,True,17,1,1,10
Y2-S2-242K22,8,685,AS,exp,31,←,left,←,0.5086743999272585,True,16,1,0,10
Y2-S2-242K22,8,686,AS,exp,36,↑,up,↑,0.8923637000843883,True,16,1,0,10
Y2-S2-242K22,8,687,AS,exp,29,←,left,←,0.5249265998136252,True,16,1,0,10
Y2-S2-242K22,8,688,AS,exp,49,→,right,→,0.4652130000758916,True,15,1,0,10
Y2-S2-242K22,8,689,AS,exp,36,↑,up,↑,0.7628291000146419,True,15,1,0,10
Y2-S2-242K22,8,690,AS,exp,45,←,left,←,1.101877999957651,True,15,1,0,10
Y2-S2-242K22,8,691,AS,exp,36,↓,down,↓,0.7568863998167217,True,14,1,0,10
Y2-S2-242K22,8,692,AS,exp,43,↑,down,↓,0.7948129000142217,False,14,-1,1,11
Y2-S2-242K22,8,693,AS,exp,39,←,left,←,0.48491769982501864,True,15,-1,0,11
Y2-S2-242K22,8,694,AS,exp,41,↓,right,→,0.9613010999746621,False,15,-1,0,11
Y2-S2-242K22,8,695,AS,exp,46,↑,up,↑,0.6867450000718236,True,16,-1,0,11
Y2-S2-242K22,8,696,AS,exp,36,→,right,→,0.4786259999964386,True,16,-1,0,11
Y2-S2-242K22,8,697,AS,exp,48,↑,up,↑,0.5528076000045985,True,16,1,1,12
Y2-S2-242K22,8,698,AS,exp,44,→,right,→,0.48381999996490777,True,15,1,0,12
Y2-S2-242K22,8,699,AS,exp,30,↑,up,↑,0.536610399838537,True,15,1,0,12
Y2-S2-242K22,8,700,AS,exp,47,←,left,←,0.6362985000014305,True,15,1,0,12
Y2-S2-242K22,8,701,AS,exp,37,↓,left,←,0.7800390999764204,False,14,-1,1,13
Y2-S2-242K22,8,702,AS,exp,41,→,right,→,0.5123966000974178,True,15,-1,0,13
Y2-S2-242K22,8,703,AS,exp,32,↑,down,↓,0.9632466998882592,False,15,-1,0,13
Y2-S2-242K22,8,704,AS,exp,40,→,right,→,0.557816999964416,True,16,-1,0,13
Y2-S2-242K22,8,705,AS,exp,31,↓,down,↓,0.6928403999190778,True,16,-1,0,13
Y2-S2-242K22,8,706,AS,exp,48,↑,up,↑,0.7107404000125825,True,16,1,1,14
Y2-S2-242K22,8,707,AS,exp,35,←,right,→,0.8874232000671327,False,15,-1,1,15
Y2-S2-242K22,8,708,AS,exp,49,↓,up,↑,0.7072240998968482,False,16,-1,0,15
Y2-S2-242K22,8,709,AS,exp,46,↑,up,↑,0.6341220999602228,True,17,-1,0,15
Y2-S2-242K22,8,710,AS,exp,41,←,left,←,0.7444583000615239,True,17,-1,0,15
Y2-S2-242K22,8,711,AS,exp,26,↓,left,←,0.8391576001886278,False,17,-1,0,15
Y2-S2-242K22,8,712,AS,exp,41,↑,up,↑,0.8591782001312822,True,18,-1,0,15
Y2-S2-242K22,8,713,AS,exp,40,←,left,←,0.48124320013448596,True,18,-1,0,15
Y2-S2-242K22,8,714,AS,exp,35,↑,up,↑,0.4895961000584066,True,18,1,1,16
