PART_ID,Block_no,Trial_no,Block_type,Trial_type,CSI,Stim_letter,Key_pressed,letter_choose,Rt,Corr,Stimulus Time,Level,Reversal,Revs_count
Y2-S2-054K22,1,1,PS,train,30,↑,up,↑,1.053055000025779,True,30,-,-,-
Y2-S2-054K22,1,2,PS,train,49,←,left,←,1.2701187001075596,True,30,-,-,-
Y2-S2-054K22,1,3,PS,train,35,↑,up,↑,0.9622160000726581,True,30,-,-,-
Y2-S2-054K22,1,4,PS,train,35,→,right,→,0.9791453999932855,True,30,-,-,-
Y2-S2-054K22,1,5,PS,train,45,↓,down,↓,0.9353190001565963,True,30,-,-,-
Y2-S2-054K22,1,6,PS,train,43,→,right,→,1.004137699957937,True,30,-,-,-
Y2-S2-054K22,1,7,PS,train,30,←,left,←,1.088863299926743,True,30,-,-,-
Y2-S2-054K22,1,8,PS,train,25,↑,up,↑,1.0281775000039488,True,30,-,-,-
Y2-S2-054K22,1,9,PS,train,28,↓,down,↓,1.1152847001794726,True,30,-,-,-
Y2-S2-054K22,1,10,PS,train,33,↑,up,↑,1.222218899987638,True,30,-,-,-
Y2-S2-054K22,2,11,AS,train,44,↓,down,↓,1.0384315000846982,True,45,-,-,-
Y2-S2-054K22,2,12,AS,train,38,←,left,←,1.040126700187102,True,45,-,-,-
Y2-S2-054K22,2,13,AS,train,35,↓,down,↓,1.1469991998746991,True,45,-,-,-
Y2-S2-054K22,2,14,AS,train,39,→,right,→,0.9757073000073433,True,45,-,-,-
Y2-S2-054K22,2,15,AS,train,29,↑,up,↑,1.0114033001009375,True,45,-,-,-
Y2-S2-054K22,2,16,AS,train,49,↓,down,↓,1.0955594999250025,True,45,-,-,-
Y2-S2-054K22,2,17,AS,train,25,←,left,←,1.2376289998646826,True,45,-,-,-
Y2-S2-054K22,2,18,AS,train,27,↓,down,↓,1.3561962000094354,True,45,-,-,-
Y2-S2-054K22,2,19,AS,train,26,↑,up,↑,1.1741005000658333,True,45,-,-,-
Y2-S2-054K22,2,20,AS,train,29,→,right,→,1.360259999986738,True,45,-,-,-
Y2-S2-054K22,-,21,PS,adaptive,36,←,left,←,1.2611408999655396,True,10,0,0,0
Y2-S2-054K22,-,22,PS,adaptive,50,↓,no_key,no_letter,-1.0,False,10,-1,0,0
Y2-S2-054K22,-,23,PS,adaptive,28,←,left,←,0.6413645001593977,True,11,-1,0,0
Y2-S2-054K22,-,24,PS,adaptive,27,↑,up,↑,0.6866561998613179,True,11,-1,0,0
Y2-S2-054K22,-,25,PS,adaptive,35,←,up,↑,1.2463012000080198,False,11,-1,0,0
Y2-S2-054K22,-,26,PS,adaptive,49,→,right,→,1.5258276001550257,True,12,-1,0,0
Y2-S2-054K22,-,27,PS,adaptive,31,←,left,←,0.6369423000141978,True,12,-1,0,0
Y2-S2-054K22,-,28,PS,adaptive,26,↑,up,↑,0.7390642000827938,True,12,1,1,1
Y2-S2-054K22,-,29,PS,adaptive,38,←,left,←,0.6455312999896705,True,11,1,0,1
Y2-S2-054K22,-,30,PS,adaptive,25,→,left,←,1.552099000196904,False,11,-1,1,2
Y2-S2-054K22,-,31,PS,adaptive,37,↑,up,↑,0.6719839000143111,True,12,-1,0,2
Y2-S2-054K22,-,32,PS,adaptive,29,→,up,↑,0.936209199950099,False,12,-1,0,2
Y2-S2-054K22,-,33,PS,adaptive,39,←,left,←,0.5993293998762965,True,13,-1,0,2
Y2-S2-054K22,-,34,PS,adaptive,38,→,right,→,0.6266806002240628,True,13,-1,0,2
Y2-S2-054K22,-,35,PS,adaptive,49,↓,down,↓,0.965767800109461,True,13,1,1,3
Y2-S2-054K22,-,36,PS,adaptive,40,↑,up,↑,0.6492423999588937,True,12,1,0,3
Y2-S2-054K22,-,37,PS,adaptive,32,←,left,←,0.6244295001961291,True,12,1,0,3
Y2-S2-054K22,-,38,PS,adaptive,28,→,right,→,0.6900512001011521,True,12,1,0,3
Y2-S2-054K22,-,39,PS,adaptive,48,←,left,←,0.7804072999861091,True,11,1,0,3
Y2-S2-054K22,-,40,PS,adaptive,38,↑,down,↓,0.8289995999075472,False,11,-1,1,4
Y2-S2-054K22,-,41,AS,adaptive,30,→,right,→,1.1582764000631869,True,20,0,0,0
Y2-S2-054K22,-,42,AS,adaptive,29,↑,up,↑,0.7632915999274701,True,20,0,0,0
Y2-S2-054K22,-,43,AS,adaptive,35,↓,left,←,0.9729941999539733,False,20,-1,0,0
Y2-S2-054K22,-,44,AS,adaptive,49,→,right,→,0.9233303000219166,True,21,-1,0,0
Y2-S2-054K22,-,45,AS,adaptive,37,↓,down,↓,0.8658646000549197,True,21,-1,0,0
Y2-S2-054K22,-,46,AS,adaptive,45,←,left,←,0.8482258000876755,True,21,1,1,1
Y2-S2-054K22,-,47,AS,adaptive,34,↑,up,↑,0.8267742001917213,True,20,1,0,1
Y2-S2-054K22,-,48,AS,adaptive,48,↓,down,↓,0.7353209999855608,True,20,1,0,1
Y2-S2-054K22,-,49,AS,adaptive,46,←,left,←,0.6573324000928551,True,20,1,0,1
Y2-S2-054K22,-,50,AS,adaptive,30,↑,up,↑,0.7207219998817891,True,19,1,0,1
Y2-S2-054K22,-,51,AS,adaptive,49,→,up,↑,1.0940992999821901,False,19,-1,1,2
Y2-S2-054K22,-,52,AS,adaptive,42,↑,up,↑,0.6697486999910325,True,20,-1,0,2
Y2-S2-054K22,-,53,AS,adaptive,48,←,left,←,0.8232994000427425,True,20,-1,0,2
Y2-S2-054K22,-,54,AS,adaptive,45,↑,up,↑,0.7134958000387996,True,20,1,1,3
Y2-S2-054K22,-,55,AS,adaptive,30,→,right,→,0.7245068000629544,True,19,1,0,3
Y2-S2-054K22,-,56,AS,adaptive,45,←,left,←,0.619405300123617,True,19,1,0,3
Y2-S2-054K22,-,57,AS,adaptive,34,↓,down,↓,0.8741800000425428,True,19,1,0,3
Y2-S2-054K22,-,58,AS,adaptive,44,↑,left,←,0.9434114000760019,False,18,-1,1,4
Y2-S2-054K22,1,59,PS,intra_train,48,→,right,→,0.6268760000821203,True,18,-,-,-
Y2-S2-054K22,1,60,PS,intra_train,36,←,left,←,0.5786760998889804,True,18,-,-,-
Y2-S2-054K22,1,61,PS,intra_train,50,↑,up,↑,0.9426746000535786,True,18,-,-,-
Y2-S2-054K22,1,62,PS,intra_train,29,↓,down,↓,0.8102198999840766,True,18,-,-,-
Y2-S2-054K22,1,63,PS,intra_train,34,→,right,→,0.8210873999632895,True,18,-,-,-
Y2-S2-054K22,1,64,PS,exp,49,↓,down,↓,0.7930180998519063,True,12,0,0,0
Y2-S2-054K22,1,65,PS,exp,46,→,right,→,0.5871349999215454,True,12,0,0,0
Y2-S2-054K22,1,66,PS,exp,27,←,left,←,0.6129103000275791,True,12,1,0,0
Y2-S2-054K22,1,67,PS,exp,39,↓,down,↓,0.735213200096041,True,11,1,0,0
Y2-S2-054K22,1,68,PS,exp,41,→,right,→,0.609779000049457,True,11,1,0,0
Y2-S2-054K22,1,69,PS,exp,27,↓,down,↓,0.9176391998771578,True,11,1,0,0
Y2-S2-054K22,1,70,PS,exp,27,↑,up,↑,0.7759658000431955,True,10,1,0,0
Y2-S2-054K22,1,71,PS,exp,45,←,right,→,0.6662608000915498,False,10,-1,1,1
Y2-S2-054K22,1,72,PS,exp,49,→,down,↓,0.7835323999170214,False,11,-1,0,1
Y2-S2-054K22,1,73,PS,exp,37,←,up,↑,1.5022531000431627,False,12,-1,0,1
Y2-S2-054K22,1,74,PS,exp,30,→,right,→,0.654098300030455,True,13,-1,0,1
Y2-S2-054K22,1,75,PS,exp,39,↓,down,↓,0.7559456001035869,True,13,-1,0,1
Y2-S2-054K22,1,76,PS,exp,28,→,right,→,0.5564981000497937,True,13,1,1,2
Y2-S2-054K22,1,77,PS,exp,33,↓,down,↓,0.7231983002275229,True,12,1,0,2
Y2-S2-054K22,1,78,PS,exp,35,→,right,→,0.4792579000350088,True,12,1,0,2
Y2-S2-054K22,1,79,PS,exp,40,←,left,←,0.6138284998014569,True,12,1,0,2
Y2-S2-054K22,1,80,PS,exp,26,↑,up,↑,0.6873951000161469,True,11,1,0,2
Y2-S2-054K22,1,81,PS,exp,28,→,right,→,0.6805875001009554,True,11,1,0,2
Y2-S2-054K22,1,82,PS,exp,39,↓,down,↓,0.8503076999913901,True,11,1,0,2
Y2-S2-054K22,1,83,PS,exp,29,↑,up,↑,0.5678218000102788,True,10,1,0,2
Y2-S2-054K22,1,84,PS,exp,45,←,down,↓,0.7696126000955701,False,10,-1,1,3
Y2-S2-054K22,1,85,PS,exp,30,↓,down,↓,0.7374284001998603,True,11,-1,0,3
Y2-S2-054K22,1,86,PS,exp,26,→,right,→,0.7863591001369059,True,11,-1,0,3
Y2-S2-054K22,1,87,PS,exp,49,←,left,←,0.617465800140053,True,11,1,1,4
Y2-S2-054K22,1,88,PS,exp,31,↓,down,↓,0.672863099956885,True,10,1,0,4
Y2-S2-054K22,1,89,PS,exp,50,↑,up,↑,0.8390752000268549,True,10,1,0,4
Y2-S2-054K22,1,90,PS,exp,45,→,right,→,0.5717736999504268,True,10,1,0,4
Y2-S2-054K22,1,91,PS,exp,50,↑,down,↓,0.7600068999454379,False,9,-1,1,5
Y2-S2-054K22,1,92,PS,exp,34,↓,down,↓,0.7813587000127882,True,10,-1,0,5
Y2-S2-054K22,1,93,PS,exp,48,←,left,←,0.6096685000229627,True,10,-1,0,5
Y2-S2-054K22,1,94,PS,exp,39,↑,up,↑,0.9256231000181288,True,10,1,1,6
Y2-S2-054K22,1,95,PS,exp,31,↓,up,↑,0.8164605998899788,False,9,-1,1,7
Y2-S2-054K22,1,96,PS,exp,36,→,right,→,0.5734116998501122,True,10,-1,0,7
Y2-S2-054K22,1,97,PS,exp,43,←,left,←,0.5616110998671502,True,10,-1,0,7
Y2-S2-054K22,1,98,PS,exp,39,→,right,→,0.48309039999730885,True,10,1,1,8
Y2-S2-054K22,1,99,PS,exp,38,↓,down,↓,0.7393926999066025,True,9,1,0,8
Y2-S2-054K22,1,100,PS,exp,49,↑,up,↑,0.5302555998787284,True,9,1,0,8
Y2-S2-054K22,1,101,PS,exp,37,→,right,→,0.6330524999648333,True,9,1,0,8
Y2-S2-054K22,1,102,PS,exp,42,↓,down,↓,0.8397403999697417,True,8,1,0,8
Y2-S2-054K22,1,103,PS,exp,43,↑,up,↑,0.526383199961856,True,8,1,0,8
Y2-S2-054K22,1,104,PS,exp,27,←,left,←,0.7028935998678207,True,8,1,0,8
Y2-S2-054K22,1,105,PS,exp,31,↑,up,↑,0.6466641998849809,True,7,1,0,8
Y2-S2-054K22,1,106,PS,exp,26,↓,down,↓,0.6851188000291586,True,7,1,0,8
Y2-S2-054K22,1,107,PS,exp,44,←,down,↓,0.7187171999830753,False,7,-1,1,9
Y2-S2-054K22,1,108,PS,exp,46,↑,up,↑,0.4922976999077946,True,8,-1,0,9
Y2-S2-054K22,1,109,PS,exp,41,→,right,→,0.6814139001071453,True,8,-1,0,9
Y2-S2-054K22,1,110,PS,exp,35,↑,up,↑,0.5624945000745356,True,8,1,1,10
Y2-S2-054K22,1,111,PS,exp,36,→,right,→,0.6459171001333743,True,7,1,0,10
Y2-S2-054K22,1,112,PS,exp,26,↓,down,↓,0.6223780000582337,True,7,1,0,10
Y2-S2-054K22,1,113,PS,exp,39,→,right,→,0.6077235001139343,True,7,1,0,10
Y2-S2-054K22,1,114,PS,exp,27,↑,down,↓,0.7073096998501569,False,6,-1,1,11
Y2-S2-054K22,1,115,PS,exp,29,→,right,→,0.6557306998874992,True,7,-1,0,11
Y2-S2-054K22,1,116,PS,exp,26,←,left,←,0.6296498998999596,True,7,-1,0,11
Y2-S2-054K22,1,117,PS,exp,43,↓,down,↓,0.7561451999936253,True,7,1,1,12
Y2-S2-054K22,1,118,PS,exp,41,←,left,←,0.6113002998754382,True,6,1,0,12
Y2-S2-054K22,1,119,PS,exp,32,↓,up,↑,1.2287447999697179,False,6,-1,1,13
Y2-S2-054K22,1,120,PS,exp,49,↑,up,↑,0.8084030000027269,True,7,-1,0,13
Y2-S2-054K22,1,121,PS,exp,38,↓,down,↓,0.7855896998662502,True,7,-1,0,13
Y2-S2-054K22,1,122,PS,exp,40,→,up,↑,0.6724933998193592,False,7,-1,0,13
Y2-S2-054K22,1,123,PS,exp,49,↓,right,→,0.5858293001074344,False,8,-1,0,13
Y2-S2-054K22,1,124,PS,exp,44,↑,down,↓,1.110746799968183,False,9,-1,0,13
Y2-S2-054K22,1,125,PS,exp,48,↓,down,↓,0.767748299986124,True,10,-1,0,13
Y2-S2-054K22,1,126,PS,exp,28,↑,up,↑,0.5321740000508726,True,10,-1,0,13
Y2-S2-054K22,1,127,PS,exp,30,←,left,←,1.1309683001600206,True,10,1,1,14
Y2-S2-054K22,1,128,PS,exp,46,→,right,→,0.4651562001090497,True,9,1,0,14
Y2-S2-054K22,1,129,PS,exp,32,↑,left,←,0.8128516001161188,False,9,-1,1,15
Y2-S2-054K22,1,130,PS,exp,40,↓,down,↓,0.7437082000542432,True,10,-1,0,15
Y2-S2-054K22,1,131,PS,exp,45,↑,up,↑,0.6844111001119018,True,10,-1,0,15
Y2-S2-054K22,1,132,PS,exp,26,←,left,←,0.7532713999971747,True,10,1,1,16
Y2-S2-054K22,2,133,AS,intra_train,33,→,right,→,1.39915129984729,True,28,-,-,-
Y2-S2-054K22,2,134,AS,intra_train,25,←,left,←,0.6788762998767197,True,28,-,-,-
Y2-S2-054K22,2,135,AS,intra_train,35,↓,down,↓,0.6600538000930101,True,28,-,-,-
Y2-S2-054K22,2,136,AS,intra_train,41,→,right,→,0.5672568001318723,True,28,-,-,-
Y2-S2-054K22,2,137,AS,intra_train,50,↓,down,↓,0.8737315000034869,True,28,-,-,-
Y2-S2-054K22,2,138,AS,exp,41,→,right,→,1.0859532000031322,True,19,0,0,0
Y2-S2-054K22,2,139,AS,exp,48,↓,down,↓,0.741245900047943,True,19,0,0,0
Y2-S2-054K22,2,140,AS,exp,31,→,right,→,0.6985156000591815,True,19,1,0,0
Y2-S2-054K22,2,141,AS,exp,43,←,left,←,0.724423399893567,True,18,1,0,0
Y2-S2-054K22,2,142,AS,exp,46,→,right,→,0.8529491999652237,True,18,1,0,0
Y2-S2-054K22,2,143,AS,exp,30,↑,down,↓,0.816001099999994,False,18,-1,1,1
Y2-S2-054K22,2,144,AS,exp,39,←,right,→,0.7885165999177843,False,19,-1,0,1
Y2-S2-054K22,2,145,AS,exp,28,↑,up,↑,0.7672960001509637,True,20,-1,0,1
Y2-S2-054K22,2,146,AS,exp,34,↓,down,↓,0.7995676000136882,True,20,-1,0,1
Y2-S2-054K22,2,147,AS,exp,41,↑,up,↑,0.7398464998695999,True,20,1,1,2
Y2-S2-054K22,2,148,AS,exp,48,↓,down,↓,0.7481281999498606,True,19,1,0,2
Y2-S2-054K22,2,149,AS,exp,35,→,left,←,0.8542261999100447,False,19,-1,1,3
Y2-S2-054K22,2,150,AS,exp,47,↓,down,↓,0.8752897998783737,True,20,-1,0,3
Y2-S2-054K22,2,151,AS,exp,34,→,right,→,1.1177659998647869,True,20,-1,0,3
Y2-S2-054K22,2,152,AS,exp,32,↑,down,↓,1.0184404999017715,False,20,-1,0,3
Y2-S2-054K22,2,153,AS,exp,29,→,right,→,0.6066745000425726,True,21,-1,0,3
Y2-S2-054K22,2,154,AS,exp,39,↓,down,↓,0.8021101001650095,True,21,-1,0,3
Y2-S2-054K22,2,155,AS,exp,44,→,right,→,0.5660931000020355,True,21,1,1,4
Y2-S2-054K22,2,156,AS,exp,41,↓,down,↓,0.7352948999032378,True,20,1,0,4
Y2-S2-054K22,2,157,AS,exp,48,→,right,→,0.6084748997818679,True,20,1,0,4
Y2-S2-054K22,2,158,AS,exp,26,↑,up,↑,0.6977291000075638,True,20,1,0,4
Y2-S2-054K22,2,159,AS,exp,25,←,left,←,1.0119010000489652,True,19,1,0,4
Y2-S2-054K22,2,160,AS,exp,45,↑,up,↑,0.7598824999295175,True,19,1,0,4
Y2-S2-054K22,2,161,AS,exp,26,→,right,→,0.854310299968347,True,19,1,0,4
Y2-S2-054K22,2,162,AS,exp,42,↓,down,↓,0.6047654999420047,True,18,1,0,4
Y2-S2-054K22,2,163,AS,exp,31,↑,up,↑,0.6137514000292867,True,18,1,0,4
Y2-S2-054K22,2,164,AS,exp,47,↓,down,↓,0.8415438998490572,True,18,1,0,4
Y2-S2-054K22,2,165,AS,exp,36,←,left,←,0.8033629998099059,True,17,1,0,4
Y2-S2-054K22,2,166,AS,exp,46,↑,up,↑,0.7343496999237686,True,17,1,0,4
Y2-S2-054K22,2,167,AS,exp,50,←,left,←,0.678441199939698,True,17,1,0,4
Y2-S2-054K22,2,168,AS,exp,50,↓,down,↓,0.78019730001688,True,16,1,0,4
Y2-S2-054K22,2,169,AS,exp,42,→,right,→,0.8346186999697238,True,16,1,0,4
Y2-S2-054K22,2,170,AS,exp,29,←,left,←,0.7747160999570042,True,16,1,0,4
Y2-S2-054K22,2,171,AS,exp,47,↑,right,→,1.10849849996157,False,15,-1,1,5
Y2-S2-054K22,2,172,AS,exp,31,←,left,←,0.6795111999381334,True,16,-1,0,5
Y2-S2-054K22,2,173,AS,exp,41,↓,down,↓,0.8265915000811219,True,16,-1,0,5
Y2-S2-054K22,2,174,AS,exp,37,↑,right,→,0.8882748999167234,False,16,-1,0,5
Y2-S2-054K22,2,175,AS,exp,34,←,left,←,0.6804840001277626,True,17,-1,0,5
Y2-S2-054K22,2,176,AS,exp,35,↑,down,↓,1.0866944000590593,False,17,-1,0,5
Y2-S2-054K22,2,177,AS,exp,30,↓,down,↓,0.6468370999209583,True,18,-1,0,5
Y2-S2-054K22,2,178,AS,exp,30,←,left,←,0.5528762999456376,True,18,-1,0,5
Y2-S2-054K22,2,179,AS,exp,48,↑,up,↑,0.5697744998615235,True,18,1,1,6
Y2-S2-054K22,2,180,AS,exp,34,←,left,←,0.7143801001366228,True,17,1,0,6
Y2-S2-054K22,2,181,AS,exp,35,↓,down,↓,0.7222784999758005,True,17,1,0,6
Y2-S2-054K22,2,182,AS,exp,25,↑,up,↑,0.8566318000666797,True,17,1,0,6
Y2-S2-054K22,2,183,AS,exp,34,←,left,←,0.6929194999393076,True,16,1,0,6
Y2-S2-054K22,2,184,AS,exp,43,↑,up,↑,0.5499746999703348,True,16,1,0,6
Y2-S2-054K22,2,185,AS,exp,49,↓,down,↓,0.7205570000223815,True,16,1,0,6
Y2-S2-054K22,2,186,AS,exp,27,→,right,→,0.48635539994575083,True,15,1,0,6
Y2-S2-054K22,2,187,AS,exp,35,↑,down,↓,0.8544279998168349,False,15,-1,1,7
Y2-S2-054K22,2,188,AS,exp,43,←,up,↑,0.7249254998750985,False,16,-1,0,7
Y2-S2-054K22,2,189,AS,exp,48,↑,up,↑,0.6049337000586092,True,17,-1,0,7
Y2-S2-054K22,2,190,AS,exp,34,→,left,←,0.7223722999915481,False,17,-1,0,7
Y2-S2-054K22,2,191,AS,exp,48,↑,up,↑,0.5719963000155985,True,18,-1,0,7
Y2-S2-054K22,2,192,AS,exp,26,←,left,←,0.7657145000994205,True,18,-1,0,7
Y2-S2-054K22,2,193,AS,exp,39,↓,down,↓,0.6890410000924021,True,18,1,1,8
Y2-S2-054K22,2,194,AS,exp,44,↑,up,↑,0.7434865001123399,True,17,1,0,8
Y2-S2-054K22,2,195,AS,exp,32,→,left,←,0.8786085001192987,False,17,-1,1,9
Y2-S2-054K22,2,196,AS,exp,31,↓,down,↓,0.884291399968788,True,18,-1,0,9
Y2-S2-054K22,2,197,AS,exp,32,↑,up,↑,0.7833402000833303,True,18,-1,0,9
Y2-S2-054K22,2,198,AS,exp,31,↓,down,↓,1.095636900048703,True,18,1,1,10
Y2-S2-054K22,2,199,AS,exp,43,↑,up,↑,1.0147886998020113,True,17,1,0,10
Y2-S2-054K22,2,200,AS,exp,33,→,right,→,0.7352060000412166,True,17,1,0,10
Y2-S2-054K22,2,201,AS,exp,42,↓,down,↓,1.3222053002100438,True,17,1,0,10
Y2-S2-054K22,2,202,AS,exp,38,←,left,←,0.7778541999869049,True,16,1,0,10
Y2-S2-054K22,2,203,AS,exp,41,↓,down,↓,0.6646612000185996,True,16,1,0,10
Y2-S2-054K22,2,204,AS,exp,42,↑,up,↑,0.7523247001226991,True,16,1,0,10
Y2-S2-054K22,2,205,AS,exp,37,↓,down,↓,0.6166654999833554,True,15,1,0,10
Y2-S2-054K22,2,206,AS,exp,44,↑,up,↑,0.5542383999563754,True,15,1,0,10
Y2-S2-054K22,2,207,AS,exp,36,↓,left,←,0.9713377999141812,False,15,-1,1,11
Y2-S2-054K22,2,208,AS,exp,45,↑,down,↓,0.9847787001635879,False,16,-1,0,11
Y2-S2-054K22,2,209,AS,exp,25,↓,down,↓,0.77539539989084,True,17,-1,0,11
Y2-S2-054K22,2,210,AS,exp,35,↑,up,↑,0.6628193000797182,True,17,-1,0,11
Y2-S2-054K22,2,211,AS,exp,26,←,left,←,0.5766451999079436,True,17,1,1,12
Y2-S2-054K22,2,212,AS,exp,27,→,right,→,0.8099986999295652,True,16,1,0,12
Y2-S2-054K22,2,213,AS,exp,30,↓,down,↓,0.8316263998858631,True,16,1,0,12
Y2-S2-054K22,2,214,AS,exp,37,→,right,→,0.5461032001767308,True,16,1,0,12
Y2-S2-054K22,2,215,AS,exp,33,↑,left,←,0.7902160999365151,False,15,-1,1,13
Y2-S2-054K22,2,216,AS,exp,27,←,left,←,0.6622341000474989,True,16,-1,0,13
Y2-S2-054K22,2,217,AS,exp,28,↓,down,↓,0.6958033998962492,True,16,-1,0,13
Y2-S2-054K22,2,218,AS,exp,36,←,left,←,0.615082300035283,True,16,1,1,14
Y2-S2-054K22,2,219,AS,exp,44,→,down,↓,1.0258595999330282,False,15,-1,1,15
Y2-S2-054K22,2,220,AS,exp,41,↓,down,↓,0.8627706000115722,True,16,-1,0,15
Y2-S2-054K22,2,221,AS,exp,41,←,left,←,0.8031252999790013,True,16,-1,0,15
Y2-S2-054K22,2,222,AS,exp,47,→,right,→,0.7964778000023216,True,16,1,1,16
Y2-S2-054K22,3,223,AS,intra_train,45,↑,up,↑,0.8566897998098284,True,28,-,-,-
Y2-S2-054K22,3,224,AS,intra_train,37,→,right,→,0.7185965999960899,True,28,-,-,-
Y2-S2-054K22,3,225,AS,intra_train,28,↑,up,↑,0.6465505000669509,True,28,-,-,-
Y2-S2-054K22,3,226,AS,intra_train,34,↓,down,↓,0.826743199955672,True,28,-,-,-
Y2-S2-054K22,3,227,AS,intra_train,50,→,right,→,0.5501220999285579,True,28,-,-,-
Y2-S2-054K22,3,228,AS,exp,40,←,left,←,0.5617836001329124,True,19,0,0,0
Y2-S2-054K22,3,229,AS,exp,42,→,left,←,0.8652039000298828,False,19,-1,0,0
Y2-S2-054K22,3,230,AS,exp,43,↓,down,↓,0.6826019999571145,True,20,-1,0,0
Y2-S2-054K22,3,231,AS,exp,37,→,right,→,0.7048392000142485,True,20,-1,0,0
Y2-S2-054K22,3,232,AS,exp,27,↓,down,↓,0.9012206001207232,True,20,1,1,1
Y2-S2-054K22,3,233,AS,exp,44,→,right,→,0.8001896000932902,True,19,1,0,1
Y2-S2-054K22,3,234,AS,exp,37,←,left,←,0.5476323000621051,True,19,1,0,1
Y2-S2-054K22,3,235,AS,exp,36,↓,down,↓,0.8449321000371128,True,19,1,0,1
Y2-S2-054K22,3,236,AS,exp,27,→,right,→,0.5136957999784499,True,18,1,0,1
Y2-S2-054K22,3,237,AS,exp,50,↑,up,↑,0.6580243001226336,True,18,1,0,1
Y2-S2-054K22,3,238,AS,exp,26,←,up,↑,0.9896390000358224,False,18,-1,1,2
Y2-S2-054K22,3,239,AS,exp,50,→,right,→,0.7661105999723077,True,19,-1,0,2
Y2-S2-054K22,3,240,AS,exp,30,←,left,←,0.5860433001071215,True,19,-1,0,2
Y2-S2-054K22,3,241,AS,exp,50,→,right,→,0.7033247000072151,True,19,1,1,3
Y2-S2-054K22,3,242,AS,exp,26,↑,right,→,0.9484631000086665,False,18,-1,1,4
Y2-S2-054K22,3,243,AS,exp,48,↓,down,↓,0.6830072999000549,True,19,-1,0,4
Y2-S2-054K22,3,244,AS,exp,46,←,left,←,0.6128032000269741,True,19,-1,0,4
Y2-S2-054K22,3,245,AS,exp,49,↑,down,↓,0.9883362997788936,False,19,-1,0,4
Y2-S2-054K22,3,246,AS,exp,40,←,left,←,0.6071192000526935,True,20,-1,0,4
Y2-S2-054K22,3,247,AS,exp,44,↑,up,↑,0.7491106998641044,True,20,-1,0,4
Y2-S2-054K22,3,248,AS,exp,31,↓,down,↓,0.7265524999238551,True,20,1,1,5
Y2-S2-054K22,3,249,AS,exp,44,←,left,←,1.0346335999201983,True,19,1,0,5
Y2-S2-054K22,3,250,AS,exp,32,→,right,→,0.7345183999277651,True,19,1,0,5
Y2-S2-054K22,3,251,AS,exp,50,←,left,←,1.2203051999676973,True,19,1,0,5
Y2-S2-054K22,3,252,AS,exp,33,↓,down,↓,0.7881599001120776,True,18,1,0,5
Y2-S2-054K22,3,253,AS,exp,31,→,right,→,0.9764787999447435,True,18,1,0,5
Y2-S2-054K22,3,254,AS,exp,34,↓,down,↓,0.7637068000622094,True,18,1,0,5
Y2-S2-054K22,3,255,AS,exp,27,↑,up,↑,0.8750992999412119,True,17,1,0,5
Y2-S2-054K22,3,256,AS,exp,27,↓,down,↓,0.595644999993965,True,17,1,0,5
Y2-S2-054K22,3,257,AS,exp,43,→,right,→,0.7340857000090182,True,17,1,0,5
Y2-S2-054K22,3,258,AS,exp,25,←,left,←,0.7211723001673818,True,16,1,0,5
Y2-S2-054K22,3,259,AS,exp,43,↓,down,↓,0.8885951999109238,True,16,1,0,5
Y2-S2-054K22,3,260,AS,exp,36,→,right,→,0.5764834999572486,True,16,1,0,5
Y2-S2-054K22,3,261,AS,exp,47,↑,up,↑,0.6065922998823225,True,15,1,0,5
Y2-S2-054K22,3,262,AS,exp,41,↓,down,↓,0.7564121999312192,True,15,1,0,5
Y2-S2-054K22,3,263,AS,exp,47,←,left,←,0.7268801999744028,True,15,1,0,5
Y2-S2-054K22,3,264,AS,exp,49,→,left,←,0.7370855999179184,False,14,-1,1,6
Y2-S2-054K22,3,265,AS,exp,46,←,left,←,0.6675348998978734,True,15,-1,0,6
Y2-S2-054K22,3,266,AS,exp,28,↑,up,↑,0.8174018000718206,True,15,-1,0,6
Y2-S2-054K22,3,267,AS,exp,46,↓,down,↓,0.8476177998818457,True,15,1,1,7
Y2-S2-054K22,3,268,AS,exp,32,←,down,↓,0.7775645998772234,False,14,-1,1,8
Y2-S2-054K22,3,269,AS,exp,50,→,right,→,1.2362782000564039,True,15,-1,0,8
Y2-S2-054K22,3,270,AS,exp,32,↓,down,↓,0.7523463999386877,True,15,-1,0,8
Y2-S2-054K22,3,271,AS,exp,46,↑,up,↑,0.5510483998805285,True,15,1,1,9
Y2-S2-054K22,3,272,AS,exp,25,←,left,←,0.7021474000066519,True,14,1,0,9
Y2-S2-054K22,3,273,AS,exp,42,↓,down,↓,0.871230699820444,True,14,1,0,9
Y2-S2-054K22,3,274,AS,exp,33,↑,up,↑,0.5239095001015812,True,14,1,0,9
Y2-S2-054K22,3,275,AS,exp,40,→,right,→,0.812317700125277,True,13,1,0,9
Y2-S2-054K22,3,276,AS,exp,46,←,left,←,0.9130204000975937,True,13,1,0,9
Y2-S2-054K22,3,277,AS,exp,28,↑,up,↑,0.5984590998850763,True,13,1,0,9
Y2-S2-054K22,3,278,AS,exp,37,↓,down,↓,0.8420335000846535,True,12,1,0,9
Y2-S2-054K22,3,279,AS,exp,36,←,left,←,0.47309730015695095,True,12,1,0,9
Y2-S2-054K22,3,280,AS,exp,31,↑,up,↑,0.7774645001627505,True,12,1,0,9
Y2-S2-054K22,3,281,AS,exp,31,→,right,→,0.5250796000473201,True,11,1,0,9
Y2-S2-054K22,3,282,AS,exp,28,↑,up,↑,0.5022377001587301,True,11,1,0,9
Y2-S2-054K22,3,283,AS,exp,39,↓,down,↓,0.9020710999611765,True,11,1,0,9
Y2-S2-054K22,3,284,AS,exp,26,→,right,→,0.5384192999918014,True,10,1,0,9
Y2-S2-054K22,3,285,AS,exp,30,↑,left,←,0.7024834000039846,False,10,-1,1,10
Y2-S2-054K22,3,286,AS,exp,46,→,left,←,0.671464400133118,False,11,-1,0,10
Y2-S2-054K22,3,287,AS,exp,31,←,left,←,0.7918216998223215,True,12,-1,0,10
Y2-S2-054K22,3,288,AS,exp,35,→,right,→,0.7121922001242638,True,12,-1,0,10
Y2-S2-054K22,3,289,AS,exp,43,←,left,←,0.766641499940306,True,12,1,1,11
Y2-S2-054K22,3,290,AS,exp,43,↑,up,↑,1.3007428999990225,True,11,1,0,11
Y2-S2-054K22,3,291,AS,exp,45,↓,down,↓,0.5840990000870079,True,11,1,0,11
Y2-S2-054K22,3,292,AS,exp,46,←,left,←,0.6932156998664141,True,11,1,0,11
Y2-S2-054K22,3,293,AS,exp,46,↓,right,→,1.1402938000392169,False,10,-1,1,12
Y2-S2-054K22,3,294,AS,exp,44,→,right,→,0.6196012999862432,True,11,-1,0,12
Y2-S2-054K22,3,295,AS,exp,42,↑,up,↑,0.8385624000802636,True,11,-1,0,12
Y2-S2-054K22,3,296,AS,exp,48,↓,right,→,1.1432864000089467,False,11,-1,0,12
Y2-S2-054K22,3,297,AS,exp,50,→,up,↑,0.7821816999930888,False,12,-1,0,12
Y2-S2-054K22,3,298,AS,exp,46,←,left,←,0.7555038998834789,True,13,-1,0,12
Y2-S2-054K22,3,299,AS,exp,38,↓,down,↓,1.059204899938777,True,13,-1,0,12
Y2-S2-054K22,3,300,AS,exp,30,←,up,↑,0.8053772998973727,False,13,-1,0,12
Y2-S2-054K22,3,301,AS,exp,50,↑,right,→,0.9104608001653105,False,14,-1,0,12
Y2-S2-054K22,3,302,AS,exp,30,↓,up,↑,0.6957127000205219,False,15,-1,0,12
Y2-S2-054K22,3,303,AS,exp,25,→,right,→,0.7977406000718474,True,16,-1,0,12
Y2-S2-054K22,3,304,AS,exp,43,←,left,←,0.7760650001000613,True,16,-1,0,12
Y2-S2-054K22,3,305,AS,exp,27,↓,down,↓,0.6299113999120891,True,16,1,1,13
Y2-S2-054K22,3,306,AS,exp,41,→,right,→,0.5446327000390738,True,15,1,0,13
Y2-S2-054K22,3,307,AS,exp,49,↑,down,↓,1.0641075999010354,False,15,-1,1,14
Y2-S2-054K22,3,308,AS,exp,50,←,left,←,0.6089731000829488,True,16,-1,0,14
Y2-S2-054K22,3,309,AS,exp,28,↑,up,↑,1.007455199956894,True,16,-1,0,14
Y2-S2-054K22,3,310,AS,exp,42,→,right,→,0.5718718999996781,True,16,1,1,15
Y2-S2-054K22,3,311,AS,exp,27,↓,up,↑,0.949385300045833,False,15,-1,1,16
Y2-S2-054K22,4,312,PS,intra_train,47,→,right,→,0.6705279999878258,True,18,-,-,-
Y2-S2-054K22,4,313,PS,intra_train,29,←,left,←,0.754711200017482,True,18,-,-,-
Y2-S2-054K22,4,314,PS,intra_train,49,↑,up,↑,0.7157324000727385,True,18,-,-,-
Y2-S2-054K22,4,315,PS,intra_train,25,←,left,←,0.6900869000237435,True,18,-,-,-
Y2-S2-054K22,4,316,PS,intra_train,27,→,right,→,0.7760310000739992,True,18,-,-,-
Y2-S2-054K22,4,317,PS,exp,49,↑,up,↑,0.784266599919647,True,12,0,0,0
Y2-S2-054K22,4,318,PS,exp,43,→,right,→,0.6309855000581592,True,12,0,0,0
Y2-S2-054K22,4,319,PS,exp,45,↑,up,↑,0.6969312999863178,True,12,1,0,0
Y2-S2-054K22,4,320,PS,exp,35,←,left,←,0.5490106998477131,True,11,1,0,0
Y2-S2-054K22,4,321,PS,exp,50,↓,down,↓,0.7436349000781775,True,11,1,0,0
Y2-S2-054K22,4,322,PS,exp,50,↑,up,↑,0.5396162001416087,True,11,1,0,0
Y2-S2-054K22,4,323,PS,exp,38,↓,down,↓,0.6910761999897659,True,10,1,0,0
Y2-S2-054K22,4,324,PS,exp,46,←,left,←,0.6400498999282718,True,10,1,0,0
Y2-S2-054K22,4,325,PS,exp,38,↑,up,↑,0.5942994998767972,True,10,1,0,0
Y2-S2-054K22,4,326,PS,exp,43,→,right,→,0.7955682999454439,True,9,1,0,0
Y2-S2-054K22,4,327,PS,exp,44,↑,up,↑,0.5042006000876427,True,9,1,0,0
Y2-S2-054K22,4,328,PS,exp,45,←,left,←,0.6982956000138074,True,9,1,0,0
Y2-S2-054K22,4,329,PS,exp,33,↓,up,↑,0.6947598999831825,False,8,-1,1,1
Y2-S2-054K22,4,330,PS,exp,30,→,right,→,0.5426370999775827,True,9,-1,0,1
Y2-S2-054K22,4,331,PS,exp,27,↑,up,↑,0.5159783998969942,True,9,-1,0,1
Y2-S2-054K22,4,332,PS,exp,33,←,up,↑,0.9291173999663442,False,9,-1,0,1
Y2-S2-054K22,4,333,PS,exp,42,↓,down,↓,0.6026002999860793,True,10,-1,0,1
Y2-S2-054K22,4,334,PS,exp,43,←,left,←,0.655863800086081,True,10,-1,0,1
Y2-S2-054K22,4,335,PS,exp,50,→,right,→,0.7613508000504225,True,10,1,1,2
Y2-S2-054K22,4,336,PS,exp,26,←,left,←,0.5321174000855535,True,9,1,0,2
Y2-S2-054K22,4,337,PS,exp,47,→,right,→,0.4892877999227494,True,9,1,0,2
Y2-S2-054K22,4,338,PS,exp,26,↑,up,↑,0.6295855001080781,True,9,1,0,2
Y2-S2-054K22,4,339,PS,exp,41,↓,down,↓,0.6485254999715835,True,8,1,0,2
Y2-S2-054K22,4,340,PS,exp,48,↑,up,↑,0.5319747999310493,True,8,1,0,2
Y2-S2-054K22,4,341,PS,exp,44,←,left,←,0.5852044001221657,True,8,1,0,2
Y2-S2-054K22,4,342,PS,exp,33,↓,left,←,0.6605382000561804,False,7,-1,1,3
Y2-S2-054K22,4,343,PS,exp,33,←,left,←,0.5005429999437183,True,8,-1,0,3
Y2-S2-054K22,4,344,PS,exp,28,↑,up,↑,0.6021141998935491,True,8,-1,0,3
Y2-S2-054K22,4,345,PS,exp,39,↓,down,↓,0.6193560000974685,True,8,1,1,4
Y2-S2-054K22,4,346,PS,exp,36,↑,up,↑,0.6248198000248522,True,7,1,0,4
Y2-S2-054K22,4,347,PS,exp,44,←,left,←,0.5929081998765469,True,7,1,0,4
Y2-S2-054K22,4,348,PS,exp,47,→,right,→,0.6555745000950992,True,7,1,0,4
Y2-S2-054K22,4,349,PS,exp,49,↓,down,↓,1.2159850001335144,True,6,1,0,4
Y2-S2-054K22,4,350,PS,exp,33,↑,left,←,0.8283818000927567,False,6,-1,1,5
Y2-S2-054K22,4,351,PS,exp,33,←,left,←,1.095519300084561,True,7,-1,0,5
Y2-S2-054K22,4,352,PS,exp,50,↑,up,↑,0.6564521000254899,True,7,-1,0,5
Y2-S2-054K22,4,353,PS,exp,32,↓,down,↓,0.5982812000438571,True,7,1,1,6
Y2-S2-054K22,4,354,PS,exp,30,→,up,↑,1.2287288000807166,False,6,-1,1,7
Y2-S2-054K22,4,355,PS,exp,35,↑,up,↑,0.9493105998262763,True,7,-1,0,7
Y2-S2-054K22,4,356,PS,exp,28,→,left,←,1.1290709001477808,False,7,-1,0,7
Y2-S2-054K22,4,357,PS,exp,36,↓,right,→,1.3952504999469966,False,8,-1,0,7
Y2-S2-054K22,4,358,PS,exp,44,←,left,←,1.0081104999408126,True,9,-1,0,7
Y2-S2-054K22,4,359,PS,exp,49,↓,down,↓,0.7560519000981003,True,9,-1,0,7
Y2-S2-054K22,4,360,PS,exp,41,←,left,←,0.6395336000714451,True,9,1,1,8
Y2-S2-054K22,4,361,PS,exp,44,↑,up,↑,0.5358589999377728,True,8,1,0,8
Y2-S2-054K22,4,362,PS,exp,43,↓,down,↓,0.7397569001186639,True,8,1,0,8
Y2-S2-054K22,4,363,PS,exp,34,←,left,←,0.5472799001727253,True,8,1,0,8
Y2-S2-054K22,4,364,PS,exp,48,↑,up,↑,0.5379421999678016,True,7,1,0,8
Y2-S2-054K22,4,365,PS,exp,27,↓,left,←,0.6602640000637621,False,7,-1,1,9
Y2-S2-054K22,4,366,PS,exp,39,→,right,→,0.9754721999634057,True,8,-1,0,9
Y2-S2-054K22,4,367,PS,exp,27,↓,down,↓,0.7966356999240816,True,8,-1,0,9
Y2-S2-054K22,4,368,PS,exp,41,↑,up,↑,1.1602670000866055,True,8,1,1,10
Y2-S2-054K22,4,369,PS,exp,35,←,down,↓,0.8266433000098914,False,7,-1,1,11
Y2-S2-054K22,4,370,PS,exp,49,↑,right,→,1.009899300057441,False,8,-1,0,11
Y2-S2-054K22,4,371,PS,exp,37,↓,down,↓,0.8616558001376688,True,9,-1,0,11
Y2-S2-054K22,4,372,PS,exp,50,↑,up,↑,0.9978249000851065,True,9,-1,0,11
Y2-S2-054K22,4,373,PS,exp,31,←,left,←,0.5552679998800159,True,9,1,1,12
Y2-S2-054K22,4,374,PS,exp,43,↓,down,↓,0.5994119001552463,True,8,1,0,12
Y2-S2-054K22,4,375,PS,exp,31,→,right,→,0.6401307999622077,True,8,1,0,12
Y2-S2-054K22,4,376,PS,exp,47,↓,down,↓,0.7163213000167161,True,8,1,0,12
Y2-S2-054K22,4,377,PS,exp,33,←,left,←,0.6143450001254678,True,7,1,0,12
Y2-S2-054K22,4,378,PS,exp,28,↓,down,↓,0.6505984999239445,True,7,1,0,12
Y2-S2-054K22,4,379,PS,exp,31,→,right,→,0.7012255000881851,True,7,1,0,12
Y2-S2-054K22,4,380,PS,exp,25,↓,no_key,no_letter,-1.0,False,6,-1,1,13
Y2-S2-054K22,4,381,PS,exp,47,→,right,→,0.6567945000715554,True,7,-1,0,13
Y2-S2-054K22,4,382,PS,exp,30,↑,down,↓,0.7607394000515342,False,7,-1,0,13
Y2-S2-054K22,4,383,PS,exp,47,↓,right,→,0.5383211998268962,False,8,-1,0,13
Y2-S2-054K22,4,384,PS,exp,25,↑,left,←,0.6563529002014548,False,9,-1,0,13
Y2-S2-054K22,4,385,PS,exp,26,←,left,←,0.9248200999572873,True,10,-1,0,13
Y2-S2-054K22,4,386,PS,exp,45,→,right,→,0.871793300146237,True,10,-1,0,13
Y2-S2-054K22,4,387,PS,exp,39,↓,down,↓,0.6339129998814315,True,10,1,1,14
Y2-S2-054K22,4,388,PS,exp,32,←,left,←,0.6127701001241803,True,9,1,0,14
Y2-S2-054K22,4,389,PS,exp,48,↑,up,↑,0.6163166000042111,True,9,1,0,14
Y2-S2-054K22,4,390,PS,exp,44,←,left,←,0.6386772999539971,True,9,1,0,14
Y2-S2-054K22,4,391,PS,exp,37,↓,down,↓,0.8059168001636863,True,8,1,0,14
Y2-S2-054K22,4,392,PS,exp,40,↑,up,↑,0.673853199928999,True,8,1,0,14
Y2-S2-054K22,4,393,PS,exp,28,→,left,←,0.6467033000662923,False,8,-1,1,15
Y2-S2-054K22,4,394,PS,exp,36,↑,up,↑,0.6153267999179661,True,9,-1,0,15
Y2-S2-054K22,4,395,PS,exp,44,→,right,→,0.5184178999625146,True,9,-1,0,15
Y2-S2-054K22,4,396,PS,exp,50,↓,down,↓,0.7062657999340445,True,9,1,1,16
Y2-S2-054K22,5,397,PS,intra_train,29,↑,up,↑,0.6569809000939131,True,18,-,-,-
Y2-S2-054K22,5,398,PS,intra_train,46,↓,down,↓,0.7974596999119967,True,18,-,-,-
Y2-S2-054K22,5,399,PS,intra_train,30,↑,up,↑,0.6112573998980224,True,18,-,-,-
Y2-S2-054K22,5,400,PS,intra_train,49,←,left,←,0.7925702999345958,True,18,-,-,-
Y2-S2-054K22,5,401,PS,intra_train,40,→,right,→,0.6239174997899681,True,18,-,-,-
Y2-S2-054K22,5,402,PS,exp,36,←,left,←,0.7035976001061499,True,12,0,0,0
Y2-S2-054K22,5,403,PS,exp,35,↑,up,↑,0.5978270000778139,True,12,0,0,0
Y2-S2-054K22,5,404,PS,exp,30,→,right,→,0.6427997001446784,True,12,1,0,0
Y2-S2-054K22,5,405,PS,exp,32,↑,up,↑,0.5500401000026613,True,11,1,0,0
Y2-S2-054K22,5,406,PS,exp,31,←,left,←,0.5791305999737233,True,11,1,0,0
Y2-S2-054K22,5,407,PS,exp,31,↑,right,→,0.9177161999978125,False,11,-1,1,1
Y2-S2-054K22,5,408,PS,exp,28,↓,down,↓,0.6331956000067294,True,12,-1,0,1
Y2-S2-054K22,5,409,PS,exp,36,→,right,→,0.46802600007504225,True,12,-1,0,1
Y2-S2-054K22,5,410,PS,exp,42,←,left,←,0.572086300002411,True,12,1,1,2
Y2-S2-054K22,5,411,PS,exp,30,↓,down,↓,0.6266059998888522,True,11,1,0,2
Y2-S2-054K22,5,412,PS,exp,26,→,up,↑,1.550692900083959,False,11,-1,1,3
Y2-S2-054K22,5,413,PS,exp,43,↑,up,↑,0.606714699883014,True,12,-1,0,3
Y2-S2-054K22,5,414,PS,exp,39,↓,down,↓,0.5900826000142843,True,12,-1,0,3
Y2-S2-054K22,5,415,PS,exp,42,↑,up,↑,0.5012918000575155,True,12,1,1,4
Y2-S2-054K22,5,416,PS,exp,25,→,right,→,0.5793425999581814,True,11,1,0,4
Y2-S2-054K22,5,417,PS,exp,31,←,left,←,0.9041391999926418,True,11,1,0,4
Y2-S2-054K22,5,418,PS,exp,40,↑,up,↑,0.5626040000934154,True,11,1,0,4
Y2-S2-054K22,5,419,PS,exp,42,←,left,←,0.47636620001867414,True,10,1,0,4
Y2-S2-054K22,5,420,PS,exp,28,↓,down,↓,0.6444296000991017,True,10,1,0,4
Y2-S2-054K22,5,421,PS,exp,41,↑,up,↑,0.49195629986934364,True,10,1,0,4
Y2-S2-054K22,5,422,PS,exp,48,←,left,←,0.5438355999067426,True,9,1,0,4
Y2-S2-054K22,5,423,PS,exp,47,↓,down,↓,0.6859759001526982,True,9,1,0,4
Y2-S2-054K22,5,424,PS,exp,43,↑,up,↑,1.0972833998966962,True,9,1,0,4
Y2-S2-054K22,5,425,PS,exp,40,→,right,→,0.6543690001126379,True,8,1,0,4
Y2-S2-054K22,5,426,PS,exp,46,←,down,↓,0.8429506998509169,False,8,-1,1,5
Y2-S2-054K22,5,427,PS,exp,48,↑,up,↑,0.6856042998842895,True,9,-1,0,5
Y2-S2-054K22,5,428,PS,exp,37,←,left,←,0.653376700123772,True,9,-1,0,5
Y2-S2-054K22,5,429,PS,exp,49,↑,up,↑,0.545339799951762,True,9,1,1,6
Y2-S2-054K22,5,430,PS,exp,33,←,left,←,0.6863080998882651,True,8,1,0,6
Y2-S2-054K22,5,431,PS,exp,33,→,right,→,0.6318343000020832,True,8,1,0,6
Y2-S2-054K22,5,432,PS,exp,30,←,left,←,0.631935200188309,True,8,1,0,6
Y2-S2-054K22,5,433,PS,exp,46,↑,up,↑,0.7542443000711501,True,7,1,0,6
Y2-S2-054K22,5,434,PS,exp,49,→,right,→,0.596648900071159,True,7,1,0,6
Y2-S2-054K22,5,435,PS,exp,48,↓,right,→,0.703452599933371,False,7,-1,1,7
Y2-S2-054K22,5,436,PS,exp,29,↑,up,↑,0.8892544999253005,True,8,-1,0,7
Y2-S2-054K22,5,437,PS,exp,35,←,left,←,0.6661712999921292,True,8,-1,0,7
Y2-S2-054K22,5,438,PS,exp,45,↓,up,↑,1.1629743999801576,False,8,-1,0,7
Y2-S2-054K22,5,439,PS,exp,46,←,left,←,0.4782860998529941,True,9,-1,0,7
Y2-S2-054K22,5,440,PS,exp,48,↑,up,↑,0.7079198998399079,True,9,-1,0,7
Y2-S2-054K22,5,441,PS,exp,25,↓,down,↓,0.6979882000014186,True,9,1,1,8
Y2-S2-054K22,5,442,PS,exp,42,↑,up,↑,0.6197313000448048,True,8,1,0,8
Y2-S2-054K22,5,443,PS,exp,25,↓,down,↓,0.6547621001955122,True,8,1,0,8
Y2-S2-054K22,5,444,PS,exp,27,↑,down,↓,0.696015499997884,False,8,-1,1,9
Y2-S2-054K22,5,445,PS,exp,47,↓,down,↓,0.6952037999872118,True,9,-1,0,9
Y2-S2-054K22,5,446,PS,exp,29,→,right,→,0.4540653999429196,True,9,-1,0,9
Y2-S2-054K22,5,447,PS,exp,42,↑,right,→,0.8466558000072837,False,9,-1,0,9
Y2-S2-054K22,5,448,PS,exp,26,←,left,←,0.6210163999348879,True,10,-1,0,9
Y2-S2-054K22,5,449,PS,exp,29,→,right,→,0.6855390998534858,True,10,-1,0,9
Y2-S2-054K22,5,450,PS,exp,33,←,left,←,0.5996125000528991,True,10,1,1,10
Y2-S2-054K22,5,451,PS,exp,25,↑,up,↑,0.55730179999955,True,9,1,0,10
Y2-S2-054K22,5,452,PS,exp,25,↓,down,↓,0.617859800113365,True,9,1,0,10
Y2-S2-054K22,5,453,PS,exp,34,↑,up,↑,0.4746602999512106,True,9,1,0,10
Y2-S2-054K22,5,454,PS,exp,31,←,left,←,0.6043676999397576,True,8,1,0,10
Y2-S2-054K22,5,455,PS,exp,37,↑,right,→,0.8489287998527288,False,8,-1,1,11
Y2-S2-054K22,5,456,PS,exp,32,→,right,→,0.623710900079459,True,9,-1,0,11
Y2-S2-054K22,5,457,PS,exp,37,←,left,←,0.4866112000308931,True,9,-1,0,11
Y2-S2-054K22,5,458,PS,exp,29,↑,up,↑,0.5444440999999642,True,9,1,1,12
Y2-S2-054K22,5,459,PS,exp,34,←,left,←,0.5813005999661982,True,8,1,0,12
Y2-S2-054K22,5,460,PS,exp,43,↑,up,↑,0.6008303998969495,True,8,1,0,12
Y2-S2-054K22,5,461,PS,exp,44,↓,up,↑,0.563946699956432,False,8,-1,1,13
Y2-S2-054K22,5,462,PS,exp,47,←,down,↓,0.8056398998014629,False,9,-1,0,13
Y2-S2-054K22,5,463,PS,exp,30,→,right,→,0.6036959001794457,True,10,-1,0,13
Y2-S2-054K22,5,464,PS,exp,28,↑,up,↑,0.500054799951613,True,10,-1,0,13
Y2-S2-054K22,5,465,PS,exp,26,←,up,↑,0.6741037999745458,False,10,-1,0,13
Y2-S2-054K22,5,466,PS,exp,37,↑,up,↑,0.56484379991889,True,11,-1,0,13
Y2-S2-054K22,5,467,PS,exp,42,→,right,→,0.5553189001511782,True,11,-1,0,13
Y2-S2-054K22,5,468,PS,exp,34,←,left,←,0.5267111000139266,True,11,1,1,14
Y2-S2-054K22,5,469,PS,exp,35,→,right,→,0.6140657002106309,True,10,1,0,14
Y2-S2-054K22,5,470,PS,exp,38,↓,up,↑,0.6650465000420809,False,10,-1,1,15
Y2-S2-054K22,5,471,PS,exp,49,←,left,←,0.6358346999622881,True,11,-1,0,15
Y2-S2-054K22,5,472,PS,exp,29,↓,down,↓,0.7595485001802444,True,11,-1,0,15
Y2-S2-054K22,5,473,PS,exp,35,→,right,→,0.4592816000804305,True,11,1,1,16
Y2-S2-054K22,6,474,AS,intra_train,26,←,left,←,0.9857461000792682,True,28,-,-,-
Y2-S2-054K22,6,475,AS,intra_train,45,↓,down,↓,0.6857590000145137,True,28,-,-,-
Y2-S2-054K22,6,476,AS,intra_train,46,←,left,←,0.7147550999652594,True,28,-,-,-
Y2-S2-054K22,6,477,AS,intra_train,25,→,right,→,0.7885304999072105,True,28,-,-,-
Y2-S2-054K22,6,478,AS,intra_train,46,↓,down,↓,0.695617999881506,True,28,-,-,-
Y2-S2-054K22,6,479,AS,exp,26,←,left,←,0.5475262999534607,True,19,0,0,0
Y2-S2-054K22,6,480,AS,exp,34,↑,up,↑,1.1309370000381023,True,19,0,0,0
Y2-S2-054K22,6,481,AS,exp,29,←,left,←,1.5342874999623746,True,19,1,0,0
Y2-S2-054K22,6,482,AS,exp,45,→,right,→,0.502909200033173,True,18,1,0,0
Y2-S2-054K22,6,483,AS,exp,33,↓,down,↓,0.656935199862346,True,18,1,0,0
Y2-S2-054K22,6,484,AS,exp,36,←,left,←,0.8367303998675197,True,18,1,0,0
Y2-S2-054K22,6,485,AS,exp,48,↓,down,↓,0.7198948999866843,True,17,1,0,0
Y2-S2-054K22,6,486,AS,exp,33,→,right,→,0.79315340006724,True,17,1,0,0
Y2-S2-054K22,6,487,AS,exp,28,←,left,←,0.611791200004518,True,17,1,0,0
Y2-S2-054K22,6,488,AS,exp,41,→,down,↓,0.9673200000543147,False,16,-1,1,1
Y2-S2-054K22,6,489,AS,exp,30,↓,down,↓,0.7353184998501092,True,17,-1,0,1
Y2-S2-054K22,6,490,AS,exp,29,↑,up,↑,0.5939491000026464,True,17,-1,0,1
Y2-S2-054K22,6,491,AS,exp,50,↓,down,↓,0.8324799998663366,True,17,1,1,2
Y2-S2-054K22,6,492,AS,exp,34,↑,down,↓,0.6934716000687331,False,16,-1,1,3
Y2-S2-054K22,6,493,AS,exp,29,→,right,→,0.6932275001890957,True,17,-1,0,3
Y2-S2-054K22,6,494,AS,exp,25,↑,up,↑,0.5547408000566065,True,17,-1,0,3
Y2-S2-054K22,6,495,AS,exp,32,→,right,→,0.5495778999757022,True,17,1,1,4
Y2-S2-054K22,6,496,AS,exp,36,↓,down,↓,0.9252743998076767,True,16,1,0,4
Y2-S2-054K22,6,497,AS,exp,27,↑,up,↑,0.7581301000900567,True,16,1,0,4
Y2-S2-054K22,6,498,AS,exp,44,↓,down,↓,0.6796619999222457,True,16,1,0,4
Y2-S2-054K22,6,499,AS,exp,27,→,right,→,0.5029277000576258,True,15,1,0,4
Y2-S2-054K22,6,500,AS,exp,47,↓,down,↓,0.6416191000025719,True,15,1,0,4
Y2-S2-054K22,6,501,AS,exp,47,↑,up,↑,0.4696931999642402,True,15,1,0,4
Y2-S2-054K22,6,502,AS,exp,50,←,left,←,0.779302999842912,True,14,1,0,4
Y2-S2-054K22,6,503,AS,exp,28,↓,down,↓,0.7306915000081062,True,14,1,0,4
Y2-S2-054K22,6,504,AS,exp,50,←,left,←,0.7797270999290049,True,14,1,0,4
Y2-S2-054K22,6,505,AS,exp,37,↑,up,↑,0.5241473000496626,True,13,1,0,4
Y2-S2-054K22,6,506,AS,exp,36,→,left,←,0.754479099996388,False,13,-1,1,5
Y2-S2-054K22,6,507,AS,exp,44,↓,right,→,0.9609968001022935,False,14,-1,0,5
Y2-S2-054K22,6,508,AS,exp,34,←,left,←,0.5308866000268608,True,15,-1,0,5
Y2-S2-054K22,6,509,AS,exp,38,↑,down,↓,0.9376415000297129,False,15,-1,0,5
Y2-S2-054K22,6,510,AS,exp,26,↓,up,↑,0.7939563000109047,False,16,-1,0,5
Y2-S2-054K22,6,511,AS,exp,50,↑,up,↑,0.5243615000508726,True,17,-1,0,5
Y2-S2-054K22,6,512,AS,exp,35,←,left,←,0.7754442999139428,True,17,-1,0,5
Y2-S2-054K22,6,513,AS,exp,49,↓,down,↓,0.8484715998638421,True,17,1,1,6
Y2-S2-054K22,6,514,AS,exp,31,→,right,→,0.7558897000271827,True,16,1,0,6
Y2-S2-054K22,6,515,AS,exp,42,↓,down,↓,0.6989745001774281,True,16,1,0,6
Y2-S2-054K22,6,516,AS,exp,25,↑,up,↑,0.5328434999100864,True,16,1,0,6
Y2-S2-054K22,6,517,AS,exp,43,↓,down,↓,0.7063933000899851,True,15,1,0,6
Y2-S2-054K22,6,518,AS,exp,36,→,right,→,0.704028100008145,True,15,1,0,6
Y2-S2-054K22,6,519,AS,exp,46,↓,down,↓,0.718436700059101,True,15,1,0,6
Y2-S2-054K22,6,520,AS,exp,46,→,right,→,0.5700828998815268,True,14,1,0,6
Y2-S2-054K22,6,521,AS,exp,29,↓,down,↓,0.8765513000544161,True,14,1,0,6
Y2-S2-054K22,6,522,AS,exp,33,→,left,←,0.6794736001174897,False,14,-1,1,7
Y2-S2-054K22,6,523,AS,exp,33,↓,down,↓,0.6461014999076724,True,15,-1,0,7
Y2-S2-054K22,6,524,AS,exp,33,↑,down,↓,0.710820899810642,False,15,-1,0,7
Y2-S2-054K22,6,525,AS,exp,28,←,up,↑,1.183037499897182,False,16,-1,0,7
Y2-S2-054K22,6,526,AS,exp,31,→,right,→,0.6139071001671255,True,17,-1,0,7
Y2-S2-054K22,6,527,AS,exp,42,↓,down,↓,0.9388830999378115,True,17,-1,0,7
Y2-S2-054K22,6,528,AS,exp,41,↑,down,↓,1.8709702000487596,False,17,-1,0,7
Y2-S2-054K22,6,529,AS,exp,33,→,right,→,0.6576614999212325,True,18,-1,0,7
Y2-S2-054K22,6,530,AS,exp,44,←,left,←,1.9579182001762092,True,18,-1,0,7
Y2-S2-054K22,6,531,AS,exp,46,↑,up,↑,0.7906850001309067,True,18,1,1,8
Y2-S2-054K22,6,532,AS,exp,41,↓,down,↓,0.7656843001022935,True,17,1,0,8
Y2-S2-054K22,6,533,AS,exp,34,↑,up,↑,0.593038700055331,True,17,1,0,8
Y2-S2-054K22,6,534,AS,exp,34,→,right,→,0.7578557999804616,True,17,1,0,8
Y2-S2-054K22,6,535,AS,exp,41,←,right,→,0.8642261000350118,False,16,-1,1,9
Y2-S2-054K22,6,536,AS,exp,49,↓,down,↓,0.7018066002056003,True,17,-1,0,9
Y2-S2-054K22,6,537,AS,exp,39,↑,up,↑,0.7060728000942618,True,17,-1,0,9
Y2-S2-054K22,6,538,AS,exp,33,↓,down,↓,0.8171502000186592,True,17,1,1,10
Y2-S2-054K22,6,539,AS,exp,43,↑,up,↑,0.5188730999361724,True,16,1,0,10
Y2-S2-054K22,6,540,AS,exp,44,↓,down,↓,0.630057199858129,True,16,1,0,10
Y2-S2-054K22,6,541,AS,exp,43,←,left,←,1.2312083998695016,True,16,1,0,10
Y2-S2-054K22,6,542,AS,exp,27,→,right,→,0.4943967000581324,True,15,1,0,10
Y2-S2-054K22,6,543,AS,exp,45,←,left,←,0.7291307998821139,True,15,1,0,10
Y2-S2-054K22,6,544,AS,exp,42,→,right,→,0.6790892998687923,True,15,1,0,10
Y2-S2-054K22,6,545,AS,exp,36,↓,down,↓,0.5778034999966621,True,14,1,0,10
Y2-S2-054K22,6,546,AS,exp,50,←,left,←,0.6685176999308169,True,14,1,0,10
Y2-S2-054K22,6,547,AS,exp,42,↑,down,↓,0.714468999998644,False,14,-1,1,11
Y2-S2-054K22,6,548,AS,exp,40,←,left,←,0.6934844998177141,True,15,-1,0,11
Y2-S2-054K22,6,549,AS,exp,46,↓,down,↓,0.6138145001605153,True,15,-1,0,11
Y2-S2-054K22,6,550,AS,exp,27,↑,down,↓,0.7228984001558274,False,15,-1,0,11
Y2-S2-054K22,6,551,AS,exp,28,↓,down,↓,0.7756783000659198,True,16,-1,0,11
Y2-S2-054K22,6,552,AS,exp,49,→,right,→,0.6042939000762999,True,16,-1,0,11
Y2-S2-054K22,6,553,AS,exp,36,↑,up,↑,0.8988807999994606,True,16,1,1,12
Y2-S2-054K22,6,554,AS,exp,34,↓,down,↓,0.6260336001869291,True,15,1,0,12
Y2-S2-054K22,6,555,AS,exp,26,↑,up,↑,0.5062074000015855,True,15,1,0,12
Y2-S2-054K22,6,556,AS,exp,27,←,down,↓,0.7336747001390904,False,15,-1,1,13
Y2-S2-054K22,6,557,AS,exp,49,↑,up,↑,0.5904590000864118,True,16,-1,0,13
Y2-S2-054K22,6,558,AS,exp,42,→,right,→,0.7132761999964714,True,16,-1,0,13
Y2-S2-054K22,6,559,AS,exp,48,↑,up,↑,0.5564808999188244,True,16,1,1,14
Y2-S2-054K22,6,560,AS,exp,40,→,up,↑,1.3042600001208484,False,15,-1,1,15
Y2-S2-054K22,6,561,AS,exp,34,↓,down,↓,0.7571199999656528,True,16,-1,0,15
Y2-S2-054K22,6,562,AS,exp,42,→,right,→,0.736572900088504,True,16,-1,0,15
Y2-S2-054K22,6,563,AS,exp,28,↑,up,↑,0.5304737000260502,True,16,1,1,16
Y2-S2-054K22,7,564,AS,intra_train,28,→,right,→,0.8460594997741282,True,28,-,-,-
Y2-S2-054K22,7,565,AS,intra_train,50,←,left,←,0.7678501999471337,True,28,-,-,-
Y2-S2-054K22,7,566,AS,intra_train,46,↓,down,↓,0.7867765999399126,True,28,-,-,-
Y2-S2-054K22,7,567,AS,intra_train,43,←,left,←,0.5839452999643981,True,28,-,-,-
Y2-S2-054K22,7,568,AS,intra_train,43,↑,up,↑,0.5501395000610501,True,28,-,-,-
Y2-S2-054K22,7,569,AS,exp,26,←,left,←,0.5644494998268783,True,19,0,0,0
Y2-S2-054K22,7,570,AS,exp,37,↑,up,↑,0.4986354000866413,True,19,0,0,0
Y2-S2-054K22,7,571,AS,exp,34,←,left,←,0.6057802999857813,True,19,1,0,0
Y2-S2-054K22,7,572,AS,exp,38,↑,up,↑,0.589478500187397,True,18,1,0,0
Y2-S2-054K22,7,573,AS,exp,26,←,left,←,0.7755593999754637,True,18,1,0,0
Y2-S2-054K22,7,574,AS,exp,33,→,right,→,0.6498682999517769,True,18,1,0,0
Y2-S2-054K22,7,575,AS,exp,45,↓,down,↓,0.7799259999301285,True,17,1,0,0
Y2-S2-054K22,7,576,AS,exp,47,↑,down,↓,0.8700355999171734,False,17,-1,1,1
Y2-S2-054K22,7,577,AS,exp,39,→,right,→,0.6017837000545114,True,18,-1,0,1
Y2-S2-054K22,7,578,AS,exp,29,←,left,←,0.6953496998175979,True,18,-1,0,1
Y2-S2-054K22,7,579,AS,exp,45,→,right,→,0.7538323998451233,True,18,1,1,2
Y2-S2-054K22,7,580,AS,exp,27,↓,down,↓,0.8171484000049531,True,17,1,0,2
Y2-S2-054K22,7,581,AS,exp,27,←,left,←,0.8022169000469148,True,17,1,0,2
Y2-S2-054K22,7,582,AS,exp,42,→,right,→,0.5891909999772906,True,17,1,0,2
Y2-S2-054K22,7,583,AS,exp,36,←,left,←,0.48998539987951517,True,16,1,0,2
Y2-S2-054K22,7,584,AS,exp,39,→,left,←,0.8210410000756383,False,16,-1,1,3
Y2-S2-054K22,7,585,AS,exp,48,↓,down,↓,0.6228551000822335,True,17,-1,0,3
Y2-S2-054K22,7,586,AS,exp,50,←,left,←,0.9373166000004858,True,17,-1,0,3
Y2-S2-054K22,7,587,AS,exp,46,↓,down,↓,0.8295360000338405,True,17,1,1,4
Y2-S2-054K22,7,588,AS,exp,43,↑,down,↓,0.7679985999129713,False,16,-1,1,5
Y2-S2-054K22,7,589,AS,exp,32,↓,down,↓,0.6360539998859167,True,17,-1,0,5
Y2-S2-054K22,7,590,AS,exp,42,←,left,←,0.5902835000306368,True,17,-1,0,5
Y2-S2-054K22,7,591,AS,exp,44,→,right,→,0.7599691001232713,True,17,1,1,6
Y2-S2-054K22,7,592,AS,exp,32,←,left,←,0.7409588999580592,True,16,1,0,6
Y2-S2-054K22,7,593,AS,exp,28,→,right,→,0.783014299813658,True,16,1,0,6
Y2-S2-054K22,7,594,AS,exp,26,↑,up,↑,0.7527001001872122,True,16,1,0,6
Y2-S2-054K22,7,595,AS,exp,44,↓,down,↓,0.8375767001416534,True,15,1,0,6
Y2-S2-054K22,7,596,AS,exp,28,↑,down,↓,0.9337599000427872,False,15,-1,1,7
Y2-S2-054K22,7,597,AS,exp,35,←,left,←,0.6563062998466194,True,16,-1,0,7
Y2-S2-054K22,7,598,AS,exp,38,↑,up,↑,0.5933827999979258,True,16,-1,0,7
Y2-S2-054K22,7,599,AS,exp,39,↓,down,↓,0.5860568999778479,True,16,1,1,8
Y2-S2-054K22,7,600,AS,exp,25,→,right,→,0.6936594999860972,True,15,1,0,8
Y2-S2-054K22,7,601,AS,exp,41,↓,down,↓,0.728831100044772,True,15,1,0,8
Y2-S2-054K22,7,602,AS,exp,29,↑,up,↑,0.6250717001967132,True,15,1,0,8
Y2-S2-054K22,7,603,AS,exp,40,↓,down,↓,0.816524000139907,True,14,1,0,8
Y2-S2-054K22,7,604,AS,exp,32,↑,up,↑,0.4900140999816358,True,14,1,0,8
Y2-S2-054K22,7,605,AS,exp,26,↓,down,↓,0.6997672999277711,True,14,1,0,8
Y2-S2-054K22,7,606,AS,exp,50,↑,down,↓,0.8170839000958949,False,13,-1,1,9
Y2-S2-054K22,7,607,AS,exp,39,←,left,←,0.7264517000876367,True,14,-1,0,9
Y2-S2-054K22,7,608,AS,exp,25,↓,down,↓,0.6485882999841124,True,14,-1,0,9
Y2-S2-054K22,7,609,AS,exp,29,→,right,→,0.5623985000420362,True,14,1,1,10
Y2-S2-054K22,7,610,AS,exp,29,↓,down,↓,0.7206978001631796,True,13,1,0,10
Y2-S2-054K22,7,611,AS,exp,49,←,left,←,0.573510600021109,True,13,1,0,10
Y2-S2-054K22,7,612,AS,exp,28,↓,down,↓,0.5686447001062334,True,13,1,0,10
Y2-S2-054K22,7,613,AS,exp,47,←,down,↓,1.5155048999004066,False,12,-1,1,11
Y2-S2-054K22,7,614,AS,exp,48,→,left,←,0.748423800105229,False,13,-1,0,11
Y2-S2-054K22,7,615,AS,exp,40,←,left,←,0.47614670009352267,True,14,-1,0,11
Y2-S2-054K22,7,616,AS,exp,36,→,right,→,0.7364727000240237,True,14,-1,0,11
Y2-S2-054K22,7,617,AS,exp,33,↓,down,↓,0.7711128001101315,True,14,1,1,12
Y2-S2-054K22,7,618,AS,exp,29,↑,up,↑,0.6744710998609662,True,13,1,0,12
Y2-S2-054K22,7,619,AS,exp,27,←,left,←,1.1759132998995483,True,13,1,0,12
Y2-S2-054K22,7,620,AS,exp,35,↑,up,↑,0.8662611998151988,True,13,1,0,12
Y2-S2-054K22,7,621,AS,exp,45,←,left,←,0.7273659999482334,True,12,1,0,12
Y2-S2-054K22,7,622,AS,exp,35,→,left,←,0.725920399883762,False,12,-1,1,13
Y2-S2-054K22,7,623,AS,exp,45,↑,up,↑,0.5775883998721838,True,13,-1,0,13
Y2-S2-054K22,7,624,AS,exp,37,←,left,←,0.6710212000180036,True,13,-1,0,13
Y2-S2-054K22,7,625,AS,exp,32,↑,up,↑,0.5043915000278503,True,13,1,1,14
Y2-S2-054K22,7,626,AS,exp,25,↓,down,↓,0.6718303000088781,True,12,1,0,14
Y2-S2-054K22,7,627,AS,exp,49,↑,up,↑,0.5265731001272798,True,12,1,0,14
Y2-S2-054K22,7,628,AS,exp,25,↓,down,↓,0.8434220999479294,True,12,1,0,14
Y2-S2-054K22,7,629,AS,exp,33,←,left,←,0.6603614001069218,True,11,1,0,14
Y2-S2-054K22,7,630,AS,exp,30,↓,up,↑,0.6319322001654655,False,11,-1,1,15
Y2-S2-054K22,7,631,AS,exp,38,↑,up,↑,0.5327415999490768,True,12,-1,0,15
Y2-S2-054K22,7,632,AS,exp,33,→,left,←,0.6758658001199365,False,12,-1,0,15
Y2-S2-054K22,7,633,AS,exp,35,↓,down,↓,0.9146618000231683,True,13,-1,0,15
Y2-S2-054K22,7,634,AS,exp,37,←,left,←,0.4966861999128014,True,13,-1,0,15
Y2-S2-054K22,7,635,AS,exp,45,→,left,←,0.7029317999258637,False,13,-1,0,15
Y2-S2-054K22,7,636,AS,exp,46,←,right,→,0.9308853000402451,False,14,-1,0,15
Y2-S2-054K22,7,637,AS,exp,27,↑,up,↑,0.6375849000178277,True,15,-1,0,15
Y2-S2-054K22,7,638,AS,exp,38,→,right,→,0.7997381000313908,True,15,-1,0,15
Y2-S2-054K22,7,639,AS,exp,31,↑,down,↓,0.8429282000288367,False,15,-1,0,15
Y2-S2-054K22,7,640,AS,exp,50,→,right,→,0.8541647999081761,True,16,-1,0,15
Y2-S2-054K22,7,641,AS,exp,31,↓,down,↓,0.7761210000608116,True,16,-1,0,15
Y2-S2-054K22,7,642,AS,exp,39,←,left,←,0.7409101999364793,True,16,1,1,16
Y2-S2-054K22,8,643,PS,intra_train,42,→,left,←,0.8478364001493901,False,18,-,-,-
Y2-S2-054K22,8,644,PS,intra_train,35,↓,down,↓,0.724416600074619,True,18,-,-,-
Y2-S2-054K22,8,645,PS,intra_train,36,←,left,←,0.7294985000044107,True,18,-,-,-
Y2-S2-054K22,8,646,PS,intra_train,25,→,right,→,0.5847785999067128,True,18,-,-,-
Y2-S2-054K22,8,647,PS,intra_train,39,←,left,←,1.3659659000113606,True,18,-,-,-
Y2-S2-054K22,8,648,PS,exp,32,↓,no_key,no_letter,-1.0,False,12,-1,0,0
Y2-S2-054K22,8,649,PS,exp,36,↑,up,↑,0.9088148998562247,True,13,-1,0,0
Y2-S2-054K22,8,650,PS,exp,26,↓,down,↓,0.7189236001577228,True,13,-1,0,0
Y2-S2-054K22,8,651,PS,exp,47,→,right,→,0.5939568001776934,True,13,1,1,1
Y2-S2-054K22,8,652,PS,exp,27,↓,down,↓,0.6449110999237746,True,12,1,0,1
Y2-S2-054K22,8,653,PS,exp,39,↑,up,↑,0.5123002999462187,True,12,1,0,1
Y2-S2-054K22,8,654,PS,exp,33,←,left,←,0.4707225998863578,True,12,1,0,1
Y2-S2-054K22,8,655,PS,exp,28,→,right,→,1.0280476999469101,True,11,1,0,1
Y2-S2-054K22,8,656,PS,exp,29,↑,up,↑,0.7212874998804182,True,11,1,0,1
Y2-S2-054K22,8,657,PS,exp,50,←,left,←,0.5637187999673188,True,11,1,0,1
Y2-S2-054K22,8,658,PS,exp,31,→,right,→,0.5385296999011189,True,10,1,0,1
Y2-S2-054K22,8,659,PS,exp,41,↑,up,↑,0.5341837999876589,True,10,1,0,1
Y2-S2-054K22,8,660,PS,exp,27,↓,down,↓,0.7112594000063837,True,10,1,0,1
Y2-S2-054K22,8,661,PS,exp,46,↑,up,↑,0.5635661999695003,True,9,1,0,1
Y2-S2-054K22,8,662,PS,exp,41,←,left,←,0.5825846998486668,True,9,1,0,1
Y2-S2-054K22,8,663,PS,exp,49,↓,right,→,0.8516953999642283,False,9,-1,1,2
Y2-S2-054K22,8,664,PS,exp,39,→,right,→,0.6551445000804961,True,10,-1,0,2
Y2-S2-054K22,8,665,PS,exp,38,↑,up,↑,0.5461021999362856,True,10,-1,0,2
Y2-S2-054K22,8,666,PS,exp,49,↓,down,↓,0.8578165001235902,True,10,1,1,3
Y2-S2-054K22,8,667,PS,exp,50,↑,up,↑,0.5099849000107497,True,9,1,0,3
Y2-S2-054K22,8,668,PS,exp,35,↓,down,↓,0.6624124001245946,True,9,1,0,3
Y2-S2-054K22,8,669,PS,exp,30,←,left,←,0.5354450999293476,True,9,1,0,3
Y2-S2-054K22,8,670,PS,exp,46,→,left,←,0.8374248000327498,False,8,-1,1,4
Y2-S2-054K22,8,671,PS,exp,29,↑,up,↑,0.9991924001369625,True,9,-1,0,4
Y2-S2-054K22,8,672,PS,exp,40,↓,down,↓,0.611306699924171,True,9,-1,0,4
Y2-S2-054K22,8,673,PS,exp,50,→,right,→,0.6959602001588792,True,9,1,1,5
Y2-S2-054K22,8,674,PS,exp,50,←,left,←,0.5606674000155181,True,8,1,0,5
Y2-S2-054K22,8,675,PS,exp,46,→,right,→,1.1640739999711514,True,8,1,0,5
Y2-S2-054K22,8,676,PS,exp,41,↓,down,↓,0.7937723000068218,True,8,1,0,5
Y2-S2-054K22,8,677,PS,exp,43,→,down,↓,0.8781675999052823,False,7,-1,1,6
Y2-S2-054K22,8,678,PS,exp,41,←,left,←,0.5377269999589771,True,8,-1,0,6
Y2-S2-054K22,8,679,PS,exp,49,→,right,→,1.309889999916777,True,8,-1,0,6
Y2-S2-054K22,8,680,PS,exp,30,←,no_key,no_letter,-1.0,False,8,-1,0,6
Y2-S2-054K22,8,681,PS,exp,37,↑,up,↑,0.7016918000299484,True,9,-1,0,6
Y2-S2-054K22,8,682,PS,exp,32,↓,down,↓,0.6592470000032336,True,9,-1,0,6
Y2-S2-054K22,8,683,PS,exp,25,→,right,→,0.5196835999377072,True,9,1,1,7
Y2-S2-054K22,8,684,PS,exp,29,←,down,↓,0.9031249000690877,False,8,-1,1,8
Y2-S2-054K22,8,685,PS,exp,36,↑,up,↑,0.4765576000791043,True,9,-1,0,8
Y2-S2-054K22,8,686,PS,exp,47,←,left,←,0.6277828000020236,True,9,-1,0,8
Y2-S2-054K22,8,687,PS,exp,31,↑,up,↑,0.5465472000651062,True,9,1,1,9
Y2-S2-054K22,8,688,PS,exp,48,←,down,↓,0.53386429999955,False,8,-1,1,10
Y2-S2-054K22,8,689,PS,exp,42,→,right,→,0.8021202001255006,True,9,-1,0,10
Y2-S2-054K22,8,690,PS,exp,27,↓,up,↑,0.6686665001325309,False,9,-1,0,10
Y2-S2-054K22,8,691,PS,exp,48,→,right,→,0.6495542998891324,True,10,-1,0,10
Y2-S2-054K22,8,692,PS,exp,27,↑,up,↑,0.529599400004372,True,10,-1,0,10
Y2-S2-054K22,8,693,PS,exp,37,↓,down,↓,0.6626544999890029,True,10,1,1,11
Y2-S2-054K22,8,694,PS,exp,47,↑,up,↑,0.5228088998701423,True,9,1,0,11
Y2-S2-054K22,8,695,PS,exp,48,↓,down,↓,0.8319548000581563,True,9,1,0,11
Y2-S2-054K22,8,696,PS,exp,29,→,right,→,0.7274528001435101,True,9,1,0,11
Y2-S2-054K22,8,697,PS,exp,35,↑,up,↑,0.49314329982735217,True,8,1,0,11
Y2-S2-054K22,8,698,PS,exp,43,→,up,↑,0.5069499998353422,False,8,-1,1,12
Y2-S2-054K22,8,699,PS,exp,40,↓,down,↓,0.6940765001345426,True,9,-1,0,12
Y2-S2-054K22,8,700,PS,exp,50,↑,down,↓,0.6812971001490951,False,9,-1,0,12
Y2-S2-054K22,8,701,PS,exp,25,↓,down,↓,0.59104899992235,True,10,-1,0,12
Y2-S2-054K22,8,702,PS,exp,37,→,right,→,0.4704820001497865,True,10,-1,0,12
Y2-S2-054K22,8,703,PS,exp,26,↑,left,←,1.1175590001512319,False,10,-1,0,12
Y2-S2-054K22,8,704,PS,exp,38,↓,down,↓,0.5185174001380801,True,11,-1,0,12
Y2-S2-054K22,8,705,PS,exp,36,←,left,←,0.7287928001023829,True,11,-1,0,12
Y2-S2-054K22,8,706,PS,exp,43,↑,down,↓,1.0118289000820369,False,11,-1,0,12
Y2-S2-054K22,8,707,PS,exp,39,→,right,→,0.5196992999408394,True,12,-1,0,12
Y2-S2-054K22,8,708,PS,exp,34,↓,down,↓,0.9702222000341862,True,12,-1,0,12
Y2-S2-054K22,8,709,PS,exp,48,↑,up,↑,1.0402699999976903,True,12,1,1,13
Y2-S2-054K22,8,710,PS,exp,30,↓,down,↓,0.7026831000111997,True,11,1,0,13
Y2-S2-054K22,8,711,PS,exp,50,↑,up,↑,0.7055520999711007,True,11,1,0,13
Y2-S2-054K22,8,712,PS,exp,30,←,left,←,0.7346005998551846,True,11,1,0,13
Y2-S2-054K22,8,713,PS,exp,32,↑,up,↑,1.2919842000119388,True,10,1,0,13
Y2-S2-054K22,8,714,PS,exp,37,→,right,→,0.667183700017631,True,10,1,0,13
Y2-S2-054K22,8,715,PS,exp,36,↑,up,↑,0.6192606000695378,True,10,1,0,13
Y2-S2-054K22,8,716,PS,exp,36,←,left,←,0.7174698000308126,True,9,1,0,13
Y2-S2-054K22,8,717,PS,exp,50,↑,up,↑,0.8095390000380576,True,9,1,0,13
Y2-S2-054K22,8,718,PS,exp,31,←,left,←,0.9091576000209898,True,9,1,0,13
Y2-S2-054K22,8,719,PS,exp,28,→,right,→,0.7254703000653535,True,8,1,0,13
Y2-S2-054K22,8,720,PS,exp,36,↑,up,↑,0.5558237999211997,True,8,1,0,13
Y2-S2-054K22,8,721,PS,exp,39,→,right,→,0.616088000126183,True,8,1,0,13
Y2-S2-054K22,8,722,PS,exp,41,↑,right,→,0.5630208000075072,False,7,-1,1,14
Y2-S2-054K22,8,723,PS,exp,30,→,right,→,0.8521826998330653,True,8,-1,0,14
Y2-S2-054K22,8,724,PS,exp,29,↑,up,↑,1.0494444000069052,True,8,-1,0,14
Y2-S2-054K22,8,725,PS,exp,49,↓,right,→,0.6884683000389487,False,8,-1,0,14
Y2-S2-054K22,8,726,PS,exp,32,↑,up,↑,0.8428392000496387,True,9,-1,0,14
Y2-S2-054K22,8,727,PS,exp,32,←,left,←,0.6136751999147236,True,9,-1,0,14
Y2-S2-054K22,8,728,PS,exp,49,→,right,→,1.0728758999612182,True,9,1,1,15
Y2-S2-054K22,8,729,PS,exp,32,↓,down,↓,0.6243462001439184,True,8,1,0,15
Y2-S2-054K22,8,730,PS,exp,32,↑,up,↑,0.6060672998428345,True,8,1,0,15
Y2-S2-054K22,8,731,PS,exp,50,→,left,←,1.0727208000607789,False,8,-1,1,16
