PART_ID,Block_no,Trial_no,Block_type,Trial_type,CSI,Stim_letter,Key_pressed,letter_choose,Rt,Corr,Stimulus Time,Level,Reversal,Revs_count
Y2-S2-286K22,1,1,PS,train,47,↓,no_key,no_letter,-1.0,False,30,-,-,-
Y2-S2-286K22,1,2,PS,train,32,↑,up,↑,0.697990300017409,True,30,-,-,-
Y2-S2-286K22,1,3,PS,train,33,←,right,→,0.7288989000953734,False,30,-,-,-
Y2-S2-286K22,1,4,PS,train,46,↑,up,↑,1.9637133000651374,True,30,-,-,-
Y2-S2-286K22,1,5,PS,train,49,←,left,←,0.7495272000087425,True,30,-,-,-
Y2-S2-286K22,1,6,PS,train,27,→,right,→,0.6711224999744445,True,30,-,-,-
Y2-S2-286K22,1,7,PS,train,30,←,left,←,0.5840966999530792,True,30,-,-,-
Y2-S2-286K22,1,8,PS,train,33,↓,down,↓,0.9544306000461802,True,30,-,-,-
Y2-S2-286K22,1,9,PS,train,38,↑,no_key,no_letter,-1.0,False,30,-,-,-
Y2-S2-286K22,1,10,PS,train,41,→,right,→,0.8629980999976397,True,30,-,-,-
Y2-S2-286K22,2,11,AS,train,30,↓,down,↓,0.6509309000102803,True,45,-,-,-
Y2-S2-286K22,2,12,AS,train,28,↑,up,↑,1.0990898000309244,True,45,-,-,-
Y2-S2-286K22,2,13,AS,train,33,↓,down,↓,0.6177246000152081,True,45,-,-,-
Y2-S2-286K22,2,14,AS,train,48,→,right,→,0.6848211999749765,True,45,-,-,-
Y2-S2-286K22,2,15,AS,train,48,↑,up,↑,0.6010282000061125,True,45,-,-,-
Y2-S2-286K22,2,16,AS,train,45,←,left,←,0.7008089000592008,True,45,-,-,-
Y2-S2-286K22,2,17,AS,train,38,↓,down,↓,0.6516514000250027,True,45,-,-,-
Y2-S2-286K22,2,18,AS,train,39,↑,up,↑,0.5346384999575093,True,45,-,-,-
Y2-S2-286K22,2,19,AS,train,26,→,right,→,0.6176266999682412,True,45,-,-,-
Y2-S2-286K22,2,20,AS,train,41,↑,up,↑,0.535189300077036,True,45,-,-,-
Y2-S2-286K22,-,21,PS,adaptive,36,↓,down,↓,0.6226001000031829,True,10,0,0,0
Y2-S2-286K22,-,22,PS,adaptive,27,↑,no_key,no_letter,-1.0,False,10,-1,0,0
Y2-S2-286K22,-,23,PS,adaptive,40,←,left,←,0.5758959000231698,True,11,-1,0,0
Y2-S2-286K22,-,24,PS,adaptive,41,↑,up,↑,0.6615288000321016,True,11,-1,0,0
Y2-S2-286K22,-,25,PS,adaptive,43,↓,down,↓,0.7581511000171304,True,11,1,1,1
Y2-S2-286K22,-,26,PS,adaptive,46,→,right,→,0.5758384999353439,True,10,1,0,1
Y2-S2-286K22,-,27,PS,adaptive,42,←,left,←,0.5160262000281364,True,10,1,0,1
Y2-S2-286K22,-,28,PS,adaptive,30,↑,up,↑,0.649759600055404,True,10,1,0,1
Y2-S2-286K22,-,29,PS,adaptive,47,→,down,↓,0.6097564999945462,False,9,-1,1,2
Y2-S2-286K22,-,30,PS,adaptive,37,←,left,←,0.5960796000435948,True,10,-1,0,2
Y2-S2-286K22,-,31,PS,adaptive,39,→,right,→,0.41433439997490495,True,10,-1,0,2
Y2-S2-286K22,-,32,PS,adaptive,41,←,left,←,0.4263637999538332,True,10,1,1,3
Y2-S2-286K22,-,33,PS,adaptive,36,→,right,→,0.45367169997189194,True,9,1,0,3
Y2-S2-286K22,-,34,PS,adaptive,39,←,right,→,0.6250985000515357,False,9,-1,1,4
Y2-S2-286K22,-,35,AS,adaptive,34,↓,down,↓,0.5702747999457642,True,20,0,0,0
Y2-S2-286K22,-,36,AS,adaptive,49,↑,up,↑,0.5286869999254122,True,20,0,0,0
Y2-S2-286K22,-,37,AS,adaptive,31,←,left,←,0.609465999994427,True,20,1,0,0
Y2-S2-286K22,-,38,AS,adaptive,45,↑,up,↑,0.5239945999346673,True,19,1,0,0
Y2-S2-286K22,-,39,AS,adaptive,30,→,right,→,0.5126792000373825,True,19,1,0,0
Y2-S2-286K22,-,40,AS,adaptive,49,↓,down,↓,0.626570799970068,True,19,1,0,0
Y2-S2-286K22,-,41,AS,adaptive,25,←,left,←,1.2169720000820234,True,18,1,0,0
Y2-S2-286K22,-,42,AS,adaptive,44,→,right,→,0.48262160003650934,True,18,1,0,0
Y2-S2-286K22,-,43,AS,adaptive,35,↓,down,↓,0.6253336999798194,True,18,1,0,0
Y2-S2-286K22,-,44,AS,adaptive,29,→,right,→,0.5864337000530213,True,17,1,0,0
Y2-S2-286K22,-,45,AS,adaptive,47,↓,down,↓,0.5609288000268862,True,17,1,0,0
Y2-S2-286K22,-,46,AS,adaptive,30,→,right,→,0.5079908999614418,True,17,1,0,0
Y2-S2-286K22,-,47,AS,adaptive,31,↓,down,↓,0.5631311000324786,True,16,1,0,0
Y2-S2-286K22,-,48,AS,adaptive,30,→,right,→,0.5037039000308141,True,16,1,0,0
Y2-S2-286K22,-,49,AS,adaptive,42,←,left,←,0.474871400045231,True,16,1,0,0
Y2-S2-286K22,-,50,AS,adaptive,38,↓,down,↓,0.515514700091444,True,15,1,0,0
Y2-S2-286K22,-,51,AS,adaptive,42,↑,down,↓,0.5825636999215931,False,15,-1,1,1
Y2-S2-286K22,-,52,AS,adaptive,42,↓,down,↓,0.5250049999449402,True,16,-1,0,1
Y2-S2-286K22,-,53,AS,adaptive,45,→,right,→,0.4717730999691412,True,16,-1,0,1
Y2-S2-286K22,-,54,AS,adaptive,35,↓,down,↓,0.5358029999770224,True,16,1,1,2
Y2-S2-286K22,-,55,AS,adaptive,26,→,right,→,0.4964200999820605,True,15,1,0,2
Y2-S2-286K22,-,56,AS,adaptive,32,↓,down,↓,0.741231800056994,True,15,1,0,2
Y2-S2-286K22,-,57,AS,adaptive,44,←,up,↑,1.0003481999738142,False,15,-1,1,3
Y2-S2-286K22,-,58,AS,adaptive,35,↑,no_key,no_letter,-1.0,False,16,-1,0,3
Y2-S2-286K22,-,59,AS,adaptive,26,→,right,→,1.248265599948354,True,17,-1,0,3
Y2-S2-286K22,-,60,AS,adaptive,38,↑,up,↑,0.5670489999465644,True,17,-1,0,3
Y2-S2-286K22,-,61,AS,adaptive,28,←,left,←,0.48237079998943955,True,17,1,1,4
Y2-S2-286K22,1,62,PS,intra_train,39,↑,up,↑,0.5922821999993175,True,15,-,-,-
Y2-S2-286K22,1,63,PS,intra_train,44,←,left,←,0.5556459999643266,True,15,-,-,-
Y2-S2-286K22,1,64,PS,intra_train,41,↑,up,↑,0.6926190999802202,True,15,-,-,-
Y2-S2-286K22,1,65,PS,intra_train,33,←,left,←,0.48785130004398525,True,15,-,-,-
Y2-S2-286K22,1,66,PS,intra_train,32,→,right,→,0.7314675999805331,True,15,-,-,-
Y2-S2-286K22,1,67,PS,exp,44,←,left,←,0.5057613999815658,True,10,0,0,0
Y2-S2-286K22,1,68,PS,exp,43,→,right,→,0.4725894998991862,True,10,0,0,0
Y2-S2-286K22,1,69,PS,exp,31,←,left,←,0.8545805000467226,True,10,1,0,0
Y2-S2-286K22,1,70,PS,exp,30,↑,up,↑,0.6094677000073716,True,9,1,0,0
Y2-S2-286K22,1,71,PS,exp,27,←,left,←,0.45608829997945577,True,9,1,0,0
Y2-S2-286K22,1,72,PS,exp,27,↓,down,↓,0.6432382999919355,True,9,1,0,0
Y2-S2-286K22,1,73,PS,exp,35,↑,up,↑,0.552485299995169,True,8,1,0,0
Y2-S2-286K22,1,74,PS,exp,38,→,right,→,0.4596229000017047,True,8,1,0,0
Y2-S2-286K22,1,75,PS,exp,25,←,left,←,0.5725962999276817,True,8,1,0,0
Y2-S2-286K22,1,76,PS,exp,42,→,up,↑,0.7135993000119925,False,7,-1,1,1
Y2-S2-286K22,1,77,PS,exp,45,↑,left,←,0.6572820000583306,False,8,-1,0,1
Y2-S2-286K22,1,78,PS,exp,37,↓,down,↓,0.5991869999561459,True,9,-1,0,1
Y2-S2-286K22,1,79,PS,exp,50,→,left,←,0.626043300027959,False,9,-1,0,1
Y2-S2-286K22,1,80,PS,exp,30,↑,up,↑,0.6779068000614643,True,10,-1,0,1
Y2-S2-286K22,1,81,PS,exp,37,←,left,←,0.6153594999341294,True,10,-1,0,1
Y2-S2-286K22,1,82,PS,exp,34,↑,up,↑,0.6075734000187367,True,10,1,1,2
Y2-S2-286K22,1,83,PS,exp,33,↓,down,↓,0.6191534999525174,True,9,1,0,2
Y2-S2-286K22,1,84,PS,exp,32,↑,left,←,0.6604148000478745,False,9,-1,1,3
Y2-S2-286K22,1,85,PS,exp,44,↓,down,↓,0.5075235000113025,True,10,-1,0,3
Y2-S2-286K22,1,86,PS,exp,26,→,left,←,0.9426247999072075,False,10,-1,0,3
Y2-S2-286K22,1,87,PS,exp,36,↑,up,↑,0.49210420006420463,True,11,-1,0,3
Y2-S2-286K22,1,88,PS,exp,45,↓,down,↓,0.5635360999731347,True,11,-1,0,3
Y2-S2-286K22,1,89,PS,exp,49,↑,up,↑,0.7366077000042424,True,11,1,1,4
Y2-S2-286K22,1,90,PS,exp,40,→,right,→,0.6238144999369979,True,10,1,0,4
Y2-S2-286K22,1,91,PS,exp,35,↓,down,↓,0.5850289999507368,True,10,1,0,4
Y2-S2-286K22,1,92,PS,exp,36,↑,up,↑,0.5457918000174686,True,10,1,0,4
Y2-S2-286K22,1,93,PS,exp,37,→,right,→,0.5415530999889597,True,9,1,0,4
Y2-S2-286K22,1,94,PS,exp,39,↓,down,↓,0.5425578999565914,True,9,1,0,4
Y2-S2-286K22,1,95,PS,exp,42,→,right,→,0.4931846000254154,True,9,1,0,4
Y2-S2-286K22,1,96,PS,exp,35,↓,up,↑,0.616081399959512,False,8,-1,1,5
Y2-S2-286K22,1,97,PS,exp,45,→,left,←,0.875863799941726,False,9,-1,0,5
Y2-S2-286K22,1,98,PS,exp,50,↑,up,↑,0.47530289995484054,True,10,-1,0,5
Y2-S2-286K22,1,99,PS,exp,48,←,right,→,0.5166750999633223,False,10,-1,0,5
Y2-S2-286K22,1,100,PS,exp,46,↓,left,←,0.35412180004641414,False,11,-1,0,5
Y2-S2-286K22,1,101,PS,exp,29,↑,up,↑,0.5967617999995127,True,12,-1,0,5
Y2-S2-286K22,1,102,PS,exp,29,←,left,←,0.4927312000654638,True,12,-1,0,5
Y2-S2-286K22,1,103,PS,exp,49,↓,down,↓,0.5917812999105081,True,12,1,1,6
Y2-S2-286K22,1,104,PS,exp,27,→,left,←,0.617612500092946,False,11,-1,1,7
Y2-S2-286K22,1,105,PS,exp,34,↑,up,↑,0.48646310006733984,True,12,-1,0,7
Y2-S2-286K22,1,106,PS,exp,31,←,left,←,0.5359193000476807,True,12,-1,0,7
Y2-S2-286K22,1,107,PS,exp,27,→,right,→,0.7054012999869883,True,12,1,1,8
Y2-S2-286K22,1,108,PS,exp,31,←,left,←,0.49433920008596033,True,11,1,0,8
Y2-S2-286K22,1,109,PS,exp,27,↑,up,↑,0.5431794000323862,True,11,1,0,8
Y2-S2-286K22,1,110,PS,exp,45,→,right,→,0.49648359999991953,True,11,1,0,8
Y2-S2-286K22,1,111,PS,exp,46,↑,up,↑,0.4870644999900833,True,10,1,0,8
Y2-S2-286K22,1,112,PS,exp,45,←,left,←,0.6635260001057759,True,10,1,0,8
Y2-S2-286K22,1,113,PS,exp,30,↑,up,↑,0.5321623000781983,True,10,1,0,8
Y2-S2-286K22,1,114,PS,exp,36,←,left,←,0.8407975999871269,True,9,1,0,8
Y2-S2-286K22,1,115,PS,exp,26,↓,down,↓,0.5843054000288248,True,9,1,0,8
Y2-S2-286K22,1,116,PS,exp,25,←,left,←,0.5362296999664977,True,9,1,0,8
Y2-S2-286K22,1,117,PS,exp,46,↓,down,↓,0.5772357999812812,True,8,1,0,8
Y2-S2-286K22,1,118,PS,exp,48,→,right,→,0.7115794999990612,True,8,1,0,8
Y2-S2-286K22,1,119,PS,exp,31,↓,up,↑,1.464838800020516,False,8,-1,1,9
Y2-S2-286K22,1,120,PS,exp,29,←,left,←,0.896835400024429,True,9,-1,0,9
Y2-S2-286K22,1,121,PS,exp,39,→,right,→,0.7497040000744164,True,9,-1,0,9
Y2-S2-286K22,1,122,PS,exp,39,↑,up,↑,0.6194707999238744,True,9,1,1,10
Y2-S2-286K22,1,123,PS,exp,27,←,right,→,0.7659301999956369,False,8,-1,1,11
Y2-S2-286K22,1,124,PS,exp,31,↓,down,↓,0.8544694999000058,True,9,-1,0,11
Y2-S2-286K22,1,125,PS,exp,44,↑,left,←,0.9604110000655055,False,9,-1,0,11
Y2-S2-286K22,1,126,PS,exp,32,→,right,→,0.5030832999618724,True,10,-1,0,11
Y2-S2-286K22,1,127,PS,exp,35,←,left,←,0.7087693000212312,True,10,-1,0,11
Y2-S2-286K22,1,128,PS,exp,46,→,up,↑,0.6577958000125363,False,10,-1,0,11
Y2-S2-286K22,1,129,PS,exp,40,↓,down,↓,0.5971939000301063,True,11,-1,0,11
Y2-S2-286K22,1,130,PS,exp,43,→,right,→,0.5135860000737011,True,11,-1,0,11
Y2-S2-286K22,1,131,PS,exp,48,←,left,←,0.49896609992720187,True,11,1,1,12
Y2-S2-286K22,1,132,PS,exp,32,↑,up,↑,0.7846492000389844,True,10,1,0,12
Y2-S2-286K22,1,133,PS,exp,31,↓,down,↓,0.6926678000018001,True,10,1,0,12
Y2-S2-286K22,1,134,PS,exp,48,←,left,←,0.6018782000755891,True,10,1,0,12
Y2-S2-286K22,1,135,PS,exp,36,↓,down,↓,0.8823413000209257,True,9,1,0,12
Y2-S2-286K22,1,136,PS,exp,27,→,right,→,0.4582175000105053,True,9,1,0,12
Y2-S2-286K22,1,137,PS,exp,42,←,left,←,0.5261650000466034,True,9,1,0,12
Y2-S2-286K22,1,138,PS,exp,34,↓,right,→,0.5181725999573246,False,8,-1,1,13
Y2-S2-286K22,1,139,PS,exp,46,↑,up,↑,0.5754042000044137,True,9,-1,0,13
Y2-S2-286K22,1,140,PS,exp,27,←,right,→,0.5686900999862701,False,9,-1,0,13
Y2-S2-286K22,1,141,PS,exp,38,↑,up,↑,0.6195551999844611,True,10,-1,0,13
Y2-S2-286K22,1,142,PS,exp,37,←,left,←,0.5630842000246048,True,10,-1,0,13
Y2-S2-286K22,1,143,PS,exp,27,↓,down,↓,0.6549458999652416,True,10,1,1,14
Y2-S2-286K22,1,144,PS,exp,41,→,down,↓,0.8122692999895662,False,9,-1,1,15
Y2-S2-286K22,1,145,PS,exp,50,↓,up,↑,0.7066181999398395,False,10,-1,0,15
Y2-S2-286K22,1,146,PS,exp,28,←,left,←,0.5828873999416828,True,11,-1,0,15
Y2-S2-286K22,1,147,PS,exp,28,→,right,→,0.43464839993976057,True,11,-1,0,15
Y2-S2-286K22,1,148,PS,exp,33,↓,down,↓,0.6420012000016868,True,11,1,1,16
Y2-S2-286K22,2,149,AS,intra_train,25,↑,up,↑,0.5693980000214651,True,24,-,-,-
Y2-S2-286K22,2,150,AS,intra_train,47,←,left,←,0.5007700000423938,True,24,-,-,-
Y2-S2-286K22,2,151,AS,intra_train,32,↓,down,↓,0.5984575999900699,True,24,-,-,-
Y2-S2-286K22,2,152,AS,intra_train,32,↑,up,↑,0.5007366000209004,True,24,-,-,-
Y2-S2-286K22,2,153,AS,intra_train,50,←,left,←,0.574578300002031,True,24,-,-,-
Y2-S2-286K22,2,154,AS,exp,47,↑,up,↑,0.7918699999572709,True,16,0,0,0
Y2-S2-286K22,2,155,AS,exp,30,→,left,←,0.4482065999181941,False,16,-1,0,0
Y2-S2-286K22,2,156,AS,exp,37,←,right,→,0.5365181000670418,False,17,-1,0,0
Y2-S2-286K22,2,157,AS,exp,50,↑,up,↑,0.49936669995076954,True,18,-1,0,0
Y2-S2-286K22,2,158,AS,exp,45,→,right,→,0.5376850999891758,True,18,-1,0,0
Y2-S2-286K22,2,159,AS,exp,25,↑,no_key,no_letter,-1.0,False,18,-1,0,0
Y2-S2-286K22,2,160,AS,exp,39,↓,down,↓,0.5217927999328822,True,19,-1,0,0
Y2-S2-286K22,2,161,AS,exp,38,↑,up,↑,0.36741730000358075,True,19,-1,0,0
Y2-S2-286K22,2,162,AS,exp,37,↓,down,↓,0.5159296999918297,True,19,1,1,1
Y2-S2-286K22,2,163,AS,exp,35,←,no_key,no_letter,-1.0,False,18,-1,1,2
Y2-S2-286K22,2,164,AS,exp,45,↑,up,↑,0.4978850999614224,True,19,-1,0,2
Y2-S2-286K22,2,165,AS,exp,42,→,right,→,0.6958305999869481,True,19,-1,0,2
Y2-S2-286K22,2,166,AS,exp,33,↑,up,↑,0.607329300022684,True,19,1,1,3
Y2-S2-286K22,2,167,AS,exp,35,→,up,↑,0.5323269000509754,False,18,-1,1,4
Y2-S2-286K22,2,168,AS,exp,26,↓,down,↓,0.6869612999726087,True,19,-1,0,4
Y2-S2-286K22,2,169,AS,exp,26,→,right,→,0.5681550999870524,True,19,-1,0,4
Y2-S2-286K22,2,170,AS,exp,40,↑,up,↑,1.287121000001207,True,19,1,1,5
Y2-S2-286K22,2,171,AS,exp,35,↓,down,↓,0.5198570999782532,True,18,1,0,5
Y2-S2-286K22,2,172,AS,exp,48,↑,up,↑,0.4923133000265807,True,18,1,0,5
Y2-S2-286K22,2,173,AS,exp,39,→,right,→,0.5442539999494329,True,18,1,0,5
Y2-S2-286K22,2,174,AS,exp,35,↑,up,↑,0.5255887000821531,True,17,1,0,5
Y2-S2-286K22,2,175,AS,exp,47,→,right,→,0.5099131000461057,True,17,1,0,5
Y2-S2-286K22,2,176,AS,exp,45,←,right,→,0.5091444000136107,False,17,-1,1,6
Y2-S2-286K22,2,177,AS,exp,36,↑,up,↑,0.5186283000512049,True,18,-1,0,6
Y2-S2-286K22,2,178,AS,exp,46,→,right,→,1.1096450000768527,True,18,-1,0,6
Y2-S2-286K22,2,179,AS,exp,43,↓,down,↓,0.629695100011304,True,18,1,1,7
Y2-S2-286K22,2,180,AS,exp,43,→,right,→,0.4833626999752596,True,17,1,0,7
Y2-S2-286K22,2,181,AS,exp,47,↓,down,↓,0.6749954000115395,True,17,1,0,7
Y2-S2-286K22,2,182,AS,exp,36,→,right,→,0.6365510999457911,True,17,1,0,7
Y2-S2-286K22,2,183,AS,exp,45,↑,up,↑,0.5219857000047341,True,16,1,0,7
Y2-S2-286K22,2,184,AS,exp,31,↓,down,↓,0.6137963000219315,True,16,1,0,7
Y2-S2-286K22,2,185,AS,exp,33,→,right,→,0.7058000999968499,True,16,1,0,7
Y2-S2-286K22,2,186,AS,exp,29,↓,down,↓,0.6951668000547215,True,15,1,0,7
Y2-S2-286K22,2,187,AS,exp,37,↑,up,↑,0.7082647999050096,True,15,1,0,7
Y2-S2-286K22,2,188,AS,exp,32,←,left,←,0.6839669999899343,True,15,1,0,7
Y2-S2-286K22,2,189,AS,exp,36,↑,down,↓,0.7971723000518978,False,14,-1,1,8
Y2-S2-286K22,2,190,AS,exp,39,→,right,→,0.7306422999827191,True,15,-1,0,8
Y2-S2-286K22,2,191,AS,exp,25,←,left,←,0.797015400021337,True,15,-1,0,8
Y2-S2-286K22,2,192,AS,exp,45,→,right,→,0.681434000027366,True,15,1,1,9
Y2-S2-286K22,2,193,AS,exp,31,↑,down,↓,0.7130451999837533,False,14,-1,1,10
Y2-S2-286K22,2,194,AS,exp,38,←,up,↑,0.8399673000676557,False,15,-1,0,10
Y2-S2-286K22,2,195,AS,exp,31,↓,down,↓,0.6916505000554025,True,16,-1,0,10
Y2-S2-286K22,2,196,AS,exp,30,←,left,←,0.7201088999863714,True,16,-1,0,10
Y2-S2-286K22,2,197,AS,exp,46,→,right,→,0.8040711999638006,True,16,1,1,11
Y2-S2-286K22,2,198,AS,exp,25,↓,down,↓,0.7561410999624059,True,15,1,0,11
Y2-S2-286K22,2,199,AS,exp,46,↑,down,↓,0.7308040999341756,False,15,-1,1,12
Y2-S2-286K22,2,200,AS,exp,29,←,left,←,0.661617900012061,True,16,-1,0,12
Y2-S2-286K22,2,201,AS,exp,39,↑,up,↑,0.6778950999723747,True,16,-1,0,12
Y2-S2-286K22,2,202,AS,exp,26,←,left,←,0.6673572999425232,True,16,1,1,13
Y2-S2-286K22,2,203,AS,exp,39,→,right,→,0.6097201000666246,True,15,1,0,13
Y2-S2-286K22,2,204,AS,exp,27,←,left,←,0.6241753000067547,True,15,1,0,13
Y2-S2-286K22,2,205,AS,exp,38,→,right,→,0.7046843999996781,True,15,1,0,13
Y2-S2-286K22,2,206,AS,exp,39,↓,down,↓,0.7063724000472575,True,14,1,0,13
Y2-S2-286K22,2,207,AS,exp,29,→,right,→,0.6133837000234053,True,14,1,0,13
Y2-S2-286K22,2,208,AS,exp,35,←,left,←,0.7049448000034317,True,14,1,0,13
Y2-S2-286K22,2,209,AS,exp,31,↓,down,↓,0.7321672999532893,True,13,1,0,13
Y2-S2-286K22,2,210,AS,exp,35,←,left,←,0.674075199989602,True,13,1,0,13
Y2-S2-286K22,2,211,AS,exp,29,↑,right,→,0.7110536000691354,False,13,-1,1,14
Y2-S2-286K22,2,212,AS,exp,48,←,left,←,0.5960669999476522,True,14,-1,0,14
Y2-S2-286K22,2,213,AS,exp,34,↓,down,↓,0.5622629999415949,True,14,-1,0,14
Y2-S2-286K22,2,214,AS,exp,36,↑,up,↑,0.6796676000813022,True,14,1,1,15
Y2-S2-286K22,2,215,AS,exp,43,→,right,→,0.5738507000496611,True,13,1,0,15
Y2-S2-286K22,2,216,AS,exp,40,←,left,←,0.582065699971281,True,13,1,0,15
Y2-S2-286K22,2,217,AS,exp,42,→,right,→,0.5947150000138208,True,13,1,0,15
Y2-S2-286K22,2,218,AS,exp,41,←,left,←,0.7420816000085324,True,12,1,0,15
Y2-S2-286K22,2,219,AS,exp,30,↑,up,↑,0.6278037999290973,True,12,1,0,15
Y2-S2-286K22,2,220,AS,exp,36,←,left,←,0.5974523000186309,True,12,1,0,15
Y2-S2-286K22,2,221,AS,exp,28,↑,up,↑,0.6083907999563962,True,11,1,0,15
Y2-S2-286K22,2,222,AS,exp,40,↓,down,↓,0.6754032999742776,True,11,1,0,15
Y2-S2-286K22,2,223,AS,exp,27,→,right,→,0.5538409999571741,True,11,1,0,15
Y2-S2-286K22,2,224,AS,exp,45,↑,up,↑,0.5019319000421092,True,10,1,0,15
Y2-S2-286K22,2,225,AS,exp,31,↓,down,↓,0.6154880999820307,True,10,1,0,15
Y2-S2-286K22,2,226,AS,exp,39,←,right,→,0.6362866999115795,False,10,-1,1,16
Y2-S2-286K22,3,227,AS,intra_train,31,↑,up,↑,0.5782784000039101,True,24,-,-,-
Y2-S2-286K22,3,228,AS,intra_train,29,↓,down,↓,0.6307014999911189,True,24,-,-,-
Y2-S2-286K22,3,229,AS,intra_train,49,←,left,←,1.4045134000480175,True,24,-,-,-
Y2-S2-286K22,3,230,AS,intra_train,30,→,right,→,0.7570523999165744,True,24,-,-,-
Y2-S2-286K22,3,231,AS,intra_train,37,←,left,←,0.7236150000244379,True,24,-,-,-
Y2-S2-286K22,3,232,AS,exp,43,↑,up,↑,0.6575726999435574,True,16,0,0,0
Y2-S2-286K22,3,233,AS,exp,35,←,left,←,0.4709884999319911,True,16,0,0,0
Y2-S2-286K22,3,234,AS,exp,46,↓,down,↓,0.593040099949576,True,16,1,0,0
Y2-S2-286K22,3,235,AS,exp,37,←,left,←,0.6832802999997512,True,15,1,0,0
Y2-S2-286K22,3,236,AS,exp,30,↓,down,↓,0.515910999965854,True,15,1,0,0
Y2-S2-286K22,3,237,AS,exp,34,↑,down,↓,0.5842815999640152,False,15,-1,1,1
Y2-S2-286K22,3,238,AS,exp,48,←,left,←,0.5073017000686377,True,16,-1,0,1
Y2-S2-286K22,3,239,AS,exp,47,↑,up,↑,0.5003281000535935,True,16,-1,0,1
Y2-S2-286K22,3,240,AS,exp,36,←,left,←,0.7252160999923944,True,16,1,1,2
Y2-S2-286K22,3,241,AS,exp,37,→,right,→,0.7130049000261351,True,15,1,0,2
Y2-S2-286K22,3,242,AS,exp,26,↑,up,↑,0.6922585000284016,True,15,1,0,2
Y2-S2-286K22,3,243,AS,exp,37,→,left,←,0.7472307999851182,False,15,-1,1,3
Y2-S2-286K22,3,244,AS,exp,50,←,left,←,0.6106190000427887,True,16,-1,0,3
Y2-S2-286K22,3,245,AS,exp,48,↑,up,↑,0.6382695999927819,True,16,-1,0,3
Y2-S2-286K22,3,246,AS,exp,30,→,right,→,0.6016406998969615,True,16,1,1,4
Y2-S2-286K22,3,247,AS,exp,34,↓,down,↓,0.6749705000547692,True,15,1,0,4
Y2-S2-286K22,3,248,AS,exp,47,←,right,→,0.8431642999639735,False,15,-1,1,5
Y2-S2-286K22,3,249,AS,exp,50,→,right,→,0.5747852000640705,True,16,-1,0,5
Y2-S2-286K22,3,250,AS,exp,29,↑,up,↑,0.6199017000617459,True,16,-1,0,5
Y2-S2-286K22,3,251,AS,exp,28,←,left,←,0.5183975999243557,True,16,1,1,6
Y2-S2-286K22,3,252,AS,exp,32,↓,down,↓,0.5398572999984026,True,15,1,0,6
Y2-S2-286K22,3,253,AS,exp,45,→,left,←,0.5831891999114305,False,15,-1,1,7
Y2-S2-286K22,3,254,AS,exp,42,↓,down,↓,0.47087469999678433,True,16,-1,0,7
Y2-S2-286K22,3,255,AS,exp,50,↑,up,↑,0.6182678999612108,True,16,-1,0,7
Y2-S2-286K22,3,256,AS,exp,43,→,right,→,0.5168188000097871,True,16,1,1,8
Y2-S2-286K22,3,257,AS,exp,33,←,left,←,0.5632692999206483,True,15,1,0,8
Y2-S2-286K22,3,258,AS,exp,39,↑,up,↑,0.7581598000833765,True,15,1,0,8
Y2-S2-286K22,3,259,AS,exp,49,→,right,→,0.5718285000184551,True,15,1,0,8
Y2-S2-286K22,3,260,AS,exp,41,↓,down,↓,0.6840214000549167,True,14,1,0,8
Y2-S2-286K22,3,261,AS,exp,47,→,right,→,0.6618655000347644,True,14,1,0,8
Y2-S2-286K22,3,262,AS,exp,26,↑,up,↑,0.6593716000206769,True,14,1,0,8
Y2-S2-286K22,3,263,AS,exp,50,→,right,→,0.6664546999381855,True,13,1,0,8
Y2-S2-286K22,3,264,AS,exp,38,←,left,←,0.6107825000071898,True,13,1,0,8
Y2-S2-286K22,3,265,AS,exp,50,↑,up,↑,0.7414334000786766,True,13,1,0,8
Y2-S2-286K22,3,266,AS,exp,28,←,right,→,0.8741221999516711,False,12,-1,1,9
Y2-S2-286K22,3,267,AS,exp,38,→,right,→,0.4752849000506103,True,13,-1,0,9
Y2-S2-286K22,3,268,AS,exp,38,↑,up,↑,0.49406120006460696,True,13,-1,0,9
Y2-S2-286K22,3,269,AS,exp,26,↓,down,↓,0.6366363000124693,True,13,1,1,10
Y2-S2-286K22,3,270,AS,exp,30,←,right,→,0.5864084999775514,False,12,-1,1,11
Y2-S2-286K22,3,271,AS,exp,45,→,left,←,0.5303209000267088,False,13,-1,0,11
Y2-S2-286K22,3,272,AS,exp,39,↓,down,↓,0.6150840000482276,True,14,-1,0,11
Y2-S2-286K22,3,273,AS,exp,38,→,right,→,0.4874540000455454,True,14,-1,0,11
Y2-S2-286K22,3,274,AS,exp,45,↓,down,↓,0.5878782999934629,True,14,1,1,12
Y2-S2-286K22,3,275,AS,exp,33,→,right,→,0.623799700057134,True,13,1,0,12
Y2-S2-286K22,3,276,AS,exp,43,←,right,→,0.6052117000799626,False,13,-1,1,13
Y2-S2-286K22,3,277,AS,exp,45,↑,up,↑,0.5468248999677598,True,14,-1,0,13
Y2-S2-286K22,3,278,AS,exp,47,←,left,←,0.5605238999705762,True,14,-1,0,13
Y2-S2-286K22,3,279,AS,exp,26,→,right,→,0.6315491999266669,True,14,1,1,14
Y2-S2-286K22,3,280,AS,exp,32,↑,up,↑,0.6114156999392435,True,13,1,0,14
Y2-S2-286K22,3,281,AS,exp,39,←,left,←,0.5144031000090763,True,13,1,0,14
Y2-S2-286K22,3,282,AS,exp,25,↓,down,↓,0.5926122000673786,True,13,1,0,14
Y2-S2-286K22,3,283,AS,exp,26,↑,up,↑,0.5156423998996615,True,12,1,0,14
Y2-S2-286K22,3,284,AS,exp,46,↓,down,↓,0.5420318000251427,True,12,1,0,14
Y2-S2-286K22,3,285,AS,exp,32,→,right,→,0.5147550000110641,True,12,1,0,14
Y2-S2-286K22,3,286,AS,exp,28,↓,down,↓,0.5684271999634802,True,11,1,0,14
Y2-S2-286K22,3,287,AS,exp,29,←,left,←,0.6454232999822125,True,11,1,0,14
Y2-S2-286K22,3,288,AS,exp,34,↓,down,↓,0.5971096000866964,True,11,1,0,14
Y2-S2-286K22,3,289,AS,exp,48,↑,up,↑,0.5573889999650419,True,10,1,0,14
Y2-S2-286K22,3,290,AS,exp,48,←,down,↓,0.705305099952966,False,10,-1,1,15
Y2-S2-286K22,3,291,AS,exp,33,↓,down,↓,0.5562684999313205,True,11,-1,0,15
Y2-S2-286K22,3,292,AS,exp,33,↑,up,↑,0.5006263001123443,True,11,-1,0,15
Y2-S2-286K22,3,293,AS,exp,33,→,right,→,0.49011680006515235,True,11,1,1,16
Y2-S2-286K22,4,294,PS,intra_train,33,↑,up,↑,0.612985499901697,True,15,-,-,-
Y2-S2-286K22,4,295,PS,intra_train,42,↓,down,↓,0.6547227000119165,True,15,-,-,-
Y2-S2-286K22,4,296,PS,intra_train,37,↑,up,↑,0.4858292000135407,True,15,-,-,-
Y2-S2-286K22,4,297,PS,intra_train,47,↓,down,↓,0.5048322000075132,True,15,-,-,-
Y2-S2-286K22,4,298,PS,intra_train,45,←,left,←,0.504824300063774,True,15,-,-,-
Y2-S2-286K22,4,299,PS,exp,44,→,left,←,0.569863700075075,False,10,-1,0,0
Y2-S2-286K22,4,300,PS,exp,30,←,left,←,0.5875255999853835,True,11,-1,0,0
Y2-S2-286K22,4,301,PS,exp,50,→,right,→,0.5234642999712378,True,11,-1,0,0
Y2-S2-286K22,4,302,PS,exp,44,↑,down,↓,0.6381842000409961,False,11,-1,0,0
Y2-S2-286K22,4,303,PS,exp,36,↓,down,↓,0.47440110007300973,True,12,-1,0,0
Y2-S2-286K22,4,304,PS,exp,49,↑,up,↑,0.4954287000000477,True,12,-1,0,0
Y2-S2-286K22,4,305,PS,exp,50,↓,down,↓,0.5017206000629812,True,12,1,1,1
Y2-S2-286K22,4,306,PS,exp,39,↑,up,↑,0.6555819000350311,True,11,1,0,1
Y2-S2-286K22,4,307,PS,exp,29,↓,down,↓,0.6161681999219581,True,11,1,0,1
Y2-S2-286K22,4,308,PS,exp,40,←,left,←,0.5300152000272647,True,11,1,0,1
Y2-S2-286K22,4,309,PS,exp,26,↑,up,↑,0.42836689995601773,True,10,1,0,1
Y2-S2-286K22,4,310,PS,exp,47,↓,down,↓,0.5062630000757053,True,10,1,0,1
Y2-S2-286K22,4,311,PS,exp,49,←,left,←,0.5320279999868944,True,10,1,0,1
Y2-S2-286K22,4,312,PS,exp,45,↓,down,↓,0.7037035999819636,True,9,1,0,1
Y2-S2-286K22,4,313,PS,exp,49,↑,up,↑,0.4269378000171855,True,9,1,0,1
Y2-S2-286K22,4,314,PS,exp,32,↓,down,↓,0.6513586000073701,True,9,1,0,1
Y2-S2-286K22,4,315,PS,exp,29,↑,up,↑,0.6092960999812931,True,8,1,0,1
Y2-S2-286K22,4,316,PS,exp,48,→,left,←,0.6133770999731496,False,8,-1,1,2
Y2-S2-286K22,4,317,PS,exp,42,↓,up,↑,0.5075954999774694,False,9,-1,0,2
Y2-S2-286K22,4,318,PS,exp,37,→,right,→,0.4275896999752149,True,10,-1,0,2
Y2-S2-286K22,4,319,PS,exp,27,↓,right,→,0.3556516000535339,False,10,-1,0,2
Y2-S2-286K22,4,320,PS,exp,39,→,right,→,0.8847407000139356,True,11,-1,0,2
Y2-S2-286K22,4,321,PS,exp,44,↓,down,↓,0.5218995000468567,True,11,-1,0,2
Y2-S2-286K22,4,322,PS,exp,31,→,right,→,0.5876190999988467,True,11,1,1,3
Y2-S2-286K22,4,323,PS,exp,42,←,left,←,0.5113961000461131,True,10,1,0,3
Y2-S2-286K22,4,324,PS,exp,43,↑,up,↑,0.5401849000481889,True,10,1,0,3
Y2-S2-286K22,4,325,PS,exp,49,↓,down,↓,0.6691397000104189,True,10,1,0,3
Y2-S2-286K22,4,326,PS,exp,29,←,left,←,0.4773794000502676,True,9,1,0,3
Y2-S2-286K22,4,327,PS,exp,37,↑,up,↑,0.48486490000505,True,9,1,0,3
Y2-S2-286K22,4,328,PS,exp,30,↓,down,↓,0.6669540000148118,True,9,1,0,3
Y2-S2-286K22,4,329,PS,exp,26,←,right,→,0.6994607999222353,False,8,-1,1,4
Y2-S2-286K22,4,330,PS,exp,27,↑,up,↑,0.46917880000546575,True,9,-1,0,4
Y2-S2-286K22,4,331,PS,exp,26,↓,down,↓,0.5981442999327555,True,9,-1,0,4
Y2-S2-286K22,4,332,PS,exp,33,↑,up,↑,0.5319924000650644,True,9,1,1,5
Y2-S2-286K22,4,333,PS,exp,46,↓,down,↓,0.5786224000621587,True,8,1,0,5
Y2-S2-286K22,4,334,PS,exp,32,←,left,←,0.462098199990578,True,8,1,0,5
Y2-S2-286K22,4,335,PS,exp,29,↑,down,↓,0.6021739999996498,False,8,-1,1,6
Y2-S2-286K22,4,336,PS,exp,34,→,down,↓,0.7395516999531537,False,9,-1,0,6
Y2-S2-286K22,4,337,PS,exp,48,↑,left,←,0.527725699939765,False,10,-1,0,6
Y2-S2-286K22,4,338,PS,exp,32,→,right,→,0.5298336000414565,True,11,-1,0,6
Y2-S2-286K22,4,339,PS,exp,38,←,left,←,0.4863394999410957,True,11,-1,0,6
Y2-S2-286K22,4,340,PS,exp,38,↑,up,↑,0.5964396999916062,True,11,1,1,7
Y2-S2-286K22,4,341,PS,exp,38,↓,up,↑,0.6130243999650702,False,10,-1,1,8
Y2-S2-286K22,4,342,PS,exp,36,←,left,←,0.438488700077869,True,11,-1,0,8
Y2-S2-286K22,4,343,PS,exp,36,↑,up,↑,0.521047699963674,True,11,-1,0,8
Y2-S2-286K22,4,344,PS,exp,41,↓,down,↓,0.628121200017631,True,11,1,1,9
Y2-S2-286K22,4,345,PS,exp,27,←,left,←,0.5242017999989912,True,10,1,0,9
Y2-S2-286K22,4,346,PS,exp,27,→,up,↑,0.569699399988167,False,10,-1,1,10
Y2-S2-286K22,4,347,PS,exp,33,↑,down,↓,0.7905678999377415,False,11,-1,0,10
Y2-S2-286K22,4,348,PS,exp,49,←,left,←,0.5045909000327811,True,12,-1,0,10
Y2-S2-286K22,4,349,PS,exp,27,→,right,→,0.4259624000405893,True,12,-1,0,10
Y2-S2-286K22,4,350,PS,exp,29,↓,down,↓,0.5489909000461921,True,12,1,1,11
Y2-S2-286K22,4,351,PS,exp,33,←,left,←,0.4413437999319285,True,11,1,0,11
Y2-S2-286K22,4,352,PS,exp,45,→,right,→,0.4502557999221608,True,11,1,0,11
Y2-S2-286K22,4,353,PS,exp,27,←,right,→,0.4308822000166401,False,11,-1,1,12
Y2-S2-286K22,4,354,PS,exp,26,↓,down,↓,0.5914940999355167,True,12,-1,0,12
Y2-S2-286K22,4,355,PS,exp,42,→,right,→,0.4318220999557525,True,12,-1,0,12
Y2-S2-286K22,4,356,PS,exp,37,↓,down,↓,0.6302779000252485,True,12,1,1,13
Y2-S2-286K22,4,357,PS,exp,27,←,left,←,0.918474700069055,True,11,1,0,13
Y2-S2-286K22,4,358,PS,exp,44,↑,up,↑,0.5193725000135601,True,11,1,0,13
Y2-S2-286K22,4,359,PS,exp,44,↓,down,↓,0.5762201000470668,True,11,1,0,13
Y2-S2-286K22,4,360,PS,exp,26,↑,up,↑,0.5628258000360802,True,10,1,0,13
Y2-S2-286K22,4,361,PS,exp,29,→,right,→,0.4859530000248924,True,10,1,0,13
Y2-S2-286K22,4,362,PS,exp,28,↓,down,↓,0.5598735000239685,True,10,1,0,13
Y2-S2-286K22,4,363,PS,exp,44,→,right,→,0.47532019997015595,True,9,1,0,13
Y2-S2-286K22,4,364,PS,exp,28,↓,down,↓,0.5979209000943229,True,9,1,0,13
Y2-S2-286K22,4,365,PS,exp,48,←,left,←,0.4990663999924436,True,9,1,0,13
Y2-S2-286K22,4,366,PS,exp,38,→,left,←,0.5016942999791354,False,8,-1,1,14
Y2-S2-286K22,4,367,PS,exp,40,↓,down,↓,0.5529832999454811,True,9,-1,0,14
Y2-S2-286K22,4,368,PS,exp,41,←,left,←,0.5221220999956131,True,9,-1,0,14
Y2-S2-286K22,4,369,PS,exp,29,→,right,→,0.47225500002969056,True,9,1,1,15
Y2-S2-286K22,4,370,PS,exp,45,←,left,←,0.41055589995812625,True,8,1,0,15
Y2-S2-286K22,4,371,PS,exp,39,↓,down,↓,0.6495871999068186,True,8,1,0,15
Y2-S2-286K22,4,372,PS,exp,39,↑,up,↑,0.5773284999886528,True,8,1,0,15
Y2-S2-286K22,4,373,PS,exp,38,↓,down,↓,0.5289832999696955,True,7,1,0,15
Y2-S2-286K22,4,374,PS,exp,29,→,right,→,0.5702800999861211,True,7,1,0,15
Y2-S2-286K22,4,375,PS,exp,49,↑,up,↑,0.4564710999839008,True,7,1,0,15
Y2-S2-286K22,4,376,PS,exp,49,←,left,←,0.4595147999934852,True,6,1,0,15
Y2-S2-286K22,4,377,PS,exp,28,→,left,←,0.5017320999177173,False,6,-1,1,16
Y2-S2-286K22,5,378,PS,intra_train,41,↓,down,↓,0.5883085000095889,True,15,-,-,-
Y2-S2-286K22,5,379,PS,intra_train,28,←,left,←,0.5321729000424966,True,15,-,-,-
Y2-S2-286K22,5,380,PS,intra_train,36,↓,down,↓,0.6405937999952585,True,15,-,-,-
Y2-S2-286K22,5,381,PS,intra_train,28,←,left,←,0.683319199946709,True,15,-,-,-
Y2-S2-286K22,5,382,PS,intra_train,33,↓,down,↓,0.6777658000355586,True,15,-,-,-
Y2-S2-286K22,5,383,PS,exp,35,←,up,↑,0.7338646999560297,False,10,-1,0,0
Y2-S2-286K22,5,384,PS,exp,28,↑,up,↑,0.9521949000190943,True,11,-1,0,0
Y2-S2-286K22,5,385,PS,exp,28,↓,down,↓,0.4505121000111103,True,11,-1,0,0
Y2-S2-286K22,5,386,PS,exp,48,→,right,→,0.45976350002456456,True,11,1,1,1
Y2-S2-286K22,5,387,PS,exp,37,↑,up,↑,0.4741646000184119,True,10,1,0,1
Y2-S2-286K22,5,388,PS,exp,47,↓,down,↓,0.44858149997889996,True,10,1,0,1
Y2-S2-286K22,5,389,PS,exp,33,←,left,←,0.5216329999966547,True,10,1,0,1
Y2-S2-286K22,5,390,PS,exp,31,↓,right,→,0.5982956999214366,False,9,-1,1,2
Y2-S2-286K22,5,391,PS,exp,40,←,left,←,0.43026709998957813,True,10,-1,0,2
Y2-S2-286K22,5,392,PS,exp,44,↓,down,↓,0.6078188000246882,True,10,-1,0,2
Y2-S2-286K22,5,393,PS,exp,45,↑,up,↑,0.5096010999986902,True,10,1,1,3
Y2-S2-286K22,5,394,PS,exp,25,→,right,→,0.5684008999960497,True,9,1,0,3
Y2-S2-286K22,5,395,PS,exp,34,↑,up,↑,0.6545991000020877,True,9,1,0,3
Y2-S2-286K22,5,396,PS,exp,50,←,left,←,0.4739348000148311,True,9,1,0,3
Y2-S2-286K22,5,397,PS,exp,39,↓,down,↓,0.5450664999661967,True,8,1,0,3
Y2-S2-286K22,5,398,PS,exp,42,→,right,→,0.4966965999919921,True,8,1,0,3
Y2-S2-286K22,5,399,PS,exp,27,↑,left,←,0.6111196000128984,False,8,-1,1,4
Y2-S2-286K22,5,400,PS,exp,26,→,left,←,0.5635965999681503,False,9,-1,0,4
Y2-S2-286K22,5,401,PS,exp,37,←,left,←,0.4087478000437841,True,10,-1,0,4
Y2-S2-286K22,5,402,PS,exp,49,↓,down,↓,0.4849600000306964,True,10,-1,0,4
Y2-S2-286K22,5,403,PS,exp,45,→,up,↑,0.5478243998950347,False,10,-1,0,4
Y2-S2-286K22,5,404,PS,exp,33,←,left,←,0.5996770000783727,True,11,-1,0,4
Y2-S2-286K22,5,405,PS,exp,44,→,right,→,0.5784110000822693,True,11,-1,0,4
Y2-S2-286K22,5,406,PS,exp,44,↓,down,↓,0.6200982000445947,True,11,1,1,5
Y2-S2-286K22,5,407,PS,exp,46,←,left,←,0.6229477000888437,True,10,1,0,5
Y2-S2-286K22,5,408,PS,exp,48,↓,down,↓,0.5621175999986008,True,10,1,0,5
Y2-S2-286K22,5,409,PS,exp,29,↑,up,↑,0.5778653000015765,True,10,1,0,5
Y2-S2-286K22,5,410,PS,exp,36,←,left,←,0.5731294000288472,True,9,1,0,5
Y2-S2-286K22,5,411,PS,exp,31,↓,down,↓,0.49293850001413375,True,9,1,0,5
Y2-S2-286K22,5,412,PS,exp,30,↑,down,↓,0.7626016000285745,False,9,-1,1,6
Y2-S2-286K22,5,413,PS,exp,47,→,right,→,0.5187475000275299,True,10,-1,0,6
Y2-S2-286K22,5,414,PS,exp,49,←,left,←,0.4007885999744758,True,10,-1,0,6
Y2-S2-286K22,5,415,PS,exp,31,↑,up,↑,0.40759479999542236,True,10,1,1,7
Y2-S2-286K22,5,416,PS,exp,36,↓,down,↓,0.5323010999709368,True,9,1,0,7
Y2-S2-286K22,5,417,PS,exp,48,↑,up,↑,0.3866373000200838,True,9,1,0,7
Y2-S2-286K22,5,418,PS,exp,29,→,left,←,0.46256809995975345,False,9,-1,1,8
Y2-S2-286K22,5,419,PS,exp,31,←,left,←,0.5991680000443012,True,10,-1,0,8
Y2-S2-286K22,5,420,PS,exp,38,↑,up,↑,0.634466499905102,True,10,-1,0,8
Y2-S2-286K22,5,421,PS,exp,35,↓,down,↓,0.5518111999845132,True,10,1,1,9
Y2-S2-286K22,5,422,PS,exp,29,→,right,→,0.4320329000474885,True,9,1,0,9
Y2-S2-286K22,5,423,PS,exp,37,↓,down,↓,0.4951567000243813,True,9,1,0,9
Y2-S2-286K22,5,424,PS,exp,25,←,left,←,0.4635268000420183,True,9,1,0,9
Y2-S2-286K22,5,425,PS,exp,46,↓,down,↓,0.6029833999928087,True,8,1,0,9
Y2-S2-286K22,5,426,PS,exp,47,←,left,←,0.42724039999302477,True,8,1,0,9
Y2-S2-286K22,5,427,PS,exp,25,→,right,→,0.49862410000059754,True,8,1,0,9
Y2-S2-286K22,5,428,PS,exp,47,↑,up,↑,0.42032069992274046,True,7,1,0,9
Y2-S2-286K22,5,429,PS,exp,39,←,left,←,0.48826110002119094,True,7,1,0,9
Y2-S2-286K22,5,430,PS,exp,48,↓,down,↓,0.5867857000557706,True,7,1,0,9
Y2-S2-286K22,5,431,PS,exp,45,→,right,→,0.4922359000192955,True,6,1,0,9
Y2-S2-286K22,5,432,PS,exp,41,↓,left,←,0.36668610002379864,False,6,-1,1,10
Y2-S2-286K22,5,433,PS,exp,41,←,down,↓,0.6232637000503018,False,7,-1,0,10
Y2-S2-286K22,5,434,PS,exp,32,↑,up,↑,0.3885495000286028,True,8,-1,0,10
Y2-S2-286K22,5,435,PS,exp,37,↓,down,↓,0.5544956000521779,True,8,-1,0,10
Y2-S2-286K22,5,436,PS,exp,29,↑,left,←,0.6384977999841794,False,8,-1,0,10
Y2-S2-286K22,5,437,PS,exp,41,↓,down,↓,0.5610552000580356,True,9,-1,0,10
Y2-S2-286K22,5,438,PS,exp,45,→,right,→,0.4848762000910938,True,9,-1,0,10
Y2-S2-286K22,5,439,PS,exp,27,←,left,←,0.4279557999689132,True,9,1,1,11
Y2-S2-286K22,5,440,PS,exp,35,→,right,→,0.40508389996830374,True,8,1,0,11
Y2-S2-286K22,5,441,PS,exp,44,←,left,←,0.6739320999477059,True,8,1,0,11
Y2-S2-286K22,5,442,PS,exp,50,↑,down,↓,0.37900810001883656,False,8,-1,1,12
Y2-S2-286K22,5,443,PS,exp,37,←,left,←,0.4322654999559745,True,9,-1,0,12
Y2-S2-286K22,5,444,PS,exp,33,↓,down,↓,1.1515140999108553,True,9,-1,0,12
Y2-S2-286K22,5,445,PS,exp,40,←,down,↓,0.5802521000150591,False,9,-1,0,12
Y2-S2-286K22,5,446,PS,exp,28,↓,down,↓,0.5318006000015885,True,10,-1,0,12
Y2-S2-286K22,5,447,PS,exp,37,→,right,→,0.4667102999519557,True,10,-1,0,12
Y2-S2-286K22,5,448,PS,exp,40,↓,down,↓,0.5566869999747723,True,10,1,1,13
Y2-S2-286K22,5,449,PS,exp,37,→,right,→,0.5392501000314951,True,9,1,0,13
Y2-S2-286K22,5,450,PS,exp,41,↓,down,↓,0.5948475999757648,True,9,1,0,13
Y2-S2-286K22,5,451,PS,exp,46,↑,up,↑,0.5468081999570131,True,9,1,0,13
Y2-S2-286K22,5,452,PS,exp,25,↓,down,↓,0.6846886000130326,True,8,1,0,13
Y2-S2-286K22,5,453,PS,exp,40,←,left,←,0.5005908999592066,True,8,1,0,13
Y2-S2-286K22,5,454,PS,exp,37,↓,down,↓,0.6574815000640228,True,8,1,0,13
Y2-S2-286K22,5,455,PS,exp,44,→,down,↓,0.5608984000282362,False,7,-1,1,14
Y2-S2-286K22,5,456,PS,exp,42,←,left,←,0.4913296999875456,True,8,-1,0,14
Y2-S2-286K22,5,457,PS,exp,49,↓,down,↓,0.48139879992231727,True,8,-1,0,14
Y2-S2-286K22,5,458,PS,exp,33,↑,right,→,0.49520600005052984,False,8,-1,0,14
Y2-S2-286K22,5,459,PS,exp,48,←,left,←,0.5480054999934509,True,9,-1,0,14
Y2-S2-286K22,5,460,PS,exp,47,↓,down,↓,0.4613259999314323,True,9,-1,0,14
Y2-S2-286K22,5,461,PS,exp,29,←,up,↑,0.7035992000019178,False,9,-1,0,14
Y2-S2-286K22,5,462,PS,exp,29,↓,down,↓,0.6398300000000745,True,10,-1,0,14
Y2-S2-286K22,5,463,PS,exp,45,←,left,←,0.4327334000263363,True,10,-1,0,14
Y2-S2-286K22,5,464,PS,exp,36,→,right,→,0.5379659000318497,True,10,1,1,15
Y2-S2-286K22,5,465,PS,exp,33,↓,down,↓,0.45670149999205023,True,9,1,0,15
Y2-S2-286K22,5,466,PS,exp,36,←,left,←,0.5310709000332281,True,9,1,0,15
Y2-S2-286K22,5,467,PS,exp,46,→,right,→,0.5317762000486255,True,9,1,0,15
Y2-S2-286K22,5,468,PS,exp,38,↓,down,↓,0.515579600003548,True,8,1,0,15
Y2-S2-286K22,5,469,PS,exp,26,→,right,→,0.526641400065273,True,8,1,0,15
Y2-S2-286K22,5,470,PS,exp,33,↓,left,←,0.4418381000868976,False,8,-1,1,16
Y2-S2-286K22,6,471,AS,intra_train,35,↑,down,↓,0.4844186999835074,False,24,-,-,-
Y2-S2-286K22,6,472,AS,intra_train,28,→,right,→,0.46674319996964186,True,24,-,-,-
Y2-S2-286K22,6,473,AS,intra_train,43,↓,down,↓,0.5784924000035971,True,24,-,-,-
Y2-S2-286K22,6,474,AS,intra_train,35,↑,up,↑,1.3055991999572143,True,24,-,-,-
Y2-S2-286K22,6,475,AS,intra_train,31,→,right,→,0.4840471000643447,True,24,-,-,-
Y2-S2-286K22,6,476,AS,exp,29,↑,down,↓,0.5276241999818012,False,16,-1,0,0
Y2-S2-286K22,6,477,AS,exp,34,→,right,→,0.5226263999938965,True,17,-1,0,0
Y2-S2-286K22,6,478,AS,exp,45,↓,down,↓,1.751572799985297,True,17,-1,0,0
Y2-S2-286K22,6,479,AS,exp,43,→,right,→,0.5160027999663725,True,17,1,1,1
Y2-S2-286K22,6,480,AS,exp,35,←,left,←,0.5914885000092909,True,16,1,0,1
Y2-S2-286K22,6,481,AS,exp,46,→,right,→,0.5167599000269547,True,16,1,0,1
Y2-S2-286K22,6,482,AS,exp,48,↓,down,↓,0.541200999985449,True,16,1,0,1
Y2-S2-286K22,6,483,AS,exp,25,↑,up,↑,0.47891960002016276,True,15,1,0,1
Y2-S2-286K22,6,484,AS,exp,26,←,left,←,0.4489401000319049,True,15,1,0,1
Y2-S2-286K22,6,485,AS,exp,37,↓,down,↓,0.6310989999910817,True,15,1,0,1
Y2-S2-286K22,6,486,AS,exp,27,→,right,→,0.6183759000850841,True,14,1,0,1
Y2-S2-286K22,6,487,AS,exp,27,←,left,←,0.4437663999851793,True,14,1,0,1
Y2-S2-286K22,6,488,AS,exp,43,→,right,→,0.4745418999809772,True,14,1,0,1
Y2-S2-286K22,6,489,AS,exp,47,↑,up,↑,0.48073070007376373,True,13,1,0,1
Y2-S2-286K22,6,490,AS,exp,40,←,left,←,0.41273700003512204,True,13,1,0,1
Y2-S2-286K22,6,491,AS,exp,39,↑,up,↑,0.4946235000388697,True,13,1,0,1
Y2-S2-286K22,6,492,AS,exp,25,→,right,→,0.4931168999755755,True,12,1,0,1
Y2-S2-286K22,6,493,AS,exp,42,←,left,←,0.4547321000136435,True,12,1,0,1
Y2-S2-286K22,6,494,AS,exp,30,→,right,→,0.520581999910064,True,12,1,0,1
Y2-S2-286K22,6,495,AS,exp,40,←,left,←,0.5559355999575928,True,11,1,0,1
Y2-S2-286K22,6,496,AS,exp,31,→,right,→,0.5450908000348136,True,11,1,0,1
Y2-S2-286K22,6,497,AS,exp,44,↑,up,↑,0.5370233000721782,True,11,1,0,1
Y2-S2-286K22,6,498,AS,exp,40,→,left,←,0.6110535999760032,False,10,-1,1,2
Y2-S2-286K22,6,499,AS,exp,33,←,right,→,0.5419068000046536,False,11,-1,0,2
Y2-S2-286K22,6,500,AS,exp,34,↑,up,↑,0.5217207999667153,True,12,-1,0,2
Y2-S2-286K22,6,501,AS,exp,40,→,right,→,0.5815168999833986,True,12,-1,0,2
Y2-S2-286K22,6,502,AS,exp,31,↑,up,↑,0.5736086999531835,True,12,1,1,3
Y2-S2-286K22,6,503,AS,exp,26,←,right,→,0.5723457999993116,False,11,-1,1,4
Y2-S2-286K22,6,504,AS,exp,41,↑,up,↑,0.41203110001515597,True,12,-1,0,4
Y2-S2-286K22,6,505,AS,exp,28,↓,down,↓,0.5356850000098348,True,12,-1,0,4
Y2-S2-286K22,6,506,AS,exp,26,↑,down,↓,0.6543614999391139,False,12,-1,0,4
Y2-S2-286K22,6,507,AS,exp,29,↓,down,↓,0.5630764999659732,True,13,-1,0,4
Y2-S2-286K22,6,508,AS,exp,36,↑,up,↑,0.5352323000552133,True,13,-1,0,4
Y2-S2-286K22,6,509,AS,exp,38,↓,right,→,0.663066599983722,False,13,-1,0,4
Y2-S2-286K22,6,510,AS,exp,44,←,left,←,0.524793199962005,True,14,-1,0,4
Y2-S2-286K22,6,511,AS,exp,40,↓,left,←,0.6113122999668121,False,14,-1,0,4
Y2-S2-286K22,6,512,AS,exp,33,→,right,→,0.6060781999258325,True,15,-1,0,4
Y2-S2-286K22,6,513,AS,exp,50,←,left,←,0.419165899977088,True,15,-1,0,4
Y2-S2-286K22,6,514,AS,exp,29,↓,down,↓,0.6277502999873832,True,15,1,1,5
Y2-S2-286K22,6,515,AS,exp,35,→,right,→,0.5072981000412256,True,14,1,0,5
Y2-S2-286K22,6,516,AS,exp,38,←,left,←,0.7444271999411285,True,14,1,0,5
Y2-S2-286K22,6,517,AS,exp,35,↑,up,↑,0.43634870008099824,True,14,1,0,5
Y2-S2-286K22,6,518,AS,exp,36,←,left,←,0.4816257000202313,True,13,1,0,5
Y2-S2-286K22,6,519,AS,exp,45,↑,up,↑,0.5086916999425739,True,13,1,0,5
Y2-S2-286K22,6,520,AS,exp,35,↓,down,↓,0.6632547000190243,True,13,1,0,5
Y2-S2-286K22,6,521,AS,exp,35,↑,up,↑,0.6075393999926746,True,12,1,0,5
Y2-S2-286K22,6,522,AS,exp,35,←,right,→,0.5183671000413597,False,12,-1,1,6
Y2-S2-286K22,6,523,AS,exp,26,→,left,←,0.6047477000392973,False,13,-1,0,6
Y2-S2-286K22,6,524,AS,exp,50,↓,up,↑,0.6494333000155166,False,14,-1,0,6
Y2-S2-286K22,6,525,AS,exp,27,←,left,←,0.5168421999551356,True,15,-1,0,6
Y2-S2-286K22,6,526,AS,exp,50,→,right,→,0.5307447999948636,True,15,-1,0,6
Y2-S2-286K22,6,527,AS,exp,30,↓,down,↓,0.6364044001093134,True,15,1,1,7
Y2-S2-286K22,6,528,AS,exp,25,→,right,→,0.5494355999398977,True,14,1,0,7
Y2-S2-286K22,6,529,AS,exp,25,↑,up,↑,0.531093499972485,True,14,1,0,7
Y2-S2-286K22,6,530,AS,exp,25,←,left,←,0.5679432000033557,True,14,1,0,7
Y2-S2-286K22,6,531,AS,exp,38,↓,down,↓,0.7572371999267489,True,13,1,0,7
Y2-S2-286K22,6,532,AS,exp,26,↑,up,↑,0.6746420999988914,True,13,1,0,7
Y2-S2-286K22,6,533,AS,exp,28,↓,down,↓,0.4401877000927925,True,13,1,0,7
Y2-S2-286K22,6,534,AS,exp,37,→,down,↓,0.7418821000028402,False,12,-1,1,8
Y2-S2-286K22,6,535,AS,exp,36,↓,down,↓,0.5480665999930352,True,13,-1,0,8
Y2-S2-286K22,6,536,AS,exp,27,←,left,←,0.5350561999948695,True,13,-1,0,8
Y2-S2-286K22,6,537,AS,exp,36,↑,up,↑,0.6243924000300467,True,13,1,1,9
Y2-S2-286K22,6,538,AS,exp,46,↓,up,↑,0.5439835999859497,False,12,-1,1,10
Y2-S2-286K22,6,539,AS,exp,45,→,right,→,0.5333466000156477,True,13,-1,0,10
Y2-S2-286K22,6,540,AS,exp,37,↓,down,↓,0.6673092999262735,True,13,-1,0,10
Y2-S2-286K22,6,541,AS,exp,27,←,up,↑,0.8235760000534356,False,13,-1,0,10
Y2-S2-286K22,6,542,AS,exp,35,→,right,→,0.5034127999097109,True,14,-1,0,10
Y2-S2-286K22,6,543,AS,exp,26,←,left,←,0.46992830000817776,True,14,-1,0,10
Y2-S2-286K22,6,544,AS,exp,47,↑,up,↑,0.5990770000498742,True,14,1,1,11
Y2-S2-286K22,6,545,AS,exp,47,→,down,↓,0.670610100030899,False,13,-1,1,12
Y2-S2-286K22,6,546,AS,exp,43,↓,down,↓,0.650535500026308,True,14,-1,0,12
Y2-S2-286K22,6,547,AS,exp,41,↑,right,→,0.6283157999860123,False,14,-1,0,12
Y2-S2-286K22,6,548,AS,exp,35,→,right,→,0.4872200000099838,True,15,-1,0,12
Y2-S2-286K22,6,549,AS,exp,28,←,left,←,0.5019865999929607,True,15,-1,0,12
Y2-S2-286K22,6,550,AS,exp,34,→,right,→,0.6909188999561593,True,15,1,1,13
Y2-S2-286K22,6,551,AS,exp,36,↑,up,↑,0.5145055999746546,True,14,1,0,13
Y2-S2-286K22,6,552,AS,exp,46,↓,down,↓,0.6235183000098914,True,14,1,0,13
Y2-S2-286K22,6,553,AS,exp,40,←,right,→,0.4954493000404909,False,14,-1,1,14
Y2-S2-286K22,6,554,AS,exp,31,↓,down,↓,0.6322451999876648,True,15,-1,0,14
Y2-S2-286K22,6,555,AS,exp,48,←,left,←,0.5418704999610782,True,15,-1,0,14
Y2-S2-286K22,6,556,AS,exp,25,→,right,→,0.4887465999927372,True,15,1,1,15
Y2-S2-286K22,6,557,AS,exp,45,↓,up,↑,0.6142892999341711,False,14,-1,1,16
Y2-S2-286K22,7,558,AS,intra_train,35,←,left,←,0.4005245000589639,True,24,-,-,-
Y2-S2-286K22,7,559,AS,intra_train,33,↓,down,↓,0.7655338000040501,True,24,-,-,-
Y2-S2-286K22,7,560,AS,intra_train,48,→,right,→,0.41820210008881986,True,24,-,-,-
Y2-S2-286K22,7,561,AS,intra_train,40,↑,up,↑,0.5172743999864906,True,24,-,-,-
Y2-S2-286K22,7,562,AS,intra_train,41,←,left,←,0.5340355000225827,True,24,-,-,-
Y2-S2-286K22,7,563,AS,exp,27,→,right,→,0.4440623000264168,True,16,0,0,0
Y2-S2-286K22,7,564,AS,exp,28,↓,down,↓,0.6096412999322638,True,16,0,0,0
Y2-S2-286K22,7,565,AS,exp,36,↑,up,↑,0.6262231000000611,True,16,1,0,0
Y2-S2-286K22,7,566,AS,exp,26,→,right,→,0.5732886999612674,True,15,1,0,0
Y2-S2-286K22,7,567,AS,exp,48,↑,up,↑,0.5832348000258207,True,15,1,0,0
Y2-S2-286K22,7,568,AS,exp,49,→,right,→,0.5250438000075519,True,15,1,0,0
Y2-S2-286K22,7,569,AS,exp,25,←,left,←,0.5072688000509515,True,14,1,0,0
Y2-S2-286K22,7,570,AS,exp,32,→,right,→,0.5691548000322655,True,14,1,0,0
Y2-S2-286K22,7,571,AS,exp,37,←,left,←,0.5018861999269575,True,14,1,0,0
Y2-S2-286K22,7,572,AS,exp,43,↓,down,↓,0.6082727999892086,True,13,1,0,0
Y2-S2-286K22,7,573,AS,exp,49,→,right,→,0.446679100045003,True,13,1,0,0
Y2-S2-286K22,7,574,AS,exp,26,↑,up,↑,0.5312745999544859,True,13,1,0,0
Y2-S2-286K22,7,575,AS,exp,44,↓,down,↓,0.598527800058946,True,12,1,0,0
Y2-S2-286K22,7,576,AS,exp,39,↑,up,↑,0.5179640999995172,True,12,1,0,0
Y2-S2-286K22,7,577,AS,exp,28,←,left,←,0.5231932000024244,True,12,1,0,0
Y2-S2-286K22,7,578,AS,exp,29,↑,up,↑,0.4361056999769062,True,11,1,0,0
Y2-S2-286K22,7,579,AS,exp,32,↓,down,↓,0.5794091999996454,True,11,1,0,0
Y2-S2-286K22,7,580,AS,exp,34,→,right,→,0.44097060000058264,True,11,1,0,0
Y2-S2-286K22,7,581,AS,exp,30,←,left,←,0.5399719000561163,True,10,1,0,0
Y2-S2-286K22,7,582,AS,exp,33,↓,up,↑,0.450811899965629,False,10,-1,1,1
Y2-S2-286K22,7,583,AS,exp,35,←,left,←,0.44093729997985065,True,11,-1,0,1
Y2-S2-286K22,7,584,AS,exp,28,↓,down,↓,0.6319443000247702,True,11,-1,0,1
Y2-S2-286K22,7,585,AS,exp,25,→,right,→,0.4193688000086695,True,11,1,1,2
Y2-S2-286K22,7,586,AS,exp,47,↓,down,↓,0.6009270999347791,True,10,1,0,2
Y2-S2-286K22,7,587,AS,exp,45,↑,up,↑,0.4923019000561908,True,10,1,0,2
Y2-S2-286K22,7,588,AS,exp,45,↓,down,↓,0.5640582999913022,True,10,1,0,2
Y2-S2-286K22,7,589,AS,exp,43,↑,up,↑,0.47403709997888654,True,9,1,0,2
Y2-S2-286K22,7,590,AS,exp,31,→,right,→,0.5549571999581531,True,9,1,0,2
Y2-S2-286K22,7,591,AS,exp,41,←,left,←,0.5857991999946535,True,9,1,0,2
Y2-S2-286K22,7,592,AS,exp,36,↑,up,↑,0.5189991999650374,True,8,1,0,2
Y2-S2-286K22,7,593,AS,exp,37,←,down,↓,0.8010524000274017,False,8,-1,1,3
Y2-S2-286K22,7,594,AS,exp,40,↑,up,↑,0.4542912000324577,True,9,-1,0,3
Y2-S2-286K22,7,595,AS,exp,48,↓,left,←,0.9577884000027552,False,9,-1,0,3
Y2-S2-286K22,7,596,AS,exp,46,←,left,←,0.45934840000700206,True,10,-1,0,3
Y2-S2-286K22,7,597,AS,exp,34,↑,up,↑,0.5245722000254318,True,10,-1,0,3
Y2-S2-286K22,7,598,AS,exp,46,↓,down,↓,0.5374101999914274,True,10,1,1,4
Y2-S2-286K22,7,599,AS,exp,35,←,left,←,0.5017804999370128,True,9,1,0,4
Y2-S2-286K22,7,600,AS,exp,35,↑,right,→,0.6398439999902621,False,9,-1,1,5
Y2-S2-286K22,7,601,AS,exp,44,←,left,←,0.5562969000311568,True,10,-1,0,5
Y2-S2-286K22,7,602,AS,exp,28,↓,down,↓,0.5779880000045523,True,10,-1,0,5
Y2-S2-286K22,7,603,AS,exp,46,→,right,→,0.5388613999821246,True,10,1,1,6
Y2-S2-286K22,7,604,AS,exp,41,←,left,←,0.4875365999760106,True,9,1,0,6
Y2-S2-286K22,7,605,AS,exp,47,↓,down,↓,1.332347699906677,True,9,1,0,6
Y2-S2-286K22,7,606,AS,exp,31,→,right,→,0.5091968999477103,True,9,1,0,6
Y2-S2-286K22,7,607,AS,exp,25,↓,up,↑,0.6390957001131028,False,8,-1,1,7
Y2-S2-286K22,7,608,AS,exp,41,←,left,←,0.4751762000378221,True,9,-1,0,7
Y2-S2-286K22,7,609,AS,exp,36,↑,right,→,0.5243009000550956,False,9,-1,0,7
Y2-S2-286K22,7,610,AS,exp,39,→,right,→,0.58159680000972,True,10,-1,0,7
Y2-S2-286K22,7,611,AS,exp,31,←,left,←,0.46191189996898174,True,10,-1,0,7
Y2-S2-286K22,7,612,AS,exp,45,↓,down,↓,0.6503472999902442,True,10,1,1,8
Y2-S2-286K22,7,613,AS,exp,48,←,right,→,0.5163614000193775,False,9,-1,1,9
Y2-S2-286K22,7,614,AS,exp,25,↑,up,↑,0.5237830000696704,True,10,-1,0,9
Y2-S2-286K22,7,615,AS,exp,35,↓,down,↓,0.6341126998886466,True,10,-1,0,9
Y2-S2-286K22,7,616,AS,exp,47,←,right,→,0.5235072000650689,False,10,-1,0,9
Y2-S2-286K22,7,617,AS,exp,38,↑,down,↓,0.6156965000554919,False,11,-1,0,9
Y2-S2-286K22,7,618,AS,exp,46,←,left,←,0.5221509999828413,True,12,-1,0,9
Y2-S2-286K22,7,619,AS,exp,28,→,right,→,0.6487569999881089,True,12,-1,0,9
Y2-S2-286K22,7,620,AS,exp,44,←,right,→,0.491784599958919,False,12,-1,0,9
Y2-S2-286K22,7,621,AS,exp,27,↓,down,↓,0.6019266999792308,True,13,-1,0,9
Y2-S2-286K22,7,622,AS,exp,48,←,left,←,0.43926900008227676,True,13,-1,0,9
Y2-S2-286K22,7,623,AS,exp,44,↑,up,↑,0.4773772000335157,True,13,1,1,10
Y2-S2-286K22,7,624,AS,exp,41,←,left,←,0.4935110000660643,True,12,1,0,10
Y2-S2-286K22,7,625,AS,exp,32,→,left,←,0.5584160999860615,False,12,-1,1,11
Y2-S2-286K22,7,626,AS,exp,42,↑,right,→,0.5508132999530062,False,13,-1,0,11
Y2-S2-286K22,7,627,AS,exp,39,→,down,↓,0.7570585000794381,False,14,-1,0,11
Y2-S2-286K22,7,628,AS,exp,27,↑,up,↑,0.5439508999697864,True,15,-1,0,11
Y2-S2-286K22,7,629,AS,exp,37,←,right,→,0.5504695000126958,False,15,-1,0,11
Y2-S2-286K22,7,630,AS,exp,25,↑,up,↑,0.5498478000517935,True,16,-1,0,11
Y2-S2-286K22,7,631,AS,exp,44,←,right,→,1.0176654000533745,False,16,-1,0,11
Y2-S2-286K22,7,632,AS,exp,49,↓,down,↓,0.5807786999503151,True,17,-1,0,11
Y2-S2-286K22,7,633,AS,exp,33,↑,up,↑,0.48861669993493706,True,17,-1,0,11
Y2-S2-286K22,7,634,AS,exp,38,→,right,→,0.489888200070709,True,17,1,1,12
Y2-S2-286K22,7,635,AS,exp,29,↓,down,↓,0.6823235999327153,True,16,1,0,12
Y2-S2-286K22,7,636,AS,exp,25,←,right,→,0.4509260000195354,False,16,-1,1,13
Y2-S2-286K22,7,637,AS,exp,38,↑,up,↑,0.5217534999828786,True,17,-1,0,13
Y2-S2-286K22,7,638,AS,exp,50,↓,down,↓,0.5106467999285087,True,17,-1,0,13
Y2-S2-286K22,7,639,AS,exp,27,→,right,→,0.5129262999398634,True,17,1,1,14
Y2-S2-286K22,7,640,AS,exp,27,↑,up,↑,0.49363310006447136,True,16,1,0,14
Y2-S2-286K22,7,641,AS,exp,45,↓,down,↓,0.6881407999899238,True,16,1,0,14
Y2-S2-286K22,7,642,AS,exp,30,→,right,→,0.44377809995785356,True,16,1,0,14
Y2-S2-286K22,7,643,AS,exp,34,←,left,←,0.6147337999427691,True,15,1,0,14
Y2-S2-286K22,7,644,AS,exp,35,→,right,→,0.4936626000562683,True,15,1,0,14
Y2-S2-286K22,7,645,AS,exp,40,←,right,→,0.6064729000208899,False,15,-1,1,15
Y2-S2-286K22,7,646,AS,exp,48,→,right,→,0.47762939997483045,True,16,-1,0,15
Y2-S2-286K22,7,647,AS,exp,50,↑,up,↑,0.45230959996115416,True,16,-1,0,15
Y2-S2-286K22,7,648,AS,exp,25,→,left,←,0.5046751999761909,False,16,-1,0,15
Y2-S2-286K22,7,649,AS,exp,38,↑,up,↑,0.6723876999458298,True,17,-1,0,15
Y2-S2-286K22,7,650,AS,exp,45,↓,down,↓,0.578374500037171,True,17,-1,0,15
Y2-S2-286K22,7,651,AS,exp,49,←,left,←,0.595450900029391,True,17,1,1,16
Y2-S2-286K22,8,652,PS,intra_train,36,→,up,↑,1.5729615999152884,False,15,-,-,-
Y2-S2-286K22,8,653,PS,intra_train,26,↑,up,↑,0.5259677999420092,True,15,-,-,-
Y2-S2-286K22,8,654,PS,intra_train,48,↓,down,↓,0.6960906999884173,True,15,-,-,-
Y2-S2-286K22,8,655,PS,intra_train,38,←,left,←,0.5677872999804094,True,15,-,-,-
Y2-S2-286K22,8,656,PS,intra_train,44,↑,up,↑,0.5713134000543505,True,15,-,-,-
Y2-S2-286K22,8,657,PS,exp,37,←,left,←,0.5331154000014067,True,10,0,0,0
Y2-S2-286K22,8,658,PS,exp,34,→,right,→,0.5015144000062719,True,10,0,0,0
Y2-S2-286K22,8,659,PS,exp,35,←,left,←,0.468368100002408,True,10,1,0,0
Y2-S2-286K22,8,660,PS,exp,38,↑,up,↑,0.5501297999871895,True,9,1,0,0
Y2-S2-286K22,8,661,PS,exp,36,←,right,→,0.6118666999973357,False,9,-1,1,1
Y2-S2-286K22,8,662,PS,exp,37,→,right,→,0.5134356000926346,True,10,-1,0,1
Y2-S2-286K22,8,663,PS,exp,41,←,left,←,0.43372670002281666,True,10,-1,0,1
Y2-S2-286K22,8,664,PS,exp,34,↑,up,↑,0.5812945000361651,True,10,1,1,2
Y2-S2-286K22,8,665,PS,exp,41,↓,down,↓,0.5262161999708042,True,9,1,0,2
Y2-S2-286K22,8,666,PS,exp,50,→,right,→,0.47745500004384667,True,9,1,0,2
Y2-S2-286K22,8,667,PS,exp,39,↑,up,↑,0.8747684999834746,True,9,1,0,2
Y2-S2-286K22,8,668,PS,exp,48,→,right,→,0.5119089999934658,True,8,1,0,2
Y2-S2-286K22,8,669,PS,exp,26,←,left,←,0.4563323000911623,True,8,1,0,2
Y2-S2-286K22,8,670,PS,exp,49,→,down,↓,0.6719088000245392,False,8,-1,1,3
Y2-S2-286K22,8,671,PS,exp,27,←,up,↑,0.4085458000190556,False,9,-1,0,3
Y2-S2-286K22,8,672,PS,exp,25,↓,down,↓,0.5315618999302387,True,10,-1,0,3
Y2-S2-286K22,8,673,PS,exp,27,↑,up,↑,0.3892634999938309,True,10,-1,0,3
Y2-S2-286K22,8,674,PS,exp,41,↓,down,↓,0.47596920002251863,True,10,1,1,4
Y2-S2-286K22,8,675,PS,exp,50,→,right,→,0.546985000022687,True,9,1,0,4
Y2-S2-286K22,8,676,PS,exp,32,←,left,←,0.4568809000775218,True,9,1,0,4
Y2-S2-286K22,8,677,PS,exp,45,↑,up,↑,0.4743842000607401,True,9,1,0,4
Y2-S2-286K22,8,678,PS,exp,41,→,down,↓,0.34453530004248023,False,8,-1,1,5
Y2-S2-286K22,8,679,PS,exp,35,←,left,←,0.39194679993670434,True,9,-1,0,5
Y2-S2-286K22,8,680,PS,exp,27,→,right,→,0.3720616999780759,True,9,-1,0,5
Y2-S2-286K22,8,681,PS,exp,45,↑,left,←,0.28383720002602786,False,9,-1,0,5
Y2-S2-286K22,8,682,PS,exp,26,→,right,→,0.5461677999701351,True,10,-1,0,5
Y2-S2-286K22,8,683,PS,exp,34,←,left,←,0.4880845999578014,True,10,-1,0,5
Y2-S2-286K22,8,684,PS,exp,35,↓,down,↓,0.6223108000122011,True,10,1,1,6
Y2-S2-286K22,8,685,PS,exp,31,←,left,←,0.5221621999517083,True,9,1,0,6
Y2-S2-286K22,8,686,PS,exp,42,↑,up,↑,0.5117368999635801,True,9,1,0,6
Y2-S2-286K22,8,687,PS,exp,26,→,left,←,0.5165402999846265,False,9,-1,1,7
Y2-S2-286K22,8,688,PS,exp,44,←,left,←,0.5236625999677926,True,10,-1,0,7
Y2-S2-286K22,8,689,PS,exp,47,↑,right,→,0.4363407000200823,False,10,-1,0,7
Y2-S2-286K22,8,690,PS,exp,30,←,left,←,0.48813750001136214,True,11,-1,0,7
Y2-S2-286K22,8,691,PS,exp,46,→,right,→,0.47320470004342496,True,11,-1,0,7
Y2-S2-286K22,8,692,PS,exp,42,←,left,←,0.43573709996417165,True,11,1,1,8
Y2-S2-286K22,8,693,PS,exp,27,→,right,→,0.6912827000487596,True,10,1,0,8
Y2-S2-286K22,8,694,PS,exp,34,↑,up,↑,0.44065939995925874,True,10,1,0,8
Y2-S2-286K22,8,695,PS,exp,50,←,left,←,0.4716606999281794,True,10,1,0,8
Y2-S2-286K22,8,696,PS,exp,30,↑,right,→,0.4499712000833824,False,9,-1,1,9
Y2-S2-286K22,8,697,PS,exp,28,↓,up,↑,0.5278350999578834,False,10,-1,0,9
Y2-S2-286K22,8,698,PS,exp,33,↑,up,↑,0.4322052000788972,True,11,-1,0,9
Y2-S2-286K22,8,699,PS,exp,26,↓,right,→,0.5908285999903455,False,11,-1,0,9
Y2-S2-286K22,8,700,PS,exp,29,→,left,←,0.4191287000430748,False,12,-1,0,9
Y2-S2-286K22,8,701,PS,exp,39,↓,down,↓,0.6364682000130415,True,13,-1,0,9
Y2-S2-286K22,8,702,PS,exp,33,↑,up,↑,0.6332832999760285,True,13,-1,0,9
Y2-S2-286K22,8,703,PS,exp,25,→,right,→,0.5808776000048965,True,13,1,1,10
Y2-S2-286K22,8,704,PS,exp,27,↓,down,↓,0.6793070000130683,True,12,1,0,10
Y2-S2-286K22,8,705,PS,exp,47,←,right,→,0.5703354000579566,False,12,-1,1,11
Y2-S2-286K22,8,706,PS,exp,36,↑,up,↑,0.7057098000077531,True,13,-1,0,11
Y2-S2-286K22,8,707,PS,exp,46,↓,down,↓,0.5690323999151587,True,13,-1,0,11
Y2-S2-286K22,8,708,PS,exp,50,→,right,→,0.5003934999695048,True,13,1,1,12
Y2-S2-286K22,8,709,PS,exp,49,←,left,←,0.5369298999430612,True,12,1,0,12
Y2-S2-286K22,8,710,PS,exp,45,↓,down,↓,0.497864400036633,True,12,1,0,12
Y2-S2-286K22,8,711,PS,exp,38,←,left,←,0.5085064000450075,True,12,1,0,12
Y2-S2-286K22,8,712,PS,exp,25,↑,up,↑,0.5300680999644101,True,11,1,0,12
Y2-S2-286K22,8,713,PS,exp,47,→,right,→,0.5059831000398844,True,11,1,0,12
Y2-S2-286K22,8,714,PS,exp,32,←,right,→,0.5534427999518812,False,11,-1,1,13
Y2-S2-286K22,8,715,PS,exp,39,→,right,→,1.4344570999965072,True,12,-1,0,13
Y2-S2-286K22,8,716,PS,exp,35,↑,down,↓,0.994935099966824,False,12,-1,0,13
Y2-S2-286K22,8,717,PS,exp,41,↓,down,↓,0.5930279000895098,True,13,-1,0,13
Y2-S2-286K22,8,718,PS,exp,33,→,left,←,0.6396154999965802,False,13,-1,0,13
Y2-S2-286K22,8,719,PS,exp,41,↑,up,↑,0.581944499979727,True,14,-1,0,13
Y2-S2-286K22,8,720,PS,exp,25,←,left,←,0.6726920999353752,True,14,-1,0,13
Y2-S2-286K22,8,721,PS,exp,44,↓,down,↓,0.6066238000057638,True,14,1,1,14
Y2-S2-286K22,8,722,PS,exp,41,→,right,→,0.5156081999884918,True,13,1,0,14
Y2-S2-286K22,8,723,PS,exp,48,↑,up,↑,0.43642539996653795,True,13,1,0,14
Y2-S2-286K22,8,724,PS,exp,42,↓,down,↓,0.5977431000210345,True,13,1,0,14
Y2-S2-286K22,8,725,PS,exp,37,←,left,←,0.5511100000003353,True,12,1,0,14
Y2-S2-286K22,8,726,PS,exp,37,↓,down,↓,0.6862048999173567,True,12,1,0,14
Y2-S2-286K22,8,727,PS,exp,36,→,right,→,0.5288766999728978,True,12,1,0,14
Y2-S2-286K22,8,728,PS,exp,41,↓,down,↓,0.5085948999039829,True,11,1,0,14
Y2-S2-286K22,8,729,PS,exp,47,←,left,←,0.5446258999872953,True,11,1,0,14
Y2-S2-286K22,8,730,PS,exp,29,↓,down,↓,0.5312096000416204,True,11,1,0,14
Y2-S2-286K22,8,731,PS,exp,37,←,left,←,0.6460067000007257,True,10,1,0,14
Y2-S2-286K22,8,732,PS,exp,48,↓,down,↓,0.5593898000661284,True,10,1,0,14
Y2-S2-286K22,8,733,PS,exp,39,↑,up,↑,0.6369131000246853,True,10,1,0,14
Y2-S2-286K22,8,734,PS,exp,34,→,right,→,0.5871366000501439,True,9,1,0,14
Y2-S2-286K22,8,735,PS,exp,48,↑,up,↑,0.599550399929285,True,9,1,0,14
Y2-S2-286K22,8,736,PS,exp,32,↓,down,↓,0.5454015999566764,True,9,1,0,14
Y2-S2-286K22,8,737,PS,exp,39,↑,up,↑,0.5003992000129074,True,8,1,0,14
Y2-S2-286K22,8,738,PS,exp,25,→,left,←,0.4877452999353409,False,8,-1,1,15
Y2-S2-286K22,8,739,PS,exp,29,↑,up,↑,0.4330076000187546,True,9,-1,0,15
Y2-S2-286K22,8,740,PS,exp,43,↓,down,↓,0.5883933999575675,True,9,-1,0,15
Y2-S2-286K22,8,741,PS,exp,48,→,right,→,0.5317430000286549,True,9,1,1,16
