PART_ID,Block_no,Trial_no,Block_type,Trial_type,CSI,Stim_letter,Key_pressed,letter_choose,Rt,Corr,Stimulus Time,Level,Reversal,Revs_count
Y2-S2-080K20,1,1,PS,train,41,↓,down,↓,0.5338413999415934,True,30,-,-,-
Y2-S2-080K20,1,2,PS,train,40,↑,up,↑,0.6008035000413656,True,30,-,-,-
Y2-S2-080K20,1,3,PS,train,42,→,right,→,0.48425160022452474,True,30,-,-,-
Y2-S2-080K20,1,4,PS,train,45,←,left,←,0.5836914996616542,True,30,-,-,-
Y2-S2-080K20,1,5,PS,train,49,↑,up,↑,0.5339798997156322,True,30,-,-,-
Y2-S2-080K20,1,6,PS,train,26,→,right,→,0.5167489000596106,True,30,-,-,-
Y2-S2-080K20,1,7,PS,train,47,←,left,←,0.40106349997222424,True,30,-,-,-
Y2-S2-080K20,1,8,PS,train,50,→,right,→,0.4010526002384722,True,30,-,-,-
Y2-S2-080K20,1,9,PS,train,30,↑,up,↑,0.5338134001940489,True,30,-,-,-
Y2-S2-080K20,1,10,PS,train,43,←,left,←,0.4840782997198403,True,30,-,-,-
Y2-S2-080K20,2,11,AS,train,36,→,left,←,0.5512520996853709,False,45,-,-,-
Y2-S2-080K20,2,12,AS,train,46,↑,up,↑,0.5677906000055373,True,45,-,-,-
Y2-S2-080K20,2,13,AS,train,28,←,left,←,0.7005400001071393,True,45,-,-,-
Y2-S2-080K20,2,14,AS,train,48,→,right,→,0.7506281998939812,True,45,-,-,-
Y2-S2-080K20,2,15,AS,train,41,↑,up,↑,0.6843477999791503,True,45,-,-,-
Y2-S2-080K20,2,16,AS,train,31,←,left,←,0.5178294000215828,True,45,-,-,-
Y2-S2-080K20,2,17,AS,train,31,↑,up,↑,0.6345219002105296,True,45,-,-,-
Y2-S2-080K20,2,18,AS,train,37,←,left,←,0.4511114996857941,True,45,-,-,-
Y2-S2-080K20,2,19,AS,train,44,→,right,→,0.5345350001007318,True,45,-,-,-
Y2-S2-080K20,2,20,AS,train,46,↓,down,↓,1.017029699869454,True,45,-,-,-
Y2-S2-080K20,-,21,PS,adaptive,37,→,right,→,0.5244288998655975,True,10,0,0,0
Y2-S2-080K20,-,22,PS,adaptive,25,←,left,←,0.5511058000847697,True,10,0,0,0
Y2-S2-080K20,-,23,PS,adaptive,46,↑,up,↑,0.5596427000127733,True,10,1,0,0
Y2-S2-080K20,-,24,PS,adaptive,35,↓,down,↓,1.0318661998026073,True,9,1,0,0
Y2-S2-080K20,-,25,PS,adaptive,25,↑,up,↑,0.4284660997800529,True,9,1,0,0
Y2-S2-080K20,-,26,PS,adaptive,36,↓,up,↑,0.688919700216502,False,9,-1,1,1
Y2-S2-080K20,-,27,PS,adaptive,33,→,right,→,0.5194417000748217,True,10,-1,0,1
Y2-S2-080K20,-,28,PS,adaptive,25,←,left,←,0.44086070032790303,True,10,-1,0,1
Y2-S2-080K20,-,29,PS,adaptive,45,↓,down,↓,0.625301199965179,True,10,1,1,2
Y2-S2-080K20,-,30,PS,adaptive,25,→,right,→,0.5049292002804577,True,9,1,0,2
Y2-S2-080K20,-,31,PS,adaptive,34,↑,up,↑,0.6742279999889433,True,9,1,0,2
Y2-S2-080K20,-,32,PS,adaptive,33,↓,down,↓,0.7169174998998642,True,9,1,0,2
Y2-S2-080K20,-,33,PS,adaptive,37,←,left,←,0.506691699847579,True,8,1,0,2
Y2-S2-080K20,-,34,PS,adaptive,41,↓,right,→,0.7323141000233591,False,8,-1,1,3
Y2-S2-080K20,-,35,PS,adaptive,31,↑,up,↑,0.5588295999914408,True,9,-1,0,3
Y2-S2-080K20,-,36,PS,adaptive,42,←,left,←,0.5517820999957621,True,9,-1,0,3
Y2-S2-080K20,-,37,PS,adaptive,28,→,right,→,0.47512840013951063,True,9,1,1,4
Y2-S2-080K20,-,38,AS,adaptive,49,↑,up,↑,0.6904218997806311,True,20,0,0,0
Y2-S2-080K20,-,39,AS,adaptive,29,↓,down,↓,0.5544755002483726,True,20,0,0,0
Y2-S2-080K20,-,40,AS,adaptive,25,←,left,←,0.4340654998086393,True,20,1,0,0
Y2-S2-080K20,-,41,AS,adaptive,43,→,right,→,0.520076600369066,True,19,1,0,0
Y2-S2-080K20,-,42,AS,adaptive,50,↓,down,↓,0.6532024000771344,True,19,1,0,0
Y2-S2-080K20,-,43,AS,adaptive,26,↑,up,↑,0.5237348000518978,True,19,1,0,0
Y2-S2-080K20,-,44,AS,adaptive,43,↓,down,↓,0.6322878003120422,True,18,1,0,0
Y2-S2-080K20,-,45,AS,adaptive,47,→,right,→,0.5235414002090693,True,18,1,0,0
Y2-S2-080K20,-,46,AS,adaptive,50,↓,down,↓,0.7484918995760381,True,18,1,0,0
Y2-S2-080K20,-,47,AS,adaptive,50,←,left,←,0.5811245003715158,True,17,1,0,0
Y2-S2-080K20,-,48,AS,adaptive,33,↑,no_key,no_letter,-1.0,False,17,-1,1,1
Y2-S2-080K20,-,49,AS,adaptive,25,↓,down,↓,0.5395673997700214,True,18,-1,0,1
Y2-S2-080K20,-,50,AS,adaptive,46,↑,down,↓,0.5703926999121904,False,18,-1,0,1
Y2-S2-080K20,-,51,AS,adaptive,39,←,left,←,0.5556021998636425,True,19,-1,0,1
Y2-S2-080K20,-,52,AS,adaptive,31,↓,down,↓,0.5568678001873195,True,19,-1,0,1
Y2-S2-080K20,-,53,AS,adaptive,29,←,left,←,0.486752700060606,True,19,1,1,2
Y2-S2-080K20,-,54,AS,adaptive,27,→,right,→,0.5007610996253788,True,18,1,0,2
Y2-S2-080K20,-,55,AS,adaptive,25,↓,down,↓,0.667582199908793,True,18,1,0,2
Y2-S2-080K20,-,56,AS,adaptive,27,→,left,←,0.41704209987074137,False,18,-1,1,3
Y2-S2-080K20,-,57,AS,adaptive,48,↑,up,↑,0.7819540998898447,True,19,-1,0,3
Y2-S2-080K20,-,58,AS,adaptive,33,←,left,←,0.5760212000459433,True,19,-1,0,3
Y2-S2-080K20,-,59,AS,adaptive,38,→,right,→,0.6272811000235379,True,19,1,1,4
Y2-S2-080K20,1,60,AS,intra_train,36,↓,down,↓,0.6891613001935184,True,27,-,-,-
Y2-S2-080K20,1,61,AS,intra_train,28,↑,up,↑,0.6870422000065446,True,27,-,-,-
Y2-S2-080K20,1,62,AS,intra_train,45,→,right,→,0.6221171002835035,True,27,-,-,-
Y2-S2-080K20,1,63,AS,intra_train,26,←,left,←,0.6176137002184987,True,27,-,-,-
Y2-S2-080K20,1,64,AS,intra_train,32,↑,up,↑,0.4835646999999881,True,27,-,-,-
Y2-S2-080K20,1,65,AS,exp,28,←,right,→,0.7245365004055202,False,18,-1,0,0
Y2-S2-080K20,1,66,AS,exp,35,↓,down,↓,0.6905056997202337,True,19,-1,0,0
Y2-S2-080K20,1,67,AS,exp,41,↑,up,↑,0.7115480997599661,True,19,-1,0,0
Y2-S2-080K20,1,68,AS,exp,42,←,left,←,0.6112039997242391,True,19,1,1,1
Y2-S2-080K20,1,69,AS,exp,31,→,right,→,0.6150222001597285,True,18,1,0,1
Y2-S2-080K20,1,70,AS,exp,40,↓,down,↓,0.6465695998631418,True,18,1,0,1
Y2-S2-080K20,1,71,AS,exp,38,←,left,←,0.6242749001830816,True,18,1,0,1
Y2-S2-080K20,1,72,AS,exp,42,→,right,→,0.5021762000396848,True,17,1,0,1
Y2-S2-080K20,1,73,AS,exp,49,←,left,←,1.1995612001046538,True,17,1,0,1
Y2-S2-080K20,1,74,AS,exp,41,↑,up,↑,0.5114714000374079,True,17,1,0,1
Y2-S2-080K20,1,75,AS,exp,29,→,right,→,0.8249687999486923,True,16,1,0,1
Y2-S2-080K20,1,76,AS,exp,37,←,left,←,0.7345302002504468,True,16,1,0,1
Y2-S2-080K20,1,77,AS,exp,48,↑,up,↑,0.5164025002159178,True,16,1,0,1
Y2-S2-080K20,1,78,AS,exp,47,←,down,↓,0.7789210001938045,False,15,-1,1,2
Y2-S2-080K20,1,79,AS,exp,35,↓,down,↓,0.7393902000039816,True,16,-1,0,2
Y2-S2-080K20,1,80,AS,exp,36,←,left,←,0.7144179996103048,True,16,-1,0,2
Y2-S2-080K20,1,81,AS,exp,48,↑,up,↑,0.5280006998218596,True,16,1,1,3
Y2-S2-080K20,1,82,AS,exp,29,→,right,→,0.5256532002240419,True,15,1,0,3
Y2-S2-080K20,1,83,AS,exp,33,↓,right,→,1.2602069997228682,False,15,-1,1,4
Y2-S2-080K20,1,84,AS,exp,28,←,left,←,0.5850778999738395,True,16,-1,0,4
Y2-S2-080K20,1,85,AS,exp,46,→,right,→,0.46285449992865324,True,16,-1,0,4
Y2-S2-080K20,1,86,AS,exp,43,↑,up,↑,0.4456747998483479,True,16,1,1,5
Y2-S2-080K20,1,87,AS,exp,46,→,right,→,0.48354950034990907,True,15,1,0,5
Y2-S2-080K20,1,88,AS,exp,34,←,no_key,no_letter,-1.0,False,15,-1,1,6
Y2-S2-080K20,1,89,AS,exp,38,↑,up,↑,0.3840819001197815,True,16,-1,0,6
Y2-S2-080K20,1,90,AS,exp,38,←,up,↑,0.3675923999398947,False,16,-1,0,6
Y2-S2-080K20,1,91,AS,exp,31,→,right,→,0.5210775001905859,True,17,-1,0,6
Y2-S2-080K20,1,92,AS,exp,48,↑,right,→,0.511483300011605,False,17,-1,0,6
Y2-S2-080K20,1,93,AS,exp,32,←,right,→,0.8452983000315726,False,18,-1,0,6
Y2-S2-080K20,1,94,AS,exp,42,→,right,→,0.7256575999781489,True,19,-1,0,6
Y2-S2-080K20,1,95,AS,exp,44,←,left,←,0.45057580014690757,True,19,-1,0,6
Y2-S2-080K20,1,96,AS,exp,28,→,right,→,0.4338154001161456,True,19,1,1,7
Y2-S2-080K20,1,97,AS,exp,47,←,left,←,0.6824484001845121,True,18,1,0,7
Y2-S2-080K20,1,98,AS,exp,45,↑,up,↑,0.4337121997959912,True,18,1,0,7
Y2-S2-080K20,1,99,AS,exp,49,←,left,←,0.5077541000209749,True,18,1,0,7
Y2-S2-080K20,1,100,AS,exp,37,→,right,→,0.7092694002203643,True,17,1,0,7
Y2-S2-080K20,1,101,AS,exp,46,↓,up,↑,1.0426087002269924,False,17,-1,1,8
Y2-S2-080K20,1,102,AS,exp,28,↑,up,↑,0.560621100012213,True,18,-1,0,8
Y2-S2-080K20,1,103,AS,exp,32,→,left,←,0.3672550995834172,False,18,-1,0,8
Y2-S2-080K20,1,104,AS,exp,29,↑,up,↑,0.5075229997746646,True,19,-1,0,8
Y2-S2-080K20,1,105,AS,exp,46,←,left,←,0.45060550002381206,True,19,-1,0,8
Y2-S2-080K20,1,106,AS,exp,39,↑,up,↑,0.5553973000496626,True,19,1,1,9
Y2-S2-080K20,1,107,AS,exp,47,→,no_key,no_letter,-1.0,False,18,-1,1,10
Y2-S2-080K20,1,108,AS,exp,46,←,left,←,0.5079865003935993,True,19,-1,0,10
Y2-S2-080K20,1,109,AS,exp,28,↓,down,↓,0.7663303003646433,True,19,-1,0,10
Y2-S2-080K20,1,110,AS,exp,50,↑,up,↑,0.686932799872011,True,19,1,1,11
Y2-S2-080K20,1,111,AS,exp,42,→,right,→,0.6474251002073288,True,18,1,0,11
Y2-S2-080K20,1,112,AS,exp,45,←,left,←,0.6958666001446545,True,18,1,0,11
Y2-S2-080K20,1,113,AS,exp,33,↓,down,↓,0.7875940999947488,True,18,1,0,11
Y2-S2-080K20,1,114,AS,exp,33,→,no_key,no_letter,-1.0,False,17,-1,1,12
Y2-S2-080K20,1,115,AS,exp,45,←,left,←,0.4932240000925958,True,18,-1,0,12
Y2-S2-080K20,1,116,AS,exp,27,↑,up,↑,0.5415348000824451,True,18,-1,0,12
Y2-S2-080K20,1,117,AS,exp,28,↓,down,↓,0.6939494996331632,True,18,1,1,13
Y2-S2-080K20,1,118,AS,exp,47,→,right,→,0.611667999997735,True,17,1,0,13
Y2-S2-080K20,1,119,AS,exp,32,←,no_key,no_letter,-1.0,False,17,-1,1,14
Y2-S2-080K20,1,120,AS,exp,34,↑,down,↓,1.0539802997373044,False,18,-1,0,14
Y2-S2-080K20,1,121,AS,exp,44,→,right,→,0.7060223999433219,True,19,-1,0,14
Y2-S2-080K20,1,122,AS,exp,39,↑,up,↑,0.4924285998567939,True,19,-1,0,14
Y2-S2-080K20,1,123,AS,exp,48,→,right,→,0.4174759001471102,True,19,1,1,15
Y2-S2-080K20,1,124,AS,exp,44,↓,down,↓,0.851243699900806,True,18,1,0,15
Y2-S2-080K20,1,125,AS,exp,36,↑,up,↑,0.43370849965140224,True,18,1,0,15
Y2-S2-080K20,1,126,AS,exp,38,→,right,→,0.5151320998556912,True,18,1,0,15
Y2-S2-080K20,1,127,AS,exp,44,←,right,→,0.4538202998228371,False,17,-1,1,16
Y2-S2-080K20,2,128,PS,intra_train,43,↑,up,↑,0.58018230041489,True,12,-,-,-
Y2-S2-080K20,2,129,PS,intra_train,28,←,left,←,0.5544945001602173,True,12,-,-,-
Y2-S2-080K20,2,130,PS,intra_train,40,↑,up,↑,0.4493565997108817,True,12,-,-,-
Y2-S2-080K20,2,131,PS,intra_train,30,↓,down,↓,0.5552550996653736,True,12,-,-,-
Y2-S2-080K20,2,132,PS,intra_train,32,←,left,←,0.6183048998937011,True,12,-,-,-
Y2-S2-080K20,2,133,PS,exp,35,→,right,→,0.460740499664098,True,8,0,0,0
Y2-S2-080K20,2,134,PS,exp,47,←,left,←,0.48375010024756193,True,8,0,0,0
Y2-S2-080K20,2,135,PS,exp,33,↑,right,→,0.5209321998991072,False,8,-1,0,0
Y2-S2-080K20,2,136,PS,exp,41,←,left,←,0.5221818001009524,True,9,-1,0,0
Y2-S2-080K20,2,137,PS,exp,32,↑,up,↑,0.47353560011833906,True,9,-1,0,0
Y2-S2-080K20,2,138,PS,exp,44,→,right,→,0.8247843002900481,True,9,1,1,1
Y2-S2-080K20,2,139,PS,exp,40,↑,right,→,0.7594630001112819,False,8,-1,1,2
Y2-S2-080K20,2,140,PS,exp,47,↓,down,↓,0.6076364000327885,True,9,-1,0,2
Y2-S2-080K20,2,141,PS,exp,49,→,left,←,0.5570211997255683,False,9,-1,0,2
Y2-S2-080K20,2,142,PS,exp,48,↓,up,↑,0.4630259000696242,False,10,-1,0,2
Y2-S2-080K20,2,143,PS,exp,38,←,left,←,0.6391039998270571,True,11,-1,0,2
Y2-S2-080K20,2,144,PS,exp,25,↑,down,↓,1.0451825000345707,False,11,-1,0,2
Y2-S2-080K20,2,145,PS,exp,27,←,left,←,0.5229017999954522,True,12,-1,0,2
Y2-S2-080K20,2,146,PS,exp,25,↑,up,↑,0.45188229996711016,True,12,-1,0,2
Y2-S2-080K20,2,147,PS,exp,32,↓,down,↓,0.515837199985981,True,12,1,1,3
Y2-S2-080K20,2,148,PS,exp,31,→,right,→,0.48554559983313084,True,11,1,0,3
Y2-S2-080K20,2,149,PS,exp,27,↓,down,↓,0.5125499996356666,True,11,1,0,3
Y2-S2-080K20,2,150,PS,exp,33,←,left,←,0.36417399998754263,True,11,1,0,3
Y2-S2-080K20,2,151,PS,exp,43,→,right,→,0.5883478000760078,True,10,1,0,3
Y2-S2-080K20,2,152,PS,exp,34,↓,down,↓,0.5622554002329707,True,10,1,0,3
Y2-S2-080K20,2,153,PS,exp,31,↑,up,↑,0.4733041999861598,True,10,1,0,3
Y2-S2-080K20,2,154,PS,exp,40,←,left,←,0.610135399736464,True,9,1,0,3
Y2-S2-080K20,2,155,PS,exp,48,↑,up,↑,0.48186880024150014,True,9,1,0,3
Y2-S2-080K20,2,156,PS,exp,33,→,up,↑,1.4538095002062619,False,9,-1,1,4
Y2-S2-080K20,2,157,PS,exp,38,↓,down,↓,0.6445515998639166,True,10,-1,0,4
Y2-S2-080K20,2,158,PS,exp,42,→,right,→,0.47309459978714585,True,10,-1,0,4
Y2-S2-080K20,2,159,PS,exp,48,↑,right,→,0.6243977001868188,False,10,-1,0,4
Y2-S2-080K20,2,160,PS,exp,30,↓,down,↓,0.6213515000417829,True,11,-1,0,4
Y2-S2-080K20,2,161,PS,exp,36,←,left,←,0.4802275998517871,True,11,-1,0,4
Y2-S2-080K20,2,162,PS,exp,36,→,right,→,0.5305486000142992,True,11,1,1,5
Y2-S2-080K20,2,163,PS,exp,48,←,left,←,1.0033321999944746,True,10,1,0,5
Y2-S2-080K20,2,164,PS,exp,35,↓,down,↓,1.1165836001746356,True,10,1,0,5
Y2-S2-080K20,2,165,PS,exp,49,↑,up,↑,0.509635700378567,True,10,1,0,5
Y2-S2-080K20,2,166,PS,exp,38,→,right,→,0.4728974997997284,True,9,1,0,5
Y2-S2-080K20,2,167,PS,exp,28,←,left,←,0.3791594998911023,True,9,1,0,5
Y2-S2-080K20,2,168,PS,exp,37,→,right,→,0.4484878000803292,True,9,1,0,5
Y2-S2-080K20,2,169,PS,exp,37,←,left,←,0.48041999991983175,True,8,1,0,5
Y2-S2-080K20,2,170,PS,exp,42,↓,down,↓,0.6142843998968601,True,8,1,0,5
Y2-S2-080K20,2,171,PS,exp,37,↑,up,↑,0.8265751004219055,True,8,1,0,5
Y2-S2-080K20,2,172,PS,exp,31,←,left,←,0.5037660002708435,True,7,1,0,5
Y2-S2-080K20,2,173,PS,exp,39,→,right,→,0.6269791000522673,True,7,1,0,5
Y2-S2-080K20,2,174,PS,exp,47,←,left,←,0.48232509987428784,True,7,1,0,5
Y2-S2-080K20,2,175,PS,exp,46,→,down,↓,1.0378347001969814,False,6,-1,1,6
Y2-S2-080K20,2,176,PS,exp,29,↓,up,↑,0.9115320001728833,False,7,-1,0,6
Y2-S2-080K20,2,177,PS,exp,48,→,right,→,0.52647910034284,True,8,-1,0,6
Y2-S2-080K20,2,178,PS,exp,41,←,left,←,0.7008035997860134,True,8,-1,0,6
Y2-S2-080K20,2,179,PS,exp,40,↑,right,→,0.657219999935478,False,8,-1,0,6
Y2-S2-080K20,2,180,PS,exp,35,↓,left,←,0.6909868996590376,False,9,-1,0,6
Y2-S2-080K20,2,181,PS,exp,28,→,left,←,0.7228558999486268,False,10,-1,0,6
Y2-S2-080K20,2,182,PS,exp,48,←,left,←,0.4669431000947952,True,11,-1,0,6
Y2-S2-080K20,2,183,PS,exp,43,→,right,→,0.45186319993808866,True,11,-1,0,6
Y2-S2-080K20,2,184,PS,exp,40,←,left,←,0.5032218000851572,True,11,1,1,7
Y2-S2-080K20,2,185,PS,exp,46,↑,up,↑,0.6253607999533415,True,10,1,0,7
Y2-S2-080K20,2,186,PS,exp,43,↓,left,←,0.7961184997111559,False,10,-1,1,8
Y2-S2-080K20,2,187,PS,exp,39,↑,right,→,0.7645670999772847,False,11,-1,0,8
Y2-S2-080K20,2,188,PS,exp,46,→,left,←,0.782838299870491,False,12,-1,0,8
Y2-S2-080K20,2,189,PS,exp,29,↓,left,←,0.44844580022618175,False,13,-1,0,8
Y2-S2-080K20,2,190,PS,exp,44,→,right,→,0.49806120013818145,True,14,-1,0,8
Y2-S2-080K20,2,191,PS,exp,48,↑,up,↑,0.48261209996417165,True,14,-1,0,8
Y2-S2-080K20,2,192,PS,exp,37,↓,right,→,0.5156315001659095,False,14,-1,0,8
Y2-S2-080K20,2,193,PS,exp,38,→,right,→,0.495745699852705,True,15,-1,0,8
Y2-S2-080K20,2,194,PS,exp,44,↑,up,↑,0.5499276001937687,True,15,-1,0,8
Y2-S2-080K20,2,195,PS,exp,49,↓,down,↓,0.4325179997831583,True,15,1,1,9
Y2-S2-080K20,2,196,PS,exp,34,←,right,→,0.3672191998921335,False,14,-1,1,10
Y2-S2-080K20,2,197,PS,exp,47,→,left,←,0.7978075002320111,False,15,-1,0,10
Y2-S2-080K20,2,198,PS,exp,34,↓,down,↓,0.49723830027505755,True,16,-1,0,10
Y2-S2-080K20,2,199,PS,exp,30,←,left,←,0.5972198997624218,True,16,-1,0,10
Y2-S2-080K20,2,200,PS,exp,33,↑,left,←,0.9510051999241114,False,16,-1,0,10
Y2-S2-080K20,2,201,PS,exp,39,→,right,→,0.4703005002811551,True,17,-1,0,10
Y2-S2-080K20,2,202,PS,exp,40,←,no_key,no_letter,-1.0,False,17,-1,0,10
Y2-S2-080K20,2,203,PS,exp,48,↓,down,↓,0.5661812000907958,True,18,-1,0,10
Y2-S2-080K20,2,204,PS,exp,33,→,right,→,0.6112835998646915,True,18,-1,0,10
Y2-S2-080K20,2,205,PS,exp,33,↑,up,↑,0.5611753999255598,True,18,1,1,11
Y2-S2-080K20,2,206,PS,exp,50,←,left,←,0.47568520018830895,True,17,1,0,11
Y2-S2-080K20,2,207,PS,exp,31,↑,up,↑,0.5769608002156019,True,17,1,0,11
Y2-S2-080K20,2,208,PS,exp,46,←,left,←,0.5395555999130011,True,17,1,0,11
Y2-S2-080K20,2,209,PS,exp,28,→,right,→,0.44746380019932985,True,16,1,0,11
Y2-S2-080K20,2,210,PS,exp,43,↓,down,↓,0.5814701002091169,True,16,1,0,11
Y2-S2-080K20,2,211,PS,exp,45,→,no_key,no_letter,-1.0,False,16,-1,1,12
Y2-S2-080K20,2,212,PS,exp,50,↓,down,↓,0.5103222001343966,True,17,-1,0,12
Y2-S2-080K20,2,213,PS,exp,40,←,no_key,no_letter,-1.0,False,17,-1,0,12
Y2-S2-080K20,2,214,PS,exp,25,↓,down,↓,0.6287356000393629,True,18,-1,0,12
Y2-S2-080K20,2,215,PS,exp,48,→,right,→,0.5299494001083076,True,18,-1,0,12
Y2-S2-080K20,2,216,PS,exp,31,↑,up,↑,0.5257145003415644,True,18,1,1,13
Y2-S2-080K20,2,217,PS,exp,30,←,left,←,0.4580208999104798,True,17,1,0,13
Y2-S2-080K20,2,218,PS,exp,50,→,right,→,0.5176960001699626,True,17,1,0,13
Y2-S2-080K20,2,219,PS,exp,35,↑,no_key,no_letter,-1.0,False,17,-1,1,14
Y2-S2-080K20,2,220,PS,exp,32,←,left,←,0.4338938998989761,True,18,-1,0,14
Y2-S2-080K20,2,221,PS,exp,34,↑,up,↑,0.4839989999309182,True,18,-1,0,14
Y2-S2-080K20,2,222,PS,exp,45,→,right,→,0.5716007999144495,True,18,1,1,15
Y2-S2-080K20,2,223,PS,exp,37,←,left,←,0.49640929978340864,True,17,1,0,15
Y2-S2-080K20,2,224,PS,exp,37,↓,down,↓,0.587489000055939,True,17,1,0,15
Y2-S2-080K20,2,225,PS,exp,29,↑,no_key,no_letter,-1.0,False,17,-1,1,16
Y2-S2-080K20,3,226,PS,intra_train,32,→,right,→,0.5216161999851465,True,12,-,-,-
Y2-S2-080K20,3,227,PS,intra_train,46,←,left,←,0.4693618998862803,True,12,-,-,-
Y2-S2-080K20,3,228,PS,intra_train,50,↓,down,↓,0.6748481998220086,True,12,-,-,-
Y2-S2-080K20,3,229,PS,intra_train,40,→,right,→,0.5160149000585079,True,12,-,-,-
Y2-S2-080K20,3,230,PS,intra_train,46,←,left,←,0.3987671001814306,True,12,-,-,-
Y2-S2-080K20,3,231,PS,exp,29,↓,down,↓,1.1851842999458313,True,8,0,0,0
Y2-S2-080K20,3,232,PS,exp,31,↑,up,↑,1.611942599993199,True,8,0,0,0
Y2-S2-080K20,3,233,PS,exp,36,←,left,←,0.41955829970538616,True,8,1,0,0
Y2-S2-080K20,3,234,PS,exp,29,→,right,→,0.6229686001315713,True,7,1,0,0
Y2-S2-080K20,3,235,PS,exp,31,←,right,→,0.5518595003522933,False,7,-1,1,1
Y2-S2-080K20,3,236,PS,exp,48,↓,down,↓,0.5895572998560965,True,8,-1,0,1
Y2-S2-080K20,3,237,PS,exp,27,←,left,←,0.4508030000142753,True,8,-1,0,1
Y2-S2-080K20,3,238,PS,exp,49,→,left,←,0.727906099986285,False,8,-1,0,1
Y2-S2-080K20,3,239,PS,exp,31,←,left,←,0.47349900007247925,True,9,-1,0,1
Y2-S2-080K20,3,240,PS,exp,39,→,right,→,0.5590132996439934,True,9,-1,0,1
Y2-S2-080K20,3,241,PS,exp,45,↓,up,↑,0.8106448999606073,False,9,-1,0,1
Y2-S2-080K20,3,242,PS,exp,40,→,down,↓,0.8187675001099706,False,10,-1,0,1
Y2-S2-080K20,3,243,PS,exp,42,←,left,←,0.47385929990559816,True,11,-1,0,1
Y2-S2-080K20,3,244,PS,exp,40,→,right,→,0.4629263998940587,True,11,-1,0,1
Y2-S2-080K20,3,245,PS,exp,41,←,left,←,0.4886586000211537,True,11,1,1,2
Y2-S2-080K20,3,246,PS,exp,48,↑,up,↑,0.524870099965483,True,10,1,0,2
Y2-S2-080K20,3,247,PS,exp,32,→,right,→,0.5307399001903832,True,10,1,0,2
Y2-S2-080K20,3,248,PS,exp,46,↓,down,↓,0.6446347995661199,True,10,1,0,2
Y2-S2-080K20,3,249,PS,exp,36,↑,up,↑,0.45086950017139316,True,9,1,0,2
Y2-S2-080K20,3,250,PS,exp,37,←,left,←,0.5207756999880075,True,9,1,0,2
Y2-S2-080K20,3,251,PS,exp,45,→,up,↑,0.6541164997033775,False,9,-1,1,3
Y2-S2-080K20,3,252,PS,exp,48,↓,down,↓,0.6692312997765839,True,10,-1,0,3
Y2-S2-080K20,3,253,PS,exp,39,→,right,→,0.553067300003022,True,10,-1,0,3
Y2-S2-080K20,3,254,PS,exp,48,↓,left,←,0.8398830001242459,False,10,-1,0,3
Y2-S2-080K20,3,255,PS,exp,25,←,right,→,1.1413441998884082,False,11,-1,0,3
Y2-S2-080K20,3,256,PS,exp,39,↓,down,↓,0.7055742000229657,True,12,-1,0,3
Y2-S2-080K20,3,257,PS,exp,41,←,left,←,0.9197005000896752,True,12,-1,0,3
Y2-S2-080K20,3,258,PS,exp,32,→,right,→,0.41505630034953356,True,12,1,1,4
Y2-S2-080K20,3,259,PS,exp,31,↓,left,←,0.7158992001786828,False,11,-1,1,5
Y2-S2-080K20,3,260,PS,exp,34,↑,down,↓,0.9062621002085507,False,12,-1,0,5
Y2-S2-080K20,3,261,PS,exp,29,←,left,←,0.6615104996599257,True,13,-1,0,5
Y2-S2-080K20,3,262,PS,exp,30,↓,down,↓,0.7810570998117328,True,13,-1,0,5
Y2-S2-080K20,3,263,PS,exp,35,↑,up,↑,0.613999200053513,True,13,1,1,6
Y2-S2-080K20,3,264,PS,exp,42,←,left,←,0.6527342000044882,True,12,1,0,6
Y2-S2-080K20,3,265,PS,exp,31,→,right,→,0.4646290000528097,True,12,1,0,6
Y2-S2-080K20,3,266,PS,exp,30,↓,down,↓,0.776201399974525,True,12,1,0,6
Y2-S2-080K20,3,267,PS,exp,36,↑,up,↑,0.5471957996487617,True,11,1,0,6
Y2-S2-080K20,3,268,PS,exp,48,←,left,←,0.4078504000790417,True,11,1,0,6
Y2-S2-080K20,3,269,PS,exp,40,↑,up,↑,0.5648192996159196,True,11,1,0,6
Y2-S2-080K20,3,270,PS,exp,25,↓,down,↓,0.8115630997344851,True,10,1,0,6
Y2-S2-080K20,3,271,PS,exp,26,↑,up,↑,0.4516293001361191,True,10,1,0,6
Y2-S2-080K20,3,272,PS,exp,37,↓,down,↓,0.9353469996713102,True,10,1,0,6
Y2-S2-080K20,3,273,PS,exp,40,←,left,←,0.5820263996720314,True,9,1,0,6
Y2-S2-080K20,3,274,PS,exp,40,↑,up,↑,0.4327855999581516,True,9,1,0,6
Y2-S2-080K20,3,275,PS,exp,32,←,left,←,0.8036497998982668,True,9,1,0,6
Y2-S2-080K20,3,276,PS,exp,41,↓,down,↓,0.6021950002759695,True,8,1,0,6
Y2-S2-080K20,3,277,PS,exp,43,→,right,→,0.4859180999919772,True,8,1,0,6
Y2-S2-080K20,3,278,PS,exp,49,↓,down,↓,0.8201838000677526,True,8,1,0,6
Y2-S2-080K20,3,279,PS,exp,49,→,up,↑,0.6918422998860478,False,7,-1,1,7
Y2-S2-080K20,3,280,PS,exp,26,←,left,←,0.7778731002472341,True,8,-1,0,7
Y2-S2-080K20,3,281,PS,exp,43,→,right,→,0.4785591000691056,True,8,-1,0,7
Y2-S2-080K20,3,282,PS,exp,42,↑,up,↑,0.6871267999522388,True,8,1,1,8
Y2-S2-080K20,3,283,PS,exp,28,→,right,→,0.4231973998248577,True,7,1,0,8
Y2-S2-080K20,3,284,PS,exp,36,↑,left,←,0.7002374003641307,False,7,-1,1,9
Y2-S2-080K20,3,285,PS,exp,48,→,left,←,0.7391741001047194,False,8,-1,0,9
Y2-S2-080K20,3,286,PS,exp,31,←,left,←,0.4459422999061644,True,9,-1,0,9
Y2-S2-080K20,3,287,PS,exp,25,→,right,→,0.6727801999077201,True,9,-1,0,9
Y2-S2-080K20,3,288,PS,exp,49,←,left,←,0.43645860021933913,True,9,1,1,10
Y2-S2-080K20,3,289,PS,exp,29,↑,up,↑,1.1046755998395383,True,8,1,0,10
Y2-S2-080K20,3,290,PS,exp,40,←,left,←,0.40362989995628595,True,8,1,0,10
Y2-S2-080K20,3,291,PS,exp,31,↑,left,←,0.5390840000472963,False,8,-1,1,11
Y2-S2-080K20,3,292,PS,exp,36,↓,right,→,0.795694200322032,False,9,-1,0,11
Y2-S2-080K20,3,293,PS,exp,38,→,right,→,0.45618569990620017,True,10,-1,0,11
Y2-S2-080K20,3,294,PS,exp,43,↑,up,↑,0.4939407999627292,True,10,-1,0,11
Y2-S2-080K20,3,295,PS,exp,33,↓,down,↓,0.8362579001113772,True,10,1,1,12
Y2-S2-080K20,3,296,PS,exp,25,↑,up,↑,0.4729188000783324,True,9,1,0,12
Y2-S2-080K20,3,297,PS,exp,49,→,right,→,0.349893799982965,True,9,1,0,12
Y2-S2-080K20,3,298,PS,exp,30,↓,down,↓,0.6854648999869823,True,9,1,0,12
Y2-S2-080K20,3,299,PS,exp,45,←,left,←,0.48768729995936155,True,8,1,0,12
Y2-S2-080K20,3,300,PS,exp,27,→,right,→,0.6504465001635253,True,8,1,0,12
Y2-S2-080K20,3,301,PS,exp,41,←,left,←,0.8794227000325918,True,8,1,0,12
Y2-S2-080K20,3,302,PS,exp,25,↑,down,↓,0.6898179003037512,False,7,-1,1,13
Y2-S2-080K20,3,303,PS,exp,25,→,right,→,0.5371842999011278,True,8,-1,0,13
Y2-S2-080K20,3,304,PS,exp,34,↑,right,→,0.6039280998520553,False,8,-1,0,13
Y2-S2-080K20,3,305,PS,exp,32,←,left,←,0.5103798001073301,True,9,-1,0,13
Y2-S2-080K20,3,306,PS,exp,28,→,up,↑,0.8776713004335761,False,9,-1,0,13
Y2-S2-080K20,3,307,PS,exp,47,↓,down,↓,0.6802594000473619,True,10,-1,0,13
Y2-S2-080K20,3,308,PS,exp,28,←,left,←,0.5786700998432934,True,10,-1,0,13
Y2-S2-080K20,3,309,PS,exp,30,→,left,←,0.5475921998731792,False,10,-1,0,13
Y2-S2-080K20,3,310,PS,exp,35,←,left,←,0.4570114999078214,True,11,-1,0,13
Y2-S2-080K20,3,311,PS,exp,42,↓,down,↓,0.4655048996210098,True,11,-1,0,13
Y2-S2-080K20,3,312,PS,exp,34,←,no_key,no_letter,-1.0,False,11,-1,0,13
Y2-S2-080K20,3,313,PS,exp,33,↑,down,↓,1.6096876999363303,False,12,-1,0,13
Y2-S2-080K20,3,314,PS,exp,46,↓,down,↓,0.6601052996702492,True,13,-1,0,13
Y2-S2-080K20,3,315,PS,exp,25,←,no_key,no_letter,-1.0,False,13,-1,0,13
Y2-S2-080K20,3,316,PS,exp,32,→,left,←,0.7793947998434305,False,14,-1,0,13
Y2-S2-080K20,3,317,PS,exp,47,←,left,←,0.42777720000594854,True,15,-1,0,13
Y2-S2-080K20,3,318,PS,exp,50,↓,down,↓,0.7118930001743138,True,15,-1,0,13
Y2-S2-080K20,3,319,PS,exp,38,→,right,→,0.5913535002619028,True,15,1,1,14
Y2-S2-080K20,3,320,PS,exp,39,←,left,←,0.535223700106144,True,14,1,0,14
Y2-S2-080K20,3,321,PS,exp,50,→,right,→,0.4777047000825405,True,14,1,0,14
Y2-S2-080K20,3,322,PS,exp,46,↑,up,↑,0.6496820002794266,True,14,1,0,14
Y2-S2-080K20,3,323,PS,exp,35,↓,down,↓,0.6441744999028742,True,13,1,0,14
Y2-S2-080K20,3,324,PS,exp,29,←,right,→,0.7381354998797178,False,13,-1,1,15
Y2-S2-080K20,3,325,PS,exp,30,↑,up,↑,0.5495163998566568,True,14,-1,0,15
Y2-S2-080K20,3,326,PS,exp,31,↓,down,↓,0.5874626999720931,True,14,-1,0,15
Y2-S2-080K20,3,327,PS,exp,37,←,left,←,0.4478980000130832,True,14,1,1,16
Y2-S2-080K20,4,328,AS,intra_train,42,↓,down,↓,0.8310805996879935,True,27,-,-,-
Y2-S2-080K20,4,329,AS,intra_train,29,→,right,→,0.6874061999842525,True,27,-,-,-
Y2-S2-080K20,4,330,AS,intra_train,36,↑,up,↑,0.5674671996384859,True,27,-,-,-
Y2-S2-080K20,4,331,AS,intra_train,27,→,right,→,0.6829468999058008,True,27,-,-,-
Y2-S2-080K20,4,332,AS,intra_train,45,←,left,←,0.5338749997317791,True,27,-,-,-
Y2-S2-080K20,4,333,AS,exp,50,↓,down,↓,0.7837298000231385,True,18,0,0,0
Y2-S2-080K20,4,334,AS,exp,42,→,no_key,no_letter,-1.0,False,18,-1,0,0
Y2-S2-080K20,4,335,AS,exp,40,←,right,→,1.4586828998290002,False,19,-1,0,0
Y2-S2-080K20,4,336,AS,exp,35,→,no_key,no_letter,-1.0,False,20,-1,0,0
Y2-S2-080K20,4,337,AS,exp,30,←,left,←,0.5299869002774358,True,21,-1,0,0
Y2-S2-080K20,4,338,AS,exp,42,↓,down,↓,0.736277500167489,True,21,-1,0,0
Y2-S2-080K20,4,339,AS,exp,49,↑,up,↑,0.8592524998821318,True,21,1,1,1
Y2-S2-080K20,4,340,AS,exp,44,↓,down,↓,0.7491037999279797,True,20,1,0,1
Y2-S2-080K20,4,341,AS,exp,31,←,left,←,0.4172919001430273,True,20,1,0,1
Y2-S2-080K20,4,342,AS,exp,36,→,no_key,no_letter,-1.0,False,20,-1,1,2
Y2-S2-080K20,4,343,AS,exp,42,↑,up,↑,0.8029004000127316,True,21,-1,0,2
Y2-S2-080K20,4,344,AS,exp,40,→,right,→,0.5406212001107633,True,21,-1,0,2
Y2-S2-080K20,4,345,AS,exp,39,←,left,←,0.6881323996931314,True,21,1,1,3
Y2-S2-080K20,4,346,AS,exp,29,→,right,→,0.5032808003015816,True,20,1,0,3
Y2-S2-080K20,4,347,AS,exp,25,↑,up,↑,0.5598504999652505,True,20,1,0,3
Y2-S2-080K20,4,348,AS,exp,40,→,right,→,0.5144782001152635,True,20,1,0,3
Y2-S2-080K20,4,349,AS,exp,44,←,left,←,0.4003308000974357,True,19,1,0,3
Y2-S2-080K20,4,350,AS,exp,43,↓,up,↑,1.27103290008381,False,19,-1,1,4
Y2-S2-080K20,4,351,AS,exp,29,↑,up,↑,0.6826800997368991,True,20,-1,0,4
Y2-S2-080K20,4,352,AS,exp,48,←,left,←,0.5081874001771212,True,20,-1,0,4
Y2-S2-080K20,4,353,AS,exp,43,↓,down,↓,0.7531233998015523,True,20,1,1,5
Y2-S2-080K20,4,354,AS,exp,33,↑,up,↑,0.7708455002866685,True,19,1,0,5
Y2-S2-080K20,4,355,AS,exp,43,←,left,←,0.5975130996666849,True,19,1,0,5
Y2-S2-080K20,4,356,AS,exp,38,↓,left,←,0.5023368000984192,False,19,-1,1,6
Y2-S2-080K20,4,357,AS,exp,43,→,right,→,0.6593141998164356,True,20,-1,0,6
Y2-S2-080K20,4,358,AS,exp,33,↓,down,↓,0.5503190997987986,True,20,-1,0,6
Y2-S2-080K20,4,359,AS,exp,29,↑,up,↑,0.5788289997726679,True,20,1,1,7
Y2-S2-080K20,4,360,AS,exp,34,←,left,←,0.4994415999390185,True,19,1,0,7
Y2-S2-080K20,4,361,AS,exp,25,→,right,→,0.6080141998827457,True,19,1,0,7
Y2-S2-080K20,4,362,AS,exp,33,←,left,←,0.5803747000172734,True,19,1,0,7
Y2-S2-080K20,4,363,AS,exp,26,↑,up,↑,0.6884486000053585,True,18,1,0,7
Y2-S2-080K20,4,364,AS,exp,26,→,right,→,0.6482200999744236,True,18,1,0,7
Y2-S2-080K20,4,365,AS,exp,29,↓,right,→,0.6450292002409697,False,18,-1,1,8
Y2-S2-080K20,4,366,AS,exp,26,→,right,→,0.7940117996186018,True,19,-1,0,8
Y2-S2-080K20,4,367,AS,exp,33,←,left,←,0.5314321001060307,True,19,-1,0,8
Y2-S2-080K20,4,368,AS,exp,25,↓,down,↓,0.7599480003118515,True,19,1,1,9
Y2-S2-080K20,4,369,AS,exp,33,↑,up,↑,0.5908573996275663,True,18,1,0,9
Y2-S2-080K20,4,370,AS,exp,42,→,right,→,0.6287504998035729,True,18,1,0,9
Y2-S2-080K20,4,371,AS,exp,38,↑,up,↑,0.7697529001161456,True,18,1,0,9
Y2-S2-080K20,4,372,AS,exp,30,←,left,←,0.605242199730128,True,17,1,0,9
Y2-S2-080K20,4,373,AS,exp,47,→,left,←,0.9093786999583244,False,17,-1,1,10
Y2-S2-080K20,4,374,AS,exp,48,↑,up,↑,0.586410699877888,True,18,-1,0,10
Y2-S2-080K20,4,375,AS,exp,33,←,left,←,0.5020333998836577,True,18,-1,0,10
Y2-S2-080K20,4,376,AS,exp,35,↓,down,↓,0.7426255997270346,True,18,1,1,11
Y2-S2-080K20,4,377,AS,exp,50,→,up,↑,0.7829582002013922,False,17,-1,1,12
Y2-S2-080K20,4,378,AS,exp,35,↓,down,↓,0.7891311999410391,True,18,-1,0,12
Y2-S2-080K20,4,379,AS,exp,41,→,left,←,0.9521186999045312,False,18,-1,0,12
Y2-S2-080K20,4,380,AS,exp,50,↑,up,↑,0.6945400000549853,True,19,-1,0,12
Y2-S2-080K20,4,381,AS,exp,37,←,left,←,1.0520162000320852,True,19,-1,0,12
Y2-S2-080K20,4,382,AS,exp,39,↓,down,↓,1.006146099884063,True,19,1,1,13
Y2-S2-080K20,4,383,AS,exp,39,↑,up,↑,0.5533939003944397,True,18,1,0,13
Y2-S2-080K20,4,384,AS,exp,47,←,left,←,0.41717430017888546,True,18,1,0,13
Y2-S2-080K20,4,385,AS,exp,39,↓,down,↓,0.5922853997908533,True,18,1,0,13
Y2-S2-080K20,4,386,AS,exp,45,↑,no_key,no_letter,-1.0,False,17,-1,1,14
Y2-S2-080K20,4,387,AS,exp,44,↓,down,↓,0.7501667002215981,True,18,-1,0,14
Y2-S2-080K20,4,388,AS,exp,39,→,right,→,0.5273875999264419,True,18,-1,0,14
Y2-S2-080K20,4,389,AS,exp,38,↑,up,↑,0.655980299692601,True,18,1,1,15
Y2-S2-080K20,4,390,AS,exp,33,→,down,↓,0.9003538996912539,False,17,-1,1,16
Y2-S2-080K20,5,391,AS,intra_train,40,←,left,←,0.45050290040671825,True,27,-,-,-
Y2-S2-080K20,5,392,AS,intra_train,42,↓,down,↓,0.6992641999386251,True,27,-,-,-
Y2-S2-080K20,5,393,AS,intra_train,31,↑,up,↑,0.5334918000735343,True,27,-,-,-
Y2-S2-080K20,5,394,AS,intra_train,49,→,right,→,0.4834433998912573,True,27,-,-,-
Y2-S2-080K20,5,395,AS,intra_train,43,←,right,→,0.48371919989585876,False,27,-,-,-
Y2-S2-080K20,5,396,AS,exp,28,↓,down,↓,0.7908927001990378,True,18,0,0,0
Y2-S2-080K20,5,397,AS,exp,29,←,left,←,0.5308343004435301,True,18,0,0,0
Y2-S2-080K20,5,398,AS,exp,44,↑,up,↑,0.6153719001449645,True,18,1,0,0
Y2-S2-080K20,5,399,AS,exp,25,←,left,←,0.6545011000707746,True,17,1,0,0
Y2-S2-080K20,5,400,AS,exp,48,↓,down,↓,0.5894892998039722,True,17,1,0,0
Y2-S2-080K20,5,401,AS,exp,37,→,right,→,0.518624400254339,True,17,1,0,0
Y2-S2-080K20,5,402,AS,exp,38,←,no_key,no_letter,-1.0,False,16,-1,1,1
Y2-S2-080K20,5,403,AS,exp,43,→,left,←,0.522257599979639,False,17,-1,0,1
Y2-S2-080K20,5,404,AS,exp,30,←,right,→,0.9802914001047611,False,18,-1,0,1
Y2-S2-080K20,5,405,AS,exp,42,↑,up,↑,0.6269078003242612,True,19,-1,0,1
Y2-S2-080K20,5,406,AS,exp,30,←,left,←,0.6604675999842584,True,19,-1,0,1
Y2-S2-080K20,5,407,AS,exp,41,↓,down,↓,0.5317605999298394,True,19,1,1,2
Y2-S2-080K20,5,408,AS,exp,26,↑,no_key,no_letter,-1.0,False,18,-1,1,3
Y2-S2-080K20,5,409,AS,exp,34,↓,down,↓,0.8435156000778079,True,19,-1,0,3
Y2-S2-080K20,5,410,AS,exp,34,→,right,→,0.5687533002346754,True,19,-1,0,3
Y2-S2-080K20,5,411,AS,exp,44,←,left,←,0.5073553002439439,True,19,1,1,4
Y2-S2-080K20,5,412,AS,exp,48,↑,up,↑,0.5537867001257837,True,18,1,0,4
Y2-S2-080K20,5,413,AS,exp,27,→,right,→,0.56346599990502,True,18,1,0,4
Y2-S2-080K20,5,414,AS,exp,39,↑,no_key,no_letter,-1.0,False,18,-1,1,5
Y2-S2-080K20,5,415,AS,exp,43,→,right,→,0.6398199996910989,True,19,-1,0,5
Y2-S2-080K20,5,416,AS,exp,46,↓,down,↓,0.5054003996774554,True,19,-1,0,5
Y2-S2-080K20,5,417,AS,exp,35,→,no_key,no_letter,-1.0,False,19,-1,0,5
Y2-S2-080K20,5,418,AS,exp,37,↓,down,↓,0.76245589973405,True,20,-1,0,5
Y2-S2-080K20,5,419,AS,exp,30,←,left,←,0.4338580002076924,True,20,-1,0,5
Y2-S2-080K20,5,420,AS,exp,35,↓,down,↓,0.9338722000829875,True,20,1,1,6
Y2-S2-080K20,5,421,AS,exp,45,↑,up,↑,0.41756869992241263,True,19,1,0,6
Y2-S2-080K20,5,422,AS,exp,33,↓,down,↓,0.5756612997502089,True,19,1,0,6
Y2-S2-080K20,5,423,AS,exp,30,↑,up,↑,0.6589530999772251,True,19,1,0,6
Y2-S2-080K20,5,424,AS,exp,28,←,left,←,0.5728518003597856,True,18,1,0,6
Y2-S2-080K20,5,425,AS,exp,37,↑,up,↑,0.4899602001532912,True,18,1,0,6
Y2-S2-080K20,5,426,AS,exp,38,←,down,↓,1.4283773000352085,False,18,-1,1,7
Y2-S2-080K20,5,427,AS,exp,35,↑,up,↑,0.502717699855566,True,19,-1,0,7
Y2-S2-080K20,5,428,AS,exp,43,→,right,→,1.7970714000985026,True,19,-1,0,7
Y2-S2-080K20,5,429,AS,exp,42,←,left,←,0.6282067000865936,True,19,1,1,8
Y2-S2-080K20,5,430,AS,exp,33,↑,up,↑,0.7411643997766078,True,18,1,0,8
Y2-S2-080K20,5,431,AS,exp,31,←,left,←,0.528207499999553,True,18,1,0,8
Y2-S2-080K20,5,432,AS,exp,27,↑,up,↑,1.9644235000014305,True,18,1,0,8
Y2-S2-080K20,5,433,AS,exp,31,↓,down,↓,0.8761195000261068,True,17,1,0,8
Y2-S2-080K20,5,434,AS,exp,35,↑,up,↑,0.7540774000808597,True,17,1,0,8
Y2-S2-080K20,5,435,AS,exp,42,→,right,→,0.6150994002819061,True,17,1,0,8
Y2-S2-080K20,5,436,AS,exp,34,↓,down,↓,0.7286799000576138,True,16,1,0,8
Y2-S2-080K20,5,437,AS,exp,49,←,left,←,0.6304362001828849,True,16,1,0,8
Y2-S2-080K20,5,438,AS,exp,37,→,right,→,0.4511200999841094,True,16,1,0,8
Y2-S2-080K20,5,439,AS,exp,39,←,right,→,0.842408400028944,False,15,-1,1,9
Y2-S2-080K20,5,440,AS,exp,34,↓,down,↓,0.6271057999692857,True,16,-1,0,9
Y2-S2-080K20,5,441,AS,exp,39,↑,up,↑,0.7643397999927402,True,16,-1,0,9
Y2-S2-080K20,5,442,AS,exp,45,←,left,←,0.4379618000239134,True,16,1,1,10
Y2-S2-080K20,5,443,AS,exp,38,↓,up,↑,1.0873283999972045,False,15,-1,1,11
Y2-S2-080K20,5,444,AS,exp,49,←,left,←,0.5766488998197019,True,16,-1,0,11
Y2-S2-080K20,5,445,AS,exp,41,→,no_key,no_letter,-1.0,False,16,-1,0,11
Y2-S2-080K20,5,446,AS,exp,38,↓,down,↓,0.8604452996514738,True,17,-1,0,11
Y2-S2-080K20,5,447,AS,exp,39,→,right,→,0.712623399682343,True,17,-1,0,11
Y2-S2-080K20,5,448,AS,exp,26,↓,down,↓,0.8134039002470672,True,17,1,1,12
Y2-S2-080K20,5,449,AS,exp,33,↑,down,↓,0.9523395001888275,False,16,-1,1,13
Y2-S2-080K20,5,450,AS,exp,35,←,left,←,0.49230770021677017,True,17,-1,0,13
Y2-S2-080K20,5,451,AS,exp,27,↓,down,↓,0.9578998000361025,True,17,-1,0,13
Y2-S2-080K20,5,452,AS,exp,43,↑,up,↑,0.5247824001125991,True,17,1,1,14
Y2-S2-080K20,5,453,AS,exp,48,→,right,→,0.4003320001065731,True,16,1,0,14
Y2-S2-080K20,5,454,AS,exp,35,↓,up,↑,1.0483575998805463,False,16,-1,1,15
Y2-S2-080K20,5,455,AS,exp,48,↑,up,↑,0.5663898000493646,True,17,-1,0,15
Y2-S2-080K20,5,456,AS,exp,40,↓,down,↓,0.8972406997345388,True,17,-1,0,15
Y2-S2-080K20,5,457,AS,exp,27,←,left,←,0.7066214000806212,True,17,1,1,16
Y2-S2-080K20,6,458,PS,intra_train,43,↓,down,↓,0.7363253999501467,True,12,-,-,-
Y2-S2-080K20,6,459,PS,intra_train,41,↑,up,↑,0.5368999000638723,True,12,-,-,-
Y2-S2-080K20,6,460,PS,intra_train,26,↓,down,↓,0.47680449998006225,True,12,-,-,-
Y2-S2-080K20,6,461,PS,intra_train,50,→,right,→,0.51127910008654,True,12,-,-,-
Y2-S2-080K20,6,462,PS,intra_train,29,←,left,←,0.5217297002673149,True,12,-,-,-
Y2-S2-080K20,6,463,PS,exp,32,↓,down,↓,0.8390391999855638,True,8,0,0,0
Y2-S2-080K20,6,464,PS,exp,50,←,left,←,0.47848929977044463,True,8,0,0,0
Y2-S2-080K20,6,465,PS,exp,30,↓,right,→,0.664790399838239,False,8,-1,0,0
Y2-S2-080K20,6,466,PS,exp,27,←,left,←,0.5842714002355933,True,9,-1,0,0
Y2-S2-080K20,6,467,PS,exp,50,↑,up,↑,0.765209499746561,True,9,-1,0,0
Y2-S2-080K20,6,468,PS,exp,29,↓,left,←,1.0501610999926925,False,9,-1,0,0
Y2-S2-080K20,6,469,PS,exp,29,←,right,→,0.8336714999750257,False,10,-1,0,0
Y2-S2-080K20,6,470,PS,exp,37,↓,down,↓,0.8988660001195967,True,11,-1,0,0
Y2-S2-080K20,6,471,PS,exp,43,→,right,→,0.5160986999981105,True,11,-1,0,0
Y2-S2-080K20,6,472,PS,exp,41,↑,left,←,0.7183888000436127,False,11,-1,0,0
Y2-S2-080K20,6,473,PS,exp,26,←,left,←,0.47680209996178746,True,12,-1,0,0
Y2-S2-080K20,6,474,PS,exp,38,↑,up,↑,0.5728283999487758,True,12,-1,0,0
Y2-S2-080K20,6,475,PS,exp,28,→,right,→,0.4552527996711433,True,12,1,1,1
Y2-S2-080K20,6,476,PS,exp,44,↑,up,↑,0.47988100023940206,True,11,1,0,1
Y2-S2-080K20,6,477,PS,exp,44,↓,down,↓,0.5779539002105594,True,11,1,0,1
Y2-S2-080K20,6,478,PS,exp,28,↑,up,↑,0.44833350041881204,True,11,1,0,1
Y2-S2-080K20,6,479,PS,exp,27,→,right,→,0.41323870001360774,True,10,1,0,1
Y2-S2-080K20,6,480,PS,exp,29,↑,left,←,0.30056559992954135,False,10,-1,1,2
Y2-S2-080K20,6,481,PS,exp,39,←,left,←,0.6354165999218822,True,11,-1,0,2
Y2-S2-080K20,6,482,PS,exp,32,↓,down,↓,0.6428707996383309,True,11,-1,0,2
Y2-S2-080K20,6,483,PS,exp,35,↑,up,↑,0.48881120001897216,True,11,1,1,3
Y2-S2-080K20,6,484,PS,exp,39,←,left,←,0.39993020007386804,True,10,1,0,3
Y2-S2-080K20,6,485,PS,exp,40,↑,up,↑,0.4783220998942852,True,10,1,0,3
Y2-S2-080K20,6,486,PS,exp,32,→,right,→,0.45755260018631816,True,10,1,0,3
Y2-S2-080K20,6,487,PS,exp,33,↑,up,↑,1.020102099981159,True,9,1,0,3
Y2-S2-080K20,6,488,PS,exp,38,←,left,←,0.4377498999238014,True,9,1,0,3
Y2-S2-080K20,6,489,PS,exp,25,→,right,→,0.4611551999114454,True,9,1,0,3
Y2-S2-080K20,6,490,PS,exp,34,↓,down,↓,0.8119408003985882,True,8,1,0,3
Y2-S2-080K20,6,491,PS,exp,41,↑,up,↑,0.4240542999468744,True,8,1,0,3
Y2-S2-080K20,6,492,PS,exp,42,↓,up,↑,0.7492470997385681,False,8,-1,1,4
Y2-S2-080K20,6,493,PS,exp,46,↑,up,↑,0.4733567996881902,True,9,-1,0,4
Y2-S2-080K20,6,494,PS,exp,30,→,right,→,0.40275719994679093,True,9,-1,0,4
Y2-S2-080K20,6,495,PS,exp,36,↑,up,↑,0.6586822001263499,True,9,1,1,5
Y2-S2-080K20,6,496,PS,exp,50,←,left,←,0.4310848000459373,True,8,1,0,5
Y2-S2-080K20,6,497,PS,exp,32,→,right,→,0.5214320002123713,True,8,1,0,5
Y2-S2-080K20,6,498,PS,exp,40,↓,down,↓,0.6374533004127443,True,8,1,0,5
Y2-S2-080K20,6,499,PS,exp,47,←,up,↑,0.6311256000772119,False,7,-1,1,6
Y2-S2-080K20,6,500,PS,exp,31,↑,up,↑,0.41625390015542507,True,8,-1,0,6
Y2-S2-080K20,6,501,PS,exp,41,↓,up,↑,1.0246317000128329,False,8,-1,0,6
Y2-S2-080K20,6,502,PS,exp,34,→,right,→,0.39014550019055605,True,9,-1,0,6
Y2-S2-080K20,6,503,PS,exp,25,↑,up,↑,0.6458019996061921,True,9,-1,0,6
Y2-S2-080K20,6,504,PS,exp,34,←,left,←,0.4119803002104163,True,9,1,1,7
Y2-S2-080K20,6,505,PS,exp,41,→,down,↓,0.7944932002574205,False,8,-1,1,8
Y2-S2-080K20,6,506,PS,exp,39,↓,down,↓,0.6656986000016332,True,9,-1,0,8
Y2-S2-080K20,6,507,PS,exp,31,→,right,→,0.4733833996579051,True,9,-1,0,8
Y2-S2-080K20,6,508,PS,exp,44,↓,up,↑,0.7805590000934899,False,9,-1,0,8
Y2-S2-080K20,6,509,PS,exp,27,→,right,→,0.461355899926275,True,10,-1,0,8
Y2-S2-080K20,6,510,PS,exp,25,←,left,←,0.47089669993147254,True,10,-1,0,8
Y2-S2-080K20,6,511,PS,exp,38,→,right,→,0.5362089998088777,True,10,1,1,9
Y2-S2-080K20,6,512,PS,exp,33,←,left,←,0.5350811001844704,True,9,1,0,9
Y2-S2-080K20,6,513,PS,exp,29,→,right,→,0.330347599927336,True,9,1,0,9
Y2-S2-080K20,6,514,PS,exp,30,↑,up,↑,0.6855955999344587,True,9,1,0,9
Y2-S2-080K20,6,515,PS,exp,27,↓,right,→,0.983965199906379,False,8,-1,1,10
Y2-S2-080K20,6,516,PS,exp,26,←,right,→,1.1989100999198854,False,9,-1,0,10
Y2-S2-080K20,6,517,PS,exp,37,↓,left,←,0.9133379999548197,False,10,-1,0,10
Y2-S2-080K20,6,518,PS,exp,30,→,right,→,0.7790648001246154,True,11,-1,0,10
Y2-S2-080K20,6,519,PS,exp,46,↑,up,↑,0.48489420022815466,True,11,-1,0,10
Y2-S2-080K20,6,520,PS,exp,37,←,left,←,0.419111100025475,True,11,1,1,11
Y2-S2-080K20,6,521,PS,exp,49,↑,up,↑,0.43587280018255115,True,10,1,0,11
Y2-S2-080K20,6,522,PS,exp,27,←,left,←,0.5106538999825716,True,10,1,0,11
Y2-S2-080K20,6,523,PS,exp,35,→,right,→,0.6511707999743521,True,10,1,0,11
Y2-S2-080K20,6,524,PS,exp,42,↓,down,↓,0.810844300314784,True,9,1,0,11
Y2-S2-080K20,6,525,PS,exp,37,→,right,→,0.44623459968715906,True,9,1,0,11
Y2-S2-080K20,6,526,PS,exp,40,↓,up,↑,0.6928854999132454,False,9,-1,1,12
Y2-S2-080K20,6,527,PS,exp,26,↑,up,↑,0.4209421002306044,True,10,-1,0,12
Y2-S2-080K20,6,528,PS,exp,26,→,right,→,0.4336048997938633,True,10,-1,0,12
Y2-S2-080K20,6,529,PS,exp,32,↓,down,↓,1.0746185998432338,True,10,1,1,13
Y2-S2-080K20,6,530,PS,exp,45,←,up,↑,0.5954923997633159,False,9,-1,1,14
Y2-S2-080K20,6,531,PS,exp,28,→,right,→,0.41944359987974167,True,10,-1,0,14
Y2-S2-080K20,6,532,PS,exp,48,↓,left,←,0.9822224001400173,False,10,-1,0,14
Y2-S2-080K20,6,533,PS,exp,31,←,left,←,0.442333800252527,True,11,-1,0,14
Y2-S2-080K20,6,534,PS,exp,27,↑,up,↑,0.44900260027498007,True,11,-1,0,14
Y2-S2-080K20,6,535,PS,exp,30,↓,down,↓,0.6224587000906467,True,11,1,1,15
Y2-S2-080K20,6,536,PS,exp,27,←,left,←,0.41394770005717874,True,10,1,0,15
Y2-S2-080K20,6,537,PS,exp,44,↑,up,↑,0.44218190014362335,True,10,1,0,15
Y2-S2-080K20,6,538,PS,exp,30,→,right,→,0.4213991998694837,True,10,1,0,15
Y2-S2-080K20,6,539,PS,exp,28,↑,up,↑,0.4613309996202588,True,9,1,0,15
Y2-S2-080K20,6,540,PS,exp,38,←,right,→,0.867056000046432,False,9,-1,1,16
Y2-S2-080K20,7,541,PS,intra_train,29,→,right,→,0.5805920995771885,True,12,-,-,-
Y2-S2-080K20,7,542,PS,intra_train,25,←,left,←,0.47534679993987083,True,12,-,-,-
Y2-S2-080K20,7,543,PS,intra_train,45,→,right,→,0.5093887001276016,True,12,-,-,-
Y2-S2-080K20,7,544,PS,intra_train,42,↓,down,↓,0.7070364998653531,True,12,-,-,-
Y2-S2-080K20,7,545,PS,intra_train,25,←,left,←,0.41898970026522875,True,12,-,-,-
Y2-S2-080K20,7,546,PS,exp,25,↑,up,↑,0.9931343998759985,True,8,0,0,0
Y2-S2-080K20,7,547,PS,exp,48,↓,left,←,1.57772420020774,False,8,-1,0,0
Y2-S2-080K20,7,548,PS,exp,28,←,left,←,0.474609199911356,True,9,-1,0,0
Y2-S2-080K20,7,549,PS,exp,44,↓,down,↓,0.6635284000076354,True,9,-1,0,0
Y2-S2-080K20,7,550,PS,exp,36,→,right,→,0.4998997999355197,True,9,1,1,1
Y2-S2-080K20,7,551,PS,exp,25,↓,right,→,0.8510328000411391,False,8,-1,1,2
Y2-S2-080K20,7,552,PS,exp,35,←,left,←,0.5239148000255227,True,9,-1,0,2
Y2-S2-080K20,7,553,PS,exp,49,↓,down,↓,0.7208646000362933,True,9,-1,0,2
Y2-S2-080K20,7,554,PS,exp,43,←,left,←,1.6747570000588894,True,9,1,1,3
Y2-S2-080K20,7,555,PS,exp,37,↑,right,→,0.48033779999241233,False,8,-1,1,4
Y2-S2-080K20,7,556,PS,exp,45,←,left,←,0.40245130006223917,True,9,-1,0,4
Y2-S2-080K20,7,557,PS,exp,36,→,right,→,0.5149118998087943,True,9,-1,0,4
Y2-S2-080K20,7,558,PS,exp,41,↓,down,↓,0.9408606002107263,True,9,1,1,5
Y2-S2-080K20,7,559,PS,exp,50,→,right,→,0.4454843997955322,True,8,1,0,5
Y2-S2-080K20,7,560,PS,exp,28,↑,up,↑,0.6174157001078129,True,8,1,0,5
Y2-S2-080K20,7,561,PS,exp,50,↓,down,↓,1.0693755000829697,True,8,1,0,5
Y2-S2-080K20,7,562,PS,exp,36,→,right,→,0.5402067000977695,True,7,1,0,5
Y2-S2-080K20,7,563,PS,exp,29,←,left,←,0.557323900051415,True,7,1,0,5
Y2-S2-080K20,7,564,PS,exp,49,→,right,→,0.39398219995200634,True,7,1,0,5
Y2-S2-080K20,7,565,PS,exp,30,↓,up,↑,0.8302298001945019,False,6,-1,1,6
Y2-S2-080K20,7,566,PS,exp,39,→,right,→,0.36468839971348643,True,7,-1,0,6
Y2-S2-080K20,7,567,PS,exp,35,↑,left,←,0.7559655001387,False,7,-1,0,6
Y2-S2-080K20,7,568,PS,exp,37,↓,down,↓,0.7388514997437596,True,8,-1,0,6
Y2-S2-080K20,7,569,PS,exp,48,↑,right,→,0.32377299992367625,False,8,-1,0,6
Y2-S2-080K20,7,570,PS,exp,25,↓,down,↓,0.6960370996966958,True,9,-1,0,6
Y2-S2-080K20,7,571,PS,exp,32,←,left,←,0.5414595999754965,True,9,-1,0,6
Y2-S2-080K20,7,572,PS,exp,41,→,right,→,1.1662145000882447,True,9,1,1,7
Y2-S2-080K20,7,573,PS,exp,30,←,left,←,0.5211132001131773,True,8,1,0,7
Y2-S2-080K20,7,574,PS,exp,33,↓,down,↓,0.6883616000413895,True,8,1,0,7
Y2-S2-080K20,7,575,PS,exp,41,→,right,→,0.4652798003517091,True,8,1,0,7
Y2-S2-080K20,7,576,PS,exp,49,↓,down,↓,0.7456257999874651,True,7,1,0,7
Y2-S2-080K20,7,577,PS,exp,44,←,left,←,0.7442797999829054,True,7,1,0,7
Y2-S2-080K20,7,578,PS,exp,30,→,right,→,0.5034288996830583,True,7,1,0,7
Y2-S2-080K20,7,579,PS,exp,36,↓,down,↓,0.6892794002778828,True,6,1,0,7
Y2-S2-080K20,7,580,PS,exp,30,→,up,↑,0.7621754999272525,False,6,-1,1,8
Y2-S2-080K20,7,581,PS,exp,46,←,left,←,0.46831459971144795,True,7,-1,0,8
Y2-S2-080K20,7,582,PS,exp,40,→,left,←,0.6811452000401914,False,7,-1,0,8
Y2-S2-080K20,7,583,PS,exp,39,←,right,→,0.6516259000636637,False,8,-1,0,8
Y2-S2-080K20,7,584,PS,exp,30,↑,up,↑,0.45383739983662963,True,9,-1,0,8
Y2-S2-080K20,7,585,PS,exp,34,↓,down,↓,0.6041969996877015,True,9,-1,0,8
Y2-S2-080K20,7,586,PS,exp,28,←,up,↑,1.025559799745679,False,9,-1,0,8
Y2-S2-080K20,7,587,PS,exp,35,↓,up,↑,0.5697485003620386,False,10,-1,0,8
Y2-S2-080K20,7,588,PS,exp,41,→,right,→,0.4220463000237942,True,11,-1,0,8
Y2-S2-080K20,7,589,PS,exp,44,↑,left,←,0.6564761996269226,False,11,-1,0,8
Y2-S2-080K20,7,590,PS,exp,34,←,left,←,0.30050350027158856,True,12,-1,0,8
Y2-S2-080K20,7,591,PS,exp,46,↑,up,↑,1.124380599707365,True,12,-1,0,8
Y2-S2-080K20,7,592,PS,exp,36,↓,down,↓,0.6854713000357151,True,12,1,1,9
Y2-S2-080K20,7,593,PS,exp,35,↑,up,↑,0.5836865003220737,True,11,1,0,9
Y2-S2-080K20,7,594,PS,exp,29,↓,down,↓,0.7277347999624908,True,11,1,0,9
Y2-S2-080K20,7,595,PS,exp,44,→,right,→,0.5076549001969397,True,11,1,0,9
Y2-S2-080K20,7,596,PS,exp,41,↓,up,↑,0.793786299880594,False,10,-1,1,10
Y2-S2-080K20,7,597,PS,exp,33,↑,up,↑,0.4262458002194762,True,11,-1,0,10
Y2-S2-080K20,7,598,PS,exp,42,↓,right,→,0.31728639965876937,False,11,-1,0,10
Y2-S2-080K20,7,599,PS,exp,49,↑,up,↑,0.5337781002745032,True,12,-1,0,10
Y2-S2-080K20,7,600,PS,exp,45,→,right,→,0.5004325998015702,True,12,-1,0,10
Y2-S2-080K20,7,601,PS,exp,42,↑,up,↑,0.631134900264442,True,12,1,1,11
Y2-S2-080K20,7,602,PS,exp,50,→,right,→,0.5482528996653855,True,11,1,0,11
Y2-S2-080K20,7,603,PS,exp,33,↓,down,↓,0.6931520998477936,True,11,1,0,11
Y2-S2-080K20,7,604,PS,exp,27,→,right,→,0.5799430003389716,True,11,1,0,11
Y2-S2-080K20,7,605,PS,exp,36,←,left,←,0.3483849996700883,True,10,1,0,11
Y2-S2-080K20,7,606,PS,exp,31,↓,down,↓,0.8461898001842201,True,10,1,0,11
Y2-S2-080K20,7,607,PS,exp,31,→,right,→,0.48404879961162806,True,10,1,0,11
Y2-S2-080K20,7,608,PS,exp,33,↑,up,↑,0.5142903001978993,True,9,1,0,11
Y2-S2-080K20,7,609,PS,exp,49,→,right,→,0.5143149998039007,True,9,1,0,11
Y2-S2-080K20,7,610,PS,exp,47,↑,up,↑,0.5619728001765907,True,9,1,0,11
Y2-S2-080K20,7,611,PS,exp,44,←,left,←,0.4835723997093737,True,8,1,0,11
Y2-S2-080K20,7,612,PS,exp,30,↑,left,←,1.039942600298673,False,8,-1,1,12
Y2-S2-080K20,7,613,PS,exp,31,→,right,→,0.7317367000505328,True,9,-1,0,12
Y2-S2-080K20,7,614,PS,exp,44,←,left,←,0.4104185001924634,True,9,-1,0,12
Y2-S2-080K20,7,615,PS,exp,44,→,left,←,0.48690970009192824,False,9,-1,0,12
Y2-S2-080K20,7,616,PS,exp,44,←,left,←,0.46945400023832917,True,10,-1,0,12
Y2-S2-080K20,7,617,PS,exp,41,→,right,→,0.5580802001059055,True,10,-1,0,12
Y2-S2-080K20,7,618,PS,exp,26,↓,down,↓,0.6642577000893652,True,10,1,1,13
Y2-S2-080K20,7,619,PS,exp,30,↑,up,↑,0.5217895000241697,True,9,1,0,13
Y2-S2-080K20,7,620,PS,exp,39,←,left,←,0.4499653000384569,True,9,1,0,13
Y2-S2-080K20,7,621,PS,exp,49,↓,down,↓,0.9409805000759661,True,9,1,0,13
Y2-S2-080K20,7,622,PS,exp,34,↑,up,↑,0.5301125999540091,True,8,1,0,13
Y2-S2-080K20,7,623,PS,exp,41,←,right,→,0.518350699916482,False,8,-1,1,14
Y2-S2-080K20,7,624,PS,exp,48,→,left,←,0.3583118999376893,False,9,-1,0,14
Y2-S2-080K20,7,625,PS,exp,38,↑,up,↑,0.5362109001725912,True,10,-1,0,14
Y2-S2-080K20,7,626,PS,exp,50,↓,down,↓,0.7412955998443067,True,10,-1,0,14
Y2-S2-080K20,7,627,PS,exp,33,↑,up,↑,0.5544734001159668,True,10,1,1,15
Y2-S2-080K20,7,628,PS,exp,46,→,right,→,0.38086620019748807,True,9,1,0,15
Y2-S2-080K20,7,629,PS,exp,27,↓,down,↓,0.8396808002144098,True,9,1,0,15
Y2-S2-080K20,7,630,PS,exp,31,↑,right,→,1.4183856998570263,False,9,-1,1,16
Y2-S2-080K20,8,631,AS,intra_train,38,←,left,←,0.5342083000577986,True,27,-,-,-
Y2-S2-080K20,8,632,AS,intra_train,41,↑,up,↑,0.7003364004194736,True,27,-,-,-
Y2-S2-080K20,8,633,AS,intra_train,44,→,right,→,0.6616153996437788,True,27,-,-,-
Y2-S2-080K20,8,634,AS,intra_train,48,←,left,←,0.6441564997658134,True,27,-,-,-
Y2-S2-080K20,8,635,AS,intra_train,30,→,right,→,0.7404945003800094,True,27,-,-,-
Y2-S2-080K20,8,636,AS,exp,28,↑,left,←,1.018495500087738,False,18,-1,0,0
Y2-S2-080K20,8,637,AS,exp,47,←,no_key,no_letter,-1.0,False,19,-1,0,0
Y2-S2-080K20,8,638,AS,exp,41,↑,up,↑,0.627715399954468,True,20,-1,0,0
Y2-S2-080K20,8,639,AS,exp,26,→,right,→,0.810706099960953,True,20,-1,0,0
Y2-S2-080K20,8,640,AS,exp,45,↑,up,↑,0.5891224998049438,True,20,1,1,1
Y2-S2-080K20,8,641,AS,exp,32,↓,down,↓,0.8373563000932336,True,19,1,0,1
Y2-S2-080K20,8,642,AS,exp,48,←,left,←,0.6453236001543701,True,19,1,0,1
Y2-S2-080K20,8,643,AS,exp,31,↓,down,↓,0.9155770000070333,True,19,1,0,1
Y2-S2-080K20,8,644,AS,exp,47,↑,down,↓,1.024901400320232,False,18,-1,1,2
Y2-S2-080K20,8,645,AS,exp,25,→,right,→,0.401273500174284,True,19,-1,0,2
Y2-S2-080K20,8,646,AS,exp,32,↑,left,←,0.5741096995770931,False,19,-1,0,2
Y2-S2-080K20,8,647,AS,exp,25,↓,down,↓,0.7438459997065365,True,20,-1,0,2
Y2-S2-080K20,8,648,AS,exp,31,→,right,→,0.6880983998999,True,20,-1,0,2
Y2-S2-080K20,8,649,AS,exp,28,←,left,←,0.5574179999530315,True,20,1,1,3
Y2-S2-080K20,8,650,AS,exp,34,↑,up,↑,0.6996279000304639,True,19,1,0,3
Y2-S2-080K20,8,651,AS,exp,42,→,right,→,0.4504112000577152,True,19,1,0,3
Y2-S2-080K20,8,652,AS,exp,34,←,right,→,0.5642874999903142,False,19,-1,1,4
Y2-S2-080K20,8,653,AS,exp,29,↓,down,↓,0.5433374000713229,True,20,-1,0,4
Y2-S2-080K20,8,654,AS,exp,35,→,no_key,no_letter,-1.0,False,20,-1,0,4
Y2-S2-080K20,8,655,AS,exp,36,←,left,←,0.45042999973520637,True,21,-1,0,4
Y2-S2-080K20,8,656,AS,exp,50,↑,no_key,no_letter,-1.0,False,21,-1,0,4
Y2-S2-080K20,8,657,AS,exp,41,↓,down,↓,0.8343398999422789,True,22,-1,0,4
Y2-S2-080K20,8,658,AS,exp,49,→,right,→,0.5682494998909533,True,22,-1,0,4
Y2-S2-080K20,8,659,AS,exp,35,↓,down,↓,0.715142899658531,True,22,1,1,5
Y2-S2-080K20,8,660,AS,exp,31,↑,up,↑,0.43384950002655387,True,21,1,0,5
Y2-S2-080K20,8,661,AS,exp,35,→,right,→,0.4507105997763574,True,21,1,0,5
Y2-S2-080K20,8,662,AS,exp,33,↓,down,↓,0.7177638998255134,True,21,1,0,5
Y2-S2-080K20,8,663,AS,exp,50,↑,up,↑,0.41738269990310073,True,20,1,0,5
Y2-S2-080K20,8,664,AS,exp,47,←,left,←,0.7325014001689851,True,20,1,0,5
Y2-S2-080K20,8,665,AS,exp,30,↑,up,↑,0.7088263002224267,True,20,1,0,5
Y2-S2-080K20,8,666,AS,exp,28,↓,no_key,no_letter,-1.0,False,19,-1,1,6
Y2-S2-080K20,8,667,AS,exp,26,↑,up,↑,0.6295019998215139,True,20,-1,0,6
Y2-S2-080K20,8,668,AS,exp,27,→,right,→,0.536151499953121,True,20,-1,0,6
Y2-S2-080K20,8,669,AS,exp,30,↑,up,↑,0.45032009994611144,True,20,1,1,7
Y2-S2-080K20,8,670,AS,exp,40,↓,down,↓,0.5502626001834869,True,19,1,0,7
Y2-S2-080K20,8,671,AS,exp,26,→,no_key,no_letter,-1.0,False,19,-1,1,8
Y2-S2-080K20,8,672,AS,exp,38,↓,down,↓,0.467236400116235,True,20,-1,0,8
Y2-S2-080K20,8,673,AS,exp,41,→,right,→,0.4672373002395034,True,20,-1,0,8
Y2-S2-080K20,8,674,AS,exp,31,←,left,←,0.45039579970762134,True,20,1,1,9
Y2-S2-080K20,8,675,AS,exp,41,↑,no_key,no_letter,-1.0,False,19,-1,1,10
Y2-S2-080K20,8,676,AS,exp,37,↓,down,↓,0.9237164999358356,True,20,-1,0,10
Y2-S2-080K20,8,677,AS,exp,45,↑,up,↑,0.43425559997558594,True,20,-1,0,10
Y2-S2-080K20,8,678,AS,exp,40,↓,down,↓,0.8332877000793815,True,20,1,1,11
Y2-S2-080K20,8,679,AS,exp,49,←,left,←,1.8621245003305376,True,19,1,0,11
Y2-S2-080K20,8,680,AS,exp,42,→,right,→,0.5495632002130151,True,19,1,0,11
Y2-S2-080K20,8,681,AS,exp,41,↓,down,↓,0.6984391999430954,True,19,1,0,11
Y2-S2-080K20,8,682,AS,exp,32,↑,up,↑,0.5682377000339329,True,18,1,0,11
Y2-S2-080K20,8,683,AS,exp,41,↓,down,↓,0.5860634003765881,True,18,1,0,11
Y2-S2-080K20,8,684,AS,exp,43,↑,up,↑,0.5721872998401523,True,18,1,0,11
Y2-S2-080K20,8,685,AS,exp,31,↓,down,↓,0.47259739972651005,True,17,1,0,11
Y2-S2-080K20,8,686,AS,exp,28,→,no_key,no_letter,-1.0,False,17,-1,1,12
Y2-S2-080K20,8,687,AS,exp,43,↓,down,↓,0.694115299731493,True,18,-1,0,12
Y2-S2-080K20,8,688,AS,exp,30,→,right,→,0.4970178999938071,True,18,-1,0,12
Y2-S2-080K20,8,689,AS,exp,43,↓,down,↓,0.8875941000878811,True,18,1,1,13
Y2-S2-080K20,8,690,AS,exp,45,→,right,→,0.56268659979105,True,17,1,0,13
Y2-S2-080K20,8,691,AS,exp,44,←,left,←,0.36702940007671714,True,17,1,0,13
Y2-S2-080K20,8,692,AS,exp,46,→,right,→,0.469338099937886,True,17,1,0,13
Y2-S2-080K20,8,693,AS,exp,25,←,left,←,0.6594773000106215,True,16,1,0,13
Y2-S2-080K20,8,694,AS,exp,42,→,right,→,0.6007925001904368,True,16,1,0,13
Y2-S2-080K20,8,695,AS,exp,43,↑,up,↑,0.641151700168848,True,16,1,0,13
Y2-S2-080K20,8,696,AS,exp,42,↓,down,↓,0.7169037996791303,True,15,1,0,13
Y2-S2-080K20,8,697,AS,exp,41,←,left,←,0.44686479959636927,True,15,1,0,13
Y2-S2-080K20,8,698,AS,exp,41,→,left,←,0.5070558004081249,False,15,-1,1,14
Y2-S2-080K20,8,699,AS,exp,34,↓,down,↓,0.5736422999761999,True,16,-1,0,14
Y2-S2-080K20,8,700,AS,exp,28,↑,up,↑,0.8414750997908413,True,16,-1,0,14
Y2-S2-080K20,8,701,AS,exp,44,←,left,←,0.3677729000337422,True,16,1,1,15
Y2-S2-080K20,8,702,AS,exp,44,↓,down,↓,0.5046251998282969,True,15,1,0,15
Y2-S2-080K20,8,703,AS,exp,37,←,left,←,0.7010126002132893,True,15,1,0,15
Y2-S2-080K20,8,704,AS,exp,42,↑,down,↓,0.8961521000601351,False,15,-1,1,16
