PART_ID,Block_no,Trial_no,Block_type,Trial_type,CSI,Stim_letter,Key_pressed,letter_choose,Rt,Corr,Stimulus Time,Level,Reversal,Revs_count
Y2-S2-109K20,1,1,PS,train,50,↓,down,↓,0.687582700047642,True,30,-,-,-
Y2-S2-109K20,1,2,PS,train,29,↑,up,↑,0.6948076002299786,True,30,-,-,-
Y2-S2-109K20,1,3,PS,train,38,→,right,→,0.550636800006032,True,30,-,-,-
Y2-S2-109K20,1,4,PS,train,45,←,left,←,0.45096660032868385,True,30,-,-,-
Y2-S2-109K20,1,5,PS,train,47,→,right,→,0.5010869996622205,True,30,-,-,-
Y2-S2-109K20,1,6,PS,train,34,↓,right,→,1.2918619001284242,False,30,-,-,-
Y2-S2-109K20,1,7,PS,train,34,↑,right,→,0.567824300378561,False,30,-,-,-
Y2-S2-109K20,1,8,PS,train,32,↓,down,↓,0.8089050003327429,True,30,-,-,-
Y2-S2-109K20,1,9,PS,train,45,←,left,←,0.7172611001878977,True,30,-,-,-
Y2-S2-109K20,1,10,PS,train,48,↑,up,↑,0.5338023002259433,True,30,-,-,-
Y2-S2-109K20,2,11,AS,train,29,↓,down,↓,0.6510311998426914,True,45,-,-,-
Y2-S2-109K20,2,12,AS,train,38,↑,up,↑,0.7510482002981007,True,45,-,-,-
Y2-S2-109K20,2,13,AS,train,28,→,right,→,0.5676787998527288,True,45,-,-,-
Y2-S2-109K20,2,14,AS,train,27,↑,up,↑,0.9191165002994239,True,45,-,-,-
Y2-S2-109K20,2,15,AS,train,39,←,left,←,0.48448160011321306,True,45,-,-,-
Y2-S2-109K20,2,16,AS,train,25,↑,up,↑,0.4843914997763932,True,45,-,-,-
Y2-S2-109K20,2,17,AS,train,25,←,left,←,0.5503063998185098,True,45,-,-,-
Y2-S2-109K20,2,18,AS,train,25,↓,down,↓,0.9271844998002052,True,45,-,-,-
Y2-S2-109K20,2,19,AS,train,44,←,left,←,0.4837251999415457,True,45,-,-,-
Y2-S2-109K20,2,20,AS,train,39,↑,up,↑,0.4340563998557627,True,45,-,-,-
Y2-S2-109K20,-,21,PS,adaptive,28,←,left,←,0.8270565001294017,True,10,0,0,0
Y2-S2-109K20,-,22,PS,adaptive,35,↑,left,←,0.8136594002135098,False,10,-1,0,0
Y2-S2-109K20,-,23,PS,adaptive,45,←,left,←,0.5056727998889983,True,11,-1,0,0
Y2-S2-109K20,-,24,PS,adaptive,37,↓,down,↓,0.943425000179559,True,11,-1,0,0
Y2-S2-109K20,-,25,PS,adaptive,38,→,right,→,0.528542899992317,True,11,1,1,1
Y2-S2-109K20,-,26,PS,adaptive,28,↓,left,←,0.8899381002411246,False,10,-1,1,2
Y2-S2-109K20,-,27,PS,adaptive,32,→,left,←,0.8943664999678731,False,11,-1,0,2
Y2-S2-109K20,-,28,PS,adaptive,48,←,left,←,0.6898614000529051,True,12,-1,0,2
Y2-S2-109K20,-,29,PS,adaptive,37,↓,down,↓,0.6888981997035444,True,12,-1,0,2
Y2-S2-109K20,-,30,PS,adaptive,31,→,down,↓,1.2852003001607955,False,12,-1,0,2
Y2-S2-109K20,-,31,PS,adaptive,41,↓,down,↓,0.6177248996682465,True,13,-1,0,2
Y2-S2-109K20,-,32,PS,adaptive,28,←,right,→,0.815895099658519,False,13,-1,0,2
Y2-S2-109K20,-,33,PS,adaptive,41,↑,up,↑,0.5642558997496963,True,14,-1,0,2
Y2-S2-109K20,-,34,PS,adaptive,39,←,left,←,0.8365225000306964,True,14,-1,0,2
Y2-S2-109K20,-,35,PS,adaptive,29,↓,down,↓,0.5061760996468365,True,14,1,1,3
Y2-S2-109K20,-,36,PS,adaptive,33,↑,right,→,0.3007498001679778,False,13,-1,1,4
Y2-S2-109K20,-,37,AS,adaptive,44,←,left,←,0.6299681002274156,True,20,0,0,0
Y2-S2-109K20,-,38,AS,adaptive,43,↑,up,↑,0.5860878997482359,True,20,0,0,0
Y2-S2-109K20,-,39,AS,adaptive,27,←,left,←,0.6950829001143575,True,20,1,0,0
Y2-S2-109K20,-,40,AS,adaptive,41,↓,up,↑,0.6286296001635492,False,19,-1,1,1
Y2-S2-109K20,-,41,AS,adaptive,26,↑,down,↓,0.8889492000453174,False,20,-1,0,1
Y2-S2-109K20,-,42,AS,adaptive,36,→,right,→,0.6525192996487021,True,21,-1,0,1
Y2-S2-109K20,-,43,AS,adaptive,28,←,left,←,0.6333798998966813,True,21,-1,0,1
Y2-S2-109K20,-,44,AS,adaptive,25,→,right,→,0.7547415001317859,True,21,1,1,2
Y2-S2-109K20,-,45,AS,adaptive,38,←,left,←,0.5990478997118771,True,20,1,0,2
Y2-S2-109K20,-,46,AS,adaptive,44,↑,left,←,0.8595318999141455,False,20,-1,1,3
Y2-S2-109K20,-,47,AS,adaptive,30,→,right,→,0.6446070000529289,True,21,-1,0,3
Y2-S2-109K20,-,48,AS,adaptive,45,←,left,←,0.5972130997106433,True,21,-1,0,3
Y2-S2-109K20,-,49,AS,adaptive,29,↓,down,↓,0.6676285001449287,True,21,1,1,4
Y2-S2-109K20,1,50,AS,intra_train,47,→,right,→,0.8008450996130705,True,30,-,-,-
Y2-S2-109K20,1,51,AS,intra_train,48,↑,up,↑,0.8001242997124791,True,30,-,-,-
Y2-S2-109K20,1,52,AS,intra_train,25,←,left,←,0.6890588998794556,True,30,-,-,-
Y2-S2-109K20,1,53,AS,intra_train,41,→,right,→,0.8325502998195589,True,30,-,-,-
Y2-S2-109K20,1,54,AS,intra_train,40,↓,down,↓,0.9397305999882519,True,30,-,-,-
Y2-S2-109K20,1,55,AS,exp,38,→,right,→,0.6943532996810973,True,20,0,0,0
Y2-S2-109K20,1,56,AS,exp,35,↑,up,↑,0.7816516999155283,True,20,0,0,0
Y2-S2-109K20,1,57,AS,exp,47,→,right,→,0.6576200998388231,True,20,1,0,0
Y2-S2-109K20,1,58,AS,exp,31,←,left,←,0.7121641002595425,True,19,1,0,0
Y2-S2-109K20,1,59,AS,exp,25,↑,up,↑,0.5800373000092804,True,19,1,0,0
Y2-S2-109K20,1,60,AS,exp,29,←,left,←,0.6561402999795973,True,19,1,0,0
Y2-S2-109K20,1,61,AS,exp,33,↑,up,↑,0.6289675999432802,True,18,1,0,0
Y2-S2-109K20,1,62,AS,exp,48,↓,up,↑,0.6029093000106514,False,18,-1,1,1
Y2-S2-109K20,1,63,AS,exp,38,←,left,←,0.7130966000258923,True,19,-1,0,1
Y2-S2-109K20,1,64,AS,exp,25,→,right,→,0.7035082997754216,True,19,-1,0,1
Y2-S2-109K20,1,65,AS,exp,43,↓,down,↓,1.042314300313592,True,19,1,1,2
Y2-S2-109K20,1,66,AS,exp,36,↑,up,↑,0.8738099001348019,True,18,1,0,2
Y2-S2-109K20,1,67,AS,exp,37,↓,down,↓,0.9915470001287758,True,18,1,0,2
Y2-S2-109K20,1,68,AS,exp,30,←,left,←,0.6395847997628152,True,18,1,0,2
Y2-S2-109K20,1,69,AS,exp,47,↓,down,↓,0.842951100319624,True,17,1,0,2
Y2-S2-109K20,1,70,AS,exp,31,←,left,←,0.6549912998452783,True,17,1,0,2
Y2-S2-109K20,1,71,AS,exp,34,→,right,→,0.6146583002991974,True,17,1,0,2
Y2-S2-109K20,1,72,AS,exp,41,↑,up,↑,0.7338835997506976,True,16,1,0,2
Y2-S2-109K20,1,73,AS,exp,30,→,left,←,0.821138700004667,False,16,-1,1,3
Y2-S2-109K20,1,74,AS,exp,50,↓,up,↑,0.7360929003916681,False,17,-1,0,3
Y2-S2-109K20,1,75,AS,exp,48,↑,up,↑,0.9213048000819981,True,18,-1,0,3
Y2-S2-109K20,1,76,AS,exp,46,←,left,←,0.7413577996194363,True,18,-1,0,3
Y2-S2-109K20,1,77,AS,exp,40,↓,down,↓,0.7732196999713778,True,18,1,1,4
Y2-S2-109K20,1,78,AS,exp,50,←,left,←,0.6512837000191212,True,17,1,0,4
Y2-S2-109K20,1,79,AS,exp,29,↑,up,↑,1.8003429998643696,True,17,1,0,4
Y2-S2-109K20,1,80,AS,exp,48,→,right,→,1.2811716999858618,True,17,1,0,4
Y2-S2-109K20,1,81,AS,exp,49,↑,up,↑,0.7570469998754561,True,16,1,0,4
Y2-S2-109K20,1,82,AS,exp,44,←,left,←,0.7712306999601424,True,16,1,0,4
Y2-S2-109K20,1,83,AS,exp,37,↑,right,→,0.754825200419873,False,16,-1,1,5
Y2-S2-109K20,1,84,AS,exp,39,→,left,←,0.7088878001086414,False,17,-1,0,5
Y2-S2-109K20,1,85,AS,exp,26,↑,up,↑,0.6807408998720348,True,18,-1,0,5
Y2-S2-109K20,1,86,AS,exp,28,→,right,→,0.7059338996186852,True,18,-1,0,5
Y2-S2-109K20,1,87,AS,exp,44,↑,down,↓,0.8983591003343463,False,18,-1,0,5
Y2-S2-109K20,1,88,AS,exp,47,←,left,←,0.4507531002163887,True,19,-1,0,5
Y2-S2-109K20,1,89,AS,exp,39,↑,right,→,0.812302100006491,False,19,-1,0,5
Y2-S2-109K20,1,90,AS,exp,49,↓,down,↓,0.6956790997646749,True,20,-1,0,5
Y2-S2-109K20,1,91,AS,exp,39,→,right,→,0.9271281999535859,True,20,-1,0,5
Y2-S2-109K20,1,92,AS,exp,29,←,left,←,0.7613444002345204,True,20,1,1,6
Y2-S2-109K20,1,93,AS,exp,25,→,left,←,1.0230187000706792,False,19,-1,1,7
Y2-S2-109K20,1,94,AS,exp,30,←,right,→,0.9690641001798213,False,20,-1,0,7
Y2-S2-109K20,1,95,AS,exp,43,↓,down,↓,0.6855166000314057,True,21,-1,0,7
Y2-S2-109K20,1,96,AS,exp,29,←,left,←,0.5663888999260962,True,21,-1,0,7
Y2-S2-109K20,1,97,AS,exp,47,↑,up,↑,0.6563317999243736,True,21,1,1,8
Y2-S2-109K20,1,98,AS,exp,31,→,right,→,0.9810568001121283,True,20,1,0,8
Y2-S2-109K20,1,99,AS,exp,43,↓,down,↓,0.8049181001260877,True,20,1,0,8
Y2-S2-109K20,1,100,AS,exp,36,→,right,→,0.608531900215894,True,20,1,0,8
Y2-S2-109K20,1,101,AS,exp,37,←,left,←,0.6082576001062989,True,19,1,0,8
Y2-S2-109K20,1,102,AS,exp,25,→,left,←,0.7128536999225616,False,19,-1,1,9
Y2-S2-109K20,1,103,AS,exp,33,←,left,←,0.7180332001298666,True,20,-1,0,9
Y2-S2-109K20,1,104,AS,exp,29,→,right,→,0.9661432998254895,True,20,-1,0,9
Y2-S2-109K20,1,105,AS,exp,33,←,right,→,0.6015506000258029,False,20,-1,0,9
Y2-S2-109K20,1,106,AS,exp,50,↑,left,←,0.8396053998731077,False,21,-1,0,9
Y2-S2-109K20,1,107,AS,exp,49,↓,down,↓,0.8191348002292216,True,22,-1,0,9
Y2-S2-109K20,1,108,AS,exp,47,↑,down,↓,1.3214433998800814,False,22,-1,0,9
Y2-S2-109K20,1,109,AS,exp,37,←,left,←,0.8877640003338456,True,23,-1,0,9
Y2-S2-109K20,1,110,AS,exp,37,↑,down,↓,1.4826521999202669,False,23,-1,0,9
Y2-S2-109K20,1,111,AS,exp,36,↓,down,↓,0.9624306000769138,True,24,-1,0,9
Y2-S2-109K20,1,112,AS,exp,41,→,right,→,0.8455489999614656,True,24,-1,0,9
Y2-S2-109K20,1,113,AS,exp,48,↑,up,↑,1.005508099682629,True,24,1,1,10
Y2-S2-109K20,1,114,AS,exp,33,↓,down,↓,0.9524211999960244,True,23,1,0,10
Y2-S2-109K20,1,115,AS,exp,40,←,left,←,0.79586820024997,True,23,1,0,10
Y2-S2-109K20,1,116,AS,exp,35,→,right,→,0.7026165002025664,True,23,1,0,10
Y2-S2-109K20,1,117,AS,exp,39,↓,down,↓,0.7901661000214517,True,22,1,0,10
Y2-S2-109K20,1,118,AS,exp,44,←,no_key,no_letter,-1.0,False,22,-1,1,11
Y2-S2-109K20,1,119,AS,exp,43,→,right,→,1.132622899953276,True,23,-1,0,11
Y2-S2-109K20,1,120,AS,exp,43,↓,down,↓,0.6437527001835406,True,23,-1,0,11
Y2-S2-109K20,1,121,AS,exp,34,→,right,→,0.8525197999551892,True,23,1,1,12
Y2-S2-109K20,1,122,AS,exp,45,←,left,←,0.5612544999457896,True,22,1,0,12
Y2-S2-109K20,1,123,AS,exp,37,↓,down,↓,0.9762829998508096,True,22,1,0,12
Y2-S2-109K20,1,124,AS,exp,28,←,left,←,0.7521002003923059,True,22,1,0,12
Y2-S2-109K20,1,125,AS,exp,28,→,right,→,0.7891137995757163,True,21,1,0,12
Y2-S2-109K20,1,126,AS,exp,46,↓,down,↓,0.8235603999346495,True,21,1,0,12
Y2-S2-109K20,1,127,AS,exp,45,↑,down,↓,1.1993447002023458,False,21,-1,1,13
Y2-S2-109K20,1,128,AS,exp,28,←,up,↑,1.0733933001756668,False,22,-1,0,13
Y2-S2-109K20,1,129,AS,exp,27,↓,down,↓,0.6826014998368919,True,23,-1,0,13
Y2-S2-109K20,1,130,AS,exp,44,↑,up,↑,1.6506360000930727,True,23,-1,0,13
Y2-S2-109K20,1,131,AS,exp,38,←,left,←,0.7928812997415662,True,23,1,1,14
Y2-S2-109K20,1,132,AS,exp,41,↓,down,↓,0.7771149999462068,True,22,1,0,14
Y2-S2-109K20,1,133,AS,exp,44,→,right,→,0.9833370000123978,True,22,1,0,14
Y2-S2-109K20,1,134,AS,exp,42,←,left,←,0.6349966996349394,True,22,1,0,14
Y2-S2-109K20,1,135,AS,exp,35,↑,up,↑,0.9690445996820927,True,21,1,0,14
Y2-S2-109K20,1,136,AS,exp,28,↓,right,→,1.2562331999652088,False,21,-1,1,15
Y2-S2-109K20,1,137,AS,exp,48,←,left,←,0.7316381996497512,True,22,-1,0,15
Y2-S2-109K20,1,138,AS,exp,34,↓,down,↓,0.8818641002289951,True,22,-1,0,15
Y2-S2-109K20,1,139,AS,exp,27,←,left,←,0.553811099845916,True,22,1,1,16
Y2-S2-109K20,2,140,PS,intra_train,26,↓,down,↓,0.7851061001420021,True,21,-,-,-
Y2-S2-109K20,2,141,PS,intra_train,36,→,right,→,0.7355236997827888,True,21,-,-,-
Y2-S2-109K20,2,142,PS,intra_train,29,←,left,←,0.6673101000487804,True,21,-,-,-
Y2-S2-109K20,2,143,PS,intra_train,44,↑,up,↑,0.7056946000084281,True,21,-,-,-
Y2-S2-109K20,2,144,PS,intra_train,45,↓,down,↓,0.7234633001498878,True,21,-,-,-
Y2-S2-109K20,2,145,PS,exp,45,←,left,←,0.6875163000077009,True,14,0,0,0
Y2-S2-109K20,2,146,PS,exp,45,↓,left,←,0.816100100055337,False,14,-1,0,0
Y2-S2-109K20,2,147,PS,exp,38,↑,up,↑,0.7099959002807736,True,15,-1,0,0
Y2-S2-109K20,2,148,PS,exp,41,↓,down,↓,0.699955299962312,True,15,-1,0,0
Y2-S2-109K20,2,149,PS,exp,43,→,down,↓,0.8916098000481725,False,15,-1,0,0
Y2-S2-109K20,2,150,PS,exp,38,↓,down,↓,0.4948908998630941,True,16,-1,0,0
Y2-S2-109K20,2,151,PS,exp,34,↑,down,↓,0.46518959989771247,False,16,-1,0,0
Y2-S2-109K20,2,152,PS,exp,26,→,right,→,0.6048709996975958,True,17,-1,0,0
Y2-S2-109K20,2,153,PS,exp,32,↑,right,→,0.9482939997687936,False,17,-1,0,0
Y2-S2-109K20,2,154,PS,exp,41,←,right,→,0.8463476998731494,False,18,-1,0,0
Y2-S2-109K20,2,155,PS,exp,29,→,down,↓,1.1970329000614583,False,19,-1,0,0
Y2-S2-109K20,2,156,PS,exp,48,←,left,←,0.5459338999353349,True,20,-1,0,0
Y2-S2-109K20,2,157,PS,exp,28,→,right,→,0.5049554002471268,True,20,-1,0,0
Y2-S2-109K20,2,158,PS,exp,37,↓,down,↓,1.1058327001519501,True,20,1,1,1
Y2-S2-109K20,2,159,PS,exp,29,←,up,↑,0.9760237000882626,False,19,-1,1,2
Y2-S2-109K20,2,160,PS,exp,36,↑,up,↑,0.5097984997555614,True,20,-1,0,2
Y2-S2-109K20,2,161,PS,exp,29,↓,down,↓,0.7762406002730131,True,20,-1,0,2
Y2-S2-109K20,2,162,PS,exp,35,↑,up,↑,0.6156140002422035,True,20,1,1,3
Y2-S2-109K20,2,163,PS,exp,46,→,right,→,0.5514565003104508,True,19,1,0,3
Y2-S2-109K20,2,164,PS,exp,38,↓,down,↓,1.3141133999451995,True,19,1,0,3
Y2-S2-109K20,2,165,PS,exp,39,→,no_key,no_letter,-1.0,False,19,-1,1,4
Y2-S2-109K20,2,166,PS,exp,26,↓,down,↓,0.5921530001796782,True,20,-1,0,4
Y2-S2-109K20,2,167,PS,exp,43,←,left,←,0.5183850000612438,True,20,-1,0,4
Y2-S2-109K20,2,168,PS,exp,33,→,right,→,0.971573400311172,True,20,1,1,5
Y2-S2-109K20,2,169,PS,exp,44,↑,up,↑,0.5134943001903594,True,19,1,0,5
Y2-S2-109K20,2,170,PS,exp,42,↓,down,↓,0.9582229997031391,True,19,1,0,5
Y2-S2-109K20,2,171,PS,exp,45,→,right,→,0.4510363000445068,True,19,1,0,5
Y2-S2-109K20,2,172,PS,exp,31,↑,up,↑,0.7742689000442624,True,18,1,0,5
Y2-S2-109K20,2,173,PS,exp,32,←,left,←,0.4174346998333931,True,18,1,0,5
Y2-S2-109K20,2,174,PS,exp,35,↑,up,↑,0.4733557002618909,True,18,1,0,5
Y2-S2-109K20,2,175,PS,exp,35,←,left,←,0.46090960036963224,True,17,1,0,5
Y2-S2-109K20,2,176,PS,exp,37,→,right,→,1.0330630000680685,True,17,1,0,5
Y2-S2-109K20,2,177,PS,exp,38,↑,left,←,0.8160322001203895,False,17,-1,1,6
Y2-S2-109K20,2,178,PS,exp,50,→,right,→,0.4748638002201915,True,18,-1,0,6
Y2-S2-109K20,2,179,PS,exp,39,↓,down,↓,0.6540449000895023,True,18,-1,0,6
Y2-S2-109K20,2,180,PS,exp,42,←,left,←,0.7558240001089871,True,18,1,1,7
Y2-S2-109K20,2,181,PS,exp,35,↑,down,↓,0.8700986998155713,False,17,-1,1,8
Y2-S2-109K20,2,182,PS,exp,49,→,right,→,1.560722399968654,True,18,-1,0,8
Y2-S2-109K20,2,183,PS,exp,37,←,left,←,0.47913610003888607,True,18,-1,0,8
Y2-S2-109K20,2,184,PS,exp,31,→,right,→,0.5215769000351429,True,18,1,1,9
Y2-S2-109K20,2,185,PS,exp,42,↑,up,↑,0.47673229966312647,True,17,1,0,9
Y2-S2-109K20,2,186,PS,exp,47,←,left,←,0.4657082003541291,True,17,1,0,9
Y2-S2-109K20,2,187,PS,exp,45,↓,down,↓,0.567204600200057,True,17,1,0,9
Y2-S2-109K20,2,188,PS,exp,37,←,left,←,0.9218497001565993,True,16,1,0,9
Y2-S2-109K20,2,189,PS,exp,40,→,right,→,0.615431500133127,True,16,1,0,9
Y2-S2-109K20,2,190,PS,exp,38,←,down,↓,0.9903766997158527,False,16,-1,1,10
Y2-S2-109K20,2,191,PS,exp,38,→,no_key,no_letter,-1.0,False,17,-1,0,10
Y2-S2-109K20,2,192,PS,exp,27,←,left,←,0.596291699912399,True,18,-1,0,10
Y2-S2-109K20,2,193,PS,exp,36,→,no_key,no_letter,-1.0,False,18,-1,0,10
Y2-S2-109K20,2,194,PS,exp,45,↑,left,←,1.1444322001188993,False,19,-1,0,10
Y2-S2-109K20,2,195,PS,exp,47,←,left,←,0.4338517999276519,True,20,-1,0,10
Y2-S2-109K20,2,196,PS,exp,30,→,left,←,0.9112076000310481,False,20,-1,0,10
Y2-S2-109K20,2,197,PS,exp,42,↑,up,↑,0.5520525998435915,True,21,-1,0,10
Y2-S2-109K20,2,198,PS,exp,43,←,left,←,0.4838380003347993,True,21,-1,0,10
Y2-S2-109K20,2,199,PS,exp,42,↓,down,↓,0.5979720000177622,True,21,1,1,11
Y2-S2-109K20,2,200,PS,exp,46,→,right,→,0.5984608996659517,True,20,1,0,11
Y2-S2-109K20,2,201,PS,exp,48,↑,up,↑,0.7886924999766052,True,20,1,0,11
Y2-S2-109K20,2,202,PS,exp,28,→,right,→,1.4261656999588013,True,20,1,0,11
Y2-S2-109K20,2,203,PS,exp,41,↓,down,↓,0.7805500999093056,True,19,1,0,11
Y2-S2-109K20,2,204,PS,exp,34,↑,left,←,0.8328650002367795,False,19,-1,1,12
Y2-S2-109K20,2,205,PS,exp,37,←,left,←,0.46732240030542016,True,20,-1,0,12
Y2-S2-109K20,2,206,PS,exp,38,→,right,→,0.5054693999700248,True,20,-1,0,12
Y2-S2-109K20,2,207,PS,exp,44,←,left,←,0.667820599861443,True,20,1,1,13
Y2-S2-109K20,2,208,PS,exp,29,↓,left,←,0.9955678000114858,False,19,-1,1,14
Y2-S2-109K20,2,209,PS,exp,49,→,right,→,0.668798700440675,True,20,-1,0,14
Y2-S2-109K20,2,210,PS,exp,29,↓,down,↓,0.5328366002067924,True,20,-1,0,14
Y2-S2-109K20,2,211,PS,exp,43,↑,up,↑,0.539797400124371,True,20,1,1,15
Y2-S2-109K20,2,212,PS,exp,31,←,left,←,0.561088599730283,True,19,1,0,15
Y2-S2-109K20,2,213,PS,exp,48,↓,down,↓,0.6057877000421286,True,19,1,0,15
Y2-S2-109K20,2,214,PS,exp,48,↑,left,←,0.7400719001889229,False,19,-1,1,16
Y2-S2-109K20,3,215,PS,intra_train,50,→,right,→,0.6148173999972641,True,21,-,-,-
Y2-S2-109K20,3,216,PS,intra_train,48,←,left,←,0.5818764003925025,True,21,-,-,-
Y2-S2-109K20,3,217,PS,intra_train,44,→,right,→,0.5983245000243187,True,21,-,-,-
Y2-S2-109K20,3,218,PS,intra_train,32,↑,up,↑,0.6760623999871314,True,21,-,-,-
Y2-S2-109K20,3,219,PS,intra_train,31,↓,down,↓,0.8531390000134706,True,21,-,-,-
Y2-S2-109K20,3,220,PS,exp,46,↑,up,↑,0.7996518998406827,True,14,0,0,0
Y2-S2-109K20,3,221,PS,exp,36,←,left,←,0.7095606001093984,True,14,0,0,0
Y2-S2-109K20,3,222,PS,exp,34,↑,up,↑,1.0030669998377562,True,14,1,0,0
Y2-S2-109K20,3,223,PS,exp,35,→,right,→,0.6446236004121602,True,13,1,0,0
Y2-S2-109K20,3,224,PS,exp,39,↓,down,↓,0.786402199883014,True,13,1,0,0
Y2-S2-109K20,3,225,PS,exp,38,←,right,→,0.69119180040434,False,13,-1,1,1
Y2-S2-109K20,3,226,PS,exp,25,↓,right,→,0.7921935999765992,False,14,-1,0,1
Y2-S2-109K20,3,227,PS,exp,43,→,right,→,0.4339959002099931,True,15,-1,0,1
Y2-S2-109K20,3,228,PS,exp,34,↓,down,↓,0.6596007999032736,True,15,-1,0,1
Y2-S2-109K20,3,229,PS,exp,40,←,down,↓,1.1592971002683043,False,15,-1,0,1
Y2-S2-109K20,3,230,PS,exp,44,↓,down,↓,0.5490622003562748,True,16,-1,0,1
Y2-S2-109K20,3,231,PS,exp,46,←,left,←,1.040281199850142,True,16,-1,0,1
Y2-S2-109K20,3,232,PS,exp,44,→,left,←,0.6810761000961065,False,16,-1,0,1
Y2-S2-109K20,3,233,PS,exp,49,↓,down,↓,0.823821300175041,True,17,-1,0,1
Y2-S2-109K20,3,234,PS,exp,43,→,right,→,0.5294435997493565,True,17,-1,0,1
Y2-S2-109K20,3,235,PS,exp,38,←,left,←,0.625267400406301,True,17,1,1,2
Y2-S2-109K20,3,236,PS,exp,33,→,right,→,0.5229088999330997,True,16,1,0,2
Y2-S2-109K20,3,237,PS,exp,47,↓,down,↓,0.5900804996490479,True,16,1,0,2
Y2-S2-109K20,3,238,PS,exp,49,←,left,←,0.5361409997567534,True,16,1,0,2
Y2-S2-109K20,3,239,PS,exp,45,→,right,→,0.6874351003207266,True,15,1,0,2
Y2-S2-109K20,3,240,PS,exp,33,↓,down,↓,0.630296400282532,True,15,1,0,2
Y2-S2-109K20,3,241,PS,exp,26,↑,up,↑,0.5981034999713302,True,15,1,0,2
Y2-S2-109K20,3,242,PS,exp,27,↓,down,↓,0.6389013999141753,True,14,1,0,2
Y2-S2-109K20,3,243,PS,exp,42,↑,up,↑,0.6770179001614451,True,14,1,0,2
Y2-S2-109K20,3,244,PS,exp,38,←,left,←,0.47776190005242825,True,14,1,0,2
Y2-S2-109K20,3,245,PS,exp,38,→,right,→,0.7894280003383756,True,13,1,0,2
Y2-S2-109K20,3,246,PS,exp,49,←,left,←,0.5070950002409518,True,13,1,0,2
Y2-S2-109K20,3,247,PS,exp,37,↓,down,↓,0.9561044001020491,True,13,1,0,2
Y2-S2-109K20,3,248,PS,exp,49,↑,down,↓,1.36464950023219,False,12,-1,1,3
Y2-S2-109K20,3,249,PS,exp,28,↓,right,→,0.7063447996042669,False,13,-1,0,3
Y2-S2-109K20,3,250,PS,exp,34,↑,up,↑,1.1471307999454439,True,14,-1,0,3
Y2-S2-109K20,3,251,PS,exp,40,←,left,←,0.4838117999024689,True,14,-1,0,3
Y2-S2-109K20,3,252,PS,exp,47,↓,left,←,0.9789253999479115,False,14,-1,0,3
Y2-S2-109K20,3,253,PS,exp,47,↑,up,↑,0.6329777999781072,True,15,-1,0,3
Y2-S2-109K20,3,254,PS,exp,45,←,left,←,0.6776018999516964,True,15,-1,0,3
Y2-S2-109K20,3,255,PS,exp,30,→,left,←,0.8630572999827564,False,15,-1,0,3
Y2-S2-109K20,3,256,PS,exp,30,←,left,←,0.625458899885416,True,16,-1,0,3
Y2-S2-109K20,3,257,PS,exp,30,↑,left,←,0.9008984002284706,False,16,-1,0,3
Y2-S2-109K20,3,258,PS,exp,39,←,left,←,0.5224449001252651,True,17,-1,0,3
Y2-S2-109K20,3,259,PS,exp,33,→,right,→,0.8287602998316288,True,17,-1,0,3
Y2-S2-109K20,3,260,PS,exp,28,↓,down,↓,0.7722884002141654,True,17,1,1,4
Y2-S2-109K20,3,261,PS,exp,45,←,left,←,0.5757503001950681,True,16,1,0,4
Y2-S2-109K20,3,262,PS,exp,32,→,right,→,0.7202435000799596,True,16,1,0,4
Y2-S2-109K20,3,263,PS,exp,47,↓,no_key,no_letter,-1.0,False,16,-1,1,5
Y2-S2-109K20,3,264,PS,exp,50,↑,up,↑,0.8528462997637689,True,17,-1,0,5
Y2-S2-109K20,3,265,PS,exp,34,↓,down,↓,0.8516575996764004,True,17,-1,0,5
Y2-S2-109K20,3,266,PS,exp,48,→,right,→,0.6607286999933422,True,17,1,1,6
Y2-S2-109K20,3,267,PS,exp,48,←,left,←,0.8137602000497282,True,16,1,0,6
Y2-S2-109K20,3,268,PS,exp,33,→,right,→,0.48681689985096455,True,16,1,0,6
Y2-S2-109K20,3,269,PS,exp,36,↑,up,↑,0.8586530000902712,True,16,1,0,6
Y2-S2-109K20,3,270,PS,exp,36,←,left,←,0.5268957000225782,True,15,1,0,6
Y2-S2-109K20,3,271,PS,exp,29,→,right,→,0.7419080999679863,True,15,1,0,6
Y2-S2-109K20,3,272,PS,exp,41,←,right,→,0.7347598001360893,False,15,-1,1,7
Y2-S2-109K20,3,273,PS,exp,29,↑,up,↑,0.5011904998682439,True,16,-1,0,7
Y2-S2-109K20,3,274,PS,exp,29,↓,down,↓,0.7709701000712812,True,16,-1,0,7
Y2-S2-109K20,3,275,PS,exp,48,↑,up,↑,0.5328832999803126,True,16,1,1,8
Y2-S2-109K20,3,276,PS,exp,38,→,right,→,0.6765700001269579,True,15,1,0,8
Y2-S2-109K20,3,277,PS,exp,44,←,right,→,0.7923608003184199,False,15,-1,1,9
Y2-S2-109K20,3,278,PS,exp,36,→,right,→,1.417812599800527,True,16,-1,0,9
Y2-S2-109K20,3,279,PS,exp,34,↓,down,↓,0.6544241001829505,True,16,-1,0,9
Y2-S2-109K20,3,280,PS,exp,38,↑,up,↑,0.8054080000147223,True,16,1,1,10
Y2-S2-109K20,3,281,PS,exp,29,↓,right,→,0.9515635003335774,False,15,-1,1,11
Y2-S2-109K20,3,282,PS,exp,35,↑,up,↑,0.6462289998307824,True,16,-1,0,11
Y2-S2-109K20,3,283,PS,exp,33,←,up,↑,1.023009399883449,False,16,-1,0,11
Y2-S2-109K20,3,284,PS,exp,37,↓,right,→,0.6117169000208378,False,17,-1,0,11
Y2-S2-109K20,3,285,PS,exp,34,↑,down,↓,1.3868494997732341,False,18,-1,0,11
Y2-S2-109K20,3,286,PS,exp,50,←,left,←,0.43361319974064827,True,19,-1,0,11
Y2-S2-109K20,3,287,PS,exp,41,↑,up,↑,1.0043542003259063,True,19,-1,0,11
Y2-S2-109K20,3,288,PS,exp,43,←,left,←,0.6802019001916051,True,19,1,1,12
Y2-S2-109K20,3,289,PS,exp,46,→,right,→,0.48528730031102896,True,18,1,0,12
Y2-S2-109K20,3,290,PS,exp,38,←,left,←,0.5941065000370145,True,18,1,0,12
Y2-S2-109K20,3,291,PS,exp,47,↓,down,↓,0.7493161000311375,True,18,1,0,12
Y2-S2-109K20,3,292,PS,exp,38,↑,up,↑,0.6829213001765311,True,17,1,0,12
Y2-S2-109K20,3,293,PS,exp,39,←,left,←,0.6971849999390543,True,17,1,0,12
Y2-S2-109K20,3,294,PS,exp,31,↓,down,↓,0.5933827999979258,True,17,1,0,12
Y2-S2-109K20,3,295,PS,exp,29,←,left,←,0.4939657002687454,True,16,1,0,12
Y2-S2-109K20,3,296,PS,exp,34,↑,up,↑,1.073650499805808,True,16,1,0,12
Y2-S2-109K20,3,297,PS,exp,43,↓,down,↓,0.5976154999807477,True,16,1,0,12
Y2-S2-109K20,3,298,PS,exp,31,→,right,→,0.44623339967802167,True,15,1,0,12
Y2-S2-109K20,3,299,PS,exp,49,←,left,←,0.46708570001646876,True,15,1,0,12
Y2-S2-109K20,3,300,PS,exp,45,→,right,→,0.7568936003372073,True,15,1,0,12
Y2-S2-109K20,3,301,PS,exp,41,↓,down,↓,0.8086775997653604,True,14,1,0,12
Y2-S2-109K20,3,302,PS,exp,43,→,right,→,0.5256980997510254,True,14,1,0,12
Y2-S2-109K20,3,303,PS,exp,47,↓,left,←,0.6450169002637267,False,14,-1,1,13
Y2-S2-109K20,3,304,PS,exp,48,↑,down,↓,1.023650299757719,False,15,-1,0,13
Y2-S2-109K20,3,305,PS,exp,50,↓,down,↓,0.667522800154984,True,16,-1,0,13
Y2-S2-109K20,3,306,PS,exp,38,↑,up,↑,1.3405793001875281,True,16,-1,0,13
Y2-S2-109K20,3,307,PS,exp,30,←,left,←,0.577874599955976,True,16,1,1,14
Y2-S2-109K20,3,308,PS,exp,25,↓,down,↓,0.7472976995632052,True,15,1,0,14
Y2-S2-109K20,3,309,PS,exp,50,→,left,←,0.6655814000405371,False,15,-1,1,15
Y2-S2-109K20,3,310,PS,exp,37,←,left,←,0.7775965998880565,True,16,-1,0,15
Y2-S2-109K20,3,311,PS,exp,25,↑,up,↑,0.5665657999925315,True,16,-1,0,15
Y2-S2-109K20,3,312,PS,exp,35,→,right,→,0.5667520998977125,True,16,1,1,16
Y2-S2-109K20,4,313,AS,intra_train,36,↑,up,↑,0.7686589998193085,True,30,-,-,-
Y2-S2-109K20,4,314,AS,intra_train,41,←,left,←,0.6006227997131646,True,30,-,-,-
Y2-S2-109K20,4,315,AS,intra_train,40,→,right,→,1.4008153001777828,True,30,-,-,-
Y2-S2-109K20,4,316,AS,intra_train,43,←,left,←,1.2611638996750116,True,30,-,-,-
Y2-S2-109K20,4,317,AS,intra_train,43,↓,down,↓,0.7592682000249624,True,30,-,-,-
Y2-S2-109K20,4,318,AS,exp,50,←,right,→,0.6018509999848902,False,20,-1,0,0
Y2-S2-109K20,4,319,AS,exp,45,↓,down,↓,0.5505252000875771,True,21,-1,0,0
Y2-S2-109K20,4,320,AS,exp,42,↑,up,↑,0.9758780999109149,True,21,-1,0,0
Y2-S2-109K20,4,321,AS,exp,31,←,left,←,0.9480693000368774,True,21,1,1,1
Y2-S2-109K20,4,322,AS,exp,26,→,right,→,0.7004555002786219,True,20,1,0,1
Y2-S2-109K20,4,323,AS,exp,26,←,left,←,1.2350816000252962,True,20,1,0,1
Y2-S2-109K20,4,324,AS,exp,25,↑,up,↑,0.6327523002400994,True,20,1,0,1
Y2-S2-109K20,4,325,AS,exp,29,↓,down,↓,0.6936790999025106,True,19,1,0,1
Y2-S2-109K20,4,326,AS,exp,47,→,up,↑,1.1326774000190198,False,19,-1,1,2
Y2-S2-109K20,4,327,AS,exp,28,↑,right,→,1.0714807999320328,False,20,-1,0,2
Y2-S2-109K20,4,328,AS,exp,45,←,left,←,0.7358889998868108,True,21,-1,0,2
Y2-S2-109K20,4,329,AS,exp,44,↑,up,↑,0.9536913000047207,True,21,-1,0,2
Y2-S2-109K20,4,330,AS,exp,43,→,right,→,0.6768286000005901,True,21,1,1,3
Y2-S2-109K20,4,331,AS,exp,48,↑,up,↑,1.6713752001523972,True,20,1,0,3
Y2-S2-109K20,4,332,AS,exp,30,←,left,←,0.5695497998967767,True,20,1,0,3
Y2-S2-109K20,4,333,AS,exp,39,↓,right,→,1.398775499779731,False,20,-1,1,4
Y2-S2-109K20,4,334,AS,exp,43,↑,up,↑,1.7358452999033034,True,21,-1,0,4
Y2-S2-109K20,4,335,AS,exp,49,→,right,→,0.7010800996795297,True,21,-1,0,4
Y2-S2-109K20,4,336,AS,exp,48,↓,down,↓,0.5362692000344396,True,21,1,1,5
Y2-S2-109K20,4,337,AS,exp,38,→,right,→,0.7622010000050068,True,20,1,0,5
Y2-S2-109K20,4,338,AS,exp,27,↓,down,↓,0.5186954000964761,True,20,1,0,5
Y2-S2-109K20,4,339,AS,exp,47,↑,up,↑,0.6663522999733686,True,20,1,0,5
Y2-S2-109K20,4,340,AS,exp,28,↓,down,↓,1.5272945002652705,True,19,1,0,5
Y2-S2-109K20,4,341,AS,exp,29,←,right,→,0.7653632997535169,False,19,-1,1,6
Y2-S2-109K20,4,342,AS,exp,25,→,right,→,0.735375199932605,True,20,-1,0,6
Y2-S2-109K20,4,343,AS,exp,43,↓,down,↓,0.9091660999692976,True,20,-1,0,6
Y2-S2-109K20,4,344,AS,exp,32,→,down,↓,0.9219153001904488,False,20,-1,0,6
Y2-S2-109K20,4,345,AS,exp,43,←,left,←,0.6003009998239577,True,21,-1,0,6
Y2-S2-109K20,4,346,AS,exp,44,↑,left,←,1.2510687001049519,False,21,-1,0,6
Y2-S2-109K20,4,347,AS,exp,31,→,right,→,0.7026594001799822,True,22,-1,0,6
Y2-S2-109K20,4,348,AS,exp,50,↓,down,↓,0.5920791998505592,True,22,-1,0,6
Y2-S2-109K20,4,349,AS,exp,44,←,right,→,1.0102126002311707,False,22,-1,0,6
Y2-S2-109K20,4,350,AS,exp,35,↓,down,↓,1.2775831003673375,True,23,-1,0,6
Y2-S2-109K20,4,351,AS,exp,38,→,right,→,0.5172731997445226,True,23,-1,0,6
Y2-S2-109K20,4,352,AS,exp,41,↑,up,↑,0.9058930999599397,True,23,1,1,7
Y2-S2-109K20,4,353,AS,exp,25,→,right,→,0.8218927998095751,True,22,1,0,7
Y2-S2-109K20,4,354,AS,exp,50,↓,down,↓,0.7240059999749064,True,22,1,0,7
Y2-S2-109K20,4,355,AS,exp,29,→,right,→,1.0023921998217702,True,22,1,0,7
Y2-S2-109K20,4,356,AS,exp,30,←,left,←,0.7469596001319587,True,21,1,0,7
Y2-S2-109K20,4,357,AS,exp,48,↓,down,↓,1.5437388001009822,True,21,1,0,7
Y2-S2-109K20,4,358,AS,exp,45,↑,up,↑,1.5617639999836683,True,21,1,0,7
Y2-S2-109K20,4,359,AS,exp,45,↓,down,↓,0.8585953000001609,True,20,1,0,7
Y2-S2-109K20,4,360,AS,exp,37,→,right,→,0.8113084002397954,True,20,1,0,7
Y2-S2-109K20,4,361,AS,exp,42,↓,down,↓,0.6768088000826538,True,20,1,0,7
Y2-S2-109K20,4,362,AS,exp,31,→,right,→,0.5679700002074242,True,19,1,0,7
Y2-S2-109K20,4,363,AS,exp,46,←,left,←,0.5522739002481103,True,19,1,0,7
Y2-S2-109K20,4,364,AS,exp,50,↓,down,↓,0.532304699998349,True,19,1,0,7
Y2-S2-109K20,4,365,AS,exp,37,→,right,→,0.5807713996618986,True,18,1,0,7
Y2-S2-109K20,4,366,AS,exp,29,↓,down,↓,0.5535628003999591,True,18,1,0,7
Y2-S2-109K20,4,367,AS,exp,50,←,left,←,0.5146137000992894,True,18,1,0,7
Y2-S2-109K20,4,368,AS,exp,33,↑,up,↑,0.790694999974221,True,17,1,0,7
Y2-S2-109K20,4,369,AS,exp,48,↓,down,↓,0.7577086999081075,True,17,1,0,7
Y2-S2-109K20,4,370,AS,exp,50,→,right,→,0.902989599853754,True,17,1,0,7
Y2-S2-109K20,4,371,AS,exp,34,↑,right,→,0.8890122002921999,False,16,-1,1,8
Y2-S2-109K20,4,372,AS,exp,37,↓,right,→,1.0631311000324786,False,17,-1,0,8
Y2-S2-109K20,4,373,AS,exp,34,←,right,→,0.7119226003997028,False,18,-1,0,8
Y2-S2-109K20,4,374,AS,exp,40,↑,up,↑,0.8188066999427974,True,19,-1,0,8
Y2-S2-109K20,4,375,AS,exp,33,↓,down,↓,0.7892394000664353,True,19,-1,0,8
Y2-S2-109K20,4,376,AS,exp,49,↑,right,→,1.1911407001316547,False,19,-1,0,8
Y2-S2-109K20,4,377,AS,exp,35,←,right,→,0.661992299836129,False,20,-1,0,8
Y2-S2-109K20,4,378,AS,exp,44,→,left,←,1.5704212998971343,False,21,-1,0,8
Y2-S2-109K20,4,379,AS,exp,48,←,left,←,1.5438427003100514,True,22,-1,0,8
Y2-S2-109K20,4,380,AS,exp,39,→,right,→,0.7306918003596365,True,22,-1,0,8
Y2-S2-109K20,4,381,AS,exp,43,←,right,→,1.140885700006038,False,22,-1,0,8
Y2-S2-109K20,4,382,AS,exp,49,↑,right,→,1.096024400088936,False,23,-1,0,8
Y2-S2-109K20,4,383,AS,exp,42,→,right,→,0.5920221996493638,True,24,-1,0,8
Y2-S2-109K20,4,384,AS,exp,37,←,left,←,0.7503259000368416,True,24,-1,0,8
Y2-S2-109K20,4,385,AS,exp,31,↑,no_key,no_letter,-1.0,False,24,-1,0,8
Y2-S2-109K20,4,386,AS,exp,34,↓,down,↓,0.7765420000068843,True,25,-1,0,8
Y2-S2-109K20,4,387,AS,exp,48,→,right,→,1.2667098003439605,True,25,-1,0,8
Y2-S2-109K20,4,388,AS,exp,37,←,left,←,0.9301964999176562,True,25,1,1,9
Y2-S2-109K20,4,389,AS,exp,44,→,no_key,no_letter,-1.0,False,24,-1,1,10
Y2-S2-109K20,4,390,AS,exp,49,↓,down,↓,1.129404400009662,True,25,-1,0,10
Y2-S2-109K20,4,391,AS,exp,40,←,left,←,0.8795293997973204,True,25,-1,0,10
Y2-S2-109K20,4,392,AS,exp,28,↑,left,←,1.2029194999486208,False,25,-1,0,10
Y2-S2-109K20,4,393,AS,exp,30,←,left,←,1.3216129001230001,True,26,-1,0,10
Y2-S2-109K20,4,394,AS,exp,48,↑,up,↑,0.7058898000977933,True,26,-1,0,10
Y2-S2-109K20,4,395,AS,exp,40,↓,down,↓,0.783808599691838,True,26,1,1,11
Y2-S2-109K20,4,396,AS,exp,48,←,left,←,1.4338560998439789,True,25,1,0,11
Y2-S2-109K20,4,397,AS,exp,44,→,right,→,0.6274945996701717,True,25,1,0,11
Y2-S2-109K20,4,398,AS,exp,27,↑,down,↓,0.9763843002729118,False,25,-1,1,12
Y2-S2-109K20,4,399,AS,exp,39,→,right,→,0.7310925000347197,True,26,-1,0,12
Y2-S2-109K20,4,400,AS,exp,47,←,left,←,0.5343067003414035,True,26,-1,0,12
Y2-S2-109K20,4,401,AS,exp,43,↑,up,↑,0.8104205001145601,True,26,1,1,13
Y2-S2-109K20,4,402,AS,exp,32,↓,down,↓,0.6157017997466028,True,25,1,0,13
Y2-S2-109K20,4,403,AS,exp,34,↑,up,↑,0.6244912999682128,True,25,1,0,13
Y2-S2-109K20,4,404,AS,exp,26,←,left,←,0.7047549998387694,True,25,1,0,13
Y2-S2-109K20,4,405,AS,exp,41,↑,up,↑,0.7924704002216458,True,24,1,0,13
Y2-S2-109K20,4,406,AS,exp,32,→,right,→,0.5175067000091076,True,24,1,0,13
Y2-S2-109K20,4,407,AS,exp,49,↓,down,↓,0.65191899985075,True,24,1,0,13
Y2-S2-109K20,4,408,AS,exp,49,←,left,←,0.7535902000963688,True,23,1,0,13
Y2-S2-109K20,4,409,AS,exp,30,↑,up,↑,0.6800471004098654,True,23,1,0,13
Y2-S2-109K20,4,410,AS,exp,40,←,left,←,0.6183299999684095,True,23,1,0,13
Y2-S2-109K20,4,411,AS,exp,27,→,right,→,0.5642904997803271,True,22,1,0,13
Y2-S2-109K20,4,412,AS,exp,33,←,left,←,1.0829036999493837,True,22,1,0,13
Y2-S2-109K20,4,413,AS,exp,35,→,right,→,0.5386852999217808,True,22,1,0,13
Y2-S2-109K20,4,414,AS,exp,45,↓,down,↓,0.9320084997452796,True,21,1,0,13
Y2-S2-109K20,4,415,AS,exp,49,↑,up,↑,1.2514724000357091,True,21,1,0,13
Y2-S2-109K20,4,416,AS,exp,43,↓,down,↓,0.9098527999594808,True,21,1,0,13
Y2-S2-109K20,4,417,AS,exp,47,↑,up,↑,0.8516485998407006,True,20,1,0,13
Y2-S2-109K20,4,418,AS,exp,50,←,left,←,0.7741406997665763,True,20,1,0,13
Y2-S2-109K20,4,419,AS,exp,29,→,right,→,0.5183033999055624,True,20,1,0,13
Y2-S2-109K20,4,420,AS,exp,30,↓,down,↓,1.0039248000830412,True,19,1,0,13
Y2-S2-109K20,4,421,AS,exp,26,→,up,↑,1.0588253000751138,False,19,-1,1,14
Y2-S2-109K20,4,422,AS,exp,28,↑,up,↑,1.0728135001845658,True,20,-1,0,14
Y2-S2-109K20,4,423,AS,exp,37,↓,up,↑,1.0781580000184476,False,20,-1,0,14
Y2-S2-109K20,4,424,AS,exp,28,→,right,→,0.7424483997747302,True,21,-1,0,14
Y2-S2-109K20,4,425,AS,exp,35,↑,up,↑,1.0548760001547635,True,21,-1,0,14
Y2-S2-109K20,4,426,AS,exp,38,→,no_key,no_letter,-1.0,False,21,-1,0,14
Y2-S2-109K20,4,427,AS,exp,25,←,left,←,0.4671962996944785,True,22,-1,0,14
Y2-S2-109K20,4,428,AS,exp,45,↓,down,↓,1.0957754999399185,True,22,-1,0,14
Y2-S2-109K20,4,429,AS,exp,45,↑,up,↑,1.0530730998143554,True,22,1,1,15
Y2-S2-109K20,4,430,AS,exp,26,↓,down,↓,0.6305427998304367,True,21,1,0,15
Y2-S2-109K20,4,431,AS,exp,27,←,right,→,1.6818221001885831,False,21,-1,1,16
Y2-S2-109K20,5,432,AS,intra_train,49,↓,down,↓,1.3749390998855233,True,30,-,-,-
Y2-S2-109K20,5,433,AS,intra_train,40,↑,up,↑,0.9375860001891851,True,30,-,-,-
Y2-S2-109K20,5,434,AS,intra_train,27,→,right,→,0.8279201998375356,True,30,-,-,-
Y2-S2-109K20,5,435,AS,intra_train,36,↑,up,↑,0.5672070002183318,True,30,-,-,-
Y2-S2-109K20,5,436,AS,intra_train,26,←,left,←,0.6816436997614801,True,30,-,-,-
Y2-S2-109K20,5,437,AS,exp,34,→,right,→,0.8074841997586191,True,20,0,0,0
Y2-S2-109K20,5,438,AS,exp,50,←,left,←,0.66373739996925,True,20,0,0,0
Y2-S2-109K20,5,439,AS,exp,45,→,left,←,0.8211990999989212,False,20,-1,0,0
Y2-S2-109K20,5,440,AS,exp,28,←,right,→,1.064867699984461,False,21,-1,0,0
Y2-S2-109K20,5,441,AS,exp,42,↓,down,↓,0.977587700355798,True,22,-1,0,0
Y2-S2-109K20,5,442,AS,exp,49,→,right,→,0.9254466001875699,True,22,-1,0,0
Y2-S2-109K20,5,443,AS,exp,34,←,right,→,0.9018699997104704,False,22,-1,0,0
Y2-S2-109K20,5,444,AS,exp,29,↓,down,↓,0.6441274001263082,True,23,-1,0,0
Y2-S2-109K20,5,445,AS,exp,31,←,left,←,0.7636046996340156,True,23,-1,0,0
Y2-S2-109K20,5,446,AS,exp,28,↑,up,↑,0.8701288001611829,True,23,1,1,1
Y2-S2-109K20,5,447,AS,exp,29,→,down,↓,1.243367400020361,False,22,-1,1,2
Y2-S2-109K20,5,448,AS,exp,40,↓,down,↓,1.647071999963373,True,23,-1,0,2
Y2-S2-109K20,5,449,AS,exp,39,←,left,←,0.8448990001343191,True,23,-1,0,2
Y2-S2-109K20,5,450,AS,exp,25,↑,right,→,1.126072300132364,False,23,-1,0,2
Y2-S2-109K20,5,451,AS,exp,46,↓,down,↓,0.9569402998313308,True,24,-1,0,2
Y2-S2-109K20,5,452,AS,exp,34,←,left,←,0.7810676000081003,True,24,-1,0,2
Y2-S2-109K20,5,453,AS,exp,39,↑,left,←,1.9467616002075374,False,24,-1,0,2
Y2-S2-109K20,5,454,AS,exp,31,↓,down,↓,0.8502205000258982,True,25,-1,0,2
Y2-S2-109K20,5,455,AS,exp,31,→,right,→,0.623151000123471,True,25,-1,0,2
Y2-S2-109K20,5,456,AS,exp,30,←,left,←,1.3443567999638617,True,25,1,1,3
Y2-S2-109K20,5,457,AS,exp,49,↑,up,↑,0.9611100000329316,True,24,1,0,3
Y2-S2-109K20,5,458,AS,exp,48,→,right,→,0.5724947997368872,True,24,1,0,3
Y2-S2-109K20,5,459,AS,exp,42,↓,down,↓,0.5856789001263678,True,24,1,0,3
Y2-S2-109K20,5,460,AS,exp,27,←,left,←,0.43347760010510683,True,23,1,0,3
Y2-S2-109K20,5,461,AS,exp,36,→,right,→,0.6106962999328971,True,23,1,0,3
Y2-S2-109K20,5,462,AS,exp,34,↓,down,↓,0.7612502998672426,True,23,1,0,3
Y2-S2-109K20,5,463,AS,exp,31,→,right,→,0.7258366998285055,True,22,1,0,3
Y2-S2-109K20,5,464,AS,exp,32,↑,up,↑,1.4182442999444902,True,22,1,0,3
Y2-S2-109K20,5,465,AS,exp,41,→,right,→,0.6267458996735513,True,22,1,0,3
Y2-S2-109K20,5,466,AS,exp,31,↓,down,↓,0.7231204998679459,True,21,1,0,3
Y2-S2-109K20,5,467,AS,exp,46,→,right,→,0.7575405002571642,True,21,1,0,3
Y2-S2-109K20,5,468,AS,exp,38,↑,up,↑,0.5556307998485863,True,21,1,0,3
Y2-S2-109K20,5,469,AS,exp,31,↓,up,↑,1.0287843002006412,False,20,-1,1,4
Y2-S2-109K20,5,470,AS,exp,50,↑,up,↑,0.8569514998234808,True,21,-1,0,4
Y2-S2-109K20,5,471,AS,exp,46,→,right,→,0.8144042999483645,True,21,-1,0,4
Y2-S2-109K20,5,472,AS,exp,38,↑,up,↑,0.9776552999392152,True,21,1,1,5
Y2-S2-109K20,5,473,AS,exp,36,↓,down,↓,0.569707800168544,True,20,1,0,5
Y2-S2-109K20,5,474,AS,exp,34,←,right,→,0.6553446999751031,False,20,-1,1,6
Y2-S2-109K20,5,475,AS,exp,25,→,right,→,0.4507738999091089,True,21,-1,0,6
Y2-S2-109K20,5,476,AS,exp,36,←,left,←,0.6881149001419544,True,21,-1,0,6
Y2-S2-109K20,5,477,AS,exp,34,↑,right,→,1.176163800060749,False,21,-1,0,6
Y2-S2-109K20,5,478,AS,exp,36,↓,down,↓,0.7559572998434305,True,22,-1,0,6
Y2-S2-109K20,5,479,AS,exp,32,→,down,↓,0.9107920001260936,False,22,-1,0,6
Y2-S2-109K20,5,480,AS,exp,33,↓,down,↓,0.694497199729085,True,23,-1,0,6
Y2-S2-109K20,5,481,AS,exp,38,←,left,←,0.7905732002109289,True,23,-1,0,6
Y2-S2-109K20,5,482,AS,exp,47,↓,down,↓,0.6742201996967196,True,23,1,1,7
Y2-S2-109K20,5,483,AS,exp,29,←,left,←,0.8280642000027001,True,22,1,0,7
Y2-S2-109K20,5,484,AS,exp,31,↓,down,↓,0.58095070021227,True,22,1,0,7
Y2-S2-109K20,5,485,AS,exp,42,↑,up,↑,0.863167000003159,True,22,1,0,7
Y2-S2-109K20,5,486,AS,exp,35,↓,down,↓,0.8002590001560748,True,21,1,0,7
Y2-S2-109K20,5,487,AS,exp,40,←,no_key,no_letter,-1.0,False,21,-1,1,8
Y2-S2-109K20,5,488,AS,exp,47,↓,down,↓,0.5731563000008464,True,22,-1,0,8
Y2-S2-109K20,5,489,AS,exp,30,↑,up,↑,0.9107864000834525,True,22,-1,0,8
Y2-S2-109K20,5,490,AS,exp,44,↓,down,↓,0.6069873999804258,True,22,1,1,9
Y2-S2-109K20,5,491,AS,exp,33,↑,up,↑,0.5879829996265471,True,21,1,0,9
Y2-S2-109K20,5,492,AS,exp,48,→,right,→,0.6279822997748852,True,21,1,0,9
Y2-S2-109K20,5,493,AS,exp,26,↑,up,↑,1.0048795002512634,True,21,1,0,9
Y2-S2-109K20,5,494,AS,exp,36,↓,up,↑,0.8652790002524853,False,20,-1,1,10
Y2-S2-109K20,5,495,AS,exp,50,→,right,→,0.7593966000713408,True,21,-1,0,10
Y2-S2-109K20,5,496,AS,exp,33,←,right,→,0.8587695001624525,False,21,-1,0,10
Y2-S2-109K20,5,497,AS,exp,31,↓,down,↓,0.7193339997902513,True,22,-1,0,10
Y2-S2-109K20,5,498,AS,exp,40,→,right,→,0.7587638995610178,True,22,-1,0,10
Y2-S2-109K20,5,499,AS,exp,32,↓,down,↓,0.6283217002637684,True,22,1,1,11
Y2-S2-109K20,5,500,AS,exp,44,←,left,←,0.7084420002065599,True,21,1,0,11
Y2-S2-109K20,5,501,AS,exp,31,↓,down,↓,0.5628177998587489,True,21,1,0,11
Y2-S2-109K20,5,502,AS,exp,25,↑,up,↑,1.0422652000561357,True,21,1,0,11
Y2-S2-109K20,5,503,AS,exp,36,↓,up,↑,1.115187699906528,False,20,-1,1,12
Y2-S2-109K20,5,504,AS,exp,37,←,left,←,0.5638405000790954,True,21,-1,0,12
Y2-S2-109K20,5,505,AS,exp,44,↑,left,←,0.9127016998827457,False,21,-1,0,12
Y2-S2-109K20,5,506,AS,exp,25,↓,down,↓,0.703995100222528,True,22,-1,0,12
Y2-S2-109K20,5,507,AS,exp,44,↑,up,↑,0.6863425001502037,True,22,-1,0,12
Y2-S2-109K20,5,508,AS,exp,43,←,left,←,0.5553395999595523,True,22,1,1,13
Y2-S2-109K20,5,509,AS,exp,29,→,left,←,0.9526696000248194,False,21,-1,1,14
Y2-S2-109K20,5,510,AS,exp,31,←,left,←,0.7532385000959039,True,22,-1,0,14
Y2-S2-109K20,5,511,AS,exp,28,↓,down,↓,0.5470922002568841,True,22,-1,0,14
Y2-S2-109K20,5,512,AS,exp,48,←,left,←,0.9595397002995014,True,22,1,1,15
Y2-S2-109K20,5,513,AS,exp,47,↓,down,↓,0.5372453997842968,True,21,1,0,15
Y2-S2-109K20,5,514,AS,exp,25,↑,up,↑,0.8710378999821842,True,21,1,0,15
Y2-S2-109K20,5,515,AS,exp,42,←,left,←,0.55808229977265,True,21,1,0,15
Y2-S2-109K20,5,516,AS,exp,50,↓,down,↓,0.8628196003846824,True,20,1,0,15
Y2-S2-109K20,5,517,AS,exp,40,←,left,←,0.6686410000547767,True,20,1,0,15
Y2-S2-109K20,5,518,AS,exp,36,↓,up,↑,0.9251013998873532,False,20,-1,1,16
Y2-S2-109K20,6,519,PS,intra_train,44,↑,right,→,1.3362488998100162,False,21,-,-,-
Y2-S2-109K20,6,520,PS,intra_train,32,←,left,←,0.5883022001944482,True,21,-,-,-
Y2-S2-109K20,6,521,PS,intra_train,27,↓,down,↓,0.5490697002969682,True,21,-,-,-
Y2-S2-109K20,6,522,PS,intra_train,33,↑,up,↑,0.6242055003531277,True,21,-,-,-
Y2-S2-109K20,6,523,PS,intra_train,37,↓,down,↓,0.6200735000893474,True,21,-,-,-
Y2-S2-109K20,6,524,PS,exp,42,↑,left,←,1.0190213997848332,False,14,-1,0,0
Y2-S2-109K20,6,525,PS,exp,33,↓,down,↓,0.5567155000753701,True,15,-1,0,0
Y2-S2-109K20,6,526,PS,exp,26,↑,left,←,1.002546800300479,False,15,-1,0,0
Y2-S2-109K20,6,527,PS,exp,42,←,left,←,1.0857132002711296,True,16,-1,0,0
Y2-S2-109K20,6,528,PS,exp,27,↓,down,↓,0.5009389999322593,True,16,-1,0,0
Y2-S2-109K20,6,529,PS,exp,27,↑,up,↑,0.5308538000099361,True,16,1,1,1
Y2-S2-109K20,6,530,PS,exp,40,→,right,→,0.5043524000793695,True,15,1,0,1
Y2-S2-109K20,6,531,PS,exp,42,↑,up,↑,0.45494250021874905,True,15,1,0,1
Y2-S2-109K20,6,532,PS,exp,28,←,right,→,0.6189358998090029,False,15,-1,1,2
Y2-S2-109K20,6,533,PS,exp,42,→,right,→,0.831848899833858,True,16,-1,0,2
Y2-S2-109K20,6,534,PS,exp,37,←,left,←,0.6412074998952448,True,16,-1,0,2
Y2-S2-109K20,6,535,PS,exp,31,↑,up,↑,0.532246199902147,True,16,1,1,3
Y2-S2-109K20,6,536,PS,exp,44,↓,left,←,0.7670708997175097,False,15,-1,1,4
Y2-S2-109K20,6,537,PS,exp,31,←,left,←,0.4836586001329124,True,16,-1,0,4
Y2-S2-109K20,6,538,PS,exp,44,↓,down,↓,0.4781903000548482,True,16,-1,0,4
Y2-S2-109K20,6,539,PS,exp,25,↑,up,↑,0.5921748001128435,True,16,1,1,5
Y2-S2-109K20,6,540,PS,exp,46,↓,right,→,0.7720316001214087,False,15,-1,1,6
Y2-S2-109K20,6,541,PS,exp,45,↑,up,↑,0.5174225000664592,True,16,-1,0,6
Y2-S2-109K20,6,542,PS,exp,28,↓,left,←,0.6698182998225093,False,16,-1,0,6
Y2-S2-109K20,6,543,PS,exp,32,→,right,→,0.5192234003916383,True,17,-1,0,6
Y2-S2-109K20,6,544,PS,exp,32,↑,no_key,no_letter,-1.0,False,17,-1,0,6
Y2-S2-109K20,6,545,PS,exp,50,↓,down,↓,0.5885314997285604,True,18,-1,0,6
Y2-S2-109K20,6,546,PS,exp,50,←,right,→,0.6702426001429558,False,18,-1,0,6
Y2-S2-109K20,6,547,PS,exp,40,↑,up,↑,0.4998127999715507,True,19,-1,0,6
Y2-S2-109K20,6,548,PS,exp,49,→,right,→,0.7202373999170959,True,19,-1,0,6
Y2-S2-109K20,6,549,PS,exp,35,↓,down,↓,0.7253644000738859,True,19,1,1,7
Y2-S2-109K20,6,550,PS,exp,36,←,left,←,0.5621116999536753,True,18,1,0,7
Y2-S2-109K20,6,551,PS,exp,25,↑,left,←,0.6296697999350727,False,18,-1,1,8
Y2-S2-109K20,6,552,PS,exp,25,←,left,←,1.5733477999456227,True,19,-1,0,8
Y2-S2-109K20,6,553,PS,exp,39,↓,down,↓,0.550798200070858,True,19,-1,0,8
Y2-S2-109K20,6,554,PS,exp,33,→,right,→,0.5341807999648154,True,19,1,1,9
Y2-S2-109K20,6,555,PS,exp,50,↓,down,↓,1.5389436003752053,True,18,1,0,9
Y2-S2-109K20,6,556,PS,exp,43,↑,up,↑,0.951086699962616,True,18,1,0,9
Y2-S2-109K20,6,557,PS,exp,34,↓,down,↓,0.6281908000819385,True,18,1,0,9
Y2-S2-109K20,6,558,PS,exp,42,←,left,←,0.4759506001137197,True,17,1,0,9
Y2-S2-109K20,6,559,PS,exp,29,→,right,→,0.40067580016329885,True,17,1,0,9
Y2-S2-109K20,6,560,PS,exp,28,↓,down,↓,0.5420231996104121,True,17,1,0,9
Y2-S2-109K20,6,561,PS,exp,36,↑,up,↑,0.5069670001976192,True,16,1,0,9
Y2-S2-109K20,6,562,PS,exp,36,↓,right,→,0.6124019999988377,False,16,-1,1,10
Y2-S2-109K20,6,563,PS,exp,49,←,left,←,0.6631964999251068,True,17,-1,0,10
Y2-S2-109K20,6,564,PS,exp,34,↓,down,↓,0.513446600176394,True,17,-1,0,10
Y2-S2-109K20,6,565,PS,exp,28,↑,right,→,0.6422987002879381,False,17,-1,0,10
Y2-S2-109K20,6,566,PS,exp,35,←,left,←,0.518546300008893,True,18,-1,0,10
Y2-S2-109K20,6,567,PS,exp,33,→,right,→,0.4765894003212452,True,18,-1,0,10
Y2-S2-109K20,6,568,PS,exp,48,↑,left,←,0.6154625001363456,False,18,-1,0,10
Y2-S2-109K20,6,569,PS,exp,49,←,right,→,0.7504010000266135,False,19,-1,0,10
Y2-S2-109K20,6,570,PS,exp,49,↑,up,↑,0.605498899705708,True,20,-1,0,10
Y2-S2-109K20,6,571,PS,exp,37,→,right,→,0.5090004997327924,True,20,-1,0,10
Y2-S2-109K20,6,572,PS,exp,40,←,left,←,0.788391400128603,True,20,1,1,11
Y2-S2-109K20,6,573,PS,exp,27,↓,down,↓,0.5389956999570131,True,19,1,0,11
Y2-S2-109K20,6,574,PS,exp,26,↑,up,↑,0.6853714999742806,True,19,1,0,11
Y2-S2-109K20,6,575,PS,exp,42,→,right,→,0.5748354000970721,True,19,1,0,11
Y2-S2-109K20,6,576,PS,exp,46,↓,down,↓,0.887457299977541,True,18,1,0,11
Y2-S2-109K20,6,577,PS,exp,46,←,left,←,1.4925810997374356,True,18,1,0,11
Y2-S2-109K20,6,578,PS,exp,39,→,right,→,0.4856171999126673,True,18,1,0,11
Y2-S2-109K20,6,579,PS,exp,27,↓,up,↑,1.0807638000696898,False,17,-1,1,12
Y2-S2-109K20,6,580,PS,exp,50,→,right,→,0.46785209979861975,True,18,-1,0,12
Y2-S2-109K20,6,581,PS,exp,47,↓,right,→,0.7751303003169596,False,18,-1,0,12
Y2-S2-109K20,6,582,PS,exp,25,←,left,←,0.5148457000032067,True,19,-1,0,12
Y2-S2-109K20,6,583,PS,exp,47,→,right,→,0.8129857000894845,True,19,-1,0,12
Y2-S2-109K20,6,584,PS,exp,43,←,right,→,0.8453572001308203,False,19,-1,0,12
Y2-S2-109K20,6,585,PS,exp,39,↑,up,↑,0.5273345001041889,True,20,-1,0,12
Y2-S2-109K20,6,586,PS,exp,25,←,left,←,0.6386092002503574,True,20,-1,0,12
Y2-S2-109K20,6,587,PS,exp,29,↑,up,↑,0.5196024002507329,True,20,1,1,13
Y2-S2-109K20,6,588,PS,exp,27,→,left,←,0.5750504001043737,False,19,-1,1,14
Y2-S2-109K20,6,589,PS,exp,32,↑,up,↑,1.2396889999508858,True,20,-1,0,14
Y2-S2-109K20,6,590,PS,exp,39,←,right,→,0.6737310998141766,False,20,-1,0,14
Y2-S2-109K20,6,591,PS,exp,46,↑,up,↑,0.7459124997258186,True,21,-1,0,14
Y2-S2-109K20,6,592,PS,exp,37,↓,left,←,0.7952159000560641,False,21,-1,0,14
Y2-S2-109K20,6,593,PS,exp,37,→,right,→,1.1653522001579404,True,22,-1,0,14
Y2-S2-109K20,6,594,PS,exp,45,↑,up,↑,0.7208592998795211,True,22,-1,0,14
Y2-S2-109K20,6,595,PS,exp,34,←,left,←,0.6364178997464478,True,22,1,1,15
Y2-S2-109K20,6,596,PS,exp,41,↑,up,↑,0.4672642000950873,True,21,1,0,15
Y2-S2-109K20,6,597,PS,exp,35,→,right,→,0.5672458000481129,True,21,1,0,15
Y2-S2-109K20,6,598,PS,exp,48,←,left,←,0.6620547003112733,True,21,1,0,15
Y2-S2-109K20,6,599,PS,exp,32,↓,down,↓,0.6176877999678254,True,20,1,0,15
Y2-S2-109K20,6,600,PS,exp,39,→,left,←,0.7986805001273751,False,20,-1,1,16
Y2-S2-109K20,7,601,PS,intra_train,49,↓,down,↓,1.129661999642849,True,21,-,-,-
Y2-S2-109K20,7,602,PS,intra_train,27,↑,up,↑,1.0978337000124156,True,21,-,-,-
Y2-S2-109K20,7,603,PS,intra_train,48,←,left,←,1.1084267999976873,True,21,-,-,-
Y2-S2-109K20,7,604,PS,intra_train,31,↑,up,↑,0.46725609991699457,True,21,-,-,-
Y2-S2-109K20,7,605,PS,intra_train,29,↓,down,↓,0.5475098001770675,True,21,-,-,-
Y2-S2-109K20,7,606,PS,exp,37,↑,right,→,1.2844308000057936,False,14,-1,0,0
Y2-S2-109K20,7,607,PS,exp,38,→,right,→,0.5348636996932328,True,15,-1,0,0
Y2-S2-109K20,7,608,PS,exp,43,↓,down,↓,0.422439600341022,True,15,-1,0,0
Y2-S2-109K20,7,609,PS,exp,38,↑,up,↑,0.7869592001661658,True,15,1,1,1
Y2-S2-109K20,7,610,PS,exp,46,↓,down,↓,0.6228350000455976,True,14,1,0,1
Y2-S2-109K20,7,611,PS,exp,26,→,down,↓,0.7563102999702096,False,14,-1,1,2
Y2-S2-109K20,7,612,PS,exp,36,↑,down,↓,0.6773455999791622,False,15,-1,0,2
Y2-S2-109K20,7,613,PS,exp,41,↓,down,↓,0.565136400051415,True,16,-1,0,2
Y2-S2-109K20,7,614,PS,exp,31,↑,up,↑,0.7189758997410536,True,16,-1,0,2
Y2-S2-109K20,7,615,PS,exp,30,↓,down,↓,0.7133758999407291,True,16,1,1,3
Y2-S2-109K20,7,616,PS,exp,44,↑,up,↑,0.5729632000438869,True,15,1,0,3
Y2-S2-109K20,7,617,PS,exp,47,↓,down,↓,0.4375853999517858,True,15,1,0,3
Y2-S2-109K20,7,618,PS,exp,49,↑,up,↑,0.6364959999918938,True,15,1,0,3
Y2-S2-109K20,7,619,PS,exp,40,↓,down,↓,0.5421464000828564,True,14,1,0,3
Y2-S2-109K20,7,620,PS,exp,28,↑,down,↓,0.8112291996367276,False,14,-1,1,4
Y2-S2-109K20,7,621,PS,exp,47,↓,down,↓,0.4604258001782,True,15,-1,0,4
Y2-S2-109K20,7,622,PS,exp,34,←,down,↓,0.6083978000096977,False,15,-1,0,4
Y2-S2-109K20,7,623,PS,exp,48,→,down,↓,0.8204920999705791,False,16,-1,0,4
Y2-S2-109K20,7,624,PS,exp,29,↑,down,↓,0.7531460002064705,False,17,-1,0,4
Y2-S2-109K20,7,625,PS,exp,39,→,down,↓,0.7338164001703262,False,18,-1,0,4
Y2-S2-109K20,7,626,PS,exp,45,↑,up,↑,0.6425369996577501,True,19,-1,0,4
Y2-S2-109K20,7,627,PS,exp,36,←,right,→,0.5922254999168217,False,19,-1,0,4
Y2-S2-109K20,7,628,PS,exp,28,↑,up,↑,1.2180103003047407,True,20,-1,0,4
Y2-S2-109K20,7,629,PS,exp,42,↓,down,↓,0.7331074997782707,True,20,-1,0,4
Y2-S2-109K20,7,630,PS,exp,40,←,left,←,0.5755896000191569,True,20,1,1,5
Y2-S2-109K20,7,631,PS,exp,40,↓,left,←,1.2367145996540785,False,19,-1,1,6
Y2-S2-109K20,7,632,PS,exp,31,→,right,→,0.6499700001440942,True,20,-1,0,6
Y2-S2-109K20,7,633,PS,exp,26,←,left,←,0.5092958998866379,True,20,-1,0,6
Y2-S2-109K20,7,634,PS,exp,46,↓,left,←,0.7357187997549772,False,20,-1,0,6
Y2-S2-109K20,7,635,PS,exp,36,→,right,→,0.7440236997790635,True,21,-1,0,6
Y2-S2-109K20,7,636,PS,exp,48,←,left,←,1.2348450003191829,True,21,-1,0,6
Y2-S2-109K20,7,637,PS,exp,29,↓,up,↑,1.0761768999509513,False,21,-1,0,6
Y2-S2-109K20,7,638,PS,exp,26,→,right,→,0.612981699872762,True,22,-1,0,6
Y2-S2-109K20,7,639,PS,exp,37,↓,down,↓,0.4843493001535535,True,22,-1,0,6
Y2-S2-109K20,7,640,PS,exp,26,←,left,←,0.4838016997091472,True,22,1,1,7
Y2-S2-109K20,7,641,PS,exp,30,↑,up,↑,0.5549603002145886,True,21,1,0,7
Y2-S2-109K20,7,642,PS,exp,40,←,left,←,0.450798699632287,True,21,1,0,7
Y2-S2-109K20,7,643,PS,exp,41,↓,left,←,0.9139295001514256,False,21,-1,1,8
Y2-S2-109K20,7,644,PS,exp,33,→,right,→,0.6872826996259391,True,22,-1,0,8
Y2-S2-109K20,7,645,PS,exp,45,↓,down,↓,0.6543931998312473,True,22,-1,0,8
Y2-S2-109K20,7,646,PS,exp,33,←,left,←,0.45045110024511814,True,22,1,1,9
Y2-S2-109K20,7,647,PS,exp,46,↓,down,↓,0.4008014998398721,True,21,1,0,9
Y2-S2-109K20,7,648,PS,exp,38,→,right,→,0.6561402999795973,True,21,1,0,9
Y2-S2-109K20,7,649,PS,exp,38,↑,up,↑,0.728282599709928,True,21,1,0,9
Y2-S2-109K20,7,650,PS,exp,35,↓,down,↓,0.9687557001598179,True,20,1,0,9
Y2-S2-109K20,7,651,PS,exp,42,→,no_key,no_letter,-1.0,False,20,-1,1,10
Y2-S2-109K20,7,652,PS,exp,47,←,left,←,0.4838550998829305,True,21,-1,0,10
Y2-S2-109K20,7,653,PS,exp,32,↓,down,↓,0.46747840009629726,True,21,-1,0,10
Y2-S2-109K20,7,654,PS,exp,36,↑,up,↑,0.6106472997926176,True,21,1,1,11
Y2-S2-109K20,7,655,PS,exp,27,→,right,→,0.5067212004214525,True,20,1,0,11
Y2-S2-109K20,7,656,PS,exp,50,←,left,←,1.0408185003325343,True,20,1,0,11
Y2-S2-109K20,7,657,PS,exp,40,→,right,→,0.6018521999940276,True,20,1,0,11
Y2-S2-109K20,7,658,PS,exp,44,↑,left,←,0.8632404999807477,False,19,-1,1,12
Y2-S2-109K20,7,659,PS,exp,40,←,left,←,0.5889995000325143,True,20,-1,0,12
Y2-S2-109K20,7,660,PS,exp,50,→,right,→,0.7531687999144197,True,20,-1,0,12
Y2-S2-109K20,7,661,PS,exp,29,←,right,→,0.9959029997698963,False,20,-1,0,12
Y2-S2-109K20,7,662,PS,exp,34,↓,up,↑,1.4135396000929177,False,21,-1,0,12
Y2-S2-109K20,7,663,PS,exp,32,↑,no_key,no_letter,-1.0,False,22,-1,0,12
Y2-S2-109K20,7,664,PS,exp,45,→,no_key,no_letter,-1.0,False,23,-1,0,12
Y2-S2-109K20,7,665,PS,exp,37,↑,up,↑,0.6337099000811577,True,24,-1,0,12
Y2-S2-109K20,7,666,PS,exp,35,←,left,←,0.5800123000517488,True,24,-1,0,12
Y2-S2-109K20,7,667,PS,exp,49,↓,down,↓,0.7291227001696825,True,24,1,1,13
Y2-S2-109K20,7,668,PS,exp,44,←,right,→,0.883661599829793,False,23,-1,1,14
Y2-S2-109K20,7,669,PS,exp,42,→,right,→,0.6946165999397635,True,24,-1,0,14
Y2-S2-109K20,7,670,PS,exp,45,↑,up,↑,0.8819919000379741,True,24,-1,0,14
Y2-S2-109K20,7,671,PS,exp,38,↓,down,↓,0.5828602998517454,True,24,1,1,15
Y2-S2-109K20,7,672,PS,exp,36,←,left,←,0.5700513999909163,True,23,1,0,15
Y2-S2-109K20,7,673,PS,exp,29,↑,up,↑,0.8110730000771582,True,23,1,0,15
Y2-S2-109K20,7,674,PS,exp,27,←,left,←,0.7831107997335494,True,23,1,0,15
Y2-S2-109K20,7,675,PS,exp,39,↓,down,↓,0.635398400016129,True,22,1,0,15
Y2-S2-109K20,7,676,PS,exp,44,←,left,←,0.6759154996834695,True,22,1,0,15
Y2-S2-109K20,7,677,PS,exp,27,→,right,→,0.6325479000806808,True,22,1,0,15
Y2-S2-109K20,7,678,PS,exp,40,↑,up,↑,1.0109668001532555,True,21,1,0,15
Y2-S2-109K20,7,679,PS,exp,46,←,no_key,no_letter,-1.0,False,21,-1,1,16
Y2-S2-109K20,8,680,AS,intra_train,28,→,right,→,1.3956410000100732,True,30,-,-,-
Y2-S2-109K20,8,681,AS,intra_train,28,↓,down,↓,0.8558517000637949,True,30,-,-,-
Y2-S2-109K20,8,682,AS,intra_train,26,↑,up,↑,0.8422567998059094,True,30,-,-,-
Y2-S2-109K20,8,683,AS,intra_train,44,←,left,←,0.4341933000832796,True,30,-,-,-
Y2-S2-109K20,8,684,AS,intra_train,36,→,right,→,0.5336573999375105,True,30,-,-,-
Y2-S2-109K20,8,685,AS,exp,46,↓,down,↓,0.46707479981705546,True,20,0,0,0
Y2-S2-109K20,8,686,AS,exp,34,→,right,→,0.7722340002655983,True,20,0,0,0
Y2-S2-109K20,8,687,AS,exp,31,↓,right,→,1.989060599822551,False,20,-1,0,0
Y2-S2-109K20,8,688,AS,exp,29,→,right,→,0.5911624999716878,True,21,-1,0,0
Y2-S2-109K20,8,689,AS,exp,41,←,right,→,0.7116302000358701,False,21,-1,0,0
Y2-S2-109K20,8,690,AS,exp,45,↑,down,↓,0.7028325996361673,False,22,-1,0,0
Y2-S2-109K20,8,691,AS,exp,36,→,right,→,1.0055310996249318,True,23,-1,0,0
Y2-S2-109K20,8,692,AS,exp,47,↑,up,↑,0.5624268003739417,True,23,-1,0,0
Y2-S2-109K20,8,693,AS,exp,47,←,left,←,0.9106634999625385,True,23,1,1,1
Y2-S2-109K20,8,694,AS,exp,46,→,left,←,0.8712867996655405,False,22,-1,1,2
Y2-S2-109K20,8,695,AS,exp,41,←,left,←,0.6894670003093779,True,23,-1,0,2
Y2-S2-109K20,8,696,AS,exp,48,↑,up,↑,0.5715817003510892,True,23,-1,0,2
Y2-S2-109K20,8,697,AS,exp,34,↓,down,↓,1.0549762998707592,True,23,1,1,3
Y2-S2-109K20,8,698,AS,exp,37,↑,up,↑,0.6172970999032259,True,22,1,0,3
Y2-S2-109K20,8,699,AS,exp,41,↓,down,↓,0.8732432001270354,True,22,1,0,3
Y2-S2-109K20,8,700,AS,exp,32,←,left,←,0.9326169001869857,True,22,1,0,3
Y2-S2-109K20,8,701,AS,exp,46,↓,down,↓,1.0205004997551441,True,21,1,0,3
Y2-S2-109K20,8,702,AS,exp,31,↑,up,↑,0.5956286997534335,True,21,1,0,3
Y2-S2-109K20,8,703,AS,exp,33,←,left,←,0.8119807997718453,True,21,1,0,3
Y2-S2-109K20,8,704,AS,exp,41,↓,down,↓,0.8268847996369004,True,20,1,0,3
Y2-S2-109K20,8,705,AS,exp,41,←,left,←,0.5470815999433398,True,20,1,0,3
Y2-S2-109K20,8,706,AS,exp,36,↓,down,↓,0.7370819002389908,True,20,1,0,3
Y2-S2-109K20,8,707,AS,exp,39,→,right,→,0.8306177998892963,True,19,1,0,3
Y2-S2-109K20,8,708,AS,exp,32,←,left,←,0.8109468999318779,True,19,1,0,3
Y2-S2-109K20,8,709,AS,exp,27,↑,up,↑,0.9352588001638651,True,19,1,0,3
Y2-S2-109K20,8,710,AS,exp,35,↓,down,↓,0.8226824998855591,True,18,1,0,3
Y2-S2-109K20,8,711,AS,exp,39,←,right,→,0.9449184001423419,False,18,-1,1,4
Y2-S2-109K20,8,712,AS,exp,36,↑,down,↓,1.006899300031364,False,19,-1,0,4
Y2-S2-109K20,8,713,AS,exp,39,↓,right,→,1.0410533999092877,False,20,-1,0,4
Y2-S2-109K20,8,714,AS,exp,48,→,right,→,0.9463591002859175,True,21,-1,0,4
Y2-S2-109K20,8,715,AS,exp,38,↑,right,→,0.889357500243932,False,21,-1,0,4
Y2-S2-109K20,8,716,AS,exp,34,→,left,←,0.9072789000347257,False,22,-1,0,4
Y2-S2-109K20,8,717,AS,exp,32,↑,up,↑,0.886529800016433,True,23,-1,0,4
Y2-S2-109K20,8,718,AS,exp,40,→,left,←,1.324264199938625,False,23,-1,0,4
Y2-S2-109K20,8,719,AS,exp,42,↓,down,↓,0.850600500125438,True,24,-1,0,4
Y2-S2-109K20,8,720,AS,exp,36,→,right,→,0.6528036999516189,True,24,-1,0,4
Y2-S2-109K20,8,721,AS,exp,38,↑,down,↓,0.578887399751693,False,24,-1,0,4
Y2-S2-109K20,8,722,AS,exp,29,↓,down,↓,0.8564985999837518,True,25,-1,0,4
Y2-S2-109K20,8,723,AS,exp,41,←,left,←,0.6263588997535408,True,25,-1,0,4
Y2-S2-109K20,8,724,AS,exp,40,↑,up,↑,0.5906613999977708,True,25,1,1,5
Y2-S2-109K20,8,725,AS,exp,50,←,left,←,0.5173265999183059,True,24,1,0,5
Y2-S2-109K20,8,726,AS,exp,41,↑,up,↑,0.5687742000445724,True,24,1,0,5
Y2-S2-109K20,8,727,AS,exp,45,↓,down,↓,0.5904482998885214,True,24,1,0,5
Y2-S2-109K20,8,728,AS,exp,40,→,right,→,1.5524238999933004,True,23,1,0,5
Y2-S2-109K20,8,729,AS,exp,28,←,left,←,0.5568775003775954,True,23,1,0,5
Y2-S2-109K20,8,730,AS,exp,29,→,right,→,0.45124909980222583,True,23,1,0,5
Y2-S2-109K20,8,731,AS,exp,50,↑,right,→,1.036671499721706,False,22,-1,1,6
Y2-S2-109K20,8,732,AS,exp,47,←,left,←,0.758814699947834,True,23,-1,0,6
Y2-S2-109K20,8,733,AS,exp,40,↓,down,↓,1.0537204998545349,True,23,-1,0,6
Y2-S2-109K20,8,734,AS,exp,28,←,left,←,0.5922090001404285,True,23,1,1,7
Y2-S2-109K20,8,735,AS,exp,41,↑,up,↑,1.0526854996569455,True,22,1,0,7
Y2-S2-109K20,8,736,AS,exp,26,↓,left,←,0.6668418003246188,False,22,-1,1,8
Y2-S2-109K20,8,737,AS,exp,33,←,left,←,0.5173431001603603,True,23,-1,0,8
Y2-S2-109K20,8,738,AS,exp,37,↓,down,↓,0.3843221999704838,True,23,-1,0,8
Y2-S2-109K20,8,739,AS,exp,49,→,no_key,no_letter,-1.0,False,23,-1,0,8
Y2-S2-109K20,8,740,AS,exp,36,↓,down,↓,0.46734789991751313,True,24,-1,0,8
Y2-S2-109K20,8,741,AS,exp,46,→,right,→,0.7529112999327481,True,24,-1,0,8
Y2-S2-109K20,8,742,AS,exp,50,↓,down,↓,0.6275269999168813,True,24,1,1,9
Y2-S2-109K20,8,743,AS,exp,48,→,no_key,no_letter,-1.0,False,23,-1,1,10
Y2-S2-109K20,8,744,AS,exp,25,↑,right,→,0.5687910001724958,False,24,-1,0,10
Y2-S2-109K20,8,745,AS,exp,46,→,right,→,1.012468199711293,True,25,-1,0,10
Y2-S2-109K20,8,746,AS,exp,49,↓,down,↓,0.7259678998962045,True,25,-1,0,10
Y2-S2-109K20,8,747,AS,exp,44,→,right,→,0.5342954997904599,True,25,1,1,11
Y2-S2-109K20,8,748,AS,exp,28,↑,up,↑,0.763368200045079,True,24,1,0,11
Y2-S2-109K20,8,749,AS,exp,40,↓,up,↑,0.9530421001836658,False,24,-1,1,12
Y2-S2-109K20,8,750,AS,exp,41,↑,up,↑,0.6151291998103261,True,25,-1,0,12
Y2-S2-109K20,8,751,AS,exp,47,→,right,→,0.8330635000020266,True,25,-1,0,12
Y2-S2-109K20,8,752,AS,exp,42,←,left,←,0.7626376999542117,True,25,1,1,13
Y2-S2-109K20,8,753,AS,exp,25,↑,up,↑,1.094195299781859,True,24,1,0,13
Y2-S2-109K20,8,754,AS,exp,29,→,right,→,0.8589159999974072,True,24,1,0,13
Y2-S2-109K20,8,755,AS,exp,37,←,left,←,0.7192220999859273,True,24,1,0,13
Y2-S2-109K20,8,756,AS,exp,45,→,right,→,1.3096536002121866,True,23,1,0,13
Y2-S2-109K20,8,757,AS,exp,38,↓,down,↓,0.9177477997727692,True,23,1,0,13
Y2-S2-109K20,8,758,AS,exp,32,→,right,→,0.5171091998927295,True,23,1,0,13
Y2-S2-109K20,8,759,AS,exp,27,←,left,←,0.8172424999065697,True,22,1,0,13
Y2-S2-109K20,8,760,AS,exp,34,→,right,→,0.8585149003192782,True,22,1,0,13
Y2-S2-109K20,8,761,AS,exp,25,↑,right,→,1.0066060000099242,False,22,-1,1,14
Y2-S2-109K20,8,762,AS,exp,42,↓,down,↓,1.2820417997427285,True,23,-1,0,14
Y2-S2-109K20,8,763,AS,exp,48,↑,up,↑,0.5743307000957429,True,23,-1,0,14
Y2-S2-109K20,8,764,AS,exp,30,→,right,→,1.0599798001348972,True,23,1,1,15
Y2-S2-109K20,8,765,AS,exp,49,↑,up,↑,0.5737583003938198,True,22,1,0,15
Y2-S2-109K20,8,766,AS,exp,48,→,right,→,0.5370586002245545,True,22,1,0,15
Y2-S2-109K20,8,767,AS,exp,42,↑,up,↑,0.9619338996708393,True,22,1,0,15
Y2-S2-109K20,8,768,AS,exp,48,↓,down,↓,0.4338302002288401,True,21,1,0,15
Y2-S2-109K20,8,769,AS,exp,38,←,left,←,0.46731700003147125,True,21,1,0,15
Y2-S2-109K20,8,770,AS,exp,28,→,left,←,1.1492886999621987,False,21,-1,1,16
