PART_ID,Block_no,Trial_no,Block_type,Trial_type,CSI,Stim_letter,Key_pressed,letter_choose,Rt,Corr,Stimulus Time,Level,Reversal,Revs_count
Y2-S2-102M22,1,1,PS,train,38,↑,right,→,0.8613367001526058,False,30,-,-,-
Y2-S2-102M22,1,2,PS,train,26,←,left,←,0.9843172002583742,True,30,-,-,-
Y2-S2-102M22,1,3,PS,train,27,→,right,→,0.8664246001280844,True,30,-,-,-
Y2-S2-102M22,1,4,PS,train,27,←,left,←,0.6174546000547707,True,30,-,-,-
Y2-S2-102M22,1,5,PS,train,37,↑,up,↑,0.7506185001693666,True,30,-,-,-
Y2-S2-102M22,1,6,PS,train,47,↓,down,↓,0.6962520000524819,True,30,-,-,-
Y2-S2-102M22,1,7,PS,train,40,←,left,←,0.6172120999544859,True,30,-,-,-
Y2-S2-102M22,1,8,PS,train,28,↑,up,↑,0.5508433999493718,True,30,-,-,-
Y2-S2-102M22,1,9,PS,train,28,←,left,←,0.48385580023750663,True,30,-,-,-
Y2-S2-102M22,1,10,PS,train,40,↓,down,↓,0.7070574001409113,True,30,-,-,-
Y2-S2-102M22,2,11,AS,train,40,←,left,←,0.5343443998135626,True,45,-,-,-
Y2-S2-102M22,2,12,AS,train,30,↓,down,↓,0.6174957002513111,True,45,-,-,-
Y2-S2-102M22,2,13,AS,train,40,←,left,←,0.7504378999583423,True,45,-,-,-
Y2-S2-102M22,2,14,AS,train,31,→,right,→,0.684829100035131,True,45,-,-,-
Y2-S2-102M22,2,15,AS,train,26,↓,down,↓,0.567879700101912,True,45,-,-,-
Y2-S2-102M22,2,16,AS,train,33,→,right,→,0.5173136000521481,True,45,-,-,-
Y2-S2-102M22,2,17,AS,train,27,←,left,←,0.5178702999837697,True,45,-,-,-
Y2-S2-102M22,2,18,AS,train,40,→,right,→,0.5177973001264036,True,45,-,-,-
Y2-S2-102M22,2,19,AS,train,32,←,left,←,0.5177977001294494,True,45,-,-,-
Y2-S2-102M22,2,20,AS,train,38,↑,up,↑,0.601245999801904,True,45,-,-,-
Y2-S2-102M22,-,21,PS,adaptive,44,↓,down,↓,0.6048779999837279,True,10,0,0,0
Y2-S2-102M22,-,22,PS,adaptive,44,→,right,→,0.9871978000737727,True,10,0,0,0
Y2-S2-102M22,-,23,PS,adaptive,36,←,left,←,0.5111879999749362,True,10,1,0,0
Y2-S2-102M22,-,24,PS,adaptive,46,↑,down,↓,1.526930300053209,False,9,-1,1,1
Y2-S2-102M22,-,25,PS,adaptive,44,↓,down,↓,0.6989452000707388,True,10,-1,0,1
Y2-S2-102M22,-,26,PS,adaptive,42,↑,up,↑,0.5895501999184489,True,10,-1,0,1
Y2-S2-102M22,-,27,PS,adaptive,43,←,left,←,0.5517011000774801,True,10,1,1,2
Y2-S2-102M22,-,28,PS,adaptive,32,↓,up,↑,0.7778847003355622,False,9,-1,1,3
Y2-S2-102M22,-,29,PS,adaptive,47,→,right,→,0.9388195001520216,True,10,-1,0,3
Y2-S2-102M22,-,30,PS,adaptive,42,↑,left,←,1.2787240999750793,False,10,-1,0,3
Y2-S2-102M22,-,31,PS,adaptive,33,→,right,→,0.8402275000698864,True,11,-1,0,3
Y2-S2-102M22,-,32,PS,adaptive,43,←,left,←,0.4015744999051094,True,11,-1,0,3
Y2-S2-102M22,-,33,PS,adaptive,30,↑,up,↑,0.4421236999332905,True,11,1,1,4
Y2-S2-102M22,-,34,AS,adaptive,38,→,right,→,0.5652855997905135,True,20,0,0,0
Y2-S2-102M22,-,35,AS,adaptive,45,↑,up,↑,0.45062110014259815,True,20,0,0,0
Y2-S2-102M22,-,36,AS,adaptive,37,←,left,←,0.5976442000828683,True,20,1,0,0
Y2-S2-102M22,-,37,AS,adaptive,50,↑,right,→,0.9326381999999285,False,19,-1,1,1
Y2-S2-102M22,-,38,AS,adaptive,49,←,left,←,1.3193395002745092,True,20,-1,0,1
Y2-S2-102M22,-,39,AS,adaptive,50,↑,up,↑,0.5786488996818662,True,20,-1,0,1
Y2-S2-102M22,-,40,AS,adaptive,25,←,left,←,0.5244613001123071,True,20,1,1,2
Y2-S2-102M22,-,41,AS,adaptive,35,→,right,→,0.498925999738276,True,19,1,0,2
Y2-S2-102M22,-,42,AS,adaptive,31,↑,up,↑,0.9305942002683878,True,19,1,0,2
Y2-S2-102M22,-,43,AS,adaptive,44,←,left,←,0.7494763000868261,True,19,1,0,2
Y2-S2-102M22,-,44,AS,adaptive,31,↓,down,↓,0.8392266998998821,True,18,1,0,2
Y2-S2-102M22,-,45,AS,adaptive,26,↑,up,↑,0.48513290006667376,True,18,1,0,2
Y2-S2-102M22,-,46,AS,adaptive,47,→,left,←,0.4676350001245737,False,18,-1,1,3
Y2-S2-102M22,-,47,AS,adaptive,45,←,right,→,1.0513949999585748,False,19,-1,0,3
Y2-S2-102M22,-,48,AS,adaptive,26,↑,up,↑,1.1849173000082374,True,20,-1,0,3
Y2-S2-102M22,-,49,AS,adaptive,42,→,right,→,0.7592623000964522,True,20,-1,0,3
Y2-S2-102M22,-,50,AS,adaptive,30,↑,right,→,1.0624933997169137,False,20,-1,0,3
Y2-S2-102M22,-,51,AS,adaptive,39,↓,down,↓,0.5982874003238976,True,21,-1,0,3
Y2-S2-102M22,-,52,AS,adaptive,25,→,right,→,0.9789062002673745,True,21,-1,0,3
Y2-S2-102M22,-,53,AS,adaptive,44,←,left,←,0.5254393997602165,True,21,1,1,4
Y2-S2-102M22,1,54,AS,intra_train,32,→,right,→,0.820486499927938,True,30,-,-,-
Y2-S2-102M22,1,55,AS,intra_train,28,↓,down,↓,0.8790730000473559,True,30,-,-,-
Y2-S2-102M22,1,56,AS,intra_train,27,→,right,→,1.1746843000873923,True,30,-,-,-
Y2-S2-102M22,1,57,AS,intra_train,46,←,left,←,0.48404450016096234,True,30,-,-,-
Y2-S2-102M22,1,58,AS,intra_train,42,↓,down,↓,1.3215949996374547,True,30,-,-,-
Y2-S2-102M22,1,59,AS,exp,39,→,right,→,0.6866291998885572,True,20,0,0,0
Y2-S2-102M22,1,60,AS,exp,43,↓,down,↓,0.7505196002312005,True,20,0,0,0
Y2-S2-102M22,1,61,AS,exp,35,→,right,→,0.6616612998768687,True,20,1,0,0
Y2-S2-102M22,1,62,AS,exp,42,↓,down,↓,1.096313700079918,True,19,1,0,0
Y2-S2-102M22,1,63,AS,exp,28,↑,up,↑,0.5195162002928555,True,19,1,0,0
Y2-S2-102M22,1,64,AS,exp,39,←,left,←,0.4933083998039365,True,19,1,0,0
Y2-S2-102M22,1,65,AS,exp,28,↓,right,→,0.7709384998306632,False,18,-1,1,1
Y2-S2-102M22,1,66,AS,exp,26,↑,up,↑,0.6757888998836279,True,19,-1,0,1
Y2-S2-102M22,1,67,AS,exp,33,↓,down,↓,0.9774949001148343,True,19,-1,0,1
Y2-S2-102M22,1,68,AS,exp,31,→,right,→,0.5568959000520408,True,19,1,1,2
Y2-S2-102M22,1,69,AS,exp,35,←,left,←,0.7620405000634491,True,18,1,0,2
Y2-S2-102M22,1,70,AS,exp,36,→,right,→,0.7631637002341449,True,18,1,0,2
Y2-S2-102M22,1,71,AS,exp,40,↑,up,↑,0.6591808996163309,True,18,1,0,2
Y2-S2-102M22,1,72,AS,exp,42,←,right,→,0.8339643003419042,False,17,-1,1,3
Y2-S2-102M22,1,73,AS,exp,49,→,right,→,0.7561735999770463,True,18,-1,0,3
Y2-S2-102M22,1,74,AS,exp,36,↑,up,↑,0.6007110001519322,True,18,-1,0,3
Y2-S2-102M22,1,75,AS,exp,31,←,left,←,0.5890477998182178,True,18,1,1,4
Y2-S2-102M22,1,76,AS,exp,26,↑,left,←,1.0211990997195244,False,17,-1,1,5
Y2-S2-102M22,1,77,AS,exp,45,→,right,→,0.7041827999055386,True,18,-1,0,5
Y2-S2-102M22,1,78,AS,exp,39,←,right,→,0.9664826998487115,False,18,-1,0,5
Y2-S2-102M22,1,79,AS,exp,40,↑,up,↑,0.5225824997760355,True,19,-1,0,5
Y2-S2-102M22,1,80,AS,exp,40,←,left,←,0.5245989998802543,True,19,-1,0,5
Y2-S2-102M22,1,81,AS,exp,49,↑,right,→,0.4006167999468744,False,19,-1,0,5
Y2-S2-102M22,1,82,AS,exp,35,→,right,→,0.5133336000144482,True,20,-1,0,5
Y2-S2-102M22,1,83,AS,exp,35,↑,left,←,1.0992958997376263,False,20,-1,0,5
Y2-S2-102M22,1,84,AS,exp,43,↓,down,↓,0.7333991997875273,True,21,-1,0,5
Y2-S2-102M22,1,85,AS,exp,41,↑,up,↑,0.531390099786222,True,21,-1,0,5
Y2-S2-102M22,1,86,AS,exp,34,↓,down,↓,0.768077100161463,True,21,1,1,6
Y2-S2-102M22,1,87,AS,exp,47,↑,up,↑,0.6497356002219021,True,20,1,0,6
Y2-S2-102M22,1,88,AS,exp,44,↓,up,↑,1.0581648000515997,False,20,-1,1,7
Y2-S2-102M22,1,89,AS,exp,29,←,right,→,0.8879255997017026,False,21,-1,0,7
Y2-S2-102M22,1,90,AS,exp,41,↑,up,↑,0.8385127000510693,True,22,-1,0,7
Y2-S2-102M22,1,91,AS,exp,36,←,right,→,0.968705200124532,False,22,-1,0,7
Y2-S2-102M22,1,92,AS,exp,35,↑,up,↑,0.5168980001471937,True,23,-1,0,7
Y2-S2-102M22,1,93,AS,exp,37,↓,down,↓,0.7395854997448623,True,23,-1,0,7
Y2-S2-102M22,1,94,AS,exp,30,→,right,→,0.55157700041309,True,23,1,1,8
Y2-S2-102M22,1,95,AS,exp,36,↑,up,↑,0.5457947002723813,True,22,1,0,8
Y2-S2-102M22,1,96,AS,exp,33,←,left,←,1.162779400125146,True,22,1,0,8
Y2-S2-102M22,1,97,AS,exp,48,↑,up,↑,0.6362268999218941,True,22,1,0,8
Y2-S2-102M22,1,98,AS,exp,41,→,right,→,0.6031567002646625,True,21,1,0,8
Y2-S2-102M22,1,99,AS,exp,35,←,left,←,0.5444072997197509,True,21,1,0,8
Y2-S2-102M22,1,100,AS,exp,28,→,right,→,0.6357685001567006,True,21,1,0,8
Y2-S2-102M22,1,101,AS,exp,35,←,right,→,0.9581107003614306,False,20,-1,1,9
Y2-S2-102M22,1,102,AS,exp,46,↓,down,↓,0.5381424003280699,True,21,-1,0,9
Y2-S2-102M22,1,103,AS,exp,36,→,right,→,0.8072684998624027,True,21,-1,0,9
Y2-S2-102M22,1,104,AS,exp,44,↑,up,↑,0.72660499997437,True,21,1,1,10
Y2-S2-102M22,1,105,AS,exp,35,←,right,→,0.8910270999185741,False,20,-1,1,11
Y2-S2-102M22,1,106,AS,exp,35,↓,down,↓,0.7543198000639677,True,21,-1,0,11
Y2-S2-102M22,1,107,AS,exp,28,←,left,←,0.6680952999740839,True,21,-1,0,11
Y2-S2-102M22,1,108,AS,exp,45,↑,up,↑,0.676522399764508,True,21,1,1,12
Y2-S2-102M22,1,109,AS,exp,43,←,right,→,0.5679115001112223,False,20,-1,1,13
Y2-S2-102M22,1,110,AS,exp,32,↑,up,↑,0.5429479996673763,True,21,-1,0,13
Y2-S2-102M22,1,111,AS,exp,40,↓,down,↓,0.627381400205195,True,21,-1,0,13
Y2-S2-102M22,1,112,AS,exp,35,→,right,→,0.7614226001314819,True,21,1,1,14
Y2-S2-102M22,1,113,AS,exp,33,←,left,←,0.5960497003979981,True,20,1,0,14
Y2-S2-102M22,1,114,AS,exp,33,↑,up,↑,0.8217303999699652,True,20,1,0,14
Y2-S2-102M22,1,115,AS,exp,28,↓,up,↑,0.9333684998564422,False,20,-1,1,15
Y2-S2-102M22,1,116,AS,exp,49,↑,up,↑,1.1434576003812253,True,21,-1,0,15
Y2-S2-102M22,1,117,AS,exp,28,←,left,←,0.8067736001685262,True,21,-1,0,15
Y2-S2-102M22,1,118,AS,exp,41,↑,up,↑,0.6666614999994636,True,21,1,1,16
Y2-S2-102M22,2,119,PS,intra_train,37,→,left,←,1.462376399897039,False,15,-,-,-
Y2-S2-102M22,2,120,PS,intra_train,43,←,left,←,0.614297800231725,True,15,-,-,-
Y2-S2-102M22,2,121,PS,intra_train,37,→,right,→,0.5383476000279188,True,15,-,-,-
Y2-S2-102M22,2,122,PS,intra_train,43,↓,down,↓,0.766130399890244,True,15,-,-,-
Y2-S2-102M22,2,123,PS,intra_train,28,↑,right,→,0.7821700000204146,False,15,-,-,-
Y2-S2-102M22,2,124,PS,exp,25,←,left,←,0.612631400115788,True,10,0,0,0
Y2-S2-102M22,2,125,PS,exp,30,→,left,←,0.9687231001444161,False,10,-1,0,0
Y2-S2-102M22,2,126,PS,exp,36,↓,down,↓,0.6661580000072718,True,11,-1,0,0
Y2-S2-102M22,2,127,PS,exp,36,←,left,←,0.7578848996199667,True,11,-1,0,0
Y2-S2-102M22,2,128,PS,exp,31,→,right,→,1.3507837001234293,True,11,1,1,1
Y2-S2-102M22,2,129,PS,exp,33,←,left,←,0.6354527999646962,True,10,1,0,1
Y2-S2-102M22,2,130,PS,exp,45,↑,up,↑,0.586256300099194,True,10,1,0,1
Y2-S2-102M22,2,131,PS,exp,32,→,right,→,0.7351003000512719,True,10,1,0,1
Y2-S2-102M22,2,132,PS,exp,49,←,right,→,0.621994299814105,False,9,-1,1,2
Y2-S2-102M22,2,133,PS,exp,45,↑,up,↑,0.6372760999947786,True,10,-1,0,2
Y2-S2-102M22,2,134,PS,exp,49,→,right,→,0.9680380001664162,True,10,-1,0,2
Y2-S2-102M22,2,135,PS,exp,44,↑,up,↑,0.6077775000594556,True,10,1,1,3
Y2-S2-102M22,2,136,PS,exp,45,→,right,→,0.49404990021139383,True,9,1,0,3
Y2-S2-102M22,2,137,PS,exp,28,←,right,→,0.7344632004387677,False,9,-1,1,4
Y2-S2-102M22,2,138,PS,exp,38,↓,up,↑,0.7697189999744296,False,10,-1,0,4
Y2-S2-102M22,2,139,PS,exp,29,→,up,↑,0.7499732999131083,False,11,-1,0,4
Y2-S2-102M22,2,140,PS,exp,31,←,left,←,0.8979202001355588,True,12,-1,0,4
Y2-S2-102M22,2,141,PS,exp,44,↓,down,↓,0.7262343000620604,True,12,-1,0,4
Y2-S2-102M22,2,142,PS,exp,37,←,left,←,0.5323352999985218,True,12,1,1,5
Y2-S2-102M22,2,143,PS,exp,32,→,left,←,1.0003487998619676,False,11,-1,1,6
Y2-S2-102M22,2,144,PS,exp,50,←,left,←,0.49577159993350506,True,12,-1,0,6
Y2-S2-102M22,2,145,PS,exp,28,→,right,→,0.619066399987787,True,12,-1,0,6
Y2-S2-102M22,2,146,PS,exp,27,↑,up,↑,0.6826802999712527,True,12,1,1,7
Y2-S2-102M22,2,147,PS,exp,32,↓,right,→,0.929558000061661,False,11,-1,1,8
Y2-S2-102M22,2,148,PS,exp,32,←,right,→,0.9787654997780919,False,12,-1,0,8
Y2-S2-102M22,2,149,PS,exp,43,↑,up,↑,0.5884338999167085,True,13,-1,0,8
Y2-S2-102M22,2,150,PS,exp,32,↓,down,↓,0.6485693999566138,True,13,-1,0,8
Y2-S2-102M22,2,151,PS,exp,25,↑,up,↑,0.667661199811846,True,13,1,1,9
Y2-S2-102M22,2,152,PS,exp,43,→,right,→,0.5425807000137866,True,12,1,0,9
Y2-S2-102M22,2,153,PS,exp,34,↓,down,↓,0.593465100042522,True,12,1,0,9
Y2-S2-102M22,2,154,PS,exp,31,↑,up,↑,0.462196399923414,True,12,1,0,9
Y2-S2-102M22,2,155,PS,exp,36,→,right,→,0.49988549994304776,True,11,1,0,9
Y2-S2-102M22,2,156,PS,exp,44,↓,down,↓,0.6331989001482725,True,11,1,0,9
Y2-S2-102M22,2,157,PS,exp,38,←,right,→,0.6355355000123382,False,11,-1,1,10
Y2-S2-102M22,2,158,PS,exp,43,↑,up,↑,0.6055145999416709,True,12,-1,0,10
Y2-S2-102M22,2,159,PS,exp,33,↓,down,↓,0.7259965999983251,True,12,-1,0,10
Y2-S2-102M22,2,160,PS,exp,27,←,left,←,0.5688415998592973,True,12,1,1,11
Y2-S2-102M22,2,161,PS,exp,35,→,right,→,0.8308854000642896,True,11,1,0,11
Y2-S2-102M22,2,162,PS,exp,45,↓,down,↓,0.6762386001646519,True,11,1,0,11
Y2-S2-102M22,2,163,PS,exp,48,↑,up,↑,0.7224202998913825,True,11,1,0,11
Y2-S2-102M22,2,164,PS,exp,46,↓,down,↓,0.6897509000264108,True,10,1,0,11
Y2-S2-102M22,2,165,PS,exp,34,←,left,←,0.4707100000232458,True,10,1,0,11
Y2-S2-102M22,2,166,PS,exp,37,→,right,→,0.537382600363344,True,10,1,0,11
Y2-S2-102M22,2,167,PS,exp,25,←,left,←,0.6162291001528502,True,9,1,0,11
Y2-S2-102M22,2,168,PS,exp,48,↑,up,↑,0.5377642996609211,True,9,1,0,11
Y2-S2-102M22,2,169,PS,exp,28,↓,down,↓,1.04432040033862,True,9,1,0,11
Y2-S2-102M22,2,170,PS,exp,48,↑,up,↑,0.5118074002675712,True,8,1,0,11
Y2-S2-102M22,2,171,PS,exp,33,↓,down,↓,1.0603640000335872,True,8,1,0,11
Y2-S2-102M22,2,172,PS,exp,29,←,right,→,0.8166179000400007,False,8,-1,1,12
Y2-S2-102M22,2,173,PS,exp,32,↓,down,↓,0.6490139001980424,True,9,-1,0,12
Y2-S2-102M22,2,174,PS,exp,47,↑,right,→,0.9798499001190066,False,9,-1,0,12
Y2-S2-102M22,2,175,PS,exp,36,←,down,↓,0.8898947997950017,False,10,-1,0,12
Y2-S2-102M22,2,176,PS,exp,32,↓,down,↓,0.8712844997644424,True,11,-1,0,12
Y2-S2-102M22,2,177,PS,exp,36,↑,up,↑,0.6854057000018656,True,11,-1,0,12
Y2-S2-102M22,2,178,PS,exp,38,↓,down,↓,0.7557556997053325,True,11,1,1,13
Y2-S2-102M22,2,179,PS,exp,32,↑,left,←,0.7162072001956403,False,10,-1,1,14
Y2-S2-102M22,2,180,PS,exp,38,→,right,→,0.4952881997451186,True,11,-1,0,14
Y2-S2-102M22,2,181,PS,exp,31,←,left,←,0.5685005998238921,True,11,-1,0,14
Y2-S2-102M22,2,182,PS,exp,26,↓,left,←,0.8899461999535561,False,11,-1,0,14
Y2-S2-102M22,2,183,PS,exp,31,↑,right,→,1.1266064997762442,False,12,-1,0,14
Y2-S2-102M22,2,184,PS,exp,44,→,left,←,0.666537799872458,False,13,-1,0,14
Y2-S2-102M22,2,185,PS,exp,33,↑,up,↑,1.3593484000302851,True,14,-1,0,14
Y2-S2-102M22,2,186,PS,exp,34,←,right,→,1.034693299792707,False,14,-1,0,14
Y2-S2-102M22,2,187,PS,exp,29,→,right,→,0.4801141996867955,True,15,-1,0,14
Y2-S2-102M22,2,188,PS,exp,36,↓,down,↓,0.7115358002483845,True,15,-1,0,14
Y2-S2-102M22,2,189,PS,exp,28,↑,up,↑,0.599454099778086,True,15,1,1,15
Y2-S2-102M22,2,190,PS,exp,48,→,right,→,0.5392262004315853,True,14,1,0,15
Y2-S2-102M22,2,191,PS,exp,38,↓,right,→,0.8009032001718879,False,14,-1,1,16
Y2-S2-102M22,3,192,PS,intra_train,31,↑,up,↑,0.5380295002833009,True,15,-,-,-
Y2-S2-102M22,3,193,PS,intra_train,32,↓,down,↓,0.5815521003678441,True,15,-,-,-
Y2-S2-102M22,3,194,PS,intra_train,49,←,left,←,0.5151362000033259,True,15,-,-,-
Y2-S2-102M22,3,195,PS,intra_train,41,→,right,→,0.46057779993861914,True,15,-,-,-
Y2-S2-102M22,3,196,PS,intra_train,30,↑,up,↑,0.47996720019727945,True,15,-,-,-
Y2-S2-102M22,3,197,PS,exp,35,→,right,→,0.6939082997851074,True,10,0,0,0
Y2-S2-102M22,3,198,PS,exp,39,←,right,→,1.059713600203395,False,10,-1,0,0
Y2-S2-102M22,3,199,PS,exp,38,→,left,←,0.5867670997977257,False,11,-1,0,0
Y2-S2-102M22,3,200,PS,exp,42,↓,down,↓,0.772437599953264,True,12,-1,0,0
Y2-S2-102M22,3,201,PS,exp,45,↑,up,↑,0.8219311996363103,True,12,-1,0,0
Y2-S2-102M22,3,202,PS,exp,44,←,left,←,0.6134852999821305,True,12,1,1,1
Y2-S2-102M22,3,203,PS,exp,31,↓,down,↓,0.8837220999412239,True,11,1,0,1
Y2-S2-102M22,3,204,PS,exp,37,←,left,←,0.7411190997809172,True,11,1,0,1
Y2-S2-102M22,3,205,PS,exp,46,→,right,→,0.5691033001057804,True,11,1,0,1
Y2-S2-102M22,3,206,PS,exp,38,↑,right,→,1.0515103000216186,False,10,-1,1,2
Y2-S2-102M22,3,207,PS,exp,39,←,left,←,0.5359839997254312,True,11,-1,0,2
Y2-S2-102M22,3,208,PS,exp,39,↑,up,↑,0.5854015001095831,True,11,-1,0,2
Y2-S2-102M22,3,209,PS,exp,28,→,right,→,0.4089186997152865,True,11,1,1,3
Y2-S2-102M22,3,210,PS,exp,43,↓,left,←,1.3880807999521494,False,10,-1,1,4
Y2-S2-102M22,3,211,PS,exp,34,→,left,←,0.5643207998946309,False,11,-1,0,4
Y2-S2-102M22,3,212,PS,exp,28,↑,up,↑,0.5772220999933779,True,12,-1,0,4
Y2-S2-102M22,3,213,PS,exp,34,→,right,→,0.4083110000938177,True,12,-1,0,4
Y2-S2-102M22,3,214,PS,exp,28,←,left,←,0.6720072999596596,True,12,1,1,5
Y2-S2-102M22,3,215,PS,exp,49,→,left,←,0.6190593000501394,False,11,-1,1,6
Y2-S2-102M22,3,216,PS,exp,30,↓,down,↓,0.9333965997211635,True,12,-1,0,6
Y2-S2-102M22,3,217,PS,exp,40,←,left,←,0.5922836000099778,True,12,-1,0,6
Y2-S2-102M22,3,218,PS,exp,48,→,right,→,0.5644646002911031,True,12,1,1,7
Y2-S2-102M22,3,219,PS,exp,45,↑,up,↑,0.5016185999847949,True,11,1,0,7
Y2-S2-102M22,3,220,PS,exp,37,→,right,→,0.4605624000541866,True,11,1,0,7
Y2-S2-102M22,3,221,PS,exp,40,←,right,→,0.7148064998909831,False,11,-1,1,8
Y2-S2-102M22,3,222,PS,exp,35,↓,down,↓,0.5953805996105075,True,12,-1,0,8
Y2-S2-102M22,3,223,PS,exp,44,→,right,→,0.45006659999489784,True,12,-1,0,8
Y2-S2-102M22,3,224,PS,exp,37,↑,up,↑,0.9007573998533189,True,12,1,1,9
Y2-S2-102M22,3,225,PS,exp,49,←,left,←,0.5584962000139058,True,11,1,0,9
Y2-S2-102M22,3,226,PS,exp,48,↑,up,↑,0.4972100001759827,True,11,1,0,9
Y2-S2-102M22,3,227,PS,exp,38,↓,down,↓,0.9687268999405205,True,11,1,0,9
Y2-S2-102M22,3,228,PS,exp,45,→,right,→,0.9215501002036035,True,10,1,0,9
Y2-S2-102M22,3,229,PS,exp,35,←,left,←,1.3422421999275684,True,10,1,0,9
Y2-S2-102M22,3,230,PS,exp,37,→,right,→,0.7952346997335553,True,10,1,0,9
Y2-S2-102M22,3,231,PS,exp,43,↑,down,↓,1.02255650004372,False,9,-1,1,10
Y2-S2-102M22,3,232,PS,exp,43,→,right,→,0.8534697000868618,True,10,-1,0,10
Y2-S2-102M22,3,233,PS,exp,49,↑,up,↑,0.5692242002114654,True,10,-1,0,10
Y2-S2-102M22,3,234,PS,exp,49,→,up,↑,1.1910703000612557,False,10,-1,0,10
Y2-S2-102M22,3,235,PS,exp,49,↑,left,←,0.7904435996897519,False,11,-1,0,10
Y2-S2-102M22,3,236,PS,exp,34,←,left,←,0.6411254000850022,True,12,-1,0,10
Y2-S2-102M22,3,237,PS,exp,37,↓,down,↓,0.7522903997451067,True,12,-1,0,10
Y2-S2-102M22,3,238,PS,exp,48,↑,down,↓,0.786590900272131,False,12,-1,0,10
Y2-S2-102M22,3,239,PS,exp,27,←,left,←,0.7182503999210894,True,13,-1,0,10
Y2-S2-102M22,3,240,PS,exp,49,↓,down,↓,0.5623155999928713,True,13,-1,0,10
Y2-S2-102M22,3,241,PS,exp,40,↑,up,↑,0.7127686999738216,True,13,1,1,11
Y2-S2-102M22,3,242,PS,exp,45,←,left,←,0.616635899990797,True,12,1,0,11
Y2-S2-102M22,3,243,PS,exp,34,→,right,→,0.8117921999655664,True,12,1,0,11
Y2-S2-102M22,3,244,PS,exp,28,↑,up,↑,0.5659779002889991,True,12,1,0,11
Y2-S2-102M22,3,245,PS,exp,29,↓,left,←,1.3134193001314998,False,11,-1,1,12
Y2-S2-102M22,3,246,PS,exp,33,←,right,→,0.6030143001116812,False,12,-1,0,12
Y2-S2-102M22,3,247,PS,exp,36,→,up,↑,0.10124759981408715,False,13,-1,0,12
Y2-S2-102M22,3,248,PS,exp,32,←,left,←,1.0703568998724222,True,14,-1,0,12
Y2-S2-102M22,3,249,PS,exp,42,↓,down,↓,0.6326047000475228,True,14,-1,0,12
Y2-S2-102M22,3,250,PS,exp,42,←,left,←,0.5479562999680638,True,14,1,1,13
Y2-S2-102M22,3,251,PS,exp,25,→,right,→,0.6066172998398542,True,13,1,0,13
Y2-S2-102M22,3,252,PS,exp,27,←,right,→,1.0080095999874175,False,13,-1,1,14
Y2-S2-102M22,3,253,PS,exp,33,→,left,←,0.777010700199753,False,14,-1,0,14
Y2-S2-102M22,3,254,PS,exp,44,←,no_key,no_letter,-1.0,False,15,-1,0,14
Y2-S2-102M22,3,255,PS,exp,35,→,right,→,0.5019106999970973,True,16,-1,0,14
Y2-S2-102M22,3,256,PS,exp,35,←,left,←,0.7498379000462592,True,16,-1,0,14
Y2-S2-102M22,3,257,PS,exp,33,↓,down,↓,0.5960805998183787,True,16,1,1,15
Y2-S2-102M22,3,258,PS,exp,33,↑,down,↓,1.223601599689573,False,15,-1,1,16
Y2-S2-102M22,4,259,AS,intra_train,28,→,right,→,0.5343051999807358,True,30,-,-,-
Y2-S2-102M22,4,260,AS,intra_train,25,↑,up,↑,0.634056200273335,True,30,-,-,-
Y2-S2-102M22,4,261,AS,intra_train,43,→,right,→,0.7656681002117693,True,30,-,-,-
Y2-S2-102M22,4,262,AS,intra_train,26,←,left,←,0.682791500352323,True,30,-,-,-
Y2-S2-102M22,4,263,AS,intra_train,39,↓,down,↓,0.6007503997534513,True,30,-,-,-
Y2-S2-102M22,4,264,AS,exp,33,→,right,→,0.9639082001522183,True,20,0,0,0
Y2-S2-102M22,4,265,AS,exp,45,←,no_key,no_letter,-1.0,False,20,-1,0,0
Y2-S2-102M22,4,266,AS,exp,30,↑,up,↑,0.7678890000097454,True,21,-1,0,0
Y2-S2-102M22,4,267,AS,exp,48,←,left,←,0.5319269001483917,True,21,-1,0,0
Y2-S2-102M22,4,268,AS,exp,39,↑,up,↑,0.5421535996720195,True,21,1,1,1
Y2-S2-102M22,4,269,AS,exp,48,→,right,→,1.6623015999794006,True,20,1,0,1
Y2-S2-102M22,4,270,AS,exp,31,↑,up,↑,1.3662129999138415,True,20,1,0,1
Y2-S2-102M22,4,271,AS,exp,47,→,right,→,1.3874991000629961,True,20,1,0,1
Y2-S2-102M22,4,272,AS,exp,33,↓,up,↑,0.6740012001246214,False,19,-1,1,2
Y2-S2-102M22,4,273,AS,exp,28,↑,up,↑,0.8673458001576364,True,20,-1,0,2
Y2-S2-102M22,4,274,AS,exp,41,→,right,→,0.8691414003260434,True,20,-1,0,2
Y2-S2-102M22,4,275,AS,exp,29,↑,up,↑,0.569352800026536,True,20,1,1,3
Y2-S2-102M22,4,276,AS,exp,39,←,right,→,0.8259185999631882,False,19,-1,1,4
Y2-S2-102M22,4,277,AS,exp,31,→,right,→,1.058477200102061,True,20,-1,0,4
Y2-S2-102M22,4,278,AS,exp,40,↓,down,↓,0.8674852000549436,True,20,-1,0,4
Y2-S2-102M22,4,279,AS,exp,39,↑,up,↑,0.726356000173837,True,20,1,1,5
Y2-S2-102M22,4,280,AS,exp,43,←,left,←,0.6735384999774396,True,19,1,0,5
Y2-S2-102M22,4,281,AS,exp,38,↓,down,↓,0.6045448002405465,True,19,1,0,5
Y2-S2-102M22,4,282,AS,exp,30,→,right,→,0.7721237000077963,True,19,1,0,5
Y2-S2-102M22,4,283,AS,exp,35,↑,up,↑,0.7182052000425756,True,18,1,0,5
Y2-S2-102M22,4,284,AS,exp,25,↓,no_key,no_letter,-1.0,False,18,-1,1,6
Y2-S2-102M22,4,285,AS,exp,25,↑,up,↑,0.6550400000996888,True,19,-1,0,6
Y2-S2-102M22,4,286,AS,exp,40,→,right,→,1.0828942996449769,True,19,-1,0,6
Y2-S2-102M22,4,287,AS,exp,25,↑,no_key,no_letter,-1.0,False,19,-1,0,6
Y2-S2-102M22,4,288,AS,exp,31,↓,right,→,1.0668852999806404,False,20,-1,0,6
Y2-S2-102M22,4,289,AS,exp,46,←,down,↓,0.8766020000912249,False,21,-1,0,6
Y2-S2-102M22,4,290,AS,exp,39,↑,up,↑,0.588688200339675,True,22,-1,0,6
Y2-S2-102M22,4,291,AS,exp,32,←,left,←,0.6295678000897169,True,22,-1,0,6
Y2-S2-102M22,4,292,AS,exp,46,↑,up,↑,0.5006291000172496,True,22,1,1,7
Y2-S2-102M22,4,293,AS,exp,41,←,left,←,0.9133173003792763,True,21,1,0,7
Y2-S2-102M22,4,294,AS,exp,29,↑,up,↑,0.5751072000712156,True,21,1,0,7
Y2-S2-102M22,4,295,AS,exp,32,→,right,→,0.6199076999910176,True,21,1,0,7
Y2-S2-102M22,4,296,AS,exp,27,↓,left,←,1.0232118996791542,False,20,-1,1,8
Y2-S2-102M22,4,297,AS,exp,40,→,right,→,0.5222710003145039,True,21,-1,0,8
Y2-S2-102M22,4,298,AS,exp,42,↓,down,↓,1.5858913999982178,True,21,-1,0,8
Y2-S2-102M22,4,299,AS,exp,26,↑,down,↓,1.8854970000684261,False,21,-1,0,8
Y2-S2-102M22,4,300,AS,exp,50,→,right,→,0.9878475000150502,True,22,-1,0,8
Y2-S2-102M22,4,301,AS,exp,28,↑,up,↑,0.5438505001366138,True,22,-1,0,8
Y2-S2-102M22,4,302,AS,exp,36,→,right,→,0.43391009978950024,True,22,1,1,9
Y2-S2-102M22,4,303,AS,exp,40,←,left,←,1.067332699894905,True,21,1,0,9
Y2-S2-102M22,4,304,AS,exp,50,→,right,→,0.5331875002011657,True,21,1,0,9
Y2-S2-102M22,4,305,AS,exp,46,↑,up,↑,0.5475725997239351,True,21,1,0,9
Y2-S2-102M22,4,306,AS,exp,28,←,right,→,0.6779100000858307,False,20,-1,1,10
Y2-S2-102M22,4,307,AS,exp,31,↓,down,↓,0.5974321002140641,True,21,-1,0,10
Y2-S2-102M22,4,308,AS,exp,39,→,right,→,0.4341192999854684,True,21,-1,0,10
Y2-S2-102M22,4,309,AS,exp,44,↑,up,↑,0.5688586998730898,True,21,1,1,11
Y2-S2-102M22,4,310,AS,exp,43,←,left,←,0.5884950999170542,True,20,1,0,11
Y2-S2-102M22,4,311,AS,exp,47,↑,up,↑,0.4172244998626411,True,20,1,0,11
Y2-S2-102M22,4,312,AS,exp,36,→,right,→,0.5059791998937726,True,20,1,0,11
Y2-S2-102M22,4,313,AS,exp,42,↑,up,↑,0.562667999882251,True,19,1,0,11
Y2-S2-102M22,4,314,AS,exp,44,←,left,←,0.5581430001184344,True,19,1,0,11
Y2-S2-102M22,4,315,AS,exp,42,→,right,→,0.4172600000165403,True,19,1,0,11
Y2-S2-102M22,4,316,AS,exp,44,←,left,←,0.5196147998794913,True,18,1,0,11
Y2-S2-102M22,4,317,AS,exp,26,→,right,→,0.6090040998533368,True,18,1,0,11
Y2-S2-102M22,4,318,AS,exp,47,←,left,←,0.4920326001010835,True,18,1,0,11
Y2-S2-102M22,4,319,AS,exp,50,↑,up,↑,0.4722485998645425,True,17,1,0,11
Y2-S2-102M22,4,320,AS,exp,37,↓,down,↓,0.6984688998199999,True,17,1,0,11
Y2-S2-102M22,4,321,AS,exp,33,↑,up,↑,0.4167406000196934,True,17,1,0,11
Y2-S2-102M22,4,322,AS,exp,40,←,left,←,0.5630167000927031,True,16,1,0,11
Y2-S2-102M22,4,323,AS,exp,45,↓,down,↓,0.5129014002159238,True,16,1,0,11
Y2-S2-102M22,4,324,AS,exp,41,←,left,←,0.4859157996252179,True,16,1,0,11
Y2-S2-102M22,4,325,AS,exp,46,→,right,→,0.4956037998199463,True,15,1,0,11
Y2-S2-102M22,4,326,AS,exp,39,↑,left,←,1.3693872997537255,False,15,-1,1,12
Y2-S2-102M22,4,327,AS,exp,47,→,left,←,0.7859013001434505,False,16,-1,0,12
Y2-S2-102M22,4,328,AS,exp,32,←,left,←,1.2016238998621702,True,17,-1,0,12
Y2-S2-102M22,4,329,AS,exp,43,↑,up,↑,0.6197731997817755,True,17,-1,0,12
Y2-S2-102M22,4,330,AS,exp,49,←,left,←,0.739221700001508,True,17,1,1,13
Y2-S2-102M22,4,331,AS,exp,38,→,left,←,0.8113556001335382,False,16,-1,1,14
Y2-S2-102M22,4,332,AS,exp,37,↓,down,↓,0.7752151000313461,True,17,-1,0,14
Y2-S2-102M22,4,333,AS,exp,42,←,left,←,0.5059441002085805,True,17,-1,0,14
Y2-S2-102M22,4,334,AS,exp,39,→,right,→,1.2188870999962091,True,17,1,1,15
Y2-S2-102M22,4,335,AS,exp,44,←,right,→,0.7761693000793457,False,16,-1,1,16
Y2-S2-102M22,5,336,AS,intra_train,45,↓,down,↓,0.7439840999431908,True,30,-,-,-
Y2-S2-102M22,5,337,AS,intra_train,37,↑,up,↑,0.6006324999034405,True,30,-,-,-
Y2-S2-102M22,5,338,AS,intra_train,27,→,right,→,0.4678112999536097,True,30,-,-,-
Y2-S2-102M22,5,339,AS,intra_train,45,↑,up,↑,0.5172712998464704,True,30,-,-,-
Y2-S2-102M22,5,340,AS,intra_train,50,←,left,←,0.5512397000566125,True,30,-,-,-
Y2-S2-102M22,5,341,AS,exp,39,→,right,→,0.6331491000019014,True,20,0,0,0
Y2-S2-102M22,5,342,AS,exp,42,↑,up,↑,1.334798799827695,True,20,0,0,0
Y2-S2-102M22,5,343,AS,exp,26,←,left,←,0.5187274999916553,True,20,1,0,0
Y2-S2-102M22,5,344,AS,exp,42,→,right,→,0.4167992998845875,True,19,1,0,0
Y2-S2-102M22,5,345,AS,exp,36,←,left,←,0.4503763001412153,True,19,1,0,0
Y2-S2-102M22,5,346,AS,exp,39,→,right,→,0.4336648001335561,True,19,1,0,0
Y2-S2-102M22,5,347,AS,exp,50,↓,down,↓,0.5760499997995794,True,18,1,0,0
Y2-S2-102M22,5,348,AS,exp,33,←,right,→,0.9346892996691167,False,18,-1,1,1
Y2-S2-102M22,5,349,AS,exp,42,↑,up,↑,0.7522340998984873,True,19,-1,0,1
Y2-S2-102M22,5,350,AS,exp,38,→,right,→,0.43386860005557537,True,19,-1,0,1
Y2-S2-102M22,5,351,AS,exp,50,↓,down,↓,0.560368999838829,True,19,1,1,2
Y2-S2-102M22,5,352,AS,exp,34,↑,down,↓,0.904901800211519,False,18,-1,1,3
Y2-S2-102M22,5,353,AS,exp,49,←,left,←,0.5945089999586344,True,19,-1,0,3
Y2-S2-102M22,5,354,AS,exp,46,↓,up,↑,0.6858052001334727,False,19,-1,0,3
Y2-S2-102M22,5,355,AS,exp,35,↑,up,↑,0.7871687998995185,True,20,-1,0,3
Y2-S2-102M22,5,356,AS,exp,40,↓,up,↑,0.8888206998817623,False,20,-1,0,3
Y2-S2-102M22,5,357,AS,exp,32,←,left,←,0.5429048002697527,True,21,-1,0,3
Y2-S2-102M22,5,358,AS,exp,47,↓,down,↓,0.8062296002171934,True,21,-1,0,3
Y2-S2-102M22,5,359,AS,exp,44,←,left,←,0.5946423001587391,True,21,1,1,4
Y2-S2-102M22,5,360,AS,exp,41,↓,down,↓,0.7383035002276301,True,20,1,0,4
Y2-S2-102M22,5,361,AS,exp,25,→,right,→,0.45058289961889386,True,20,1,0,4
Y2-S2-102M22,5,362,AS,exp,34,↓,down,↓,0.5324352998286486,True,20,1,0,4
Y2-S2-102M22,5,363,AS,exp,25,←,left,←,0.5161379002965987,True,19,1,0,4
Y2-S2-102M22,5,364,AS,exp,50,→,left,←,0.6153751001693308,False,19,-1,1,5
Y2-S2-102M22,5,365,AS,exp,42,←,left,←,0.5741415000520647,True,20,-1,0,5
Y2-S2-102M22,5,366,AS,exp,46,→,right,→,0.6820604000240564,True,20,-1,0,5
Y2-S2-102M22,5,367,AS,exp,49,←,left,←,0.5401615002192557,True,20,1,1,6
Y2-S2-102M22,5,368,AS,exp,31,↑,up,↑,0.56850970024243,True,19,1,0,6
Y2-S2-102M22,5,369,AS,exp,30,↓,down,↓,0.7091031996533275,True,19,1,0,6
Y2-S2-102M22,5,370,AS,exp,50,↑,up,↑,1.0739143998362124,True,19,1,0,6
Y2-S2-102M22,5,371,AS,exp,38,↓,right,→,0.8921622997149825,False,18,-1,1,7
Y2-S2-102M22,5,372,AS,exp,26,↑,up,↑,0.6316980998963118,True,19,-1,0,7
Y2-S2-102M22,5,373,AS,exp,40,↓,down,↓,0.70951720001176,True,19,-1,0,7
Y2-S2-102M22,5,374,AS,exp,42,→,right,→,0.7256307997740805,True,19,1,1,8
Y2-S2-102M22,5,375,AS,exp,38,↓,down,↓,0.4899555998854339,True,18,1,0,8
Y2-S2-102M22,5,376,AS,exp,39,↑,up,↑,0.4681400000117719,True,18,1,0,8
Y2-S2-102M22,5,377,AS,exp,39,↓,up,↑,0.7142756995745003,False,18,-1,1,9
Y2-S2-102M22,5,378,AS,exp,48,←,left,←,0.5284033003263175,True,19,-1,0,9
Y2-S2-102M22,5,379,AS,exp,39,→,right,→,0.6218165997415781,True,19,-1,0,9
Y2-S2-102M22,5,380,AS,exp,47,←,left,←,0.4943905998952687,True,19,1,1,10
Y2-S2-102M22,5,381,AS,exp,33,↑,up,↑,0.540678400080651,True,18,1,0,10
Y2-S2-102M22,5,382,AS,exp,46,→,right,→,0.8853448997251689,True,18,1,0,10
Y2-S2-102M22,5,383,AS,exp,33,←,left,←,0.6718334998004138,True,18,1,0,10
Y2-S2-102M22,5,384,AS,exp,32,↑,up,↑,0.6808855002745986,True,17,1,0,10
Y2-S2-102M22,5,385,AS,exp,45,←,left,←,0.5173603999428451,True,17,1,0,10
Y2-S2-102M22,5,386,AS,exp,48,→,right,→,0.8880954999476671,True,17,1,0,10
Y2-S2-102M22,5,387,AS,exp,28,↑,up,↑,0.5306883999146521,True,16,1,0,10
Y2-S2-102M22,5,388,AS,exp,25,↓,down,↓,0.7549435999244452,True,16,1,0,10
Y2-S2-102M22,5,389,AS,exp,30,←,right,→,0.7969371997751296,False,16,-1,1,11
Y2-S2-102M22,5,390,AS,exp,38,↑,up,↑,0.5179595001973212,True,17,-1,0,11
Y2-S2-102M22,5,391,AS,exp,26,↓,down,↓,0.6148215997964144,True,17,-1,0,11
Y2-S2-102M22,5,392,AS,exp,25,↑,up,↑,1.269395699724555,True,17,1,1,12
Y2-S2-102M22,5,393,AS,exp,25,→,right,→,0.7379025002010167,True,16,1,0,12
Y2-S2-102M22,5,394,AS,exp,36,↓,down,↓,0.6147344997152686,True,16,1,0,12
Y2-S2-102M22,5,395,AS,exp,50,←,left,←,0.7044269000180066,True,16,1,0,12
Y2-S2-102M22,5,396,AS,exp,33,→,right,→,0.9640108998864889,True,15,1,0,12
Y2-S2-102M22,5,397,AS,exp,44,↑,up,↑,0.7637093001976609,True,15,1,0,12
Y2-S2-102M22,5,398,AS,exp,29,←,left,←,0.5281842998228967,True,15,1,0,12
Y2-S2-102M22,5,399,AS,exp,37,↓,down,↓,0.6646936000324786,True,14,1,0,12
Y2-S2-102M22,5,400,AS,exp,36,←,left,←,0.5938073000870645,True,14,1,0,12
Y2-S2-102M22,5,401,AS,exp,29,→,right,→,0.46613299986347556,True,14,1,0,12
Y2-S2-102M22,5,402,AS,exp,27,↓,down,↓,0.5394011000171304,True,13,1,0,12
Y2-S2-102M22,5,403,AS,exp,39,←,right,→,0.8587348000146449,False,13,-1,1,13
Y2-S2-102M22,5,404,AS,exp,26,↓,right,→,0.9956228001974523,False,14,-1,0,13
Y2-S2-102M22,5,405,AS,exp,25,→,down,↓,0.796618599910289,False,15,-1,0,13
Y2-S2-102M22,5,406,AS,exp,46,←,left,←,0.5193667998537421,True,16,-1,0,13
Y2-S2-102M22,5,407,AS,exp,33,↑,up,↑,0.5845524999313056,True,16,-1,0,13
Y2-S2-102M22,5,408,AS,exp,27,→,right,→,0.7413947000168264,True,16,1,1,14
Y2-S2-102M22,5,409,AS,exp,32,↓,down,↓,0.47252919990569353,True,15,1,0,14
Y2-S2-102M22,5,410,AS,exp,31,→,right,→,0.5060709998942912,True,15,1,0,14
Y2-S2-102M22,5,411,AS,exp,45,↓,down,↓,0.5390866999514401,True,15,1,0,14
Y2-S2-102M22,5,412,AS,exp,38,↑,up,↑,0.5114012998528779,True,14,1,0,14
Y2-S2-102M22,5,413,AS,exp,45,→,right,→,0.5924613000825047,True,14,1,0,14
Y2-S2-102M22,5,414,AS,exp,27,←,left,←,0.5214334996417165,True,14,1,0,14
Y2-S2-102M22,5,415,AS,exp,47,↑,up,↑,0.4382215002551675,True,13,1,0,14
Y2-S2-102M22,5,416,AS,exp,27,↓,down,↓,0.5054459003731608,True,13,1,0,14
Y2-S2-102M22,5,417,AS,exp,36,↑,up,↑,0.6402198998257518,True,13,1,0,14
Y2-S2-102M22,5,418,AS,exp,42,↓,down,↓,0.6594354002736509,True,12,1,0,14
Y2-S2-102M22,5,419,AS,exp,49,→,right,→,0.6982565000653267,True,12,1,0,14
Y2-S2-102M22,5,420,AS,exp,45,↑,up,↑,0.5031229997985065,True,12,1,0,14
Y2-S2-102M22,5,421,AS,exp,33,→,right,→,0.6718128002248704,True,11,1,0,14
Y2-S2-102M22,5,422,AS,exp,32,↑,up,↑,0.43936000019311905,True,11,1,0,14
Y2-S2-102M22,5,423,AS,exp,35,←,left,←,0.47173319989815354,True,11,1,0,14
Y2-S2-102M22,5,424,AS,exp,26,→,right,→,0.7713728998787701,True,10,1,0,14
Y2-S2-102M22,5,425,AS,exp,49,↑,up,↑,0.5548451999202371,True,10,1,0,14
Y2-S2-102M22,5,426,AS,exp,25,↓,left,←,1.402742300182581,False,10,-1,1,15
Y2-S2-102M22,5,427,AS,exp,30,→,right,→,0.7048539998941123,True,11,-1,0,15
Y2-S2-102M22,5,428,AS,exp,43,↑,up,↑,0.43791869981214404,True,11,-1,0,15
Y2-S2-102M22,5,429,AS,exp,30,←,left,←,0.5405001998879015,True,11,1,1,16
Y2-S2-102M22,6,430,PS,intra_train,30,↓,down,↓,0.6516122999601066,True,15,-,-,-
Y2-S2-102M22,6,431,PS,intra_train,28,↑,up,↑,0.48973120003938675,True,15,-,-,-
Y2-S2-102M22,6,432,PS,intra_train,29,→,right,→,0.7935847998596728,True,15,-,-,-
Y2-S2-102M22,6,433,PS,intra_train,45,↑,up,↑,0.5011578998528421,True,15,-,-,-
Y2-S2-102M22,6,434,PS,intra_train,29,←,left,←,0.6676836996339262,True,15,-,-,-
Y2-S2-102M22,6,435,PS,exp,28,↓,down,↓,0.5908658998087049,True,10,0,0,0
Y2-S2-102M22,6,436,PS,exp,42,←,left,←,0.47082839999347925,True,10,0,0,0
Y2-S2-102M22,6,437,PS,exp,40,↓,left,←,0.9118238002993166,False,10,-1,0,0
Y2-S2-102M22,6,438,PS,exp,45,←,right,→,0.6395829003304243,False,11,-1,0,0
Y2-S2-102M22,6,439,PS,exp,40,↑,up,↑,0.47363700019195676,True,12,-1,0,0
Y2-S2-102M22,6,440,PS,exp,36,→,right,→,0.6145663000643253,True,12,-1,0,0
Y2-S2-102M22,6,441,PS,exp,33,↑,up,↑,0.4736641002818942,True,12,1,1,1
Y2-S2-102M22,6,442,PS,exp,29,←,left,←,0.5343049000948668,True,11,1,0,1
Y2-S2-102M22,6,443,PS,exp,38,↑,up,↑,0.554492799565196,True,11,1,0,1
Y2-S2-102M22,6,444,PS,exp,35,↓,right,→,0.8910648999735713,False,11,-1,1,2
Y2-S2-102M22,6,445,PS,exp,41,→,right,→,0.45800930028781295,True,12,-1,0,2
Y2-S2-102M22,6,446,PS,exp,40,↓,right,→,0.8921477999538183,False,12,-1,0,2
Y2-S2-102M22,6,447,PS,exp,29,↑,up,↑,0.677225399762392,True,13,-1,0,2
Y2-S2-102M22,6,448,PS,exp,33,→,right,→,0.571811200119555,True,13,-1,0,2
Y2-S2-102M22,6,449,PS,exp,48,↑,up,↑,0.4697147998958826,True,13,1,1,3
Y2-S2-102M22,6,450,PS,exp,31,↓,down,↓,1.0018231002613902,True,12,1,0,3
Y2-S2-102M22,6,451,PS,exp,25,↑,left,←,1.4519144003279507,False,12,-1,1,4
Y2-S2-102M22,6,452,PS,exp,49,→,right,→,0.6048265001736581,True,13,-1,0,4
Y2-S2-102M22,6,453,PS,exp,45,↑,up,↑,0.5543404999189079,True,13,-1,0,4
Y2-S2-102M22,6,454,PS,exp,44,→,right,→,0.4030105001293123,True,13,1,1,5
Y2-S2-102M22,6,455,PS,exp,47,←,left,←,0.5902343997731805,True,12,1,0,5
Y2-S2-102M22,6,456,PS,exp,35,↓,down,↓,0.5505856000818312,True,12,1,0,5
Y2-S2-102M22,6,457,PS,exp,42,→,right,→,0.6106207999400795,True,12,1,0,5
Y2-S2-102M22,6,458,PS,exp,26,↑,up,↑,0.5132312998175621,True,11,1,0,5
Y2-S2-102M22,6,459,PS,exp,36,←,down,↓,1.3271000003442168,False,11,-1,1,6
Y2-S2-102M22,6,460,PS,exp,36,↑,up,↑,0.4385655000805855,True,12,-1,0,6
Y2-S2-102M22,6,461,PS,exp,39,↓,down,↓,0.683188000228256,True,12,-1,0,6
Y2-S2-102M22,6,462,PS,exp,30,→,right,→,0.3772187000140548,True,12,1,1,7
Y2-S2-102M22,6,463,PS,exp,27,↑,up,↑,0.7900394997559488,True,11,1,0,7
Y2-S2-102M22,6,464,PS,exp,33,↓,down,↓,0.5541089000180364,True,11,1,0,7
Y2-S2-102M22,6,465,PS,exp,50,↑,up,↑,0.9035988999530673,True,11,1,0,7
Y2-S2-102M22,6,466,PS,exp,41,→,left,←,0.5918951001949608,False,10,-1,1,8
Y2-S2-102M22,6,467,PS,exp,37,↑,up,↑,0.5702833998948336,True,11,-1,0,8
Y2-S2-102M22,6,468,PS,exp,48,↓,down,↓,0.5677127996459603,True,11,-1,0,8
Y2-S2-102M22,6,469,PS,exp,46,←,left,←,0.5551452999934554,True,11,1,1,9
Y2-S2-102M22,6,470,PS,exp,50,↑,up,↑,0.4744632998481393,True,10,1,0,9
Y2-S2-102M22,6,471,PS,exp,30,←,left,←,1.0906150001101196,True,10,1,0,9
Y2-S2-102M22,6,472,PS,exp,27,→,right,→,0.5435446002520621,True,10,1,0,9
Y2-S2-102M22,6,473,PS,exp,26,←,left,←,0.5524112996645272,True,9,1,0,9
Y2-S2-102M22,6,474,PS,exp,37,→,right,→,0.5154377999715507,True,9,1,0,9
Y2-S2-102M22,6,475,PS,exp,43,←,left,←,0.41499050008133054,True,9,1,0,9
Y2-S2-102M22,6,476,PS,exp,50,↑,right,→,0.7963213999755681,False,8,-1,1,10
Y2-S2-102M22,6,477,PS,exp,43,↓,right,→,1.0894627999514341,False,9,-1,0,10
Y2-S2-102M22,6,478,PS,exp,30,←,left,←,0.5943494001403451,True,10,-1,0,10
Y2-S2-102M22,6,479,PS,exp,40,→,right,→,0.5884981001727283,True,10,-1,0,10
Y2-S2-102M22,6,480,PS,exp,34,↓,down,↓,0.8305673999711871,True,10,1,1,11
Y2-S2-102M22,6,481,PS,exp,47,↑,up,↑,0.49292610026896,True,9,1,0,11
Y2-S2-102M22,6,482,PS,exp,43,←,left,←,0.4805890000425279,True,9,1,0,11
Y2-S2-102M22,6,483,PS,exp,25,↓,left,←,0.968783900141716,False,9,-1,1,12
Y2-S2-102M22,6,484,PS,exp,45,↑,up,↑,0.5143329999409616,True,10,-1,0,12
Y2-S2-102M22,6,485,PS,exp,33,↓,right,→,1.2081181001849473,False,10,-1,0,12
Y2-S2-102M22,6,486,PS,exp,40,←,left,←,0.4764103000052273,True,11,-1,0,12
Y2-S2-102M22,6,487,PS,exp,32,→,right,→,0.5027431999333203,True,11,-1,0,12
Y2-S2-102M22,6,488,PS,exp,43,←,left,←,0.7274184999987483,True,11,1,1,13
Y2-S2-102M22,6,489,PS,exp,31,→,right,→,0.7336095999926329,True,10,1,0,13
Y2-S2-102M22,6,490,PS,exp,48,←,left,←,0.5041240998543799,True,10,1,0,13
Y2-S2-102M22,6,491,PS,exp,28,↑,up,↑,0.6971092000603676,True,10,1,0,13
Y2-S2-102M22,6,492,PS,exp,26,→,right,→,0.44148229993879795,True,9,1,0,13
Y2-S2-102M22,6,493,PS,exp,32,←,right,→,0.6164962998591363,False,9,-1,1,14
Y2-S2-102M22,6,494,PS,exp,29,→,right,→,0.5129670999012887,True,10,-1,0,14
Y2-S2-102M22,6,495,PS,exp,34,↓,down,↓,0.5350620001554489,True,10,-1,0,14
Y2-S2-102M22,6,496,PS,exp,39,↑,up,↑,0.6113795000128448,True,10,1,1,15
Y2-S2-102M22,6,497,PS,exp,36,→,right,→,0.5363508001901209,True,9,1,0,15
Y2-S2-102M22,6,498,PS,exp,32,↑,up,↑,0.4492983999662101,True,9,1,0,15
Y2-S2-102M22,6,499,PS,exp,46,←,left,←,0.6310833003371954,True,9,1,0,15
Y2-S2-102M22,6,500,PS,exp,34,↑,up,↑,0.43879419984295964,True,8,1,0,15
Y2-S2-102M22,6,501,PS,exp,38,←,right,→,0.5973453996703029,False,8,-1,1,16
Y2-S2-102M22,7,502,PS,intra_train,37,↑,no_key,no_letter,-1.0,False,15,-,-,-
Y2-S2-102M22,7,503,PS,intra_train,25,→,right,→,0.7693543001078069,True,15,-,-,-
Y2-S2-102M22,7,504,PS,intra_train,50,↑,up,↑,0.5651595997624099,True,15,-,-,-
Y2-S2-102M22,7,505,PS,intra_train,40,→,right,→,0.46524860011413693,True,15,-,-,-
Y2-S2-102M22,7,506,PS,intra_train,45,↓,down,↓,0.578590499702841,True,15,-,-,-
Y2-S2-102M22,7,507,PS,exp,42,↑,up,↑,0.5236825998872519,True,10,0,0,0
Y2-S2-102M22,7,508,PS,exp,33,←,left,←,0.5562097001820803,True,10,0,0,0
Y2-S2-102M22,7,509,PS,exp,47,↓,down,↓,0.49991519981995225,True,10,1,0,0
Y2-S2-102M22,7,510,PS,exp,38,↑,up,↑,0.438247200101614,True,9,1,0,0
Y2-S2-102M22,7,511,PS,exp,28,↓,right,→,0.6318318997509778,False,9,-1,1,1
Y2-S2-102M22,7,512,PS,exp,25,↑,up,↑,0.4528227997943759,True,10,-1,0,1
Y2-S2-102M22,7,513,PS,exp,29,←,left,←,0.532593599986285,True,10,-1,0,1
Y2-S2-102M22,7,514,PS,exp,30,→,right,→,0.8240116997621953,True,10,1,1,2
Y2-S2-102M22,7,515,PS,exp,37,↑,down,↓,0.8731494001112878,False,9,-1,1,3
Y2-S2-102M22,7,516,PS,exp,41,←,right,→,0.5535844000987709,False,10,-1,0,3
Y2-S2-102M22,7,517,PS,exp,31,↑,left,←,0.7909560999833047,False,11,-1,0,3
Y2-S2-102M22,7,518,PS,exp,35,→,right,→,0.5211732001043856,True,12,-1,0,3
Y2-S2-102M22,7,519,PS,exp,44,↓,down,↓,0.7667052000761032,True,12,-1,0,3
Y2-S2-102M22,7,520,PS,exp,35,↑,up,↑,0.5303894001990557,True,12,1,1,4
Y2-S2-102M22,7,521,PS,exp,41,←,left,←,0.404954900033772,True,11,1,0,4
Y2-S2-102M22,7,522,PS,exp,33,↓,down,↓,0.5380617999471724,True,11,1,0,4
Y2-S2-102M22,7,523,PS,exp,43,→,right,→,0.4940106999129057,True,11,1,0,4
Y2-S2-102M22,7,524,PS,exp,29,←,left,←,0.5365582997910678,True,10,1,0,4
Y2-S2-102M22,7,525,PS,exp,42,↑,left,←,0.9986403002403677,False,10,-1,1,5
Y2-S2-102M22,7,526,PS,exp,30,↓,down,↓,0.42768080020323396,True,11,-1,0,5
Y2-S2-102M22,7,527,PS,exp,43,←,right,→,0.5741714001633227,False,11,-1,0,5
Y2-S2-102M22,7,528,PS,exp,42,↓,right,→,0.8850941001437604,False,12,-1,0,5
Y2-S2-102M22,7,529,PS,exp,48,←,up,↑,0.8257466997019947,False,13,-1,0,5
Y2-S2-102M22,7,530,PS,exp,36,↓,down,↓,0.5327508999034762,True,14,-1,0,5
Y2-S2-102M22,7,531,PS,exp,45,↑,up,↑,0.6099470001645386,True,14,-1,0,5
Y2-S2-102M22,7,532,PS,exp,40,↓,down,↓,0.7579564000479877,True,14,1,1,6
Y2-S2-102M22,7,533,PS,exp,30,←,left,←,0.5989850996993482,True,13,1,0,6
Y2-S2-102M22,7,534,PS,exp,33,↓,down,↓,0.5153602999635041,True,13,1,0,6
Y2-S2-102M22,7,535,PS,exp,43,→,left,←,0.6652433997951448,False,13,-1,1,7
Y2-S2-102M22,7,536,PS,exp,32,↓,right,→,0.9733269000425935,False,14,-1,0,7
Y2-S2-102M22,7,537,PS,exp,30,↑,up,↑,0.6789863999001682,True,15,-1,0,7
Y2-S2-102M22,7,538,PS,exp,43,↓,down,↓,0.4607152999378741,True,15,-1,0,7
Y2-S2-102M22,7,539,PS,exp,39,↑,up,↑,0.5066424999386072,True,15,1,1,8
Y2-S2-102M22,7,540,PS,exp,34,→,left,←,0.5532700996845961,False,14,-1,1,9
Y2-S2-102M22,7,541,PS,exp,41,←,right,→,0.6467955997213721,False,15,-1,0,9
Y2-S2-102M22,7,542,PS,exp,36,→,right,→,0.6960558998398483,True,16,-1,0,9
Y2-S2-102M22,7,543,PS,exp,40,↓,down,↓,0.7308589001186192,True,16,-1,0,9
Y2-S2-102M22,7,544,PS,exp,47,→,right,→,0.4917284999974072,True,16,1,1,10
Y2-S2-102M22,7,545,PS,exp,35,←,left,←,1.469677200075239,True,15,1,0,10
Y2-S2-102M22,7,546,PS,exp,34,↓,down,↓,0.5488658999092877,True,15,1,0,10
Y2-S2-102M22,7,547,PS,exp,46,↑,right,→,0.9803349999710917,False,15,-1,1,11
Y2-S2-102M22,7,548,PS,exp,31,↓,down,↓,0.49030600022524595,True,16,-1,0,11
Y2-S2-102M22,7,549,PS,exp,41,→,right,→,0.674814899917692,True,16,-1,0,11
Y2-S2-102M22,7,550,PS,exp,27,↓,down,↓,0.5411563999950886,True,16,1,1,12
Y2-S2-102M22,7,551,PS,exp,40,←,left,←,0.609217899851501,True,15,1,0,12
Y2-S2-102M22,7,552,PS,exp,43,↑,down,↓,0.7795438999310136,False,15,-1,1,13
Y2-S2-102M22,7,553,PS,exp,38,↓,down,↓,0.5436563002876937,True,16,-1,0,13
Y2-S2-102M22,7,554,PS,exp,42,↑,up,↑,0.6395212998613715,True,16,-1,0,13
Y2-S2-102M22,7,555,PS,exp,26,→,right,→,0.4766108999028802,True,16,1,1,14
Y2-S2-102M22,7,556,PS,exp,34,↓,down,↓,0.5332458997145295,True,15,1,0,14
Y2-S2-102M22,7,557,PS,exp,41,→,right,→,0.5034682000987232,True,15,1,0,14
Y2-S2-102M22,7,558,PS,exp,44,↑,up,↑,0.5831775004044175,True,15,1,0,14
Y2-S2-102M22,7,559,PS,exp,30,←,right,→,0.5613580998033285,False,14,-1,1,15
Y2-S2-102M22,7,560,PS,exp,28,→,left,←,1.0100028002634645,False,15,-1,0,15
Y2-S2-102M22,7,561,PS,exp,46,↓,down,↓,0.5645701000466943,True,16,-1,0,15
Y2-S2-102M22,7,562,PS,exp,50,→,right,→,0.5005944999866188,True,16,-1,0,15
Y2-S2-102M22,7,563,PS,exp,34,↓,down,↓,0.5756453000940382,True,16,1,1,16
Y2-S2-102M22,8,564,AS,intra_train,46,→,right,→,1.0861361999996006,True,30,-,-,-
Y2-S2-102M22,8,565,AS,intra_train,38,↓,down,↓,0.5672629000619054,True,30,-,-,-
Y2-S2-102M22,8,566,AS,intra_train,43,→,left,←,0.6341066001914442,False,30,-,-,-
Y2-S2-102M22,8,567,AS,intra_train,45,↓,down,↓,0.5339238001033664,True,30,-,-,-
Y2-S2-102M22,8,568,AS,intra_train,28,→,right,→,0.5006701000966132,True,30,-,-,-
Y2-S2-102M22,8,569,AS,exp,46,↓,down,↓,1.029479700140655,True,20,0,0,0
Y2-S2-102M22,8,570,AS,exp,42,→,right,→,0.8617373001761734,True,20,0,0,0
Y2-S2-102M22,8,571,AS,exp,35,↓,down,↓,0.7944360999390483,True,20,1,0,0
Y2-S2-102M22,8,572,AS,exp,41,←,left,←,0.6443759999237955,True,19,1,0,0
Y2-S2-102M22,8,573,AS,exp,35,↓,down,↓,0.5257135001011193,True,19,1,0,0
Y2-S2-102M22,8,574,AS,exp,42,←,right,→,0.830521599855274,False,19,-1,1,1
Y2-S2-102M22,8,575,AS,exp,31,↑,up,↑,0.6332963998429477,True,20,-1,0,1
Y2-S2-102M22,8,576,AS,exp,47,→,right,→,0.8354189000092447,True,20,-1,0,1
Y2-S2-102M22,8,577,AS,exp,44,←,left,←,0.5100813000462949,True,20,1,1,2
Y2-S2-102M22,8,578,AS,exp,32,↑,up,↑,0.4504743996076286,True,19,1,0,2
Y2-S2-102M22,8,579,AS,exp,30,↓,down,↓,0.8536332999356091,True,19,1,0,2
Y2-S2-102M22,8,580,AS,exp,27,↑,up,↑,1.0432239999063313,True,19,1,0,2
Y2-S2-102M22,8,581,AS,exp,32,↓,down,↓,0.47864120034500957,True,18,1,0,2
Y2-S2-102M22,8,582,AS,exp,27,←,down,↓,0.8727940996177495,False,18,-1,1,3
Y2-S2-102M22,8,583,AS,exp,28,→,right,→,0.5942366002127528,True,19,-1,0,3
Y2-S2-102M22,8,584,AS,exp,50,↑,up,↑,0.9394482998177409,True,19,-1,0,3
Y2-S2-102M22,8,585,AS,exp,36,←,right,→,0.7085327999666333,False,19,-1,0,3
Y2-S2-102M22,8,586,AS,exp,43,↑,up,↑,0.5732204997912049,True,20,-1,0,3
Y2-S2-102M22,8,587,AS,exp,31,↓,down,↓,0.5869607999920845,True,20,-1,0,3
Y2-S2-102M22,8,588,AS,exp,44,→,right,→,0.45078889979049563,True,20,1,1,4
Y2-S2-102M22,8,589,AS,exp,41,↑,up,↑,0.9658094001933932,True,19,1,0,4
Y2-S2-102M22,8,590,AS,exp,25,→,right,→,0.5112692001275718,True,19,1,0,4
Y2-S2-102M22,8,591,AS,exp,32,↑,up,↑,0.41727029997855425,True,19,1,0,4
Y2-S2-102M22,8,592,AS,exp,45,←,left,←,0.520594300236553,True,18,1,0,4
Y2-S2-102M22,8,593,AS,exp,27,↑,right,→,1.059437899850309,False,18,-1,1,5
Y2-S2-102M22,8,594,AS,exp,39,←,left,←,0.9978418000973761,True,19,-1,0,5
Y2-S2-102M22,8,595,AS,exp,45,↓,right,→,0.6494740997441113,False,19,-1,0,5
Y2-S2-102M22,8,596,AS,exp,36,↑,up,↑,0.5863875998184085,True,20,-1,0,5
Y2-S2-102M22,8,597,AS,exp,40,↓,down,↓,0.5832307999953628,True,20,-1,0,5
Y2-S2-102M22,8,598,AS,exp,33,→,right,→,0.7994158999063075,True,20,1,1,6
Y2-S2-102M22,8,599,AS,exp,25,↑,up,↑,0.7974733998999,True,19,1,0,6
Y2-S2-102M22,8,600,AS,exp,33,→,right,→,0.8215906000696123,True,19,1,0,6
Y2-S2-102M22,8,601,AS,exp,46,←,left,←,0.4919596998952329,True,19,1,0,6
Y2-S2-102M22,8,602,AS,exp,47,→,right,→,0.7549748998135328,True,18,1,0,6
Y2-S2-102M22,8,603,AS,exp,26,↑,up,↑,0.591251399833709,True,18,1,0,6
Y2-S2-102M22,8,604,AS,exp,33,→,right,→,0.49992340011522174,True,18,1,0,6
Y2-S2-102M22,8,605,AS,exp,27,←,left,←,0.4850754998624325,True,17,1,0,6
Y2-S2-102M22,8,606,AS,exp,28,↑,up,↑,0.5510021997615695,True,17,1,0,6
Y2-S2-102M22,8,607,AS,exp,45,←,left,←,0.5492477999068797,True,17,1,0,6
Y2-S2-102M22,8,608,AS,exp,30,↑,up,↑,0.562239000108093,True,16,1,0,6
Y2-S2-102M22,8,609,AS,exp,26,→,right,→,0.6312740999273956,True,16,1,0,6
Y2-S2-102M22,8,610,AS,exp,28,↑,up,↑,0.9721483001485467,True,16,1,0,6
Y2-S2-102M22,8,611,AS,exp,49,←,right,→,0.6880620997399092,False,15,-1,1,7
Y2-S2-102M22,8,612,AS,exp,39,→,down,↓,0.6965823001228273,False,16,-1,0,7
Y2-S2-102M22,8,613,AS,exp,25,↑,up,↑,0.4662194000557065,True,17,-1,0,7
Y2-S2-102M22,8,614,AS,exp,25,→,right,→,0.5433277999982238,True,17,-1,0,7
Y2-S2-102M22,8,615,AS,exp,39,↓,down,↓,0.5412755999714136,True,17,1,1,8
Y2-S2-102M22,8,616,AS,exp,41,→,up,↑,0.7628326998092234,False,16,-1,1,9
Y2-S2-102M22,8,617,AS,exp,47,↓,up,↑,0.6699695000424981,False,17,-1,0,9
Y2-S2-102M22,8,618,AS,exp,43,←,left,←,0.6393720000050962,True,18,-1,0,9
Y2-S2-102M22,8,619,AS,exp,49,↓,down,↓,0.5788614000193775,True,18,-1,0,9
Y2-S2-102M22,8,620,AS,exp,36,→,right,→,1.155306600034237,True,18,1,1,10
Y2-S2-102M22,8,621,AS,exp,41,←,left,←,0.65437539992854,True,17,1,0,10
Y2-S2-102M22,8,622,AS,exp,37,→,left,←,0.8066942999139428,False,17,-1,1,11
Y2-S2-102M22,8,623,AS,exp,34,↑,up,↑,1.1348052001558244,True,18,-1,0,11
Y2-S2-102M22,8,624,AS,exp,27,→,right,→,0.7343764998950064,True,18,-1,0,11
Y2-S2-102M22,8,625,AS,exp,27,↑,up,↑,0.9886822998523712,True,18,1,1,12
Y2-S2-102M22,8,626,AS,exp,27,→,right,→,0.6335714003071189,True,17,1,0,12
Y2-S2-102M22,8,627,AS,exp,34,←,right,→,0.6321120001375675,False,17,-1,1,13
Y2-S2-102M22,8,628,AS,exp,34,↓,down,↓,0.5299920001998544,True,18,-1,0,13
Y2-S2-102M22,8,629,AS,exp,35,→,right,→,0.5468937000259757,True,18,-1,0,13
Y2-S2-102M22,8,630,AS,exp,37,↓,down,↓,0.6536981998942792,True,18,1,1,14
Y2-S2-102M22,8,631,AS,exp,34,↑,up,↑,0.8615532000549138,True,17,1,0,14
Y2-S2-102M22,8,632,AS,exp,31,←,right,→,0.693686000071466,False,17,-1,1,15
Y2-S2-102M22,8,633,AS,exp,30,↑,up,↑,0.4338010996580124,True,18,-1,0,15
Y2-S2-102M22,8,634,AS,exp,36,↓,down,↓,0.9400458000600338,True,18,-1,0,15
Y2-S2-102M22,8,635,AS,exp,37,→,right,→,0.6424684999510646,True,18,1,1,16
