PART_ID,Block_no,Trial_no,Block_type,Trial_type,CSI,Stim_letter,Key_pressed,letter_choose,Rt,Corr,Stimulus Time,Level,Reversal,Revs_count
 Y2-S2-099K20,1,1,PS,train,46,←,left,←,0.9263795000733808,True,30,-,-,-
 Y2-S2-099K20,1,2,PS,train,42,→,right,→,0.7343309000134468,True,30,-,-,-
 Y2-S2-099K20,1,3,PS,train,34,↑,left,←,1.1639235999900848,False,30,-,-,-
 Y2-S2-099K20,1,4,PS,train,26,←,left,←,0.4676468000980094,True,30,-,-,-
 Y2-S2-099K20,1,5,PS,train,47,→,right,→,0.6890277999918908,True,30,-,-,-
 Y2-S2-099K20,1,6,PS,train,34,↑,up,↑,1.2444900999544188,True,30,-,-,-
 Y2-S2-099K20,1,7,PS,train,46,←,left,←,0.7468722000485286,True,30,-,-,-
 Y2-S2-099K20,1,8,PS,train,30,↑,up,↑,0.7993569999234751,True,30,-,-,-
 Y2-S2-099K20,1,9,PS,train,50,→,right,→,0.8457365999929607,True,30,-,-,-
 Y2-S2-099K20,1,10,PS,train,42,↓,down,↓,1.038261100067757,True,30,-,-,-
 Y2-S2-099K20,2,11,AS,train,25,←,left,←,0.6676656999625266,True,45,-,-,-
 Y2-S2-099K20,2,12,AS,train,25,↑,up,↑,0.5508810000028461,True,45,-,-,-
 Y2-S2-099K20,2,13,AS,train,40,→,right,→,0.7505678000161424,True,45,-,-,-
 Y2-S2-099K20,2,14,AS,train,34,↓,up,↑,0.6510420999256894,False,45,-,-,-
 Y2-S2-099K20,2,15,AS,train,26,↑,up,↑,0.7672990000573918,True,45,-,-,-
 Y2-S2-099K20,2,16,AS,train,48,↓,down,↓,0.6844619000330567,True,45,-,-,-
 Y2-S2-099K20,2,17,AS,train,44,→,right,→,0.7671797000803053,True,45,-,-,-
 Y2-S2-099K20,2,18,AS,train,39,←,right,→,0.5676674999995157,False,45,-,-,-
 Y2-S2-099K20,2,19,AS,train,37,↑,up,↑,0.8837626000167802,True,45,-,-,-
 Y2-S2-099K20,2,20,AS,train,34,→,right,→,1.5122664000373334,True,45,-,-,-
 Y2-S2-099K20,-,21,PS,adaptive,44,↑,right,→,0.6465343999443576,False,10,-1,0,0
 Y2-S2-099K20,-,22,PS,adaptive,36,↓,right,→,1.3090851999586448,False,11,-1,0,0
 Y2-S2-099K20,-,23,PS,adaptive,37,←,left,←,0.6054599999915808,True,12,-1,0,0
 Y2-S2-099K20,-,24,PS,adaptive,49,↑,up,↑,1.0787860000273213,True,12,-1,0,0
 Y2-S2-099K20,-,25,PS,adaptive,27,→,right,→,0.699548100004904,True,12,1,1,1
 Y2-S2-099K20,-,26,PS,adaptive,27,↓,down,↓,0.7340725999092683,True,11,1,0,1
 Y2-S2-099K20,-,27,PS,adaptive,50,←,left,←,0.5318966000340879,True,11,1,0,1
 Y2-S2-099K20,-,28,PS,adaptive,48,↑,up,↑,0.6009762999601662,True,11,1,0,1
 Y2-S2-099K20,-,29,PS,adaptive,41,→,right,→,0.5474982999730855,True,10,1,0,1
 Y2-S2-099K20,-,30,PS,adaptive,46,↓,left,←,0.8392520000925288,False,10,-1,1,2
 Y2-S2-099K20,-,31,PS,adaptive,48,↑,up,↑,0.9381825000746176,True,11,-1,0,2
 Y2-S2-099K20,-,32,PS,adaptive,34,←,up,↑,0.8216846000868827,False,11,-1,0,2
 Y2-S2-099K20,-,33,PS,adaptive,41,→,right,→,0.6922857000026852,True,12,-1,0,2
 Y2-S2-099K20,-,34,PS,adaptive,27,↓,right,→,0.949364100000821,False,12,-1,0,2
 Y2-S2-099K20,-,35,PS,adaptive,42,↑,no_key,no_letter,-1.0,False,13,-1,0,2
 Y2-S2-099K20,-,36,PS,adaptive,50,←,no_key,no_letter,-1.0,False,14,-1,0,2
 Y2-S2-099K20,-,37,PS,adaptive,38,↓,right,→,0.6804248000262305,False,15,-1,0,2
 Y2-S2-099K20,-,38,PS,adaptive,32,→,right,→,0.5136292999377474,True,16,-1,0,2
 Y2-S2-099K20,-,39,PS,adaptive,49,↓,up,↑,1.1165294999955222,False,16,-1,0,2
 Y2-S2-099K20,-,40,PS,adaptive,25,←,up,↑,0.8677977999905124,False,17,-1,0,2
 Y2-S2-099K20,-,41,PS,adaptive,32,→,down,↓,0.8663295999867842,False,18,-1,0,2
 Y2-S2-099K20,-,42,PS,adaptive,30,↑,up,↑,0.5468887001043186,True,19,-1,0,2
 Y2-S2-099K20,-,43,PS,adaptive,37,↓,down,↓,1.028810300049372,True,19,-1,0,2
 Y2-S2-099K20,-,44,PS,adaptive,34,→,up,↑,0.9359495000680909,False,19,-1,0,2
 Y2-S2-099K20,-,45,PS,adaptive,36,←,left,←,0.5772575000301003,True,20,-1,0,2
 Y2-S2-099K20,-,46,PS,adaptive,28,↑,left,←,0.6564507000148296,False,20,-1,0,2
 Y2-S2-099K20,-,47,PS,adaptive,47,←,left,←,0.737911400035955,True,21,-1,0,2
 Y2-S2-099K20,-,48,PS,adaptive,46,→,right,→,1.0329123999690637,True,21,-1,0,2
 Y2-S2-099K20,-,49,PS,adaptive,41,↑,up,↑,0.898797900066711,True,21,1,1,3
 Y2-S2-099K20,-,50,PS,adaptive,48,←,left,←,1.100004700012505,True,20,1,0,3
 Y2-S2-099K20,-,51,PS,adaptive,33,→,right,→,0.7512807999737561,True,20,1,0,3
 Y2-S2-099K20,-,52,PS,adaptive,29,↓,right,→,0.8271574999671429,False,20,-1,1,4
 Y2-S2-099K20,-,53,AS,adaptive,30,↑,up,↑,0.5660222000442445,True,20,0,0,0
 Y2-S2-099K20,-,54,AS,adaptive,28,←,right,→,0.560964799951762,False,20,-1,0,0
 Y2-S2-099K20,-,55,AS,adaptive,42,↑,up,↑,1.7703112999442965,True,21,-1,0,0
 Y2-S2-099K20,-,56,AS,adaptive,29,←,right,→,0.8611348000122234,False,21,-1,0,0
 Y2-S2-099K20,-,57,AS,adaptive,26,↓,up,↑,0.6798034000676125,False,22,-1,0,0
 Y2-S2-099K20,-,58,AS,adaptive,36,→,right,→,0.46691800002008677,True,23,-1,0,0
 Y2-S2-099K20,-,59,AS,adaptive,48,↑,up,↑,0.43392350000794977,True,23,-1,0,0
 Y2-S2-099K20,-,60,AS,adaptive,42,←,left,←,0.9084441000595689,True,23,1,1,1
 Y2-S2-099K20,-,61,AS,adaptive,46,→,right,→,0.9533152999356389,True,22,1,0,1
 Y2-S2-099K20,-,62,AS,adaptive,35,←,left,←,0.8817459000274539,True,22,1,0,1
 Y2-S2-099K20,-,63,AS,adaptive,43,↑,up,↑,0.4673373999539763,True,22,1,0,1
 Y2-S2-099K20,-,64,AS,adaptive,41,↓,down,↓,0.4171738000586629,True,21,1,0,1
 Y2-S2-099K20,-,65,AS,adaptive,46,←,left,←,0.9198913000291213,True,21,1,0,1
 Y2-S2-099K20,-,66,AS,adaptive,38,↓,down,↓,1.5369336999719962,True,21,1,0,1
 Y2-S2-099K20,-,67,AS,adaptive,28,←,left,←,1.3313318999717012,True,20,1,0,1
 Y2-S2-099K20,-,68,AS,adaptive,25,↑,up,↑,1.5501107999589294,True,20,1,0,1
 Y2-S2-099K20,-,69,AS,adaptive,45,←,no_key,no_letter,-1.0,False,20,-1,1,2
 Y2-S2-099K20,-,70,AS,adaptive,33,→,down,↓,1.4117168000666425,False,21,-1,0,2
 Y2-S2-099K20,-,71,AS,adaptive,34,←,left,←,1.362530899932608,True,22,-1,0,2
 Y2-S2-099K20,-,72,AS,adaptive,30,↓,down,↓,1.1163143999874592,True,22,-1,0,2
 Y2-S2-099K20,-,73,AS,adaptive,45,↑,up,↑,0.971254299976863,True,22,1,1,3
 Y2-S2-099K20,-,74,AS,adaptive,44,←,left,←,1.1547279000515118,True,21,1,0,3
 Y2-S2-099K20,-,75,AS,adaptive,30,→,right,→,1.106885900022462,True,21,1,0,3
 Y2-S2-099K20,-,76,AS,adaptive,40,↓,up,↑,1.249280899995938,False,21,-1,1,4
 Y2-S2-099K20,1,77,AS,intra_train,25,↑,up,↑,1.672909100074321,True,33,-,-,-
 Y2-S2-099K20,1,78,AS,intra_train,36,→,right,→,0.9794070000061765,True,33,-,-,-
 Y2-S2-099K20,1,79,AS,intra_train,27,↑,up,↑,0.8070719999959692,True,33,-,-,-
 Y2-S2-099K20,1,80,AS,intra_train,32,←,right,→,0.6337978999363258,False,33,-,-,-
 Y2-S2-099K20,1,81,AS,intra_train,25,↑,right,→,0.2514605999458581,False,33,-,-,-
 Y2-S2-099K20,1,82,AS,exp,36,→,right,→,0.45058659999631345,True,22,0,0,0
 Y2-S2-099K20,1,83,AS,exp,30,←,right,→,0.8549501000670716,False,22,-1,0,0
 Y2-S2-099K20,1,84,AS,exp,36,↑,right,→,0.2843147999374196,False,23,-1,0,0
 Y2-S2-099K20,1,85,AS,exp,36,↓,right,→,0.30098639999050647,False,24,-1,0,0
 Y2-S2-099K20,1,86,AS,exp,48,↑,right,→,0.13448369991965592,False,25,-1,0,0
 Y2-S2-099K20,1,87,AS,exp,28,→,right,→,0.2677602000767365,True,26,-1,0,0
 Y2-S2-099K20,1,88,AS,exp,27,↑,right,→,0.3346068999962881,False,26,-1,0,0
 Y2-S2-099K20,1,89,AS,exp,26,↓,right,→,0.3017886000452563,False,27,-1,0,0
 Y2-S2-099K20,1,90,AS,exp,34,↑,right,→,0.2006688000401482,False,28,-1,0,0
 Y2-S2-099K20,1,91,AS,exp,46,→,right,→,0.2009912000503391,True,29,-1,0,0
 Y2-S2-099K20,1,92,AS,exp,40,↓,right,→,0.4840878000250086,False,29,-1,0,0
 Y2-S2-099K20,1,93,AS,exp,48,↑,right,→,0.38415580010041595,False,30,-1,0,0
 Y2-S2-099K20,1,94,AS,exp,39,→,right,→,0.38463580003008246,True,31,-1,0,0
 Y2-S2-099K20,1,95,AS,exp,44,↑,right,→,0.31772229995112866,False,31,-1,0,0
 Y2-S2-099K20,1,96,AS,exp,27,←,right,→,0.5337665000697598,False,32,-1,0,0
 Y2-S2-099K20,1,97,AS,exp,43,→,right,→,0.23422019998542964,True,33,-1,0,0
 Y2-S2-099K20,1,98,AS,exp,30,↓,right,→,0.36799619998782873,False,33,-1,0,0
 Y2-S2-099K20,1,99,AS,exp,45,←,right,→,0.3845099000027403,False,34,-1,0,0
 Y2-S2-099K20,1,100,AS,exp,40,↓,right,→,0.35081410000566393,False,35,-1,0,0
 Y2-S2-099K20,1,101,AS,exp,44,→,right,→,1.2178794000064954,True,36,-1,0,0
 Y2-S2-099K20,1,102,AS,exp,49,←,right,→,0.4341820999979973,False,36,-1,0,0
 Y2-S2-099K20,1,103,AS,exp,46,↓,right,→,0.5181021000025794,False,37,-1,0,0
 Y2-S2-099K20,1,104,AS,exp,47,→,right,→,1.3057167999213561,True,38,-1,0,0
 Y2-S2-099K20,1,105,AS,exp,43,↑,right,→,0.9145620999624953,False,38,-1,0,0
 Y2-S2-099K20,1,106,AS,exp,49,↓,right,→,0.3844431999605149,False,39,-1,0,0
 Y2-S2-099K20,1,107,AS,exp,41,←,right,→,0.4009646999184042,False,40,-1,0,0
 Y2-S2-099K20,1,108,AS,exp,32,↑,right,→,0.5842573000118136,False,41,-1,0,0
 Y2-S2-099K20,1,109,AS,exp,38,↓,right,→,0.634309499990195,False,42,-1,0,0
 Y2-S2-099K20,1,110,AS,exp,26,↑,right,→,0.36784009996335953,False,43,-1,0,0
 Y2-S2-099K20,1,111,AS,exp,31,←,right,→,0.40078749996609986,False,44,-1,0,0
 Y2-S2-099K20,1,112,AS,exp,30,→,right,→,0.3341325999936089,True,45,-1,0,0
 Y2-S2-099K20,1,113,AS,exp,39,←,right,→,0.3012229000451043,False,45,-1,0,0
 Y2-S2-099K20,1,114,AS,exp,34,↑,right,→,0.18450420000590384,False,46,-1,0,0
 Y2-S2-099K20,1,115,AS,exp,50,←,right,→,0.35096390009857714,False,47,-1,0,0
 Y2-S2-099K20,1,116,AS,exp,45,↓,right,→,0.31771109998226166,False,48,-1,0,0
 Y2-S2-099K20,1,117,AS,exp,30,→,right,→,0.3510911000194028,True,49,-1,0,0
 Y2-S2-099K20,1,118,AS,exp,38,↑,right,→,0.45094679994508624,False,49,-1,0,0
 Y2-S2-099K20,1,119,AS,exp,32,←,right,→,0.36773769999854267,False,50,-1,0,0
 Y2-S2-099K20,1,120,AS,exp,29,↑,right,→,0.4012372000142932,False,51,-1,0,0
 Y2-S2-099K20,1,121,AS,exp,48,↓,right,→,0.517730199964717,False,52,-1,0,0
 Y2-S2-099K20,1,122,AS,exp,31,↑,right,→,0.20136409997940063,False,53,-1,0,0
 Y2-S2-099K20,1,123,AS,exp,30,←,right,→,0.5179235999239609,False,54,-1,0,0
 Y2-S2-099K20,1,124,AS,exp,42,↓,right,→,0.3843583998968825,False,55,-1,0,0
 Y2-S2-099K20,1,125,AS,exp,29,←,right,→,0.3675958999665454,False,56,-1,0,0
 Y2-S2-099K20,1,126,AS,exp,38,↓,right,→,0.2010794000234455,False,57,-1,0,0
 Y2-S2-099K20,1,127,AS,exp,45,←,right,→,0.30111400003079325,False,58,-1,0,0
 Y2-S2-099K20,1,128,AS,exp,41,→,right,→,0.4344388999743387,True,59,-1,0,0
 Y2-S2-099K20,1,129,AS,exp,48,←,right,→,0.28442909999284893,False,59,-1,0,0
 Y2-S2-099K20,1,130,AS,exp,25,↓,right,→,0.4341921000741422,False,60,-1,0,0
 Y2-S2-099K20,1,131,AS,exp,39,↑,right,→,0.25089490006212145,False,61,-1,0,0
 Y2-S2-099K20,1,132,AS,exp,37,→,right,→,0.5178473999258131,True,62,-1,0,0
 Y2-S2-099K20,1,133,AS,exp,42,←,right,→,0.3843899000203237,False,62,-1,0,0
 Y2-S2-099K20,1,134,AS,exp,46,↓,right,→,0.5509991999715567,False,63,-1,0,0
 Y2-S2-099K20,1,135,AS,exp,36,↑,right,→,0.3845792000647634,False,64,-1,0,0
 Y2-S2-099K20,1,136,AS,exp,42,→,right,→,0.4511651999782771,True,65,-1,0,0
 Y2-S2-099K20,1,137,AS,exp,43,←,right,→,0.417249699938111,False,65,-1,0,0
 Y2-S2-099K20,1,138,AS,exp,47,↓,right,→,0.48431329999584705,False,66,-1,0,0
 Y2-S2-099K20,1,139,AS,exp,25,←,right,→,0.3341397000476718,False,67,-1,0,0
 Y2-S2-099K20,1,140,AS,exp,43,→,right,→,0.21801589999813586,True,68,-1,0,0
 Y2-S2-099K20,1,141,AS,exp,35,↓,right,→,0.4344215999590233,False,68,-1,0,0
 Y2-S2-099K20,1,142,AS,exp,50,↑,right,→,0.1350249000824988,False,69,-1,0,0
 Y2-S2-099K20,1,143,AS,exp,40,↓,right,→,0.48433950007893145,False,70,-1,0,0
 Y2-S2-099K20,1,144,AS,exp,43,←,right,→,0.4517713999375701,False,71,-1,0,0
 Y2-S2-099K20,1,145,AS,exp,39,→,right,→,0.41774800000712276,True,72,-1,0,0
 Y2-S2-099K20,1,146,AS,exp,47,←,right,→,0.5010631999466568,False,72,-1,0,0
 Y2-S2-099K20,1,147,AS,exp,44,↑,right,→,0.2175647000549361,False,73,-1,0,0
 Y2-S2-099K20,1,148,AS,exp,44,↓,right,→,0.45106510003097355,False,74,-1,0,0
 Y2-S2-099K20,1,149,AS,exp,31,←,right,→,0.3177766000153497,False,75,-1,0,0
 Y2-S2-099K20,1,150,AS,exp,39,↓,right,→,0.6013286999659613,False,76,-1,0,0
 Y2-S2-099K20,1,151,AS,exp,47,↑,right,→,0.5679388999706134,False,77,-1,0,0
 Y2-S2-099K20,1,152,AS,exp,49,←,right,→,1.7341065999353305,False,78,-1,0,0
 Y2-S2-099K20,1,153,AS,exp,38,→,right,→,0.45107629999984056,True,79,-1,0,0
 Y2-S2-099K20,1,154,AS,exp,40,↑,right,→,0.5846506000962108,False,79,-1,0,0
 Y2-S2-099K20,1,155,AS,exp,39,→,down,↓,0.6343865999951959,False,80,-1,0,0
 Y2-S2-099K20,1,156,AS,exp,28,←,down,↓,0.4008816999848932,False,81,-1,0,0
 Y2-S2-099K20,1,157,AS,exp,32,→,down,↓,0.4339276000391692,False,82,-1,0,0
 Y2-S2-099K20,1,158,AS,exp,31,↓,down,↓,0.4011673000641167,True,83,-1,0,0
 Y2-S2-099K20,1,159,AS,exp,39,←,left,←,1.4671633000252768,True,83,-1,0,0
 Y2-S2-099K20,1,160,AS,exp,28,↑,up,↑,1.1177060999907553,True,83,1,1,1
 Y2-S2-099K20,1,161,AS,exp,27,↓,down,↓,0.9013390999753028,True,82,1,0,1
 Y2-S2-099K20,1,162,AS,exp,38,→,right,→,0.7844468000112101,True,82,1,0,1
 Y2-S2-099K20,1,163,AS,exp,37,↑,up,↑,0.6340273999376222,True,82,1,0,1
 Y2-S2-099K20,1,164,AS,exp,47,→,right,→,0.6846586000174284,True,81,1,0,1
 Y2-S2-099K20,1,165,AS,exp,31,←,left,←,1.0510995000367984,True,81,1,0,1
 Y2-S2-099K20,1,166,AS,exp,41,↑,up,↑,0.8511751999612898,True,81,1,0,1
 Y2-S2-099K20,1,167,AS,exp,47,↓,down,↓,0.7008480000076815,True,80,1,0,1
 Y2-S2-099K20,1,168,AS,exp,28,→,right,→,0.7842836999334395,True,80,1,0,1
 Y2-S2-099K20,1,169,AS,exp,37,↓,down,↓,0.9679080001078546,True,80,1,0,1
 Y2-S2-099K20,1,170,AS,exp,46,←,left,←,0.6174032000126317,True,79,1,0,1
 Y2-S2-099K20,1,171,AS,exp,39,↓,down,↓,0.7844665000448003,True,79,1,0,1
 Y2-S2-099K20,1,172,AS,exp,49,←,left,←,0.8176814999897033,True,79,1,0,1
 Y2-S2-099K20,1,173,AS,exp,37,→,right,→,0.817569199949503,True,78,1,0,1
 Y2-S2-099K20,1,174,AS,exp,38,←,left,←,0.9678162999916822,True,78,1,0,1
 Y2-S2-099K20,1,175,AS,exp,37,↑,up,↑,0.7510237999958917,True,78,1,0,1
 Y2-S2-099K20,1,176,AS,exp,26,→,right,→,0.8177470000227913,True,77,1,0,1
 Y2-S2-099K20,1,177,AS,exp,45,←,left,←,0.7010405999608338,True,77,1,0,1
 Y2-S2-099K20,1,178,AS,exp,33,↑,up,↑,0.784444099990651,True,77,1,0,1
 Y2-S2-099K20,1,179,AS,exp,28,←,right,→,0.5676378000061959,False,76,-1,1,2
 Y2-S2-099K20,1,180,AS,exp,28,↑,up,↑,0.9677748000249267,True,77,-1,0,2
 Y2-S2-099K20,1,181,AS,exp,32,↓,down,↓,0.8010116999503225,True,77,-1,0,2
 Y2-S2-099K20,1,182,AS,exp,44,↑,up,↑,0.6509341000346467,True,77,1,1,3
 Y2-S2-099K20,1,183,AS,exp,47,→,right,→,0.5011453999904916,True,76,1,0,3
 Y2-S2-099K20,1,184,AS,exp,31,↓,down,↓,0.8516719000181183,True,76,1,0,3
 Y2-S2-099K20,1,185,AS,exp,34,→,right,→,0.5844661999726668,True,76,1,0,3
 Y2-S2-099K20,1,186,AS,exp,28,↓,down,↓,0.6847289999714121,True,75,1,0,3
 Y2-S2-099K20,1,187,AS,exp,29,←,left,←,0.701197599992156,True,75,1,0,3
 Y2-S2-099K20,1,188,AS,exp,25,→,right,→,0.5843326000031084,True,75,1,0,3
 Y2-S2-099K20,1,189,AS,exp,46,←,left,←,0.9843095999676734,True,74,1,0,3
 Y2-S2-099K20,1,190,AS,exp,26,↓,down,↓,0.9176814999664202,True,74,1,0,3
 Y2-S2-099K20,1,191,AS,exp,34,←,left,←,0.9675705000991002,True,74,1,0,3
 Y2-S2-099K20,1,192,AS,exp,45,↑,up,↑,0.7345375999575481,True,73,1,0,3
 Y2-S2-099K20,1,193,AS,exp,43,→,right,→,0.9343973000068218,True,73,1,0,3
 Y2-S2-099K20,1,194,AS,exp,39,←,left,←,0.9011163000250235,True,73,1,0,3
 Y2-S2-099K20,1,195,AS,exp,27,↑,up,↑,0.5510325999930501,True,72,1,0,3
 Y2-S2-099K20,1,196,AS,exp,46,↓,down,↓,0.7342792999697849,True,72,1,0,3
 Y2-S2-099K20,1,197,AS,exp,29,→,right,→,0.6511498999316245,True,72,1,0,3
 Y2-S2-099K20,1,198,AS,exp,43,↓,down,↓,0.9344368999591097,True,71,1,0,3
 Y2-S2-099K20,1,199,AS,exp,47,↑,up,↑,1.0009172999998555,True,71,1,0,3
 Y2-S2-099K20,1,200,AS,exp,36,↓,down,↓,0.7677063000155613,True,71,1,0,3
 Y2-S2-099K20,1,201,AS,exp,42,↑,up,↑,0.9510720999678597,True,70,1,0,3
 Y2-S2-099K20,1,202,AS,exp,36,←,left,←,0.8846074000466615,True,70,1,0,3
 Y2-S2-099K20,1,203,AS,exp,27,↑,up,↑,0.7845396000193432,True,70,1,0,3
 Y2-S2-099K20,1,204,AS,exp,35,←,left,←,0.8011199999600649,True,69,1,0,3
 Y2-S2-099K20,1,205,AS,exp,41,→,right,→,0.651090000057593,True,69,1,0,3
 Y2-S2-099K20,1,206,AS,exp,38,↓,down,↓,0.5843948000110686,True,69,1,0,3
 Y2-S2-099K20,1,207,AS,exp,45,↑,up,↑,0.6176486000185832,True,68,1,0,3
 Y2-S2-099K20,1,208,AS,exp,34,←,left,←,1.1011444000760093,True,68,1,0,3
 Y2-S2-099K20,1,209,AS,exp,27,↓,down,↓,1.067977299913764,True,68,1,0,3
 Y2-S2-099K20,1,210,AS,exp,39,→,right,→,1.5348599998978898,True,67,1,0,3
 Y2-S2-099K20,1,211,AS,exp,35,←,left,←,1.0178114000009373,True,67,1,0,3
 Y2-S2-099K20,1,212,AS,exp,42,→,right,→,0.7341978999320418,True,67,1,0,3
 Y2-S2-099K20,1,213,AS,exp,29,←,left,←,0.8509814999997616,True,66,1,0,3
 Y2-S2-099K20,1,214,AS,exp,43,↑,up,↑,0.8842986000236124,True,66,1,0,3
 Y2-S2-099K20,1,215,AS,exp,40,↓,down,↓,0.8843968999572098,True,66,1,0,3
 Y2-S2-099K20,1,216,AS,exp,39,→,right,→,0.800996599951759,True,65,1,0,3
 Y2-S2-099K20,1,217,AS,exp,45,↑,up,↑,1.0010348999639973,True,65,1,0,3
 Y2-S2-099K20,1,218,AS,exp,45,↓,down,↓,1.0512151999864727,True,65,1,0,3
 Y2-S2-099K20,1,219,AS,exp,35,→,right,→,0.601025199983269,True,64,1,0,3
 Y2-S2-099K20,1,220,AS,exp,31,↑,up,↑,1.782614199910313,True,64,1,0,3
 Y2-S2-099K20,1,221,AS,exp,26,↓,down,↓,2.385908199939877,True,64,1,0,3
 Y2-S2-099K20,1,222,AS,exp,44,↑,right,→,0.48457109997980297,False,63,-1,1,4
 Y2-S2-099K20,1,223,AS,exp,44,←,left,←,0.867639199947007,True,64,-1,0,4
 Y2-S2-099K20,1,224,AS,exp,43,→,right,→,0.6011136999586597,True,64,-1,0,4
 Y2-S2-099K20,1,225,AS,exp,42,↑,up,↑,0.7679205000167713,True,64,1,1,5
 Y2-S2-099K20,1,226,AS,exp,30,←,left,←,1.13388420001138,True,63,1,0,5
 Y2-S2-099K20,1,227,AS,exp,26,→,right,→,0.8344089000020176,True,63,1,0,5
 Y2-S2-099K20,1,228,AS,exp,27,↑,up,↑,0.9339695000089705,True,63,1,0,5
 Y2-S2-099K20,1,229,AS,exp,31,←,left,←,0.8676967000355944,True,62,1,0,5
 Y2-S2-099K20,1,230,AS,exp,25,→,right,→,0.8177626999095082,True,62,1,0,5
 Y2-S2-099K20,1,231,AS,exp,28,↑,up,↑,0.734729400021024,True,62,1,0,5
 Y2-S2-099K20,1,232,AS,exp,40,←,left,←,1.0840835999697447,True,61,1,0,5
 Y2-S2-099K20,1,233,AS,exp,25,↑,up,↑,1.0507312999106944,True,61,1,0,5
 Y2-S2-099K20,1,234,AS,exp,36,→,right,→,0.551201399997808,True,61,1,0,5
 Y2-S2-099K20,1,235,AS,exp,39,←,left,←,0.9015631000511348,True,60,1,0,5
 Y2-S2-099K20,1,236,AS,exp,27,→,right,→,0.7677488999906927,True,60,1,0,5
 Y2-S2-099K20,1,237,AS,exp,32,↑,up,↑,0.501390999997966,True,60,1,0,5
 Y2-S2-099K20,1,238,AS,exp,39,←,left,←,0.7680929000489414,True,59,1,0,5
 Y2-S2-099K20,1,239,AS,exp,48,↓,down,↓,0.6509972999338061,True,59,1,0,5
 Y2-S2-099K20,1,240,AS,exp,30,←,left,←,1.0337757000233978,True,59,1,0,5
 Y2-S2-099K20,1,241,AS,exp,38,↑,up,↑,0.9839522000402212,True,58,1,0,5
 Y2-S2-099K20,1,242,AS,exp,40,→,right,→,0.6178607000038028,True,58,1,0,5
 Y2-S2-099K20,1,243,AS,exp,50,↓,down,↓,1.0506535000167787,True,58,1,0,5
 Y2-S2-099K20,1,244,AS,exp,34,←,left,←,0.8510156000265852,True,57,1,0,5
 Y2-S2-099K20,1,245,AS,exp,42,↓,down,↓,0.6678116000257432,True,57,1,0,5
 Y2-S2-099K20,1,246,AS,exp,25,→,right,→,0.6176718000788242,True,57,1,0,5
 Y2-S2-099K20,1,247,AS,exp,50,←,left,←,0.9013477000407875,True,56,1,0,5
 Y2-S2-099K20,1,248,AS,exp,35,→,right,→,0.9839221999282017,True,56,1,0,5
 Y2-S2-099K20,1,249,AS,exp,47,←,left,←,0.9511719000292942,True,56,1,0,5
 Y2-S2-099K20,1,250,AS,exp,46,↑,up,↑,0.8346266000298783,True,55,1,0,5
 Y2-S2-099K20,1,251,AS,exp,36,←,left,←,1.2580183000536636,True,55,1,0,5
 Y2-S2-099K20,1,252,AS,exp,42,→,right,→,1.1821114999474958,True,55,1,0,5
 Y2-S2-099K20,1,253,AS,exp,45,←,left,←,0.8176776999607682,True,54,1,0,5
 Y2-S2-099K20,1,254,AS,exp,29,→,right,→,0.9001238000346348,True,54,1,0,5
 Y2-S2-099K20,1,255,AS,exp,27,←,left,←,0.9005052000284195,True,54,1,0,5
 Y2-S2-099K20,1,256,AS,exp,30,→,right,→,0.9003716999432072,True,53,1,0,5
 Y2-S2-099K20,1,257,AS,exp,47,←,left,←,0.6845307999756187,True,53,1,0,5
 Y2-S2-099K20,1,258,AS,exp,26,↑,up,↑,1.7272933999774978,True,53,1,0,5
 Y2-S2-099K20,1,259,AS,exp,40,→,right,→,0.9005525000393391,True,52,1,0,5
 Y2-S2-099K20,1,260,AS,exp,32,←,left,←,0.7679816000163555,True,52,1,0,5
 Y2-S2-099K20,1,261,AS,exp,41,↑,up,↑,0.8508855999680236,True,52,1,0,5
 Y2-S2-099K20,1,262,AS,exp,37,→,right,→,0.6012550999876112,True,51,1,0,5
 Y2-S2-099K20,1,263,AS,exp,33,←,left,←,1.057626000023447,True,51,1,0,5
 Y2-S2-099K20,1,264,AS,exp,43,→,right,→,1.94916329998523,True,51,1,0,5
 Y2-S2-099K20,1,265,AS,exp,42,↓,down,↓,0.9174197999527678,True,50,1,0,5
 Y2-S2-099K20,1,266,AS,exp,48,←,left,←,0.967823899933137,True,50,1,0,5
 Y2-S2-099K20,1,267,AS,exp,50,↑,up,↑,0.8498280000640079,True,50,1,0,5
 Y2-S2-099K20,1,268,AS,exp,31,→,right,→,1.093913200078532,True,49,1,0,5
 Y2-S2-099K20,1,269,AS,exp,48,↓,down,↓,0.8004719000309706,True,49,1,0,5
 Y2-S2-099K20,1,270,AS,exp,34,→,right,→,0.6845090000424534,True,49,1,0,5
 Y2-S2-099K20,1,271,AS,exp,45,←,left,←,1.0245162000646815,True,48,1,0,5
 Y2-S2-099K20,1,272,AS,exp,40,→,right,→,1.090107599971816,True,48,1,0,5
 Y2-S2-099K20,1,273,AS,exp,39,↓,down,↓,1.716577299986966,True,48,1,0,5
 Y2-S2-099K20,1,274,AS,exp,44,→,right,→,0.8006443999474868,True,47,1,0,5
 Y2-S2-099K20,1,275,AS,exp,33,←,left,←,0.97221660008654,True,47,1,0,5
 Y2-S2-099K20,1,276,AS,exp,31,→,right,→,0.7176271999487653,True,47,1,0,5
 Y2-S2-099K20,1,277,AS,exp,43,↓,down,↓,1.2297269999980927,True,46,1,0,5
 Y2-S2-099K20,1,278,AS,exp,29,→,right,→,0.8170666999649256,True,46,1,0,5
 Y2-S2-099K20,1,279,AS,exp,43,↓,down,↓,0.5509551999857649,True,46,1,0,5
 Y2-S2-099K20,1,280,AS,exp,41,→,right,→,0.551070100045763,True,45,1,0,5
 Y2-S2-099K20,1,281,AS,exp,39,←,left,←,0.8507507999893278,True,45,1,0,5
 Y2-S2-099K20,1,282,AS,exp,49,↓,down,↓,0.8503495000768453,True,45,1,0,5
 Y2-S2-099K20,1,283,AS,exp,27,→,right,→,0.7837141000200063,True,44,1,0,5
 Y2-S2-099K20,1,284,AS,exp,42,↓,down,↓,0.6180175000336021,True,44,1,0,5
 Y2-S2-099K20,1,285,AS,exp,42,↑,up,↑,0.5178634999319911,True,44,1,0,5
 Y2-S2-099K20,1,286,AS,exp,48,→,right,→,0.6677319000009447,True,43,1,0,5
 Y2-S2-099K20,1,287,AS,exp,27,↑,up,↑,0.9589311999734491,True,43,1,0,5
 Y2-S2-099K20,1,288,AS,exp,39,↓,down,↓,0.5843490000115708,True,43,1,0,5
 Y2-S2-099K20,1,289,AS,exp,34,←,left,←,1.032690600026399,True,42,1,0,5
 Y2-S2-099K20,1,290,AS,exp,49,→,right,→,0.6176952999085188,True,42,1,0,5
 Y2-S2-099K20,1,291,AS,exp,44,↓,down,↓,0.7344216000055894,True,42,1,0,5
 Y2-S2-099K20,1,292,AS,exp,29,↑,up,↑,1.2868706000735983,True,41,1,0,5
 Y2-S2-099K20,1,293,AS,exp,34,→,right,→,0.6676218999782577,True,41,1,0,5
 Y2-S2-099K20,1,294,AS,exp,33,←,left,←,0.8678837999468669,True,41,1,0,5
 Y2-S2-099K20,1,295,AS,exp,33,→,right,→,0.9059063999447972,True,40,1,0,5
 Y2-S2-099K20,1,296,AS,exp,46,↑,right,→,1.316956999944523,False,40,-1,1,6
 Y2-S2-099K20,1,297,AS,exp,37,↓,down,↓,0.9785011999774724,True,41,-1,0,6
 Y2-S2-099K20,1,298,AS,exp,39,↑,up,↑,0.9324673999799415,True,41,-1,0,6
 Y2-S2-099K20,1,299,AS,exp,50,←,left,←,0.9776158999884501,True,41,1,1,7
 Y2-S2-099K20,1,300,AS,exp,41,→,right,→,0.7005335000576451,True,40,1,0,7
 Y2-S2-099K20,1,301,AS,exp,30,↑,up,↑,0.6838438999839127,True,40,1,0,7
 Y2-S2-099K20,1,302,AS,exp,40,←,left,←,0.872459499980323,True,40,1,0,7
 Y2-S2-099K20,1,303,AS,exp,43,↓,down,↓,0.684120999998413,True,39,1,0,7
 Y2-S2-099K20,1,304,AS,exp,44,→,right,→,0.6505836000433192,True,39,1,0,7
 Y2-S2-099K20,1,305,AS,exp,27,←,left,←,1.1673288999591023,True,39,1,0,7
 Y2-S2-099K20,1,306,AS,exp,36,↓,down,↓,0.9605195000767708,True,38,1,0,7
 Y2-S2-099K20,1,307,AS,exp,45,←,left,←,0.9605975999729708,True,38,1,0,7
 Y2-S2-099K20,1,308,AS,exp,50,↑,up,↑,0.810442499932833,True,38,1,0,7
 Y2-S2-099K20,1,309,AS,exp,43,↓,down,↓,1.7449693999951705,True,37,1,0,7
 Y2-S2-099K20,1,310,AS,exp,46,↑,up,↑,1.8148210999788716,True,37,1,0,7
 Y2-S2-099K20,1,311,AS,exp,46,←,left,←,0.8296164000639692,True,37,1,0,7
 Y2-S2-099K20,1,312,AS,exp,41,↑,up,↑,0.5856526999268681,True,36,1,0,7
 Y2-S2-099K20,1,313,AS,exp,43,↓,down,↓,0.6507311000023037,True,36,1,0,7
 Y2-S2-099K20,1,314,AS,exp,44,←,left,←,0.6838474000105634,True,36,1,0,7
 Y2-S2-099K20,1,315,AS,exp,31,↓,down,↓,0.6174542000517249,True,35,1,0,7
 Y2-S2-099K20,1,316,AS,exp,25,↑,up,↑,0.6839326999615878,True,35,1,0,7
 Y2-S2-099K20,1,317,AS,exp,32,←,left,←,0.8396842000074685,True,35,1,0,7
 Y2-S2-099K20,1,318,AS,exp,27,→,right,→,0.6671592999482527,True,34,1,0,7
 Y2-S2-099K20,1,319,AS,exp,36,↓,down,↓,0.5675786000210792,True,34,1,0,7
 Y2-S2-099K20,1,320,AS,exp,42,→,right,→,0.5508139000739902,True,34,1,0,7
 Y2-S2-099K20,1,321,AS,exp,30,↑,up,↑,1.830755400005728,True,33,1,0,7
 Y2-S2-099K20,1,322,AS,exp,49,↓,down,↓,0.6832603000802919,True,33,1,0,7
 Y2-S2-099K20,1,323,AS,exp,32,→,right,→,0.6172193000093102,True,33,1,0,7
 Y2-S2-099K20,1,324,AS,exp,39,↑,up,↑,0.41782190010417253,True,32,1,0,7
 Y2-S2-099K20,1,325,AS,exp,40,↓,down,↓,0.501164700021036,True,32,1,0,7
 Y2-S2-099K20,1,326,AS,exp,25,↑,up,↑,0.8795011999318376,True,32,1,0,7
 Y2-S2-099K20,1,327,AS,exp,36,←,left,←,1.1112060999730602,True,31,1,0,7
 Y2-S2-099K20,1,328,AS,exp,25,→,right,→,0.5675795999122784,True,31,1,0,7
 Y2-S2-099K20,1,329,AS,exp,49,↓,down,↓,0.8921651999698952,True,31,1,0,7
 Y2-S2-099K20,1,330,AS,exp,29,←,left,←,0.8814258000347763,True,30,1,0,7
 Y2-S2-099K20,1,331,AS,exp,43,↑,up,↑,0.43485530000180006,True,30,1,0,7
 Y2-S2-099K20,1,332,AS,exp,47,→,right,→,0.7483652000082657,True,30,1,0,7
 Y2-S2-099K20,1,333,AS,exp,47,↓,down,↓,1.2578772000269964,True,29,1,0,7
 Y2-S2-099K20,1,334,AS,exp,26,←,left,←,0.8712806000839919,True,29,1,0,7
 Y2-S2-099K20,1,335,AS,exp,48,↑,up,↑,0.6763637999538332,True,29,1,0,7
 Y2-S2-099K20,1,336,AS,exp,46,←,left,←,0.8263450999511406,True,28,1,0,7
 Y2-S2-099K20,1,337,AS,exp,41,→,up,↑,0.914442399982363,False,28,-1,1,8
 Y2-S2-099K20,1,338,AS,exp,40,↓,down,↓,0.8177632000297308,True,29,-1,0,8
 Y2-S2-099K20,1,339,AS,exp,37,←,left,←,0.869277699966915,True,29,-1,0,8
 Y2-S2-099K20,1,340,AS,exp,28,↓,down,↓,0.8191471000900492,True,29,1,1,9
 Y2-S2-099K20,1,341,AS,exp,34,←,left,←,0.8313736000563949,True,28,1,0,9
 Y2-S2-099K20,1,342,AS,exp,35,↓,down,↓,1.2234049999387935,True,28,1,0,9
 Y2-S2-099K20,1,343,AS,exp,33,←,left,←,0.8769603000255302,True,28,1,0,9
 Y2-S2-099K20,1,344,AS,exp,28,↓,down,↓,0.754074199940078,True,27,1,0,9
 Y2-S2-099K20,1,345,AS,exp,36,→,right,→,0.9287659999681637,True,27,1,0,9
 Y2-S2-099K20,1,346,AS,exp,39,↓,down,↓,0.7167231000494212,True,27,1,0,9
 Y2-S2-099K20,1,347,AS,exp,29,←,left,←,0.7308727001072839,True,26,1,0,9
 Y2-S2-099K20,1,348,AS,exp,38,→,right,→,0.9148578000022098,True,26,1,0,9
 Y2-S2-099K20,1,349,AS,exp,34,↓,down,↓,0.7745944000780582,True,26,1,0,9
 Y2-S2-099K20,1,350,AS,exp,43,→,up,↑,1.1080430999863893,False,25,-1,1,10
 Y2-S2-099K20,1,351,AS,exp,27,↓,down,↓,0.6399945999728516,True,26,-1,0,10
 Y2-S2-099K20,1,352,AS,exp,50,←,left,←,0.8827735000522807,True,26,-1,0,10
 Y2-S2-099K20,1,353,AS,exp,32,→,right,→,1.6209468999877572,True,26,1,1,11
 Y2-S2-099K20,1,354,AS,exp,41,←,left,←,0.7554824000690132,True,25,1,0,11
 Y2-S2-099K20,1,355,AS,exp,35,↓,down,↓,0.5902309000957757,True,25,1,0,11
 Y2-S2-099K20,1,356,AS,exp,31,→,right,→,0.8167321999790147,True,25,1,0,11
 Y2-S2-099K20,1,357,AS,exp,26,↑,up,↑,1.2716359000187367,True,24,1,0,11
 Y2-S2-099K20,1,358,AS,exp,32,→,right,→,0.7793455999344587,True,24,1,0,11
 Y2-S2-099K20,1,359,AS,exp,33,↓,down,↓,1.5714714000932872,True,24,1,0,11
 Y2-S2-099K20,1,360,AS,exp,39,→,right,→,0.9741652000229806,True,23,1,0,11
 Y2-S2-099K20,1,361,AS,exp,46,↑,up,↑,0.6577344998950139,True,23,1,0,11
 Y2-S2-099K20,1,362,AS,exp,43,→,right,→,0.7120285000419244,True,23,1,0,11
 Y2-S2-099K20,1,363,AS,exp,37,↓,down,↓,1.6276430999860168,True,22,1,0,11
 Y2-S2-099K20,1,364,AS,exp,31,↑,up,↑,0.8689828999340534,True,22,1,0,11
 Y2-S2-099K20,1,365,AS,exp,48,→,right,→,0.8565229999367148,True,22,1,0,11
 Y2-S2-099K20,1,366,AS,exp,31,↑,up,↑,0.8512918000342324,True,21,1,0,11
 Y2-S2-099K20,1,367,AS,exp,39,↓,down,↓,0.7888397000497207,True,21,1,0,11
 Y2-S2-099K20,1,368,AS,exp,29,←,left,←,0.9543831000337377,True,21,1,0,11
 Y2-S2-099K20,1,369,AS,exp,37,↓,up,↑,0.8223293999908492,False,20,-1,1,12
 Y2-S2-099K20,1,370,AS,exp,38,←,left,←,0.807571200071834,True,21,-1,0,12
 Y2-S2-099K20,1,371,AS,exp,47,→,down,↓,0.810181500040926,False,21,-1,0,12
 Y2-S2-099K20,1,372,AS,exp,28,↑,down,↓,0.9019774000626057,False,22,-1,0,12
 Y2-S2-099K20,1,373,AS,exp,40,←,right,→,1.0241106000030413,False,23,-1,0,12
 Y2-S2-099K20,1,374,AS,exp,50,→,right,→,0.6852598000550643,True,24,-1,0,12
 Y2-S2-099K20,1,375,AS,exp,42,↓,up,↑,1.2939158000517637,False,24,-1,0,12
 Y2-S2-099K20,1,376,AS,exp,45,↑,up,↑,0.755187000031583,True,25,-1,0,12
 Y2-S2-099K20,1,377,AS,exp,39,↓,down,↓,0.6124318999936804,True,25,-1,0,12
 Y2-S2-099K20,1,378,AS,exp,30,↑,up,↑,1.1213329000165686,True,25,1,1,13
 Y2-S2-099K20,1,379,AS,exp,39,↓,down,↓,0.7558800000697374,True,24,1,0,13
 Y2-S2-099K20,1,380,AS,exp,26,→,up,↑,1.06253039999865,False,24,-1,1,14
 Y2-S2-099K20,1,381,AS,exp,36,←,down,↓,1.2503021999727935,False,25,-1,0,14
 Y2-S2-099K20,1,382,AS,exp,32,↑,down,↓,0.9455169000430033,False,26,-1,0,14
 Y2-S2-099K20,1,383,AS,exp,44,↓,down,↓,0.3677125000394881,True,27,-1,0,14
 Y2-S2-099K20,1,384,AS,exp,48,←,right,→,0.26759179995860904,False,27,-1,0,14
 Y2-S2-099K20,1,385,AS,exp,26,→,right,→,0.5174176000291482,True,28,-1,0,14
 Y2-S2-099K20,1,386,AS,exp,34,←,left,←,1.3039371999911964,True,28,-1,0,14
 Y2-S2-099K20,1,387,AS,exp,47,→,right,→,1.085779800079763,True,28,1,1,15
 Y2-S2-099K20,1,388,AS,exp,42,←,left,←,1.0755144000286236,True,27,1,0,15
 Y2-S2-099K20,1,389,AS,exp,32,↑,up,↑,1.2292874000268057,True,27,1,0,15
 Y2-S2-099K20,1,390,AS,exp,42,←,left,←,1.1869811000069603,True,27,1,0,15
 Y2-S2-099K20,1,391,AS,exp,46,↑,up,↑,1.1930549999233335,True,26,1,0,15
 Y2-S2-099K20,1,392,AS,exp,31,←,left,←,1.501711399992928,True,26,1,0,15
 Y2-S2-099K20,1,393,AS,exp,29,→,right,→,1.040744400001131,True,26,1,0,15
 Y2-S2-099K20,1,394,AS,exp,43,←,left,←,1.366137700038962,True,25,1,0,15
 Y2-S2-099K20,1,395,AS,exp,25,→,right,→,1.1455942000029609,True,25,1,0,15
 Y2-S2-099K20,1,396,AS,exp,40,↑,up,↑,1.0689190999837592,True,25,1,0,15
 Y2-S2-099K20,1,397,AS,exp,46,←,left,←,1.0215766000328586,True,24,1,0,15
 Y2-S2-099K20,1,398,AS,exp,45,→,right,→,1.1002233000472188,True,24,1,0,15
 Y2-S2-099K20,1,399,AS,exp,45,←,left,←,1.1139499000273645,True,24,1,0,15
 Y2-S2-099K20,1,400,AS,exp,32,→,right,→,0.9617313999915496,True,23,1,0,15
 Y2-S2-099K20,1,401,AS,exp,38,←,left,←,1.1596479000290856,True,23,1,0,15
 Y2-S2-099K20,1,402,AS,exp,30,→,right,→,1.055950199952349,True,23,1,0,15
 Y2-S2-099K20,1,403,AS,exp,41,↓,right,→,1.492242999956943,False,22,-1,1,16
 Y2-S2-099K20,2,404,PS,intra_train,34,→,right,→,0.7706755000399426,True,31,-,-,-
 Y2-S2-099K20,2,405,PS,intra_train,43,↓,down,↓,0.6172600999707356,True,31,-,-,-
 Y2-S2-099K20,2,406,PS,intra_train,38,↑,up,↑,0.384415699983947,True,31,-,-,-
 Y2-S2-099K20,2,407,PS,intra_train,50,←,right,→,0.7617028000531718,False,31,-,-,-
 Y2-S2-099K20,2,408,PS,intra_train,41,↓,down,↓,0.5837757000699639,True,31,-,-,-
 Y2-S2-099K20,2,409,PS,exp,45,→,right,→,0.6166764000663534,True,21,0,0,0
 Y2-S2-099K20,2,410,PS,exp,42,←,right,→,1.0825747000053525,False,21,-1,0,0
 Y2-S2-099K20,2,411,PS,exp,29,↑,up,↑,1.0735259000211954,True,22,-1,0,0
 Y2-S2-099K20,2,412,PS,exp,26,↓,no_key,no_letter,-1.0,False,22,-1,0,0
 Y2-S2-099K20,2,413,PS,exp,28,→,right,→,0.657969200052321,True,23,-1,0,0
 Y2-S2-099K20,2,414,PS,exp,37,↑,no_key,no_letter,-1.0,False,23,-1,0,0
 Y2-S2-099K20,2,415,PS,exp,50,←,left,←,0.9115011000540107,True,24,-1,0,0
 Y2-S2-099K20,2,416,PS,exp,38,↑,down,↓,1.3342397999949753,False,24,-1,0,0
 Y2-S2-099K20,2,417,PS,exp,43,←,right,→,0.6864320000167936,False,25,-1,0,0
 Y2-S2-099K20,2,418,PS,exp,42,→,right,→,0.6083925999701023,True,26,-1,0,0
 Y2-S2-099K20,2,419,PS,exp,44,↑,up,↑,0.6066917999414727,True,26,-1,0,0
 Y2-S2-099K20,2,420,PS,exp,28,↓,down,↓,0.8338632000377402,True,26,1,1,1
 Y2-S2-099K20,2,421,PS,exp,46,↑,up,↑,0.6288554000202566,True,25,1,0,1
 Y2-S2-099K20,2,422,PS,exp,34,↓,down,↓,0.7709925000090152,True,25,1,0,1
 Y2-S2-099K20,2,423,PS,exp,47,→,up,↑,0.9154263000236824,False,25,-1,1,2
 Y2-S2-099K20,2,424,PS,exp,34,↓,down,↓,1.0942485999548808,True,26,-1,0,2
 Y2-S2-099K20,2,425,PS,exp,48,↑,up,↑,0.6628673999803141,True,26,-1,0,2
 Y2-S2-099K20,2,426,PS,exp,49,←,left,←,0.8619289000052959,True,26,1,1,3
 Y2-S2-099K20,2,427,PS,exp,37,↓,down,↓,1.3950735001126304,True,25,1,0,3
 Y2-S2-099K20,2,428,PS,exp,31,→,down,↓,1.1486208999995142,False,25,-1,1,4
 Y2-S2-099K20,2,429,PS,exp,47,↑,up,↑,0.6445731000276282,True,26,-1,0,4
 Y2-S2-099K20,2,430,PS,exp,29,↓,down,↓,0.6187813999131322,True,26,-1,0,4
 Y2-S2-099K20,2,431,PS,exp,40,←,left,←,1.0126751998905092,True,26,1,1,5
 Y2-S2-099K20,2,432,PS,exp,47,↓,down,↓,0.5006796999368817,True,25,1,0,5
 Y2-S2-099K20,2,433,PS,exp,31,→,right,→,0.8756469999207184,True,25,1,0,5
 Y2-S2-099K20,2,434,PS,exp,43,←,left,←,1.063882900052704,True,25,1,0,5
 Y2-S2-099K20,2,435,PS,exp,38,↓,down,↓,0.5004709999775514,True,24,1,0,5
 Y2-S2-099K20,2,436,PS,exp,36,←,down,↓,0.9813595999730751,False,24,-1,1,6
 Y2-S2-099K20,2,437,PS,exp,49,→,down,↓,1.1825983000453562,False,25,-1,0,6
 Y2-S2-099K20,2,438,PS,exp,50,↑,down,↓,1.0504034999758005,False,26,-1,0,6
 Y2-S2-099K20,2,439,PS,exp,37,←,down,↓,0.500730499974452,False,27,-1,0,6
 Y2-S2-099K20,2,440,PS,exp,30,↓,down,↓,0.5506247000303119,True,28,-1,0,6
 Y2-S2-099K20,2,441,PS,exp,42,←,down,↓,0.6005864000180736,False,28,-1,0,6
 Y2-S2-099K20,2,442,PS,exp,26,→,down,↓,1.2231851000105962,False,29,-1,0,6
 Y2-S2-099K20,2,443,PS,exp,41,←,down,↓,1.0960970999440178,False,30,-1,0,6
 Y2-S2-099K20,2,444,PS,exp,39,→,down,↓,1.3496600000653416,False,31,-1,0,6
 Y2-S2-099K20,2,445,PS,exp,35,↑,down,↓,0.4676816000137478,False,32,-1,0,6
 Y2-S2-099K20,2,446,PS,exp,25,←,down,↓,0.5674738999223337,False,33,-1,0,6
 Y2-S2-099K20,2,447,PS,exp,37,↓,down,↓,0.45116329996380955,True,34,-1,0,6
 Y2-S2-099K20,2,448,PS,exp,39,↑,down,↓,0.6509888999862596,False,34,-1,0,6
 Y2-S2-099K20,2,449,PS,exp,32,↓,down,↓,0.26796869991812855,True,35,-1,0,6
 Y2-S2-099K20,2,450,PS,exp,32,←,down,↓,0.5179409999400377,False,35,-1,0,6
 Y2-S2-099K20,2,451,PS,exp,44,→,down,↓,0.4180573000339791,False,36,-1,0,6
 Y2-S2-099K20,2,452,PS,exp,41,↑,down,↓,0.20123220002278686,False,37,-1,0,6
 Y2-S2-099K20,2,453,PS,exp,39,↓,down,↓,0.417793000000529,True,38,-1,0,6
 Y2-S2-099K20,2,454,PS,exp,46,↑,down,↓,0.31766820000484586,False,38,-1,0,6
 Y2-S2-099K20,2,455,PS,exp,45,←,down,↓,0.5009712000610307,False,39,-1,0,6
 Y2-S2-099K20,2,456,PS,exp,28,↑,down,↓,0.384277299977839,False,40,-1,0,6
 Y2-S2-099K20,2,457,PS,exp,26,→,down,↓,0.5511125000193715,False,41,-1,0,6
 Y2-S2-099K20,2,458,PS,exp,47,↑,down,↓,0.43472499994095415,False,42,-1,0,6
 Y2-S2-099K20,2,459,PS,exp,31,↓,down,↓,0.3008360000094399,True,43,-1,0,6
 Y2-S2-099K20,2,460,PS,exp,45,←,right,→,0.3844754999736324,False,43,-1,0,6
 Y2-S2-099K20,2,461,PS,exp,34,↓,down,↓,0.6508450000546873,True,44,-1,0,6
 Y2-S2-099K20,2,462,PS,exp,50,↑,up,↑,2.024388499907218,True,44,-1,0,6
 Y2-S2-099K20,2,463,PS,exp,35,↓,down,↓,0.5676860000239685,True,44,1,1,7
 Y2-S2-099K20,2,464,PS,exp,45,↑,up,↑,0.33429090003483,True,43,1,0,7
 Y2-S2-099K20,2,465,PS,exp,36,←,left,←,1.1951891999924555,True,43,1,0,7
 Y2-S2-099K20,2,466,PS,exp,35,→,right,→,0.8172227001050487,True,43,1,0,7
 Y2-S2-099K20,2,467,PS,exp,26,←,left,←,0.9550120999338105,True,42,1,0,7
 Y2-S2-099K20,2,468,PS,exp,30,→,right,→,0.8907495000166818,True,42,1,0,7
 Y2-S2-099K20,2,469,PS,exp,49,↓,down,↓,1.0196547000668943,True,42,1,0,7
 Y2-S2-099K20,2,470,PS,exp,49,←,left,←,0.9431120998924598,True,41,1,0,7
 Y2-S2-099K20,2,471,PS,exp,50,↓,down,↓,0.6011702999239787,True,41,1,0,7
 Y2-S2-099K20,2,472,PS,exp,37,→,right,→,0.7506180999334902,True,41,1,0,7
 Y2-S2-099K20,2,473,PS,exp,27,←,left,←,1.3202160000801086,True,40,1,0,7
 Y2-S2-099K20,2,474,PS,exp,48,→,right,→,0.7675380000146106,True,40,1,0,7
 Y2-S2-099K20,2,475,PS,exp,44,←,right,→,0.667046400019899,False,40,-1,1,8
 Y2-S2-099K20,2,476,PS,exp,30,↓,down,↓,0.6509696000721306,True,41,-1,0,8
 Y2-S2-099K20,2,477,PS,exp,29,↑,up,↑,0.9084131000563502,True,41,-1,0,8
 Y2-S2-099K20,2,478,PS,exp,36,←,left,←,0.7341638000216335,True,41,1,1,9
 Y2-S2-099K20,2,479,PS,exp,28,↑,up,↑,1.0028571999864653,True,40,1,0,9
 Y2-S2-099K20,2,480,PS,exp,30,→,right,→,0.667487800004892,True,40,1,0,9
 Y2-S2-099K20,2,481,PS,exp,34,↓,down,↓,0.9504401999292895,True,40,1,0,9
 Y2-S2-099K20,2,482,PS,exp,43,→,right,→,0.8795172000536695,True,39,1,0,9
 Y2-S2-099K20,2,483,PS,exp,37,↑,up,↑,1.2873305999673903,True,39,1,0,9
 Y2-S2-099K20,2,484,PS,exp,42,←,left,←,1.1557411999674514,True,39,1,0,9
 Y2-S2-099K20,2,485,PS,exp,35,→,right,→,1.1271792000625283,True,38,1,0,9
 Y2-S2-099K20,2,486,PS,exp,49,←,left,←,0.8487092000432312,True,38,1,0,9
 Y2-S2-099K20,2,487,PS,exp,39,→,right,→,0.6170564999338239,True,38,1,0,9
 Y2-S2-099K20,2,488,PS,exp,40,←,right,→,1.3559842000249773,False,37,-1,1,10
 Y2-S2-099K20,2,489,PS,exp,27,→,right,→,0.551226400071755,True,38,-1,0,10
 Y2-S2-099K20,2,490,PS,exp,37,←,left,←,1.0526186000788584,True,38,-1,0,10
 Y2-S2-099K20,2,491,PS,exp,40,↑,down,↓,1.3462550000986084,False,38,-1,0,10
 Y2-S2-099K20,2,492,PS,exp,30,↓,down,↓,0.7341955000301823,True,39,-1,0,10
 Y2-S2-099K20,2,493,PS,exp,25,→,right,→,0.6509724999777973,True,39,-1,0,10
 Y2-S2-099K20,2,494,PS,exp,46,↓,down,↓,0.6840842999517918,True,39,1,1,11
 Y2-S2-099K20,2,495,PS,exp,45,←,left,←,1.0256639000726864,True,38,1,0,11
 Y2-S2-099K20,2,496,PS,exp,33,↓,down,↓,0.6837292000418529,True,38,1,0,11
 Y2-S2-099K20,2,497,PS,exp,40,←,right,→,0.8929811000125483,False,38,-1,1,12
 Y2-S2-099K20,2,498,PS,exp,25,↑,up,↑,0.500819000066258,True,39,-1,0,12
 Y2-S2-099K20,2,499,PS,exp,36,↓,down,↓,0.4342002000194043,True,39,-1,0,12
 Y2-S2-099K20,2,500,PS,exp,33,↑,up,↑,1.661118199932389,True,39,1,1,13
 Y2-S2-099K20,2,501,PS,exp,38,→,right,→,0.9262546999379992,True,38,1,0,13
 Y2-S2-099K20,2,502,PS,exp,39,↑,up,↑,1.7936593999620527,True,38,1,0,13
 Y2-S2-099K20,2,503,PS,exp,33,→,right,→,1.0393673999933526,True,38,1,0,13
 Y2-S2-099K20,2,504,PS,exp,32,↓,down,↓,0.5179448000853881,True,37,1,0,13
 Y2-S2-099K20,2,505,PS,exp,25,↑,up,↑,0.8514253000030294,True,37,1,0,13
 Y2-S2-099K20,2,506,PS,exp,34,→,right,→,1.035545299993828,True,37,1,0,13
 Y2-S2-099K20,2,507,PS,exp,41,←,right,→,1.0619701000396162,False,36,-1,1,14
 Y2-S2-099K20,2,508,PS,exp,42,→,right,→,1.5041494999313727,True,37,-1,0,14
 Y2-S2-099K20,2,509,PS,exp,34,↓,down,↓,1.581472499994561,True,37,-1,0,14
 Y2-S2-099K20,2,510,PS,exp,41,→,right,→,1.4249250000575557,True,37,1,1,15
 Y2-S2-099K20,2,511,PS,exp,32,↓,no_key,no_letter,-1.0,False,36,-1,1,16
 Y2-S2-099K20,3,512,PS,intra_train,25,→,right,→,0.9186908999690786,True,31,-,-,-
 Y2-S2-099K20,3,513,PS,intra_train,27,↑,up,↑,1.3164389999583364,True,31,-,-,-
 Y2-S2-099K20,3,514,PS,intra_train,32,←,left,←,1.3191715000430122,True,31,-,-,-
 Y2-S2-099K20,3,515,PS,intra_train,33,↑,up,↑,1.206194700091146,True,31,-,-,-
 Y2-S2-099K20,3,516,PS,intra_train,30,↓,down,↓,0.8946973000420257,True,31,-,-,-
 Y2-S2-099K20,3,517,PS,exp,27,→,right,→,0.7154375999234617,True,21,0,0,0
 Y2-S2-099K20,3,518,PS,exp,47,↑,up,↑,0.7309730000561103,True,21,0,0,0
 Y2-S2-099K20,3,519,PS,exp,35,↓,down,↓,0.7424993000458926,True,21,1,0,0
 Y2-S2-099K20,3,520,PS,exp,49,→,left,←,1.143049000063911,False,20,-1,1,1
 Y2-S2-099K20,3,521,PS,exp,31,↑,up,↑,0.9368955000536516,True,21,-1,0,1
 Y2-S2-099K20,3,522,PS,exp,33,→,right,→,1.1607826999388635,True,21,-1,0,1
 Y2-S2-099K20,3,523,PS,exp,42,←,right,→,1.4732174000237137,False,21,-1,0,1
 Y2-S2-099K20,3,524,PS,exp,27,→,right,→,1.080860699992627,True,22,-1,0,1
 Y2-S2-099K20,3,525,PS,exp,38,←,right,→,0.6943086999235675,False,22,-1,0,1
 Y2-S2-099K20,3,526,PS,exp,43,↓,down,↓,1.2784312000731006,True,23,-1,0,1
 Y2-S2-099K20,3,527,PS,exp,29,↑,up,↑,1.000578699982725,True,23,-1,0,1
 Y2-S2-099K20,3,528,PS,exp,34,→,right,→,0.7886369000189006,True,23,1,1,2
 Y2-S2-099K20,3,529,PS,exp,42,↓,right,→,0.698047099984251,False,22,-1,1,3
 Y2-S2-099K20,3,530,PS,exp,29,←,up,↑,0.7460628000553697,False,23,-1,0,3
 Y2-S2-099K20,3,531,PS,exp,29,→,up,↑,0.8512821000767872,False,24,-1,0,3
 Y2-S2-099K20,3,532,PS,exp,31,↑,down,↓,1.4132034999784082,False,25,-1,0,3
 Y2-S2-099K20,3,533,PS,exp,28,↓,right,→,1.6612505000084639,False,26,-1,0,3
 Y2-S2-099K20,3,534,PS,exp,34,↑,left,←,1.1114079999970272,False,27,-1,0,3
 Y2-S2-099K20,3,535,PS,exp,34,←,right,→,1.3482014000182971,False,28,-1,0,3
 Y2-S2-099K20,3,536,PS,exp,47,↑,up,↑,1.037511800066568,True,29,-1,0,3
 Y2-S2-099K20,3,537,PS,exp,31,←,right,→,1.8942568000638857,False,29,-1,0,3
 Y2-S2-099K20,3,538,PS,exp,27,↑,down,↓,1.8907684999285266,False,30,-1,0,3
 Y2-S2-099K20,3,539,PS,exp,43,→,up,↑,1.4109102999791503,False,31,-1,0,3
 Y2-S2-099K20,3,540,PS,exp,47,↑,right,→,1.7462263000197709,False,32,-1,0,3
 Y2-S2-099K20,3,541,PS,exp,39,←,up,↑,1.8876139000058174,False,33,-1,0,3
 Y2-S2-099K20,3,542,PS,exp,29,↓,up,↑,1.4546486999606714,False,34,-1,0,3
 Y2-S2-099K20,3,543,PS,exp,42,→,down,↓,0.8158073999220505,False,35,-1,0,3
 Y2-S2-099K20,3,544,PS,exp,45,↑,right,→,0.6504490000661463,False,36,-1,0,3
 Y2-S2-099K20,3,545,PS,exp,29,↓,down,↓,1.4266520000528544,True,37,-1,0,3
 Y2-S2-099K20,3,546,PS,exp,45,↑,up,↑,1.3277487999293953,True,37,-1,0,3
 Y2-S2-099K20,3,547,PS,exp,35,→,right,→,1.3493087000679225,True,37,1,1,4
 Y2-S2-099K20,3,548,PS,exp,26,↑,left,←,2.032742900075391,False,36,-1,1,5
 Y2-S2-099K20,3,549,PS,exp,31,←,up,↑,1.1877387000713497,False,37,-1,0,5
 Y2-S2-099K20,3,550,PS,exp,29,↑,down,↓,2.0406428000424057,False,38,-1,0,5
 Y2-S2-099K20,3,551,PS,exp,29,←,no_key,no_letter,-1.0,False,39,-1,0,5
 Y2-S2-099K20,3,552,PS,exp,41,↓,no_key,no_letter,-1.0,False,40,-1,0,5
 Y2-S2-099K20,3,553,PS,exp,28,→,no_key,no_letter,-1.0,False,41,-1,0,5
 Y2-S2-099K20,3,554,PS,exp,46,←,right,→,1.2903923999983817,False,42,-1,0,5
 Y2-S2-099K20,3,555,PS,exp,50,↑,down,↓,1.3935030000284314,False,43,-1,0,5
 Y2-S2-099K20,3,556,PS,exp,42,→,up,↑,1.868809700012207,False,44,-1,0,5
 Y2-S2-099K20,3,557,PS,exp,35,↑,no_key,no_letter,-1.0,False,45,-1,0,5
 Y2-S2-099K20,3,558,PS,exp,31,→,no_key,no_letter,-1.0,False,46,-1,0,5
 Y2-S2-099K20,3,559,PS,exp,41,↑,down,↓,2.4498133999295533,False,47,-1,0,5
 Y2-S2-099K20,3,560,PS,exp,39,↓,no_key,no_letter,-1.0,False,48,-1,0,5
 Y2-S2-099K20,3,561,PS,exp,42,←,right,→,2.330763900070451,False,49,-1,0,5
 Y2-S2-099K20,3,562,PS,exp,34,↓,no_key,no_letter,-1.0,False,50,-1,0,5
 Y2-S2-099K20,3,563,PS,exp,29,←,no_key,no_letter,-1.0,False,51,-1,0,5
 Y2-S2-099K20,3,564,PS,exp,46,↑,no_key,no_letter,-1.0,False,52,-1,0,5
 Y2-S2-099K20,3,565,PS,exp,50,↓,left,←,2.189803999965079,False,53,-1,0,5
 Y2-S2-099K20,3,566,PS,exp,29,→,right,→,1.8922229000600055,True,54,-1,0,5
 Y2-S2-099K20,3,567,PS,exp,40,↑,up,↑,0.4345720000565052,True,54,-1,0,5
 Y2-S2-099K20,3,568,PS,exp,31,↓,down,↓,1.7300408999435604,True,54,1,1,6
 Y2-S2-099K20,3,569,PS,exp,29,→,up,↑,0.08431710000149906,False,53,-1,1,7
 Y2-S2-099K20,3,570,PS,exp,31,↑,up,↑,0.9004855999955907,True,54,-1,0,7
 Y2-S2-099K20,3,571,PS,exp,46,↓,up,↑,0.9676080999197438,False,54,-1,0,7
 Y2-S2-099K20,3,572,PS,exp,31,↑,right,→,1.5520785000408068,False,55,-1,0,7
 Y2-S2-099K20,3,573,PS,exp,37,↓,up,↑,0.4346695999847725,False,56,-1,0,7
 Y2-S2-099K20,3,574,PS,exp,26,↑,down,↓,2.0167923000408337,False,57,-1,0,7
 Y2-S2-099K20,3,575,PS,exp,49,↓,up,↑,0.15150909998919815,False,58,-1,0,7
 Y2-S2-099K20,3,576,PS,exp,49,→,down,↓,2.5518224999541417,False,59,-1,0,7
 Y2-S2-099K20,3,577,PS,exp,28,↑,down,↓,2.4088541000382975,False,60,-1,0,7
 Y2-S2-099K20,3,578,PS,exp,50,→,up,↑,0.6676949999528006,False,61,-1,0,7
 Y2-S2-099K20,3,579,PS,exp,28,←,up,↑,1.5600329999579117,False,62,-1,0,7
 Y2-S2-099K20,3,580,PS,exp,34,→,right,→,1.7983736000023782,True,63,-1,0,7
 Y2-S2-099K20,3,581,PS,exp,43,←,up,↑,1.100961200078018,False,63,-1,0,7
 Y2-S2-099K20,3,582,PS,exp,46,→,down,↓,1.629391499911435,False,64,-1,0,7
 Y2-S2-099K20,3,583,PS,exp,48,←,up,↑,0.767632000031881,False,65,-1,0,7
 Y2-S2-099K20,3,584,PS,exp,31,→,up,↑,1.5202262999955565,False,66,-1,0,7
 Y2-S2-099K20,3,585,PS,exp,45,←,left,←,1.6659234000835568,True,67,-1,0,7
 Y2-S2-099K20,3,586,PS,exp,35,↑,up,↑,1.1009068998973817,True,67,-1,0,7
 Y2-S2-099K20,3,587,PS,exp,33,→,no_key,no_letter,-1.0,False,67,-1,0,7
 Y2-S2-099K20,3,588,PS,exp,40,←,up,↑,1.765462699928321,False,68,-1,0,7
 Y2-S2-099K20,3,589,PS,exp,37,↓,up,↑,0.8676968000363559,False,69,-1,0,7
 Y2-S2-099K20,3,590,PS,exp,46,←,no_key,no_letter,-1.0,False,70,-1,0,7
 Y2-S2-099K20,3,591,PS,exp,45,↓,no_key,no_letter,-1.0,False,71,-1,0,7
 Y2-S2-099K20,3,592,PS,exp,47,↑,up,↑,0.15081639995332807,True,72,-1,0,7
 Y2-S2-099K20,3,593,PS,exp,42,→,up,↑,1.0343370999908075,False,72,-1,0,7
 Y2-S2-099K20,3,594,PS,exp,33,↓,right,→,0.9344975000713021,False,73,-1,0,7
 Y2-S2-099K20,3,595,PS,exp,45,→,right,→,2.0271075000055134,True,74,-1,0,7
 Y2-S2-099K20,3,596,PS,exp,48,↑,right,→,1.7386442999122664,False,74,-1,0,7
 Y2-S2-099K20,3,597,PS,exp,46,↓,right,→,1.4297075000358745,False,75,-1,0,7
 Y2-S2-099K20,3,598,PS,exp,29,↑,up,↑,2.025371800060384,True,76,-1,0,7
 Y2-S2-099K20,3,599,PS,exp,30,→,right,→,0.9342853999696672,True,76,-1,0,7
 Y2-S2-099K20,3,600,PS,exp,47,↑,up,↑,0.5344113000901416,True,76,1,1,8
 Y2-S2-099K20,3,601,PS,exp,49,→,right,→,1.0012399000115693,True,75,1,0,8
 Y2-S2-099K20,3,602,PS,exp,45,↓,down,↓,0.9677646999480203,True,75,1,0,8
 Y2-S2-099K20,3,603,PS,exp,46,→,right,→,0.9679618000518531,True,75,1,0,8
 Y2-S2-099K20,3,604,PS,exp,35,↑,up,↑,1.068064899998717,True,74,1,0,8
 Y2-S2-099K20,3,605,PS,exp,29,→,right,→,1.233969800057821,True,74,1,0,8
 Y2-S2-099K20,3,606,PS,exp,27,↓,down,↓,1.732215299969539,True,74,1,0,8
 Y2-S2-099K20,3,607,PS,exp,26,↑,up,↑,1.501257700030692,True,73,1,0,8
 Y2-S2-099K20,3,608,PS,exp,31,←,left,←,0.6512799999909475,True,73,1,0,8
 Y2-S2-099K20,3,609,PS,exp,27,→,right,→,2.455751199973747,True,73,1,0,8
 Y2-S2-099K20,3,610,PS,exp,41,←,left,←,1.134564199950546,True,72,1,0,8
 Y2-S2-099K20,3,611,PS,exp,39,↓,down,↓,1.201079799910076,True,72,1,0,8
 Y2-S2-099K20,3,612,PS,exp,46,←,left,←,1.233938500052318,True,72,1,0,8
 Y2-S2-099K20,3,613,PS,exp,34,→,right,→,1.4377410999732092,True,71,1,0,8
 Y2-S2-099K20,3,614,PS,exp,31,↑,up,↑,1.1008746000006795,True,71,1,0,8
 Y2-S2-099K20,3,615,PS,exp,44,↓,down,↓,0.9343722000485286,True,71,1,0,8
 Y2-S2-099K20,3,616,PS,exp,46,↑,up,↑,1.2505752999568358,True,70,1,0,8
 Y2-S2-099K20,3,617,PS,exp,44,←,left,←,0.9343325000954792,True,70,1,0,8
 Y2-S2-099K20,3,618,PS,exp,47,↓,down,↓,1.4479152000276372,True,70,1,0,8
 Y2-S2-099K20,3,619,PS,exp,38,↑,up,↑,1.1011700000381097,True,69,1,0,8
 Y2-S2-099K20,3,620,PS,exp,45,←,left,←,1.4811764999758452,True,69,1,0,8
 Y2-S2-099K20,3,621,PS,exp,44,↓,down,↓,1.0179366000229493,True,69,1,0,8
 Y2-S2-099K20,3,622,PS,exp,50,↑,up,↑,1.017593300086446,True,68,1,0,8
 Y2-S2-099K20,3,623,PS,exp,34,→,right,→,0.9683811999857426,True,68,1,0,8
 Y2-S2-099K20,3,624,PS,exp,42,↓,down,↓,1.2173778999131173,True,68,1,0,8
 Y2-S2-099K20,3,625,PS,exp,37,↑,up,↑,0.7507815000135452,True,67,1,0,8
 Y2-S2-099K20,3,626,PS,exp,36,↓,down,↓,0.7678596000187099,True,67,1,0,8
 Y2-S2-099K20,3,627,PS,exp,26,←,left,←,1.184279500041157,True,67,1,0,8
 Y2-S2-099K20,3,628,PS,exp,31,→,right,→,0.7511257999576628,True,66,1,0,8
 Y2-S2-099K20,3,629,PS,exp,27,↑,up,↑,0.6843348999973387,True,66,1,0,8
 Y2-S2-099K20,3,630,PS,exp,35,↓,down,↓,0.8348480000859126,True,66,1,0,8
 Y2-S2-099K20,3,631,PS,exp,32,↑,up,↑,1.608703399891965,True,65,1,0,8
 Y2-S2-099K20,3,632,PS,exp,30,→,right,→,1.0342599999858066,True,65,1,0,8
 Y2-S2-099K20,3,633,PS,exp,26,←,left,←,1.6368541000410914,True,65,1,0,8
 Y2-S2-099K20,3,634,PS,exp,48,↓,up,↑,2.6159802000038326,False,64,-1,1,9
 Y2-S2-099K20,3,635,PS,exp,35,→,right,→,1.2510724000167102,True,65,-1,0,9
 Y2-S2-099K20,3,636,PS,exp,34,↑,up,↑,0.9167140999343246,True,65,-1,0,9
 Y2-S2-099K20,3,637,PS,exp,35,→,right,→,1.1332990999799222,True,65,1,1,10
 Y2-S2-099K20,3,638,PS,exp,36,↓,down,↓,0.8178045999957249,True,64,1,0,10
 Y2-S2-099K20,3,639,PS,exp,26,→,right,→,0.7176140999654308,True,64,1,0,10
 Y2-S2-099K20,3,640,PS,exp,36,↓,down,↓,0.6346687999321148,True,64,1,0,10
 Y2-S2-099K20,3,641,PS,exp,25,→,right,→,1.1340628999751061,True,63,1,0,10
 Y2-S2-099K20,3,642,PS,exp,47,↑,up,↑,0.5509448999073356,True,63,1,0,10
 Y2-S2-099K20,3,643,PS,exp,47,→,down,↓,0.7674985999474302,False,63,-1,1,11
 Y2-S2-099K20,3,644,PS,exp,32,↓,down,↓,0.9679000000469387,True,64,-1,0,11
 Y2-S2-099K20,3,645,PS,exp,35,↑,up,↑,0.8510973999509588,True,64,-1,0,11
 Y2-S2-099K20,3,646,PS,exp,41,→,right,→,0.7678559999912977,True,64,1,1,12
 Y2-S2-099K20,3,647,PS,exp,25,↓,down,↓,0.6010618999134749,True,63,1,0,12
 Y2-S2-099K20,3,648,PS,exp,42,→,right,→,0.6345694999909028,True,63,1,0,12
 Y2-S2-099K20,3,649,PS,exp,38,↑,up,↑,0.900753500056453,True,63,1,0,12
 Y2-S2-099K20,3,650,PS,exp,47,←,left,←,0.7681723999558017,True,62,1,0,12
 Y2-S2-099K20,3,651,PS,exp,45,↓,down,↓,0.7342624999582767,True,62,1,0,12
 Y2-S2-099K20,3,652,PS,exp,33,↑,up,↑,0.9512647999217734,True,62,1,0,12
 Y2-S2-099K20,3,653,PS,exp,26,→,right,→,0.8343993999296799,True,61,1,0,12
 Y2-S2-099K20,3,654,PS,exp,37,←,left,←,0.8680601000087336,True,61,1,0,12
 Y2-S2-099K20,3,655,PS,exp,48,↑,up,↑,0.7846652999287471,True,61,1,0,12
 Y2-S2-099K20,3,656,PS,exp,38,↓,down,↓,1.133720700046979,True,60,1,0,12
 Y2-S2-099K20,3,657,PS,exp,44,→,right,→,0.7842958000255749,True,60,1,0,12
 Y2-S2-099K20,3,658,PS,exp,25,←,left,←,0.8010174999944866,True,60,1,0,12
 Y2-S2-099K20,3,659,PS,exp,27,↓,down,↓,0.6011536000296474,True,59,1,0,12
 Y2-S2-099K20,3,660,PS,exp,26,↑,up,↑,0.8346332999644801,True,59,1,0,12
 Y2-S2-099K20,3,661,PS,exp,46,→,right,→,0.7512797999661416,True,59,1,0,12
 Y2-S2-099K20,3,662,PS,exp,30,←,left,←,0.8676104000769556,True,58,1,0,12
 Y2-S2-099K20,3,663,PS,exp,33,↓,down,↓,1.0843096999451518,True,58,1,0,12
 Y2-S2-099K20,3,664,PS,exp,33,→,right,→,0.734335400047712,True,58,1,0,12
 Y2-S2-099K20,3,665,PS,exp,34,↓,down,↓,0.9673411999829113,True,57,1,0,12
 Y2-S2-099K20,3,666,PS,exp,33,→,right,→,0.901072199922055,True,57,1,0,12
 Y2-S2-099K20,3,667,PS,exp,29,←,left,←,1.2719408000120893,True,57,1,0,12
 Y2-S2-099K20,3,668,PS,exp,50,↓,down,↓,0.6509805000387132,True,56,1,0,12
 Y2-S2-099K20,3,669,PS,exp,35,→,right,→,0.5351312999846414,True,56,1,0,12
 Y2-S2-099K20,3,670,PS,exp,39,←,left,←,0.8178196999942884,True,56,1,0,12
 Y2-S2-099K20,3,671,PS,exp,26,→,right,→,0.7508755999151617,True,55,1,0,12
 Y2-S2-099K20,3,672,PS,exp,34,↓,down,↓,0.7846972000552341,True,55,1,0,12
 Y2-S2-099K20,3,673,PS,exp,49,←,left,←,0.817432300071232,True,55,1,0,12
 Y2-S2-099K20,3,674,PS,exp,43,↑,up,↑,0.65100239997264,True,54,1,0,12
 Y2-S2-099K20,3,675,PS,exp,50,←,left,←,0.8675529999891296,True,54,1,0,12
 Y2-S2-099K20,3,676,PS,exp,36,↑,up,↑,0.9005484000081196,True,54,1,0,12
 Y2-S2-099K20,3,677,PS,exp,31,←,left,←,0.9675742000108585,True,53,1,0,12
 Y2-S2-099K20,3,678,PS,exp,50,↑,up,↑,0.7341999999480322,True,53,1,0,12
 Y2-S2-099K20,3,679,PS,exp,34,↓,down,↓,1.1692599999951199,True,53,1,0,12
 Y2-S2-099K20,3,680,PS,exp,38,↑,up,↑,1.5551120999734849,True,52,1,0,12
 Y2-S2-099K20,3,681,PS,exp,32,↓,down,↓,0.718250900041312,True,52,1,0,12
 Y2-S2-099K20,3,682,PS,exp,50,↑,up,↑,1.5415604000445455,True,52,1,0,12
 Y2-S2-099K20,3,683,PS,exp,38,←,left,←,0.8337738000554964,True,51,1,0,12
 Y2-S2-099K20,3,684,PS,exp,31,↓,down,↓,0.584843699936755,True,51,1,0,12
 Y2-S2-099K20,3,685,PS,exp,40,↑,up,↑,0.7013150000711903,True,51,1,0,12
 Y2-S2-099K20,3,686,PS,exp,36,↓,down,↓,0.5509024999337271,True,50,1,0,12
 Y2-S2-099K20,3,687,PS,exp,32,→,right,→,0.9004798999521881,True,50,1,0,12
 Y2-S2-099K20,3,688,PS,exp,29,↑,up,↑,1.0715115999337286,True,50,1,0,12
 Y2-S2-099K20,3,689,PS,exp,35,↓,down,↓,0.9337486999575049,True,49,1,0,12
 Y2-S2-099K20,3,690,PS,exp,25,↑,up,↑,2.179568100022152,True,49,1,0,12
 Y2-S2-099K20,3,691,PS,exp,27,←,no_key,no_letter,-1.0,False,49,-1,1,13
 Y2-S2-099K20,3,692,PS,exp,36,→,right,→,1.572429500054568,True,50,-1,0,13
 Y2-S2-099K20,3,693,PS,exp,47,↓,down,↓,2.282625099993311,True,50,-1,0,13
 Y2-S2-099K20,3,694,PS,exp,37,←,left,←,1.2108936998993158,True,50,1,1,14
 Y2-S2-099K20,3,695,PS,exp,25,↓,up,↑,0.6017204999225214,False,49,-1,1,15
 Y2-S2-099K20,3,696,PS,exp,26,→,down,↓,1.5860009000170976,False,50,-1,0,15
 Y2-S2-099K20,3,697,PS,exp,47,↓,up,↑,1.1502701999852434,False,51,-1,0,15
 Y2-S2-099K20,3,698,PS,exp,33,↑,right,→,0.9008316999534145,False,52,-1,0,15
 Y2-S2-099K20,3,699,PS,exp,45,←,down,↓,1.8079074999550357,False,53,-1,0,15
 Y2-S2-099K20,3,700,PS,exp,26,→,up,↑,0.8680579999927431,False,54,-1,0,15
 Y2-S2-099K20,3,701,PS,exp,45,↑,up,↑,0.5179453000891954,True,55,-1,0,15
 Y2-S2-099K20,3,702,PS,exp,38,↓,down,↓,0.7843667999841273,True,55,-1,0,15
 Y2-S2-099K20,3,703,PS,exp,45,↑,up,↑,1.0506588999414816,True,55,1,1,16
 Y2-S2-099K20,4,704,AS,intra_train,25,←,left,←,0.567362800007686,True,33,-,-,-
 Y2-S2-099K20,4,705,AS,intra_train,38,↑,up,↑,1.5505605000071228,True,33,-,-,-
 Y2-S2-099K20,4,706,AS,intra_train,26,↓,down,↓,0.7190821999683976,True,33,-,-,-
 Y2-S2-099K20,4,707,AS,intra_train,37,↑,up,↑,0.4173331999918446,True,33,-,-,-
 Y2-S2-099K20,4,708,AS,intra_train,33,→,right,→,0.3675701000029221,True,33,-,-,-
 Y2-S2-099K20,4,709,AS,exp,26,←,left,←,0.8994109999621287,True,22,0,0,0
 Y2-S2-099K20,4,710,AS,exp,30,→,up,↑,0.4179859000723809,False,22,-1,0,0
 Y2-S2-099K20,4,711,AS,exp,43,↓,down,↓,0.3837973000481725,True,23,-1,0,0
 Y2-S2-099K20,4,712,AS,exp,28,←,left,←,0.8443343999097124,True,23,-1,0,0
 Y2-S2-099K20,4,713,AS,exp,38,↓,down,↓,0.8378775999881327,True,23,1,1,1
 Y2-S2-099K20,4,714,AS,exp,50,←,left,←,0.8091957999859005,True,22,1,0,1
 Y2-S2-099K20,4,715,AS,exp,37,↑,up,↑,0.4504866999341175,True,22,1,0,1
 Y2-S2-099K20,4,716,AS,exp,43,←,up,↑,1.136389599996619,False,22,-1,1,2
 Y2-S2-099K20,4,717,AS,exp,50,↓,down,↓,0.78860990004614,True,23,-1,0,2
 Y2-S2-099K20,4,718,AS,exp,49,→,no_key,no_letter,-1.0,False,23,-1,0,2
 Y2-S2-099K20,4,719,AS,exp,46,↓,no_key,no_letter,-1.0,False,24,-1,0,2
 Y2-S2-099K20,4,720,AS,exp,25,←,up,↑,0.4004495000699535,False,25,-1,0,2
 Y2-S2-099K20,4,721,AS,exp,41,↓,left,←,0.648421399993822,False,26,-1,0,2
 Y2-S2-099K20,4,722,AS,exp,29,↑,up,↑,0.7522684000432491,True,27,-1,0,2
 Y2-S2-099K20,4,723,AS,exp,29,←,down,↓,0.4345575999468565,False,27,-1,0,2
 Y2-S2-099K20,4,724,AS,exp,50,↑,left,←,0.15132980002090335,False,28,-1,0,2
 Y2-S2-099K20,4,725,AS,exp,41,←,left,←,0.6172974000219256,True,29,-1,0,2
 Y2-S2-099K20,4,726,AS,exp,31,↑,up,↑,0.7832185999723151,True,29,-1,0,2
 Y2-S2-099K20,4,727,AS,exp,33,→,right,→,0.9443189000012353,True,29,1,1,3
 Y2-S2-099K20,4,728,AS,exp,49,↑,up,↑,1.2788998999167234,True,28,1,0,3
 Y2-S2-099K20,4,729,AS,exp,43,←,left,←,0.8771122999023646,True,28,1,0,3
 Y2-S2-099K20,4,730,AS,exp,31,↓,down,↓,0.8046231000917032,True,28,1,0,3
 Y2-S2-099K20,4,731,AS,exp,37,↑,up,↑,0.4840164000634104,True,27,1,0,3
 Y2-S2-099K20,4,732,AS,exp,47,↓,down,↓,0.682375599979423,True,27,1,0,3
 Y2-S2-099K20,4,733,AS,exp,34,→,up,↑,0.2511804000241682,False,27,-1,1,4
 Y2-S2-099K20,4,734,AS,exp,40,↓,down,↓,0.9628256999421865,True,28,-1,0,4
 Y2-S2-099K20,4,735,AS,exp,45,←,left,←,0.7151046999497339,True,28,-1,0,4
 Y2-S2-099K20,4,736,AS,exp,44,↓,down,↓,0.7218179000774398,True,28,1,1,5
 Y2-S2-099K20,4,737,AS,exp,47,→,right,→,0.7235427000559866,True,27,1,0,5
 Y2-S2-099K20,4,738,AS,exp,48,↑,up,↑,1.046209300053306,True,27,1,0,5
 Y2-S2-099K20,4,739,AS,exp,43,→,right,→,0.8674250000622123,True,27,1,0,5
 Y2-S2-099K20,4,740,AS,exp,28,↓,down,↓,0.6384943999582902,True,26,1,0,5
 Y2-S2-099K20,4,741,AS,exp,36,→,down,↓,0.6537063999567181,False,26,-1,1,6
 Y2-S2-099K20,4,742,AS,exp,26,↓,up,↑,0.40086209995206445,False,27,-1,0,6
 Y2-S2-099K20,4,743,AS,exp,50,←,right,→,0.45163899997714907,False,28,-1,0,6
 Y2-S2-099K20,4,744,AS,exp,47,↓,right,→,0.4508806000230834,False,29,-1,0,6
 Y2-S2-099K20,4,745,AS,exp,34,→,down,↓,0.6994487999472767,False,30,-1,0,6
 Y2-S2-099K20,4,746,AS,exp,47,↓,down,↓,0.7489549000747502,True,31,-1,0,6
 Y2-S2-099K20,4,747,AS,exp,49,→,up,↑,0.517158200033009,False,31,-1,0,6
 Y2-S2-099K20,4,748,AS,exp,32,←,down,↓,0.5170717000728473,False,32,-1,0,6
 Y2-S2-099K20,4,749,AS,exp,25,↓,down,↓,0.40098809998016804,True,33,-1,0,6
 Y2-S2-099K20,4,750,AS,exp,50,→,down,↓,0.2511981000425294,False,33,-1,0,6
 Y2-S2-099K20,4,751,AS,exp,42,↓,down,↓,0.2845738000469282,True,34,-1,0,6
 Y2-S2-099K20,4,752,AS,exp,37,↑,down,↓,0.2674705000827089,False,34,-1,0,6
 Y2-S2-099K20,4,753,AS,exp,31,→,down,↓,0.4179259999655187,False,35,-1,0,6
 Y2-S2-099K20,4,754,AS,exp,48,↓,down,↓,0.20114410005044192,True,36,-1,0,6
 Y2-S2-099K20,4,755,AS,exp,37,←,down,↓,0.35099850001279265,False,36,-1,0,6
 Y2-S2-099K20,4,756,AS,exp,27,↑,up,↑,0.7171178999124095,True,37,-1,0,6
 Y2-S2-099K20,4,757,AS,exp,47,←,left,←,0.9209988000802696,True,37,-1,0,6
 Y2-S2-099K20,4,758,AS,exp,25,↓,down,↓,0.7506783000426367,True,37,1,1,7
 Y2-S2-099K20,4,759,AS,exp,34,→,right,→,0.8930053000804037,True,36,1,0,7
 Y2-S2-099K20,4,760,AS,exp,30,←,left,←,0.897852799971588,True,36,1,0,7
 Y2-S2-099K20,4,761,AS,exp,47,↑,up,↑,0.5343625000678003,True,36,1,0,7
 Y2-S2-099K20,4,762,AS,exp,26,←,left,←,1.0668099999893457,True,35,1,0,7
 Y2-S2-099K20,4,763,AS,exp,25,→,right,→,1.8888496999861673,True,35,1,0,7
 Y2-S2-099K20,4,764,AS,exp,25,↓,down,↓,0.7851031000027433,True,35,1,0,7
 Y2-S2-099K20,4,765,AS,exp,35,→,right,→,0.633655000012368,True,34,1,0,7
 Y2-S2-099K20,4,766,AS,exp,29,↑,up,↑,0.7008010999998078,True,34,1,0,7
 Y2-S2-099K20,4,767,AS,exp,30,→,right,→,0.8519700000761077,True,34,1,0,7
 Y2-S2-099K20,4,768,AS,exp,35,↑,up,↑,0.8673753999173641,True,33,1,0,7
 Y2-S2-099K20,4,769,AS,exp,45,↓,up,↑,1.4551921000238508,False,33,-1,1,8
 Y2-S2-099K20,4,770,AS,exp,44,↑,up,↑,0.8824196000350639,True,34,-1,0,8
 Y2-S2-099K20,4,771,AS,exp,45,→,right,→,0.584070699987933,True,34,-1,0,8
 Y2-S2-099K20,4,772,AS,exp,48,↓,down,↓,0.8272233000025153,True,34,1,1,9
 Y2-S2-099K20,4,773,AS,exp,31,→,right,→,0.823510899906978,True,33,1,0,9
 Y2-S2-099K20,4,774,AS,exp,34,↓,down,↓,0.6505890000844374,True,33,1,0,9
 Y2-S2-099K20,4,775,AS,exp,41,↑,up,↑,0.5175133000593632,True,33,1,0,9
 Y2-S2-099K20,4,776,AS,exp,27,←,left,←,1.1043757000006735,True,32,1,0,9
 Y2-S2-099K20,4,777,AS,exp,40,↑,up,↑,0.5172916000010446,True,32,1,0,9
 Y2-S2-099K20,4,778,AS,exp,30,←,left,←,1.103648699936457,True,32,1,0,9
 Y2-S2-099K20,4,779,AS,exp,39,↓,down,↓,0.5839925999753177,True,31,1,0,9
 Y2-S2-099K20,4,780,AS,exp,28,→,right,→,1.0784669000422582,True,31,1,0,9
 Y2-S2-099K20,4,781,AS,exp,47,↓,down,↓,0.5507414999883622,True,31,1,0,9
 Y2-S2-099K20,4,782,AS,exp,40,→,right,→,0.853991899988614,True,30,1,0,9
 Y2-S2-099K20,4,783,AS,exp,44,←,left,←,0.85982240003068,True,30,1,0,9
 Y2-S2-099K20,4,784,AS,exp,29,↓,down,↓,0.5671278999652714,True,30,1,0,9
 Y2-S2-099K20,4,785,AS,exp,35,↑,up,↑,0.6840787000255659,True,29,1,0,9
 Y2-S2-099K20,4,786,AS,exp,29,←,left,←,1.9087164000375196,True,29,1,0,9
 Y2-S2-099K20,4,787,AS,exp,29,↓,down,↓,0.9277422999730334,True,29,1,0,9
 Y2-S2-099K20,4,788,AS,exp,49,←,left,←,0.7220075000077486,True,28,1,0,9
 Y2-S2-099K20,4,789,AS,exp,38,↓,down,↓,1.3508880999870598,True,28,1,0,9
 Y2-S2-099K20,4,790,AS,exp,25,→,right,→,0.5841143000870943,True,28,1,0,9
 Y2-S2-099K20,4,791,AS,exp,42,←,left,←,0.9365303000668064,True,27,1,0,9
 Y2-S2-099K20,4,792,AS,exp,30,↑,up,↑,0.5172758999979123,True,27,1,0,9
 Y2-S2-099K20,4,793,AS,exp,47,↓,down,↓,0.7103520999662578,True,27,1,0,9
 Y2-S2-099K20,4,794,AS,exp,50,←,left,←,0.7262356999563053,True,26,1,0,9
 Y2-S2-099K20,4,795,AS,exp,30,→,right,→,0.6923489000182599,True,26,1,0,9
 Y2-S2-099K20,4,796,AS,exp,40,↓,up,↑,1.035740099963732,False,26,-1,1,10
 Y2-S2-099K20,4,797,AS,exp,43,↑,down,↓,0.33478520007338375,False,27,-1,0,10
 Y2-S2-099K20,4,798,AS,exp,45,←,up,↑,0.5672299000434577,False,28,-1,0,10
 Y2-S2-099K20,4,799,AS,exp,48,↓,down,↓,0.7591078000841662,True,29,-1,0,10
 Y2-S2-099K20,4,800,AS,exp,29,→,right,→,0.5172147999983281,True,29,-1,0,10
 Y2-S2-099K20,4,801,AS,exp,29,↑,up,↑,0.5341373999835923,True,29,1,1,11
 Y2-S2-099K20,4,802,AS,exp,43,→,right,→,0.6500734000001103,True,28,1,0,11
 Y2-S2-099K20,4,803,AS,exp,31,←,left,←,0.9672827000031248,True,28,1,0,11
 Y2-S2-099K20,4,804,AS,exp,50,↑,up,↑,0.5337872999953106,True,28,1,0,11
 Y2-S2-099K20,4,805,AS,exp,31,←,left,←,0.808864300022833,True,27,1,0,11
 Y2-S2-099K20,4,806,AS,exp,47,↓,down,↓,0.7093850000528619,True,27,1,0,11
 Y2-S2-099K20,4,807,AS,exp,37,→,right,→,0.6972009999444708,True,27,1,0,11
 Y2-S2-099K20,4,808,AS,exp,38,←,down,↓,0.6293388999765739,False,26,-1,1,12
 Y2-S2-099K20,4,809,AS,exp,26,↓,down,↓,0.4505314000416547,True,27,-1,0,12
 Y2-S2-099K20,4,810,AS,exp,32,←,down,↓,0.5505277999909595,False,27,-1,0,12
 Y2-S2-099K20,4,811,AS,exp,25,↑,down,↓,0.25099209998734295,False,28,-1,0,12
 Y2-S2-099K20,4,812,AS,exp,41,←,down,↓,0.2174567999318242,False,29,-1,0,12
 Y2-S2-099K20,4,813,AS,exp,47,↑,down,↓,0.870534099987708,False,30,-1,0,12
 Y2-S2-099K20,4,814,AS,exp,26,←,down,↓,0.13412599998991936,False,31,-1,0,12
 Y2-S2-099K20,4,815,AS,exp,36,→,down,↓,1.1542738999705762,False,32,-1,0,12
 Y2-S2-099K20,4,816,AS,exp,48,↑,down,↓,1.278778199921362,False,33,-1,0,12
 Y2-S2-099K20,4,817,AS,exp,46,↓,down,↓,0.6840283999918029,True,34,-1,0,12
 Y2-S2-099K20,4,818,AS,exp,48,←,down,↓,0.6003893999150023,False,34,-1,0,12
 Y2-S2-099K20,4,819,AS,exp,31,→,down,↓,1.1509352000430226,False,35,-1,0,12
 Y2-S2-099K20,4,820,AS,exp,38,←,down,↓,0.001142200082540512,False,36,-1,0,12
 Y2-S2-099K20,4,821,AS,exp,31,↓,down,↓,0.35077750007621944,True,37,-1,0,12
 Y2-S2-099K20,4,822,AS,exp,41,←,down,↓,0.26748829998541623,False,37,-1,0,12
 Y2-S2-099K20,4,823,AS,exp,30,↓,down,↓,1.43334240000695,True,38,-1,0,12
 Y2-S2-099K20,4,824,AS,exp,49,↑,down,↓,1.4863606999861076,False,38,-1,0,12
 Y2-S2-099K20,4,825,AS,exp,27,↓,down,↓,1.5145308999344707,True,39,-1,0,12
 Y2-S2-099K20,4,826,AS,exp,43,→,down,↓,0.5512612999882549,False,39,-1,0,12
 Y2-S2-099K20,4,827,AS,exp,45,↑,down,↓,1.0943042000290006,False,40,-1,0,12
 Y2-S2-099K20,4,828,AS,exp,49,←,down,↓,0.48429950000718236,False,41,-1,0,12
 Y2-S2-099K20,4,829,AS,exp,49,→,down,↓,0.7337269999552518,False,42,-1,0,12
 Y2-S2-099K20,4,830,AS,exp,35,↑,down,↓,0.7172347999876365,False,43,-1,0,12
 Y2-S2-099K20,4,831,AS,exp,50,↓,down,↓,2.0209230999462306,True,44,-1,0,12
 Y2-S2-099K20,4,832,AS,exp,25,←,down,↓,0.43435140000656247,False,44,-1,0,12
 Y2-S2-099K20,4,833,AS,exp,39,→,down,↓,0.8002829999895766,False,45,-1,0,12
 Y2-S2-099K20,4,834,AS,exp,37,↑,down,↓,0.3677851000102237,False,46,-1,0,12
 Y2-S2-099K20,4,835,AS,exp,27,→,right,→,0.9606502999085933,True,47,-1,0,12
 Y2-S2-099K20,4,836,AS,exp,26,↓,down,↓,0.8504477000096813,True,47,-1,0,12
 Y2-S2-099K20,4,837,AS,exp,44,↑,up,↑,2.327178100007586,True,47,1,1,13
 Y2-S2-099K20,4,838,AS,exp,28,→,right,→,0.8673933000536636,True,46,1,0,13
 Y2-S2-099K20,4,839,AS,exp,35,↓,down,↓,0.9743613000027835,True,46,1,0,13
 Y2-S2-099K20,4,840,AS,exp,40,←,left,←,0.8839625000255182,True,46,1,0,13
 Y2-S2-099K20,4,841,AS,exp,30,↓,down,↓,0.833825399982743,True,45,1,0,13
 Y2-S2-099K20,4,842,AS,exp,27,←,left,←,0.9405428000027314,True,45,1,0,13
 Y2-S2-099K20,4,843,AS,exp,30,↓,down,↓,0.6009394999127835,True,45,1,0,13
 Y2-S2-099K20,4,844,AS,exp,31,↑,up,↑,0.6843981000129133,True,44,1,0,13
 Y2-S2-099K20,4,845,AS,exp,47,←,left,←,1.0328025000635535,True,44,1,0,13
 Y2-S2-099K20,4,846,AS,exp,34,↓,down,↓,0.8172801999608055,True,44,1,0,13
 Y2-S2-099K20,4,847,AS,exp,45,→,right,→,2.2114593000151217,True,43,1,0,13
 Y2-S2-099K20,4,848,AS,exp,46,←,left,←,0.9274356999667361,True,43,1,0,13
 Y2-S2-099K20,4,849,AS,exp,42,↓,down,↓,0.7670679000439122,True,43,1,0,13
 Y2-S2-099K20,4,850,AS,exp,49,→,right,→,0.9119332999689505,True,42,1,0,13
 Y2-S2-099K20,4,851,AS,exp,33,↑,up,↑,0.6512755999574438,True,42,1,0,13
 Y2-S2-099K20,4,852,AS,exp,25,←,left,←,1.0029165000887588,True,42,1,0,13
 Y2-S2-099K20,4,853,AS,exp,26,↑,down,↓,0.5845028000185266,False,41,-1,1,14
 Y2-S2-099K20,4,854,AS,exp,42,←,left,←,0.8868694000411779,True,42,-1,0,14
 Y2-S2-099K20,4,855,AS,exp,32,→,up,↑,0.5678724000463262,False,42,-1,0,14
 Y2-S2-099K20,4,856,AS,exp,50,←,up,↑,0.38411340001039207,False,43,-1,0,14
 Y2-S2-099K20,4,857,AS,exp,47,↑,up,↑,0.3345018000109121,True,44,-1,0,14
 Y2-S2-099K20,4,858,AS,exp,47,→,up,↑,0.2512681999942288,False,44,-1,0,14
 Y2-S2-099K20,4,859,AS,exp,43,↓,up,↑,0.9555880998959765,False,45,-1,0,14
 Y2-S2-099K20,4,860,AS,exp,25,→,up,↑,0.8510002999100834,False,46,-1,0,14
 Y2-S2-099K20,4,861,AS,exp,46,↓,up,↑,1.260793299996294,False,47,-1,0,14
 Y2-S2-099K20,4,862,AS,exp,33,↑,up,↑,0.4846275000600144,True,48,-1,0,14
 Y2-S2-099K20,4,863,AS,exp,44,→,up,↑,0.7839661000762135,False,48,-1,0,14
 Y2-S2-099K20,4,864,AS,exp,43,←,no_key,no_letter,-1.0,False,49,-1,0,14
 Y2-S2-099K20,4,865,AS,exp,27,→,down,↓,1.4289889999199659,False,50,-1,0,14
 Y2-S2-099K20,4,866,AS,exp,35,←,right,→,2.382606599945575,False,51,-1,0,14
 Y2-S2-099K20,4,867,AS,exp,27,→,up,↑,1.7533679999178275,False,52,-1,0,14
 Y2-S2-099K20,4,868,AS,exp,42,↓,up,↑,0.5343350999755785,False,53,-1,0,14
 Y2-S2-099K20,4,869,AS,exp,36,←,left,←,2.3424145999597386,True,54,-1,0,14
 Y2-S2-099K20,4,870,AS,exp,41,↓,down,↓,0.8009851999813691,True,54,-1,0,14
 Y2-S2-099K20,4,871,AS,exp,47,↑,up,↑,0.6845534999156371,True,54,1,1,15
 Y2-S2-099K20,4,872,AS,exp,25,←,left,←,0.7009241000050679,True,53,1,0,15
 Y2-S2-099K20,4,873,AS,exp,50,→,right,→,0.6510367000009865,True,53,1,0,15
 Y2-S2-099K20,4,874,AS,exp,40,↓,down,↓,2.5385128000052646,True,53,1,0,15
 Y2-S2-099K20,4,875,AS,exp,36,↑,up,↑,0.751116200000979,True,52,1,0,15
 Y2-S2-099K20,4,876,AS,exp,30,←,left,←,0.9004495999542996,True,52,1,0,15
 Y2-S2-099K20,4,877,AS,exp,47,→,right,→,0.7011285000480711,True,52,1,0,15
 Y2-S2-099K20,4,878,AS,exp,36,↓,no_key,no_letter,-1.0,False,51,-1,1,16
 Y2-S2-099K20,5,879,AS,intra_train,30,←,left,←,0.9357500999467447,True,33,-,-,-
 Y2-S2-099K20,5,880,AS,intra_train,50,↓,up,↑,0.5673945000162348,False,33,-,-,-
 Y2-S2-099K20,5,881,AS,intra_train,44,↑,right,→,0.4179387000622228,False,33,-,-,-
 Y2-S2-099K20,5,882,AS,intra_train,28,→,right,→,0.550854800036177,True,33,-,-,-
 Y2-S2-099K20,5,883,AS,intra_train,48,←,up,↑,0.2176106000551954,False,33,-,-,-
 Y2-S2-099K20,5,884,AS,exp,34,→,right,→,0.23444119992200285,True,22,0,0,0
 Y2-S2-099K20,5,885,AS,exp,26,←,down,↓,0.6464789999881759,False,22,-1,0,0
 Y2-S2-099K20,5,886,AS,exp,41,↑,up,↑,0.3516282000346109,True,23,-1,0,0
 Y2-S2-099K20,5,887,AS,exp,34,←,left,←,0.792712000082247,True,23,-1,0,0
 Y2-S2-099K20,5,888,AS,exp,29,↑,up,↑,0.7702215000754222,True,23,1,1,1
 Y2-S2-099K20,5,889,AS,exp,35,↓,down,↓,0.8609945999924093,True,22,1,0,1
 Y2-S2-099K20,5,890,AS,exp,27,↑,up,↑,0.682543000089936,True,22,1,0,1
 Y2-S2-099K20,5,891,AS,exp,49,↓,down,↓,0.7914215000346303,True,22,1,0,1
 Y2-S2-099K20,5,892,AS,exp,50,↑,up,↑,0.6933333000633866,True,21,1,0,1
 Y2-S2-099K20,5,893,AS,exp,28,←,left,←,0.9008716000244021,True,21,1,0,1
 Y2-S2-099K20,5,894,AS,exp,31,↑,up,↑,0.5457503999350592,True,21,1,0,1
 Y2-S2-099K20,5,895,AS,exp,36,←,down,↓,0.33388799999374896,False,20,-1,1,2
 Y2-S2-099K20,5,896,AS,exp,30,↓,down,↓,0.525969999958761,True,21,-1,0,2
 Y2-S2-099K20,5,897,AS,exp,31,→,right,→,1.1850133000407368,True,21,-1,0,2
 Y2-S2-099K20,5,898,AS,exp,36,↓,up,↑,0.8557322999695316,False,21,-1,0,2
 Y2-S2-099K20,5,899,AS,exp,32,↑,up,↑,0.5806085000513121,True,22,-1,0,2
 Y2-S2-099K20,5,900,AS,exp,49,←,left,←,1.0869299999903888,True,22,-1,0,2
 Y2-S2-099K20,5,901,AS,exp,29,↑,up,↑,0.4338809000328183,True,22,1,1,3
 Y2-S2-099K20,5,902,AS,exp,31,→,right,→,0.7459276000736281,True,21,1,0,3
 Y2-S2-099K20,5,903,AS,exp,30,←,left,←,0.789251200039871,True,21,1,0,3
 Y2-S2-099K20,5,904,AS,exp,25,↓,down,↓,1.0062537000048906,True,21,1,0,3
 Y2-S2-099K20,5,905,AS,exp,37,←,up,↑,0.7625459000701085,False,20,-1,1,4
 Y2-S2-099K20,5,906,AS,exp,43,→,right,→,0.658287400030531,True,21,-1,0,4
 Y2-S2-099K20,5,907,AS,exp,34,↓,down,↓,0.7728198000695556,True,21,-1,0,4
 Y2-S2-099K20,5,908,AS,exp,49,→,up,↑,0.4838531999848783,False,21,-1,0,4
 Y2-S2-099K20,5,909,AS,exp,33,↑,up,↑,0.8116546999663115,True,22,-1,0,4
 Y2-S2-099K20,5,910,AS,exp,26,→,right,→,0.5689882000442594,True,22,-1,0,4
 Y2-S2-099K20,5,911,AS,exp,41,↓,down,↓,0.4008017999585718,True,22,1,1,5
 Y2-S2-099K20,5,912,AS,exp,44,↑,up,↑,0.3343090999405831,True,21,1,0,5
 Y2-S2-099K20,5,913,AS,exp,41,↓,right,→,0.6262322999536991,False,21,-1,1,6
 Y2-S2-099K20,5,914,AS,exp,47,→,right,→,0.9582434999756515,True,22,-1,0,6
 Y2-S2-099K20,5,915,AS,exp,45,←,left,←,0.7242292000446469,True,22,-1,0,6
 Y2-S2-099K20,5,916,AS,exp,30,↓,down,↓,0.8536192000610754,True,22,1,1,7
 Y2-S2-099K20,5,917,AS,exp,41,←,left,←,1.0393136000493541,True,21,1,0,7
 Y2-S2-099K20,5,918,AS,exp,41,→,right,→,0.8243158999830484,True,21,1,0,7
 Y2-S2-099K20,5,919,AS,exp,47,↑,up,↑,1.3120812000706792,True,21,1,0,7
 Y2-S2-099K20,5,920,AS,exp,28,↓,up,↑,1.127070799935609,False,20,-1,1,8
 Y2-S2-099K20,5,921,AS,exp,27,→,up,↑,1.1159302999731153,False,21,-1,0,8
 Y2-S2-099K20,5,922,AS,exp,32,←,left,←,1.035051199956797,True,22,-1,0,8
 Y2-S2-099K20,5,923,AS,exp,48,↑,up,↑,0.8962594999466091,True,22,-1,0,8
 Y2-S2-099K20,5,924,AS,exp,37,←,left,←,1.2811528999591246,True,22,1,1,9
 Y2-S2-099K20,5,925,AS,exp,45,→,right,→,0.8200956999789923,True,21,1,0,9
 Y2-S2-099K20,5,926,AS,exp,38,←,left,←,0.7331357999937609,True,21,1,0,9
 Y2-S2-099K20,5,927,AS,exp,25,→,right,→,0.7105600000359118,True,21,1,0,9
 Y2-S2-099K20,5,928,AS,exp,39,←,up,↑,0.7245205000508577,False,20,-1,1,10
 Y2-S2-099K20,5,929,AS,exp,31,↓,down,↓,1.0417945999652147,True,21,-1,0,10
 Y2-S2-099K20,5,930,AS,exp,36,↑,up,↑,0.6215400999644771,True,21,-1,0,10
 Y2-S2-099K20,5,931,AS,exp,48,→,down,↓,1.04200709995348,False,21,-1,0,10
 Y2-S2-099K20,5,932,AS,exp,40,↓,down,↓,0.9758716999785975,True,22,-1,0,10
 Y2-S2-099K20,5,933,AS,exp,26,←,left,←,0.5530765999574214,True,22,-1,0,10
 Y2-S2-099K20,5,934,AS,exp,30,→,right,→,0.5599651000229642,True,22,1,1,11
 Y2-S2-099K20,5,935,AS,exp,32,↓,down,↓,0.9082739000441507,True,21,1,0,11
 Y2-S2-099K20,5,936,AS,exp,33,↑,up,↑,0.5299231000244617,True,21,1,0,11
 Y2-S2-099K20,5,937,AS,exp,35,→,right,→,0.7689891000045463,True,21,1,0,11
 Y2-S2-099K20,5,938,AS,exp,42,←,down,↓,0.9029652000172064,False,20,-1,1,12
 Y2-S2-099K20,5,939,AS,exp,46,↓,down,↓,0.6719363000011072,True,21,-1,0,12
 Y2-S2-099K20,5,940,AS,exp,41,↑,up,↑,0.7047214999329299,True,21,-1,0,12
 Y2-S2-099K20,5,941,AS,exp,28,↓,down,↓,0.43484819994773716,True,21,1,1,13
 Y2-S2-099K20,5,942,AS,exp,41,→,right,→,0.5650147000560537,True,20,1,0,13
 Y2-S2-099K20,5,943,AS,exp,35,↑,down,↓,0.9347345000132918,False,20,-1,1,14
 Y2-S2-099K20,5,944,AS,exp,32,→,right,→,0.6365306000225246,True,21,-1,0,14
 Y2-S2-099K20,5,945,AS,exp,45,↑,up,↑,0.5851378999650478,True,21,-1,0,14
 Y2-S2-099K20,5,946,AS,exp,38,←,left,←,1.0084038999630138,True,21,1,1,15
 Y2-S2-099K20,5,947,AS,exp,46,↓,down,↓,0.7797437999397516,True,20,1,0,15
 Y2-S2-099K20,5,948,AS,exp,28,←,down,↓,0.6662153999786824,False,20,-1,1,16
 Y2-S2-099K20,6,949,PS,intra_train,47,↑,up,↑,0.7326344000175595,True,31,-,-,-
 Y2-S2-099K20,6,950,PS,intra_train,41,←,left,←,0.6004261000780389,True,31,-,-,-
 Y2-S2-099K20,6,951,PS,intra_train,37,↑,right,→,0.3839380000717938,False,31,-,-,-
 Y2-S2-099K20,6,952,PS,intra_train,34,↓,down,↓,0.550448999973014,True,31,-,-,-
 Y2-S2-099K20,6,953,PS,intra_train,25,↑,up,↑,0.38449900003615767,True,31,-,-,-
 Y2-S2-099K20,6,954,PS,exp,35,↓,down,↓,0.4509922999422997,True,21,0,0,0
 Y2-S2-099K20,6,955,PS,exp,31,↑,up,↑,0.6495747999288142,True,21,0,0,0
 Y2-S2-099K20,6,956,PS,exp,27,←,left,←,0.628508000052534,True,21,1,0,0
 Y2-S2-099K20,6,957,PS,exp,34,↓,down,↓,0.8823995999991894,True,20,1,0,0
 Y2-S2-099K20,6,958,PS,exp,46,↑,up,↑,0.7341390999499708,True,20,1,0,0
 Y2-S2-099K20,6,959,PS,exp,25,→,right,→,0.5581394999753684,True,20,1,0,0
 Y2-S2-099K20,6,960,PS,exp,27,↓,down,↓,0.9996558000566438,True,19,1,0,0
 Y2-S2-099K20,6,961,PS,exp,50,→,down,↓,1.2103057000786066,False,19,-1,1,1
 Y2-S2-099K20,6,962,PS,exp,33,←,up,↑,0.7217629000078887,False,20,-1,0,1
 Y2-S2-099K20,6,963,PS,exp,44,↓,down,↓,0.2841946999542415,True,21,-1,0,1
 Y2-S2-099K20,6,964,PS,exp,37,←,up,↑,0.5580043999943882,False,21,-1,0,1
 Y2-S2-099K20,6,965,PS,exp,43,↓,down,↓,0.5767407000530511,True,22,-1,0,1
 Y2-S2-099K20,6,966,PS,exp,49,→,down,↓,0.40086069994140416,False,22,-1,0,1
 Y2-S2-099K20,6,967,PS,exp,48,↑,down,↓,0.5173771000700071,False,23,-1,0,1
 Y2-S2-099K20,6,968,PS,exp,47,→,down,↓,0.2681789000052959,False,24,-1,0,1
 Y2-S2-099K20,6,969,PS,exp,37,↓,up,↑,0.8375189999351278,False,25,-1,0,1
 Y2-S2-099K20,6,970,PS,exp,25,→,up,↑,0.4340562999714166,False,26,-1,0,1
 Y2-S2-099K20,6,971,PS,exp,43,↑,down,↓,0.778021699981764,False,27,-1,0,1
 Y2-S2-099K20,6,972,PS,exp,46,→,up,↑,0.31784219993278384,False,28,-1,0,1
 Y2-S2-099K20,6,973,PS,exp,32,↓,down,↓,0.7571415000129491,True,29,-1,0,1
 Y2-S2-099K20,6,974,PS,exp,39,→,right,→,1.8870982000371441,True,29,-1,0,1
 Y2-S2-099K20,6,975,PS,exp,47,←,down,↓,0.8608371999580413,False,29,-1,0,1
 Y2-S2-099K20,6,976,PS,exp,39,↑,up,↑,0.31754339998587966,True,30,-1,0,1
 Y2-S2-099K20,6,977,PS,exp,27,↓,up,↑,1.124502900056541,False,30,-1,0,1
 Y2-S2-099K20,6,978,PS,exp,36,←,down,↓,0.7484718000050634,False,31,-1,0,1
 Y2-S2-099K20,6,979,PS,exp,30,↓,up,↑,0.41757420008070767,False,32,-1,0,1
 Y2-S2-099K20,6,980,PS,exp,33,↑,down,↓,0.5337678999640048,False,33,-1,0,1
 Y2-S2-099K20,6,981,PS,exp,43,←,up,↑,0.4510473000118509,False,34,-1,0,1
 Y2-S2-099K20,6,982,PS,exp,44,→,up,↑,0.33446420007385314,False,35,-1,0,1
 Y2-S2-099K20,6,983,PS,exp,27,↑,up,↑,0.8232221000362188,True,36,-1,0,1
 Y2-S2-099K20,6,984,PS,exp,44,→,right,→,0.6511732999933884,True,36,-1,0,1
 Y2-S2-099K20,6,985,PS,exp,36,←,down,↓,0.6171815000707284,False,36,-1,0,1
 Y2-S2-099K20,6,986,PS,exp,36,↓,down,↓,0.6839994000038132,True,37,-1,0,1
 Y2-S2-099K20,6,987,PS,exp,30,←,left,←,0.8880653000669554,True,37,-1,0,1
 Y2-S2-099K20,6,988,PS,exp,48,→,right,→,0.6175492000766098,True,37,1,1,2
 Y2-S2-099K20,6,989,PS,exp,31,↓,down,↓,0.5844251000089571,True,36,1,0,2
 Y2-S2-099K20,6,990,PS,exp,26,↑,up,↑,0.5015959000447765,True,36,1,0,2
 Y2-S2-099K20,6,991,PS,exp,48,←,left,←,0.9237087999936193,True,36,1,0,2
 Y2-S2-099K20,6,992,PS,exp,45,↑,up,↑,0.550842700060457,True,35,1,0,2
 Y2-S2-099K20,6,993,PS,exp,40,←,left,←,1.1340164999710396,True,35,1,0,2
 Y2-S2-099K20,6,994,PS,exp,42,→,right,→,0.6346361000323668,True,35,1,0,2
 Y2-S2-099K20,6,995,PS,exp,42,←,left,←,0.7573331999592483,True,34,1,0,2
 Y2-S2-099K20,6,996,PS,exp,26,↓,down,↓,1.1686668000184,True,34,1,0,2
 Y2-S2-099K20,6,997,PS,exp,45,→,right,→,0.5504949999740347,True,34,1,0,2
 Y2-S2-099K20,6,998,PS,exp,41,↓,down,↓,0.6343051999574527,True,33,1,0,2
 Y2-S2-099K20,6,999,PS,exp,45,→,right,→,0.6674416000023484,True,33,1,0,2
 Y2-S2-099K20,6,1000,PS,exp,35,←,up,↑,0.6838303999975324,False,33,-1,1,3
 Y2-S2-099K20,6,1001,PS,exp,43,↑,up,↑,0.25128179998137057,True,34,-1,0,3
 Y2-S2-099K20,6,1002,PS,exp,29,↓,down,↓,0.9690605000359938,True,34,-1,0,3
 Y2-S2-099K20,6,1003,PS,exp,34,←,left,←,0.9667759999865666,True,34,1,1,4
 Y2-S2-099K20,6,1004,PS,exp,42,↑,up,↑,1.2141062000300735,True,33,1,0,4
 Y2-S2-099K20,6,1005,PS,exp,45,→,right,→,1.3688730999128893,True,33,1,0,4
 Y2-S2-099K20,6,1006,PS,exp,47,↓,down,↓,0.6173212999710813,True,33,1,0,4
 Y2-S2-099K20,6,1007,PS,exp,33,↑,up,↑,0.6337119999807328,True,32,1,0,4
 Y2-S2-099K20,6,1008,PS,exp,26,←,left,←,0.8552320000017062,True,32,1,0,4
 Y2-S2-099K20,6,1009,PS,exp,31,→,right,→,0.6337172000203282,True,32,1,0,4
 Y2-S2-099K20,6,1010,PS,exp,47,↑,up,↑,0.7162039000540972,True,31,1,0,4
 Y2-S2-099K20,6,1011,PS,exp,25,←,down,↓,0.7285922000883147,False,31,-1,1,5
 Y2-S2-099K20,6,1012,PS,exp,49,→,right,→,0.8932978000957519,True,32,-1,0,5
 Y2-S2-099K20,6,1013,PS,exp,25,↓,up,↑,1.4426393000176176,False,32,-1,0,5
 Y2-S2-099K20,6,1014,PS,exp,29,←,left,←,1.0271986000007018,True,33,-1,0,5
 Y2-S2-099K20,6,1015,PS,exp,35,↑,up,↑,1.858225000090897,True,33,-1,0,5
 Y2-S2-099K20,6,1016,PS,exp,35,↓,down,↓,0.7837084999773651,True,33,1,1,6
 Y2-S2-099K20,6,1017,PS,exp,43,→,right,→,0.7032034000148997,True,32,1,0,6
 Y2-S2-099K20,6,1018,PS,exp,50,↑,up,↑,1.66258760006167,True,32,1,0,6
 Y2-S2-099K20,6,1019,PS,exp,26,←,left,←,2.174492299905978,True,32,1,0,6
 Y2-S2-099K20,6,1020,PS,exp,37,↑,up,↑,0.4507793999509886,True,31,1,0,6
 Y2-S2-099K20,6,1021,PS,exp,49,←,right,→,0.6949044999200851,False,31,-1,1,7
 Y2-S2-099K20,6,1022,PS,exp,37,→,down,↓,0.6507071000523865,False,32,-1,0,7
 Y2-S2-099K20,6,1023,PS,exp,33,←,left,←,1.4695250000804663,True,33,-1,0,7
 Y2-S2-099K20,6,1024,PS,exp,35,→,right,→,0.6005300000542775,True,33,-1,0,7
 Y2-S2-099K20,6,1025,PS,exp,29,←,left,←,1.4356487999903038,True,33,1,1,8
 Y2-S2-099K20,6,1026,PS,exp,49,↓,down,↓,0.5673303999938071,True,32,1,0,8
 Y2-S2-099K20,6,1027,PS,exp,41,↑,up,↑,0.7378294999944046,True,32,1,0,8
 Y2-S2-099K20,6,1028,PS,exp,38,→,right,→,0.6008178999181837,True,32,1,0,8
 Y2-S2-099K20,6,1029,PS,exp,36,↓,down,↓,0.6171629999298602,True,31,1,0,8
 Y2-S2-099K20,6,1030,PS,exp,39,←,up,↑,0.708430300001055,False,31,-1,1,9
 Y2-S2-099K20,6,1031,PS,exp,31,→,right,→,0.6171287000179291,True,32,-1,0,9
 Y2-S2-099K20,6,1032,PS,exp,33,↑,down,↓,0.6007243000203744,False,32,-1,0,9
 Y2-S2-099K20,6,1033,PS,exp,41,←,up,↑,0.5339295000303537,False,33,-1,0,9
 Y2-S2-099K20,6,1034,PS,exp,37,↓,down,↓,0.21735930000431836,True,34,-1,0,9
 Y2-S2-099K20,6,1035,PS,exp,35,↑,up,↑,0.6508334999671206,True,34,-1,0,9
 Y2-S2-099K20,6,1036,PS,exp,49,→,down,↓,0.5345593000529334,False,34,-1,0,9
 Y2-S2-099K20,6,1037,PS,exp,29,↑,up,↑,0.7916260999627411,True,35,-1,0,9
 Y2-S2-099K20,6,1038,PS,exp,39,↓,down,↓,2.0614849999547005,True,35,-1,0,9
 Y2-S2-099K20,6,1039,PS,exp,31,←,left,←,0.6339973999420181,True,35,1,1,10
 Y2-S2-099K20,6,1040,PS,exp,34,↑,right,→,0.5840790000511333,False,34,-1,1,11
 Y2-S2-099K20,6,1041,PS,exp,31,→,right,→,1.7597666000947356,True,35,-1,0,11
 Y2-S2-099K20,6,1042,PS,exp,42,↓,down,↓,0.4343232000246644,True,35,-1,0,11
 Y2-S2-099K20,6,1043,PS,exp,48,→,right,→,0.7727627999847755,True,35,1,1,12
 Y2-S2-099K20,6,1044,PS,exp,44,↑,up,↑,0.6005721000256017,True,34,1,0,12
 Y2-S2-099K20,6,1045,PS,exp,30,←,left,←,0.6344767999835312,True,34,1,0,12
 Y2-S2-099K20,6,1046,PS,exp,31,↑,up,↑,0.8085024000611156,True,34,1,0,12
 Y2-S2-099K20,6,1047,PS,exp,32,←,left,←,0.8653035999741405,True,33,1,0,12
 Y2-S2-099K20,6,1048,PS,exp,47,↓,down,↓,0.6673427999485284,True,33,1,0,12
 Y2-S2-099K20,6,1049,PS,exp,48,←,left,←,0.9829816999845207,True,33,1,0,12
 Y2-S2-099K20,6,1050,PS,exp,27,↓,down,↓,0.7610187000827864,True,32,1,0,12
 Y2-S2-099K20,6,1051,PS,exp,48,→,down,↓,0.7304807999171317,False,32,-1,1,13
 Y2-S2-099K20,6,1052,PS,exp,28,←,down,↓,0.7439008000073954,False,33,-1,0,13
 Y2-S2-099K20,6,1053,PS,exp,42,↑,up,↑,0.5017926999134943,True,34,-1,0,13
 Y2-S2-099K20,6,1054,PS,exp,42,→,right,→,0.5838648999342695,True,34,-1,0,13
 Y2-S2-099K20,6,1055,PS,exp,28,↑,up,↑,0.6339874999830499,True,34,1,1,14
 Y2-S2-099K20,6,1056,PS,exp,36,←,up,↑,1.0492985000601038,False,33,-1,1,15
 Y2-S2-099K20,6,1057,PS,exp,39,↓,up,↑,0.6173016000539064,False,34,-1,0,15
 Y2-S2-099K20,6,1058,PS,exp,46,→,right,→,0.6007040999829769,True,35,-1,0,15
 Y2-S2-099K20,6,1059,PS,exp,49,↓,up,↑,0.700733800069429,False,35,-1,0,15
 Y2-S2-099K20,6,1060,PS,exp,48,↑,up,↑,0.48428360000252724,True,36,-1,0,15
 Y2-S2-099K20,6,1061,PS,exp,34,↓,down,↓,0.5838165999157354,True,36,-1,0,15
 Y2-S2-099K20,6,1062,PS,exp,37,→,up,↑,0.53442260005977,False,36,-1,0,15
 Y2-S2-099K20,6,1063,PS,exp,35,↓,down,↓,0.8391061000293121,True,37,-1,0,15
 Y2-S2-099K20,6,1064,PS,exp,26,↑,up,↑,0.97389879997354,True,37,-1,0,15
 Y2-S2-099K20,6,1065,PS,exp,26,←,left,←,0.8560943000484258,True,37,1,1,16
 Y2-S2-099K20,7,1066,PS,intra_train,25,↑,down,↓,0.7036920000100508,False,31,-,-,-
 Y2-S2-099K20,7,1067,PS,intra_train,26,←,up,↑,0.3010415000608191,False,31,-,-,-
 Y2-S2-099K20,7,1068,PS,intra_train,44,→,up,↑,1.2806180999614298,False,31,-,-,-
 Y2-S2-099K20,7,1069,PS,intra_train,42,←,up,↑,0.15094800002407283,False,31,-,-,-
 Y2-S2-099K20,7,1070,PS,intra_train,47,↓,down,↓,0.5508908999618143,True,31,-,-,-
 Y2-S2-099K20,7,1071,PS,exp,37,↑,up,↑,0.622940200031735,True,21,0,0,0
 Y2-S2-099K20,7,1072,PS,exp,38,→,up,↑,0.4007639999035746,False,21,-1,0,0
 Y2-S2-099K20,7,1073,PS,exp,48,←,left,←,0.26750219997484237,True,22,-1,0,0
 Y2-S2-099K20,7,1074,PS,exp,40,→,down,↓,0.6331376999150962,False,22,-1,0,0
 Y2-S2-099K20,7,1075,PS,exp,47,↑,right,→,0.517233100021258,False,23,-1,0,0
 Y2-S2-099K20,7,1076,PS,exp,45,←,left,←,1.5433362000621855,True,24,-1,0,0
 Y2-S2-099K20,7,1077,PS,exp,36,↓,down,↓,1.2604423000011593,True,24,-1,0,0
 Y2-S2-099K20,7,1078,PS,exp,31,↑,up,↑,0.6133310999721289,True,24,1,1,1
 Y2-S2-099K20,7,1079,PS,exp,36,→,right,→,0.6502950999420136,True,23,1,0,1
 Y2-S2-099K20,7,1080,PS,exp,42,↑,up,↑,0.5842361999675632,True,23,1,0,1
 Y2-S2-099K20,7,1081,PS,exp,35,→,up,↑,1.4070848999544978,False,23,-1,1,2
 Y2-S2-099K20,7,1082,PS,exp,35,↑,up,↑,0.7164510999573395,True,24,-1,0,2
 Y2-S2-099K20,7,1083,PS,exp,37,→,up,↑,1.4148481999291107,False,24,-1,0,2
 Y2-S2-099K20,7,1084,PS,exp,39,↓,down,↓,0.6565395999932662,True,25,-1,0,2
 Y2-S2-099K20,7,1085,PS,exp,37,↑,up,↑,1.0695331000024453,True,25,-1,0,2
 Y2-S2-099K20,7,1086,PS,exp,25,←,down,↓,1.0246328000212088,False,25,-1,0,2
 Y2-S2-099K20,7,1087,PS,exp,30,↑,up,↑,1.2107824999839067,True,26,-1,0,2
 Y2-S2-099K20,7,1088,PS,exp,42,→,right,→,1.0888332999311388,True,26,-1,0,2
 Y2-S2-099K20,7,1089,PS,exp,50,←,down,↓,0.6707632999168709,False,26,-1,0,2
 Y2-S2-099K20,7,1090,PS,exp,42,→,up,↑,0.5006676999619231,False,27,-1,0,2
 Y2-S2-099K20,7,1091,PS,exp,43,↑,up,↑,0.31782530003692955,True,28,-1,0,2
 Y2-S2-099K20,7,1092,PS,exp,33,←,up,↑,0.4337058999808505,False,28,-1,0,2
 Y2-S2-099K20,7,1093,PS,exp,40,↓,up,↑,0.31845890008844435,False,29,-1,0,2
 Y2-S2-099K20,7,1094,PS,exp,35,↑,up,↑,0.25086420006118715,True,30,-1,0,2
 Y2-S2-099K20,7,1095,PS,exp,41,←,down,↓,0.23440990003291517,False,30,-1,0,2
 Y2-S2-099K20,7,1096,PS,exp,28,↑,right,→,0.2514045999851078,False,31,-1,0,2
 Y2-S2-099K20,7,1097,PS,exp,28,→,down,↓,1.883778200019151,False,32,-1,0,2
 Y2-S2-099K20,7,1098,PS,exp,35,←,up,↑,0.6006691999500617,False,33,-1,0,2
 Y2-S2-099K20,7,1099,PS,exp,33,→,right,→,0.334281999967061,True,34,-1,0,2
 Y2-S2-099K20,7,1100,PS,exp,31,←,right,→,0.33487789996434003,False,34,-1,0,2
 Y2-S2-099K20,7,1101,PS,exp,29,↓,down,↓,0.4514435000019148,True,35,-1,0,2
 Y2-S2-099K20,7,1102,PS,exp,41,→,up,↑,0.3335662999888882,False,35,-1,0,2
 Y2-S2-099K20,7,1103,PS,exp,44,↓,right,→,0.20102749997749925,False,36,-1,0,2
 Y2-S2-099K20,7,1104,PS,exp,39,↑,down,↓,0.38437440001871437,False,37,-1,0,2
 Y2-S2-099K20,7,1105,PS,exp,38,←,up,↑,0.28436529997270554,False,38,-1,0,2
 Y2-S2-099K20,7,1106,PS,exp,42,↓,up,↑,0.2844298999989405,False,39,-1,0,2
 Y2-S2-099K20,7,1107,PS,exp,28,↑,up,↑,0.26749580004252493,True,40,-1,0,2
 Y2-S2-099K20,7,1108,PS,exp,30,↓,down,↓,0.23456290003377944,True,40,-1,0,2
 Y2-S2-099K20,7,1109,PS,exp,31,↑,up,↑,0.8430859999498352,True,40,1,1,3
 Y2-S2-099K20,7,1110,PS,exp,35,↓,down,↓,0.500965700019151,True,39,1,0,3
 Y2-S2-099K20,7,1111,PS,exp,40,→,up,↑,0.3011533999815583,False,39,-1,1,4
 Y2-S2-099K20,7,1112,PS,exp,45,↓,down,↓,0.20099939999636263,True,40,-1,0,4
 Y2-S2-099K20,7,1113,PS,exp,26,←,left,←,0.7340708000119776,True,40,-1,0,4
 Y2-S2-099K20,7,1114,PS,exp,37,↓,down,↓,0.6006029000272974,True,40,1,1,5
 Y2-S2-099K20,7,1115,PS,exp,34,←,left,←,0.8776815000455827,True,39,1,0,5
 Y2-S2-099K20,7,1116,PS,exp,46,↓,up,↑,0.767265300033614,False,39,-1,1,6
 Y2-S2-099K20,7,1117,PS,exp,35,↑,down,↓,1.012169299996458,False,40,-1,0,6
 Y2-S2-099K20,7,1118,PS,exp,36,←,right,→,0.3678125001024455,False,41,-1,0,6
 Y2-S2-099K20,7,1119,PS,exp,38,↓,up,↑,0.3511071000248194,False,42,-1,0,6
 Y2-S2-099K20,7,1120,PS,exp,32,←,left,←,1.0502809000900015,True,43,-1,0,6
 Y2-S2-099K20,7,1121,PS,exp,44,↑,up,↑,1.1420994000509381,True,43,-1,0,6
 Y2-S2-099K20,7,1122,PS,exp,37,↓,down,↓,0.8504042999120429,True,43,1,1,7
 Y2-S2-099K20,7,1123,PS,exp,28,←,left,←,1.1047279000049457,True,42,1,0,7
 Y2-S2-099K20,7,1124,PS,exp,25,↑,up,↑,0.4843142000027001,True,42,1,0,7
 Y2-S2-099K20,7,1125,PS,exp,25,←,left,←,0.6509724000934511,True,42,1,0,7
 Y2-S2-099K20,7,1126,PS,exp,43,→,right,→,0.8890486999880522,True,41,1,0,7
 Y2-S2-099K20,7,1127,PS,exp,45,↓,down,↓,0.6009455999592319,True,41,1,0,7
 Y2-S2-099K20,7,1128,PS,exp,37,↑,up,↑,0.8175214000511914,True,41,1,0,7
 Y2-S2-099K20,7,1129,PS,exp,28,→,right,→,1.8200959999812767,True,40,1,0,7
 Y2-S2-099K20,7,1130,PS,exp,46,↓,right,→,0.8919207999715582,False,40,-1,1,8
 Y2-S2-099K20,7,1131,PS,exp,30,↑,down,↓,0.5677127999952063,False,41,-1,0,8
 Y2-S2-099K20,7,1132,PS,exp,42,→,right,→,0.017629200010560453,True,42,-1,0,8
 Y2-S2-099K20,7,1133,PS,exp,37,↑,up,↑,0.23433810006827116,True,42,-1,0,8
 Y2-S2-099K20,7,1134,PS,exp,50,↓,down,↓,0.3347350999247283,True,42,1,1,9
 Y2-S2-099K20,7,1135,PS,exp,50,→,up,↑,0.4177208999171853,False,41,-1,1,10
 Y2-S2-099K20,7,1136,PS,exp,29,↓,down,↓,0.5843583000823855,True,42,-1,0,10
 Y2-S2-099K20,7,1137,PS,exp,45,↑,up,↑,0.767530299955979,True,42,-1,0,10
 Y2-S2-099K20,7,1138,PS,exp,44,→,down,↓,0.5175568000413477,False,42,-1,0,10
 Y2-S2-099K20,7,1139,PS,exp,43,↑,up,↑,0.9047158999601379,True,43,-1,0,10
 Y2-S2-099K20,7,1140,PS,exp,49,←,down,↓,0.45120879996102303,False,43,-1,0,10
 Y2-S2-099K20,7,1141,PS,exp,49,↑,right,→,0.5512285999720916,False,44,-1,0,10
 Y2-S2-099K20,7,1142,PS,exp,50,→,up,↑,0.7501164999557659,False,45,-1,0,10
 Y2-S2-099K20,7,1143,PS,exp,32,↓,down,↓,0.35128879989497364,True,46,-1,0,10
 Y2-S2-099K20,7,1144,PS,exp,30,→,down,↓,0.33432259992696345,False,46,-1,0,10
 Y2-S2-099K20,7,1145,PS,exp,29,↑,down,↓,0.21773150004446507,False,47,-1,0,10
 Y2-S2-099K20,7,1146,PS,exp,35,←,down,↓,0.28452430001925677,False,48,-1,0,10
 Y2-S2-099K20,7,1147,PS,exp,43,↓,down,↓,0.1848871000111103,True,49,-1,0,10
 Y2-S2-099K20,7,1148,PS,exp,28,↑,down,↓,1.778371199965477,False,49,-1,0,10
 Y2-S2-099K20,7,1149,PS,exp,40,↓,down,↓,0.7679710000520572,True,50,-1,0,10
 Y2-S2-099K20,7,1150,PS,exp,28,→,down,↓,0.5173223000019789,False,50,-1,0,10
 Y2-S2-099K20,7,1151,PS,exp,45,↓,down,↓,0.06802410003729165,True,51,-1,0,10
 Y2-S2-099K20,7,1152,PS,exp,36,←,down,↓,0.2678364999592304,False,51,-1,0,10
 Y2-S2-099K20,7,1153,PS,exp,48,↓,down,↓,0.1844705999828875,True,52,-1,0,10
 Y2-S2-099K20,7,1154,PS,exp,41,↑,down,↓,0.2008708999492228,False,52,-1,0,10
 Y2-S2-099K20,7,1155,PS,exp,26,←,down,↓,1.8327253999887034,False,53,-1,0,10
 Y2-S2-099K20,7,1156,PS,exp,36,↑,down,↓,0.30089309997856617,False,54,-1,0,10
 Y2-S2-099K20,7,1157,PS,exp,49,→,down,↓,0.21773530007340014,False,55,-1,0,10
 Y2-S2-099K20,7,1158,PS,exp,34,←,down,↓,1.7648091999581084,False,56,-1,0,10
 Y2-S2-099K20,7,1159,PS,exp,43,→,down,↓,0.28440050000790507,False,57,-1,0,10
 Y2-S2-099K20,7,1160,PS,exp,46,↓,up,↑,0.38446929992642254,False,58,-1,0,10
 Y2-S2-099K20,7,1161,PS,exp,32,←,down,↓,0.3683579999487847,False,59,-1,0,10
 Y2-S2-099K20,7,1162,PS,exp,33,↓,down,↓,0.3011238999897614,True,60,-1,0,10
 Y2-S2-099K20,7,1163,PS,exp,30,←,down,↓,0.33457710000220686,False,60,-1,0,10
 Y2-S2-099K20,7,1164,PS,exp,27,↑,down,↓,0.2503602000651881,False,61,-1,0,10
 Y2-S2-099K20,7,1165,PS,exp,50,←,down,↓,0.21754709992092103,False,62,-1,0,10
 Y2-S2-099K20,7,1166,PS,exp,50,↑,down,↓,0.3350006000837311,False,63,-1,0,10
 Y2-S2-099K20,7,1167,PS,exp,46,←,down,↓,0.6677559000672773,False,64,-1,0,10
 Y2-S2-099K20,7,1168,PS,exp,41,↓,down,↓,0.3677649999735877,True,65,-1,0,10
 Y2-S2-099K20,7,1169,PS,exp,35,↑,down,↓,0.3342430000193417,False,65,-1,0,10
 Y2-S2-099K20,7,1170,PS,exp,35,→,down,↓,0.23424970009364188,False,66,-1,0,10
 Y2-S2-099K20,7,1171,PS,exp,42,↑,up,↑,0.6178704999620095,True,67,-1,0,10
 Y2-S2-099K20,7,1172,PS,exp,40,↓,down,↓,0.5179703000467271,True,67,-1,0,10
 Y2-S2-099K20,7,1173,PS,exp,26,←,right,→,0.5844300000462681,False,67,-1,0,10
 Y2-S2-099K20,7,1174,PS,exp,38,→,right,→,0.5846922000637278,True,68,-1,0,10
 Y2-S2-099K20,7,1175,PS,exp,28,↓,down,↓,0.61776930000633,True,68,-1,0,10
 Y2-S2-099K20,7,1176,PS,exp,33,→,right,→,0.8010651000076905,True,68,1,1,11
 Y2-S2-099K20,7,1177,PS,exp,31,↓,up,↑,0.8176821999950334,False,67,-1,1,12
 Y2-S2-099K20,7,1178,PS,exp,49,↑,down,↓,0.7844557999633253,False,68,-1,0,12
 Y2-S2-099K20,7,1179,PS,exp,32,←,down,↓,0.6011121000628918,False,69,-1,0,12
 Y2-S2-099K20,7,1180,PS,exp,44,↓,down,↓,1.0679581000003964,True,70,-1,0,12
 Y2-S2-099K20,7,1181,PS,exp,26,↑,up,↑,0.7505664000054821,True,70,-1,0,12
 Y2-S2-099K20,7,1182,PS,exp,31,→,right,→,0.6677225000457838,True,70,1,1,13
 Y2-S2-099K20,7,1183,PS,exp,38,↑,up,↑,0.7845121999271214,True,69,1,0,13
 Y2-S2-099K20,7,1184,PS,exp,29,→,down,↓,1.9940758999437094,False,69,-1,1,14
 Y2-S2-099K20,7,1185,PS,exp,49,↓,down,↓,0.8341215000255033,True,70,-1,0,14
 Y2-S2-099K20,7,1186,PS,exp,49,→,up,↑,0.6012236999813467,False,70,-1,0,14
 Y2-S2-099K20,7,1187,PS,exp,38,↑,down,↓,0.9846201000036672,False,71,-1,0,14
 Y2-S2-099K20,7,1188,PS,exp,32,↓,down,↓,0.46755259996280074,True,72,-1,0,14
 Y2-S2-099K20,7,1189,PS,exp,49,↑,down,↓,0.43427349999547005,False,72,-1,0,14
 Y2-S2-099K20,7,1190,PS,exp,43,←,left,←,1.300804300000891,True,73,-1,0,14
 Y2-S2-099K20,7,1191,PS,exp,33,↓,down,↓,0.9675954999402165,True,73,-1,0,14
 Y2-S2-099K20,7,1192,PS,exp,36,→,right,→,1.1843628999777138,True,73,1,1,15
 Y2-S2-099K20,7,1193,PS,exp,42,←,left,←,0.8676874999655411,True,72,1,0,15
 Y2-S2-099K20,7,1194,PS,exp,39,↑,up,↑,0.9013769000303,True,72,1,0,15
 Y2-S2-099K20,7,1195,PS,exp,31,→,right,→,0.8680104999803007,True,72,1,0,15
 Y2-S2-099K20,7,1196,PS,exp,43,↓,down,↓,0.4676947999978438,True,71,1,0,15
 Y2-S2-099K20,7,1197,PS,exp,35,↑,up,↑,0.6011510000098497,True,71,1,0,15
 Y2-S2-099K20,7,1198,PS,exp,32,←,left,←,1.2013930999673903,True,71,1,0,15
 Y2-S2-099K20,7,1199,PS,exp,38,↑,up,↑,0.9669145999941975,True,70,1,0,15
 Y2-S2-099K20,7,1200,PS,exp,31,←,left,←,1.0511046999599785,True,70,1,0,15
 Y2-S2-099K20,7,1201,PS,exp,36,↓,down,↓,0.7677222000202164,True,70,1,0,15
 Y2-S2-099K20,7,1202,PS,exp,32,↑,up,↑,0.46787910000421107,True,69,1,0,15
 Y2-S2-099K20,7,1203,PS,exp,43,↓,down,↓,0.4674852000316605,True,69,1,0,15
 Y2-S2-099K20,7,1204,PS,exp,28,↑,up,↑,0.7844298999989405,True,69,1,0,15
 Y2-S2-099K20,7,1205,PS,exp,39,↓,down,↓,1.0011550000635907,True,68,1,0,15
 Y2-S2-099K20,7,1206,PS,exp,27,←,left,←,0.7345474000321701,True,68,1,0,15
 Y2-S2-099K20,7,1207,PS,exp,30,→,right,→,1.1671254000393674,True,68,1,0,15
 Y2-S2-099K20,7,1208,PS,exp,34,↑,up,↑,0.717693000100553,True,67,1,0,15
 Y2-S2-099K20,7,1209,PS,exp,36,↓,down,↓,0.7513129999861121,True,67,1,0,15
 Y2-S2-099K20,7,1210,PS,exp,33,↑,up,↑,0.8012204000260681,True,67,1,0,15
 Y2-S2-099K20,7,1211,PS,exp,32,↓,down,↓,0.6509706999640912,True,66,1,0,15
 Y2-S2-099K20,7,1212,PS,exp,32,↑,up,↑,0.8175661000423133,True,66,1,0,15
 Y2-S2-099K20,7,1213,PS,exp,34,→,right,→,1.167538100038655,True,66,1,0,15
 Y2-S2-099K20,7,1214,PS,exp,43,↓,up,↑,0.6679780000122264,False,65,-1,1,16
 Y2-S2-099K20,8,1215,AS,intra_train,37,↑,down,↓,0.43434639996849,False,33,-,-,-
 Y2-S2-099K20,8,1216,AS,intra_train,42,→,right,→,0.6507298999931663,True,33,-,-,-
 Y2-S2-099K20,8,1217,AS,intra_train,37,↓,down,↓,0.5337628000415862,True,33,-,-,-
 Y2-S2-099K20,8,1218,AS,intra_train,41,→,right,→,0.533826700062491,True,33,-,-,-
 Y2-S2-099K20,8,1219,AS,intra_train,47,↑,up,↑,0.36766330001410097,True,33,-,-,-
 Y2-S2-099K20,8,1220,AS,exp,26,→,right,→,0.7037657999899238,True,22,0,0,0
 Y2-S2-099K20,8,1221,AS,exp,35,↓,down,↓,0.8031861999770626,True,22,0,0,0
 Y2-S2-099K20,8,1222,AS,exp,50,→,right,→,0.7081026999512687,True,22,1,0,0
 Y2-S2-099K20,8,1223,AS,exp,37,↓,down,↓,0.7831575999734923,True,21,1,0,0
 Y2-S2-099K20,8,1224,AS,exp,34,←,left,←,0.8768537999130785,True,21,1,0,0
 Y2-S2-099K20,8,1225,AS,exp,48,↑,up,↑,0.5675441999919713,True,21,1,0,0
 Y2-S2-099K20,8,1226,AS,exp,39,↓,down,↓,0.2679730000672862,True,20,1,0,0
 Y2-S2-099K20,8,1227,AS,exp,31,→,right,→,0.383715600008145,True,20,1,0,0
 Y2-S2-099K20,8,1228,AS,exp,49,↑,left,←,0.3339084000326693,False,20,-1,1,1
 Y2-S2-099K20,8,1229,AS,exp,28,→,up,↑,0.43406330002471805,False,21,-1,0,1
 Y2-S2-099K20,8,1230,AS,exp,29,↑,down,↓,0.4338215000461787,False,22,-1,0,1
 Y2-S2-099K20,8,1231,AS,exp,32,←,down,↓,0.25095140002667904,False,23,-1,0,1
 Y2-S2-099K20,8,1232,AS,exp,43,↑,up,↑,0.18464220000896603,True,24,-1,0,1
 Y2-S2-099K20,8,1233,AS,exp,49,↓,right,→,1.241584200062789,False,24,-1,0,1
 Y2-S2-099K20,8,1234,AS,exp,26,←,left,←,1.14929500001017,True,25,-1,0,1
 Y2-S2-099K20,8,1235,AS,exp,27,→,down,↓,0.3845562000060454,False,25,-1,0,1
 Y2-S2-099K20,8,1236,AS,exp,25,↓,up,↑,0.6103624000679702,False,26,-1,0,1
 Y2-S2-099K20,8,1237,AS,exp,37,←,up,↑,0.3676381000550464,False,27,-1,0,1
 Y2-S2-099K20,8,1238,AS,exp,49,→,right,→,0.2341273999772966,True,28,-1,0,1
 Y2-S2-099K20,8,1239,AS,exp,41,↓,down,↓,1.8705960999941453,True,28,-1,0,1
 Y2-S2-099K20,8,1240,AS,exp,30,↑,left,←,0.8646894000703469,False,28,-1,0,1
 Y2-S2-099K20,8,1241,AS,exp,37,↓,no_key,no_letter,-1.0,False,29,-1,0,1
 Y2-S2-099K20,8,1242,AS,exp,34,←,left,←,2.038751700078137,True,30,-1,0,1
 Y2-S2-099K20,8,1243,AS,exp,29,↑,up,↑,0.9565308999735862,True,30,-1,0,1
 Y2-S2-099K20,8,1244,AS,exp,31,←,left,←,0.8053967000450939,True,30,1,1,2
 Y2-S2-099K20,8,1245,AS,exp,42,→,right,→,0.6882610999746248,True,29,1,0,2
 Y2-S2-099K20,8,1246,AS,exp,40,↑,up,↑,0.5672252000076696,True,29,1,0,2
 Y2-S2-099K20,8,1247,AS,exp,43,→,right,→,0.8645715999882668,True,29,1,0,2
 Y2-S2-099K20,8,1248,AS,exp,48,↓,down,↓,0.904244999983348,True,28,1,0,2
 Y2-S2-099K20,8,1249,AS,exp,26,→,right,→,0.8068301000166684,True,28,1,0,2
 Y2-S2-099K20,8,1250,AS,exp,44,↑,up,↑,0.7576260999776423,True,28,1,0,2
 Y2-S2-099K20,8,1251,AS,exp,38,←,left,←,0.7033012999454513,True,27,1,0,2
 Y2-S2-099K20,8,1252,AS,exp,30,↑,up,↑,0.7029777999268845,True,27,1,0,2
 Y2-S2-099K20,8,1253,AS,exp,50,←,left,←,0.9197925999760628,True,27,1,0,2
 Y2-S2-099K20,8,1254,AS,exp,38,↓,down,↓,0.534202600014396,True,26,1,0,2
 Y2-S2-099K20,8,1255,AS,exp,33,↑,up,↑,0.7601787000894547,True,26,1,0,2
 Y2-S2-099K20,8,1256,AS,exp,32,↓,down,↓,0.8776862999657169,True,26,1,0,2
 Y2-S2-099K20,8,1257,AS,exp,43,→,right,→,0.9779087000060827,True,25,1,0,2
 Y2-S2-099K20,8,1258,AS,exp,31,←,left,←,0.7955532999476418,True,25,1,0,2
 Y2-S2-099K20,8,1259,AS,exp,34,↓,down,↓,0.622648200020194,True,25,1,0,2
 Y2-S2-099K20,8,1260,AS,exp,39,←,left,←,1.0558894000714645,True,24,1,0,2
 Y2-S2-099K20,8,1261,AS,exp,48,↑,up,↑,0.728149599977769,True,24,1,0,2
 Y2-S2-099K20,8,1262,AS,exp,26,→,right,→,0.7677435000659898,True,24,1,0,2
 Y2-S2-099K20,8,1263,AS,exp,49,↑,up,↑,0.5706756999716163,True,23,1,0,2
 Y2-S2-099K20,8,1264,AS,exp,34,↓,down,↓,0.757454999955371,True,23,1,0,2
 Y2-S2-099K20,8,1265,AS,exp,36,↑,up,↑,0.8104870000388473,True,23,1,0,2
 Y2-S2-099K20,8,1266,AS,exp,40,→,right,→,0.9239809000864625,True,22,1,0,2
 Y2-S2-099K20,8,1267,AS,exp,26,←,left,←,1.1217046999372542,True,22,1,0,2
 Y2-S2-099K20,8,1268,AS,exp,43,→,right,→,0.9422891000285745,True,22,1,0,2
 Y2-S2-099K20,8,1269,AS,exp,42,←,left,←,1.0811557000270113,True,21,1,0,2
 Y2-S2-099K20,8,1270,AS,exp,31,→,right,→,0.9718995000002906,True,21,1,0,2
 Y2-S2-099K20,8,1271,AS,exp,39,←,left,←,1.0517556999111548,True,21,1,0,2
 Y2-S2-099K20,8,1272,AS,exp,25,↓,down,↓,0.8105106999864802,True,20,1,0,2
 Y2-S2-099K20,8,1273,AS,exp,42,←,left,←,0.9643493000185117,True,20,1,0,2
 Y2-S2-099K20,8,1274,AS,exp,44,↓,down,↓,0.6966266999952495,True,20,1,0,2
 Y2-S2-099K20,8,1275,AS,exp,47,→,right,→,0.8008352000033483,True,19,1,0,2
 Y2-S2-099K20,8,1276,AS,exp,27,←,left,←,0.9379901000065729,True,19,1,0,2
 Y2-S2-099K20,8,1277,AS,exp,46,↑,up,↑,0.9559710000175983,True,19,1,0,2
 Y2-S2-099K20,8,1278,AS,exp,30,→,right,→,0.7183212999952957,True,18,1,0,2
 Y2-S2-099K20,8,1279,AS,exp,42,↓,down,↓,0.6152940000174567,True,18,1,0,2
 Y2-S2-099K20,8,1280,AS,exp,40,←,left,←,0.9195859000319615,True,18,1,0,2
 Y2-S2-099K20,8,1281,AS,exp,39,→,right,→,1.159155200002715,True,17,1,0,2
 Y2-S2-099K20,8,1282,AS,exp,45,↓,down,↓,0.7305782000767067,True,17,1,0,2
 Y2-S2-099K20,8,1283,AS,exp,30,←,left,←,0.8195333000039682,True,17,1,0,2
 Y2-S2-099K20,8,1284,AS,exp,41,→,right,→,0.8120287999045104,True,16,1,0,2
 Y2-S2-099K20,8,1285,AS,exp,27,↓,down,↓,0.6520841999445111,True,16,1,0,2
 Y2-S2-099K20,8,1286,AS,exp,43,↑,up,↑,0.5796383999986574,True,16,1,0,2
 Y2-S2-099K20,8,1287,AS,exp,32,→,right,→,0.7632523999782279,True,15,1,0,2
 Y2-S2-099K20,8,1288,AS,exp,39,↑,up,↑,0.8892497000051662,True,15,1,0,2
 Y2-S2-099K20,8,1289,AS,exp,37,↓,down,↓,0.6288201999850571,True,15,1,0,2
 Y2-S2-099K20,8,1290,AS,exp,44,←,left,←,0.9857223000144586,True,14,1,0,2
 Y2-S2-099K20,8,1291,AS,exp,32,↓,down,↓,0.6858669999055564,True,14,1,0,2
 Y2-S2-099K20,8,1292,AS,exp,47,←,right,→,0.7998610000358894,False,14,-1,1,3
 Y2-S2-099K20,8,1293,AS,exp,26,→,right,→,0.6567070999881253,True,15,-1,0,3
 Y2-S2-099K20,8,1294,AS,exp,33,←,left,←,0.9150227999780327,True,15,-1,0,3
 Y2-S2-099K20,8,1295,AS,exp,44,↑,up,↑,0.7967218999983743,True,15,1,1,4
 Y2-S2-099K20,8,1296,AS,exp,46,↓,down,↓,1.0829195000696927,True,14,1,0,4
 Y2-S2-099K20,8,1297,AS,exp,31,→,left,←,0.9282112999353558,False,14,-1,1,5
 Y2-S2-099K20,8,1298,AS,exp,27,↓,down,↓,0.5938006000360474,True,15,-1,0,5
 Y2-S2-099K20,8,1299,AS,exp,50,↑,up,↑,0.8149070999352261,True,15,-1,0,5
 Y2-S2-099K20,8,1300,AS,exp,38,↓,down,↓,0.5554573000408709,True,15,1,1,6
 Y2-S2-099K20,8,1301,AS,exp,35,↑,right,→,0.8192864999873564,False,14,-1,1,7
 Y2-S2-099K20,8,1302,AS,exp,43,←,left,←,0.7661224000621587,True,15,-1,0,7
 Y2-S2-099K20,8,1303,AS,exp,29,↓,down,↓,0.8726108999690041,True,15,-1,0,7
 Y2-S2-099K20,8,1304,AS,exp,40,↑,up,↑,0.5867604000959545,True,15,1,1,8
 Y2-S2-099K20,8,1305,AS,exp,26,↓,down,↓,0.6625922999810427,True,14,1,0,8
 Y2-S2-099K20,8,1306,AS,exp,36,←,left,←,0.7103239999851212,True,14,1,0,8
 Y2-S2-099K20,8,1307,AS,exp,25,→,right,→,0.780711300089024,True,14,1,0,8
 Y2-S2-099K20,8,1308,AS,exp,32,↑,up,↑,0.8679065000033006,True,13,1,0,8
 Y2-S2-099K20,8,1309,AS,exp,38,←,left,←,0.7167182000121102,True,13,1,0,8
 Y2-S2-099K20,8,1310,AS,exp,46,↓,up,↑,0.8783632999984547,False,13,-1,1,9
 Y2-S2-099K20,8,1311,AS,exp,41,←,left,←,0.6731430999934673,True,14,-1,0,9
 Y2-S2-099K20,8,1312,AS,exp,36,↑,down,↓,1.2582098999992013,False,14,-1,0,9
 Y2-S2-099K20,8,1313,AS,exp,28,←,left,←,0.9000206999480724,True,15,-1,0,9
 Y2-S2-099K20,8,1314,AS,exp,50,↑,up,↑,0.5980966999195516,True,15,-1,0,9
 Y2-S2-099K20,8,1315,AS,exp,46,←,left,←,0.6557006000075489,True,15,1,1,10
 Y2-S2-099K20,8,1316,AS,exp,38,→,down,↓,0.8005543999606743,False,14,-1,1,11
 Y2-S2-099K20,8,1317,AS,exp,43,↓,down,↓,0.6539976999629289,True,15,-1,0,11
 Y2-S2-099K20,8,1318,AS,exp,32,→,left,←,0.8584196999436244,False,15,-1,0,11
 Y2-S2-099K20,8,1319,AS,exp,38,←,left,←,0.6327585000544786,True,16,-1,0,11
 Y2-S2-099K20,8,1320,AS,exp,49,↑,down,↓,0.8014414999634027,False,16,-1,0,11
 Y2-S2-099K20,8,1321,AS,exp,47,→,right,→,0.8603734999196604,True,17,-1,0,11
 Y2-S2-099K20,8,1322,AS,exp,27,↑,up,↑,0.6491444000275806,True,17,-1,0,11
 Y2-S2-099K20,8,1323,AS,exp,42,←,left,←,0.7554745000088587,True,17,1,1,12
 Y2-S2-099K20,8,1324,AS,exp,25,→,left,←,1.0296710000839084,False,16,-1,1,13
 Y2-S2-099K20,8,1325,AS,exp,44,←,left,←,0.8863573999842629,True,17,-1,0,13
 Y2-S2-099K20,8,1326,AS,exp,37,↑,up,↑,0.9346754999132827,True,17,-1,0,13
 Y2-S2-099K20,8,1327,AS,exp,49,↓,up,↑,0.9379018000327051,False,17,-1,0,13
 Y2-S2-099K20,8,1328,AS,exp,31,→,right,→,0.6724171999376267,True,18,-1,0,13
 Y2-S2-099K20,8,1329,AS,exp,32,←,left,←,0.8772615999914706,True,18,-1,0,13
 Y2-S2-099K20,8,1330,AS,exp,42,→,right,→,0.5919134999858215,True,18,1,1,14
 Y2-S2-099K20,8,1331,AS,exp,42,↑,up,↑,0.6456387001089752,True,17,1,0,14
 Y2-S2-099K20,8,1332,AS,exp,47,←,left,←,0.6323236000025645,True,17,1,0,14
 Y2-S2-099K20,8,1333,AS,exp,28,→,left,←,0.856798900058493,False,17,-1,1,15
 Y2-S2-099K20,8,1334,AS,exp,30,↓,down,↓,0.7784514999948442,True,18,-1,0,15
 Y2-S2-099K20,8,1335,AS,exp,38,↑,up,↑,0.7739143999060616,True,18,-1,0,15
 Y2-S2-099K20,8,1336,AS,exp,25,←,down,↓,0.8295128999743611,False,18,-1,0,15
 Y2-S2-099K20,8,1337,AS,exp,37,↑,up,↑,0.6623764999676496,True,19,-1,0,15
 Y2-S2-099K20,8,1338,AS,exp,43,←,left,←,0.9293675000080839,True,19,-1,0,15
 Y2-S2-099K20,8,1339,AS,exp,45,→,left,←,1.5756113999523222,False,19,-1,0,15
 Y2-S2-099K20,8,1340,AS,exp,30,↓,up,↑,0.9364018999040127,False,20,-1,0,15
 Y2-S2-099K20,8,1341,AS,exp,50,←,left,←,0.6954041999997571,True,21,-1,0,15
 Y2-S2-099K20,8,1342,AS,exp,47,↓,left,←,0.9952440999913961,False,21,-1,0,15
 Y2-S2-099K20,8,1343,AS,exp,27,↑,up,↑,0.9290720000863075,True,22,-1,0,15
