PART_ID,Block_no,Trial_no,Block_type,Trial_type,CSI,Stim_letter,Key_pressed,letter_choose,Rt,Corr,Stimulus Time,Level,Reversal,Revs_count
Y2-S2-108M20,1,1,PS,train,46,→,right,→,0.5508967000059783,True,30,-,-,-
Y2-S2-108M20,1,2,PS,train,40,←,left,←,0.600513500161469,True,30,-,-,-
Y2-S2-108M20,1,3,PS,train,43,↓,down,↓,0.5672335000708699,True,30,-,-,-
Y2-S2-108M20,1,4,PS,train,43,←,left,←,0.46782949985936284,True,30,-,-,-
Y2-S2-108M20,1,5,PS,train,27,→,right,→,0.38462110003456473,True,30,-,-,-
Y2-S2-108M20,1,6,PS,train,26,↓,left,←,0.3509760000742972,False,30,-,-,-
Y2-S2-108M20,1,7,PS,train,47,→,right,→,0.4344331999309361,True,30,-,-,-
Y2-S2-108M20,1,8,PS,train,35,↓,down,↓,0.31762500014156103,True,30,-,-,-
Y2-S2-108M20,1,9,PS,train,30,↑,left,←,0.4191434998065233,False,30,-,-,-
Y2-S2-108M20,1,10,PS,train,34,↓,up,↑,0.4345295000821352,False,30,-,-,-
Y2-S2-108M20,2,11,AS,train,27,↑,up,↑,0.6177475000731647,True,45,-,-,-
Y2-S2-108M20,2,12,AS,train,37,←,left,←,0.7506639999337494,True,45,-,-,-
Y2-S2-108M20,2,13,AS,train,31,↑,left,←,0.4174834997393191,False,45,-,-,-
Y2-S2-108M20,2,14,AS,train,49,↓,down,↓,0.7179884999059141,True,45,-,-,-
Y2-S2-108M20,2,15,AS,train,39,←,left,←,0.48402039986103773,True,45,-,-,-
Y2-S2-108M20,2,16,AS,train,46,↓,down,↓,0.5507510001771152,True,45,-,-,-
Y2-S2-108M20,2,17,AS,train,49,↑,up,↑,0.4844291000626981,True,45,-,-,-
Y2-S2-108M20,2,18,AS,train,43,←,left,←,0.6344203003682196,True,45,-,-,-
Y2-S2-108M20,2,19,AS,train,29,↓,down,↓,0.5178994000889361,True,45,-,-,-
Y2-S2-108M20,2,20,AS,train,32,→,left,←,0.4508561999537051,False,45,-,-,-
Y2-S2-108M20,-,21,PS,adaptive,32,←,left,←,0.5619613002054393,True,10,0,0,0
Y2-S2-108M20,-,22,PS,adaptive,35,→,left,←,0.7660642000846565,False,10,-1,0,0
Y2-S2-108M20,-,23,PS,adaptive,27,←,left,←,0.395452699624002,True,11,-1,0,0
Y2-S2-108M20,-,24,PS,adaptive,37,↑,up,↑,0.4073940999805927,True,11,-1,0,0
Y2-S2-108M20,-,25,PS,adaptive,27,→,left,←,0.3988228999078274,False,11,-1,0,0
Y2-S2-108M20,-,26,PS,adaptive,49,←,left,←,0.4769357000477612,True,12,-1,0,0
Y2-S2-108M20,-,27,PS,adaptive,29,→,right,→,0.5091299000196159,True,12,-1,0,0
Y2-S2-108M20,-,28,PS,adaptive,25,↓,down,↓,0.5562812997959554,True,12,1,1,1
Y2-S2-108M20,-,29,PS,adaptive,46,←,left,←,0.6152972998097539,True,11,1,0,1
Y2-S2-108M20,-,30,PS,adaptive,35,↓,down,↓,0.5784323997795582,True,11,1,0,1
Y2-S2-108M20,-,31,PS,adaptive,30,→,right,→,0.40541759971529245,True,11,1,0,1
Y2-S2-108M20,-,32,PS,adaptive,43,↓,down,↓,0.4583125002682209,True,10,1,0,1
Y2-S2-108M20,-,33,PS,adaptive,46,←,left,←,0.5392281003296375,True,10,1,0,1
Y2-S2-108M20,-,34,PS,adaptive,41,↓,down,↓,0.6322400001809001,True,10,1,0,1
Y2-S2-108M20,-,35,PS,adaptive,34,→,right,→,0.4796134000644088,True,9,1,0,1
Y2-S2-108M20,-,36,PS,adaptive,32,↑,right,→,0.5507493996992707,False,9,-1,1,2
Y2-S2-108M20,-,37,PS,adaptive,31,←,left,←,0.42689040023833513,True,10,-1,0,2
Y2-S2-108M20,-,38,PS,adaptive,25,↓,down,↓,0.5903590000234544,True,10,-1,0,2
Y2-S2-108M20,-,39,PS,adaptive,30,→,right,→,0.4243998001329601,True,10,1,1,3
Y2-S2-108M20,-,40,PS,adaptive,29,↑,up,↑,0.4125707997009158,True,9,1,0,3
Y2-S2-108M20,-,41,PS,adaptive,28,←,left,←,0.5496144997887313,True,9,1,0,3
Y2-S2-108M20,-,42,PS,adaptive,27,↓,down,↓,0.51025400031358,True,9,1,0,3
Y2-S2-108M20,-,43,PS,adaptive,29,→,right,→,0.5063327997922897,True,8,1,0,3
Y2-S2-108M20,-,44,PS,adaptive,32,←,left,←,0.5001846998929977,True,8,1,0,3
Y2-S2-108M20,-,45,PS,adaptive,46,↑,up,↑,0.4548893002793193,True,8,1,0,3
Y2-S2-108M20,-,46,PS,adaptive,50,←,left,←,0.5366397998295724,True,7,1,0,3
Y2-S2-108M20,-,47,PS,adaptive,34,↑,up,↑,0.3777029998600483,True,7,1,0,3
Y2-S2-108M20,-,48,PS,adaptive,36,↓,down,↓,0.4567974000237882,True,7,1,0,3
Y2-S2-108M20,-,49,PS,adaptive,35,→,right,→,0.43292379984632134,True,6,1,0,3
Y2-S2-108M20,-,50,PS,adaptive,39,←,right,→,0.6104878997430205,False,6,-1,1,4
Y2-S2-108M20,-,51,AS,adaptive,40,↑,up,↑,0.5675643999129534,True,20,0,0,0
Y2-S2-108M20,-,52,AS,adaptive,34,←,left,←,1.3531124996952713,True,20,0,0,0
Y2-S2-108M20,-,53,AS,adaptive,48,↑,up,↑,0.4677387000992894,True,20,1,0,0
Y2-S2-108M20,-,54,AS,adaptive,40,→,right,→,0.4341460997238755,True,19,1,0,0
Y2-S2-108M20,-,55,AS,adaptive,42,↑,up,↑,0.4342514998279512,True,19,1,0,0
Y2-S2-108M20,-,56,AS,adaptive,42,←,left,←,0.5087248999625444,True,19,1,0,0
Y2-S2-108M20,-,57,AS,adaptive,48,↑,up,↑,0.4900339003652334,True,18,1,0,0
Y2-S2-108M20,-,58,AS,adaptive,50,→,right,→,0.5279831001535058,True,18,1,0,0
Y2-S2-108M20,-,59,AS,adaptive,38,↓,down,↓,1.1373279001563787,True,18,1,0,0
Y2-S2-108M20,-,60,AS,adaptive,38,↑,up,↑,0.5270480001345277,True,17,1,0,0
Y2-S2-108M20,-,61,AS,adaptive,34,↓,down,↓,0.46027440018951893,True,17,1,0,0
Y2-S2-108M20,-,62,AS,adaptive,34,↑,up,↑,0.5917032998986542,True,17,1,0,0
Y2-S2-108M20,-,63,AS,adaptive,33,→,left,←,0.8354988996870816,False,16,-1,1,1
Y2-S2-108M20,-,64,AS,adaptive,25,↓,down,↓,0.5323870000429451,True,17,-1,0,1
Y2-S2-108M20,-,65,AS,adaptive,45,←,left,←,0.6277588000521064,True,17,-1,0,1
Y2-S2-108M20,-,66,AS,adaptive,39,→,right,→,0.5886670001782477,True,17,1,1,2
Y2-S2-108M20,-,67,AS,adaptive,25,↓,down,↓,0.5662926002405584,True,16,1,0,2
Y2-S2-108M20,-,68,AS,adaptive,32,←,left,←,0.4936663997359574,True,16,1,0,2
Y2-S2-108M20,-,69,AS,adaptive,43,↑,up,↑,0.517137199640274,True,16,1,0,2
Y2-S2-108M20,-,70,AS,adaptive,36,↓,down,↓,0.6269647004082799,True,15,1,0,2
Y2-S2-108M20,-,71,AS,adaptive,41,↑,up,↑,0.5243156999349594,True,15,1,0,2
Y2-S2-108M20,-,72,AS,adaptive,50,←,left,←,0.5274037998169661,True,15,1,0,2
Y2-S2-108M20,-,73,AS,adaptive,35,→,right,→,0.5180667997337878,True,14,1,0,2
Y2-S2-108M20,-,74,AS,adaptive,44,←,left,←,0.6181862000375986,True,14,1,0,2
Y2-S2-108M20,-,75,AS,adaptive,49,↑,up,↑,0.4521932997740805,True,14,1,0,2
Y2-S2-108M20,-,76,AS,adaptive,34,→,right,→,0.4533315999433398,True,13,1,0,2
Y2-S2-108M20,-,77,AS,adaptive,46,↓,down,↓,0.5675395000725985,True,13,1,0,2
Y2-S2-108M20,-,78,AS,adaptive,29,↑,up,↑,0.5606037997640669,True,13,1,0,2
Y2-S2-108M20,-,79,AS,adaptive,41,↓,down,↓,0.5577043001540005,True,12,1,0,2
Y2-S2-108M20,-,80,AS,adaptive,36,←,left,←,0.6263223998248577,True,12,1,0,2
Y2-S2-108M20,-,81,AS,adaptive,34,↑,up,↑,0.45025500003248453,True,12,1,0,2
Y2-S2-108M20,-,82,AS,adaptive,38,↓,right,→,0.8001011000014842,False,11,-1,1,3
Y2-S2-108M20,-,83,AS,adaptive,43,↑,up,↑,0.41185310017317533,True,12,-1,0,3
Y2-S2-108M20,-,84,AS,adaptive,28,←,left,←,0.5501855001784861,True,12,-1,0,3
Y2-S2-108M20,-,85,AS,adaptive,40,↓,down,↓,0.490429800003767,True,12,1,1,4
Y2-S2-108M20,1,86,PS,intra_train,46,→,right,→,0.6635924996808171,True,10,-,-,-
Y2-S2-108M20,1,87,PS,intra_train,38,↓,down,↓,0.47982090013101697,True,10,-,-,-
Y2-S2-108M20,1,88,PS,intra_train,45,↑,up,↑,0.5175201999954879,True,10,-,-,-
Y2-S2-108M20,1,89,PS,intra_train,39,→,right,→,0.4386614002287388,True,10,-,-,-
Y2-S2-108M20,1,90,PS,intra_train,42,↓,down,↓,0.5802559996955097,True,10,-,-,-
Y2-S2-108M20,1,91,PS,exp,25,←,right,→,0.41414309991523623,False,7,-1,0,0
Y2-S2-108M20,1,92,PS,exp,50,↓,down,↓,0.6084056999534369,True,8,-1,0,0
Y2-S2-108M20,1,93,PS,exp,35,↑,up,↑,0.608213699888438,True,8,-1,0,0
Y2-S2-108M20,1,94,PS,exp,44,→,right,→,0.45471509965136647,True,8,1,1,1
Y2-S2-108M20,1,95,PS,exp,43,↑,left,←,0.7360139000229537,False,7,-1,1,2
Y2-S2-108M20,1,96,PS,exp,33,↓,down,↓,0.48006620025262237,True,8,-1,0,2
Y2-S2-108M20,1,97,PS,exp,25,→,right,→,0.5748573997989297,True,8,-1,0,2
Y2-S2-108M20,1,98,PS,exp,37,↑,up,↑,0.568123500328511,True,8,1,1,3
Y2-S2-108M20,1,99,PS,exp,25,←,left,←,0.6125582000240684,True,7,1,0,3
Y2-S2-108M20,1,100,PS,exp,50,→,left,←,0.7831345000304282,False,7,-1,1,4
Y2-S2-108M20,1,101,PS,exp,34,↓,right,→,0.46735749999061227,False,8,-1,0,4
Y2-S2-108M20,1,102,PS,exp,38,←,right,→,0.5705929999239743,False,9,-1,0,4
Y2-S2-108M20,1,103,PS,exp,33,↓,down,↓,0.4865476000122726,True,10,-1,0,4
Y2-S2-108M20,1,104,PS,exp,48,→,right,→,0.3929398995824158,True,10,-1,0,4
Y2-S2-108M20,1,105,PS,exp,28,↑,right,→,0.7647721003741026,False,10,-1,0,4
Y2-S2-108M20,1,106,PS,exp,26,←,left,←,0.4409619001671672,True,11,-1,0,4
Y2-S2-108M20,1,107,PS,exp,48,↓,down,↓,0.4786371998488903,True,11,-1,0,4
Y2-S2-108M20,1,108,PS,exp,41,↑,up,↑,0.4400925999507308,True,11,1,1,5
Y2-S2-108M20,1,109,PS,exp,41,→,left,←,0.5981352999806404,False,10,-1,1,6
Y2-S2-108M20,1,110,PS,exp,44,←,left,←,0.6107358001172543,True,11,-1,0,6
Y2-S2-108M20,1,111,PS,exp,45,↑,up,↑,0.4676135997287929,True,11,-1,0,6
Y2-S2-108M20,1,112,PS,exp,36,↓,down,↓,0.6099024000577629,True,11,1,1,7
Y2-S2-108M20,1,113,PS,exp,30,←,left,←,0.44504120014607906,True,10,1,0,7
Y2-S2-108M20,1,114,PS,exp,49,↓,down,↓,0.4757731999270618,True,10,1,0,7
Y2-S2-108M20,1,115,PS,exp,41,↑,up,↑,0.3717589001171291,True,10,1,0,7
Y2-S2-108M20,1,116,PS,exp,36,→,right,→,0.4097521002404392,True,9,1,0,7
Y2-S2-108M20,1,117,PS,exp,39,←,left,←,0.46055710036307573,True,9,1,0,7
Y2-S2-108M20,1,118,PS,exp,36,→,left,←,0.6093250997364521,False,9,-1,1,8
Y2-S2-108M20,1,119,PS,exp,47,↑,up,↑,0.374265699647367,True,10,-1,0,8
Y2-S2-108M20,1,120,PS,exp,44,←,up,↑,0.7319938996806741,False,10,-1,0,8
Y2-S2-108M20,1,121,PS,exp,41,↑,up,↑,0.40818880032747984,True,11,-1,0,8
Y2-S2-108M20,1,122,PS,exp,41,→,right,→,0.37097869999706745,True,11,-1,0,8
Y2-S2-108M20,1,123,PS,exp,49,↓,down,↓,0.5354055999778211,True,11,1,1,9
Y2-S2-108M20,1,124,PS,exp,36,↑,right,→,1.0373188997618854,False,10,-1,1,10
Y2-S2-108M20,1,125,PS,exp,42,→,right,→,0.37771440017968416,True,11,-1,0,10
Y2-S2-108M20,1,126,PS,exp,47,↓,down,↓,0.497908900026232,True,11,-1,0,10
Y2-S2-108M20,1,127,PS,exp,43,→,right,→,0.3636254002340138,True,11,1,1,11
Y2-S2-108M20,1,128,PS,exp,45,↑,up,↑,0.44417429994791746,True,10,1,0,11
Y2-S2-108M20,1,129,PS,exp,31,←,left,←,0.5803773999214172,True,10,1,0,11
Y2-S2-108M20,1,130,PS,exp,36,↓,down,↓,0.5593886999413371,True,10,1,0,11
Y2-S2-108M20,1,131,PS,exp,46,→,right,→,0.4452995997853577,True,9,1,0,11
Y2-S2-108M20,1,132,PS,exp,32,↓,down,↓,0.7820860999636352,True,9,1,0,11
Y2-S2-108M20,1,133,PS,exp,37,←,left,←,0.5483261998742819,True,9,1,0,11
Y2-S2-108M20,1,134,PS,exp,34,↓,left,←,0.8020863998681307,False,8,-1,1,12
Y2-S2-108M20,1,135,PS,exp,30,→,right,→,0.5713149001821876,True,9,-1,0,12
Y2-S2-108M20,1,136,PS,exp,33,↓,down,↓,0.5380579000338912,True,9,-1,0,12
Y2-S2-108M20,1,137,PS,exp,32,→,right,→,0.40220059966668487,True,9,1,1,13
Y2-S2-108M20,1,138,PS,exp,43,←,left,←,0.5184870003722608,True,8,1,0,13
Y2-S2-108M20,1,139,PS,exp,42,→,right,→,0.8003576002083719,True,8,1,0,13
Y2-S2-108M20,1,140,PS,exp,30,←,left,←,0.525375900324434,True,8,1,0,13
Y2-S2-108M20,1,141,PS,exp,46,↓,down,↓,0.47008500015363097,True,7,1,0,13
Y2-S2-108M20,1,142,PS,exp,37,←,left,←,0.5538804000243545,True,7,1,0,13
Y2-S2-108M20,1,143,PS,exp,28,→,right,→,0.40215580025687814,True,7,1,0,13
Y2-S2-108M20,1,144,PS,exp,40,↓,down,↓,0.47342999977990985,True,6,1,0,13
Y2-S2-108M20,1,145,PS,exp,29,→,right,→,0.49291929975152016,True,6,1,0,13
Y2-S2-108M20,1,146,PS,exp,43,←,left,←,0.4893332999199629,True,6,1,0,13
Y2-S2-108M20,1,147,PS,exp,34,→,right,→,0.5457561002112925,True,5,1,0,13
Y2-S2-108M20,1,148,PS,exp,27,↑,up,↑,0.4415850997902453,True,5,1,0,13
Y2-S2-108M20,1,149,PS,exp,30,←,right,→,0.43318739999085665,False,5,-1,1,14
Y2-S2-108M20,1,150,PS,exp,29,↓,down,↓,0.44909900007769465,True,6,-1,0,14
Y2-S2-108M20,1,151,PS,exp,48,→,left,←,0.8324119001626968,False,6,-1,0,14
Y2-S2-108M20,1,152,PS,exp,48,↑,up,↑,0.47101440001279116,True,7,-1,0,14
Y2-S2-108M20,1,153,PS,exp,39,←,right,→,0.49656410003080964,False,7,-1,0,14
Y2-S2-108M20,1,154,PS,exp,47,→,right,→,0.6157155004329979,True,8,-1,0,14
Y2-S2-108M20,1,155,PS,exp,48,←,left,←,0.5079012997448444,True,8,-1,0,14
Y2-S2-108M20,1,156,PS,exp,42,↓,down,↓,0.5218764999881387,True,8,1,1,15
Y2-S2-108M20,1,157,PS,exp,42,→,right,→,0.4480419997125864,True,7,1,0,15
Y2-S2-108M20,1,158,PS,exp,49,↓,down,↓,0.5558850998058915,True,7,1,0,15
Y2-S2-108M20,1,159,PS,exp,39,→,right,→,0.4447278003208339,True,7,1,0,15
Y2-S2-108M20,1,160,PS,exp,48,↑,up,↑,0.43805600004270673,True,6,1,0,15
Y2-S2-108M20,1,161,PS,exp,30,↓,down,↓,0.5213637999258935,True,6,1,0,15
Y2-S2-108M20,1,162,PS,exp,26,←,left,←,0.43592730024829507,True,6,1,0,15
Y2-S2-108M20,1,163,PS,exp,29,↑,up,↑,0.4848152003251016,True,5,1,0,15
Y2-S2-108M20,1,164,PS,exp,44,←,left,←,0.6248637000098825,True,5,1,0,15
Y2-S2-108M20,1,165,PS,exp,35,↓,right,→,0.6017897999845445,False,5,-1,1,16
Y2-S2-108M20,2,166,AS,intra_train,37,↑,up,↑,0.7051594001241028,True,16,-,-,-
Y2-S2-108M20,2,167,AS,intra_train,41,→,right,→,0.6680593998171389,True,16,-,-,-
Y2-S2-108M20,2,168,AS,intra_train,45,↓,down,↓,0.5654525002464652,True,16,-,-,-
Y2-S2-108M20,2,169,AS,intra_train,42,↑,up,↑,0.6638150000944734,True,16,-,-,-
Y2-S2-108M20,2,170,AS,intra_train,39,←,down,↓,0.629806200042367,False,16,-,-,-
Y2-S2-108M20,2,171,AS,exp,39,↑,up,↑,0.4320040000602603,True,11,0,0,0
Y2-S2-108M20,2,172,AS,exp,43,←,right,→,0.701108600012958,False,11,-1,0,0
Y2-S2-108M20,2,173,AS,exp,31,↓,down,↓,0.5468038003891706,True,12,-1,0,0
Y2-S2-108M20,2,174,AS,exp,43,↑,down,↓,0.39663439989089966,False,12,-1,0,0
Y2-S2-108M20,2,175,AS,exp,49,→,right,→,0.47957960003986955,True,13,-1,0,0
Y2-S2-108M20,2,176,AS,exp,28,↓,up,↑,0.6121891001239419,False,13,-1,0,0
Y2-S2-108M20,2,177,AS,exp,46,←,left,←,0.5931636998429894,True,14,-1,0,0
Y2-S2-108M20,2,178,AS,exp,28,↓,up,↑,0.6698612002655864,False,14,-1,0,0
Y2-S2-108M20,2,179,AS,exp,42,←,left,←,0.5819405000656843,True,15,-1,0,0
Y2-S2-108M20,2,180,AS,exp,49,→,right,→,0.38413310004398227,True,15,-1,0,0
Y2-S2-108M20,2,181,AS,exp,42,↑,up,↑,0.42435749992728233,True,15,1,1,1
Y2-S2-108M20,2,182,AS,exp,43,←,up,↑,1.061087999958545,False,14,-1,1,2
Y2-S2-108M20,2,183,AS,exp,37,↓,down,↓,0.6867251000367105,True,15,-1,0,2
Y2-S2-108M20,2,184,AS,exp,30,↑,up,↑,0.564955800306052,True,15,-1,0,2
Y2-S2-108M20,2,185,AS,exp,36,←,left,←,0.4754814999178052,True,15,1,1,3
Y2-S2-108M20,2,186,AS,exp,49,→,right,→,0.46726119983941317,True,14,1,0,3
Y2-S2-108M20,2,187,AS,exp,50,↓,down,↓,0.6427201996557415,True,14,1,0,3
Y2-S2-108M20,2,188,AS,exp,31,↑,up,↑,0.4511786000803113,True,14,1,0,3
Y2-S2-108M20,2,189,AS,exp,50,←,left,←,0.5349182998761535,True,13,1,0,3
Y2-S2-108M20,2,190,AS,exp,37,↑,up,↑,0.5564386998303235,True,13,1,0,3
Y2-S2-108M20,2,191,AS,exp,37,↓,down,↓,0.6704398998990655,True,13,1,0,3
Y2-S2-108M20,2,192,AS,exp,49,↑,up,↑,0.49807870015501976,True,12,1,0,3
Y2-S2-108M20,2,193,AS,exp,35,→,right,→,0.4914932996034622,True,12,1,0,3
Y2-S2-108M20,2,194,AS,exp,28,↑,up,↑,0.5502387001179159,True,12,1,0,3
Y2-S2-108M20,2,195,AS,exp,49,←,left,←,0.6307441000826657,True,11,1,0,3
Y2-S2-108M20,2,196,AS,exp,30,→,left,←,0.5241352003067732,False,11,-1,1,4
Y2-S2-108M20,2,197,AS,exp,26,←,left,←,0.48613640014082193,True,12,-1,0,4
Y2-S2-108M20,2,198,AS,exp,25,→,right,→,0.41867189994081855,True,12,-1,0,4
Y2-S2-108M20,2,199,AS,exp,47,↑,up,↑,0.47274329978972673,True,12,1,1,5
Y2-S2-108M20,2,200,AS,exp,37,↓,up,↑,0.6244704998098314,False,11,-1,1,6
Y2-S2-108M20,2,201,AS,exp,47,←,left,←,0.47590050008147955,True,12,-1,0,6
Y2-S2-108M20,2,202,AS,exp,39,↓,down,↓,0.5037572998553514,True,12,-1,0,6
Y2-S2-108M20,2,203,AS,exp,40,←,up,↑,0.8418565997853875,False,12,-1,0,6
Y2-S2-108M20,2,204,AS,exp,30,→,right,→,0.5044977003708482,True,13,-1,0,6
Y2-S2-108M20,2,205,AS,exp,44,←,left,←,0.5111337997950613,True,13,-1,0,6
Y2-S2-108M20,2,206,AS,exp,50,↑,up,↑,0.5532459001988173,True,13,1,1,7
Y2-S2-108M20,2,207,AS,exp,48,←,left,←,0.45828149979934096,True,12,1,0,7
Y2-S2-108M20,2,208,AS,exp,37,↓,down,↓,0.4785062000155449,True,12,1,0,7
Y2-S2-108M20,2,209,AS,exp,39,←,left,←,0.4175470001064241,True,12,1,0,7
Y2-S2-108M20,2,210,AS,exp,47,→,right,→,0.5133009999990463,True,11,1,0,7
Y2-S2-108M20,2,211,AS,exp,50,↓,down,↓,0.5327888997271657,True,11,1,0,7
Y2-S2-108M20,2,212,AS,exp,36,←,left,←,0.5986571996472776,True,11,1,0,7
Y2-S2-108M20,2,213,AS,exp,31,→,left,←,0.5867943000048399,False,10,-1,1,8
Y2-S2-108M20,2,214,AS,exp,30,←,left,←,0.5732658002525568,True,11,-1,0,8
Y2-S2-108M20,2,215,AS,exp,26,→,right,→,0.40828859992325306,True,11,-1,0,8
Y2-S2-108M20,2,216,AS,exp,41,←,left,←,0.5488150003366172,True,11,1,1,9
Y2-S2-108M20,2,217,AS,exp,39,↑,up,↑,0.4604008998721838,True,10,1,0,9
Y2-S2-108M20,2,218,AS,exp,27,←,left,←,0.5662787999026477,True,10,1,0,9
Y2-S2-108M20,2,219,AS,exp,26,↓,up,↑,0.5457700998522341,False,10,-1,1,10
Y2-S2-108M20,2,220,AS,exp,38,←,left,←,0.36762910010293126,True,11,-1,0,10
Y2-S2-108M20,2,221,AS,exp,28,→,right,→,0.4902827003970742,True,11,-1,0,10
Y2-S2-108M20,2,222,AS,exp,46,←,left,←,0.47871610010042787,True,11,1,1,11
Y2-S2-108M20,2,223,AS,exp,25,→,left,←,0.5068981996737421,False,10,-1,1,12
Y2-S2-108M20,2,224,AS,exp,37,←,left,←,0.47827620012685657,True,11,-1,0,12
Y2-S2-108M20,2,225,AS,exp,45,↓,down,↓,0.5961617999710143,True,11,-1,0,12
Y2-S2-108M20,2,226,AS,exp,44,→,left,←,0.5686194999143481,False,11,-1,0,12
Y2-S2-108M20,2,227,AS,exp,44,←,left,←,0.4717114004306495,True,12,-1,0,12
Y2-S2-108M20,2,228,AS,exp,46,→,right,→,0.369253299664706,True,12,-1,0,12
Y2-S2-108M20,2,229,AS,exp,48,←,left,←,0.6096052001230419,True,12,1,1,13
Y2-S2-108M20,2,230,AS,exp,40,↑,up,↑,0.4275067001581192,True,11,1,0,13
Y2-S2-108M20,2,231,AS,exp,27,→,right,→,0.5089688999578357,True,11,1,0,13
Y2-S2-108M20,2,232,AS,exp,38,↑,right,→,0.37924390006810427,False,11,-1,1,14
Y2-S2-108M20,2,233,AS,exp,32,↓,down,↓,0.5044851000420749,True,12,-1,0,14
Y2-S2-108M20,2,234,AS,exp,32,→,right,→,0.6613656003028154,True,12,-1,0,14
Y2-S2-108M20,2,235,AS,exp,25,←,left,←,0.47813310008496046,True,12,1,1,15
Y2-S2-108M20,2,236,AS,exp,25,→,left,←,0.7727336999960244,False,11,-1,1,16
Y2-S2-108M20,3,237,AS,intra_train,31,↓,down,↓,0.6623408999294043,True,16,-,-,-
Y2-S2-108M20,3,238,AS,intra_train,30,↑,up,↑,0.8963248999789357,True,16,-,-,-
Y2-S2-108M20,3,239,AS,intra_train,32,←,left,←,0.6268103001639247,True,16,-,-,-
Y2-S2-108M20,3,240,AS,intra_train,44,→,right,→,0.5559613998048007,True,16,-,-,-
Y2-S2-108M20,3,241,AS,intra_train,50,↓,down,↓,0.6272043003700674,True,16,-,-,-
Y2-S2-108M20,3,242,AS,exp,44,→,right,→,0.4377137999981642,True,11,0,0,0
Y2-S2-108M20,3,243,AS,exp,27,↑,up,↑,0.544329899828881,True,11,0,0,0
Y2-S2-108M20,3,244,AS,exp,26,→,right,→,0.45402910001575947,True,11,1,0,0
Y2-S2-108M20,3,245,AS,exp,30,↑,right,→,0.6072896001860499,False,10,-1,1,1
Y2-S2-108M20,3,246,AS,exp,45,←,left,←,0.5395364998839796,True,11,-1,0,1
Y2-S2-108M20,3,247,AS,exp,49,↓,down,↓,0.5609368998557329,True,11,-1,0,1
Y2-S2-108M20,3,248,AS,exp,43,→,right,→,1.2069040001370013,True,11,1,1,2
Y2-S2-108M20,3,249,AS,exp,35,↑,down,↓,0.6339787002652884,False,10,-1,1,3
Y2-S2-108M20,3,250,AS,exp,42,↓,down,↓,0.4537876998074353,True,11,-1,0,3
Y2-S2-108M20,3,251,AS,exp,49,←,left,←,0.4961263001896441,True,11,-1,0,3
Y2-S2-108M20,3,252,AS,exp,25,↓,down,↓,0.6492734998464584,True,11,1,1,4
Y2-S2-108M20,3,253,AS,exp,36,→,right,→,0.3899322999641299,True,10,1,0,4
Y2-S2-108M20,3,254,AS,exp,31,↑,down,↓,0.6191162997856736,False,10,-1,1,5
Y2-S2-108M20,3,255,AS,exp,43,↓,down,↓,0.4210214000195265,True,11,-1,0,5
Y2-S2-108M20,3,256,AS,exp,34,←,left,←,0.5786115997470915,True,11,-1,0,5
Y2-S2-108M20,3,257,AS,exp,42,↓,down,↓,1.179564299993217,True,11,1,1,6
Y2-S2-108M20,3,258,AS,exp,29,←,left,←,0.542576499748975,True,10,1,0,6
Y2-S2-108M20,3,259,AS,exp,27,↑,up,↑,0.413675700314343,True,10,1,0,6
Y2-S2-108M20,3,260,AS,exp,49,→,right,→,0.4308589999563992,True,10,1,0,6
Y2-S2-108M20,3,261,AS,exp,30,↓,left,←,0.6160935997031629,False,9,-1,1,7
Y2-S2-108M20,3,262,AS,exp,40,↑,down,↓,0.7649457002989948,False,10,-1,0,7
Y2-S2-108M20,3,263,AS,exp,35,→,right,→,0.40765499975532293,True,11,-1,0,7
Y2-S2-108M20,3,264,AS,exp,47,↓,down,↓,0.4774321001023054,True,11,-1,0,7
Y2-S2-108M20,3,265,AS,exp,46,←,left,←,0.43047939985990524,True,11,1,1,8
Y2-S2-108M20,3,266,AS,exp,25,↓,down,↓,0.6451570000499487,True,10,1,0,8
Y2-S2-108M20,3,267,AS,exp,36,←,left,←,1.6103838002309203,True,10,1,0,8
Y2-S2-108M20,3,268,AS,exp,37,→,left,←,0.5786039996892214,False,10,-1,1,9
Y2-S2-108M20,3,269,AS,exp,33,↓,down,↓,0.3701712996698916,True,11,-1,0,9
Y2-S2-108M20,3,270,AS,exp,36,←,left,←,0.5867424998432398,True,11,-1,0,9
Y2-S2-108M20,3,271,AS,exp,29,↓,down,↓,0.5008041998371482,True,11,1,1,10
Y2-S2-108M20,3,272,AS,exp,28,→,left,←,0.5473289997316897,False,10,-1,1,11
Y2-S2-108M20,3,273,AS,exp,44,←,left,←,0.4169768998399377,True,11,-1,0,11
Y2-S2-108M20,3,274,AS,exp,44,↑,up,↑,0.5199222997762263,True,11,-1,0,11
Y2-S2-108M20,3,275,AS,exp,35,←,left,←,0.5678670001216233,True,11,1,1,12
Y2-S2-108M20,3,276,AS,exp,45,→,right,→,0.43952269991859794,True,10,1,0,12
Y2-S2-108M20,3,277,AS,exp,37,←,right,→,0.5083192000165582,False,10,-1,1,13
Y2-S2-108M20,3,278,AS,exp,27,↑,up,↑,0.3942174003459513,True,11,-1,0,13
Y2-S2-108M20,3,279,AS,exp,35,→,left,←,0.5030644000507891,False,11,-1,0,13
Y2-S2-108M20,3,280,AS,exp,44,↓,up,↑,0.5346100996248424,False,12,-1,0,13
Y2-S2-108M20,3,281,AS,exp,34,←,left,←,0.5094382003881037,True,13,-1,0,13
Y2-S2-108M20,3,282,AS,exp,30,→,right,→,0.38682640017941594,True,13,-1,0,13
Y2-S2-108M20,3,283,AS,exp,35,↓,down,↓,0.6485862000845373,True,13,1,1,14
Y2-S2-108M20,3,284,AS,exp,31,→,right,→,0.4960755999200046,True,12,1,0,14
Y2-S2-108M20,3,285,AS,exp,35,↑,up,↑,0.7188849002122879,True,12,1,0,14
Y2-S2-108M20,3,286,AS,exp,47,→,right,→,0.42390540009364486,True,12,1,0,14
Y2-S2-108M20,3,287,AS,exp,28,←,left,←,0.4653091998770833,True,11,1,0,14
Y2-S2-108M20,3,288,AS,exp,25,→,right,→,0.5446394002065063,True,11,1,0,14
Y2-S2-108M20,3,289,AS,exp,33,↓,down,↓,0.6020987001247704,True,11,1,0,14
Y2-S2-108M20,3,290,AS,exp,46,→,right,→,0.37095719994977117,True,10,1,0,14
Y2-S2-108M20,3,291,AS,exp,34,↑,down,↓,0.5509385000914335,False,10,-1,1,15
Y2-S2-108M20,3,292,AS,exp,29,←,left,←,0.4858816000632942,True,11,-1,0,15
Y2-S2-108M20,3,293,AS,exp,37,↓,down,↓,0.4632063000462949,True,11,-1,0,15
Y2-S2-108M20,3,294,AS,exp,28,→,right,→,0.4279710999689996,True,11,1,1,16
Y2-S2-108M20,4,295,PS,intra_train,41,←,right,→,0.5371706001460552,False,10,-,-,-
Y2-S2-108M20,4,296,PS,intra_train,42,→,right,→,0.6623991997912526,True,10,-,-,-
Y2-S2-108M20,4,297,PS,intra_train,41,↓,down,↓,0.6304616997949779,True,10,-,-,-
Y2-S2-108M20,4,298,PS,intra_train,28,→,right,→,0.3926085000857711,True,10,-,-,-
Y2-S2-108M20,4,299,PS,intra_train,34,←,left,←,0.5430145999416709,True,10,-,-,-
Y2-S2-108M20,4,300,PS,exp,25,↑,up,↑,0.4230765998363495,True,7,0,0,0
Y2-S2-108M20,4,301,PS,exp,28,↓,down,↓,0.6460453001782298,True,7,0,0,0
Y2-S2-108M20,4,302,PS,exp,29,←,left,←,0.4302802002057433,True,7,1,0,0
Y2-S2-108M20,4,303,PS,exp,50,↑,up,↑,0.3563609002158046,True,6,1,0,0
Y2-S2-108M20,4,304,PS,exp,29,←,left,←,0.44014229997992516,True,6,1,0,0
Y2-S2-108M20,4,305,PS,exp,29,↑,up,↑,0.41544080013409257,True,6,1,0,0
Y2-S2-108M20,4,306,PS,exp,44,↓,up,↑,0.55936020007357,False,5,-1,1,1
Y2-S2-108M20,4,307,PS,exp,26,↑,up,↑,0.29050489980727434,True,6,-1,0,1
Y2-S2-108M20,4,308,PS,exp,28,←,left,←,0.3988147000782192,True,6,-1,0,1
Y2-S2-108M20,4,309,PS,exp,25,↓,down,↓,0.5267117996700108,True,6,1,1,2
Y2-S2-108M20,4,310,PS,exp,40,→,right,→,0.40018680039793253,True,5,1,0,2
Y2-S2-108M20,4,311,PS,exp,26,↑,left,←,0.9227408999577165,False,5,-1,1,3
Y2-S2-108M20,4,312,PS,exp,34,→,left,←,0.5108094001188874,False,6,-1,0,3
Y2-S2-108M20,4,313,PS,exp,35,↑,up,↑,0.3928174995817244,True,7,-1,0,3
Y2-S2-108M20,4,314,PS,exp,36,→,right,→,0.41757990000769496,True,7,-1,0,3
Y2-S2-108M20,4,315,PS,exp,40,↑,up,↑,0.4732444998808205,True,7,1,1,4
Y2-S2-108M20,4,316,PS,exp,26,←,left,←,0.5260800998657942,True,6,1,0,4
Y2-S2-108M20,4,317,PS,exp,39,↓,down,↓,0.5219375998713076,True,6,1,0,4
Y2-S2-108M20,4,318,PS,exp,32,←,left,←,0.6762012001127005,True,6,1,0,4
Y2-S2-108M20,4,319,PS,exp,36,↓,down,↓,0.47302599996328354,True,5,1,0,4
Y2-S2-108M20,4,320,PS,exp,48,→,right,→,0.3466869001276791,True,5,1,0,4
Y2-S2-108M20,4,321,PS,exp,25,←,left,←,0.5826636999845505,True,5,1,0,4
Y2-S2-108M20,4,322,PS,exp,25,↑,left,←,0.5591740999370813,False,4,-1,1,5
Y2-S2-108M20,4,323,PS,exp,50,←,left,←,0.48586570005863905,True,5,-1,0,5
Y2-S2-108M20,4,324,PS,exp,25,↓,down,↓,0.5111039001494646,True,5,-1,0,5
Y2-S2-108M20,4,325,PS,exp,25,→,right,→,0.402246399782598,True,5,1,1,6
Y2-S2-108M20,4,326,PS,exp,45,↑,up,↑,0.5742671000771224,True,4,1,0,6
Y2-S2-108M20,4,327,PS,exp,49,↓,left,←,0.5894884001463652,False,4,-1,1,7
Y2-S2-108M20,4,328,PS,exp,44,↑,left,←,0.5435520000755787,False,5,-1,0,7
Y2-S2-108M20,4,329,PS,exp,36,←,left,←,0.415179000236094,True,6,-1,0,7
Y2-S2-108M20,4,330,PS,exp,47,→,right,→,0.39154719980433583,True,6,-1,0,7
Y2-S2-108M20,4,331,PS,exp,48,↑,up,↑,0.36642459966242313,True,6,1,1,8
Y2-S2-108M20,4,332,PS,exp,38,↓,left,←,0.5661912998184562,False,5,-1,1,9
Y2-S2-108M20,4,333,PS,exp,26,←,left,←,0.46879970002919436,True,6,-1,0,9
Y2-S2-108M20,4,334,PS,exp,44,↑,up,↑,0.3704494000412524,True,6,-1,0,9
Y2-S2-108M20,4,335,PS,exp,35,↓,down,↓,0.513096199836582,True,6,1,1,10
Y2-S2-108M20,4,336,PS,exp,48,←,left,←,0.5617015999741852,True,5,1,0,10
Y2-S2-108M20,4,337,PS,exp,40,↑,up,↑,0.5029726000502706,True,5,1,0,10
Y2-S2-108M20,4,338,PS,exp,27,↓,down,↓,0.45771220000460744,True,5,1,0,10
Y2-S2-108M20,4,339,PS,exp,33,←,left,←,0.528825799934566,True,4,1,0,10
Y2-S2-108M20,4,340,PS,exp,48,→,left,←,0.5230503999628127,False,4,-1,1,11
Y2-S2-108M20,4,341,PS,exp,30,←,left,←,0.5795203000307083,True,5,-1,0,11
Y2-S2-108M20,4,342,PS,exp,48,↑,up,↑,0.47704439982771873,True,5,-1,0,11
Y2-S2-108M20,4,343,PS,exp,25,→,right,→,0.4562421999871731,True,5,1,1,12
Y2-S2-108M20,4,344,PS,exp,47,↑,left,←,0.6009360998868942,False,4,-1,1,13
Y2-S2-108M20,4,345,PS,exp,48,←,left,←,0.6195614999160171,True,5,-1,0,13
Y2-S2-108M20,4,346,PS,exp,28,→,right,→,0.5777564002200961,True,5,-1,0,13
Y2-S2-108M20,4,347,PS,exp,45,↓,right,→,0.6857111998833716,False,5,-1,0,13
Y2-S2-108M20,4,348,PS,exp,43,→,left,←,0.4989821999333799,False,6,-1,0,13
Y2-S2-108M20,4,349,PS,exp,27,↓,down,↓,0.5361458999104798,True,7,-1,0,13
Y2-S2-108M20,4,350,PS,exp,28,→,right,→,0.6777467001229525,True,7,-1,0,13
Y2-S2-108M20,4,351,PS,exp,37,↓,right,→,0.540209200233221,False,7,-1,0,13
Y2-S2-108M20,4,352,PS,exp,42,↑,up,↑,0.5646302998065948,True,8,-1,0,13
Y2-S2-108M20,4,353,PS,exp,33,↓,down,↓,0.5029819998890162,True,8,-1,0,13
Y2-S2-108M20,4,354,PS,exp,35,↑,up,↑,0.4170145997777581,True,8,1,1,14
Y2-S2-108M20,4,355,PS,exp,29,→,up,↑,0.5724607999436557,False,7,-1,1,15
Y2-S2-108M20,4,356,PS,exp,49,↑,left,←,0.679460299666971,False,8,-1,0,15
Y2-S2-108M20,4,357,PS,exp,27,←,left,←,0.3295173002406955,True,9,-1,0,15
Y2-S2-108M20,4,358,PS,exp,48,→,right,→,0.40192950004711747,True,9,-1,0,15
Y2-S2-108M20,4,359,PS,exp,31,↑,up,↑,0.4224612000398338,True,9,1,1,16
Y2-S2-108M20,5,360,PS,intra_train,43,→,right,→,0.3870290000922978,True,10,-,-,-
Y2-S2-108M20,5,361,PS,intra_train,32,↑,up,↑,1.1588662001304328,True,10,-,-,-
Y2-S2-108M20,5,362,PS,intra_train,50,↓,down,↓,0.5124983000569046,True,10,-,-,-
Y2-S2-108M20,5,363,PS,intra_train,44,←,left,←,1.0618901001289487,True,10,-,-,-
Y2-S2-108M20,5,364,PS,intra_train,48,→,left,←,0.39201540034264326,False,10,-,-,-
Y2-S2-108M20,5,365,PS,exp,30,↓,down,↓,0.5582614997401834,True,7,0,0,0
Y2-S2-108M20,5,366,PS,exp,34,↑,up,↑,0.4178874995559454,True,7,0,0,0
Y2-S2-108M20,5,367,PS,exp,36,→,right,→,0.5594306001439691,True,7,1,0,0
Y2-S2-108M20,5,368,PS,exp,34,↓,left,←,0.48140659974887967,False,6,-1,1,1
Y2-S2-108M20,5,369,PS,exp,49,→,right,→,0.3149218000471592,True,7,-1,0,1
Y2-S2-108M20,5,370,PS,exp,40,↑,up,↑,0.42255309969186783,True,7,-1,0,1
Y2-S2-108M20,5,371,PS,exp,45,↓,up,↑,0.5828801998868585,False,7,-1,0,1
Y2-S2-108M20,5,372,PS,exp,30,←,left,←,0.48240430001169443,True,8,-1,0,1
Y2-S2-108M20,5,373,PS,exp,29,↓,down,↓,0.5638011996634305,True,8,-1,0,1
Y2-S2-108M20,5,374,PS,exp,34,→,right,→,0.7346999999135733,True,8,1,1,2
Y2-S2-108M20,5,375,PS,exp,39,↑,up,↑,0.35100889997556806,True,7,1,0,2
Y2-S2-108M20,5,376,PS,exp,38,↓,down,↓,0.5662764003500342,True,7,1,0,2
Y2-S2-108M20,5,377,PS,exp,26,←,left,←,0.5110648996196687,True,7,1,0,2
Y2-S2-108M20,5,378,PS,exp,28,↓,down,↓,0.46428410010412335,True,6,1,0,2
Y2-S2-108M20,5,379,PS,exp,38,←,left,←,0.38428530003875494,True,6,1,0,2
Y2-S2-108M20,5,380,PS,exp,39,↑,left,←,0.49976149993017316,False,6,-1,1,3
Y2-S2-108M20,5,381,PS,exp,36,→,right,→,0.3848310001194477,True,7,-1,0,3
Y2-S2-108M20,5,382,PS,exp,37,↓,down,↓,0.4044556999579072,True,7,-1,0,3
Y2-S2-108M20,5,383,PS,exp,30,↑,up,↑,0.52197470003739,True,7,1,1,4
Y2-S2-108M20,5,384,PS,exp,39,↓,left,←,0.5353802996687591,False,6,-1,1,5
Y2-S2-108M20,5,385,PS,exp,27,→,right,→,0.29568699980154634,True,7,-1,0,5
Y2-S2-108M20,5,386,PS,exp,41,↑,up,↑,0.6342554003931582,True,7,-1,0,5
Y2-S2-108M20,5,387,PS,exp,36,↓,down,↓,0.5726799997501075,True,7,1,1,6
Y2-S2-108M20,5,388,PS,exp,41,←,left,←,0.48319500032812357,True,6,1,0,6
Y2-S2-108M20,5,389,PS,exp,38,↓,down,↓,0.4620509003289044,True,6,1,0,6
Y2-S2-108M20,5,390,PS,exp,25,↑,up,↑,0.6327594998292625,True,6,1,0,6
Y2-S2-108M20,5,391,PS,exp,26,←,left,←,0.4420082001015544,True,5,1,0,6
Y2-S2-108M20,5,392,PS,exp,38,↑,up,↑,0.4801230998709798,True,5,1,0,6
Y2-S2-108M20,5,393,PS,exp,33,↓,up,↑,1.0804369999095798,False,5,-1,1,7
Y2-S2-108M20,5,394,PS,exp,41,←,left,←,0.4610525001771748,True,6,-1,0,7
Y2-S2-108M20,5,395,PS,exp,30,→,right,→,0.4641817999072373,True,6,-1,0,7
Y2-S2-108M20,5,396,PS,exp,48,←,left,←,0.6510453000664711,True,6,1,1,8
Y2-S2-108M20,5,397,PS,exp,40,→,right,→,0.41781309992074966,True,5,1,0,8
Y2-S2-108M20,5,398,PS,exp,28,←,left,←,0.48767099995166063,True,5,1,0,8
Y2-S2-108M20,5,399,PS,exp,50,→,left,←,0.46164119988679886,False,5,-1,1,9
Y2-S2-108M20,5,400,PS,exp,38,←,left,←,0.5278186001814902,True,6,-1,0,9
Y2-S2-108M20,5,401,PS,exp,29,↓,right,→,0.4345696996897459,False,6,-1,0,9
Y2-S2-108M20,5,402,PS,exp,33,→,right,→,0.47873139986768365,True,7,-1,0,9
Y2-S2-108M20,5,403,PS,exp,49,↑,left,←,0.3529793000780046,False,7,-1,0,9
Y2-S2-108M20,5,404,PS,exp,27,↓,down,↓,0.6872611003927886,True,8,-1,0,9
Y2-S2-108M20,5,405,PS,exp,38,→,right,→,0.40307219978421926,True,8,-1,0,9
Y2-S2-108M20,5,406,PS,exp,33,←,left,←,0.49244739999994636,True,8,1,1,10
Y2-S2-108M20,5,407,PS,exp,40,↑,up,↑,0.4025743999518454,True,7,1,0,10
Y2-S2-108M20,5,408,PS,exp,46,↓,down,↓,0.6721529001370072,True,7,1,0,10
Y2-S2-108M20,5,409,PS,exp,26,←,right,→,0.4830811000429094,False,7,-1,1,11
Y2-S2-108M20,5,410,PS,exp,44,↑,up,↑,0.41668020002543926,True,8,-1,0,11
Y2-S2-108M20,5,411,PS,exp,34,←,left,←,0.45954780001193285,True,8,-1,0,11
Y2-S2-108M20,5,412,PS,exp,41,↑,up,↑,0.5410496001131833,True,8,1,1,12
Y2-S2-108M20,5,413,PS,exp,44,→,right,→,0.4470708998851478,True,7,1,0,12
Y2-S2-108M20,5,414,PS,exp,35,↓,down,↓,0.519847699906677,True,7,1,0,12
Y2-S2-108M20,5,415,PS,exp,50,←,left,←,0.40252190036699176,True,7,1,0,12
Y2-S2-108M20,5,416,PS,exp,42,↓,down,↓,0.493881699629128,True,6,1,0,12
Y2-S2-108M20,5,417,PS,exp,32,←,left,←,0.3438377003185451,True,6,1,0,12
Y2-S2-108M20,5,418,PS,exp,28,↓,right,→,0.38298279978334904,False,6,-1,1,13
Y2-S2-108M20,5,419,PS,exp,25,←,left,←,0.43744240002706647,True,7,-1,0,13
Y2-S2-108M20,5,420,PS,exp,31,↑,up,↑,0.3793128998950124,True,7,-1,0,13
Y2-S2-108M20,5,421,PS,exp,41,↓,down,↓,0.46011129999533296,True,7,1,1,14
Y2-S2-108M20,5,422,PS,exp,33,→,right,→,0.3940264000557363,True,6,1,0,14
Y2-S2-108M20,5,423,PS,exp,27,←,left,←,0.4182601999491453,True,6,1,0,14
Y2-S2-108M20,5,424,PS,exp,44,↑,up,↑,0.42626290023326874,True,6,1,0,14
Y2-S2-108M20,5,425,PS,exp,36,←,left,←,0.6057531996630132,True,5,1,0,14
Y2-S2-108M20,5,426,PS,exp,28,↑,up,↑,0.35127259977161884,True,5,1,0,14
Y2-S2-108M20,5,427,PS,exp,41,←,left,←,0.6463134000077844,True,5,1,0,14
Y2-S2-108M20,5,428,PS,exp,31,→,left,←,0.4564461000263691,False,4,-1,1,15
Y2-S2-108M20,5,429,PS,exp,42,↓,left,←,0.44940360030159354,False,5,-1,0,15
Y2-S2-108M20,5,430,PS,exp,33,↑,left,←,0.3135529002174735,False,6,-1,0,15
Y2-S2-108M20,5,431,PS,exp,28,→,left,←,0.34470069967210293,False,7,-1,0,15
Y2-S2-108M20,5,432,PS,exp,34,↓,down,↓,0.49345700023695827,True,8,-1,0,15
Y2-S2-108M20,5,433,PS,exp,39,→,right,→,0.4762552999891341,True,8,-1,0,15
Y2-S2-108M20,5,434,PS,exp,25,↓,left,←,0.3507742998190224,False,8,-1,0,15
Y2-S2-108M20,5,435,PS,exp,38,↑,up,↑,0.4760909997858107,True,9,-1,0,15
Y2-S2-108M20,5,436,PS,exp,38,←,right,→,0.6208661003038287,False,9,-1,0,15
Y2-S2-108M20,5,437,PS,exp,43,↓,down,↓,0.4858786999247968,True,10,-1,0,15
Y2-S2-108M20,5,438,PS,exp,48,←,left,←,0.3745826999656856,True,10,-1,0,15
Y2-S2-108M20,5,439,PS,exp,41,→,left,←,0.34984329994767904,False,10,-1,0,15
Y2-S2-108M20,5,440,PS,exp,39,↑,up,↑,0.3974836999550462,True,11,-1,0,15
Y2-S2-108M20,5,441,PS,exp,41,←,left,←,0.58323929971084,True,11,-1,0,15
Y2-S2-108M20,5,442,PS,exp,38,↑,left,←,0.5029454003088176,False,11,-1,0,15
Y2-S2-108M20,5,443,PS,exp,35,←,left,←,1.004444899968803,True,12,-1,0,15
Y2-S2-108M20,5,444,PS,exp,45,→,right,→,0.5913785002194345,True,12,-1,0,15
Y2-S2-108M20,5,445,PS,exp,49,↓,down,↓,0.47247330006211996,True,12,1,1,16
Y2-S2-108M20,6,446,AS,intra_train,31,↑,up,↑,0.5713485004380345,True,16,-,-,-
Y2-S2-108M20,6,447,AS,intra_train,43,↓,down,↓,0.7642326997593045,True,16,-,-,-
Y2-S2-108M20,6,448,AS,intra_train,45,←,right,→,0.47195789963006973,False,16,-,-,-
Y2-S2-108M20,6,449,AS,intra_train,50,↑,up,↑,0.568261899985373,True,16,-,-,-
Y2-S2-108M20,6,450,AS,intra_train,42,←,left,←,0.6188336997292936,True,16,-,-,-
Y2-S2-108M20,6,451,AS,exp,39,↑,up,↑,0.4636544003151357,True,11,0,0,0
Y2-S2-108M20,6,452,AS,exp,39,←,left,←,0.7238043998368084,True,11,0,0,0
Y2-S2-108M20,6,453,AS,exp,47,↓,up,↑,0.7074513998813927,False,11,-1,0,0
Y2-S2-108M20,6,454,AS,exp,40,→,right,→,0.5815734998323023,True,12,-1,0,0
Y2-S2-108M20,6,455,AS,exp,36,←,left,←,0.8066479000262916,True,12,-1,0,0
Y2-S2-108M20,6,456,AS,exp,31,→,right,→,0.39894270012155175,True,12,1,1,1
Y2-S2-108M20,6,457,AS,exp,26,↓,down,↓,0.7713985000737011,True,11,1,0,1
Y2-S2-108M20,6,458,AS,exp,45,→,left,←,0.4993155999109149,False,11,-1,1,2
Y2-S2-108M20,6,459,AS,exp,27,↑,up,↑,0.6499215997755527,True,12,-1,0,2
Y2-S2-108M20,6,460,AS,exp,32,→,right,→,0.41712530003860593,True,12,-1,0,2
Y2-S2-108M20,6,461,AS,exp,26,←,left,←,0.483927299734205,True,12,1,1,3
Y2-S2-108M20,6,462,AS,exp,37,↑,up,↑,0.6415581000037491,True,11,1,0,3
Y2-S2-108M20,6,463,AS,exp,29,←,left,←,0.36076939990743995,True,11,1,0,3
Y2-S2-108M20,6,464,AS,exp,30,→,left,←,0.7359369001351297,False,11,-1,1,4
Y2-S2-108M20,6,465,AS,exp,44,↓,down,↓,0.6198522001504898,True,12,-1,0,4
Y2-S2-108M20,6,466,AS,exp,27,→,right,→,0.3768790001049638,True,12,-1,0,4
Y2-S2-108M20,6,467,AS,exp,30,←,left,←,0.39133340027183294,True,12,1,1,5
Y2-S2-108M20,6,468,AS,exp,34,↓,down,↓,0.4343272000551224,True,11,1,0,5
Y2-S2-108M20,6,469,AS,exp,47,→,right,→,0.40666159987449646,True,11,1,0,5
Y2-S2-108M20,6,470,AS,exp,29,↑,left,←,0.7970628999173641,False,11,-1,1,6
Y2-S2-108M20,6,471,AS,exp,50,←,left,←,0.5259842998348176,True,12,-1,0,6
Y2-S2-108M20,6,472,AS,exp,32,↓,down,↓,0.47673310013487935,True,12,-1,0,6
Y2-S2-108M20,6,473,AS,exp,29,↑,up,↑,0.5120870997197926,True,12,1,1,7
Y2-S2-108M20,6,474,AS,exp,49,→,left,←,0.60076649999246,False,11,-1,1,8
Y2-S2-108M20,6,475,AS,exp,30,↓,down,↓,0.5229750997386873,True,12,-1,0,8
Y2-S2-108M20,6,476,AS,exp,47,→,right,→,0.39494850020855665,True,12,-1,0,8
Y2-S2-108M20,6,477,AS,exp,45,↓,down,↓,0.4164179000072181,True,12,1,1,9
Y2-S2-108M20,6,478,AS,exp,50,→,right,→,0.49427219992503524,True,11,1,0,9
Y2-S2-108M20,6,479,AS,exp,32,↑,up,↑,0.3928575003519654,True,11,1,0,9
Y2-S2-108M20,6,480,AS,exp,32,↓,down,↓,0.4751780997030437,True,11,1,0,9
Y2-S2-108M20,6,481,AS,exp,47,↑,up,↑,0.393702800385654,True,10,1,0,9
Y2-S2-108M20,6,482,AS,exp,46,←,right,→,0.7023404999636114,False,10,-1,1,10
Y2-S2-108M20,6,483,AS,exp,44,↓,down,↓,0.6024036002345383,True,11,-1,0,10
Y2-S2-108M20,6,484,AS,exp,38,↑,up,↑,0.3869126997888088,True,11,-1,0,10
Y2-S2-108M20,6,485,AS,exp,32,←,left,←,0.40093909995630383,True,11,1,1,11
Y2-S2-108M20,6,486,AS,exp,32,→,right,→,0.4443965000100434,True,10,1,0,11
Y2-S2-108M20,6,487,AS,exp,29,↑,up,↑,0.3991936999373138,True,10,1,0,11
Y2-S2-108M20,6,488,AS,exp,47,←,up,↑,0.620476400014013,False,10,-1,1,12
Y2-S2-108M20,6,489,AS,exp,32,→,left,←,0.5635316004045308,False,11,-1,0,12
Y2-S2-108M20,6,490,AS,exp,36,↓,up,↑,0.5397407002747059,False,12,-1,0,12
Y2-S2-108M20,6,491,AS,exp,32,→,right,→,0.8663137997500598,True,13,-1,0,12
Y2-S2-108M20,6,492,AS,exp,39,←,left,←,0.6127814999781549,True,13,-1,0,12
Y2-S2-108M20,6,493,AS,exp,42,→,up,↑,0.611313400324434,False,13,-1,0,12
Y2-S2-108M20,6,494,AS,exp,33,←,left,←,0.35026139998808503,True,14,-1,0,12
Y2-S2-108M20,6,495,AS,exp,35,→,left,←,0.5523192998953164,False,14,-1,0,12
Y2-S2-108M20,6,496,AS,exp,44,↑,up,↑,0.8565041995607316,True,15,-1,0,12
Y2-S2-108M20,6,497,AS,exp,26,→,right,→,0.771389199886471,True,15,-1,0,12
Y2-S2-108M20,6,498,AS,exp,30,←,left,←,0.43169809971004725,True,15,1,1,13
Y2-S2-108M20,6,499,AS,exp,28,→,left,←,0.7218198999762535,False,14,-1,1,14
Y2-S2-108M20,6,500,AS,exp,35,↓,down,↓,0.4895406002178788,True,15,-1,0,14
Y2-S2-108M20,6,501,AS,exp,28,←,left,←,0.5486750998534262,True,15,-1,0,14
Y2-S2-108M20,6,502,AS,exp,27,↑,up,↑,0.3838372998870909,True,15,1,1,15
Y2-S2-108M20,6,503,AS,exp,39,↓,down,↓,0.6279758000746369,True,14,1,0,15
Y2-S2-108M20,6,504,AS,exp,49,→,right,→,0.8948372001759708,True,14,1,0,15
Y2-S2-108M20,6,505,AS,exp,41,←,left,←,0.562332000117749,True,14,1,0,15
Y2-S2-108M20,6,506,AS,exp,30,↓,down,↓,0.7246464001946151,True,13,1,0,15
Y2-S2-108M20,6,507,AS,exp,34,→,right,→,0.4041713001206517,True,13,1,0,15
Y2-S2-108M20,6,508,AS,exp,27,↑,left,←,0.7955199000425637,False,13,-1,1,16
Y2-S2-108M20,7,509,AS,intra_train,45,→,left,←,0.6756663001142442,False,16,-,-,-
Y2-S2-108M20,7,510,AS,intra_train,29,←,left,←,0.4003377999179065,True,16,-,-,-
Y2-S2-108M20,7,511,AS,intra_train,33,↓,down,↓,0.44370940001681447,True,16,-,-,-
Y2-S2-108M20,7,512,AS,intra_train,40,←,left,←,0.4695031000301242,True,16,-,-,-
Y2-S2-108M20,7,513,AS,intra_train,31,→,right,→,0.4738300000317395,True,16,-,-,-
Y2-S2-108M20,7,514,AS,exp,32,↑,left,←,0.6082101999782026,False,11,-1,0,0
Y2-S2-108M20,7,515,AS,exp,42,→,right,→,0.5417598998174071,True,12,-1,0,0
Y2-S2-108M20,7,516,AS,exp,43,↑,up,↑,0.39879109989851713,True,12,-1,0,0
Y2-S2-108M20,7,517,AS,exp,49,→,right,→,0.39283409994095564,True,12,1,1,1
Y2-S2-108M20,7,518,AS,exp,33,↓,left,←,0.6246750000864267,False,11,-1,1,2
Y2-S2-108M20,7,519,AS,exp,37,↑,up,↑,0.39598629996180534,True,12,-1,0,2
Y2-S2-108M20,7,520,AS,exp,34,↓,down,↓,0.5107833999209106,True,12,-1,0,2
Y2-S2-108M20,7,521,AS,exp,45,↑,up,↑,0.6919865999370813,True,12,1,1,3
Y2-S2-108M20,7,522,AS,exp,38,←,right,→,0.6771154999732971,False,11,-1,1,4
Y2-S2-108M20,7,523,AS,exp,48,→,right,→,0.3979937001131475,True,12,-1,0,4
Y2-S2-108M20,7,524,AS,exp,40,↑,up,↑,0.5031661000102758,True,12,-1,0,4
Y2-S2-108M20,7,525,AS,exp,33,→,right,→,0.3844624999910593,True,12,1,1,5
Y2-S2-108M20,7,526,AS,exp,47,↓,left,←,0.4528738004155457,False,11,-1,1,6
Y2-S2-108M20,7,527,AS,exp,50,→,left,←,0.4931987999007106,False,12,-1,0,6
Y2-S2-108M20,7,528,AS,exp,26,↓,down,↓,0.6294593997299671,True,13,-1,0,6
Y2-S2-108M20,7,529,AS,exp,39,→,right,→,0.3919119997881353,True,13,-1,0,6
Y2-S2-108M20,7,530,AS,exp,50,↑,up,↑,0.4273703000508249,True,13,1,1,7
Y2-S2-108M20,7,531,AS,exp,39,→,left,←,0.6294259997084737,False,12,-1,1,8
Y2-S2-108M20,7,532,AS,exp,25,↑,down,↓,0.9014294999651611,False,13,-1,0,8
Y2-S2-108M20,7,533,AS,exp,28,←,left,←,0.5656097996979952,True,14,-1,0,8
Y2-S2-108M20,7,534,AS,exp,26,↑,up,↑,0.8375431001186371,True,14,-1,0,8
Y2-S2-108M20,7,535,AS,exp,41,→,right,→,0.8105037999339402,True,14,1,1,9
Y2-S2-108M20,7,536,AS,exp,29,←,left,←,0.5969553999602795,True,13,1,0,9
Y2-S2-108M20,7,537,AS,exp,30,→,right,→,0.40398290008306503,True,13,1,0,9
Y2-S2-108M20,7,538,AS,exp,47,←,left,←,0.42235680017620325,True,13,1,0,9
Y2-S2-108M20,7,539,AS,exp,32,→,left,←,0.6237943000160158,False,12,-1,1,10
Y2-S2-108M20,7,540,AS,exp,45,←,left,←,0.586714900098741,True,13,-1,0,10
Y2-S2-108M20,7,541,AS,exp,40,↑,up,↑,0.47063380014151335,True,13,-1,0,10
Y2-S2-108M20,7,542,AS,exp,37,→,right,→,0.5226523000746965,True,13,1,1,11
Y2-S2-108M20,7,543,AS,exp,28,↓,up,↑,0.5157907996326685,False,12,-1,1,12
Y2-S2-108M20,7,544,AS,exp,31,→,right,→,0.7559276996180415,True,13,-1,0,12
Y2-S2-108M20,7,545,AS,exp,44,↓,down,↓,0.657667700201273,True,13,-1,0,12
Y2-S2-108M20,7,546,AS,exp,35,←,left,←,0.53346629999578,True,13,1,1,13
Y2-S2-108M20,7,547,AS,exp,25,↓,down,↓,0.577048699837178,True,12,1,0,13
Y2-S2-108M20,7,548,AS,exp,46,←,left,←,0.7289244001731277,True,12,1,0,13
Y2-S2-108M20,7,549,AS,exp,35,↑,down,↓,0.7896301001310349,False,12,-1,1,14
Y2-S2-108M20,7,550,AS,exp,32,→,right,→,0.4768314999528229,True,13,-1,0,14
Y2-S2-108M20,7,551,AS,exp,47,↑,down,↓,0.5956625998951495,False,13,-1,0,14
Y2-S2-108M20,7,552,AS,exp,29,↓,down,↓,0.8712591002695262,True,14,-1,0,14
Y2-S2-108M20,7,553,AS,exp,47,→,right,→,0.4556605997495353,True,14,-1,0,14
Y2-S2-108M20,7,554,AS,exp,26,↓,down,↓,0.43025430012494326,True,14,1,1,15
Y2-S2-108M20,7,555,AS,exp,31,←,left,←,0.5426539001055062,True,13,1,0,15
Y2-S2-108M20,7,556,AS,exp,42,↑,down,↓,0.7316090003587306,False,13,-1,1,16
Y2-S2-108M20,8,557,PS,intra_train,39,→,right,→,0.39206109987571836,True,10,-,-,-
Y2-S2-108M20,8,558,PS,intra_train,43,↓,down,↓,0.5245743002742529,True,10,-,-,-
Y2-S2-108M20,8,559,PS,intra_train,47,→,right,→,0.4081113003194332,True,10,-,-,-
Y2-S2-108M20,8,560,PS,intra_train,42,↑,up,↑,0.4433321999385953,True,10,-,-,-
Y2-S2-108M20,8,561,PS,intra_train,30,↓,down,↓,0.4869395000860095,True,10,-,-,-
Y2-S2-108M20,8,562,PS,exp,47,↑,right,→,0.5970282997004688,False,7,-1,0,0
Y2-S2-108M20,8,563,PS,exp,38,↓,down,↓,0.4793622000142932,True,8,-1,0,0
Y2-S2-108M20,8,564,PS,exp,44,←,down,↓,0.45352720003575087,False,8,-1,0,0
Y2-S2-108M20,8,565,PS,exp,48,→,right,→,0.40702700009569526,True,9,-1,0,0
Y2-S2-108M20,8,566,PS,exp,31,←,left,←,0.4896007003262639,True,9,-1,0,0
Y2-S2-108M20,8,567,PS,exp,42,↓,down,↓,0.6289531998336315,True,9,1,1,1
Y2-S2-108M20,8,568,PS,exp,25,↑,up,↑,0.4558126996271312,True,8,1,0,1
Y2-S2-108M20,8,569,PS,exp,43,↓,down,↓,0.5816967999562621,True,8,1,0,1
Y2-S2-108M20,8,570,PS,exp,32,↑,up,↑,0.4148760996758938,True,8,1,0,1
Y2-S2-108M20,8,571,PS,exp,25,↓,down,↓,0.45292859990149736,True,7,1,0,1
Y2-S2-108M20,8,572,PS,exp,50,↑,up,↑,0.42888699984177947,True,7,1,0,1
Y2-S2-108M20,8,573,PS,exp,25,↓,down,↓,0.6696510999463499,True,7,1,0,1
Y2-S2-108M20,8,574,PS,exp,26,←,left,←,0.39460609992966056,True,6,1,0,1
Y2-S2-108M20,8,575,PS,exp,41,↓,down,↓,0.40364620042964816,True,6,1,0,1
Y2-S2-108M20,8,576,PS,exp,39,←,left,←,0.4210354001261294,True,6,1,0,1
Y2-S2-108M20,8,577,PS,exp,46,↓,right,→,0.8012684001587331,False,5,-1,1,2
Y2-S2-108M20,8,578,PS,exp,44,→,left,←,0.5482831001281738,False,6,-1,0,2
Y2-S2-108M20,8,579,PS,exp,46,←,left,←,0.5494828000664711,True,7,-1,0,2
Y2-S2-108M20,8,580,PS,exp,47,↓,down,↓,0.39543649973347783,True,7,-1,0,2
Y2-S2-108M20,8,581,PS,exp,44,↑,right,→,0.5259477999061346,False,7,-1,0,2
Y2-S2-108M20,8,582,PS,exp,38,←,left,←,0.4304804001003504,True,8,-1,0,2
Y2-S2-108M20,8,583,PS,exp,27,→,left,←,0.39311840012669563,False,8,-1,0,2
Y2-S2-108M20,8,584,PS,exp,46,↓,down,↓,0.4737077997997403,True,9,-1,0,2
Y2-S2-108M20,8,585,PS,exp,37,→,right,→,0.462963099591434,True,9,-1,0,2
Y2-S2-108M20,8,586,PS,exp,35,↑,up,↑,0.4227669001556933,True,9,1,1,3
Y2-S2-108M20,8,587,PS,exp,38,→,left,←,0.5075724003836513,False,8,-1,1,4
Y2-S2-108M20,8,588,PS,exp,49,↑,up,↑,0.4671272002160549,True,9,-1,0,4
Y2-S2-108M20,8,589,PS,exp,37,↓,down,↓,0.47808359982445836,True,9,-1,0,4
Y2-S2-108M20,8,590,PS,exp,42,↑,right,→,0.566966800019145,False,9,-1,0,4
Y2-S2-108M20,8,591,PS,exp,35,←,left,←,0.4454977996647358,True,10,-1,0,4
Y2-S2-108M20,8,592,PS,exp,48,↑,up,↑,0.5453199003823102,True,10,-1,0,4
Y2-S2-108M20,8,593,PS,exp,32,←,left,←,0.4475826001726091,True,10,1,1,5
Y2-S2-108M20,8,594,PS,exp,38,↓,down,↓,0.4272898999042809,True,9,1,0,5
Y2-S2-108M20,8,595,PS,exp,33,←,left,←,0.37654490023851395,True,9,1,0,5
Y2-S2-108M20,8,596,PS,exp,32,↓,down,↓,0.4949520998634398,True,9,1,0,5
Y2-S2-108M20,8,597,PS,exp,26,←,left,←,0.45766730001196265,True,8,1,0,5
Y2-S2-108M20,8,598,PS,exp,41,↑,left,←,0.4574396996758878,False,8,-1,1,6
Y2-S2-108M20,8,599,PS,exp,26,←,left,←,0.39111150009557605,True,9,-1,0,6
Y2-S2-108M20,8,600,PS,exp,45,↑,up,↑,0.4375654002651572,True,9,-1,0,6
Y2-S2-108M20,8,601,PS,exp,31,→,right,→,0.39085289975628257,True,9,1,1,7
Y2-S2-108M20,8,602,PS,exp,41,↑,up,↑,0.3713740003295243,True,8,1,0,7
Y2-S2-108M20,8,603,PS,exp,33,↓,down,↓,0.42580159986391664,True,8,1,0,7
Y2-S2-108M20,8,604,PS,exp,41,→,right,→,0.4769033999182284,True,8,1,0,7
Y2-S2-108M20,8,605,PS,exp,30,↓,down,↓,0.5528800999745727,True,7,1,0,7
Y2-S2-108M20,8,606,PS,exp,30,←,left,←,0.48653410002589226,True,7,1,0,7
Y2-S2-108M20,8,607,PS,exp,46,↑,up,↑,0.3941691000945866,True,7,1,0,7
Y2-S2-108M20,8,608,PS,exp,25,→,left,←,0.5850309999659657,False,6,-1,1,8
Y2-S2-108M20,8,609,PS,exp,27,↑,up,↑,0.3789512002840638,True,7,-1,0,8
Y2-S2-108M20,8,610,PS,exp,40,←,left,←,0.4218786000274122,True,7,-1,0,8
Y2-S2-108M20,8,611,PS,exp,35,↓,down,↓,0.4716306999325752,True,7,1,1,9
Y2-S2-108M20,8,612,PS,exp,48,↑,up,↑,0.8894207999110222,True,6,1,0,9
Y2-S2-108M20,8,613,PS,exp,47,→,right,→,0.4777839998714626,True,6,1,0,9
Y2-S2-108M20,8,614,PS,exp,40,↑,up,↑,0.6188680999912322,True,6,1,0,9
Y2-S2-108M20,8,615,PS,exp,36,←,right,→,0.4180999002419412,False,5,-1,1,10
Y2-S2-108M20,8,616,PS,exp,36,↓,down,↓,0.5717608002014458,True,6,-1,0,10
Y2-S2-108M20,8,617,PS,exp,44,←,left,←,0.5285048997029662,True,6,-1,0,10
Y2-S2-108M20,8,618,PS,exp,31,→,right,→,0.414537999778986,True,6,1,1,11
Y2-S2-108M20,8,619,PS,exp,33,↑,up,↑,0.4437362998723984,True,5,1,0,11
Y2-S2-108M20,8,620,PS,exp,35,←,left,←,0.3797690998762846,True,5,1,0,11
Y2-S2-108M20,8,621,PS,exp,39,↑,up,↑,0.5463050999678671,True,5,1,0,11
Y2-S2-108M20,8,622,PS,exp,27,→,left,←,0.6602467000484467,False,4,-1,1,12
Y2-S2-108M20,8,623,PS,exp,38,↓,down,↓,0.49889610009267926,True,5,-1,0,12
Y2-S2-108M20,8,624,PS,exp,36,↑,up,↑,0.5380529002286494,True,5,-1,0,12
Y2-S2-108M20,8,625,PS,exp,36,↓,down,↓,0.4358465000987053,True,5,1,1,13
Y2-S2-108M20,8,626,PS,exp,34,↑,left,←,0.5917203002609313,False,4,-1,1,14
Y2-S2-108M20,8,627,PS,exp,26,←,down,↓,0.5326096997596323,False,5,-1,0,14
Y2-S2-108M20,8,628,PS,exp,49,↑,up,↑,0.7185736000537872,True,6,-1,0,14
Y2-S2-108M20,8,629,PS,exp,34,←,left,←,0.43795060040429235,True,6,-1,0,14
Y2-S2-108M20,8,630,PS,exp,34,↑,up,↑,0.4693864001892507,True,6,1,1,15
Y2-S2-108M20,8,631,PS,exp,31,↓,down,↓,0.4706674995832145,True,5,1,0,15
Y2-S2-108M20,8,632,PS,exp,32,↑,up,↑,0.41155320033431053,True,5,1,0,15
Y2-S2-108M20,8,633,PS,exp,27,↓,down,↓,0.36061610002070665,True,5,1,0,15
Y2-S2-108M20,8,634,PS,exp,30,→,left,←,0.429209400434047,False,4,-1,1,16
