PART_ID,Block_no,Trial_no,Block_type,Trial_type,CSI,Stim_letter,Key_pressed,letter_choose,Rt,Corr,Stimulus Time,Level,Reversal,Revs_count
Y2-S2-164K18,1,1,PS,train,40,→,right,→,0.6749083999893628,True,30,-,-,-
Y2-S2-164K18,1,2,PS,train,45,←,left,←,0.6008128999965265,True,30,-,-,-
Y2-S2-164K18,1,3,PS,train,27,↑,right,→,0.5504882000095677,False,30,-,-,-
Y2-S2-164K18,1,4,PS,train,50,←,left,←,0.5005216999852564,True,30,-,-,-
Y2-S2-164K18,1,5,PS,train,35,↓,left,←,1.0810278999852017,False,30,-,-,-
Y2-S2-164K18,1,6,PS,train,48,↑,up,↑,0.7264027000055648,True,30,-,-,-
Y2-S2-164K18,1,7,PS,train,44,→,no_key,no_letter,-1.0,False,30,-,-,-
Y2-S2-164K18,1,8,PS,train,43,↓,down,↓,0.8319741000013892,True,30,-,-,-
Y2-S2-164K18,1,9,PS,train,49,→,right,→,0.6005839999997988,True,30,-,-,-
Y2-S2-164K18,1,10,PS,train,44,↑,up,↑,0.7274768000061158,True,30,-,-,-
Y2-S2-164K18,2,11,AS,train,34,↓,down,↓,1.2966699999815319,True,45,-,-,-
Y2-S2-164K18,2,12,AS,train,34,←,right,→,0.5677528000087477,False,45,-,-,-
Y2-S2-164K18,2,13,AS,train,46,↑,up,↑,0.7338545999955386,True,45,-,-,-
Y2-S2-164K18,2,14,AS,train,32,→,right,→,0.46791559999110177,True,45,-,-,-
Y2-S2-164K18,2,15,AS,train,32,↓,down,↓,0.6343408999964595,True,45,-,-,-
Y2-S2-164K18,2,16,AS,train,26,↑,down,↓,0.8171123000211082,False,45,-,-,-
Y2-S2-164K18,2,17,AS,train,44,←,left,←,0.7338810000219382,True,45,-,-,-
Y2-S2-164K18,2,18,AS,train,44,↓,down,↓,1.0944451999966986,True,45,-,-,-
Y2-S2-164K18,2,19,AS,train,29,→,right,→,1.0147031999949832,True,45,-,-,-
Y2-S2-164K18,2,20,AS,train,50,↑,up,↑,0.8004657999845222,True,45,-,-,-
Y2-S2-164K18,-,21,PS,adaptive,31,↓,down,↓,1.1617007999739144,True,10,0,0,0
Y2-S2-164K18,-,22,PS,adaptive,41,→,right,→,0.710795799997868,True,10,0,0,0
Y2-S2-164K18,-,23,PS,adaptive,41,←,up,↑,0.6839226000010967,False,10,-1,0,0
Y2-S2-164K18,-,24,PS,adaptive,28,↑,up,↑,0.5796853000065312,True,11,-1,0,0
Y2-S2-164K18,-,25,PS,adaptive,27,↓,up,↑,0.6900776000111364,False,11,-1,0,0
Y2-S2-164K18,-,26,PS,adaptive,37,→,right,→,0.5490561000187881,True,12,-1,0,0
Y2-S2-164K18,-,27,PS,adaptive,29,↓,down,↓,0.8385252000007313,True,12,-1,0,0
Y2-S2-164K18,-,28,PS,adaptive,25,←,left,←,0.89603299999726,True,12,1,1,1
Y2-S2-164K18,-,29,PS,adaptive,42,↓,up,↑,1.1636942999903113,False,11,-1,1,2
Y2-S2-164K18,-,30,PS,adaptive,26,←,left,←,0.930931300012162,True,12,-1,0,2
Y2-S2-164K18,-,31,PS,adaptive,34,→,right,→,0.5660242000012659,True,12,-1,0,2
Y2-S2-164K18,-,32,PS,adaptive,33,←,left,←,0.6522179000021424,True,12,1,1,3
Y2-S2-164K18,-,33,PS,adaptive,49,→,left,←,1.0615014999930281,False,11,-1,1,4
Y2-S2-164K18,-,34,AS,adaptive,42,↓,up,↑,0.9884765000024345,False,20,-1,0,0
Y2-S2-164K18,-,35,AS,adaptive,35,↑,up,↑,0.8874206999898888,True,21,-1,0,0
Y2-S2-164K18,-,36,AS,adaptive,41,↓,up,↑,0.7638086999941152,False,21,-1,0,0
Y2-S2-164K18,-,37,AS,adaptive,49,↑,up,↑,0.5680793999927118,True,22,-1,0,0
Y2-S2-164K18,-,38,AS,adaptive,39,→,right,→,0.6209259000024758,True,22,-1,0,0
Y2-S2-164K18,-,39,AS,adaptive,42,←,left,←,0.6960794999904465,True,22,1,1,1
Y2-S2-164K18,-,40,AS,adaptive,41,↓,down,↓,0.8108019000210334,True,21,1,0,1
Y2-S2-164K18,-,41,AS,adaptive,47,↑,down,↓,0.8779382000211626,False,21,-1,1,2
Y2-S2-164K18,-,42,AS,adaptive,32,↓,down,↓,0.9311709000030532,True,22,-1,0,2
Y2-S2-164K18,-,43,AS,adaptive,34,←,left,←,0.8775910999975167,True,22,-1,0,2
Y2-S2-164K18,-,44,AS,adaptive,49,↓,down,↓,0.7868648000003304,True,22,1,1,3
Y2-S2-164K18,-,45,AS,adaptive,34,←,left,←,0.6671686000190675,True,21,1,0,3
Y2-S2-164K18,-,46,AS,adaptive,29,→,right,→,0.7014729999937117,True,21,1,0,3
Y2-S2-164K18,-,47,AS,adaptive,30,↓,down,↓,0.9531927999923937,True,21,1,0,3
Y2-S2-164K18,-,48,AS,adaptive,30,→,down,↓,0.9434960999933537,False,20,-1,1,4
Y2-S2-164K18,1,49,PS,intra_train,37,↑,down,↓,0.8227225999871735,False,18,-,-,-
Y2-S2-164K18,1,50,PS,intra_train,50,→,right,→,0.5678468999976758,True,18,-,-,-
Y2-S2-164K18,1,51,PS,intra_train,25,←,left,←,0.5244357000046875,True,18,-,-,-
Y2-S2-164K18,1,52,PS,intra_train,32,↑,up,↑,0.864578899985645,True,18,-,-,-
Y2-S2-164K18,1,53,PS,intra_train,30,→,right,→,0.5702137999760453,True,18,-,-,-
Y2-S2-164K18,1,54,PS,exp,40,↓,up,↑,1.0575136999832466,False,12,-1,0,0
Y2-S2-164K18,1,55,PS,exp,30,↑,up,↑,0.6994419999828096,True,13,-1,0,0
Y2-S2-164K18,1,56,PS,exp,28,→,right,→,0.941181800008053,True,13,-1,0,0
Y2-S2-164K18,1,57,PS,exp,26,←,left,←,0.788796699984232,True,13,1,1,1
Y2-S2-164K18,1,58,PS,exp,48,↑,up,↑,0.7783540999807883,True,12,1,0,1
Y2-S2-164K18,1,59,PS,exp,50,→,right,→,0.643370000005234,True,12,1,0,1
Y2-S2-164K18,1,60,PS,exp,29,↓,down,↓,0.8633222999924328,True,12,1,0,1
Y2-S2-164K18,1,61,PS,exp,46,↑,up,↑,0.6362852999882307,True,11,1,0,1
Y2-S2-164K18,1,62,PS,exp,46,←,up,↑,0.9141081999987364,False,11,-1,1,2
Y2-S2-164K18,1,63,PS,exp,39,↓,down,↓,0.6352382999903057,True,12,-1,0,2
Y2-S2-164K18,1,64,PS,exp,42,↑,left,←,0.7603992000222206,False,12,-1,0,2
Y2-S2-164K18,1,65,PS,exp,35,↓,left,←,0.9051516999898013,False,13,-1,0,2
Y2-S2-164K18,1,66,PS,exp,34,↑,up,↑,0.5515006000059657,True,14,-1,0,2
Y2-S2-164K18,1,67,PS,exp,26,↓,down,↓,0.5127874999889173,True,14,-1,0,2
Y2-S2-164K18,1,68,PS,exp,48,↑,up,↑,0.6726971000025515,True,14,1,1,3
Y2-S2-164K18,1,69,PS,exp,49,←,up,↑,0.7906668999930844,False,13,-1,1,4
Y2-S2-164K18,1,70,PS,exp,45,↓,down,↓,0.6205329000076745,True,14,-1,0,4
Y2-S2-164K18,1,71,PS,exp,47,→,left,←,0.7202792000025511,False,14,-1,0,4
Y2-S2-164K18,1,72,PS,exp,35,↑,up,↑,0.5103155999968294,True,15,-1,0,4
Y2-S2-164K18,1,73,PS,exp,48,→,right,→,0.7880362000141758,True,15,-1,0,4
Y2-S2-164K18,1,74,PS,exp,32,↓,up,↑,0.6630471000098623,False,15,-1,0,4
Y2-S2-164K18,1,75,PS,exp,26,←,left,←,0.7178033000091091,True,16,-1,0,4
Y2-S2-164K18,1,76,PS,exp,37,↓,up,↑,0.6505575000192039,False,16,-1,0,4
Y2-S2-164K18,1,77,PS,exp,37,↑,up,↑,0.6680580000102054,True,17,-1,0,4
Y2-S2-164K18,1,78,PS,exp,32,←,right,→,0.7166462000168394,False,17,-1,0,4
Y2-S2-164K18,1,79,PS,exp,50,↑,no_key,no_letter,-1.0,False,18,-1,0,4
Y2-S2-164K18,1,80,PS,exp,44,↓,down,↓,0.6474483999772929,True,19,-1,0,4
Y2-S2-164K18,1,81,PS,exp,40,←,left,←,0.7697365000203717,True,19,-1,0,4
Y2-S2-164K18,1,82,PS,exp,42,↑,up,↑,0.5822453000000678,True,19,1,1,5
Y2-S2-164K18,1,83,PS,exp,33,↓,down,↓,0.7649191000091378,True,18,1,0,5
Y2-S2-164K18,1,84,PS,exp,38,→,no_key,no_letter,-1.0,False,18,-1,1,6
Y2-S2-164K18,1,85,PS,exp,48,←,right,→,1.2574593999888748,False,19,-1,0,6
Y2-S2-164K18,1,86,PS,exp,27,↑,up,↑,0.517044000007445,True,20,-1,0,6
Y2-S2-164K18,1,87,PS,exp,48,↓,down,↓,0.6792848999903072,True,20,-1,0,6
Y2-S2-164K18,1,88,PS,exp,40,←,left,←,0.6019977999967523,True,20,1,1,7
Y2-S2-164K18,1,89,PS,exp,48,↑,up,↑,0.6128347000048961,True,19,1,0,7
Y2-S2-164K18,1,90,PS,exp,41,↓,down,↓,0.6189718999958131,True,19,1,0,7
Y2-S2-164K18,1,91,PS,exp,39,→,left,←,0.6672689999977592,False,19,-1,1,8
Y2-S2-164K18,1,92,PS,exp,39,↑,up,↑,0.5697199999995064,True,20,-1,0,8
Y2-S2-164K18,1,93,PS,exp,41,→,right,→,0.6515371999994386,True,20,-1,0,8
Y2-S2-164K18,1,94,PS,exp,30,↓,down,↓,0.5724521999945864,True,20,1,1,9
Y2-S2-164K18,1,95,PS,exp,39,→,left,←,0.7134806999820285,False,19,-1,1,10
Y2-S2-164K18,1,96,PS,exp,41,←,right,→,0.6383687000197824,False,20,-1,0,10
Y2-S2-164K18,1,97,PS,exp,36,↓,left,←,0.6947497999935877,False,21,-1,0,10
Y2-S2-164K18,1,98,PS,exp,34,→,right,→,0.3837242999870796,True,22,-1,0,10
Y2-S2-164K18,1,99,PS,exp,26,↑,up,↑,0.7007755000086036,True,22,-1,0,10
Y2-S2-164K18,1,100,PS,exp,37,→,right,→,0.6809001000074204,True,22,1,1,11
Y2-S2-164K18,1,101,PS,exp,40,↑,up,↑,0.8084274000138976,True,21,1,0,11
Y2-S2-164K18,1,102,PS,exp,35,←,no_key,no_letter,-1.0,False,21,-1,1,12
Y2-S2-164K18,1,103,PS,exp,29,↑,up,↑,0.7096969000122044,True,22,-1,0,12
Y2-S2-164K18,1,104,PS,exp,36,→,left,←,0.5493509000225458,False,22,-1,0,12
Y2-S2-164K18,1,105,PS,exp,37,↓,down,↓,0.6980313000094611,True,23,-1,0,12
Y2-S2-164K18,1,106,PS,exp,43,←,left,←,0.9186468000116292,True,23,-1,0,12
Y2-S2-164K18,1,107,PS,exp,47,↓,down,↓,0.6045750000048429,True,23,1,1,13
Y2-S2-164K18,1,108,PS,exp,47,←,left,←,0.7512521000171546,True,22,1,0,13
Y2-S2-164K18,1,109,PS,exp,41,↓,down,↓,0.583430699974997,True,22,1,0,13
Y2-S2-164K18,1,110,PS,exp,38,↑,down,↓,0.7149086000281386,False,22,-1,1,14
Y2-S2-164K18,1,111,PS,exp,39,→,right,→,0.5713688000105321,True,23,-1,0,14
Y2-S2-164K18,1,112,PS,exp,47,↑,right,→,0.5950949999969453,False,23,-1,0,14
Y2-S2-164K18,1,113,PS,exp,32,↓,down,↓,0.6453114000032656,True,24,-1,0,14
Y2-S2-164K18,1,114,PS,exp,35,↑,up,↑,0.48439759999746457,True,24,-1,0,14
Y2-S2-164K18,1,115,PS,exp,44,→,right,→,1.364453499991214,True,24,1,1,15
Y2-S2-164K18,1,116,PS,exp,39,↓,down,↓,0.6253279000229668,True,23,1,0,15
Y2-S2-164K18,1,117,PS,exp,27,←,left,←,0.6106550999975298,True,23,1,0,15
Y2-S2-164K18,1,118,PS,exp,46,↓,no_key,no_letter,-1.0,False,23,-1,1,16
Y2-S2-164K18,2,119,AS,intra_train,27,→,right,→,0.5005158999993,True,31,-,-,-
Y2-S2-164K18,2,120,AS,intra_train,40,↓,down,↓,0.9557780999748502,True,31,-,-,-
Y2-S2-164K18,2,121,AS,intra_train,31,↑,up,↑,0.9917596999730449,True,31,-,-,-
Y2-S2-164K18,2,122,AS,intra_train,47,←,right,→,0.6173438999976497,False,31,-,-,-
Y2-S2-164K18,2,123,AS,intra_train,41,↑,up,↑,0.633810999977868,True,31,-,-,-
Y2-S2-164K18,2,124,AS,exp,32,→,right,→,0.7556423999776598,True,21,0,0,0
Y2-S2-164K18,2,125,AS,exp,45,↓,left,←,1.0062137999921106,False,21,-1,0,0
Y2-S2-164K18,2,126,AS,exp,42,←,left,←,0.7449282000015955,True,22,-1,0,0
Y2-S2-164K18,2,127,AS,exp,37,↑,up,↑,0.46755130001110956,True,22,-1,0,0
Y2-S2-164K18,2,128,AS,exp,35,→,no_key,no_letter,-1.0,False,22,-1,0,0
Y2-S2-164K18,2,129,AS,exp,36,←,left,←,0.3673236999893561,True,23,-1,0,0
Y2-S2-164K18,2,130,AS,exp,42,↑,up,↑,0.6157864999840967,True,23,-1,0,0
Y2-S2-164K18,2,131,AS,exp,27,↓,left,←,0.6703925000037998,False,23,-1,0,0
Y2-S2-164K18,2,132,AS,exp,49,↑,up,↑,0.9815371999866329,True,24,-1,0,0
Y2-S2-164K18,2,133,AS,exp,29,→,right,→,0.7520398000197019,True,24,-1,0,0
Y2-S2-164K18,2,134,AS,exp,40,↓,down,↓,0.7404566000041086,True,24,1,1,1
Y2-S2-164K18,2,135,AS,exp,31,→,right,→,0.8218923999811523,True,23,1,0,1
Y2-S2-164K18,2,136,AS,exp,28,←,left,←,1.3599321999936365,True,23,1,0,1
Y2-S2-164K18,2,137,AS,exp,36,↓,no_key,no_letter,-1.0,False,23,-1,1,2
Y2-S2-164K18,2,138,AS,exp,34,→,right,→,0.7188704000145663,True,24,-1,0,2
Y2-S2-164K18,2,139,AS,exp,41,↓,no_key,no_letter,-1.0,False,24,-1,0,2
Y2-S2-164K18,2,140,AS,exp,26,→,right,→,0.5006417999975383,True,25,-1,0,2
Y2-S2-164K18,2,141,AS,exp,47,↓,down,↓,0.868512599990936,True,25,-1,0,2
Y2-S2-164K18,2,142,AS,exp,41,→,right,→,0.8238150000106543,True,25,1,1,3
Y2-S2-164K18,2,143,AS,exp,29,←,right,→,0.8375151000218466,False,24,-1,1,4
Y2-S2-164K18,2,144,AS,exp,49,→,right,→,0.4838240999961272,True,25,-1,0,4
Y2-S2-164K18,2,145,AS,exp,50,↓,down,↓,0.600203199981479,True,25,-1,0,4
Y2-S2-164K18,2,146,AS,exp,31,↑,down,↓,0.8430886999994982,False,25,-1,0,4
Y2-S2-164K18,2,147,AS,exp,28,←,left,←,0.7897467000002507,True,26,-1,0,4
Y2-S2-164K18,2,148,AS,exp,47,↑,up,↑,0.5672283000021707,True,26,-1,0,4
Y2-S2-164K18,2,149,AS,exp,40,→,right,→,0.6828250999969896,True,26,1,1,5
Y2-S2-164K18,2,150,AS,exp,47,↑,up,↑,0.5342557999829296,True,25,1,0,5
Y2-S2-164K18,2,151,AS,exp,32,←,right,→,0.5963524999970105,False,25,-1,1,6
Y2-S2-164K18,2,152,AS,exp,42,→,no_key,no_letter,-1.0,False,26,-1,0,6
Y2-S2-164K18,2,153,AS,exp,48,↓,right,→,0.0675109000003431,False,27,-1,0,6
Y2-S2-164K18,2,154,AS,exp,28,↑,left,←,0.5670278000179678,False,28,-1,0,6
Y2-S2-164K18,2,155,AS,exp,45,←,left,←,0.850299299985636,True,29,-1,0,6
Y2-S2-164K18,2,156,AS,exp,35,↑,down,↓,1.0921036999789067,False,29,-1,0,6
Y2-S2-164K18,2,157,AS,exp,37,→,right,→,0.500435900001321,True,30,-1,0,6
Y2-S2-164K18,2,158,AS,exp,30,←,left,←,0.8502569999836851,True,30,-1,0,6
Y2-S2-164K18,2,159,AS,exp,44,↑,no_key,no_letter,-1.0,False,30,-1,0,6
Y2-S2-164K18,2,160,AS,exp,33,↓,down,↓,0.7902659000246786,True,31,-1,0,6
Y2-S2-164K18,2,161,AS,exp,50,→,left,←,0.9087003000022378,False,31,-1,0,6
Y2-S2-164K18,2,162,AS,exp,36,←,right,→,0.650928200018825,False,32,-1,0,6
Y2-S2-164K18,2,163,AS,exp,34,↑,up,↑,1.02481090000947,True,33,-1,0,6
Y2-S2-164K18,2,164,AS,exp,45,←,left,←,1.5146811000013258,True,33,-1,0,6
Y2-S2-164K18,2,165,AS,exp,42,↓,right,→,0.5005095999804325,False,33,-1,0,6
Y2-S2-164K18,2,166,AS,exp,33,←,left,←,0.6844871000212152,True,34,-1,0,6
Y2-S2-164K18,2,167,AS,exp,38,→,no_key,no_letter,-1.0,False,34,-1,0,6
Y2-S2-164K18,2,168,AS,exp,40,←,left,←,0.6005883000034373,True,35,-1,0,6
Y2-S2-164K18,2,169,AS,exp,49,↓,down,↓,0.6674212999932934,True,35,-1,0,6
Y2-S2-164K18,2,170,AS,exp,49,←,right,→,0.6505416999862064,False,35,-1,0,6
Y2-S2-164K18,2,171,AS,exp,45,↓,down,↓,0.6005373999942094,True,36,-1,0,6
Y2-S2-164K18,2,172,AS,exp,26,←,left,←,0.8333901000150945,True,36,-1,0,6
Y2-S2-164K18,2,173,AS,exp,28,↓,down,↓,0.9408021999988705,True,36,1,1,7
Y2-S2-164K18,2,174,AS,exp,37,→,right,→,0.7173432999989018,True,35,1,0,7
Y2-S2-164K18,2,175,AS,exp,33,↓,left,←,0.5515820999862626,False,35,-1,1,8
Y2-S2-164K18,2,176,AS,exp,39,←,left,←,0.5011331999849062,True,36,-1,0,8
Y2-S2-164K18,2,177,AS,exp,29,↓,down,↓,2.150713500013808,True,36,-1,0,8
Y2-S2-164K18,2,178,AS,exp,40,→,right,→,0.7336904999974649,True,36,1,1,9
Y2-S2-164K18,2,179,AS,exp,35,↓,down,↓,0.6337955999770202,True,35,1,0,9
Y2-S2-164K18,2,180,AS,exp,43,↑,down,↓,0.48428999999305233,False,35,-1,1,10
Y2-S2-164K18,2,181,AS,exp,42,→,right,→,0.6008174000016879,True,36,-1,0,10
Y2-S2-164K18,2,182,AS,exp,36,↑,up,↑,0.9609951000020374,True,36,-1,0,10
Y2-S2-164K18,2,183,AS,exp,46,→,no_key,no_letter,-1.0,False,36,-1,0,10
Y2-S2-164K18,2,184,AS,exp,28,↑,up,↑,0.6501723999972455,True,37,-1,0,10
Y2-S2-164K18,2,185,AS,exp,27,→,right,→,0.8666547000175342,True,37,-1,0,10
Y2-S2-164K18,2,186,AS,exp,37,←,left,←,0.6002265000133775,True,37,1,1,11
Y2-S2-164K18,2,187,AS,exp,50,↑,up,↑,0.6843258999870159,True,36,1,0,11
Y2-S2-164K18,2,188,AS,exp,32,↓,up,↑,0.8376061999879312,False,36,-1,1,12
Y2-S2-164K18,2,189,AS,exp,26,←,left,←,0.7172561000043061,True,37,-1,0,12
Y2-S2-164K18,2,190,AS,exp,41,↓,down,↓,0.8949932999967132,True,37,-1,0,12
Y2-S2-164K18,2,191,AS,exp,28,←,left,←,0.8828267000208143,True,37,1,1,13
Y2-S2-164K18,2,192,AS,exp,37,→,left,←,0.6676152000145521,False,36,-1,1,14
Y2-S2-164K18,2,193,AS,exp,25,←,no_key,no_letter,-1.0,False,37,-1,0,14
Y2-S2-164K18,2,194,AS,exp,27,↑,up,↑,0.7500206000113394,True,38,-1,0,14
Y2-S2-164K18,2,195,AS,exp,46,←,left,←,0.8979942000005394,True,38,-1,0,14
Y2-S2-164K18,2,196,AS,exp,43,↑,no_key,no_letter,-1.0,False,38,-1,0,14
Y2-S2-164K18,2,197,AS,exp,44,→,right,→,0.6342465000052471,True,39,-1,0,14
Y2-S2-164K18,2,198,AS,exp,31,↑,up,↑,0.5504319999890868,True,39,-1,0,14
Y2-S2-164K18,2,199,AS,exp,34,←,left,←,0.7838842000055593,True,39,1,1,15
Y2-S2-164K18,2,200,AS,exp,47,→,right,→,0.5674375999951735,True,38,1,0,15
Y2-S2-164K18,2,201,AS,exp,27,↑,up,↑,0.8500981000252068,True,38,1,0,15
Y2-S2-164K18,2,202,AS,exp,33,→,right,→,0.7672640000237152,True,38,1,0,15
Y2-S2-164K18,2,203,AS,exp,37,↓,down,↓,0.9219156999897677,True,37,1,0,15
Y2-S2-164K18,2,204,AS,exp,45,←,left,←,0.617010299989488,True,37,1,0,15
Y2-S2-164K18,2,205,AS,exp,40,↑,up,↑,0.8293441999994684,True,37,1,0,15
Y2-S2-164K18,2,206,AS,exp,50,←,left,←,0.734167000016896,True,36,1,0,15
Y2-S2-164K18,2,207,AS,exp,44,→,left,←,0.6007295000017621,False,36,-1,1,16
Y2-S2-164K18,3,208,AS,intra_train,43,↓,down,↓,0.8992656999907922,True,31,-,-,-
Y2-S2-164K18,3,209,AS,intra_train,40,←,left,←,0.8055275999940932,True,31,-,-,-
Y2-S2-164K18,3,210,AS,intra_train,30,→,right,→,0.8054246999963652,True,31,-,-,-
Y2-S2-164K18,3,211,AS,intra_train,29,←,left,←,0.7555885000037961,True,31,-,-,-
Y2-S2-164K18,3,212,AS,intra_train,40,↓,no_key,no_letter,-1.0,False,31,-,-,-
Y2-S2-164K18,3,213,AS,exp,29,←,left,←,0.6961480999889318,True,21,0,0,0
Y2-S2-164K18,3,214,AS,exp,36,↑,down,↓,1.1602780999965034,False,21,-1,0,0
Y2-S2-164K18,3,215,AS,exp,35,→,right,→,1.136656100017717,True,22,-1,0,0
Y2-S2-164K18,3,216,AS,exp,30,↓,down,↓,0.8647431999852415,True,22,-1,0,0
Y2-S2-164K18,3,217,AS,exp,46,↑,up,↑,0.9486119000066537,True,22,1,1,1
Y2-S2-164K18,3,218,AS,exp,45,↓,down,↓,1.0637145999935456,True,21,1,0,1
Y2-S2-164K18,3,219,AS,exp,29,→,right,→,0.653220699983649,True,21,1,0,1
Y2-S2-164K18,3,220,AS,exp,35,↑,up,↑,0.9491659000050277,True,21,1,0,1
Y2-S2-164K18,3,221,AS,exp,50,↓,down,↓,0.7554813000024296,True,20,1,0,1
Y2-S2-164K18,3,222,AS,exp,47,↑,left,←,1.2897232999966945,False,20,-1,1,2
Y2-S2-164K18,3,223,AS,exp,42,←,left,←,0.5868429999973159,True,21,-1,0,2
Y2-S2-164K18,3,224,AS,exp,38,↓,up,↑,1.8465227999840863,False,21,-1,0,2
Y2-S2-164K18,3,225,AS,exp,44,→,right,→,0.9229846999805886,True,22,-1,0,2
Y2-S2-164K18,3,226,AS,exp,39,↓,down,↓,0.6495530999964103,True,22,-1,0,2
Y2-S2-164K18,3,227,AS,exp,30,←,left,←,0.804693700018106,True,22,1,1,3
Y2-S2-164K18,3,228,AS,exp,30,↑,right,→,0.9720097999961581,False,21,-1,1,4
Y2-S2-164K18,3,229,AS,exp,45,←,left,←,1.1266614000196569,True,22,-1,0,4
Y2-S2-164K18,3,230,AS,exp,44,↑,up,↑,0.6591478000045754,True,22,-1,0,4
Y2-S2-164K18,3,231,AS,exp,33,↓,down,↓,0.5837722000142094,True,22,1,1,5
Y2-S2-164K18,3,232,AS,exp,28,↑,up,↑,0.7947704999824055,True,21,1,0,5
Y2-S2-164K18,3,233,AS,exp,40,→,right,→,0.8569161000195891,True,21,1,0,5
Y2-S2-164K18,3,234,AS,exp,31,↑,up,↑,0.7455598999804351,True,21,1,0,5
Y2-S2-164K18,3,235,AS,exp,26,←,left,←,0.7443793000129517,True,20,1,0,5
Y2-S2-164K18,3,236,AS,exp,33,↓,down,↓,1.3398459999880288,True,20,1,0,5
Y2-S2-164K18,3,237,AS,exp,37,→,right,→,0.67450320001808,True,20,1,0,5
Y2-S2-164K18,3,238,AS,exp,31,↑,up,↑,0.6026687000121456,True,19,1,0,5
Y2-S2-164K18,3,239,AS,exp,30,→,left,←,0.6905931999790482,False,19,-1,1,6
Y2-S2-164K18,3,240,AS,exp,36,←,left,←,0.6984767999965698,True,20,-1,0,6
Y2-S2-164K18,3,241,AS,exp,43,→,right,→,0.7845677000004798,True,20,-1,0,6
Y2-S2-164K18,3,242,AS,exp,44,↑,up,↑,0.5170548999740276,True,20,1,1,7
Y2-S2-164K18,3,243,AS,exp,43,↓,down,↓,0.9051386000064667,True,19,1,0,7
Y2-S2-164K18,3,244,AS,exp,39,→,left,←,0.777740299992729,False,19,-1,1,8
Y2-S2-164K18,3,245,AS,exp,29,↓,down,↓,0.8077024000231177,True,20,-1,0,8
Y2-S2-164K18,3,246,AS,exp,42,→,right,→,0.7070057000091765,True,20,-1,0,8
Y2-S2-164K18,3,247,AS,exp,29,↑,up,↑,0.7758660999825224,True,20,1,1,9
Y2-S2-164K18,3,248,AS,exp,31,→,right,→,0.6289942000003066,True,19,1,0,9
Y2-S2-164K18,3,249,AS,exp,50,←,right,→,0.7508862999966368,False,19,-1,1,10
Y2-S2-164K18,3,250,AS,exp,25,→,right,→,0.5258567999990191,True,20,-1,0,10
Y2-S2-164K18,3,251,AS,exp,28,↓,down,↓,1.1192953000136185,True,20,-1,0,10
Y2-S2-164K18,3,252,AS,exp,36,↑,up,↑,0.7403461000067182,True,20,1,1,11
Y2-S2-164K18,3,253,AS,exp,47,←,left,←,0.686594899976626,True,19,1,0,11
Y2-S2-164K18,3,254,AS,exp,31,→,right,→,0.571762800012948,True,19,1,0,11
Y2-S2-164K18,3,255,AS,exp,31,↓,right,→,1.5130846000101883,False,19,-1,1,12
Y2-S2-164K18,3,256,AS,exp,47,→,right,→,0.6968371999973897,True,20,-1,0,12
Y2-S2-164K18,3,257,AS,exp,49,↑,up,↑,0.46735209997859783,True,20,-1,0,12
Y2-S2-164K18,3,258,AS,exp,46,→,right,→,0.7664994000224397,True,20,1,1,13
Y2-S2-164K18,3,259,AS,exp,34,←,left,←,0.6972554000094533,True,19,1,0,13
Y2-S2-164K18,3,260,AS,exp,37,↓,up,↑,0.6610332000127528,False,19,-1,1,14
Y2-S2-164K18,3,261,AS,exp,36,←,left,←,0.5120582999952603,True,20,-1,0,14
Y2-S2-164K18,3,262,AS,exp,27,↑,right,→,0.6082874000130687,False,20,-1,0,14
Y2-S2-164K18,3,263,AS,exp,32,→,up,↑,0.6603747000044677,False,21,-1,0,14
Y2-S2-164K18,3,264,AS,exp,29,↑,up,↑,0.6706681000068784,True,22,-1,0,14
Y2-S2-164K18,3,265,AS,exp,42,→,right,→,0.635545800003456,True,22,-1,0,14
Y2-S2-164K18,3,266,AS,exp,42,↓,down,↓,0.7375637000077404,True,22,1,1,15
Y2-S2-164K18,3,267,AS,exp,27,→,right,→,0.8455737000040244,True,21,1,0,15
Y2-S2-164K18,3,268,AS,exp,35,↓,up,↑,0.5633107000030577,False,21,-1,1,16
Y2-S2-164K18,4,269,PS,intra_train,48,→,right,→,0.5482056000037119,True,18,-,-,-
Y2-S2-164K18,4,270,PS,intra_train,32,↓,down,↓,0.7945415000140201,True,18,-,-,-
Y2-S2-164K18,4,271,PS,intra_train,42,→,right,→,0.5136104999983218,True,18,-,-,-
Y2-S2-164K18,4,272,PS,intra_train,29,↓,down,↓,0.6692196000076365,True,18,-,-,-
Y2-S2-164K18,4,273,PS,intra_train,47,↑,up,↑,0.6503468000155408,True,18,-,-,-
Y2-S2-164K18,4,274,PS,exp,47,↓,down,↓,0.6822546999901533,True,12,0,0,0
Y2-S2-164K18,4,275,PS,exp,28,←,left,←,0.8067232000175864,True,12,0,0,0
Y2-S2-164K18,4,276,PS,exp,27,↓,down,↓,0.6224965000001248,True,12,1,0,0
Y2-S2-164K18,4,277,PS,exp,38,↑,up,↑,1.176184000010835,True,11,1,0,0
Y2-S2-164K18,4,278,PS,exp,26,↓,no_key,no_letter,-1.0,False,11,-1,1,1
Y2-S2-164K18,4,279,PS,exp,25,←,right,→,1.2913923999876715,False,12,-1,0,1
Y2-S2-164K18,4,280,PS,exp,28,→,right,→,1.0335443000076339,True,13,-1,0,1
Y2-S2-164K18,4,281,PS,exp,42,↑,up,↑,0.5821690000011586,True,13,-1,0,1
Y2-S2-164K18,4,282,PS,exp,50,←,left,←,1.0720558000029996,True,13,1,1,2
Y2-S2-164K18,4,283,PS,exp,35,↓,no_key,no_letter,-1.0,False,12,-1,1,3
Y2-S2-164K18,4,284,PS,exp,29,←,left,←,0.617666600010125,True,13,-1,0,3
Y2-S2-164K18,4,285,PS,exp,36,→,left,←,1.0573301000113133,False,13,-1,0,3
Y2-S2-164K18,4,286,PS,exp,49,↓,down,↓,0.5710579000005964,True,14,-1,0,3
Y2-S2-164K18,4,287,PS,exp,37,→,down,↓,0.9223622000135947,False,14,-1,0,3
Y2-S2-164K18,4,288,PS,exp,47,↑,no_key,no_letter,-1.0,False,15,-1,0,3
Y2-S2-164K18,4,289,PS,exp,39,←,right,→,0.7754932999960147,False,16,-1,0,3
Y2-S2-164K18,4,290,PS,exp,48,→,right,→,0.6248922999948263,True,17,-1,0,3
Y2-S2-164K18,4,291,PS,exp,50,←,left,←,0.6619007000117563,True,17,-1,0,3
Y2-S2-164K18,4,292,PS,exp,25,↑,down,↓,0.8879508000100031,False,17,-1,0,3
Y2-S2-164K18,4,293,PS,exp,47,↓,down,↓,0.5959571000130381,True,18,-1,0,3
Y2-S2-164K18,4,294,PS,exp,33,←,right,→,0.5941760999849066,False,18,-1,0,3
Y2-S2-164K18,4,295,PS,exp,49,↑,up,↑,0.5452121999987867,True,19,-1,0,3
Y2-S2-164K18,4,296,PS,exp,47,→,right,→,0.5324802999966778,True,19,-1,0,3
Y2-S2-164K18,4,297,PS,exp,29,←,no_key,no_letter,-1.0,False,19,-1,0,3
Y2-S2-164K18,4,298,PS,exp,26,↓,down,↓,0.6957096999976784,True,20,-1,0,3
Y2-S2-164K18,4,299,PS,exp,29,←,left,←,0.6637593999912497,True,20,-1,0,3
Y2-S2-164K18,4,300,PS,exp,37,→,right,→,0.5995728999841958,True,20,1,1,4
Y2-S2-164K18,4,301,PS,exp,34,←,no_key,no_letter,-1.0,False,19,-1,1,5
Y2-S2-164K18,4,302,PS,exp,37,↓,down,↓,0.7083747999859042,True,20,-1,0,5
Y2-S2-164K18,4,303,PS,exp,33,←,left,←,0.750232499995036,True,20,-1,0,5
Y2-S2-164K18,4,304,PS,exp,43,↓,up,↑,0.8845972999988589,False,20,-1,0,5
Y2-S2-164K18,4,305,PS,exp,26,←,left,←,1.0215184000262525,True,21,-1,0,5
Y2-S2-164K18,4,306,PS,exp,30,↑,up,↑,0.7191337999829557,True,21,-1,0,5
Y2-S2-164K18,4,307,PS,exp,28,←,left,←,0.6140577000041958,True,21,1,1,6
Y2-S2-164K18,4,308,PS,exp,36,↓,down,↓,0.6944941999972798,True,20,1,0,6
Y2-S2-164K18,4,309,PS,exp,31,→,left,←,1.006480600015493,False,20,-1,1,7
Y2-S2-164K18,4,310,PS,exp,47,←,left,←,0.45079979998990893,True,21,-1,0,7
Y2-S2-164K18,4,311,PS,exp,44,→,right,→,0.685000299999956,True,21,-1,0,7
Y2-S2-164K18,4,312,PS,exp,48,←,left,←,0.6300733000098262,True,21,1,1,8
Y2-S2-164K18,4,313,PS,exp,38,→,right,→,0.7682120999961626,True,20,1,0,8
Y2-S2-164K18,4,314,PS,exp,45,↑,up,↑,0.6112694999901578,True,20,1,0,8
Y2-S2-164K18,4,315,PS,exp,36,←,left,←,0.7547173999773804,True,20,1,0,8
Y2-S2-164K18,4,316,PS,exp,42,→,right,→,0.6765711999905761,True,19,1,0,8
Y2-S2-164K18,4,317,PS,exp,41,↓,down,↓,0.662162199994782,True,19,1,0,8
Y2-S2-164K18,4,318,PS,exp,48,→,right,→,0.6323891000065487,True,19,1,0,8
Y2-S2-164K18,4,319,PS,exp,48,←,left,←,0.5462113000103272,True,18,1,0,8
Y2-S2-164K18,4,320,PS,exp,32,→,right,→,0.5572492000064813,True,18,1,0,8
Y2-S2-164K18,4,321,PS,exp,50,↓,down,↓,0.534618000005139,True,18,1,0,8
Y2-S2-164K18,4,322,PS,exp,35,↑,up,↑,0.5995072000077926,True,17,1,0,8
Y2-S2-164K18,4,323,PS,exp,38,←,left,←,0.5873401999997441,True,17,1,0,8
Y2-S2-164K18,4,324,PS,exp,38,↓,right,→,0.7262186000007205,False,17,-1,1,9
Y2-S2-164K18,4,325,PS,exp,26,→,right,→,0.6685863999882713,True,18,-1,0,9
Y2-S2-164K18,4,326,PS,exp,41,↓,down,↓,0.8236575000046287,True,18,-1,0,9
Y2-S2-164K18,4,327,PS,exp,47,←,left,←,1.114675899996655,True,18,1,1,10
Y2-S2-164K18,4,328,PS,exp,45,→,right,→,0.7243567999976221,True,17,1,0,10
Y2-S2-164K18,4,329,PS,exp,29,↑,up,↑,0.7640216999861877,True,17,1,0,10
Y2-S2-164K18,4,330,PS,exp,29,↓,down,↓,0.6155526000075042,True,17,1,0,10
Y2-S2-164K18,4,331,PS,exp,33,←,left,←,0.5576582000066992,True,16,1,0,10
Y2-S2-164K18,4,332,PS,exp,31,↓,down,↓,0.6584430000220891,True,16,1,0,10
Y2-S2-164K18,4,333,PS,exp,31,←,left,←,0.6489850000070874,True,16,1,0,10
Y2-S2-164K18,4,334,PS,exp,35,↑,up,↑,0.8029937000246719,True,15,1,0,10
Y2-S2-164K18,4,335,PS,exp,38,←,right,→,0.8922085000085644,False,15,-1,1,11
Y2-S2-164K18,4,336,PS,exp,25,→,left,←,0.9631922999978997,False,16,-1,0,11
Y2-S2-164K18,4,337,PS,exp,38,←,left,←,0.6918662999814842,True,17,-1,0,11
Y2-S2-164K18,4,338,PS,exp,40,↓,down,↓,0.5736899999901652,True,17,-1,0,11
Y2-S2-164K18,4,339,PS,exp,30,→,right,→,0.6407064000086393,True,17,1,1,12
Y2-S2-164K18,4,340,PS,exp,37,↓,up,↑,0.8573198999802116,False,16,-1,1,13
Y2-S2-164K18,4,341,PS,exp,42,→,right,→,0.49803079999401234,True,17,-1,0,13
Y2-S2-164K18,4,342,PS,exp,35,↑,up,↑,0.7154052999976557,True,17,-1,0,13
Y2-S2-164K18,4,343,PS,exp,33,←,left,←,0.4605030000093393,True,17,1,1,14
Y2-S2-164K18,4,344,PS,exp,48,→,right,→,0.715296499984106,True,16,1,0,14
Y2-S2-164K18,4,345,PS,exp,38,↑,down,↓,0.7084849999810103,False,16,-1,1,15
Y2-S2-164K18,4,346,PS,exp,39,←,left,←,0.5040331000054721,True,17,-1,0,15
Y2-S2-164K18,4,347,PS,exp,42,↓,down,↓,0.6345824000018183,True,17,-1,0,15
Y2-S2-164K18,4,348,PS,exp,38,←,left,←,0.8600888999935705,True,17,1,1,16
Y2-S2-164K18,5,349,PS,intra_train,50,→,right,→,0.47621360002085567,True,18,-,-,-
Y2-S2-164K18,5,350,PS,intra_train,45,↓,down,↓,0.5361826000153087,True,18,-,-,-
Y2-S2-164K18,5,351,PS,intra_train,40,→,right,→,0.41728280001552776,True,18,-,-,-
Y2-S2-164K18,5,352,PS,intra_train,49,↑,right,→,0.367248099995777,False,18,-,-,-
Y2-S2-164K18,5,353,PS,intra_train,45,→,right,→,0.3673715000040829,True,18,-,-,-
Y2-S2-164K18,5,354,PS,exp,50,↓,right,→,0.7078368999937084,False,12,-1,0,0
Y2-S2-164K18,5,355,PS,exp,48,←,left,←,0.5392707000137307,True,13,-1,0,0
Y2-S2-164K18,5,356,PS,exp,40,↑,up,↑,0.592208699992625,True,13,-1,0,0
Y2-S2-164K18,5,357,PS,exp,33,←,left,←,0.4901055000082124,True,13,1,1,1
Y2-S2-164K18,5,358,PS,exp,48,↑,up,↑,0.585002199979499,True,12,1,0,1
Y2-S2-164K18,5,359,PS,exp,26,↓,down,↓,0.6955239999806508,True,12,1,0,1
Y2-S2-164K18,5,360,PS,exp,50,←,left,←,0.5547403999953531,True,12,1,0,1
Y2-S2-164K18,5,361,PS,exp,32,↓,down,↓,0.660433799988823,True,11,1,0,1
Y2-S2-164K18,5,362,PS,exp,29,←,left,←,0.538290299999062,True,11,1,0,1
Y2-S2-164K18,5,363,PS,exp,44,→,right,→,0.5986737000057474,True,11,1,0,1
Y2-S2-164K18,5,364,PS,exp,46,↓,down,↓,0.6267996999958996,True,10,1,0,1
Y2-S2-164K18,5,365,PS,exp,30,→,right,→,1.0434363999811467,True,10,1,0,1
Y2-S2-164K18,5,366,PS,exp,32,↓,down,↓,0.7062344000150915,True,10,1,0,1
Y2-S2-164K18,5,367,PS,exp,40,→,up,↑,1.0211436999961734,False,9,-1,1,2
Y2-S2-164K18,5,368,PS,exp,27,←,no_key,no_letter,-1.0,False,10,-1,0,2
Y2-S2-164K18,5,369,PS,exp,29,↓,down,↓,0.5915842999820597,True,11,-1,0,2
Y2-S2-164K18,5,370,PS,exp,48,→,right,→,0.5544937000086065,True,11,-1,0,2
Y2-S2-164K18,5,371,PS,exp,44,←,left,←,0.5346121000184212,True,11,1,1,3
Y2-S2-164K18,5,372,PS,exp,25,↑,up,↑,0.5383190000138711,True,10,1,0,3
Y2-S2-164K18,5,373,PS,exp,33,←,left,←,0.4644765999983065,True,10,1,0,3
Y2-S2-164K18,5,374,PS,exp,39,→,up,↑,0.6548615999927279,False,10,-1,1,4
Y2-S2-164K18,5,375,PS,exp,30,↑,up,↑,0.4422316999989562,True,11,-1,0,4
Y2-S2-164K18,5,376,PS,exp,32,→,left,←,0.6236192999931518,False,11,-1,0,4
Y2-S2-164K18,5,377,PS,exp,30,↑,up,↑,0.5014282999909483,True,12,-1,0,4
Y2-S2-164K18,5,378,PS,exp,32,←,left,←,0.46350570002687164,True,12,-1,0,4
Y2-S2-164K18,5,379,PS,exp,41,↓,up,↑,0.5787158999883104,False,12,-1,0,4
Y2-S2-164K18,5,380,PS,exp,34,→,right,→,0.49044369999319315,True,13,-1,0,4
Y2-S2-164K18,5,381,PS,exp,50,←,left,←,0.6861572999914642,True,13,-1,0,4
Y2-S2-164K18,5,382,PS,exp,32,→,right,→,0.6172320999903604,True,13,1,1,5
Y2-S2-164K18,5,383,PS,exp,26,←,left,←,0.6342362000141293,True,12,1,0,5
Y2-S2-164K18,5,384,PS,exp,33,↑,up,↑,0.5322630000009667,True,12,1,0,5
Y2-S2-164K18,5,385,PS,exp,34,←,left,←,1.0695763000112493,True,12,1,0,5
Y2-S2-164K18,5,386,PS,exp,43,→,right,→,0.6375576000136789,True,11,1,0,5
Y2-S2-164K18,5,387,PS,exp,26,↑,left,←,1.3704877000127453,False,11,-1,1,6
Y2-S2-164K18,5,388,PS,exp,31,↓,down,↓,0.5623247999756131,True,12,-1,0,6
Y2-S2-164K18,5,389,PS,exp,42,↑,up,↑,0.6792142999765929,True,12,-1,0,6
Y2-S2-164K18,5,390,PS,exp,33,←,left,←,0.6063899000000674,True,12,1,1,7
Y2-S2-164K18,5,391,PS,exp,37,↑,left,←,0.8875794000050519,False,11,-1,1,8
Y2-S2-164K18,5,392,PS,exp,38,←,left,←,0.6490326999919489,True,12,-1,0,8
Y2-S2-164K18,5,393,PS,exp,25,↓,down,↓,0.7586937999876682,True,12,-1,0,8
Y2-S2-164K18,5,394,PS,exp,27,↑,up,↑,0.7280987999984063,True,12,1,1,9
Y2-S2-164K18,5,395,PS,exp,29,→,up,↑,0.20090229998459108,False,11,-1,1,10
Y2-S2-164K18,5,396,PS,exp,32,←,left,←,0.565530799998669,True,12,-1,0,10
Y2-S2-164K18,5,397,PS,exp,49,→,left,←,0.747379100008402,False,12,-1,0,10
Y2-S2-164K18,5,398,PS,exp,37,↓,right,→,0.6076551000005566,False,13,-1,0,10
Y2-S2-164K18,5,399,PS,exp,41,→,down,↓,1.0764912999875378,False,14,-1,0,10
Y2-S2-164K18,5,400,PS,exp,45,←,left,←,0.4903375999710988,True,15,-1,0,10
Y2-S2-164K18,5,401,PS,exp,47,↓,down,↓,0.5274563999846578,True,15,-1,0,10
Y2-S2-164K18,5,402,PS,exp,25,→,right,→,0.5236397000262514,True,15,1,1,11
Y2-S2-164K18,5,403,PS,exp,27,↓,down,↓,0.810752199991839,True,14,1,0,11
Y2-S2-164K18,5,404,PS,exp,47,←,left,←,0.5312444000155665,True,14,1,0,11
Y2-S2-164K18,5,405,PS,exp,39,↓,down,↓,0.4991417000128422,True,14,1,0,11
Y2-S2-164K18,5,406,PS,exp,29,→,right,→,0.4714283999928739,True,13,1,0,11
Y2-S2-164K18,5,407,PS,exp,37,↓,left,←,0.8140029000060167,False,13,-1,1,12
Y2-S2-164K18,5,408,PS,exp,34,↑,up,↑,0.6061189000029117,True,14,-1,0,12
Y2-S2-164K18,5,409,PS,exp,34,→,right,→,0.5668623000092339,True,14,-1,0,12
Y2-S2-164K18,5,410,PS,exp,39,↓,down,↓,0.43142229999648407,True,14,1,1,13
Y2-S2-164K18,5,411,PS,exp,37,↑,up,↑,0.5774115000094753,True,13,1,0,13
Y2-S2-164K18,5,412,PS,exp,31,↓,down,↓,1.2671891000063624,True,13,1,0,13
Y2-S2-164K18,5,413,PS,exp,35,←,no_key,no_letter,-1.0,False,13,-1,1,14
Y2-S2-164K18,5,414,PS,exp,45,→,right,→,0.6703440000128467,True,14,-1,0,14
Y2-S2-164K18,5,415,PS,exp,42,↑,up,↑,0.792078099999344,True,14,-1,0,14
Y2-S2-164K18,5,416,PS,exp,41,→,left,←,0.9725915000017267,False,14,-1,0,14
Y2-S2-164K18,5,417,PS,exp,46,←,left,←,0.773276399995666,True,15,-1,0,14
Y2-S2-164K18,5,418,PS,exp,48,→,right,→,0.7011712999956217,True,15,-1,0,14
Y2-S2-164K18,5,419,PS,exp,29,↑,up,↑,0.4331839999940712,True,15,1,1,15
Y2-S2-164K18,5,420,PS,exp,29,→,right,→,0.5682396999909543,True,14,1,0,15
Y2-S2-164K18,5,421,PS,exp,43,↑,up,↑,0.6502687000029255,True,14,1,0,15
Y2-S2-164K18,5,422,PS,exp,30,→,left,←,0.7695961999997962,False,14,-1,1,16
Y2-S2-164K18,6,423,AS,intra_train,44,←,no_key,no_letter,-1.0,False,31,-,-,-
Y2-S2-164K18,6,424,AS,intra_train,30,→,right,→,0.48430939999525435,True,31,-,-,-
Y2-S2-164K18,6,425,AS,intra_train,27,↓,down,↓,1.7097124000138137,True,31,-,-,-
Y2-S2-164K18,6,426,AS,intra_train,50,→,right,→,0.5672492999874521,True,31,-,-,-
Y2-S2-164K18,6,427,AS,intra_train,35,↑,up,↑,0.5340411000070162,True,31,-,-,-
Y2-S2-164K18,6,428,AS,exp,36,↓,right,→,0.728304999996908,False,21,-1,0,0
Y2-S2-164K18,6,429,AS,exp,46,↑,up,↑,0.5403103000135161,True,22,-1,0,0
Y2-S2-164K18,6,430,AS,exp,32,←,left,←,0.6855849999992643,True,22,-1,0,0
Y2-S2-164K18,6,431,AS,exp,45,→,right,→,0.5408660000248346,True,22,1,1,1
Y2-S2-164K18,6,432,AS,exp,37,↓,left,←,1.0826379000209272,False,21,-1,1,2
Y2-S2-164K18,6,433,AS,exp,44,→,right,→,0.5526297999895178,True,22,-1,0,2
Y2-S2-164K18,6,434,AS,exp,40,←,right,→,0.6486653999891132,False,22,-1,0,2
Y2-S2-164K18,6,435,AS,exp,40,→,up,↑,0.9337072000198532,False,23,-1,0,2
Y2-S2-164K18,6,436,AS,exp,32,↓,right,→,0.8782928999862634,False,24,-1,0,2
Y2-S2-164K18,6,437,AS,exp,42,→,left,←,1.1864704999898095,False,25,-1,0,2
Y2-S2-164K18,6,438,AS,exp,29,←,down,↓,1.3794822999916505,False,26,-1,0,2
Y2-S2-164K18,6,439,AS,exp,30,↑,down,↓,1.1799627000000328,False,27,-1,0,2
Y2-S2-164K18,6,440,AS,exp,27,→,right,→,0.5839000999985728,True,28,-1,0,2
Y2-S2-164K18,6,441,AS,exp,47,↑,right,→,0.824882200016873,False,28,-1,0,2
Y2-S2-164K18,6,442,AS,exp,31,←,right,→,0.7432576999999583,False,29,-1,0,2
Y2-S2-164K18,6,443,AS,exp,45,→,right,→,0.5172318999830168,True,30,-1,0,2
Y2-S2-164K18,6,444,AS,exp,39,←,left,←,0.43450979999033734,True,30,-1,0,2
Y2-S2-164K18,6,445,AS,exp,49,↓,down,↓,0.9910509999899659,True,30,1,1,3
Y2-S2-164K18,6,446,AS,exp,32,←,left,←,0.4342535999894608,True,29,1,0,3
Y2-S2-164K18,6,447,AS,exp,45,↑,up,↑,0.8387206000043079,True,29,1,0,3
Y2-S2-164K18,6,448,AS,exp,35,→,right,→,0.583666299993638,True,29,1,0,3
Y2-S2-164K18,6,449,AS,exp,26,↑,left,←,1.743218200019328,False,28,-1,1,4
Y2-S2-164K18,6,450,AS,exp,34,→,left,←,0.8052207000146154,False,29,-1,0,4
Y2-S2-164K18,6,451,AS,exp,36,←,down,↓,0.9565439999860246,False,30,-1,0,4
Y2-S2-164K18,6,452,AS,exp,48,↑,up,↑,0.7668804000131786,True,31,-1,0,4
Y2-S2-164K18,6,453,AS,exp,43,→,right,→,0.6339604000095278,True,31,-1,0,4
Y2-S2-164K18,6,454,AS,exp,31,↑,down,↓,1.2893544000107795,False,31,-1,0,4
Y2-S2-164K18,6,455,AS,exp,47,↓,down,↓,0.733801800000947,True,32,-1,0,4
Y2-S2-164K18,6,456,AS,exp,33,→,right,→,0.8218083000101615,True,32,-1,0,4
Y2-S2-164K18,6,457,AS,exp,36,↓,down,↓,0.7725452999875415,True,32,1,1,5
Y2-S2-164K18,6,458,AS,exp,28,←,left,←,0.46755230001872405,True,31,1,0,5
Y2-S2-164K18,6,459,AS,exp,49,↓,down,↓,0.5674170999845956,True,31,1,0,5
Y2-S2-164K18,6,460,AS,exp,27,→,left,←,0.7805074999923818,False,31,-1,1,6
Y2-S2-164K18,6,461,AS,exp,31,↑,down,↓,0.7895691000157967,False,32,-1,0,6
Y2-S2-164K18,6,462,AS,exp,40,↓,up,↑,0.8604761000024155,False,33,-1,0,6
Y2-S2-164K18,6,463,AS,exp,26,←,left,←,0.6839919000049122,True,34,-1,0,6
Y2-S2-164K18,6,464,AS,exp,27,↑,up,↑,0.5505263000086416,True,34,-1,0,6
Y2-S2-164K18,6,465,AS,exp,34,←,down,↓,0.8122914000123274,False,34,-1,0,6
Y2-S2-164K18,6,466,AS,exp,46,→,right,→,0.8002188999962527,True,35,-1,0,6
Y2-S2-164K18,6,467,AS,exp,50,←,left,←,0.41779289999976754,True,35,-1,0,6
Y2-S2-164K18,6,468,AS,exp,26,↑,up,↑,0.45113769997260533,True,35,1,1,7
Y2-S2-164K18,6,469,AS,exp,49,→,right,→,0.8112346999987494,True,34,1,0,7
Y2-S2-164K18,6,470,AS,exp,38,↑,up,↑,0.6838328999874648,True,34,1,0,7
Y2-S2-164K18,6,471,AS,exp,32,↓,down,↓,0.617172300000675,True,34,1,0,7
Y2-S2-164K18,6,472,AS,exp,38,←,left,←,0.6504477999988012,True,33,1,0,7
Y2-S2-164K18,6,473,AS,exp,35,↓,down,↓,0.7292097000172362,True,33,1,0,7
Y2-S2-164K18,6,474,AS,exp,27,↑,up,↑,0.4841937000164762,True,33,1,0,7
Y2-S2-164K18,6,475,AS,exp,46,←,left,←,0.7791540999896824,True,32,1,0,7
Y2-S2-164K18,6,476,AS,exp,47,↓,down,↓,1.0980888000049163,True,32,1,0,7
Y2-S2-164K18,6,477,AS,exp,44,←,left,←,1.0261426999932155,True,32,1,0,7
Y2-S2-164K18,6,478,AS,exp,31,↓,down,↓,0.5505731000157539,True,31,1,0,7
Y2-S2-164K18,6,479,AS,exp,25,→,up,↑,1.2613846999884117,False,31,-1,1,8
Y2-S2-164K18,6,480,AS,exp,34,↓,down,↓,0.9447098999808077,True,32,-1,0,8
Y2-S2-164K18,6,481,AS,exp,26,↑,up,↑,0.7555969999812078,True,32,-1,0,8
Y2-S2-164K18,6,482,AS,exp,43,←,left,←,0.8904133999894839,True,32,1,1,9
Y2-S2-164K18,6,483,AS,exp,35,↑,up,↑,0.5839820000110194,True,31,1,0,9
Y2-S2-164K18,6,484,AS,exp,33,↓,no_key,no_letter,-1.0,False,31,-1,1,10
Y2-S2-164K18,6,485,AS,exp,34,↑,up,↑,1.110802400013199,True,32,-1,0,10
Y2-S2-164K18,6,486,AS,exp,36,→,right,→,0.8322447999962606,True,32,-1,0,10
Y2-S2-164K18,6,487,AS,exp,31,↓,down,↓,0.7805041999963578,True,32,1,1,11
Y2-S2-164K18,6,488,AS,exp,40,→,left,←,1.174606099986704,False,31,-1,1,12
Y2-S2-164K18,6,489,AS,exp,38,←,up,↑,0.8544461000128649,False,32,-1,0,12
Y2-S2-164K18,6,490,AS,exp,33,→,left,←,0.41802099999040365,False,33,-1,0,12
Y2-S2-164K18,6,491,AS,exp,30,←,left,←,0.7581404999946244,True,34,-1,0,12
Y2-S2-164K18,6,492,AS,exp,29,→,left,←,0.7657498999906238,False,34,-1,0,12
Y2-S2-164K18,6,493,AS,exp,28,↓,down,↓,0.7585237000021152,True,35,-1,0,12
Y2-S2-164K18,6,494,AS,exp,31,→,right,→,0.7673444999963976,True,35,-1,0,12
Y2-S2-164K18,6,495,AS,exp,29,←,left,←,0.4844366000033915,True,35,1,1,13
Y2-S2-164K18,6,496,AS,exp,28,↑,up,↑,0.7449152999906801,True,34,1,0,13
Y2-S2-164K18,6,497,AS,exp,47,→,right,→,0.633906399976695,True,34,1,0,13
Y2-S2-164K18,6,498,AS,exp,25,←,left,←,1.0793760999804363,True,34,1,0,13
Y2-S2-164K18,6,499,AS,exp,42,↑,up,↑,0.7643223000050057,True,33,1,0,13
Y2-S2-164K18,6,500,AS,exp,29,→,right,→,0.8343997999909334,True,33,1,0,13
Y2-S2-164K18,6,501,AS,exp,35,↓,down,↓,0.7458202000125311,True,33,1,0,13
Y2-S2-164K18,6,502,AS,exp,27,←,left,←,0.6671607000171207,True,32,1,0,13
Y2-S2-164K18,6,503,AS,exp,34,↑,up,↑,0.732427299983101,True,32,1,0,13
Y2-S2-164K18,6,504,AS,exp,25,←,left,←,0.5337048000073992,True,32,1,0,13
Y2-S2-164K18,6,505,AS,exp,43,↓,down,↓,0.7398646999790799,True,31,1,0,13
Y2-S2-164K18,6,506,AS,exp,40,←,right,→,0.8747775999945588,False,31,-1,1,14
Y2-S2-164K18,6,507,AS,exp,25,↓,down,↓,1.00341470001149,True,32,-1,0,14
Y2-S2-164K18,6,508,AS,exp,48,←,left,←,0.5672783000045456,True,32,-1,0,14
Y2-S2-164K18,6,509,AS,exp,48,↑,up,↑,0.7647320000105537,True,32,1,1,15
Y2-S2-164K18,6,510,AS,exp,40,↓,down,↓,0.7046029000193812,True,31,1,0,15
Y2-S2-164K18,6,511,AS,exp,36,←,left,←,0.46774910000385717,True,31,1,0,15
Y2-S2-164K18,6,512,AS,exp,32,↓,down,↓,0.5848562000028323,True,31,1,0,15
Y2-S2-164K18,6,513,AS,exp,25,→,right,→,0.9301714999892283,True,30,1,0,15
Y2-S2-164K18,6,514,AS,exp,35,↑,up,↑,0.8442007999983616,True,30,1,0,15
Y2-S2-164K18,6,515,AS,exp,50,↓,down,↓,1.0503087000106461,True,30,1,0,15
Y2-S2-164K18,6,516,AS,exp,43,↑,up,↑,0.7648056000180077,True,29,1,0,15
Y2-S2-164K18,6,517,AS,exp,38,→,right,→,0.8800012999854516,True,29,1,0,15
Y2-S2-164K18,6,518,AS,exp,37,↓,down,↓,0.6515284999914002,True,29,1,0,15
Y2-S2-164K18,6,519,AS,exp,45,↑,up,↑,1.8987336999853142,True,28,1,0,15
Y2-S2-164K18,6,520,AS,exp,42,↓,down,↓,0.6619995999790262,True,28,1,0,15
Y2-S2-164K18,6,521,AS,exp,25,↑,up,↑,0.7777887999836821,True,28,1,0,15
Y2-S2-164K18,6,522,AS,exp,47,↓,down,↓,0.5174178000015672,True,27,1,0,15
Y2-S2-164K18,6,523,AS,exp,27,←,left,←,1.7435474999947473,True,27,1,0,15
Y2-S2-164K18,6,524,AS,exp,32,↑,down,↓,0.7337598000012804,False,27,-1,1,16
Y2-S2-164K18,7,525,AS,intra_train,35,→,right,→,0.8926420000207145,True,31,-,-,-
Y2-S2-164K18,7,526,AS,intra_train,39,↑,no_key,no_letter,-1.0,False,31,-,-,-
Y2-S2-164K18,7,527,AS,intra_train,41,→,right,→,0.45112759998301044,True,31,-,-,-
Y2-S2-164K18,7,528,AS,intra_train,49,↑,up,↑,0.46761540000443347,True,31,-,-,-
Y2-S2-164K18,7,529,AS,intra_train,41,↓,down,↓,0.8897782000130974,True,31,-,-,-
Y2-S2-164K18,7,530,AS,exp,32,←,left,←,0.8667698999925051,True,21,0,0,0
Y2-S2-164K18,7,531,AS,exp,39,↑,up,↑,0.7275582000147551,True,21,0,0,0
Y2-S2-164K18,7,532,AS,exp,32,↓,down,↓,0.5721100000082515,True,21,1,0,0
Y2-S2-164K18,7,533,AS,exp,38,→,left,←,0.7923443000181578,False,20,-1,1,1
Y2-S2-164K18,7,534,AS,exp,46,←,right,→,0.6480330000049435,False,21,-1,0,1
Y2-S2-164K18,7,535,AS,exp,45,↓,down,↓,0.7795154000050388,True,22,-1,0,1
Y2-S2-164K18,7,536,AS,exp,48,→,right,→,0.9401157000102103,True,22,-1,0,1
Y2-S2-164K18,7,537,AS,exp,45,↓,down,↓,0.8442318000015803,True,22,1,1,2
Y2-S2-164K18,7,538,AS,exp,38,→,no_key,no_letter,-1.0,False,21,-1,1,3
Y2-S2-164K18,7,539,AS,exp,37,↓,down,↓,0.6062558999983594,True,22,-1,0,3
Y2-S2-164K18,7,540,AS,exp,39,→,down,↓,0.5555187999852933,False,22,-1,0,3
Y2-S2-164K18,7,541,AS,exp,33,←,right,→,0.9769097000244074,False,23,-1,0,3
Y2-S2-164K18,7,542,AS,exp,31,→,left,←,0.8115068999759387,False,24,-1,0,3
Y2-S2-164K18,7,543,AS,exp,28,↓,down,↓,0.8605509000190068,True,25,-1,0,3
Y2-S2-164K18,7,544,AS,exp,27,↑,up,↑,0.720165700011421,True,25,-1,0,3
Y2-S2-164K18,7,545,AS,exp,36,←,no_key,no_letter,-1.0,False,25,-1,0,3
Y2-S2-164K18,7,546,AS,exp,38,→,right,→,0.5671197000192478,True,26,-1,0,3
Y2-S2-164K18,7,547,AS,exp,36,↓,down,↓,0.623067100008484,True,26,-1,0,3
Y2-S2-164K18,7,548,AS,exp,37,→,right,→,0.7551710999978241,True,26,1,1,4
Y2-S2-164K18,7,549,AS,exp,44,↑,up,↑,0.5174846999871079,True,25,1,0,4
Y2-S2-164K18,7,550,AS,exp,48,→,right,→,0.7668509999930393,True,25,1,0,4
Y2-S2-164K18,7,551,AS,exp,49,↓,down,↓,0.664528599998448,True,25,1,0,4
Y2-S2-164K18,7,552,AS,exp,43,↑,no_key,no_letter,-1.0,False,24,-1,1,5
Y2-S2-164K18,7,553,AS,exp,28,←,right,→,0.49996590000228025,False,25,-1,0,5
Y2-S2-164K18,7,554,AS,exp,39,→,right,→,0.5672287000052165,True,26,-1,0,5
Y2-S2-164K18,7,555,AS,exp,35,↓,down,↓,0.6217909999832045,True,26,-1,0,5
Y2-S2-164K18,7,556,AS,exp,34,↑,up,↑,0.9044352000055369,True,26,1,1,6
Y2-S2-164K18,7,557,AS,exp,36,→,right,→,0.5175584999960847,True,25,1,0,6
Y2-S2-164K18,7,558,AS,exp,39,↑,up,↑,0.5006361000123434,True,25,1,0,6
Y2-S2-164K18,7,559,AS,exp,49,←,left,←,0.8180493999971077,True,25,1,0,6
Y2-S2-164K18,7,560,AS,exp,40,↓,down,↓,1.6822651000111364,True,24,1,0,6
Y2-S2-164K18,7,561,AS,exp,49,←,left,←,0.7971962000010535,True,24,1,0,6
Y2-S2-164K18,7,562,AS,exp,47,→,right,→,0.7242290999856777,True,24,1,0,6
Y2-S2-164K18,7,563,AS,exp,48,↓,down,↓,0.6342290999891702,True,23,1,0,6
Y2-S2-164K18,7,564,AS,exp,49,→,right,→,0.5005046000005677,True,23,1,0,6
Y2-S2-164K18,7,565,AS,exp,30,↓,down,↓,0.6661017999867909,True,23,1,0,6
Y2-S2-164K18,7,566,AS,exp,44,←,left,←,1.0060094999789726,True,22,1,0,6
Y2-S2-164K18,7,567,AS,exp,35,→,right,→,0.7229006999987178,True,22,1,0,6
Y2-S2-164K18,7,568,AS,exp,38,←,left,←,0.5888816000078805,True,22,1,0,6
Y2-S2-164K18,7,569,AS,exp,50,↑,no_key,no_letter,-1.0,False,21,-1,1,7
Y2-S2-164K18,7,570,AS,exp,37,→,right,→,0.5011730999976862,True,22,-1,0,7
Y2-S2-164K18,7,571,AS,exp,46,←,left,←,1.4829414999985602,True,22,-1,0,7
Y2-S2-164K18,7,572,AS,exp,30,→,right,→,0.48404290000326,True,22,1,1,8
Y2-S2-164K18,7,573,AS,exp,31,↓,down,↓,0.5813424999942072,True,21,1,0,8
Y2-S2-164K18,7,574,AS,exp,37,→,right,→,0.4671049999888055,True,21,1,0,8
Y2-S2-164K18,7,575,AS,exp,33,↑,up,↑,0.942812799999956,True,21,1,0,8
Y2-S2-164K18,7,576,AS,exp,43,↓,right,→,0.8909186000237241,False,20,-1,1,9
Y2-S2-164K18,7,577,AS,exp,42,→,right,→,0.7061963000160176,True,21,-1,0,9
Y2-S2-164K18,7,578,AS,exp,34,↑,left,←,0.6867792000120971,False,21,-1,0,9
Y2-S2-164K18,7,579,AS,exp,42,↓,left,←,0.7170232000062242,False,22,-1,0,9
Y2-S2-164K18,7,580,AS,exp,29,←,down,↓,0.7431272999965586,False,23,-1,0,9
Y2-S2-164K18,7,581,AS,exp,38,↓,up,↑,0.9361694999970496,False,24,-1,0,9
Y2-S2-164K18,7,582,AS,exp,36,→,right,→,0.5506021000037435,True,25,-1,0,9
Y2-S2-164K18,7,583,AS,exp,31,↑,up,↑,0.6837660000019241,True,25,-1,0,9
Y2-S2-164K18,7,584,AS,exp,45,↓,up,↑,0.883433300012257,False,25,-1,0,9
Y2-S2-164K18,7,585,AS,exp,50,→,down,↓,1.0729800999979489,False,26,-1,0,9
Y2-S2-164K18,7,586,AS,exp,27,←,left,←,0.68154570000479,True,27,-1,0,9
Y2-S2-164K18,7,587,AS,exp,33,↑,up,↑,0.9509828999871388,True,27,-1,0,9
Y2-S2-164K18,7,588,AS,exp,48,→,right,→,0.9181501000130083,True,27,1,1,10
Y2-S2-164K18,7,589,AS,exp,45,↑,up,↑,0.6830212000058964,True,26,1,0,10
Y2-S2-164K18,7,590,AS,exp,32,←,left,←,0.8906002000148874,True,26,1,0,10
Y2-S2-164K18,7,591,AS,exp,27,↑,down,↓,1.3154272999963723,False,26,-1,1,11
Y2-S2-164K18,7,592,AS,exp,25,→,right,→,0.8083828999951947,True,27,-1,0,11
Y2-S2-164K18,7,593,AS,exp,32,←,no_key,no_letter,-1.0,False,27,-1,0,11
Y2-S2-164K18,7,594,AS,exp,49,↓,up,↑,0.7527332000026945,False,28,-1,0,11
Y2-S2-164K18,7,595,AS,exp,37,↑,down,↓,0.6004440999822691,False,29,-1,0,11
Y2-S2-164K18,7,596,AS,exp,35,↓,up,↑,0.8242468000098597,False,30,-1,0,11
Y2-S2-164K18,7,597,AS,exp,26,↑,up,↑,0.7775551000086125,True,31,-1,0,11
Y2-S2-164K18,7,598,AS,exp,48,→,down,↓,0.7432966999767814,False,31,-1,0,11
Y2-S2-164K18,7,599,AS,exp,31,↓,down,↓,0.711041699978523,True,32,-1,0,11
Y2-S2-164K18,7,600,AS,exp,40,→,down,↓,0.7850222999986727,False,32,-1,0,11
Y2-S2-164K18,7,601,AS,exp,41,↑,up,↑,0.9041432999947574,True,33,-1,0,11
Y2-S2-164K18,7,602,AS,exp,41,→,right,→,0.5506631000025664,True,33,-1,0,11
Y2-S2-164K18,7,603,AS,exp,46,←,left,←,0.5338195000076666,True,33,1,1,12
Y2-S2-164K18,7,604,AS,exp,46,↓,down,↓,1.6626106000039726,True,32,1,0,12
Y2-S2-164K18,7,605,AS,exp,47,←,left,←,0.5336783999809995,True,32,1,0,12
Y2-S2-164K18,7,606,AS,exp,41,→,right,→,0.46778539998922497,True,32,1,0,12
Y2-S2-164K18,7,607,AS,exp,42,↓,left,←,0.9139072999823838,False,31,-1,1,13
Y2-S2-164K18,7,608,AS,exp,41,↑,up,↑,0.7117040999874007,True,32,-1,0,13
Y2-S2-164K18,7,609,AS,exp,37,→,right,→,0.9176370000059251,True,32,-1,0,13
Y2-S2-164K18,7,610,AS,exp,37,↓,down,↓,0.7781148999929428,True,32,1,1,14
Y2-S2-164K18,7,611,AS,exp,43,↑,up,↑,0.6984316000016406,True,31,1,0,14
Y2-S2-164K18,7,612,AS,exp,48,↓,down,↓,0.7544312999816611,True,31,1,0,14
Y2-S2-164K18,7,613,AS,exp,27,←,left,←,0.567212499998277,True,31,1,0,14
Y2-S2-164K18,7,614,AS,exp,50,↓,down,↓,0.7144354000047315,True,30,1,0,14
Y2-S2-164K18,7,615,AS,exp,37,←,left,←,0.7630862999940291,True,30,1,0,14
Y2-S2-164K18,7,616,AS,exp,42,→,right,→,1.301980000018375,True,30,1,0,14
Y2-S2-164K18,7,617,AS,exp,41,←,left,←,1.0404874999949243,True,29,1,0,14
Y2-S2-164K18,7,618,AS,exp,37,→,left,←,0.4674012000032235,False,29,-1,1,15
Y2-S2-164K18,7,619,AS,exp,26,↑,down,↓,0.8709646000061184,False,30,-1,0,15
Y2-S2-164K18,7,620,AS,exp,25,→,right,→,0.8770834999741055,True,31,-1,0,15
Y2-S2-164K18,7,621,AS,exp,34,↑,up,↑,0.4857046000252012,True,31,-1,0,15
Y2-S2-164K18,7,622,AS,exp,29,↓,down,↓,1.0860005999857094,True,31,1,1,16
Y2-S2-164K18,8,623,PS,intra_train,38,↑,up,↑,0.47996180001064204,True,18,-,-,-
Y2-S2-164K18,8,624,PS,intra_train,31,↓,down,↓,0.7189428000128828,True,18,-,-,-
Y2-S2-164K18,8,625,PS,intra_train,25,→,right,→,0.6936096999852452,True,18,-,-,-
Y2-S2-164K18,8,626,PS,intra_train,37,←,left,←,0.491807999991579,True,18,-,-,-
Y2-S2-164K18,8,627,PS,intra_train,49,→,right,→,0.6491229000093881,True,18,-,-,-
Y2-S2-164K18,8,628,PS,exp,43,↓,down,↓,0.6316074999922421,True,12,0,0,0
Y2-S2-164K18,8,629,PS,exp,36,←,left,←,0.7451214999891818,True,12,0,0,0
Y2-S2-164K18,8,630,PS,exp,45,↓,down,↓,0.51492529999814,True,12,1,0,0
Y2-S2-164K18,8,631,PS,exp,31,←,left,←,0.7883336000086274,True,11,1,0,0
Y2-S2-164K18,8,632,PS,exp,25,→,left,←,0.6784438999893609,False,11,-1,1,1
Y2-S2-164K18,8,633,PS,exp,36,←,down,↓,1.1658714000077453,False,12,-1,0,1
Y2-S2-164K18,8,634,PS,exp,37,↓,down,↓,0.7031881999864709,True,13,-1,0,1
Y2-S2-164K18,8,635,PS,exp,33,↑,up,↑,0.7485919000173453,True,13,-1,0,1
Y2-S2-164K18,8,636,PS,exp,28,↓,down,↓,0.6201725999999326,True,13,1,1,2
Y2-S2-164K18,8,637,PS,exp,25,→,right,→,0.6419409999798518,True,12,1,0,2
Y2-S2-164K18,8,638,PS,exp,38,↑,left,←,0.8320647999935318,False,12,-1,1,3
Y2-S2-164K18,8,639,PS,exp,49,→,left,←,0.7500121000048239,False,13,-1,0,3
Y2-S2-164K18,8,640,PS,exp,26,↓,no_key,no_letter,-1.0,False,14,-1,0,3
Y2-S2-164K18,8,641,PS,exp,45,→,left,←,0.5923909999837633,False,15,-1,0,3
Y2-S2-164K18,8,642,PS,exp,34,←,left,←,0.6573239999997895,True,16,-1,0,3
Y2-S2-164K18,8,643,PS,exp,31,↑,down,↓,0.8580055000202265,False,16,-1,0,3
Y2-S2-164K18,8,644,PS,exp,40,↓,down,↓,0.8559224999917205,True,17,-1,0,3
Y2-S2-164K18,8,645,PS,exp,34,→,right,→,0.7620052999991458,True,17,-1,0,3
Y2-S2-164K18,8,646,PS,exp,46,←,left,←,0.7418498999904841,True,17,1,1,4
Y2-S2-164K18,8,647,PS,exp,35,↑,up,↑,0.6288502000097651,True,16,1,0,4
Y2-S2-164K18,8,648,PS,exp,44,↓,down,↓,0.6607676999992691,True,16,1,0,4
Y2-S2-164K18,8,649,PS,exp,33,→,right,→,0.4980312999978196,True,16,1,0,4
Y2-S2-164K18,8,650,PS,exp,34,←,left,←,0.5216041999810841,True,15,1,0,4
Y2-S2-164K18,8,651,PS,exp,35,↑,left,←,0.6271775999921374,False,15,-1,1,5
Y2-S2-164K18,8,652,PS,exp,33,↓,down,↓,0.43722490000072867,True,16,-1,0,5
Y2-S2-164K18,8,653,PS,exp,28,←,left,←,0.6559478999988642,True,16,-1,0,5
Y2-S2-164K18,8,654,PS,exp,31,↓,down,↓,0.496178899978986,True,16,1,1,6
Y2-S2-164K18,8,655,PS,exp,36,↑,up,↑,0.6353555000096094,True,15,1,0,6
Y2-S2-164K18,8,656,PS,exp,47,←,right,→,0.605629100027727,False,15,-1,1,7
Y2-S2-164K18,8,657,PS,exp,25,→,down,↓,0.5510255999979563,False,16,-1,0,7
Y2-S2-164K18,8,658,PS,exp,49,↓,down,↓,0.6281710999901406,True,17,-1,0,7
Y2-S2-164K18,8,659,PS,exp,41,↑,down,↓,0.9354864000051748,False,17,-1,0,7
Y2-S2-164K18,8,660,PS,exp,37,←,no_key,no_letter,-1.0,False,18,-1,0,7
Y2-S2-164K18,8,661,PS,exp,46,→,left,←,0.5021875999809708,False,19,-1,0,7
Y2-S2-164K18,8,662,PS,exp,45,↑,up,↑,0.6531937000108883,True,20,-1,0,7
Y2-S2-164K18,8,663,PS,exp,40,↓,down,↓,0.6339223000104539,True,20,-1,0,7
Y2-S2-164K18,8,664,PS,exp,44,←,left,←,0.4172682999924291,True,20,1,1,8
Y2-S2-164K18,8,665,PS,exp,48,↓,down,↓,0.7180000000225846,True,19,1,0,8
Y2-S2-164K18,8,666,PS,exp,40,↑,up,↑,0.515976300026523,True,19,1,0,8
Y2-S2-164K18,8,667,PS,exp,32,→,right,→,0.48676030000206083,True,19,1,0,8
Y2-S2-164K18,8,668,PS,exp,38,↓,no_key,no_letter,-1.0,False,18,-1,1,9
Y2-S2-164K18,8,669,PS,exp,30,→,right,→,0.4505325000209268,True,19,-1,0,9
Y2-S2-164K18,8,670,PS,exp,31,↑,up,↑,0.4336810999957379,True,19,-1,0,9
Y2-S2-164K18,8,671,PS,exp,47,↓,down,↓,0.4338569999963511,True,19,1,1,10
Y2-S2-164K18,8,672,PS,exp,40,↑,up,↑,0.4346130999911111,True,18,1,0,10
Y2-S2-164K18,8,673,PS,exp,45,←,left,←,0.5877426999795716,True,18,1,0,10
Y2-S2-164K18,8,674,PS,exp,27,→,no_key,no_letter,-1.0,False,18,-1,1,11
Y2-S2-164K18,8,675,PS,exp,46,←,left,←,0.4503479999839328,True,19,-1,0,11
Y2-S2-164K18,8,676,PS,exp,33,↑,left,←,0.9742832999909297,False,19,-1,0,11
Y2-S2-164K18,8,677,PS,exp,29,→,right,→,0.9229267000046093,True,20,-1,0,11
Y2-S2-164K18,8,678,PS,exp,38,←,left,←,0.5193358999968041,True,20,-1,0,11
Y2-S2-164K18,8,679,PS,exp,46,↑,up,↑,0.7091200999857392,True,20,1,1,12
Y2-S2-164K18,8,680,PS,exp,43,↓,down,↓,0.6556778999802191,True,19,1,0,12
Y2-S2-164K18,8,681,PS,exp,28,→,left,←,0.6283610000100452,False,19,-1,1,13
Y2-S2-164K18,8,682,PS,exp,26,←,left,←,0.5313534000015352,True,20,-1,0,13
Y2-S2-164K18,8,683,PS,exp,49,↑,no_key,no_letter,-1.0,False,20,-1,0,13
Y2-S2-164K18,8,684,PS,exp,43,→,right,→,0.6550434999808203,True,21,-1,0,13
Y2-S2-164K18,8,685,PS,exp,37,↑,no_key,no_letter,-1.0,False,21,-1,0,13
Y2-S2-164K18,8,686,PS,exp,49,↓,down,↓,0.7089061999868136,True,22,-1,0,13
Y2-S2-164K18,8,687,PS,exp,45,←,left,←,0.6758172000118066,True,22,-1,0,13
Y2-S2-164K18,8,688,PS,exp,32,→,up,↑,0.4671152000082657,False,22,-1,0,13
Y2-S2-164K18,8,689,PS,exp,45,←,left,←,1.153290599992033,True,23,-1,0,13
Y2-S2-164K18,8,690,PS,exp,41,↓,down,↓,0.6649318000127096,True,23,-1,0,13
Y2-S2-164K18,8,691,PS,exp,27,↑,up,↑,0.5975580999802332,True,23,1,1,14
Y2-S2-164K18,8,692,PS,exp,34,←,no_key,no_letter,-1.0,False,22,-1,1,15
Y2-S2-164K18,8,693,PS,exp,30,↓,left,←,1.6732378999877255,False,23,-1,0,15
Y2-S2-164K18,8,694,PS,exp,38,→,no_key,no_letter,-1.0,False,24,-1,0,15
Y2-S2-164K18,8,695,PS,exp,37,←,left,←,0.619672000000719,True,25,-1,0,15
Y2-S2-164K18,8,696,PS,exp,28,↓,down,↓,0.7124173000047449,True,25,-1,0,15
Y2-S2-164K18,8,697,PS,exp,41,↑,up,↑,0.6235346999892499,True,25,1,1,16
