PART_ID,Block_no,Trial_no,Block_type,Trial_type,CSI,Stim_letter,Key_pressed,letter_choose,Rt,Corr,Stimulus Time,Level,Reversal,Revs_count
Y2-S2-148K21,1,1,PS,train,48,↑,up,↑,1.0030846999725327,True,30,-,-,-
Y2-S2-148K21,1,2,PS,train,33,→,right,→,0.4342386999633163,True,30,-,-,-
Y2-S2-148K21,1,3,PS,train,25,↓,down,↓,0.5006479000439867,True,30,-,-,-
Y2-S2-148K21,1,4,PS,train,35,→,right,→,0.433749399962835,True,30,-,-,-
Y2-S2-148K21,1,5,PS,train,46,←,right,→,0.384510500007309,False,30,-,-,-
Y2-S2-148K21,1,6,PS,train,25,↓,down,↓,0.5676817999919876,True,30,-,-,-
Y2-S2-148K21,1,7,PS,train,35,↑,up,↑,0.5506522000068799,True,30,-,-,-
Y2-S2-148K21,1,8,PS,train,25,←,right,→,0.5837717999238521,False,30,-,-,-
Y2-S2-148K21,1,9,PS,train,49,↓,down,↓,0.550314599997364,True,30,-,-,-
Y2-S2-148K21,1,10,PS,train,31,↑,up,↑,0.48428299999795854,True,30,-,-,-
Y2-S2-148K21,2,11,AS,train,35,→,right,→,0.6177383000031114,True,45,-,-,-
Y2-S2-148K21,2,12,AS,train,38,↓,down,↓,0.7176377000287175,True,45,-,-,-
Y2-S2-148K21,2,13,AS,train,37,↑,up,↑,0.651069900020957,True,45,-,-,-
Y2-S2-148K21,2,14,AS,train,30,↓,up,↑,0.4176529999822378,False,45,-,-,-
Y2-S2-148K21,2,15,AS,train,37,←,left,←,0.5676690000109375,True,45,-,-,-
Y2-S2-148K21,2,16,AS,train,50,↑,up,↑,0.7012620000168681,True,45,-,-,-
Y2-S2-148K21,2,17,AS,train,47,↓,down,↓,0.5845576000865549,True,45,-,-,-
Y2-S2-148K21,2,18,AS,train,34,↑,up,↑,0.5511287999106571,True,45,-,-,-
Y2-S2-148K21,2,19,AS,train,33,←,left,←,0.5510836000321433,True,45,-,-,-
Y2-S2-148K21,2,20,AS,train,37,↑,up,↑,0.4843401999678463,True,45,-,-,-
Y2-S2-148K21,-,21,PS,adaptive,47,←,left,←,0.4480394000420347,True,10,0,0,0
Y2-S2-148K21,-,22,PS,adaptive,39,→,right,→,0.5051383000100031,True,10,0,0,0
Y2-S2-148K21,-,23,PS,adaptive,25,↑,up,↑,0.5071357000852004,True,10,1,0,0
Y2-S2-148K21,-,24,PS,adaptive,43,↓,down,↓,0.5564779000123963,True,9,1,0,0
Y2-S2-148K21,-,25,PS,adaptive,42,↑,up,↑,0.500809199991636,True,9,1,0,0
Y2-S2-148K21,-,26,PS,adaptive,25,→,right,→,0.46306710003409535,True,9,1,0,0
Y2-S2-148K21,-,27,PS,adaptive,31,↑,up,↑,0.4671463998965919,True,8,1,0,0
Y2-S2-148K21,-,28,PS,adaptive,43,←,left,←,0.7770827000495046,True,8,1,0,0
Y2-S2-148K21,-,29,PS,adaptive,26,↓,up,↑,0.7660952999722213,False,8,-1,1,1
Y2-S2-148K21,-,30,PS,adaptive,35,←,right,→,0.8418977999826893,False,9,-1,0,1
Y2-S2-148K21,-,31,PS,adaptive,31,→,right,→,0.5286455999594182,True,10,-1,0,1
Y2-S2-148K21,-,32,PS,adaptive,43,↓,down,↓,0.677854000008665,True,10,-1,0,1
Y2-S2-148K21,-,33,PS,adaptive,34,↑,up,↑,0.5230341999558732,True,10,1,1,2
Y2-S2-148K21,-,34,PS,adaptive,32,→,left,←,1.0483066000742838,False,9,-1,1,3
Y2-S2-148K21,-,35,PS,adaptive,33,↓,left,←,0.7070983001030982,False,10,-1,0,3
Y2-S2-148K21,-,36,PS,adaptive,46,←,right,→,0.6791557000251487,False,11,-1,0,3
Y2-S2-148K21,-,37,PS,adaptive,45,↑,up,↑,0.4928971000481397,True,12,-1,0,3
Y2-S2-148K21,-,38,PS,adaptive,25,↓,up,↑,0.89560899999924,False,12,-1,0,3
Y2-S2-148K21,-,39,PS,adaptive,38,←,right,→,0.6634326999774203,False,13,-1,0,3
Y2-S2-148K21,-,40,PS,adaptive,48,↓,down,↓,0.7197337999241427,True,14,-1,0,3
Y2-S2-148K21,-,41,PS,adaptive,41,←,left,←,0.5451987999258563,True,14,-1,0,3
Y2-S2-148K21,-,42,PS,adaptive,27,↑,up,↑,0.5276204000692815,True,14,1,1,4
Y2-S2-148K21,-,43,AS,adaptive,43,↓,down,↓,0.7926449999213219,True,20,0,0,0
Y2-S2-148K21,-,44,AS,adaptive,48,↑,up,↑,0.5704408000456169,True,20,0,0,0
Y2-S2-148K21,-,45,AS,adaptive,38,←,left,←,0.5480916999513283,True,20,1,0,0
Y2-S2-148K21,-,46,AS,adaptive,39,↑,no_key,no_letter,-1.0,False,19,-1,1,1
Y2-S2-148K21,-,47,AS,adaptive,45,↓,down,↓,0.7916021998971701,True,20,-1,0,1
Y2-S2-148K21,-,48,AS,adaptive,30,↑,up,↑,0.6412735000485554,True,20,-1,0,1
Y2-S2-148K21,-,49,AS,adaptive,26,↓,down,↓,0.6346118000801653,True,20,1,1,2
Y2-S2-148K21,-,50,AS,adaptive,46,→,right,→,0.5645649000070989,True,19,1,0,2
Y2-S2-148K21,-,51,AS,adaptive,49,←,left,←,0.8036382999271154,True,19,1,0,2
Y2-S2-148K21,-,52,AS,adaptive,48,↑,up,↑,0.5092137000756338,True,19,1,0,2
Y2-S2-148K21,-,53,AS,adaptive,29,←,left,←,0.5884520000545308,True,18,1,0,2
Y2-S2-148K21,-,54,AS,adaptive,26,↑,right,→,0.8576430999673903,False,18,-1,1,3
Y2-S2-148K21,-,55,AS,adaptive,35,←,left,←,0.5408125000540167,True,19,-1,0,3
Y2-S2-148K21,-,56,AS,adaptive,45,↓,up,↑,0.8518532000016421,False,19,-1,0,3
Y2-S2-148K21,-,57,AS,adaptive,30,→,right,→,0.6761002000421286,True,20,-1,0,3
Y2-S2-148K21,-,58,AS,adaptive,25,↓,down,↓,0.7299782999325544,True,20,-1,0,3
Y2-S2-148K21,-,59,AS,adaptive,42,←,right,→,1.0486697000451386,False,20,-1,0,3
Y2-S2-148K21,-,60,AS,adaptive,43,↑,up,↑,0.5421889000572264,True,21,-1,0,3
Y2-S2-148K21,-,61,AS,adaptive,32,↓,down,↓,0.7873386999126524,True,21,-1,0,3
Y2-S2-148K21,-,62,AS,adaptive,50,↑,up,↑,0.7009629000676796,True,21,1,1,4
Y2-S2-148K21,1,63,AS,intra_train,36,→,right,→,0.6006046000402421,True,30,-,-,-
Y2-S2-148K21,1,64,AS,intra_train,44,↓,down,↓,0.7427985001122579,True,30,-,-,-
Y2-S2-148K21,1,65,AS,intra_train,41,←,left,←,0.6005085000069812,True,30,-,-,-
Y2-S2-148K21,1,66,AS,intra_train,48,↑,up,↑,1.303501999936998,True,30,-,-,-
Y2-S2-148K21,1,67,AS,intra_train,36,←,left,←,0.5337666999548674,True,30,-,-,-
Y2-S2-148K21,1,68,AS,exp,40,↓,down,↓,0.8817614000290632,True,20,0,0,0
Y2-S2-148K21,1,69,AS,exp,50,→,right,→,0.46765080001205206,True,20,0,0,0
Y2-S2-148K21,1,70,AS,exp,45,←,left,←,0.5662774000084028,True,20,1,0,0
Y2-S2-148K21,1,71,AS,exp,31,→,right,→,0.5092122000642121,True,19,1,0,0
Y2-S2-148K21,1,72,AS,exp,28,↑,up,↑,0.5031109999399632,True,19,1,0,0
Y2-S2-148K21,1,73,AS,exp,41,←,left,←,0.4339834999991581,True,19,1,0,0
Y2-S2-148K21,1,74,AS,exp,26,→,right,→,0.5480031999759376,True,18,1,0,0
Y2-S2-148K21,1,75,AS,exp,35,←,right,→,0.8402450999710709,False,18,-1,1,1
Y2-S2-148K21,1,76,AS,exp,33,→,right,→,0.4339618000667542,True,19,-1,0,1
Y2-S2-148K21,1,77,AS,exp,35,↑,up,↑,0.5158941999543458,True,19,-1,0,1
Y2-S2-148K21,1,78,AS,exp,50,↓,down,↓,0.6397103000199422,True,19,1,1,2
Y2-S2-148K21,1,79,AS,exp,28,←,left,←,0.6103461999446154,True,18,1,0,2
Y2-S2-148K21,1,80,AS,exp,47,↓,down,↓,0.7595335999503732,True,18,1,0,2
Y2-S2-148K21,1,81,AS,exp,38,←,left,←,0.514163599931635,True,18,1,0,2
Y2-S2-148K21,1,82,AS,exp,32,→,right,→,0.508545899996534,True,17,1,0,2
Y2-S2-148K21,1,83,AS,exp,30,↓,down,↓,0.6767994000110775,True,17,1,0,2
Y2-S2-148K21,1,84,AS,exp,30,→,right,→,0.5862875999882817,True,17,1,0,2
Y2-S2-148K21,1,85,AS,exp,29,↑,down,↓,0.8138876999728382,False,16,-1,1,3
Y2-S2-148K21,1,86,AS,exp,38,↓,down,↓,0.640775499981828,True,17,-1,0,3
Y2-S2-148K21,1,87,AS,exp,39,↑,up,↑,0.8396638999693096,True,17,-1,0,3
Y2-S2-148K21,1,88,AS,exp,33,→,right,→,0.6009936999762431,True,17,1,1,4
Y2-S2-148K21,1,89,AS,exp,49,←,right,→,0.6353873000480235,False,16,-1,1,5
Y2-S2-148K21,1,90,AS,exp,36,↑,down,↓,0.7544060999061912,False,17,-1,0,5
Y2-S2-148K21,1,91,AS,exp,43,←,left,←,0.5351526999147609,True,18,-1,0,5
Y2-S2-148K21,1,92,AS,exp,33,→,left,←,0.7374235999304801,False,18,-1,0,5
Y2-S2-148K21,1,93,AS,exp,33,←,left,←,0.623597800033167,True,19,-1,0,5
Y2-S2-148K21,1,94,AS,exp,28,↓,down,↓,0.6058205999433994,True,19,-1,0,5
Y2-S2-148K21,1,95,AS,exp,25,←,left,←,0.5327896999660879,True,19,1,1,6
Y2-S2-148K21,1,96,AS,exp,30,→,right,→,1.585057899937965,True,18,1,0,6
Y2-S2-148K21,1,97,AS,exp,29,↑,up,↑,0.6210071999812499,True,18,1,0,6
Y2-S2-148K21,1,98,AS,exp,32,→,right,→,0.4920457999687642,True,18,1,0,6
Y2-S2-148K21,1,99,AS,exp,26,↑,up,↑,0.5188152999617159,True,17,1,0,6
Y2-S2-148K21,1,100,AS,exp,26,↓,down,↓,0.726325000054203,True,17,1,0,6
Y2-S2-148K21,1,101,AS,exp,45,→,right,→,0.4999340999638662,True,17,1,0,6
Y2-S2-148K21,1,102,AS,exp,29,↑,up,↑,0.5063185999169946,True,16,1,0,6
Y2-S2-148K21,1,103,AS,exp,39,→,right,→,0.4995529999723658,True,16,1,0,6
Y2-S2-148K21,1,104,AS,exp,27,←,left,←,0.5418185000307858,True,16,1,0,6
Y2-S2-148K21,1,105,AS,exp,29,↑,up,↑,0.5685042000841349,True,15,1,0,6
Y2-S2-148K21,1,106,AS,exp,41,←,right,→,0.5947455000132322,False,15,-1,1,7
Y2-S2-148K21,1,107,AS,exp,26,→,right,→,0.9012758999597281,True,16,-1,0,7
Y2-S2-148K21,1,108,AS,exp,47,←,left,←,0.694673000019975,True,16,-1,0,7
Y2-S2-148K21,1,109,AS,exp,32,→,right,→,0.5371561000356451,True,16,1,1,8
Y2-S2-148K21,1,110,AS,exp,50,←,left,←,0.6419152000453323,True,15,1,0,8
Y2-S2-148K21,1,111,AS,exp,25,↓,down,↓,0.6764292999869213,True,15,1,0,8
Y2-S2-148K21,1,112,AS,exp,33,→,right,→,0.5214737999485806,True,15,1,0,8
Y2-S2-148K21,1,113,AS,exp,34,↑,up,↑,0.5321011000778526,True,14,1,0,8
Y2-S2-148K21,1,114,AS,exp,25,↓,down,↓,0.68377669993788,True,14,1,0,8
Y2-S2-148K21,1,115,AS,exp,46,←,left,←,1.0769175000023097,True,14,1,0,8
Y2-S2-148K21,1,116,AS,exp,42,↓,down,↓,0.6629529000492766,True,13,1,0,8
Y2-S2-148K21,1,117,AS,exp,34,→,right,→,0.5814503999426961,True,13,1,0,8
Y2-S2-148K21,1,118,AS,exp,26,↑,right,→,0.7484570000087842,False,13,-1,1,9
Y2-S2-148K21,1,119,AS,exp,38,→,left,←,0.7419311999110505,False,14,-1,0,9
Y2-S2-148K21,1,120,AS,exp,46,↓,left,←,0.7884130999445915,False,15,-1,0,9
Y2-S2-148K21,1,121,AS,exp,29,←,right,→,0.4677860999945551,False,16,-1,0,9
Y2-S2-148K21,1,122,AS,exp,26,→,right,→,0.4905889000510797,True,17,-1,0,9
Y2-S2-148K21,1,123,AS,exp,33,↓,down,↓,0.6728832999942824,True,17,-1,0,9
Y2-S2-148K21,1,124,AS,exp,49,→,right,→,0.6476234999718145,True,17,1,1,10
Y2-S2-148K21,1,125,AS,exp,27,←,right,→,0.7258588999975473,False,16,-1,1,11
Y2-S2-148K21,1,126,AS,exp,32,↓,down,↓,0.6764830000465736,True,17,-1,0,11
Y2-S2-148K21,1,127,AS,exp,40,←,left,←,0.6107210000045598,True,17,-1,0,11
Y2-S2-148K21,1,128,AS,exp,44,→,right,→,0.5761678999988362,True,17,1,1,12
Y2-S2-148K21,1,129,AS,exp,32,←,left,←,0.6672461000271142,True,16,1,0,12
Y2-S2-148K21,1,130,AS,exp,29,↓,down,↓,0.6044618999585509,True,16,1,0,12
Y2-S2-148K21,1,131,AS,exp,40,←,left,←,0.6509712999686599,True,16,1,0,12
Y2-S2-148K21,1,132,AS,exp,50,↓,down,↓,0.6590173000004143,True,15,1,0,12
Y2-S2-148K21,1,133,AS,exp,48,←,down,↓,0.6701482000062242,False,15,-1,1,13
Y2-S2-148K21,1,134,AS,exp,32,→,right,→,0.49760510004125535,True,16,-1,0,13
Y2-S2-148K21,1,135,AS,exp,44,↑,up,↑,0.5899342000484467,True,16,-1,0,13
Y2-S2-148K21,1,136,AS,exp,33,←,up,↑,0.8180745999561623,False,16,-1,0,13
Y2-S2-148K21,1,137,AS,exp,28,↓,down,↓,0.6595444000558928,True,17,-1,0,13
Y2-S2-148K21,1,138,AS,exp,27,→,right,→,0.5522720000008121,True,17,-1,0,13
Y2-S2-148K21,1,139,AS,exp,36,↓,down,↓,0.7729480999987572,True,17,1,1,14
Y2-S2-148K21,1,140,AS,exp,40,←,left,←,0.5723582999780774,True,16,1,0,14
Y2-S2-148K21,1,141,AS,exp,32,↓,down,↓,0.5872731999261305,True,16,1,0,14
Y2-S2-148K21,1,142,AS,exp,31,←,left,←,0.76512819994241,True,16,1,0,14
Y2-S2-148K21,1,143,AS,exp,42,↑,up,↑,0.5012099000159651,True,15,1,0,14
Y2-S2-148K21,1,144,AS,exp,29,→,right,→,0.5111279999837279,True,15,1,0,14
Y2-S2-148K21,1,145,AS,exp,28,↓,down,↓,0.738977300003171,True,15,1,0,14
Y2-S2-148K21,1,146,AS,exp,34,←,left,←,0.6447397000156343,True,14,1,0,14
Y2-S2-148K21,1,147,AS,exp,46,↑,up,↑,0.5222053000470623,True,14,1,0,14
Y2-S2-148K21,1,148,AS,exp,44,↓,down,↓,0.7962822000263259,True,14,1,0,14
Y2-S2-148K21,1,149,AS,exp,50,→,right,→,0.4675252999877557,True,13,1,0,14
Y2-S2-148K21,1,150,AS,exp,32,←,left,←,0.5957443000515923,True,13,1,0,14
Y2-S2-148K21,1,151,AS,exp,38,→,left,←,0.7689425999997184,False,13,-1,1,15
Y2-S2-148K21,1,152,AS,exp,34,←,left,←,0.6755229000700638,True,14,-1,0,15
Y2-S2-148K21,1,153,AS,exp,42,↓,down,↓,0.6007956999819726,True,14,-1,0,15
Y2-S2-148K21,1,154,AS,exp,29,↑,up,↑,0.606309000053443,True,14,1,1,16
Y2-S2-148K21,2,155,PS,intra_train,49,←,left,←,0.8667275999905542,True,19,-,-,-
Y2-S2-148K21,2,156,PS,intra_train,36,↑,up,↑,0.5604356999974698,True,19,-,-,-
Y2-S2-148K21,2,157,PS,intra_train,40,←,left,←,0.7199810999445617,True,19,-,-,-
Y2-S2-148K21,2,158,PS,intra_train,45,↓,down,↓,0.5829066999722272,True,19,-,-,-
Y2-S2-148K21,2,159,PS,intra_train,44,←,left,←,1.2263123000739142,True,19,-,-,-
Y2-S2-148K21,2,160,PS,exp,25,↓,down,↓,0.5362163999816403,True,13,0,0,0
Y2-S2-148K21,2,161,PS,exp,34,←,left,←,0.6839348999783397,True,13,0,0,0
Y2-S2-148K21,2,162,PS,exp,40,→,right,→,0.4369792001089081,True,13,1,0,0
Y2-S2-148K21,2,163,PS,exp,29,↑,up,↑,0.48245250002946705,True,12,1,0,0
Y2-S2-148K21,2,164,PS,exp,47,←,left,←,0.4447457001078874,True,12,1,0,0
Y2-S2-148K21,2,165,PS,exp,25,↓,down,↓,0.6524696999695152,True,12,1,0,0
Y2-S2-148K21,2,166,PS,exp,30,→,right,→,0.472849200014025,True,11,1,0,0
Y2-S2-148K21,2,167,PS,exp,45,↓,down,↓,0.6148880999535322,True,11,1,0,0
Y2-S2-148K21,2,168,PS,exp,47,→,right,→,0.44597870006691664,True,11,1,0,0
Y2-S2-148K21,2,169,PS,exp,35,↑,up,↑,0.49762909999117255,True,10,1,0,0
Y2-S2-148K21,2,170,PS,exp,26,←,left,←,0.4963428999762982,True,10,1,0,0
Y2-S2-148K21,2,171,PS,exp,49,→,right,→,0.5342622000025585,True,10,1,0,0
Y2-S2-148K21,2,172,PS,exp,30,↑,up,↑,0.5139706999761984,True,9,1,0,0
Y2-S2-148K21,2,173,PS,exp,28,→,right,→,0.5208303000545129,True,9,1,0,0
Y2-S2-148K21,2,174,PS,exp,50,←,left,←,0.4478470999747515,True,9,1,0,0
Y2-S2-148K21,2,175,PS,exp,30,→,right,→,0.545648799976334,True,8,1,0,0
Y2-S2-148K21,2,176,PS,exp,42,↑,up,↑,0.6391182999359444,True,8,1,0,0
Y2-S2-148K21,2,177,PS,exp,33,→,right,→,0.4734346999321133,True,8,1,0,0
Y2-S2-148K21,2,178,PS,exp,25,↑,up,↑,0.49243920005392283,True,7,1,0,0
Y2-S2-148K21,2,179,PS,exp,28,←,left,←,0.5411392999812961,True,7,1,0,0
Y2-S2-148K21,2,180,PS,exp,47,↓,up,↑,0.5888674999587238,False,7,-1,1,1
Y2-S2-148K21,2,181,PS,exp,43,→,right,→,0.7027869999874383,True,8,-1,0,1
Y2-S2-148K21,2,182,PS,exp,49,↑,up,↑,0.4521511000348255,True,8,-1,0,1
Y2-S2-148K21,2,183,PS,exp,42,→,right,→,0.4856847000773996,True,8,1,1,2
Y2-S2-148K21,2,184,PS,exp,25,↓,down,↓,0.6511419999878854,True,7,1,0,2
Y2-S2-148K21,2,185,PS,exp,43,↑,up,↑,0.47341629990842193,True,7,1,0,2
Y2-S2-148K21,2,186,PS,exp,44,←,left,←,0.5389988999813795,True,7,1,0,2
Y2-S2-148K21,2,187,PS,exp,36,↑,up,↑,0.39471280004363507,True,6,1,0,2
Y2-S2-148K21,2,188,PS,exp,26,↓,up,↑,0.5096286999760196,False,6,-1,1,3
Y2-S2-148K21,2,189,PS,exp,32,↑,up,↑,0.41103830002248287,True,7,-1,0,3
Y2-S2-148K21,2,190,PS,exp,38,→,right,→,0.42888140003196895,True,7,-1,0,3
Y2-S2-148K21,2,191,PS,exp,25,←,up,↑,0.5727870999835432,False,7,-1,0,3
Y2-S2-148K21,2,192,PS,exp,26,↓,down,↓,0.5555943000363186,True,8,-1,0,3
Y2-S2-148K21,2,193,PS,exp,34,→,right,→,0.4377447000006214,True,8,-1,0,3
Y2-S2-148K21,2,194,PS,exp,43,↑,up,↑,0.4031280999770388,True,8,1,1,4
Y2-S2-148K21,2,195,PS,exp,33,←,left,←,0.46222029998898506,True,7,1,0,4
Y2-S2-148K21,2,196,PS,exp,30,→,up,↑,0.607269800035283,False,7,-1,1,5
Y2-S2-148K21,2,197,PS,exp,45,↑,up,↑,0.5582602999638766,True,8,-1,0,5
Y2-S2-148K21,2,198,PS,exp,35,←,left,←,0.5877860999898985,True,8,-1,0,5
Y2-S2-148K21,2,199,PS,exp,49,↓,up,↑,0.6478602000279352,False,8,-1,0,5
Y2-S2-148K21,2,200,PS,exp,26,→,right,→,0.6932046000147238,True,9,-1,0,5
Y2-S2-148K21,2,201,PS,exp,46,↓,down,↓,0.5532304000807926,True,9,-1,0,5
Y2-S2-148K21,2,202,PS,exp,27,→,right,→,0.4420907999156043,True,9,1,1,6
Y2-S2-148K21,2,203,PS,exp,25,←,left,←,0.5324746000114828,True,8,1,0,6
Y2-S2-148K21,2,204,PS,exp,34,↓,down,↓,0.5327736999606714,True,8,1,0,6
Y2-S2-148K21,2,205,PS,exp,36,↑,right,→,0.6027119000209495,False,8,-1,1,7
Y2-S2-148K21,2,206,PS,exp,27,↓,down,↓,0.5076578999869525,True,9,-1,0,7
Y2-S2-148K21,2,207,PS,exp,31,→,right,→,0.8970470000058413,True,9,-1,0,7
Y2-S2-148K21,2,208,PS,exp,30,←,left,←,0.5326745000202209,True,9,1,1,8
Y2-S2-148K21,2,209,PS,exp,30,→,right,→,0.46399530000053346,True,8,1,0,8
Y2-S2-148K21,2,210,PS,exp,34,↑,up,↑,0.48349170002620667,True,8,1,0,8
Y2-S2-148K21,2,211,PS,exp,40,←,left,←,0.5580034999875352,True,8,1,0,8
Y2-S2-148K21,2,212,PS,exp,33,↓,down,↓,0.5977994999848306,True,7,1,0,8
Y2-S2-148K21,2,213,PS,exp,42,→,left,←,0.8273661999264732,False,7,-1,1,9
Y2-S2-148K21,2,214,PS,exp,26,←,left,←,0.6092744000488892,True,8,-1,0,9
Y2-S2-148K21,2,215,PS,exp,35,↓,down,↓,0.6462883000494912,True,8,-1,0,9
Y2-S2-148K21,2,216,PS,exp,48,→,right,→,0.8183665999677032,True,8,1,1,10
Y2-S2-148K21,2,217,PS,exp,29,↓,down,↓,0.6684292000718415,True,7,1,0,10
Y2-S2-148K21,2,218,PS,exp,42,←,left,←,0.5571421000640839,True,7,1,0,10
Y2-S2-148K21,2,219,PS,exp,34,→,right,→,0.5486509000184014,True,7,1,0,10
Y2-S2-148K21,2,220,PS,exp,31,←,left,←,0.6585989999584854,True,6,1,0,10
Y2-S2-148K21,2,221,PS,exp,37,→,right,→,0.6273186999605969,True,6,1,0,10
Y2-S2-148K21,2,222,PS,exp,40,↓,down,↓,0.533116800012067,True,6,1,0,10
Y2-S2-148K21,2,223,PS,exp,42,←,left,←,0.5547810000134632,True,5,1,0,10
Y2-S2-148K21,2,224,PS,exp,33,↑,left,←,0.5521119000623003,False,5,-1,1,11
Y2-S2-148K21,2,225,PS,exp,45,→,left,←,0.5992515999823809,False,6,-1,0,11
Y2-S2-148K21,2,226,PS,exp,32,↑,down,↓,0.6119978999486193,False,7,-1,0,11
Y2-S2-148K21,2,227,PS,exp,49,→,right,→,0.43048159999307245,True,8,-1,0,11
Y2-S2-148K21,2,228,PS,exp,45,←,left,←,0.5482491999864578,True,8,-1,0,11
Y2-S2-148K21,2,229,PS,exp,43,↑,left,←,0.5127037999918684,False,8,-1,0,11
Y2-S2-148K21,2,230,PS,exp,48,→,right,→,0.4144202000461519,True,9,-1,0,11
Y2-S2-148K21,2,231,PS,exp,45,↑,right,→,0.5643556000432,False,9,-1,0,11
Y2-S2-148K21,2,232,PS,exp,42,↓,down,↓,0.6108244000934064,True,10,-1,0,11
Y2-S2-148K21,2,233,PS,exp,49,↑,up,↑,0.6345764000434428,True,10,-1,0,11
Y2-S2-148K21,2,234,PS,exp,30,↓,right,→,1.0379842999391258,False,10,-1,0,11
Y2-S2-148K21,2,235,PS,exp,28,←,left,←,0.5531805000500754,True,11,-1,0,11
Y2-S2-148K21,2,236,PS,exp,30,↓,down,↓,0.6389081999659538,True,11,-1,0,11
Y2-S2-148K21,2,237,PS,exp,34,→,right,→,0.40646780002862215,True,11,1,1,12
Y2-S2-148K21,2,238,PS,exp,46,↓,right,→,0.6637335999403149,False,10,-1,1,13
Y2-S2-148K21,2,239,PS,exp,38,←,left,←,0.5785547000123188,True,11,-1,0,13
Y2-S2-148K21,2,240,PS,exp,50,↑,up,↑,0.5391015999484807,True,11,-1,0,13
Y2-S2-148K21,2,241,PS,exp,49,←,left,←,0.5200854999711737,True,11,1,1,14
Y2-S2-148K21,2,242,PS,exp,50,→,left,←,1.218956399941817,False,10,-1,1,15
Y2-S2-148K21,2,243,PS,exp,34,↓,down,↓,0.9497746999841183,True,11,-1,0,15
Y2-S2-148K21,2,244,PS,exp,34,→,right,→,0.5197685000021011,True,11,-1,0,15
Y2-S2-148K21,2,245,PS,exp,43,↓,up,↑,0.9161273000063375,False,11,-1,0,15
Y2-S2-148K21,2,246,PS,exp,29,→,right,→,0.44775839999783784,True,12,-1,0,15
Y2-S2-148K21,2,247,PS,exp,32,↓,down,↓,0.602925599901937,True,12,-1,0,15
Y2-S2-148K21,2,248,PS,exp,37,←,left,←,0.5484590999549255,True,12,1,1,16
Y2-S2-148K21,3,249,PS,intra_train,49,↑,up,↑,0.5188004999654368,True,19,-,-,-
Y2-S2-148K21,3,250,PS,intra_train,47,↓,down,↓,0.6115858999546617,True,19,-,-,-
Y2-S2-148K21,3,251,PS,intra_train,40,→,right,→,0.41733779991045594,True,19,-,-,-
Y2-S2-148K21,3,252,PS,intra_train,37,↑,up,↑,0.5155963000142947,True,19,-,-,-
Y2-S2-148K21,3,253,PS,intra_train,50,↓,down,↓,0.5789392000297084,True,19,-,-,-
Y2-S2-148K21,3,254,PS,exp,43,↑,up,↑,0.4042205000296235,True,13,0,0,0
Y2-S2-148K21,3,255,PS,exp,27,→,right,→,0.48500420001801103,True,13,0,0,0
Y2-S2-148K21,3,256,PS,exp,48,←,left,←,0.40493590000551194,True,13,1,0,0
Y2-S2-148K21,3,257,PS,exp,42,↓,down,↓,0.575764499953948,True,12,1,0,0
Y2-S2-148K21,3,258,PS,exp,35,↑,up,↑,0.47420830000191927,True,12,1,0,0
Y2-S2-148K21,3,259,PS,exp,38,←,left,←,0.5355162000050768,True,12,1,0,0
Y2-S2-148K21,3,260,PS,exp,39,↑,up,↑,0.4329049999359995,True,11,1,0,0
Y2-S2-148K21,3,261,PS,exp,30,→,right,→,0.40976599999703467,True,11,1,0,0
Y2-S2-148K21,3,262,PS,exp,38,↑,up,↑,0.43832580000162125,True,11,1,0,0
Y2-S2-148K21,3,263,PS,exp,39,↓,down,↓,0.6270680000307038,True,10,1,0,0
Y2-S2-148K21,3,264,PS,exp,42,←,left,←,0.44765430002007633,True,10,1,0,0
Y2-S2-148K21,3,265,PS,exp,41,↓,down,↓,0.5824192999862134,True,10,1,0,0
Y2-S2-148K21,3,266,PS,exp,30,←,right,→,0.6296577000757679,False,9,-1,1,1
Y2-S2-148K21,3,267,PS,exp,49,↑,up,↑,0.45310799998696893,True,10,-1,0,1
Y2-S2-148K21,3,268,PS,exp,27,→,right,→,0.6558877999195829,True,10,-1,0,1
Y2-S2-148K21,3,269,PS,exp,32,←,left,←,0.4379103999817744,True,10,1,1,2
Y2-S2-148K21,3,270,PS,exp,43,↑,up,↑,0.5356579000363126,True,9,1,0,2
Y2-S2-148K21,3,271,PS,exp,46,←,left,←,0.512850199942477,True,9,1,0,2
Y2-S2-148K21,3,272,PS,exp,27,↑,left,←,0.6350592999951914,False,9,-1,1,3
Y2-S2-148K21,3,273,PS,exp,33,←,left,←,0.46854949998669326,True,10,-1,0,3
Y2-S2-148K21,3,274,PS,exp,44,→,right,→,0.4232251000357792,True,10,-1,0,3
Y2-S2-148K21,3,275,PS,exp,28,←,left,←,0.5562884999671951,True,10,1,1,4
Y2-S2-148K21,3,276,PS,exp,32,→,right,→,0.4986951000755653,True,9,1,0,4
Y2-S2-148K21,3,277,PS,exp,30,↑,up,↑,0.5107417999533936,True,9,1,0,4
Y2-S2-148K21,3,278,PS,exp,49,→,right,→,0.42823840002529323,True,9,1,0,4
Y2-S2-148K21,3,279,PS,exp,44,↓,down,↓,0.635611500008963,True,8,1,0,4
Y2-S2-148K21,3,280,PS,exp,44,→,right,→,0.45894529996439815,True,8,1,0,4
Y2-S2-148K21,3,281,PS,exp,38,↑,down,↓,0.9133240000810474,False,8,-1,1,5
Y2-S2-148K21,3,282,PS,exp,36,↓,down,↓,0.5592156000202522,True,9,-1,0,5
Y2-S2-148K21,3,283,PS,exp,47,→,up,↑,0.8700761999934912,False,9,-1,0,5
Y2-S2-148K21,3,284,PS,exp,41,↓,down,↓,0.4543846999295056,True,10,-1,0,5
Y2-S2-148K21,3,285,PS,exp,50,→,right,→,0.4806881999829784,True,10,-1,0,5
Y2-S2-148K21,3,286,PS,exp,33,↑,up,↑,0.4425369000528008,True,10,1,1,6
Y2-S2-148K21,3,287,PS,exp,34,→,right,→,0.427338800043799,True,9,1,0,6
Y2-S2-148K21,3,288,PS,exp,50,↑,up,↑,0.5941365000326186,True,9,1,0,6
Y2-S2-148K21,3,289,PS,exp,34,↓,down,↓,0.5524635000620037,True,9,1,0,6
Y2-S2-148K21,3,290,PS,exp,45,↑,up,↑,0.4783247000304982,True,8,1,0,6
Y2-S2-148K21,3,291,PS,exp,26,↓,down,↓,0.6932834000326693,True,8,1,0,6
Y2-S2-148K21,3,292,PS,exp,47,←,right,→,0.5110257000196725,False,8,-1,1,7
Y2-S2-148K21,3,293,PS,exp,34,→,right,→,0.6072940001031384,True,9,-1,0,7
Y2-S2-148K21,3,294,PS,exp,25,↓,down,↓,0.6501544000348076,True,9,-1,0,7
Y2-S2-148K21,3,295,PS,exp,43,→,right,→,0.42112299997825176,True,9,1,1,8
Y2-S2-148K21,3,296,PS,exp,35,↑,up,↑,0.45775020006112754,True,8,1,0,8
Y2-S2-148K21,3,297,PS,exp,25,←,right,→,0.5146641000173986,False,8,-1,1,9
Y2-S2-148K21,3,298,PS,exp,30,→,right,→,0.44694960000924766,True,9,-1,0,9
Y2-S2-148K21,3,299,PS,exp,46,↓,down,↓,0.5312108000507578,True,9,-1,0,9
Y2-S2-148K21,3,300,PS,exp,42,→,right,→,0.4315995000069961,True,9,1,1,10
Y2-S2-148K21,3,301,PS,exp,37,←,left,←,0.47159410000313073,True,8,1,0,10
Y2-S2-148K21,3,302,PS,exp,38,↓,down,↓,0.5523121000733227,True,8,1,0,10
Y2-S2-148K21,3,303,PS,exp,47,←,left,←,0.5004361000610515,True,8,1,0,10
Y2-S2-148K21,3,304,PS,exp,44,↑,up,↑,0.4599455000134185,True,7,1,0,10
Y2-S2-148K21,3,305,PS,exp,45,→,up,↑,0.7613738999934867,False,7,-1,1,11
Y2-S2-148K21,3,306,PS,exp,49,↓,down,↓,0.5790766000282019,True,8,-1,0,11
Y2-S2-148K21,3,307,PS,exp,31,↑,up,↑,0.5798159000696614,True,8,-1,0,11
Y2-S2-148K21,3,308,PS,exp,30,→,right,→,0.7041514000156894,True,8,1,1,12
Y2-S2-148K21,3,309,PS,exp,37,←,left,←,0.47876470000483096,True,7,1,0,12
Y2-S2-148K21,3,310,PS,exp,35,→,right,→,0.5845848000608385,True,7,1,0,12
Y2-S2-148K21,3,311,PS,exp,31,↑,up,↑,0.48234560003038496,True,7,1,0,12
Y2-S2-148K21,3,312,PS,exp,41,↓,left,←,0.7012838999507949,False,6,-1,1,13
Y2-S2-148K21,3,313,PS,exp,41,→,right,→,0.5747472000075504,True,7,-1,0,13
Y2-S2-148K21,3,314,PS,exp,38,←,right,→,0.5734184000175446,False,7,-1,0,13
Y2-S2-148K21,3,315,PS,exp,46,→,right,→,0.610067900037393,True,8,-1,0,13
Y2-S2-148K21,3,316,PS,exp,41,↓,down,↓,0.678947199950926,True,8,-1,0,13
Y2-S2-148K21,3,317,PS,exp,39,←,left,←,0.4784162000287324,True,8,1,1,14
Y2-S2-148K21,3,318,PS,exp,33,→,right,→,0.5251030999934301,True,7,1,0,14
Y2-S2-148K21,3,319,PS,exp,46,↑,up,↑,0.5999496000586078,True,7,1,0,14
Y2-S2-148K21,3,320,PS,exp,26,↓,down,↓,0.6133698000339791,True,7,1,0,14
Y2-S2-148K21,3,321,PS,exp,28,←,left,←,0.5462423000717536,True,6,1,0,14
Y2-S2-148K21,3,322,PS,exp,49,→,right,→,0.4775707999942824,True,6,1,0,14
Y2-S2-148K21,3,323,PS,exp,28,↓,left,←,0.585650600027293,False,6,-1,1,15
Y2-S2-148K21,3,324,PS,exp,32,←,left,←,0.5454130000434816,True,7,-1,0,15
Y2-S2-148K21,3,325,PS,exp,45,↓,right,→,0.5192450999747962,False,7,-1,0,15
Y2-S2-148K21,3,326,PS,exp,36,→,right,→,0.8763406999642029,True,8,-1,0,15
Y2-S2-148K21,3,327,PS,exp,31,↓,down,↓,0.6078926000045612,True,8,-1,0,15
Y2-S2-148K21,3,328,PS,exp,41,→,right,→,0.46198730007745326,True,8,1,1,16
Y2-S2-148K21,4,329,AS,intra_train,47,↓,down,↓,0.6852425000397488,True,30,-,-,-
Y2-S2-148K21,4,330,AS,intra_train,40,→,right,→,0.5003199999919161,True,30,-,-,-
Y2-S2-148K21,4,331,AS,intra_train,33,↑,up,↑,0.5512480000033975,True,30,-,-,-
Y2-S2-148K21,4,332,AS,intra_train,26,↓,down,↓,0.7000404000282288,True,30,-,-,-
Y2-S2-148K21,4,333,AS,intra_train,40,↑,up,↑,0.45111670007463545,True,30,-,-,-
Y2-S2-148K21,4,334,AS,exp,48,→,right,→,0.6086385999806225,True,20,0,0,0
Y2-S2-148K21,4,335,AS,exp,28,↓,down,↓,0.8340101999929175,True,20,0,0,0
Y2-S2-148K21,4,336,AS,exp,30,↑,up,↑,0.5329265999607742,True,20,1,0,0
Y2-S2-148K21,4,337,AS,exp,50,↓,down,↓,0.5821532999398187,True,19,1,0,0
Y2-S2-148K21,4,338,AS,exp,44,→,right,→,0.5012244000099599,True,19,1,0,0
Y2-S2-148K21,4,339,AS,exp,27,↓,down,↓,0.6005679999943823,True,19,1,0,0
Y2-S2-148K21,4,340,AS,exp,47,↑,up,↑,0.4827262000180781,True,18,1,0,0
Y2-S2-148K21,4,341,AS,exp,32,→,right,→,1.7590710000367835,True,18,1,0,0
Y2-S2-148K21,4,342,AS,exp,32,↑,up,↑,0.9479776000371203,True,18,1,0,0
Y2-S2-148K21,4,343,AS,exp,50,↓,down,↓,0.5706888000713661,True,17,1,0,0
Y2-S2-148K21,4,344,AS,exp,42,→,right,→,0.5995358999352902,True,17,1,0,0
Y2-S2-148K21,4,345,AS,exp,38,←,left,←,0.7043714000610635,True,17,1,0,0
Y2-S2-148K21,4,346,AS,exp,29,→,up,↑,0.6583239999599755,False,16,-1,1,1
Y2-S2-148K21,4,347,AS,exp,35,↓,down,↓,0.6171994000906125,True,17,-1,0,1
Y2-S2-148K21,4,348,AS,exp,37,←,left,←,0.5000488000223413,True,17,-1,0,1
Y2-S2-148K21,4,349,AS,exp,41,→,left,←,1.0720712000038475,False,17,-1,0,1
Y2-S2-148K21,4,350,AS,exp,29,↓,down,↓,0.5648904999252409,True,18,-1,0,1
Y2-S2-148K21,4,351,AS,exp,25,→,right,→,0.5025754999369383,True,18,-1,0,1
Y2-S2-148K21,4,352,AS,exp,26,↑,up,↑,0.6647487999871373,True,18,1,1,2
Y2-S2-148K21,4,353,AS,exp,44,←,left,←,0.9181301000062376,True,17,1,0,2
Y2-S2-148K21,4,354,AS,exp,39,↑,up,↑,0.5563525001052767,True,17,1,0,2
Y2-S2-148K21,4,355,AS,exp,33,←,left,←,0.739344000001438,True,17,1,0,2
Y2-S2-148K21,4,356,AS,exp,42,↓,up,↑,0.7813243999844417,False,16,-1,1,3
Y2-S2-148K21,4,357,AS,exp,45,↑,up,↑,0.7081212000921369,True,17,-1,0,3
Y2-S2-148K21,4,358,AS,exp,46,←,left,←,0.6958198000211269,True,17,-1,0,3
Y2-S2-148K21,4,359,AS,exp,48,↓,down,↓,0.6759818000718951,True,17,1,1,4
Y2-S2-148K21,4,360,AS,exp,42,↑,up,↑,1.2262398999882862,True,16,1,0,4
Y2-S2-148K21,4,361,AS,exp,35,→,right,→,0.4713529999135062,True,16,1,0,4
Y2-S2-148K21,4,362,AS,exp,45,↑,up,↑,0.483869899995625,True,16,1,0,4
Y2-S2-148K21,4,363,AS,exp,36,→,left,←,0.5774231000104919,False,15,-1,1,5
Y2-S2-148K21,4,364,AS,exp,45,←,left,←,0.46185479999985546,True,16,-1,0,5
Y2-S2-148K21,4,365,AS,exp,32,→,right,→,0.7139534000307322,True,16,-1,0,5
Y2-S2-148K21,4,366,AS,exp,46,←,left,←,0.6074097000528127,True,16,1,1,6
Y2-S2-148K21,4,367,AS,exp,26,↓,down,↓,0.7114234000910074,True,15,1,0,6
Y2-S2-148K21,4,368,AS,exp,26,→,down,↓,0.8018061999464408,False,15,-1,1,7
Y2-S2-148K21,4,369,AS,exp,40,↓,down,↓,0.7372447000816464,True,16,-1,0,7
Y2-S2-148K21,4,370,AS,exp,50,←,right,→,1.1183986999094486,False,16,-1,0,7
Y2-S2-148K21,4,371,AS,exp,32,↑,up,↑,0.6172238000435755,True,17,-1,0,7
Y2-S2-148K21,4,372,AS,exp,34,→,right,→,0.6086423000087962,True,17,-1,0,7
Y2-S2-148K21,4,373,AS,exp,46,←,left,←,0.6109130000695586,True,17,1,1,8
Y2-S2-148K21,4,374,AS,exp,43,↓,right,→,1.0003017999697477,False,16,-1,1,9
Y2-S2-148K21,4,375,AS,exp,50,←,left,←,0.6641883000265807,True,17,-1,0,9
Y2-S2-148K21,4,376,AS,exp,35,↑,up,↑,0.6267640000442043,True,17,-1,0,9
Y2-S2-148K21,4,377,AS,exp,31,←,left,←,0.6206003999104723,True,17,1,1,10
Y2-S2-148K21,4,378,AS,exp,40,↓,down,↓,0.7020731000229716,True,16,1,0,10
Y2-S2-148K21,4,379,AS,exp,27,→,right,→,0.5847223000600934,True,16,1,0,10
Y2-S2-148K21,4,380,AS,exp,37,↑,up,↑,0.5382167999632657,True,16,1,0,10
Y2-S2-148K21,4,381,AS,exp,36,→,right,→,0.5973022999241948,True,15,1,0,10
Y2-S2-148K21,4,382,AS,exp,30,←,left,←,0.658550199936144,True,15,1,0,10
Y2-S2-148K21,4,383,AS,exp,49,↑,up,↑,0.5765404000412673,True,15,1,0,10
Y2-S2-148K21,4,384,AS,exp,25,→,right,→,0.7199902000138536,True,14,1,0,10
Y2-S2-148K21,4,385,AS,exp,32,↑,right,→,1.058841499965638,False,14,-1,1,11
Y2-S2-148K21,4,386,AS,exp,33,←,right,→,0.7351613999344409,False,15,-1,0,11
Y2-S2-148K21,4,387,AS,exp,48,↓,down,↓,0.7239917000988498,True,16,-1,0,11
Y2-S2-148K21,4,388,AS,exp,30,→,right,→,0.48872559994924814,True,16,-1,0,11
Y2-S2-148K21,4,389,AS,exp,38,↑,up,↑,1.0776110000442713,True,16,1,1,12
Y2-S2-148K21,4,390,AS,exp,28,←,left,←,0.6184633999364451,True,15,1,0,12
Y2-S2-148K21,4,391,AS,exp,47,↑,left,←,0.9812624999321997,False,15,-1,1,13
Y2-S2-148K21,4,392,AS,exp,41,→,right,→,0.602249399991706,True,16,-1,0,13
Y2-S2-148K21,4,393,AS,exp,39,↑,down,↓,0.8756846999749541,False,16,-1,0,13
Y2-S2-148K21,4,394,AS,exp,26,←,left,←,0.6117944999132305,True,17,-1,0,13
Y2-S2-148K21,4,395,AS,exp,41,↓,down,↓,0.6322960000252351,True,17,-1,0,13
Y2-S2-148K21,4,396,AS,exp,31,↑,up,↑,0.6737781000556424,True,17,1,1,14
Y2-S2-148K21,4,397,AS,exp,43,→,right,→,0.628642600029707,True,16,1,0,14
Y2-S2-148K21,4,398,AS,exp,34,←,left,←,0.6751837999327108,True,16,1,0,14
Y2-S2-148K21,4,399,AS,exp,49,→,left,←,0.9379325000336394,False,16,-1,1,15
Y2-S2-148K21,4,400,AS,exp,46,←,left,←,0.6106716999784112,True,17,-1,0,15
Y2-S2-148K21,4,401,AS,exp,46,→,left,←,0.6552402999950573,False,17,-1,0,15
Y2-S2-148K21,4,402,AS,exp,37,←,left,←,0.6095492999302223,True,18,-1,0,15
Y2-S2-148K21,4,403,AS,exp,25,→,right,→,0.6719720000401139,True,18,-1,0,15
Y2-S2-148K21,4,404,AS,exp,29,↓,down,↓,0.6284532999852672,True,18,1,1,16
Y2-S2-148K21,5,405,AS,intra_train,28,←,left,←,0.6741237000096589,True,30,-,-,-
Y2-S2-148K21,5,406,AS,intra_train,28,↑,up,↑,1.011614300077781,True,30,-,-,-
Y2-S2-148K21,5,407,AS,intra_train,45,←,left,←,0.730477700009942,True,30,-,-,-
Y2-S2-148K21,5,408,AS,intra_train,40,→,right,→,1.6775406000670046,True,30,-,-,-
Y2-S2-148K21,5,409,AS,intra_train,29,↓,down,↓,0.6005928999511525,True,30,-,-,-
Y2-S2-148K21,5,410,AS,exp,31,→,right,→,0.6903307000175118,True,20,0,0,0
Y2-S2-148K21,5,411,AS,exp,42,↑,up,↑,0.6748324000509456,True,20,0,0,0
Y2-S2-148K21,5,412,AS,exp,33,↓,down,↓,0.6817269999301061,True,20,1,0,0
Y2-S2-148K21,5,413,AS,exp,38,↑,up,↑,0.6632215999998152,True,19,1,0,0
Y2-S2-148K21,5,414,AS,exp,48,↓,down,↓,0.5949117001146078,True,19,1,0,0
Y2-S2-148K21,5,415,AS,exp,45,←,left,←,0.5747650999110192,True,19,1,0,0
Y2-S2-148K21,5,416,AS,exp,48,→,right,→,1.3314596998970956,True,18,1,0,0
Y2-S2-148K21,5,417,AS,exp,34,↑,up,↑,0.541099900030531,True,18,1,0,0
Y2-S2-148K21,5,418,AS,exp,30,↓,down,↓,0.6682434999383986,True,18,1,0,0
Y2-S2-148K21,5,419,AS,exp,40,→,left,←,0.7203745000297204,False,17,-1,1,1
Y2-S2-148K21,5,420,AS,exp,25,↑,up,↑,0.5100414000917226,True,18,-1,0,1
Y2-S2-148K21,5,421,AS,exp,32,↓,down,↓,0.6908946000039577,True,18,-1,0,1
Y2-S2-148K21,5,422,AS,exp,50,↑,up,↑,0.6850196000887081,True,18,1,1,2
Y2-S2-148K21,5,423,AS,exp,45,↓,down,↓,0.5435208000708371,True,17,1,0,2
Y2-S2-148K21,5,424,AS,exp,30,→,right,→,0.556186999892816,True,17,1,0,2
Y2-S2-148K21,5,425,AS,exp,43,←,right,→,0.6658137000631541,False,17,-1,1,3
Y2-S2-148K21,5,426,AS,exp,34,↓,down,↓,0.5736395000712946,True,18,-1,0,3
Y2-S2-148K21,5,427,AS,exp,49,←,up,↑,0.7601023999741301,False,18,-1,0,3
Y2-S2-148K21,5,428,AS,exp,42,↓,down,↓,0.6799219999229535,True,19,-1,0,3
Y2-S2-148K21,5,429,AS,exp,37,↑,up,↑,0.6541324999416247,True,19,-1,0,3
Y2-S2-148K21,5,430,AS,exp,38,←,left,←,0.6990181999281049,True,19,1,1,4
Y2-S2-148K21,5,431,AS,exp,39,↓,down,↓,0.7135904999449849,True,18,1,0,4
Y2-S2-148K21,5,432,AS,exp,30,←,left,←,0.6922170000616461,True,18,1,0,4
Y2-S2-148K21,5,433,AS,exp,42,→,right,→,0.6161537999287248,True,18,1,0,4
Y2-S2-148K21,5,434,AS,exp,29,↑,up,↑,0.6816577999852598,True,17,1,0,4
Y2-S2-148K21,5,435,AS,exp,32,←,left,←,0.5947267999872565,True,17,1,0,4
Y2-S2-148K21,5,436,AS,exp,50,↓,down,↓,0.7430263999849558,True,17,1,0,4
Y2-S2-148K21,5,437,AS,exp,36,↑,up,↑,0.7393776000244543,True,16,1,0,4
Y2-S2-148K21,5,438,AS,exp,36,←,left,←,0.7163518000161275,True,16,1,0,4
Y2-S2-148K21,5,439,AS,exp,28,↓,down,↓,0.5571728999493644,True,16,1,0,4
Y2-S2-148K21,5,440,AS,exp,39,↑,up,↑,0.5734074000502005,True,15,1,0,4
Y2-S2-148K21,5,441,AS,exp,32,→,right,→,0.6594841999467462,True,15,1,0,4
Y2-S2-148K21,5,442,AS,exp,29,↑,up,↑,0.7759982999414206,True,15,1,0,4
Y2-S2-148K21,5,443,AS,exp,29,↓,down,↓,0.7089655000017956,True,14,1,0,4
Y2-S2-148K21,5,444,AS,exp,47,←,left,←,0.6499448999529704,True,14,1,0,4
Y2-S2-148K21,5,445,AS,exp,25,↑,up,↑,0.542163799982518,True,14,1,0,4
Y2-S2-148K21,5,446,AS,exp,28,↓,up,↑,0.6298834000481293,False,13,-1,1,5
Y2-S2-148K21,5,447,AS,exp,34,↑,up,↑,0.5503337000263855,True,14,-1,0,5
Y2-S2-148K21,5,448,AS,exp,45,→,right,→,0.6776902000419796,True,14,-1,0,5
Y2-S2-148K21,5,449,AS,exp,45,←,left,←,0.6354884000029415,True,14,1,1,6
Y2-S2-148K21,5,450,AS,exp,31,↓,up,↑,0.6594660999253392,False,13,-1,1,7
Y2-S2-148K21,5,451,AS,exp,48,←,up,↑,0.6077937999507412,False,14,-1,0,7
Y2-S2-148K21,5,452,AS,exp,38,↑,up,↑,0.5423288999591023,True,15,-1,0,7
Y2-S2-148K21,5,453,AS,exp,42,↓,down,↓,0.6548782999161631,True,15,-1,0,7
Y2-S2-148K21,5,454,AS,exp,44,↑,right,→,0.9761084000347182,False,15,-1,0,7
Y2-S2-148K21,5,455,AS,exp,27,←,left,←,0.6288909000577405,True,16,-1,0,7
Y2-S2-148K21,5,456,AS,exp,41,↓,down,↓,0.6560547999106348,True,16,-1,0,7
Y2-S2-148K21,5,457,AS,exp,31,←,left,←,0.5273112999275327,True,16,1,1,8
Y2-S2-148K21,5,458,AS,exp,41,↓,up,↑,0.7538667999906465,False,15,-1,1,9
Y2-S2-148K21,5,459,AS,exp,30,←,left,←,0.6070532000157982,True,16,-1,0,9
Y2-S2-148K21,5,460,AS,exp,36,→,right,→,0.5392641999060288,True,16,-1,0,9
Y2-S2-148K21,5,461,AS,exp,43,↓,down,↓,0.6107219000114128,True,16,1,1,10
Y2-S2-148K21,5,462,AS,exp,34,→,right,→,0.5380167999537662,True,15,1,0,10
Y2-S2-148K21,5,463,AS,exp,34,←,left,←,0.5335466000251472,True,15,1,0,10
Y2-S2-148K21,5,464,AS,exp,26,→,right,→,0.6448992999503389,True,15,1,0,10
Y2-S2-148K21,5,465,AS,exp,27,↑,up,↑,0.5856603999854997,True,14,1,0,10
Y2-S2-148K21,5,466,AS,exp,41,→,right,→,0.5435947000514716,True,14,1,0,10
Y2-S2-148K21,5,467,AS,exp,38,↑,up,↑,0.5774343999801204,True,14,1,0,10
Y2-S2-148K21,5,468,AS,exp,40,→,right,→,0.6322562000714242,True,13,1,0,10
Y2-S2-148K21,5,469,AS,exp,26,←,right,→,0.6848838999867439,False,13,-1,1,11
Y2-S2-148K21,5,470,AS,exp,27,→,right,→,1.492111700004898,True,14,-1,0,11
Y2-S2-148K21,5,471,AS,exp,31,↓,down,↓,0.7978637999622151,True,14,-1,0,11
Y2-S2-148K21,5,472,AS,exp,33,→,right,→,0.5957604999421164,True,14,1,1,12
Y2-S2-148K21,5,473,AS,exp,36,←,right,→,0.7522850999375805,False,13,-1,1,13
Y2-S2-148K21,5,474,AS,exp,41,↓,down,↓,0.750497099943459,True,14,-1,0,13
Y2-S2-148K21,5,475,AS,exp,28,↑,up,↑,0.6989363000029698,True,14,-1,0,13
Y2-S2-148K21,5,476,AS,exp,42,←,left,←,0.6367471000412479,True,14,1,1,14
Y2-S2-148K21,5,477,AS,exp,44,↓,down,↓,0.6909791000653058,True,13,1,0,14
Y2-S2-148K21,5,478,AS,exp,32,←,right,→,0.6442043000133708,False,13,-1,1,15
Y2-S2-148K21,5,479,AS,exp,34,→,right,→,0.6522601000033319,True,14,-1,0,15
Y2-S2-148K21,5,480,AS,exp,41,←,right,→,0.7545547999907285,False,14,-1,0,15
Y2-S2-148K21,5,481,AS,exp,30,→,right,→,0.6144664000021294,True,15,-1,0,15
Y2-S2-148K21,5,482,AS,exp,49,↑,up,↑,0.592142999987118,True,15,-1,0,15
Y2-S2-148K21,5,483,AS,exp,35,→,right,→,0.6255522000137717,True,15,1,1,16
Y2-S2-148K21,6,484,PS,intra_train,45,↓,down,↓,0.6079928000690416,True,19,-,-,-
Y2-S2-148K21,6,485,PS,intra_train,30,↑,up,↑,0.5024843000574037,True,19,-,-,-
Y2-S2-148K21,6,486,PS,intra_train,25,↓,down,↓,1.83254620002117,True,19,-,-,-
Y2-S2-148K21,6,487,PS,intra_train,49,→,right,→,0.43395740003325045,True,19,-,-,-
Y2-S2-148K21,6,488,PS,intra_train,47,↓,down,↓,0.9957123000640422,True,19,-,-,-
Y2-S2-148K21,6,489,PS,exp,32,↑,up,↑,0.4495044000213966,True,13,0,0,0
Y2-S2-148K21,6,490,PS,exp,38,↓,down,↓,0.7229071999900043,True,13,0,0,0
Y2-S2-148K21,6,491,PS,exp,45,→,right,→,0.4188649000134319,True,13,1,0,0
Y2-S2-148K21,6,492,PS,exp,25,↓,up,↑,0.5571316999848932,False,12,-1,1,1
Y2-S2-148K21,6,493,PS,exp,29,←,left,←,0.5072462999960408,True,13,-1,0,1
Y2-S2-148K21,6,494,PS,exp,38,↑,up,↑,0.4641369000310078,True,13,-1,0,1
Y2-S2-148K21,6,495,PS,exp,43,←,left,←,0.488767399918288,True,13,1,1,2
Y2-S2-148K21,6,496,PS,exp,42,→,right,→,0.46650350000709295,True,12,1,0,2
Y2-S2-148K21,6,497,PS,exp,39,↑,up,↑,0.5146910001058131,True,12,1,0,2
Y2-S2-148K21,6,498,PS,exp,36,←,right,→,0.5907838999992236,False,12,-1,1,3
Y2-S2-148K21,6,499,PS,exp,48,↑,up,↑,0.5317893999163061,True,13,-1,0,3
Y2-S2-148K21,6,500,PS,exp,49,→,right,→,0.5006271000020206,True,13,-1,0,3
Y2-S2-148K21,6,501,PS,exp,32,↑,up,↑,0.6166364999953657,True,13,1,1,4
Y2-S2-148K21,6,502,PS,exp,30,→,right,→,0.6083491999888793,True,12,1,0,4
Y2-S2-148K21,6,503,PS,exp,40,↓,down,↓,0.6363423001021147,True,12,1,0,4
Y2-S2-148K21,6,504,PS,exp,27,←,right,→,0.6002054000273347,False,12,-1,1,5
Y2-S2-148K21,6,505,PS,exp,36,↓,down,↓,0.5343180999625474,True,13,-1,0,5
Y2-S2-148K21,6,506,PS,exp,47,←,left,←,0.4948506000218913,True,13,-1,0,5
Y2-S2-148K21,6,507,PS,exp,50,↓,down,↓,0.4406798999989405,True,13,1,1,6
Y2-S2-148K21,6,508,PS,exp,45,→,right,→,0.4990883000427857,True,12,1,0,6
Y2-S2-148K21,6,509,PS,exp,27,←,right,→,0.6655624000122771,False,12,-1,1,7
Y2-S2-148K21,6,510,PS,exp,40,↓,down,↓,0.554054299951531,True,13,-1,0,7
Y2-S2-148K21,6,511,PS,exp,28,←,left,←,0.5786667000502348,True,13,-1,0,7
Y2-S2-148K21,6,512,PS,exp,32,→,right,→,0.45947239990346134,True,13,1,1,8
Y2-S2-148K21,6,513,PS,exp,49,↑,up,↑,0.655087000108324,True,12,1,0,8
Y2-S2-148K21,6,514,PS,exp,32,→,right,→,0.44469669996760786,True,12,1,0,8
Y2-S2-148K21,6,515,PS,exp,37,↓,down,↓,0.4897357999579981,True,12,1,0,8
Y2-S2-148K21,6,516,PS,exp,41,↑,up,↑,0.5256286999210715,True,11,1,0,8
Y2-S2-148K21,6,517,PS,exp,28,↓,up,↑,0.6375126000493765,False,11,-1,1,9
Y2-S2-148K21,6,518,PS,exp,35,←,left,←,0.4842355999862775,True,12,-1,0,9
Y2-S2-148K21,6,519,PS,exp,39,→,right,→,0.5450166999362409,True,12,-1,0,9
Y2-S2-148K21,6,520,PS,exp,42,↑,up,↑,0.5241782000521198,True,12,1,1,10
Y2-S2-148K21,6,521,PS,exp,31,←,left,←,0.5282537000020966,True,11,1,0,10
Y2-S2-148K21,6,522,PS,exp,36,↑,up,↑,0.48782349994871765,True,11,1,0,10
Y2-S2-148K21,6,523,PS,exp,40,←,left,←,0.4844262000406161,True,11,1,0,10
Y2-S2-148K21,6,524,PS,exp,34,↑,right,→,0.7227013999363407,False,10,-1,1,11
Y2-S2-148K21,6,525,PS,exp,40,→,right,→,0.4720878000371158,True,11,-1,0,11
Y2-S2-148K21,6,526,PS,exp,34,↑,up,↑,0.5508516000118107,True,11,-1,0,11
Y2-S2-148K21,6,527,PS,exp,30,↓,down,↓,0.5924222000176087,True,11,1,1,12
Y2-S2-148K21,6,528,PS,exp,30,←,left,←,0.6518118999665603,True,10,1,0,12
Y2-S2-148K21,6,529,PS,exp,27,↑,up,↑,0.594192499993369,True,10,1,0,12
Y2-S2-148K21,6,530,PS,exp,42,→,right,→,0.45712009991984814,True,10,1,0,12
Y2-S2-148K21,6,531,PS,exp,33,←,left,←,0.5337690999731421,True,9,1,0,12
Y2-S2-148K21,6,532,PS,exp,41,→,right,→,0.5139188000466675,True,9,1,0,12
Y2-S2-148K21,6,533,PS,exp,36,←,left,←,0.508312200079672,True,9,1,0,12
Y2-S2-148K21,6,534,PS,exp,34,↓,down,↓,0.5303382999263704,True,8,1,0,12
Y2-S2-148K21,6,535,PS,exp,29,←,left,←,0.6260217999806628,True,8,1,0,12
Y2-S2-148K21,6,536,PS,exp,29,→,right,→,0.5702909000683576,True,8,1,0,12
Y2-S2-148K21,6,537,PS,exp,45,←,left,←,0.4672071000095457,True,7,1,0,12
Y2-S2-148K21,6,538,PS,exp,43,↑,up,↑,0.5898937999736518,True,7,1,0,12
Y2-S2-148K21,6,539,PS,exp,41,←,left,←,0.5331052999245003,True,7,1,0,12
Y2-S2-148K21,6,540,PS,exp,49,↑,left,←,0.5552579000359401,False,6,-1,1,13
Y2-S2-148K21,6,541,PS,exp,36,→,left,←,0.757100100046955,False,7,-1,0,13
Y2-S2-148K21,6,542,PS,exp,32,↑,up,↑,0.47780320001766086,True,8,-1,0,13
Y2-S2-148K21,6,543,PS,exp,37,→,right,→,0.5890052999602631,True,8,-1,0,13
Y2-S2-148K21,6,544,PS,exp,30,←,left,←,0.5482119000516832,True,8,1,1,14
Y2-S2-148K21,6,545,PS,exp,37,↑,up,↑,0.639385599992238,True,7,1,0,14
Y2-S2-148K21,6,546,PS,exp,28,→,right,→,0.6456402000039816,True,7,1,0,14
Y2-S2-148K21,6,547,PS,exp,40,←,left,←,0.46206459996756166,True,7,1,0,14
Y2-S2-148K21,6,548,PS,exp,38,→,left,←,1.0314430000726134,False,6,-1,1,15
Y2-S2-148K21,6,549,PS,exp,25,↓,down,↓,0.576083300053142,True,7,-1,0,15
Y2-S2-148K21,6,550,PS,exp,50,←,left,←,0.5368270999751985,True,7,-1,0,15
Y2-S2-148K21,6,551,PS,exp,29,↓,left,←,0.5626563000259921,False,7,-1,0,15
Y2-S2-148K21,6,552,PS,exp,27,←,left,←,0.47686830000020564,True,8,-1,0,15
Y2-S2-148K21,6,553,PS,exp,29,↑,left,←,0.6593823999864981,False,8,-1,0,15
Y2-S2-148K21,6,554,PS,exp,33,→,right,→,0.9994032999966294,True,9,-1,0,15
Y2-S2-148K21,6,555,PS,exp,47,↑,up,↑,0.5102917000185698,True,9,-1,0,15
Y2-S2-148K21,6,556,PS,exp,25,←,left,←,0.45895609993021935,True,9,1,1,16
Y2-S2-148K21,7,557,PS,intra_train,35,→,right,→,0.4507127000251785,True,19,-,-,-
Y2-S2-148K21,7,558,PS,intra_train,34,←,left,←,0.5911410000408068,True,19,-,-,-
Y2-S2-148K21,7,559,PS,intra_train,31,↑,up,↑,0.5132391999941319,True,19,-,-,-
Y2-S2-148K21,7,560,PS,intra_train,25,←,left,←,0.5705886000068858,True,19,-,-,-
Y2-S2-148K21,7,561,PS,intra_train,49,↓,down,↓,0.5980831000488251,True,19,-,-,-
Y2-S2-148K21,7,562,PS,exp,31,←,left,←,0.9320986999664456,True,13,0,0,0
Y2-S2-148K21,7,563,PS,exp,47,↓,down,↓,0.5218040000181645,True,13,0,0,0
Y2-S2-148K21,7,564,PS,exp,42,←,left,←,0.6572374999523163,True,13,1,0,0
Y2-S2-148K21,7,565,PS,exp,25,↓,down,↓,0.45157550007570535,True,12,1,0,0
Y2-S2-148K21,7,566,PS,exp,35,↑,down,↓,0.5731130000203848,False,12,-1,1,1
Y2-S2-148K21,7,567,PS,exp,49,←,down,↓,0.7331664999946952,False,13,-1,0,1
Y2-S2-148K21,7,568,PS,exp,33,↑,up,↑,0.6348236999474466,True,14,-1,0,1
Y2-S2-148K21,7,569,PS,exp,42,←,left,←,0.4871639999328181,True,14,-1,0,1
Y2-S2-148K21,7,570,PS,exp,26,↑,up,↑,0.5615152000682428,True,14,1,1,2
Y2-S2-148K21,7,571,PS,exp,28,→,right,→,0.513973499997519,True,13,1,0,2
Y2-S2-148K21,7,572,PS,exp,26,↑,up,↑,0.5800041999900714,True,13,1,0,2
Y2-S2-148K21,7,573,PS,exp,49,→,right,→,0.4926231000572443,True,13,1,0,2
Y2-S2-148K21,7,574,PS,exp,43,↓,down,↓,0.7527827000012621,True,12,1,0,2
Y2-S2-148K21,7,575,PS,exp,30,↑,up,↑,0.5106064999708906,True,12,1,0,2
Y2-S2-148K21,7,576,PS,exp,29,↓,down,↓,0.5698149000527337,True,12,1,0,2
Y2-S2-148K21,7,577,PS,exp,36,←,left,←,0.5233856000704691,True,11,1,0,2
Y2-S2-148K21,7,578,PS,exp,47,↓,down,↓,0.5019501999486238,True,11,1,0,2
Y2-S2-148K21,7,579,PS,exp,48,→,right,→,0.4903520999941975,True,11,1,0,2
Y2-S2-148K21,7,580,PS,exp,47,←,left,←,0.44749299995601177,True,10,1,0,2
Y2-S2-148K21,7,581,PS,exp,49,↓,down,↓,0.47023039998020977,True,10,1,0,2
Y2-S2-148K21,7,582,PS,exp,36,←,left,←,0.44947430002503097,True,10,1,0,2
Y2-S2-148K21,7,583,PS,exp,25,→,right,→,0.4977225000038743,True,9,1,0,2
Y2-S2-148K21,7,584,PS,exp,35,↓,down,↓,0.46051400003489107,True,9,1,0,2
Y2-S2-148K21,7,585,PS,exp,43,↑,right,→,0.749585899990052,False,9,-1,1,3
Y2-S2-148K21,7,586,PS,exp,34,↓,down,↓,0.48830420000012964,True,10,-1,0,3
Y2-S2-148K21,7,587,PS,exp,50,→,right,→,0.47808250004891306,True,10,-1,0,3
Y2-S2-148K21,7,588,PS,exp,50,↓,down,↓,0.5258076000027359,True,10,1,1,4
Y2-S2-148K21,7,589,PS,exp,29,←,left,←,0.4706557000754401,True,9,1,0,4
Y2-S2-148K21,7,590,PS,exp,46,↓,down,↓,0.4337840999942273,True,9,1,0,4
Y2-S2-148K21,7,591,PS,exp,49,←,left,←,0.4825229999842122,True,9,1,0,4
Y2-S2-148K21,7,592,PS,exp,46,↓,left,←,0.7757159000029787,False,8,-1,1,5
Y2-S2-148K21,7,593,PS,exp,35,→,right,→,0.5283364000497386,True,9,-1,0,5
Y2-S2-148K21,7,594,PS,exp,26,←,right,→,0.6365280000027269,False,9,-1,0,5
Y2-S2-148K21,7,595,PS,exp,43,→,right,→,0.6245774999260902,True,10,-1,0,5
Y2-S2-148K21,7,596,PS,exp,48,↑,up,↑,0.6286346000852063,True,10,-1,0,5
Y2-S2-148K21,7,597,PS,exp,49,↓,down,↓,0.45090140006504953,True,10,1,1,6
Y2-S2-148K21,7,598,PS,exp,37,↑,down,↓,0.6558088000165299,False,9,-1,1,7
Y2-S2-148K21,7,599,PS,exp,28,→,right,→,0.46905250009149313,True,10,-1,0,7
Y2-S2-148K21,7,600,PS,exp,31,←,left,←,0.4690684999804944,True,10,-1,0,7
Y2-S2-148K21,7,601,PS,exp,45,→,right,→,0.4465485999826342,True,10,1,1,8
Y2-S2-148K21,7,602,PS,exp,41,←,left,←,0.4487960999831557,True,9,1,0,8
Y2-S2-148K21,7,603,PS,exp,44,↑,up,↑,0.4995918000349775,True,9,1,0,8
Y2-S2-148K21,7,604,PS,exp,27,←,left,←,0.4114970000227913,True,9,1,0,8
Y2-S2-148K21,7,605,PS,exp,40,↓,down,↓,0.5048323000082746,True,8,1,0,8
Y2-S2-148K21,7,606,PS,exp,28,→,left,←,0.7169371999334544,False,8,-1,1,9
Y2-S2-148K21,7,607,PS,exp,47,←,left,←,0.39998470002319664,True,9,-1,0,9
Y2-S2-148K21,7,608,PS,exp,36,→,right,→,0.6128515999298543,True,9,-1,0,9
Y2-S2-148K21,7,609,PS,exp,50,↓,down,↓,0.4780415999703109,True,9,1,1,10
Y2-S2-148K21,7,610,PS,exp,37,→,right,→,0.5857662999769673,True,8,1,0,10
Y2-S2-148K21,7,611,PS,exp,25,↓,up,↑,0.6587034999392927,False,8,-1,1,11
Y2-S2-148K21,7,612,PS,exp,27,→,right,→,0.4274183000670746,True,9,-1,0,11
Y2-S2-148K21,7,613,PS,exp,30,↓,down,↓,0.538717299932614,True,9,-1,0,11
Y2-S2-148K21,7,614,PS,exp,40,→,right,→,0.49596019997261465,True,9,1,1,12
Y2-S2-148K21,7,615,PS,exp,35,←,left,←,0.5522564999992028,True,8,1,0,12
Y2-S2-148K21,7,616,PS,exp,30,↓,down,↓,0.4905803999863565,True,8,1,0,12
Y2-S2-148K21,7,617,PS,exp,29,→,right,→,0.5233045999193564,True,8,1,0,12
Y2-S2-148K21,7,618,PS,exp,31,↑,left,←,0.7441863000858575,False,7,-1,1,13
Y2-S2-148K21,7,619,PS,exp,28,←,left,←,0.4493166001047939,True,8,-1,0,13
Y2-S2-148K21,7,620,PS,exp,37,→,right,→,0.49856920004822314,True,8,-1,0,13
Y2-S2-148K21,7,621,PS,exp,47,↑,up,↑,0.6143953000428155,True,8,1,1,14
Y2-S2-148K21,7,622,PS,exp,26,←,left,←,0.5118223000317812,True,7,1,0,14
Y2-S2-148K21,7,623,PS,exp,32,↑,up,↑,0.5362569000571966,True,7,1,0,14
Y2-S2-148K21,7,624,PS,exp,31,←,left,←,0.5039318999042735,True,7,1,0,14
Y2-S2-148K21,7,625,PS,exp,34,↑,up,↑,0.4984108000062406,True,6,1,0,14
Y2-S2-148K21,7,626,PS,exp,47,←,right,→,0.5568672999506816,False,6,-1,1,15
Y2-S2-148K21,7,627,PS,exp,45,↓,down,↓,0.5493221000069752,True,7,-1,0,15
Y2-S2-148K21,7,628,PS,exp,35,←,left,←,0.48567339999135584,True,7,-1,0,15
Y2-S2-148K21,7,629,PS,exp,39,↑,up,↑,0.5052308000158519,True,7,1,1,16
Y2-S2-148K21,8,630,AS,intra_train,33,↓,down,↓,0.7659165000077337,True,30,-,-,-
Y2-S2-148K21,8,631,AS,intra_train,38,↑,up,↑,0.7367764000082389,True,30,-,-,-
Y2-S2-148K21,8,632,AS,intra_train,28,↓,down,↓,0.7496285999659449,True,30,-,-,-
Y2-S2-148K21,8,633,AS,intra_train,49,←,left,←,0.7524188999086618,True,30,-,-,-
Y2-S2-148K21,8,634,AS,intra_train,27,↑,up,↑,0.6856287000700831,True,30,-,-,-
Y2-S2-148K21,8,635,AS,exp,30,↓,up,↑,1.2292292000493035,False,20,-1,0,0
Y2-S2-148K21,8,636,AS,exp,40,↑,up,↑,1.386671399930492,True,21,-1,0,0
Y2-S2-148K21,8,637,AS,exp,40,→,right,→,0.5785867000231519,True,21,-1,0,0
Y2-S2-148K21,8,638,AS,exp,49,↓,down,↓,0.8604601999977604,True,21,1,1,1
Y2-S2-148K21,8,639,AS,exp,33,→,right,→,0.5502857000101358,True,20,1,0,1
Y2-S2-148K21,8,640,AS,exp,39,←,left,←,0.569558099959977,True,20,1,0,1
Y2-S2-148K21,8,641,AS,exp,46,↑,up,↑,1.0184516999870539,True,20,1,0,1
Y2-S2-148K21,8,642,AS,exp,47,←,right,→,0.8004540000110865,False,19,-1,1,2
Y2-S2-148K21,8,643,AS,exp,32,→,right,→,0.7434325999347493,True,20,-1,0,2
Y2-S2-148K21,8,644,AS,exp,33,↓,down,↓,0.6858697000425309,True,20,-1,0,2
Y2-S2-148K21,8,645,AS,exp,39,←,left,←,0.6380333000561222,True,20,1,1,3
Y2-S2-148K21,8,646,AS,exp,45,↓,down,↓,0.6271911000367254,True,19,1,0,3
Y2-S2-148K21,8,647,AS,exp,48,←,left,←,0.7043365000281483,True,19,1,0,3
Y2-S2-148K21,8,648,AS,exp,40,↑,up,↑,0.6065829999279231,True,19,1,0,3
Y2-S2-148K21,8,649,AS,exp,48,↓,up,↑,1.0358794999774545,False,18,-1,1,4
Y2-S2-148K21,8,650,AS,exp,31,→,right,→,0.5498727000085637,True,19,-1,0,4
Y2-S2-148K21,8,651,AS,exp,28,←,right,→,0.621469600009732,False,19,-1,0,4
Y2-S2-148K21,8,652,AS,exp,28,→,right,→,0.5296811000443995,True,20,-1,0,4
Y2-S2-148K21,8,653,AS,exp,25,↓,down,↓,0.6028034000191838,True,20,-1,0,4
Y2-S2-148K21,8,654,AS,exp,25,→,right,→,0.633970299968496,True,20,1,1,5
Y2-S2-148K21,8,655,AS,exp,46,↓,down,↓,0.7028259999351576,True,19,1,0,5
Y2-S2-148K21,8,656,AS,exp,34,←,left,←,0.6685351999476552,True,19,1,0,5
Y2-S2-148K21,8,657,AS,exp,41,↓,right,→,0.7272433000616729,False,19,-1,1,6
Y2-S2-148K21,8,658,AS,exp,25,←,left,←,0.6476291000144556,True,20,-1,0,6
Y2-S2-148K21,8,659,AS,exp,31,→,right,→,0.5909253000281751,True,20,-1,0,6
Y2-S2-148K21,8,660,AS,exp,42,↓,no_key,no_letter,-1.0,False,20,-1,0,6
Y2-S2-148K21,8,661,AS,exp,40,←,left,←,0.6774270000169054,True,21,-1,0,6
Y2-S2-148K21,8,662,AS,exp,33,↑,up,↑,0.5950629999861121,True,21,-1,0,6
Y2-S2-148K21,8,663,AS,exp,40,↓,down,↓,0.6555239999433979,True,21,1,1,7
Y2-S2-148K21,8,664,AS,exp,39,←,left,←,0.6527100000530481,True,20,1,0,7
Y2-S2-148K21,8,665,AS,exp,47,↑,up,↑,0.6498825000599027,True,20,1,0,7
Y2-S2-148K21,8,666,AS,exp,25,→,right,→,0.4506273999577388,True,20,1,0,7
Y2-S2-148K21,8,667,AS,exp,25,↓,down,↓,0.5877924000378698,True,19,1,0,7
Y2-S2-148K21,8,668,AS,exp,33,↑,up,↑,0.5135756999952719,True,19,1,0,7
Y2-S2-148K21,8,669,AS,exp,26,→,right,→,0.5007046000100672,True,19,1,0,7
Y2-S2-148K21,8,670,AS,exp,27,←,right,→,0.7888158999849111,False,18,-1,1,8
Y2-S2-148K21,8,671,AS,exp,26,→,right,→,1.263913600007072,True,19,-1,0,8
Y2-S2-148K21,8,672,AS,exp,45,↓,down,↓,0.6799613999901339,True,19,-1,0,8
Y2-S2-148K21,8,673,AS,exp,35,→,right,→,0.9032956000883132,True,19,1,1,9
Y2-S2-148K21,8,674,AS,exp,34,↓,down,↓,0.584422399988398,True,18,1,0,9
Y2-S2-148K21,8,675,AS,exp,29,↑,up,↑,0.6779350999277085,True,18,1,0,9
Y2-S2-148K21,8,676,AS,exp,38,↓,down,↓,0.5748268000315875,True,18,1,0,9
Y2-S2-148K21,8,677,AS,exp,44,←,left,←,0.5775321000255644,True,17,1,0,9
Y2-S2-148K21,8,678,AS,exp,47,↑,up,↑,0.6596818000543863,True,17,1,0,9
Y2-S2-148K21,8,679,AS,exp,50,↓,down,↓,1.0227236999198794,True,17,1,0,9
Y2-S2-148K21,8,680,AS,exp,49,↑,up,↑,0.844722600071691,True,16,1,0,9
Y2-S2-148K21,8,681,AS,exp,41,←,left,←,0.5547195000108331,True,16,1,0,9
Y2-S2-148K21,8,682,AS,exp,39,↓,down,↓,0.596759399981238,True,16,1,0,9
Y2-S2-148K21,8,683,AS,exp,32,↑,up,↑,0.664635100052692,True,15,1,0,9
Y2-S2-148K21,8,684,AS,exp,33,→,left,←,0.6364214000059292,False,15,-1,1,10
Y2-S2-148K21,8,685,AS,exp,43,↑,up,↑,0.5361564999911934,True,16,-1,0,10
Y2-S2-148K21,8,686,AS,exp,31,←,left,←,0.4951375999953598,True,16,-1,0,10
Y2-S2-148K21,8,687,AS,exp,42,↑,left,←,0.682849399978295,False,16,-1,0,10
Y2-S2-148K21,8,688,AS,exp,26,←,left,←,0.6221777000464499,True,17,-1,0,10
Y2-S2-148K21,8,689,AS,exp,43,↑,up,↑,0.7133690000046045,True,17,-1,0,10
Y2-S2-148K21,8,690,AS,exp,44,←,left,←,0.6087345000123605,True,17,1,1,11
Y2-S2-148K21,8,691,AS,exp,34,↓,down,↓,0.7156338000204414,True,16,1,0,11
Y2-S2-148K21,8,692,AS,exp,36,↑,right,→,0.7279623999493197,False,16,-1,1,12
Y2-S2-148K21,8,693,AS,exp,49,←,left,←,0.4869059999473393,True,17,-1,0,12
Y2-S2-148K21,8,694,AS,exp,46,→,right,→,0.5841396000469103,True,17,-1,0,12
Y2-S2-148K21,8,695,AS,exp,39,←,right,→,1.2336052000755444,False,17,-1,0,12
Y2-S2-148K21,8,696,AS,exp,34,↓,down,↓,0.5965113999554887,True,18,-1,0,12
Y2-S2-148K21,8,697,AS,exp,34,→,right,→,0.6104004000080749,True,18,-1,0,12
Y2-S2-148K21,8,698,AS,exp,32,↓,down,↓,0.6513103999895975,True,18,1,1,13
Y2-S2-148K21,8,699,AS,exp,29,↑,up,↑,0.5566722999792546,True,17,1,0,13
Y2-S2-148K21,8,700,AS,exp,36,↓,down,↓,0.5925015000393614,True,17,1,0,13
Y2-S2-148K21,8,701,AS,exp,38,→,right,→,0.6649373000254855,True,17,1,0,13
Y2-S2-148K21,8,702,AS,exp,33,←,up,↑,0.7023541999515146,False,16,-1,1,14
Y2-S2-148K21,8,703,AS,exp,29,↑,right,→,0.8704089999664575,False,17,-1,0,14
Y2-S2-148K21,8,704,AS,exp,33,→,right,→,0.6211284000892192,True,18,-1,0,14
Y2-S2-148K21,8,705,AS,exp,34,←,right,→,0.6579132999759167,False,18,-1,0,14
Y2-S2-148K21,8,706,AS,exp,36,→,right,→,0.6029425000306219,True,19,-1,0,14
Y2-S2-148K21,8,707,AS,exp,28,←,left,←,0.5937674000160769,True,19,-1,0,14
Y2-S2-148K21,8,708,AS,exp,26,↓,down,↓,1.1956152999773622,True,19,1,1,15
Y2-S2-148K21,8,709,AS,exp,47,←,left,←,0.6537817000644282,True,18,1,0,15
Y2-S2-148K21,8,710,AS,exp,38,↓,down,↓,0.5369437000481412,True,18,1,0,15
Y2-S2-148K21,8,711,AS,exp,32,↑,up,↑,0.5712460000067949,True,18,1,0,15
Y2-S2-148K21,8,712,AS,exp,49,→,right,→,0.7416494999779388,True,17,1,0,15
Y2-S2-148K21,8,713,AS,exp,50,←,left,←,0.6796210999600589,True,17,1,0,15
Y2-S2-148K21,8,714,AS,exp,42,→,right,→,0.5610822999151424,True,17,1,0,15
Y2-S2-148K21,8,715,AS,exp,40,←,left,←,0.6560527000110596,True,16,1,0,15
Y2-S2-148K21,8,716,AS,exp,43,→,right,→,0.6033815999981016,True,16,1,0,15
Y2-S2-148K21,8,717,AS,exp,31,↓,down,↓,0.662022199947387,True,16,1,0,15
Y2-S2-148K21,8,718,AS,exp,42,↑,left,←,1.4164783000014722,False,15,-1,1,16
