PART_ID,Block_no,Trial_no,Block_type,Trial_type,CSI,Stim_letter,Key_pressed,letter_choose,Rt,Corr,Stimulus Time,Level,Reversal,Revs_count
Y2-S2-094K22,1,1,PS,train,40,↑,no_key,no_letter,-1.0,False,30,-,-,-
Y2-S2-094K22,1,2,PS,train,38,←,up,↑,0.3840055000036955,False,30,-,-,-
Y2-S2-094K22,1,3,PS,train,29,↑,up,↑,0.8054434000514448,True,30,-,-,-
Y2-S2-094K22,1,4,PS,train,29,→,right,→,0.600177800282836,True,30,-,-,-
Y2-S2-094K22,1,5,PS,train,31,↓,down,↓,1.144140399992466,True,30,-,-,-
Y2-S2-094K22,1,6,PS,train,50,↑,up,↑,1.1502377996221185,True,30,-,-,-
Y2-S2-094K22,1,7,PS,train,46,←,left,←,1.375861699692905,True,30,-,-,-
Y2-S2-094K22,1,8,PS,train,31,→,right,→,0.768348999787122,True,30,-,-,-
Y2-S2-094K22,1,9,PS,train,26,↓,down,↓,0.7795929000712931,True,30,-,-,-
Y2-S2-094K22,1,10,PS,train,28,←,left,←,0.7558220000937581,True,30,-,-,-
Y2-S2-094K22,2,11,AS,train,44,↑,up,↑,1.122929799836129,True,45,-,-,-
Y2-S2-094K22,2,12,AS,train,42,↓,no_key,no_letter,-1.0,False,45,-,-,-
Y2-S2-094K22,2,13,AS,train,40,↑,up,↑,0.884396499954164,True,45,-,-,-
Y2-S2-094K22,2,14,AS,train,43,→,right,→,0.883874099701643,True,45,-,-,-
Y2-S2-094K22,2,15,AS,train,40,←,left,←,1.390883100219071,True,45,-,-,-
Y2-S2-094K22,2,16,AS,train,27,↑,up,↑,0.8508117003366351,True,45,-,-,-
Y2-S2-094K22,2,17,AS,train,39,↓,down,↓,0.7177506000734866,True,45,-,-,-
Y2-S2-094K22,2,18,AS,train,31,←,left,←,0.7175649995915592,True,45,-,-,-
Y2-S2-094K22,2,19,AS,train,40,↑,up,↑,0.8016603998839855,True,45,-,-,-
Y2-S2-094K22,2,20,AS,train,44,→,right,→,0.9550843997858465,True,45,-,-,-
Y2-S2-094K22,-,21,PS,adaptive,26,↑,up,↑,1.4736142996698618,True,10,0,0,0
Y2-S2-094K22,-,22,PS,adaptive,42,↓,down,↓,0.5130787999369204,True,10,0,0,0
Y2-S2-094K22,-,23,PS,adaptive,48,←,up,↑,1.2359311999753118,False,10,-1,0,0
Y2-S2-094K22,-,24,PS,adaptive,42,↑,up,↑,0.5181438997387886,True,11,-1,0,0
Y2-S2-094K22,-,25,PS,adaptive,36,←,up,↑,0.8060277998447418,False,11,-1,0,0
Y2-S2-094K22,-,26,PS,adaptive,26,↓,up,↑,0.9562288001179695,False,12,-1,0,0
Y2-S2-094K22,-,27,PS,adaptive,36,→,right,→,0.7680641999468207,True,13,-1,0,0
Y2-S2-094K22,-,28,PS,adaptive,38,↑,up,↑,0.8296463997103274,True,13,-1,0,0
Y2-S2-094K22,-,29,PS,adaptive,33,↓,down,↓,0.7764037000015378,True,13,1,1,1
Y2-S2-094K22,-,30,PS,adaptive,49,→,left,←,0.9296140000224113,False,12,-1,1,2
Y2-S2-094K22,-,31,PS,adaptive,48,↓,down,↓,0.5739171002060175,True,13,-1,0,2
Y2-S2-094K22,-,32,PS,adaptive,50,↑,up,↑,0.6665059002116323,True,13,-1,0,2
Y2-S2-094K22,-,33,PS,adaptive,27,←,left,←,1.0097507000900805,True,13,1,1,3
Y2-S2-094K22,-,34,PS,adaptive,49,↑,up,↑,0.6568880998529494,True,12,1,0,3
Y2-S2-094K22,-,35,PS,adaptive,40,→,up,↑,0.861920400056988,False,12,-1,1,4
Y2-S2-094K22,-,36,AS,adaptive,38,↓,up,↑,0.7442685002461076,False,20,-1,0,0
Y2-S2-094K22,-,37,AS,adaptive,26,→,left,←,0.8062748997472227,False,21,-1,0,0
Y2-S2-094K22,-,38,AS,adaptive,37,↓,down,↓,0.5597677999176085,True,22,-1,0,0
Y2-S2-094K22,-,39,AS,adaptive,47,↑,up,↑,0.8662246000021696,True,22,-1,0,0
Y2-S2-094K22,-,40,AS,adaptive,41,←,left,←,1.7606660001911223,True,22,1,1,1
Y2-S2-094K22,-,41,AS,adaptive,27,↓,up,↑,0.5610903003253043,False,21,-1,1,2
Y2-S2-094K22,-,42,AS,adaptive,35,→,right,→,0.8399720001034439,True,22,-1,0,2
Y2-S2-094K22,-,43,AS,adaptive,25,↓,down,↓,0.7793498001992702,True,22,-1,0,2
Y2-S2-094K22,-,44,AS,adaptive,32,→,left,←,0.5521554001607001,False,22,-1,0,2
Y2-S2-094K22,-,45,AS,adaptive,30,↓,down,↓,0.7132139997556806,True,23,-1,0,2
Y2-S2-094K22,-,46,AS,adaptive,45,→,right,→,0.5679260999895632,True,23,-1,0,2
Y2-S2-094K22,-,47,AS,adaptive,46,↑,up,↑,1.0128561002202332,True,23,1,1,3
Y2-S2-094K22,-,48,AS,adaptive,30,↓,down,↓,0.6818428998813033,True,22,1,0,3
Y2-S2-094K22,-,49,AS,adaptive,33,↑,down,↓,1.0999720999971032,False,22,-1,1,4
Y2-S2-094K22,1,50,AS,intra_train,28,→,right,→,0.7540397001430392,True,34,-,-,-
Y2-S2-094K22,1,51,AS,intra_train,39,↓,no_key,no_letter,-1.0,False,34,-,-,-
Y2-S2-094K22,1,52,AS,intra_train,39,←,left,←,0.9100794000551105,True,34,-,-,-
Y2-S2-094K22,1,53,AS,intra_train,46,↓,down,↓,0.7548652999103069,True,34,-,-,-
Y2-S2-094K22,1,54,AS,intra_train,35,↑,up,↑,0.7760947002097964,True,34,-,-,-
Y2-S2-094K22,1,55,AS,exp,46,←,left,←,0.7287857001647353,True,23,0,0,0
Y2-S2-094K22,1,56,AS,exp,31,→,right,→,0.9278841000050306,True,23,0,0,0
Y2-S2-094K22,1,57,AS,exp,29,↑,up,↑,0.6744655999355018,True,23,1,0,0
Y2-S2-094K22,1,58,AS,exp,46,→,right,→,0.6925980998203158,True,22,1,0,0
Y2-S2-094K22,1,59,AS,exp,32,←,left,←,1.2096156999468803,True,22,1,0,0
Y2-S2-094K22,1,60,AS,exp,38,↑,up,↑,1.1815106002613902,True,22,1,0,0
Y2-S2-094K22,1,61,AS,exp,37,→,right,→,0.5532746003009379,True,21,1,0,0
Y2-S2-094K22,1,62,AS,exp,39,←,left,←,0.8025906998664141,True,21,1,0,0
Y2-S2-094K22,1,63,AS,exp,25,→,right,→,0.5901818997226655,True,21,1,0,0
Y2-S2-094K22,1,64,AS,exp,39,↑,up,↑,1.0427256003022194,True,20,1,0,0
Y2-S2-094K22,1,65,AS,exp,28,↓,down,↓,0.6779241999611259,True,20,1,0,0
Y2-S2-094K22,1,66,AS,exp,47,→,right,→,0.6819051001220942,True,20,1,0,0
Y2-S2-094K22,1,67,AS,exp,32,↑,up,↑,0.7858674000017345,True,19,1,0,0
Y2-S2-094K22,1,68,AS,exp,39,↓,down,↓,0.9061847999691963,True,19,1,0,0
Y2-S2-094K22,1,69,AS,exp,49,←,up,↑,0.7878536996431649,False,19,-1,1,1
Y2-S2-094K22,1,70,AS,exp,41,↓,down,↓,0.9329634001478553,True,20,-1,0,1
Y2-S2-094K22,1,71,AS,exp,27,←,left,←,0.9870563996955752,True,20,-1,0,1
Y2-S2-094K22,1,72,AS,exp,35,↑,up,↑,0.8448558002710342,True,20,1,1,2
Y2-S2-094K22,1,73,AS,exp,48,→,right,→,0.7207003999501467,True,19,1,0,2
Y2-S2-094K22,1,74,AS,exp,25,←,left,←,0.7241012002341449,True,19,1,0,2
Y2-S2-094K22,1,75,AS,exp,36,→,right,→,0.5860149003565311,True,19,1,0,2
Y2-S2-094K22,1,76,AS,exp,25,↓,down,↓,0.7527012000791728,True,18,1,0,2
Y2-S2-094K22,1,77,AS,exp,47,↑,up,↑,0.9243176002055407,True,18,1,0,2
Y2-S2-094K22,1,78,AS,exp,35,←,left,←,0.6356148002669215,True,18,1,0,2
Y2-S2-094K22,1,79,AS,exp,48,↓,left,←,1.644798300229013,False,17,-1,1,3
Y2-S2-094K22,1,80,AS,exp,41,←,left,←,0.9707990996539593,True,18,-1,0,3
Y2-S2-094K22,1,81,AS,exp,28,→,right,→,0.689801000058651,True,18,-1,0,3
Y2-S2-094K22,1,82,AS,exp,39,←,left,←,0.6090285000391304,True,18,1,1,4
Y2-S2-094K22,1,83,AS,exp,34,↓,down,↓,1.338574499823153,True,17,1,0,4
Y2-S2-094K22,1,84,AS,exp,29,↑,up,↑,1.144654800184071,True,17,1,0,4
Y2-S2-094K22,1,85,AS,exp,49,←,down,↓,1.3534530997276306,False,17,-1,1,5
Y2-S2-094K22,1,86,AS,exp,28,↑,up,↑,0.960485499817878,True,18,-1,0,5
Y2-S2-094K22,1,87,AS,exp,50,→,right,→,1.423507499974221,True,18,-1,0,5
Y2-S2-094K22,1,88,AS,exp,30,↑,up,↑,0.7235870002768934,True,18,1,1,6
Y2-S2-094K22,1,89,AS,exp,34,↓,down,↓,0.9770737998187542,True,17,1,0,6
Y2-S2-094K22,1,90,AS,exp,46,←,left,←,0.7119096000678837,True,17,1,0,6
Y2-S2-094K22,1,91,AS,exp,28,→,down,↓,1.3770433003082871,False,17,-1,1,7
Y2-S2-094K22,1,92,AS,exp,46,↑,up,↑,0.6823554998263717,True,18,-1,0,7
Y2-S2-094K22,1,93,AS,exp,39,↓,down,↓,0.7937133000232279,True,18,-1,0,7
Y2-S2-094K22,1,94,AS,exp,31,↑,down,↓,0.7760905995965004,False,18,-1,0,7
Y2-S2-094K22,1,95,AS,exp,34,↓,down,↓,0.6203330997377634,True,19,-1,0,7
Y2-S2-094K22,1,96,AS,exp,45,↑,up,↑,0.6908215996809304,True,19,-1,0,7
Y2-S2-094K22,1,97,AS,exp,28,→,right,→,0.7805884000845253,True,19,1,1,8
Y2-S2-094K22,1,98,AS,exp,45,↑,down,↓,1.0624907002784312,False,18,-1,1,9
Y2-S2-094K22,1,99,AS,exp,46,→,right,→,0.5506338998675346,True,19,-1,0,9
Y2-S2-094K22,1,100,AS,exp,25,←,down,↓,0.8901033001020551,False,19,-1,0,9
Y2-S2-094K22,1,101,AS,exp,27,↓,up,↑,0.8364530000835657,False,20,-1,0,9
Y2-S2-094K22,1,102,AS,exp,49,↑,up,↑,0.6353875999338925,True,21,-1,0,9
Y2-S2-094K22,1,103,AS,exp,41,→,right,→,0.5581783000379801,True,21,-1,0,9
Y2-S2-094K22,1,104,AS,exp,39,←,right,→,0.48407800029963255,False,21,-1,0,9
Y2-S2-094K22,1,105,AS,exp,27,→,right,→,1.0477503999136388,True,22,-1,0,9
Y2-S2-094K22,1,106,AS,exp,42,←,up,↑,1.1048703999258578,False,22,-1,0,9
Y2-S2-094K22,1,107,AS,exp,50,↑,up,↑,1.9271296998485923,True,23,-1,0,9
Y2-S2-094K22,1,108,AS,exp,45,→,right,→,0.6242494001053274,True,23,-1,0,9
Y2-S2-094K22,1,109,AS,exp,47,↓,left,←,0.5849457001313567,False,23,-1,0,9
Y2-S2-094K22,1,110,AS,exp,36,→,right,→,0.6586692002601922,True,24,-1,0,9
Y2-S2-094K22,1,111,AS,exp,33,↑,up,↑,0.630926700308919,True,24,-1,0,9
Y2-S2-094K22,1,112,AS,exp,36,↓,down,↓,0.9526036996394396,True,24,1,1,10
Y2-S2-094K22,1,113,AS,exp,50,→,right,→,0.5865521999076009,True,23,1,0,10
Y2-S2-094K22,1,114,AS,exp,27,↑,up,↑,0.6809550998732448,True,23,1,0,10
Y2-S2-094K22,1,115,AS,exp,49,←,left,←,0.6627327003516257,True,23,1,0,10
Y2-S2-094K22,1,116,AS,exp,33,↓,down,↓,0.9398913001641631,True,22,1,0,10
Y2-S2-094K22,1,117,AS,exp,44,←,left,←,0.6674556997604668,True,22,1,0,10
Y2-S2-094K22,1,118,AS,exp,36,→,no_key,no_letter,-1.0,False,22,-1,1,11
Y2-S2-094K22,1,119,AS,exp,44,↓,down,↓,1.0027033002115786,True,23,-1,0,11
Y2-S2-094K22,1,120,AS,exp,27,←,left,←,0.575667199678719,True,23,-1,0,11
Y2-S2-094K22,1,121,AS,exp,31,↓,down,↓,0.8079621000215411,True,23,1,1,12
Y2-S2-094K22,1,122,AS,exp,34,→,no_key,no_letter,-1.0,False,22,-1,1,13
Y2-S2-094K22,1,123,AS,exp,50,↑,up,↑,1.7387403999455273,True,23,-1,0,13
Y2-S2-094K22,1,124,AS,exp,41,→,right,→,0.8795184004120529,True,23,-1,0,13
Y2-S2-094K22,1,125,AS,exp,25,←,left,←,0.6082886997610331,True,23,1,1,14
Y2-S2-094K22,1,126,AS,exp,42,↑,up,↑,0.8925327002070844,True,22,1,0,14
Y2-S2-094K22,1,127,AS,exp,43,↓,down,↓,0.6645041001029313,True,22,1,0,14
Y2-S2-094K22,1,128,AS,exp,49,←,left,←,0.43418970005586743,True,22,1,0,14
Y2-S2-094K22,1,129,AS,exp,29,↓,down,↓,0.5761645999737084,True,21,1,0,14
Y2-S2-094K22,1,130,AS,exp,34,↑,up,↑,1.6078296001069248,True,21,1,0,14
Y2-S2-094K22,1,131,AS,exp,46,←,left,←,0.5738784000277519,True,21,1,0,14
Y2-S2-094K22,1,132,AS,exp,41,↓,down,↓,0.5428504999727011,True,20,1,0,14
Y2-S2-094K22,1,133,AS,exp,32,→,right,→,0.564992300234735,True,20,1,0,14
Y2-S2-094K22,1,134,AS,exp,34,↑,up,↑,0.5828499998897314,True,20,1,0,14
Y2-S2-094K22,1,135,AS,exp,34,↓,down,↓,0.5146440998651087,True,19,1,0,14
Y2-S2-094K22,1,136,AS,exp,42,↑,up,↑,1.977446900215,True,19,1,0,14
Y2-S2-094K22,1,137,AS,exp,47,←,down,↓,1.4154244000092149,False,19,-1,1,15
Y2-S2-094K22,1,138,AS,exp,49,↓,down,↓,0.8770150998607278,True,20,-1,0,15
Y2-S2-094K22,1,139,AS,exp,40,↑,up,↑,0.6056264997459948,True,20,-1,0,15
Y2-S2-094K22,1,140,AS,exp,30,↓,down,↓,0.5696351998485625,True,20,1,1,16
Y2-S2-094K22,2,141,PS,intra_train,31,←,left,←,0.749346099793911,True,19,-,-,-
Y2-S2-094K22,2,142,PS,intra_train,48,↓,down,↓,0.7068457999266684,True,19,-,-,-
Y2-S2-094K22,2,143,PS,intra_train,44,↑,up,↑,0.7080645998939872,True,19,-,-,-
Y2-S2-094K22,2,144,PS,intra_train,39,←,left,←,0.5287675997242332,True,19,-,-,-
Y2-S2-094K22,2,145,PS,intra_train,45,↑,up,↑,1.1941732000559568,True,19,-,-,-
Y2-S2-094K22,2,146,PS,exp,47,←,left,←,1.2245318996720016,True,13,0,0,0
Y2-S2-094K22,2,147,PS,exp,49,↑,up,↑,0.5696728001348674,True,13,0,0,0
Y2-S2-094K22,2,148,PS,exp,33,→,right,→,0.49865629989653826,True,13,1,0,0
Y2-S2-094K22,2,149,PS,exp,25,←,left,←,0.5845840997062624,True,12,1,0,0
Y2-S2-094K22,2,150,PS,exp,34,→,right,→,0.5163417002186179,True,12,1,0,0
Y2-S2-094K22,2,151,PS,exp,28,↓,down,↓,1.0158159001730382,True,12,1,0,0
Y2-S2-094K22,2,152,PS,exp,37,↑,up,↑,0.9005460999906063,True,11,1,0,0
Y2-S2-094K22,2,153,PS,exp,28,→,right,→,0.5152036999352276,True,11,1,0,0
Y2-S2-094K22,2,154,PS,exp,31,←,up,↑,0.9658212000504136,False,11,-1,1,1
Y2-S2-094K22,2,155,PS,exp,27,↑,up,↑,0.5421058000065386,True,12,-1,0,1
Y2-S2-094K22,2,156,PS,exp,32,↓,down,↓,0.6974011999554932,True,12,-1,0,1
Y2-S2-094K22,2,157,PS,exp,33,→,up,↑,0.7881192001514137,False,12,-1,0,1
Y2-S2-094K22,2,158,PS,exp,45,←,left,←,0.570276899728924,True,13,-1,0,1
Y2-S2-094K22,2,159,PS,exp,34,→,left,←,0.698080400004983,False,13,-1,0,1
Y2-S2-094K22,2,160,PS,exp,40,↓,down,↓,0.7318536997772753,True,14,-1,0,1
Y2-S2-094K22,2,161,PS,exp,29,→,left,←,0.6228965003974736,False,14,-1,0,1
Y2-S2-094K22,2,162,PS,exp,30,↓,down,↓,0.5342292999848723,True,15,-1,0,1
Y2-S2-094K22,2,163,PS,exp,43,←,left,←,0.46211429964751005,True,15,-1,0,1
Y2-S2-094K22,2,164,PS,exp,29,↑,up,↑,0.5879641999490559,True,15,1,1,2
Y2-S2-094K22,2,165,PS,exp,50,↓,down,↓,0.569230199791491,True,14,1,0,2
Y2-S2-094K22,2,166,PS,exp,36,↑,up,↑,0.6575163002125919,True,14,1,0,2
Y2-S2-094K22,2,167,PS,exp,47,→,no_key,no_letter,-1.0,False,14,-1,1,3
Y2-S2-094K22,2,168,PS,exp,50,↑,up,↑,0.5667614000849426,True,15,-1,0,3
Y2-S2-094K22,2,169,PS,exp,25,↓,down,↓,0.6402962999418378,True,15,-1,0,3
Y2-S2-094K22,2,170,PS,exp,44,↑,no_key,no_letter,-1.0,False,15,-1,0,3
Y2-S2-094K22,2,171,PS,exp,29,→,right,→,0.49958870001137257,True,16,-1,0,3
Y2-S2-094K22,2,172,PS,exp,45,↑,up,↑,0.7360449000261724,True,16,-1,0,3
Y2-S2-094K22,2,173,PS,exp,43,↓,down,↓,0.6272546001709998,True,16,1,1,4
Y2-S2-094K22,2,174,PS,exp,46,←,left,←,0.7314694998785853,True,15,1,0,4
Y2-S2-094K22,2,175,PS,exp,37,→,right,→,0.7498763999901712,True,15,1,0,4
Y2-S2-094K22,2,176,PS,exp,27,↑,up,↑,0.6219649002887309,True,15,1,0,4
Y2-S2-094K22,2,177,PS,exp,26,↓,down,↓,0.6155087999068201,True,14,1,0,4
Y2-S2-094K22,2,178,PS,exp,38,→,right,→,0.4598877001553774,True,14,1,0,4
Y2-S2-094K22,2,179,PS,exp,27,↓,down,↓,0.548831700347364,True,14,1,0,4
Y2-S2-094K22,2,180,PS,exp,25,↑,up,↑,0.8242075997404754,True,13,1,0,4
Y2-S2-094K22,2,181,PS,exp,45,→,right,→,0.46737700002267957,True,13,1,0,4
Y2-S2-094K22,2,182,PS,exp,37,↑,up,↑,0.5992468995973468,True,13,1,0,4
Y2-S2-094K22,2,183,PS,exp,34,←,left,←,0.4758481001481414,True,12,1,0,4
Y2-S2-094K22,2,184,PS,exp,37,↑,up,↑,0.5575415999628603,True,12,1,0,4
Y2-S2-094K22,2,185,PS,exp,49,↓,down,↓,0.7084084004163742,True,12,1,0,4
Y2-S2-094K22,2,186,PS,exp,30,↑,up,↑,0.6490671997889876,True,11,1,0,4
Y2-S2-094K22,2,187,PS,exp,41,→,down,↓,0.8948956001549959,False,11,-1,1,5
Y2-S2-094K22,2,188,PS,exp,35,←,left,←,0.5660892999731004,True,12,-1,0,5
Y2-S2-094K22,2,189,PS,exp,27,→,up,↑,0.9609198002144694,False,12,-1,0,5
Y2-S2-094K22,2,190,PS,exp,44,↓,down,↓,0.8986549000255764,True,13,-1,0,5
Y2-S2-094K22,2,191,PS,exp,45,→,right,→,0.6069017997942865,True,13,-1,0,5
Y2-S2-094K22,2,192,PS,exp,47,↑,up,↑,0.5752852996811271,True,13,1,1,6
Y2-S2-094K22,2,193,PS,exp,25,→,right,→,0.725511800032109,True,12,1,0,6
Y2-S2-094K22,2,194,PS,exp,38,↓,down,↓,0.7626581997610629,True,12,1,0,6
Y2-S2-094K22,2,195,PS,exp,28,←,left,←,0.6297734999097884,True,12,1,0,6
Y2-S2-094K22,2,196,PS,exp,36,→,left,←,0.5212622000835836,False,11,-1,1,7
Y2-S2-094K22,2,197,PS,exp,34,←,left,←,0.46284310007467866,True,12,-1,0,7
Y2-S2-094K22,2,198,PS,exp,34,↑,up,↑,0.587432499974966,True,12,-1,0,7
Y2-S2-094K22,2,199,PS,exp,43,↓,down,↓,0.7761462000198662,True,12,1,1,8
Y2-S2-094K22,2,200,PS,exp,35,←,left,←,0.5295202000997961,True,11,1,0,8
Y2-S2-094K22,2,201,PS,exp,25,↓,down,↓,0.7452700999565423,True,11,1,0,8
Y2-S2-094K22,2,202,PS,exp,38,→,right,→,0.5375131997279823,True,11,1,0,8
Y2-S2-094K22,2,203,PS,exp,43,←,left,←,0.49553450010716915,True,10,1,0,8
Y2-S2-094K22,2,204,PS,exp,41,→,left,←,1.023746999911964,False,10,-1,1,9
Y2-S2-094K22,2,205,PS,exp,33,↑,up,↑,0.7522387001663446,True,11,-1,0,9
Y2-S2-094K22,2,206,PS,exp,34,↓,down,↓,0.6254773000255227,True,11,-1,0,9
Y2-S2-094K22,2,207,PS,exp,39,←,left,←,0.9787208996713161,True,11,1,1,10
Y2-S2-094K22,2,208,PS,exp,31,→,right,→,0.6135964002460241,True,10,1,0,10
Y2-S2-094K22,2,209,PS,exp,30,↑,up,↑,0.6835640999488533,True,10,1,0,10
Y2-S2-094K22,2,210,PS,exp,25,←,left,←,1.072686200030148,True,10,1,0,10
Y2-S2-094K22,2,211,PS,exp,47,↑,up,↑,0.9505806001834571,True,9,1,0,10
Y2-S2-094K22,2,212,PS,exp,36,←,left,←,0.560329900123179,True,9,1,0,10
Y2-S2-094K22,2,213,PS,exp,49,→,right,→,1.6153766000643373,True,9,1,0,10
Y2-S2-094K22,2,214,PS,exp,39,↑,up,↑,0.6559204002842307,True,8,1,0,10
Y2-S2-094K22,2,215,PS,exp,38,↓,left,←,0.6829148000106215,False,8,-1,1,11
Y2-S2-094K22,2,216,PS,exp,37,↑,up,↑,0.48868010006845,True,9,-1,0,11
Y2-S2-094K22,2,217,PS,exp,45,←,left,←,0.7180770998820662,True,9,-1,0,11
Y2-S2-094K22,2,218,PS,exp,45,↑,up,↑,0.7635833998210728,True,9,1,1,12
Y2-S2-094K22,2,219,PS,exp,39,↓,down,↓,0.6120810997672379,True,8,1,0,12
Y2-S2-094K22,2,220,PS,exp,45,←,left,←,0.5407448001205921,True,8,1,0,12
Y2-S2-094K22,2,221,PS,exp,39,↓,left,←,0.5295461998321116,False,8,-1,1,13
Y2-S2-094K22,2,222,PS,exp,38,↑,up,↑,0.6699240999296308,True,9,-1,0,13
Y2-S2-094K22,2,223,PS,exp,49,↓,up,↑,0.8252497999928892,False,9,-1,0,13
Y2-S2-094K22,2,224,PS,exp,27,↑,up,↑,0.5585719998925924,True,10,-1,0,13
Y2-S2-094K22,2,225,PS,exp,38,→,left,←,0.5391726000234485,False,10,-1,0,13
Y2-S2-094K22,2,226,PS,exp,43,←,left,←,0.5229584998451173,True,11,-1,0,13
Y2-S2-094K22,2,227,PS,exp,25,↓,down,↓,1.0848133000545204,True,11,-1,0,13
Y2-S2-094K22,2,228,PS,exp,48,←,left,←,0.5287234000861645,True,11,1,1,14
Y2-S2-094K22,2,229,PS,exp,47,↑,left,←,0.7622202001512051,False,10,-1,1,15
Y2-S2-094K22,2,230,PS,exp,38,↓,down,↓,1.133366999682039,True,11,-1,0,15
Y2-S2-094K22,2,231,PS,exp,33,→,right,→,0.47154089994728565,True,11,-1,0,15
Y2-S2-094K22,2,232,PS,exp,41,↓,down,↓,0.5002055000513792,True,11,1,1,16
Y2-S2-094K22,3,233,PS,intra_train,34,←,left,←,0.8474269001744688,True,19,-,-,-
Y2-S2-094K22,3,234,PS,intra_train,25,→,right,→,0.5616721999831498,True,19,-,-,-
Y2-S2-094K22,3,235,PS,intra_train,49,↓,down,↓,0.7900466001592577,True,19,-,-,-
Y2-S2-094K22,3,236,PS,intra_train,26,→,right,→,0.5754191000014544,True,19,-,-,-
Y2-S2-094K22,3,237,PS,intra_train,28,←,left,←,1.38292340002954,True,19,-,-,-
Y2-S2-094K22,3,238,PS,exp,26,→,right,→,0.40719119971618056,True,13,0,0,0
Y2-S2-094K22,3,239,PS,exp,44,↑,up,↑,0.7272018999792635,True,13,0,0,0
Y2-S2-094K22,3,240,PS,exp,49,→,right,→,0.4837412000633776,True,13,1,0,0
Y2-S2-094K22,3,241,PS,exp,27,↓,left,←,0.9462962001562119,False,12,-1,1,1
Y2-S2-094K22,3,242,PS,exp,38,↑,up,↑,0.6660784999839962,True,13,-1,0,1
Y2-S2-094K22,3,243,PS,exp,41,←,left,←,0.5660134996287525,True,13,-1,0,1
Y2-S2-094K22,3,244,PS,exp,31,↓,down,↓,0.8501523002050817,True,13,1,1,2
Y2-S2-094K22,3,245,PS,exp,30,←,left,←,0.6242456003092229,True,12,1,0,2
Y2-S2-094K22,3,246,PS,exp,44,→,right,→,0.516005499754101,True,12,1,0,2
Y2-S2-094K22,3,247,PS,exp,43,←,left,←,0.5123964003287256,True,12,1,0,2
Y2-S2-094K22,3,248,PS,exp,29,↑,up,↑,1.231891700066626,True,11,1,0,2
Y2-S2-094K22,3,249,PS,exp,39,→,right,→,0.9141756002791226,True,11,1,0,2
Y2-S2-094K22,3,250,PS,exp,42,↓,up,↑,0.8104142998345196,False,11,-1,1,3
Y2-S2-094K22,3,251,PS,exp,30,←,left,←,0.48719359980896115,True,12,-1,0,3
Y2-S2-094K22,3,252,PS,exp,50,↓,down,↓,0.5649659000337124,True,12,-1,0,3
Y2-S2-094K22,3,253,PS,exp,36,→,right,→,0.48069150000810623,True,12,1,1,4
Y2-S2-094K22,3,254,PS,exp,49,↓,down,↓,1.058219799771905,True,11,1,0,4
Y2-S2-094K22,3,255,PS,exp,45,↑,up,↑,0.6700591999106109,True,11,1,0,4
Y2-S2-094K22,3,256,PS,exp,39,←,left,←,0.4712795000523329,True,11,1,0,4
Y2-S2-094K22,3,257,PS,exp,47,→,right,→,0.7599488999694586,True,10,1,0,4
Y2-S2-094K22,3,258,PS,exp,41,↑,down,↓,0.7240486997179687,False,10,-1,1,5
Y2-S2-094K22,3,259,PS,exp,43,←,left,←,0.47574419993907213,True,11,-1,0,5
Y2-S2-094K22,3,260,PS,exp,41,↑,left,←,0.7631778996437788,False,11,-1,0,5
Y2-S2-094K22,3,261,PS,exp,47,←,left,←,0.4819661998189986,True,12,-1,0,5
Y2-S2-094K22,3,262,PS,exp,49,↑,up,↑,0.7184246997348964,True,12,-1,0,5
Y2-S2-094K22,3,263,PS,exp,33,←,left,←,0.527380000334233,True,12,1,1,6
Y2-S2-094K22,3,264,PS,exp,35,→,right,→,0.4234730997122824,True,11,1,0,6
Y2-S2-094K22,3,265,PS,exp,46,↓,down,↓,0.6088988003320992,True,11,1,0,6
Y2-S2-094K22,3,266,PS,exp,41,←,left,←,0.42569199996069074,True,11,1,0,6
Y2-S2-094K22,3,267,PS,exp,28,↓,down,↓,0.6489105997607112,True,10,1,0,6
Y2-S2-094K22,3,268,PS,exp,27,↑,left,←,1.1075082002207637,False,10,-1,1,7
Y2-S2-094K22,3,269,PS,exp,45,↓,down,↓,0.5840690997429192,True,11,-1,0,7
Y2-S2-094K22,3,270,PS,exp,26,→,down,↓,0.6408886001445353,False,11,-1,0,7
Y2-S2-094K22,3,271,PS,exp,28,↓,down,↓,0.4398722997866571,True,12,-1,0,7
Y2-S2-094K22,3,272,PS,exp,47,↑,down,↓,0.5514498995617032,False,12,-1,0,7
Y2-S2-094K22,3,273,PS,exp,50,↓,down,↓,0.4368607001379132,True,13,-1,0,7
Y2-S2-094K22,3,274,PS,exp,34,↑,down,↓,0.35106310015544295,False,13,-1,0,7
Y2-S2-094K22,3,275,PS,exp,36,→,left,←,0.6456236001104116,False,14,-1,0,7
Y2-S2-094K22,3,276,PS,exp,34,↓,right,→,0.30063899978995323,False,15,-1,0,7
Y2-S2-094K22,3,277,PS,exp,33,↑,down,↓,0.2668738001957536,False,16,-1,0,7
Y2-S2-094K22,3,278,PS,exp,37,↓,down,↓,0.7083499999716878,True,17,-1,0,7
Y2-S2-094K22,3,279,PS,exp,43,→,right,→,0.5776627999730408,True,17,-1,0,7
Y2-S2-094K22,3,280,PS,exp,26,↓,down,↓,0.6304951999336481,True,17,1,1,8
Y2-S2-094K22,3,281,PS,exp,46,→,right,→,0.5941610001027584,True,16,1,0,8
Y2-S2-094K22,3,282,PS,exp,38,←,left,←,0.5088435001671314,True,16,1,0,8
Y2-S2-094K22,3,283,PS,exp,42,→,right,→,0.47708489978685975,True,16,1,0,8
Y2-S2-094K22,3,284,PS,exp,38,↓,down,↓,0.43678969983011484,True,15,1,0,8
Y2-S2-094K22,3,285,PS,exp,31,←,left,←,0.540143399965018,True,15,1,0,8
Y2-S2-094K22,3,286,PS,exp,45,↓,down,↓,0.4969445997849107,True,15,1,0,8
Y2-S2-094K22,3,287,PS,exp,29,↑,down,↓,0.3175041996873915,False,14,-1,1,9
Y2-S2-094K22,3,288,PS,exp,35,↓,down,↓,0.5900220000185072,True,15,-1,0,9
Y2-S2-094K22,3,289,PS,exp,33,→,right,→,0.4222042001783848,True,15,-1,0,9
Y2-S2-094K22,3,290,PS,exp,27,←,left,←,0.43620780017226934,True,15,1,1,10
Y2-S2-094K22,3,291,PS,exp,39,→,left,←,0.5781927001662552,False,14,-1,1,11
Y2-S2-094K22,3,292,PS,exp,48,↓,down,↓,0.45483769988641143,True,15,-1,0,11
Y2-S2-094K22,3,293,PS,exp,31,←,left,←,0.6372773996554315,True,15,-1,0,11
Y2-S2-094K22,3,294,PS,exp,32,↓,down,↓,0.4270882001146674,True,15,1,1,12
Y2-S2-094K22,3,295,PS,exp,29,→,down,↓,0.5174916000105441,False,14,-1,1,13
Y2-S2-094K22,3,296,PS,exp,29,↑,up,↑,0.6119850999675691,True,15,-1,0,13
Y2-S2-094K22,3,297,PS,exp,47,→,right,→,0.6806382001377642,True,15,-1,0,13
Y2-S2-094K22,3,298,PS,exp,46,←,down,↓,0.8097160002216697,False,15,-1,0,13
Y2-S2-094K22,3,299,PS,exp,43,→,right,→,0.45257489988580346,True,16,-1,0,13
Y2-S2-094K22,3,300,PS,exp,48,←,left,←,0.4656181996688247,True,16,-1,0,13
Y2-S2-094K22,3,301,PS,exp,32,↑,up,↑,0.6956341001205146,True,16,1,1,14
Y2-S2-094K22,3,302,PS,exp,49,↓,down,↓,0.4672170002013445,True,15,1,0,14
Y2-S2-094K22,3,303,PS,exp,37,←,left,←,0.47566809970885515,True,15,1,0,14
Y2-S2-094K22,3,304,PS,exp,42,↓,down,↓,0.36718770023435354,True,15,1,0,14
Y2-S2-094K22,3,305,PS,exp,47,↑,up,↑,0.7633116003125906,True,14,1,0,14
Y2-S2-094K22,3,306,PS,exp,46,→,right,→,0.5570128001272678,True,14,1,0,14
Y2-S2-094K22,3,307,PS,exp,28,↓,down,↓,0.7947057001292706,True,14,1,0,14
Y2-S2-094K22,3,308,PS,exp,26,↑,right,→,1.1117157996632159,False,13,-1,1,15
Y2-S2-094K22,3,309,PS,exp,25,↓,down,↓,0.5426457999274135,True,14,-1,0,15
Y2-S2-094K22,3,310,PS,exp,50,↑,right,→,0.5727975000627339,False,14,-1,0,15
Y2-S2-094K22,3,311,PS,exp,26,↓,down,↓,0.6598935998044908,True,15,-1,0,15
Y2-S2-094K22,3,312,PS,exp,27,↑,up,↑,0.8069335999898612,True,15,-1,0,15
Y2-S2-094K22,3,313,PS,exp,35,→,right,→,0.5184884998016059,True,15,1,1,16
Y2-S2-094K22,4,314,AS,intra_train,38,↑,up,↑,1.0305695999413729,True,34,-,-,-
Y2-S2-094K22,4,315,AS,intra_train,49,↓,down,↓,1.1125139999203384,True,34,-,-,-
Y2-S2-094K22,4,316,AS,intra_train,49,↑,up,↑,0.7970878002233803,True,34,-,-,-
Y2-S2-094K22,4,317,AS,intra_train,30,←,left,←,1.445370600093156,True,34,-,-,-
Y2-S2-094K22,4,318,AS,intra_train,31,↓,down,↓,0.9605990001000464,True,34,-,-,-
Y2-S2-094K22,4,319,AS,exp,29,→,right,→,0.8568912004120648,True,23,0,0,0
Y2-S2-094K22,4,320,AS,exp,31,←,left,←,1.1650183000601828,True,23,0,0,0
Y2-S2-094K22,4,321,AS,exp,29,↑,down,↓,1.0113547998480499,False,23,-1,0,0
Y2-S2-094K22,4,322,AS,exp,37,↓,down,↓,0.878511100076139,True,24,-1,0,0
Y2-S2-094K22,4,323,AS,exp,42,→,right,→,0.8286564000882208,True,24,-1,0,0
Y2-S2-094K22,4,324,AS,exp,34,←,left,←,0.48389440029859543,True,24,1,1,1
Y2-S2-094K22,4,325,AS,exp,29,→,right,→,0.6657783999107778,True,23,1,0,1
Y2-S2-094K22,4,326,AS,exp,29,↓,down,↓,0.9311253000050783,True,23,1,0,1
Y2-S2-094K22,4,327,AS,exp,26,↑,up,↑,1.2186958002857864,True,23,1,0,1
Y2-S2-094K22,4,328,AS,exp,45,↓,down,↓,0.916416599880904,True,22,1,0,1
Y2-S2-094K22,4,329,AS,exp,46,←,left,←,0.8434439999982715,True,22,1,0,1
Y2-S2-094K22,4,330,AS,exp,29,↑,up,↑,1.828012699726969,True,22,1,0,1
Y2-S2-094K22,4,331,AS,exp,32,←,left,←,0.6756412000395358,True,21,1,0,1
Y2-S2-094K22,4,332,AS,exp,41,→,left,←,0.908292300067842,False,21,-1,1,2
Y2-S2-094K22,4,333,AS,exp,31,←,left,←,0.43470009975135326,True,22,-1,0,2
Y2-S2-094K22,4,334,AS,exp,34,→,right,→,0.6890536001883447,True,22,-1,0,2
Y2-S2-094K22,4,335,AS,exp,45,←,left,←,0.8942418000660837,True,22,1,1,3
Y2-S2-094K22,4,336,AS,exp,33,↓,down,↓,0.9990906999446452,True,21,1,0,3
Y2-S2-094K22,4,337,AS,exp,47,→,right,→,0.8185430001467466,True,21,1,0,3
Y2-S2-094K22,4,338,AS,exp,44,←,left,←,0.6840785001404583,True,21,1,0,3
Y2-S2-094K22,4,339,AS,exp,43,↓,down,↓,0.6397314998321235,True,20,1,0,3
Y2-S2-094K22,4,340,AS,exp,28,↑,up,↑,0.9431011001579463,True,20,1,0,3
Y2-S2-094K22,4,341,AS,exp,45,→,right,→,1.856223199982196,True,20,1,0,3
Y2-S2-094K22,4,342,AS,exp,43,↓,down,↓,0.7321917000226676,True,19,1,0,3
Y2-S2-094K22,4,343,AS,exp,29,→,down,↓,0.9651652001775801,False,19,-1,1,4
Y2-S2-094K22,4,344,AS,exp,31,↓,down,↓,0.4339048000983894,True,20,-1,0,4
Y2-S2-094K22,4,345,AS,exp,27,↑,up,↑,1.0499269999563694,True,20,-1,0,4
Y2-S2-094K22,4,346,AS,exp,42,←,left,←,0.4510776000097394,True,20,1,1,5
Y2-S2-094K22,4,347,AS,exp,47,↓,down,↓,0.5424382998608053,True,19,1,0,5
Y2-S2-094K22,4,348,AS,exp,37,→,right,→,1.4933154000900686,True,19,1,0,5
Y2-S2-094K22,4,349,AS,exp,49,←,left,←,0.5456317998468876,True,19,1,0,5
Y2-S2-094K22,4,350,AS,exp,32,→,down,↓,0.7043246999382973,False,18,-1,1,6
Y2-S2-094K22,4,351,AS,exp,41,↓,down,↓,0.518452700227499,True,19,-1,0,6
Y2-S2-094K22,4,352,AS,exp,30,←,left,←,0.5724562001414597,True,19,-1,0,6
Y2-S2-094K22,4,353,AS,exp,48,↓,up,↑,1.0141691998578608,False,19,-1,0,6
Y2-S2-094K22,4,354,AS,exp,41,←,left,←,0.8447249000892043,True,20,-1,0,6
Y2-S2-094K22,4,355,AS,exp,34,→,right,→,0.8071343000046909,True,20,-1,0,6
Y2-S2-094K22,4,356,AS,exp,45,←,left,←,1.460692500229925,True,20,1,1,7
Y2-S2-094K22,4,357,AS,exp,43,→,right,→,0.6585476002655923,True,19,1,0,7
Y2-S2-094K22,4,358,AS,exp,46,←,left,←,0.4503494002856314,True,19,1,0,7
Y2-S2-094K22,4,359,AS,exp,48,↓,up,↑,0.9410958997905254,False,19,-1,1,8
Y2-S2-094K22,4,360,AS,exp,46,↑,right,→,1.0049255997873843,False,20,-1,0,8
Y2-S2-094K22,4,361,AS,exp,33,↓,down,↓,0.6837610998190939,True,21,-1,0,8
Y2-S2-094K22,4,362,AS,exp,34,→,right,→,0.7207724000327289,True,21,-1,0,8
Y2-S2-094K22,4,363,AS,exp,46,↓,down,↓,0.4839503997936845,True,21,1,1,9
Y2-S2-094K22,4,364,AS,exp,39,↑,up,↑,0.6182927000336349,True,20,1,0,9
Y2-S2-094K22,4,365,AS,exp,42,←,left,←,0.5086306002922356,True,20,1,0,9
Y2-S2-094K22,4,366,AS,exp,46,↑,up,↑,1.009542299900204,True,20,1,0,9
Y2-S2-094K22,4,367,AS,exp,34,→,right,→,0.714750099927187,True,19,1,0,9
Y2-S2-094K22,4,368,AS,exp,31,←,left,←,1.882956000044942,True,19,1,0,9
Y2-S2-094K22,4,369,AS,exp,44,→,right,→,0.5968896001577377,True,19,1,0,9
Y2-S2-094K22,4,370,AS,exp,29,↑,up,↑,0.8209966002032161,True,18,1,0,9
Y2-S2-094K22,4,371,AS,exp,35,↓,down,↓,1.0896982001140714,True,18,1,0,9
Y2-S2-094K22,4,372,AS,exp,27,↑,up,↑,0.6119840000756085,True,18,1,0,9
Y2-S2-094K22,4,373,AS,exp,41,→,right,→,0.5010474999435246,True,17,1,0,9
Y2-S2-094K22,4,374,AS,exp,43,↓,up,↑,0.9027081998065114,False,17,-1,1,10
Y2-S2-094K22,4,375,AS,exp,31,←,left,←,0.6597289000637829,True,18,-1,0,10
Y2-S2-094K22,4,376,AS,exp,48,→,right,→,0.5634567001834512,True,18,-1,0,10
Y2-S2-094K22,4,377,AS,exp,47,↓,down,↓,1.3225416000932455,True,18,1,1,11
Y2-S2-094K22,4,378,AS,exp,28,↑,up,↑,0.4799045999534428,True,17,1,0,11
Y2-S2-094K22,4,379,AS,exp,33,↓,up,↑,0.8910174001939595,False,17,-1,1,12
Y2-S2-094K22,4,380,AS,exp,41,←,right,→,0.560347699560225,False,18,-1,0,12
Y2-S2-094K22,4,381,AS,exp,49,↑,up,↑,0.590996699873358,True,19,-1,0,12
Y2-S2-094K22,4,382,AS,exp,26,←,left,←,0.5508988001383841,True,19,-1,0,12
Y2-S2-094K22,4,383,AS,exp,28,→,right,→,0.6053234999999404,True,19,1,1,13
Y2-S2-094K22,4,384,AS,exp,25,↓,up,↑,0.6722566997632384,False,18,-1,1,14
Y2-S2-094K22,4,385,AS,exp,34,←,left,←,0.5937040997669101,True,19,-1,0,14
Y2-S2-094K22,4,386,AS,exp,45,→,right,→,0.7066357000730932,True,19,-1,0,14
Y2-S2-094K22,4,387,AS,exp,30,←,left,←,0.7250556997023523,True,19,1,1,15
Y2-S2-094K22,4,388,AS,exp,34,→,right,→,0.5602971999906003,True,18,1,0,15
Y2-S2-094K22,4,389,AS,exp,34,↓,down,↓,1.028006199747324,True,18,1,0,15
Y2-S2-094K22,4,390,AS,exp,27,→,left,←,0.8620127998292446,False,18,-1,1,16
Y2-S2-094K22,5,391,AS,intra_train,29,←,left,←,0.6342482003383338,True,34,-,-,-
Y2-S2-094K22,5,392,AS,intra_train,29,→,right,→,0.7384811998344958,True,34,-,-,-
Y2-S2-094K22,5,393,AS,intra_train,43,↑,up,↑,0.7563164001330733,True,34,-,-,-
Y2-S2-094K22,5,394,AS,intra_train,42,→,right,→,0.48460099985823035,True,34,-,-,-
Y2-S2-094K22,5,395,AS,intra_train,39,↓,down,↓,1.3181392000988126,True,34,-,-,-
Y2-S2-094K22,5,396,AS,exp,30,→,right,→,0.684033699799329,True,23,0,0,0
Y2-S2-094K22,5,397,AS,exp,31,↑,up,↑,1.2473053997382522,True,23,0,0,0
Y2-S2-094K22,5,398,AS,exp,39,↓,down,↓,0.6525117997080088,True,23,1,0,0
Y2-S2-094K22,5,399,AS,exp,40,←,left,←,0.542856500018388,True,22,1,0,0
Y2-S2-094K22,5,400,AS,exp,45,↑,up,↑,0.6566441003233194,True,22,1,0,0
Y2-S2-094K22,5,401,AS,exp,44,←,right,→,0.6117023997940123,False,22,-1,1,1
Y2-S2-094K22,5,402,AS,exp,29,→,right,→,0.5171561003662646,True,23,-1,0,1
Y2-S2-094K22,5,403,AS,exp,41,←,left,←,0.673180699814111,True,23,-1,0,1
Y2-S2-094K22,5,404,AS,exp,44,↑,up,↑,0.7770777000114322,True,23,1,1,2
Y2-S2-094K22,5,405,AS,exp,42,↓,down,↓,0.7801504000090063,True,22,1,0,2
Y2-S2-094K22,5,406,AS,exp,49,↑,up,↑,0.9326386000029743,True,22,1,0,2
Y2-S2-094K22,5,407,AS,exp,44,→,right,→,0.8177358000539243,True,22,1,0,2
Y2-S2-094K22,5,408,AS,exp,36,↓,down,↓,1.0682055000215769,True,21,1,0,2
Y2-S2-094K22,5,409,AS,exp,49,→,right,→,0.6286812000907958,True,21,1,0,2
Y2-S2-094K22,5,410,AS,exp,39,↑,no_key,no_letter,-1.0,False,21,-1,1,3
Y2-S2-094K22,5,411,AS,exp,33,←,no_key,no_letter,-1.0,False,22,-1,0,3
Y2-S2-094K22,5,412,AS,exp,28,↑,up,↑,0.5171883003786206,True,23,-1,0,3
Y2-S2-094K22,5,413,AS,exp,35,→,right,→,0.7811361998319626,True,23,-1,0,3
Y2-S2-094K22,5,414,AS,exp,43,↓,up,↑,0.858167499769479,False,23,-1,0,3
Y2-S2-094K22,5,415,AS,exp,45,↑,up,↑,0.825524799991399,True,24,-1,0,3
Y2-S2-094K22,5,416,AS,exp,43,↓,down,↓,0.9203119003213942,True,24,-1,0,3
Y2-S2-094K22,5,417,AS,exp,45,↑,up,↑,0.6368344998918474,True,24,1,1,4
Y2-S2-094K22,5,418,AS,exp,33,↓,right,→,0.5004233997315168,False,23,-1,1,5
Y2-S2-094K22,5,419,AS,exp,29,→,right,→,0.4172514001838863,True,24,-1,0,5
Y2-S2-094K22,5,420,AS,exp,29,↓,down,↓,1.1158393998630345,True,24,-1,0,5
Y2-S2-094K22,5,421,AS,exp,43,←,left,←,0.6734429001808167,True,24,1,1,6
Y2-S2-094K22,5,422,AS,exp,28,→,right,→,0.6430038996040821,True,23,1,0,6
Y2-S2-094K22,5,423,AS,exp,41,↓,down,↓,0.5172315998934209,True,23,1,0,6
Y2-S2-094K22,5,424,AS,exp,45,↑,up,↑,0.9890677998773754,True,23,1,0,6
Y2-S2-094K22,5,425,AS,exp,32,→,right,→,0.6275241002440453,True,22,1,0,6
Y2-S2-094K22,5,426,AS,exp,31,←,left,←,0.6646138997748494,True,22,1,0,6
Y2-S2-094K22,5,427,AS,exp,29,→,right,→,0.6117694000713527,True,22,1,0,6
Y2-S2-094K22,5,428,AS,exp,27,←,left,←,0.7346346001140773,True,21,1,0,6
Y2-S2-094K22,5,429,AS,exp,34,→,left,←,0.7008238998241723,False,21,-1,1,7
Y2-S2-094K22,5,430,AS,exp,45,↑,up,↑,0.9972391999326646,True,22,-1,0,7
Y2-S2-094K22,5,431,AS,exp,41,↓,up,↑,1.0097642997279763,False,22,-1,0,7
Y2-S2-094K22,5,432,AS,exp,45,→,right,→,0.8729903004132211,True,23,-1,0,7
Y2-S2-094K22,5,433,AS,exp,39,←,left,←,0.5837558000348508,True,23,-1,0,7
Y2-S2-094K22,5,434,AS,exp,27,↑,up,↑,1.0749280001036823,True,23,1,1,8
Y2-S2-094K22,5,435,AS,exp,30,←,no_key,no_letter,-1.0,False,22,-1,1,9
Y2-S2-094K22,5,436,AS,exp,31,→,right,→,0.8049405999481678,True,23,-1,0,9
Y2-S2-094K22,5,437,AS,exp,35,↓,down,↓,0.9261324000544846,True,23,-1,0,9
Y2-S2-094K22,5,438,AS,exp,38,↑,up,↑,0.5663441997021437,True,23,1,1,10
Y2-S2-094K22,5,439,AS,exp,35,←,left,←,0.5668089003302157,True,22,1,0,10
Y2-S2-094K22,5,440,AS,exp,46,↓,down,↓,1.2734042000956833,True,22,1,0,10
Y2-S2-094K22,5,441,AS,exp,40,→,right,→,1.3419975996948779,True,22,1,0,10
Y2-S2-094K22,5,442,AS,exp,41,←,right,→,0.7892183000221848,False,21,-1,1,11
Y2-S2-094K22,5,443,AS,exp,37,↑,up,↑,0.8533827001228929,True,22,-1,0,11
Y2-S2-094K22,5,444,AS,exp,48,↓,down,↓,0.7554774000309408,True,22,-1,0,11
Y2-S2-094K22,5,445,AS,exp,34,↑,up,↑,0.8107298002578318,True,22,1,1,12
Y2-S2-094K22,5,446,AS,exp,50,→,right,→,0.7467364999465644,True,21,1,0,12
Y2-S2-094K22,5,447,AS,exp,38,↑,up,↑,1.135894499719143,True,21,1,0,12
Y2-S2-094K22,5,448,AS,exp,33,←,left,←,0.632209800183773,True,21,1,0,12
Y2-S2-094K22,5,449,AS,exp,26,↑,up,↑,0.7842015000060201,True,20,1,0,12
Y2-S2-094K22,5,450,AS,exp,29,↓,down,↓,0.9293859000317752,True,20,1,0,12
Y2-S2-094K22,5,451,AS,exp,46,←,left,←,0.4340206002816558,True,20,1,0,12
Y2-S2-094K22,5,452,AS,exp,48,↓,up,↑,1.0788341998122633,False,19,-1,1,13
Y2-S2-094K22,5,453,AS,exp,47,→,right,→,0.7199109997600317,True,20,-1,0,13
Y2-S2-094K22,5,454,AS,exp,45,←,left,←,0.5270998999476433,True,20,-1,0,13
Y2-S2-094K22,5,455,AS,exp,27,↓,down,↓,0.9859659001231194,True,20,1,1,14
Y2-S2-094K22,5,456,AS,exp,33,→,right,→,0.8520011999644339,True,19,1,0,14
Y2-S2-094K22,5,457,AS,exp,40,↑,up,↑,0.7562040998600423,True,19,1,0,14
Y2-S2-094K22,5,458,AS,exp,28,↓,down,↓,0.5835048002190888,True,19,1,0,14
Y2-S2-094K22,5,459,AS,exp,43,←,left,←,0.7221438996493816,True,18,1,0,14
Y2-S2-094K22,5,460,AS,exp,40,↓,down,↓,0.6882870001718402,True,18,1,0,14
Y2-S2-094K22,5,461,AS,exp,43,←,left,←,1.0775068998336792,True,18,1,0,14
Y2-S2-094K22,5,462,AS,exp,40,↑,up,↑,0.6992841996252537,True,17,1,0,14
Y2-S2-094K22,5,463,AS,exp,47,→,right,→,0.7256029001437128,True,17,1,0,14
Y2-S2-094K22,5,464,AS,exp,29,↑,up,↑,1.0918704001232982,True,17,1,0,14
Y2-S2-094K22,5,465,AS,exp,50,↓,down,↓,1.3177114999853075,True,16,1,0,14
Y2-S2-094K22,5,466,AS,exp,44,↑,up,↑,0.5765412002801895,True,16,1,0,14
Y2-S2-094K22,5,467,AS,exp,30,→,up,↑,0.7446368001401424,False,16,-1,1,15
Y2-S2-094K22,5,468,AS,exp,31,←,up,↑,1.275911200325936,False,17,-1,0,15
Y2-S2-094K22,5,469,AS,exp,25,→,right,→,0.6799621996469796,True,18,-1,0,15
Y2-S2-094K22,5,470,AS,exp,41,↑,up,↑,0.7307261000387371,True,18,-1,0,15
Y2-S2-094K22,5,471,AS,exp,39,→,left,←,0.893399499822408,False,18,-1,0,15
Y2-S2-094K22,5,472,AS,exp,27,↑,up,↑,1.2408813000656664,True,19,-1,0,15
Y2-S2-094K22,5,473,AS,exp,50,→,right,→,0.6887815999798477,True,19,-1,0,15
Y2-S2-094K22,5,474,AS,exp,46,↓,up,↑,1.0680956998839974,False,19,-1,0,15
Y2-S2-094K22,5,475,AS,exp,28,↑,up,↑,0.8728443002328277,True,20,-1,0,15
Y2-S2-094K22,5,476,AS,exp,35,→,right,→,0.9695240003056824,True,20,-1,0,15
Y2-S2-094K22,5,477,AS,exp,44,↓,down,↓,1.2670569997280836,True,20,1,1,16
Y2-S2-094K22,6,478,PS,intra_train,40,→,right,→,1.1791682997718453,True,19,-,-,-
Y2-S2-094K22,6,479,PS,intra_train,37,↑,up,↑,0.7237913999706507,True,19,-,-,-
Y2-S2-094K22,6,480,PS,intra_train,41,↓,down,↓,0.730560400057584,True,19,-,-,-
Y2-S2-094K22,6,481,PS,intra_train,44,↑,up,↑,0.7383690997958183,True,19,-,-,-
Y2-S2-094K22,6,482,PS,intra_train,42,←,down,↓,1.0437965001910925,False,19,-,-,-
Y2-S2-094K22,6,483,PS,exp,28,↓,down,↓,0.6816369001753628,True,13,0,0,0
Y2-S2-094K22,6,484,PS,exp,42,↑,right,→,0.6450592000037432,False,13,-1,0,0
Y2-S2-094K22,6,485,PS,exp,28,→,right,→,0.7529142000712454,True,14,-1,0,0
Y2-S2-094K22,6,486,PS,exp,27,←,left,←,0.5023511000908911,True,14,-1,0,0
Y2-S2-094K22,6,487,PS,exp,31,→,right,→,0.5591504997573793,True,14,1,1,1
Y2-S2-094K22,6,488,PS,exp,50,↓,down,↓,0.6889194999821484,True,13,1,0,1
Y2-S2-094K22,6,489,PS,exp,30,←,left,←,0.581289800349623,True,13,1,0,1
Y2-S2-094K22,6,490,PS,exp,30,↓,up,↑,0.9834094000980258,False,13,-1,1,2
Y2-S2-094K22,6,491,PS,exp,45,→,right,→,0.782422199845314,True,14,-1,0,2
Y2-S2-094K22,6,492,PS,exp,33,↓,no_key,no_letter,-1.0,False,14,-1,0,2
Y2-S2-094K22,6,493,PS,exp,42,↑,up,↑,0.7941300999373198,True,15,-1,0,2
Y2-S2-094K22,6,494,PS,exp,39,→,down,↓,0.8739080000668764,False,15,-1,0,2
Y2-S2-094K22,6,495,PS,exp,45,←,left,←,0.6316379997879267,True,16,-1,0,2
Y2-S2-094K22,6,496,PS,exp,42,↓,down,↓,0.774549899622798,True,16,-1,0,2
Y2-S2-094K22,6,497,PS,exp,33,←,down,↓,0.8808093001134694,False,16,-1,0,2
Y2-S2-094K22,6,498,PS,exp,25,↑,up,↑,0.8202553000301123,True,17,-1,0,2
Y2-S2-094K22,6,499,PS,exp,37,→,left,←,0.6729051000438631,False,17,-1,0,2
Y2-S2-094K22,6,500,PS,exp,35,↑,down,↓,0.8717129002325237,False,18,-1,0,2
Y2-S2-094K22,6,501,PS,exp,34,→,left,←,0.511303000152111,False,19,-1,0,2
Y2-S2-094K22,6,502,PS,exp,27,←,left,←,0.9110320000909269,True,20,-1,0,2
Y2-S2-094K22,6,503,PS,exp,44,→,right,→,0.6122694001533091,True,20,-1,0,2
Y2-S2-094K22,6,504,PS,exp,42,↑,up,↑,1.2652033995836973,True,20,1,1,3
Y2-S2-094K22,6,505,PS,exp,31,↓,down,↓,0.787402699701488,True,19,1,0,3
Y2-S2-094K22,6,506,PS,exp,36,→,right,→,0.6344638001173735,True,19,1,0,3
Y2-S2-094K22,6,507,PS,exp,44,←,left,←,0.5075006000697613,True,19,1,0,3
Y2-S2-094K22,6,508,PS,exp,43,→,right,→,0.5095027000643313,True,18,1,0,3
Y2-S2-094K22,6,509,PS,exp,33,↑,up,↑,1.0175239001400769,True,18,1,0,3
Y2-S2-094K22,6,510,PS,exp,25,←,left,←,0.6929382998496294,True,18,1,0,3
Y2-S2-094K22,6,511,PS,exp,44,↑,up,↑,1.0865560001693666,True,17,1,0,3
Y2-S2-094K22,6,512,PS,exp,31,←,left,←,0.5253200000151992,True,17,1,0,3
Y2-S2-094K22,6,513,PS,exp,44,↑,up,↑,0.6424121996387839,True,17,1,0,3
Y2-S2-094K22,6,514,PS,exp,40,↓,down,↓,0.8998471000231802,True,16,1,0,3
Y2-S2-094K22,6,515,PS,exp,46,↑,up,↑,0.6231809998862445,True,16,1,0,3
Y2-S2-094K22,6,516,PS,exp,34,↓,down,↓,0.7604615995660424,True,16,1,0,3
Y2-S2-094K22,6,517,PS,exp,30,←,left,←,0.5477689998224378,True,15,1,0,3
Y2-S2-094K22,6,518,PS,exp,29,↑,up,↑,0.891964599955827,True,15,1,0,3
Y2-S2-094K22,6,519,PS,exp,43,←,right,→,0.6359876999631524,False,15,-1,1,4
Y2-S2-094K22,6,520,PS,exp,40,→,right,→,0.5322850001975894,True,16,-1,0,4
Y2-S2-094K22,6,521,PS,exp,40,←,left,←,0.49243689980357885,True,16,-1,0,4
Y2-S2-094K22,6,522,PS,exp,37,→,right,→,0.7860150998458266,True,16,1,1,5
Y2-S2-094K22,6,523,PS,exp,30,↑,up,↑,0.7252456997521222,True,15,1,0,5
Y2-S2-094K22,6,524,PS,exp,38,←,left,←,0.6688317996449769,True,15,1,0,5
Y2-S2-094K22,6,525,PS,exp,38,↑,up,↑,0.6964685996063054,True,15,1,0,5
Y2-S2-094K22,6,526,PS,exp,27,↓,down,↓,0.9302334003150463,True,14,1,0,5
Y2-S2-094K22,6,527,PS,exp,44,↑,up,↑,0.7605900997295976,True,14,1,0,5
Y2-S2-094K22,6,528,PS,exp,25,↓,down,↓,0.5371164996176958,True,14,1,0,5
Y2-S2-094K22,6,529,PS,exp,37,↑,up,↑,0.6516891000792384,True,13,1,0,5
Y2-S2-094K22,6,530,PS,exp,41,→,right,→,0.5360587001778185,True,13,1,0,5
Y2-S2-094K22,6,531,PS,exp,49,←,left,←,0.6337631000205874,True,13,1,0,5
Y2-S2-094K22,6,532,PS,exp,31,↓,down,↓,0.828956900164485,True,12,1,0,5
Y2-S2-094K22,6,533,PS,exp,47,←,left,←,0.6142778000794351,True,12,1,0,5
Y2-S2-094K22,6,534,PS,exp,42,↑,up,↑,0.8678898001089692,True,12,1,0,5
Y2-S2-094K22,6,535,PS,exp,46,→,right,→,0.5504389000125229,True,11,1,0,5
Y2-S2-094K22,6,536,PS,exp,44,↑,up,↑,0.9239750998094678,True,11,1,0,5
Y2-S2-094K22,6,537,PS,exp,47,→,up,↑,1.0347623000852764,False,11,-1,1,6
Y2-S2-094K22,6,538,PS,exp,31,↓,right,→,0.8269798001274467,False,12,-1,0,6
Y2-S2-094K22,6,539,PS,exp,31,←,left,←,0.4711734000593424,True,13,-1,0,6
Y2-S2-094K22,6,540,PS,exp,48,↑,up,↑,0.7302823001518846,True,13,-1,0,6
Y2-S2-094K22,6,541,PS,exp,35,→,right,→,0.5166287999600172,True,13,1,1,7
Y2-S2-094K22,6,542,PS,exp,29,↓,up,↑,0.79313680017367,False,12,-1,1,8
Y2-S2-094K22,6,543,PS,exp,43,↑,up,↑,0.39256650023162365,True,13,-1,0,8
Y2-S2-094K22,6,544,PS,exp,28,↓,down,↓,0.9191711000166833,True,13,-1,0,8
Y2-S2-094K22,6,545,PS,exp,31,→,right,→,0.6076173996552825,True,13,1,1,9
Y2-S2-094K22,6,546,PS,exp,45,↑,up,↑,0.6314171999692917,True,12,1,0,9
Y2-S2-094K22,6,547,PS,exp,38,→,right,→,0.6448344998061657,True,12,1,0,9
Y2-S2-094K22,6,548,PS,exp,44,←,left,←,0.7104038000106812,True,12,1,0,9
Y2-S2-094K22,6,549,PS,exp,25,↓,down,↓,1.0870793000794947,True,11,1,0,9
Y2-S2-094K22,6,550,PS,exp,39,↑,up,↑,0.7702883998863399,True,11,1,0,9
Y2-S2-094K22,6,551,PS,exp,32,↓,down,↓,0.7243277002125978,True,11,1,0,9
Y2-S2-094K22,6,552,PS,exp,37,←,left,←,0.6401658002287149,True,10,1,0,9
Y2-S2-094K22,6,553,PS,exp,36,→,right,→,0.7587097999639809,True,10,1,0,9
Y2-S2-094K22,6,554,PS,exp,36,↑,right,→,0.7124212998896837,False,10,-1,1,10
Y2-S2-094K22,6,555,PS,exp,39,←,left,←,0.5510519999079406,True,11,-1,0,10
Y2-S2-094K22,6,556,PS,exp,29,↑,up,↑,1.1868629003874958,True,11,-1,0,10
Y2-S2-094K22,6,557,PS,exp,29,↓,up,↑,0.7788917999714613,False,11,-1,0,10
Y2-S2-094K22,6,558,PS,exp,27,↑,up,↑,0.48278090031817555,True,12,-1,0,10
Y2-S2-094K22,6,559,PS,exp,42,←,left,←,0.5249840002506971,True,12,-1,0,10
Y2-S2-094K22,6,560,PS,exp,34,→,left,←,0.7506187004037201,False,12,-1,0,10
Y2-S2-094K22,6,561,PS,exp,36,←,up,↑,0.957653199788183,False,13,-1,0,10
Y2-S2-094K22,6,562,PS,exp,46,→,right,→,0.7879213001579046,True,14,-1,0,10
Y2-S2-094K22,6,563,PS,exp,34,↑,right,→,0.5262886001728475,False,14,-1,0,10
Y2-S2-094K22,6,564,PS,exp,48,↓,down,↓,0.7585030999034643,True,15,-1,0,10
Y2-S2-094K22,6,565,PS,exp,29,→,right,→,0.4751459998078644,True,15,-1,0,10
Y2-S2-094K22,6,566,PS,exp,36,↓,down,↓,0.5392068000510335,True,15,1,1,11
Y2-S2-094K22,6,567,PS,exp,27,→,right,→,0.5946506001055241,True,14,1,0,11
Y2-S2-094K22,6,568,PS,exp,33,←,left,←,0.5588744999840856,True,14,1,0,11
Y2-S2-094K22,6,569,PS,exp,31,→,right,→,0.7863320000469685,True,14,1,0,11
Y2-S2-094K22,6,570,PS,exp,41,↑,up,↑,1.1210292996838689,True,13,1,0,11
Y2-S2-094K22,6,571,PS,exp,42,←,left,←,0.48191590001806617,True,13,1,0,11
Y2-S2-094K22,6,572,PS,exp,50,↓,down,↓,1.4705606000497937,True,13,1,0,11
Y2-S2-094K22,6,573,PS,exp,42,↑,down,↓,0.6575977997854352,False,12,-1,1,12
Y2-S2-094K22,6,574,PS,exp,44,→,down,↓,1.0595078999176621,False,13,-1,0,12
Y2-S2-094K22,6,575,PS,exp,43,↓,down,↓,0.60463049961254,True,14,-1,0,12
Y2-S2-094K22,6,576,PS,exp,30,→,right,→,0.5964760999195278,True,14,-1,0,12
Y2-S2-094K22,6,577,PS,exp,46,←,left,←,0.6643373002298176,True,14,1,1,13
Y2-S2-094K22,6,578,PS,exp,42,↑,up,↑,0.8751020999625325,True,13,1,0,13
Y2-S2-094K22,6,579,PS,exp,40,↓,down,↓,0.7277779001742601,True,13,1,0,13
Y2-S2-094K22,6,580,PS,exp,50,←,left,←,0.539779799990356,True,13,1,0,13
Y2-S2-094K22,6,581,PS,exp,28,↑,up,↑,0.8834442999213934,True,12,1,0,13
Y2-S2-094K22,6,582,PS,exp,34,←,left,←,0.6252684998326004,True,12,1,0,13
Y2-S2-094K22,6,583,PS,exp,49,↑,up,↑,0.8097198000177741,True,12,1,0,13
Y2-S2-094K22,6,584,PS,exp,47,→,right,→,0.5888414001092315,True,11,1,0,13
Y2-S2-094K22,6,585,PS,exp,39,←,right,→,0.5242110001854599,False,11,-1,1,14
Y2-S2-094K22,6,586,PS,exp,38,→,left,←,0.838996899779886,False,12,-1,0,14
Y2-S2-094K22,6,587,PS,exp,30,←,left,←,0.49580859998241067,True,13,-1,0,14
Y2-S2-094K22,6,588,PS,exp,46,↓,down,↓,0.5294220997020602,True,13,-1,0,14
Y2-S2-094K22,6,589,PS,exp,48,↑,down,↓,1.2081875000149012,False,13,-1,0,14
Y2-S2-094K22,6,590,PS,exp,44,←,right,→,1.0988076999783516,False,14,-1,0,14
Y2-S2-094K22,6,591,PS,exp,50,↓,down,↓,0.7607514001429081,True,15,-1,0,14
Y2-S2-094K22,6,592,PS,exp,27,→,down,↓,0.7499533998779953,False,15,-1,0,14
Y2-S2-094K22,6,593,PS,exp,48,↑,up,↑,0.9292626995593309,True,16,-1,0,14
Y2-S2-094K22,6,594,PS,exp,47,→,right,→,0.5842528999783099,True,16,-1,0,14
Y2-S2-094K22,6,595,PS,exp,28,↑,right,→,0.4799572001211345,False,16,-1,0,14
Y2-S2-094K22,6,596,PS,exp,26,←,left,←,0.5414467002265155,True,17,-1,0,14
Y2-S2-094K22,6,597,PS,exp,27,↑,left,←,0.33439069986343384,False,17,-1,0,14
Y2-S2-094K22,6,598,PS,exp,48,←,left,←,0.6135799000039697,True,18,-1,0,14
Y2-S2-094K22,6,599,PS,exp,28,→,right,→,0.5356645998544991,True,18,-1,0,14
Y2-S2-094K22,6,600,PS,exp,25,↓,down,↓,0.858816800173372,True,18,1,1,15
Y2-S2-094K22,6,601,PS,exp,44,←,left,←,0.45434699999168515,True,17,1,0,15
Y2-S2-094K22,6,602,PS,exp,26,→,right,→,1.300594300031662,True,17,1,0,15
Y2-S2-094K22,6,603,PS,exp,50,←,left,←,0.5014915000647306,True,17,1,0,15
Y2-S2-094K22,6,604,PS,exp,32,↓,down,↓,0.7916413997299969,True,16,1,0,15
Y2-S2-094K22,6,605,PS,exp,47,←,left,←,0.5823067999444902,True,16,1,0,15
Y2-S2-094K22,6,606,PS,exp,33,↑,up,↑,0.7970182001590729,True,16,1,0,15
Y2-S2-094K22,6,607,PS,exp,35,←,left,←,0.47276969999074936,True,15,1,0,15
Y2-S2-094K22,6,608,PS,exp,25,→,right,→,0.829090700019151,True,15,1,0,15
Y2-S2-094K22,6,609,PS,exp,37,↓,down,↓,0.5779050998389721,True,15,1,0,15
Y2-S2-094K22,6,610,PS,exp,35,↑,up,↑,0.6770712998695672,True,14,1,0,15
Y2-S2-094K22,6,611,PS,exp,49,→,right,→,0.780791400000453,True,14,1,0,15
Y2-S2-094K22,6,612,PS,exp,46,↑,down,↓,0.7752872002311051,False,14,-1,1,16
Y2-S2-094K22,7,613,PS,intra_train,37,←,left,←,1.3119180002249777,True,19,-,-,-
Y2-S2-094K22,7,614,PS,intra_train,32,→,no_key,no_letter,-1.0,False,19,-,-,-
Y2-S2-094K22,7,615,PS,intra_train,26,↓,down,↓,0.9491820000112057,True,19,-,-,-
Y2-S2-094K22,7,616,PS,intra_train,41,←,left,←,0.5118424999527633,True,19,-,-,-
Y2-S2-094K22,7,617,PS,intra_train,38,↓,down,↓,1.813751899637282,True,19,-,-,-
Y2-S2-094K22,7,618,PS,exp,40,↑,up,↑,0.968426899984479,True,13,0,0,0
Y2-S2-094K22,7,619,PS,exp,43,→,right,→,0.5201920997351408,True,13,0,0,0
Y2-S2-094K22,7,620,PS,exp,34,↑,up,↑,0.5644699004478753,True,13,1,0,0
Y2-S2-094K22,7,621,PS,exp,38,→,left,←,0.6536290002986789,False,12,-1,1,1
Y2-S2-094K22,7,622,PS,exp,37,↑,up,↑,0.5218975003808737,True,13,-1,0,1
Y2-S2-094K22,7,623,PS,exp,33,↓,down,↓,0.6577969999052584,True,13,-1,0,1
Y2-S2-094K22,7,624,PS,exp,45,→,right,→,0.5531274997629225,True,13,1,1,2
Y2-S2-094K22,7,625,PS,exp,39,↑,up,↑,0.4806432998739183,True,12,1,0,2
Y2-S2-094K22,7,626,PS,exp,37,→,up,↑,0.6678057997487485,False,12,-1,1,3
Y2-S2-094K22,7,627,PS,exp,28,↑,up,↑,0.4405983001925051,True,13,-1,0,3
Y2-S2-094K22,7,628,PS,exp,26,←,left,←,0.5038764998316765,True,13,-1,0,3
Y2-S2-094K22,7,629,PS,exp,50,↑,up,↑,0.5167976999655366,True,13,1,1,4
Y2-S2-094K22,7,630,PS,exp,44,→,right,→,0.5060896999202669,True,12,1,0,4
Y2-S2-094K22,7,631,PS,exp,49,↓,up,↑,0.6992386002093554,False,12,-1,1,5
Y2-S2-094K22,7,632,PS,exp,27,←,left,←,0.6212563002482057,True,13,-1,0,5
Y2-S2-094K22,7,633,PS,exp,49,→,right,→,0.5502607999369502,True,13,-1,0,5
Y2-S2-094K22,7,634,PS,exp,30,←,left,←,0.48870239965617657,True,13,1,1,6
Y2-S2-094K22,7,635,PS,exp,44,→,right,→,0.5109737003222108,True,12,1,0,6
Y2-S2-094K22,7,636,PS,exp,41,↓,down,↓,1.2330880002118647,True,12,1,0,6
Y2-S2-094K22,7,637,PS,exp,39,↑,up,↑,0.6679213000461459,True,12,1,0,6
Y2-S2-094K22,7,638,PS,exp,35,→,right,→,0.47037909971550107,True,11,1,0,6
Y2-S2-094K22,7,639,PS,exp,43,↑,up,↑,0.46610449999570847,True,11,1,0,6
Y2-S2-094K22,7,640,PS,exp,46,↓,up,↑,0.8839078997261822,False,11,-1,1,7
Y2-S2-094K22,7,641,PS,exp,27,↑,up,↑,0.5503071001730859,True,12,-1,0,7
Y2-S2-094K22,7,642,PS,exp,42,↓,down,↓,0.8260490000247955,True,12,-1,0,7
Y2-S2-094K22,7,643,PS,exp,40,→,right,→,1.1239808998070657,True,12,1,1,8
Y2-S2-094K22,7,644,PS,exp,46,↓,down,↓,1.2593934000469744,True,11,1,0,8
Y2-S2-094K22,7,645,PS,exp,27,↑,up,↑,0.8712928998284042,True,11,1,0,8
Y2-S2-094K22,7,646,PS,exp,38,→,up,↑,0.7727127000689507,False,11,-1,1,9
Y2-S2-094K22,7,647,PS,exp,45,↓,down,↓,0.7575105996802449,True,12,-1,0,9
Y2-S2-094K22,7,648,PS,exp,36,→,left,←,0.9052801998332143,False,12,-1,0,9
Y2-S2-094K22,7,649,PS,exp,28,↑,up,↑,0.5883701997809112,True,13,-1,0,9
Y2-S2-094K22,7,650,PS,exp,27,→,right,→,0.4830836998298764,True,13,-1,0,9
Y2-S2-094K22,7,651,PS,exp,46,↑,up,↑,0.49688349990174174,True,13,1,1,10
Y2-S2-094K22,7,652,PS,exp,28,↓,up,↑,0.5928185000084341,False,12,-1,1,11
Y2-S2-094K22,7,653,PS,exp,36,↑,up,↑,1.2564202998764813,True,13,-1,0,11
Y2-S2-094K22,7,654,PS,exp,43,←,left,←,0.6821503997780383,True,13,-1,0,11
Y2-S2-094K22,7,655,PS,exp,41,↑,up,↑,0.43430119985714555,True,13,1,1,12
Y2-S2-094K22,7,656,PS,exp,40,↓,down,↓,0.6016134000383317,True,12,1,0,12
Y2-S2-094K22,7,657,PS,exp,33,←,left,←,0.5534596997313201,True,12,1,0,12
Y2-S2-094K22,7,658,PS,exp,32,↓,up,↑,0.5691824997775257,False,12,-1,1,13
Y2-S2-094K22,7,659,PS,exp,48,↑,up,↑,0.6916298000141978,True,13,-1,0,13
Y2-S2-094K22,7,660,PS,exp,27,↓,down,↓,0.6059747999534011,True,13,-1,0,13
Y2-S2-094K22,7,661,PS,exp,45,↑,up,↑,0.4372302000410855,True,13,1,1,14
Y2-S2-094K22,7,662,PS,exp,44,→,right,→,0.693877600133419,True,12,1,0,14
Y2-S2-094K22,7,663,PS,exp,50,↑,up,↑,0.5875844997353852,True,12,1,0,14
Y2-S2-094K22,7,664,PS,exp,39,↓,up,↑,0.5419029002077878,False,12,-1,1,15
Y2-S2-094K22,7,665,PS,exp,43,→,right,→,0.47250449983403087,True,13,-1,0,15
Y2-S2-094K22,7,666,PS,exp,29,←,up,↑,0.5735043999738991,False,13,-1,0,15
Y2-S2-094K22,7,667,PS,exp,36,→,up,↑,0.459769600071013,False,14,-1,0,15
Y2-S2-094K22,7,668,PS,exp,42,←,no_key,no_letter,-1.0,False,15,-1,0,15
Y2-S2-094K22,7,669,PS,exp,41,↓,down,↓,0.9348479001782835,True,16,-1,0,15
Y2-S2-094K22,7,670,PS,exp,41,→,right,→,0.45400659972801805,True,16,-1,0,15
Y2-S2-094K22,7,671,PS,exp,43,↑,up,↑,0.6268461002036929,True,16,1,1,16
Y2-S2-094K22,8,672,AS,intra_train,37,←,right,→,0.5176038998179138,False,34,-,-,-
Y2-S2-094K22,8,673,AS,intra_train,47,→,left,←,0.5670961001887918,False,34,-,-,-
Y2-S2-094K22,8,674,AS,intra_train,32,↑,up,↑,1.4890207001008093,True,34,-,-,-
Y2-S2-094K22,8,675,AS,intra_train,35,←,left,←,0.567223499994725,True,34,-,-,-
Y2-S2-094K22,8,676,AS,intra_train,35,→,right,→,0.45087929954752326,True,34,-,-,-
Y2-S2-094K22,8,677,AS,exp,34,↑,up,↑,0.6461579999886453,True,23,0,0,0
Y2-S2-094K22,8,678,AS,exp,50,↓,up,↑,0.6561106001026928,False,23,-1,0,0
Y2-S2-094K22,8,679,AS,exp,47,↑,up,↑,0.4513813001103699,True,24,-1,0,0
Y2-S2-094K22,8,680,AS,exp,50,→,right,→,0.5003438000567257,True,24,-1,0,0
Y2-S2-094K22,8,681,AS,exp,31,↓,up,↑,0.8791024000383914,False,24,-1,0,0
Y2-S2-094K22,8,682,AS,exp,26,↑,up,↑,0.6968171000480652,True,25,-1,0,0
Y2-S2-094K22,8,683,AS,exp,43,↓,down,↓,1.2476087999530137,True,25,-1,0,0
Y2-S2-094K22,8,684,AS,exp,37,→,right,→,0.43400159990414977,True,25,1,1,1
Y2-S2-094K22,8,685,AS,exp,46,←,left,←,0.9883774002082646,True,24,1,0,1
Y2-S2-094K22,8,686,AS,exp,44,↓,down,↓,0.9952761000022292,True,24,1,0,1
Y2-S2-094K22,8,687,AS,exp,50,→,right,→,0.6530892001464963,True,24,1,0,1
Y2-S2-094K22,8,688,AS,exp,34,↑,up,↑,1.1520123002119362,True,23,1,0,1
Y2-S2-094K22,8,689,AS,exp,42,←,left,←,0.843673299998045,True,23,1,0,1
Y2-S2-094K22,8,690,AS,exp,27,↓,left,←,0.83815550012514,False,23,-1,1,2
Y2-S2-094K22,8,691,AS,exp,38,←,left,←,0.5987051003612578,True,24,-1,0,2
Y2-S2-094K22,8,692,AS,exp,50,↑,up,↑,0.9066165001131594,True,24,-1,0,2
Y2-S2-094K22,8,693,AS,exp,36,↓,down,↓,1.0979083003476262,True,24,1,1,3
Y2-S2-094K22,8,694,AS,exp,50,←,left,←,0.4678736999630928,True,23,1,0,3
Y2-S2-094K22,8,695,AS,exp,28,↓,down,↓,1.0556461000815034,True,23,1,0,3
Y2-S2-094K22,8,696,AS,exp,38,→,right,→,1.6644835998304188,True,23,1,0,3
Y2-S2-094K22,8,697,AS,exp,28,↑,up,↑,0.9065354997292161,True,22,1,0,3
Y2-S2-094K22,8,698,AS,exp,35,↓,down,↓,0.5373487998731434,True,22,1,0,3
Y2-S2-094K22,8,699,AS,exp,32,↑,left,←,1.0201217997819185,False,22,-1,1,4
Y2-S2-094K22,8,700,AS,exp,34,←,left,←,0.7490163003094494,True,23,-1,0,4
Y2-S2-094K22,8,701,AS,exp,35,↑,up,↑,0.6498338999226689,True,23,-1,0,4
Y2-S2-094K22,8,702,AS,exp,45,→,right,→,1.2662894004024565,True,23,1,1,5
Y2-S2-094K22,8,703,AS,exp,44,↑,up,↑,0.6429884997196496,True,22,1,0,5
Y2-S2-094K22,8,704,AS,exp,36,↓,down,↓,0.8864136999472976,True,22,1,0,5
Y2-S2-094K22,8,705,AS,exp,27,→,right,→,0.7430771999061108,True,22,1,0,5
Y2-S2-094K22,8,706,AS,exp,43,↓,down,↓,0.8539255000650883,True,21,1,0,5
Y2-S2-094K22,8,707,AS,exp,36,←,no_key,no_letter,-1.0,False,21,-1,1,6
Y2-S2-094K22,8,708,AS,exp,35,→,right,→,0.6902554999105632,True,22,-1,0,6
Y2-S2-094K22,8,709,AS,exp,34,↓,down,↓,0.5951377996243536,True,22,-1,0,6
Y2-S2-094K22,8,710,AS,exp,33,↑,down,↓,0.8831515996716917,False,22,-1,0,6
Y2-S2-094K22,8,711,AS,exp,32,→,right,→,0.7438903003931046,True,23,-1,0,6
Y2-S2-094K22,8,712,AS,exp,40,↓,down,↓,0.7649154998362064,True,23,-1,0,6
Y2-S2-094K22,8,713,AS,exp,43,↑,up,↑,1.0511356997303665,True,23,1,1,7
Y2-S2-094K22,8,714,AS,exp,45,←,left,←,1.1157380999065936,True,22,1,0,7
Y2-S2-094K22,8,715,AS,exp,42,→,right,→,0.6318800002336502,True,22,1,0,7
Y2-S2-094K22,8,716,AS,exp,26,↓,down,↓,1.0256406995467842,True,22,1,0,7
Y2-S2-094K22,8,717,AS,exp,27,←,left,←,0.7258576997555792,True,21,1,0,7
Y2-S2-094K22,8,718,AS,exp,48,↓,down,↓,0.5381391001865268,True,21,1,0,7
Y2-S2-094K22,8,719,AS,exp,37,↑,down,↓,0.8829761003144085,False,21,-1,1,8
Y2-S2-094K22,8,720,AS,exp,39,↓,down,↓,0.5769193996675313,True,22,-1,0,8
Y2-S2-094K22,8,721,AS,exp,46,←,left,←,0.5572389997541904,True,22,-1,0,8
Y2-S2-094K22,8,722,AS,exp,30,↑,up,↑,1.273675199598074,True,22,1,1,9
Y2-S2-094K22,8,723,AS,exp,43,↓,down,↓,0.6427722000516951,True,21,1,0,9
Y2-S2-094K22,8,724,AS,exp,29,→,right,→,0.6664069998078048,True,21,1,0,9
Y2-S2-094K22,8,725,AS,exp,49,←,left,←,0.6923193000257015,True,21,1,0,9
Y2-S2-094K22,8,726,AS,exp,27,↓,down,↓,0.9931088997982442,True,20,1,0,9
Y2-S2-094K22,8,727,AS,exp,49,→,right,→,1.3593538999557495,True,20,1,0,9
Y2-S2-094K22,8,728,AS,exp,38,↓,no_key,no_letter,-1.0,False,20,-1,1,10
Y2-S2-094K22,8,729,AS,exp,44,→,right,→,0.9724160996265709,True,21,-1,0,10
Y2-S2-094K22,8,730,AS,exp,31,↓,down,↓,0.7276499001309276,True,21,-1,0,10
Y2-S2-094K22,8,731,AS,exp,32,→,right,→,0.6541820000857115,True,21,1,1,11
Y2-S2-094K22,8,732,AS,exp,37,←,left,←,0.5719468002207577,True,20,1,0,11
Y2-S2-094K22,8,733,AS,exp,28,↓,down,↓,0.837100800126791,True,20,1,0,11
Y2-S2-094K22,8,734,AS,exp,31,↑,up,↑,0.7416791999712586,True,20,1,0,11
Y2-S2-094K22,8,735,AS,exp,44,↓,down,↓,0.9112567002885044,True,19,1,0,11
Y2-S2-094K22,8,736,AS,exp,29,→,right,→,0.522403699811548,True,19,1,0,11
Y2-S2-094K22,8,737,AS,exp,48,↑,up,↑,0.7681039003655314,True,19,1,0,11
Y2-S2-094K22,8,738,AS,exp,45,→,up,↑,1.304794100113213,False,18,-1,1,12
Y2-S2-094K22,8,739,AS,exp,27,↓,down,↓,0.9216082999482751,True,19,-1,0,12
Y2-S2-094K22,8,740,AS,exp,33,→,left,←,0.981710399966687,False,19,-1,0,12
Y2-S2-094K22,8,741,AS,exp,46,↓,down,↓,1.4776960001327097,True,20,-1,0,12
Y2-S2-094K22,8,742,AS,exp,39,←,left,←,0.9555160999298096,True,20,-1,0,12
Y2-S2-094K22,8,743,AS,exp,41,→,right,→,0.7827858999371529,True,20,1,1,13
Y2-S2-094K22,8,744,AS,exp,46,↑,up,↑,1.1239114003255963,True,19,1,0,13
Y2-S2-094K22,8,745,AS,exp,49,↓,down,↓,0.6801004000008106,True,19,1,0,13
Y2-S2-094K22,8,746,AS,exp,38,←,left,←,1.0662432997487485,True,19,1,0,13
Y2-S2-094K22,8,747,AS,exp,48,→,right,→,0.893794999923557,True,18,1,0,13
Y2-S2-094K22,8,748,AS,exp,31,↑,up,↑,1.1123632998205721,True,18,1,0,13
Y2-S2-094K22,8,749,AS,exp,47,←,left,←,1.5200765999034047,True,18,1,0,13
Y2-S2-094K22,8,750,AS,exp,37,→,right,→,0.6240178998559713,True,17,1,0,13
Y2-S2-094K22,8,751,AS,exp,27,←,left,←,1.284841800108552,True,17,1,0,13
Y2-S2-094K22,8,752,AS,exp,35,↓,down,↓,0.8666897998191416,True,17,1,0,13
Y2-S2-094K22,8,753,AS,exp,28,←,down,↓,1.3841764000244439,False,16,-1,1,14
Y2-S2-094K22,8,754,AS,exp,28,↓,down,↓,0.5242396001704037,True,17,-1,0,14
Y2-S2-094K22,8,755,AS,exp,48,→,left,←,1.4881675001233816,False,17,-1,0,14
Y2-S2-094K22,8,756,AS,exp,32,↓,right,→,1.6338809998705983,False,18,-1,0,14
Y2-S2-094K22,8,757,AS,exp,47,→,right,→,0.69812719989568,True,19,-1,0,14
Y2-S2-094K22,8,758,AS,exp,50,←,left,←,0.5152558996342123,True,19,-1,0,14
Y2-S2-094K22,8,759,AS,exp,37,→,right,→,0.7478924999013543,True,19,1,1,15
Y2-S2-094K22,8,760,AS,exp,44,↓,down,↓,0.6776463999412954,True,18,1,0,15
Y2-S2-094K22,8,761,AS,exp,43,↑,up,↑,1.1898988001048565,True,18,1,0,15
Y2-S2-094K22,8,762,AS,exp,41,←,left,←,0.7606959999538958,True,18,1,0,15
Y2-S2-094K22,8,763,AS,exp,25,→,no_key,no_letter,-1.0,False,17,-1,1,16
