PART_ID,Block_no,Trial_no,Block_type,Trial_type,CSI,Stim_letter,Key_pressed,letter_choose,Rt,Corr,Stimulus Time,Level,Reversal,Revs_count
Y2-S2-030K23,1,1,PS,train,44,↓,down,↓,1.2575878999195993,True,30,-,-,-
Y2-S2-030K23,1,2,PS,train,34,→,right,→,0.8529573001433164,True,30,-,-,-
Y2-S2-030K23,1,3,PS,train,38,↓,down,↓,1.3193602000828832,True,30,-,-,-
Y2-S2-030K23,1,4,PS,train,33,↑,up,↑,0.7568785001058131,True,30,-,-,-
Y2-S2-030K23,1,5,PS,train,50,←,left,←,0.8948521998245269,True,30,-,-,-
Y2-S2-030K23,1,6,PS,train,41,↑,up,↑,0.805618799990043,True,30,-,-,-
Y2-S2-030K23,1,7,PS,train,35,↓,down,↓,0.8774828999303281,True,30,-,-,-
Y2-S2-030K23,1,8,PS,train,32,←,right,→,0.5341908000409603,False,30,-,-,-
Y2-S2-030K23,1,9,PS,train,31,↑,up,↑,0.9164084000512958,True,30,-,-,-
Y2-S2-030K23,1,10,PS,train,29,→,right,→,0.8282766998745501,True,30,-,-,-
Y2-S2-030K23,2,11,AS,train,33,↓,down,↓,0.9992148000746965,True,45,-,-,-
Y2-S2-030K23,2,12,AS,train,25,←,left,←,0.6510583001654595,True,45,-,-,-
Y2-S2-030K23,2,13,AS,train,28,↑,up,↑,0.8503367002122104,True,45,-,-,-
Y2-S2-030K23,2,14,AS,train,32,↓,down,↓,0.6843342001084238,True,45,-,-,-
Y2-S2-030K23,2,15,AS,train,25,←,left,←,0.6347523999866098,True,45,-,-,-
Y2-S2-030K23,2,16,AS,train,43,→,right,→,0.7179333998356014,True,45,-,-,-
Y2-S2-030K23,2,17,AS,train,29,←,left,←,0.8344153000507504,True,45,-,-,-
Y2-S2-030K23,2,18,AS,train,41,↑,up,↑,0.5012397000100464,True,45,-,-,-
Y2-S2-030K23,2,19,AS,train,35,→,right,→,0.8173175000119954,True,45,-,-,-
Y2-S2-030K23,2,20,AS,train,32,↑,up,↑,0.8007171000353992,True,45,-,-,-
Y2-S2-030K23,-,21,PS,adaptive,33,↓,right,→,1.8152681000065058,False,10,-1,0,0
Y2-S2-030K23,-,22,PS,adaptive,46,→,right,→,1.0597210000269115,True,11,-1,0,0
Y2-S2-030K23,-,23,PS,adaptive,47,↑,down,↓,1.2775493001099676,False,11,-1,0,0
Y2-S2-030K23,-,24,PS,adaptive,34,→,left,←,1.4991280001122504,False,12,-1,0,0
Y2-S2-030K23,-,25,PS,adaptive,45,←,left,←,0.9960121000185609,True,13,-1,0,0
Y2-S2-030K23,-,26,PS,adaptive,40,↓,right,→,1.1316208001226187,False,13,-1,0,0
Y2-S2-030K23,-,27,PS,adaptive,31,←,right,→,1.1698151000309736,False,14,-1,0,0
Y2-S2-030K23,-,28,PS,adaptive,34,↑,up,↑,0.9861021998804063,True,15,-1,0,0
Y2-S2-030K23,-,29,PS,adaptive,47,↓,down,↓,0.9620056999847293,True,15,-1,0,0
Y2-S2-030K23,-,30,PS,adaptive,30,↑,down,↓,1.0464205001480877,False,15,-1,0,0
Y2-S2-030K23,-,31,PS,adaptive,48,→,right,→,0.8225217000581324,True,16,-1,0,0
Y2-S2-030K23,-,32,PS,adaptive,43,↑,up,↑,0.8050973999779671,True,16,-1,0,0
Y2-S2-030K23,-,33,PS,adaptive,38,←,left,←,0.7194846000056714,True,16,1,1,1
Y2-S2-030K23,-,34,PS,adaptive,48,→,right,→,0.9205853999592364,True,15,1,0,1
Y2-S2-030K23,-,35,PS,adaptive,34,←,left,←,0.6689654001966119,True,15,1,0,1
Y2-S2-030K23,-,36,PS,adaptive,40,↓,down,↓,0.853010900085792,True,15,1,0,1
Y2-S2-030K23,-,37,PS,adaptive,47,→,right,→,0.9572195000946522,True,14,1,0,1
Y2-S2-030K23,-,38,PS,adaptive,32,↓,down,↓,0.9700629999861121,True,14,1,0,1
Y2-S2-030K23,-,39,PS,adaptive,48,↑,left,←,0.8794422999490052,False,14,-1,1,2
Y2-S2-030K23,-,40,PS,adaptive,27,→,right,→,0.8774761999957263,True,15,-1,0,2
Y2-S2-030K23,-,41,PS,adaptive,48,↓,down,↓,0.9297339001204818,True,15,-1,0,2
Y2-S2-030K23,-,42,PS,adaptive,41,↑,up,↑,0.8455397998914123,True,15,1,1,3
Y2-S2-030K23,-,43,PS,adaptive,29,→,right,→,0.7398035998921841,True,14,1,0,3
Y2-S2-030K23,-,44,PS,adaptive,48,↑,up,↑,1.0537062000948936,True,14,1,0,3
Y2-S2-030K23,-,45,PS,adaptive,36,↓,right,→,0.9568289001472294,False,14,-1,1,4
Y2-S2-030K23,-,46,AS,adaptive,49,→,right,→,0.8207620000466704,True,20,0,0,0
Y2-S2-030K23,-,47,AS,adaptive,36,←,left,←,0.9236888999585062,True,20,0,0,0
Y2-S2-030K23,-,48,AS,adaptive,45,→,right,→,0.8181552002206445,True,20,1,0,0
Y2-S2-030K23,-,49,AS,adaptive,27,←,left,←,0.5360404998064041,True,19,1,0,0
Y2-S2-030K23,-,50,AS,adaptive,37,↓,down,↓,0.9897467000409961,True,19,1,0,0
Y2-S2-030K23,-,51,AS,adaptive,39,←,right,→,0.9949918000493199,False,19,-1,1,1
Y2-S2-030K23,-,52,AS,adaptive,28,↓,down,↓,0.8939788001589477,True,20,-1,0,1
Y2-S2-030K23,-,53,AS,adaptive,36,↑,up,↑,0.7768638001289219,True,20,-1,0,1
Y2-S2-030K23,-,54,AS,adaptive,32,↓,down,↓,0.6937786000780761,True,20,1,1,2
Y2-S2-030K23,-,55,AS,adaptive,28,→,right,→,0.6510004000738263,True,19,1,0,2
Y2-S2-030K23,-,56,AS,adaptive,41,↓,down,↓,0.7740357001312077,True,19,1,0,2
Y2-S2-030K23,-,57,AS,adaptive,25,←,left,←,1.0865019999910146,True,19,1,0,2
Y2-S2-030K23,-,58,AS,adaptive,40,↓,down,↓,0.5906499000266194,True,18,1,0,2
Y2-S2-030K23,-,59,AS,adaptive,33,→,right,→,0.7924703999888152,True,18,1,0,2
Y2-S2-030K23,-,60,AS,adaptive,38,↓,down,↓,0.9641277000773698,True,18,1,0,2
Y2-S2-030K23,-,61,AS,adaptive,27,→,left,←,0.757828899892047,False,17,-1,1,3
Y2-S2-030K23,-,62,AS,adaptive,31,←,left,←,0.5907984001096338,True,18,-1,0,3
Y2-S2-030K23,-,63,AS,adaptive,45,↑,down,↓,0.949476599926129,False,18,-1,0,3
Y2-S2-030K23,-,64,AS,adaptive,43,←,left,←,0.9131879000924528,True,19,-1,0,3
Y2-S2-030K23,-,65,AS,adaptive,48,↓,down,↓,0.7908516000024974,True,19,-1,0,3
Y2-S2-030K23,-,66,AS,adaptive,25,←,left,←,0.5697337000165135,True,19,1,1,4
Y2-S2-030K23,1,67,PS,intra_train,28,→,right,→,0.9891150998882949,True,22,-,-,-
Y2-S2-030K23,1,68,PS,intra_train,48,←,left,←,0.8557055001147091,True,22,-,-,-
Y2-S2-030K23,1,69,PS,intra_train,33,→,right,→,0.8796230000443757,True,22,-,-,-
Y2-S2-030K23,1,70,PS,intra_train,33,↓,down,↓,0.761441099923104,True,22,-,-,-
Y2-S2-030K23,1,71,PS,intra_train,39,↑,up,↑,0.7898895998951048,True,22,-,-,-
Y2-S2-030K23,1,72,PS,exp,37,←,left,←,0.70948850014247,True,15,0,0,0
Y2-S2-030K23,1,73,PS,exp,50,→,right,→,0.8415383000392467,True,15,0,0,0
Y2-S2-030K23,1,74,PS,exp,46,←,left,←,0.9567795000039041,True,15,1,0,0
Y2-S2-030K23,1,75,PS,exp,30,↓,down,↓,0.8939089002087712,True,14,1,0,0
Y2-S2-030K23,1,76,PS,exp,38,→,right,→,0.8306041001342237,True,14,1,0,0
Y2-S2-030K23,1,77,PS,exp,30,↓,down,↓,0.77596680005081,True,14,1,0,0
Y2-S2-030K23,1,78,PS,exp,33,→,right,→,0.6963130000513047,True,13,1,0,0
Y2-S2-030K23,1,79,PS,exp,45,↑,up,↑,0.6788415999617428,True,13,1,0,0
Y2-S2-030K23,1,80,PS,exp,50,←,left,←,0.6706381000112742,True,13,1,0,0
Y2-S2-030K23,1,81,PS,exp,38,→,right,→,0.8056123999413103,True,12,1,0,0
Y2-S2-030K23,1,82,PS,exp,40,↓,down,↓,0.8351507999468595,True,12,1,0,0
Y2-S2-030K23,1,83,PS,exp,34,←,right,→,0.9050785999279469,False,12,-1,1,1
Y2-S2-030K23,1,84,PS,exp,42,→,right,→,0.6523539000190794,True,13,-1,0,1
Y2-S2-030K23,1,85,PS,exp,28,↑,down,↓,0.8646769998595119,False,13,-1,0,1
Y2-S2-030K23,1,86,PS,exp,44,→,right,→,0.7497060999739915,True,14,-1,0,1
Y2-S2-030K23,1,87,PS,exp,32,↓,down,↓,0.7378264002036303,True,14,-1,0,1
Y2-S2-030K23,1,88,PS,exp,36,←,left,←,1.070358800003305,True,14,1,1,2
Y2-S2-030K23,1,89,PS,exp,37,↑,up,↑,0.8925656001083553,True,13,1,0,2
Y2-S2-030K23,1,90,PS,exp,46,→,right,→,0.7987989000976086,True,13,1,0,2
Y2-S2-030K23,1,91,PS,exp,35,↑,up,↑,1.0305880999658257,True,13,1,0,2
Y2-S2-030K23,1,92,PS,exp,45,←,left,←,0.8804965000599623,True,12,1,0,2
Y2-S2-030K23,1,93,PS,exp,25,↓,down,↓,1.0266344000119716,True,12,1,0,2
Y2-S2-030K23,1,94,PS,exp,31,→,right,→,0.8379917000420392,True,12,1,0,2
Y2-S2-030K23,1,95,PS,exp,34,←,right,→,1.1046875000465661,False,11,-1,1,3
Y2-S2-030K23,1,96,PS,exp,34,→,left,←,1.1726645999588072,False,12,-1,0,3
Y2-S2-030K23,1,97,PS,exp,36,↑,up,↑,1.5109747999813408,True,13,-1,0,3
Y2-S2-030K23,1,98,PS,exp,46,→,right,→,0.8188606000039726,True,13,-1,0,3
Y2-S2-030K23,1,99,PS,exp,44,↓,down,↓,1.0408427000511438,True,13,1,1,4
Y2-S2-030K23,1,100,PS,exp,39,↑,up,↑,0.9911818001419306,True,12,1,0,4
Y2-S2-030K23,1,101,PS,exp,42,↓,down,↓,1.0309297998901457,True,12,1,0,4
Y2-S2-030K23,1,102,PS,exp,49,→,right,→,0.6835459000431001,True,12,1,0,4
Y2-S2-030K23,1,103,PS,exp,32,←,right,→,0.810964799951762,False,11,-1,1,5
Y2-S2-030K23,1,104,PS,exp,37,↑,up,↑,0.8140141000039876,True,12,-1,0,5
Y2-S2-030K23,1,105,PS,exp,40,←,right,→,0.9276732001453638,False,12,-1,0,5
Y2-S2-030K23,1,106,PS,exp,39,→,right,→,0.6842525999527425,True,13,-1,0,5
Y2-S2-030K23,1,107,PS,exp,50,↑,up,↑,0.7100174999795854,True,13,-1,0,5
Y2-S2-030K23,1,108,PS,exp,31,→,right,→,0.8922596999909729,True,13,1,1,6
Y2-S2-030K23,1,109,PS,exp,36,↑,up,↑,0.9426370998844504,True,12,1,0,6
Y2-S2-030K23,1,110,PS,exp,40,←,right,→,1.2107482999563217,False,12,-1,1,7
Y2-S2-030K23,1,111,PS,exp,48,↓,down,↓,0.7254860999528319,True,13,-1,0,7
Y2-S2-030K23,1,112,PS,exp,33,→,right,→,0.4869635000359267,True,13,-1,0,7
Y2-S2-030K23,1,113,PS,exp,38,↓,down,↓,0.6789146000519395,True,13,1,1,8
Y2-S2-030K23,1,114,PS,exp,29,↑,up,↑,0.5929515999741852,True,12,1,0,8
Y2-S2-030K23,1,115,PS,exp,44,←,left,←,1.0765315999742597,True,12,1,0,8
Y2-S2-030K23,1,116,PS,exp,46,→,right,→,0.6650698999874294,True,12,1,0,8
Y2-S2-030K23,1,117,PS,exp,33,↓,left,←,0.9514514999464154,False,11,-1,1,9
Y2-S2-030K23,1,118,PS,exp,40,←,right,→,0.8521034999284893,False,12,-1,0,9
Y2-S2-030K23,1,119,PS,exp,48,↑,up,↑,0.8609040000010282,True,13,-1,0,9
Y2-S2-030K23,1,120,PS,exp,37,↓,down,↓,0.8728891999926418,True,13,-1,0,9
Y2-S2-030K23,1,121,PS,exp,41,←,left,←,0.9091407000087202,True,13,1,1,10
Y2-S2-030K23,1,122,PS,exp,31,↑,right,→,1.1033890000544488,False,12,-1,1,11
Y2-S2-030K23,1,123,PS,exp,36,←,left,←,0.7639949000440538,True,13,-1,0,11
Y2-S2-030K23,1,124,PS,exp,44,↓,down,↓,0.951165100093931,True,13,-1,0,11
Y2-S2-030K23,1,125,PS,exp,41,→,right,→,0.8146794999483973,True,13,1,1,12
Y2-S2-030K23,1,126,PS,exp,44,↓,down,↓,0.8635941999964416,True,12,1,0,12
Y2-S2-030K23,1,127,PS,exp,28,→,right,→,0.6937613000627607,True,12,1,0,12
Y2-S2-030K23,1,128,PS,exp,44,↓,down,↓,0.7097426999825984,True,12,1,0,12
Y2-S2-030K23,1,129,PS,exp,35,←,left,←,0.550190299982205,True,11,1,0,12
Y2-S2-030K23,1,130,PS,exp,45,↓,down,↓,0.6855413999874145,True,11,1,0,12
Y2-S2-030K23,1,131,PS,exp,40,↑,right,→,0.7555480999872088,False,11,-1,1,13
Y2-S2-030K23,1,132,PS,exp,32,→,right,→,0.8194471998140216,True,12,-1,0,13
Y2-S2-030K23,1,133,PS,exp,47,↑,right,→,1.0800120998173952,False,12,-1,0,13
Y2-S2-030K23,1,134,PS,exp,31,↓,down,↓,1.0548841001000255,True,13,-1,0,13
Y2-S2-030K23,1,135,PS,exp,31,→,right,→,0.758079000050202,True,13,-1,0,13
Y2-S2-030K23,1,136,PS,exp,32,↑,up,↑,0.7454552000854164,True,13,1,1,14
Y2-S2-030K23,1,137,PS,exp,36,←,left,←,0.7672010001260787,True,12,1,0,14
Y2-S2-030K23,1,138,PS,exp,49,↑,up,↑,0.8008274999447167,True,12,1,0,14
Y2-S2-030K23,1,139,PS,exp,48,↓,up,↑,1.1325103999115527,False,12,-1,1,15
Y2-S2-030K23,1,140,PS,exp,26,→,left,←,0.8454538001678884,False,13,-1,0,15
Y2-S2-030K23,1,141,PS,exp,45,↑,up,↑,0.8723206000868231,True,14,-1,0,15
Y2-S2-030K23,1,142,PS,exp,46,→,right,→,1.2727002000901848,True,14,-1,0,15
Y2-S2-030K23,1,143,PS,exp,25,↑,up,↑,1.016063699964434,True,14,1,1,16
Y2-S2-030K23,2,144,AS,intra_train,49,↓,down,↓,1.0334813999943435,True,27,-,-,-
Y2-S2-030K23,2,145,AS,intra_train,38,→,right,→,0.7928365999832749,True,27,-,-,-
Y2-S2-030K23,2,146,AS,intra_train,32,↑,up,↑,0.9599452000111341,True,27,-,-,-
Y2-S2-030K23,2,147,AS,intra_train,43,←,left,←,0.8142674998380244,True,27,-,-,-
Y2-S2-030K23,2,148,AS,intra_train,44,→,right,→,0.6538806001190096,True,27,-,-,-
Y2-S2-030K23,2,149,AS,exp,38,←,right,→,0.8989942001644522,False,18,-1,0,0
Y2-S2-030K23,2,150,AS,exp,32,↑,up,↑,0.56034000008367,True,19,-1,0,0
Y2-S2-030K23,2,151,AS,exp,39,↓,down,↓,0.8863939000293612,True,19,-1,0,0
Y2-S2-030K23,2,152,AS,exp,31,↑,up,↑,0.5462491998914629,True,19,1,1,1
Y2-S2-030K23,2,153,AS,exp,41,↓,down,↓,0.6266982001252472,True,18,1,0,1
Y2-S2-030K23,2,154,AS,exp,25,←,left,←,0.5476627999451011,True,18,1,0,1
Y2-S2-030K23,2,155,AS,exp,50,↓,down,↓,1.0817438999656588,True,18,1,0,1
Y2-S2-030K23,2,156,AS,exp,42,↑,right,→,1.119699499802664,False,17,-1,1,2
Y2-S2-030K23,2,157,AS,exp,37,→,right,→,0.7850466999225318,True,18,-1,0,2
Y2-S2-030K23,2,158,AS,exp,46,←,right,→,0.7181921999435872,False,18,-1,0,2
Y2-S2-030K23,2,159,AS,exp,32,↓,down,↓,0.8077811999246478,True,19,-1,0,2
Y2-S2-030K23,2,160,AS,exp,25,→,right,→,0.7192657999694347,True,19,-1,0,2
Y2-S2-030K23,2,161,AS,exp,49,←,left,←,0.7004533000290394,True,19,1,1,3
Y2-S2-030K23,2,162,AS,exp,29,↓,down,↓,0.8169756999704987,True,18,1,0,3
Y2-S2-030K23,2,163,AS,exp,32,←,left,←,1.1375564998015761,True,18,1,0,3
Y2-S2-030K23,2,164,AS,exp,25,↑,right,→,1.0109072998166084,False,18,-1,1,4
Y2-S2-030K23,2,165,AS,exp,34,→,right,→,0.8703817999921739,True,19,-1,0,4
Y2-S2-030K23,2,166,AS,exp,38,←,left,←,0.6191690000705421,True,19,-1,0,4
Y2-S2-030K23,2,167,AS,exp,35,↓,down,↓,0.7548913999926299,True,19,1,1,5
Y2-S2-030K23,2,168,AS,exp,41,↑,down,↓,1.0265985999722034,False,18,-1,1,6
Y2-S2-030K23,2,169,AS,exp,29,→,right,→,0.6530323000624776,True,19,-1,0,6
Y2-S2-030K23,2,170,AS,exp,37,←,left,←,0.5281056999228895,True,19,-1,0,6
Y2-S2-030K23,2,171,AS,exp,41,↑,up,↑,0.6792599000036716,True,19,1,1,7
Y2-S2-030K23,2,172,AS,exp,37,→,right,→,0.6760774001013488,True,18,1,0,7
Y2-S2-030K23,2,173,AS,exp,46,←,left,←,0.5402701999992132,True,18,1,0,7
Y2-S2-030K23,2,174,AS,exp,41,→,right,→,0.6920167999342084,True,18,1,0,7
Y2-S2-030K23,2,175,AS,exp,32,↑,right,→,0.7909363000653684,False,17,-1,1,8
Y2-S2-030K23,2,176,AS,exp,30,↓,down,↓,0.8304953000042588,True,18,-1,0,8
Y2-S2-030K23,2,177,AS,exp,45,←,right,→,0.7269025999121368,False,18,-1,0,8
Y2-S2-030K23,2,178,AS,exp,42,↑,down,↓,0.8773348000831902,False,19,-1,0,8
Y2-S2-030K23,2,179,AS,exp,40,←,left,←,0.60303910006769,True,20,-1,0,8
Y2-S2-030K23,2,180,AS,exp,27,→,right,→,0.6295066000893712,True,20,-1,0,8
Y2-S2-030K23,2,181,AS,exp,33,↓,down,↓,0.8547855999786407,True,20,1,1,9
Y2-S2-030K23,2,182,AS,exp,36,→,left,←,1.0023550000041723,False,19,-1,1,10
Y2-S2-030K23,2,183,AS,exp,49,↑,up,↑,0.9360957001335919,True,20,-1,0,10
Y2-S2-030K23,2,184,AS,exp,50,→,right,→,0.7462946998421103,True,20,-1,0,10
Y2-S2-030K23,2,185,AS,exp,26,←,left,←,0.7545668999664485,True,20,1,1,11
Y2-S2-030K23,2,186,AS,exp,41,→,right,→,0.7353307998273522,True,19,1,0,11
Y2-S2-030K23,2,187,AS,exp,46,↓,down,↓,1.1691662999801338,True,19,1,0,11
Y2-S2-030K23,2,188,AS,exp,41,↑,up,↑,0.7682177000679076,True,19,1,0,11
Y2-S2-030K23,2,189,AS,exp,34,↓,down,↓,0.6533444998785853,True,18,1,0,11
Y2-S2-030K23,2,190,AS,exp,50,↑,up,↑,0.7937004999257624,True,18,1,0,11
Y2-S2-030K23,2,191,AS,exp,41,←,left,←,0.7170512999873608,True,18,1,0,11
Y2-S2-030K23,2,192,AS,exp,26,↑,down,↓,0.9160128999501467,False,17,-1,1,12
Y2-S2-030K23,2,193,AS,exp,38,↓,down,↓,0.6480646999552846,True,18,-1,0,12
Y2-S2-030K23,2,194,AS,exp,34,→,right,→,0.6271911000367254,True,18,-1,0,12
Y2-S2-030K23,2,195,AS,exp,45,↑,up,↑,1.225279500009492,True,18,1,1,13
Y2-S2-030K23,2,196,AS,exp,47,←,right,→,0.8941110998857766,False,17,-1,1,14
Y2-S2-030K23,2,197,AS,exp,43,↑,left,←,1.6464535999111831,False,18,-1,0,14
Y2-S2-030K23,2,198,AS,exp,46,→,right,→,0.8747719000093639,True,19,-1,0,14
Y2-S2-030K23,2,199,AS,exp,49,←,left,←,0.5758904002141207,True,19,-1,0,14
Y2-S2-030K23,2,200,AS,exp,45,↓,down,↓,0.7313352001365274,True,19,1,1,15
Y2-S2-030K23,2,201,AS,exp,31,←,left,←,0.6485576999839395,True,18,1,0,15
Y2-S2-030K23,2,202,AS,exp,46,→,right,→,0.8075707999523729,True,18,1,0,15
Y2-S2-030K23,2,203,AS,exp,43,↓,right,→,0.7961975999642164,False,18,-1,1,16
Y2-S2-030K23,3,204,AS,intra_train,49,→,right,→,0.7510838999878615,True,27,-,-,-
Y2-S2-030K23,3,205,AS,intra_train,39,←,left,←,0.5840298999100924,True,27,-,-,-
Y2-S2-030K23,3,206,AS,intra_train,40,↓,down,↓,0.7197736001107842,True,27,-,-,-
Y2-S2-030K23,3,207,AS,intra_train,39,→,right,→,0.7438934999518096,True,27,-,-,-
Y2-S2-030K23,3,208,AS,intra_train,46,←,no_key,no_letter,-1.0,False,27,-,-,-
Y2-S2-030K23,3,209,AS,exp,28,↑,up,↑,0.5632084999233484,True,18,0,0,0
Y2-S2-030K23,3,210,AS,exp,30,←,right,→,0.7377369999885559,False,18,-1,0,0
Y2-S2-030K23,3,211,AS,exp,41,→,right,→,0.7714278001803905,True,19,-1,0,0
Y2-S2-030K23,3,212,AS,exp,33,←,left,←,0.7843168000690639,True,19,-1,0,0
Y2-S2-030K23,3,213,AS,exp,42,↑,up,↑,0.981192999985069,True,19,1,1,1
Y2-S2-030K23,3,214,AS,exp,46,←,left,←,1.7937177999410778,True,18,1,0,1
Y2-S2-030K23,3,215,AS,exp,37,↓,down,↓,0.838105000089854,True,18,1,0,1
Y2-S2-030K23,3,216,AS,exp,39,←,left,←,0.7545945001766086,True,18,1,0,1
Y2-S2-030K23,3,217,AS,exp,26,→,right,→,0.7251288001425564,True,17,1,0,1
Y2-S2-030K23,3,218,AS,exp,27,↑,down,↓,0.9945457000285387,False,17,-1,1,2
Y2-S2-030K23,3,219,AS,exp,28,←,right,→,1.5943002998828888,False,18,-1,0,2
Y2-S2-030K23,3,220,AS,exp,30,↓,right,→,0.8942782001104206,False,19,-1,0,2
Y2-S2-030K23,3,221,AS,exp,31,←,left,←,0.5373023999854922,True,20,-1,0,2
Y2-S2-030K23,3,222,AS,exp,47,→,right,→,0.7668520999141037,True,20,-1,0,2
Y2-S2-030K23,3,223,AS,exp,44,↓,down,↓,0.7724953000433743,True,20,1,1,3
Y2-S2-030K23,3,224,AS,exp,47,←,left,←,1.7733885999768972,True,19,1,0,3
Y2-S2-030K23,3,225,AS,exp,25,↑,left,←,0.8406096999533474,False,19,-1,1,4
Y2-S2-030K23,3,226,AS,exp,38,↓,down,↓,0.9107550999615341,True,20,-1,0,4
Y2-S2-030K23,3,227,AS,exp,44,←,left,←,0.5578205999918282,True,20,-1,0,4
Y2-S2-030K23,3,228,AS,exp,43,↑,up,↑,0.756862600101158,True,20,1,1,5
Y2-S2-030K23,3,229,AS,exp,41,←,left,←,0.7113406998105347,True,19,1,0,5
Y2-S2-030K23,3,230,AS,exp,49,↓,down,↓,0.9014182998798788,True,19,1,0,5
Y2-S2-030K23,3,231,AS,exp,35,↑,down,↓,0.9532991000451148,False,19,-1,1,6
Y2-S2-030K23,3,232,AS,exp,33,←,left,←,0.7268322999589145,True,20,-1,0,6
Y2-S2-030K23,3,233,AS,exp,35,↓,down,↓,0.7415831999387592,True,20,-1,0,6
Y2-S2-030K23,3,234,AS,exp,30,↑,up,↑,0.6559337000362575,True,20,1,1,7
Y2-S2-030K23,3,235,AS,exp,46,→,right,→,1.2716429999563843,True,19,1,0,7
Y2-S2-030K23,3,236,AS,exp,37,↓,right,→,1.3594098999164999,False,19,-1,1,8
Y2-S2-030K23,3,237,AS,exp,30,→,right,→,0.7870096999686211,True,20,-1,0,8
Y2-S2-030K23,3,238,AS,exp,25,↓,left,←,0.7572520999237895,False,20,-1,0,8
Y2-S2-030K23,3,239,AS,exp,41,←,left,←,1.2474297999870032,True,21,-1,0,8
Y2-S2-030K23,3,240,AS,exp,34,↓,down,↓,0.9137101999949664,True,21,-1,0,8
Y2-S2-030K23,3,241,AS,exp,25,↑,left,←,1.7443402998615056,False,21,-1,0,8
Y2-S2-030K23,3,242,AS,exp,46,↓,down,↓,0.8030429999344051,True,22,-1,0,8
Y2-S2-030K23,3,243,AS,exp,33,←,left,←,0.6819517000112683,True,22,-1,0,8
Y2-S2-030K23,3,244,AS,exp,42,→,right,→,0.8910617001820356,True,22,1,1,9
Y2-S2-030K23,3,245,AS,exp,47,↑,up,↑,0.7033255000133067,True,21,1,0,9
Y2-S2-030K23,3,246,AS,exp,25,→,right,→,1.2039470998570323,True,21,1,0,9
Y2-S2-030K23,3,247,AS,exp,45,↑,up,↑,0.8984172001946718,True,21,1,0,9
Y2-S2-030K23,3,248,AS,exp,39,→,right,→,0.6231037001125515,True,20,1,0,9
Y2-S2-030K23,3,249,AS,exp,39,↓,down,↓,0.7294688997790217,True,20,1,0,9
Y2-S2-030K23,3,250,AS,exp,26,←,left,←,0.6574727999977767,True,20,1,0,9
Y2-S2-030K23,3,251,AS,exp,25,↓,down,↓,0.6741403001360595,True,19,1,0,9
Y2-S2-030K23,3,252,AS,exp,49,→,right,→,0.5623778000008315,True,19,1,0,9
Y2-S2-030K23,3,253,AS,exp,31,↑,up,↑,1.1626468999311328,True,19,1,0,9
Y2-S2-030K23,3,254,AS,exp,46,→,right,→,0.90533860004507,True,18,1,0,9
Y2-S2-030K23,3,255,AS,exp,32,↓,down,↓,1.3594021999742836,True,18,1,0,9
Y2-S2-030K23,3,256,AS,exp,47,←,left,←,0.694982600165531,True,18,1,0,9
Y2-S2-030K23,3,257,AS,exp,33,↓,down,↓,0.6165634000208229,True,17,1,0,9
Y2-S2-030K23,3,258,AS,exp,37,←,right,→,1.545559999998659,False,17,-1,1,10
Y2-S2-030K23,3,259,AS,exp,47,→,right,→,0.5613012998364866,True,18,-1,0,10
Y2-S2-030K23,3,260,AS,exp,50,↓,down,↓,0.7364108001347631,True,18,-1,0,10
Y2-S2-030K23,3,261,AS,exp,39,→,left,←,0.9765404998324811,False,18,-1,0,10
Y2-S2-030K23,3,262,AS,exp,33,←,left,←,0.6623218001332134,True,19,-1,0,10
Y2-S2-030K23,3,263,AS,exp,41,↓,down,↓,0.8194456999190152,True,19,-1,0,10
Y2-S2-030K23,3,264,AS,exp,40,↑,up,↑,0.5860852999612689,True,19,1,1,11
Y2-S2-030K23,3,265,AS,exp,31,↓,down,↓,0.7619421000126749,True,18,1,0,11
Y2-S2-030K23,3,266,AS,exp,42,→,right,→,0.5797480000182986,True,18,1,0,11
Y2-S2-030K23,3,267,AS,exp,50,↑,up,↑,0.5245137999299914,True,18,1,0,11
Y2-S2-030K23,3,268,AS,exp,30,←,left,←,0.506271000020206,True,17,1,0,11
Y2-S2-030K23,3,269,AS,exp,48,↑,right,→,0.7611260998528451,False,17,-1,1,12
Y2-S2-030K23,3,270,AS,exp,39,→,right,→,1.3693232999648899,True,18,-1,0,12
Y2-S2-030K23,3,271,AS,exp,44,↑,up,↑,0.8255131999030709,True,18,-1,0,12
Y2-S2-030K23,3,272,AS,exp,28,←,right,→,1.2676341000478715,False,18,-1,0,12
Y2-S2-030K23,3,273,AS,exp,42,→,right,→,1.2676639999262989,True,19,-1,0,12
Y2-S2-030K23,3,274,AS,exp,42,←,left,←,1.6934415998402983,True,19,-1,0,12
Y2-S2-030K23,3,275,AS,exp,27,↓,down,↓,0.9857350999955088,True,19,1,1,13
Y2-S2-030K23,3,276,AS,exp,38,←,left,←,0.9432183001190424,True,18,1,0,13
Y2-S2-030K23,3,277,AS,exp,28,↑,up,↑,0.5674483999609947,True,18,1,0,13
Y2-S2-030K23,3,278,AS,exp,35,→,left,←,0.8125330000184476,False,18,-1,1,14
Y2-S2-030K23,3,279,AS,exp,29,↑,right,→,0.887604899937287,False,19,-1,0,14
Y2-S2-030K23,3,280,AS,exp,40,↓,down,↓,1.229482299881056,True,20,-1,0,14
Y2-S2-030K23,3,281,AS,exp,36,↑,up,↑,0.5779703999869525,True,20,-1,0,14
Y2-S2-030K23,3,282,AS,exp,46,→,right,→,0.9190026000142097,True,20,1,1,15
Y2-S2-030K23,3,283,AS,exp,41,↑,up,↑,0.6824967998545617,True,19,1,0,15
Y2-S2-030K23,3,284,AS,exp,45,↓,down,↓,0.7426011001225561,True,19,1,0,15
Y2-S2-030K23,3,285,AS,exp,25,↑,up,↑,0.7362500999588519,True,19,1,0,15
Y2-S2-030K23,3,286,AS,exp,41,↓,down,↓,1.6675297999754548,True,18,1,0,15
Y2-S2-030K23,3,287,AS,exp,49,←,right,→,1.4430513000115752,False,18,-1,1,16
Y2-S2-030K23,4,288,PS,intra_train,48,→,right,→,1.1251477000769228,True,22,-,-,-
Y2-S2-030K23,4,289,PS,intra_train,35,←,left,←,0.8154403998050839,True,22,-,-,-
Y2-S2-030K23,4,290,PS,intra_train,27,↑,up,↑,0.579769599949941,True,22,-,-,-
Y2-S2-030K23,4,291,PS,intra_train,50,←,left,←,0.8261386000085622,True,22,-,-,-
Y2-S2-030K23,4,292,PS,intra_train,29,→,right,→,0.7528935000300407,True,22,-,-,-
Y2-S2-030K23,4,293,PS,exp,41,↑,up,↑,0.6751957000233233,True,15,0,0,0
Y2-S2-030K23,4,294,PS,exp,30,←,left,←,0.5914757999125868,True,15,0,0,0
Y2-S2-030K23,4,295,PS,exp,44,→,left,←,0.9065138001460582,False,15,-1,0,0
Y2-S2-030K23,4,296,PS,exp,46,↓,down,↓,0.8152297001797706,True,16,-1,0,0
Y2-S2-030K23,4,297,PS,exp,40,↑,up,↑,0.6108327000401914,True,16,-1,0,0
Y2-S2-030K23,4,298,PS,exp,42,↓,right,→,1.1277166998479515,False,16,-1,0,0
Y2-S2-030K23,4,299,PS,exp,47,←,left,←,0.7760908999480307,True,17,-1,0,0
Y2-S2-030K23,4,300,PS,exp,38,↓,down,↓,1.1343511999584734,True,17,-1,0,0
Y2-S2-030K23,4,301,PS,exp,48,↑,no_key,no_letter,-1.0,False,17,-1,0,0
Y2-S2-030K23,4,302,PS,exp,40,→,right,→,0.6111882000695914,True,18,-1,0,0
Y2-S2-030K23,4,303,PS,exp,36,↓,right,→,1.0835631999652833,False,18,-1,0,0
Y2-S2-030K23,4,304,PS,exp,39,↑,up,↑,1.0906112999655306,True,19,-1,0,0
Y2-S2-030K23,4,305,PS,exp,46,→,right,→,0.6651359999086708,True,19,-1,0,0
Y2-S2-030K23,4,306,PS,exp,33,↓,left,←,1.3858573997858912,False,19,-1,0,0
Y2-S2-030K23,4,307,PS,exp,41,←,right,→,1.2305001001805067,False,20,-1,0,0
Y2-S2-030K23,4,308,PS,exp,39,→,right,→,0.689839500002563,True,21,-1,0,0
Y2-S2-030K23,4,309,PS,exp,39,↓,down,↓,0.7739354998338968,True,21,-1,0,0
Y2-S2-030K23,4,310,PS,exp,32,←,left,←,0.4674136999528855,True,21,1,1,1
Y2-S2-030K23,4,311,PS,exp,41,↓,down,↓,0.6276424000971019,True,20,1,0,1
Y2-S2-030K23,4,312,PS,exp,35,←,left,←,0.6953263999894261,True,20,1,0,1
Y2-S2-030K23,4,313,PS,exp,29,↓,right,→,0.9664926000405103,False,20,-1,1,2
Y2-S2-030K23,4,314,PS,exp,31,→,right,→,0.9960915001574904,True,21,-1,0,2
Y2-S2-030K23,4,315,PS,exp,43,↓,down,↓,0.8344292000401765,True,21,-1,0,2
Y2-S2-030K23,4,316,PS,exp,32,↑,down,↓,1.0474189000669867,False,21,-1,0,2
Y2-S2-030K23,4,317,PS,exp,30,↓,down,↓,1.0045427998993546,True,22,-1,0,2
Y2-S2-030K23,4,318,PS,exp,27,→,right,→,0.6903802999295294,True,22,-1,0,2
Y2-S2-030K23,4,319,PS,exp,43,↑,up,↑,0.8727790999691933,True,22,1,1,3
Y2-S2-030K23,4,320,PS,exp,30,↓,down,↓,0.8990480001084507,True,21,1,0,3
Y2-S2-030K23,4,321,PS,exp,47,→,right,→,0.716436899965629,True,21,1,0,3
Y2-S2-030K23,4,322,PS,exp,48,↓,down,↓,0.8258330000098795,True,21,1,0,3
Y2-S2-030K23,4,323,PS,exp,38,→,right,→,0.6553581999614835,True,20,1,0,3
Y2-S2-030K23,4,324,PS,exp,42,↓,down,↓,0.78262609988451,True,20,1,0,3
Y2-S2-030K23,4,325,PS,exp,25,→,right,→,0.6015882000792772,True,20,1,0,3
Y2-S2-030K23,4,326,PS,exp,29,←,right,→,0.9332920999731869,False,19,-1,1,4
Y2-S2-030K23,4,327,PS,exp,35,→,right,→,0.7246640999801457,True,20,-1,0,4
Y2-S2-030K23,4,328,PS,exp,41,↓,down,↓,0.7643474000506103,True,20,-1,0,4
Y2-S2-030K23,4,329,PS,exp,50,→,right,→,0.9188224000390619,True,20,1,1,5
Y2-S2-030K23,4,330,PS,exp,29,←,left,←,0.82933109998703,True,19,1,0,5
Y2-S2-030K23,4,331,PS,exp,38,→,left,←,1.7856020999606699,False,19,-1,1,6
Y2-S2-030K23,4,332,PS,exp,29,←,left,←,0.5569780000951141,True,20,-1,0,6
Y2-S2-030K23,4,333,PS,exp,38,↑,up,↑,0.5869696999434382,True,20,-1,0,6
Y2-S2-030K23,4,334,PS,exp,46,↓,down,↓,0.8861078000627458,True,20,1,1,7
Y2-S2-030K23,4,335,PS,exp,49,→,right,→,1.0615362001117319,True,19,1,0,7
Y2-S2-030K23,4,336,PS,exp,29,↓,down,↓,0.7065594999585301,True,19,1,0,7
Y2-S2-030K23,4,337,PS,exp,28,↑,up,↑,0.5846970998682082,True,19,1,0,7
Y2-S2-030K23,4,338,PS,exp,32,↓,down,↓,0.6959955999627709,True,18,1,0,7
Y2-S2-030K23,4,339,PS,exp,25,↑,up,↑,0.5025993001181632,True,18,1,0,7
Y2-S2-030K23,4,340,PS,exp,41,→,right,→,0.6515919999219477,True,18,1,0,7
Y2-S2-030K23,4,341,PS,exp,34,←,left,←,0.7653671998996288,True,17,1,0,7
Y2-S2-030K23,4,342,PS,exp,36,→,right,→,0.5424324998166412,True,17,1,0,7
Y2-S2-030K23,4,343,PS,exp,44,↑,left,←,0.9633162999525666,False,17,-1,1,8
Y2-S2-030K23,4,344,PS,exp,25,→,right,→,0.8688776998315006,True,18,-1,0,8
Y2-S2-030K23,4,345,PS,exp,40,←,left,←,0.507402699906379,True,18,-1,0,8
Y2-S2-030K23,4,346,PS,exp,43,↓,down,↓,0.8109872001223266,True,18,1,1,9
Y2-S2-030K23,4,347,PS,exp,46,→,right,→,0.5756021998822689,True,17,1,0,9
Y2-S2-030K23,4,348,PS,exp,46,↑,up,↑,0.710786399897188,True,17,1,0,9
Y2-S2-030K23,4,349,PS,exp,26,←,left,←,0.6380863999947906,True,17,1,0,9
Y2-S2-030K23,4,350,PS,exp,26,→,right,→,0.5315272000152618,True,16,1,0,9
Y2-S2-030K23,4,351,PS,exp,49,↓,down,↓,0.5316323000006378,True,16,1,0,9
Y2-S2-030K23,4,352,PS,exp,41,←,down,↓,0.9123478999827057,False,16,-1,1,10
Y2-S2-030K23,4,353,PS,exp,25,↑,up,↑,0.5239627999253571,True,17,-1,0,10
Y2-S2-030K23,4,354,PS,exp,35,↓,left,←,1.0026312000118196,False,17,-1,0,10
Y2-S2-030K23,4,355,PS,exp,29,←,left,←,0.5438252000603825,True,18,-1,0,10
Y2-S2-030K23,4,356,PS,exp,36,↑,left,←,0.9945948999375105,False,18,-1,0,10
Y2-S2-030K23,4,357,PS,exp,38,↓,down,↓,0.7621232001110911,True,19,-1,0,10
Y2-S2-030K23,4,358,PS,exp,47,→,right,→,0.7136475997976959,True,19,-1,0,10
Y2-S2-030K23,4,359,PS,exp,29,←,left,←,0.5651011001318693,True,19,1,1,11
Y2-S2-030K23,4,360,PS,exp,46,↑,up,↑,0.5465556001290679,True,18,1,0,11
Y2-S2-030K23,4,361,PS,exp,31,←,left,←,0.5824702999088913,True,18,1,0,11
Y2-S2-030K23,4,362,PS,exp,40,↓,down,↓,0.8463185001164675,True,18,1,0,11
Y2-S2-030K23,4,363,PS,exp,28,↑,up,↑,0.8588974000886083,True,17,1,0,11
Y2-S2-030K23,4,364,PS,exp,28,→,right,→,0.5757506000809371,True,17,1,0,11
Y2-S2-030K23,4,365,PS,exp,33,←,right,→,0.9872369000222534,False,17,-1,1,12
Y2-S2-030K23,4,366,PS,exp,37,↑,up,↑,0.46817460004240274,True,18,-1,0,12
Y2-S2-030K23,4,367,PS,exp,49,↓,down,↓,0.7254161001183093,True,18,-1,0,12
Y2-S2-030K23,4,368,PS,exp,33,→,left,←,0.7895616998430341,False,18,-1,0,12
Y2-S2-030K23,4,369,PS,exp,37,↓,down,↓,0.64589609997347,True,19,-1,0,12
Y2-S2-030K23,4,370,PS,exp,42,↑,left,←,0.712198100052774,False,19,-1,0,12
Y2-S2-030K23,4,371,PS,exp,38,↓,down,↓,0.8656361999455839,True,20,-1,0,12
Y2-S2-030K23,4,372,PS,exp,49,→,right,→,0.7116712001152337,True,20,-1,0,12
Y2-S2-030K23,4,373,PS,exp,50,↑,up,↑,0.5348475999198854,True,20,1,1,13
Y2-S2-030K23,4,374,PS,exp,25,↓,down,↓,0.8415972001384944,True,19,1,0,13
Y2-S2-030K23,4,375,PS,exp,36,←,left,←,0.522273400099948,True,19,1,0,13
Y2-S2-030K23,4,376,PS,exp,34,→,right,→,0.6645609999541193,True,19,1,0,13
Y2-S2-030K23,4,377,PS,exp,34,↑,left,←,1.150005599949509,False,18,-1,1,14
Y2-S2-030K23,4,378,PS,exp,27,→,left,←,1.3006808999925852,False,19,-1,0,14
Y2-S2-030K23,4,379,PS,exp,33,↑,up,↑,0.7942186000291258,True,20,-1,0,14
Y2-S2-030K23,4,380,PS,exp,25,→,right,→,0.7587568999733776,True,20,-1,0,14
Y2-S2-030K23,4,381,PS,exp,42,↑,up,↑,0.5311857000924647,True,20,1,1,15
Y2-S2-030K23,4,382,PS,exp,50,↓,down,↓,0.681776899844408,True,19,1,0,15
Y2-S2-030K23,4,383,PS,exp,50,←,left,←,0.5341038000769913,True,19,1,0,15
Y2-S2-030K23,4,384,PS,exp,48,↑,up,↑,0.8487305999733508,True,19,1,0,15
Y2-S2-030K23,4,385,PS,exp,38,→,right,→,0.7682640000712126,True,18,1,0,15
Y2-S2-030K23,4,386,PS,exp,44,←,right,→,0.7904573001433164,False,18,-1,1,16
Y2-S2-030K23,5,387,PS,intra_train,32,↑,up,↑,0.9209634000435472,True,22,-,-,-
Y2-S2-030K23,5,388,PS,intra_train,32,→,right,→,0.7099284001160413,True,22,-,-,-
Y2-S2-030K23,5,389,PS,intra_train,32,↓,down,↓,0.7330121998675168,True,22,-,-,-
Y2-S2-030K23,5,390,PS,intra_train,38,→,right,→,0.5803266000002623,True,22,-,-,-
Y2-S2-030K23,5,391,PS,intra_train,45,↑,up,↑,0.621086300117895,True,22,-,-,-
Y2-S2-030K23,5,392,PS,exp,48,→,right,→,0.6024151998572052,True,15,0,0,0
Y2-S2-030K23,5,393,PS,exp,43,↓,down,↓,0.6894861999899149,True,15,0,0,0
Y2-S2-030K23,5,394,PS,exp,30,↑,up,↑,1.015016600023955,True,15,1,0,0
Y2-S2-030K23,5,395,PS,exp,40,↓,down,↓,0.6695085000246763,True,14,1,0,0
Y2-S2-030K23,5,396,PS,exp,36,←,left,←,0.6565802998375148,True,14,1,0,0
Y2-S2-030K23,5,397,PS,exp,41,↑,up,↑,0.6646097998600453,True,14,1,0,0
Y2-S2-030K23,5,398,PS,exp,42,→,right,→,0.5347730000503361,True,13,1,0,0
Y2-S2-030K23,5,399,PS,exp,41,↑,up,↑,0.48745310003869236,True,13,1,0,0
Y2-S2-030K23,5,400,PS,exp,41,←,right,→,0.8382049000356346,False,13,-1,1,1
Y2-S2-030K23,5,401,PS,exp,30,↑,up,↑,0.520124000031501,True,14,-1,0,1
Y2-S2-030K23,5,402,PS,exp,31,↓,down,↓,0.7499905000440776,True,14,-1,0,1
Y2-S2-030K23,5,403,PS,exp,25,↑,up,↑,0.5739331000950187,True,14,1,1,2
Y2-S2-030K23,5,404,PS,exp,40,↓,down,↓,0.6935701000038534,True,13,1,0,2
Y2-S2-030K23,5,405,PS,exp,37,←,left,←,0.4959871000610292,True,13,1,0,2
Y2-S2-030K23,5,406,PS,exp,38,→,right,→,0.8293041000142694,True,13,1,0,2
Y2-S2-030K23,5,407,PS,exp,44,↓,down,↓,0.669143500039354,True,12,1,0,2
Y2-S2-030K23,5,408,PS,exp,25,→,right,→,0.9385252001229674,True,12,1,0,2
Y2-S2-030K23,5,409,PS,exp,35,↓,down,↓,0.9403008001390845,True,12,1,0,2
Y2-S2-030K23,5,410,PS,exp,49,↑,right,→,0.7997892999555916,False,11,-1,1,3
Y2-S2-030K23,5,411,PS,exp,29,←,left,←,0.48751839995384216,True,12,-1,0,3
Y2-S2-030K23,5,412,PS,exp,36,↓,down,↓,0.6543838998768479,True,12,-1,0,3
Y2-S2-030K23,5,413,PS,exp,44,→,right,→,0.6175434999167919,True,12,1,1,4
Y2-S2-030K23,5,414,PS,exp,42,↓,down,↓,0.7860664001200348,True,11,1,0,4
Y2-S2-030K23,5,415,PS,exp,45,←,left,←,0.5669150999747217,True,11,1,0,4
Y2-S2-030K23,5,416,PS,exp,49,↓,right,→,1.0168687000405043,False,11,-1,1,5
Y2-S2-030K23,5,417,PS,exp,46,←,right,→,1.5132877000141889,False,12,-1,0,5
Y2-S2-030K23,5,418,PS,exp,47,↑,right,→,1.5785302999429405,False,13,-1,0,5
Y2-S2-030K23,5,419,PS,exp,50,↓,down,↓,1.0215472001582384,True,14,-1,0,5
Y2-S2-030K23,5,420,PS,exp,25,→,right,→,0.9562335999216884,True,14,-1,0,5
Y2-S2-030K23,5,421,PS,exp,48,↑,up,↑,1.2967886999249458,True,14,1,1,6
Y2-S2-030K23,5,422,PS,exp,44,↓,down,↓,0.7952918999362737,True,13,1,0,6
Y2-S2-030K23,5,423,PS,exp,48,←,right,→,0.6774144000373781,False,13,-1,1,7
Y2-S2-030K23,5,424,PS,exp,27,↓,down,↓,0.719005900202319,True,14,-1,0,7
Y2-S2-030K23,5,425,PS,exp,43,↑,up,↑,0.5730103000532836,True,14,-1,0,7
Y2-S2-030K23,5,426,PS,exp,41,←,left,←,0.5422084999736398,True,14,1,1,8
Y2-S2-030K23,5,427,PS,exp,50,→,right,→,0.6402342999354005,True,13,1,0,8
Y2-S2-030K23,5,428,PS,exp,27,←,left,←,0.6455941000021994,True,13,1,0,8
Y2-S2-030K23,5,429,PS,exp,49,↑,up,↑,0.49005800019949675,True,13,1,0,8
Y2-S2-030K23,5,430,PS,exp,37,→,left,←,0.8674552000593394,False,12,-1,1,9
Y2-S2-030K23,5,431,PS,exp,38,←,left,←,0.7220626000780612,True,13,-1,0,9
Y2-S2-030K23,5,432,PS,exp,47,↓,down,↓,0.6890812001656741,True,13,-1,0,9
Y2-S2-030K23,5,433,PS,exp,47,←,left,←,1.4778387998230755,True,13,1,1,10
Y2-S2-030K23,5,434,PS,exp,26,↓,down,↓,0.6986338999122381,True,12,1,0,10
Y2-S2-030K23,5,435,PS,exp,48,→,right,→,0.5976382999215275,True,12,1,0,10
Y2-S2-030K23,5,436,PS,exp,49,↑,right,→,0.672307999804616,False,12,-1,1,11
Y2-S2-030K23,5,437,PS,exp,50,→,right,→,0.773863400099799,True,13,-1,0,11
Y2-S2-030K23,5,438,PS,exp,37,←,right,→,1.3986446000635624,False,13,-1,0,11
Y2-S2-030K23,5,439,PS,exp,39,→,right,→,0.5096338998991996,True,14,-1,0,11
Y2-S2-030K23,5,440,PS,exp,44,←,right,→,1.126161799998954,False,14,-1,0,11
Y2-S2-030K23,5,441,PS,exp,48,→,right,→,0.6248264999594539,True,15,-1,0,11
Y2-S2-030K23,5,442,PS,exp,42,←,left,←,1.237134600058198,True,15,-1,0,11
Y2-S2-030K23,5,443,PS,exp,37,→,left,←,0.8058334998786449,False,15,-1,0,11
Y2-S2-030K23,5,444,PS,exp,38,←,left,←,0.688977399840951,True,16,-1,0,11
Y2-S2-030K23,5,445,PS,exp,33,↑,left,←,1.0061993000563234,False,16,-1,0,11
Y2-S2-030K23,5,446,PS,exp,31,→,right,→,0.7824727999977767,True,17,-1,0,11
Y2-S2-030K23,5,447,PS,exp,33,↓,down,↓,0.9391393000259995,True,17,-1,0,11
Y2-S2-030K23,5,448,PS,exp,48,↑,down,↓,1.39701270009391,False,17,-1,0,11
Y2-S2-030K23,5,449,PS,exp,28,↓,down,↓,0.963905300013721,True,18,-1,0,11
Y2-S2-030K23,5,450,PS,exp,26,↑,down,↓,1.3220902001485229,False,18,-1,0,11
Y2-S2-030K23,5,451,PS,exp,27,↓,down,↓,0.7374174001161009,True,19,-1,0,11
Y2-S2-030K23,5,452,PS,exp,45,→,right,→,0.6639574998989701,True,19,-1,0,11
Y2-S2-030K23,5,453,PS,exp,50,↑,up,↑,0.6055686001200229,True,19,1,1,12
Y2-S2-030K23,5,454,PS,exp,39,→,right,→,0.531366900075227,True,18,1,0,12
Y2-S2-030K23,5,455,PS,exp,35,↑,right,→,1.3444701000116765,False,18,-1,1,13
Y2-S2-030K23,5,456,PS,exp,42,←,left,←,0.7560550000052899,True,19,-1,0,13
Y2-S2-030K23,5,457,PS,exp,38,→,right,→,0.7490940999705344,True,19,-1,0,13
Y2-S2-030K23,5,458,PS,exp,36,↓,down,↓,0.8372769001871347,True,19,1,1,14
Y2-S2-030K23,5,459,PS,exp,34,↑,up,↑,0.5002880000974983,True,18,1,0,14
Y2-S2-030K23,5,460,PS,exp,36,←,no_key,no_letter,-1.0,False,18,-1,1,15
Y2-S2-030K23,5,461,PS,exp,36,↓,down,↓,0.6357512001413852,True,19,-1,0,15
Y2-S2-030K23,5,462,PS,exp,50,←,up,↑,1.3762509000953287,False,19,-1,0,15
Y2-S2-030K23,5,463,PS,exp,25,→,right,→,0.5329005001112819,True,20,-1,0,15
Y2-S2-030K23,5,464,PS,exp,45,↓,down,↓,0.5615633998531848,True,20,-1,0,15
Y2-S2-030K23,5,465,PS,exp,46,←,left,←,0.6011351000051945,True,20,1,1,16
Y2-S2-030K23,6,466,AS,intra_train,32,↓,left,←,1.4891214000526816,False,27,-,-,-
Y2-S2-030K23,6,467,AS,intra_train,50,↑,up,↑,0.8865550998598337,True,27,-,-,-
Y2-S2-030K23,6,468,AS,intra_train,37,↓,down,↓,0.9794733999297023,True,27,-,-,-
Y2-S2-030K23,6,469,AS,intra_train,30,→,right,→,0.782199100125581,True,27,-,-,-
Y2-S2-030K23,6,470,AS,intra_train,40,↑,up,↑,0.6674907000269741,True,27,-,-,-
Y2-S2-030K23,6,471,AS,exp,27,↓,down,↓,0.6312088998965919,True,18,0,0,0
Y2-S2-030K23,6,472,AS,exp,40,→,right,→,0.6142778999637812,True,18,0,0,0
Y2-S2-030K23,6,473,AS,exp,44,←,no_key,no_letter,-1.0,False,18,-1,0,0
Y2-S2-030K23,6,474,AS,exp,31,→,right,→,0.8944393000565469,True,19,-1,0,0
Y2-S2-030K23,6,475,AS,exp,35,↓,down,↓,0.7596420999616385,True,19,-1,0,0
Y2-S2-030K23,6,476,AS,exp,48,↑,up,↑,0.577124800067395,True,19,1,1,1
Y2-S2-030K23,6,477,AS,exp,35,↓,down,↓,0.6977219998370856,True,18,1,0,1
Y2-S2-030K23,6,478,AS,exp,30,↑,down,↓,0.6946695998776704,False,18,-1,1,2
Y2-S2-030K23,6,479,AS,exp,50,→,right,→,0.5702016002032906,True,19,-1,0,2
Y2-S2-030K23,6,480,AS,exp,39,←,left,←,0.8008870000485331,True,19,-1,0,2
Y2-S2-030K23,6,481,AS,exp,43,↑,down,↓,0.9097160999663174,False,19,-1,0,2
Y2-S2-030K23,6,482,AS,exp,46,←,left,←,0.5192954998929054,True,20,-1,0,2
Y2-S2-030K23,6,483,AS,exp,48,→,right,→,0.5897158000152558,True,20,-1,0,2
Y2-S2-030K23,6,484,AS,exp,28,←,left,←,0.43437070003710687,True,20,1,1,3
Y2-S2-030K23,6,485,AS,exp,25,↓,down,↓,0.6327865000348538,True,19,1,0,3
Y2-S2-030K23,6,486,AS,exp,30,←,left,←,0.6145927999168634,True,19,1,0,3
Y2-S2-030K23,6,487,AS,exp,34,↑,up,↑,0.49368869978934526,True,19,1,0,3
Y2-S2-030K23,6,488,AS,exp,26,←,left,←,0.5103639999870211,True,18,1,0,3
Y2-S2-030K23,6,489,AS,exp,25,↓,down,↓,0.6319415001198649,True,18,1,0,3
Y2-S2-030K23,6,490,AS,exp,39,→,right,→,0.9497408999595791,True,18,1,0,3
Y2-S2-030K23,6,491,AS,exp,30,←,left,←,0.476412900025025,True,17,1,0,3
Y2-S2-030K23,6,492,AS,exp,40,↓,left,←,0.9085359999444336,False,17,-1,1,4
Y2-S2-030K23,6,493,AS,exp,41,↑,left,←,0.8931086000520736,False,18,-1,0,4
Y2-S2-030K23,6,494,AS,exp,33,→,right,→,0.4843723999802023,True,19,-1,0,4
Y2-S2-030K23,6,495,AS,exp,26,↓,down,↓,0.5518980000633746,True,19,-1,0,4
Y2-S2-030K23,6,496,AS,exp,30,↑,left,←,0.9621672001667321,False,19,-1,0,4
Y2-S2-030K23,6,497,AS,exp,27,←,left,←,1.9182634998578578,True,20,-1,0,4
Y2-S2-030K23,6,498,AS,exp,49,↑,up,↑,0.6354932000394911,True,20,-1,0,4
Y2-S2-030K23,6,499,AS,exp,37,↓,down,↓,0.7429138000588864,True,20,1,1,5
Y2-S2-030K23,6,500,AS,exp,36,←,up,↑,0.7520514999050647,False,19,-1,1,6
Y2-S2-030K23,6,501,AS,exp,30,→,right,→,0.46737810014747083,True,20,-1,0,6
Y2-S2-030K23,6,502,AS,exp,31,←,left,←,0.4507618001662195,True,20,-1,0,6
Y2-S2-030K23,6,503,AS,exp,47,↓,left,←,0.5662342000287026,False,20,-1,0,6
Y2-S2-030K23,6,504,AS,exp,46,→,left,←,1.295563600026071,False,21,-1,0,6
Y2-S2-030K23,6,505,AS,exp,32,↓,left,←,0.8436018000356853,False,22,-1,0,6
Y2-S2-030K23,6,506,AS,exp,42,←,left,←,0.7246250999160111,True,23,-1,0,6
Y2-S2-030K23,6,507,AS,exp,41,→,right,→,0.5824065001215786,True,23,-1,0,6
Y2-S2-030K23,6,508,AS,exp,42,↓,right,→,1.068031100090593,False,23,-1,0,6
Y2-S2-030K23,6,509,AS,exp,26,↑,left,←,1.2502228999510407,False,24,-1,0,6
Y2-S2-030K23,6,510,AS,exp,27,↓,down,↓,0.6671485002152622,True,25,-1,0,6
Y2-S2-030K23,6,511,AS,exp,36,←,left,←,0.5978039000183344,True,25,-1,0,6
Y2-S2-030K23,6,512,AS,exp,49,→,right,→,0.6649807000067085,True,25,1,1,7
Y2-S2-030K23,6,513,AS,exp,25,↓,down,↓,0.8876428999938071,True,24,1,0,7
Y2-S2-030K23,6,514,AS,exp,36,→,right,→,0.649475899990648,True,24,1,0,7
Y2-S2-030K23,6,515,AS,exp,45,↑,up,↑,0.7219390999525785,True,24,1,0,7
Y2-S2-030K23,6,516,AS,exp,26,→,right,→,1.0040033999830484,True,23,1,0,7
Y2-S2-030K23,6,517,AS,exp,49,↑,left,←,1.6289184999186546,False,23,-1,1,8
Y2-S2-030K23,6,518,AS,exp,32,↓,down,↓,0.6633931000251323,True,24,-1,0,8
Y2-S2-030K23,6,519,AS,exp,36,←,right,→,1.3535217000171542,False,24,-1,0,8
Y2-S2-030K23,6,520,AS,exp,30,↑,up,↑,0.6111768998671323,True,25,-1,0,8
Y2-S2-030K23,6,521,AS,exp,29,→,right,→,0.6672783999238163,True,25,-1,0,8
Y2-S2-030K23,6,522,AS,exp,39,←,left,←,0.7881803000345826,True,25,1,1,9
Y2-S2-030K23,6,523,AS,exp,38,↓,left,←,1.2780160000547767,False,24,-1,1,10
Y2-S2-030K23,6,524,AS,exp,45,←,left,←,0.5175177999772131,True,25,-1,0,10
Y2-S2-030K23,6,525,AS,exp,45,→,right,→,0.5506601000670344,True,25,-1,0,10
Y2-S2-030K23,6,526,AS,exp,46,↓,down,↓,0.695423899916932,True,25,1,1,11
Y2-S2-030K23,6,527,AS,exp,47,→,right,→,0.6729643999133259,True,24,1,0,11
Y2-S2-030K23,6,528,AS,exp,49,←,left,←,0.46762110013514757,True,24,1,0,11
Y2-S2-030K23,6,529,AS,exp,44,↑,up,↑,0.7382040000520647,True,24,1,0,11
Y2-S2-030K23,6,530,AS,exp,27,↓,down,↓,0.8264973000623286,True,23,1,0,11
Y2-S2-030K23,6,531,AS,exp,45,→,right,→,0.863498100079596,True,23,1,0,11
Y2-S2-030K23,6,532,AS,exp,38,↓,down,↓,0.7326811000239104,True,23,1,0,11
Y2-S2-030K23,6,533,AS,exp,39,→,right,→,0.683087799930945,True,22,1,0,11
Y2-S2-030K23,6,534,AS,exp,40,←,left,←,0.7174508001189679,True,22,1,0,11
Y2-S2-030K23,6,535,AS,exp,30,→,right,→,0.9073519001249224,True,22,1,0,11
Y2-S2-030K23,6,536,AS,exp,32,↑,up,↑,0.5474620000459254,True,21,1,0,11
Y2-S2-030K23,6,537,AS,exp,36,←,left,←,0.6288648000918329,True,21,1,0,11
Y2-S2-030K23,6,538,AS,exp,36,↑,up,↑,0.9688918001484126,True,21,1,0,11
Y2-S2-030K23,6,539,AS,exp,46,←,left,←,0.7927977999206632,True,20,1,0,11
Y2-S2-030K23,6,540,AS,exp,30,→,right,→,0.5609365000855178,True,20,1,0,11
Y2-S2-030K23,6,541,AS,exp,49,←,left,←,1.2388293000403792,True,20,1,0,11
Y2-S2-030K23,6,542,AS,exp,45,↑,left,←,1.0989641998894513,False,19,-1,1,12
Y2-S2-030K23,6,543,AS,exp,46,←,left,←,0.7074325000867248,True,20,-1,0,12
Y2-S2-030K23,6,544,AS,exp,43,↑,up,↑,0.9554583001881838,True,20,-1,0,12
Y2-S2-030K23,6,545,AS,exp,35,←,left,←,0.7927349000237882,True,20,1,1,13
Y2-S2-030K23,6,546,AS,exp,28,→,right,→,0.8596546999178827,True,19,1,0,13
Y2-S2-030K23,6,547,AS,exp,41,↓,down,↓,1.3283807002007961,True,19,1,0,13
Y2-S2-030K23,6,548,AS,exp,34,←,left,←,0.8688057998660952,True,19,1,0,13
Y2-S2-030K23,6,549,AS,exp,31,→,left,←,1.117587999906391,False,18,-1,1,14
Y2-S2-030K23,6,550,AS,exp,49,←,left,←,0.6735884000081569,True,19,-1,0,14
Y2-S2-030K23,6,551,AS,exp,30,↓,left,←,1.2292100999038666,False,19,-1,0,14
Y2-S2-030K23,6,552,AS,exp,41,←,left,←,0.7306431999895722,True,20,-1,0,14
Y2-S2-030K23,6,553,AS,exp,49,↑,up,↑,0.5595605000853539,True,20,-1,0,14
Y2-S2-030K23,6,554,AS,exp,31,↓,down,↓,1.0055978000164032,True,20,1,1,15
Y2-S2-030K23,6,555,AS,exp,42,→,right,→,0.5412097000516951,True,19,1,0,15
Y2-S2-030K23,6,556,AS,exp,40,←,left,←,0.6665042000822723,True,19,1,0,15
Y2-S2-030K23,6,557,AS,exp,29,↑,up,↑,0.7841435000300407,True,19,1,0,15
Y2-S2-030K23,6,558,AS,exp,48,↓,down,↓,0.9785690000280738,True,18,1,0,15
Y2-S2-030K23,6,559,AS,exp,29,←,left,←,0.6300963000394404,True,18,1,0,15
Y2-S2-030K23,6,560,AS,exp,50,→,left,←,0.48035570001229644,False,18,-1,1,16
Y2-S2-030K23,7,561,AS,intra_train,33,↑,up,↑,0.6961747999303043,True,27,-,-,-
Y2-S2-030K23,7,562,AS,intra_train,40,↓,down,↓,0.758350299904123,True,27,-,-,-
Y2-S2-030K23,7,563,AS,intra_train,46,←,left,←,0.6538836001418531,True,27,-,-,-
Y2-S2-030K23,7,564,AS,intra_train,48,↓,down,↓,0.5670002999249846,True,27,-,-,-
Y2-S2-030K23,7,565,AS,intra_train,38,←,left,←,0.5341111999005079,True,27,-,-,-
Y2-S2-030K23,7,566,AS,exp,47,↓,down,↓,0.5391431001480669,True,18,0,0,0
Y2-S2-030K23,7,567,AS,exp,50,←,left,←,0.7068517999723554,True,18,0,0,0
Y2-S2-030K23,7,568,AS,exp,29,↓,down,↓,0.670092900050804,True,18,1,0,0
Y2-S2-030K23,7,569,AS,exp,50,→,right,→,0.6259441999718547,True,17,1,0,0
Y2-S2-030K23,7,570,AS,exp,29,←,left,←,0.7485239000525326,True,17,1,0,0
Y2-S2-030K23,7,571,AS,exp,44,↓,right,→,0.9829819998703897,False,17,-1,1,1
Y2-S2-030K23,7,572,AS,exp,28,←,left,←,0.7130434999708086,True,18,-1,0,1
Y2-S2-030K23,7,573,AS,exp,38,↑,up,↑,0.6469396001193672,True,18,-1,0,1
Y2-S2-030K23,7,574,AS,exp,36,→,right,→,0.7038429998792708,True,18,1,1,2
Y2-S2-030K23,7,575,AS,exp,30,↓,down,↓,0.9595478000119328,True,17,1,0,2
Y2-S2-030K23,7,576,AS,exp,30,←,right,→,0.7181682998780161,False,17,-1,1,3
Y2-S2-030K23,7,577,AS,exp,27,↑,up,↑,0.5184890001546592,True,18,-1,0,3
Y2-S2-030K23,7,578,AS,exp,31,→,right,→,0.6679363001603633,True,18,-1,0,3
Y2-S2-030K23,7,579,AS,exp,35,↓,down,↓,0.525396800134331,True,18,1,1,4
Y2-S2-030K23,7,580,AS,exp,50,↑,up,↑,1.8690013999585062,True,17,1,0,4
Y2-S2-030K23,7,581,AS,exp,49,→,right,→,0.49990809988230467,True,17,1,0,4
Y2-S2-030K23,7,582,AS,exp,36,←,up,↑,0.8213632002007216,False,17,-1,1,5
Y2-S2-030K23,7,583,AS,exp,47,→,right,→,0.682037299964577,True,18,-1,0,5
Y2-S2-030K23,7,584,AS,exp,38,↓,down,↓,0.7430357998237014,True,18,-1,0,5
Y2-S2-030K23,7,585,AS,exp,36,↑,up,↑,1.791221700143069,True,18,1,1,6
Y2-S2-030K23,7,586,AS,exp,37,→,right,→,1.587271000025794,True,17,1,0,6
Y2-S2-030K23,7,587,AS,exp,33,←,left,←,0.5696042000781745,True,17,1,0,6
Y2-S2-030K23,7,588,AS,exp,48,→,right,→,0.6586364998947829,True,17,1,0,6
Y2-S2-030K23,7,589,AS,exp,48,↓,down,↓,0.8261382000055164,True,16,1,0,6
Y2-S2-030K23,7,590,AS,exp,49,→,right,→,0.7153793999459594,True,16,1,0,6
Y2-S2-030K23,7,591,AS,exp,33,↑,right,→,1.359387599863112,False,16,-1,1,7
Y2-S2-030K23,7,592,AS,exp,28,→,right,→,1.218346199952066,True,17,-1,0,7
Y2-S2-030K23,7,593,AS,exp,40,↓,down,↓,0.9956006999127567,True,17,-1,0,7
Y2-S2-030K23,7,594,AS,exp,43,↑,left,←,1.5785362999886274,False,17,-1,0,7
Y2-S2-030K23,7,595,AS,exp,25,→,right,→,0.7586133000440896,True,18,-1,0,7
Y2-S2-030K23,7,596,AS,exp,34,↓,right,→,1.6683082999661565,False,18,-1,0,7
Y2-S2-030K23,7,597,AS,exp,47,↑,left,←,1.281748800072819,False,19,-1,0,7
Y2-S2-030K23,7,598,AS,exp,50,→,right,→,0.8005579998716712,True,20,-1,0,7
Y2-S2-030K23,7,599,AS,exp,28,↑,left,←,1.7099625999107957,False,20,-1,0,7
Y2-S2-030K23,7,600,AS,exp,47,→,right,→,0.5798428999260068,True,21,-1,0,7
Y2-S2-030K23,7,601,AS,exp,48,←,no_key,no_letter,-1.0,False,21,-1,0,7
Y2-S2-030K23,7,602,AS,exp,44,↑,up,↑,0.775749099906534,True,22,-1,0,7
Y2-S2-030K23,7,603,AS,exp,29,→,right,→,0.5938641999382526,True,22,-1,0,7
Y2-S2-030K23,7,604,AS,exp,28,↓,down,↓,0.5983490999788046,True,22,1,1,8
Y2-S2-030K23,7,605,AS,exp,40,↑,up,↑,0.4344075999688357,True,21,1,0,8
Y2-S2-030K23,7,606,AS,exp,49,←,no_key,no_letter,-1.0,False,21,-1,1,9
Y2-S2-030K23,7,607,AS,exp,50,↑,up,↑,0.5463257001247257,True,22,-1,0,9
Y2-S2-030K23,7,608,AS,exp,44,↓,down,↓,0.895649200072512,True,22,-1,0,9
Y2-S2-030K23,7,609,AS,exp,32,→,right,→,1.1341967000626028,True,22,1,1,10
Y2-S2-030K23,7,610,AS,exp,48,↑,up,↑,0.4340591998770833,True,21,1,0,10
Y2-S2-030K23,7,611,AS,exp,28,→,right,→,0.48404860007576644,True,21,1,0,10
Y2-S2-030K23,7,612,AS,exp,31,↓,down,↓,0.9508640000130981,True,21,1,0,10
Y2-S2-030K23,7,613,AS,exp,25,←,left,←,0.7491366001777351,True,20,1,0,10
Y2-S2-030K23,7,614,AS,exp,41,→,right,→,0.6765640999656171,True,20,1,0,10
Y2-S2-030K23,7,615,AS,exp,27,↑,up,↑,0.8130614999681711,True,20,1,0,10
Y2-S2-030K23,7,616,AS,exp,48,↓,down,↓,0.6233663999009877,True,19,1,0,10
Y2-S2-030K23,7,617,AS,exp,28,←,right,→,0.9163514000829309,False,19,-1,1,11
Y2-S2-030K23,7,618,AS,exp,50,↓,right,→,1.2235687000211328,False,20,-1,0,11
Y2-S2-030K23,7,619,AS,exp,32,→,right,→,0.6899437999818474,True,21,-1,0,11
Y2-S2-030K23,7,620,AS,exp,41,↓,left,←,1.2015563000459224,False,21,-1,0,11
Y2-S2-030K23,7,621,AS,exp,47,→,right,→,0.5792568998876959,True,22,-1,0,11
Y2-S2-030K23,7,622,AS,exp,26,↑,left,←,1.6870000001508743,False,22,-1,0,11
Y2-S2-030K23,7,623,AS,exp,37,←,left,←,0.5877708001062274,True,23,-1,0,11
Y2-S2-030K23,7,624,AS,exp,48,↓,down,↓,0.8969856998883188,True,23,-1,0,11
Y2-S2-030K23,7,625,AS,exp,40,←,left,←,0.8683268998283893,True,23,1,1,12
Y2-S2-030K23,7,626,AS,exp,46,→,right,→,0.548982199979946,True,22,1,0,12
Y2-S2-030K23,7,627,AS,exp,41,↑,up,↑,0.6234508999623358,True,22,1,0,12
Y2-S2-030K23,7,628,AS,exp,48,↓,down,↓,0.9020234998315573,True,22,1,0,12
Y2-S2-030K23,7,629,AS,exp,29,→,right,→,0.48387870006263256,True,21,1,0,12
Y2-S2-030K23,7,630,AS,exp,32,↑,up,↑,0.6460356998723,True,21,1,0,12
Y2-S2-030K23,7,631,AS,exp,46,←,left,←,0.6137924999929965,True,21,1,0,12
Y2-S2-030K23,7,632,AS,exp,28,→,right,→,0.5084031000733376,True,20,1,0,12
Y2-S2-030K23,7,633,AS,exp,48,↓,down,↓,0.5306285999249667,True,20,1,0,12
Y2-S2-030K23,7,634,AS,exp,27,→,right,→,0.5918467999435961,True,20,1,0,12
Y2-S2-030K23,7,635,AS,exp,36,←,left,←,0.4879932999610901,True,19,1,0,12
Y2-S2-030K23,7,636,AS,exp,49,↓,up,↑,0.6859125001356006,False,19,-1,1,13
Y2-S2-030K23,7,637,AS,exp,29,↑,up,↑,0.5397298000752926,True,20,-1,0,13
Y2-S2-030K23,7,638,AS,exp,43,→,right,→,0.5096521000377834,True,20,-1,0,13
Y2-S2-030K23,7,639,AS,exp,28,↓,down,↓,0.8654582998715341,True,20,1,1,14
Y2-S2-030K23,7,640,AS,exp,31,↑,up,↑,0.7250083999242634,True,19,1,0,14
Y2-S2-030K23,7,641,AS,exp,49,↓,up,↑,0.7616425000596792,False,19,-1,1,15
Y2-S2-030K23,7,642,AS,exp,37,↑,up,↑,0.543432499980554,True,20,-1,0,15
Y2-S2-030K23,7,643,AS,exp,48,→,left,←,0.9171095001511276,False,20,-1,0,15
Y2-S2-030K23,7,644,AS,exp,36,↑,up,↑,0.7567648999392986,True,21,-1,0,15
Y2-S2-030K23,7,645,AS,exp,39,→,left,←,0.8973427000455558,False,21,-1,0,15
Y2-S2-030K23,7,646,AS,exp,41,↓,down,↓,1.0701779001392424,True,22,-1,0,15
Y2-S2-030K23,7,647,AS,exp,44,←,left,←,1.0563686999958009,True,22,-1,0,15
Y2-S2-030K23,7,648,AS,exp,29,↓,down,↓,0.6588977000210434,True,22,1,1,16
Y2-S2-030K23,8,649,PS,intra_train,38,→,right,→,0.6632918999530375,True,22,-,-,-
Y2-S2-030K23,8,650,PS,intra_train,41,←,left,←,0.8106144999619573,True,22,-,-,-
Y2-S2-030K23,8,651,PS,intra_train,45,→,right,→,0.825306799961254,True,22,-,-,-
Y2-S2-030K23,8,652,PS,intra_train,30,←,right,→,0.7600327001418918,False,22,-,-,-
Y2-S2-030K23,8,653,PS,intra_train,45,↓,down,↓,0.7294371000025421,True,22,-,-,-
Y2-S2-030K23,8,654,PS,exp,39,↑,up,↑,0.5972872998099774,True,15,0,0,0
Y2-S2-030K23,8,655,PS,exp,28,→,right,→,0.7163587999530137,True,15,0,0,0
Y2-S2-030K23,8,656,PS,exp,31,↑,right,→,1.0481875000987202,False,15,-1,0,0
Y2-S2-030K23,8,657,PS,exp,43,←,left,←,0.47217089985497296,True,16,-1,0,0
Y2-S2-030K23,8,658,PS,exp,26,↓,down,↓,0.8223441001027822,True,16,-1,0,0
Y2-S2-030K23,8,659,PS,exp,43,↑,up,↑,0.4811486001126468,True,16,1,1,1
Y2-S2-030K23,8,660,PS,exp,35,←,left,←,0.5801786000374705,True,15,1,0,1
Y2-S2-030K23,8,661,PS,exp,41,↓,down,↓,0.5924736999440938,True,15,1,0,1
Y2-S2-030K23,8,662,PS,exp,42,←,left,←,0.5669812001287937,True,15,1,0,1
Y2-S2-030K23,8,663,PS,exp,39,↓,down,↓,0.8376453001983464,True,14,1,0,1
Y2-S2-030K23,8,664,PS,exp,40,→,right,→,0.47636649990454316,True,14,1,0,1
Y2-S2-030K23,8,665,PS,exp,43,↓,left,←,0.9244525998365134,False,14,-1,1,2
Y2-S2-030K23,8,666,PS,exp,27,←,left,←,0.47346209990791976,True,15,-1,0,2
Y2-S2-030K23,8,667,PS,exp,25,↑,right,→,0.6944495001807809,False,15,-1,0,2
Y2-S2-030K23,8,668,PS,exp,36,←,left,←,0.43632069998420775,True,16,-1,0,2
Y2-S2-030K23,8,669,PS,exp,48,→,right,→,0.46500249998643994,True,16,-1,0,2
Y2-S2-030K23,8,670,PS,exp,43,↑,up,↑,0.6655845998320729,True,16,1,1,3
Y2-S2-030K23,8,671,PS,exp,35,←,left,←,0.43597840005531907,True,15,1,0,3
Y2-S2-030K23,8,672,PS,exp,33,↑,up,↑,0.5300862998701632,True,15,1,0,3
Y2-S2-030K23,8,673,PS,exp,47,←,right,→,0.9862937999423593,False,15,-1,1,4
Y2-S2-030K23,8,674,PS,exp,45,↑,right,→,1.0077275999356061,False,16,-1,0,4
Y2-S2-030K23,8,675,PS,exp,46,→,right,→,0.8417973998002708,True,17,-1,0,4
Y2-S2-030K23,8,676,PS,exp,27,←,right,→,1.5163722999859601,False,17,-1,0,4
Y2-S2-030K23,8,677,PS,exp,36,↓,up,↑,0.9053364000283182,False,18,-1,0,4
Y2-S2-030K23,8,678,PS,exp,25,↑,up,↑,0.7430966000538319,True,19,-1,0,4
Y2-S2-030K23,8,679,PS,exp,33,↓,down,↓,0.6607075000647455,True,19,-1,0,4
Y2-S2-030K23,8,680,PS,exp,47,↑,up,↑,0.5676104999147356,True,19,1,1,5
Y2-S2-030K23,8,681,PS,exp,47,↓,down,↓,0.4900857999455184,True,18,1,0,5
Y2-S2-030K23,8,682,PS,exp,31,↑,up,↑,0.4934681002050638,True,18,1,0,5
Y2-S2-030K23,8,683,PS,exp,37,→,right,→,0.7473357999697328,True,18,1,0,5
Y2-S2-030K23,8,684,PS,exp,42,↓,down,↓,0.6733559998683631,True,17,1,0,5
Y2-S2-030K23,8,685,PS,exp,37,↑,up,↑,0.4556356000248343,True,17,1,0,5
Y2-S2-030K23,8,686,PS,exp,46,←,left,←,0.4883012000937015,True,17,1,0,5
Y2-S2-030K23,8,687,PS,exp,40,→,right,→,0.7628462000284344,True,16,1,0,5
Y2-S2-030K23,8,688,PS,exp,37,↑,up,↑,0.48266009986400604,True,16,1,0,5
Y2-S2-030K23,8,689,PS,exp,33,←,left,←,0.48091350006870925,True,16,1,0,5
Y2-S2-030K23,8,690,PS,exp,31,→,right,→,0.5204483000561595,True,15,1,0,5
Y2-S2-030K23,8,691,PS,exp,35,←,right,→,1.5406142000574619,False,15,-1,1,6
Y2-S2-030K23,8,692,PS,exp,29,↓,down,↓,0.6155425000470132,True,16,-1,0,6
Y2-S2-030K23,8,693,PS,exp,50,→,right,→,0.49875110015273094,True,16,-1,0,6
Y2-S2-030K23,8,694,PS,exp,29,↓,down,↓,0.7750154999084771,True,16,1,1,7
Y2-S2-030K23,8,695,PS,exp,25,←,left,←,0.5144053001422435,True,15,1,0,7
Y2-S2-030K23,8,696,PS,exp,34,↓,left,←,0.7322748999577016,False,15,-1,1,8
Y2-S2-030K23,8,697,PS,exp,33,←,right,→,0.7380493001546711,False,16,-1,0,8
Y2-S2-030K23,8,698,PS,exp,41,→,right,→,0.4865298999939114,True,17,-1,0,8
Y2-S2-030K23,8,699,PS,exp,41,←,left,←,0.6066214002203196,True,17,-1,0,8
Y2-S2-030K23,8,700,PS,exp,25,↑,up,↑,0.6151680999901146,True,17,1,1,9
Y2-S2-030K23,8,701,PS,exp,35,→,right,→,0.6989621999673545,True,16,1,0,9
Y2-S2-030K23,8,702,PS,exp,44,←,left,←,0.6455290000885725,True,16,1,0,9
Y2-S2-030K23,8,703,PS,exp,31,↑,up,↑,0.4911698999349028,True,16,1,0,9
Y2-S2-030K23,8,704,PS,exp,33,↓,up,↑,0.7803671997971833,False,15,-1,1,10
Y2-S2-030K23,8,705,PS,exp,49,↑,up,↑,0.7830908999312669,True,16,-1,0,10
Y2-S2-030K23,8,706,PS,exp,46,↓,down,↓,0.6424926000181586,True,16,-1,0,10
Y2-S2-030K23,8,707,PS,exp,46,←,left,←,0.59728609980084,True,16,1,1,11
Y2-S2-030K23,8,708,PS,exp,29,↓,down,↓,0.7870628999080509,True,15,1,0,11
Y2-S2-030K23,8,709,PS,exp,36,→,right,→,0.5797300001140684,True,15,1,0,11
Y2-S2-030K23,8,710,PS,exp,36,↓,down,↓,0.7494467000942677,True,15,1,0,11
Y2-S2-030K23,8,711,PS,exp,25,↑,up,↑,0.6061803000047803,True,14,1,0,11
Y2-S2-030K23,8,712,PS,exp,41,→,right,→,0.5740386000834405,True,14,1,0,11
Y2-S2-030K23,8,713,PS,exp,26,↓,up,↑,0.886699200142175,False,14,-1,1,12
Y2-S2-030K23,8,714,PS,exp,38,←,right,→,0.8450985001400113,False,15,-1,0,12
Y2-S2-030K23,8,715,PS,exp,35,↑,up,↑,0.6392789999954402,True,16,-1,0,12
Y2-S2-030K23,8,716,PS,exp,46,←,left,←,0.5168127999641001,True,16,-1,0,12
Y2-S2-030K23,8,717,PS,exp,48,↓,down,↓,0.7931780000217259,True,16,1,1,13
Y2-S2-030K23,8,718,PS,exp,50,→,right,→,0.574080599937588,True,15,1,0,13
Y2-S2-030K23,8,719,PS,exp,50,↓,down,↓,0.6877358998171985,True,15,1,0,13
Y2-S2-030K23,8,720,PS,exp,41,←,left,←,0.4384457999840379,True,15,1,0,13
Y2-S2-030K23,8,721,PS,exp,47,↑,up,↑,0.5192459998652339,True,14,1,0,13
Y2-S2-030K23,8,722,PS,exp,35,←,left,←,0.482829499989748,True,14,1,0,13
Y2-S2-030K23,8,723,PS,exp,28,↑,up,↑,0.44616069993935525,True,14,1,0,13
Y2-S2-030K23,8,724,PS,exp,35,←,right,→,0.5553452000021935,False,13,-1,1,14
Y2-S2-030K23,8,725,PS,exp,26,↑,up,↑,0.5736130001023412,True,14,-1,0,14
Y2-S2-030K23,8,726,PS,exp,37,↓,down,↓,0.6253792999777943,True,14,-1,0,14
Y2-S2-030K23,8,727,PS,exp,28,→,right,→,0.8557706999126822,True,14,1,1,15
Y2-S2-030K23,8,728,PS,exp,46,↓,down,↓,0.5660019000060856,True,13,1,0,15
Y2-S2-030K23,8,729,PS,exp,33,←,left,←,0.552774399984628,True,13,1,0,15
Y2-S2-030K23,8,730,PS,exp,49,↑,right,→,0.6664048000238836,False,13,-1,1,16
