PART_ID,Block_no,Trial_no,Block_type,Trial_type,CSI,Stim_letter,Key_pressed,letter_choose,Rt,Corr,Stimulus Time,Level,Reversal,Revs_count
Y2-S2-024M20,1,1,PS,train,42,↓,down,↓,2.1188695000018924,True,30,-,-,-
Y2-S2-024M20,1,2,PS,train,45,→,right,→,0.6944950001779944,True,30,-,-,-
Y2-S2-024M20,1,3,PS,train,33,↑,up,↑,0.567456099903211,True,30,-,-,-
Y2-S2-024M20,1,4,PS,train,30,←,left,←,0.48402550001628697,True,30,-,-,-
Y2-S2-024M20,1,5,PS,train,31,→,right,→,0.4511154000647366,True,30,-,-,-
Y2-S2-024M20,1,6,PS,train,47,↑,up,↑,0.4176804998423904,True,30,-,-,-
Y2-S2-024M20,1,7,PS,train,30,↓,down,↓,0.8823117997962981,True,30,-,-,-
Y2-S2-024M20,1,8,PS,train,43,→,right,→,0.48422579979524016,True,30,-,-,-
Y2-S2-024M20,1,9,PS,train,48,↓,down,↓,0.5839533000253141,True,30,-,-,-
Y2-S2-024M20,1,10,PS,train,39,→,right,→,0.5338050001300871,True,30,-,-,-
Y2-S2-024M20,2,11,AS,train,31,←,left,←,0.5511225999798626,True,45,-,-,-
Y2-S2-024M20,2,12,AS,train,42,→,right,→,0.4840475001838058,True,45,-,-,-
Y2-S2-024M20,2,13,AS,train,40,↑,up,↑,0.451017800020054,True,45,-,-,-
Y2-S2-024M20,2,14,AS,train,43,→,right,→,0.5012008999474347,True,45,-,-,-
Y2-S2-024M20,2,15,AS,train,41,↓,up,↑,0.5344268002081662,False,45,-,-,-
Y2-S2-024M20,2,16,AS,train,36,↑,up,↑,0.6509895999915898,True,45,-,-,-
Y2-S2-024M20,2,17,AS,train,29,→,right,→,0.45048899995163083,True,45,-,-,-
Y2-S2-024M20,2,18,AS,train,42,↓,up,↑,0.46744070015847683,False,45,-,-,-
Y2-S2-024M20,2,19,AS,train,50,↑,up,↑,0.6508287000469863,True,45,-,-,-
Y2-S2-024M20,2,20,AS,train,31,→,right,→,0.684558300068602,True,45,-,-,-
Y2-S2-024M20,-,21,PS,adaptive,39,↑,up,↑,0.6518629000056535,True,10,0,0,0
Y2-S2-024M20,-,22,PS,adaptive,48,←,left,←,0.6397977999877185,True,10,0,0,0
Y2-S2-024M20,-,23,PS,adaptive,25,↑,left,←,0.6609459999017417,False,10,-1,0,0
Y2-S2-024M20,-,24,PS,adaptive,45,↓,down,↓,0.6036418001167476,True,11,-1,0,0
Y2-S2-024M20,-,25,PS,adaptive,34,↑,up,↑,0.5473873999435455,True,11,-1,0,0
Y2-S2-024M20,-,26,PS,adaptive,37,→,left,←,0.7138264998793602,False,11,-1,0,0
Y2-S2-024M20,-,27,PS,adaptive,42,↓,down,↓,0.8405850001145154,True,12,-1,0,0
Y2-S2-024M20,-,28,PS,adaptive,36,→,right,→,0.7656094999983907,True,12,-1,0,0
Y2-S2-024M20,-,29,PS,adaptive,45,↑,up,↑,0.5022112999577075,True,12,1,1,1
Y2-S2-024M20,-,30,PS,adaptive,34,←,right,→,0.5337349998299032,False,11,-1,1,2
Y2-S2-024M20,-,31,PS,adaptive,39,↑,up,↑,0.5327064001467079,True,12,-1,0,2
Y2-S2-024M20,-,32,PS,adaptive,44,↓,down,↓,0.7046387000009418,True,12,-1,0,2
Y2-S2-024M20,-,33,PS,adaptive,26,↑,up,↑,0.560936399968341,True,12,1,1,3
Y2-S2-024M20,-,34,PS,adaptive,40,←,left,←,0.5701037999242544,True,11,1,0,3
Y2-S2-024M20,-,35,PS,adaptive,25,↓,down,↓,0.6437287000007927,True,11,1,0,3
Y2-S2-024M20,-,36,PS,adaptive,26,←,right,→,0.6408148999325931,False,11,-1,1,4
Y2-S2-024M20,-,37,AS,adaptive,36,↓,down,↓,0.6410264999140054,True,20,0,0,0
Y2-S2-024M20,-,38,AS,adaptive,31,→,right,→,0.5333096999675035,True,20,0,0,0
Y2-S2-024M20,-,39,AS,adaptive,44,←,right,→,0.46740569989196956,False,20,-1,0,0
Y2-S2-024M20,-,40,AS,adaptive,48,↑,up,↑,0.6799524000380188,True,21,-1,0,0
Y2-S2-024M20,-,41,AS,adaptive,48,←,left,←,0.6876481999643147,True,21,-1,0,0
Y2-S2-024M20,-,42,AS,adaptive,38,↑,up,↑,0.5894386998843402,True,21,1,1,1
Y2-S2-024M20,-,43,AS,adaptive,37,←,left,←,0.5380400998983532,True,20,1,0,1
Y2-S2-024M20,-,44,AS,adaptive,39,↑,up,↑,0.5494697000831366,True,20,1,0,1
Y2-S2-024M20,-,45,AS,adaptive,47,←,left,←,0.6803478999063373,True,20,1,0,1
Y2-S2-024M20,-,46,AS,adaptive,26,↑,up,↑,0.45037480001337826,True,19,1,0,1
Y2-S2-024M20,-,47,AS,adaptive,32,→,left,←,0.43407120020128787,False,19,-1,1,2
Y2-S2-024M20,-,48,AS,adaptive,37,←,left,←,0.5289099998772144,True,20,-1,0,2
Y2-S2-024M20,-,49,AS,adaptive,50,→,right,→,0.5216304000932723,True,20,-1,0,2
Y2-S2-024M20,-,50,AS,adaptive,45,↓,down,↓,0.6866107999812812,True,20,1,1,3
Y2-S2-024M20,-,51,AS,adaptive,39,←,left,←,0.6541180000640452,True,19,1,0,3
Y2-S2-024M20,-,52,AS,adaptive,46,↑,up,↑,0.6687356999609619,True,19,1,0,3
Y2-S2-024M20,-,53,AS,adaptive,30,↓,down,↓,0.7345290000084788,True,19,1,0,3
Y2-S2-024M20,-,54,AS,adaptive,32,↑,up,↑,0.7880245000123978,True,18,1,0,3
Y2-S2-024M20,-,55,AS,adaptive,50,←,left,←,0.6771933001000434,True,18,1,0,3
Y2-S2-024M20,-,56,AS,adaptive,32,→,right,→,1.4279100999701768,True,18,1,0,3
Y2-S2-024M20,-,57,AS,adaptive,29,↓,down,↓,0.7771254000253975,True,17,1,0,3
Y2-S2-024M20,-,58,AS,adaptive,46,→,left,←,0.8267703999299556,False,17,-1,1,4
Y2-S2-024M20,1,59,PS,intra_train,26,←,right,→,0.7400962000247091,False,18,-,-,-
Y2-S2-024M20,1,60,PS,intra_train,43,→,right,→,0.5474419000092894,True,18,-,-,-
Y2-S2-024M20,1,61,PS,intra_train,25,←,left,←,0.511875000083819,True,18,-,-,-
Y2-S2-024M20,1,62,PS,intra_train,38,↑,up,↑,0.523205199977383,True,18,-,-,-
Y2-S2-024M20,1,63,PS,intra_train,33,←,right,→,0.5962366000749171,False,18,-,-,-
Y2-S2-024M20,1,64,PS,exp,32,→,left,←,0.5539139001630247,False,12,-1,0,0
Y2-S2-024M20,1,65,PS,exp,43,↑,right,→,0.649393199943006,False,13,-1,0,0
Y2-S2-024M20,1,66,PS,exp,29,↓,right,→,0.6713105998933315,False,14,-1,0,0
Y2-S2-024M20,1,67,PS,exp,35,→,right,→,0.564235599944368,True,15,-1,0,0
Y2-S2-024M20,1,68,PS,exp,40,↓,down,↓,0.6043773000128567,True,15,-1,0,0
Y2-S2-024M20,1,69,PS,exp,49,↑,up,↑,0.6151477999519557,True,15,1,1,1
Y2-S2-024M20,1,70,PS,exp,50,↓,left,←,0.5365269999019802,False,14,-1,1,2
Y2-S2-024M20,1,71,PS,exp,46,↑,up,↑,0.5255136999767274,True,15,-1,0,2
Y2-S2-024M20,1,72,PS,exp,33,←,left,←,0.6145707999821752,True,15,-1,0,2
Y2-S2-024M20,1,73,PS,exp,39,↑,left,←,0.3171625998802483,False,15,-1,0,2
Y2-S2-024M20,1,74,PS,exp,39,→,right,→,0.33380549983121455,True,16,-1,0,2
Y2-S2-024M20,1,75,PS,exp,27,←,right,→,0.35078259999863803,False,16,-1,0,2
Y2-S2-024M20,1,76,PS,exp,26,↑,up,↑,0.5630286000669003,True,17,-1,0,2
Y2-S2-024M20,1,77,PS,exp,33,→,right,→,0.5579409999772906,True,17,-1,0,2
Y2-S2-024M20,1,78,PS,exp,35,↓,down,↓,0.6063455000985414,True,17,1,1,3
Y2-S2-024M20,1,79,PS,exp,40,↑,up,↑,0.4590598000213504,True,16,1,0,3
Y2-S2-024M20,1,80,PS,exp,40,→,right,→,0.4828124998603016,True,16,1,0,3
Y2-S2-024M20,1,81,PS,exp,30,↑,up,↑,0.7093299999833107,True,16,1,0,3
Y2-S2-024M20,1,82,PS,exp,48,→,right,→,0.44857880007475615,True,15,1,0,3
Y2-S2-024M20,1,83,PS,exp,37,←,left,←,0.5048110000789165,True,15,1,0,3
Y2-S2-024M20,1,84,PS,exp,46,↑,up,↑,0.5007809000089765,True,15,1,0,3
Y2-S2-024M20,1,85,PS,exp,44,↓,left,←,0.6586339001078159,False,14,-1,1,4
Y2-S2-024M20,1,86,PS,exp,29,←,left,←,0.4509179999586195,True,15,-1,0,4
Y2-S2-024M20,1,87,PS,exp,25,↑,up,↑,0.6127811998594552,True,15,-1,0,4
Y2-S2-024M20,1,88,PS,exp,42,←,left,←,0.49615089991129935,True,15,1,1,5
Y2-S2-024M20,1,89,PS,exp,27,→,right,→,0.4919716001022607,True,14,1,0,5
Y2-S2-024M20,1,90,PS,exp,38,↓,down,↓,0.7125004001427442,True,14,1,0,5
Y2-S2-024M20,1,91,PS,exp,43,←,left,←,0.5245695998892188,True,14,1,0,5
Y2-S2-024M20,1,92,PS,exp,43,→,right,→,0.4363021000754088,True,13,1,0,5
Y2-S2-024M20,1,93,PS,exp,47,←,left,←,0.42723180004395545,True,13,1,0,5
Y2-S2-024M20,1,94,PS,exp,34,↑,up,↑,0.5480153998360038,True,13,1,0,5
Y2-S2-024M20,1,95,PS,exp,45,↓,up,↑,0.6466882000677288,False,12,-1,1,6
Y2-S2-024M20,1,96,PS,exp,26,→,left,←,0.40622020000591874,False,13,-1,0,6
Y2-S2-024M20,1,97,PS,exp,50,↑,up,↑,0.45110350009053946,True,14,-1,0,6
Y2-S2-024M20,1,98,PS,exp,28,↓,down,↓,0.5818900000303984,True,14,-1,0,6
Y2-S2-024M20,1,99,PS,exp,38,↑,up,↑,0.5330715000163764,True,14,1,1,7
Y2-S2-024M20,1,100,PS,exp,46,←,left,←,0.4582469000015408,True,13,1,0,7
Y2-S2-024M20,1,101,PS,exp,37,→,right,→,0.513142199954018,True,13,1,0,7
Y2-S2-024M20,1,102,PS,exp,39,↓,down,↓,0.6868099998682737,True,13,1,0,7
Y2-S2-024M20,1,103,PS,exp,41,←,left,←,0.4982363001909107,True,12,1,0,7
Y2-S2-024M20,1,104,PS,exp,41,→,right,→,0.53346629999578,True,12,1,0,7
Y2-S2-024M20,1,105,PS,exp,45,↑,up,↑,0.46034240000881255,True,12,1,0,7
Y2-S2-024M20,1,106,PS,exp,48,→,right,→,0.5216133999638259,True,11,1,0,7
Y2-S2-024M20,1,107,PS,exp,40,↑,up,↑,0.47451669978909194,True,11,1,0,7
Y2-S2-024M20,1,108,PS,exp,30,→,right,→,0.5231801001355052,True,11,1,0,7
Y2-S2-024M20,1,109,PS,exp,42,↓,down,↓,0.6855387999676168,True,10,1,0,7
Y2-S2-024M20,1,110,PS,exp,30,←,left,←,0.5999185000546277,True,10,1,0,7
Y2-S2-024M20,1,111,PS,exp,50,→,right,→,0.5645091000478715,True,10,1,0,7
Y2-S2-024M20,1,112,PS,exp,40,↑,up,↑,0.43757799989543855,True,9,1,0,7
Y2-S2-024M20,1,113,PS,exp,29,↓,down,↓,0.7261985000222921,True,9,1,0,7
Y2-S2-024M20,1,114,PS,exp,35,↑,left,←,0.4603601999115199,False,9,-1,1,8
Y2-S2-024M20,1,115,PS,exp,26,←,right,→,0.45148759987205267,False,10,-1,0,8
Y2-S2-024M20,1,116,PS,exp,47,→,right,→,0.5471723000518978,True,11,-1,0,8
Y2-S2-024M20,1,117,PS,exp,46,←,left,←,0.5223127999342978,True,11,-1,0,8
Y2-S2-024M20,1,118,PS,exp,35,↓,down,↓,0.5936543999705464,True,11,1,1,9
Y2-S2-024M20,1,119,PS,exp,32,←,left,←,0.4967481999192387,True,10,1,0,9
Y2-S2-024M20,1,120,PS,exp,43,↓,down,↓,0.5446567998733371,True,10,1,0,9
Y2-S2-024M20,1,121,PS,exp,38,→,right,→,0.48235390009358525,True,10,1,0,9
Y2-S2-024M20,1,122,PS,exp,45,↑,left,←,0.611680299974978,False,9,-1,1,10
Y2-S2-024M20,1,123,PS,exp,39,→,right,→,0.41977540007792413,True,10,-1,0,10
Y2-S2-024M20,1,124,PS,exp,46,↑,down,↓,0.671788000036031,False,10,-1,0,10
Y2-S2-024M20,1,125,PS,exp,30,→,right,→,0.619253900134936,True,11,-1,0,10
Y2-S2-024M20,1,126,PS,exp,38,↓,down,↓,0.6981174000538886,True,11,-1,0,10
Y2-S2-024M20,1,127,PS,exp,27,→,right,→,0.6127564001362771,True,11,1,1,11
Y2-S2-024M20,1,128,PS,exp,47,↑,up,↑,0.5997113001067191,True,10,1,0,11
Y2-S2-024M20,1,129,PS,exp,50,←,left,←,0.4516104001086205,True,10,1,0,11
Y2-S2-024M20,1,130,PS,exp,41,↑,left,←,0.5609810999594629,False,10,-1,1,12
Y2-S2-024M20,1,131,PS,exp,45,↓,down,↓,0.6871700000483543,True,11,-1,0,12
Y2-S2-024M20,1,132,PS,exp,40,←,left,←,0.6440558000467718,True,11,-1,0,12
Y2-S2-024M20,1,133,PS,exp,33,↑,left,←,0.6085483999922872,False,11,-1,0,12
Y2-S2-024M20,1,134,PS,exp,48,↓,down,↓,0.5294063999317586,True,12,-1,0,12
Y2-S2-024M20,1,135,PS,exp,42,↑,up,↑,0.49244739999994636,True,12,-1,0,12
Y2-S2-024M20,1,136,PS,exp,40,←,left,←,0.5382245997898281,True,12,1,1,13
Y2-S2-024M20,1,137,PS,exp,46,↑,up,↑,0.5829523000866175,True,11,1,0,13
Y2-S2-024M20,1,138,PS,exp,27,←,right,→,0.6263394001871347,False,11,-1,1,14
Y2-S2-024M20,1,139,PS,exp,31,↓,left,←,0.37983320001512766,False,12,-1,0,14
Y2-S2-024M20,1,140,PS,exp,41,←,left,←,0.49621180002577603,True,13,-1,0,14
Y2-S2-024M20,1,141,PS,exp,47,→,right,→,0.505428799893707,True,13,-1,0,14
Y2-S2-024M20,1,142,PS,exp,40,↑,up,↑,0.47823209990747273,True,13,1,1,15
Y2-S2-024M20,1,143,PS,exp,29,↓,down,↓,0.7546055999118835,True,12,1,0,15
Y2-S2-024M20,1,144,PS,exp,26,←,left,←,0.44193510012701154,True,12,1,0,15
Y2-S2-024M20,1,145,PS,exp,34,↑,up,↑,0.5411372999660671,True,12,1,0,15
Y2-S2-024M20,1,146,PS,exp,43,↓,down,↓,0.5985649998765439,True,11,1,0,15
Y2-S2-024M20,1,147,PS,exp,50,←,left,←,0.3873514998704195,True,11,1,0,15
Y2-S2-024M20,1,148,PS,exp,47,↓,down,↓,0.6111211001407355,True,11,1,0,15
Y2-S2-024M20,1,149,PS,exp,34,→,right,→,0.45837810006923974,True,10,1,0,15
Y2-S2-024M20,1,150,PS,exp,35,←,left,←,0.34856569999828935,True,10,1,0,15
Y2-S2-024M20,1,151,PS,exp,47,↓,left,←,0.5363976999651641,False,10,-1,1,16
Y2-S2-024M20,2,152,AS,intra_train,36,↑,up,↑,0.45082159992307425,True,27,-,-,-
Y2-S2-024M20,2,153,AS,intra_train,27,←,left,←,0.467338299844414,True,27,-,-,-
Y2-S2-024M20,2,154,AS,intra_train,31,→,right,→,0.5006876999977976,True,27,-,-,-
Y2-S2-024M20,2,155,AS,intra_train,38,←,right,→,0.48451430001296103,False,27,-,-,-
Y2-S2-024M20,2,156,AS,intra_train,44,↑,up,↑,0.5841896999627352,True,27,-,-,-
Y2-S2-024M20,2,157,AS,exp,44,←,left,←,0.4174063000828028,True,18,0,0,0
Y2-S2-024M20,2,158,AS,exp,37,↑,up,↑,0.5073150999378413,True,18,0,0,0
Y2-S2-024M20,2,159,AS,exp,44,↓,down,↓,0.6540385000407696,True,18,1,0,0
Y2-S2-024M20,2,160,AS,exp,37,↑,up,↑,0.6270574000664055,True,17,1,0,0
Y2-S2-024M20,2,161,AS,exp,43,←,left,←,0.6443018999416381,True,17,1,0,0
Y2-S2-024M20,2,162,AS,exp,50,↑,up,↑,0.5800570000428706,True,17,1,0,0
Y2-S2-024M20,2,163,AS,exp,47,↓,down,↓,0.8048992000985891,True,16,1,0,0
Y2-S2-024M20,2,164,AS,exp,49,→,right,→,0.5101839997805655,True,16,1,0,0
Y2-S2-024M20,2,165,AS,exp,35,↑,left,←,0.5526256999000907,False,16,-1,1,1
Y2-S2-024M20,2,166,AS,exp,38,↓,down,↓,1.8245701000560075,True,17,-1,0,1
Y2-S2-024M20,2,167,AS,exp,32,←,left,←,0.6847641000058502,True,17,-1,0,1
Y2-S2-024M20,2,168,AS,exp,48,→,right,→,0.49864630005322397,True,17,1,1,2
Y2-S2-024M20,2,169,AS,exp,29,←,left,←,0.5929918000474572,True,16,1,0,2
Y2-S2-024M20,2,170,AS,exp,42,→,right,→,0.3836995998863131,True,16,1,0,2
Y2-S2-024M20,2,171,AS,exp,38,↓,down,↓,0.6833093999885023,True,16,1,0,2
Y2-S2-024M20,2,172,AS,exp,40,→,right,→,0.4554063999094069,True,15,1,0,2
Y2-S2-024M20,2,173,AS,exp,46,←,left,←,0.6736690001562238,True,15,1,0,2
Y2-S2-024M20,2,174,AS,exp,33,→,right,→,0.465824699960649,True,15,1,0,2
Y2-S2-024M20,2,175,AS,exp,32,←,left,←,0.4678864001762122,True,14,1,0,2
Y2-S2-024M20,2,176,AS,exp,35,↑,up,↑,0.7429062000010163,True,14,1,0,2
Y2-S2-024M20,2,177,AS,exp,41,→,right,→,0.6539990999735892,True,14,1,0,2
Y2-S2-024M20,2,178,AS,exp,45,←,left,←,0.5323423999361694,True,13,1,0,2
Y2-S2-024M20,2,179,AS,exp,26,→,left,←,0.7458446999080479,False,13,-1,1,3
Y2-S2-024M20,2,180,AS,exp,49,↑,up,↑,0.5021530000958592,True,14,-1,0,3
Y2-S2-024M20,2,181,AS,exp,48,↓,down,↓,0.8248205999843776,True,14,-1,0,3
Y2-S2-024M20,2,182,AS,exp,26,→,right,→,0.5042229001410306,True,14,1,1,4
Y2-S2-024M20,2,183,AS,exp,26,←,left,←,0.6663160999305546,True,13,1,0,4
Y2-S2-024M20,2,184,AS,exp,41,↓,up,↑,0.6840272000990808,False,13,-1,1,5
Y2-S2-024M20,2,185,AS,exp,38,→,right,→,0.5998434999492019,True,14,-1,0,5
Y2-S2-024M20,2,186,AS,exp,40,←,left,←,0.4486732000950724,True,14,-1,0,5
Y2-S2-024M20,2,187,AS,exp,44,→,left,←,0.47679700003936887,False,14,-1,0,5
Y2-S2-024M20,2,188,AS,exp,46,↑,up,↑,0.5205165999941528,True,15,-1,0,5
Y2-S2-024M20,2,189,AS,exp,47,→,right,→,0.6775157998781651,True,15,-1,0,5
Y2-S2-024M20,2,190,AS,exp,31,↓,up,↑,0.6333421999588609,False,15,-1,0,5
Y2-S2-024M20,2,191,AS,exp,41,←,left,←,0.5729251999873668,True,16,-1,0,5
Y2-S2-024M20,2,192,AS,exp,37,↓,down,↓,0.7912558000534773,True,16,-1,0,5
Y2-S2-024M20,2,193,AS,exp,25,←,left,←,0.5703471000306308,True,16,1,1,6
Y2-S2-024M20,2,194,AS,exp,49,↑,up,↑,0.5976795998867601,True,15,1,0,6
Y2-S2-024M20,2,195,AS,exp,26,↓,down,↓,0.6491019001696259,True,15,1,0,6
Y2-S2-024M20,2,196,AS,exp,33,↑,left,←,0.6041761999949813,False,15,-1,1,7
Y2-S2-024M20,2,197,AS,exp,40,←,left,←,0.6291185000445694,True,16,-1,0,7
Y2-S2-024M20,2,198,AS,exp,49,→,right,→,0.5723607998806983,True,16,-1,0,7
Y2-S2-024M20,2,199,AS,exp,33,↑,down,↓,0.8435513000003994,False,16,-1,0,7
Y2-S2-024M20,2,200,AS,exp,31,→,left,←,0.47376880003139377,False,17,-1,0,7
Y2-S2-024M20,2,201,AS,exp,27,↑,up,↑,0.6457133998628706,True,18,-1,0,7
Y2-S2-024M20,2,202,AS,exp,50,↓,down,↓,0.5582411999348551,True,18,-1,0,7
Y2-S2-024M20,2,203,AS,exp,26,→,right,→,0.5963360997848213,True,18,1,1,8
Y2-S2-024M20,2,204,AS,exp,42,↓,down,↓,0.6317630000412464,True,17,1,0,8
Y2-S2-024M20,2,205,AS,exp,33,←,left,←,0.6070261001586914,True,17,1,0,8
Y2-S2-024M20,2,206,AS,exp,48,→,right,→,0.5443726999219507,True,17,1,0,8
Y2-S2-024M20,2,207,AS,exp,34,↓,down,↓,0.6828844000119716,True,16,1,0,8
Y2-S2-024M20,2,208,AS,exp,41,↑,up,↑,0.6111341000068933,True,16,1,0,8
Y2-S2-024M20,2,209,AS,exp,40,←,left,←,0.535373599966988,True,16,1,0,8
Y2-S2-024M20,2,210,AS,exp,49,↓,down,↓,0.6679096000734717,True,15,1,0,8
Y2-S2-024M20,2,211,AS,exp,25,←,left,←,0.5767053999006748,True,15,1,0,8
Y2-S2-024M20,2,212,AS,exp,35,↑,up,↑,0.7553616999648511,True,15,1,0,8
Y2-S2-024M20,2,213,AS,exp,36,↓,down,↓,0.5527635999023914,True,14,1,0,8
Y2-S2-024M20,2,214,AS,exp,39,→,left,←,0.5382826998829842,False,14,-1,1,9
Y2-S2-024M20,2,215,AS,exp,31,←,left,←,0.4917506000492722,True,15,-1,0,9
Y2-S2-024M20,2,216,AS,exp,46,↓,left,←,0.49258359987288713,False,15,-1,0,9
Y2-S2-024M20,2,217,AS,exp,44,←,left,←,0.5526451000478119,True,16,-1,0,9
Y2-S2-024M20,2,218,AS,exp,30,↓,down,↓,0.672054999973625,True,16,-1,0,9
Y2-S2-024M20,2,219,AS,exp,33,←,left,←,0.5055483998730779,True,16,1,1,10
Y2-S2-024M20,2,220,AS,exp,28,↑,down,↓,0.5989061999134719,False,15,-1,1,11
Y2-S2-024M20,2,221,AS,exp,31,↓,down,↓,0.6657546001952142,True,16,-1,0,11
Y2-S2-024M20,2,222,AS,exp,42,←,right,→,0.5802853999193758,False,16,-1,0,11
Y2-S2-024M20,2,223,AS,exp,31,↑,up,↑,0.8164035000372678,True,17,-1,0,11
Y2-S2-024M20,2,224,AS,exp,28,↓,down,↓,0.5357168999034911,True,17,-1,0,11
Y2-S2-024M20,2,225,AS,exp,25,↑,down,↓,0.8360274001024663,False,17,-1,0,11
Y2-S2-024M20,2,226,AS,exp,27,→,right,→,0.6001822999678552,True,18,-1,0,11
Y2-S2-024M20,2,227,AS,exp,26,↓,down,↓,0.5953928998205811,True,18,-1,0,11
Y2-S2-024M20,2,228,AS,exp,25,↑,up,↑,0.6801791000179946,True,18,1,1,12
Y2-S2-024M20,2,229,AS,exp,48,←,right,→,0.5448076999746263,False,17,-1,1,13
Y2-S2-024M20,2,230,AS,exp,50,→,left,←,0.5402061000932008,False,18,-1,0,13
Y2-S2-024M20,2,231,AS,exp,44,↓,down,↓,0.7418687001336366,True,19,-1,0,13
Y2-S2-024M20,2,232,AS,exp,48,←,right,→,0.4508808997925371,False,19,-1,0,13
Y2-S2-024M20,2,233,AS,exp,27,↑,up,↑,0.6470536000560969,True,20,-1,0,13
Y2-S2-024M20,2,234,AS,exp,44,←,left,←,0.5413325000554323,True,20,-1,0,13
Y2-S2-024M20,2,235,AS,exp,40,↓,down,↓,0.6356786000542343,True,20,1,1,14
Y2-S2-024M20,2,236,AS,exp,35,↑,up,↑,0.6344175999984145,True,19,1,0,14
Y2-S2-024M20,2,237,AS,exp,25,↓,down,↓,0.6007891001645476,True,19,1,0,14
Y2-S2-024M20,2,238,AS,exp,34,←,left,←,0.45055079995654523,True,19,1,0,14
Y2-S2-024M20,2,239,AS,exp,30,↓,down,↓,0.5716566001065075,True,18,1,0,14
Y2-S2-024M20,2,240,AS,exp,46,↑,up,↑,0.530854000011459,True,18,1,0,14
Y2-S2-024M20,2,241,AS,exp,27,→,right,→,1.4171943999826908,True,18,1,0,14
Y2-S2-024M20,2,242,AS,exp,50,↓,down,↓,0.6598943001590669,True,17,1,0,14
Y2-S2-024M20,2,243,AS,exp,31,→,right,→,0.8094611999113113,True,17,1,0,14
Y2-S2-024M20,2,244,AS,exp,43,↓,down,↓,0.5782966001424938,True,17,1,0,14
Y2-S2-024M20,2,245,AS,exp,41,↑,up,↑,0.5519033998716623,True,16,1,0,14
Y2-S2-024M20,2,246,AS,exp,36,←,left,←,0.5302834000904113,True,16,1,0,14
Y2-S2-024M20,2,247,AS,exp,26,↓,down,↓,0.5099117998033762,True,16,1,0,14
Y2-S2-024M20,2,248,AS,exp,25,→,left,←,0.4829233998898417,False,15,-1,1,15
Y2-S2-024M20,2,249,AS,exp,46,↑,up,↑,0.4935709999408573,True,16,-1,0,15
Y2-S2-024M20,2,250,AS,exp,40,←,left,←,0.557943900115788,True,16,-1,0,15
Y2-S2-024M20,2,251,AS,exp,47,↓,up,↑,0.7175255999900401,False,16,-1,0,15
Y2-S2-024M20,2,252,AS,exp,41,→,left,←,0.5017778999172151,False,17,-1,0,15
Y2-S2-024M20,2,253,AS,exp,39,←,left,←,1.9554379999171942,True,18,-1,0,15
Y2-S2-024M20,2,254,AS,exp,38,↑,up,↑,0.6278516000602394,True,18,-1,0,15
Y2-S2-024M20,2,255,AS,exp,29,↓,up,↑,0.6529316999949515,False,18,-1,0,15
Y2-S2-024M20,2,256,AS,exp,42,↑,up,↑,0.5684164001140743,True,19,-1,0,15
Y2-S2-024M20,2,257,AS,exp,26,←,left,←,0.6239890002179891,True,19,-1,0,15
Y2-S2-024M20,2,258,AS,exp,47,↓,up,↑,0.5164344999939203,False,19,-1,0,15
Y2-S2-024M20,2,259,AS,exp,50,→,right,→,0.7358468999154866,True,20,-1,0,15
Y2-S2-024M20,2,260,AS,exp,41,←,left,←,0.5970344000961632,True,20,-1,0,15
Y2-S2-024M20,2,261,AS,exp,29,↑,up,↑,0.5430745000485331,True,20,1,1,16
Y2-S2-024M20,3,262,AS,intra_train,25,↓,down,↓,0.6823711001779884,True,27,-,-,-
Y2-S2-024M20,3,263,AS,intra_train,33,←,left,←,0.46741139981895685,True,27,-,-,-
Y2-S2-024M20,3,264,AS,intra_train,37,→,right,→,0.5507216998375952,True,27,-,-,-
Y2-S2-024M20,3,265,AS,intra_train,47,↓,down,↓,0.6516958000138402,True,27,-,-,-
Y2-S2-024M20,3,266,AS,intra_train,40,←,left,←,0.7096915000583977,True,27,-,-,-
Y2-S2-024M20,3,267,AS,exp,39,↑,up,↑,0.5560606999788433,True,18,0,0,0
Y2-S2-024M20,3,268,AS,exp,30,→,right,→,1.9598205001093447,True,18,0,0,0
Y2-S2-024M20,3,269,AS,exp,38,↑,up,↑,0.5051090000197291,True,18,1,0,0
Y2-S2-024M20,3,270,AS,exp,32,↓,down,↓,0.6161495000123978,True,17,1,0,0
Y2-S2-024M20,3,271,AS,exp,40,←,left,←,0.6491729998961091,True,17,1,0,0
Y2-S2-024M20,3,272,AS,exp,36,↑,up,↑,0.5394085999578238,True,17,1,0,0
Y2-S2-024M20,3,273,AS,exp,44,→,right,→,0.4909932999871671,True,16,1,0,0
Y2-S2-024M20,3,274,AS,exp,25,↓,down,↓,0.6929754000157118,True,16,1,0,0
Y2-S2-024M20,3,275,AS,exp,45,→,right,→,0.6293512000702322,True,16,1,0,0
Y2-S2-024M20,3,276,AS,exp,44,↑,down,↓,0.7832373999990523,False,15,-1,1,1
Y2-S2-024M20,3,277,AS,exp,49,→,right,→,0.4922150999773294,True,16,-1,0,1
Y2-S2-024M20,3,278,AS,exp,35,↑,up,↑,0.49603359983302653,True,16,-1,0,1
Y2-S2-024M20,3,279,AS,exp,28,↓,down,↓,0.5161798999179155,True,16,1,1,2
Y2-S2-024M20,3,280,AS,exp,47,←,left,←,0.7388327000662684,True,15,1,0,2
Y2-S2-024M20,3,281,AS,exp,49,↑,up,↑,0.5900416998192668,True,15,1,0,2
Y2-S2-024M20,3,282,AS,exp,49,←,left,←,0.5636514001525939,True,15,1,0,2
Y2-S2-024M20,3,283,AS,exp,25,↓,down,↓,0.5506237000226974,True,14,1,0,2
Y2-S2-024M20,3,284,AS,exp,47,←,left,←,0.6796705999877304,True,14,1,0,2
Y2-S2-024M20,3,285,AS,exp,37,→,right,→,0.6216686998959631,True,14,1,0,2
Y2-S2-024M20,3,286,AS,exp,43,↑,up,↑,0.5552242998965085,True,13,1,0,2
Y2-S2-024M20,3,287,AS,exp,35,→,right,→,0.5048325001262128,True,13,1,0,2
Y2-S2-024M20,3,288,AS,exp,25,↓,down,↓,0.6494428000878543,True,13,1,0,2
Y2-S2-024M20,3,289,AS,exp,29,↑,up,↑,0.5137656000442803,True,12,1,0,2
Y2-S2-024M20,3,290,AS,exp,27,→,left,←,0.586030300008133,False,12,-1,1,3
Y2-S2-024M20,3,291,AS,exp,34,↑,up,↑,0.59332159999758,True,13,-1,0,3
Y2-S2-024M20,3,292,AS,exp,25,→,right,→,0.5928896002005786,True,13,-1,0,3
Y2-S2-024M20,3,293,AS,exp,46,←,up,↑,0.6877842999529094,False,13,-1,0,3
Y2-S2-024M20,3,294,AS,exp,38,↑,up,↑,0.5258547998964787,True,14,-1,0,3
Y2-S2-024M20,3,295,AS,exp,37,←,right,→,0.6089657999109477,False,14,-1,0,3
Y2-S2-024M20,3,296,AS,exp,45,↑,up,↑,0.4361225999891758,True,15,-1,0,3
Y2-S2-024M20,3,297,AS,exp,35,←,left,←,0.555960499914363,True,15,-1,0,3
Y2-S2-024M20,3,298,AS,exp,31,→,right,→,0.6345950998365879,True,15,1,1,4
Y2-S2-024M20,3,299,AS,exp,26,↑,up,↑,0.5675673999357969,True,14,1,0,4
Y2-S2-024M20,3,300,AS,exp,39,→,right,→,0.48860300006344914,True,14,1,0,4
Y2-S2-024M20,3,301,AS,exp,29,↓,up,↑,0.4699580001179129,False,14,-1,1,5
Y2-S2-024M20,3,302,AS,exp,27,↑,up,↑,0.5886059999465942,True,15,-1,0,5
Y2-S2-024M20,3,303,AS,exp,41,→,right,→,0.5573076999280602,True,15,-1,0,5
Y2-S2-024M20,3,304,AS,exp,33,←,left,←,0.49311220017261803,True,15,1,1,6
Y2-S2-024M20,3,305,AS,exp,32,↑,up,↑,0.55796859995462,True,14,1,0,6
Y2-S2-024M20,3,306,AS,exp,47,→,right,→,0.6538005000911653,True,14,1,0,6
Y2-S2-024M20,3,307,AS,exp,27,↑,up,↑,0.5170829999260604,True,14,1,0,6
Y2-S2-024M20,3,308,AS,exp,40,→,right,→,0.7365693999454379,True,13,1,0,6
Y2-S2-024M20,3,309,AS,exp,37,↑,up,↑,0.4996499998960644,True,13,1,0,6
Y2-S2-024M20,3,310,AS,exp,34,↓,up,↑,0.8733815001323819,False,13,-1,1,7
Y2-S2-024M20,3,311,AS,exp,49,←,left,←,0.5888322999235243,True,14,-1,0,7
Y2-S2-024M20,3,312,AS,exp,45,↓,down,↓,0.6535027998033911,True,14,-1,0,7
Y2-S2-024M20,3,313,AS,exp,35,←,left,←,0.5036408000160009,True,14,1,1,8
Y2-S2-024M20,3,314,AS,exp,46,→,left,←,0.45748259988613427,False,13,-1,1,9
Y2-S2-024M20,3,315,AS,exp,38,↓,down,↓,0.5704435999505222,True,14,-1,0,9
Y2-S2-024M20,3,316,AS,exp,26,→,left,←,0.6040407998953015,False,14,-1,0,9
Y2-S2-024M20,3,317,AS,exp,36,↑,up,↑,0.5771780998911709,True,15,-1,0,9
Y2-S2-024M20,3,318,AS,exp,28,←,left,←,1.3194150999188423,True,15,-1,0,9
Y2-S2-024M20,3,319,AS,exp,40,↑,up,↑,0.5806003001052886,True,15,1,1,10
Y2-S2-024M20,3,320,AS,exp,25,←,right,→,0.581832499941811,False,14,-1,1,11
Y2-S2-024M20,3,321,AS,exp,31,→,left,←,0.5595011000987142,False,15,-1,0,11
Y2-S2-024M20,3,322,AS,exp,45,↓,left,←,0.3006408999208361,False,16,-1,0,11
Y2-S2-024M20,3,323,AS,exp,28,←,left,←,0.40035670017823577,True,17,-1,0,11
Y2-S2-024M20,3,324,AS,exp,43,→,no_key,no_letter,-1.0,False,17,-1,0,11
Y2-S2-024M20,3,325,AS,exp,35,↓,down,↓,0.6284477000590414,True,18,-1,0,11
Y2-S2-024M20,3,326,AS,exp,44,←,right,→,0.4002240998670459,False,18,-1,0,11
Y2-S2-024M20,3,327,AS,exp,47,↓,down,↓,0.6541393001098186,True,19,-1,0,11
Y2-S2-024M20,3,328,AS,exp,34,↑,up,↑,0.3832555999979377,True,19,-1,0,11
Y2-S2-024M20,3,329,AS,exp,29,→,right,→,0.45035729999653995,True,19,1,1,12
Y2-S2-024M20,3,330,AS,exp,31,←,left,←,0.4005192001350224,True,18,1,0,12
Y2-S2-024M20,3,331,AS,exp,36,↓,down,↓,0.5695595000870526,True,18,1,0,12
Y2-S2-024M20,3,332,AS,exp,43,→,left,←,0.5550527998711914,False,18,-1,1,13
Y2-S2-024M20,3,333,AS,exp,26,←,left,←,0.5759064999874681,True,19,-1,0,13
Y2-S2-024M20,3,334,AS,exp,44,↑,down,↓,0.7043792998883873,False,19,-1,0,13
Y2-S2-024M20,3,335,AS,exp,25,↓,down,↓,0.624668600037694,True,20,-1,0,13
Y2-S2-024M20,3,336,AS,exp,47,→,right,→,0.383723100181669,True,20,-1,0,13
Y2-S2-024M20,3,337,AS,exp,48,←,left,←,0.618256000103429,True,20,1,1,14
Y2-S2-024M20,3,338,AS,exp,37,↓,down,↓,0.4173568000551313,True,19,1,0,14
Y2-S2-024M20,3,339,AS,exp,47,↑,up,↑,0.5048324000090361,True,19,1,0,14
Y2-S2-024M20,3,340,AS,exp,50,→,right,→,0.3505719001404941,True,19,1,0,14
Y2-S2-024M20,3,341,AS,exp,40,←,left,←,0.400362899992615,True,18,1,0,14
Y2-S2-024M20,3,342,AS,exp,33,↑,up,↑,0.41717270016670227,True,18,1,0,14
Y2-S2-024M20,3,343,AS,exp,26,↓,down,↓,0.6810463001020253,True,18,1,0,14
Y2-S2-024M20,3,344,AS,exp,28,←,left,←,1.734337299829349,True,17,1,0,14
Y2-S2-024M20,3,345,AS,exp,46,↑,up,↑,0.5949729999992996,True,17,1,0,14
Y2-S2-024M20,3,346,AS,exp,42,↓,down,↓,0.690347199793905,True,17,1,0,14
Y2-S2-024M20,3,347,AS,exp,49,↑,up,↑,0.6044910000637174,True,16,1,0,14
Y2-S2-024M20,3,348,AS,exp,27,←,left,←,0.65904980013147,True,16,1,0,14
Y2-S2-024M20,3,349,AS,exp,28,→,right,→,0.7789174001663923,True,16,1,0,14
Y2-S2-024M20,3,350,AS,exp,48,↑,up,↑,0.4775766001548618,True,15,1,0,14
Y2-S2-024M20,3,351,AS,exp,47,↓,down,↓,0.5915475999936461,True,15,1,0,14
Y2-S2-024M20,3,352,AS,exp,31,↑,up,↑,0.4469379000365734,True,15,1,0,14
Y2-S2-024M20,3,353,AS,exp,34,↓,left,←,0.8008996001444757,False,14,-1,1,15
Y2-S2-024M20,3,354,AS,exp,49,→,right,→,0.5508277998305857,True,15,-1,0,15
Y2-S2-024M20,3,355,AS,exp,41,↓,up,↑,0.5536096000578254,False,15,-1,0,15
Y2-S2-024M20,3,356,AS,exp,48,←,left,←,0.5510436999611557,True,16,-1,0,15
Y2-S2-024M20,3,357,AS,exp,47,↑,up,↑,0.4006105000153184,True,16,-1,0,15
Y2-S2-024M20,3,358,AS,exp,46,→,right,→,0.457428100053221,True,16,1,1,16
Y2-S2-024M20,4,359,PS,intra_train,31,↓,up,↑,0.5296644000336528,False,18,-,-,-
Y2-S2-024M20,4,360,PS,intra_train,47,←,left,←,0.4838466001674533,True,18,-,-,-
Y2-S2-024M20,4,361,PS,intra_train,50,↓,down,↓,0.5923127999994904,True,18,-,-,-
Y2-S2-024M20,4,362,PS,intra_train,29,↑,up,↑,0.4172781000379473,True,18,-,-,-
Y2-S2-024M20,4,363,PS,intra_train,36,→,right,→,1.2463141998741776,True,18,-,-,-
Y2-S2-024M20,4,364,PS,exp,30,←,left,←,0.4961792000103742,True,12,0,0,0
Y2-S2-024M20,4,365,PS,exp,45,↑,up,↑,0.6094897000584751,True,12,0,0,0
Y2-S2-024M20,4,366,PS,exp,41,←,left,←,0.5557722998782992,True,12,1,0,0
Y2-S2-024M20,4,367,PS,exp,50,↓,down,↓,0.5631942998152226,True,11,1,0,0
Y2-S2-024M20,4,368,PS,exp,25,↑,up,↑,0.604478299850598,True,11,1,0,0
Y2-S2-024M20,4,369,PS,exp,43,←,left,←,0.557448600186035,True,11,1,0,0
Y2-S2-024M20,4,370,PS,exp,47,→,right,→,0.47932410007342696,True,10,1,0,0
Y2-S2-024M20,4,371,PS,exp,48,↑,left,←,0.7717049000784755,False,10,-1,1,1
Y2-S2-024M20,4,372,PS,exp,31,→,left,←,0.5606899000704288,False,11,-1,0,1
Y2-S2-024M20,4,373,PS,exp,45,↑,up,↑,0.5560093000531197,True,12,-1,0,1
Y2-S2-024M20,4,374,PS,exp,47,↓,down,↓,0.6352810999378562,True,12,-1,0,1
Y2-S2-024M20,4,375,PS,exp,29,↑,up,↑,0.45434180018492043,True,12,1,1,2
Y2-S2-024M20,4,376,PS,exp,29,↓,down,↓,0.5420134000014514,True,11,1,0,2
Y2-S2-024M20,4,377,PS,exp,47,↑,up,↑,0.5059066000394523,True,11,1,0,2
Y2-S2-024M20,4,378,PS,exp,42,←,left,←,0.5871747999917716,True,11,1,0,2
Y2-S2-024M20,4,379,PS,exp,44,↓,down,↓,0.6118369000032544,True,10,1,0,2
Y2-S2-024M20,4,380,PS,exp,33,→,right,→,0.5070740000810474,True,10,1,0,2
Y2-S2-024M20,4,381,PS,exp,30,↓,left,←,0.5527885998599231,False,10,-1,1,3
Y2-S2-024M20,4,382,PS,exp,31,→,left,←,0.5318922998849303,False,11,-1,0,3
Y2-S2-024M20,4,383,PS,exp,27,↑,up,↑,0.3880346999503672,True,12,-1,0,3
Y2-S2-024M20,4,384,PS,exp,40,←,left,←,0.5792937001679093,True,12,-1,0,3
Y2-S2-024M20,4,385,PS,exp,42,→,right,→,0.4915406999643892,True,12,1,1,4
Y2-S2-024M20,4,386,PS,exp,27,↓,down,↓,0.7281577999237925,True,11,1,0,4
Y2-S2-024M20,4,387,PS,exp,32,←,left,←,0.4639860999304801,True,11,1,0,4
Y2-S2-024M20,4,388,PS,exp,26,→,right,→,0.4746437999419868,True,11,1,0,4
Y2-S2-024M20,4,389,PS,exp,26,↑,left,←,0.4518261000048369,False,10,-1,1,5
Y2-S2-024M20,4,390,PS,exp,37,↓,right,→,0.396665700012818,False,11,-1,0,5
Y2-S2-024M20,4,391,PS,exp,26,←,left,←,0.4078798000700772,True,12,-1,0,5
Y2-S2-024M20,4,392,PS,exp,25,→,right,→,1.1578027000650764,True,12,-1,0,5
Y2-S2-024M20,4,393,PS,exp,49,↑,up,↑,0.44896239996887743,True,12,1,1,6
Y2-S2-024M20,4,394,PS,exp,49,↓,down,↓,0.4913526000455022,True,11,1,0,6
Y2-S2-024M20,4,395,PS,exp,44,→,right,→,0.3833349000196904,True,11,1,0,6
Y2-S2-024M20,4,396,PS,exp,47,←,left,←,0.4858142000157386,True,11,1,0,6
Y2-S2-024M20,4,397,PS,exp,27,→,right,→,0.49936060002073646,True,10,1,0,6
Y2-S2-024M20,4,398,PS,exp,46,↓,down,↓,0.5452330000698566,True,10,1,0,6
Y2-S2-024M20,4,399,PS,exp,26,↑,up,↑,0.3978693999815732,True,10,1,0,6
Y2-S2-024M20,4,400,PS,exp,36,←,left,←,0.5182721000164747,True,9,1,0,6
Y2-S2-024M20,4,401,PS,exp,42,↓,down,↓,0.5464735999703407,True,9,1,0,6
Y2-S2-024M20,4,402,PS,exp,32,→,right,→,0.42990290001034737,True,9,1,0,6
Y2-S2-024M20,4,403,PS,exp,28,←,left,←,0.4911382000427693,True,8,1,0,6
Y2-S2-024M20,4,404,PS,exp,40,→,right,→,0.4149617999792099,True,8,1,0,6
Y2-S2-024M20,4,405,PS,exp,49,↓,down,↓,0.5641310000792146,True,8,1,0,6
Y2-S2-024M20,4,406,PS,exp,43,→,right,→,0.465155600104481,True,7,1,0,6
Y2-S2-024M20,4,407,PS,exp,48,↓,left,←,0.7519075002055615,False,7,-1,1,7
Y2-S2-024M20,4,408,PS,exp,45,←,right,→,0.5162563999183476,False,8,-1,0,7
Y2-S2-024M20,4,409,PS,exp,28,↑,down,↓,0.6767457998357713,False,9,-1,0,7
Y2-S2-024M20,4,410,PS,exp,27,→,right,→,0.8375882001128048,True,10,-1,0,7
Y2-S2-024M20,4,411,PS,exp,38,↑,left,←,0.6322564999572933,False,10,-1,0,7
Y2-S2-024M20,4,412,PS,exp,42,←,left,←,0.5062935999594629,True,11,-1,0,7
Y2-S2-024M20,4,413,PS,exp,37,↑,up,↑,0.4937340999022126,True,11,-1,0,7
Y2-S2-024M20,4,414,PS,exp,36,→,right,→,0.5110140999313444,True,11,1,1,8
Y2-S2-024M20,4,415,PS,exp,35,↑,up,↑,0.5361953999381512,True,10,1,0,8
Y2-S2-024M20,4,416,PS,exp,43,→,right,→,0.5259767000097781,True,10,1,0,8
Y2-S2-024M20,4,417,PS,exp,27,←,left,←,0.535064100055024,True,10,1,0,8
Y2-S2-024M20,4,418,PS,exp,33,→,right,→,0.5014208999928087,True,9,1,0,8
Y2-S2-024M20,4,419,PS,exp,36,↑,up,↑,0.4295730001758784,True,9,1,0,8
Y2-S2-024M20,4,420,PS,exp,35,↓,down,↓,0.5351555999368429,True,9,1,0,8
Y2-S2-024M20,4,421,PS,exp,33,↑,up,↑,0.37228860007598996,True,8,1,0,8
Y2-S2-024M20,4,422,PS,exp,29,←,left,←,0.461398100014776,True,8,1,0,8
Y2-S2-024M20,4,423,PS,exp,43,→,left,←,0.5929812998510897,False,8,-1,1,9
Y2-S2-024M20,4,424,PS,exp,34,←,left,←,0.5094770998694003,True,9,-1,0,9
Y2-S2-024M20,4,425,PS,exp,42,→,right,→,0.4620413000229746,True,9,-1,0,9
Y2-S2-024M20,4,426,PS,exp,37,↓,left,←,0.5378457000479102,False,9,-1,0,9
Y2-S2-024M20,4,427,PS,exp,31,↑,up,↑,0.4279988999478519,True,10,-1,0,9
Y2-S2-024M20,4,428,PS,exp,29,←,left,←,0.4599832999520004,True,10,-1,0,9
Y2-S2-024M20,4,429,PS,exp,44,→,right,→,0.393190799979493,True,10,1,1,10
Y2-S2-024M20,4,430,PS,exp,44,↑,up,↑,0.44564350019209087,True,9,1,0,10
Y2-S2-024M20,4,431,PS,exp,33,←,left,←,0.5298184999264777,True,9,1,0,10
Y2-S2-024M20,4,432,PS,exp,50,↑,up,↑,0.38933979999274015,True,9,1,0,10
Y2-S2-024M20,4,433,PS,exp,32,←,right,→,0.6408928998280317,False,8,-1,1,11
Y2-S2-024M20,4,434,PS,exp,36,↑,left,←,0.4634640999138355,False,9,-1,0,11
Y2-S2-024M20,4,435,PS,exp,45,←,left,←,0.38286480004899204,True,10,-1,0,11
Y2-S2-024M20,4,436,PS,exp,37,↓,up,↑,0.46554849995300174,False,10,-1,0,11
Y2-S2-024M20,4,437,PS,exp,26,→,left,←,0.6168325999751687,False,11,-1,0,11
Y2-S2-024M20,4,438,PS,exp,37,↑,up,↑,0.4922086000442505,True,12,-1,0,11
Y2-S2-024M20,4,439,PS,exp,46,→,right,→,0.42621239996515214,True,12,-1,0,11
Y2-S2-024M20,4,440,PS,exp,29,↑,up,↑,0.5000821000430733,True,12,1,1,12
Y2-S2-024M20,4,441,PS,exp,30,←,left,←,0.5159712999593467,True,11,1,0,12
Y2-S2-024M20,4,442,PS,exp,39,↓,down,↓,0.5761819998733699,True,11,1,0,12
Y2-S2-024M20,4,443,PS,exp,29,→,right,→,0.5224064998328686,True,11,1,0,12
Y2-S2-024M20,4,444,PS,exp,27,↑,up,↑,0.40024899994023144,True,10,1,0,12
Y2-S2-024M20,4,445,PS,exp,40,→,right,→,1.0503653001505882,True,10,1,0,12
Y2-S2-024M20,4,446,PS,exp,42,↓,down,↓,0.5466066999360919,True,10,1,0,12
Y2-S2-024M20,4,447,PS,exp,34,↑,up,↑,0.5569610998500139,True,9,1,0,12
Y2-S2-024M20,4,448,PS,exp,44,←,left,←,0.4389225000049919,True,9,1,0,12
Y2-S2-024M20,4,449,PS,exp,36,→,right,→,0.38604629994370043,True,9,1,0,12
Y2-S2-024M20,4,450,PS,exp,31,←,left,←,0.6151256000157446,True,8,1,0,12
Y2-S2-024M20,4,451,PS,exp,40,↓,left,←,0.6475131998304278,False,8,-1,1,13
Y2-S2-024M20,4,452,PS,exp,33,↑,up,↑,0.4315298998262733,True,9,-1,0,13
Y2-S2-024M20,4,453,PS,exp,50,→,right,→,0.5256610999349505,True,9,-1,0,13
Y2-S2-024M20,4,454,PS,exp,30,↓,left,←,0.8992953998968005,False,9,-1,0,13
Y2-S2-024M20,4,455,PS,exp,42,←,left,←,0.4828083000611514,True,10,-1,0,13
Y2-S2-024M20,4,456,PS,exp,46,↑,up,↑,0.4281178000383079,True,10,-1,0,13
Y2-S2-024M20,4,457,PS,exp,50,←,left,←,0.5408911001868546,True,10,1,1,14
Y2-S2-024M20,4,458,PS,exp,35,↓,up,↑,0.5325342998839915,False,9,-1,1,15
Y2-S2-024M20,4,459,PS,exp,31,↑,up,↑,0.4498835001140833,True,10,-1,0,15
Y2-S2-024M20,4,460,PS,exp,26,↓,down,↓,0.6625377000309527,True,10,-1,0,15
Y2-S2-024M20,4,461,PS,exp,37,←,left,←,0.5232079999987036,True,10,1,1,16
Y2-S2-024M20,5,462,PS,intra_train,38,↓,down,↓,0.5860253998544067,True,18,-,-,-
Y2-S2-024M20,5,463,PS,intra_train,37,←,left,←,1.086743799969554,True,18,-,-,-
Y2-S2-024M20,5,464,PS,intra_train,45,↓,down,↓,0.5337578000035137,True,18,-,-,-
Y2-S2-024M20,5,465,PS,intra_train,36,↑,up,↑,0.4741567000746727,True,18,-,-,-
Y2-S2-024M20,5,466,PS,intra_train,40,→,right,→,0.4174913000315428,True,18,-,-,-
Y2-S2-024M20,5,467,PS,exp,41,↓,left,←,0.31717139994725585,False,12,-1,0,0
Y2-S2-024M20,5,468,PS,exp,47,→,right,→,0.6781605000142008,True,13,-1,0,0
Y2-S2-024M20,5,469,PS,exp,43,↓,down,↓,0.5668505001813173,True,13,-1,0,0
Y2-S2-024M20,5,470,PS,exp,50,←,left,←,0.3886184000875801,True,13,1,1,1
Y2-S2-024M20,5,471,PS,exp,41,↑,left,←,0.5596395002212375,False,12,-1,1,2
Y2-S2-024M20,5,472,PS,exp,35,←,left,←,0.5642647999338806,True,13,-1,0,2
Y2-S2-024M20,5,473,PS,exp,42,↓,down,↓,0.5379582999739796,True,13,-1,0,2
Y2-S2-024M20,5,474,PS,exp,43,↑,up,↑,0.4789615001063794,True,13,1,1,3
Y2-S2-024M20,5,475,PS,exp,33,↓,down,↓,0.4860020000487566,True,12,1,0,3
Y2-S2-024M20,5,476,PS,exp,27,↑,up,↑,0.46176859992556274,True,12,1,0,3
Y2-S2-024M20,5,477,PS,exp,37,←,left,←,0.44866989995352924,True,12,1,0,3
Y2-S2-024M20,5,478,PS,exp,42,→,right,→,0.4676632999908179,True,11,1,0,3
Y2-S2-024M20,5,479,PS,exp,36,↑,up,↑,0.44928780011832714,True,11,1,0,3
Y2-S2-024M20,5,480,PS,exp,30,→,left,←,0.5078398999758065,False,11,-1,1,4
Y2-S2-024M20,5,481,PS,exp,50,←,right,→,0.37699190014973283,False,12,-1,0,4
Y2-S2-024M20,5,482,PS,exp,42,↓,down,↓,0.5675057000480592,True,13,-1,0,4
Y2-S2-024M20,5,483,PS,exp,32,→,right,→,0.5273743998259306,True,13,-1,0,4
Y2-S2-024M20,5,484,PS,exp,38,↑,up,↑,0.548129300121218,True,13,1,1,5
Y2-S2-024M20,5,485,PS,exp,33,←,up,↑,0.6379088999237865,False,12,-1,1,6
Y2-S2-024M20,5,486,PS,exp,35,→,right,→,0.5936444001272321,True,13,-1,0,6
Y2-S2-024M20,5,487,PS,exp,32,←,left,←,0.47356810001656413,True,13,-1,0,6
Y2-S2-024M20,5,488,PS,exp,41,→,right,→,0.44782450003549457,True,13,1,1,7
Y2-S2-024M20,5,489,PS,exp,30,←,left,←,0.4429554999805987,True,12,1,0,7
Y2-S2-024M20,5,490,PS,exp,49,→,left,←,0.6078510999213904,False,12,-1,1,8
Y2-S2-024M20,5,491,PS,exp,28,←,left,←,0.43053999985568225,True,13,-1,0,8
Y2-S2-024M20,5,492,PS,exp,49,↑,up,↑,0.5425150999799371,True,13,-1,0,8
Y2-S2-024M20,5,493,PS,exp,30,←,left,←,0.4731753000523895,True,13,1,1,9
Y2-S2-024M20,5,494,PS,exp,31,↓,down,↓,0.5947546001989394,True,12,1,0,9
Y2-S2-024M20,5,495,PS,exp,32,→,right,→,0.4893499000463635,True,12,1,0,9
Y2-S2-024M20,5,496,PS,exp,32,←,right,→,0.8600528999231756,False,12,-1,1,10
Y2-S2-024M20,5,497,PS,exp,46,↑,up,↑,0.5352334000635892,True,13,-1,0,10
Y2-S2-024M20,5,498,PS,exp,26,→,left,←,0.5485085998661816,False,13,-1,0,10
Y2-S2-024M20,5,499,PS,exp,48,↓,left,←,0.6072684000246227,False,14,-1,0,10
Y2-S2-024M20,5,500,PS,exp,44,↑,up,↑,1.3729465000797063,True,15,-1,0,10
Y2-S2-024M20,5,501,PS,exp,36,↓,down,↓,0.6071347000543028,True,15,-1,0,10
Y2-S2-024M20,5,502,PS,exp,38,↑,up,↑,0.5200330000370741,True,15,1,1,11
Y2-S2-024M20,5,503,PS,exp,36,←,left,←,0.5888869999907911,True,14,1,0,11
Y2-S2-024M20,5,504,PS,exp,49,→,right,→,0.4762732000090182,True,14,1,0,11
Y2-S2-024M20,5,505,PS,exp,30,↓,left,←,0.5865625999867916,False,14,-1,1,12
Y2-S2-024M20,5,506,PS,exp,35,↑,left,←,0.31758200004696846,False,15,-1,0,12
Y2-S2-024M20,5,507,PS,exp,45,←,left,←,1.0110250001307577,True,16,-1,0,12
Y2-S2-024M20,5,508,PS,exp,30,↓,down,↓,0.6944665000773966,True,16,-1,0,12
Y2-S2-024M20,5,509,PS,exp,38,←,left,←,0.3839032999239862,True,16,1,1,13
Y2-S2-024M20,5,510,PS,exp,34,↑,left,←,0.6444039000198245,False,15,-1,1,14
Y2-S2-024M20,5,511,PS,exp,26,←,left,←,1.2506514999549836,True,16,-1,0,14
Y2-S2-024M20,5,512,PS,exp,34,→,right,→,0.9510003000032157,True,16,-1,0,14
Y2-S2-024M20,5,513,PS,exp,30,↑,up,↑,0.5058223998639733,True,16,1,1,15
Y2-S2-024M20,5,514,PS,exp,48,←,left,←,0.4665278000757098,True,15,1,0,15
Y2-S2-024M20,5,515,PS,exp,30,↓,down,↓,0.6895550000481308,True,15,1,0,15
Y2-S2-024M20,5,516,PS,exp,30,→,right,→,0.44897820008918643,True,15,1,0,15
Y2-S2-024M20,5,517,PS,exp,40,←,left,←,0.4164292998611927,True,14,1,0,15
Y2-S2-024M20,5,518,PS,exp,38,↑,up,↑,0.405078399926424,True,14,1,0,15
Y2-S2-024M20,5,519,PS,exp,43,←,left,←,0.4329069999512285,True,14,1,0,15
Y2-S2-024M20,5,520,PS,exp,50,→,right,→,0.4395500998944044,True,13,1,0,15
Y2-S2-024M20,5,521,PS,exp,29,↑,up,↑,0.4620457999408245,True,13,1,0,15
Y2-S2-024M20,5,522,PS,exp,46,←,left,←,0.39103209995664656,True,13,1,0,15
Y2-S2-024M20,5,523,PS,exp,44,→,right,→,0.5366307001095265,True,12,1,0,15
Y2-S2-024M20,5,524,PS,exp,43,↓,left,←,0.45320109999738634,False,12,-1,1,16
Y2-S2-024M20,6,525,AS,intra_train,35,←,left,←,0.5505884999874979,True,27,-,-,-
Y2-S2-024M20,6,526,AS,intra_train,43,↑,up,↑,1.1581119999755174,True,27,-,-,-
Y2-S2-024M20,6,527,AS,intra_train,34,→,left,←,0.4840666998643428,False,27,-,-,-
Y2-S2-024M20,6,528,AS,intra_train,47,↑,up,↑,0.5502923999447376,True,27,-,-,-
Y2-S2-024M20,6,529,AS,intra_train,31,→,right,→,1.156678200000897,True,27,-,-,-
Y2-S2-024M20,6,530,AS,exp,43,←,left,←,0.6222147999797016,True,18,0,0,0
Y2-S2-024M20,6,531,AS,exp,40,→,right,→,0.5199431001674384,True,18,0,0,0
Y2-S2-024M20,6,532,AS,exp,32,↑,up,↑,0.5164036001078784,True,18,1,0,0
Y2-S2-024M20,6,533,AS,exp,42,↓,down,↓,0.8182488000020385,True,17,1,0,0
Y2-S2-024M20,6,534,AS,exp,26,→,right,→,0.656530300155282,True,17,1,0,0
Y2-S2-024M20,6,535,AS,exp,31,↑,up,↑,0.5386806998867542,True,17,1,0,0
Y2-S2-024M20,6,536,AS,exp,29,↓,left,←,0.49239499983377755,False,16,-1,1,1
Y2-S2-024M20,6,537,AS,exp,47,→,left,←,0.45522829983383417,False,17,-1,0,1
Y2-S2-024M20,6,538,AS,exp,33,←,left,←,0.6194382000248879,True,18,-1,0,1
Y2-S2-024M20,6,539,AS,exp,47,↑,up,↑,0.6428565001115203,True,18,-1,0,1
Y2-S2-024M20,6,540,AS,exp,39,↓,down,↓,0.8239308998454362,True,18,1,1,2
Y2-S2-024M20,6,541,AS,exp,39,↑,up,↑,0.5466039997991174,True,17,1,0,2
Y2-S2-024M20,6,542,AS,exp,41,→,right,→,0.5878437000792474,True,17,1,0,2
Y2-S2-024M20,6,543,AS,exp,46,←,left,←,0.5741403999272734,True,17,1,0,2
Y2-S2-024M20,6,544,AS,exp,37,→,right,→,0.704403700074181,True,16,1,0,2
Y2-S2-024M20,6,545,AS,exp,35,↓,down,↓,0.6824008000548929,True,16,1,0,2
Y2-S2-024M20,6,546,AS,exp,42,→,right,→,0.49898719997145236,True,16,1,0,2
Y2-S2-024M20,6,547,AS,exp,38,↑,down,↓,0.7519145000260323,False,15,-1,1,3
Y2-S2-024M20,6,548,AS,exp,26,↓,up,↑,0.7190340000670403,False,16,-1,0,3
Y2-S2-024M20,6,549,AS,exp,36,←,left,←,0.5667067000176758,True,17,-1,0,3
Y2-S2-024M20,6,550,AS,exp,29,↓,down,↓,0.7930393000133336,True,17,-1,0,3
Y2-S2-024M20,6,551,AS,exp,32,←,left,←,0.550972499884665,True,17,1,1,4
Y2-S2-024M20,6,552,AS,exp,41,↓,down,↓,0.605373099911958,True,16,1,0,4
Y2-S2-024M20,6,553,AS,exp,30,←,left,←,0.49432890000753105,True,16,1,0,4
Y2-S2-024M20,6,554,AS,exp,48,↑,up,↑,0.40083339996635914,True,16,1,0,4
Y2-S2-024M20,6,555,AS,exp,43,→,right,→,0.5083581001963466,True,15,1,0,4
Y2-S2-024M20,6,556,AS,exp,50,↑,up,↑,0.5803320000413805,True,15,1,0,4
Y2-S2-024M20,6,557,AS,exp,39,→,right,→,0.6586537999100983,True,15,1,0,4
Y2-S2-024M20,6,558,AS,exp,41,↓,down,↓,0.7113922999706119,True,14,1,0,4
Y2-S2-024M20,6,559,AS,exp,45,→,right,→,0.5093574000056833,True,14,1,0,4
Y2-S2-024M20,6,560,AS,exp,38,←,left,←,0.6065890998579562,True,14,1,0,4
Y2-S2-024M20,6,561,AS,exp,40,→,right,→,0.5046856000553817,True,13,1,0,4
Y2-S2-024M20,6,562,AS,exp,31,↑,up,↑,0.5694651000667363,True,13,1,0,4
Y2-S2-024M20,6,563,AS,exp,29,↓,down,↓,0.6541185998357832,True,13,1,0,4
Y2-S2-024M20,6,564,AS,exp,35,→,left,←,0.5225156000815332,False,12,-1,1,5
Y2-S2-024M20,6,565,AS,exp,41,←,left,←,0.5159068999346346,True,13,-1,0,5
Y2-S2-024M20,6,566,AS,exp,26,↓,down,↓,0.6029061998706311,True,13,-1,0,5
Y2-S2-024M20,6,567,AS,exp,47,↑,up,↑,0.4969073000829667,True,13,1,1,6
Y2-S2-024M20,6,568,AS,exp,36,→,left,←,0.6067163001280278,False,12,-1,1,7
Y2-S2-024M20,6,569,AS,exp,42,←,right,→,0.572197400033474,False,13,-1,0,7
Y2-S2-024M20,6,570,AS,exp,38,↓,down,↓,0.8137856998946518,True,14,-1,0,7
Y2-S2-024M20,6,571,AS,exp,36,←,right,→,0.514087500050664,False,14,-1,0,7
Y2-S2-024M20,6,572,AS,exp,30,↑,left,←,0.6958504999056458,False,15,-1,0,7
Y2-S2-024M20,6,573,AS,exp,50,←,left,←,0.5299774000886828,True,16,-1,0,7
Y2-S2-024M20,6,574,AS,exp,31,↓,down,↓,0.5881253001280129,True,16,-1,0,7
Y2-S2-024M20,6,575,AS,exp,36,←,left,←,0.5353858999442309,True,16,1,1,8
Y2-S2-024M20,6,576,AS,exp,45,↓,down,↓,0.6741182000841945,True,15,1,0,8
Y2-S2-024M20,6,577,AS,exp,31,→,right,→,0.5623955000191927,True,15,1,0,8
Y2-S2-024M20,6,578,AS,exp,28,↓,down,↓,0.5672973999753594,True,15,1,0,8
Y2-S2-024M20,6,579,AS,exp,35,↑,down,↓,0.6739466998260468,False,14,-1,1,9
Y2-S2-024M20,6,580,AS,exp,39,↓,down,↓,0.5545121000614017,True,15,-1,0,9
Y2-S2-024M20,6,581,AS,exp,29,↑,up,↑,0.5604147000703961,True,15,-1,0,9
Y2-S2-024M20,6,582,AS,exp,33,→,right,→,0.5463737000245601,True,15,1,1,10
Y2-S2-024M20,6,583,AS,exp,35,←,left,←,0.5374253001064062,True,14,1,0,10
Y2-S2-024M20,6,584,AS,exp,49,↓,up,↑,0.7016857999842614,False,14,-1,1,11
Y2-S2-024M20,6,585,AS,exp,32,←,left,←,0.808505600085482,True,15,-1,0,11
Y2-S2-024M20,6,586,AS,exp,43,↓,down,↓,0.6654347002040595,True,15,-1,0,11
Y2-S2-024M20,6,587,AS,exp,35,→,right,→,0.49419660004787147,True,15,1,1,12
Y2-S2-024M20,6,588,AS,exp,27,↑,up,↑,0.4902423999737948,True,14,1,0,12
Y2-S2-024M20,6,589,AS,exp,48,→,left,←,1.0237255999818444,False,14,-1,1,13
Y2-S2-024M20,6,590,AS,exp,50,←,right,→,0.554871599888429,False,15,-1,0,13
Y2-S2-024M20,6,591,AS,exp,32,↓,down,↓,0.5778206000104547,True,16,-1,0,13
Y2-S2-024M20,6,592,AS,exp,32,→,left,←,0.48167659994214773,False,16,-1,0,13
Y2-S2-024M20,6,593,AS,exp,49,←,right,→,1.1000097000505775,False,17,-1,0,13
Y2-S2-024M20,6,594,AS,exp,25,↑,up,↑,0.683073400054127,True,18,-1,0,13
Y2-S2-024M20,6,595,AS,exp,37,↓,down,↓,0.4962119001429528,True,18,-1,0,13
Y2-S2-024M20,6,596,AS,exp,44,↑,down,↓,0.6017931001260877,False,18,-1,0,13
Y2-S2-024M20,6,597,AS,exp,49,←,right,→,0.4958170000463724,False,19,-1,0,13
Y2-S2-024M20,6,598,AS,exp,28,↓,down,↓,0.5796990999951959,True,20,-1,0,13
Y2-S2-024M20,6,599,AS,exp,27,←,left,←,0.5689759999513626,True,20,-1,0,13
Y2-S2-024M20,6,600,AS,exp,37,↓,down,↓,0.5846492999698967,True,20,1,1,14
Y2-S2-024M20,6,601,AS,exp,42,→,right,→,0.4513960999902338,True,19,1,0,14
Y2-S2-024M20,6,602,AS,exp,48,↑,left,←,0.5712602999992669,False,19,-1,1,15
Y2-S2-024M20,6,603,AS,exp,27,→,right,→,0.5547240998130292,True,20,-1,0,15
Y2-S2-024M20,6,604,AS,exp,31,↓,down,↓,0.6791974001098424,True,20,-1,0,15
Y2-S2-024M20,6,605,AS,exp,43,←,left,←,0.6277554999105632,True,20,1,1,16
Y2-S2-024M20,7,606,AS,intra_train,43,↑,up,↑,0.48372649983502924,True,27,-,-,-
Y2-S2-024M20,7,607,AS,intra_train,33,→,right,→,0.667862500064075,True,27,-,-,-
Y2-S2-024M20,7,608,AS,intra_train,46,↑,up,↑,0.5168840000405908,True,27,-,-,-
Y2-S2-024M20,7,609,AS,intra_train,29,←,left,←,0.5006560001056641,True,27,-,-,-
Y2-S2-024M20,7,610,AS,intra_train,40,↓,left,←,0.4840021999552846,False,27,-,-,-
Y2-S2-024M20,7,611,AS,exp,43,↑,no_key,no_letter,-1.0,False,18,-1,0,0
Y2-S2-024M20,7,612,AS,exp,48,←,left,←,1.3236511999275535,True,19,-1,0,0
Y2-S2-024M20,7,613,AS,exp,31,↑,up,↑,0.5250191998202354,True,19,-1,0,0
Y2-S2-024M20,7,614,AS,exp,48,←,left,←,0.5755233999807388,True,19,1,1,1
Y2-S2-024M20,7,615,AS,exp,25,↓,down,↓,0.6299590000417084,True,18,1,0,1
Y2-S2-024M20,7,616,AS,exp,31,←,left,←,1.0166058999020606,True,18,1,0,1
Y2-S2-024M20,7,617,AS,exp,48,↓,down,↓,0.5176321999169886,True,18,1,0,1
Y2-S2-024M20,7,618,AS,exp,30,↑,up,↑,0.5160661998670548,True,17,1,0,1
Y2-S2-024M20,7,619,AS,exp,49,→,right,→,0.5949673000723124,True,17,1,0,1
Y2-S2-024M20,7,620,AS,exp,34,↓,down,↓,0.6464116000570357,True,17,1,0,1
Y2-S2-024M20,7,621,AS,exp,26,↑,up,↑,0.593614200130105,True,16,1,0,1
Y2-S2-024M20,7,622,AS,exp,46,→,right,→,0.565627499949187,True,16,1,0,1
Y2-S2-024M20,7,623,AS,exp,32,←,left,←,0.4567221999168396,True,16,1,0,1
Y2-S2-024M20,7,624,AS,exp,34,↑,down,↓,0.6864830001723021,False,15,-1,1,2
Y2-S2-024M20,7,625,AS,exp,32,←,left,←,0.6350024999119341,True,16,-1,0,2
Y2-S2-024M20,7,626,AS,exp,29,↓,up,↑,0.7253733999095857,False,16,-1,0,2
Y2-S2-024M20,7,627,AS,exp,35,→,right,→,0.4733841000124812,True,17,-1,0,2
Y2-S2-024M20,7,628,AS,exp,39,↓,down,↓,0.7145227999426425,True,17,-1,0,2
Y2-S2-024M20,7,629,AS,exp,25,↑,up,↑,0.4729138999246061,True,17,1,1,3
Y2-S2-024M20,7,630,AS,exp,45,↓,down,↓,0.7318035999778658,True,16,1,0,3
Y2-S2-024M20,7,631,AS,exp,25,→,right,→,0.680233399849385,True,16,1,0,3
Y2-S2-024M20,7,632,AS,exp,44,←,left,←,0.722109799971804,True,16,1,0,3
Y2-S2-024M20,7,633,AS,exp,27,↓,down,↓,0.6702531999908388,True,15,1,0,3
Y2-S2-024M20,7,634,AS,exp,27,←,down,↓,0.61178890010342,False,15,-1,1,4
Y2-S2-024M20,7,635,AS,exp,32,→,right,→,0.5433183000423014,True,16,-1,0,4
Y2-S2-024M20,7,636,AS,exp,37,↑,up,↑,0.5513072998728603,True,16,-1,0,4
Y2-S2-024M20,7,637,AS,exp,50,↓,down,↓,0.4993600999005139,True,16,1,1,5
Y2-S2-024M20,7,638,AS,exp,46,→,right,→,0.4366131001152098,True,15,1,0,5
Y2-S2-024M20,7,639,AS,exp,39,↑,up,↑,0.5873773000203073,True,15,1,0,5
Y2-S2-024M20,7,640,AS,exp,36,←,left,←,0.572865900117904,True,15,1,0,5
Y2-S2-024M20,7,641,AS,exp,30,→,right,→,0.43239929992705584,True,14,1,0,5
Y2-S2-024M20,7,642,AS,exp,45,↑,down,↓,0.7611688000615686,False,14,-1,1,6
Y2-S2-024M20,7,643,AS,exp,48,→,right,→,0.46132729994133115,True,15,-1,0,6
Y2-S2-024M20,7,644,AS,exp,25,↓,down,↓,0.540809900034219,True,15,-1,0,6
Y2-S2-024M20,7,645,AS,exp,37,↑,down,↓,0.45870990003459156,False,15,-1,0,6
Y2-S2-024M20,7,646,AS,exp,45,↓,down,↓,0.4881356998812407,True,16,-1,0,6
Y2-S2-024M20,7,647,AS,exp,46,←,left,←,0.6648510000668466,True,16,-1,0,6
Y2-S2-024M20,7,648,AS,exp,29,↓,down,↓,0.5553820999339223,True,16,1,1,7
Y2-S2-024M20,7,649,AS,exp,49,↑,down,↓,0.47468660003505647,False,15,-1,1,8
Y2-S2-024M20,7,650,AS,exp,41,←,left,←,0.5353502999059856,True,16,-1,0,8
Y2-S2-024M20,7,651,AS,exp,47,↓,down,↓,0.5100033001508564,True,16,-1,0,8
Y2-S2-024M20,7,652,AS,exp,41,←,left,←,0.5522195999510586,True,16,1,1,9
Y2-S2-024M20,7,653,AS,exp,33,→,right,→,0.48796169995330274,True,15,1,0,9
Y2-S2-024M20,7,654,AS,exp,25,←,left,←,0.6543815000914037,True,15,1,0,9
Y2-S2-024M20,7,655,AS,exp,27,↑,up,↑,0.5469561999198049,True,15,1,0,9
Y2-S2-024M20,7,656,AS,exp,36,→,right,→,0.43454180005937815,True,14,1,0,9
Y2-S2-024M20,7,657,AS,exp,44,↓,down,↓,0.7158512000460178,True,14,1,0,9
Y2-S2-024M20,7,658,AS,exp,39,→,left,←,0.5118608998600394,False,14,-1,1,10
Y2-S2-024M20,7,659,AS,exp,42,↑,up,↑,0.5329905999824405,True,15,-1,0,10
Y2-S2-024M20,7,660,AS,exp,30,→,right,→,0.49385850015096366,True,15,-1,0,10
Y2-S2-024M20,7,661,AS,exp,35,←,left,←,0.48714330000802875,True,15,1,1,11
Y2-S2-024M20,7,662,AS,exp,26,→,right,→,0.48146090004593134,True,14,1,0,11
Y2-S2-024M20,7,663,AS,exp,32,↓,down,↓,0.45483319996856153,True,14,1,0,11
Y2-S2-024M20,7,664,AS,exp,39,←,left,←,0.4585880001541227,True,14,1,0,11
Y2-S2-024M20,7,665,AS,exp,26,→,right,→,0.43823850015178323,True,13,1,0,11
Y2-S2-024M20,7,666,AS,exp,33,↓,down,↓,0.5076905000023544,True,13,1,0,11
Y2-S2-024M20,7,667,AS,exp,32,→,left,←,0.4892094999086112,False,13,-1,1,12
Y2-S2-024M20,7,668,AS,exp,50,↑,up,↑,0.5506281000562012,True,14,-1,0,12
Y2-S2-024M20,7,669,AS,exp,36,→,left,←,0.6361603001132607,False,14,-1,0,12
Y2-S2-024M20,7,670,AS,exp,42,←,left,←,0.5645342001225799,True,15,-1,0,12
Y2-S2-024M20,7,671,AS,exp,35,↓,up,↑,0.9945197999477386,False,15,-1,0,12
Y2-S2-024M20,7,672,AS,exp,47,→,right,→,0.6244155999738723,True,16,-1,0,12
Y2-S2-024M20,7,673,AS,exp,32,↑,up,↑,0.5721289999783039,True,16,-1,0,12
Y2-S2-024M20,7,674,AS,exp,35,↓,down,↓,0.5503571000881493,True,16,1,1,13
Y2-S2-024M20,7,675,AS,exp,47,←,left,←,0.5602990998886526,True,15,1,0,13
Y2-S2-024M20,7,676,AS,exp,28,→,right,→,0.4978792001493275,True,15,1,0,13
Y2-S2-024M20,7,677,AS,exp,35,↑,down,↓,0.6301378000061959,False,15,-1,1,14
Y2-S2-024M20,7,678,AS,exp,37,←,left,←,0.5121289999224246,True,16,-1,0,14
Y2-S2-024M20,7,679,AS,exp,34,→,right,→,0.5005064997822046,True,16,-1,0,14
Y2-S2-024M20,7,680,AS,exp,48,↓,down,↓,0.5332620998378843,True,16,1,1,15
Y2-S2-024M20,7,681,AS,exp,30,←,left,←,0.5883482000790536,True,15,1,0,15
Y2-S2-024M20,7,682,AS,exp,39,↑,down,↓,0.5386266000568867,False,15,-1,1,16
Y2-S2-024M20,8,683,PS,intra_train,35,↓,left,←,0.7406003999058157,False,18,-,-,-
Y2-S2-024M20,8,684,PS,intra_train,32,←,left,←,0.5957253999076784,True,18,-,-,-
Y2-S2-024M20,8,685,PS,intra_train,50,↑,up,↑,0.6271742000244558,True,18,-,-,-
Y2-S2-024M20,8,686,PS,intra_train,30,→,right,→,0.6137941998895258,True,18,-,-,-
Y2-S2-024M20,8,687,PS,intra_train,41,←,left,←,0.5024242999497801,True,18,-,-,-
Y2-S2-024M20,8,688,PS,exp,35,↑,up,↑,0.5143227002117783,True,12,0,0,0
Y2-S2-024M20,8,689,PS,exp,40,←,left,←,0.7353314000647515,True,12,0,0,0
Y2-S2-024M20,8,690,PS,exp,36,↑,up,↑,0.49934149999171495,True,12,1,0,0
Y2-S2-024M20,8,691,PS,exp,46,→,left,←,0.5599561999551952,False,11,-1,1,1
Y2-S2-024M20,8,692,PS,exp,50,←,left,←,0.42721279989928007,True,12,-1,0,1
Y2-S2-024M20,8,693,PS,exp,50,↓,down,↓,0.5969350999221206,True,12,-1,0,1
Y2-S2-024M20,8,694,PS,exp,50,←,right,→,0.5578977998811752,False,12,-1,0,1
Y2-S2-024M20,8,695,PS,exp,33,↑,left,←,0.5631151001434773,False,13,-1,0,1
Y2-S2-024M20,8,696,PS,exp,37,↓,down,↓,0.659661800134927,True,14,-1,0,1
Y2-S2-024M20,8,697,PS,exp,26,→,left,←,0.5413748000282794,False,14,-1,0,1
Y2-S2-024M20,8,698,PS,exp,41,↓,left,←,0.5197368999943137,False,15,-1,0,1
Y2-S2-024M20,8,699,PS,exp,36,←,left,←,1.050264700083062,True,16,-1,0,1
Y2-S2-024M20,8,700,PS,exp,41,↑,up,↑,0.5353006001096219,True,16,-1,0,1
Y2-S2-024M20,8,701,PS,exp,40,←,left,←,0.5364920001011342,True,16,1,1,2
Y2-S2-024M20,8,702,PS,exp,42,↓,down,↓,0.5558957001194358,True,15,1,0,2
Y2-S2-024M20,8,703,PS,exp,44,→,right,→,0.5424504999537021,True,15,1,0,2
Y2-S2-024M20,8,704,PS,exp,27,←,left,←,0.8143124000634998,True,15,1,0,2
Y2-S2-024M20,8,705,PS,exp,37,↓,left,←,0.6200253998395056,False,14,-1,1,3
Y2-S2-024M20,8,706,PS,exp,32,←,right,→,0.8901692999061197,False,15,-1,0,3
Y2-S2-024M20,8,707,PS,exp,44,↑,up,↑,0.6162283001467586,True,16,-1,0,3
Y2-S2-024M20,8,708,PS,exp,42,←,left,←,0.5012980999890715,True,16,-1,0,3
Y2-S2-024M20,8,709,PS,exp,26,↓,down,↓,0.5873871999792755,True,16,1,1,4
Y2-S2-024M20,8,710,PS,exp,28,→,right,→,0.5267558000050485,True,15,1,0,4
Y2-S2-024M20,8,711,PS,exp,30,←,left,←,0.593654700089246,True,15,1,0,4
Y2-S2-024M20,8,712,PS,exp,29,↑,up,↑,0.65234289993532,True,15,1,0,4
Y2-S2-024M20,8,713,PS,exp,46,↓,down,↓,0.5838150999043137,True,14,1,0,4
Y2-S2-024M20,8,714,PS,exp,28,→,right,→,0.5167597997933626,True,14,1,0,4
Y2-S2-024M20,8,715,PS,exp,25,↑,up,↑,0.5022652000188828,True,14,1,0,4
Y2-S2-024M20,8,716,PS,exp,40,←,left,←,0.7098418001551181,True,13,1,0,4
Y2-S2-024M20,8,717,PS,exp,28,↑,up,↑,0.47343800007365644,True,13,1,0,4
Y2-S2-024M20,8,718,PS,exp,41,←,left,←,0.6365238998550922,True,13,1,0,4
Y2-S2-024M20,8,719,PS,exp,25,→,right,→,0.4083567999769002,True,12,1,0,4
Y2-S2-024M20,8,720,PS,exp,27,↑,up,↑,0.550856800051406,True,12,1,0,4
Y2-S2-024M20,8,721,PS,exp,30,←,left,←,0.7953512999229133,True,12,1,0,4
Y2-S2-024M20,8,722,PS,exp,46,→,right,→,0.4211432000156492,True,11,1,0,4
Y2-S2-024M20,8,723,PS,exp,26,←,left,←,0.5536938000004739,True,11,1,0,4
Y2-S2-024M20,8,724,PS,exp,33,↓,down,↓,0.5430334999691695,True,11,1,0,4
Y2-S2-024M20,8,725,PS,exp,38,→,right,→,0.44082229980267584,True,10,1,0,4
Y2-S2-024M20,8,726,PS,exp,25,↓,left,←,0.46096560009755194,False,10,-1,1,5
Y2-S2-024M20,8,727,PS,exp,46,→,right,→,0.49892250006087124,True,11,-1,0,5
Y2-S2-024M20,8,728,PS,exp,39,↓,right,→,0.4945808998309076,False,11,-1,0,5
Y2-S2-024M20,8,729,PS,exp,30,←,left,←,0.46163969999179244,True,12,-1,0,5
Y2-S2-024M20,8,730,PS,exp,43,↓,down,↓,0.5263205000665039,True,12,-1,0,5
Y2-S2-024M20,8,731,PS,exp,48,←,right,→,0.5181849000509828,False,12,-1,0,5
Y2-S2-024M20,8,732,PS,exp,38,↑,up,↑,0.649696399923414,True,13,-1,0,5
Y2-S2-024M20,8,733,PS,exp,38,←,left,←,0.9098495999351144,True,13,-1,0,5
Y2-S2-024M20,8,734,PS,exp,42,↓,down,↓,0.5300924999173731,True,13,1,1,6
Y2-S2-024M20,8,735,PS,exp,29,←,left,←,0.6042684998828918,True,12,1,0,6
Y2-S2-024M20,8,736,PS,exp,34,↑,down,↓,0.6915831998921931,False,12,-1,1,7
Y2-S2-024M20,8,737,PS,exp,33,←,left,←,0.6908843000419438,True,13,-1,0,7
Y2-S2-024M20,8,738,PS,exp,32,→,right,→,0.5242666997946799,True,13,-1,0,7
Y2-S2-024M20,8,739,PS,exp,32,↑,up,↑,0.5483803001698107,True,13,1,1,8
Y2-S2-024M20,8,740,PS,exp,30,→,right,→,0.4498335998505354,True,12,1,0,8
Y2-S2-024M20,8,741,PS,exp,34,←,left,←,0.5717384999152273,True,12,1,0,8
Y2-S2-024M20,8,742,PS,exp,30,↑,up,↑,0.4190340000204742,True,12,1,0,8
Y2-S2-024M20,8,743,PS,exp,41,↓,left,←,0.4482236998155713,False,11,-1,1,9
Y2-S2-024M20,8,744,PS,exp,48,←,left,←,0.478919800138101,True,12,-1,0,9
Y2-S2-024M20,8,745,PS,exp,45,↑,up,↑,0.4995832999702543,True,12,-1,0,9
Y2-S2-024M20,8,746,PS,exp,47,↓,down,↓,0.5514344000257552,True,12,1,1,10
Y2-S2-024M20,8,747,PS,exp,30,↑,up,↑,0.49389229994267225,True,11,1,0,10
Y2-S2-024M20,8,748,PS,exp,38,→,left,←,0.6274927000049502,False,11,-1,1,11
Y2-S2-024M20,8,749,PS,exp,48,↑,up,↑,0.48299449984915555,True,12,-1,0,11
Y2-S2-024M20,8,750,PS,exp,38,→,left,←,0.5757730999030173,False,12,-1,0,11
Y2-S2-024M20,8,751,PS,exp,41,↑,left,←,0.5014583000447601,False,13,-1,0,11
Y2-S2-024M20,8,752,PS,exp,34,↓,down,↓,0.6923224001657218,True,14,-1,0,11
Y2-S2-024M20,8,753,PS,exp,28,→,right,→,0.5438382001593709,True,14,-1,0,11
Y2-S2-024M20,8,754,PS,exp,42,↓,down,↓,0.4740739001426846,True,14,1,1,12
Y2-S2-024M20,8,755,PS,exp,31,→,right,→,0.5721587999723852,True,13,1,0,12
Y2-S2-024M20,8,756,PS,exp,31,↑,up,↑,0.6221922000404447,True,13,1,0,12
Y2-S2-024M20,8,757,PS,exp,43,←,left,←,0.6637073999736458,True,13,1,0,12
Y2-S2-024M20,8,758,PS,exp,28,↓,up,↑,0.5150786000303924,False,12,-1,1,13
Y2-S2-024M20,8,759,PS,exp,27,↑,up,↑,0.44713410013355315,True,13,-1,0,13
Y2-S2-024M20,8,760,PS,exp,29,←,left,←,1.3502887000795454,True,13,-1,0,13
Y2-S2-024M20,8,761,PS,exp,47,↓,down,↓,0.5780557999387383,True,13,1,1,14
Y2-S2-024M20,8,762,PS,exp,40,←,left,←,0.4710639000404626,True,12,1,0,14
Y2-S2-024M20,8,763,PS,exp,45,→,right,→,0.5476877000182867,True,12,1,0,14
Y2-S2-024M20,8,764,PS,exp,26,↓,down,↓,0.7386329998262227,True,12,1,0,14
Y2-S2-024M20,8,765,PS,exp,46,←,left,←,0.52641940000467,True,11,1,0,14
Y2-S2-024M20,8,766,PS,exp,34,↑,up,↑,0.49290530011057854,True,11,1,0,14
Y2-S2-024M20,8,767,PS,exp,48,→,left,←,0.4622303999494761,False,11,-1,1,15
Y2-S2-024M20,8,768,PS,exp,40,↑,up,↑,0.5314869999419898,True,12,-1,0,15
Y2-S2-024M20,8,769,PS,exp,49,←,left,←,0.6302241999655962,True,12,-1,0,15
Y2-S2-024M20,8,770,PS,exp,45,→,right,→,0.49637569999322295,True,12,1,1,16
