PART_ID,Block_no,Trial_no,Block_type,Trial_type,CSI,Stim_letter,Key_pressed,letter_choose,Rt,Corr,Stimulus Time,Level,Reversal,Revs_count
Y2-S2-121M22,1,1,PS,train,37,↓,down,↓,1.91410190006718,True,30,-,-,-
Y2-S2-121M22,1,2,PS,train,26,→,right,→,1.42242329998408,True,30,-,-,-
Y2-S2-121M22,1,3,PS,train,37,↑,up,↑,1.02461700001732,True,30,-,-,-
Y2-S2-121M22,1,4,PS,train,38,→,right,→,1.0887690000236,True,30,-,-,-
Y2-S2-121M22,1,5,PS,train,34,↑,up,↑,0.968948199995793,True,30,-,-,-
Y2-S2-121M22,1,6,PS,train,42,→,right,→,1.03419469995424,True,30,-,-,-
Y2-S2-121M22,1,7,PS,train,33,↑,up,↑,1.7534028000664,True,30,-,-,-
Y2-S2-121M22,1,8,PS,train,45,←,left,←,1.07283159997314,True,30,-,-,-
Y2-S2-121M22,1,9,PS,train,46,↑,up,↑,0.584053799975663,True,30,-,-,-
Y2-S2-121M22,1,10,PS,train,49,↓,down,↓,1.0499228000408,True,30,-,-,-
Y2-S2-121M22,2,11,AS,train,35,↑,up,↑,0.969613499939442,True,45,-,-,-
Y2-S2-121M22,2,12,AS,train,32,→,right,→,1.00723889993969,True,45,-,-,-
Y2-S2-121M22,2,13,AS,train,43,↑,up,↑,0.733681299956515,True,45,-,-,-
Y2-S2-121M22,2,14,AS,train,27,←,left,←,1.09509130008519,True,45,-,-,-
Y2-S2-121M22,2,15,AS,train,31,→,right,→,0.944635899970308,True,45,-,-,-
Y2-S2-121M22,2,16,AS,train,37,↑,up,↑,1.13097279996146,True,45,-,-,-
Y2-S2-121M22,2,17,AS,train,50,←,left,←,0.733769600046799,True,45,-,-,-
Y2-S2-121M22,2,18,AS,train,35,↓,down,↓,0.750765300006606,True,45,-,-,-
Y2-S2-121M22,2,19,AS,train,38,↑,up,↑,0.800504499929957,True,45,-,-,-
Y2-S2-121M22,2,20,AS,train,45,←,left,←,0.850773900048807,True,45,-,-,-
Y2-S2-121M22,-,21,PS,adaptive,29,↑,up,↑,0.912440299987793,True,10,0,0,0
Y2-S2-121M22,-,22,PS,adaptive,49,↓,up,↑,1.03144579997752,False,10,-1,0,0
Y2-S2-121M22,-,23,PS,adaptive,30,→,right,→,0.706471499986947,True,11,-1,0,0
Y2-S2-121M22,-,24,PS,adaptive,38,←,right,→,0.86916060000658,False,11,-1,0,0
Y2-S2-121M22,-,25,PS,adaptive,34,↑,up,↑,0.636746099917218,True,12,-1,0,0
Y2-S2-121M22,-,26,PS,adaptive,26,→,right,→,0.707235100097023,True,12,-1,0,0
Y2-S2-121M22,-,27,PS,adaptive,26,←,right,→,1.02369990001898,False,12,-1,0,0
Y2-S2-121M22,-,28,PS,adaptive,32,↑,up,↑,0.859554599970579,True,13,-1,0,0
Y2-S2-121M22,-,29,PS,adaptive,30,→,right,→,0.591949600027874,True,13,-1,0,0
Y2-S2-121M22,-,30,PS,adaptive,27,↑,up,↑,0.634578900062479,True,13,1,1,1
Y2-S2-121M22,-,31,PS,adaptive,49,→,right,→,0.698741999920458,True,12,1,0,1
Y2-S2-121M22,-,32,PS,adaptive,48,↑,up,↑,0.603046700009145,True,12,1,0,1
Y2-S2-121M22,-,33,PS,adaptive,29,←,right,→,0.772338600014336,False,12,-1,1,2
Y2-S2-121M22,-,34,PS,adaptive,49,↑,up,↑,0.68737320008222,True,13,-1,0,2
Y2-S2-121M22,-,35,PS,adaptive,26,→,right,→,0.619567799963988,True,13,-1,0,2
Y2-S2-121M22,-,36,PS,adaptive,44,↓,down,↓,0.783394600031897,True,13,1,1,3
Y2-S2-121M22,-,37,PS,adaptive,44,↑,up,↑,0.626919199945405,True,12,1,0,3
Y2-S2-121M22,-,38,PS,adaptive,37,↓,down,↓,0.582150700036436,True,12,1,0,3
Y2-S2-121M22,-,39,PS,adaptive,30,↑,up,↑,0.570215899962932,True,12,1,0,3
Y2-S2-121M22,-,40,PS,adaptive,40,→,right,→,0.515167200006545,True,11,1,0,3
Y2-S2-121M22,-,41,PS,adaptive,43,↑,up,↑,0.602847300004214,True,11,1,0,3
Y2-S2-121M22,-,42,PS,adaptive,31,↓,down,↓,0.678505899966694,True,11,1,0,3
Y2-S2-121M22,-,43,PS,adaptive,40,←,left,←,0.599093700060621,True,10,1,0,3
Y2-S2-121M22,-,44,PS,adaptive,32,↑,up,↑,0.700796600081958,True,10,1,0,3
Y2-S2-121M22,-,45,PS,adaptive,49,←,left,←,0.692208899999969,True,10,1,0,3
Y2-S2-121M22,-,46,PS,adaptive,47,↓,down,↓,0.762319600093179,True,9,1,0,3
Y2-S2-121M22,-,47,PS,adaptive,44,→,right,→,0.769438399933279,True,9,1,0,3
Y2-S2-121M22,-,48,PS,adaptive,43,↓,down,↓,0.65094570000656,True,9,1,0,3
Y2-S2-121M22,-,49,PS,adaptive,27,↑,up,↑,0.599745200015605,True,8,1,0,3
Y2-S2-121M22,-,50,PS,adaptive,43,→,right,→,0.552539599942975,True,8,1,0,3
Y2-S2-121M22,-,51,PS,adaptive,48,↓,down,↓,0.704603800084442,True,8,1,0,3
Y2-S2-121M22,-,52,PS,adaptive,47,←,up,↑,0.831114899949171,False,7,-1,1,4
Y2-S2-121M22,-,53,AS,adaptive,40,→,right,→,0.803898300044239,True,20,0,0,0
Y2-S2-121M22,-,54,AS,adaptive,31,↓,down,↓,0.836809500004165,True,20,0,0,0
Y2-S2-121M22,-,55,AS,adaptive,46,→,right,→,0.681965900002979,True,20,1,0,0
Y2-S2-121M22,-,56,AS,adaptive,49,←,right,→,1.06629129999783,False,19,-1,1,1
Y2-S2-121M22,-,57,AS,adaptive,36,→,right,→,0.747743899933994,True,20,-1,0,1
Y2-S2-121M22,-,58,AS,adaptive,37,←,left,←,0.676839399966411,True,20,-1,0,1
Y2-S2-121M22,-,59,AS,adaptive,39,→,right,→,0.588374099927023,True,20,1,1,2
Y2-S2-121M22,-,60,AS,adaptive,47,↓,right,→,0.924142500036396,False,19,-1,1,3
Y2-S2-121M22,-,61,AS,adaptive,30,→,right,→,0.637896399945021,True,20,-1,0,3
Y2-S2-121M22,-,62,AS,adaptive,25,↓,up,↑,1.30317089997698,False,20,-1,0,3
Y2-S2-121M22,-,63,AS,adaptive,50,↑,up,↑,0.960664100013673,True,21,-1,0,3
Y2-S2-121M22,-,64,AS,adaptive,29,↓,down,↓,0.617116300039925,True,21,-1,0,3
Y2-S2-121M22,-,65,AS,adaptive,28,→,right,→,0.743672700016759,True,21,1,1,4
Y2-S2-121M22,1,66,AS,intra_train,40,↑,up,↑,0.583656299975701,True,30,-,-,-
Y2-S2-121M22,1,67,AS,intra_train,25,↓,down,↓,0.875574999954552,True,30,-,-,-
Y2-S2-121M22,1,68,AS,intra_train,25,→,right,→,0.788285000016913,True,30,-,-,-
Y2-S2-121M22,1,69,AS,intra_train,46,↑,up,↑,1.80901840003207,True,30,-,-,-
Y2-S2-121M22,1,70,AS,intra_train,35,→,right,→,0.814296599943191,True,30,-,-,-
Y2-S2-121M22,1,71,AS,exp,32,←,right,→,0.749954300001264,False,20,-1,0,0
Y2-S2-121M22,1,72,AS,exp,42,→,right,→,0.773840200039558,True,21,-1,0,0
Y2-S2-121M22,1,73,AS,exp,27,←,left,←,1.58647890004795,True,21,-1,0,0
Y2-S2-121M22,1,74,AS,exp,46,↓,up,↑,1.05973950005136,False,21,-1,0,0
Y2-S2-121M22,1,75,AS,exp,44,←,right,→,1.44570609997027,False,22,-1,0,0
Y2-S2-121M22,1,76,AS,exp,43,↑,down,↓,1.1810157999862,False,23,-1,0,0
Y2-S2-121M22,1,77,AS,exp,45,←,left,←,0.929271500092,True,24,-1,0,0
Y2-S2-121M22,1,78,AS,exp,34,↓,down,↓,0.860944800078869,True,24,-1,0,0
Y2-S2-121M22,1,79,AS,exp,28,→,right,→,1.01270219997969,True,24,1,1,1
Y2-S2-121M22,1,80,AS,exp,27,↑,up,↑,0.911843299982138,True,23,1,0,1
Y2-S2-121M22,1,81,AS,exp,30,↓,down,↓,1.25315660005435,True,23,1,0,1
Y2-S2-121M22,1,82,AS,exp,50,→,right,→,1.15901329996996,True,23,1,0,1
Y2-S2-121M22,1,83,AS,exp,44,←,left,←,0.628942099981941,True,22,1,0,1
Y2-S2-121M22,1,84,AS,exp,46,→,right,→,0.62261859991122,True,22,1,0,1
Y2-S2-121M22,1,85,AS,exp,36,←,left,←,0.903757499996573,True,22,1,0,1
Y2-S2-121M22,1,86,AS,exp,31,→,right,→,0.736167400027625,True,21,1,0,1
Y2-S2-121M22,1,87,AS,exp,25,↓,down,↓,0.752007300034165,True,21,1,0,1
Y2-S2-121M22,1,88,AS,exp,30,→,right,→,0.820879900013097,True,21,1,0,1
Y2-S2-121M22,1,89,AS,exp,50,↑,up,↑,0.719103200011887,True,20,1,0,1
Y2-S2-121M22,1,90,AS,exp,44,→,right,→,0.799576799967326,True,20,1,0,1
Y2-S2-121M22,1,91,AS,exp,48,↓,down,↓,0.756013400037773,True,20,1,0,1
Y2-S2-121M22,1,92,AS,exp,50,→,right,→,0.781990800052881,True,19,1,0,1
Y2-S2-121M22,1,93,AS,exp,47,↑,up,↑,0.663646500092,True,19,1,0,1
Y2-S2-121M22,1,94,AS,exp,32,↓,up,↑,1.11161409993656,False,19,-1,1,2
Y2-S2-121M22,1,95,AS,exp,43,→,right,→,0.730908599914983,True,20,-1,0,2
Y2-S2-121M22,1,96,AS,exp,36,↑,up,↑,0.600567299989052,True,20,-1,0,2
Y2-S2-121M22,1,97,AS,exp,35,↓,down,↓,0.7449973000912,True,20,1,1,3
Y2-S2-121M22,1,98,AS,exp,28,→,right,→,0.783840500051156,True,19,1,0,3
Y2-S2-121M22,1,99,AS,exp,36,←,right,→,0.838752400013618,False,19,-1,1,4
Y2-S2-121M22,1,100,AS,exp,48,→,right,→,0.666689800098538,True,20,-1,0,4
Y2-S2-121M22,1,101,AS,exp,43,←,left,←,0.845527100027539,True,20,-1,0,4
Y2-S2-121M22,1,102,AS,exp,38,→,right,→,0.753614000044763,True,20,1,1,5
Y2-S2-121M22,1,103,AS,exp,49,↓,down,↓,0.833574899937958,True,19,1,0,5
Y2-S2-121M22,1,104,AS,exp,30,↑,up,↑,1.13487359997816,True,19,1,0,5
Y2-S2-121M22,1,105,AS,exp,42,↓,down,↓,0.640405199956149,True,19,1,0,5
Y2-S2-121M22,1,106,AS,exp,40,←,left,←,0.892989899963141,True,18,1,0,5
Y2-S2-121M22,1,107,AS,exp,39,↓,down,↓,0.739395399927162,True,18,1,0,5
Y2-S2-121M22,1,108,AS,exp,37,↑,up,↑,1.08900520007592,True,18,1,0,5
Y2-S2-121M22,1,109,AS,exp,29,→,right,→,0.901616799994372,True,17,1,0,5
Y2-S2-121M22,1,110,AS,exp,45,↑,right,→,0.987977999961004,False,17,-1,1,6
Y2-S2-121M22,1,111,AS,exp,42,←,left,←,0.60032670001965,True,18,-1,0,6
Y2-S2-121M22,1,112,AS,exp,44,↑,up,↑,0.606495299958624,True,18,-1,0,6
Y2-S2-121M22,1,113,AS,exp,42,←,right,→,0.929274599999189,False,18,-1,0,6
Y2-S2-121M22,1,114,AS,exp,29,↑,down,↓,1.62639800005127,False,19,-1,0,6
Y2-S2-121M22,1,115,AS,exp,27,↓,up,↑,0.983070399961434,False,20,-1,0,6
Y2-S2-121M22,1,116,AS,exp,28,↑,up,↑,0.839835299993865,True,21,-1,0,6
Y2-S2-121M22,1,117,AS,exp,36,→,right,→,1.20842180005275,True,21,-1,0,6
Y2-S2-121M22,1,118,AS,exp,34,←,left,←,0.786000199965201,True,21,1,1,7
Y2-S2-121M22,1,119,AS,exp,33,↑,up,↑,0.785132699995302,True,20,1,0,7
Y2-S2-121M22,1,120,AS,exp,27,←,left,←,0.7296411000425,True,20,1,0,7
Y2-S2-121M22,1,121,AS,exp,29,↑,up,↑,0.652384300017729,True,20,1,0,7
Y2-S2-121M22,1,122,AS,exp,32,↓,up,↑,0.899635499925353,False,19,-1,1,8
Y2-S2-121M22,1,123,AS,exp,43,↑,up,↑,0.623072499991395,True,20,-1,0,8
Y2-S2-121M22,1,124,AS,exp,49,↓,down,↓,0.797551000025123,True,20,-1,0,8
Y2-S2-121M22,1,125,AS,exp,40,→,right,→,0.816656300099567,True,20,1,1,9
Y2-S2-121M22,1,126,AS,exp,47,←,left,←,0.827366999932565,True,19,1,0,9
Y2-S2-121M22,1,127,AS,exp,25,↑,up,↑,0.770301399985328,True,19,1,0,9
Y2-S2-121M22,1,128,AS,exp,41,→,left,←,0.921130600036122,False,19,-1,1,10
Y2-S2-121M22,1,129,AS,exp,31,↑,up,↑,0.536283699912019,True,20,-1,0,10
Y2-S2-121M22,1,130,AS,exp,39,↓,down,↓,0.813791599939577,True,20,-1,0,10
Y2-S2-121M22,1,131,AS,exp,49,←,right,→,0.841948200017214,False,20,-1,0,10
Y2-S2-121M22,1,132,AS,exp,45,↓,down,↓,0.761089599924162,True,21,-1,0,10
Y2-S2-121M22,1,133,AS,exp,48,→,right,→,0.752076899982058,True,21,-1,0,10
Y2-S2-121M22,1,134,AS,exp,46,↑,up,↑,0.645450599957258,True,21,1,1,11
Y2-S2-121M22,1,135,AS,exp,32,→,right,→,0.693948799977079,True,20,1,0,11
Y2-S2-121M22,1,136,AS,exp,38,←,left,←,0.549224799964577,True,20,1,0,11
Y2-S2-121M22,1,137,AS,exp,45,→,right,→,0.707493799971417,True,20,1,0,11
Y2-S2-121M22,1,138,AS,exp,36,↑,up,↑,0.86992960004136,True,19,1,0,11
Y2-S2-121M22,1,139,AS,exp,47,↓,down,↓,0.999707099981606,True,19,1,0,11
Y2-S2-121M22,1,140,AS,exp,38,←,left,←,0.617162500042468,True,19,1,0,11
Y2-S2-121M22,1,141,AS,exp,45,→,right,→,0.888736900058575,True,18,1,0,11
Y2-S2-121M22,1,142,AS,exp,34,↓,down,↓,0.822361800004728,True,18,1,0,11
Y2-S2-121M22,1,143,AS,exp,45,←,up,↑,0.924529300071299,False,18,-1,1,12
Y2-S2-121M22,1,144,AS,exp,37,↑,up,↑,0.844262299942784,True,19,-1,0,12
Y2-S2-121M22,1,145,AS,exp,46,←,right,→,1.04278979997616,False,19,-1,0,12
Y2-S2-121M22,1,146,AS,exp,44,→,left,←,0.969088400015608,False,20,-1,0,12
Y2-S2-121M22,1,147,AS,exp,50,↑,up,↑,0.818492099992,True,21,-1,0,12
Y2-S2-121M22,1,148,AS,exp,32,←,left,←,0.678842199966312,True,21,-1,0,12
Y2-S2-121M22,1,149,AS,exp,45,↓,down,↓,0.886139100068249,True,21,1,1,13
Y2-S2-121M22,1,150,AS,exp,43,←,right,→,0.887322899885476,False,20,-1,1,14
Y2-S2-121M22,1,151,AS,exp,39,↓,down,↓,1.30154949997086,True,21,-1,0,14
Y2-S2-121M22,1,152,AS,exp,50,←,left,←,0.581479999935255,True,21,-1,0,14
Y2-S2-121M22,1,153,AS,exp,31,→,right,→,0.757232599891722,True,21,1,1,15
Y2-S2-121M22,1,154,AS,exp,46,←,left,←,0.762777299969457,True,20,1,0,15
Y2-S2-121M22,1,155,AS,exp,49,↓,down,↓,0.703540000016801,True,20,1,0,15
Y2-S2-121M22,1,156,AS,exp,42,↑,up,↑,0.732876699999906,True,20,1,0,15
Y2-S2-121M22,1,157,AS,exp,43,←,left,←,0.64748949999921,True,19,1,0,15
Y2-S2-121M22,1,158,AS,exp,44,→,right,→,0.763814699952491,True,19,1,0,15
Y2-S2-121M22,1,159,AS,exp,32,←,left,←,0.530397399910726,True,19,1,0,15
Y2-S2-121M22,1,160,AS,exp,50,→,right,→,0.617808300070465,True,18,1,0,15
Y2-S2-121M22,1,161,AS,exp,45,↑,up,↑,0.53214859997388,True,18,1,0,15
Y2-S2-121M22,1,162,AS,exp,35,↓,down,↓,0.734275100054219,True,18,1,0,15
Y2-S2-121M22,1,163,AS,exp,28,→,right,→,0.477527100010775,True,17,1,0,15
Y2-S2-121M22,1,164,AS,exp,39,↑,up,↑,0.573852999950759,True,17,1,0,15
Y2-S2-121M22,1,165,AS,exp,45,←,left,←,0.474774900008924,True,17,1,0,15
Y2-S2-121M22,1,166,AS,exp,28,↑,up,↑,0.941361399949528,True,16,1,0,15
Y2-S2-121M22,1,167,AS,exp,41,←,right,→,0.799530700081959,False,16,-1,1,16
Y2-S2-121M22,2,168,PS,intra_train,45,↑,up,↑,0.624879300012253,True,12,-,-,-
Y2-S2-121M22,2,169,PS,intra_train,46,↓,down,↓,0.767501599970274,True,12,-,-,-
Y2-S2-121M22,2,170,PS,intra_train,39,←,left,←,1.09271760005504,True,12,-,-,-
Y2-S2-121M22,2,171,PS,intra_train,39,↑,up,↑,0.81071519991383,True,12,-,-,-
Y2-S2-121M22,2,172,PS,intra_train,31,←,up,↑,1.1932185998885,False,12,-,-,-
Y2-S2-121M22,2,173,PS,exp,25,↓,down,↓,0.687347500002943,True,8,0,0,0
Y2-S2-121M22,2,174,PS,exp,25,←,right,→,0.666915400070138,False,8,-1,0,0
Y2-S2-121M22,2,175,PS,exp,31,↑,up,↑,0.685031099943444,True,9,-1,0,0
Y2-S2-121M22,2,176,PS,exp,45,←,up,↑,0.826515199965797,False,9,-1,0,0
Y2-S2-121M22,2,177,PS,exp,46,→,right,→,0.543483499903232,True,10,-1,0,0
Y2-S2-121M22,2,178,PS,exp,27,←,up,↑,1.34198369993828,False,10,-1,0,0
Y2-S2-121M22,2,179,PS,exp,49,→,right,→,0.529274699976668,True,11,-1,0,0
Y2-S2-121M22,2,180,PS,exp,41,↑,left,←,0.930425700033084,False,11,-1,0,0
Y2-S2-121M22,2,181,PS,exp,49,←,left,←,0.577525600092486,True,12,-1,0,0
Y2-S2-121M22,2,182,PS,exp,35,→,right,→,0.748915800009854,True,12,-1,0,0
Y2-S2-121M22,2,183,PS,exp,48,←,left,←,0.506069700000808,True,12,1,1,1
Y2-S2-121M22,2,184,PS,exp,42,↑,up,↑,0.498582800035365,True,11,1,0,1
Y2-S2-121M22,2,185,PS,exp,30,→,right,→,0.577373199979775,True,11,1,0,1
Y2-S2-121M22,2,186,PS,exp,39,←,up,↑,1.47109320003074,False,11,-1,1,2
Y2-S2-121M22,2,187,PS,exp,44,↓,right,→,0.819952999940142,False,12,-1,0,2
Y2-S2-121M22,2,188,PS,exp,30,→,right,→,0.470971299917437,True,13,-1,0,2
Y2-S2-121M22,2,189,PS,exp,28,←,left,←,0.708197299973108,True,13,-1,0,2
Y2-S2-121M22,2,190,PS,exp,42,→,right,→,0.444696099963039,True,13,1,1,3
Y2-S2-121M22,2,191,PS,exp,49,↓,left,←,1.00703019998036,False,12,-1,1,4
Y2-S2-121M22,2,192,PS,exp,35,→,right,→,0.481274400022812,True,13,-1,0,4
Y2-S2-121M22,2,193,PS,exp,25,←,left,←,0.566208700067364,True,13,-1,0,4
Y2-S2-121M22,2,194,PS,exp,43,→,right,→,0.455346799921244,True,13,1,1,5
Y2-S2-121M22,2,195,PS,exp,37,↑,up,↑,0.497935499995947,True,12,1,0,5
Y2-S2-121M22,2,196,PS,exp,29,→,right,→,0.445729699917138,True,12,1,0,5
Y2-S2-121M22,2,197,PS,exp,30,↓,down,↓,0.584422300104052,True,12,1,0,5
Y2-S2-121M22,2,198,PS,exp,35,→,right,→,0.80114900006447,True,11,1,0,5
Y2-S2-121M22,2,199,PS,exp,33,←,right,→,0.724639300024137,False,11,-1,1,6
Y2-S2-121M22,2,200,PS,exp,50,→,right,→,0.5002255999716,True,12,-1,0,6
Y2-S2-121M22,2,201,PS,exp,42,↓,right,→,0.629263500100933,False,12,-1,0,6
Y2-S2-121M22,2,202,PS,exp,44,→,right,→,0.427415199927054,True,13,-1,0,6
Y2-S2-121M22,2,203,PS,exp,40,←,left,←,0.845968200010248,True,13,-1,0,6
Y2-S2-121M22,2,204,PS,exp,37,→,right,→,0.434531999984756,True,13,1,1,7
Y2-S2-121M22,2,205,PS,exp,26,↓,down,↓,0.533059500041418,True,12,1,0,7
Y2-S2-121M22,2,206,PS,exp,34,←,up,↑,1.08038659999147,False,12,-1,1,8
Y2-S2-121M22,2,207,PS,exp,42,→,right,→,0.497264499892481,True,13,-1,0,8
Y2-S2-121M22,2,208,PS,exp,42,←,left,←,0.536650400026701,True,13,-1,0,8
Y2-S2-121M22,2,209,PS,exp,50,↓,up,↑,0.635814299923368,False,13,-1,0,8
Y2-S2-121M22,2,210,PS,exp,46,←,left,←,0.505580299999565,True,14,-1,0,8
Y2-S2-121M22,2,211,PS,exp,50,↓,down,↓,0.710077000083402,True,14,-1,0,8
Y2-S2-121M22,2,212,PS,exp,36,←,left,←,0.529105999972671,True,14,1,1,9
Y2-S2-121M22,2,213,PS,exp,35,↓,down,↓,0.585852899937891,True,13,1,0,9
Y2-S2-121M22,2,214,PS,exp,50,↑,up,↑,0.75020210002549,True,13,1,0,9
Y2-S2-121M22,2,215,PS,exp,27,←,right,→,1.20295759988949,False,13,-1,1,10
Y2-S2-121M22,2,216,PS,exp,48,↓,down,↓,0.663056100020185,True,14,-1,0,10
Y2-S2-121M22,2,217,PS,exp,28,←,left,←,0.817444000043906,True,14,-1,0,10
Y2-S2-121M22,2,218,PS,exp,33,↓,down,↓,0.640054999967106,True,14,1,1,11
Y2-S2-121M22,2,219,PS,exp,26,↑,right,→,1.0730611999752,False,13,-1,1,12
Y2-S2-121M22,2,220,PS,exp,26,↓,down,↓,1.05161060008686,True,14,-1,0,12
Y2-S2-121M22,2,221,PS,exp,37,←,left,←,0.581402400042862,True,14,-1,0,12
Y2-S2-121M22,2,222,PS,exp,44,→,right,→,0.592863700003363,True,14,1,1,13
Y2-S2-121M22,2,223,PS,exp,36,↓,down,↓,0.632290499983355,True,13,1,0,13
Y2-S2-121M22,2,224,PS,exp,40,→,right,→,0.56554719991982,True,13,1,0,13
Y2-S2-121M22,2,225,PS,exp,37,↑,up,↑,0.511837200028822,True,13,1,0,13
Y2-S2-121M22,2,226,PS,exp,37,←,left,←,0.586461100028828,True,12,1,0,13
Y2-S2-121M22,2,227,PS,exp,31,→,right,→,0.644415799994022,True,12,1,0,13
Y2-S2-121M22,2,228,PS,exp,43,←,left,←,0.541723700007424,True,12,1,0,13
Y2-S2-121M22,2,229,PS,exp,31,↑,right,→,0.859609500039369,False,11,-1,1,14
Y2-S2-121M22,2,230,PS,exp,27,←,right,→,0.599302400019951,False,12,-1,0,14
Y2-S2-121M22,2,231,PS,exp,28,↓,down,↓,0.714130800100975,True,13,-1,0,14
Y2-S2-121M22,2,232,PS,exp,43,←,right,→,0.8247868999606,False,13,-1,0,14
Y2-S2-121M22,2,233,PS,exp,25,→,right,→,0.931307399994694,True,14,-1,0,14
Y2-S2-121M22,2,234,PS,exp,37,←,right,→,0.66853829997126,False,14,-1,0,14
Y2-S2-121M22,2,235,PS,exp,26,→,right,→,0.549760200083256,True,15,-1,0,14
Y2-S2-121M22,2,236,PS,exp,41,↑,up,↑,0.478940600063652,True,15,-1,0,14
Y2-S2-121M22,2,237,PS,exp,34,→,right,→,0.4973812000826,True,15,1,1,15
Y2-S2-121M22,2,238,PS,exp,25,↓,down,↓,0.594205199973658,True,14,1,0,15
Y2-S2-121M22,2,239,PS,exp,32,→,right,→,0.691993999993429,True,14,1,0,15
Y2-S2-121M22,2,240,PS,exp,42,↓,down,↓,0.527366599999368,True,14,1,0,15
Y2-S2-121M22,2,241,PS,exp,49,↑,right,→,0.671310300007463,False,13,-1,1,16
Y2-S2-121M22,3,242,PS,intra_train,25,↓,right,→,1.208962899982,False,12,-,-,-
Y2-S2-121M22,3,243,PS,intra_train,28,←,right,→,0.861823300016113,False,12,-,-,-
Y2-S2-121M22,3,244,PS,intra_train,48,↑,up,↑,0.616278000059538,True,12,-,-,-
Y2-S2-121M22,3,245,PS,intra_train,45,↓,down,↓,0.711161799961701,True,12,-,-,-
Y2-S2-121M22,3,246,PS,intra_train,40,→,right,→,0.615865799947642,True,12,-,-,-
Y2-S2-121M22,3,247,PS,exp,39,↓,up,↑,0.766944199916907,False,8,-1,0,0
Y2-S2-121M22,3,248,PS,exp,50,←,left,←,0.655624100007117,True,9,-1,0,0
Y2-S2-121M22,3,249,PS,exp,28,↓,down,↓,0.632504599983804,True,9,-1,0,0
Y2-S2-121M22,3,250,PS,exp,35,→,right,→,0.745246299891733,True,9,1,1,1
Y2-S2-121M22,3,251,PS,exp,48,↑,up,↑,0.67419669998344,True,8,1,0,1
Y2-S2-121M22,3,252,PS,exp,41,→,up,↑,0.952603499987163,False,8,-1,1,2
Y2-S2-121M22,3,253,PS,exp,26,↑,up,↑,0.530784599948674,True,9,-1,0,2
Y2-S2-121M22,3,254,PS,exp,28,↓,down,↓,0.98370509990491,True,9,-1,0,2
Y2-S2-121M22,3,255,PS,exp,41,←,right,→,0.788288300042041,False,9,-1,0,2
Y2-S2-121M22,3,256,PS,exp,43,→,right,→,0.595399299985729,True,10,-1,0,2
Y2-S2-121M22,3,257,PS,exp,45,↓,down,↓,0.563626699964516,True,10,-1,0,2
Y2-S2-121M22,3,258,PS,exp,34,↑,right,→,0.799438599962741,False,10,-1,0,2
Y2-S2-121M22,3,259,PS,exp,47,↓,down,↓,0.574662300059572,True,11,-1,0,2
Y2-S2-121M22,3,260,PS,exp,35,↑,up,↑,0.508036999963224,True,11,-1,0,2
Y2-S2-121M22,3,261,PS,exp,34,↓,up,↑,0.678858699975535,False,11,-1,0,2
Y2-S2-121M22,3,262,PS,exp,50,→,right,→,0.565752800088376,True,12,-1,0,2
Y2-S2-121M22,3,263,PS,exp,38,←,right,→,0.822589099989273,False,12,-1,0,2
Y2-S2-121M22,3,264,PS,exp,48,↑,up,↑,0.486389099969529,True,13,-1,0,2
Y2-S2-121M22,3,265,PS,exp,40,↓,down,↓,0.605773200048134,True,13,-1,0,2
Y2-S2-121M22,3,266,PS,exp,50,→,right,→,0.451361399958842,True,13,1,1,3
Y2-S2-121M22,3,267,PS,exp,37,↑,up,↑,0.521658500074409,True,12,1,0,3
Y2-S2-121M22,3,268,PS,exp,36,↓,down,↓,0.508608300006017,True,12,1,0,3
Y2-S2-121M22,3,269,PS,exp,28,→,right,→,0.437154100043699,True,12,1,0,3
Y2-S2-121M22,3,270,PS,exp,33,←,up,↑,0.908144599990919,False,11,-1,1,4
Y2-S2-121M22,3,271,PS,exp,39,↓,down,↓,0.563928200048395,True,12,-1,0,4
Y2-S2-121M22,3,272,PS,exp,50,→,right,→,0.506246399949305,True,12,-1,0,4
Y2-S2-121M22,3,273,PS,exp,40,↑,up,↑,0.772678600042127,True,12,1,1,5
Y2-S2-121M22,3,274,PS,exp,50,→,up,↑,0.805255200015381,False,11,-1,1,6
Y2-S2-121M22,3,275,PS,exp,43,←,left,←,0.584232099936344,True,12,-1,0,6
Y2-S2-121M22,3,276,PS,exp,28,↑,up,↑,0.528985799988732,True,12,-1,0,6
Y2-S2-121M22,3,277,PS,exp,27,←,left,←,0.920133900013752,True,12,1,1,7
Y2-S2-121M22,3,278,PS,exp,26,→,right,→,0.514937600004487,True,11,1,0,7
Y2-S2-121M22,3,279,PS,exp,38,↓,right,→,0.789864200050943,False,11,-1,1,8
Y2-S2-121M22,3,280,PS,exp,25,←,up,↑,0.743574800086208,False,12,-1,0,8
Y2-S2-121M22,3,281,PS,exp,39,↓,up,↑,0.972543100011535,False,13,-1,0,8
Y2-S2-121M22,3,282,PS,exp,36,↑,up,↑,0.573043600074016,True,14,-1,0,8
Y2-S2-121M22,3,283,PS,exp,26,←,left,←,0.564107100013644,True,14,-1,0,8
Y2-S2-121M22,3,284,PS,exp,35,↓,down,↓,0.614577500033192,True,14,1,1,9
Y2-S2-121M22,3,285,PS,exp,35,↑,up,↑,0.412902200012468,True,13,1,0,9
Y2-S2-121M22,3,286,PS,exp,46,↓,right,→,0.838805199950002,False,13,-1,1,10
Y2-S2-121M22,3,287,PS,exp,28,→,right,→,0.541367299971171,True,14,-1,0,10
Y2-S2-121M22,3,288,PS,exp,38,↑,up,↑,0.507697400054894,True,14,-1,0,10
Y2-S2-121M22,3,289,PS,exp,31,↓,down,↓,0.651225500041619,True,14,1,1,11
Y2-S2-121M22,3,290,PS,exp,27,↑,up,↑,0.44817280001007,True,13,1,0,11
Y2-S2-121M22,3,291,PS,exp,37,↓,down,↓,0.497904200106859,True,13,1,0,11
Y2-S2-121M22,3,292,PS,exp,38,→,right,→,0.86614759999793,True,13,1,0,11
Y2-S2-121M22,3,293,PS,exp,34,↑,up,↑,0.390942699974403,True,12,1,0,11
Y2-S2-121M22,3,294,PS,exp,49,↓,down,↓,0.502967400010675,True,12,1,0,11
Y2-S2-121M22,3,295,PS,exp,49,↑,right,→,0.743760299985297,False,12,-1,1,12
Y2-S2-121M22,3,296,PS,exp,33,←,left,←,0.818576300051063,True,13,-1,0,12
Y2-S2-121M22,3,297,PS,exp,31,→,up,↑,0.795947200036608,False,13,-1,0,12
Y2-S2-121M22,3,298,PS,exp,48,←,left,←,0.446681800065562,True,14,-1,0,12
Y2-S2-121M22,3,299,PS,exp,30,↑,up,↑,0.908347100019455,True,14,-1,0,12
Y2-S2-121M22,3,300,PS,exp,28,→,left,←,0.821382199996151,False,14,-1,0,12
Y2-S2-121M22,3,301,PS,exp,38,↑,up,↑,0.63768769998569,True,15,-1,0,12
Y2-S2-121M22,3,302,PS,exp,41,↓,down,↓,0.651931999949738,True,15,-1,0,12
Y2-S2-121M22,3,303,PS,exp,41,↑,up,↑,0.664409299963154,True,15,1,1,13
Y2-S2-121M22,3,304,PS,exp,39,←,up,↑,0.801431900006719,False,14,-1,1,14
Y2-S2-121M22,3,305,PS,exp,34,→,up,↑,0.773256200016476,False,15,-1,0,14
Y2-S2-121M22,3,306,PS,exp,45,↑,up,↑,0.477622700040229,True,16,-1,0,14
Y2-S2-121M22,3,307,PS,exp,40,←,left,←,0.509538699989207,True,16,-1,0,14
Y2-S2-121M22,3,308,PS,exp,29,↑,right,→,0.789938100031577,False,16,-1,0,14
Y2-S2-121M22,3,309,PS,exp,43,←,up,↑,0.95833940000739,False,17,-1,0,14
Y2-S2-121M22,3,310,PS,exp,41,↑,up,↑,1.57509389996994,True,18,-1,0,14
Y2-S2-121M22,3,311,PS,exp,39,→,up,↑,0.814339100033976,False,18,-1,0,14
Y2-S2-121M22,3,312,PS,exp,48,↑,right,→,0.904185899998993,False,19,-1,0,14
Y2-S2-121M22,3,313,PS,exp,36,←,left,←,0.516835800022818,True,20,-1,0,14
Y2-S2-121M22,3,314,PS,exp,45,→,right,→,0.798621400026605,True,20,-1,0,14
Y2-S2-121M22,3,315,PS,exp,39,↑,up,↑,0.986118500004523,True,20,1,1,15
Y2-S2-121M22,3,316,PS,exp,50,→,right,→,0.521905100089498,True,19,1,0,15
Y2-S2-121M22,3,317,PS,exp,31,←,right,→,0.910816399962641,False,19,-1,1,16
Y2-S2-121M22,4,318,AS,intra_train,34,→,right,→,0.720964100095443,True,30,-,-,-
Y2-S2-121M22,4,319,AS,intra_train,32,↓,down,↓,1.02132850000635,True,30,-,-,-
Y2-S2-121M22,4,320,AS,intra_train,35,→,right,→,1.3286708999658,True,30,-,-,-
Y2-S2-121M22,4,321,AS,intra_train,33,↓,down,↓,1.00304360000882,True,30,-,-,-
Y2-S2-121M22,4,322,AS,intra_train,27,←,left,←,0.940983499982394,True,30,-,-,-
Y2-S2-121M22,4,323,AS,exp,34,→,right,→,0.829860199941322,True,20,0,0,0
Y2-S2-121M22,4,324,AS,exp,39,←,left,←,1.51794539997354,True,20,0,0,0
Y2-S2-121M22,4,325,AS,exp,39,↑,up,↑,0.843249900033698,True,20,1,0,0
Y2-S2-121M22,4,326,AS,exp,32,←,left,←,0.824429099913687,True,19,1,0,0
Y2-S2-121M22,4,327,AS,exp,47,↑,up,↑,0.770618000067771,True,19,1,0,0
Y2-S2-121M22,4,328,AS,exp,43,←,left,←,0.833063999889419,True,19,1,0,0
Y2-S2-121M22,4,329,AS,exp,50,↓,down,↓,0.91043140005786,True,18,1,0,0
Y2-S2-121M22,4,330,AS,exp,47,←,left,←,1.09545570006594,True,18,1,0,0
Y2-S2-121M22,4,331,AS,exp,44,→,left,←,0.852018500096165,False,18,-1,1,1
Y2-S2-121M22,4,332,AS,exp,30,↓,up,↑,0.817882400006056,False,19,-1,0,1
Y2-S2-121M22,4,333,AS,exp,33,→,right,→,0.849000099929981,True,20,-1,0,1
Y2-S2-121M22,4,334,AS,exp,43,↑,up,↑,0.523142100078985,True,20,-1,0,1
Y2-S2-121M22,4,335,AS,exp,48,→,right,→,0.650233399937861,True,20,1,1,2
Y2-S2-121M22,4,336,AS,exp,35,←,left,←,0.79157869995106,True,19,1,0,2
Y2-S2-121M22,4,337,AS,exp,37,↓,down,↓,0.690144199994393,True,19,1,0,2
Y2-S2-121M22,4,338,AS,exp,25,→,left,←,0.679171400028281,False,19,-1,1,3
Y2-S2-121M22,4,339,AS,exp,46,↓,down,↓,0.720094799995422,True,20,-1,0,3
Y2-S2-121M22,4,340,AS,exp,37,↑,up,↑,0.84011129999999,True,20,-1,0,3
Y2-S2-121M22,4,341,AS,exp,45,→,right,→,0.76990970002953,True,20,1,1,4
Y2-S2-121M22,4,342,AS,exp,42,←,left,←,0.903139299945906,True,19,1,0,4
Y2-S2-121M22,4,343,AS,exp,33,→,right,→,0.7893568999134,True,19,1,0,4
Y2-S2-121M22,4,344,AS,exp,30,↓,right,→,0.803451599902473,False,19,-1,1,5
Y2-S2-121M22,4,345,AS,exp,29,←,left,←,0.789402000023983,True,20,-1,0,5
Y2-S2-121M22,4,346,AS,exp,25,↓,down,↓,0.697362400009297,True,20,-1,0,5
Y2-S2-121M22,4,347,AS,exp,44,←,left,←,0.605722199892625,True,20,1,1,6
Y2-S2-121M22,4,348,AS,exp,39,→,right,→,0.788166400045157,True,19,1,0,6
Y2-S2-121M22,4,349,AS,exp,40,↑,right,→,1.15447639999911,False,19,-1,1,7
Y2-S2-121M22,4,350,AS,exp,34,→,right,→,0.7025355999358,True,20,-1,0,7
Y2-S2-121M22,4,351,AS,exp,35,↑,up,↑,0.780647699953988,True,20,-1,0,7
Y2-S2-121M22,4,352,AS,exp,47,→,right,→,0.65184990002308,True,20,1,1,8
Y2-S2-121M22,4,353,AS,exp,28,↓,up,↑,0.829364300007001,False,19,-1,1,9
Y2-S2-121M22,4,354,AS,exp,39,↑,up,↑,0.69527239992749,True,20,-1,0,9
Y2-S2-121M22,4,355,AS,exp,42,←,left,←,0.510679299943149,True,20,-1,0,9
Y2-S2-121M22,4,356,AS,exp,38,↓,up,↑,0.605042399954982,False,20,-1,0,9
Y2-S2-121M22,4,357,AS,exp,38,→,right,→,0.8967038000701,True,21,-1,0,9
Y2-S2-121M22,4,358,AS,exp,44,↓,down,↓,0.795119900023565,True,21,-1,0,9
Y2-S2-121M22,4,359,AS,exp,27,↑,up,↑,0.943444900098257,True,21,1,1,10
Y2-S2-121M22,4,360,AS,exp,49,↓,down,↓,0.727945300051943,True,20,1,0,10
Y2-S2-121M22,4,361,AS,exp,29,←,left,←,0.467337000067346,True,20,1,0,10
Y2-S2-121M22,4,362,AS,exp,34,↑,up,↑,0.450268000015058,True,20,1,0,10
Y2-S2-121M22,4,363,AS,exp,31,←,up,↑,0.663117500022054,False,19,-1,1,11
Y2-S2-121M22,4,364,AS,exp,33,↓,down,↓,0.839812999940477,True,20,-1,0,11
Y2-S2-121M22,4,365,AS,exp,30,→,right,→,0.854311799979769,True,20,-1,0,11
Y2-S2-121M22,4,366,AS,exp,29,↑,up,↑,0.609046899946407,True,20,1,1,12
Y2-S2-121M22,4,367,AS,exp,49,↓,down,↓,0.820457900059409,True,19,1,0,12
Y2-S2-121M22,4,368,AS,exp,42,↑,up,↑,0.562287300010212,True,19,1,0,12
Y2-S2-121M22,4,369,AS,exp,43,↓,down,↓,0.544210199965164,True,19,1,0,12
Y2-S2-121M22,4,370,AS,exp,35,←,left,←,0.469688500044867,True,18,1,0,12
Y2-S2-121M22,4,371,AS,exp,43,↓,up,↑,0.673116600024514,False,18,-1,1,13
Y2-S2-121M22,4,372,AS,exp,41,←,left,←,0.433617600006983,True,19,-1,0,13
Y2-S2-121M22,4,373,AS,exp,42,→,right,→,0.668026299914345,True,19,-1,0,13
Y2-S2-121M22,4,374,AS,exp,39,↓,up,↑,0.850768900010735,False,19,-1,0,13
Y2-S2-121M22,4,375,AS,exp,34,←,left,←,0.872916499967687,True,20,-1,0,13
Y2-S2-121M22,4,376,AS,exp,47,↓,down,↓,0.738484299974516,True,20,-1,0,13
Y2-S2-121M22,4,377,AS,exp,45,←,left,←,0.467345900018699,True,20,1,1,14
Y2-S2-121M22,4,378,AS,exp,27,↑,up,↑,1.19316870009061,True,19,1,0,14
Y2-S2-121M22,4,379,AS,exp,45,↓,down,↓,0.720758999930695,True,19,1,0,14
Y2-S2-121M22,4,380,AS,exp,48,→,right,→,0.833943400066346,True,19,1,0,14
Y2-S2-121M22,4,381,AS,exp,30,←,right,→,0.674716100096703,False,18,-1,1,15
Y2-S2-121M22,4,382,AS,exp,43,→,right,→,0.765112699940801,True,19,-1,0,15
Y2-S2-121M22,4,383,AS,exp,27,↑,up,↑,0.816715099965222,True,19,-1,0,15
Y2-S2-121M22,4,384,AS,exp,27,←,left,←,0.853999899933115,True,19,1,1,16
Y2-S2-121M22,5,385,AS,intra_train,41,↑,up,↑,1.26243999996223,True,30,-,-,-
Y2-S2-121M22,5,386,AS,intra_train,36,↓,down,↓,0.97039210004732,True,30,-,-,-
Y2-S2-121M22,5,387,AS,intra_train,36,→,right,→,0.880934599903412,True,30,-,-,-
Y2-S2-121M22,5,388,AS,intra_train,34,←,left,←,0.600604100036435,True,30,-,-,-
Y2-S2-121M22,5,389,AS,intra_train,49,↓,down,↓,0.803636900032871,True,30,-,-,-
Y2-S2-121M22,5,390,AS,exp,47,←,left,←,0.710923600010574,True,20,0,0,0
Y2-S2-121M22,5,391,AS,exp,34,↑,up,↑,0.882451900048181,True,20,0,0,0
Y2-S2-121M22,5,392,AS,exp,48,→,right,→,0.722947300062515,True,20,1,0,0
Y2-S2-121M22,5,393,AS,exp,29,←,left,←,0.608267999952659,True,19,1,0,0
Y2-S2-121M22,5,394,AS,exp,34,→,right,→,0.736182399909012,True,19,1,0,0
Y2-S2-121M22,5,395,AS,exp,50,↓,down,↓,0.564135099994019,True,19,1,0,0
Y2-S2-121M22,5,396,AS,exp,27,→,up,↑,0.757154599996284,False,18,-1,1,1
Y2-S2-121M22,5,397,AS,exp,27,↑,up,↑,0.701346099958755,True,19,-1,0,1
Y2-S2-121M22,5,398,AS,exp,25,→,right,→,0.637099200044759,True,19,-1,0,1
Y2-S2-121M22,5,399,AS,exp,27,←,left,←,0.929911499959417,True,19,1,1,2
Y2-S2-121M22,5,400,AS,exp,50,→,right,→,0.534174000029452,True,18,1,0,2
Y2-S2-121M22,5,401,AS,exp,28,↑,up,↑,0.468127399915829,True,18,1,0,2
Y2-S2-121M22,5,402,AS,exp,41,←,left,←,0.798970799893141,True,18,1,0,2
Y2-S2-121M22,5,403,AS,exp,29,↓,up,↑,0.777373300050385,False,17,-1,1,3
Y2-S2-121M22,5,404,AS,exp,48,→,right,→,0.746672799927183,True,18,-1,0,3
Y2-S2-121M22,5,405,AS,exp,42,↓,up,↑,0.719884200021625,False,18,-1,0,3
Y2-S2-121M22,5,406,AS,exp,43,→,right,→,0.888020600075834,True,19,-1,0,3
Y2-S2-121M22,5,407,AS,exp,30,←,left,←,0.888822000008076,True,19,-1,0,3
Y2-S2-121M22,5,408,AS,exp,39,↓,down,↓,0.940811399952509,True,19,1,1,4
Y2-S2-121M22,5,409,AS,exp,37,←,up,↑,0.779366299975663,False,18,-1,1,5
Y2-S2-121M22,5,410,AS,exp,39,↓,up,↑,0.734337500063703,False,19,-1,0,5
Y2-S2-121M22,5,411,AS,exp,45,↑,up,↑,0.821891100029461,True,20,-1,0,5
Y2-S2-121M22,5,412,AS,exp,44,↓,down,↓,0.83200759999454,True,20,-1,0,5
Y2-S2-121M22,5,413,AS,exp,30,→,right,→,0.692069699987769,True,20,1,1,6
Y2-S2-121M22,5,414,AS,exp,42,↑,up,↑,0.755495300050825,True,19,1,0,6
Y2-S2-121M22,5,415,AS,exp,50,↓,down,↓,0.779617000021972,True,19,1,0,6
Y2-S2-121M22,5,416,AS,exp,43,↑,up,↑,0.729653000016697,True,19,1,0,6
Y2-S2-121M22,5,417,AS,exp,32,↓,down,↓,0.838430700008757,True,18,1,0,6
Y2-S2-121M22,5,418,AS,exp,46,↑,up,↑,0.782377500087023,True,18,1,0,6
Y2-S2-121M22,5,419,AS,exp,33,↓,down,↓,1.31089580000844,True,18,1,0,6
Y2-S2-121M22,5,420,AS,exp,41,↑,right,→,0.834603500086814,False,17,-1,1,7
Y2-S2-121M22,5,421,AS,exp,49,←,up,↑,0.718076199991629,False,18,-1,0,7
Y2-S2-121M22,5,422,AS,exp,38,↓,down,↓,0.571935200016014,True,19,-1,0,7
Y2-S2-121M22,5,423,AS,exp,45,←,right,→,0.547750200028531,False,19,-1,0,7
Y2-S2-121M22,5,424,AS,exp,25,↑,up,↑,0.450674299965613,True,20,-1,0,7
Y2-S2-121M22,5,425,AS,exp,32,←,left,←,0.838948899996467,True,20,-1,0,7
Y2-S2-121M22,5,426,AS,exp,29,↑,up,↑,0.757358800037764,True,20,1,1,8
Y2-S2-121M22,5,427,AS,exp,45,→,right,→,1.21282070002053,True,19,1,0,8
Y2-S2-121M22,5,428,AS,exp,48,↓,down,↓,0.803563099936582,True,19,1,0,8
Y2-S2-121M22,5,429,AS,exp,49,←,left,←,0.860403300030157,True,19,1,0,8
Y2-S2-121M22,5,430,AS,exp,47,↑,up,↑,0.826770000043325,True,18,1,0,8
Y2-S2-121M22,5,431,AS,exp,37,↓,down,↓,0.768996600061655,True,18,1,0,8
Y2-S2-121M22,5,432,AS,exp,36,↑,up,↑,0.625280700041913,True,18,1,0,8
Y2-S2-121M22,5,433,AS,exp,46,↓,down,↓,0.649426699965261,True,17,1,0,8
Y2-S2-121M22,5,434,AS,exp,40,↑,up,↑,0.493851499981247,True,17,1,0,8
Y2-S2-121M22,5,435,AS,exp,50,→,right,→,0.747766299988143,True,17,1,0,8
Y2-S2-121M22,5,436,AS,exp,25,←,right,→,0.740773800062016,False,16,-1,1,9
Y2-S2-121M22,5,437,AS,exp,31,↑,up,↑,0.796779499971308,True,17,-1,0,9
Y2-S2-121M22,5,438,AS,exp,30,→,right,→,0.518593000015244,True,17,-1,0,9
Y2-S2-121M22,5,439,AS,exp,41,←,left,←,0.65538940008264,True,17,1,1,10
Y2-S2-121M22,5,440,AS,exp,35,→,left,←,1.11421499995049,False,16,-1,1,11
Y2-S2-121M22,5,441,AS,exp,25,←,right,→,0.641839799936861,False,17,-1,0,11
Y2-S2-121M22,5,442,AS,exp,29,→,right,→,0.557477499940433,True,18,-1,0,11
Y2-S2-121M22,5,443,AS,exp,38,↑,up,↑,0.581962199998088,True,18,-1,0,11
Y2-S2-121M22,5,444,AS,exp,44,←,up,↑,1.26984670001548,False,18,-1,0,11
Y2-S2-121M22,5,445,AS,exp,41,↑,right,→,1.28292270004749,False,19,-1,0,11
Y2-S2-121M22,5,446,AS,exp,30,↓,left,←,1.18801150005311,False,20,-1,0,11
Y2-S2-121M22,5,447,AS,exp,45,→,right,→,1.90982810000423,True,21,-1,0,11
Y2-S2-121M22,5,448,AS,exp,29,↓,down,↓,0.996195000014268,True,21,-1,0,11
Y2-S2-121M22,5,449,AS,exp,47,→,right,→,0.757452499936335,True,21,1,1,12
Y2-S2-121M22,5,450,AS,exp,36,↓,down,↓,0.598391799954698,True,20,1,0,12
Y2-S2-121M22,5,451,AS,exp,30,↑,up,↑,0.898657399928197,True,20,1,0,12
Y2-S2-121M22,5,452,AS,exp,33,→,right,→,0.791795699973591,True,20,1,0,12
Y2-S2-121M22,5,453,AS,exp,39,←,right,→,0.804891499923542,False,19,-1,1,13
Y2-S2-121M22,5,454,AS,exp,25,→,right,→,0.736312499968335,True,20,-1,0,13
Y2-S2-121M22,5,455,AS,exp,33,↓,right,→,0.931302200071514,False,20,-1,0,13
Y2-S2-121M22,5,456,AS,exp,34,←,left,←,0.889013599953614,True,21,-1,0,13
Y2-S2-121M22,5,457,AS,exp,40,↓,down,↓,0.798553299973719,True,21,-1,0,13
Y2-S2-121M22,5,458,AS,exp,40,↑,up,↑,0.620622599963099,True,21,1,1,14
Y2-S2-121M22,5,459,AS,exp,50,→,right,→,0.62356620002538,True,20,1,0,14
Y2-S2-121M22,5,460,AS,exp,41,←,left,←,0.845160599914379,True,20,1,0,14
Y2-S2-121M22,5,461,AS,exp,48,→,right,→,0.753993100021035,True,20,1,0,14
Y2-S2-121M22,5,462,AS,exp,45,↑,up,↑,0.67759869992733,True,19,1,0,14
Y2-S2-121M22,5,463,AS,exp,45,→,right,→,0.843579900101759,True,19,1,0,14
Y2-S2-121M22,5,464,AS,exp,29,↓,down,↓,0.65985479997471,True,19,1,0,14
Y2-S2-121M22,5,465,AS,exp,37,←,left,←,0.674966299906373,True,18,1,0,14
Y2-S2-121M22,5,466,AS,exp,32,↑,up,↑,0.7520027999999,True,18,1,0,14
Y2-S2-121M22,5,467,AS,exp,36,→,no_key,no_letter,-1,False,18,-1,1,15
Y2-S2-121M22,5,468,AS,exp,40,↓,down,↓,1.26332779997028,True,19,-1,0,15
Y2-S2-121M22,5,469,AS,exp,47,→,right,→,0.675777299911715,True,19,-1,0,15
Y2-S2-121M22,5,470,AS,exp,27,↓,up,↑,0.895951099926606,False,19,-1,0,15
Y2-S2-121M22,5,471,AS,exp,26,→,right,→,0.61896190000698,True,20,-1,0,15
Y2-S2-121M22,5,472,AS,exp,48,↑,up,↑,0.819863799959421,True,20,-1,0,15
Y2-S2-121M22,5,473,AS,exp,28,→,right,→,0.628050600062124,True,20,1,1,16
Y2-S2-121M22,6,474,PS,intra_train,25,↑,up,↑,1.0870525999926,True,12,-,-,-
Y2-S2-121M22,6,475,PS,intra_train,29,→,right,→,0.577358599985018,True,12,-,-,-
Y2-S2-121M22,6,476,PS,intra_train,29,↑,up,↑,0.795911099994555,True,12,-,-,-
Y2-S2-121M22,6,477,PS,intra_train,25,→,right,→,0.69882230006624,True,12,-,-,-
Y2-S2-121M22,6,478,PS,intra_train,26,←,left,←,0.652674000011757,True,12,-,-,-
Y2-S2-121M22,6,479,PS,exp,34,→,right,→,0.535839000018314,True,8,0,0,0
Y2-S2-121M22,6,480,PS,exp,45,↓,down,↓,0.690523099969141,True,8,0,0,0
Y2-S2-121M22,6,481,PS,exp,50,←,up,↑,1.04664760001469,False,8,-1,0,0
Y2-S2-121M22,6,482,PS,exp,32,→,right,→,0.726783799938858,True,9,-1,0,0
Y2-S2-121M22,6,483,PS,exp,27,↓,down,↓,0.758365000016056,True,9,-1,0,0
Y2-S2-121M22,6,484,PS,exp,46,→,right,→,0.703966800007038,True,9,1,1,1
Y2-S2-121M22,6,485,PS,exp,30,↑,up,↑,0.53245469997637,True,8,1,0,1
Y2-S2-121M22,6,486,PS,exp,31,←,up,↑,0.869108300074004,False,8,-1,1,2
Y2-S2-121M22,6,487,PS,exp,47,→,right,→,0.62706430000253,True,9,-1,0,2
Y2-S2-121M22,6,488,PS,exp,45,↑,right,→,0.720416500000283,False,9,-1,0,2
Y2-S2-121M22,6,489,PS,exp,47,→,right,→,0.623871799907647,True,10,-1,0,2
Y2-S2-121M22,6,490,PS,exp,43,↑,up,↑,0.432612300035544,True,10,-1,0,2
Y2-S2-121M22,6,491,PS,exp,35,←,right,→,0.690015600062907,False,10,-1,0,2
Y2-S2-121M22,6,492,PS,exp,32,→,right,→,0.517799499910325,True,11,-1,0,2
Y2-S2-121M22,6,493,PS,exp,26,↓,up,↑,0.86501579999458,False,11,-1,0,2
Y2-S2-121M22,6,494,PS,exp,41,→,right,→,0.698631100007333,True,12,-1,0,2
Y2-S2-121M22,6,495,PS,exp,47,↓,down,↓,0.706493200035766,True,12,-1,0,2
Y2-S2-121M22,6,496,PS,exp,45,↑,up,↑,0.730331599945203,True,12,1,1,3
Y2-S2-121M22,6,497,PS,exp,25,→,right,→,0.594840600038879,True,11,1,0,3
Y2-S2-121M22,6,498,PS,exp,33,←,left,←,0.539142999914475,True,11,1,0,3
Y2-S2-121M22,6,499,PS,exp,34,→,right,→,0.764208100037649,True,11,1,0,3
Y2-S2-121M22,6,500,PS,exp,36,↑,up,↑,0.787493700045161,True,10,1,0,3
Y2-S2-121M22,6,501,PS,exp,48,→,right,→,0.430213999934495,True,10,1,0,3
Y2-S2-121M22,6,502,PS,exp,48,↑,right,→,0.719636399997398,False,10,-1,1,4
Y2-S2-121M22,6,503,PS,exp,49,←,left,←,0.499654100043699,True,11,-1,0,4
Y2-S2-121M22,6,504,PS,exp,44,↓,up,↑,0.84471079998184,False,11,-1,0,4
Y2-S2-121M22,6,505,PS,exp,27,→,left,←,0.67605090001598,False,12,-1,0,4
Y2-S2-121M22,6,506,PS,exp,46,↑,up,↑,0.516509099979885,True,13,-1,0,4
Y2-S2-121M22,6,507,PS,exp,47,→,right,→,0.564669500105083,True,13,-1,0,4
Y2-S2-121M22,6,508,PS,exp,32,←,right,→,1.40759000007529,False,13,-1,0,4
Y2-S2-121M22,6,509,PS,exp,42,→,right,→,0.555048400070518,True,14,-1,0,4
Y2-S2-121M22,6,510,PS,exp,46,↓,down,↓,0.701316299964674,True,14,-1,0,4
Y2-S2-121M22,6,511,PS,exp,27,↑,up,↑,0.500003700028174,True,14,1,1,5
Y2-S2-121M22,6,512,PS,exp,31,←,left,←,0.627576900064014,True,13,1,0,5
Y2-S2-121M22,6,513,PS,exp,30,→,right,→,0.484569899970666,True,13,1,0,5
Y2-S2-121M22,6,514,PS,exp,33,↓,up,↑,0.905774999991991,False,13,-1,1,6
Y2-S2-121M22,6,515,PS,exp,44,→,up,↑,1.10235379997175,False,14,-1,0,6
Y2-S2-121M22,6,516,PS,exp,44,↓,down,↓,0.733709900057875,True,15,-1,0,6
Y2-S2-121M22,6,517,PS,exp,45,←,left,←,0.553246599971317,True,15,-1,0,6
Y2-S2-121M22,6,518,PS,exp,38,→,right,→,0.750503999995999,True,15,1,1,7
Y2-S2-121M22,6,519,PS,exp,37,←,left,←,0.775004300056025,True,14,1,0,7
Y2-S2-121M22,6,520,PS,exp,31,→,right,→,0.588880799943581,True,14,1,0,7
Y2-S2-121M22,6,521,PS,exp,27,←,right,→,0.639614199986681,False,14,-1,1,8
Y2-S2-121M22,6,522,PS,exp,32,↓,up,↑,1.58386570005678,False,15,-1,0,8
Y2-S2-121M22,6,523,PS,exp,33,↑,down,↓,0.85157420008909,False,16,-1,0,8
Y2-S2-121M22,6,524,PS,exp,31,↓,down,↓,0.71416540001519,True,17,-1,0,8
Y2-S2-121M22,6,525,PS,exp,44,←,left,←,0.596859300043434,True,17,-1,0,8
Y2-S2-121M22,6,526,PS,exp,30,↓,down,↓,0.629424500046298,True,17,1,1,9
Y2-S2-121M22,6,527,PS,exp,40,↑,up,↑,0.533905299962498,True,16,1,0,9
Y2-S2-121M22,6,528,PS,exp,25,↓,down,↓,0.635375399957411,True,16,1,0,9
Y2-S2-121M22,6,529,PS,exp,26,←,left,←,0.630206400062889,True,16,1,0,9
Y2-S2-121M22,6,530,PS,exp,44,↑,up,↑,0.56271560001187,True,15,1,0,9
Y2-S2-121M22,6,531,PS,exp,48,→,up,↑,0.832222700002603,False,15,-1,1,10
Y2-S2-121M22,6,532,PS,exp,31,↓,down,↓,0.619362299912609,True,16,-1,0,10
Y2-S2-121M22,6,533,PS,exp,35,↑,up,↑,0.462660999968648,True,16,-1,0,10
Y2-S2-121M22,6,534,PS,exp,44,↓,right,→,0.842166599933989,False,16,-1,0,10
Y2-S2-121M22,6,535,PS,exp,37,←,right,→,0.85870680003427,False,17,-1,0,10
Y2-S2-121M22,6,536,PS,exp,25,↓,down,↓,0.598853699979372,True,18,-1,0,10
Y2-S2-121M22,6,537,PS,exp,27,↑,up,↑,0.481835599988699,True,18,-1,0,10
Y2-S2-121M22,6,538,PS,exp,26,←,right,→,0.759478599997237,False,18,-1,0,10
Y2-S2-121M22,6,539,PS,exp,46,↓,down,↓,0.582502800039947,True,19,-1,0,10
Y2-S2-121M22,6,540,PS,exp,47,←,left,←,0.614439799915999,True,19,-1,0,10
Y2-S2-121M22,6,541,PS,exp,38,↓,down,↓,0.686016899999231,True,19,1,1,11
Y2-S2-121M22,6,542,PS,exp,37,→,right,→,0.502248700009659,True,18,1,0,11
Y2-S2-121M22,6,543,PS,exp,44,↓,down,↓,0.537361399969086,True,18,1,0,11
Y2-S2-121M22,6,544,PS,exp,39,←,left,←,0.676882699946873,True,18,1,0,11
Y2-S2-121M22,6,545,PS,exp,25,→,left,←,1.57315419998486,False,17,-1,1,12
Y2-S2-121M22,6,546,PS,exp,34,↑,right,→,1.11544100008905,False,18,-1,0,12
Y2-S2-121M22,6,547,PS,exp,35,→,right,→,0.514154999982566,True,19,-1,0,12
Y2-S2-121M22,6,548,PS,exp,27,↓,right,→,1.17276159999892,False,19,-1,0,12
Y2-S2-121M22,6,549,PS,exp,40,→,left,←,0.635231800028123,False,20,-1,0,12
Y2-S2-121M22,6,550,PS,exp,28,↓,down,↓,0.554747699992731,True,21,-1,0,12
Y2-S2-121M22,6,551,PS,exp,44,←,left,←,0.450383899966255,True,21,-1,0,12
Y2-S2-121M22,6,552,PS,exp,46,→,right,→,0.484103700029664,True,21,1,1,13
Y2-S2-121M22,6,553,PS,exp,36,↑,right,→,1.85309470002539,False,20,-1,1,14
Y2-S2-121M22,6,554,PS,exp,30,→,right,→,0.591918300022371,True,21,-1,0,14
Y2-S2-121M22,6,555,PS,exp,28,↑,up,↑,1.43995799997356,True,21,-1,0,14
Y2-S2-121M22,6,556,PS,exp,38,→,right,→,0.417534200008959,True,21,1,1,15
Y2-S2-121M22,6,557,PS,exp,33,←,left,←,1.48021009995136,True,20,1,0,15
Y2-S2-121M22,6,558,PS,exp,45,↓,up,↑,0.91836210002657,False,20,-1,1,16
Y2-S2-121M22,7,559,PS,intra_train,36,→,right,→,0.932267499971204,True,12,-,-,-
Y2-S2-121M22,7,560,PS,intra_train,47,↑,up,↑,0.568520499975421,True,12,-,-,-
Y2-S2-121M22,7,561,PS,intra_train,37,↓,down,↓,0.793401199975051,True,12,-,-,-
Y2-S2-121M22,7,562,PS,intra_train,44,→,right,→,0.553889900096692,True,12,-,-,-
Y2-S2-121M22,7,563,PS,intra_train,26,←,left,←,0.559296200051904,True,12,-,-,-
Y2-S2-121M22,7,564,PS,exp,49,→,right,→,0.732512500020675,True,8,0,0,0
Y2-S2-121M22,7,565,PS,exp,47,←,up,↑,0.734948000055738,False,8,-1,0,0
Y2-S2-121M22,7,566,PS,exp,45,↑,right,→,0.727932800073177,False,9,-1,0,0
Y2-S2-121M22,7,567,PS,exp,49,←,left,←,0.54395389999263,True,10,-1,0,0
Y2-S2-121M22,7,568,PS,exp,50,→,up,↑,0.617335899965838,False,10,-1,0,0
Y2-S2-121M22,7,569,PS,exp,30,←,left,←,0.641535400063731,True,11,-1,0,0
Y2-S2-121M22,7,570,PS,exp,47,→,right,→,0.415828099939972,True,11,-1,0,0
Y2-S2-121M22,7,571,PS,exp,37,↓,down,↓,0.692623500013724,True,11,1,1,1
Y2-S2-121M22,7,572,PS,exp,37,↑,up,↑,0.885365499998443,True,10,1,0,1
Y2-S2-121M22,7,573,PS,exp,29,↓,right,→,0.564102999982424,False,10,-1,1,2
Y2-S2-121M22,7,574,PS,exp,38,→,right,→,0.619808200048283,True,11,-1,0,2
Y2-S2-121M22,7,575,PS,exp,38,←,right,→,0.562210200005211,False,11,-1,0,2
Y2-S2-121M22,7,576,PS,exp,41,↓,down,↓,0.792996000032872,True,12,-1,0,2
Y2-S2-121M22,7,577,PS,exp,48,→,right,→,0.556199499987997,True,12,-1,0,2
Y2-S2-121M22,7,578,PS,exp,45,↓,down,↓,0.588659000000916,True,12,1,1,3
Y2-S2-121M22,7,579,PS,exp,49,→,right,→,0.578074999968521,True,11,1,0,3
Y2-S2-121M22,7,580,PS,exp,25,←,right,→,1.21388539997861,False,11,-1,1,4
Y2-S2-121M22,7,581,PS,exp,48,→,right,→,0.732338200090453,True,12,-1,0,4
Y2-S2-121M22,7,582,PS,exp,45,←,left,←,0.559163499972783,True,12,-1,0,4
Y2-S2-121M22,7,583,PS,exp,30,↓,down,↓,0.744290899951011,True,12,1,1,5
Y2-S2-121M22,7,584,PS,exp,43,←,left,←,0.489854899933562,True,11,1,0,5
Y2-S2-121M22,7,585,PS,exp,47,↓,down,↓,0.652831900049932,True,11,1,0,5
Y2-S2-121M22,7,586,PS,exp,40,→,right,→,0.488637700094841,True,11,1,0,5
Y2-S2-121M22,7,587,PS,exp,41,↓,right,→,1.03397140000016,False,10,-1,1,6
Y2-S2-121M22,7,588,PS,exp,37,↑,up,↑,0.477072299923748,True,11,-1,0,6
Y2-S2-121M22,7,589,PS,exp,35,←,left,←,0.452708499971777,True,11,-1,0,6
Y2-S2-121M22,7,590,PS,exp,25,↓,right,→,0.879811299964786,False,11,-1,0,6
Y2-S2-121M22,7,591,PS,exp,44,→,right,→,0.921066100010648,True,12,-1,0,6
Y2-S2-121M22,7,592,PS,exp,43,←,right,→,0.809096899931319,False,12,-1,0,6
Y2-S2-121M22,7,593,PS,exp,44,↑,up,↑,0.965733799966984,True,13,-1,0,6
Y2-S2-121M22,7,594,PS,exp,38,→,right,→,0.698089099954814,True,13,-1,0,6
Y2-S2-121M22,7,595,PS,exp,26,←,right,→,0.686472599976696,False,13,-1,0,6
Y2-S2-121M22,7,596,PS,exp,27,→,right,→,0.533453900017776,True,14,-1,0,6
Y2-S2-121M22,7,597,PS,exp,39,↓,up,↑,0.77717290003784,False,14,-1,0,6
Y2-S2-121M22,7,598,PS,exp,42,←,left,←,0.554728000075556,True,15,-1,0,6
Y2-S2-121M22,7,599,PS,exp,45,→,right,→,0.419007199932821,True,15,-1,0,6
Y2-S2-121M22,7,600,PS,exp,37,←,left,←,0.51203159999568,True,15,1,1,7
Y2-S2-121M22,7,601,PS,exp,31,↑,right,→,0.605257700080983,False,14,-1,1,8
Y2-S2-121M22,7,602,PS,exp,32,→,right,→,0.563481300021522,True,15,-1,0,8
Y2-S2-121M22,7,603,PS,exp,35,↓,down,↓,0.655405599973165,True,15,-1,0,8
Y2-S2-121M22,7,604,PS,exp,47,←,right,→,0.786066900007427,False,15,-1,0,8
Y2-S2-121M22,7,605,PS,exp,38,→,up,↑,1.30714679998346,False,16,-1,0,8
Y2-S2-121M22,7,606,PS,exp,48,↓,right,→,0.997254500049166,False,17,-1,0,8
Y2-S2-121M22,7,607,PS,exp,37,→,right,→,0.512104000081308,True,18,-1,0,8
Y2-S2-121M22,7,608,PS,exp,35,←,left,←,1.23535119998269,True,18,-1,0,8
Y2-S2-121M22,7,609,PS,exp,48,↓,down,↓,0.668095200089738,True,18,1,1,9
Y2-S2-121M22,7,610,PS,exp,36,↑,up,↑,0.48032209998928,True,17,1,0,9
Y2-S2-121M22,7,611,PS,exp,27,→,right,→,1.41658670001198,True,17,1,0,9
Y2-S2-121M22,7,612,PS,exp,48,↓,down,↓,0.616598700056784,True,17,1,0,9
Y2-S2-121M22,7,613,PS,exp,48,←,left,←,0.553026400040835,True,16,1,0,9
Y2-S2-121M22,7,614,PS,exp,35,↓,down,↓,0.511502000037581,True,16,1,0,9
Y2-S2-121M22,7,615,PS,exp,30,↑,up,↑,0.584499499993399,True,16,1,0,9
Y2-S2-121M22,7,616,PS,exp,49,↓,right,→,0.75567390001379,False,15,-1,1,10
Y2-S2-121M22,7,617,PS,exp,30,→,right,→,0.950652400031686,True,16,-1,0,10
Y2-S2-121M22,7,618,PS,exp,25,↑,up,↑,1.23028700007126,True,16,-1,0,10
Y2-S2-121M22,7,619,PS,exp,26,→,right,→,0.511072099907324,True,16,1,1,11
Y2-S2-121M22,7,620,PS,exp,43,↑,up,↑,0.469165099901147,True,15,1,0,11
Y2-S2-121M22,7,621,PS,exp,42,↓,down,↓,0.627601200016215,True,15,1,0,11
Y2-S2-121M22,7,622,PS,exp,44,←,right,→,0.891771099995822,False,15,-1,1,12
Y2-S2-121M22,7,623,PS,exp,30,↓,up,↑,1.81049020006321,False,16,-1,0,12
Y2-S2-121M22,7,624,PS,exp,35,→,right,→,0.499632099992596,True,17,-1,0,12
Y2-S2-121M22,7,625,PS,exp,29,↓,down,↓,0.586992099997588,True,17,-1,0,12
Y2-S2-121M22,7,626,PS,exp,48,←,left,←,0.459253699984401,True,17,1,1,13
Y2-S2-121M22,7,627,PS,exp,37,→,right,→,0.442931000026874,True,16,1,0,13
Y2-S2-121M22,7,628,PS,exp,26,↑,up,↑,0.45018040004652,True,16,1,0,13
Y2-S2-121M22,7,629,PS,exp,41,←,right,→,0.853558799950406,False,16,-1,1,14
Y2-S2-121M22,7,630,PS,exp,32,↑,up,↑,1.23458709998522,True,17,-1,0,14
Y2-S2-121M22,7,631,PS,exp,33,↓,left,←,1.09699099999852,False,17,-1,0,14
Y2-S2-121M22,7,632,PS,exp,32,↑,up,↑,0.772207700065337,True,18,-1,0,14
Y2-S2-121M22,7,633,PS,exp,42,↓,up,↑,0.596642900025472,False,18,-1,0,14
Y2-S2-121M22,7,634,PS,exp,33,→,right,→,0.634375400026329,True,19,-1,0,14
Y2-S2-121M22,7,635,PS,exp,25,↓,down,↓,1.15287759993225,True,19,-1,0,14
Y2-S2-121M22,7,636,PS,exp,47,→,right,→,0.4505410999991,True,19,1,1,15
Y2-S2-121M22,7,637,PS,exp,37,↓,down,↓,0.56705559999682,True,18,1,0,15
Y2-S2-121M22,7,638,PS,exp,37,↑,right,→,0.433745800051838,False,18,-1,1,16
Y2-S2-121M22,8,639,AS,intra_train,40,→,right,→,1.00247300008778,True,30,-,-,-
Y2-S2-121M22,8,640,AS,intra_train,46,↑,up,↑,0.954163199989125,True,30,-,-,-
Y2-S2-121M22,8,641,AS,intra_train,35,↓,down,↓,0.583742799935862,True,30,-,-,-
Y2-S2-121M22,8,642,AS,intra_train,36,↑,up,↑,0.846761099994183,True,30,-,-,-
Y2-S2-121M22,8,643,AS,intra_train,25,→,right,→,0.8225584999891,True,30,-,-,-
Y2-S2-121M22,8,644,AS,exp,35,↓,up,↑,0.571079300018027,False,20,-1,0,0
Y2-S2-121M22,8,645,AS,exp,43,→,no_key,no_letter,-1,False,21,-1,0,0
Y2-S2-121M22,8,646,AS,exp,29,↑,up,↑,0.681522500002757,True,22,-1,0,0
Y2-S2-121M22,8,647,AS,exp,29,←,left,←,1.26207289996091,True,22,-1,0,0
Y2-S2-121M22,8,648,AS,exp,39,↑,up,↑,0.434716099989601,True,22,1,1,1
Y2-S2-121M22,8,649,AS,exp,42,→,right,→,0.434102500090376,True,21,1,0,1
Y2-S2-121M22,8,650,AS,exp,47,↓,down,↓,1.15174919995479,True,21,1,0,1
Y2-S2-121M22,8,651,AS,exp,25,→,right,→,0.66663500003051,True,21,1,0,1
Y2-S2-121M22,8,652,AS,exp,38,↓,down,↓,0.563800200005062,True,20,1,0,1
Y2-S2-121M22,8,653,AS,exp,39,←,right,→,0.683847700012848,False,20,-1,1,2
Y2-S2-121M22,8,654,AS,exp,33,↓,up,↑,0.610715899965726,False,21,-1,0,2
Y2-S2-121M22,8,655,AS,exp,42,↑,up,↑,0.797874899930321,True,22,-1,0,2
Y2-S2-121M22,8,656,AS,exp,40,←,left,←,1.33678079990204,True,22,-1,0,2
Y2-S2-121M22,8,657,AS,exp,38,↓,up,↑,0.811089899973013,False,22,-1,0,2
Y2-S2-121M22,8,658,AS,exp,49,→,right,→,0.467270299908705,True,23,-1,0,2
Y2-S2-121M22,8,659,AS,exp,47,←,left,←,0.500399500015192,True,23,-1,0,2
Y2-S2-121M22,8,660,AS,exp,31,→,right,→,0.830278899986297,True,23,1,1,3
Y2-S2-121M22,8,661,AS,exp,37,←,left,←,0.433453099918552,True,22,1,0,3
Y2-S2-121M22,8,662,AS,exp,29,↑,up,↑,0.501093499944545,True,22,1,0,3
Y2-S2-121M22,8,663,AS,exp,36,←,left,←,0.417833899962716,True,22,1,0,3
Y2-S2-121M22,8,664,AS,exp,30,↑,left,←,0.366955099976622,False,21,-1,1,4
Y2-S2-121M22,8,665,AS,exp,46,←,left,←,0.726071299985051,True,22,-1,0,4
Y2-S2-121M22,8,666,AS,exp,37,→,right,→,0.858209199970588,True,22,-1,0,4
Y2-S2-121M22,8,667,AS,exp,27,↓,down,↓,0.623343399958685,True,22,1,1,5
Y2-S2-121M22,8,668,AS,exp,45,↑,up,↑,0.433054200024344,True,21,1,0,5
Y2-S2-121M22,8,669,AS,exp,46,←,left,←,0.77201099996455,True,21,1,0,5
Y2-S2-121M22,8,670,AS,exp,33,↑,up,↑,0.400468399981037,True,21,1,0,5
Y2-S2-121M22,8,671,AS,exp,39,←,right,→,0.726407299982384,False,20,-1,1,6
Y2-S2-121M22,8,672,AS,exp,42,↑,up,↑,0.878378699999303,True,21,-1,0,6
Y2-S2-121M22,8,673,AS,exp,38,↓,up,↑,0.450826899963431,False,21,-1,0,6
Y2-S2-121M22,8,674,AS,exp,48,→,down,↓,1.31574280001223,False,22,-1,0,6
Y2-S2-121M22,8,675,AS,exp,37,←,left,←,0.671531799947843,True,23,-1,0,6
Y2-S2-121M22,8,676,AS,exp,44,↓,up,↑,0.500568500021473,False,23,-1,0,6
Y2-S2-121M22,8,677,AS,exp,36,←,left,←,0.843605100060813,True,24,-1,0,6
Y2-S2-121M22,8,678,AS,exp,50,↓,down,↓,0.642180599970743,True,24,-1,0,6
Y2-S2-121M22,8,679,AS,exp,29,←,left,←,0.941012900089845,True,24,1,1,7
Y2-S2-121M22,8,680,AS,exp,26,↑,up,↑,0.433646099991165,True,23,1,0,7
Y2-S2-121M22,8,681,AS,exp,44,↓,down,↓,0.815587499993853,True,23,1,0,7
Y2-S2-121M22,8,682,AS,exp,42,↑,up,↑,0.450436900020577,True,23,1,0,7
Y2-S2-121M22,8,683,AS,exp,36,←,left,←,0.722031999961473,True,22,1,0,7
Y2-S2-121M22,8,684,AS,exp,39,↑,up,↑,0.434152100002393,True,22,1,0,7
Y2-S2-121M22,8,685,AS,exp,29,↓,down,↓,0.71867089997977,True,22,1,0,7
Y2-S2-121M22,8,686,AS,exp,32,→,right,→,0.483747399994172,True,21,1,0,7
Y2-S2-121M22,8,687,AS,exp,40,←,left,←,0.417316499981098,True,21,1,0,7
Y2-S2-121M22,8,688,AS,exp,30,↑,up,↑,0.383930300013162,True,21,1,0,7
Y2-S2-121M22,8,689,AS,exp,41,←,left,←,1.12427729996853,True,20,1,0,7
Y2-S2-121M22,8,690,AS,exp,27,→,right,→,0.433561200043187,True,20,1,0,7
Y2-S2-121M22,8,691,AS,exp,25,↑,up,↑,0.692415199941024,True,20,1,0,7
Y2-S2-121M22,8,692,AS,exp,45,↓,up,↑,0.818205699906685,False,19,-1,1,8
Y2-S2-121M22,8,693,AS,exp,42,←,left,←,0.433965499978513,True,20,-1,0,8
Y2-S2-121M22,8,694,AS,exp,45,→,right,→,1.15881589998025,True,20,-1,0,8
Y2-S2-121M22,8,695,AS,exp,46,↑,up,↑,0.806867499952205,True,20,1,1,9
Y2-S2-121M22,8,696,AS,exp,41,←,left,←,0.433977799955755,True,19,1,0,9
Y2-S2-121M22,8,697,AS,exp,42,→,right,→,1.50587689992972,True,19,1,0,9
Y2-S2-121M22,8,698,AS,exp,35,←,left,←,0.971862899954431,True,19,1,0,9
Y2-S2-121M22,8,699,AS,exp,41,↑,up,↑,0.499085100018419,True,18,1,0,9
Y2-S2-121M22,8,700,AS,exp,32,←,left,←,0.973472699988633,True,18,1,0,9
Y2-S2-121M22,8,701,AS,exp,26,→,right,→,0.861794000025839,True,18,1,0,9
Y2-S2-121M22,8,702,AS,exp,50,←,up,↑,0.788239400018938,False,17,-1,1,10
Y2-S2-121M22,8,703,AS,exp,33,↓,down,↓,0.599856699933298,True,18,-1,0,10
Y2-S2-121M22,8,704,AS,exp,33,←,right,→,0.602700700052083,False,18,-1,0,10
Y2-S2-121M22,8,705,AS,exp,34,↓,down,↓,0.70382429996971,True,19,-1,0,10
Y2-S2-121M22,8,706,AS,exp,39,→,right,→,0.649799700011499,True,19,-1,0,10
Y2-S2-121M22,8,707,AS,exp,31,↓,up,↑,0.603258399991319,False,19,-1,0,10
Y2-S2-121M22,8,708,AS,exp,50,→,right,→,1.05210269999225,True,20,-1,0,10
Y2-S2-121M22,8,709,AS,exp,45,↑,up,↑,0.704438899992965,True,20,-1,0,10
Y2-S2-121M22,8,710,AS,exp,43,←,left,←,1.21601279999595,True,20,1,1,11
Y2-S2-121M22,8,711,AS,exp,28,↑,up,↑,0.504427499952726,True,19,1,0,11
Y2-S2-121M22,8,712,AS,exp,27,←,right,→,0.72743349999655,False,19,-1,1,12
Y2-S2-121M22,8,713,AS,exp,49,↑,up,↑,0.450605599908158,True,20,-1,0,12
Y2-S2-121M22,8,714,AS,exp,28,→,right,→,0.39989580004476,True,20,-1,0,12
Y2-S2-121M22,8,715,AS,exp,44,↑,up,↑,1.15646349999588,True,20,1,1,13
Y2-S2-121M22,8,716,AS,exp,26,↓,no_key,no_letter,-1,False,19,-1,1,14
Y2-S2-121M22,8,717,AS,exp,42,←,left,←,0.544337700004689,True,20,-1,0,14
Y2-S2-121M22,8,718,AS,exp,31,↓,down,↓,0.824851999990642,True,20,-1,0,14
Y2-S2-121M22,8,719,AS,exp,49,→,right,→,0.534166199970059,True,20,1,1,15
Y2-S2-121M22,8,720,AS,exp,47,↓,down,↓,0.687838599900715,True,19,1,0,15
Y2-S2-121M22,8,721,AS,exp,38,→,right,→,0.938373400014825,True,19,1,0,15
Y2-S2-121M22,8,722,AS,exp,34,←,left,←,1.17686959996354,True,19,1,0,15
Y2-S2-121M22,8,723,AS,exp,37,↑,up,↑,1.21134290006012,True,18,1,0,15
Y2-S2-121M22,8,724,AS,exp,30,←,up,↑,0.73654049995821,False,18,-1,1,16
