PART_ID,Block_no,Trial_no,Block_type,Trial_type,CSI,Stim_letter,Key_pressed,letter_choose,Rt,Corr,Stimulus Time,Level,Reversal,Revs_count
Y2-S2-142K23,1,1,PS,train,33,→,right,→,0.6737278000073275,True,30,-,-,-
Y2-S2-142K23,1,2,PS,train,49,←,left,←,0.6171619000087958,True,30,-,-,-
Y2-S2-142K23,1,3,PS,train,42,↓,up,↑,0.7115995000058319,False,30,-,-,-
Y2-S2-142K23,1,4,PS,train,43,→,right,→,0.5174657000025036,True,30,-,-,-
Y2-S2-142K23,1,5,PS,train,37,←,left,←,0.5505181000044104,True,30,-,-,-
Y2-S2-142K23,1,6,PS,train,37,↑,up,↑,1.2939983999967808,True,30,-,-,-
Y2-S2-142K23,1,7,PS,train,40,←,left,←,0.5340470999944955,True,30,-,-,-
Y2-S2-142K23,1,8,PS,train,44,↑,up,↑,0.7156028000026708,True,30,-,-,-
Y2-S2-142K23,1,9,PS,train,46,→,right,→,0.45107609999831766,True,30,-,-,-
Y2-S2-142K23,1,10,PS,train,41,←,left,←,0.38420610000321176,True,30,-,-,-
Y2-S2-142K23,2,11,AS,train,42,→,right,→,0.7339146000012988,True,45,-,-,-
Y2-S2-142K23,2,12,AS,train,37,←,left,←,0.717613300002995,True,45,-,-,-
Y2-S2-142K23,2,13,AS,train,34,↓,down,↓,0.7010862000024645,True,45,-,-,-
Y2-S2-142K23,2,14,AS,train,39,↑,up,↑,0.8672509000025457,True,45,-,-,-
Y2-S2-142K23,2,15,AS,train,30,←,left,←,0.568304000000353,True,45,-,-,-
Y2-S2-142K23,2,16,AS,train,42,↑,up,↑,0.8008644999936223,True,45,-,-,-
Y2-S2-142K23,2,17,AS,train,48,↓,left,←,0.5341221999988193,False,45,-,-,-
Y2-S2-142K23,2,18,AS,train,26,↑,up,↑,0.7673556999943685,True,45,-,-,-
Y2-S2-142K23,2,19,AS,train,38,→,right,→,0.5842431999917608,True,45,-,-,-
Y2-S2-142K23,2,20,AS,train,43,←,left,←,0.6835870999930194,True,45,-,-,-
Y2-S2-142K23,-,21,PS,adaptive,32,↓,down,↓,0.6727670999971451,True,10,0,0,0
Y2-S2-142K23,-,22,PS,adaptive,29,←,left,←,0.5691502999980003,True,10,0,0,0
Y2-S2-142K23,-,23,PS,adaptive,48,→,right,→,0.5785743000014918,True,10,1,0,0
Y2-S2-142K23,-,24,PS,adaptive,29,←,left,←,0.516522799996892,True,9,1,0,0
Y2-S2-142K23,-,25,PS,adaptive,36,→,right,→,0.5147043000033591,True,9,1,0,0
Y2-S2-142K23,-,26,PS,adaptive,46,↓,down,↓,0.6497621000016807,True,9,1,0,0
Y2-S2-142K23,-,27,PS,adaptive,44,→,right,→,0.5596362999931443,True,8,1,0,0
Y2-S2-142K23,-,28,PS,adaptive,50,↑,up,↑,0.530200600012904,True,8,1,0,0
Y2-S2-142K23,-,29,PS,adaptive,28,↓,down,↓,0.4800124000030337,True,8,1,0,0
Y2-S2-142K23,-,30,PS,adaptive,38,←,right,→,1.03185559999838,False,7,-1,1,1
Y2-S2-142K23,-,31,PS,adaptive,49,→,right,→,0.5404995999997482,True,8,-1,0,1
Y2-S2-142K23,-,32,PS,adaptive,37,←,left,←,0.4418710999889299,True,8,-1,0,1
Y2-S2-142K23,-,33,PS,adaptive,36,→,right,→,0.4678572999982862,True,8,1,1,2
Y2-S2-142K23,-,34,PS,adaptive,26,↓,left,←,0.7685732999962056,False,7,-1,1,3
Y2-S2-142K23,-,35,PS,adaptive,29,→,right,→,0.48072409999440424,True,8,-1,0,3
Y2-S2-142K23,-,36,PS,adaptive,39,↑,up,↑,0.7381571000005351,True,8,-1,0,3
Y2-S2-142K23,-,37,PS,adaptive,29,←,left,←,0.46223090001149103,True,8,1,1,4
Y2-S2-142K23,-,38,AS,adaptive,26,↓,down,↓,0.844380499998806,True,20,0,0,0
Y2-S2-142K23,-,39,AS,adaptive,46,↑,up,↑,0.7407855000055861,True,20,0,0,0
Y2-S2-142K23,-,40,AS,adaptive,36,↓,down,↓,0.9459119999955874,True,20,1,0,0
Y2-S2-142K23,-,41,AS,adaptive,32,←,left,←,0.5745918000029633,True,19,1,0,0
Y2-S2-142K23,-,42,AS,adaptive,40,→,right,→,0.8326684999919962,True,19,1,0,0
Y2-S2-142K23,-,43,AS,adaptive,26,←,left,←,0.4989029999997001,True,19,1,0,0
Y2-S2-142K23,-,44,AS,adaptive,42,↓,down,↓,0.5938373999961186,True,18,1,0,0
Y2-S2-142K23,-,45,AS,adaptive,47,↑,up,↑,0.6487884000089252,True,18,1,0,0
Y2-S2-142K23,-,46,AS,adaptive,30,↓,down,↓,0.5894294000027003,True,18,1,0,0
Y2-S2-142K23,-,47,AS,adaptive,32,→,right,→,0.5135875000123633,True,17,1,0,0
Y2-S2-142K23,-,48,AS,adaptive,38,↓,down,↓,0.4888117000082275,True,17,1,0,0
Y2-S2-142K23,-,49,AS,adaptive,31,←,left,←,0.6210628999979235,True,17,1,0,0
Y2-S2-142K23,-,50,AS,adaptive,34,→,right,→,0.6235175000037998,True,16,1,0,0
Y2-S2-142K23,-,51,AS,adaptive,31,↑,up,↑,1.1498739999951795,True,16,1,0,0
Y2-S2-142K23,-,52,AS,adaptive,26,↓,down,↓,0.6659817999898223,True,16,1,0,0
Y2-S2-142K23,-,53,AS,adaptive,40,↑,down,↓,0.7584143000131007,False,15,-1,1,1
Y2-S2-142K23,-,54,AS,adaptive,33,→,right,→,0.9739412000053562,True,16,-1,0,1
Y2-S2-142K23,-,55,AS,adaptive,48,↑,down,↓,1.7776404000032926,False,16,-1,0,1
Y2-S2-142K23,-,56,AS,adaptive,35,→,right,→,0.5545871000067564,True,17,-1,0,1
Y2-S2-142K23,-,57,AS,adaptive,45,↓,down,↓,0.9119190000055823,True,17,-1,0,1
Y2-S2-142K23,-,58,AS,adaptive,28,→,right,→,0.5097573999955785,True,17,1,1,2
Y2-S2-142K23,-,59,AS,adaptive,30,↓,down,↓,0.5721697999979369,True,16,1,0,2
Y2-S2-142K23,-,60,AS,adaptive,30,←,right,→,0.972123500003363,False,16,-1,1,3
Y2-S2-142K23,-,61,AS,adaptive,27,↑,down,↓,0.885049300006358,False,17,-1,0,3
Y2-S2-142K23,-,62,AS,adaptive,32,↓,down,↓,0.5860928999900352,True,18,-1,0,3
Y2-S2-142K23,-,63,AS,adaptive,45,→,right,→,0.5721347000071546,True,18,-1,0,3
Y2-S2-142K23,-,64,AS,adaptive,38,↓,down,↓,0.7867560000013327,True,18,1,1,4
Y2-S2-142K23,1,65,PS,intra_train,42,←,left,←,0.5356572000018787,True,10,-,-,-
Y2-S2-142K23,1,66,PS,intra_train,39,↓,down,↓,0.44494750000012573,True,10,-,-,-
Y2-S2-142K23,1,67,PS,intra_train,31,↑,up,↑,0.5585957000002963,True,10,-,-,-
Y2-S2-142K23,1,68,PS,intra_train,38,→,right,→,0.5586726000037743,True,10,-,-,-
Y2-S2-142K23,1,69,PS,intra_train,50,↓,down,↓,0.46641449999879114,True,10,-,-,-
Y2-S2-142K23,1,70,PS,exp,42,↑,up,↑,0.5172208000003593,True,7,0,0,0
Y2-S2-142K23,1,71,PS,exp,49,←,left,←,0.44907529999909457,True,7,0,0,0
Y2-S2-142K23,1,72,PS,exp,34,→,right,→,0.3762659000058193,True,7,1,0,0
Y2-S2-142K23,1,73,PS,exp,38,↑,left,←,0.36785200001031626,False,6,-1,1,1
Y2-S2-142K23,1,74,PS,exp,37,↓,down,↓,0.6095586000010371,True,7,-1,0,1
Y2-S2-142K23,1,75,PS,exp,26,→,right,→,0.5471195999998599,True,7,-1,0,1
Y2-S2-142K23,1,76,PS,exp,26,↓,down,↓,0.53875639999751,True,7,1,1,2
Y2-S2-142K23,1,77,PS,exp,43,↑,down,↓,0.6368216999981087,False,6,-1,1,3
Y2-S2-142K23,1,78,PS,exp,36,←,left,←,0.476464199993643,True,7,-1,0,3
Y2-S2-142K23,1,79,PS,exp,50,↑,up,↑,0.6033840000018245,True,7,-1,0,3
Y2-S2-142K23,1,80,PS,exp,46,→,right,→,0.49496880000515375,True,7,1,1,4
Y2-S2-142K23,1,81,PS,exp,32,←,left,←,0.579785100009758,True,6,1,0,4
Y2-S2-142K23,1,82,PS,exp,27,→,right,→,0.5528432999999495,True,6,1,0,4
Y2-S2-142K23,1,83,PS,exp,44,←,left,←,0.6081916999974055,True,6,1,0,4
Y2-S2-142K23,1,84,PS,exp,30,↓,left,←,0.6440911999961827,False,5,-1,1,5
Y2-S2-142K23,1,85,PS,exp,29,←,right,→,0.9633137000055285,False,6,-1,0,5
Y2-S2-142K23,1,86,PS,exp,44,↑,right,→,0.6157957000104943,False,7,-1,0,5
Y2-S2-142K23,1,87,PS,exp,44,←,left,←,0.4842426999966847,True,8,-1,0,5
Y2-S2-142K23,1,88,PS,exp,31,→,right,→,0.44961959999636747,True,8,-1,0,5
Y2-S2-142K23,1,89,PS,exp,50,↓,down,↓,0.5920757999992929,True,8,1,1,6
Y2-S2-142K23,1,90,PS,exp,45,→,right,→,0.4614542000053916,True,7,1,0,6
Y2-S2-142K23,1,91,PS,exp,46,↓,right,→,0.7835467999975663,False,7,-1,1,7
Y2-S2-142K23,1,92,PS,exp,25,↑,up,↑,0.5118320000037784,True,8,-1,0,7
Y2-S2-142K23,1,93,PS,exp,47,↓,right,→,0.3578732000023592,False,8,-1,0,7
Y2-S2-142K23,1,94,PS,exp,36,→,right,→,0.46834770000714343,True,9,-1,0,7
Y2-S2-142K23,1,95,PS,exp,45,↑,up,↑,0.584346400006325,True,9,-1,0,7
Y2-S2-142K23,1,96,PS,exp,37,↓,down,↓,0.41256609999982174,True,9,1,1,8
Y2-S2-142K23,1,97,PS,exp,47,↑,up,↑,0.5450841999991098,True,8,1,0,8
Y2-S2-142K23,1,98,PS,exp,47,→,right,→,0.7797931999957655,True,8,1,0,8
Y2-S2-142K23,1,99,PS,exp,44,←,right,→,0.9813396999961697,False,8,-1,1,9
Y2-S2-142K23,1,100,PS,exp,41,→,right,→,0.4925048000004608,True,9,-1,0,9
Y2-S2-142K23,1,101,PS,exp,49,↓,no_key,no_letter,-1.0,False,9,-1,0,9
Y2-S2-142K23,1,102,PS,exp,49,←,left,←,0.4860301000007894,True,10,-1,0,9
Y2-S2-142K23,1,103,PS,exp,37,↑,up,↑,0.4784983999998076,True,10,-1,0,9
Y2-S2-142K23,1,104,PS,exp,39,↓,down,↓,0.5291273000038927,True,10,1,1,10
Y2-S2-142K23,1,105,PS,exp,36,↑,up,↑,0.4082535000052303,True,9,1,0,10
Y2-S2-142K23,1,106,PS,exp,46,←,left,←,0.9835024000058183,True,9,1,0,10
Y2-S2-142K23,1,107,PS,exp,32,↑,up,↑,0.5058190999989165,True,9,1,0,10
Y2-S2-142K23,1,108,PS,exp,49,←,left,←,0.4187638000003062,True,8,1,0,10
Y2-S2-142K23,1,109,PS,exp,29,→,up,↑,0.9226608000026317,False,8,-1,1,11
Y2-S2-142K23,1,110,PS,exp,35,↑,right,→,0.8894740999967325,False,9,-1,0,11
Y2-S2-142K23,1,111,PS,exp,34,↓,down,↓,0.5384934999892721,True,10,-1,0,11
Y2-S2-142K23,1,112,PS,exp,37,↑,up,↑,0.4546401999978116,True,10,-1,0,11
Y2-S2-142K23,1,113,PS,exp,26,←,right,→,1.0505558000004385,False,10,-1,0,11
Y2-S2-142K23,1,114,PS,exp,43,→,right,→,0.4766154999961145,True,11,-1,0,11
Y2-S2-142K23,1,115,PS,exp,35,↑,up,↑,0.47019120000186376,True,11,-1,0,11
Y2-S2-142K23,1,116,PS,exp,26,↓,down,↓,0.5855615000036778,True,11,1,1,12
Y2-S2-142K23,1,117,PS,exp,39,→,right,→,0.388879399994039,True,10,1,0,12
Y2-S2-142K23,1,118,PS,exp,32,↓,left,←,0.6588181000115583,False,10,-1,1,13
Y2-S2-142K23,1,119,PS,exp,43,↑,up,↑,0.5715404999937164,True,11,-1,0,13
Y2-S2-142K23,1,120,PS,exp,28,↓,down,↓,0.6170584999927087,True,11,-1,0,13
Y2-S2-142K23,1,121,PS,exp,41,→,right,→,0.618336100000306,True,11,1,1,14
Y2-S2-142K23,1,122,PS,exp,47,↓,right,→,0.8165724999998929,False,10,-1,1,15
Y2-S2-142K23,1,123,PS,exp,42,↑,up,↑,0.6889519999967888,True,11,-1,0,15
Y2-S2-142K23,1,124,PS,exp,36,↓,down,↓,0.5849204999976791,True,11,-1,0,15
Y2-S2-142K23,1,125,PS,exp,47,→,right,→,0.4120067000039853,True,11,1,1,16
Y2-S2-142K23,2,126,AS,intra_train,25,↓,down,↓,0.7863214000099106,True,25,-,-,-
Y2-S2-142K23,2,127,AS,intra_train,35,↑,down,↓,0.5506699000106892,False,25,-,-,-
Y2-S2-142K23,2,128,AS,intra_train,43,←,left,←,0.833966899997904,True,25,-,-,-
Y2-S2-142K23,2,129,AS,intra_train,30,→,right,→,0.6494232999975793,True,25,-,-,-
Y2-S2-142K23,2,130,AS,intra_train,40,↓,down,↓,0.7101994999975432,True,25,-,-,-
Y2-S2-142K23,2,131,AS,exp,41,→,right,→,0.5421976999932667,True,17,0,0,0
Y2-S2-142K23,2,132,AS,exp,44,←,left,←,0.5529322000074899,True,17,0,0,0
Y2-S2-142K23,2,133,AS,exp,48,→,no_key,no_letter,-1.0,False,17,-1,0,0
Y2-S2-142K23,2,134,AS,exp,38,↑,down,↓,0.8925201999954879,False,18,-1,0,0
Y2-S2-142K23,2,135,AS,exp,26,←,left,←,0.51331460000074,True,19,-1,0,0
Y2-S2-142K23,2,136,AS,exp,45,→,right,→,0.5065370000083931,True,19,-1,0,0
Y2-S2-142K23,2,137,AS,exp,42,↓,down,↓,0.5794134999887319,True,19,1,1,1
Y2-S2-142K23,2,138,AS,exp,33,↑,down,↓,0.8340551000001142,False,18,-1,1,2
Y2-S2-142K23,2,139,AS,exp,43,↓,down,↓,0.6588551999884658,True,19,-1,0,2
Y2-S2-142K23,2,140,AS,exp,34,←,left,←,0.5208087999926647,True,19,-1,0,2
Y2-S2-142K23,2,141,AS,exp,47,↓,up,↑,1.1758050999924308,False,19,-1,0,2
Y2-S2-142K23,2,142,AS,exp,35,←,left,←,0.5164358000038192,True,20,-1,0,2
Y2-S2-142K23,2,143,AS,exp,44,→,right,→,0.7134988000034355,True,20,-1,0,2
Y2-S2-142K23,2,144,AS,exp,45,↓,down,↓,0.8869433999934699,True,20,1,1,3
Y2-S2-142K23,2,145,AS,exp,26,↑,up,↑,0.6958485999930417,True,19,1,0,3
Y2-S2-142K23,2,146,AS,exp,40,↓,down,↓,0.7256817000015872,True,19,1,0,3
Y2-S2-142K23,2,147,AS,exp,25,→,right,→,0.5333405999990646,True,19,1,0,3
Y2-S2-142K23,2,148,AS,exp,45,←,left,←,0.7746200999972643,True,18,1,0,3
Y2-S2-142K23,2,149,AS,exp,38,→,right,→,0.727760900001158,True,18,1,0,3
Y2-S2-142K23,2,150,AS,exp,45,←,left,←,0.7851490000030026,True,18,1,0,3
Y2-S2-142K23,2,151,AS,exp,41,↑,up,↑,0.7397645000019111,True,17,1,0,3
Y2-S2-142K23,2,152,AS,exp,48,←,right,→,0.9517946999985725,False,17,-1,1,4
Y2-S2-142K23,2,153,AS,exp,31,→,right,→,0.5317163999861805,True,18,-1,0,4
Y2-S2-142K23,2,154,AS,exp,31,↑,up,↑,0.5695029999915278,True,18,-1,0,4
Y2-S2-142K23,2,155,AS,exp,37,←,no_key,no_letter,-1.0,False,18,-1,0,4
Y2-S2-142K23,2,156,AS,exp,30,↓,down,↓,0.967962599999737,True,19,-1,0,4
Y2-S2-142K23,2,157,AS,exp,44,↑,no_key,no_letter,-1.0,False,19,-1,0,4
Y2-S2-142K23,2,158,AS,exp,50,↓,down,↓,0.7702572999987751,True,20,-1,0,4
Y2-S2-142K23,2,159,AS,exp,38,→,left,←,0.5184300000109943,False,20,-1,0,4
Y2-S2-142K23,2,160,AS,exp,28,↓,down,↓,0.7494475999992574,True,21,-1,0,4
Y2-S2-142K23,2,161,AS,exp,25,↑,up,↑,0.5453966000059154,True,21,-1,0,4
Y2-S2-142K23,2,162,AS,exp,25,←,left,←,0.7572634999960428,True,21,1,1,5
Y2-S2-142K23,2,163,AS,exp,31,↑,down,↓,0.9328702999919187,False,20,-1,1,6
Y2-S2-142K23,2,164,AS,exp,42,→,right,→,0.5334767999884207,True,21,-1,0,6
Y2-S2-142K23,2,165,AS,exp,37,←,left,←,0.8049752000079025,True,21,-1,0,6
Y2-S2-142K23,2,166,AS,exp,29,→,right,→,0.6085547000111546,True,21,1,1,7
Y2-S2-142K23,2,167,AS,exp,28,↓,down,↓,0.7507315999973798,True,20,1,0,7
Y2-S2-142K23,2,168,AS,exp,29,→,right,→,0.7058642999909353,True,20,1,0,7
Y2-S2-142K23,2,169,AS,exp,47,←,left,←,0.676449100006721,True,20,1,0,7
Y2-S2-142K23,2,170,AS,exp,26,↓,down,↓,0.5995836000074632,True,19,1,0,7
Y2-S2-142K23,2,171,AS,exp,45,↑,up,↑,0.5494754999963334,True,19,1,0,7
Y2-S2-142K23,2,172,AS,exp,29,→,right,→,0.5408962000074098,True,19,1,0,7
Y2-S2-142K23,2,173,AS,exp,43,↓,down,↓,0.5914867999963462,True,18,1,0,7
Y2-S2-142K23,2,174,AS,exp,30,←,left,←,0.6548512000008486,True,18,1,0,7
Y2-S2-142K23,2,175,AS,exp,45,↓,down,↓,0.7060416000022087,True,18,1,0,7
Y2-S2-142K23,2,176,AS,exp,33,↑,up,↑,0.7879553999955533,True,17,1,0,7
Y2-S2-142K23,2,177,AS,exp,31,↓,down,↓,0.45708450001257006,True,17,1,0,7
Y2-S2-142K23,2,178,AS,exp,39,←,left,←,0.5539468000060879,True,17,1,0,7
Y2-S2-142K23,2,179,AS,exp,36,↓,down,↓,0.49763859999075066,True,16,1,0,7
Y2-S2-142K23,2,180,AS,exp,33,→,right,→,0.525622300003306,True,16,1,0,7
Y2-S2-142K23,2,181,AS,exp,40,↑,up,↑,0.523580299995956,True,16,1,0,7
Y2-S2-142K23,2,182,AS,exp,25,↓,down,↓,0.6996314000134589,True,15,1,0,7
Y2-S2-142K23,2,183,AS,exp,30,↑,up,↑,0.5177376000065124,True,15,1,0,7
Y2-S2-142K23,2,184,AS,exp,46,→,left,←,0.5713497000106145,False,15,-1,1,8
Y2-S2-142K23,2,185,AS,exp,32,←,left,←,0.4720907000009902,True,16,-1,0,8
Y2-S2-142K23,2,186,AS,exp,50,↑,up,↑,0.5831496000027983,True,16,-1,0,8
Y2-S2-142K23,2,187,AS,exp,31,→,right,→,0.47002820001216605,True,16,1,1,9
Y2-S2-142K23,2,188,AS,exp,29,↓,down,↓,0.4940762000042014,True,15,1,0,9
Y2-S2-142K23,2,189,AS,exp,26,→,right,→,0.42239690000133123,True,15,1,0,9
Y2-S2-142K23,2,190,AS,exp,31,↓,left,←,0.38382290001027286,False,15,-1,1,10
Y2-S2-142K23,2,191,AS,exp,42,→,right,→,0.5274615999951493,True,16,-1,0,10
Y2-S2-142K23,2,192,AS,exp,46,↓,down,↓,0.8347858999914024,True,16,-1,0,10
Y2-S2-142K23,2,193,AS,exp,44,→,right,→,0.4896043000044301,True,16,1,1,11
Y2-S2-142K23,2,194,AS,exp,42,↓,down,↓,0.7285816999938106,True,15,1,0,11
Y2-S2-142K23,2,195,AS,exp,42,↑,no_key,no_letter,-1.0,False,15,-1,1,12
Y2-S2-142K23,2,196,AS,exp,29,↓,down,↓,0.5159990999964066,True,16,-1,0,12
Y2-S2-142K23,2,197,AS,exp,40,↑,up,↑,0.609781799998018,True,16,-1,0,12
Y2-S2-142K23,2,198,AS,exp,39,↓,down,↓,0.72269999999844,True,16,1,1,13
Y2-S2-142K23,2,199,AS,exp,48,↑,up,↑,0.43516310000268277,True,15,1,0,13
Y2-S2-142K23,2,200,AS,exp,27,↓,down,↓,0.64361130000907,True,15,1,0,13
Y2-S2-142K23,2,201,AS,exp,41,→,right,→,0.7341210000013234,True,15,1,0,13
Y2-S2-142K23,2,202,AS,exp,36,↓,down,↓,0.4976693000062369,True,14,1,0,13
Y2-S2-142K23,2,203,AS,exp,27,↑,left,←,0.6352390999963973,False,14,-1,1,14
Y2-S2-142K23,2,204,AS,exp,27,←,left,←,0.4781057000072906,True,15,-1,0,14
Y2-S2-142K23,2,205,AS,exp,30,↓,down,↓,0.6272903000062797,True,15,-1,0,14
Y2-S2-142K23,2,206,AS,exp,28,→,left,←,0.6139771000016481,False,15,-1,0,14
Y2-S2-142K23,2,207,AS,exp,28,↑,up,↑,1.025186400001985,True,16,-1,0,14
Y2-S2-142K23,2,208,AS,exp,46,←,left,←,0.5497923999937484,True,16,-1,0,14
Y2-S2-142K23,2,209,AS,exp,46,→,right,→,0.7920719000103418,True,16,1,1,15
Y2-S2-142K23,2,210,AS,exp,26,↓,down,↓,0.621759599991492,True,15,1,0,15
Y2-S2-142K23,2,211,AS,exp,42,↑,down,↓,0.8736940999951912,False,15,-1,1,16
Y2-S2-142K23,3,212,AS,intra_train,33,→,right,→,0.6786591999989469,True,25,-,-,-
Y2-S2-142K23,3,213,AS,intra_train,43,↓,down,↓,0.7401271999988239,True,25,-,-,-
Y2-S2-142K23,3,214,AS,intra_train,41,→,right,→,0.433914499997627,True,25,-,-,-
Y2-S2-142K23,3,215,AS,intra_train,31,↑,up,↑,0.6913834000006318,True,25,-,-,-
Y2-S2-142K23,3,216,AS,intra_train,29,←,left,←,0.4507531999988714,True,25,-,-,-
Y2-S2-142K23,3,217,AS,exp,48,→,right,→,0.5432380999991437,True,17,0,0,0
Y2-S2-142K23,3,218,AS,exp,38,←,left,←,0.46841000000131316,True,17,0,0,0
Y2-S2-142K23,3,219,AS,exp,44,↓,down,↓,0.8663546000025235,True,17,1,0,0
Y2-S2-142K23,3,220,AS,exp,47,←,left,←,0.48846219999541063,True,16,1,0,0
Y2-S2-142K23,3,221,AS,exp,35,↑,up,↑,0.7384832999960054,True,16,1,0,0
Y2-S2-142K23,3,222,AS,exp,45,↓,up,↑,0.7321151000069221,False,16,-1,1,1
Y2-S2-142K23,3,223,AS,exp,39,←,left,←,0.7496510999917518,True,17,-1,0,1
Y2-S2-142K23,3,224,AS,exp,32,→,right,→,0.7733733000059146,True,17,-1,0,1
Y2-S2-142K23,3,225,AS,exp,33,↓,right,→,0.5647253000061028,False,17,-1,0,1
Y2-S2-142K23,3,226,AS,exp,49,↑,up,↑,0.7618323999922723,True,18,-1,0,1
Y2-S2-142K23,3,227,AS,exp,45,←,left,←,0.47940169999492355,True,18,-1,0,1
Y2-S2-142K23,3,228,AS,exp,28,↑,up,↑,0.8710149999969872,True,18,1,1,2
Y2-S2-142K23,3,229,AS,exp,45,→,right,→,0.6375036000099499,True,17,1,0,2
Y2-S2-142K23,3,230,AS,exp,35,↑,right,→,0.6726575000066077,False,17,-1,1,3
Y2-S2-142K23,3,231,AS,exp,41,→,right,→,0.4709634999890113,True,18,-1,0,3
Y2-S2-142K23,3,232,AS,exp,47,←,left,←,0.7288475999957882,True,18,-1,0,3
Y2-S2-142K23,3,233,AS,exp,48,↓,down,↓,0.7386710999999195,True,18,1,1,4
Y2-S2-142K23,3,234,AS,exp,46,←,left,←,0.6792125000065425,True,17,1,0,4
Y2-S2-142K23,3,235,AS,exp,25,↓,down,↓,0.666699300010805,True,17,1,0,4
Y2-S2-142K23,3,236,AS,exp,45,←,left,←,0.5862019999913173,True,17,1,0,4
Y2-S2-142K23,3,237,AS,exp,46,↑,up,↑,0.737748699990334,True,16,1,0,4
Y2-S2-142K23,3,238,AS,exp,29,↓,down,↓,0.689298700002837,True,16,1,0,4
Y2-S2-142K23,3,239,AS,exp,26,↑,up,↑,0.536031900002854,True,16,1,0,4
Y2-S2-142K23,3,240,AS,exp,26,→,right,→,0.5107495999982348,True,15,1,0,4
Y2-S2-142K23,3,241,AS,exp,30,↓,up,↑,1.126466400004574,False,15,-1,1,5
Y2-S2-142K23,3,242,AS,exp,49,→,left,←,0.7740082999953302,False,16,-1,0,5
Y2-S2-142K23,3,243,AS,exp,28,↓,down,↓,0.845329200004926,True,17,-1,0,5
Y2-S2-142K23,3,244,AS,exp,33,→,right,→,0.7708811000047717,True,17,-1,0,5
Y2-S2-142K23,3,245,AS,exp,30,↓,down,↓,0.7443675999966217,True,17,1,1,6
Y2-S2-142K23,3,246,AS,exp,29,↑,up,↑,0.4761412000079872,True,16,1,0,6
Y2-S2-142K23,3,247,AS,exp,25,↓,down,↓,0.5642828000127338,True,16,1,0,6
Y2-S2-142K23,3,248,AS,exp,45,→,right,→,0.6868237000016961,True,16,1,0,6
Y2-S2-142K23,3,249,AS,exp,49,←,left,←,0.5227192000020295,True,15,1,0,6
Y2-S2-142K23,3,250,AS,exp,45,→,right,→,0.693533000012394,True,15,1,0,6
Y2-S2-142K23,3,251,AS,exp,48,↑,up,↑,0.7035373999970034,True,15,1,0,6
Y2-S2-142K23,3,252,AS,exp,45,→,left,←,0.5951076999917859,False,14,-1,1,7
Y2-S2-142K23,3,253,AS,exp,38,↑,up,↑,0.635360700005549,True,15,-1,0,7
Y2-S2-142K23,3,254,AS,exp,40,↓,down,↓,0.4624337999994168,True,15,-1,0,7
Y2-S2-142K23,3,255,AS,exp,35,→,right,→,0.8312377000111155,True,15,1,1,8
Y2-S2-142K23,3,256,AS,exp,34,↑,up,↑,0.6508423000050243,True,14,1,0,8
Y2-S2-142K23,3,257,AS,exp,48,←,left,←,0.4863945999968564,True,14,1,0,8
Y2-S2-142K23,3,258,AS,exp,42,→,left,←,0.6929856000060681,False,14,-1,1,9
Y2-S2-142K23,3,259,AS,exp,45,←,left,←,0.5856759000016609,True,15,-1,0,9
Y2-S2-142K23,3,260,AS,exp,37,↓,down,↓,0.6336181999940891,True,15,-1,0,9
Y2-S2-142K23,3,261,AS,exp,37,↑,up,↑,1.0398242000082973,True,15,1,1,10
Y2-S2-142K23,3,262,AS,exp,29,←,left,←,0.5385181000019656,True,14,1,0,10
Y2-S2-142K23,3,263,AS,exp,50,↑,up,↑,0.4555339999933494,True,14,1,0,10
Y2-S2-142K23,3,264,AS,exp,42,→,right,→,0.36747029999969527,True,14,1,0,10
Y2-S2-142K23,3,265,AS,exp,34,↑,left,←,0.7347093999997014,False,13,-1,1,11
Y2-S2-142K23,3,266,AS,exp,38,→,right,→,0.5419505000027129,True,14,-1,0,11
Y2-S2-142K23,3,267,AS,exp,33,↓,down,↓,0.5907951999979559,True,14,-1,0,11
Y2-S2-142K23,3,268,AS,exp,45,→,left,←,0.5061005000025034,False,14,-1,0,11
Y2-S2-142K23,3,269,AS,exp,49,←,left,←,0.5048762000078568,True,15,-1,0,11
Y2-S2-142K23,3,270,AS,exp,41,→,up,↑,0.300460500002373,False,15,-1,0,11
Y2-S2-142K23,3,271,AS,exp,44,↓,up,↑,0.7504479000053834,False,16,-1,0,11
Y2-S2-142K23,3,272,AS,exp,26,←,left,←,0.4681245000101626,True,17,-1,0,11
Y2-S2-142K23,3,273,AS,exp,48,↑,up,↑,0.5749387000105344,True,17,-1,0,11
Y2-S2-142K23,3,274,AS,exp,36,←,left,←,0.5388476999942213,True,17,1,1,12
Y2-S2-142K23,3,275,AS,exp,50,→,left,←,0.5219097999943187,False,16,-1,1,13
Y2-S2-142K23,3,276,AS,exp,37,↓,right,→,0.4673219000105746,False,17,-1,0,13
Y2-S2-142K23,3,277,AS,exp,25,←,right,→,0.5671457999997074,False,18,-1,0,13
Y2-S2-142K23,3,278,AS,exp,33,→,right,→,0.83398519999173,True,19,-1,0,13
Y2-S2-142K23,3,279,AS,exp,36,←,left,←,0.49874419999832753,True,19,-1,0,13
Y2-S2-142K23,3,280,AS,exp,31,↑,up,↑,0.7718992000009166,True,19,1,1,14
Y2-S2-142K23,3,281,AS,exp,29,↓,down,↓,0.5334835999965435,True,18,1,0,14
Y2-S2-142K23,3,282,AS,exp,50,→,right,→,0.6084912000078475,True,18,1,0,14
Y2-S2-142K23,3,283,AS,exp,27,↑,up,↑,0.9610487000027206,True,18,1,0,14
Y2-S2-142K23,3,284,AS,exp,25,↓,left,←,0.9829228000016883,False,17,-1,1,15
Y2-S2-142K23,3,285,AS,exp,27,↑,right,→,1.1263351000088733,False,18,-1,0,15
Y2-S2-142K23,3,286,AS,exp,46,←,left,←,0.6162686999887228,True,19,-1,0,15
Y2-S2-142K23,3,287,AS,exp,41,↑,up,↑,0.9827227000059793,True,19,-1,0,15
Y2-S2-142K23,3,288,AS,exp,36,←,left,←,0.5838109000033,True,19,1,1,16
Y2-S2-142K23,4,289,PS,intra_train,50,↑,up,↑,0.6818003000080353,True,10,-,-,-
Y2-S2-142K23,4,290,PS,intra_train,32,→,up,↑,0.5061074999975972,False,10,-,-,-
Y2-S2-142K23,4,291,PS,intra_train,25,↑,up,↑,0.5034704999998212,True,10,-,-,-
Y2-S2-142K23,4,292,PS,intra_train,41,←,left,←,0.5222166000021389,True,10,-,-,-
Y2-S2-142K23,4,293,PS,intra_train,33,↓,down,↓,0.5549505000089994,True,10,-,-,-
Y2-S2-142K23,4,294,PS,exp,42,↑,up,↑,0.614807900012238,True,7,0,0,0
Y2-S2-142K23,4,295,PS,exp,26,→,right,→,0.43699969998851884,True,7,0,0,0
Y2-S2-142K23,4,296,PS,exp,33,↓,down,↓,0.4877146999933757,True,7,1,0,0
Y2-S2-142K23,4,297,PS,exp,27,→,right,→,0.4194197000033455,True,6,1,0,0
Y2-S2-142K23,4,298,PS,exp,25,←,left,←,0.4419530000013765,True,6,1,0,0
Y2-S2-142K23,4,299,PS,exp,27,→,right,→,0.43088020000141114,True,6,1,0,0
Y2-S2-142K23,4,300,PS,exp,31,↓,down,↓,0.7809262999944622,True,5,1,0,0
Y2-S2-142K23,4,301,PS,exp,48,→,right,→,0.5565765999926953,True,5,1,0,0
Y2-S2-142K23,4,302,PS,exp,43,↓,right,→,1.3090337000030559,False,5,-1,1,1
Y2-S2-142K23,4,303,PS,exp,32,→,right,→,0.5296436999924481,True,6,-1,0,1
Y2-S2-142K23,4,304,PS,exp,33,←,up,↑,1.0054726999951527,False,6,-1,0,1
Y2-S2-142K23,4,305,PS,exp,47,→,right,→,0.6870539000083227,True,7,-1,0,1
Y2-S2-142K23,4,306,PS,exp,26,←,left,←,0.4547590999864042,True,7,-1,0,1
Y2-S2-142K23,4,307,PS,exp,36,↑,up,↑,0.9315010999998776,True,7,1,1,2
Y2-S2-142K23,4,308,PS,exp,50,→,right,→,0.433858100004727,True,6,1,0,2
Y2-S2-142K23,4,309,PS,exp,45,←,right,→,0.7481040999991819,False,6,-1,1,3
Y2-S2-142K23,4,310,PS,exp,32,→,right,→,0.480482300001313,True,7,-1,0,3
Y2-S2-142K23,4,311,PS,exp,40,↓,down,↓,0.5354069000022719,True,7,-1,0,3
Y2-S2-142K23,4,312,PS,exp,47,↑,left,←,0.6851071000128286,False,7,-1,0,3
Y2-S2-142K23,4,313,PS,exp,25,→,left,←,0.7570536999992328,False,8,-1,0,3
Y2-S2-142K23,4,314,PS,exp,37,↑,up,↑,0.583736400003545,True,9,-1,0,3
Y2-S2-142K23,4,315,PS,exp,32,←,left,←,0.4532915000017965,True,9,-1,0,3
Y2-S2-142K23,4,316,PS,exp,27,→,left,←,0.889428800001042,False,9,-1,0,3
Y2-S2-142K23,4,317,PS,exp,28,↑,up,↑,0.5545383999997284,True,10,-1,0,3
Y2-S2-142K23,4,318,PS,exp,31,↓,right,→,0.8019027999980608,False,10,-1,0,3
Y2-S2-142K23,4,319,PS,exp,50,↑,up,↑,0.642009599992889,True,11,-1,0,3
Y2-S2-142K23,4,320,PS,exp,35,↓,down,↓,0.5664030000043567,True,11,-1,0,3
Y2-S2-142K23,4,321,PS,exp,34,↑,up,↑,0.42956740000227,True,11,1,1,4
Y2-S2-142K23,4,322,PS,exp,40,←,left,←,0.39649300000746734,True,10,1,0,4
Y2-S2-142K23,4,323,PS,exp,45,↓,down,↓,0.6276590999914333,True,10,1,0,4
Y2-S2-142K23,4,324,PS,exp,46,→,right,→,0.6017676000046777,True,10,1,0,4
Y2-S2-142K23,4,325,PS,exp,40,←,left,←,0.425615399988601,True,9,1,0,4
Y2-S2-142K23,4,326,PS,exp,38,→,up,↑,1.1959500000084518,False,9,-1,1,5
Y2-S2-142K23,4,327,PS,exp,37,↑,up,↑,0.5126445000059903,True,10,-1,0,5
Y2-S2-142K23,4,328,PS,exp,36,←,left,←,0.4593709000037052,True,10,-1,0,5
Y2-S2-142K23,4,329,PS,exp,43,↑,up,↑,0.44653630000539124,True,10,1,1,6
Y2-S2-142K23,4,330,PS,exp,28,↓,down,↓,0.41638970001076814,True,9,1,0,6
Y2-S2-142K23,4,331,PS,exp,28,↑,left,←,0.7832783000048948,False,9,-1,1,7
Y2-S2-142K23,4,332,PS,exp,36,→,left,←,0.7460685999976704,False,10,-1,0,7
Y2-S2-142K23,4,333,PS,exp,47,↑,right,→,0.7827135999978054,False,11,-1,0,7
Y2-S2-142K23,4,334,PS,exp,44,←,left,←,0.5283716999983881,True,12,-1,0,7
Y2-S2-142K23,4,335,PS,exp,25,→,right,→,0.8442605000018375,True,12,-1,0,7
Y2-S2-142K23,4,336,PS,exp,42,↑,up,↑,0.40171019999252167,True,12,1,1,8
Y2-S2-142K23,4,337,PS,exp,45,→,left,←,0.6656227999919793,False,11,-1,1,9
Y2-S2-142K23,4,338,PS,exp,35,←,left,←,0.3838906000019051,True,12,-1,0,9
Y2-S2-142K23,4,339,PS,exp,30,↑,up,↑,0.3945730999985244,True,12,-1,0,9
Y2-S2-142K23,4,340,PS,exp,38,←,left,←,0.53468409999914,True,12,1,1,10
Y2-S2-142K23,4,341,PS,exp,35,↑,up,↑,0.38980330000049435,True,11,1,0,10
Y2-S2-142K23,4,342,PS,exp,47,↓,left,←,0.5518313999928068,False,11,-1,1,11
Y2-S2-142K23,4,343,PS,exp,39,←,left,←,0.39495780000288505,True,12,-1,0,11
Y2-S2-142K23,4,344,PS,exp,32,↓,down,↓,0.6812890000001062,True,12,-1,0,11
Y2-S2-142K23,4,345,PS,exp,35,↑,up,↑,0.5364026000024751,True,12,1,1,12
Y2-S2-142K23,4,346,PS,exp,46,→,right,→,0.5900738000054844,True,11,1,0,12
Y2-S2-142K23,4,347,PS,exp,32,↑,up,↑,0.4587121000076877,True,11,1,0,12
Y2-S2-142K23,4,348,PS,exp,50,↓,down,↓,0.5942935999919428,True,11,1,0,12
Y2-S2-142K23,4,349,PS,exp,35,←,left,←,0.5312471999932313,True,10,1,0,12
Y2-S2-142K23,4,350,PS,exp,30,↓,right,→,0.6634450999990804,False,10,-1,1,13
Y2-S2-142K23,4,351,PS,exp,40,↑,left,←,0.4428483999945456,False,11,-1,0,13
Y2-S2-142K23,4,352,PS,exp,34,←,left,←,0.6887407999893185,True,12,-1,0,13
Y2-S2-142K23,4,353,PS,exp,32,→,right,→,0.43162109999684617,True,12,-1,0,13
Y2-S2-142K23,4,354,PS,exp,30,↑,up,↑,0.42196140000305604,True,12,1,1,14
Y2-S2-142K23,4,355,PS,exp,42,→,right,→,0.41168560000369325,True,11,1,0,14
Y2-S2-142K23,4,356,PS,exp,38,↑,up,↑,0.3613716999971075,True,11,1,0,14
Y2-S2-142K23,4,357,PS,exp,34,←,left,←,0.4111826000007568,True,11,1,0,14
Y2-S2-142K23,4,358,PS,exp,45,↑,left,←,0.8548951999982819,False,10,-1,1,15
Y2-S2-142K23,4,359,PS,exp,43,→,right,→,0.5127342000050703,True,11,-1,0,15
Y2-S2-142K23,4,360,PS,exp,31,←,left,←,0.9843313000019407,True,11,-1,0,15
Y2-S2-142K23,4,361,PS,exp,30,↓,down,↓,0.6622574000066379,True,11,1,1,16
Y2-S2-142K23,5,362,PS,intra_train,39,←,left,←,0.45726969999668654,True,10,-,-,-
Y2-S2-142K23,5,363,PS,intra_train,29,→,right,→,0.44245100000989623,True,10,-,-,-
Y2-S2-142K23,5,364,PS,intra_train,37,←,left,←,0.5892625999986194,True,10,-,-,-
Y2-S2-142K23,5,365,PS,intra_train,30,↓,down,↓,0.6123847999988357,True,10,-,-,-
Y2-S2-142K23,5,366,PS,intra_train,38,↑,up,↑,0.7920427999924868,True,10,-,-,-
Y2-S2-142K23,5,367,PS,exp,29,←,left,←,0.4799411999993026,True,7,0,0,0
Y2-S2-142K23,5,368,PS,exp,38,↑,up,↑,0.4925843000091845,True,7,0,0,0
Y2-S2-142K23,5,369,PS,exp,41,→,right,→,0.8181704000016907,True,7,1,0,0
Y2-S2-142K23,5,370,PS,exp,47,↑,left,←,0.7568861000036122,False,6,-1,1,1
Y2-S2-142K23,5,371,PS,exp,31,→,left,←,0.8638347999949474,False,7,-1,0,1
Y2-S2-142K23,5,372,PS,exp,34,↓,up,↑,0.7319044000032591,False,8,-1,0,1
Y2-S2-142K23,5,373,PS,exp,40,→,right,→,0.7390688000014052,True,9,-1,0,1
Y2-S2-142K23,5,374,PS,exp,27,←,right,→,0.5780329999979585,False,9,-1,0,1
Y2-S2-142K23,5,375,PS,exp,36,↓,left,←,0.793002799997339,False,10,-1,0,1
Y2-S2-142K23,5,376,PS,exp,39,↑,left,←,0.6951630999974441,False,11,-1,0,1
Y2-S2-142K23,5,377,PS,exp,50,→,down,↓,0.4360871999961091,False,12,-1,0,1
Y2-S2-142K23,5,378,PS,exp,27,↑,up,↑,0.5362077000027057,True,13,-1,0,1
Y2-S2-142K23,5,379,PS,exp,34,↓,down,↓,0.7991217999951914,True,13,-1,0,1
Y2-S2-142K23,5,380,PS,exp,34,←,left,←,0.5934047000046121,True,13,1,1,2
Y2-S2-142K23,5,381,PS,exp,25,→,left,←,1.1582693999953335,False,12,-1,1,3
Y2-S2-142K23,5,382,PS,exp,27,↑,up,↑,0.49757329998828936,True,13,-1,0,3
Y2-S2-142K23,5,383,PS,exp,40,↓,down,↓,0.4320564999943599,True,13,-1,0,3
Y2-S2-142K23,5,384,PS,exp,48,→,right,→,0.6420094999921275,True,13,1,1,4
Y2-S2-142K23,5,385,PS,exp,41,←,left,←,0.5782703000004403,True,12,1,0,4
Y2-S2-142K23,5,386,PS,exp,37,↑,up,↑,0.4671907000010833,True,12,1,0,4
Y2-S2-142K23,5,387,PS,exp,39,↓,down,↓,0.6273785000084899,True,12,1,0,4
Y2-S2-142K23,5,388,PS,exp,26,←,left,←,0.6612263999995776,True,11,1,0,4
Y2-S2-142K23,5,389,PS,exp,41,↓,down,↓,0.5954789999959758,True,11,1,0,4
Y2-S2-142K23,5,390,PS,exp,48,→,right,→,0.5011865999986185,True,11,1,0,4
Y2-S2-142K23,5,391,PS,exp,43,←,left,←,0.4071872000058647,True,10,1,0,4
Y2-S2-142K23,5,392,PS,exp,29,→,right,→,0.46456860000034794,True,10,1,0,4
Y2-S2-142K23,5,393,PS,exp,31,↑,up,↑,0.5606131000095047,True,10,1,0,4
Y2-S2-142K23,5,394,PS,exp,33,→,right,→,0.94105419999687,True,9,1,0,4
Y2-S2-142K23,5,395,PS,exp,40,←,left,←,0.6474613000027603,True,9,1,0,4
Y2-S2-142K23,5,396,PS,exp,26,↑,up,↑,0.5959203999955207,True,9,1,0,4
Y2-S2-142K23,5,397,PS,exp,43,↓,down,↓,0.3861365000047954,True,8,1,0,4
Y2-S2-142K23,5,398,PS,exp,32,→,right,→,0.48120680000283755,True,8,1,0,4
Y2-S2-142K23,5,399,PS,exp,47,↓,down,↓,0.5229038999968907,True,8,1,0,4
Y2-S2-142K23,5,400,PS,exp,34,→,left,←,0.6268322999967495,False,7,-1,1,5
Y2-S2-142K23,5,401,PS,exp,27,↓,up,↑,0.6493540999945253,False,8,-1,0,5
Y2-S2-142K23,5,402,PS,exp,45,←,left,←,0.41600060000200756,True,9,-1,0,5
Y2-S2-142K23,5,403,PS,exp,44,↓,left,←,0.7863568000029773,False,9,-1,0,5
Y2-S2-142K23,5,404,PS,exp,42,↑,up,↑,0.551602699997602,True,10,-1,0,5
Y2-S2-142K23,5,405,PS,exp,40,←,left,←,0.452406800002791,True,10,-1,0,5
Y2-S2-142K23,5,406,PS,exp,33,↑,up,↑,0.7022597000031965,True,10,1,1,6
Y2-S2-142K23,5,407,PS,exp,45,↓,left,←,0.4640734999993583,False,9,-1,1,7
Y2-S2-142K23,5,408,PS,exp,38,←,down,↓,0.38485360000049695,False,10,-1,0,7
Y2-S2-142K23,5,409,PS,exp,32,↑,up,↑,0.5523393000039505,True,11,-1,0,7
Y2-S2-142K23,5,410,PS,exp,31,←,left,←,0.43420799999148585,True,11,-1,0,7
Y2-S2-142K23,5,411,PS,exp,45,↑,up,↑,0.516540000011446,True,11,1,1,8
Y2-S2-142K23,5,412,PS,exp,45,→,right,→,0.49332520000461955,True,10,1,0,8
Y2-S2-142K23,5,413,PS,exp,39,←,left,←,0.41810300000361167,True,10,1,0,8
Y2-S2-142K23,5,414,PS,exp,49,↓,down,↓,0.5242285000131233,True,10,1,0,8
Y2-S2-142K23,5,415,PS,exp,29,←,left,←,0.4138470000034431,True,9,1,0,8
Y2-S2-142K23,5,416,PS,exp,29,↑,up,↑,0.4196153999946546,True,9,1,0,8
Y2-S2-142K23,5,417,PS,exp,28,←,left,←,0.40013829999952577,True,9,1,0,8
Y2-S2-142K23,5,418,PS,exp,49,↑,up,↑,0.4452834999974584,True,8,1,0,8
Y2-S2-142K23,5,419,PS,exp,25,→,right,→,1.3313913000019966,True,8,1,0,8
Y2-S2-142K23,5,420,PS,exp,42,↑,right,→,1.1069932999962475,False,8,-1,1,9
Y2-S2-142K23,5,421,PS,exp,48,→,up,↑,1.2203368000045884,False,9,-1,0,9
Y2-S2-142K23,5,422,PS,exp,35,↑,up,↑,0.5607003000041004,True,10,-1,0,9
Y2-S2-142K23,5,423,PS,exp,41,↓,left,←,1.4351827999926172,False,10,-1,0,9
Y2-S2-142K23,5,424,PS,exp,29,←,left,←,0.4503223999927286,True,11,-1,0,9
Y2-S2-142K23,5,425,PS,exp,37,↑,up,↑,0.8215028999984497,True,11,-1,0,9
Y2-S2-142K23,5,426,PS,exp,26,↓,down,↓,0.5692568000085885,True,11,1,1,10
Y2-S2-142K23,5,427,PS,exp,47,←,left,←,0.8584541999880457,True,10,1,0,10
Y2-S2-142K23,5,428,PS,exp,38,↑,up,↑,0.5253998999978648,True,10,1,0,10
Y2-S2-142K23,5,429,PS,exp,40,→,down,↓,1.6230652999947779,False,10,-1,1,11
Y2-S2-142K23,5,430,PS,exp,40,↑,up,↑,0.5262797999894246,True,11,-1,0,11
Y2-S2-142K23,5,431,PS,exp,46,↓,down,↓,0.5287616999994498,True,11,-1,0,11
Y2-S2-142K23,5,432,PS,exp,26,↑,up,↑,0.4637973999924725,True,11,1,1,12
Y2-S2-142K23,5,433,PS,exp,50,↓,down,↓,0.5460732000065036,True,10,1,0,12
Y2-S2-142K23,5,434,PS,exp,28,←,left,←,0.5000697999930708,True,10,1,0,12
Y2-S2-142K23,5,435,PS,exp,48,↑,up,↑,0.4568213999882573,True,10,1,0,12
Y2-S2-142K23,5,436,PS,exp,31,↓,down,↓,0.5264027000084752,True,9,1,0,12
Y2-S2-142K23,5,437,PS,exp,29,←,left,←,0.5469181000080425,True,9,1,0,12
Y2-S2-142K23,5,438,PS,exp,25,↑,up,↑,0.5957395999867003,True,9,1,0,12
Y2-S2-142K23,5,439,PS,exp,32,→,right,→,0.6061757999996189,True,8,1,0,12
Y2-S2-142K23,5,440,PS,exp,44,←,left,←,0.5367656000016723,True,8,1,0,12
Y2-S2-142K23,5,441,PS,exp,39,↑,up,↑,0.5890393000008771,True,8,1,0,12
Y2-S2-142K23,5,442,PS,exp,49,→,right,→,0.7379904999979772,True,7,1,0,12
Y2-S2-142K23,5,443,PS,exp,35,↑,left,←,0.6709511999943061,False,7,-1,1,13
Y2-S2-142K23,5,444,PS,exp,41,→,left,←,0.6572011000098428,False,8,-1,0,13
Y2-S2-142K23,5,445,PS,exp,50,↑,up,↑,0.4386648000072455,True,9,-1,0,13
Y2-S2-142K23,5,446,PS,exp,37,←,left,←,0.4611774999939371,True,9,-1,0,13
Y2-S2-142K23,5,447,PS,exp,48,↓,left,←,0.5042049000039697,False,9,-1,0,13
Y2-S2-142K23,5,448,PS,exp,30,→,right,→,0.3906654000020353,True,10,-1,0,13
Y2-S2-142K23,5,449,PS,exp,43,←,left,←,0.47935869998764247,True,10,-1,0,13
Y2-S2-142K23,5,450,PS,exp,26,→,right,→,0.44041379999544006,True,10,1,1,14
Y2-S2-142K23,5,451,PS,exp,38,↓,down,↓,0.5641997000057017,True,9,1,0,14
Y2-S2-142K23,5,452,PS,exp,28,→,right,→,0.35095199999341276,True,9,1,0,14
Y2-S2-142K23,5,453,PS,exp,30,←,no_key,no_letter,-1.0,False,9,-1,1,15
Y2-S2-142K23,5,454,PS,exp,38,↓,down,↓,0.6911725999962073,True,10,-1,0,15
Y2-S2-142K23,5,455,PS,exp,33,←,left,←,0.4735389999987092,True,10,-1,0,15
Y2-S2-142K23,5,456,PS,exp,35,↓,down,↓,0.5032320999889635,True,10,1,1,16
Y2-S2-142K23,6,457,AS,intra_train,43,←,left,←,1.6068802999943728,True,25,-,-,-
Y2-S2-142K23,6,458,AS,intra_train,49,↓,down,↓,0.6151069000043208,True,25,-,-,-
Y2-S2-142K23,6,459,AS,intra_train,49,→,right,→,0.7162795000040205,True,25,-,-,-
Y2-S2-142K23,6,460,AS,intra_train,34,←,left,←,0.6244074999995064,True,25,-,-,-
Y2-S2-142K23,6,461,AS,intra_train,33,↑,up,↑,0.48375749999831896,True,25,-,-,-
Y2-S2-142K23,6,462,AS,exp,42,↓,left,←,0.7980624999909196,False,17,-1,0,0
Y2-S2-142K23,6,463,AS,exp,30,↑,up,↑,0.738561700010905,True,18,-1,0,0
Y2-S2-142K23,6,464,AS,exp,47,↓,down,↓,0.5749042999959784,True,18,-1,0,0
Y2-S2-142K23,6,465,AS,exp,46,↑,left,←,0.5650297999964096,False,18,-1,0,0
Y2-S2-142K23,6,466,AS,exp,33,↓,up,↑,1.2543853999959538,False,19,-1,0,0
Y2-S2-142K23,6,467,AS,exp,35,←,left,←,0.6527659999992466,True,20,-1,0,0
Y2-S2-142K23,6,468,AS,exp,46,↑,up,↑,0.6887004999880446,True,20,-1,0,0
Y2-S2-142K23,6,469,AS,exp,50,↓,down,↓,0.5544767999963369,True,20,1,1,1
Y2-S2-142K23,6,470,AS,exp,29,→,right,→,0.5614467999985209,True,19,1,0,1
Y2-S2-142K23,6,471,AS,exp,34,↓,down,↓,0.6465473999996902,True,19,1,0,1
Y2-S2-142K23,6,472,AS,exp,31,↑,up,↑,0.5517338999925414,True,19,1,0,1
Y2-S2-142K23,6,473,AS,exp,31,→,right,→,0.510921099994448,True,18,1,0,1
Y2-S2-142K23,6,474,AS,exp,39,←,left,←,0.6794013000035193,True,18,1,0,1
Y2-S2-142K23,6,475,AS,exp,36,↓,down,↓,0.8344131999911042,True,18,1,0,1
Y2-S2-142K23,6,476,AS,exp,47,↑,up,↑,0.633956700010458,True,17,1,0,1
Y2-S2-142K23,6,477,AS,exp,37,↓,down,↓,0.5166430000099353,True,17,1,0,1
Y2-S2-142K23,6,478,AS,exp,40,→,right,→,0.4873109000036493,True,17,1,0,1
Y2-S2-142K23,6,479,AS,exp,35,↓,down,↓,0.9490880000084871,True,16,1,0,1
Y2-S2-142K23,6,480,AS,exp,34,→,no_key,no_letter,-1.0,False,16,-1,1,2
Y2-S2-142K23,6,481,AS,exp,38,↑,up,↑,0.47075459999905434,True,17,-1,0,2
Y2-S2-142K23,6,482,AS,exp,29,↓,down,↓,0.6558133999933489,True,17,-1,0,2
Y2-S2-142K23,6,483,AS,exp,35,↑,up,↑,0.45659270000760444,True,17,1,1,3
Y2-S2-142K23,6,484,AS,exp,38,↓,down,↓,1.2954360999865457,True,16,1,0,3
Y2-S2-142K23,6,485,AS,exp,29,←,up,↑,0.876161599997431,False,16,-1,1,4
Y2-S2-142K23,6,486,AS,exp,46,↑,right,→,1.1034800999914296,False,17,-1,0,4
Y2-S2-142K23,6,487,AS,exp,28,←,left,←,0.6676932999980636,True,18,-1,0,4
Y2-S2-142K23,6,488,AS,exp,36,→,right,→,0.4701770000101533,True,18,-1,0,4
Y2-S2-142K23,6,489,AS,exp,36,↑,up,↑,1.0952684999938356,True,18,1,1,5
Y2-S2-142K23,6,490,AS,exp,29,↓,down,↓,0.5329140999965603,True,17,1,0,5
Y2-S2-142K23,6,491,AS,exp,50,←,left,←,0.47456610000517685,True,17,1,0,5
Y2-S2-142K23,6,492,AS,exp,40,→,right,→,0.41739529999904335,True,17,1,0,5
Y2-S2-142K23,6,493,AS,exp,48,↑,up,↑,1.3412174999975832,True,16,1,0,5
Y2-S2-142K23,6,494,AS,exp,48,←,left,←,1.5130630000057863,True,16,1,0,5
Y2-S2-142K23,6,495,AS,exp,36,↓,down,↓,0.7502688999957172,True,16,1,0,5
Y2-S2-142K23,6,496,AS,exp,31,←,left,←,0.9975147999939509,True,15,1,0,5
Y2-S2-142K23,6,497,AS,exp,33,↓,up,↑,0.7977466000011191,False,15,-1,1,6
Y2-S2-142K23,6,498,AS,exp,46,←,left,←,0.5533322999981465,True,16,-1,0,6
Y2-S2-142K23,6,499,AS,exp,36,→,right,→,0.45218300000124145,True,16,-1,0,6
Y2-S2-142K23,6,500,AS,exp,37,↑,up,↑,0.9872450999973807,True,16,1,1,7
Y2-S2-142K23,6,501,AS,exp,30,←,left,←,0.7371487000054913,True,15,1,0,7
Y2-S2-142K23,6,502,AS,exp,44,→,right,→,1.0655964000034146,True,15,1,0,7
Y2-S2-142K23,6,503,AS,exp,48,↓,down,↓,0.5626711000077194,True,15,1,0,7
Y2-S2-142K23,6,504,AS,exp,29,→,right,→,0.45148360000166576,True,14,1,0,7
Y2-S2-142K23,6,505,AS,exp,31,↑,up,↑,0.469416200008709,True,14,1,0,7
Y2-S2-142K23,6,506,AS,exp,45,←,left,←,0.8053781999915373,True,14,1,0,7
Y2-S2-142K23,6,507,AS,exp,50,→,right,→,0.5336309999984223,True,13,1,0,7
Y2-S2-142K23,6,508,AS,exp,45,↓,down,↓,0.5318378000083612,True,13,1,0,7
Y2-S2-142K23,6,509,AS,exp,36,→,right,→,0.7900426000123844,True,13,1,0,7
Y2-S2-142K23,6,510,AS,exp,31,↑,up,↑,0.4916154000093229,True,12,1,0,7
Y2-S2-142K23,6,511,AS,exp,48,↓,down,↓,0.5111762000015005,True,12,1,0,7
Y2-S2-142K23,6,512,AS,exp,25,→,left,←,0.9477502999943681,False,12,-1,1,8
Y2-S2-142K23,6,513,AS,exp,28,←,left,←,0.5247828999999911,True,13,-1,0,8
Y2-S2-142K23,6,514,AS,exp,42,↓,down,↓,0.5214096999989124,True,13,-1,0,8
Y2-S2-142K23,6,515,AS,exp,31,→,right,→,0.4109370000078343,True,13,1,1,9
Y2-S2-142K23,6,516,AS,exp,42,↓,down,↓,0.46481130000029225,True,12,1,0,9
Y2-S2-142K23,6,517,AS,exp,49,↑,right,→,0.5986244999949122,False,12,-1,1,10
Y2-S2-142K23,6,518,AS,exp,35,←,right,→,1.0000933999981498,False,13,-1,0,10
Y2-S2-142K23,6,519,AS,exp,48,→,left,←,0.7977760000067065,False,14,-1,0,10
Y2-S2-142K23,6,520,AS,exp,26,↑,up,↑,1.0227513999998337,True,15,-1,0,10
Y2-S2-142K23,6,521,AS,exp,36,→,down,↓,0.8270996999926865,False,15,-1,0,10
Y2-S2-142K23,6,522,AS,exp,26,↑,up,↑,0.4671488000021782,True,16,-1,0,10
Y2-S2-142K23,6,523,AS,exp,42,←,left,←,0.7956583000050159,True,16,-1,0,10
Y2-S2-142K23,6,524,AS,exp,31,→,right,→,0.4004121000034502,True,16,1,1,11
Y2-S2-142K23,6,525,AS,exp,39,←,left,←,0.8882830000075046,True,15,1,0,11
Y2-S2-142K23,6,526,AS,exp,27,↓,up,↑,1.0811816999921575,False,15,-1,1,12
Y2-S2-142K23,6,527,AS,exp,41,←,left,←,0.5638387999933911,True,16,-1,0,12
Y2-S2-142K23,6,528,AS,exp,33,↑,up,↑,0.561754700000165,True,16,-1,0,12
Y2-S2-142K23,6,529,AS,exp,50,↓,down,↓,0.7500083000049926,True,16,1,1,13
Y2-S2-142K23,6,530,AS,exp,42,→,right,→,0.5624906000011833,True,15,1,0,13
Y2-S2-142K23,6,531,AS,exp,39,←,left,←,0.6532692000037059,True,15,1,0,13
Y2-S2-142K23,6,532,AS,exp,36,→,left,←,0.6624024000047939,False,15,-1,1,14
Y2-S2-142K23,6,533,AS,exp,48,↑,up,↑,0.6433478999970248,True,16,-1,0,14
Y2-S2-142K23,6,534,AS,exp,28,←,left,←,0.5150779000105103,True,16,-1,0,14
Y2-S2-142K23,6,535,AS,exp,46,↓,right,→,0.8814890000066953,False,16,-1,0,14
Y2-S2-142K23,6,536,AS,exp,45,←,left,←,0.7977020999969682,True,17,-1,0,14
Y2-S2-142K23,6,537,AS,exp,25,↑,up,↑,1.8424278000020422,True,17,-1,0,14
Y2-S2-142K23,6,538,AS,exp,26,↓,down,↓,0.7865203000110341,True,17,1,1,15
Y2-S2-142K23,6,539,AS,exp,34,↑,up,↑,0.46064779999142047,True,16,1,0,15
Y2-S2-142K23,6,540,AS,exp,42,→,right,→,0.7790405999985524,True,16,1,0,15
Y2-S2-142K23,6,541,AS,exp,27,↓,down,↓,0.7304062000039266,True,16,1,0,15
Y2-S2-142K23,6,542,AS,exp,41,←,left,←,0.538297799997963,True,15,1,0,15
Y2-S2-142K23,6,543,AS,exp,35,→,right,→,0.6473273000010522,True,15,1,0,15
Y2-S2-142K23,6,544,AS,exp,32,←,left,←,0.6347805999976117,True,15,1,0,15
Y2-S2-142K23,6,545,AS,exp,41,↑,up,↑,0.5969214999931864,True,14,1,0,15
Y2-S2-142K23,6,546,AS,exp,26,→,right,→,0.5841482000105316,True,14,1,0,15
Y2-S2-142K23,6,547,AS,exp,45,←,left,←,0.4059361999970861,True,14,1,0,15
Y2-S2-142K23,6,548,AS,exp,26,→,left,←,0.600648400009959,False,13,-1,1,16
Y2-S2-142K23,7,549,AS,intra_train,35,↓,down,↓,0.6019317000027513,True,25,-,-,-
Y2-S2-142K23,7,550,AS,intra_train,40,→,right,→,0.7084975000034319,True,25,-,-,-
Y2-S2-142K23,7,551,AS,intra_train,37,←,left,←,0.5340910000086296,True,25,-,-,-
Y2-S2-142K23,7,552,AS,intra_train,37,↑,up,↑,0.6094153000012739,True,25,-,-,-
Y2-S2-142K23,7,553,AS,intra_train,40,↓,down,↓,0.6697980000026291,True,25,-,-,-
Y2-S2-142K23,7,554,AS,exp,35,←,left,←,0.6784270000061952,True,17,0,0,0
Y2-S2-142K23,7,555,AS,exp,45,↑,left,←,0.5065897000022233,False,17,-1,0,0
Y2-S2-142K23,7,556,AS,exp,32,→,right,→,0.6437283000122989,True,18,-1,0,0
Y2-S2-142K23,7,557,AS,exp,40,←,left,←,0.5277955999918049,True,18,-1,0,0
Y2-S2-142K23,7,558,AS,exp,25,↓,down,↓,0.5173808999970788,True,18,1,1,1
Y2-S2-142K23,7,559,AS,exp,26,↑,up,↑,0.7041041999909794,True,17,1,0,1
Y2-S2-142K23,7,560,AS,exp,27,→,right,→,0.482544800004689,True,17,1,0,1
Y2-S2-142K23,7,561,AS,exp,27,←,left,←,0.8046280999988085,True,17,1,0,1
Y2-S2-142K23,7,562,AS,exp,44,↓,down,↓,0.59186359999876,True,16,1,0,1
Y2-S2-142K23,7,563,AS,exp,32,→,right,→,0.6798776000068756,True,16,1,0,1
Y2-S2-142K23,7,564,AS,exp,39,↑,up,↑,0.6217056000023149,True,16,1,0,1
Y2-S2-142K23,7,565,AS,exp,46,→,right,→,0.5182645000022603,True,15,1,0,1
Y2-S2-142K23,7,566,AS,exp,47,↑,up,↑,0.5184268000011798,True,15,1,0,1
Y2-S2-142K23,7,567,AS,exp,49,←,down,↓,0.3841470999905141,False,15,-1,1,2
Y2-S2-142K23,7,568,AS,exp,50,→,right,→,0.7686176999995951,True,16,-1,0,2
Y2-S2-142K23,7,569,AS,exp,44,↓,down,↓,0.4633190999884391,True,16,-1,0,2
Y2-S2-142K23,7,570,AS,exp,40,→,right,→,0.6113460999913514,True,16,1,1,3
Y2-S2-142K23,7,571,AS,exp,34,↑,down,↓,0.7794811999920057,False,15,-1,1,4
Y2-S2-142K23,7,572,AS,exp,33,←,left,←,0.5803938000026392,True,16,-1,0,4
Y2-S2-142K23,7,573,AS,exp,41,↓,down,↓,0.5186009000026388,True,16,-1,0,4
Y2-S2-142K23,7,574,AS,exp,50,↑,up,↑,0.7720471000066027,True,16,1,1,5
Y2-S2-142K23,7,575,AS,exp,31,←,left,←,0.5085191000107443,True,15,1,0,5
Y2-S2-142K23,7,576,AS,exp,35,↑,up,↑,0.7734195999946678,True,15,1,0,5
Y2-S2-142K23,7,577,AS,exp,34,←,left,←,0.5438472999958321,True,15,1,0,5
Y2-S2-142K23,7,578,AS,exp,34,↑,up,↑,0.5335865999950329,True,14,1,0,5
Y2-S2-142K23,7,579,AS,exp,39,↓,down,↓,0.8494845000095665,True,14,1,0,5
Y2-S2-142K23,7,580,AS,exp,32,→,right,→,0.5033753999887267,True,14,1,0,5
Y2-S2-142K23,7,581,AS,exp,43,←,left,←,0.4961401000036858,True,13,1,0,5
Y2-S2-142K23,7,582,AS,exp,39,↓,down,↓,0.5569376999919768,True,13,1,0,5
Y2-S2-142K23,7,583,AS,exp,40,↑,up,↑,0.47429909999482334,True,13,1,0,5
Y2-S2-142K23,7,584,AS,exp,28,←,left,←,0.46267949999310076,True,12,1,0,5
Y2-S2-142K23,7,585,AS,exp,35,↓,right,→,0.7706211000040639,False,12,-1,1,6
Y2-S2-142K23,7,586,AS,exp,25,↑,up,↑,0.8602585999906296,True,13,-1,0,6
Y2-S2-142K23,7,587,AS,exp,37,→,right,→,0.5186203000048408,True,13,-1,0,6
Y2-S2-142K23,7,588,AS,exp,32,↑,up,↑,0.6559304999973392,True,13,1,1,7
Y2-S2-142K23,7,589,AS,exp,50,→,right,→,0.5484602000069572,True,12,1,0,7
Y2-S2-142K23,7,590,AS,exp,50,←,left,←,0.783265099991695,True,12,1,0,7
Y2-S2-142K23,7,591,AS,exp,43,→,up,↑,0.7255234000040218,False,12,-1,1,8
Y2-S2-142K23,7,592,AS,exp,47,←,right,→,0.5863010000030044,False,13,-1,0,8
Y2-S2-142K23,7,593,AS,exp,35,↓,up,↑,0.6601630000077421,False,14,-1,0,8
Y2-S2-142K23,7,594,AS,exp,29,→,right,→,0.49478069999895524,True,15,-1,0,8
Y2-S2-142K23,7,595,AS,exp,37,←,left,←,0.6351427000045078,True,15,-1,0,8
Y2-S2-142K23,7,596,AS,exp,48,↑,up,↑,0.441351699992083,True,15,1,1,9
Y2-S2-142K23,7,597,AS,exp,50,←,left,←,0.5111418000014964,True,14,1,0,9
Y2-S2-142K23,7,598,AS,exp,27,↓,left,←,0.8100244000088423,False,14,-1,1,10
Y2-S2-142K23,7,599,AS,exp,32,→,right,→,0.5159385000006296,True,15,-1,0,10
Y2-S2-142K23,7,600,AS,exp,36,↑,up,↑,0.5835455000051297,True,15,-1,0,10
Y2-S2-142K23,7,601,AS,exp,40,←,left,←,0.4223686000041198,True,15,1,1,11
Y2-S2-142K23,7,602,AS,exp,32,↑,up,↑,0.4056420999986585,True,14,1,0,11
Y2-S2-142K23,7,603,AS,exp,45,→,right,→,0.7234469000104582,True,14,1,0,11
Y2-S2-142K23,7,604,AS,exp,26,↓,up,↑,0.5544359000050463,False,14,-1,1,12
Y2-S2-142K23,7,605,AS,exp,44,↑,up,↑,0.3672826000110945,True,15,-1,0,12
Y2-S2-142K23,7,606,AS,exp,47,↓,down,↓,0.7278519999963464,True,15,-1,0,12
Y2-S2-142K23,7,607,AS,exp,43,→,left,←,0.4549675999878673,False,15,-1,0,12
Y2-S2-142K23,7,608,AS,exp,31,←,left,←,0.8213208000088343,True,16,-1,0,12
Y2-S2-142K23,7,609,AS,exp,33,↓,down,↓,0.5395267999992939,True,16,-1,0,12
Y2-S2-142K23,7,610,AS,exp,44,→,right,→,0.6631316999992123,True,16,1,1,13
Y2-S2-142K23,7,611,AS,exp,43,↑,up,↑,0.5589627000008477,True,15,1,0,13
Y2-S2-142K23,7,612,AS,exp,27,↓,down,↓,0.656938900006935,True,15,1,0,13
Y2-S2-142K23,7,613,AS,exp,26,←,up,↑,0.8831039000069723,False,15,-1,1,14
Y2-S2-142K23,7,614,AS,exp,28,↓,down,↓,0.5670469000033336,True,16,-1,0,14
Y2-S2-142K23,7,615,AS,exp,43,↑,left,←,0.8151557999954093,False,16,-1,0,14
Y2-S2-142K23,7,616,AS,exp,39,→,right,→,0.7992683000047691,True,17,-1,0,14
Y2-S2-142K23,7,617,AS,exp,26,↓,down,↓,0.8810373999876902,True,17,-1,0,14
Y2-S2-142K23,7,618,AS,exp,48,←,left,←,0.6808338999981061,True,17,1,1,15
Y2-S2-142K23,7,619,AS,exp,47,↑,up,↑,1.0611518000077922,True,16,1,0,15
Y2-S2-142K23,7,620,AS,exp,41,→,right,→,0.7010877000138862,True,16,1,0,15
Y2-S2-142K23,7,621,AS,exp,42,↓,down,↓,0.436052799996105,True,16,1,0,15
Y2-S2-142K23,7,622,AS,exp,33,←,left,←,0.4685810999944806,True,15,1,0,15
Y2-S2-142K23,7,623,AS,exp,34,↑,up,↑,0.681286100007128,True,15,1,0,15
Y2-S2-142K23,7,624,AS,exp,35,↓,down,↓,0.6771924000058789,True,15,1,0,15
Y2-S2-142K23,7,625,AS,exp,25,→,right,→,1.2269346000102814,True,14,1,0,15
Y2-S2-142K23,7,626,AS,exp,31,↑,up,↑,0.47219280000717845,True,14,1,0,15
Y2-S2-142K23,7,627,AS,exp,37,→,left,←,0.521356300014304,False,14,-1,1,16
Y2-S2-142K23,8,628,PS,intra_train,28,↓,down,↓,0.5478185999963898,True,10,-,-,-
Y2-S2-142K23,8,629,PS,intra_train,31,→,right,→,0.4624697999970522,True,10,-,-,-
Y2-S2-142K23,8,630,PS,intra_train,42,←,left,←,0.7974021999980323,True,10,-,-,-
Y2-S2-142K23,8,631,PS,intra_train,36,↓,right,→,0.44840369999292307,False,10,-,-,-
Y2-S2-142K23,8,632,PS,intra_train,46,←,left,←,0.5016502000071341,True,10,-,-,-
Y2-S2-142K23,8,633,PS,exp,44,↓,down,↓,0.5467446999973617,True,7,0,0,0
Y2-S2-142K23,8,634,PS,exp,33,→,right,→,0.4373672999936389,True,7,0,0,0
Y2-S2-142K23,8,635,PS,exp,25,↑,up,↑,0.46226829999068286,True,7,1,0,0
Y2-S2-142K23,8,636,PS,exp,49,↓,down,↓,0.5053005999943707,True,6,1,0,0
Y2-S2-142K23,8,637,PS,exp,29,↑,up,↑,0.4104031000024406,True,6,1,0,0
Y2-S2-142K23,8,638,PS,exp,44,↓,down,↓,0.5434985000028973,True,6,1,0,0
Y2-S2-142K23,8,639,PS,exp,28,←,left,←,0.7235116999945603,True,5,1,0,0
Y2-S2-142K23,8,640,PS,exp,39,↑,up,↑,0.4604179000016302,True,5,1,0,0
Y2-S2-142K23,8,641,PS,exp,45,→,right,→,0.4042838000023039,True,5,1,0,0
Y2-S2-142K23,8,642,PS,exp,48,↑,up,↑,0.41353540000272915,True,4,1,0,0
Y2-S2-142K23,8,643,PS,exp,47,→,right,→,0.5026111000042874,True,4,1,0,0
Y2-S2-142K23,8,644,PS,exp,28,←,left,←,0.8789359999937005,True,4,1,0,0
Y2-S2-142K23,8,645,PS,exp,29,↓,right,→,0.5213117000093916,False,3,-1,1,1
Y2-S2-142K23,8,646,PS,exp,37,↑,left,←,0.9482422000000952,False,4,-1,0,1
Y2-S2-142K23,8,647,PS,exp,49,↓,left,←,0.8505817999975989,False,5,-1,0,1
Y2-S2-142K23,8,648,PS,exp,25,→,right,→,0.4639108999981545,True,6,-1,0,1
Y2-S2-142K23,8,649,PS,exp,28,↓,down,↓,0.593783699994674,True,6,-1,0,1
Y2-S2-142K23,8,650,PS,exp,32,↑,left,←,0.5401172999991104,False,6,-1,0,1
Y2-S2-142K23,8,651,PS,exp,47,←,left,←,0.5578789999999572,True,7,-1,0,1
Y2-S2-142K23,8,652,PS,exp,32,↓,down,↓,0.5909320000064326,True,7,-1,0,1
Y2-S2-142K23,8,653,PS,exp,28,→,right,→,0.4377334000018891,True,7,1,1,2
Y2-S2-142K23,8,654,PS,exp,36,←,left,←,0.9882442999951309,True,6,1,0,2
Y2-S2-142K23,8,655,PS,exp,37,→,down,↓,0.9521214999986114,False,6,-1,1,3
Y2-S2-142K23,8,656,PS,exp,40,←,left,←,0.4611931000108598,True,7,-1,0,3
Y2-S2-142K23,8,657,PS,exp,32,↑,right,→,0.8895173000055365,False,7,-1,0,3
Y2-S2-142K23,8,658,PS,exp,42,←,up,↑,0.633757899995544,False,8,-1,0,3
Y2-S2-142K23,8,659,PS,exp,42,→,right,→,0.6108143000019481,True,9,-1,0,3
Y2-S2-142K23,8,660,PS,exp,43,↑,up,↑,1.0432627999980468,True,9,-1,0,3
Y2-S2-142K23,8,661,PS,exp,46,←,left,←,0.570409899999504,True,9,1,1,4
Y2-S2-142K23,8,662,PS,exp,42,↑,right,→,0.8639898999972502,False,8,-1,1,5
Y2-S2-142K23,8,663,PS,exp,25,→,right,→,0.9458638999931281,True,9,-1,0,5
Y2-S2-142K23,8,664,PS,exp,44,↑,up,↑,0.5403667000064161,True,9,-1,0,5
Y2-S2-142K23,8,665,PS,exp,48,→,left,←,0.8910865000070771,False,9,-1,0,5
Y2-S2-142K23,8,666,PS,exp,41,←,left,←,0.710155599997961,True,10,-1,0,5
Y2-S2-142K23,8,667,PS,exp,43,↑,up,↑,0.5093003000074532,True,10,-1,0,5
Y2-S2-142K23,8,668,PS,exp,28,→,right,→,0.5033490999921924,True,10,1,1,6
Y2-S2-142K23,8,669,PS,exp,36,←,left,←,0.4572506999975303,True,9,1,0,6
Y2-S2-142K23,8,670,PS,exp,31,↑,right,→,0.9027580999972997,False,9,-1,1,7
Y2-S2-142K23,8,671,PS,exp,35,↓,left,←,0.9046032000042032,False,10,-1,0,7
Y2-S2-142K23,8,672,PS,exp,50,↑,up,↑,0.6105898999958299,True,11,-1,0,7
Y2-S2-142K23,8,673,PS,exp,43,←,right,→,1.0308116999949561,False,11,-1,0,7
Y2-S2-142K23,8,674,PS,exp,25,→,right,→,0.7637028000026476,True,12,-1,0,7
Y2-S2-142K23,8,675,PS,exp,37,↓,left,←,0.742235099998652,False,12,-1,0,7
Y2-S2-142K23,8,676,PS,exp,49,←,left,←,0.4773440999997547,True,13,-1,0,7
Y2-S2-142K23,8,677,PS,exp,36,→,right,→,0.5489050000032876,True,13,-1,0,7
Y2-S2-142K23,8,678,PS,exp,44,←,left,←,0.4843315000034636,True,13,1,1,8
Y2-S2-142K23,8,679,PS,exp,26,↑,up,↑,0.45962999999755993,True,12,1,0,8
Y2-S2-142K23,8,680,PS,exp,41,→,right,→,0.6674390999978641,True,12,1,0,8
Y2-S2-142K23,8,681,PS,exp,44,↓,down,↓,0.4512274000007892,True,12,1,0,8
Y2-S2-142K23,8,682,PS,exp,39,↑,up,↑,0.43067649999284185,True,11,1,0,8
Y2-S2-142K23,8,683,PS,exp,42,←,left,←,0.4045523999957368,True,11,1,0,8
Y2-S2-142K23,8,684,PS,exp,49,→,right,→,0.43403099999704864,True,11,1,0,8
Y2-S2-142K23,8,685,PS,exp,45,↓,left,←,0.7887774999981048,False,10,-1,1,9
Y2-S2-142K23,8,686,PS,exp,30,→,right,→,0.735629600007087,True,11,-1,0,9
Y2-S2-142K23,8,687,PS,exp,38,↑,up,↑,0.608580100000836,True,11,-1,0,9
Y2-S2-142K23,8,688,PS,exp,43,→,right,→,0.515635600007954,True,11,1,1,10
Y2-S2-142K23,8,689,PS,exp,41,↓,down,↓,0.4916118999972241,True,10,1,0,10
Y2-S2-142K23,8,690,PS,exp,41,←,left,←,0.45430800000031013,True,10,1,0,10
Y2-S2-142K23,8,691,PS,exp,35,↓,left,←,0.7590841000055661,False,10,-1,1,11
Y2-S2-142K23,8,692,PS,exp,48,→,right,→,0.4825113999977475,True,11,-1,0,11
Y2-S2-142K23,8,693,PS,exp,41,↑,up,↑,0.4927956000028644,True,11,-1,0,11
Y2-S2-142K23,8,694,PS,exp,28,→,right,→,0.4739659000042593,True,11,1,1,12
Y2-S2-142K23,8,695,PS,exp,28,←,left,←,0.46977049999986775,True,10,1,0,12
Y2-S2-142K23,8,696,PS,exp,46,↓,down,↓,0.601883800001815,True,10,1,0,12
Y2-S2-142K23,8,697,PS,exp,38,↑,right,→,0.5920184999995399,False,10,-1,1,13
Y2-S2-142K23,8,698,PS,exp,29,←,left,←,0.48216390000015963,True,11,-1,0,13
Y2-S2-142K23,8,699,PS,exp,39,→,right,→,0.6164586000086274,True,11,-1,0,13
Y2-S2-142K23,8,700,PS,exp,48,↓,down,↓,0.5857718000042951,True,11,1,1,14
Y2-S2-142K23,8,701,PS,exp,48,←,left,←,0.4589010000054259,True,10,1,0,14
Y2-S2-142K23,8,702,PS,exp,45,→,right,→,0.5829574000090361,True,10,1,0,14
Y2-S2-142K23,8,703,PS,exp,35,↓,left,←,0.5218823000031989,False,10,-1,1,15
Y2-S2-142K23,8,704,PS,exp,33,←,left,←,0.43159120000200346,True,11,-1,0,15
Y2-S2-142K23,8,705,PS,exp,29,→,right,→,0.4869758999993792,True,11,-1,0,15
Y2-S2-142K23,8,706,PS,exp,44,↑,up,↑,0.5807184999866877,True,11,1,1,16
