PART_ID,Block_no,Trial_no,Block_type,Trial_type,CSI,Stim_letter,Key_pressed,letter_choose,Rt,Corr,Stimulus Time,Level,Reversal,Revs_count
Y2-S2-261K24,1,1,PS,train,42,↓,down,↓,0.633755199611187,True,30,-,-,-
Y2-S2-261K24,1,2,PS,train,49,↑,up,↑,0.5503508998081088,True,30,-,-,-
Y2-S2-261K24,1,3,PS,train,44,←,left,←,0.5342434998601675,True,30,-,-,-
Y2-S2-261K24,1,4,PS,train,47,→,left,←,0.6892502000555396,False,30,-,-,-
Y2-S2-261K24,1,5,PS,train,48,←,left,←,1.3597927000373602,True,30,-,-,-
Y2-S2-261K24,1,6,PS,train,41,↓,down,↓,0.6336066001094878,True,30,-,-,-
Y2-S2-261K24,1,7,PS,train,25,←,left,←,1.2273367000743747,True,30,-,-,-
Y2-S2-261K24,1,8,PS,train,44,↓,down,↓,0.745442199986428,True,30,-,-,-
Y2-S2-261K24,1,9,PS,train,26,↑,up,↑,1.1111938999965787,True,30,-,-,-
Y2-S2-261K24,1,10,PS,train,41,←,left,←,0.7332599996589124,True,30,-,-,-
Y2-S2-261K24,2,11,AS,train,49,↓,down,↓,0.9575861003249884,True,45,-,-,-
Y2-S2-261K24,2,12,AS,train,30,↑,up,↑,0.7174718999303877,True,45,-,-,-
Y2-S2-261K24,2,13,AS,train,47,→,right,→,0.6677366001531482,True,45,-,-,-
Y2-S2-261K24,2,14,AS,train,35,←,left,←,0.8674669000320137,True,45,-,-,-
Y2-S2-261K24,2,15,AS,train,37,↑,up,↑,0.8837258000858128,True,45,-,-,-
Y2-S2-261K24,2,16,AS,train,45,↓,down,↓,1.0160860996693373,True,45,-,-,-
Y2-S2-261K24,2,17,AS,train,44,↑,up,↑,0.8005478996783495,True,45,-,-,-
Y2-S2-261K24,2,18,AS,train,35,→,right,→,1.2843118999153376,True,45,-,-,-
Y2-S2-261K24,2,19,AS,train,30,↑,up,↑,0.717340599745512,True,45,-,-,-
Y2-S2-261K24,2,20,AS,train,43,→,right,→,0.6674778000451624,True,45,-,-,-
Y2-S2-261K24,-,21,PS,adaptive,36,←,right,→,0.8510233997367322,False,10,-1,0,0
Y2-S2-261K24,-,22,PS,adaptive,50,↓,left,←,1.1107019996270537,False,11,-1,0,0
Y2-S2-261K24,-,23,PS,adaptive,27,→,right,→,0.4884394998662174,True,12,-1,0,0
Y2-S2-261K24,-,24,PS,adaptive,47,←,left,←,0.7761161001399159,True,12,-1,0,0
Y2-S2-261K24,-,25,PS,adaptive,28,↓,down,↓,0.760141299571842,True,12,1,1,1
Y2-S2-261K24,-,26,PS,adaptive,35,↑,up,↑,0.9470363999716938,True,11,1,0,1
Y2-S2-261K24,-,27,PS,adaptive,29,→,right,→,0.7017620000988245,True,11,1,0,1
Y2-S2-261K24,-,28,PS,adaptive,27,←,left,←,0.7089049997739494,True,11,1,0,1
Y2-S2-261K24,-,29,PS,adaptive,30,→,right,→,0.5888486998155713,True,10,1,0,1
Y2-S2-261K24,-,30,PS,adaptive,35,←,right,→,0.6849687998183072,False,10,-1,1,2
Y2-S2-261K24,-,31,PS,adaptive,39,↓,up,↑,0.72578139975667,False,11,-1,0,2
Y2-S2-261K24,-,32,PS,adaptive,38,←,left,←,0.6199175999499857,True,12,-1,0,2
Y2-S2-261K24,-,33,PS,adaptive,47,↓,down,↓,0.6909513999707997,True,12,-1,0,2
Y2-S2-261K24,-,34,PS,adaptive,25,↑,up,↑,0.6379598001949489,True,12,1,1,3
Y2-S2-261K24,-,35,PS,adaptive,30,↓,down,↓,0.6224229000508785,True,11,1,0,3
Y2-S2-261K24,-,36,PS,adaptive,43,→,right,→,0.5772111001424491,True,11,1,0,3
Y2-S2-261K24,-,37,PS,adaptive,31,↓,down,↓,0.5981347998604178,True,11,1,0,3
Y2-S2-261K24,-,38,PS,adaptive,38,→,left,←,0.9885621001012623,False,10,-1,1,4
Y2-S2-261K24,-,39,AS,adaptive,40,←,left,←,0.5873139002360404,True,20,0,0,0
Y2-S2-261K24,-,40,AS,adaptive,37,↓,down,↓,0.7193431002087891,True,20,0,0,0
Y2-S2-261K24,-,41,AS,adaptive,28,→,right,→,0.5098284999839962,True,20,1,0,0
Y2-S2-261K24,-,42,AS,adaptive,32,↓,down,↓,0.7570103998295963,True,19,1,0,0
Y2-S2-261K24,-,43,AS,adaptive,25,→,right,→,0.5208224002271891,True,19,1,0,0
Y2-S2-261K24,-,44,AS,adaptive,33,↑,up,↑,0.6498807999305427,True,19,1,0,0
Y2-S2-261K24,-,45,AS,adaptive,36,↓,down,↓,0.5794820999726653,True,18,1,0,0
Y2-S2-261K24,-,46,AS,adaptive,33,←,left,←,0.7028520000167191,True,18,1,0,0
Y2-S2-261K24,-,47,AS,adaptive,34,↑,up,↑,0.6996989003382623,True,18,1,0,0
Y2-S2-261K24,-,48,AS,adaptive,29,↓,down,↓,0.6241256999783218,True,17,1,0,0
Y2-S2-261K24,-,49,AS,adaptive,49,→,right,→,0.5094245998188853,True,17,1,0,0
Y2-S2-261K24,-,50,AS,adaptive,33,←,right,→,0.7451688996516168,False,17,-1,1,1
Y2-S2-261K24,-,51,AS,adaptive,48,↓,down,↓,0.6149462996982038,True,18,-1,0,1
Y2-S2-261K24,-,52,AS,adaptive,35,←,left,←,0.7198475999757648,True,18,-1,0,1
Y2-S2-261K24,-,53,AS,adaptive,40,→,right,→,0.5184843000024557,True,18,1,1,2
Y2-S2-261K24,-,54,AS,adaptive,27,←,left,←,0.7097808001562953,True,17,1,0,2
Y2-S2-261K24,-,55,AS,adaptive,27,↑,right,→,0.9453499000519514,False,17,-1,1,3
Y2-S2-261K24,-,56,AS,adaptive,39,←,left,←,0.6462218998931348,True,18,-1,0,3
Y2-S2-261K24,-,57,AS,adaptive,33,→,right,→,0.5526169999502599,True,18,-1,0,3
Y2-S2-261K24,-,58,AS,adaptive,29,↓,down,↓,0.6012305999174714,True,18,1,1,4
Y2-S2-261K24,1,59,AS,intra_train,50,→,right,→,1.7966589001007378,True,25,-,-,-
Y2-S2-261K24,1,60,AS,intra_train,25,↑,up,↑,0.9529488999396563,True,25,-,-,-
Y2-S2-261K24,1,61,AS,intra_train,49,→,right,→,0.5970894997008145,True,25,-,-,-
Y2-S2-261K24,1,62,AS,intra_train,35,←,left,←,0.6946158003993332,True,25,-,-,-
Y2-S2-261K24,1,63,AS,intra_train,43,→,right,→,0.5506620998494327,True,25,-,-,-
Y2-S2-261K24,1,64,AS,exp,27,↑,up,↑,0.5918081002309918,True,17,0,0,0
Y2-S2-261K24,1,65,AS,exp,49,←,up,↑,1.449913099873811,False,17,-1,0,0
Y2-S2-261K24,1,66,AS,exp,45,→,right,→,0.7399254003539681,True,18,-1,0,0
Y2-S2-261K24,1,67,AS,exp,41,↑,up,↑,0.5360528002493083,True,18,-1,0,0
Y2-S2-261K24,1,68,AS,exp,46,↓,down,↓,0.7473381999880075,True,18,1,1,1
Y2-S2-261K24,1,69,AS,exp,32,→,right,→,0.5602723998017609,True,17,1,0,1
Y2-S2-261K24,1,70,AS,exp,47,←,left,←,0.6802988001145422,True,17,1,0,1
Y2-S2-261K24,1,71,AS,exp,25,↑,up,↑,0.9532315996475518,True,17,1,0,1
Y2-S2-261K24,1,72,AS,exp,32,←,left,←,0.6267224000766873,True,16,1,0,1
Y2-S2-261K24,1,73,AS,exp,26,↓,down,↓,0.6241004997864366,True,16,1,0,1
Y2-S2-261K24,1,74,AS,exp,39,→,right,→,0.5019803000614047,True,16,1,0,1
Y2-S2-261K24,1,75,AS,exp,30,←,left,←,0.5771813001483679,True,15,1,0,1
Y2-S2-261K24,1,76,AS,exp,37,→,right,→,0.5921307001262903,True,15,1,0,1
Y2-S2-261K24,1,77,AS,exp,27,↑,up,↑,0.4418341997079551,True,15,1,0,1
Y2-S2-261K24,1,78,AS,exp,33,↓,up,↑,1.7833306998945773,False,14,-1,1,2
Y2-S2-261K24,1,79,AS,exp,36,←,left,←,0.6538724000565708,True,15,-1,0,2
Y2-S2-261K24,1,80,AS,exp,47,↑,up,↑,0.6859223996289074,True,15,-1,0,2
Y2-S2-261K24,1,81,AS,exp,38,→,right,→,0.4955468000844121,True,15,1,1,3
Y2-S2-261K24,1,82,AS,exp,35,↓,down,↓,0.6184923998080194,True,14,1,0,3
Y2-S2-261K24,1,83,AS,exp,46,↑,up,↑,0.4277282999828458,True,14,1,0,3
Y2-S2-261K24,1,84,AS,exp,31,←,left,←,0.6330082998611033,True,14,1,0,3
Y2-S2-261K24,1,85,AS,exp,40,↑,up,↑,0.43295309972018003,True,13,1,0,3
Y2-S2-261K24,1,86,AS,exp,47,↓,down,↓,0.5501115000806749,True,13,1,0,3
Y2-S2-261K24,1,87,AS,exp,40,→,up,↑,0.7010880000889301,False,13,-1,1,4
Y2-S2-261K24,1,88,AS,exp,28,↑,up,↑,0.6658112998120487,True,14,-1,0,4
Y2-S2-261K24,1,89,AS,exp,39,←,left,←,0.5890008001588285,True,14,-1,0,4
Y2-S2-261K24,1,90,AS,exp,36,→,right,→,0.5098897996358573,True,14,1,1,5
Y2-S2-261K24,1,91,AS,exp,29,←,left,←,0.6592906997539103,True,13,1,0,5
Y2-S2-261K24,1,92,AS,exp,44,→,right,→,0.5764221996068954,True,13,1,0,5
Y2-S2-261K24,1,93,AS,exp,40,↓,down,↓,1.201894300058484,True,13,1,0,5
Y2-S2-261K24,1,94,AS,exp,42,←,right,→,0.5008942997083068,False,12,-1,1,6
Y2-S2-261K24,1,95,AS,exp,44,↑,up,↑,0.4185520000755787,True,13,-1,0,6
Y2-S2-261K24,1,96,AS,exp,45,←,left,←,0.5828856001608074,True,13,-1,0,6
Y2-S2-261K24,1,97,AS,exp,38,↑,no_key,no_letter,-1.0,False,13,-1,0,6
Y2-S2-261K24,1,98,AS,exp,28,←,left,←,0.7121529998257756,True,14,-1,0,6
Y2-S2-261K24,1,99,AS,exp,41,↓,down,↓,0.6729791997931898,True,14,-1,0,6
Y2-S2-261K24,1,100,AS,exp,32,←,left,←,0.4282688000239432,True,14,1,1,7
Y2-S2-261K24,1,101,AS,exp,28,↓,down,↓,0.64408989995718,True,13,1,0,7
Y2-S2-261K24,1,102,AS,exp,35,↑,up,↑,0.5359776997938752,True,13,1,0,7
Y2-S2-261K24,1,103,AS,exp,40,→,right,→,0.45961830019950867,True,13,1,0,7
Y2-S2-261K24,1,104,AS,exp,31,←,right,→,0.7758828997612,False,12,-1,1,8
Y2-S2-261K24,1,105,AS,exp,25,→,left,←,0.6872094999998808,False,13,-1,0,8
Y2-S2-261K24,1,106,AS,exp,46,↓,no_key,no_letter,-1.0,False,14,-1,0,8
Y2-S2-261K24,1,107,AS,exp,31,→,right,→,0.45988079998642206,True,15,-1,0,8
Y2-S2-261K24,1,108,AS,exp,38,↓,up,↑,0.5636369995772839,False,15,-1,0,8
Y2-S2-261K24,1,109,AS,exp,42,↑,up,↑,0.46042649960145354,True,16,-1,0,8
Y2-S2-261K24,1,110,AS,exp,36,→,right,→,0.6441150000318885,True,16,-1,0,8
Y2-S2-261K24,1,111,AS,exp,28,←,left,←,0.612341099884361,True,16,1,1,9
Y2-S2-261K24,1,112,AS,exp,25,→,right,→,0.4452797998674214,True,15,1,0,9
Y2-S2-261K24,1,113,AS,exp,48,↑,up,↑,0.9560957998037338,True,15,1,0,9
Y2-S2-261K24,1,114,AS,exp,38,↓,up,↑,0.6858139997348189,False,15,-1,1,10
Y2-S2-261K24,1,115,AS,exp,26,↑,up,↑,0.4907908998429775,True,16,-1,0,10
Y2-S2-261K24,1,116,AS,exp,46,←,left,←,0.6261506997980177,True,16,-1,0,10
Y2-S2-261K24,1,117,AS,exp,48,↓,down,↓,0.6603115000762045,True,16,1,1,11
Y2-S2-261K24,1,118,AS,exp,37,←,left,←,0.5439973999746144,True,15,1,0,11
Y2-S2-261K24,1,119,AS,exp,33,→,right,→,0.6333673000335693,True,15,1,0,11
Y2-S2-261K24,1,120,AS,exp,29,↓,down,↓,0.6331948000006378,True,15,1,0,11
Y2-S2-261K24,1,121,AS,exp,37,↑,down,↓,0.9426259002648294,False,14,-1,1,12
Y2-S2-261K24,1,122,AS,exp,40,→,right,→,0.47053130017593503,True,15,-1,0,12
Y2-S2-261K24,1,123,AS,exp,41,↓,down,↓,0.7823838000185788,True,15,-1,0,12
Y2-S2-261K24,1,124,AS,exp,45,↑,up,↑,0.5755055001936853,True,15,1,1,13
Y2-S2-261K24,1,125,AS,exp,46,→,right,→,0.4619862996041775,True,14,1,0,13
Y2-S2-261K24,1,126,AS,exp,26,←,left,←,0.5433669998310506,True,14,1,0,13
Y2-S2-261K24,1,127,AS,exp,27,→,right,→,0.5154636004008353,True,14,1,0,13
Y2-S2-261K24,1,128,AS,exp,46,↓,down,↓,0.5342000001110137,True,13,1,0,13
Y2-S2-261K24,1,129,AS,exp,50,→,up,↑,0.819579899776727,False,13,-1,1,14
Y2-S2-261K24,1,130,AS,exp,35,←,left,←,0.6103713000193238,True,14,-1,0,14
Y2-S2-261K24,1,131,AS,exp,33,↑,up,↑,0.5837952001020312,True,14,-1,0,14
Y2-S2-261K24,1,132,AS,exp,39,←,up,↑,0.6193738002330065,False,14,-1,0,14
Y2-S2-261K24,1,133,AS,exp,33,→,right,→,0.6081226002424955,True,15,-1,0,14
Y2-S2-261K24,1,134,AS,exp,43,←,left,←,0.6124354000203311,True,15,-1,0,14
Y2-S2-261K24,1,135,AS,exp,47,↑,no_key,no_letter,-1.0,False,15,-1,0,14
Y2-S2-261K24,1,136,AS,exp,32,←,left,←,0.684825100004673,True,16,-1,0,14
Y2-S2-261K24,1,137,AS,exp,28,↑,up,↑,0.5049197003245354,True,16,-1,0,14
Y2-S2-261K24,1,138,AS,exp,50,↓,up,↑,0.847072399687022,False,16,-1,0,14
Y2-S2-261K24,1,139,AS,exp,31,←,left,←,0.6271812003105879,True,17,-1,0,14
Y2-S2-261K24,1,140,AS,exp,25,→,right,→,0.5924109001643956,True,17,-1,0,14
Y2-S2-261K24,1,141,AS,exp,40,↓,down,↓,0.6836846997030079,True,17,1,1,15
Y2-S2-261K24,1,142,AS,exp,40,←,left,←,1.0538097997196019,True,16,1,0,15
Y2-S2-261K24,1,143,AS,exp,36,→,right,→,0.5355901997536421,True,16,1,0,15
Y2-S2-261K24,1,144,AS,exp,28,↑,up,↑,0.6295704999938607,True,16,1,0,15
Y2-S2-261K24,1,145,AS,exp,25,←,left,←,0.5546440999023616,True,15,1,0,15
Y2-S2-261K24,1,146,AS,exp,34,→,right,→,0.4796592998318374,True,15,1,0,15
Y2-S2-261K24,1,147,AS,exp,50,←,right,→,0.7352379001677036,False,15,-1,1,16
Y2-S2-261K24,2,148,PS,intra_train,39,↓,down,↓,0.6155574996955693,True,16,-,-,-
Y2-S2-261K24,2,149,PS,intra_train,47,→,right,→,0.5414961003698409,True,16,-,-,-
Y2-S2-261K24,2,150,PS,intra_train,44,↓,down,↓,0.5367956999689341,True,16,-,-,-
Y2-S2-261K24,2,151,PS,intra_train,36,↑,up,↑,0.5343959000892937,True,16,-,-,-
Y2-S2-261K24,2,152,PS,intra_train,29,→,right,→,0.47501560021191835,True,16,-,-,-
Y2-S2-261K24,2,153,PS,exp,45,←,left,←,0.6294692000374198,True,11,0,0,0
Y2-S2-261K24,2,154,PS,exp,28,↑,up,↑,0.39348600013181567,True,11,0,0,0
Y2-S2-261K24,2,155,PS,exp,25,→,right,→,0.4442961998283863,True,11,1,0,0
Y2-S2-261K24,2,156,PS,exp,31,↓,down,↓,0.5054445001296699,True,10,1,0,0
Y2-S2-261K24,2,157,PS,exp,33,↑,up,↑,0.41472010035067797,True,10,1,0,0
Y2-S2-261K24,2,158,PS,exp,47,←,left,←,0.45024360017850995,True,10,1,0,0
Y2-S2-261K24,2,159,PS,exp,29,→,right,→,0.5163070997223258,True,9,1,0,0
Y2-S2-261K24,2,160,PS,exp,41,↓,down,↓,0.5099969999864697,True,9,1,0,0
Y2-S2-261K24,2,161,PS,exp,43,←,left,←,0.3869318002834916,True,9,1,0,0
Y2-S2-261K24,2,162,PS,exp,40,↓,down,↓,0.5788597003556788,True,8,1,0,0
Y2-S2-261K24,2,163,PS,exp,45,←,left,←,0.4820925001986325,True,8,1,0,0
Y2-S2-261K24,2,164,PS,exp,29,→,down,↓,0.514024700038135,False,8,-1,1,1
Y2-S2-261K24,2,165,PS,exp,42,←,left,←,0.4643717003054917,True,9,-1,0,1
Y2-S2-261K24,2,166,PS,exp,38,↓,down,↓,0.4232161999680102,True,9,-1,0,1
Y2-S2-261K24,2,167,PS,exp,44,←,left,←,0.4292689999565482,True,9,1,1,2
Y2-S2-261K24,2,168,PS,exp,37,→,left,←,0.3637307998724282,False,8,-1,1,3
Y2-S2-261K24,2,169,PS,exp,31,↑,up,↑,0.5775085999630392,True,9,-1,0,3
Y2-S2-261K24,2,170,PS,exp,39,→,right,→,0.5160507997497916,True,9,-1,0,3
Y2-S2-261K24,2,171,PS,exp,44,↓,down,↓,0.58357710018754,True,9,1,1,4
Y2-S2-261K24,2,172,PS,exp,41,→,right,→,0.49450109992176294,True,8,1,0,4
Y2-S2-261K24,2,173,PS,exp,38,↓,down,↓,0.808496099896729,True,8,1,0,4
Y2-S2-261K24,2,174,PS,exp,46,→,down,↓,0.9840024998411536,False,8,-1,1,5
Y2-S2-261K24,2,175,PS,exp,36,↑,right,→,0.8618436004035175,False,9,-1,0,5
Y2-S2-261K24,2,176,PS,exp,30,←,left,←,0.513758699875325,True,10,-1,0,5
Y2-S2-261K24,2,177,PS,exp,33,↑,up,↑,0.4405216001905501,True,10,-1,0,5
Y2-S2-261K24,2,178,PS,exp,43,→,right,→,0.4398504998534918,True,10,1,1,6
Y2-S2-261K24,2,179,PS,exp,30,←,left,←,0.39778129989281297,True,9,1,0,6
Y2-S2-261K24,2,180,PS,exp,39,↓,down,↓,0.586570099927485,True,9,1,0,6
Y2-S2-261K24,2,181,PS,exp,36,→,right,→,0.41812639962881804,True,9,1,0,6
Y2-S2-261K24,2,182,PS,exp,35,↓,down,↓,0.471252900082618,True,8,1,0,6
Y2-S2-261K24,2,183,PS,exp,32,↑,up,↑,0.4457122995518148,True,8,1,0,6
Y2-S2-261K24,2,184,PS,exp,31,↓,down,↓,0.5238965000025928,True,8,1,0,6
Y2-S2-261K24,2,185,PS,exp,42,←,left,←,0.4277282003313303,True,7,1,0,6
Y2-S2-261K24,2,186,PS,exp,31,↑,up,↑,0.47027939977124333,True,7,1,0,6
Y2-S2-261K24,2,187,PS,exp,45,↓,down,↓,0.5462587000802159,True,7,1,0,6
Y2-S2-261K24,2,188,PS,exp,43,→,right,→,0.4507698998786509,True,6,1,0,6
Y2-S2-261K24,2,189,PS,exp,38,↓,left,←,1.002986699808389,False,6,-1,1,7
Y2-S2-261K24,2,190,PS,exp,40,→,right,→,0.6664562998339534,True,7,-1,0,7
Y2-S2-261K24,2,191,PS,exp,43,↑,down,↓,0.6385033996775746,False,7,-1,0,7
Y2-S2-261K24,2,192,PS,exp,28,←,right,→,0.5941737000830472,False,8,-1,0,7
Y2-S2-261K24,2,193,PS,exp,44,→,right,→,0.480929400306195,True,9,-1,0,7
Y2-S2-261K24,2,194,PS,exp,35,↓,down,↓,0.5350374998524785,True,9,-1,0,7
Y2-S2-261K24,2,195,PS,exp,45,←,left,←,0.4913463001139462,True,9,1,1,8
Y2-S2-261K24,2,196,PS,exp,26,↑,left,←,0.7236480000428855,False,8,-1,1,9
Y2-S2-261K24,2,197,PS,exp,33,←,left,←,0.5727853998541832,True,9,-1,0,9
Y2-S2-261K24,2,198,PS,exp,47,↑,up,↑,0.48263209965080023,True,9,-1,0,9
Y2-S2-261K24,2,199,PS,exp,43,←,right,→,0.5954010998830199,False,9,-1,0,9
Y2-S2-261K24,2,200,PS,exp,39,→,right,→,0.482568500097841,True,10,-1,0,9
Y2-S2-261K24,2,201,PS,exp,35,↓,down,↓,0.6529835998080671,True,10,-1,0,9
Y2-S2-261K24,2,202,PS,exp,40,→,left,←,0.5970533997751772,False,10,-1,0,9
Y2-S2-261K24,2,203,PS,exp,39,←,left,←,0.6335656000301242,True,11,-1,0,9
Y2-S2-261K24,2,204,PS,exp,50,↓,down,↓,0.6619826001115143,True,11,-1,0,9
Y2-S2-261K24,2,205,PS,exp,44,←,left,←,0.44838880002498627,True,11,1,1,10
Y2-S2-261K24,2,206,PS,exp,41,↑,up,↑,0.5601249998435378,True,10,1,0,10
Y2-S2-261K24,2,207,PS,exp,47,←,left,←,0.5411721002310514,True,10,1,0,10
Y2-S2-261K24,2,208,PS,exp,38,→,right,→,0.4644056996330619,True,10,1,0,10
Y2-S2-261K24,2,209,PS,exp,43,↑,up,↑,0.5351124000735581,True,9,1,0,10
Y2-S2-261K24,2,210,PS,exp,26,←,up,↑,0.7602756000123918,False,9,-1,1,11
Y2-S2-261K24,2,211,PS,exp,34,↑,up,↑,0.49817009968683124,True,10,-1,0,11
Y2-S2-261K24,2,212,PS,exp,43,←,left,←,0.4324863003566861,True,10,-1,0,11
Y2-S2-261K24,2,213,PS,exp,49,↓,down,↓,0.48221629997715354,True,10,1,1,12
Y2-S2-261K24,2,214,PS,exp,27,↑,up,↑,0.5562073001638055,True,9,1,0,12
Y2-S2-261K24,2,215,PS,exp,35,↓,down,↓,0.6065723998472095,True,9,1,0,12
Y2-S2-261K24,2,216,PS,exp,43,↑,up,↑,0.4950114004313946,True,9,1,0,12
Y2-S2-261K24,2,217,PS,exp,35,↓,down,↓,0.5952665000222623,True,8,1,0,12
Y2-S2-261K24,2,218,PS,exp,30,↑,up,↑,0.6430440000258386,True,8,1,0,12
Y2-S2-261K24,2,219,PS,exp,30,→,right,→,0.47943850001320243,True,8,1,0,12
Y2-S2-261K24,2,220,PS,exp,37,↓,right,→,0.7977256001904607,False,7,-1,1,13
Y2-S2-261K24,2,221,PS,exp,45,↑,up,↑,0.4249227000400424,True,8,-1,0,13
Y2-S2-261K24,2,222,PS,exp,26,↓,down,↓,0.5319515997543931,True,8,-1,0,13
Y2-S2-261K24,2,223,PS,exp,25,←,up,↑,0.7038587997667491,False,8,-1,0,13
Y2-S2-261K24,2,224,PS,exp,49,↓,down,↓,0.541729100048542,True,9,-1,0,13
Y2-S2-261K24,2,225,PS,exp,47,→,right,→,0.5104023003950715,True,9,-1,0,13
Y2-S2-261K24,2,226,PS,exp,26,↑,up,↑,0.5276195998303592,True,9,1,1,14
Y2-S2-261K24,2,227,PS,exp,29,→,right,→,0.4788633999414742,True,8,1,0,14
Y2-S2-261K24,2,228,PS,exp,39,↑,up,↑,0.4703902001492679,True,8,1,0,14
Y2-S2-261K24,2,229,PS,exp,31,→,right,→,0.5817882996052504,True,8,1,0,14
Y2-S2-261K24,2,230,PS,exp,37,↓,down,↓,0.6505996999330819,True,7,1,0,14
Y2-S2-261K24,2,231,PS,exp,27,→,right,→,0.4205628000199795,True,7,1,0,14
Y2-S2-261K24,2,232,PS,exp,47,←,left,←,0.5474849999882281,True,7,1,0,14
Y2-S2-261K24,2,233,PS,exp,40,↑,left,←,0.6164728999137878,False,6,-1,1,15
Y2-S2-261K24,2,234,PS,exp,28,→,right,→,0.4698474002070725,True,7,-1,0,15
Y2-S2-261K24,2,235,PS,exp,48,←,right,→,0.6073468998074532,False,7,-1,0,15
Y2-S2-261K24,2,236,PS,exp,42,↑,up,↑,0.4517619996331632,True,8,-1,0,15
Y2-S2-261K24,2,237,PS,exp,34,←,right,→,0.5329009997658432,False,8,-1,0,15
Y2-S2-261K24,2,238,PS,exp,45,→,up,↑,0.7998329000547528,False,9,-1,0,15
Y2-S2-261K24,2,239,PS,exp,33,↓,down,↓,0.5651762997731566,True,10,-1,0,15
Y2-S2-261K24,2,240,PS,exp,49,→,right,→,0.44575420022010803,True,10,-1,0,15
Y2-S2-261K24,2,241,PS,exp,29,↓,up,↑,0.5790349999442697,False,10,-1,0,15
Y2-S2-261K24,2,242,PS,exp,44,→,down,↓,0.6442081001587212,False,11,-1,0,15
Y2-S2-261K24,2,243,PS,exp,31,↓,down,↓,0.5520771001465619,True,12,-1,0,15
Y2-S2-261K24,2,244,PS,exp,49,↑,up,↑,0.42635639989748597,True,12,-1,0,15
Y2-S2-261K24,2,245,PS,exp,27,←,right,→,0.4810043000616133,False,12,-1,0,15
Y2-S2-261K24,2,246,PS,exp,27,→,right,→,0.5074328002519906,True,13,-1,0,15
Y2-S2-261K24,2,247,PS,exp,49,↑,up,↑,0.44433890003710985,True,13,-1,0,15
Y2-S2-261K24,2,248,PS,exp,40,→,right,→,0.42351700039580464,True,13,1,1,16
Y2-S2-261K24,3,249,PS,intra_train,39,↑,up,↑,0.4848386999219656,True,16,-,-,-
Y2-S2-261K24,3,250,PS,intra_train,41,→,right,→,1.5012797000817955,True,16,-,-,-
Y2-S2-261K24,3,251,PS,intra_train,39,↑,up,↑,0.5392611999996006,True,16,-,-,-
Y2-S2-261K24,3,252,PS,intra_train,30,↓,down,↓,0.7651598998345435,True,16,-,-,-
Y2-S2-261K24,3,253,PS,intra_train,27,→,right,→,0.5461763003841043,True,16,-,-,-
Y2-S2-261K24,3,254,PS,exp,30,↑,up,↑,0.5110503998585045,True,11,0,0,0
Y2-S2-261K24,3,255,PS,exp,47,↓,down,↓,0.5463045998476446,True,11,0,0,0
Y2-S2-261K24,3,256,PS,exp,45,↑,up,↑,0.48780009988695383,True,11,1,0,0
Y2-S2-261K24,3,257,PS,exp,25,↓,down,↓,0.4875845001079142,True,10,1,0,0
Y2-S2-261K24,3,258,PS,exp,34,↑,up,↑,0.4352770997211337,True,10,1,0,0
Y2-S2-261K24,3,259,PS,exp,37,←,left,←,0.5741669000126421,True,10,1,0,0
Y2-S2-261K24,3,260,PS,exp,31,→,right,→,0.49847970018163323,True,9,1,0,0
Y2-S2-261K24,3,261,PS,exp,49,←,left,←,0.450197400059551,True,9,1,0,0
Y2-S2-261K24,3,262,PS,exp,41,↓,down,↓,0.5071951998397708,True,9,1,0,0
Y2-S2-261K24,3,263,PS,exp,44,←,left,←,0.8343465998768806,True,8,1,0,0
Y2-S2-261K24,3,264,PS,exp,39,↓,up,↑,0.5847003003582358,False,8,-1,1,1
Y2-S2-261K24,3,265,PS,exp,35,→,right,→,0.5505246999673545,True,9,-1,0,1
Y2-S2-261K24,3,266,PS,exp,42,↑,up,↑,0.693128400016576,True,9,-1,0,1
Y2-S2-261K24,3,267,PS,exp,39,→,right,→,0.5025631003081799,True,9,1,1,2
Y2-S2-261K24,3,268,PS,exp,45,↓,up,↑,0.5563448001630604,False,8,-1,1,3
Y2-S2-261K24,3,269,PS,exp,46,→,right,→,0.5087494002655149,True,9,-1,0,3
Y2-S2-261K24,3,270,PS,exp,44,←,right,→,0.47749209962785244,False,9,-1,0,3
Y2-S2-261K24,3,271,PS,exp,48,→,right,→,0.4670297000557184,True,10,-1,0,3
Y2-S2-261K24,3,272,PS,exp,33,↓,down,↓,0.5837701000273228,True,10,-1,0,3
Y2-S2-261K24,3,273,PS,exp,39,→,right,→,0.474704900290817,True,10,1,1,4
Y2-S2-261K24,3,274,PS,exp,30,←,left,←,0.5928960996679962,True,9,1,0,4
Y2-S2-261K24,3,275,PS,exp,29,↑,up,↑,0.4274097001180053,True,9,1,0,4
Y2-S2-261K24,3,276,PS,exp,36,←,left,←,0.5243262001313269,True,9,1,0,4
Y2-S2-261K24,3,277,PS,exp,25,↓,left,←,0.37339859968051314,False,8,-1,1,5
Y2-S2-261K24,3,278,PS,exp,45,→,right,→,0.6296652001328766,True,9,-1,0,5
Y2-S2-261K24,3,279,PS,exp,50,↓,right,→,0.5706743998453021,False,9,-1,0,5
Y2-S2-261K24,3,280,PS,exp,36,←,left,←,0.46540149999782443,True,10,-1,0,5
Y2-S2-261K24,3,281,PS,exp,31,→,right,→,0.66403489978984,True,10,-1,0,5
Y2-S2-261K24,3,282,PS,exp,34,↑,right,→,0.9424112001433969,False,10,-1,0,5
Y2-S2-261K24,3,283,PS,exp,42,→,left,←,0.7961920998059213,False,11,-1,0,5
Y2-S2-261K24,3,284,PS,exp,47,↑,up,↑,0.43600530037656426,True,12,-1,0,5
Y2-S2-261K24,3,285,PS,exp,38,←,left,←,0.4183301003649831,True,12,-1,0,5
Y2-S2-261K24,3,286,PS,exp,50,→,right,→,0.4507293002679944,True,12,1,1,6
Y2-S2-261K24,3,287,PS,exp,28,↓,up,↑,0.7037005997262895,False,11,-1,1,7
Y2-S2-261K24,3,288,PS,exp,32,↑,up,↑,0.4249816997908056,True,12,-1,0,7
Y2-S2-261K24,3,289,PS,exp,29,→,right,→,0.5022810003720224,True,12,-1,0,7
Y2-S2-261K24,3,290,PS,exp,31,↑,up,↑,0.47412420017644763,True,12,1,1,8
Y2-S2-261K24,3,291,PS,exp,30,↓,up,↑,0.747934099752456,False,11,-1,1,9
Y2-S2-261K24,3,292,PS,exp,38,←,left,←,0.46311879996210337,True,12,-1,0,9
Y2-S2-261K24,3,293,PS,exp,27,↑,right,→,0.8654332002624869,False,12,-1,0,9
Y2-S2-261K24,3,294,PS,exp,40,→,right,→,0.44353589974343777,True,13,-1,0,9
Y2-S2-261K24,3,295,PS,exp,25,↓,up,↑,0.6331115001812577,False,13,-1,0,9
Y2-S2-261K24,3,296,PS,exp,44,→,right,→,0.47231930028647184,True,14,-1,0,9
Y2-S2-261K24,3,297,PS,exp,40,←,left,←,0.5144334002397954,True,14,-1,0,9
Y2-S2-261K24,3,298,PS,exp,38,↓,down,↓,0.7101931003853679,True,14,1,1,10
Y2-S2-261K24,3,299,PS,exp,25,←,left,←,0.6496619000099599,True,13,1,0,10
Y2-S2-261K24,3,300,PS,exp,29,↓,left,←,0.8378131999634206,False,13,-1,1,11
Y2-S2-261K24,3,301,PS,exp,38,↑,up,↑,0.49266730016097426,True,14,-1,0,11
Y2-S2-261K24,3,302,PS,exp,32,↓,down,↓,0.6363552999682724,True,14,-1,0,11
Y2-S2-261K24,3,303,PS,exp,47,←,left,←,0.5322515000589192,True,14,1,1,12
Y2-S2-261K24,3,304,PS,exp,32,↑,up,↑,0.5939185000024736,True,13,1,0,12
Y2-S2-261K24,3,305,PS,exp,48,←,left,←,0.4472344000823796,True,13,1,0,12
Y2-S2-261K24,3,306,PS,exp,33,↑,up,↑,0.51271259970963,True,13,1,0,12
Y2-S2-261K24,3,307,PS,exp,49,→,right,→,0.4626760999672115,True,12,1,0,12
Y2-S2-261K24,3,308,PS,exp,36,↑,up,↑,0.4360059997998178,True,12,1,0,12
Y2-S2-261K24,3,309,PS,exp,33,↓,down,↓,0.5814527999609709,True,12,1,0,12
Y2-S2-261K24,3,310,PS,exp,32,→,left,←,0.5164153003133833,False,11,-1,1,13
Y2-S2-261K24,3,311,PS,exp,33,↓,down,↓,0.6336035998538136,True,12,-1,0,13
Y2-S2-261K24,3,312,PS,exp,44,↑,up,↑,0.4252514997497201,True,12,-1,0,13
Y2-S2-261K24,3,313,PS,exp,35,↓,right,→,0.9958995999768376,False,12,-1,0,13
Y2-S2-261K24,3,314,PS,exp,41,←,left,←,0.42703159991651773,True,13,-1,0,13
Y2-S2-261K24,3,315,PS,exp,38,→,right,→,0.49320119991898537,True,13,-1,0,13
Y2-S2-261K24,3,316,PS,exp,43,↓,down,↓,0.5915632997639477,True,13,1,1,14
Y2-S2-261K24,3,317,PS,exp,46,←,left,←,0.4747693003155291,True,12,1,0,14
Y2-S2-261K24,3,318,PS,exp,31,↓,down,↓,0.5310216001234949,True,12,1,0,14
Y2-S2-261K24,3,319,PS,exp,43,→,right,→,0.503843099810183,True,12,1,0,14
Y2-S2-261K24,3,320,PS,exp,46,←,left,←,0.45874370029196143,True,11,1,0,14
Y2-S2-261K24,3,321,PS,exp,50,↓,left,←,0.515977299772203,False,11,-1,1,15
Y2-S2-261K24,3,322,PS,exp,39,↑,down,↓,1.2562459004111588,False,12,-1,0,15
Y2-S2-261K24,3,323,PS,exp,47,←,up,↑,0.8156330999918282,False,13,-1,0,15
Y2-S2-261K24,3,324,PS,exp,32,→,right,→,0.5748792001977563,True,14,-1,0,15
Y2-S2-261K24,3,325,PS,exp,44,←,left,←,0.43681269977241755,True,14,-1,0,15
Y2-S2-261K24,3,326,PS,exp,27,→,right,→,0.750216200016439,True,14,1,1,16
Y2-S2-261K24,4,327,AS,intra_train,35,←,left,←,0.734638299793005,True,25,-,-,-
Y2-S2-261K24,4,328,AS,intra_train,35,→,right,→,0.5505680004134774,True,25,-,-,-
Y2-S2-261K24,4,329,AS,intra_train,42,↓,down,↓,0.9490678999572992,True,25,-,-,-
Y2-S2-261K24,4,330,AS,intra_train,44,←,left,←,0.7154822000302374,True,25,-,-,-
Y2-S2-261K24,4,331,AS,intra_train,46,↑,up,↑,0.5340661001391709,True,25,-,-,-
Y2-S2-261K24,4,332,AS,exp,40,↓,down,↓,0.7523690997622907,True,17,0,0,0
Y2-S2-261K24,4,333,AS,exp,26,←,right,→,0.49734830018132925,False,17,-1,0,0
Y2-S2-261K24,4,334,AS,exp,46,↑,no_key,no_letter,-1.0,False,18,-1,0,0
Y2-S2-261K24,4,335,AS,exp,26,←,up,↑,0.836703599896282,False,19,-1,0,0
Y2-S2-261K24,4,336,AS,exp,39,↓,down,↓,0.5646216003224254,True,20,-1,0,0
Y2-S2-261K24,4,337,AS,exp,35,→,right,→,0.538455399684608,True,20,-1,0,0
Y2-S2-261K24,4,338,AS,exp,29,↑,up,↑,0.6307478998787701,True,20,1,1,1
Y2-S2-261K24,4,339,AS,exp,38,→,right,→,0.7389388000592589,True,19,1,0,1
Y2-S2-261K24,4,340,AS,exp,33,↑,up,↑,0.49662719992920756,True,19,1,0,1
Y2-S2-261K24,4,341,AS,exp,47,→,right,→,0.7179550998844206,True,19,1,0,1
Y2-S2-261K24,4,342,AS,exp,39,←,left,←,0.6477477997541428,True,18,1,0,1
Y2-S2-261K24,4,343,AS,exp,25,↑,up,↑,1.7573057999834418,True,18,1,0,1
Y2-S2-261K24,4,344,AS,exp,25,←,left,←,0.6388964997604489,True,18,1,0,1
Y2-S2-261K24,4,345,AS,exp,37,↓,down,↓,0.691442099865526,True,17,1,0,1
Y2-S2-261K24,4,346,AS,exp,33,←,left,←,0.6985101001337171,True,17,1,0,1
Y2-S2-261K24,4,347,AS,exp,40,↑,up,↑,1.1874524001032114,True,17,1,0,1
Y2-S2-261K24,4,348,AS,exp,46,→,right,→,1.6802914999425411,True,16,1,0,1
Y2-S2-261K24,4,349,AS,exp,42,←,left,←,1.2020493997260928,True,16,1,0,1
Y2-S2-261K24,4,350,AS,exp,35,↑,up,↑,0.6420151004567742,True,16,1,0,1
Y2-S2-261K24,4,351,AS,exp,44,→,right,→,0.7023912998847663,True,15,1,0,1
Y2-S2-261K24,4,352,AS,exp,50,↓,up,↑,1.5788504998199642,False,15,-1,1,2
Y2-S2-261K24,4,353,AS,exp,25,→,left,←,0.9131808001548052,False,16,-1,0,2
Y2-S2-261K24,4,354,AS,exp,41,↓,down,↓,0.7941513997502625,True,17,-1,0,2
Y2-S2-261K24,4,355,AS,exp,34,←,left,←,0.7672588001005352,True,17,-1,0,2
Y2-S2-261K24,4,356,AS,exp,34,↑,up,↑,0.7895569996908307,True,17,1,1,3
Y2-S2-261K24,4,357,AS,exp,30,↓,up,↑,0.6862540999427438,False,16,-1,1,4
Y2-S2-261K24,4,358,AS,exp,32,→,left,←,0.8627565000206232,False,17,-1,0,4
Y2-S2-261K24,4,359,AS,exp,32,←,left,←,0.7826840998604894,True,18,-1,0,4
Y2-S2-261K24,4,360,AS,exp,33,→,right,→,0.9815483996644616,True,18,-1,0,4
Y2-S2-261K24,4,361,AS,exp,46,←,left,←,0.6372112003155053,True,18,1,1,5
Y2-S2-261K24,4,362,AS,exp,38,↓,up,↑,0.900210399646312,False,17,-1,1,6
Y2-S2-261K24,4,363,AS,exp,35,→,right,→,0.7843305999413133,True,18,-1,0,6
Y2-S2-261K24,4,364,AS,exp,32,←,left,←,0.727366799954325,True,18,-1,0,6
Y2-S2-261K24,4,365,AS,exp,37,→,right,→,0.7609296999871731,True,18,1,1,7
Y2-S2-261K24,4,366,AS,exp,42,↓,down,↓,0.7609500996768475,True,17,1,0,7
Y2-S2-261K24,4,367,AS,exp,27,←,left,←,0.6902782996185124,True,17,1,0,7
Y2-S2-261K24,4,368,AS,exp,39,↓,up,↑,0.9577493001706898,False,17,-1,1,8
Y2-S2-261K24,4,369,AS,exp,29,↑,up,↑,0.5668366001918912,True,18,-1,0,8
Y2-S2-261K24,4,370,AS,exp,42,↓,down,↓,0.8008023998700082,True,18,-1,0,8
Y2-S2-261K24,4,371,AS,exp,27,↑,up,↑,0.5475797997787595,True,18,1,1,9
Y2-S2-261K24,4,372,AS,exp,28,←,left,←,0.638748100027442,True,17,1,0,9
Y2-S2-261K24,4,373,AS,exp,38,↑,up,↑,0.4974112999625504,True,17,1,0,9
Y2-S2-261K24,4,374,AS,exp,44,←,left,←,0.48622519988566637,True,17,1,0,9
Y2-S2-261K24,4,375,AS,exp,44,↓,down,↓,0.6401690002530813,True,16,1,0,9
Y2-S2-261K24,4,376,AS,exp,39,→,left,←,0.5311235003173351,False,16,-1,1,10
Y2-S2-261K24,4,377,AS,exp,37,↑,up,↑,0.755835700314492,True,17,-1,0,10
Y2-S2-261K24,4,378,AS,exp,49,←,left,←,0.7829114003106952,True,17,-1,0,10
Y2-S2-261K24,4,379,AS,exp,38,→,right,→,0.5680837999098003,True,17,1,1,11
Y2-S2-261K24,4,380,AS,exp,33,↓,down,↓,0.6129351002164185,True,16,1,0,11
Y2-S2-261K24,4,381,AS,exp,47,↑,left,←,0.887196000199765,False,16,-1,1,12
Y2-S2-261K24,4,382,AS,exp,32,↓,down,↓,0.7414444000460207,True,17,-1,0,12
Y2-S2-261K24,4,383,AS,exp,47,←,left,←,0.6706495000980794,True,17,-1,0,12
Y2-S2-261K24,4,384,AS,exp,28,↑,up,↑,0.6577897998504341,True,17,1,1,13
Y2-S2-261K24,4,385,AS,exp,49,→,right,→,0.5973202004097402,True,16,1,0,13
Y2-S2-261K24,4,386,AS,exp,38,↓,down,↓,0.6207103999331594,True,16,1,0,13
Y2-S2-261K24,4,387,AS,exp,35,→,right,→,0.7572142998687923,True,16,1,0,13
Y2-S2-261K24,4,388,AS,exp,26,↑,up,↑,0.8154988000169396,True,15,1,0,13
Y2-S2-261K24,4,389,AS,exp,37,←,left,←,0.7228960003703833,True,15,1,0,13
Y2-S2-261K24,4,390,AS,exp,48,→,down,↓,1.0349083999171853,False,15,-1,1,14
Y2-S2-261K24,4,391,AS,exp,45,←,left,←,0.6285615996457636,True,16,-1,0,14
Y2-S2-261K24,4,392,AS,exp,29,↓,down,↓,0.7087421999312937,True,16,-1,0,14
Y2-S2-261K24,4,393,AS,exp,44,→,right,→,0.6886398000642657,True,16,1,1,15
Y2-S2-261K24,4,394,AS,exp,38,↓,left,←,1.4592320998199284,False,15,-1,1,16
Y2-S2-261K24,5,395,AS,intra_train,33,↑,up,↑,0.6514302003197372,True,25,-,-,-
Y2-S2-261K24,5,396,AS,intra_train,29,←,left,←,0.6817077002488077,True,25,-,-,-
Y2-S2-261K24,5,397,AS,intra_train,44,↑,up,↑,0.5504854996688664,True,25,-,-,-
Y2-S2-261K24,5,398,AS,intra_train,32,↓,down,↓,0.6926933000795543,True,25,-,-,-
Y2-S2-261K24,5,399,AS,intra_train,45,↑,up,↑,0.6346923997625709,True,25,-,-,-
Y2-S2-261K24,5,400,AS,exp,50,↓,down,↓,0.5529157998971641,True,17,0,0,0
Y2-S2-261K24,5,401,AS,exp,47,↑,up,↑,0.5413611000403762,True,17,0,0,0
Y2-S2-261K24,5,402,AS,exp,27,↓,down,↓,0.5960806999355555,True,17,1,0,0
Y2-S2-261K24,5,403,AS,exp,44,←,up,↑,0.886323899962008,False,16,-1,1,1
Y2-S2-261K24,5,404,AS,exp,40,↑,up,↑,1.8975616004317999,True,17,-1,0,1
Y2-S2-261K24,5,405,AS,exp,42,↓,down,↓,0.783413799945265,True,17,-1,0,1
Y2-S2-261K24,5,406,AS,exp,35,←,left,←,0.7010023002512753,True,17,1,1,2
Y2-S2-261K24,5,407,AS,exp,43,↓,down,↓,0.6243417002260685,True,16,1,0,2
Y2-S2-261K24,5,408,AS,exp,43,↑,up,↑,0.6910866000689566,True,16,1,0,2
Y2-S2-261K24,5,409,AS,exp,45,←,left,←,0.8153603002429008,True,16,1,0,2
Y2-S2-261K24,5,410,AS,exp,48,↓,left,←,1.5591390999034047,False,15,-1,1,3
Y2-S2-261K24,5,411,AS,exp,39,→,right,→,0.7116938000544906,True,16,-1,0,3
Y2-S2-261K24,5,412,AS,exp,44,↑,up,↑,0.5214895997196436,True,16,-1,0,3
Y2-S2-261K24,5,413,AS,exp,49,→,right,→,0.6752704000100493,True,16,1,1,4
Y2-S2-261K24,5,414,AS,exp,39,←,left,←,0.6965195997618139,True,15,1,0,4
Y2-S2-261K24,5,415,AS,exp,33,↑,up,↑,0.7210451997816563,True,15,1,0,4
Y2-S2-261K24,5,416,AS,exp,47,←,left,←,0.5573175000026822,True,15,1,0,4
Y2-S2-261K24,5,417,AS,exp,28,↓,down,↓,0.702829800080508,True,14,1,0,4
Y2-S2-261K24,5,418,AS,exp,50,→,down,↓,1.4351078998297453,False,14,-1,1,5
Y2-S2-261K24,5,419,AS,exp,39,↓,down,↓,0.5212479997426271,True,15,-1,0,5
Y2-S2-261K24,5,420,AS,exp,26,←,left,←,0.4942972999997437,True,15,-1,0,5
Y2-S2-261K24,5,421,AS,exp,36,↓,left,←,1.3042497001588345,False,15,-1,0,5
Y2-S2-261K24,5,422,AS,exp,40,←,left,←,0.7162806000560522,True,16,-1,0,5
Y2-S2-261K24,5,423,AS,exp,42,→,right,→,0.5076456996612251,True,16,-1,0,5
Y2-S2-261K24,5,424,AS,exp,41,↓,down,↓,1.0104924999177456,True,16,1,1,6
Y2-S2-261K24,5,425,AS,exp,25,←,left,←,0.6302665998227894,True,15,1,0,6
Y2-S2-261K24,5,426,AS,exp,50,↑,up,↑,0.5903118997812271,True,15,1,0,6
Y2-S2-261K24,5,427,AS,exp,41,→,left,←,0.5077995001338422,False,15,-1,1,7
Y2-S2-261K24,5,428,AS,exp,44,←,left,←,0.982606100384146,True,16,-1,0,7
Y2-S2-261K24,5,429,AS,exp,43,→,right,→,0.8390620001591742,True,16,-1,0,7
Y2-S2-261K24,5,430,AS,exp,25,↑,up,↑,0.8069881000556052,True,16,1,1,8
Y2-S2-261K24,5,431,AS,exp,47,→,right,→,0.5482389000244439,True,15,1,0,8
Y2-S2-261K24,5,432,AS,exp,43,←,left,←,0.8264800999313593,True,15,1,0,8
Y2-S2-261K24,5,433,AS,exp,37,↓,right,→,0.846890099812299,False,15,-1,1,9
Y2-S2-261K24,5,434,AS,exp,27,↑,up,↑,0.5894840997643769,True,16,-1,0,9
Y2-S2-261K24,5,435,AS,exp,38,→,right,→,0.7287955000065267,True,16,-1,0,9
Y2-S2-261K24,5,436,AS,exp,48,↑,up,↑,0.5107760997489095,True,16,1,1,10
Y2-S2-261K24,5,437,AS,exp,25,→,left,←,0.846393299754709,False,15,-1,1,11
Y2-S2-261K24,5,438,AS,exp,34,↓,right,→,0.9027704000473022,False,16,-1,0,11
Y2-S2-261K24,5,439,AS,exp,39,→,right,→,0.5437648999504745,True,17,-1,0,11
Y2-S2-261K24,5,440,AS,exp,26,↑,up,↑,0.4713109000585973,True,17,-1,0,11
Y2-S2-261K24,5,441,AS,exp,30,↓,down,↓,0.5765129001811147,True,17,1,1,12
Y2-S2-261K24,5,442,AS,exp,36,↑,up,↑,0.5092760999687016,True,16,1,0,12
Y2-S2-261K24,5,443,AS,exp,44,↓,down,↓,0.46640839986503124,True,16,1,0,12
Y2-S2-261K24,5,444,AS,exp,44,←,right,→,1.0502864001318812,False,16,-1,1,13
Y2-S2-261K24,5,445,AS,exp,43,↑,up,↑,0.5728493998758495,True,17,-1,0,13
Y2-S2-261K24,5,446,AS,exp,36,↓,down,↓,0.7019873997196555,True,17,-1,0,13
Y2-S2-261K24,5,447,AS,exp,40,←,left,←,0.5423429999500513,True,17,1,1,14
Y2-S2-261K24,5,448,AS,exp,36,↓,down,↓,0.5266116000711918,True,16,1,0,14
Y2-S2-261K24,5,449,AS,exp,35,←,left,←,0.5990744000300765,True,16,1,0,14
Y2-S2-261K24,5,450,AS,exp,25,↓,down,↓,0.5268891002051532,True,16,1,0,14
Y2-S2-261K24,5,451,AS,exp,41,→,right,→,0.4636127999983728,True,15,1,0,14
Y2-S2-261K24,5,452,AS,exp,40,←,left,←,0.8916893997229636,True,15,1,0,14
Y2-S2-261K24,5,453,AS,exp,26,↑,up,↑,0.5950235999189317,True,15,1,0,14
Y2-S2-261K24,5,454,AS,exp,37,→,right,→,0.5120616997592151,True,14,1,0,14
Y2-S2-261K24,5,455,AS,exp,39,↑,up,↑,0.4872093996964395,True,14,1,0,14
Y2-S2-261K24,5,456,AS,exp,50,↓,down,↓,0.6156737003475428,True,14,1,0,14
Y2-S2-261K24,5,457,AS,exp,40,←,right,→,0.9418105999939144,False,13,-1,1,15
Y2-S2-261K24,5,458,AS,exp,49,→,right,→,0.6556450999341905,True,14,-1,0,15
Y2-S2-261K24,5,459,AS,exp,42,↑,up,↑,0.7342336000874639,True,14,-1,0,15
Y2-S2-261K24,5,460,AS,exp,32,←,left,←,0.6209166999906301,True,14,1,1,16
Y2-S2-261K24,6,461,PS,intra_train,36,↑,up,↑,0.6294084000401199,True,16,-,-,-
Y2-S2-261K24,6,462,PS,intra_train,30,↓,down,↓,0.6201692000031471,True,16,-,-,-
Y2-S2-261K24,6,463,PS,intra_train,34,→,right,→,0.51505809975788,True,16,-,-,-
Y2-S2-261K24,6,464,PS,intra_train,26,↓,down,↓,0.6986710000783205,True,16,-,-,-
Y2-S2-261K24,6,465,PS,intra_train,37,↑,up,↑,0.5922771999612451,True,16,-,-,-
Y2-S2-261K24,6,466,PS,exp,49,→,right,→,0.46365740010514855,True,11,0,0,0
Y2-S2-261K24,6,467,PS,exp,44,↓,down,↓,0.5062552001327276,True,11,0,0,0
Y2-S2-261K24,6,468,PS,exp,43,→,right,→,0.7788665001280606,True,11,1,0,0
Y2-S2-261K24,6,469,PS,exp,37,↑,up,↑,0.6314534000121057,True,10,1,0,0
Y2-S2-261K24,6,470,PS,exp,49,↓,down,↓,0.6026800000108778,True,10,1,0,0
Y2-S2-261K24,6,471,PS,exp,45,→,right,→,0.6429292997345328,True,10,1,0,0
Y2-S2-261K24,6,472,PS,exp,32,↑,up,↑,0.5853043999522924,True,9,1,0,0
Y2-S2-261K24,6,473,PS,exp,38,→,right,→,0.4860491999424994,True,9,1,0,0
Y2-S2-261K24,6,474,PS,exp,42,↑,up,↑,0.8929322003386915,True,9,1,0,0
Y2-S2-261K24,6,475,PS,exp,40,←,left,←,0.5130004999227822,True,8,1,0,0
Y2-S2-261K24,6,476,PS,exp,27,↑,up,↑,0.7747289999388158,True,8,1,0,0
Y2-S2-261K24,6,477,PS,exp,31,←,left,←,0.5855344999581575,True,8,1,0,0
Y2-S2-261K24,6,478,PS,exp,49,↓,down,↓,0.6358594000339508,True,7,1,0,0
Y2-S2-261K24,6,479,PS,exp,50,↑,up,↑,0.5182759999297559,True,7,1,0,0
Y2-S2-261K24,6,480,PS,exp,31,←,left,←,1.601287900004536,True,7,1,0,0
Y2-S2-261K24,6,481,PS,exp,47,→,right,→,0.5870690001174808,True,6,1,0,0
Y2-S2-261K24,6,482,PS,exp,44,↑,up,↑,0.39397820038720965,True,6,1,0,0
Y2-S2-261K24,6,483,PS,exp,36,←,up,↑,1.4118635999038815,False,6,-1,1,1
Y2-S2-261K24,6,484,PS,exp,45,↓,down,↓,0.6061069997958839,True,7,-1,0,1
Y2-S2-261K24,6,485,PS,exp,39,→,right,→,0.6183898001909256,True,7,-1,0,1
Y2-S2-261K24,6,486,PS,exp,38,↑,right,→,0.8055078997276723,False,7,-1,0,1
Y2-S2-261K24,6,487,PS,exp,26,↓,down,↓,0.4086287999525666,True,8,-1,0,1
Y2-S2-261K24,6,488,PS,exp,29,←,left,←,0.6729812999255955,True,8,-1,0,1
Y2-S2-261K24,6,489,PS,exp,29,↑,up,↑,0.5780620998702943,True,8,1,1,2
Y2-S2-261K24,6,490,PS,exp,35,←,left,←,0.6279545999132097,True,7,1,0,2
Y2-S2-261K24,6,491,PS,exp,40,→,right,→,0.4972606999799609,True,7,1,0,2
Y2-S2-261K24,6,492,PS,exp,44,↑,up,↑,0.5638930001296103,True,7,1,0,2
Y2-S2-261K24,6,493,PS,exp,48,↓,up,↑,0.62992940004915,False,6,-1,1,3
Y2-S2-261K24,6,494,PS,exp,26,←,left,←,0.7391866999678314,True,7,-1,0,3
Y2-S2-261K24,6,495,PS,exp,26,↓,left,←,0.8824983001686633,False,7,-1,0,3
Y2-S2-261K24,6,496,PS,exp,47,→,right,→,0.5566532001830637,True,8,-1,0,3
Y2-S2-261K24,6,497,PS,exp,37,←,right,→,0.6301679001189768,False,8,-1,0,3
Y2-S2-261K24,6,498,PS,exp,29,→,left,←,0.8929109000600874,False,9,-1,0,3
Y2-S2-261K24,6,499,PS,exp,49,↑,up,↑,0.6419440000317991,True,10,-1,0,3
Y2-S2-261K24,6,500,PS,exp,25,←,left,←,0.7238688999786973,True,10,-1,0,3
Y2-S2-261K24,6,501,PS,exp,43,↑,up,↑,0.5225654002279043,True,10,1,1,4
Y2-S2-261K24,6,502,PS,exp,50,←,left,←,0.566924300044775,True,9,1,0,4
Y2-S2-261K24,6,503,PS,exp,32,↓,down,↓,0.6986706000752747,True,9,1,0,4
Y2-S2-261K24,6,504,PS,exp,37,↑,up,↑,0.6639572996646166,True,9,1,0,4
Y2-S2-261K24,6,505,PS,exp,44,←,left,←,0.5257335002534091,True,8,1,0,4
Y2-S2-261K24,6,506,PS,exp,43,↑,down,↓,0.5438215998001397,False,8,-1,1,5
Y2-S2-261K24,6,507,PS,exp,33,→,right,→,0.7264736001379788,True,9,-1,0,5
Y2-S2-261K24,6,508,PS,exp,34,↑,up,↑,0.5602249000221491,True,9,-1,0,5
Y2-S2-261K24,6,509,PS,exp,31,←,left,←,0.5239480999298394,True,9,1,1,6
Y2-S2-261K24,6,510,PS,exp,46,→,up,↑,0.5867198002524674,False,8,-1,1,7
Y2-S2-261K24,6,511,PS,exp,46,←,left,←,0.4436436998657882,True,9,-1,0,7
Y2-S2-261K24,6,512,PS,exp,31,↑,up,↑,0.4652396999299526,True,9,-1,0,7
Y2-S2-261K24,6,513,PS,exp,46,↓,down,↓,0.4993948000483215,True,9,1,1,8
Y2-S2-261K24,6,514,PS,exp,32,→,right,→,0.5098215001635253,True,8,1,0,8
Y2-S2-261K24,6,515,PS,exp,36,←,left,←,0.4516352000646293,True,8,1,0,8
Y2-S2-261K24,6,516,PS,exp,48,→,right,→,0.4663558001630008,True,8,1,0,8
Y2-S2-261K24,6,517,PS,exp,46,↓,down,↓,0.5827383999712765,True,7,1,0,8
Y2-S2-261K24,6,518,PS,exp,29,→,right,→,0.5662487000226974,True,7,1,0,8
Y2-S2-261K24,6,519,PS,exp,39,↓,down,↓,0.5236168000847101,True,7,1,0,8
Y2-S2-261K24,6,520,PS,exp,37,←,left,←,0.7330347998067737,True,6,1,0,8
Y2-S2-261K24,6,521,PS,exp,26,↓,down,↓,0.5641947998665273,True,6,1,0,8
Y2-S2-261K24,6,522,PS,exp,40,↑,up,↑,0.44472660031169653,True,6,1,0,8
Y2-S2-261K24,6,523,PS,exp,32,←,up,↑,0.7733303997665644,False,5,-1,1,9
Y2-S2-261K24,6,524,PS,exp,31,→,right,→,0.502053199801594,True,6,-1,0,9
Y2-S2-261K24,6,525,PS,exp,38,←,left,←,0.5893969000317156,True,6,-1,0,9
Y2-S2-261K24,6,526,PS,exp,31,↓,down,↓,0.7371804001741111,True,6,1,1,10
Y2-S2-261K24,6,527,PS,exp,38,←,right,→,0.43316440004855394,False,5,-1,1,11
Y2-S2-261K24,6,528,PS,exp,42,↑,down,↓,0.5849514002911747,False,6,-1,0,11
Y2-S2-261K24,6,529,PS,exp,44,→,right,→,0.5021297000348568,True,7,-1,0,11
Y2-S2-261K24,6,530,PS,exp,37,↑,up,↑,0.43375830026343465,True,7,-1,0,11
Y2-S2-261K24,6,531,PS,exp,42,←,left,←,0.5597811001352966,True,7,1,1,12
Y2-S2-261K24,6,532,PS,exp,31,→,down,↓,0.5496777002699673,False,6,-1,1,13
Y2-S2-261K24,6,533,PS,exp,34,←,left,←,0.44788730004802346,True,7,-1,0,13
Y2-S2-261K24,6,534,PS,exp,33,↑,up,↑,0.4212291999720037,True,7,-1,0,13
Y2-S2-261K24,6,535,PS,exp,27,→,left,←,0.5555867999792099,False,7,-1,0,13
Y2-S2-261K24,6,536,PS,exp,36,↑,up,↑,0.9569343002513051,True,8,-1,0,13
Y2-S2-261K24,6,537,PS,exp,45,→,right,→,0.6482930001802742,True,8,-1,0,13
Y2-S2-261K24,6,538,PS,exp,50,←,left,←,0.5805007996968925,True,8,1,1,14
Y2-S2-261K24,6,539,PS,exp,37,↑,up,↑,0.4345982000231743,True,7,1,0,14
Y2-S2-261K24,6,540,PS,exp,28,↓,left,←,0.5100038000382483,False,7,-1,1,15
Y2-S2-261K24,6,541,PS,exp,40,←,left,←,0.47920639999210835,True,8,-1,0,15
Y2-S2-261K24,6,542,PS,exp,36,↑,up,↑,0.49294420005753636,True,8,-1,0,15
Y2-S2-261K24,6,543,PS,exp,29,↓,down,↓,0.56856709998101,True,8,1,1,16
Y2-S2-261K24,7,544,PS,intra_train,39,→,right,→,0.4890379998832941,True,16,-,-,-
Y2-S2-261K24,7,545,PS,intra_train,38,↑,up,↑,0.45637149969115853,True,16,-,-,-
Y2-S2-261K24,7,546,PS,intra_train,42,←,left,←,0.6539711002260447,True,16,-,-,-
Y2-S2-261K24,7,547,PS,intra_train,33,↓,down,↓,0.5538968998007476,True,16,-,-,-
Y2-S2-261K24,7,548,PS,intra_train,35,←,left,←,1.2425220999866724,True,16,-,-,-
Y2-S2-261K24,7,549,PS,exp,27,→,right,→,0.5523006999865174,True,11,0,0,0
Y2-S2-261K24,7,550,PS,exp,28,←,left,←,0.5603152001276612,True,11,0,0,0
Y2-S2-261K24,7,551,PS,exp,43,↑,up,↑,0.5861202999949455,True,11,1,0,0
Y2-S2-261K24,7,552,PS,exp,42,→,right,→,0.49282640032470226,True,10,1,0,0
Y2-S2-261K24,7,553,PS,exp,31,↓,down,↓,0.5533552998676896,True,10,1,0,0
Y2-S2-261K24,7,554,PS,exp,39,→,left,←,0.7894842997193336,False,10,-1,1,1
Y2-S2-261K24,7,555,PS,exp,38,↑,up,↑,0.4487972999922931,True,11,-1,0,1
Y2-S2-261K24,7,556,PS,exp,31,←,left,←,0.488525299821049,True,11,-1,0,1
Y2-S2-261K24,7,557,PS,exp,47,→,right,→,0.46038360008969903,True,11,1,1,2
Y2-S2-261K24,7,558,PS,exp,30,↓,down,↓,0.5456773997284472,True,10,1,0,2
Y2-S2-261K24,7,559,PS,exp,29,↑,up,↑,0.38653789972886443,True,10,1,0,2
Y2-S2-261K24,7,560,PS,exp,31,←,left,←,0.4029592997394502,True,10,1,0,2
Y2-S2-261K24,7,561,PS,exp,34,↑,up,↑,0.4661417999304831,True,9,1,0,2
Y2-S2-261K24,7,562,PS,exp,40,→,right,→,0.5129459998570383,True,9,1,0,2
Y2-S2-261K24,7,563,PS,exp,30,↓,down,↓,0.6224082997068763,True,9,1,0,2
Y2-S2-261K24,7,564,PS,exp,41,→,right,→,0.522776999976486,True,8,1,0,2
Y2-S2-261K24,7,565,PS,exp,42,←,up,↑,0.6328857000917196,False,8,-1,1,3
Y2-S2-261K24,7,566,PS,exp,44,→,right,→,0.4564215000718832,True,9,-1,0,3
Y2-S2-261K24,7,567,PS,exp,46,←,left,←,0.5210138000547886,True,9,-1,0,3
Y2-S2-261K24,7,568,PS,exp,43,↑,up,↑,0.5473933001048863,True,9,1,1,4
Y2-S2-261K24,7,569,PS,exp,47,←,right,→,0.6407404001802206,False,8,-1,1,5
Y2-S2-261K24,7,570,PS,exp,44,→,right,→,0.5985409999266267,True,9,-1,0,5
Y2-S2-261K24,7,571,PS,exp,35,←,left,←,0.425547800026834,True,9,-1,0,5
Y2-S2-261K24,7,572,PS,exp,41,→,right,→,0.38555669970810413,True,9,1,1,6
Y2-S2-261K24,7,573,PS,exp,47,↑,up,↑,0.7381329997442663,True,8,1,0,6
Y2-S2-261K24,7,574,PS,exp,41,→,right,→,0.44860340002924204,True,8,1,0,6
Y2-S2-261K24,7,575,PS,exp,45,↑,up,↑,0.4292791998013854,True,8,1,0,6
Y2-S2-261K24,7,576,PS,exp,42,↓,down,↓,0.6709998003207147,True,7,1,0,6
Y2-S2-261K24,7,577,PS,exp,44,↑,up,↑,0.4505588002502918,True,7,1,0,6
Y2-S2-261K24,7,578,PS,exp,28,↓,down,↓,0.6239656000398099,True,7,1,0,6
Y2-S2-261K24,7,579,PS,exp,42,↑,up,↑,0.610075400210917,True,6,1,0,6
Y2-S2-261K24,7,580,PS,exp,26,→,right,→,0.42396200029179454,True,6,1,0,6
Y2-S2-261K24,7,581,PS,exp,31,↑,right,→,0.7223963998258114,False,6,-1,1,7
Y2-S2-261K24,7,582,PS,exp,26,↓,down,↓,0.5151713001541793,True,7,-1,0,7
Y2-S2-261K24,7,583,PS,exp,28,→,right,→,0.5368384001776576,True,7,-1,0,7
Y2-S2-261K24,7,584,PS,exp,42,↑,up,↑,0.46192550007253885,True,7,1,1,8
Y2-S2-261K24,7,585,PS,exp,36,↓,down,↓,0.690676299855113,True,6,1,0,8
Y2-S2-261K24,7,586,PS,exp,34,→,left,←,1.1916031003929675,False,6,-1,1,9
Y2-S2-261K24,7,587,PS,exp,35,↓,down,↓,0.5053089000284672,True,7,-1,0,9
Y2-S2-261K24,7,588,PS,exp,38,←,down,↓,0.693429899867624,False,7,-1,0,9
Y2-S2-261K24,7,589,PS,exp,40,↓,down,↓,0.5358992000110447,True,8,-1,0,9
Y2-S2-261K24,7,590,PS,exp,40,→,right,→,0.44413690036162734,True,8,-1,0,9
Y2-S2-261K24,7,591,PS,exp,32,←,left,←,0.6054928000085056,True,8,1,1,10
Y2-S2-261K24,7,592,PS,exp,31,→,right,→,0.701188599690795,True,7,1,0,10
Y2-S2-261K24,7,593,PS,exp,30,↓,down,↓,0.5738358004018664,True,7,1,0,10
Y2-S2-261K24,7,594,PS,exp,35,↑,right,→,0.5411666999571025,False,7,-1,1,11
Y2-S2-261K24,7,595,PS,exp,44,→,right,→,0.6164275002665818,True,8,-1,0,11
Y2-S2-261K24,7,596,PS,exp,26,↑,up,↑,0.6841724999248981,True,8,-1,0,11
Y2-S2-261K24,7,597,PS,exp,47,→,right,→,0.48374779988080263,True,8,1,1,12
Y2-S2-261K24,7,598,PS,exp,34,↑,right,→,0.7546099997125566,False,7,-1,1,13
Y2-S2-261K24,7,599,PS,exp,48,←,left,←,0.41021909983828664,True,8,-1,0,13
Y2-S2-261K24,7,600,PS,exp,50,↓,down,↓,0.5868007000535727,True,8,-1,0,13
Y2-S2-261K24,7,601,PS,exp,36,→,left,←,0.5639733001589775,False,8,-1,0,13
Y2-S2-261K24,7,602,PS,exp,30,↑,right,→,0.41804710030555725,False,9,-1,0,13
Y2-S2-261K24,7,603,PS,exp,40,→,right,→,0.4724555998109281,True,10,-1,0,13
Y2-S2-261K24,7,604,PS,exp,36,↓,down,↓,0.5882117999717593,True,10,-1,0,13
Y2-S2-261K24,7,605,PS,exp,37,↑,up,↑,0.4532314999960363,True,10,1,1,14
Y2-S2-261K24,7,606,PS,exp,34,←,left,←,0.4073087996803224,True,9,1,0,14
Y2-S2-261K24,7,607,PS,exp,46,→,right,→,0.5184700000099838,True,9,1,0,14
Y2-S2-261K24,7,608,PS,exp,34,←,left,←,0.6368196997791529,True,9,1,0,14
Y2-S2-261K24,7,609,PS,exp,39,→,right,→,0.4589595999568701,True,8,1,0,14
Y2-S2-261K24,7,610,PS,exp,29,←,right,→,0.9160890998318791,False,8,-1,1,15
Y2-S2-261K24,7,611,PS,exp,26,↓,down,↓,0.6587964999489486,True,9,-1,0,15
Y2-S2-261K24,7,612,PS,exp,46,→,right,→,0.49743019975721836,True,9,-1,0,15
Y2-S2-261K24,7,613,PS,exp,39,↑,up,↑,0.46125549962744117,True,9,1,1,16
Y2-S2-261K24,8,614,AS,intra_train,38,→,right,→,0.652838799636811,True,25,-,-,-
Y2-S2-261K24,8,615,AS,intra_train,29,↑,up,↑,0.729375199880451,True,25,-,-,-
Y2-S2-261K24,8,616,AS,intra_train,29,↓,down,↓,0.8189023002050817,True,25,-,-,-
Y2-S2-261K24,8,617,AS,intra_train,43,→,right,→,0.8500552996993065,True,25,-,-,-
Y2-S2-261K24,8,618,AS,intra_train,45,↓,down,↓,1.3666319996118546,True,25,-,-,-
Y2-S2-261K24,8,619,AS,exp,50,←,left,←,0.5017321999184787,True,17,0,0,0
Y2-S2-261K24,8,620,AS,exp,46,→,right,→,0.5541451997123659,True,17,0,0,0
Y2-S2-261K24,8,621,AS,exp,36,←,left,←,0.6774388998746872,True,17,1,0,0
Y2-S2-261K24,8,622,AS,exp,46,↓,down,↓,0.7269731000997126,True,16,1,0,0
Y2-S2-261K24,8,623,AS,exp,46,←,left,←,0.6089904000982642,True,16,1,0,0
Y2-S2-261K24,8,624,AS,exp,36,→,right,→,0.6485776002518833,True,16,1,0,0
Y2-S2-261K24,8,625,AS,exp,38,↓,up,↑,1.2688634996302426,False,15,-1,1,1
Y2-S2-261K24,8,626,AS,exp,44,←,left,←,0.4459797996096313,True,16,-1,0,1
Y2-S2-261K24,8,627,AS,exp,34,↑,down,↓,0.7039542002603412,False,16,-1,0,1
Y2-S2-261K24,8,628,AS,exp,45,→,right,→,0.6971136997453868,True,17,-1,0,1
Y2-S2-261K24,8,629,AS,exp,39,←,right,→,0.864476699847728,False,17,-1,0,1
Y2-S2-261K24,8,630,AS,exp,50,→,right,→,0.6272044996730983,True,18,-1,0,1
Y2-S2-261K24,8,631,AS,exp,45,↓,down,↓,0.5692630000412464,True,18,-1,0,1
Y2-S2-261K24,8,632,AS,exp,27,→,right,→,0.505449999589473,True,18,1,1,2
Y2-S2-261K24,8,633,AS,exp,36,←,left,←,0.954144099727273,True,17,1,0,2
Y2-S2-261K24,8,634,AS,exp,43,↓,down,↓,0.5584268001839519,True,17,1,0,2
Y2-S2-261K24,8,635,AS,exp,50,↑,up,↑,0.8443712000735104,True,17,1,0,2
Y2-S2-261K24,8,636,AS,exp,39,←,left,←,0.4957933002151549,True,16,1,0,2
Y2-S2-261K24,8,637,AS,exp,26,↓,down,↓,0.7212733998894691,True,16,1,0,2
Y2-S2-261K24,8,638,AS,exp,42,↑,down,↓,0.7551885000430048,False,16,-1,1,3
Y2-S2-261K24,8,639,AS,exp,44,→,right,→,0.573299499694258,True,17,-1,0,3
Y2-S2-261K24,8,640,AS,exp,40,←,left,←,0.5411445996724069,True,17,-1,0,3
Y2-S2-261K24,8,641,AS,exp,44,↑,right,→,0.7588511998765171,False,17,-1,0,3
Y2-S2-261K24,8,642,AS,exp,25,→,right,→,0.5466211996972561,True,18,-1,0,3
Y2-S2-261K24,8,643,AS,exp,48,↓,down,↓,0.6591206998564303,True,18,-1,0,3
Y2-S2-261K24,8,644,AS,exp,40,←,left,←,0.5683271000161767,True,18,1,1,4
Y2-S2-261K24,8,645,AS,exp,33,↓,down,↓,0.5138481999747455,True,17,1,0,4
Y2-S2-261K24,8,646,AS,exp,47,←,down,↓,0.6908208997920156,False,17,-1,1,5
Y2-S2-261K24,8,647,AS,exp,36,↓,down,↓,0.6395601998083293,True,18,-1,0,5
Y2-S2-261K24,8,648,AS,exp,48,↑,up,↑,1.6765220002271235,True,18,-1,0,5
Y2-S2-261K24,8,649,AS,exp,26,↓,down,↓,0.5805230000987649,True,18,1,1,6
Y2-S2-261K24,8,650,AS,exp,35,←,left,←,0.6169033003970981,True,17,1,0,6
Y2-S2-261K24,8,651,AS,exp,33,→,right,→,0.5335389003157616,True,17,1,0,6
Y2-S2-261K24,8,652,AS,exp,49,←,left,←,0.7045366000384092,True,17,1,0,6
Y2-S2-261K24,8,653,AS,exp,42,↑,up,↑,0.4911970002576709,True,16,1,0,6
Y2-S2-261K24,8,654,AS,exp,43,→,right,→,0.6996257998980582,True,16,1,0,6
Y2-S2-261K24,8,655,AS,exp,42,↓,down,↓,0.6781917996704578,True,16,1,0,6
Y2-S2-261K24,8,656,AS,exp,42,↑,right,→,0.653127099853009,False,15,-1,1,7
Y2-S2-261K24,8,657,AS,exp,33,←,left,←,0.6987633998505771,True,16,-1,0,7
Y2-S2-261K24,8,658,AS,exp,47,↑,up,↑,0.5187979997135699,True,16,-1,0,7
Y2-S2-261K24,8,659,AS,exp,50,↓,down,↓,0.7117681000381708,True,16,1,1,8
Y2-S2-261K24,8,660,AS,exp,49,←,left,←,0.5793345998972654,True,15,1,0,8
Y2-S2-261K24,8,661,AS,exp,42,↑,up,↑,0.593370399903506,True,15,1,0,8
Y2-S2-261K24,8,662,AS,exp,37,↓,down,↓,0.5782627002336085,True,15,1,0,8
Y2-S2-261K24,8,663,AS,exp,38,←,right,→,1.1522898999974132,False,14,-1,1,9
Y2-S2-261K24,8,664,AS,exp,47,→,right,→,0.6015371000394225,True,15,-1,0,9
Y2-S2-261K24,8,665,AS,exp,37,↑,up,↑,0.9373608999885619,True,15,-1,0,9
Y2-S2-261K24,8,666,AS,exp,36,←,left,←,0.6717245997861028,True,15,1,1,10
Y2-S2-261K24,8,667,AS,exp,27,↑,up,↑,0.5335172000341117,True,14,1,0,10
Y2-S2-261K24,8,668,AS,exp,33,→,right,→,0.6783972000703216,True,14,1,0,10
Y2-S2-261K24,8,669,AS,exp,32,↓,down,↓,0.6505489000119269,True,14,1,0,10
Y2-S2-261K24,8,670,AS,exp,34,←,left,←,0.5989899002015591,True,13,1,0,10
Y2-S2-261K24,8,671,AS,exp,25,↓,down,↓,0.6026643002405763,True,13,1,0,10
Y2-S2-261K24,8,672,AS,exp,28,←,up,↑,0.9116607001051307,False,13,-1,1,11
Y2-S2-261K24,8,673,AS,exp,40,↑,down,↓,0.7790875001810491,False,14,-1,0,11
Y2-S2-261K24,8,674,AS,exp,29,→,left,←,0.5248606000095606,False,15,-1,0,11
Y2-S2-261K24,8,675,AS,exp,32,↑,up,↑,0.5704055996611714,True,16,-1,0,11
Y2-S2-261K24,8,676,AS,exp,45,←,left,←,0.7744557997211814,True,16,-1,0,11
Y2-S2-261K24,8,677,AS,exp,48,→,right,→,0.60896490002051,True,16,1,1,12
Y2-S2-261K24,8,678,AS,exp,29,↑,up,↑,0.587571700103581,True,15,1,0,12
Y2-S2-261K24,8,679,AS,exp,48,←,down,↓,1.0820317999459803,False,15,-1,1,13
Y2-S2-261K24,8,680,AS,exp,27,↓,down,↓,0.5922337002120912,True,16,-1,0,13
Y2-S2-261K24,8,681,AS,exp,25,→,right,→,0.5449665999040008,True,16,-1,0,13
Y2-S2-261K24,8,682,AS,exp,39,↓,up,↑,0.8393990998156369,False,16,-1,0,13
Y2-S2-261K24,8,683,AS,exp,36,→,up,↑,0.7337807998992503,False,17,-1,0,13
Y2-S2-261K24,8,684,AS,exp,25,←,right,→,0.6239419002085924,False,18,-1,0,13
Y2-S2-261K24,8,685,AS,exp,45,↑,up,↑,0.9428500002250075,True,19,-1,0,13
Y2-S2-261K24,8,686,AS,exp,46,→,up,↑,0.7450111000798643,False,19,-1,0,13
Y2-S2-261K24,8,687,AS,exp,26,↑,up,↑,0.4506653002463281,True,20,-1,0,13
Y2-S2-261K24,8,688,AS,exp,41,←,right,→,0.6703670001588762,False,20,-1,0,13
Y2-S2-261K24,8,689,AS,exp,39,↓,right,→,0.5775065999478102,False,21,-1,0,13
Y2-S2-261K24,8,690,AS,exp,46,←,left,←,0.6387508995831013,True,22,-1,0,13
Y2-S2-261K24,8,691,AS,exp,46,→,right,→,0.7228978001512587,True,22,-1,0,13
Y2-S2-261K24,8,692,AS,exp,42,↓,down,↓,0.6041275998577476,True,22,1,1,14
Y2-S2-261K24,8,693,AS,exp,28,←,left,←,0.8310119998641312,True,21,1,0,14
Y2-S2-261K24,8,694,AS,exp,42,↓,down,↓,0.4507606001570821,True,21,1,0,14
Y2-S2-261K24,8,695,AS,exp,39,←,left,←,0.4838156998157501,True,21,1,0,14
Y2-S2-261K24,8,696,AS,exp,40,↑,up,↑,0.8280282001942396,True,20,1,0,14
Y2-S2-261K24,8,697,AS,exp,48,←,left,←,0.6876540002413094,True,20,1,0,14
Y2-S2-261K24,8,698,AS,exp,25,↓,down,↓,0.6628961996175349,True,20,1,0,14
Y2-S2-261K24,8,699,AS,exp,43,←,left,←,1.803621199913323,True,19,1,0,14
Y2-S2-261K24,8,700,AS,exp,26,↑,up,↑,1.7231029998511076,True,19,1,0,14
Y2-S2-261K24,8,701,AS,exp,31,←,left,←,0.6959966002032161,True,19,1,0,14
Y2-S2-261K24,8,702,AS,exp,36,↓,down,↓,0.4763647997751832,True,18,1,0,14
Y2-S2-261K24,8,703,AS,exp,32,←,left,←,0.5242089000530541,True,18,1,0,14
Y2-S2-261K24,8,704,AS,exp,48,↑,up,↑,0.4882760997861624,True,18,1,0,14
Y2-S2-261K24,8,705,AS,exp,30,←,left,←,0.5047955997288227,True,17,1,0,14
Y2-S2-261K24,8,706,AS,exp,32,↑,up,↑,0.850963500328362,True,17,1,0,14
Y2-S2-261K24,8,707,AS,exp,37,↓,down,↓,0.46458160039037466,True,17,1,0,14
Y2-S2-261K24,8,708,AS,exp,27,↑,up,↑,0.8694869996979833,True,16,1,0,14
Y2-S2-261K24,8,709,AS,exp,49,→,right,→,0.6865475997328758,True,16,1,0,14
Y2-S2-261K24,8,710,AS,exp,31,↑,up,↑,0.5888460003770888,True,16,1,0,14
Y2-S2-261K24,8,711,AS,exp,33,←,right,→,0.6949155000038445,False,15,-1,1,15
Y2-S2-261K24,8,712,AS,exp,46,→,right,→,0.6866147997789085,True,16,-1,0,15
Y2-S2-261K24,8,713,AS,exp,26,↑,up,↑,0.5479589998722076,True,16,-1,0,15
Y2-S2-261K24,8,714,AS,exp,44,→,right,→,0.49600869975984097,True,16,1,1,16
