PART_ID,Block_no,Trial_no,Block_type,Trial_type,CSI,Stim_letter,Key_pressed,letter_choose,Rt,Corr,Stimulus Time,Level,Reversal,Revs_count
Y2-S2-276K20,1,1,PS,train,50,←,left,←,0.6913160001859069,True,30,-,-,-
Y2-S2-276K20,1,2,PS,train,33,↓,down,↓,0.7558135003782809,True,30,-,-,-
Y2-S2-276K20,1,3,PS,train,26,←,left,←,0.5004107998684049,True,30,-,-,-
Y2-S2-276K20,1,4,PS,train,32,→,right,→,0.7212426997721195,True,30,-,-,-
Y2-S2-276K20,1,5,PS,train,33,↓,down,↓,0.8013859000056982,True,30,-,-,-
Y2-S2-276K20,1,6,PS,train,46,→,right,→,0.6009436002932489,True,30,-,-,-
Y2-S2-276K20,1,7,PS,train,49,↓,down,↓,0.8453675000928342,True,30,-,-,-
Y2-S2-276K20,1,8,PS,train,30,→,right,→,0.7008771002292633,True,30,-,-,-
Y2-S2-276K20,1,9,PS,train,35,↓,down,↓,0.8783932002261281,True,30,-,-,-
Y2-S2-276K20,1,10,PS,train,32,→,right,→,0.4509372003376484,True,30,-,-,-
Y2-S2-276K20,2,11,AS,train,46,↓,down,↓,0.7842236999422312,True,45,-,-,-
Y2-S2-276K20,2,12,AS,train,30,→,right,→,0.6343690003268421,True,45,-,-,-
Y2-S2-276K20,2,13,AS,train,41,↑,up,↑,1.6538323001004755,True,45,-,-,-
Y2-S2-276K20,2,14,AS,train,47,↓,down,↓,0.884033199865371,True,45,-,-,-
Y2-S2-276K20,2,15,AS,train,38,←,left,←,0.734120599925518,True,45,-,-,-
Y2-S2-276K20,2,16,AS,train,25,↑,up,↑,1.3130819001235068,True,45,-,-,-
Y2-S2-276K20,2,17,AS,train,45,↓,down,↓,1.3168158000335097,True,45,-,-,-
Y2-S2-276K20,2,18,AS,train,38,→,right,→,0.651205400004983,True,45,-,-,-
Y2-S2-276K20,2,19,AS,train,42,↓,down,↓,0.8839651001617312,True,45,-,-,-
Y2-S2-276K20,2,20,AS,train,26,↑,up,↑,1.017049300018698,True,45,-,-,-
Y2-S2-276K20,-,21,PS,adaptive,45,→,right,→,0.7045726999640465,True,10,0,0,0
Y2-S2-276K20,-,22,PS,adaptive,41,↑,up,↑,0.8399929003790021,True,10,0,0,0
Y2-S2-276K20,-,23,PS,adaptive,29,←,no_key,no_letter,-1.0,False,10,-1,0,0
Y2-S2-276K20,-,24,PS,adaptive,38,→,left,←,1.0336739998310804,False,11,-1,0,0
Y2-S2-276K20,-,25,PS,adaptive,44,↓,down,↓,0.77143540000543,True,12,-1,0,0
Y2-S2-276K20,-,26,PS,adaptive,48,←,right,→,1.1812583999708295,False,12,-1,0,0
Y2-S2-276K20,-,27,PS,adaptive,36,↑,up,↑,0.8290944998152554,True,13,-1,0,0
Y2-S2-276K20,-,28,PS,adaptive,35,→,right,→,0.6856366000138223,True,13,-1,0,0
Y2-S2-276K20,-,29,PS,adaptive,40,↓,down,↓,0.7096054004505277,True,13,1,1,1
Y2-S2-276K20,-,30,PS,adaptive,33,←,right,→,0.9589021001011133,False,12,-1,1,2
Y2-S2-276K20,-,31,PS,adaptive,28,↓,down,↓,0.7367345001548529,True,13,-1,0,2
Y2-S2-276K20,-,32,PS,adaptive,44,←,left,←,0.4784220000728965,True,13,-1,0,2
Y2-S2-276K20,-,33,PS,adaptive,33,↑,up,↑,0.9010863997973502,True,13,1,1,3
Y2-S2-276K20,-,34,PS,adaptive,47,←,left,←,0.4095949004404247,True,12,1,0,3
Y2-S2-276K20,-,35,PS,adaptive,27,↑,up,↑,0.8391291000880301,True,12,1,0,3
Y2-S2-276K20,-,36,PS,adaptive,38,↓,up,↑,1.1478700996376574,False,12,-1,1,4
Y2-S2-276K20,-,37,AS,adaptive,49,←,left,←,0.5751618002541363,True,20,0,0,0
Y2-S2-276K20,-,38,AS,adaptive,50,↑,up,↑,0.8859188999049366,True,20,0,0,0
Y2-S2-276K20,-,39,AS,adaptive,30,↓,down,↓,0.7978242002427578,True,20,1,0,0
Y2-S2-276K20,-,40,AS,adaptive,25,→,right,→,0.7205692999996245,True,19,1,0,0
Y2-S2-276K20,-,41,AS,adaptive,31,←,left,←,0.7481338996440172,True,19,1,0,0
Y2-S2-276K20,-,42,AS,adaptive,41,↓,down,↓,0.9530990999191999,True,19,1,0,0
Y2-S2-276K20,-,43,AS,adaptive,42,→,right,→,0.6626446000300348,True,18,1,0,0
Y2-S2-276K20,-,44,AS,adaptive,34,←,right,→,0.9670057999901474,False,18,-1,1,1
Y2-S2-276K20,-,45,AS,adaptive,50,↑,up,↑,1.0724490997381508,True,19,-1,0,1
Y2-S2-276K20,-,46,AS,adaptive,43,→,right,→,0.6353025999851525,True,19,-1,0,1
Y2-S2-276K20,-,47,AS,adaptive,42,←,left,←,0.8324217000044882,True,19,1,1,2
Y2-S2-276K20,-,48,AS,adaptive,33,↑,up,↑,1.1273476998321712,True,18,1,0,2
Y2-S2-276K20,-,49,AS,adaptive,38,←,left,←,0.795874500181526,True,18,1,0,2
Y2-S2-276K20,-,50,AS,adaptive,46,→,right,→,0.7930465000681579,True,18,1,0,2
Y2-S2-276K20,-,51,AS,adaptive,29,←,left,←,0.7094211000949144,True,17,1,0,2
Y2-S2-276K20,-,52,AS,adaptive,49,↓,down,↓,0.7414465001784265,True,17,1,0,2
Y2-S2-276K20,-,53,AS,adaptive,42,↑,up,↑,0.8450239999219775,True,17,1,0,2
Y2-S2-276K20,-,54,AS,adaptive,25,←,right,→,0.935150200035423,False,16,-1,1,3
Y2-S2-276K20,-,55,AS,adaptive,46,→,right,→,0.6694669001735747,True,17,-1,0,3
Y2-S2-276K20,-,56,AS,adaptive,39,←,left,←,0.754508700221777,True,17,-1,0,3
Y2-S2-276K20,-,57,AS,adaptive,27,↑,up,↑,0.7856203997507691,True,17,1,1,4
Y2-S2-276K20,1,58,PS,intra_train,43,←,no_key,no_letter,-1.0,False,19,-,-,-
Y2-S2-276K20,1,59,PS,intra_train,39,→,right,→,0.7015344998799264,True,19,-,-,-
Y2-S2-276K20,1,60,PS,intra_train,47,↑,up,↑,0.9054878000169992,True,19,-,-,-
Y2-S2-276K20,1,61,PS,intra_train,25,↓,down,↓,0.8487432999536395,True,19,-,-,-
Y2-S2-276K20,1,62,PS,intra_train,45,→,right,→,0.5669880001805723,True,19,-,-,-
Y2-S2-276K20,1,63,PS,exp,34,←,left,←,0.7186222998425364,True,13,0,0,0
Y2-S2-276K20,1,64,PS,exp,39,↓,down,↓,0.7174627003259957,True,13,0,0,0
Y2-S2-276K20,1,65,PS,exp,34,→,right,→,0.46966669987887144,True,13,1,0,0
Y2-S2-276K20,1,66,PS,exp,36,←,left,←,0.5089661995880306,True,12,1,0,0
Y2-S2-276K20,1,67,PS,exp,37,↓,down,↓,0.8761563999578357,True,12,1,0,0
Y2-S2-276K20,1,68,PS,exp,29,←,left,←,0.4901327001862228,True,12,1,0,0
Y2-S2-276K20,1,69,PS,exp,41,→,down,↓,0.83414960000664,False,11,-1,1,1
Y2-S2-276K20,1,70,PS,exp,33,↓,down,↓,0.7104512001387775,True,12,-1,0,1
Y2-S2-276K20,1,71,PS,exp,35,←,right,→,0.6300893998704851,False,12,-1,0,1
Y2-S2-276K20,1,72,PS,exp,30,↓,down,↓,0.5942178000696003,True,13,-1,0,1
Y2-S2-276K20,1,73,PS,exp,41,↑,up,↑,0.7984282001852989,True,13,-1,0,1
Y2-S2-276K20,1,74,PS,exp,49,←,left,←,0.5117657002992928,True,13,1,1,2
Y2-S2-276K20,1,75,PS,exp,36,↓,down,↓,0.6872672997415066,True,12,1,0,2
Y2-S2-276K20,1,76,PS,exp,44,←,left,←,0.49454510025680065,True,12,1,0,2
Y2-S2-276K20,1,77,PS,exp,33,↓,down,↓,0.7997647002339363,True,12,1,0,2
Y2-S2-276K20,1,78,PS,exp,49,←,left,←,0.4050352000631392,True,11,1,0,2
Y2-S2-276K20,1,79,PS,exp,42,↓,down,↓,0.7748865000903606,True,11,1,0,2
Y2-S2-276K20,1,80,PS,exp,40,←,left,←,0.8413808001205325,True,11,1,0,2
Y2-S2-276K20,1,81,PS,exp,41,→,right,→,0.8654467999003828,True,10,1,0,2
Y2-S2-276K20,1,82,PS,exp,44,↑,up,↑,0.7850331999361515,True,10,1,0,2
Y2-S2-276K20,1,83,PS,exp,32,←,left,←,0.5249717002734542,True,10,1,0,2
Y2-S2-276K20,1,84,PS,exp,49,↑,up,↑,0.651146600022912,True,9,1,0,2
Y2-S2-276K20,1,85,PS,exp,49,→,left,←,0.7701339996419847,False,9,-1,1,3
Y2-S2-276K20,1,86,PS,exp,39,↓,down,↓,0.76310950005427,True,10,-1,0,3
Y2-S2-276K20,1,87,PS,exp,41,→,right,→,0.579693800304085,True,10,-1,0,3
Y2-S2-276K20,1,88,PS,exp,36,↑,right,→,0.6114619998261333,False,10,-1,0,3
Y2-S2-276K20,1,89,PS,exp,44,→,right,→,0.5813528001308441,True,11,-1,0,3
Y2-S2-276K20,1,90,PS,exp,37,↑,up,↑,0.662325699813664,True,11,-1,0,3
Y2-S2-276K20,1,91,PS,exp,34,→,right,→,0.5641148001886904,True,11,1,1,4
Y2-S2-276K20,1,92,PS,exp,30,↑,up,↑,0.598318500444293,True,10,1,0,4
Y2-S2-276K20,1,93,PS,exp,39,←,left,←,0.68741500005126,True,10,1,0,4
Y2-S2-276K20,1,94,PS,exp,30,→,right,→,0.5369116999208927,True,10,1,0,4
Y2-S2-276K20,1,95,PS,exp,25,←,right,→,0.6809588000178337,False,9,-1,1,5
Y2-S2-276K20,1,96,PS,exp,30,↑,up,↑,0.648836299777031,True,10,-1,0,5
Y2-S2-276K20,1,97,PS,exp,43,↓,down,↓,0.7806098996661603,True,10,-1,0,5
Y2-S2-276K20,1,98,PS,exp,29,→,left,←,0.8843398001044989,False,10,-1,0,5
Y2-S2-276K20,1,99,PS,exp,47,↓,down,↓,0.6123958001844585,True,11,-1,0,5
Y2-S2-276K20,1,100,PS,exp,47,←,down,↓,0.7884317999705672,False,11,-1,0,5
Y2-S2-276K20,1,101,PS,exp,34,→,right,→,0.42305599991232157,True,12,-1,0,5
Y2-S2-276K20,1,102,PS,exp,26,←,left,←,0.46130389999598265,True,12,-1,0,5
Y2-S2-276K20,1,103,PS,exp,50,↓,down,↓,0.6391380997374654,True,12,1,1,6
Y2-S2-276K20,1,104,PS,exp,29,↑,right,→,0.8752460000105202,False,11,-1,1,7
Y2-S2-276K20,1,105,PS,exp,42,↓,down,↓,0.7873550998046994,True,12,-1,0,7
Y2-S2-276K20,1,106,PS,exp,48,←,left,←,0.5805321000516415,True,12,-1,0,7
Y2-S2-276K20,1,107,PS,exp,32,↑,up,↑,0.6523080002516508,True,12,1,1,8
Y2-S2-276K20,1,108,PS,exp,28,→,right,→,0.5542080998420715,True,11,1,0,8
Y2-S2-276K20,1,109,PS,exp,44,←,left,←,0.547936700284481,True,11,1,0,8
Y2-S2-276K20,1,110,PS,exp,41,↑,right,→,0.8237703996710479,False,11,-1,1,9
Y2-S2-276K20,1,111,PS,exp,32,←,left,←,0.4929039999842644,True,12,-1,0,9
Y2-S2-276K20,1,112,PS,exp,32,→,right,→,0.5225721998140216,True,12,-1,0,9
Y2-S2-276K20,1,113,PS,exp,34,←,left,←,0.43657360039651394,True,12,1,1,10
Y2-S2-276K20,1,114,PS,exp,32,→,right,→,0.5517418999224901,True,11,1,0,10
Y2-S2-276K20,1,115,PS,exp,32,↓,down,↓,0.6687237001024187,True,11,1,0,10
Y2-S2-276K20,1,116,PS,exp,30,↑,up,↑,0.5701686996035278,True,11,1,0,10
Y2-S2-276K20,1,117,PS,exp,26,←,left,←,0.43123639980331063,True,10,1,0,10
Y2-S2-276K20,1,118,PS,exp,43,→,right,→,0.40885729994624853,True,10,1,0,10
Y2-S2-276K20,1,119,PS,exp,28,↓,down,↓,0.5882871998474002,True,10,1,0,10
Y2-S2-276K20,1,120,PS,exp,40,→,left,←,0.9116952000185847,False,9,-1,1,11
Y2-S2-276K20,1,121,PS,exp,49,←,left,←,0.47985529992729425,True,10,-1,0,11
Y2-S2-276K20,1,122,PS,exp,36,↓,right,→,0.9744672002270818,False,10,-1,0,11
Y2-S2-276K20,1,123,PS,exp,30,↑,up,↑,0.6435079001821578,True,11,-1,0,11
Y2-S2-276K20,1,124,PS,exp,43,↓,down,↓,0.685519099701196,True,11,-1,0,11
Y2-S2-276K20,1,125,PS,exp,45,↑,up,↑,0.5966853001154959,True,11,1,1,12
Y2-S2-276K20,1,126,PS,exp,50,←,left,←,0.5418377001769841,True,10,1,0,12
Y2-S2-276K20,1,127,PS,exp,30,↑,up,↑,0.6508557996712625,True,10,1,0,12
Y2-S2-276K20,1,128,PS,exp,35,↓,down,↓,0.6682680998928845,True,10,1,0,12
Y2-S2-276K20,1,129,PS,exp,48,←,left,←,0.5361694996245205,True,9,1,0,12
Y2-S2-276K20,1,130,PS,exp,37,↓,left,←,0.8009020001627505,False,9,-1,1,13
Y2-S2-276K20,1,131,PS,exp,27,↑,down,↓,0.7914626002311707,False,10,-1,0,13
Y2-S2-276K20,1,132,PS,exp,40,←,left,←,0.4755966002121568,True,11,-1,0,13
Y2-S2-276K20,1,133,PS,exp,45,→,right,→,0.6230633999221027,True,11,-1,0,13
Y2-S2-276K20,1,134,PS,exp,45,↓,right,→,0.5094536002725363,False,11,-1,0,13
Y2-S2-276K20,1,135,PS,exp,34,→,right,→,0.4666705997660756,True,12,-1,0,13
Y2-S2-276K20,1,136,PS,exp,36,↑,left,←,0.6364939999766648,False,12,-1,0,13
Y2-S2-276K20,1,137,PS,exp,42,→,right,→,0.5234715999104083,True,13,-1,0,13
Y2-S2-276K20,1,138,PS,exp,33,↑,up,↑,0.5958252996206284,True,13,-1,0,13
Y2-S2-276K20,1,139,PS,exp,49,→,right,→,0.5391338001936674,True,13,1,1,14
Y2-S2-276K20,1,140,PS,exp,28,←,left,←,0.43109090020880103,True,12,1,0,14
Y2-S2-276K20,1,141,PS,exp,29,↓,down,↓,0.6863128999248147,True,12,1,0,14
Y2-S2-276K20,1,142,PS,exp,28,↑,up,↑,0.5388568001799285,True,12,1,0,14
Y2-S2-276K20,1,143,PS,exp,26,→,right,→,0.5139024001546204,True,11,1,0,14
Y2-S2-276K20,1,144,PS,exp,45,↓,down,↓,1.1531903999857605,True,11,1,0,14
Y2-S2-276K20,1,145,PS,exp,33,↑,up,↑,0.49633749993517995,True,11,1,0,14
Y2-S2-276K20,1,146,PS,exp,30,←,left,←,0.40770950028672814,True,10,1,0,14
Y2-S2-276K20,1,147,PS,exp,47,↓,down,↓,0.590266200248152,True,10,1,0,14
Y2-S2-276K20,1,148,PS,exp,25,←,left,←,0.44557169964537024,True,10,1,0,14
Y2-S2-276K20,1,149,PS,exp,38,→,right,→,0.8208384001627564,True,9,1,0,14
Y2-S2-276K20,1,150,PS,exp,28,↑,up,↑,0.5280007999390364,True,9,1,0,14
Y2-S2-276K20,1,151,PS,exp,45,←,left,←,0.5445074001327157,True,9,1,0,14
Y2-S2-276K20,1,152,PS,exp,32,↑,up,↑,0.5619814000092447,True,8,1,0,14
Y2-S2-276K20,1,153,PS,exp,26,↓,down,↓,0.740973699837923,True,8,1,0,14
Y2-S2-276K20,1,154,PS,exp,43,←,left,←,0.5410941001027822,True,8,1,0,14
Y2-S2-276K20,1,155,PS,exp,35,↓,down,↓,0.7939583002589643,True,7,1,0,14
Y2-S2-276K20,1,156,PS,exp,44,↑,down,↓,0.6688068998046219,False,7,-1,1,15
Y2-S2-276K20,1,157,PS,exp,41,↓,left,←,0.8016995000652969,False,8,-1,0,15
Y2-S2-276K20,1,158,PS,exp,41,→,down,↓,0.7293674000538886,False,9,-1,0,15
Y2-S2-276K20,1,159,PS,exp,47,↓,no_key,no_letter,-1.0,False,10,-1,0,15
Y2-S2-276K20,1,160,PS,exp,33,↑,up,↑,0.7167083998210728,True,11,-1,0,15
Y2-S2-276K20,1,161,PS,exp,36,→,right,→,0.6908187996596098,True,11,-1,0,15
Y2-S2-276K20,1,162,PS,exp,40,↓,down,↓,0.616227500140667,True,11,1,1,16
Y2-S2-276K20,2,163,AS,intra_train,27,→,right,→,0.7526925001293421,True,24,-,-,-
Y2-S2-276K20,2,164,AS,intra_train,45,←,left,←,0.7574823000468314,True,24,-,-,-
Y2-S2-276K20,2,165,AS,intra_train,38,↓,down,↓,0.7992175999097526,True,24,-,-,-
Y2-S2-276K20,2,166,AS,intra_train,47,←,left,←,0.7875497997738421,True,24,-,-,-
Y2-S2-276K20,2,167,AS,intra_train,33,↑,up,↑,0.9416773002594709,True,24,-,-,-
Y2-S2-276K20,2,168,AS,exp,47,↓,down,↓,0.7773897000588477,True,16,0,0,0
Y2-S2-276K20,2,169,AS,exp,32,↑,down,↓,1.1096101999282837,False,16,-1,0,0
Y2-S2-276K20,2,170,AS,exp,48,↓,down,↓,0.6938239000737667,True,17,-1,0,0
Y2-S2-276K20,2,171,AS,exp,41,↑,up,↑,0.8995101000182331,True,17,-1,0,0
Y2-S2-276K20,2,172,AS,exp,46,→,right,→,1.0997462999075651,True,17,1,1,1
Y2-S2-276K20,2,173,AS,exp,38,↓,down,↓,0.8237668997608125,True,16,1,0,1
Y2-S2-276K20,2,174,AS,exp,41,↑,left,←,0.91288570035249,False,16,-1,1,2
Y2-S2-276K20,2,175,AS,exp,29,↓,down,↓,0.6201005997136235,True,17,-1,0,2
Y2-S2-276K20,2,176,AS,exp,28,↑,up,↑,0.8818557001650333,True,17,-1,0,2
Y2-S2-276K20,2,177,AS,exp,41,←,down,↓,0.856033000163734,False,17,-1,0,2
Y2-S2-276K20,2,178,AS,exp,36,↓,no_key,no_letter,-1.0,False,18,-1,0,2
Y2-S2-276K20,2,179,AS,exp,42,→,right,→,0.7595370002090931,True,19,-1,0,2
Y2-S2-276K20,2,180,AS,exp,25,↓,down,↓,0.8267826996743679,True,19,-1,0,2
Y2-S2-276K20,2,181,AS,exp,45,←,left,←,0.5273883999325335,True,19,1,1,3
Y2-S2-276K20,2,182,AS,exp,49,↑,up,↑,0.7958901999518275,True,18,1,0,3
Y2-S2-276K20,2,183,AS,exp,29,→,right,→,0.5741328001022339,True,18,1,0,3
Y2-S2-276K20,2,184,AS,exp,47,←,left,←,0.5398948998190463,True,18,1,0,3
Y2-S2-276K20,2,185,AS,exp,35,↑,up,↑,1.3039224999956787,True,17,1,0,3
Y2-S2-276K20,2,186,AS,exp,28,→,right,→,0.48008389957249165,True,17,1,0,3
Y2-S2-276K20,2,187,AS,exp,37,↓,down,↓,0.8361164000816643,True,17,1,0,3
Y2-S2-276K20,2,188,AS,exp,33,↑,right,→,0.9541258998215199,False,16,-1,1,4
Y2-S2-276K20,2,189,AS,exp,37,↓,left,←,1.1274200999177992,False,17,-1,0,4
Y2-S2-276K20,2,190,AS,exp,27,↑,up,↑,0.9217797997407615,True,18,-1,0,4
Y2-S2-276K20,2,191,AS,exp,42,←,left,←,0.5796185000799596,True,18,-1,0,4
Y2-S2-276K20,2,192,AS,exp,46,↑,up,↑,0.7540044002234936,True,18,1,1,5
Y2-S2-276K20,2,193,AS,exp,47,→,left,←,0.9226313000544906,False,17,-1,1,6
Y2-S2-276K20,2,194,AS,exp,27,←,left,←,0.5139438998885453,True,18,-1,0,6
Y2-S2-276K20,2,195,AS,exp,43,↓,down,↓,0.6118203001096845,True,18,-1,0,6
Y2-S2-276K20,2,196,AS,exp,28,↑,up,↑,0.7608912996947765,True,18,1,1,7
Y2-S2-276K20,2,197,AS,exp,34,←,left,←,0.5803809999488294,True,17,1,0,7
Y2-S2-276K20,2,198,AS,exp,26,→,left,←,0.5071697998791933,False,17,-1,1,8
Y2-S2-276K20,2,199,AS,exp,41,↓,down,↓,0.6142031997442245,True,18,-1,0,8
Y2-S2-276K20,2,200,AS,exp,39,→,left,←,0.5553656998090446,False,18,-1,0,8
Y2-S2-276K20,2,201,AS,exp,27,←,left,←,0.6524124997667968,True,19,-1,0,8
Y2-S2-276K20,2,202,AS,exp,45,↑,up,↑,0.7846696004271507,True,19,-1,0,8
Y2-S2-276K20,2,203,AS,exp,30,→,right,→,0.8144294996745884,True,19,1,1,9
Y2-S2-276K20,2,204,AS,exp,42,←,left,←,0.6359300999902189,True,18,1,0,9
Y2-S2-276K20,2,205,AS,exp,40,→,right,→,0.5095738000236452,True,18,1,0,9
Y2-S2-276K20,2,206,AS,exp,34,←,left,←,0.6509875999763608,True,18,1,0,9
Y2-S2-276K20,2,207,AS,exp,27,↓,down,↓,0.9127046000212431,True,17,1,0,9
Y2-S2-276K20,2,208,AS,exp,47,←,left,←,0.8001991999335587,True,17,1,0,9
Y2-S2-276K20,2,209,AS,exp,29,↑,up,↑,0.7591263996437192,True,17,1,0,9
Y2-S2-276K20,2,210,AS,exp,27,→,right,→,0.5450883000157773,True,16,1,0,9
Y2-S2-276K20,2,211,AS,exp,41,↓,down,↓,0.9377218997105956,True,16,1,0,9
Y2-S2-276K20,2,212,AS,exp,47,↑,up,↑,0.9191838996484876,True,16,1,0,9
Y2-S2-276K20,2,213,AS,exp,40,→,right,→,0.47563070012256503,True,15,1,0,9
Y2-S2-276K20,2,214,AS,exp,49,←,left,←,0.6756108999252319,True,15,1,0,9
Y2-S2-276K20,2,215,AS,exp,27,↑,no_key,no_letter,-1.0,False,15,-1,1,10
Y2-S2-276K20,2,216,AS,exp,38,←,left,←,0.6396824000403285,True,16,-1,0,10
Y2-S2-276K20,2,217,AS,exp,31,→,right,→,0.6447224002331495,True,16,-1,0,10
Y2-S2-276K20,2,218,AS,exp,48,↓,down,↓,0.9260629001073539,True,16,1,1,11
Y2-S2-276K20,2,219,AS,exp,48,←,left,←,0.5110948998481035,True,15,1,0,11
Y2-S2-276K20,2,220,AS,exp,46,↑,right,→,1.1981748999096453,False,15,-1,1,12
Y2-S2-276K20,2,221,AS,exp,44,←,left,←,0.5977424997836351,True,16,-1,0,12
Y2-S2-276K20,2,222,AS,exp,47,↑,up,↑,0.616398099809885,True,16,-1,0,12
Y2-S2-276K20,2,223,AS,exp,47,↓,down,↓,0.9077796000055969,True,16,1,1,13
Y2-S2-276K20,2,224,AS,exp,42,→,right,→,0.5082384999841452,True,15,1,0,13
Y2-S2-276K20,2,225,AS,exp,28,↑,right,→,1.152860699687153,False,15,-1,1,14
Y2-S2-276K20,2,226,AS,exp,25,↓,down,↓,0.5610222998075187,True,16,-1,0,14
Y2-S2-276K20,2,227,AS,exp,38,↑,up,↑,0.8101865001954138,True,16,-1,0,14
Y2-S2-276K20,2,228,AS,exp,27,↓,down,↓,0.702384099829942,True,16,1,1,15
Y2-S2-276K20,2,229,AS,exp,36,←,down,↓,0.8250514999963343,False,15,-1,1,16
Y2-S2-276K20,3,230,AS,intra_train,50,↓,down,↓,1.0740846996195614,True,24,-,-,-
Y2-S2-276K20,3,231,AS,intra_train,44,↑,up,↑,0.9754751003347337,True,24,-,-,-
Y2-S2-276K20,3,232,AS,intra_train,32,←,left,←,0.6137537998147309,True,24,-,-,-
Y2-S2-276K20,3,233,AS,intra_train,37,→,no_key,no_letter,-1.0,False,24,-,-,-
Y2-S2-276K20,3,234,AS,intra_train,46,↑,up,↑,0.944971099961549,True,24,-,-,-
Y2-S2-276K20,3,235,AS,exp,25,→,right,→,0.6745540001429617,True,16,0,0,0
Y2-S2-276K20,3,236,AS,exp,41,←,left,←,0.7333633000962436,True,16,0,0,0
Y2-S2-276K20,3,237,AS,exp,37,→,right,→,0.8476786999963224,True,16,1,0,0
Y2-S2-276K20,3,238,AS,exp,42,↓,right,→,1.214784000068903,False,15,-1,1,1
Y2-S2-276K20,3,239,AS,exp,49,←,left,←,0.7019774997606874,True,16,-1,0,1
Y2-S2-276K20,3,240,AS,exp,35,→,right,→,0.48956670006737113,True,16,-1,0,1
Y2-S2-276K20,3,241,AS,exp,42,↓,right,→,0.6350316000171006,False,16,-1,0,1
Y2-S2-276K20,3,242,AS,exp,33,→,left,←,0.5283632003702223,False,17,-1,0,1
Y2-S2-276K20,3,243,AS,exp,39,↓,down,↓,0.7203712998889387,True,18,-1,0,1
Y2-S2-276K20,3,244,AS,exp,40,←,left,←,0.5789131000638008,True,18,-1,0,1
Y2-S2-276K20,3,245,AS,exp,31,↓,down,↓,0.6169316000305116,True,18,1,1,2
Y2-S2-276K20,3,246,AS,exp,29,←,left,←,0.6072297999635339,True,17,1,0,2
Y2-S2-276K20,3,247,AS,exp,48,↑,down,↓,0.979052699636668,False,17,-1,1,3
Y2-S2-276K20,3,248,AS,exp,41,↓,right,→,0.8310545003041625,False,18,-1,0,3
Y2-S2-276K20,3,249,AS,exp,45,↑,right,→,0.6999013000167906,False,19,-1,0,3
Y2-S2-276K20,3,250,AS,exp,29,↓,down,↓,0.7835010001435876,True,20,-1,0,3
Y2-S2-276K20,3,251,AS,exp,39,→,no_key,no_letter,-1.0,False,20,-1,0,3
Y2-S2-276K20,3,252,AS,exp,50,←,left,←,0.6367246001027524,True,21,-1,0,3
Y2-S2-276K20,3,253,AS,exp,33,↑,up,↑,0.7514589000493288,True,21,-1,0,3
Y2-S2-276K20,3,254,AS,exp,26,←,left,←,0.5826469999738038,True,21,1,1,4
Y2-S2-276K20,3,255,AS,exp,25,↑,up,↑,0.5855502998456359,True,20,1,0,4
Y2-S2-276K20,3,256,AS,exp,43,→,no_key,no_letter,-1.0,False,20,-1,1,5
Y2-S2-276K20,3,257,AS,exp,48,↑,up,↑,0.799439700320363,True,21,-1,0,5
Y2-S2-276K20,3,258,AS,exp,42,←,left,←,0.6789162000641227,True,21,-1,0,5
Y2-S2-276K20,3,259,AS,exp,47,↓,down,↓,0.7888633999973536,True,21,1,1,6
Y2-S2-276K20,3,260,AS,exp,44,↑,up,↑,0.6329288999550045,True,20,1,0,6
Y2-S2-276K20,3,261,AS,exp,50,↓,down,↓,0.722747900057584,True,20,1,0,6
Y2-S2-276K20,3,262,AS,exp,32,→,right,→,0.6073612002655864,True,20,1,0,6
Y2-S2-276K20,3,263,AS,exp,26,↑,up,↑,0.931646800134331,True,19,1,0,6
Y2-S2-276K20,3,264,AS,exp,49,←,right,→,1.0574255003593862,False,19,-1,1,7
Y2-S2-276K20,3,265,AS,exp,50,↑,up,↑,0.5852994001470506,True,20,-1,0,7
Y2-S2-276K20,3,266,AS,exp,41,←,left,←,0.6951755997724831,True,20,-1,0,7
Y2-S2-276K20,3,267,AS,exp,41,→,right,→,0.6911886003799736,True,20,1,1,8
Y2-S2-276K20,3,268,AS,exp,31,↑,up,↑,0.794984900392592,True,19,1,0,8
Y2-S2-276K20,3,269,AS,exp,34,→,right,→,0.7752800998277962,True,19,1,0,8
Y2-S2-276K20,3,270,AS,exp,31,↑,up,↑,0.8553078998811543,True,19,1,0,8
Y2-S2-276K20,3,271,AS,exp,37,↓,down,↓,0.6987944999709725,True,18,1,0,8
Y2-S2-276K20,3,272,AS,exp,44,←,left,←,0.5560008999891579,True,18,1,0,8
Y2-S2-276K20,3,273,AS,exp,28,→,right,→,0.7837873003445566,True,18,1,0,8
Y2-S2-276K20,3,274,AS,exp,38,↑,up,↑,0.6074009998701513,True,17,1,0,8
Y2-S2-276K20,3,275,AS,exp,35,←,left,←,0.6368855000473559,True,17,1,0,8
Y2-S2-276K20,3,276,AS,exp,44,→,no_key,no_letter,-1.0,False,17,-1,1,9
Y2-S2-276K20,3,277,AS,exp,39,↓,down,↓,0.7272454998455942,True,18,-1,0,9
Y2-S2-276K20,3,278,AS,exp,36,←,left,←,0.5897093000821769,True,18,-1,0,9
Y2-S2-276K20,3,279,AS,exp,41,↑,no_key,no_letter,-1.0,False,18,-1,0,9
Y2-S2-276K20,3,280,AS,exp,32,→,no_key,no_letter,-1.0,False,19,-1,0,9
Y2-S2-276K20,3,281,AS,exp,48,↓,no_key,no_letter,-1.0,False,20,-1,0,9
Y2-S2-276K20,3,282,AS,exp,46,←,left,←,0.38466079998761415,True,21,-1,0,9
Y2-S2-276K20,3,283,AS,exp,26,↑,no_key,no_letter,-1.0,False,21,-1,0,9
Y2-S2-276K20,3,284,AS,exp,50,←,left,←,0.45053419983014464,True,22,-1,0,9
Y2-S2-276K20,3,285,AS,exp,45,↑,up,↑,0.6013899999670684,True,22,-1,0,9
Y2-S2-276K20,3,286,AS,exp,47,↓,down,↓,0.5360540999099612,True,22,1,1,10
Y2-S2-276K20,3,287,AS,exp,40,↑,up,↑,0.6265595001168549,True,21,1,0,10
Y2-S2-276K20,3,288,AS,exp,34,→,no_key,no_letter,-1.0,False,21,-1,1,11
Y2-S2-276K20,3,289,AS,exp,49,←,left,←,0.5397543995641172,True,22,-1,0,11
Y2-S2-276K20,3,290,AS,exp,50,↓,down,↓,0.6167572997510433,True,22,-1,0,11
Y2-S2-276K20,3,291,AS,exp,26,←,right,→,0.5458657997660339,False,22,-1,0,11
Y2-S2-276K20,3,292,AS,exp,32,↑,up,↑,0.644395399838686,True,23,-1,0,11
Y2-S2-276K20,3,293,AS,exp,35,→,no_key,no_letter,-1.0,False,23,-1,0,11
Y2-S2-276K20,3,294,AS,exp,50,←,left,←,0.5004356000572443,True,24,-1,0,11
Y2-S2-276K20,3,295,AS,exp,46,→,right,→,0.41736309975385666,True,24,-1,0,11
Y2-S2-276K20,3,296,AS,exp,29,↓,no_key,no_letter,-1.0,False,24,-1,0,11
Y2-S2-276K20,3,297,AS,exp,46,↑,up,↑,0.7157733999192715,True,25,-1,0,11
Y2-S2-276K20,3,298,AS,exp,35,↓,down,↓,0.799501100089401,True,25,-1,0,11
Y2-S2-276K20,3,299,AS,exp,33,→,right,→,0.6686376999132335,True,25,1,1,12
Y2-S2-276K20,3,300,AS,exp,26,←,right,→,1.3625827999785542,False,24,-1,1,13
Y2-S2-276K20,3,301,AS,exp,28,→,right,→,0.5172246000729501,True,25,-1,0,13
Y2-S2-276K20,3,302,AS,exp,48,↓,down,↓,0.6046163998544216,True,25,-1,0,13
Y2-S2-276K20,3,303,AS,exp,49,→,right,→,0.5931398998945951,True,25,1,1,14
Y2-S2-276K20,3,304,AS,exp,25,←,right,→,0.5340066002681851,False,24,-1,1,15
Y2-S2-276K20,3,305,AS,exp,34,↑,up,↑,0.7425958998501301,True,25,-1,0,15
Y2-S2-276K20,3,306,AS,exp,33,→,right,→,0.5505530000664294,True,25,-1,0,15
Y2-S2-276K20,3,307,AS,exp,42,←,left,←,0.5003661001101136,True,25,1,1,16
Y2-S2-276K20,4,308,PS,intra_train,36,↓,down,↓,0.6050523999147117,True,19,-,-,-
Y2-S2-276K20,4,309,PS,intra_train,44,←,right,→,0.40056269988417625,False,19,-,-,-
Y2-S2-276K20,4,310,PS,intra_train,31,→,right,→,0.4013315001502633,True,19,-,-,-
Y2-S2-276K20,4,311,PS,intra_train,46,↑,up,↑,0.6029416997916996,True,19,-,-,-
Y2-S2-276K20,4,312,PS,intra_train,28,→,right,→,0.4507125001400709,True,19,-,-,-
Y2-S2-276K20,4,313,PS,exp,37,↓,down,↓,0.5945703997276723,True,13,0,0,0
Y2-S2-276K20,4,314,PS,exp,44,↑,up,↑,0.5800518002361059,True,13,0,0,0
Y2-S2-276K20,4,315,PS,exp,26,→,left,←,0.5711884000338614,False,13,-1,0,0
Y2-S2-276K20,4,316,PS,exp,29,↓,down,↓,0.5848281001672149,True,14,-1,0,0
Y2-S2-276K20,4,317,PS,exp,31,→,no_key,no_letter,-1.0,False,14,-1,0,0
Y2-S2-276K20,4,318,PS,exp,38,↑,up,↑,0.6933877998962998,True,15,-1,0,0
Y2-S2-276K20,4,319,PS,exp,38,↓,down,↓,0.6957232998684049,True,15,-1,0,0
Y2-S2-276K20,4,320,PS,exp,26,↑,up,↑,0.5643076999112964,True,15,1,1,1
Y2-S2-276K20,4,321,PS,exp,47,←,left,←,0.5590929999016225,True,14,1,0,1
Y2-S2-276K20,4,322,PS,exp,32,↑,left,←,1.0093576000072062,False,14,-1,1,2
Y2-S2-276K20,4,323,PS,exp,38,←,left,←,0.5447332998737693,True,15,-1,0,2
Y2-S2-276K20,4,324,PS,exp,47,↑,up,↑,0.5617603999562562,True,15,-1,0,2
Y2-S2-276K20,4,325,PS,exp,25,↓,down,↓,0.5478401998989284,True,15,1,1,3
Y2-S2-276K20,4,326,PS,exp,25,←,left,←,0.596197800245136,True,14,1,0,3
Y2-S2-276K20,4,327,PS,exp,46,↓,down,↓,0.48272560024634004,True,14,1,0,3
Y2-S2-276K20,4,328,PS,exp,25,←,left,←,0.40232500014826655,True,14,1,0,3
Y2-S2-276K20,4,329,PS,exp,33,→,right,→,0.4119215998798609,True,13,1,0,3
Y2-S2-276K20,4,330,PS,exp,40,↑,up,↑,0.521244500298053,True,13,1,0,3
Y2-S2-276K20,4,331,PS,exp,27,→,right,→,0.7486430001445115,True,13,1,0,3
Y2-S2-276K20,4,332,PS,exp,39,↓,down,↓,0.5762018002569675,True,12,1,0,3
Y2-S2-276K20,4,333,PS,exp,41,←,left,←,0.5826988997869194,True,12,1,0,3
Y2-S2-276K20,4,334,PS,exp,47,↑,up,↑,0.5345434001646936,True,12,1,0,3
Y2-S2-276K20,4,335,PS,exp,40,←,left,←,0.718673599883914,True,11,1,0,3
Y2-S2-276K20,4,336,PS,exp,32,↓,down,↓,0.5502824001014233,True,11,1,0,3
Y2-S2-276K20,4,337,PS,exp,33,→,right,→,0.4413292999379337,True,11,1,0,3
Y2-S2-276K20,4,338,PS,exp,25,←,left,←,0.5579146998934448,True,10,1,0,3
Y2-S2-276K20,4,339,PS,exp,36,↓,down,↓,0.6345985000953078,True,10,1,0,3
Y2-S2-276K20,4,340,PS,exp,25,←,left,←,0.4517370001412928,True,10,1,0,3
Y2-S2-276K20,4,341,PS,exp,28,↓,down,↓,0.626895499881357,True,9,1,0,3
Y2-S2-276K20,4,342,PS,exp,41,→,left,←,0.8607013002038002,False,9,-1,1,4
Y2-S2-276K20,4,343,PS,exp,34,↑,up,↑,0.5668015000410378,True,10,-1,0,4
Y2-S2-276K20,4,344,PS,exp,45,←,left,←,0.475823599845171,True,10,-1,0,4
Y2-S2-276K20,4,345,PS,exp,37,↓,down,↓,0.5567677998915315,True,10,1,1,5
Y2-S2-276K20,4,346,PS,exp,48,←,right,→,0.7553011998534203,False,9,-1,1,6
Y2-S2-276K20,4,347,PS,exp,28,→,right,→,0.5506251999177039,True,10,-1,0,6
Y2-S2-276K20,4,348,PS,exp,36,←,left,←,0.5891686002723873,True,10,-1,0,6
Y2-S2-276K20,4,349,PS,exp,44,↓,right,→,0.6682507996447384,False,10,-1,0,6
Y2-S2-276K20,4,350,PS,exp,49,←,left,←,0.5425015999935567,True,11,-1,0,6
Y2-S2-276K20,4,351,PS,exp,40,→,right,→,0.5714750001206994,True,11,-1,0,6
Y2-S2-276K20,4,352,PS,exp,35,↑,up,↑,0.5793864000588655,True,11,1,1,7
Y2-S2-276K20,4,353,PS,exp,33,→,right,→,0.3932623998261988,True,10,1,0,7
Y2-S2-276K20,4,354,PS,exp,30,↑,up,↑,0.5518578998744488,True,10,1,0,7
Y2-S2-276K20,4,355,PS,exp,31,→,right,→,0.6768216998316348,True,10,1,0,7
Y2-S2-276K20,4,356,PS,exp,29,↓,down,↓,0.6272816001437604,True,9,1,0,7
Y2-S2-276K20,4,357,PS,exp,25,←,right,→,0.6426474000327289,False,9,-1,1,8
Y2-S2-276K20,4,358,PS,exp,39,↑,up,↑,0.8944151001051068,True,10,-1,0,8
Y2-S2-276K20,4,359,PS,exp,39,↓,down,↓,0.6977049997076392,True,10,-1,0,8
Y2-S2-276K20,4,360,PS,exp,41,↑,up,↑,0.6927787000313401,True,10,1,1,9
Y2-S2-276K20,4,361,PS,exp,44,→,right,→,0.44271370023489,True,9,1,0,9
Y2-S2-276K20,4,362,PS,exp,42,↓,down,↓,0.5955880000256002,True,9,1,0,9
Y2-S2-276K20,4,363,PS,exp,46,→,right,→,0.43926759995520115,True,9,1,0,9
Y2-S2-276K20,4,364,PS,exp,49,↑,up,↑,0.6931393002159894,True,8,1,0,9
Y2-S2-276K20,4,365,PS,exp,48,→,right,→,0.4070092998445034,True,8,1,0,9
Y2-S2-276K20,4,366,PS,exp,27,↑,down,↓,0.7423017998225987,False,8,-1,1,10
Y2-S2-276K20,4,367,PS,exp,48,↓,down,↓,0.5956109999679029,True,9,-1,0,10
Y2-S2-276K20,4,368,PS,exp,28,↑,down,↓,1.073117600288242,False,9,-1,0,10
Y2-S2-276K20,4,369,PS,exp,25,→,right,→,0.40645179990679026,True,10,-1,0,10
Y2-S2-276K20,4,370,PS,exp,43,↑,up,↑,0.5696381004527211,True,10,-1,0,10
Y2-S2-276K20,4,371,PS,exp,34,←,right,→,0.7655806001275778,False,10,-1,0,10
Y2-S2-276K20,4,372,PS,exp,41,↓,no_key,no_letter,-1.0,False,11,-1,0,10
Y2-S2-276K20,4,373,PS,exp,32,←,left,←,0.5072197997942567,True,12,-1,0,10
Y2-S2-276K20,4,374,PS,exp,29,→,right,→,0.8068061997182667,True,12,-1,0,10
Y2-S2-276K20,4,375,PS,exp,39,↑,up,↑,0.545751600060612,True,12,1,1,11
Y2-S2-276K20,4,376,PS,exp,48,↓,down,↓,0.6054356000386178,True,11,1,0,11
Y2-S2-276K20,4,377,PS,exp,40,→,right,→,0.46949939988553524,True,11,1,0,11
Y2-S2-276K20,4,378,PS,exp,45,↓,down,↓,0.5193603001534939,True,11,1,0,11
Y2-S2-276K20,4,379,PS,exp,45,←,right,→,0.7642872999422252,False,10,-1,1,12
Y2-S2-276K20,4,380,PS,exp,41,→,right,→,0.42948029981926084,True,11,-1,0,12
Y2-S2-276K20,4,381,PS,exp,38,←,left,←,0.5295576001517475,True,11,-1,0,12
Y2-S2-276K20,4,382,PS,exp,39,↑,up,↑,0.6067380998283625,True,11,1,1,13
Y2-S2-276K20,4,383,PS,exp,49,→,left,←,0.9030216000974178,False,10,-1,1,14
Y2-S2-276K20,4,384,PS,exp,39,↑,up,↑,0.5813088002614677,True,11,-1,0,14
Y2-S2-276K20,4,385,PS,exp,32,←,left,←,0.503239399753511,True,11,-1,0,14
Y2-S2-276K20,4,386,PS,exp,41,↑,up,↑,0.5009510000236332,True,11,1,1,15
Y2-S2-276K20,4,387,PS,exp,45,↓,down,↓,0.6827985998243093,True,10,1,0,15
Y2-S2-276K20,4,388,PS,exp,29,←,left,←,0.46171059971675277,True,10,1,0,15
Y2-S2-276K20,4,389,PS,exp,50,→,right,→,0.5492659998126328,True,10,1,0,15
Y2-S2-276K20,4,390,PS,exp,41,↑,up,↑,0.8160709999501705,True,9,1,0,15
Y2-S2-276K20,4,391,PS,exp,47,→,right,→,0.42945259995758533,True,9,1,0,15
Y2-S2-276K20,4,392,PS,exp,32,↑,up,↑,0.5061634997837245,True,9,1,0,15
Y2-S2-276K20,4,393,PS,exp,31,←,left,←,0.45122369984164834,True,8,1,0,15
Y2-S2-276K20,4,394,PS,exp,43,→,right,→,0.5104960999451578,True,8,1,0,15
Y2-S2-276K20,4,395,PS,exp,43,←,up,↑,0.6748986002057791,False,8,-1,1,16
Y2-S2-276K20,5,396,PS,intra_train,46,↑,up,↑,0.5097211003303528,True,19,-,-,-
Y2-S2-276K20,5,397,PS,intra_train,38,↓,down,↓,0.5876500997692347,True,19,-,-,-
Y2-S2-276K20,5,398,PS,intra_train,34,←,left,←,0.38398309983313084,True,19,-,-,-
Y2-S2-276K20,5,399,PS,intra_train,28,→,right,→,0.4345625997520983,True,19,-,-,-
Y2-S2-276K20,5,400,PS,intra_train,42,←,left,←,0.43436900014057755,True,19,-,-,-
Y2-S2-276K20,5,401,PS,exp,41,→,right,→,0.5298847001977265,True,13,0,0,0
Y2-S2-276K20,5,402,PS,exp,50,↓,down,↓,0.6718274001032114,True,13,0,0,0
Y2-S2-276K20,5,403,PS,exp,39,↑,up,↑,0.4841990997083485,True,13,1,0,0
Y2-S2-276K20,5,404,PS,exp,31,→,right,→,0.4240600001066923,True,12,1,0,0
Y2-S2-276K20,5,405,PS,exp,32,←,right,→,0.7658049003221095,False,12,-1,1,1
Y2-S2-276K20,5,406,PS,exp,49,→,right,→,0.48021609988063574,True,13,-1,0,1
Y2-S2-276K20,5,407,PS,exp,44,↑,up,↑,0.47545119980350137,True,13,-1,0,1
Y2-S2-276K20,5,408,PS,exp,45,←,right,→,0.6078484999015927,False,13,-1,0,1
Y2-S2-276K20,5,409,PS,exp,29,↑,up,↑,0.48266280023381114,True,14,-1,0,1
Y2-S2-276K20,5,410,PS,exp,50,←,left,←,0.5066463998518884,True,14,-1,0,1
Y2-S2-276K20,5,411,PS,exp,38,↑,up,↑,0.43336250027641654,True,14,1,1,2
Y2-S2-276K20,5,412,PS,exp,40,↓,down,↓,0.6040592999197543,True,13,1,0,2
Y2-S2-276K20,5,413,PS,exp,26,↑,up,↑,0.448613699991256,True,13,1,0,2
Y2-S2-276K20,5,414,PS,exp,44,↓,down,↓,0.6531494003720582,True,13,1,0,2
Y2-S2-276K20,5,415,PS,exp,35,←,left,←,0.5042233997955918,True,12,1,0,2
Y2-S2-276K20,5,416,PS,exp,49,↓,right,→,0.7443924001418054,False,12,-1,1,3
Y2-S2-276K20,5,417,PS,exp,41,←,left,←,0.5588579997420311,True,13,-1,0,3
Y2-S2-276K20,5,418,PS,exp,31,↑,up,↑,0.44511030009016395,True,13,-1,0,3
Y2-S2-276K20,5,419,PS,exp,46,→,right,→,0.4494495000690222,True,13,1,1,4
Y2-S2-276K20,5,420,PS,exp,39,↑,up,↑,0.8679279000498354,True,12,1,0,4
Y2-S2-276K20,5,421,PS,exp,31,→,right,→,0.41833369992673397,True,12,1,0,4
Y2-S2-276K20,5,422,PS,exp,29,↑,up,↑,0.6121306996792555,True,12,1,0,4
Y2-S2-276K20,5,423,PS,exp,44,→,right,→,0.396507800091058,True,11,1,0,4
Y2-S2-276K20,5,424,PS,exp,28,↑,up,↑,0.49197869980707765,True,11,1,0,4
Y2-S2-276K20,5,425,PS,exp,46,↓,down,↓,0.7065628999844193,True,11,1,0,4
Y2-S2-276K20,5,426,PS,exp,44,↑,up,↑,0.4536616997793317,True,10,1,0,4
Y2-S2-276K20,5,427,PS,exp,44,→,right,→,0.3660401003435254,True,10,1,0,4
Y2-S2-276K20,5,428,PS,exp,33,←,right,→,0.612739700358361,False,10,-1,1,5
Y2-S2-276K20,5,429,PS,exp,34,→,no_key,no_letter,-1.0,False,11,-1,0,5
Y2-S2-276K20,5,430,PS,exp,47,↑,up,↑,0.41258380003273487,True,12,-1,0,5
Y2-S2-276K20,5,431,PS,exp,29,↓,up,↑,0.654585300013423,False,12,-1,0,5
Y2-S2-276K20,5,432,PS,exp,39,←,left,←,0.5647845999337733,True,13,-1,0,5
Y2-S2-276K20,5,433,PS,exp,30,↑,right,→,0.6905812998302281,False,13,-1,0,5
Y2-S2-276K20,5,434,PS,exp,30,→,no_key,no_letter,-1.0,False,14,-1,0,5
Y2-S2-276K20,5,435,PS,exp,32,↑,up,↑,0.41903020022436976,True,15,-1,0,5
Y2-S2-276K20,5,436,PS,exp,31,→,no_key,no_letter,-1.0,False,15,-1,0,5
Y2-S2-276K20,5,437,PS,exp,47,↓,down,↓,0.8809268996119499,True,16,-1,0,5
Y2-S2-276K20,5,438,PS,exp,29,→,right,→,0.5400959998369217,True,16,-1,0,5
Y2-S2-276K20,5,439,PS,exp,36,↓,down,↓,0.6427732002921402,True,16,1,1,6
Y2-S2-276K20,5,440,PS,exp,36,→,right,→,0.3839359995909035,True,15,1,0,6
Y2-S2-276K20,5,441,PS,exp,42,↓,down,↓,0.6290357997640967,True,15,1,0,6
Y2-S2-276K20,5,442,PS,exp,41,←,left,←,0.42635639989748597,True,15,1,0,6
Y2-S2-276K20,5,443,PS,exp,39,↑,right,→,0.8155129002407193,False,14,-1,1,7
Y2-S2-276K20,5,444,PS,exp,29,↓,right,→,0.6188525999896228,False,15,-1,0,7
Y2-S2-276K20,5,445,PS,exp,42,↑,up,↑,0.6254897997714579,True,16,-1,0,7
Y2-S2-276K20,5,446,PS,exp,32,↓,down,↓,0.533141799736768,True,16,-1,0,7
Y2-S2-276K20,5,447,PS,exp,38,↑,no_key,no_letter,-1.0,False,16,-1,0,7
Y2-S2-276K20,5,448,PS,exp,50,↓,down,↓,0.722480199765414,True,17,-1,0,7
Y2-S2-276K20,5,449,PS,exp,25,←,left,←,0.5385552002117038,True,17,-1,0,7
Y2-S2-276K20,5,450,PS,exp,35,↓,down,↓,0.622240699827671,True,17,1,1,8
Y2-S2-276K20,5,451,PS,exp,48,↑,up,↑,0.6689288998022676,True,16,1,0,8
Y2-S2-276K20,5,452,PS,exp,25,↓,down,↓,0.6072757998481393,True,16,1,0,8
Y2-S2-276K20,5,453,PS,exp,40,←,right,→,0.5139604997821152,False,16,-1,1,9
Y2-S2-276K20,5,454,PS,exp,30,↓,down,↓,0.5758661003783345,True,17,-1,0,9
Y2-S2-276K20,5,455,PS,exp,50,↑,up,↑,0.4740848997607827,True,17,-1,0,9
Y2-S2-276K20,5,456,PS,exp,26,←,left,←,0.613487099763006,True,17,1,1,10
Y2-S2-276K20,5,457,PS,exp,44,↓,down,↓,0.5318034999072552,True,16,1,0,10
Y2-S2-276K20,5,458,PS,exp,28,←,left,←,0.5709727997891605,True,16,1,0,10
Y2-S2-276K20,5,459,PS,exp,28,↓,down,↓,0.6736291996203363,True,16,1,0,10
Y2-S2-276K20,5,460,PS,exp,26,→,right,→,0.7298723002895713,True,15,1,0,10
Y2-S2-276K20,5,461,PS,exp,42,↓,down,↓,0.5290410998277366,True,15,1,0,10
Y2-S2-276K20,5,462,PS,exp,49,←,left,←,0.5151676000095904,True,15,1,0,10
Y2-S2-276K20,5,463,PS,exp,43,↑,up,↑,0.6215189001522958,True,14,1,0,10
Y2-S2-276K20,5,464,PS,exp,26,←,left,←,0.6154060000553727,True,14,1,0,10
Y2-S2-276K20,5,465,PS,exp,29,↓,down,↓,0.5737640997394919,True,14,1,0,10
Y2-S2-276K20,5,466,PS,exp,46,←,left,←,1.4990603001788259,True,13,1,0,10
Y2-S2-276K20,5,467,PS,exp,29,→,right,→,0.5068946001119912,True,13,1,0,10
Y2-S2-276K20,5,468,PS,exp,44,←,left,←,0.45836020028218627,True,13,1,0,10
Y2-S2-276K20,5,469,PS,exp,44,↑,up,↑,0.4784067999571562,True,12,1,0,10
Y2-S2-276K20,5,470,PS,exp,27,↓,down,↓,0.6631052996963263,True,12,1,0,10
Y2-S2-276K20,5,471,PS,exp,43,←,left,←,0.6742094000801444,True,12,1,0,10
Y2-S2-276K20,5,472,PS,exp,45,→,right,→,0.42940610041841865,True,11,1,0,10
Y2-S2-276K20,5,473,PS,exp,34,↓,down,↓,0.7029073000885546,True,11,1,0,10
Y2-S2-276K20,5,474,PS,exp,36,←,left,←,0.4795661000534892,True,11,1,0,10
Y2-S2-276K20,5,475,PS,exp,28,↓,down,↓,0.7321589002385736,True,10,1,0,10
Y2-S2-276K20,5,476,PS,exp,50,←,left,←,0.6453243996948004,True,10,1,0,10
Y2-S2-276K20,5,477,PS,exp,37,↓,down,↓,0.5724774999544024,True,10,1,0,10
Y2-S2-276K20,5,478,PS,exp,32,↑,up,↑,0.4892400000244379,True,9,1,0,10
Y2-S2-276K20,5,479,PS,exp,38,→,right,→,0.4592317999340594,True,9,1,0,10
Y2-S2-276K20,5,480,PS,exp,40,↓,down,↓,0.5487919002771378,True,9,1,0,10
Y2-S2-276K20,5,481,PS,exp,37,→,right,→,0.6634699003770947,True,8,1,0,10
Y2-S2-276K20,5,482,PS,exp,44,↑,up,↑,0.5064992001280189,True,8,1,0,10
Y2-S2-276K20,5,483,PS,exp,42,→,right,→,0.36836900003254414,True,8,1,0,10
Y2-S2-276K20,5,484,PS,exp,33,↑,up,↑,0.4824971999041736,True,7,1,0,10
Y2-S2-276K20,5,485,PS,exp,40,←,left,←,0.5334167000837624,True,7,1,0,10
Y2-S2-276K20,5,486,PS,exp,42,→,right,→,0.9564371001906693,True,7,1,0,10
Y2-S2-276K20,5,487,PS,exp,43,↓,left,←,0.6416496001183987,False,6,-1,1,11
Y2-S2-276K20,5,488,PS,exp,26,←,left,←,0.5426272000186145,True,7,-1,0,11
Y2-S2-276K20,5,489,PS,exp,48,↓,down,↓,0.7026899000629783,True,7,-1,0,11
Y2-S2-276K20,5,490,PS,exp,25,→,right,→,0.5573252998292446,True,7,1,1,12
Y2-S2-276K20,5,491,PS,exp,45,↓,down,↓,0.6336248000152409,True,6,1,0,12
Y2-S2-276K20,5,492,PS,exp,49,↑,left,←,0.7377053000964224,False,6,-1,1,13
Y2-S2-276K20,5,493,PS,exp,42,←,down,↓,0.7868916997686028,False,7,-1,0,13
Y2-S2-276K20,5,494,PS,exp,45,↑,right,→,0.9512841999530792,False,8,-1,0,13
Y2-S2-276K20,5,495,PS,exp,33,→,right,→,0.43391350004822016,True,9,-1,0,13
Y2-S2-276K20,5,496,PS,exp,48,↑,right,→,0.9288206999190152,False,9,-1,0,13
Y2-S2-276K20,5,497,PS,exp,47,↓,down,↓,0.983827699907124,True,10,-1,0,13
Y2-S2-276K20,5,498,PS,exp,27,→,right,→,0.48425660002976656,True,10,-1,0,13
Y2-S2-276K20,5,499,PS,exp,49,↓,down,↓,0.5816484000533819,True,10,1,1,14
Y2-S2-276K20,5,500,PS,exp,32,→,no_key,no_letter,-1.0,False,9,-1,1,15
Y2-S2-276K20,5,501,PS,exp,43,↓,down,↓,0.4959871000610292,True,10,-1,0,15
Y2-S2-276K20,5,502,PS,exp,34,↑,up,↑,0.5001330999657512,True,10,-1,0,15
Y2-S2-276K20,5,503,PS,exp,37,←,left,←,0.5218148999847472,True,10,1,1,16
Y2-S2-276K20,6,504,AS,intra_train,43,↑,up,↑,0.6651910999789834,True,24,-,-,-
Y2-S2-276K20,6,505,AS,intra_train,39,→,right,→,0.5341635001823306,True,24,-,-,-
Y2-S2-276K20,6,506,AS,intra_train,29,↑,up,↑,1.6561225997284055,True,24,-,-,-
Y2-S2-276K20,6,507,AS,intra_train,50,→,right,→,0.7344689997844398,True,24,-,-,-
Y2-S2-276K20,6,508,AS,intra_train,40,↑,up,↑,0.9718224001117051,True,24,-,-,-
Y2-S2-276K20,6,509,AS,exp,33,←,up,↑,1.4091769000515342,False,16,-1,0,0
Y2-S2-276K20,6,510,AS,exp,47,↓,up,↑,0.9612555997446179,False,17,-1,0,0
Y2-S2-276K20,6,511,AS,exp,26,→,right,→,0.6506364000961185,True,18,-1,0,0
Y2-S2-276K20,6,512,AS,exp,29,←,left,←,0.6212879996746778,True,18,-1,0,0
Y2-S2-276K20,6,513,AS,exp,41,→,right,→,0.7579769999720156,True,18,1,1,1
Y2-S2-276K20,6,514,AS,exp,40,←,up,↑,0.7262074998579919,False,17,-1,1,2
Y2-S2-276K20,6,515,AS,exp,39,→,right,→,0.5935713001526892,True,18,-1,0,2
Y2-S2-276K20,6,516,AS,exp,42,↑,up,↑,0.49895970011129975,True,18,-1,0,2
Y2-S2-276K20,6,517,AS,exp,45,←,left,←,0.7143823001533747,True,18,1,1,3
Y2-S2-276K20,6,518,AS,exp,35,↑,up,↑,0.5664524999447167,True,17,1,0,3
Y2-S2-276K20,6,519,AS,exp,35,→,right,→,0.586317699868232,True,17,1,0,3
Y2-S2-276K20,6,520,AS,exp,35,↑,right,→,0.9976865998469293,False,17,-1,1,4
Y2-S2-276K20,6,521,AS,exp,39,→,right,→,0.5312171997502446,True,18,-1,0,4
Y2-S2-276K20,6,522,AS,exp,32,←,left,←,0.6484564999118447,True,18,-1,0,4
Y2-S2-276K20,6,523,AS,exp,43,→,left,←,0.7116207997314632,False,18,-1,0,4
Y2-S2-276K20,6,524,AS,exp,36,↓,down,↓,0.7180848000571132,True,19,-1,0,4
Y2-S2-276K20,6,525,AS,exp,28,→,right,→,0.5032091001048684,True,19,-1,0,4
Y2-S2-276K20,6,526,AS,exp,42,↑,up,↑,0.5780074000358582,True,19,1,1,5
Y2-S2-276K20,6,527,AS,exp,35,←,left,←,0.7099710004404187,True,18,1,0,5
Y2-S2-276K20,6,528,AS,exp,36,↑,down,↓,0.788370399735868,False,18,-1,1,6
Y2-S2-276K20,6,529,AS,exp,50,←,right,→,0.5368156000040472,False,19,-1,0,6
Y2-S2-276K20,6,530,AS,exp,49,↓,down,↓,0.6850867001339793,True,20,-1,0,6
Y2-S2-276K20,6,531,AS,exp,49,→,right,→,0.41695010010153055,True,20,-1,0,6
Y2-S2-276K20,6,532,AS,exp,31,↓,down,↓,0.6099709002301097,True,20,1,1,7
Y2-S2-276K20,6,533,AS,exp,40,↑,up,↑,0.49218960013240576,True,19,1,0,7
Y2-S2-276K20,6,534,AS,exp,40,↓,down,↓,0.6468701995909214,True,19,1,0,7
Y2-S2-276K20,6,535,AS,exp,34,→,right,→,0.7974529000930488,True,19,1,0,7
Y2-S2-276K20,6,536,AS,exp,41,←,left,←,0.5999669996090233,True,18,1,0,7
Y2-S2-276K20,6,537,AS,exp,50,↑,up,↑,0.5035075000487268,True,18,1,0,7
Y2-S2-276K20,6,538,AS,exp,30,↓,down,↓,0.7838729000650346,True,18,1,0,7
Y2-S2-276K20,6,539,AS,exp,39,↑,left,←,0.795824300032109,False,17,-1,1,8
Y2-S2-276K20,6,540,AS,exp,27,→,right,→,0.6636259998194873,True,18,-1,0,8
Y2-S2-276K20,6,541,AS,exp,40,↑,up,↑,0.7319264998659492,True,18,-1,0,8
Y2-S2-276K20,6,542,AS,exp,27,←,left,←,0.7222028998658061,True,18,1,1,9
Y2-S2-276K20,6,543,AS,exp,27,→,left,←,0.7628414002247155,False,17,-1,1,10
Y2-S2-276K20,6,544,AS,exp,36,↑,up,↑,0.5730894999578595,True,18,-1,0,10
Y2-S2-276K20,6,545,AS,exp,28,←,left,←,0.4171290001831949,True,18,-1,0,10
Y2-S2-276K20,6,546,AS,exp,42,→,right,→,0.7524822996929288,True,18,1,1,11
Y2-S2-276K20,6,547,AS,exp,34,↑,up,↑,0.509602699894458,True,17,1,0,11
Y2-S2-276K20,6,548,AS,exp,30,↓,no_key,no_letter,-1.0,False,17,-1,1,12
Y2-S2-276K20,6,549,AS,exp,39,→,no_key,no_letter,-1.0,False,18,-1,0,12
Y2-S2-276K20,6,550,AS,exp,40,↓,down,↓,0.7024281001649797,True,19,-1,0,12
Y2-S2-276K20,6,551,AS,exp,33,←,left,←,0.6587892998941243,True,19,-1,0,12
Y2-S2-276K20,6,552,AS,exp,26,↓,right,→,0.8617015001364052,False,19,-1,0,12
Y2-S2-276K20,6,553,AS,exp,45,←,left,←,0.6296168998815119,True,20,-1,0,12
Y2-S2-276K20,6,554,AS,exp,41,→,right,→,0.5171520998701453,True,20,-1,0,12
Y2-S2-276K20,6,555,AS,exp,32,←,left,←,0.6087993998080492,True,20,1,1,13
Y2-S2-276K20,6,556,AS,exp,35,↓,left,←,0.7832762999460101,False,19,-1,1,14
Y2-S2-276K20,6,557,AS,exp,29,←,right,→,0.5084389001131058,False,20,-1,0,14
Y2-S2-276K20,6,558,AS,exp,45,↑,up,↑,0.7094238996505737,True,21,-1,0,14
Y2-S2-276K20,6,559,AS,exp,26,→,right,→,0.46739810006693006,True,21,-1,0,14
Y2-S2-276K20,6,560,AS,exp,32,↓,down,↓,0.6256087999790907,True,21,1,1,15
Y2-S2-276K20,6,561,AS,exp,31,↑,down,↓,1.2629550998099148,False,20,-1,1,16
Y2-S2-276K20,7,562,AS,intra_train,47,←,no_key,no_letter,-1.0,False,24,-,-,-
Y2-S2-276K20,7,563,AS,intra_train,34,↑,up,↑,0.8713532998226583,True,24,-,-,-
Y2-S2-276K20,7,564,AS,intra_train,49,→,right,→,0.9011177001520991,True,24,-,-,-
Y2-S2-276K20,7,565,AS,intra_train,34,↓,down,↓,0.7848841999657452,True,24,-,-,-
Y2-S2-276K20,7,566,AS,intra_train,28,←,left,←,0.7596451998688281,True,24,-,-,-
Y2-S2-276K20,7,567,AS,exp,36,→,right,→,0.552222799975425,True,16,0,0,0
Y2-S2-276K20,7,568,AS,exp,39,↑,up,↑,0.8101964998058975,True,16,0,0,0
Y2-S2-276K20,7,569,AS,exp,39,←,right,→,1.0844773999415338,False,16,-1,0,0
Y2-S2-276K20,7,570,AS,exp,25,↓,down,↓,0.8581598000600934,True,17,-1,0,0
Y2-S2-276K20,7,571,AS,exp,31,↑,up,↑,0.49283149978145957,True,17,-1,0,0
Y2-S2-276K20,7,572,AS,exp,34,→,right,→,0.552014300134033,True,17,1,1,1
Y2-S2-276K20,7,573,AS,exp,47,↓,down,↓,0.7114423997700214,True,16,1,0,1
Y2-S2-276K20,7,574,AS,exp,31,→,right,→,0.7386052999645472,True,16,1,0,1
Y2-S2-276K20,7,575,AS,exp,49,↑,up,↑,0.7198948999866843,True,16,1,0,1
Y2-S2-276K20,7,576,AS,exp,26,↓,up,↑,1.645708399824798,False,15,-1,1,2
Y2-S2-276K20,7,577,AS,exp,47,↑,up,↑,0.7359243999235332,True,16,-1,0,2
Y2-S2-276K20,7,578,AS,exp,41,→,right,→,0.595648099668324,True,16,-1,0,2
Y2-S2-276K20,7,579,AS,exp,30,↓,down,↓,0.7386252996511757,True,16,1,1,3
Y2-S2-276K20,7,580,AS,exp,40,↑,down,↓,1.0025626001879573,False,15,-1,1,4
Y2-S2-276K20,7,581,AS,exp,41,→,right,→,0.6560406000353396,True,16,-1,0,4
Y2-S2-276K20,7,582,AS,exp,38,↑,up,↑,0.6606036997400224,True,16,-1,0,4
Y2-S2-276K20,7,583,AS,exp,34,←,no_key,no_letter,-1.0,False,16,-1,0,4
Y2-S2-276K20,7,584,AS,exp,33,→,right,→,0.6616481002420187,True,17,-1,0,4
Y2-S2-276K20,7,585,AS,exp,25,↓,down,↓,1.0253547998145223,True,17,-1,0,4
Y2-S2-276K20,7,586,AS,exp,37,←,left,←,0.6227126000449061,True,17,1,1,5
Y2-S2-276K20,7,587,AS,exp,43,↑,right,→,0.8296841001138091,False,16,-1,1,6
Y2-S2-276K20,7,588,AS,exp,31,←,no_key,no_letter,-1.0,False,17,-1,0,6
Y2-S2-276K20,7,589,AS,exp,42,↑,right,→,0.7382190995849669,False,18,-1,0,6
Y2-S2-276K20,7,590,AS,exp,36,←,left,←,0.6719691003672779,True,19,-1,0,6
Y2-S2-276K20,7,591,AS,exp,38,→,no_key,no_letter,-1.0,False,19,-1,0,6
Y2-S2-276K20,7,592,AS,exp,35,←,left,←,0.5099836997687817,True,20,-1,0,6
Y2-S2-276K20,7,593,AS,exp,33,↑,up,↑,0.6018544998951256,True,20,-1,0,6
Y2-S2-276K20,7,594,AS,exp,49,↓,left,←,0.6960008000023663,False,20,-1,0,6
Y2-S2-276K20,7,595,AS,exp,38,→,right,→,0.5455577997490764,True,21,-1,0,6
Y2-S2-276K20,7,596,AS,exp,33,↓,down,↓,0.7915388001129031,True,21,-1,0,6
Y2-S2-276K20,7,597,AS,exp,41,→,right,→,0.601252400316298,True,21,1,1,7
Y2-S2-276K20,7,598,AS,exp,40,↓,down,↓,0.7064056997187436,True,20,1,0,7
Y2-S2-276K20,7,599,AS,exp,46,↑,up,↑,0.6826746999286115,True,20,1,0,7
Y2-S2-276K20,7,600,AS,exp,30,→,right,→,0.6410375996492803,True,20,1,0,7
Y2-S2-276K20,7,601,AS,exp,30,←,no_key,no_letter,-1.0,False,19,-1,1,8
Y2-S2-276K20,7,602,AS,exp,45,↓,down,↓,0.711521599907428,True,20,-1,0,8
Y2-S2-276K20,7,603,AS,exp,27,→,no_key,no_letter,-1.0,False,20,-1,0,8
Y2-S2-276K20,7,604,AS,exp,34,←,no_key,no_letter,-1.0,False,21,-1,0,8
Y2-S2-276K20,7,605,AS,exp,43,↑,up,↑,0.682037599850446,True,22,-1,0,8
Y2-S2-276K20,7,606,AS,exp,50,↓,down,↓,0.7173562999814749,True,22,-1,0,8
Y2-S2-276K20,7,607,AS,exp,26,→,no_key,no_letter,-1.0,False,22,-1,0,8
Y2-S2-276K20,7,608,AS,exp,31,↑,right,→,0.9441430000588298,False,23,-1,0,8
Y2-S2-276K20,7,609,AS,exp,39,→,right,→,0.5007290998473763,True,24,-1,0,8
Y2-S2-276K20,7,610,AS,exp,36,↓,down,↓,0.6405323999933898,True,24,-1,0,8
Y2-S2-276K20,7,611,AS,exp,44,↑,up,↑,0.8715872000902891,True,24,1,1,9
Y2-S2-276K20,7,612,AS,exp,43,←,left,←,0.6239249999634922,True,23,1,0,9
Y2-S2-276K20,7,613,AS,exp,30,→,right,→,0.63852130016312,True,23,1,0,9
Y2-S2-276K20,7,614,AS,exp,28,↓,down,↓,0.775361499749124,True,23,1,0,9
Y2-S2-276K20,7,615,AS,exp,44,↑,up,↑,0.7396113001741469,True,22,1,0,9
Y2-S2-276K20,7,616,AS,exp,47,→,right,→,0.46701860008761287,True,22,1,0,9
Y2-S2-276K20,7,617,AS,exp,25,↓,down,↓,0.6201688996516168,True,22,1,0,9
Y2-S2-276K20,7,618,AS,exp,33,←,left,←,0.5945731997489929,True,21,1,0,9
Y2-S2-276K20,7,619,AS,exp,38,→,right,→,0.5669982996769249,True,21,1,0,9
Y2-S2-276K20,7,620,AS,exp,29,↑,up,↑,0.5743467002175748,True,21,1,0,9
Y2-S2-276K20,7,621,AS,exp,43,←,left,←,0.41763499984517694,True,20,1,0,9
Y2-S2-276K20,7,622,AS,exp,33,↑,up,↑,0.6686750999651849,True,20,1,0,9
Y2-S2-276K20,7,623,AS,exp,27,←,right,→,0.5811132001690567,False,20,-1,1,10
Y2-S2-276K20,7,624,AS,exp,44,↓,down,↓,0.7491727997548878,True,21,-1,0,10
Y2-S2-276K20,7,625,AS,exp,46,↑,up,↑,0.540883899666369,True,21,-1,0,10
Y2-S2-276K20,7,626,AS,exp,48,↓,down,↓,0.7330311997793615,True,21,1,1,11
Y2-S2-276K20,7,627,AS,exp,26,←,left,←,0.450205999892205,True,20,1,0,11
Y2-S2-276K20,7,628,AS,exp,36,↓,down,↓,0.6068003000691533,True,20,1,0,11
Y2-S2-276K20,7,629,AS,exp,41,→,right,→,0.46731590013951063,True,20,1,0,11
Y2-S2-276K20,7,630,AS,exp,46,←,left,←,0.5262579997070134,True,19,1,0,11
Y2-S2-276K20,7,631,AS,exp,35,↑,up,↑,0.5447233999148011,True,19,1,0,11
Y2-S2-276K20,7,632,AS,exp,50,→,no_key,no_letter,-1.0,False,19,-1,1,12
Y2-S2-276K20,7,633,AS,exp,45,↑,up,↑,0.4675707998685539,True,20,-1,0,12
Y2-S2-276K20,7,634,AS,exp,49,↓,up,↑,0.77565550012514,False,20,-1,0,12
Y2-S2-276K20,7,635,AS,exp,29,←,no_key,no_letter,-1.0,False,21,-1,0,12
Y2-S2-276K20,7,636,AS,exp,33,↓,down,↓,0.7677889000624418,True,22,-1,0,12
Y2-S2-276K20,7,637,AS,exp,36,→,right,→,0.5810751998797059,True,22,-1,0,12
Y2-S2-276K20,7,638,AS,exp,35,↓,down,↓,0.6015224000439048,True,22,1,1,13
Y2-S2-276K20,7,639,AS,exp,35,→,right,→,0.5312084998004138,True,21,1,0,13
Y2-S2-276K20,7,640,AS,exp,50,←,left,←,0.6516006998717785,True,21,1,0,13
Y2-S2-276K20,7,641,AS,exp,33,↓,down,↓,0.783324500080198,True,21,1,0,13
Y2-S2-276K20,7,642,AS,exp,28,→,right,→,0.5746987001039088,True,20,1,0,13
Y2-S2-276K20,7,643,AS,exp,40,↓,up,↑,0.6904478003270924,False,20,-1,1,14
Y2-S2-276K20,7,644,AS,exp,47,↑,up,↑,0.6445856997743249,True,21,-1,0,14
Y2-S2-276K20,7,645,AS,exp,39,↓,down,↓,0.8152876999229193,True,21,-1,0,14
Y2-S2-276K20,7,646,AS,exp,45,←,left,←,0.4340030001476407,True,21,1,1,15
Y2-S2-276K20,7,647,AS,exp,27,↑,up,↑,0.5755178998224437,True,20,1,0,15
Y2-S2-276K20,7,648,AS,exp,37,↓,down,↓,0.6089567001909018,True,20,1,0,15
Y2-S2-276K20,7,649,AS,exp,48,↑,up,↑,0.5900249001570046,True,20,1,0,15
Y2-S2-276K20,7,650,AS,exp,26,←,left,←,0.6022254996933043,True,19,1,0,15
Y2-S2-276K20,7,651,AS,exp,38,→,right,→,0.5421119998209178,True,19,1,0,15
Y2-S2-276K20,7,652,AS,exp,39,←,left,←,0.6867740000598133,True,19,1,0,15
Y2-S2-276K20,7,653,AS,exp,44,→,right,→,0.4984486000612378,True,18,1,0,15
Y2-S2-276K20,7,654,AS,exp,49,↑,up,↑,0.6091620000079274,True,18,1,0,15
Y2-S2-276K20,7,655,AS,exp,33,↓,up,↑,0.8900786000303924,False,18,-1,1,16
Y2-S2-276K20,8,656,PS,intra_train,38,→,right,→,0.38388750003650784,True,19,-,-,-
Y2-S2-276K20,8,657,PS,intra_train,26,↑,up,↑,0.49285020027309656,True,19,-,-,-
Y2-S2-276K20,8,658,PS,intra_train,25,↓,down,↓,0.574127399828285,True,19,-,-,-
Y2-S2-276K20,8,659,PS,intra_train,43,←,left,←,0.569505900144577,True,19,-,-,-
Y2-S2-276K20,8,660,PS,intra_train,49,→,left,←,0.40053889993578196,False,19,-,-,-
Y2-S2-276K20,8,661,PS,exp,47,↓,down,↓,0.5469457004219294,True,13,0,0,0
Y2-S2-276K20,8,662,PS,exp,43,→,right,→,0.7520120996050537,True,13,0,0,0
Y2-S2-276K20,8,663,PS,exp,49,←,left,←,0.552721600048244,True,13,1,0,0
Y2-S2-276K20,8,664,PS,exp,37,→,right,→,0.5111287999898195,True,12,1,0,0
Y2-S2-276K20,8,665,PS,exp,48,↓,down,↓,0.5283428002148867,True,12,1,0,0
Y2-S2-276K20,8,666,PS,exp,47,→,right,→,0.4895103997550905,True,12,1,0,0
Y2-S2-276K20,8,667,PS,exp,30,←,left,←,0.4567646002396941,True,11,1,0,0
Y2-S2-276K20,8,668,PS,exp,28,↓,down,↓,0.5887166000902653,True,11,1,0,0
Y2-S2-276K20,8,669,PS,exp,41,←,left,←,0.5254170000553131,True,11,1,0,0
Y2-S2-276K20,8,670,PS,exp,32,↑,up,↑,0.507975900080055,True,10,1,0,0
Y2-S2-276K20,8,671,PS,exp,39,↓,down,↓,0.670577300246805,True,10,1,0,0
Y2-S2-276K20,8,672,PS,exp,46,←,left,←,0.42062029987573624,True,10,1,0,0
Y2-S2-276K20,8,673,PS,exp,48,↓,down,↓,0.5540062999352813,True,9,1,0,0
Y2-S2-276K20,8,674,PS,exp,46,↑,up,↑,0.5483011999167502,True,9,1,0,0
Y2-S2-276K20,8,675,PS,exp,45,→,right,→,0.5292628998868167,True,9,1,0,0
Y2-S2-276K20,8,676,PS,exp,39,↑,up,↑,0.5310234003700316,True,8,1,0,0
Y2-S2-276K20,8,677,PS,exp,41,→,right,→,0.4677419997751713,True,8,1,0,0
Y2-S2-276K20,8,678,PS,exp,41,←,left,←,0.5327008003368974,True,8,1,0,0
Y2-S2-276K20,8,679,PS,exp,36,↓,up,↑,0.7692832998000085,False,7,-1,1,1
Y2-S2-276K20,8,680,PS,exp,48,→,right,→,0.4638505997136235,True,8,-1,0,1
Y2-S2-276K20,8,681,PS,exp,41,↑,up,↑,0.5368289002217352,True,8,-1,0,1
Y2-S2-276K20,8,682,PS,exp,40,→,up,↑,0.7785259997472167,False,8,-1,0,1
Y2-S2-276K20,8,683,PS,exp,26,↓,down,↓,0.655437100213021,True,9,-1,0,1
Y2-S2-276K20,8,684,PS,exp,41,←,left,←,0.5745966997928917,True,9,-1,0,1
Y2-S2-276K20,8,685,PS,exp,31,↑,up,↑,0.47813359973952174,True,9,1,1,2
Y2-S2-276K20,8,686,PS,exp,38,→,right,→,0.4844817998819053,True,8,1,0,2
Y2-S2-276K20,8,687,PS,exp,47,↑,up,↑,0.6277646999806166,True,8,1,0,2
Y2-S2-276K20,8,688,PS,exp,43,→,right,→,0.498783300165087,True,8,1,0,2
Y2-S2-276K20,8,689,PS,exp,28,↑,up,↑,0.49885799968615174,True,7,1,0,2
Y2-S2-276K20,8,690,PS,exp,37,→,right,→,0.4829703997820616,True,7,1,0,2
Y2-S2-276K20,8,691,PS,exp,33,↓,down,↓,0.6669633998535573,True,7,1,0,2
Y2-S2-276K20,8,692,PS,exp,36,↑,up,↑,0.4973213002085686,True,6,1,0,2
Y2-S2-276K20,8,693,PS,exp,48,←,no_key,no_letter,-1.0,False,6,-1,1,3
Y2-S2-276K20,8,694,PS,exp,31,→,right,→,0.6139471000060439,True,7,-1,0,3
Y2-S2-276K20,8,695,PS,exp,38,↑,up,↑,0.5078322002664208,True,7,-1,0,3
Y2-S2-276K20,8,696,PS,exp,27,←,left,←,0.46403659973293543,True,7,1,1,4
Y2-S2-276K20,8,697,PS,exp,30,↑,up,↑,0.48821850027889013,True,6,1,0,4
Y2-S2-276K20,8,698,PS,exp,36,↓,right,→,0.6165293999947608,False,6,-1,1,5
Y2-S2-276K20,8,699,PS,exp,31,→,right,→,0.647263899911195,True,7,-1,0,5
Y2-S2-276K20,8,700,PS,exp,45,↑,left,←,0.5758711998350918,False,7,-1,0,5
Y2-S2-276K20,8,701,PS,exp,30,↓,down,↓,0.5636859000660479,True,8,-1,0,5
Y2-S2-276K20,8,702,PS,exp,41,↑,left,←,0.6632420001551509,False,8,-1,0,5
Y2-S2-276K20,8,703,PS,exp,48,↓,down,↓,0.5471922997385263,True,9,-1,0,5
Y2-S2-276K20,8,704,PS,exp,42,←,left,←,0.5269766999408603,True,9,-1,0,5
Y2-S2-276K20,8,705,PS,exp,27,↑,left,←,0.5826491001062095,False,9,-1,0,5
Y2-S2-276K20,8,706,PS,exp,33,→,right,→,0.5003121998161077,True,10,-1,0,5
Y2-S2-276K20,8,707,PS,exp,25,↓,down,↓,0.6019510999321938,True,10,-1,0,5
Y2-S2-276K20,8,708,PS,exp,36,↑,up,↑,0.5139524997211993,True,10,1,1,6
Y2-S2-276K20,8,709,PS,exp,36,↓,down,↓,0.523289100266993,True,9,1,0,6
Y2-S2-276K20,8,710,PS,exp,37,↑,up,↑,0.5009526000358164,True,9,1,0,6
Y2-S2-276K20,8,711,PS,exp,35,←,left,←,0.4537968998774886,True,9,1,0,6
Y2-S2-276K20,8,712,PS,exp,46,↓,down,↓,0.5859897001646459,True,8,1,0,6
Y2-S2-276K20,8,713,PS,exp,50,↑,up,↑,0.499915299937129,True,8,1,0,6
Y2-S2-276K20,8,714,PS,exp,40,↓,left,←,0.8104273001663387,False,8,-1,1,7
Y2-S2-276K20,8,715,PS,exp,35,→,right,→,0.49182350002229214,True,9,-1,0,7
Y2-S2-276K20,8,716,PS,exp,45,↑,right,→,0.6154789999127388,False,9,-1,0,7
Y2-S2-276K20,8,717,PS,exp,37,→,right,→,0.47937999991700053,True,10,-1,0,7
Y2-S2-276K20,8,718,PS,exp,41,←,right,→,0.6817950000986457,False,10,-1,0,7
Y2-S2-276K20,8,719,PS,exp,45,→,right,→,0.4343431000597775,True,11,-1,0,7
Y2-S2-276K20,8,720,PS,exp,37,↓,down,↓,0.5857676002196968,True,11,-1,0,7
Y2-S2-276K20,8,721,PS,exp,48,→,right,→,0.41411110013723373,True,11,1,1,8
Y2-S2-276K20,8,722,PS,exp,34,↑,up,↑,0.5379470000043511,True,10,1,0,8
Y2-S2-276K20,8,723,PS,exp,48,→,right,→,0.4029859001748264,True,10,1,0,8
Y2-S2-276K20,8,724,PS,exp,49,↓,right,→,0.5750005999580026,False,10,-1,1,9
Y2-S2-276K20,8,725,PS,exp,48,↑,up,↑,0.6641589999198914,True,11,-1,0,9
Y2-S2-276K20,8,726,PS,exp,41,↓,down,↓,0.585973700042814,True,11,-1,0,9
Y2-S2-276K20,8,727,PS,exp,41,→,right,→,0.418805199675262,True,11,1,1,10
Y2-S2-276K20,8,728,PS,exp,27,←,left,←,0.5069295996800065,True,10,1,0,10
Y2-S2-276K20,8,729,PS,exp,33,↓,down,↓,0.5922189000993967,True,10,1,0,10
Y2-S2-276K20,8,730,PS,exp,41,→,right,→,0.4600406000390649,True,10,1,0,10
Y2-S2-276K20,8,731,PS,exp,50,←,left,←,0.4784840000793338,True,9,1,0,10
Y2-S2-276K20,8,732,PS,exp,28,↓,no_key,no_letter,-1.0,False,9,-1,1,11
Y2-S2-276K20,8,733,PS,exp,40,→,right,→,0.42578390007838607,True,10,-1,0,11
Y2-S2-276K20,8,734,PS,exp,36,↑,no_key,no_letter,-1.0,False,10,-1,0,11
Y2-S2-276K20,8,735,PS,exp,39,→,right,→,0.4180469000712037,True,11,-1,0,11
Y2-S2-276K20,8,736,PS,exp,26,←,left,←,0.49692279985174537,True,11,-1,0,11
Y2-S2-276K20,8,737,PS,exp,41,↑,up,↑,0.5099320001900196,True,11,1,1,12
Y2-S2-276K20,8,738,PS,exp,37,↓,up,↑,0.6937786997295916,False,10,-1,1,13
Y2-S2-276K20,8,739,PS,exp,34,→,right,→,0.45859009958803654,True,11,-1,0,13
Y2-S2-276K20,8,740,PS,exp,47,←,right,→,0.4873727997764945,False,11,-1,0,13
Y2-S2-276K20,8,741,PS,exp,47,↑,up,↑,0.42712359968572855,True,12,-1,0,13
Y2-S2-276K20,8,742,PS,exp,41,←,left,←,0.5298733999952674,True,12,-1,0,13
Y2-S2-276K20,8,743,PS,exp,48,↑,up,↑,0.47586849983781576,True,12,1,1,14
Y2-S2-276K20,8,744,PS,exp,43,↓,down,↓,0.6601526001468301,True,11,1,0,14
Y2-S2-276K20,8,745,PS,exp,45,→,no_key,no_letter,-1.0,False,11,-1,1,15
Y2-S2-276K20,8,746,PS,exp,34,↑,up,↑,0.5005846996791661,True,12,-1,0,15
Y2-S2-276K20,8,747,PS,exp,43,→,right,→,0.6820155000314116,True,12,-1,0,15
Y2-S2-276K20,8,748,PS,exp,35,↑,up,↑,0.44149590004235506,True,12,1,1,16
