PART_ID,Block_no,Trial_no,Block_type,Trial_type,CSI,Stim_letter,Key_pressed,letter_choose,Rt,Corr,Stimulus Time,Level,Reversal,Revs_count
Y2-S2-045K30,1,1,PS,train,47,→,right,→,1.5067374999634922,True,30,-,-,-
Y2-S2-045K30,1,2,PS,train,40,↓,down,↓,1.027013999875635,True,30,-,-,-
Y2-S2-045K30,1,3,PS,train,47,←,left,←,1.061198800103739,True,30,-,-,-
Y2-S2-045K30,1,4,PS,train,32,↑,down,↓,1.3799162998329848,False,30,-,-,-
Y2-S2-045K30,1,5,PS,train,46,→,right,→,1.149463600013405,True,30,-,-,-
Y2-S2-045K30,1,6,PS,train,37,↑,up,↑,0.7699044998735189,True,30,-,-,-
Y2-S2-045K30,1,7,PS,train,37,↓,down,↓,1.057243200019002,True,30,-,-,-
Y2-S2-045K30,1,8,PS,train,33,←,left,←,1.5871121999807656,True,30,-,-,-
Y2-S2-045K30,1,9,PS,train,34,↑,up,↑,1.0630518000107259,True,30,-,-,-
Y2-S2-045K30,1,10,PS,train,40,↓,down,↓,1.0710874998476356,True,30,-,-,-
Y2-S2-045K30,2,11,AS,train,34,←,left,←,1.580455700168386,True,45,-,-,-
Y2-S2-045K30,2,12,AS,train,31,→,right,→,1.2546902999747545,True,45,-,-,-
Y2-S2-045K30,2,13,AS,train,44,↑,up,↑,1.1733462000265718,True,45,-,-,-
Y2-S2-045K30,2,14,AS,train,42,↓,down,↓,1.1067413999699056,True,45,-,-,-
Y2-S2-045K30,2,15,AS,train,26,↑,up,↑,1.2024344000965357,True,45,-,-,-
Y2-S2-045K30,2,16,AS,train,43,→,right,→,1.4928325000219047,True,45,-,-,-
Y2-S2-045K30,2,17,AS,train,33,↑,up,↑,1.188480000011623,True,45,-,-,-
Y2-S2-045K30,2,18,AS,train,48,↓,down,↓,1.1100539001636207,True,45,-,-,-
Y2-S2-045K30,2,19,AS,train,36,→,right,→,1.2454721999820322,True,45,-,-,-
Y2-S2-045K30,2,20,AS,train,47,↓,down,↓,1.392031199997291,True,45,-,-,-
Y2-S2-045K30,-,21,PS,adaptive,50,→,right,→,1.0825561000965536,True,10,0,0,0
Y2-S2-045K30,-,22,PS,adaptive,37,←,left,←,1.237457999959588,True,10,0,0,0
Y2-S2-045K30,-,23,PS,adaptive,50,↑,up,↑,0.7846204999368638,True,10,1,0,0
Y2-S2-045K30,-,24,PS,adaptive,33,→,right,→,0.8946442999877036,True,9,1,0,0
Y2-S2-045K30,-,25,PS,adaptive,50,↓,down,↓,0.7481267999392003,True,9,1,0,0
Y2-S2-045K30,-,26,PS,adaptive,39,↑,up,↑,0.7802530999761075,True,9,1,0,0
Y2-S2-045K30,-,27,PS,adaptive,48,←,left,←,1.1994812998455018,True,8,1,0,0
Y2-S2-045K30,-,28,PS,adaptive,30,↑,up,↑,0.6650358000770211,True,8,1,0,0
Y2-S2-045K30,-,29,PS,adaptive,37,→,left,←,1.1676036000717431,False,8,-1,1,1
Y2-S2-045K30,-,30,PS,adaptive,30,↑,up,↑,0.6984498000238091,True,9,-1,0,1
Y2-S2-045K30,-,31,PS,adaptive,41,→,right,→,1.0590005998965353,True,9,-1,0,1
Y2-S2-045K30,-,32,PS,adaptive,38,↑,left,←,1.1878631000872701,False,9,-1,0,1
Y2-S2-045K30,-,33,PS,adaptive,45,↓,down,↓,0.7870775999035686,True,10,-1,0,1
Y2-S2-045K30,-,34,PS,adaptive,25,↑,up,↑,0.5416194000281394,True,10,-1,0,1
Y2-S2-045K30,-,35,PS,adaptive,40,→,right,→,1.2082863000687212,True,10,1,1,2
Y2-S2-045K30,-,36,PS,adaptive,30,↓,up,↑,0.8488212998490781,False,9,-1,1,3
Y2-S2-045K30,-,37,PS,adaptive,29,↑,up,↑,0.6893517998978496,True,10,-1,0,3
Y2-S2-045K30,-,38,PS,adaptive,28,→,right,→,1.0027763000689447,True,10,-1,0,3
Y2-S2-045K30,-,39,PS,adaptive,32,←,left,←,0.9958196999505162,True,10,1,1,4
Y2-S2-045K30,-,40,AS,adaptive,38,↓,up,↑,1.1597279999405146,False,20,-1,0,0
Y2-S2-045K30,-,41,AS,adaptive,43,↑,up,↑,0.919947599992156,True,21,-1,0,0
Y2-S2-045K30,-,42,AS,adaptive,49,←,left,←,1.2973041001241654,True,21,-1,0,0
Y2-S2-045K30,-,43,AS,adaptive,33,↑,up,↑,0.5287124998867512,True,21,1,1,1
Y2-S2-045K30,-,44,AS,adaptive,41,→,right,→,1.1833007000386715,True,20,1,0,1
Y2-S2-045K30,-,45,AS,adaptive,25,←,left,←,1.007814500015229,True,20,1,0,1
Y2-S2-045K30,-,46,AS,adaptive,48,↓,right,→,0.986938500078395,False,20,-1,1,2
Y2-S2-045K30,-,47,AS,adaptive,30,↑,up,↑,0.8937692998442799,True,21,-1,0,2
Y2-S2-045K30,-,48,AS,adaptive,31,→,right,→,1.082608399912715,True,21,-1,0,2
Y2-S2-045K30,-,49,AS,adaptive,36,←,left,←,1.0204067998565733,True,21,1,1,3
Y2-S2-045K30,-,50,AS,adaptive,39,↑,up,↑,0.7486419999040663,True,20,1,0,3
Y2-S2-045K30,-,51,AS,adaptive,45,→,right,→,0.8672610998619348,True,20,1,0,3
Y2-S2-045K30,-,52,AS,adaptive,50,↓,down,↓,0.7950826000887901,True,20,1,0,3
Y2-S2-045K30,-,53,AS,adaptive,38,→,right,→,0.9738408999983221,True,19,1,0,3
Y2-S2-045K30,-,54,AS,adaptive,32,↓,down,↓,0.9461757000535727,True,19,1,0,3
Y2-S2-045K30,-,55,AS,adaptive,34,→,right,→,0.7445762001443654,True,19,1,0,3
Y2-S2-045K30,-,56,AS,adaptive,31,←,left,←,1.1360355000942945,True,18,1,0,3
Y2-S2-045K30,-,57,AS,adaptive,36,→,right,→,0.7406651999335736,True,18,1,0,3
Y2-S2-045K30,-,58,AS,adaptive,37,←,left,←,0.8826092998497188,True,18,1,0,3
Y2-S2-045K30,-,59,AS,adaptive,42,→,right,→,0.7429185002110898,True,17,1,0,3
Y2-S2-045K30,-,60,AS,adaptive,28,↑,up,↑,0.7223966999445111,True,17,1,0,3
Y2-S2-045K30,-,61,AS,adaptive,44,←,left,←,0.928911899914965,True,17,1,0,3
Y2-S2-045K30,-,62,AS,adaptive,29,→,right,→,0.6460059999953955,True,16,1,0,3
Y2-S2-045K30,-,63,AS,adaptive,36,↓,right,→,1.0106124999001622,False,16,-1,1,4
Y2-S2-045K30,1,64,PS,intra_train,34,←,left,←,0.9945672999601811,True,13,-,-,-
Y2-S2-045K30,1,65,PS,intra_train,46,↑,up,↑,0.7612877001520246,True,13,-,-,-
Y2-S2-045K30,1,66,PS,intra_train,42,←,left,←,0.8906990000978112,True,13,-,-,-
Y2-S2-045K30,1,67,PS,intra_train,29,↑,up,↑,0.8647994000930339,True,13,-,-,-
Y2-S2-045K30,1,68,PS,intra_train,26,↓,left,←,1.5522949998266995,False,13,-,-,-
Y2-S2-045K30,1,69,PS,exp,50,↑,down,↓,0.7163822001311928,False,9,-1,0,0
Y2-S2-045K30,1,70,PS,exp,48,→,right,→,0.8123480000067502,True,10,-1,0,0
Y2-S2-045K30,1,71,PS,exp,38,↑,up,↑,0.8505516001023352,True,10,-1,0,0
Y2-S2-045K30,1,72,PS,exp,40,→,right,→,0.8273445998784155,True,10,1,1,1
Y2-S2-045K30,1,73,PS,exp,33,←,right,→,0.998812599806115,False,9,-1,1,2
Y2-S2-045K30,1,74,PS,exp,30,↓,left,←,0.6053468999452889,False,10,-1,0,2
Y2-S2-045K30,1,75,PS,exp,35,←,left,←,0.6800893999170512,True,11,-1,0,2
Y2-S2-045K30,1,76,PS,exp,36,→,right,→,0.7314911999274045,True,11,-1,0,2
Y2-S2-045K30,1,77,PS,exp,45,←,left,←,1.1953131000045687,True,11,1,1,3
Y2-S2-045K30,1,78,PS,exp,46,→,right,→,0.8349514999426901,True,10,1,0,3
Y2-S2-045K30,1,79,PS,exp,45,↓,down,↓,0.6830810999963433,True,10,1,0,3
Y2-S2-045K30,1,80,PS,exp,36,←,left,←,0.7705598000902683,True,10,1,0,3
Y2-S2-045K30,1,81,PS,exp,25,↑,up,↑,0.7541810998227447,True,9,1,0,3
Y2-S2-045K30,1,82,PS,exp,39,→,right,→,1.3675919999368489,True,9,1,0,3
Y2-S2-045K30,1,83,PS,exp,40,↑,up,↑,0.8079033999238163,True,9,1,0,3
Y2-S2-045K30,1,84,PS,exp,36,↓,left,←,0.6926256001461297,False,8,-1,1,4
Y2-S2-045K30,1,85,PS,exp,31,↑,up,↑,0.643440900137648,True,9,-1,0,4
Y2-S2-045K30,1,86,PS,exp,37,→,left,←,0.5974242000374943,False,9,-1,0,4
Y2-S2-045K30,1,87,PS,exp,47,↑,up,↑,0.4729826000984758,True,10,-1,0,4
Y2-S2-045K30,1,88,PS,exp,32,↓,down,↓,0.6063025000039488,True,10,-1,0,4
Y2-S2-045K30,1,89,PS,exp,40,↑,up,↑,0.5979784999508411,True,10,1,1,5
Y2-S2-045K30,1,90,PS,exp,29,←,left,←,1.0613148000556976,True,9,1,0,5
Y2-S2-045K30,1,91,PS,exp,38,↓,down,↓,0.7123691001906991,True,9,1,0,5
Y2-S2-045K30,1,92,PS,exp,28,→,right,→,0.9843989999499172,True,9,1,0,5
Y2-S2-045K30,1,93,PS,exp,31,←,left,←,0.6286028998438269,True,8,1,0,5
Y2-S2-045K30,1,94,PS,exp,49,↓,right,→,0.9426084000151604,False,8,-1,1,6
Y2-S2-045K30,1,95,PS,exp,44,→,right,→,0.7144639999605715,True,9,-1,0,6
Y2-S2-045K30,1,96,PS,exp,45,↑,up,↑,0.5248694999609143,True,9,-1,0,6
Y2-S2-045K30,1,97,PS,exp,34,↓,right,→,0.7948770001530647,False,9,-1,0,6
Y2-S2-045K30,1,98,PS,exp,41,→,right,→,0.6534374000038952,True,10,-1,0,6
Y2-S2-045K30,1,99,PS,exp,34,←,down,↓,0.9175305999815464,False,10,-1,0,6
Y2-S2-045K30,1,100,PS,exp,47,↓,up,↑,0.4839087000582367,False,11,-1,0,6
Y2-S2-045K30,1,101,PS,exp,35,↑,up,↑,0.7107677001040429,True,12,-1,0,6
Y2-S2-045K30,1,102,PS,exp,44,→,right,→,0.6218754001893103,True,12,-1,0,6
Y2-S2-045K30,1,103,PS,exp,30,↓,down,↓,0.7103746999055147,True,12,1,1,7
Y2-S2-045K30,1,104,PS,exp,35,→,down,↓,0.9323712999466807,False,11,-1,1,8
Y2-S2-045K30,1,105,PS,exp,41,↑,up,↑,0.47980830003507435,True,12,-1,0,8
Y2-S2-045K30,1,106,PS,exp,49,↓,down,↓,0.4885478001087904,True,12,-1,0,8
Y2-S2-045K30,1,107,PS,exp,32,←,right,→,0.6128251000773162,False,12,-1,0,8
Y2-S2-045K30,1,108,PS,exp,50,↑,up,↑,0.48305239994078875,True,13,-1,0,8
Y2-S2-045K30,1,109,PS,exp,48,→,right,→,0.5258888001553714,True,13,-1,0,8
Y2-S2-045K30,1,110,PS,exp,28,↑,up,↑,0.5692672000732273,True,13,1,1,9
Y2-S2-045K30,1,111,PS,exp,50,↓,down,↓,0.6750328000634909,True,12,1,0,9
Y2-S2-045K30,1,112,PS,exp,29,↑,up,↑,0.640032600145787,True,12,1,0,9
Y2-S2-045K30,1,113,PS,exp,28,←,left,←,0.8167483999859542,True,12,1,0,9
Y2-S2-045K30,1,114,PS,exp,26,→,left,←,0.9049575000535697,False,11,-1,1,10
Y2-S2-045K30,1,115,PS,exp,35,↓,down,↓,0.6058801000472158,True,12,-1,0,10
Y2-S2-045K30,1,116,PS,exp,38,→,right,→,0.8849508001003414,True,12,-1,0,10
Y2-S2-045K30,1,117,PS,exp,33,↓,down,↓,0.6684765999671072,True,12,1,1,11
Y2-S2-045K30,1,118,PS,exp,34,→,left,←,1.111771299969405,False,11,-1,1,12
Y2-S2-045K30,1,119,PS,exp,25,←,down,↓,1.310916299931705,False,12,-1,0,12
Y2-S2-045K30,1,120,PS,exp,28,↓,down,↓,0.7754901999142021,True,13,-1,0,12
Y2-S2-045K30,1,121,PS,exp,25,→,right,→,0.6159977000206709,True,13,-1,0,12
Y2-S2-045K30,1,122,PS,exp,25,↑,left,←,0.7463195999152958,False,13,-1,0,12
Y2-S2-045K30,1,123,PS,exp,26,↓,down,↓,0.544207900064066,True,14,-1,0,12
Y2-S2-045K30,1,124,PS,exp,36,→,right,→,0.701783400028944,True,14,-1,0,12
Y2-S2-045K30,1,125,PS,exp,31,↓,down,↓,0.5777501999400556,True,14,1,1,13
Y2-S2-045K30,1,126,PS,exp,33,↑,up,↑,0.6663920001592487,True,13,1,0,13
Y2-S2-045K30,1,127,PS,exp,37,↓,down,↓,0.5585193000733852,True,13,1,0,13
Y2-S2-045K30,1,128,PS,exp,44,←,left,←,1.0251724999397993,True,13,1,0,13
Y2-S2-045K30,1,129,PS,exp,29,↑,up,↑,0.5109290000982583,True,12,1,0,13
Y2-S2-045K30,1,130,PS,exp,47,←,left,←,1.146728000137955,True,12,1,0,13
Y2-S2-045K30,1,131,PS,exp,49,↑,up,↑,0.5864416998811066,True,12,1,0,13
Y2-S2-045K30,1,132,PS,exp,37,→,right,→,0.7859340000431985,True,11,1,0,13
Y2-S2-045K30,1,133,PS,exp,50,↑,left,←,1.082636100007221,False,11,-1,1,14
Y2-S2-045K30,1,134,PS,exp,31,↓,down,↓,0.5388847000431269,True,12,-1,0,14
Y2-S2-045K30,1,135,PS,exp,48,↑,up,↑,0.7129812000785023,True,12,-1,0,14
Y2-S2-045K30,1,136,PS,exp,29,←,left,←,0.977421100018546,True,12,1,1,15
Y2-S2-045K30,1,137,PS,exp,35,→,right,→,0.7072038999758661,True,11,1,0,15
Y2-S2-045K30,1,138,PS,exp,38,↓,down,↓,0.532932800007984,True,11,1,0,15
Y2-S2-045K30,1,139,PS,exp,28,→,right,→,0.5848150998353958,True,11,1,0,15
Y2-S2-045K30,1,140,PS,exp,31,←,left,←,0.8661955001298338,True,10,1,0,15
Y2-S2-045K30,1,141,PS,exp,44,→,right,→,0.5615636999718845,True,10,1,0,15
Y2-S2-045K30,1,142,PS,exp,28,↑,up,↑,0.5890939000528306,True,10,1,0,15
Y2-S2-045K30,1,143,PS,exp,25,←,left,←,0.6737488999497145,True,9,1,0,15
Y2-S2-045K30,1,144,PS,exp,39,→,right,→,0.6313916000071913,True,9,1,0,15
Y2-S2-045K30,1,145,PS,exp,32,↓,right,→,0.9163945000618696,False,9,-1,1,16
Y2-S2-045K30,2,146,AS,intra_train,34,←,left,←,0.9308331999927759,True,25,-,-,-
Y2-S2-045K30,2,147,AS,intra_train,25,↓,down,↓,0.6104451999999583,True,25,-,-,-
Y2-S2-045K30,2,148,AS,intra_train,37,↑,up,↑,0.6529865001793951,True,25,-,-,-
Y2-S2-045K30,2,149,AS,intra_train,39,←,left,←,1.3990790999960154,True,25,-,-,-
Y2-S2-045K30,2,150,AS,intra_train,26,↓,down,↓,0.8204095000401139,True,25,-,-,-
Y2-S2-045K30,2,151,AS,exp,33,→,right,→,0.9385179998353124,True,17,0,0,0
Y2-S2-045K30,2,152,AS,exp,46,←,right,→,1.1325798998586833,False,17,-1,0,0
Y2-S2-045K30,2,153,AS,exp,36,↓,down,↓,0.8151730000972748,True,18,-1,0,0
Y2-S2-045K30,2,154,AS,exp,50,←,right,→,0.922797700157389,False,18,-1,0,0
Y2-S2-045K30,2,155,AS,exp,38,↓,right,→,0.9373148998711258,False,19,-1,0,0
Y2-S2-045K30,2,156,AS,exp,45,←,left,←,1.173608100041747,True,20,-1,0,0
Y2-S2-045K30,2,157,AS,exp,45,↓,down,↓,0.7664712998084724,True,20,-1,0,0
Y2-S2-045K30,2,158,AS,exp,25,→,right,→,0.8953443998470902,True,20,1,1,1
Y2-S2-045K30,2,159,AS,exp,44,↓,down,↓,0.7860255998093635,True,19,1,0,1
Y2-S2-045K30,2,160,AS,exp,42,←,left,←,0.9809818000067025,True,19,1,0,1
Y2-S2-045K30,2,161,AS,exp,29,↓,down,↓,0.9405654999427497,True,19,1,0,1
Y2-S2-045K30,2,162,AS,exp,35,→,right,→,1.0469455998390913,True,18,1,0,1
Y2-S2-045K30,2,163,AS,exp,45,↑,up,↑,0.8148806998506188,True,18,1,0,1
Y2-S2-045K30,2,164,AS,exp,38,↓,down,↓,0.5187315999064595,True,18,1,0,1
Y2-S2-045K30,2,165,AS,exp,41,←,left,←,0.9480634001083672,True,17,1,0,1
Y2-S2-045K30,2,166,AS,exp,48,↑,down,↓,1.2695861998945475,False,17,-1,1,2
Y2-S2-045K30,2,167,AS,exp,32,→,right,→,0.8512536999769509,True,18,-1,0,2
Y2-S2-045K30,2,168,AS,exp,38,↑,down,↓,0.9807643999811262,False,18,-1,0,2
Y2-S2-045K30,2,169,AS,exp,42,↓,down,↓,1.0666274998802692,True,19,-1,0,2
Y2-S2-045K30,2,170,AS,exp,47,↑,up,↑,0.9284995999187231,True,19,-1,0,2
Y2-S2-045K30,2,171,AS,exp,42,↓,down,↓,0.8838570998050272,True,19,1,1,3
Y2-S2-045K30,2,172,AS,exp,25,→,right,→,0.9186535000335425,True,18,1,0,3
Y2-S2-045K30,2,173,AS,exp,35,↑,no_key,no_letter,-1.0,False,18,-1,1,4
Y2-S2-045K30,2,174,AS,exp,30,↓,down,↓,0.6966061999555677,True,19,-1,0,4
Y2-S2-045K30,2,175,AS,exp,37,→,right,→,0.9410963000264019,True,19,-1,0,4
Y2-S2-045K30,2,176,AS,exp,36,↑,down,↓,0.8103813000489026,False,19,-1,0,4
Y2-S2-045K30,2,177,AS,exp,33,→,right,→,0.6522341000381857,True,20,-1,0,4
Y2-S2-045K30,2,178,AS,exp,36,↑,up,↑,0.8444465999491513,True,20,-1,0,4
Y2-S2-045K30,2,179,AS,exp,45,↓,down,↓,0.8044217999558896,True,20,1,1,5
Y2-S2-045K30,2,180,AS,exp,30,←,left,←,1.0942840999923646,True,19,1,0,5
Y2-S2-045K30,2,181,AS,exp,33,↓,down,↓,0.5118761998601258,True,19,1,0,5
Y2-S2-045K30,2,182,AS,exp,33,→,right,→,0.7895361999981105,True,19,1,0,5
Y2-S2-045K30,2,183,AS,exp,32,←,left,←,1.1205756000708789,True,18,1,0,5
Y2-S2-045K30,2,184,AS,exp,36,↑,down,↓,0.8297739999834448,False,18,-1,1,6
Y2-S2-045K30,2,185,AS,exp,49,↓,down,↓,0.90508639998734,True,19,-1,0,6
Y2-S2-045K30,2,186,AS,exp,30,↑,down,↓,0.8833307998720556,False,19,-1,0,6
Y2-S2-045K30,2,187,AS,exp,48,↓,down,↓,0.6893345999997109,True,20,-1,0,6
Y2-S2-045K30,2,188,AS,exp,36,←,left,←,0.5476305999327451,True,20,-1,0,6
Y2-S2-045K30,2,189,AS,exp,44,↓,down,↓,0.5626194998621941,True,20,1,1,7
Y2-S2-045K30,2,190,AS,exp,50,↑,up,↑,0.7040254001040012,True,19,1,0,7
Y2-S2-045K30,2,191,AS,exp,31,→,right,→,0.9561186998616904,True,19,1,0,7
Y2-S2-045K30,2,192,AS,exp,49,↓,down,↓,0.8293161999899894,True,19,1,0,7
Y2-S2-045K30,2,193,AS,exp,29,→,right,→,0.9472360000945628,True,18,1,0,7
Y2-S2-045K30,2,194,AS,exp,29,↑,up,↑,0.8519544000737369,True,18,1,0,7
Y2-S2-045K30,2,195,AS,exp,45,←,left,←,0.9593907999806106,True,18,1,0,7
Y2-S2-045K30,2,196,AS,exp,43,→,up,↑,0.99112440017052,False,17,-1,1,8
Y2-S2-045K30,2,197,AS,exp,38,←,left,←,0.8633451000787318,True,18,-1,0,8
Y2-S2-045K30,2,198,AS,exp,41,↓,down,↓,0.8032269000541419,True,18,-1,0,8
Y2-S2-045K30,2,199,AS,exp,41,→,right,→,0.784935100004077,True,18,1,1,9
Y2-S2-045K30,2,200,AS,exp,32,←,left,←,0.8257906001526862,True,17,1,0,9
Y2-S2-045K30,2,201,AS,exp,28,↓,down,↓,0.5350516000762582,True,17,1,0,9
Y2-S2-045K30,2,202,AS,exp,47,→,left,←,1.040307599818334,False,17,-1,1,10
Y2-S2-045K30,2,203,AS,exp,43,←,down,↓,0.9331573001109064,False,18,-1,0,10
Y2-S2-045K30,2,204,AS,exp,28,→,right,→,0.8477283001411706,True,19,-1,0,10
Y2-S2-045K30,2,205,AS,exp,26,↓,down,↓,0.612340799998492,True,19,-1,0,10
Y2-S2-045K30,2,206,AS,exp,33,→,right,→,0.6518647999037057,True,19,1,1,11
Y2-S2-045K30,2,207,AS,exp,38,↑,down,↓,0.7890937000047415,False,18,-1,1,12
Y2-S2-045K30,2,208,AS,exp,26,←,left,←,0.5827297000214458,True,19,-1,0,12
Y2-S2-045K30,2,209,AS,exp,26,→,right,→,0.7744091998320073,True,19,-1,0,12
Y2-S2-045K30,2,210,AS,exp,35,↓,down,↓,0.8219910999760032,True,19,1,1,13
Y2-S2-045K30,2,211,AS,exp,44,→,right,→,0.646488499827683,True,18,1,0,13
Y2-S2-045K30,2,212,AS,exp,33,↑,left,←,1.3957456999924034,False,18,-1,1,14
Y2-S2-045K30,2,213,AS,exp,49,←,left,←,0.6234530000947416,True,19,-1,0,14
Y2-S2-045K30,2,214,AS,exp,39,↓,down,↓,0.6087659001350403,True,19,-1,0,14
Y2-S2-045K30,2,215,AS,exp,25,←,left,←,0.9243246000260115,True,19,1,1,15
Y2-S2-045K30,2,216,AS,exp,31,→,down,↓,0.872747499961406,False,18,-1,1,16
Y2-S2-045K30,3,217,AS,intra_train,43,↑,up,↑,0.6724966000765562,True,25,-,-,-
Y2-S2-045K30,3,218,AS,intra_train,44,←,left,←,1.1755989000666887,True,25,-,-,-
Y2-S2-045K30,3,219,AS,intra_train,37,→,right,→,0.8440163000486791,True,25,-,-,-
Y2-S2-045K30,3,220,AS,intra_train,38,↓,down,↓,0.9025819001253694,True,25,-,-,-
Y2-S2-045K30,3,221,AS,intra_train,40,↑,up,↑,1.4874483000021428,True,25,-,-,-
Y2-S2-045K30,3,222,AS,exp,40,→,right,→,1.0071204998530447,True,17,0,0,0
Y2-S2-045K30,3,223,AS,exp,45,↓,down,↓,1.1583316000178456,True,17,0,0,0
Y2-S2-045K30,3,224,AS,exp,47,←,left,←,1.0404169999528676,True,17,1,0,0
Y2-S2-045K30,3,225,AS,exp,46,↓,up,↑,0.8669449998997152,False,16,-1,1,1
Y2-S2-045K30,3,226,AS,exp,26,←,left,←,0.9349084000568837,True,17,-1,0,1
Y2-S2-045K30,3,227,AS,exp,38,↑,left,←,0.988811899907887,False,17,-1,0,1
Y2-S2-045K30,3,228,AS,exp,47,←,left,←,0.825035999994725,True,18,-1,0,1
Y2-S2-045K30,3,229,AS,exp,32,→,right,→,1.0128820999525487,True,18,-1,0,1
Y2-S2-045K30,3,230,AS,exp,50,↑,up,↑,0.9485556001309305,True,18,1,1,2
Y2-S2-045K30,3,231,AS,exp,33,→,left,←,0.8333429000340402,False,17,-1,1,3
Y2-S2-045K30,3,232,AS,exp,30,↑,up,↑,0.800428100163117,True,18,-1,0,3
Y2-S2-045K30,3,233,AS,exp,44,↓,down,↓,0.7676759001333266,True,18,-1,0,3
Y2-S2-045K30,3,234,AS,exp,40,←,left,←,1.001395600149408,True,18,1,1,4
Y2-S2-045K30,3,235,AS,exp,28,↓,up,↑,0.8877102001570165,False,17,-1,1,5
Y2-S2-045K30,3,236,AS,exp,32,↑,up,↑,0.8091126999352127,True,18,-1,0,5
Y2-S2-045K30,3,237,AS,exp,43,↓,up,↑,1.2140856999903917,False,18,-1,0,5
Y2-S2-045K30,3,238,AS,exp,38,→,right,→,0.6885764000471681,True,19,-1,0,5
Y2-S2-045K30,3,239,AS,exp,32,←,left,←,0.9278417001478374,True,19,-1,0,5
Y2-S2-045K30,3,240,AS,exp,39,↓,up,↑,1.0088503998704255,False,19,-1,0,5
Y2-S2-045K30,3,241,AS,exp,50,←,left,←,1.0062903000507504,True,20,-1,0,5
Y2-S2-045K30,3,242,AS,exp,40,↓,up,↑,0.9518872001208365,False,20,-1,0,5
Y2-S2-045K30,3,243,AS,exp,45,↑,up,↑,0.6875897001009434,True,21,-1,0,5
Y2-S2-045K30,3,244,AS,exp,25,↓,down,↓,0.8813164001330733,True,21,-1,0,5
Y2-S2-045K30,3,245,AS,exp,40,↑,up,↑,0.8244226998649538,True,21,1,1,6
Y2-S2-045K30,3,246,AS,exp,48,↓,down,↓,1.1237975999247283,True,20,1,0,6
Y2-S2-045K30,3,247,AS,exp,36,→,right,→,1.2979262999724597,True,20,1,0,6
Y2-S2-045K30,3,248,AS,exp,31,←,left,←,1.0721966000273824,True,20,1,0,6
Y2-S2-045K30,3,249,AS,exp,37,→,right,→,0.7968242999631912,True,19,1,0,6
Y2-S2-045K30,3,250,AS,exp,38,←,left,←,1.1891095999162644,True,19,1,0,6
Y2-S2-045K30,3,251,AS,exp,36,↓,down,↓,0.9287139000371099,True,19,1,0,6
Y2-S2-045K30,3,252,AS,exp,40,←,left,←,1.0138423000462353,True,18,1,0,6
Y2-S2-045K30,3,253,AS,exp,46,↑,up,↑,0.7626221000682563,True,18,1,0,6
Y2-S2-045K30,3,254,AS,exp,45,↓,down,↓,0.8538915999233723,True,18,1,0,6
Y2-S2-045K30,3,255,AS,exp,30,→,right,→,0.8580715998541564,True,17,1,0,6
Y2-S2-045K30,3,256,AS,exp,39,←,up,↑,0.8459741999395192,False,17,-1,1,7
Y2-S2-045K30,3,257,AS,exp,27,↓,down,↓,0.7873009000904858,True,18,-1,0,7
Y2-S2-045K30,3,258,AS,exp,49,←,left,←,0.6692819001618773,True,18,-1,0,7
Y2-S2-045K30,3,259,AS,exp,45,↑,up,↑,0.6757590000052005,True,18,1,1,8
Y2-S2-045K30,3,260,AS,exp,32,←,left,←,1.156100600026548,True,17,1,0,8
Y2-S2-045K30,3,261,AS,exp,43,↓,down,↓,0.7632724998984486,True,17,1,0,8
Y2-S2-045K30,3,262,AS,exp,38,←,left,←,0.7888875999487936,True,17,1,0,8
Y2-S2-045K30,3,263,AS,exp,31,↓,left,←,1.3512873998843133,False,16,-1,1,9
Y2-S2-045K30,3,264,AS,exp,32,↑,up,↑,0.728916099993512,True,17,-1,0,9
Y2-S2-045K30,3,265,AS,exp,49,↓,up,↑,1.111221200088039,False,17,-1,0,9
Y2-S2-045K30,3,266,AS,exp,38,↑,up,↑,0.5425239000469446,True,18,-1,0,9
Y2-S2-045K30,3,267,AS,exp,29,←,left,←,1.0133720999583602,True,18,-1,0,9
Y2-S2-045K30,3,268,AS,exp,28,↓,up,↑,0.9005984000395983,False,18,-1,0,9
Y2-S2-045K30,3,269,AS,exp,37,←,left,←,0.9367889000568539,True,19,-1,0,9
Y2-S2-045K30,3,270,AS,exp,25,→,left,←,0.8915624001529068,False,19,-1,0,9
Y2-S2-045K30,3,271,AS,exp,30,↓,down,↓,0.7462981001008302,True,20,-1,0,9
Y2-S2-045K30,3,272,AS,exp,46,→,right,→,1.0551967001520097,True,20,-1,0,9
Y2-S2-045K30,3,273,AS,exp,42,↓,down,↓,0.8758906000293791,True,20,1,1,10
Y2-S2-045K30,3,274,AS,exp,26,←,left,←,0.9802234000526369,True,19,1,0,10
Y2-S2-045K30,3,275,AS,exp,48,↑,up,↑,0.6544723000843078,True,19,1,0,10
Y2-S2-045K30,3,276,AS,exp,36,→,right,→,0.803833199897781,True,19,1,0,10
Y2-S2-045K30,3,277,AS,exp,47,↑,left,←,0.9124728001188487,False,18,-1,1,11
Y2-S2-045K30,3,278,AS,exp,43,→,right,→,0.9213912000413984,True,19,-1,0,11
Y2-S2-045K30,3,279,AS,exp,28,↑,up,↑,0.8365519000217319,True,19,-1,0,11
Y2-S2-045K30,3,280,AS,exp,30,↓,down,↓,0.657037700060755,True,19,1,1,12
Y2-S2-045K30,3,281,AS,exp,50,←,left,←,1.2273166000377387,True,18,1,0,12
Y2-S2-045K30,3,282,AS,exp,37,→,right,→,0.8159580000210553,True,18,1,0,12
Y2-S2-045K30,3,283,AS,exp,26,←,down,↓,1.0814880998805165,False,18,-1,1,13
Y2-S2-045K30,3,284,AS,exp,32,↑,left,←,1.0288104000501335,False,19,-1,0,13
Y2-S2-045K30,3,285,AS,exp,31,↓,right,→,0.5695578001905233,False,20,-1,0,13
Y2-S2-045K30,3,286,AS,exp,31,→,right,→,0.9496426000259817,True,21,-1,0,13
Y2-S2-045K30,3,287,AS,exp,36,←,left,←,0.67765500000678,True,21,-1,0,13
Y2-S2-045K30,3,288,AS,exp,43,↓,down,↓,1.1194307000841945,True,21,1,1,14
Y2-S2-045K30,3,289,AS,exp,41,→,right,→,0.7202522000297904,True,20,1,0,14
Y2-S2-045K30,3,290,AS,exp,34,↑,left,←,1.0617678000126034,False,20,-1,1,15
Y2-S2-045K30,3,291,AS,exp,43,↓,down,↓,0.7056344000156969,True,21,-1,0,15
Y2-S2-045K30,3,292,AS,exp,33,↑,up,↑,0.7868222999386489,True,21,-1,0,15
Y2-S2-045K30,3,293,AS,exp,25,←,left,←,1.0251217000186443,True,21,1,1,16
Y2-S2-045K30,4,294,PS,intra_train,43,↑,up,↑,0.8309524999931455,True,13,-,-,-
Y2-S2-045K30,4,295,PS,intra_train,40,→,right,→,0.8275423999875784,True,13,-,-,-
Y2-S2-045K30,4,296,PS,intra_train,39,←,left,←,0.7288814000785351,True,13,-,-,-
Y2-S2-045K30,4,297,PS,intra_train,44,↓,down,↓,0.7508378000929952,True,13,-,-,-
Y2-S2-045K30,4,298,PS,intra_train,50,→,right,→,0.7599808999802917,True,13,-,-,-
Y2-S2-045K30,4,299,PS,exp,50,↓,down,↓,0.7195669000502676,True,9,0,0,0
Y2-S2-045K30,4,300,PS,exp,46,→,right,→,0.8084544998127967,True,9,0,0,0
Y2-S2-045K30,4,301,PS,exp,26,↓,right,→,0.7899868998210877,False,9,-1,0,0
Y2-S2-045K30,4,302,PS,exp,44,←,left,←,0.8279825001955032,True,10,-1,0,0
Y2-S2-045K30,4,303,PS,exp,38,↓,right,→,0.9544486000668257,False,10,-1,0,0
Y2-S2-045K30,4,304,PS,exp,42,↑,up,↑,0.5462100999429822,True,11,-1,0,0
Y2-S2-045K30,4,305,PS,exp,29,↓,down,↓,0.7332419999875128,True,11,-1,0,0
Y2-S2-045K30,4,306,PS,exp,47,←,left,←,0.7219561999663711,True,11,1,1,1
Y2-S2-045K30,4,307,PS,exp,50,↑,left,←,0.7899024998769164,False,10,-1,1,2
Y2-S2-045K30,4,308,PS,exp,47,→,right,→,0.6231581999454647,True,11,-1,0,2
Y2-S2-045K30,4,309,PS,exp,49,←,left,←,0.6381156998686492,True,11,-1,0,2
Y2-S2-045K30,4,310,PS,exp,43,→,right,→,0.6126707999501377,True,11,1,1,3
Y2-S2-045K30,4,311,PS,exp,42,↓,down,↓,0.7239633998833597,True,10,1,0,3
Y2-S2-045K30,4,312,PS,exp,27,→,right,→,0.7730199000798166,True,10,1,0,3
Y2-S2-045K30,4,313,PS,exp,30,←,left,←,0.5567864999175072,True,10,1,0,3
Y2-S2-045K30,4,314,PS,exp,47,↓,down,↓,0.6210636000614613,True,9,1,0,3
Y2-S2-045K30,4,315,PS,exp,40,↑,up,↑,0.7841733999084681,True,9,1,0,3
Y2-S2-045K30,4,316,PS,exp,43,←,left,←,0.687071799999103,True,9,1,0,3
Y2-S2-045K30,4,317,PS,exp,41,↓,down,↓,0.814191399840638,True,8,1,0,3
Y2-S2-045K30,4,318,PS,exp,39,→,up,↑,0.9801366999745369,False,8,-1,1,4
Y2-S2-045K30,4,319,PS,exp,47,↑,up,↑,0.8118450997862965,True,9,-1,0,4
Y2-S2-045K30,4,320,PS,exp,40,←,left,←,0.7439987000543624,True,9,-1,0,4
Y2-S2-045K30,4,321,PS,exp,50,↑,up,↑,0.7850492999423295,True,9,1,1,5
Y2-S2-045K30,4,322,PS,exp,49,↓,down,↓,0.6308963000774384,True,8,1,0,5
Y2-S2-045K30,4,323,PS,exp,40,→,left,←,1.0296734001021832,False,8,-1,1,6
Y2-S2-045K30,4,324,PS,exp,34,↑,up,↑,0.5493809999898076,True,9,-1,0,6
Y2-S2-045K30,4,325,PS,exp,29,←,left,←,0.7047861001919955,True,9,-1,0,6
Y2-S2-045K30,4,326,PS,exp,34,↓,down,↓,0.6423176000826061,True,9,1,1,7
Y2-S2-045K30,4,327,PS,exp,38,→,right,→,0.8119777999818325,True,8,1,0,7
Y2-S2-045K30,4,328,PS,exp,26,↑,down,↓,0.7322624998632818,False,8,-1,1,8
Y2-S2-045K30,4,329,PS,exp,32,↓,down,↓,0.6650096999946982,True,9,-1,0,8
Y2-S2-045K30,4,330,PS,exp,40,↑,up,↑,0.8159803999587893,True,9,-1,0,8
Y2-S2-045K30,4,331,PS,exp,49,←,left,←,0.8168756999075413,True,9,1,1,9
Y2-S2-045K30,4,332,PS,exp,37,→,right,→,0.8080945999827236,True,8,1,0,9
Y2-S2-045K30,4,333,PS,exp,34,↓,down,↓,0.8468139998149127,True,8,1,0,9
Y2-S2-045K30,4,334,PS,exp,35,←,left,←,0.7737816998269409,True,8,1,0,9
Y2-S2-045K30,4,335,PS,exp,27,→,right,→,0.8028905999381095,True,7,1,0,9
Y2-S2-045K30,4,336,PS,exp,31,↓,down,↓,0.7084331000223756,True,7,1,0,9
Y2-S2-045K30,4,337,PS,exp,46,→,left,←,1.2840134999714792,False,7,-1,1,10
Y2-S2-045K30,4,338,PS,exp,29,↓,left,←,0.8129071001894772,False,8,-1,0,10
Y2-S2-045K30,4,339,PS,exp,40,←,left,←,0.5345942999701947,True,9,-1,0,10
Y2-S2-045K30,4,340,PS,exp,34,→,right,→,1.4018488000147045,True,9,-1,0,10
Y2-S2-045K30,4,341,PS,exp,46,↑,left,←,1.1816566998604685,False,9,-1,0,10
Y2-S2-045K30,4,342,PS,exp,39,→,right,→,0.8513750000856817,True,10,-1,0,10
Y2-S2-045K30,4,343,PS,exp,36,↓,down,↓,0.6948531998787075,True,10,-1,0,10
Y2-S2-045K30,4,344,PS,exp,34,←,left,←,0.7624330001417547,True,10,1,1,11
Y2-S2-045K30,4,345,PS,exp,37,→,right,→,0.8767484000418335,True,9,1,0,11
Y2-S2-045K30,4,346,PS,exp,49,←,left,←,0.697537099942565,True,9,1,0,11
Y2-S2-045K30,4,347,PS,exp,43,↑,left,←,0.7134775000158697,False,9,-1,1,12
Y2-S2-045K30,4,348,PS,exp,41,↓,down,↓,0.9173371000215411,True,10,-1,0,12
Y2-S2-045K30,4,349,PS,exp,49,↑,up,↑,0.6827032000292093,True,10,-1,0,12
Y2-S2-045K30,4,350,PS,exp,27,↓,up,↑,0.9090476999990642,False,10,-1,0,12
Y2-S2-045K30,4,351,PS,exp,36,←,left,←,1.0097107000183314,True,11,-1,0,12
Y2-S2-045K30,4,352,PS,exp,30,↓,down,↓,0.7943172000814229,True,11,-1,0,12
Y2-S2-045K30,4,353,PS,exp,45,↑,up,↑,0.6504091999959201,True,11,1,1,13
Y2-S2-045K30,4,354,PS,exp,43,←,left,←,0.670228699920699,True,10,1,0,13
Y2-S2-045K30,4,355,PS,exp,28,→,down,↓,0.7847338998690248,False,10,-1,1,14
Y2-S2-045K30,4,356,PS,exp,34,←,left,←,0.6194001999683678,True,11,-1,0,14
Y2-S2-045K30,4,357,PS,exp,40,→,right,→,0.9146423998754472,True,11,-1,0,14
Y2-S2-045K30,4,358,PS,exp,25,←,left,←,1.1233832000289112,True,11,1,1,15
Y2-S2-045K30,4,359,PS,exp,49,↓,down,↓,0.8281255001202226,True,10,1,0,15
Y2-S2-045K30,4,360,PS,exp,37,←,left,←,0.89897850016132,True,10,1,0,15
Y2-S2-045K30,4,361,PS,exp,38,→,right,→,1.1856053001247346,True,10,1,0,15
Y2-S2-045K30,4,362,PS,exp,27,←,left,←,0.8332879000809044,True,9,1,0,15
Y2-S2-045K30,4,363,PS,exp,36,↓,left,←,1.2852491999510676,False,9,-1,1,16
Y2-S2-045K30,5,364,PS,intra_train,33,←,left,←,1.0861879999283701,True,13,-,-,-
Y2-S2-045K30,5,365,PS,intra_train,45,↑,left,←,0.7497881001327187,False,13,-,-,-
Y2-S2-045K30,5,366,PS,intra_train,50,←,left,←,0.7512489999644458,True,13,-,-,-
Y2-S2-045K30,5,367,PS,intra_train,30,↑,left,←,0.9527479000389576,False,13,-,-,-
Y2-S2-045K30,5,368,PS,intra_train,50,↓,down,↓,0.8598323001060635,True,13,-,-,-
Y2-S2-045K30,5,369,PS,exp,32,←,left,←,0.6873953999020159,True,9,0,0,0
Y2-S2-045K30,5,370,PS,exp,35,↓,left,←,0.7348360000178218,False,9,-1,0,0
Y2-S2-045K30,5,371,PS,exp,33,←,left,←,0.6699595998506993,True,10,-1,0,0
Y2-S2-045K30,5,372,PS,exp,45,↓,left,←,0.7352344000246376,False,10,-1,0,0
Y2-S2-045K30,5,373,PS,exp,28,↑,up,↑,0.7295222000684589,True,11,-1,0,0
Y2-S2-045K30,5,374,PS,exp,33,→,right,→,1.087725300109014,True,11,-1,0,0
Y2-S2-045K30,5,375,PS,exp,34,←,right,→,0.9890081000048667,False,11,-1,0,0
Y2-S2-045K30,5,376,PS,exp,43,→,right,→,0.7824816999491304,True,12,-1,0,0
Y2-S2-045K30,5,377,PS,exp,25,←,left,←,0.789454999845475,True,12,-1,0,0
Y2-S2-045K30,5,378,PS,exp,29,↓,down,↓,0.7385320998728275,True,12,1,1,1
Y2-S2-045K30,5,379,PS,exp,41,↑,right,→,0.8669721002224833,False,11,-1,1,2
Y2-S2-045K30,5,380,PS,exp,41,←,left,←,0.7644665001425892,True,12,-1,0,2
Y2-S2-045K30,5,381,PS,exp,41,↑,up,↑,0.7386369998566806,True,12,-1,0,2
Y2-S2-045K30,5,382,PS,exp,50,→,right,→,0.7924845998641104,True,12,1,1,3
Y2-S2-045K30,5,383,PS,exp,46,←,left,←,0.958897199947387,True,11,1,0,3
Y2-S2-045K30,5,384,PS,exp,34,↑,up,↑,0.816922300029546,True,11,1,0,3
Y2-S2-045K30,5,385,PS,exp,31,←,left,←,0.8260576999746263,True,11,1,0,3
Y2-S2-045K30,5,386,PS,exp,41,↓,up,↑,0.8267839998006821,False,10,-1,1,4
Y2-S2-045K30,5,387,PS,exp,34,→,left,←,0.7773060998879373,False,11,-1,0,4
Y2-S2-045K30,5,388,PS,exp,40,←,left,←,0.711200499907136,True,12,-1,0,4
Y2-S2-045K30,5,389,PS,exp,31,↓,down,↓,0.8417879999615252,True,12,-1,0,4
Y2-S2-045K30,5,390,PS,exp,27,↑,up,↑,0.7555949999950826,True,12,1,1,5
Y2-S2-045K30,5,391,PS,exp,31,←,left,←,0.8503560998942703,True,11,1,0,5
Y2-S2-045K30,5,392,PS,exp,34,→,left,←,0.7540128000546247,False,11,-1,1,6
Y2-S2-045K30,5,393,PS,exp,29,↑,up,↑,0.7964332001283765,True,12,-1,0,6
Y2-S2-045K30,5,394,PS,exp,40,←,left,←,0.9249829999171197,True,12,-1,0,6
Y2-S2-045K30,5,395,PS,exp,47,→,right,→,0.8285993000026792,True,12,1,1,7
Y2-S2-045K30,5,396,PS,exp,35,←,left,←,0.7428735001012683,True,11,1,0,7
Y2-S2-045K30,5,397,PS,exp,33,→,up,↑,0.7098596000578254,False,11,-1,1,8
Y2-S2-045K30,5,398,PS,exp,45,↓,down,↓,0.8489259998314083,True,12,-1,0,8
Y2-S2-045K30,5,399,PS,exp,27,↑,up,↑,1.1451773999724537,True,12,-1,0,8
Y2-S2-045K30,5,400,PS,exp,43,→,right,→,0.8898151000030339,True,12,1,1,9
Y2-S2-045K30,5,401,PS,exp,48,←,left,←,0.7810764999594539,True,11,1,0,9
Y2-S2-045K30,5,402,PS,exp,40,→,right,→,0.7542938999831676,True,11,1,0,9
Y2-S2-045K30,5,403,PS,exp,49,↓,down,↓,0.7342755000572652,True,11,1,0,9
Y2-S2-045K30,5,404,PS,exp,36,←,left,←,0.7606357999611646,True,10,1,0,9
Y2-S2-045K30,5,405,PS,exp,36,↓,down,↓,0.8538883000146598,True,10,1,0,9
Y2-S2-045K30,5,406,PS,exp,26,↑,up,↑,0.6181340999901295,True,10,1,0,9
Y2-S2-045K30,5,407,PS,exp,46,←,left,←,0.6227632001973689,True,9,1,0,9
Y2-S2-045K30,5,408,PS,exp,33,↑,up,↑,0.4949449999257922,True,9,1,0,9
Y2-S2-045K30,5,409,PS,exp,25,↓,down,↓,0.7666827999055386,True,9,1,0,9
Y2-S2-045K30,5,410,PS,exp,29,←,left,←,0.6036330999340862,True,8,1,0,9
Y2-S2-045K30,5,411,PS,exp,41,→,right,→,0.8732270998880267,True,8,1,0,9
Y2-S2-045K30,5,412,PS,exp,26,↑,up,↑,0.5232468999456614,True,8,1,0,9
Y2-S2-045K30,5,413,PS,exp,31,↓,up,↑,0.7348644000012428,False,7,-1,1,10
Y2-S2-045K30,5,414,PS,exp,25,←,left,←,0.727680099895224,True,8,-1,0,10
Y2-S2-045K30,5,415,PS,exp,48,↓,down,↓,0.7759173999074847,True,8,-1,0,10
Y2-S2-045K30,5,416,PS,exp,27,↑,up,↑,0.5370701001957059,True,8,1,1,11
Y2-S2-045K30,5,417,PS,exp,29,←,right,→,0.5602448000572622,False,7,-1,1,12
Y2-S2-045K30,5,418,PS,exp,41,↑,up,↑,0.7428320001345128,True,8,-1,0,12
Y2-S2-045K30,5,419,PS,exp,45,↓,left,←,0.7702439001295716,False,8,-1,0,12
Y2-S2-045K30,5,420,PS,exp,29,→,right,→,0.9685090999118984,True,9,-1,0,12
Y2-S2-045K30,5,421,PS,exp,50,↓,down,↓,0.7677527000196278,True,9,-1,0,12
Y2-S2-045K30,5,422,PS,exp,50,↑,up,↑,0.6825818000361323,True,9,1,1,13
Y2-S2-045K30,5,423,PS,exp,43,←,left,←,0.7974062000866979,True,8,1,0,13
Y2-S2-045K30,5,424,PS,exp,45,↓,up,↑,0.7280266999732703,False,8,-1,1,14
Y2-S2-045K30,5,425,PS,exp,33,←,up,↑,0.7645466001704335,False,9,-1,0,14
Y2-S2-045K30,5,426,PS,exp,25,→,right,→,0.7786894999444485,True,10,-1,0,14
Y2-S2-045K30,5,427,PS,exp,34,←,left,←,0.7756680999882519,True,10,-1,0,14
Y2-S2-045K30,5,428,PS,exp,28,→,right,→,0.7671344999689609,True,10,1,1,15
Y2-S2-045K30,5,429,PS,exp,43,↑,up,↑,0.48358070012182,True,9,1,0,15
Y2-S2-045K30,5,430,PS,exp,36,→,left,←,0.8122910000383854,False,9,-1,1,16
Y2-S2-045K30,6,431,AS,intra_train,49,↓,down,↓,0.8830858999863267,True,25,-,-,-
Y2-S2-045K30,6,432,AS,intra_train,34,←,left,←,0.6799182000104338,True,25,-,-,-
Y2-S2-045K30,6,433,AS,intra_train,31,→,right,→,0.8860868001356721,True,25,-,-,-
Y2-S2-045K30,6,434,AS,intra_train,50,←,left,←,0.9067426000256091,True,25,-,-,-
Y2-S2-045K30,6,435,AS,intra_train,48,↑,up,↑,0.9110508000012487,True,25,-,-,-
Y2-S2-045K30,6,436,AS,exp,38,↓,down,↓,1.0382036999799311,True,17,0,0,0
Y2-S2-045K30,6,437,AS,exp,46,←,left,←,0.9638071001973003,True,17,0,0,0
Y2-S2-045K30,6,438,AS,exp,45,↓,down,↓,0.804242999991402,True,17,1,0,0
Y2-S2-045K30,6,439,AS,exp,47,→,left,←,1.132563800085336,False,16,-1,1,1
Y2-S2-045K30,6,440,AS,exp,48,↓,down,↓,1.1737856999970973,True,17,-1,0,1
Y2-S2-045K30,6,441,AS,exp,36,→,down,↓,0.8309269000310451,False,17,-1,0,1
Y2-S2-045K30,6,442,AS,exp,32,←,left,←,0.9006954000797123,True,18,-1,0,1
Y2-S2-045K30,6,443,AS,exp,48,↑,up,↑,0.8380638998933136,True,18,-1,0,1
Y2-S2-045K30,6,444,AS,exp,46,→,right,→,0.9338116999715567,True,18,1,1,2
Y2-S2-045K30,6,445,AS,exp,38,↓,down,↓,0.8506883000954986,True,17,1,0,2
Y2-S2-045K30,6,446,AS,exp,28,←,left,←,0.7538155999500304,True,17,1,0,2
Y2-S2-045K30,6,447,AS,exp,25,↓,left,←,1.11148800002411,False,17,-1,1,3
Y2-S2-045K30,6,448,AS,exp,30,←,left,←,0.6957656999584287,True,18,-1,0,3
Y2-S2-045K30,6,449,AS,exp,31,→,right,→,0.8732487000524998,True,18,-1,0,3
Y2-S2-045K30,6,450,AS,exp,36,←,left,←,0.4786710001062602,True,18,1,1,4
Y2-S2-045K30,6,451,AS,exp,48,→,left,←,0.7963636999484152,False,17,-1,1,5
Y2-S2-045K30,6,452,AS,exp,38,↑,up,↑,0.9309111000038683,True,18,-1,0,5
Y2-S2-045K30,6,453,AS,exp,48,→,right,→,0.9863181998953223,True,18,-1,0,5
Y2-S2-045K30,6,454,AS,exp,35,←,right,→,0.8253838000819087,False,18,-1,0,5
Y2-S2-045K30,6,455,AS,exp,27,↑,up,↑,0.8534470999147743,True,19,-1,0,5
Y2-S2-045K30,6,456,AS,exp,44,↓,down,↓,0.7504529000725597,True,19,-1,0,5
Y2-S2-045K30,6,457,AS,exp,50,→,down,↓,1.2841008000541478,False,19,-1,0,5
Y2-S2-045K30,6,458,AS,exp,41,←,left,←,1.0499394000507891,True,20,-1,0,5
Y2-S2-045K30,6,459,AS,exp,25,→,left,←,1.1435795000288635,False,20,-1,0,5
Y2-S2-045K30,6,460,AS,exp,33,←,left,←,1.0996525997761637,True,21,-1,0,5
Y2-S2-045K30,6,461,AS,exp,46,↓,up,↑,0.9817120998632163,False,21,-1,0,5
Y2-S2-045K30,6,462,AS,exp,29,←,left,←,1.0177654998842627,True,22,-1,0,5
Y2-S2-045K30,6,463,AS,exp,30,↓,down,↓,0.6053550001233816,True,22,-1,0,5
Y2-S2-045K30,6,464,AS,exp,34,→,right,→,0.9338495000265539,True,22,1,1,6
Y2-S2-045K30,6,465,AS,exp,38,←,right,→,1.3849786000791937,False,21,-1,1,7
Y2-S2-045K30,6,466,AS,exp,36,→,right,→,0.8703789999708533,True,22,-1,0,7
Y2-S2-045K30,6,467,AS,exp,49,↓,down,↓,0.8758713998831809,True,22,-1,0,7
Y2-S2-045K30,6,468,AS,exp,39,↑,up,↑,0.6673570999410003,True,22,1,1,8
Y2-S2-045K30,6,469,AS,exp,39,↓,down,↓,0.6767064998857677,True,21,1,0,8
Y2-S2-045K30,6,470,AS,exp,50,→,right,→,0.7096407001372427,True,21,1,0,8
Y2-S2-045K30,6,471,AS,exp,41,←,left,←,0.6890161000192165,True,21,1,0,8
Y2-S2-045K30,6,472,AS,exp,49,→,right,→,0.9226522999815643,True,20,1,0,8
Y2-S2-045K30,6,473,AS,exp,26,↑,up,↑,0.6825661999173462,True,20,1,0,8
Y2-S2-045K30,6,474,AS,exp,31,↓,down,↓,0.5914351001847535,True,20,1,0,8
Y2-S2-045K30,6,475,AS,exp,49,↑,up,↑,0.5119719000067562,True,19,1,0,8
Y2-S2-045K30,6,476,AS,exp,48,→,right,→,0.903999499976635,True,19,1,0,8
Y2-S2-045K30,6,477,AS,exp,44,↑,up,↑,0.9775902000255883,True,19,1,0,8
Y2-S2-045K30,6,478,AS,exp,33,↓,down,↓,0.977307999972254,True,18,1,0,8
Y2-S2-045K30,6,479,AS,exp,34,↑,up,↑,0.7471183000598103,True,18,1,0,8
Y2-S2-045K30,6,480,AS,exp,25,←,left,←,0.9054643998388201,True,18,1,0,8
Y2-S2-045K30,6,481,AS,exp,48,↓,down,↓,0.8552176000084728,True,17,1,0,8
Y2-S2-045K30,6,482,AS,exp,34,↑,right,→,0.9048816000577062,False,17,-1,1,9
Y2-S2-045K30,6,483,AS,exp,33,←,left,←,0.5922727000433952,True,18,-1,0,9
Y2-S2-045K30,6,484,AS,exp,36,→,right,→,0.6615051999688148,True,18,-1,0,9
Y2-S2-045K30,6,485,AS,exp,47,↑,up,↑,0.43378340010531247,True,18,1,1,10
Y2-S2-045K30,6,486,AS,exp,36,→,right,→,0.9587789999786764,True,17,1,0,10
Y2-S2-045K30,6,487,AS,exp,46,←,left,←,0.8971965000964701,True,17,1,0,10
Y2-S2-045K30,6,488,AS,exp,49,↑,up,↑,0.5476444999221712,True,17,1,0,10
Y2-S2-045K30,6,489,AS,exp,43,↓,right,→,1.1180613997858018,False,16,-1,1,11
Y2-S2-045K30,6,490,AS,exp,35,→,right,→,0.6017819999251515,True,17,-1,0,11
Y2-S2-045K30,6,491,AS,exp,26,↑,right,→,1.0936058999504894,False,17,-1,0,11
Y2-S2-045K30,6,492,AS,exp,45,↓,down,↓,0.7100235999096185,True,18,-1,0,11
Y2-S2-045K30,6,493,AS,exp,45,↑,up,↑,0.8563160002231598,True,18,-1,0,11
Y2-S2-045K30,6,494,AS,exp,33,↓,down,↓,0.6953307001385838,True,18,1,1,12
Y2-S2-045K30,6,495,AS,exp,36,→,right,→,0.8832661001943052,True,17,1,0,12
Y2-S2-045K30,6,496,AS,exp,43,↓,right,→,1.0763083000201732,False,17,-1,1,13
Y2-S2-045K30,6,497,AS,exp,30,→,right,→,0.8890347999986261,True,18,-1,0,13
Y2-S2-045K30,6,498,AS,exp,39,←,right,→,0.8004546999000013,False,18,-1,0,13
Y2-S2-045K30,6,499,AS,exp,25,↓,down,↓,0.9927993000019342,True,19,-1,0,13
Y2-S2-045K30,6,500,AS,exp,39,→,right,→,0.7174706999212503,True,19,-1,0,13
Y2-S2-045K30,6,501,AS,exp,31,↓,down,↓,0.7120738998055458,True,19,1,1,14
Y2-S2-045K30,6,502,AS,exp,45,→,right,→,0.6651602999772877,True,18,1,0,14
Y2-S2-045K30,6,503,AS,exp,35,←,left,←,1.0389121999032795,True,18,1,0,14
Y2-S2-045K30,6,504,AS,exp,41,→,left,←,0.9373834000434726,False,18,-1,1,15
Y2-S2-045K30,6,505,AS,exp,46,↑,down,↓,0.9878694999497384,False,19,-1,0,15
Y2-S2-045K30,6,506,AS,exp,35,←,left,←,0.6243632000405341,True,20,-1,0,15
Y2-S2-045K30,6,507,AS,exp,27,→,right,→,0.9366201001685113,True,20,-1,0,15
Y2-S2-045K30,6,508,AS,exp,29,↑,up,↑,0.9485736000351608,True,20,1,1,16
Y2-S2-045K30,7,509,AS,intra_train,44,↓,down,↓,0.6413223999552429,True,25,-,-,-
Y2-S2-045K30,7,510,AS,intra_train,30,↑,up,↑,0.904928799951449,True,25,-,-,-
Y2-S2-045K30,7,511,AS,intra_train,30,↓,down,↓,0.7029795001726598,True,25,-,-,-
Y2-S2-045K30,7,512,AS,intra_train,42,↑,up,↑,1.5954192001372576,True,25,-,-,-
Y2-S2-045K30,7,513,AS,intra_train,47,←,left,←,0.9480473001021892,True,25,-,-,-
Y2-S2-045K30,7,514,AS,exp,29,↓,down,↓,0.8496969998814166,True,17,0,0,0
Y2-S2-045K30,7,515,AS,exp,33,→,right,→,0.8306611001025885,True,17,0,0,0
Y2-S2-045K30,7,516,AS,exp,43,←,left,←,0.8520629999693483,True,17,1,0,0
Y2-S2-045K30,7,517,AS,exp,39,→,right,→,0.6576266998890787,True,16,1,0,0
Y2-S2-045K30,7,518,AS,exp,26,↓,down,↓,0.6855691999662668,True,16,1,0,0
Y2-S2-045K30,7,519,AS,exp,50,←,right,→,1.2317717999685556,False,16,-1,1,1
Y2-S2-045K30,7,520,AS,exp,32,→,right,→,0.7469800000544637,True,17,-1,0,1
Y2-S2-045K30,7,521,AS,exp,26,↓,left,←,1.0659848998766392,False,17,-1,0,1
Y2-S2-045K30,7,522,AS,exp,36,←,left,←,0.8970298999920487,True,18,-1,0,1
Y2-S2-045K30,7,523,AS,exp,46,→,right,→,0.9455378998536617,True,18,-1,0,1
Y2-S2-045K30,7,524,AS,exp,49,↓,down,↓,0.8583390000276268,True,18,1,1,2
Y2-S2-045K30,7,525,AS,exp,40,→,right,→,0.7873098000418395,True,17,1,0,2
Y2-S2-045K30,7,526,AS,exp,33,←,left,←,1.058784400112927,True,17,1,0,2
Y2-S2-045K30,7,527,AS,exp,32,→,right,→,0.6203900999389589,True,17,1,0,2
Y2-S2-045K30,7,528,AS,exp,38,↓,down,↓,0.6010586998891085,True,16,1,0,2
Y2-S2-045K30,7,529,AS,exp,34,←,left,←,0.8453406998887658,True,16,1,0,2
Y2-S2-045K30,7,530,AS,exp,34,↑,left,←,0.8241610999684781,False,16,-1,1,3
Y2-S2-045K30,7,531,AS,exp,42,↓,right,→,0.9825673999730498,False,17,-1,0,3
Y2-S2-045K30,7,532,AS,exp,43,←,left,←,0.7988275999668986,True,18,-1,0,3
Y2-S2-045K30,7,533,AS,exp,40,↑,up,↑,0.7535224000457674,True,18,-1,0,3
Y2-S2-045K30,7,534,AS,exp,25,→,right,→,0.6286534999962896,True,18,1,1,4
Y2-S2-045K30,7,535,AS,exp,47,↓,up,↑,1.4053817000240088,False,17,-1,1,5
Y2-S2-045K30,7,536,AS,exp,49,←,left,←,0.7719315998256207,True,18,-1,0,5
Y2-S2-045K30,7,537,AS,exp,33,→,right,→,0.9607705001253635,True,18,-1,0,5
Y2-S2-045K30,7,538,AS,exp,41,↑,up,↑,0.6670790000353009,True,18,1,1,6
Y2-S2-045K30,7,539,AS,exp,48,↓,down,↓,0.9217987000010908,True,17,1,0,6
Y2-S2-045K30,7,540,AS,exp,43,→,right,→,0.7872096998617053,True,17,1,0,6
Y2-S2-045K30,7,541,AS,exp,40,←,left,←,0.8605015999637544,True,17,1,0,6
Y2-S2-045K30,7,542,AS,exp,26,→,right,→,0.8824477000162005,True,16,1,0,6
Y2-S2-045K30,7,543,AS,exp,35,←,left,←,0.7321671999525279,True,16,1,0,6
Y2-S2-045K30,7,544,AS,exp,49,↑,right,→,1.0239658998325467,False,16,-1,1,7
Y2-S2-045K30,7,545,AS,exp,32,→,right,→,0.7760689998976886,True,17,-1,0,7
Y2-S2-045K30,7,546,AS,exp,49,↓,down,↓,0.8305054998490959,True,17,-1,0,7
Y2-S2-045K30,7,547,AS,exp,27,↑,down,↓,0.9470973000861704,False,17,-1,0,7
Y2-S2-045K30,7,548,AS,exp,40,↓,down,↓,0.9038380000274628,True,18,-1,0,7
Y2-S2-045K30,7,549,AS,exp,28,↑,down,↓,0.9259965000674129,False,18,-1,0,7
Y2-S2-045K30,7,550,AS,exp,39,→,right,→,0.6763994998764247,True,19,-1,0,7
Y2-S2-045K30,7,551,AS,exp,40,↑,up,↑,0.8594009000808001,True,19,-1,0,7
Y2-S2-045K30,7,552,AS,exp,29,↓,down,↓,1.2264635001774877,True,19,1,1,8
Y2-S2-045K30,7,553,AS,exp,39,↑,up,↑,0.5895270998589694,True,18,1,0,8
Y2-S2-045K30,7,554,AS,exp,44,→,right,→,0.8198726999107748,True,18,1,0,8
Y2-S2-045K30,7,555,AS,exp,39,←,left,←,0.8338725999929011,True,18,1,0,8
Y2-S2-045K30,7,556,AS,exp,36,→,right,→,0.8970918001141399,True,17,1,0,8
Y2-S2-045K30,7,557,AS,exp,36,↑,up,↑,0.9051381999161094,True,17,1,0,8
Y2-S2-045K30,7,558,AS,exp,44,↓,down,↓,0.6807567998766899,True,17,1,0,8
Y2-S2-045K30,7,559,AS,exp,43,←,left,←,0.7895400999113917,True,16,1,0,8
Y2-S2-045K30,7,560,AS,exp,40,↑,up,↑,0.785674599930644,True,16,1,0,8
Y2-S2-045K30,7,561,AS,exp,45,→,left,←,0.7536770000588149,False,16,-1,1,9
Y2-S2-045K30,7,562,AS,exp,26,←,left,←,0.9464340000413358,True,17,-1,0,9
Y2-S2-045K30,7,563,AS,exp,48,↑,up,↑,0.7016676000785083,True,17,-1,0,9
Y2-S2-045K30,7,564,AS,exp,25,←,left,←,0.8093350999988616,True,17,1,1,10
Y2-S2-045K30,7,565,AS,exp,39,↓,up,↑,0.9585080000106245,False,16,-1,1,11
Y2-S2-045K30,7,566,AS,exp,44,↑,right,→,1.042381800012663,False,17,-1,0,11
Y2-S2-045K30,7,567,AS,exp,50,→,right,→,0.7199305999092758,True,18,-1,0,11
Y2-S2-045K30,7,568,AS,exp,35,←,left,←,0.8968088999390602,True,18,-1,0,11
Y2-S2-045K30,7,569,AS,exp,26,↑,up,↑,0.8819373000878841,True,18,1,1,12
Y2-S2-045K30,7,570,AS,exp,46,←,up,↑,1.0794105001259595,False,17,-1,1,13
Y2-S2-045K30,7,571,AS,exp,42,→,right,→,0.8709640000015497,True,18,-1,0,13
Y2-S2-045K30,7,572,AS,exp,46,↓,right,→,1.3855607998557389,False,18,-1,0,13
Y2-S2-045K30,7,573,AS,exp,32,↑,up,↑,0.736637800000608,True,19,-1,0,13
Y2-S2-045K30,7,574,AS,exp,26,→,left,←,0.9590082999784499,False,19,-1,0,13
Y2-S2-045K30,7,575,AS,exp,37,↓,down,↓,0.9260148000903428,True,20,-1,0,13
Y2-S2-045K30,7,576,AS,exp,39,↑,up,↑,0.7611722000874579,True,20,-1,0,13
Y2-S2-045K30,7,577,AS,exp,37,←,left,←,1.0203013999853283,True,20,1,1,14
Y2-S2-045K30,7,578,AS,exp,38,→,right,→,1.2547305000480264,True,19,1,0,14
Y2-S2-045K30,7,579,AS,exp,38,↑,left,←,1.7702727001160383,False,19,-1,1,15
Y2-S2-045K30,7,580,AS,exp,49,←,left,←,0.8895201999694109,True,20,-1,0,15
Y2-S2-045K30,7,581,AS,exp,43,↓,down,↓,0.9242963001597673,True,20,-1,0,15
Y2-S2-045K30,7,582,AS,exp,29,↑,up,↑,0.8074141000397503,True,20,1,1,16
Y2-S2-045K30,8,583,PS,intra_train,49,→,right,→,1.0577255999669433,True,13,-,-,-
Y2-S2-045K30,8,584,PS,intra_train,49,↓,down,↓,0.8037682001013309,True,13,-,-,-
Y2-S2-045K30,8,585,PS,intra_train,44,←,left,←,1.129802499897778,True,13,-,-,-
Y2-S2-045K30,8,586,PS,intra_train,48,→,right,→,0.7805113999638706,True,13,-,-,-
Y2-S2-045K30,8,587,PS,intra_train,41,←,left,←,0.8510219999589026,True,13,-,-,-
Y2-S2-045K30,8,588,PS,exp,30,↑,up,↑,0.5426518998574466,True,9,0,0,0
Y2-S2-045K30,8,589,PS,exp,40,←,left,←,0.8093343998771161,True,9,0,0,0
Y2-S2-045K30,8,590,PS,exp,36,→,right,→,0.8605484000872821,True,9,1,0,0
Y2-S2-045K30,8,591,PS,exp,46,↓,down,↓,0.6824057998601347,True,8,1,0,0
Y2-S2-045K30,8,592,PS,exp,38,↑,up,↑,0.5815479999873787,True,8,1,0,0
Y2-S2-045K30,8,593,PS,exp,49,→,right,→,0.8750239000655711,True,8,1,0,0
Y2-S2-045K30,8,594,PS,exp,46,↑,left,←,0.7521223998628557,False,7,-1,1,1
Y2-S2-045K30,8,595,PS,exp,30,↓,right,→,0.9235916999168694,False,8,-1,0,1
Y2-S2-045K30,8,596,PS,exp,42,↑,up,↑,0.6495598000474274,True,9,-1,0,1
Y2-S2-045K30,8,597,PS,exp,27,↓,down,↓,0.6588506000116467,True,9,-1,0,1
Y2-S2-045K30,8,598,PS,exp,33,→,left,←,0.7396790001075715,False,9,-1,0,1
Y2-S2-045K30,8,599,PS,exp,47,↓,down,↓,0.6447576999198645,True,10,-1,0,1
Y2-S2-045K30,8,600,PS,exp,37,↑,up,↑,0.9496407001279294,True,10,-1,0,1
Y2-S2-045K30,8,601,PS,exp,37,←,left,←,0.9359182000625879,True,10,1,1,2
Y2-S2-045K30,8,602,PS,exp,42,→,right,→,0.7396501998882741,True,9,1,0,2
Y2-S2-045K30,8,603,PS,exp,47,↑,down,↓,0.6796622998081148,False,9,-1,1,3
Y2-S2-045K30,8,604,PS,exp,31,→,left,←,0.8302966998890042,False,10,-1,0,3
Y2-S2-045K30,8,605,PS,exp,46,↑,up,↑,0.6339809999335557,True,11,-1,0,3
Y2-S2-045K30,8,606,PS,exp,48,↓,down,↓,0.5575762998778373,True,11,-1,0,3
Y2-S2-045K30,8,607,PS,exp,45,→,right,→,0.6500991000793874,True,11,1,1,4
Y2-S2-045K30,8,608,PS,exp,37,↑,up,↑,0.6451264000497758,True,10,1,0,4
Y2-S2-045K30,8,609,PS,exp,27,←,left,←,0.6273711000103503,True,10,1,0,4
Y2-S2-045K30,8,610,PS,exp,50,→,right,→,0.7073647000361234,True,10,1,0,4
Y2-S2-045K30,8,611,PS,exp,30,←,left,←,0.6937657000962645,True,9,1,0,4
Y2-S2-045K30,8,612,PS,exp,42,↓,down,↓,0.6639334000647068,True,9,1,0,4
Y2-S2-045K30,8,613,PS,exp,49,↑,up,↑,0.44958949997089803,True,9,1,0,4
Y2-S2-045K30,8,614,PS,exp,33,→,left,←,0.8069108000490814,False,8,-1,1,5
Y2-S2-045K30,8,615,PS,exp,40,↓,down,↓,0.7809168000239879,True,9,-1,0,5
Y2-S2-045K30,8,616,PS,exp,36,←,left,←,0.7297000999096781,True,9,-1,0,5
Y2-S2-045K30,8,617,PS,exp,27,↑,up,↑,0.5261297000106424,True,9,1,1,6
Y2-S2-045K30,8,618,PS,exp,37,←,left,←,0.6950089999008924,True,8,1,0,6
Y2-S2-045K30,8,619,PS,exp,28,↑,right,→,0.6846482998225838,False,8,-1,1,7
Y2-S2-045K30,8,620,PS,exp,46,↓,right,→,0.7894324001390487,False,9,-1,0,7
Y2-S2-045K30,8,621,PS,exp,48,→,right,→,0.8539664000272751,True,10,-1,0,7
Y2-S2-045K30,8,622,PS,exp,31,←,right,→,0.9748064000159502,False,10,-1,0,7
Y2-S2-045K30,8,623,PS,exp,42,↓,down,↓,0.7026572001632303,True,11,-1,0,7
Y2-S2-045K30,8,624,PS,exp,48,→,right,→,0.5901965999510139,True,11,-1,0,7
Y2-S2-045K30,8,625,PS,exp,39,←,left,←,0.5914745999034494,True,11,1,1,8
Y2-S2-045K30,8,626,PS,exp,40,↓,down,↓,0.5590590999927372,True,10,1,0,8
Y2-S2-045K30,8,627,PS,exp,35,↑,up,↑,0.5107082999311388,True,10,1,0,8
Y2-S2-045K30,8,628,PS,exp,25,←,left,←,0.6317916000261903,True,10,1,0,8
Y2-S2-045K30,8,629,PS,exp,45,→,up,↑,1.0091753001324832,False,9,-1,1,9
Y2-S2-045K30,8,630,PS,exp,25,←,left,←,1.1015505001414567,True,10,-1,0,9
Y2-S2-045K30,8,631,PS,exp,46,↑,up,↑,0.6345631000585854,True,10,-1,0,9
Y2-S2-045K30,8,632,PS,exp,33,↓,down,↓,0.6483316998928785,True,10,1,1,10
Y2-S2-045K30,8,633,PS,exp,31,→,left,←,0.8912948998622596,False,9,-1,1,11
Y2-S2-045K30,8,634,PS,exp,43,↑,up,↑,0.582423800136894,True,10,-1,0,11
Y2-S2-045K30,8,635,PS,exp,27,↓,down,↓,0.6325624000746757,True,10,-1,0,11
Y2-S2-045K30,8,636,PS,exp,30,→,left,←,0.6762091999407858,False,10,-1,0,11
Y2-S2-045K30,8,637,PS,exp,39,↑,up,↑,0.6099352999590337,True,11,-1,0,11
Y2-S2-045K30,8,638,PS,exp,40,↓,down,↓,0.6953881001099944,True,11,-1,0,11
Y2-S2-045K30,8,639,PS,exp,41,→,right,→,0.5433815000578761,True,11,1,1,12
Y2-S2-045K30,8,640,PS,exp,49,←,right,→,0.647136399988085,False,10,-1,1,13
Y2-S2-045K30,8,641,PS,exp,43,↓,down,↓,0.7396123001817614,True,11,-1,0,13
Y2-S2-045K30,8,642,PS,exp,28,→,right,→,0.552091599907726,True,11,-1,0,13
Y2-S2-045K30,8,643,PS,exp,29,←,left,←,0.8991506001912057,True,11,1,1,14
Y2-S2-045K30,8,644,PS,exp,46,↓,down,↓,0.6657194998115301,True,10,1,0,14
Y2-S2-045K30,8,645,PS,exp,48,→,right,→,0.640334099996835,True,10,1,0,14
Y2-S2-045K30,8,646,PS,exp,47,←,left,←,0.6158504001796246,True,10,1,0,14
Y2-S2-045K30,8,647,PS,exp,39,↓,down,↓,0.5298250999767333,True,9,1,0,14
Y2-S2-045K30,8,648,PS,exp,28,←,left,←,0.6425857001449913,True,9,1,0,14
Y2-S2-045K30,8,649,PS,exp,43,→,right,→,0.6920608000364155,True,9,1,0,14
Y2-S2-045K30,8,650,PS,exp,42,↑,up,↑,0.5637427000328898,True,8,1,0,14
Y2-S2-045K30,8,651,PS,exp,35,↓,down,↓,0.7145116999745369,True,8,1,0,14
Y2-S2-045K30,8,652,PS,exp,46,←,down,↓,0.761714099906385,False,8,-1,1,15
Y2-S2-045K30,8,653,PS,exp,46,↑,up,↑,0.6055647998582572,True,9,-1,0,15
Y2-S2-045K30,8,654,PS,exp,34,←,left,←,1.1213195000309497,True,9,-1,0,15
Y2-S2-045K30,8,655,PS,exp,36,→,right,→,0.877802100032568,True,9,1,1,16
