PART_ID,Block_no,Trial_no,Block_type,Trial_type,CSI,Stim_letter,Key_pressed,letter_choose,Rt,Corr,Stimulus Time,Level,Reversal,Revs_count
Y2-S2-234K20,1,1,PS,train,29,↑,up,↑,1.429010400082916,True,30,-,-,-
Y2-S2-234K20,1,2,PS,train,25,↓,down,↓,1.1457638000138104,True,30,-,-,-
Y2-S2-234K20,1,3,PS,train,38,↑,up,↑,0.9441048000007868,True,30,-,-,-
Y2-S2-234K20,1,4,PS,train,46,←,no_key,no_letter,-1.0,False,30,-,-,-
Y2-S2-234K20,1,5,PS,train,29,↑,up,↑,0.8254174999892712,True,30,-,-,-
Y2-S2-234K20,1,6,PS,train,25,←,up,↑,0.8985266000963748,False,30,-,-,-
Y2-S2-234K20,1,7,PS,train,41,↓,down,↓,0.9756763996556401,True,30,-,-,-
Y2-S2-234K20,1,8,PS,train,46,→,right,→,0.888066700194031,True,30,-,-,-
Y2-S2-234K20,1,9,PS,train,45,↑,no_key,no_letter,-1.0,False,30,-,-,-
Y2-S2-234K20,1,10,PS,train,28,→,no_key,no_letter,-1.0,False,30,-,-,-
Y2-S2-234K20,2,11,AS,train,30,↑,up,↑,0.7339877998456359,True,45,-,-,-
Y2-S2-234K20,2,12,AS,train,45,←,left,←,1.061055799946189,True,45,-,-,-
Y2-S2-234K20,2,13,AS,train,40,↓,down,↓,1.147243000101298,True,45,-,-,-
Y2-S2-234K20,2,14,AS,train,30,↑,up,↑,0.8838754999451339,True,45,-,-,-
Y2-S2-234K20,2,15,AS,train,37,←,left,←,0.7675026999786496,True,45,-,-,-
Y2-S2-234K20,2,16,AS,train,27,↓,down,↓,1.0330428997986019,True,45,-,-,-
Y2-S2-234K20,2,17,AS,train,32,↑,up,↑,0.9320057998411357,True,45,-,-,-
Y2-S2-234K20,2,18,AS,train,40,↓,down,↓,1.0755223999731243,True,45,-,-,-
Y2-S2-234K20,2,19,AS,train,36,→,right,→,0.6177756004035473,True,45,-,-,-
Y2-S2-234K20,2,20,AS,train,46,←,left,←,0.7010394996032119,True,45,-,-,-
Y2-S2-234K20,-,21,PS,adaptive,35,↓,down,↓,0.6286444999277592,True,10,0,0,0
Y2-S2-234K20,-,22,PS,adaptive,49,←,up,↑,1.5361147001385689,False,10,-1,0,0
Y2-S2-234K20,-,23,PS,adaptive,31,↓,down,↓,0.8177253003232181,True,11,-1,0,0
Y2-S2-234K20,-,24,PS,adaptive,32,←,left,←,0.9062803001143038,True,11,-1,0,0
Y2-S2-234K20,-,25,PS,adaptive,35,→,right,→,0.7276355000212789,True,11,1,1,1
Y2-S2-234K20,-,26,PS,adaptive,47,←,left,←,0.6914715999737382,True,10,1,0,1
Y2-S2-234K20,-,27,PS,adaptive,40,→,right,→,0.6298005999997258,True,10,1,0,1
Y2-S2-234K20,-,28,PS,adaptive,34,↓,down,↓,0.6736030001193285,True,10,1,0,1
Y2-S2-234K20,-,29,PS,adaptive,38,←,left,←,0.6122870999388397,True,9,1,0,1
Y2-S2-234K20,-,30,PS,adaptive,28,↑,up,↑,0.838913899846375,True,9,1,0,1
Y2-S2-234K20,-,31,PS,adaptive,26,↓,down,↓,0.6474179998040199,True,9,1,0,1
Y2-S2-234K20,-,32,PS,adaptive,46,←,left,←,0.6261029001325369,True,8,1,0,1
Y2-S2-234K20,-,33,PS,adaptive,26,↑,up,↑,0.7004922996275127,True,8,1,0,1
Y2-S2-234K20,-,34,PS,adaptive,35,←,left,←,0.5581008000299335,True,8,1,0,1
Y2-S2-234K20,-,35,PS,adaptive,30,↑,down,↓,0.9600933003239334,False,7,-1,1,2
Y2-S2-234K20,-,36,PS,adaptive,32,↓,down,↓,0.9939848999492824,True,8,-1,0,2
Y2-S2-234K20,-,37,PS,adaptive,28,→,right,→,0.6442396002821624,True,8,-1,0,2
Y2-S2-234K20,-,38,PS,adaptive,49,←,left,←,0.6473842998966575,True,8,1,1,3
Y2-S2-234K20,-,39,PS,adaptive,25,↑,up,↑,0.6227617999538779,True,7,1,0,3
Y2-S2-234K20,-,40,PS,adaptive,32,←,left,←,0.5665976000018418,True,7,1,0,3
Y2-S2-234K20,-,41,PS,adaptive,25,→,right,→,0.6178488000296056,True,7,1,0,3
Y2-S2-234K20,-,42,PS,adaptive,41,←,left,←,0.6649758997373283,True,6,1,0,3
Y2-S2-234K20,-,43,PS,adaptive,32,↑,left,←,0.7181060998700559,False,6,-1,1,4
Y2-S2-234K20,-,44,AS,adaptive,29,→,right,→,0.6738126003183424,True,20,0,0,0
Y2-S2-234K20,-,45,AS,adaptive,33,←,left,←,0.546205900143832,True,20,0,0,0
Y2-S2-234K20,-,46,AS,adaptive,42,↑,right,→,0.8902214001864195,False,20,-1,0,0
Y2-S2-234K20,-,47,AS,adaptive,49,↓,down,↓,1.042841600254178,True,21,-1,0,0
Y2-S2-234K20,-,48,AS,adaptive,26,→,right,→,0.7634089002385736,True,21,-1,0,0
Y2-S2-234K20,-,49,AS,adaptive,46,↓,down,↓,0.8519493001513183,True,21,1,1,1
Y2-S2-234K20,-,50,AS,adaptive,50,→,right,→,0.68629219988361,True,20,1,0,1
Y2-S2-234K20,-,51,AS,adaptive,39,←,left,←,0.7612975998781621,True,20,1,0,1
Y2-S2-234K20,-,52,AS,adaptive,33,↑,right,→,1.9934048997238278,False,20,-1,1,2
Y2-S2-234K20,-,53,AS,adaptive,31,→,right,→,1.461145400069654,True,21,-1,0,2
Y2-S2-234K20,-,54,AS,adaptive,33,↓,down,↓,0.9207063000649214,True,21,-1,0,2
Y2-S2-234K20,-,55,AS,adaptive,30,↑,up,↑,0.7479492998681962,True,21,1,1,3
Y2-S2-234K20,-,56,AS,adaptive,33,→,no_key,no_letter,-1.0,False,20,-1,1,4
Y2-S2-234K20,1,57,PS,intra_train,35,←,left,←,0.8694573999382555,True,10,-,-,-
Y2-S2-234K20,1,58,PS,intra_train,45,→,right,→,0.6420197999104857,True,10,-,-,-
Y2-S2-234K20,1,59,PS,intra_train,49,←,left,←,0.709476999938488,True,10,-,-,-
Y2-S2-234K20,1,60,PS,intra_train,46,→,right,→,0.6152933002449572,True,10,-,-,-
Y2-S2-234K20,1,61,PS,intra_train,37,←,left,←,1.0263809002935886,True,10,-,-,-
Y2-S2-234K20,1,62,PS,exp,33,↑,up,↑,0.6749769998714328,True,7,0,0,0
Y2-S2-234K20,1,63,PS,exp,37,↓,down,↓,0.7812441000714898,True,7,0,0,0
Y2-S2-234K20,1,64,PS,exp,36,←,left,←,0.5880795000120997,True,7,1,0,0
Y2-S2-234K20,1,65,PS,exp,44,→,left,←,0.6484966999851167,False,6,-1,1,1
Y2-S2-234K20,1,66,PS,exp,43,↓,down,↓,0.7205362999811769,True,7,-1,0,1
Y2-S2-234K20,1,67,PS,exp,44,←,left,←,0.6583314002491534,True,7,-1,0,1
Y2-S2-234K20,1,68,PS,exp,30,↑,left,←,0.7774875997565687,False,7,-1,0,1
Y2-S2-234K20,1,69,PS,exp,40,←,left,←,0.5811474998481572,True,8,-1,0,1
Y2-S2-234K20,1,70,PS,exp,34,→,right,→,0.5751795000396669,True,8,-1,0,1
Y2-S2-234K20,1,71,PS,exp,32,↓,right,→,0.998589999973774,False,8,-1,0,1
Y2-S2-234K20,1,72,PS,exp,44,↑,up,↑,0.6647156001999974,True,9,-1,0,1
Y2-S2-234K20,1,73,PS,exp,30,←,left,←,0.5076884003356099,True,9,-1,0,1
Y2-S2-234K20,1,74,PS,exp,29,→,right,→,0.5502435001544654,True,9,1,1,2
Y2-S2-234K20,1,75,PS,exp,27,↑,up,↑,0.6373527999967337,True,8,1,0,2
Y2-S2-234K20,1,76,PS,exp,25,←,left,←,0.4972382001578808,True,8,1,0,2
Y2-S2-234K20,1,77,PS,exp,49,↑,up,↑,1.2449130997993052,True,8,1,0,2
Y2-S2-234K20,1,78,PS,exp,37,↓,down,↓,0.7888204003684223,True,7,1,0,2
Y2-S2-234K20,1,79,PS,exp,41,←,left,←,1.069757199846208,True,7,1,0,2
Y2-S2-234K20,1,80,PS,exp,33,↑,up,↑,0.6750579001381993,True,7,1,0,2
Y2-S2-234K20,1,81,PS,exp,33,←,up,↑,0.737442399840802,False,6,-1,1,3
Y2-S2-234K20,1,82,PS,exp,38,↑,up,↑,1.0218704999424517,True,7,-1,0,3
Y2-S2-234K20,1,83,PS,exp,25,→,right,→,0.5201539997942746,True,7,-1,0,3
Y2-S2-234K20,1,84,PS,exp,37,↑,up,↑,0.6902650999836624,True,7,1,1,4
Y2-S2-234K20,1,85,PS,exp,28,→,left,←,0.8938735001720488,False,6,-1,1,5
Y2-S2-234K20,1,86,PS,exp,28,↓,down,↓,0.807572899851948,True,7,-1,0,5
Y2-S2-234K20,1,87,PS,exp,39,→,right,→,1.0559120001271367,True,7,-1,0,5
Y2-S2-234K20,1,88,PS,exp,48,←,left,←,0.5315080001018941,True,7,1,1,6
Y2-S2-234K20,1,89,PS,exp,25,↑,up,↑,0.8521809000521898,True,6,1,0,6
Y2-S2-234K20,1,90,PS,exp,43,↓,right,→,0.7473718002438545,False,6,-1,1,7
Y2-S2-234K20,1,91,PS,exp,33,↑,left,←,0.7240548003464937,False,7,-1,0,7
Y2-S2-234K20,1,92,PS,exp,33,→,right,→,0.5419933004304767,True,8,-1,0,7
Y2-S2-234K20,1,93,PS,exp,40,←,left,←,0.554084399715066,True,8,-1,0,7
Y2-S2-234K20,1,94,PS,exp,39,↓,right,→,1.00684820022434,False,8,-1,0,7
Y2-S2-234K20,1,95,PS,exp,36,←,left,←,0.4857193003408611,True,9,-1,0,7
Y2-S2-234K20,1,96,PS,exp,31,→,right,→,0.5179238002747297,True,9,-1,0,7
Y2-S2-234K20,1,97,PS,exp,49,↓,down,↓,0.5697764996439219,True,9,1,1,8
Y2-S2-234K20,1,98,PS,exp,42,↑,right,→,1.510805199854076,False,8,-1,1,9
Y2-S2-234K20,1,99,PS,exp,25,←,left,←,0.7211740999482572,True,9,-1,0,9
Y2-S2-234K20,1,100,PS,exp,26,→,right,→,0.648235599976033,True,9,-1,0,9
Y2-S2-234K20,1,101,PS,exp,29,↓,down,↓,0.6509973998181522,True,9,1,1,10
Y2-S2-234K20,1,102,PS,exp,34,→,right,→,0.7730796001851559,True,8,1,0,10
Y2-S2-234K20,1,103,PS,exp,30,↓,left,←,0.8460519001819193,False,8,-1,1,11
Y2-S2-234K20,1,104,PS,exp,35,←,right,→,0.6409581997431815,False,9,-1,0,11
Y2-S2-234K20,1,105,PS,exp,45,→,right,→,0.5260291998274624,True,10,-1,0,11
Y2-S2-234K20,1,106,PS,exp,43,↑,up,↑,0.9343409002758563,True,10,-1,0,11
Y2-S2-234K20,1,107,PS,exp,41,↓,down,↓,0.642584300134331,True,10,1,1,12
Y2-S2-234K20,1,108,PS,exp,48,←,left,←,0.7988289003260434,True,9,1,0,12
Y2-S2-234K20,1,109,PS,exp,36,↓,down,↓,0.6954834000207484,True,9,1,0,12
Y2-S2-234K20,1,110,PS,exp,33,→,right,→,0.42523139994591475,True,9,1,0,12
Y2-S2-234K20,1,111,PS,exp,38,↑,up,↑,0.47213980043306947,True,8,1,0,12
Y2-S2-234K20,1,112,PS,exp,50,←,left,←,0.5810691001825035,True,8,1,0,12
Y2-S2-234K20,1,113,PS,exp,38,↓,right,→,0.80588040035218,False,8,-1,1,13
Y2-S2-234K20,1,114,PS,exp,25,→,right,→,0.5526383998803794,True,9,-1,0,13
Y2-S2-234K20,1,115,PS,exp,29,↓,down,↓,0.7235936000943184,True,9,-1,0,13
Y2-S2-234K20,1,116,PS,exp,49,→,right,→,0.6118155000731349,True,9,1,1,14
Y2-S2-234K20,1,117,PS,exp,43,↓,down,↓,0.9525115001015365,True,8,1,0,14
Y2-S2-234K20,1,118,PS,exp,45,↑,up,↑,0.5057016997598112,True,8,1,0,14
Y2-S2-234K20,1,119,PS,exp,34,←,left,←,0.5891757998615503,True,8,1,0,14
Y2-S2-234K20,1,120,PS,exp,32,→,right,→,0.5963942999951541,True,7,1,0,14
Y2-S2-234K20,1,121,PS,exp,48,↑,down,↓,0.828630100004375,False,7,-1,1,15
Y2-S2-234K20,1,122,PS,exp,48,→,right,→,0.5161107997409999,True,8,-1,0,15
Y2-S2-234K20,1,123,PS,exp,42,↓,left,←,0.8719828999601305,False,8,-1,0,15
Y2-S2-234K20,1,124,PS,exp,31,←,left,←,0.6299602999351919,True,9,-1,0,15
Y2-S2-234K20,1,125,PS,exp,27,→,right,→,0.4154586996883154,True,9,-1,0,15
Y2-S2-234K20,1,126,PS,exp,36,↑,up,↑,0.5979212000966072,True,9,1,1,16
Y2-S2-234K20,2,127,AS,intra_train,33,→,right,→,1.1944500003010035,True,31,-,-,-
Y2-S2-234K20,2,128,AS,intra_train,45,←,left,←,0.7172635002061725,True,31,-,-,-
Y2-S2-234K20,2,129,AS,intra_train,27,↑,up,↑,0.7130239000543952,True,31,-,-,-
Y2-S2-234K20,2,130,AS,intra_train,26,↓,down,↓,0.9029339998960495,True,31,-,-,-
Y2-S2-234K20,2,131,AS,intra_train,29,↑,up,↑,1.040935999713838,True,31,-,-,-
Y2-S2-234K20,2,132,AS,exp,43,↓,down,↓,0.7507293000817299,True,21,0,0,0
Y2-S2-234K20,2,133,AS,exp,48,→,right,→,0.7131388997659087,True,21,0,0,0
Y2-S2-234K20,2,134,AS,exp,50,←,left,←,0.5270346002653241,True,21,1,0,0
Y2-S2-234K20,2,135,AS,exp,43,↑,up,↑,1.726792600005865,True,20,1,0,0
Y2-S2-234K20,2,136,AS,exp,25,←,left,←,0.8297983999364078,True,20,1,0,0
Y2-S2-234K20,2,137,AS,exp,45,↓,down,↓,1.2468858999200165,True,20,1,0,0
Y2-S2-234K20,2,138,AS,exp,50,←,left,←,0.6310640997253358,True,19,1,0,0
Y2-S2-234K20,2,139,AS,exp,27,↓,down,↓,1.0207679998129606,True,19,1,0,0
Y2-S2-234K20,2,140,AS,exp,48,↑,down,↓,1.1895201997831464,False,19,-1,1,1
Y2-S2-234K20,2,141,AS,exp,39,→,right,→,1.1259971000254154,True,20,-1,0,1
Y2-S2-234K20,2,142,AS,exp,47,↑,up,↑,0.7730482998304069,True,20,-1,0,1
Y2-S2-234K20,2,143,AS,exp,37,→,right,→,0.7011405997909606,True,20,1,1,2
Y2-S2-234K20,2,144,AS,exp,45,←,right,→,0.835926600266248,False,19,-1,1,3
Y2-S2-234K20,2,145,AS,exp,45,→,right,→,0.842573800124228,True,20,-1,0,3
Y2-S2-234K20,2,146,AS,exp,26,←,left,←,0.818758100271225,True,20,-1,0,3
Y2-S2-234K20,2,147,AS,exp,41,↓,down,↓,1.078731699846685,True,20,1,1,4
Y2-S2-234K20,2,148,AS,exp,46,←,left,←,0.7723815999925137,True,19,1,0,4
Y2-S2-234K20,2,149,AS,exp,34,↓,down,↓,0.9500961001031101,True,19,1,0,4
Y2-S2-234K20,2,150,AS,exp,35,↑,up,↑,0.652985000051558,True,19,1,0,4
Y2-S2-234K20,2,151,AS,exp,36,↓,down,↓,0.8918083002790809,True,18,1,0,4
Y2-S2-234K20,2,152,AS,exp,49,→,left,←,0.8324802001006901,False,18,-1,1,5
Y2-S2-234K20,2,153,AS,exp,40,←,right,→,1.2277456996962428,False,19,-1,0,5
Y2-S2-234K20,2,154,AS,exp,37,↓,down,↓,1.0033078999258578,True,20,-1,0,5
Y2-S2-234K20,2,155,AS,exp,40,→,right,→,0.7860480998642743,True,20,-1,0,5
Y2-S2-234K20,2,156,AS,exp,25,←,right,→,0.792140600271523,False,20,-1,0,5
Y2-S2-234K20,2,157,AS,exp,25,↑,up,↑,0.8623542999848723,True,21,-1,0,5
Y2-S2-234K20,2,158,AS,exp,44,→,right,→,0.7757056998088956,True,21,-1,0,5
Y2-S2-234K20,2,159,AS,exp,43,↓,down,↓,0.9275998999364674,True,21,1,1,6
Y2-S2-234K20,2,160,AS,exp,49,←,left,←,0.7966443998739123,True,20,1,0,6
Y2-S2-234K20,2,161,AS,exp,41,↓,down,↓,0.830922500230372,True,20,1,0,6
Y2-S2-234K20,2,162,AS,exp,26,↑,up,↑,0.8294390998780727,True,20,1,0,6
Y2-S2-234K20,2,163,AS,exp,30,→,right,→,0.7845252002589405,True,19,1,0,6
Y2-S2-234K20,2,164,AS,exp,42,←,left,←,0.8517983998171985,True,19,1,0,6
Y2-S2-234K20,2,165,AS,exp,30,→,right,→,0.6899657999165356,True,19,1,0,6
Y2-S2-234K20,2,166,AS,exp,36,↑,up,↑,0.7602782002650201,True,18,1,0,6
Y2-S2-234K20,2,167,AS,exp,37,↓,down,↓,0.8871774999424815,True,18,1,0,6
Y2-S2-234K20,2,168,AS,exp,40,←,down,↓,0.8885516999289393,False,18,-1,1,7
Y2-S2-234K20,2,169,AS,exp,47,↓,down,↓,0.8172732000239193,True,19,-1,0,7
Y2-S2-234K20,2,170,AS,exp,45,→,right,→,0.7529142000712454,True,19,-1,0,7
Y2-S2-234K20,2,171,AS,exp,47,↑,up,↑,0.747902000322938,True,19,1,1,8
Y2-S2-234K20,2,172,AS,exp,43,↓,up,↑,0.9863609001040459,False,18,-1,1,9
Y2-S2-234K20,2,173,AS,exp,28,←,left,←,0.5476643000729382,True,19,-1,0,9
Y2-S2-234K20,2,174,AS,exp,44,↓,down,↓,1.0823667999356985,True,19,-1,0,9
Y2-S2-234K20,2,175,AS,exp,31,↑,up,↑,0.8439186997711658,True,19,1,1,10
Y2-S2-234K20,2,176,AS,exp,27,→,right,→,0.6503499001264572,True,18,1,0,10
Y2-S2-234K20,2,177,AS,exp,31,↓,down,↓,1.0492456001229584,True,18,1,0,10
Y2-S2-234K20,2,178,AS,exp,47,↑,up,↑,0.6522988001815975,True,18,1,0,10
Y2-S2-234K20,2,179,AS,exp,40,←,right,→,0.7293561999686062,False,17,-1,1,11
Y2-S2-234K20,2,180,AS,exp,42,→,right,→,0.7485878998413682,True,18,-1,0,11
Y2-S2-234K20,2,181,AS,exp,32,↑,up,↑,1.2273111999966204,True,18,-1,0,11
Y2-S2-234K20,2,182,AS,exp,41,↓,down,↓,1.0769968000240624,True,18,1,1,12
Y2-S2-234K20,2,183,AS,exp,31,←,left,←,1.4806504999287426,True,17,1,0,12
Y2-S2-234K20,2,184,AS,exp,37,→,right,→,0.6176542998291552,True,17,1,0,12
Y2-S2-234K20,2,185,AS,exp,46,↑,up,↑,0.8611755999736488,True,17,1,0,12
Y2-S2-234K20,2,186,AS,exp,37,→,right,→,0.7418443998321891,True,16,1,0,12
Y2-S2-234K20,2,187,AS,exp,38,←,left,←,0.7507362999022007,True,16,1,0,12
Y2-S2-234K20,2,188,AS,exp,29,→,left,←,1.1781971999444067,False,16,-1,1,13
Y2-S2-234K20,2,189,AS,exp,48,←,left,←,0.5672495998442173,True,17,-1,0,13
Y2-S2-234K20,2,190,AS,exp,45,↑,up,↑,0.6463224999606609,True,17,-1,0,13
Y2-S2-234K20,2,191,AS,exp,38,↓,down,↓,0.9742159000597894,True,17,1,1,14
Y2-S2-234K20,2,192,AS,exp,45,→,right,→,0.4562039999291301,True,16,1,0,14
Y2-S2-234K20,2,193,AS,exp,50,↓,right,→,0.7727665002457798,False,16,-1,1,15
Y2-S2-234K20,2,194,AS,exp,39,→,right,→,0.6207123999483883,True,17,-1,0,15
Y2-S2-234K20,2,195,AS,exp,34,↑,up,↑,0.7908656001091003,True,17,-1,0,15
Y2-S2-234K20,2,196,AS,exp,46,→,right,→,0.7184390998445451,True,17,1,1,16
Y2-S2-234K20,3,197,AS,intra_train,44,↑,up,↑,0.9851333000697196,True,31,-,-,-
Y2-S2-234K20,3,198,AS,intra_train,28,→,right,→,1.5051401001401246,True,31,-,-,-
Y2-S2-234K20,3,199,AS,intra_train,33,↓,down,↓,0.997771100141108,True,31,-,-,-
Y2-S2-234K20,3,200,AS,intra_train,38,←,left,←,0.7039712001569569,True,31,-,-,-
Y2-S2-234K20,3,201,AS,intra_train,42,↓,down,↓,0.8140579001046717,True,31,-,-,-
Y2-S2-234K20,3,202,AS,exp,31,←,left,←,1.30802149977535,True,21,0,0,0
Y2-S2-234K20,3,203,AS,exp,35,→,right,→,1.203659700229764,True,21,0,0,0
Y2-S2-234K20,3,204,AS,exp,39,↑,up,↑,0.8522948999889195,True,21,1,0,0
Y2-S2-234K20,3,205,AS,exp,47,←,left,←,0.8187788999639452,True,20,1,0,0
Y2-S2-234K20,3,206,AS,exp,41,↑,up,↑,0.7909297998994589,True,20,1,0,0
Y2-S2-234K20,3,207,AS,exp,41,↓,down,↓,0.9118194999173284,True,20,1,0,0
Y2-S2-234K20,3,208,AS,exp,44,↑,down,↓,0.9534330000169575,False,19,-1,1,1
Y2-S2-234K20,3,209,AS,exp,28,←,down,↓,1.266628900077194,False,20,-1,0,1
Y2-S2-234K20,3,210,AS,exp,33,→,right,→,0.4338349997997284,True,21,-1,0,1
Y2-S2-234K20,3,211,AS,exp,42,↓,down,↓,0.9304394000209868,True,21,-1,0,1
Y2-S2-234K20,3,212,AS,exp,38,↑,up,↑,0.7926770998165011,True,21,1,1,2
Y2-S2-234K20,3,213,AS,exp,39,→,right,→,0.5596472001634538,True,20,1,0,2
Y2-S2-234K20,3,214,AS,exp,41,←,left,←,0.43373379996046424,True,20,1,0,2
Y2-S2-234K20,3,215,AS,exp,39,↑,left,←,1.1125408001244068,False,20,-1,1,3
Y2-S2-234K20,3,216,AS,exp,45,←,right,→,0.9993987996131182,False,21,-1,0,3
Y2-S2-234K20,3,217,AS,exp,34,↑,up,↑,0.584198699798435,True,22,-1,0,3
Y2-S2-234K20,3,218,AS,exp,33,↓,down,↓,0.7565712002106011,True,22,-1,0,3
Y2-S2-234K20,3,219,AS,exp,45,↑,up,↑,0.7411182001233101,True,22,1,1,4
Y2-S2-234K20,3,220,AS,exp,29,↓,down,↓,1.0756918000988662,True,21,1,0,4
Y2-S2-234K20,3,221,AS,exp,28,↑,up,↑,0.8461470999754965,True,21,1,0,4
Y2-S2-234K20,3,222,AS,exp,30,↓,right,→,0.8481258996762335,False,21,-1,1,5
Y2-S2-234K20,3,223,AS,exp,43,↑,up,↑,0.8745808000676334,True,22,-1,0,5
Y2-S2-234K20,3,224,AS,exp,42,→,right,→,0.4672778001986444,True,22,-1,0,5
Y2-S2-234K20,3,225,AS,exp,34,↓,down,↓,0.6886026998981833,True,22,1,1,6
Y2-S2-234K20,3,226,AS,exp,42,↑,up,↑,0.972849499899894,True,21,1,0,6
Y2-S2-234K20,3,227,AS,exp,35,←,left,←,0.7454801998101175,True,21,1,0,6
Y2-S2-234K20,3,228,AS,exp,48,↓,down,↓,0.7481517000123858,True,21,1,0,6
Y2-S2-234K20,3,229,AS,exp,28,→,right,→,0.6414545997977257,True,20,1,0,6
Y2-S2-234K20,3,230,AS,exp,36,↑,up,↑,0.5373106002807617,True,20,1,0,6
Y2-S2-234K20,3,231,AS,exp,28,→,no_key,no_letter,-1.0,False,20,-1,1,7
Y2-S2-234K20,3,232,AS,exp,45,↓,down,↓,0.9243731996975839,True,21,-1,0,7
Y2-S2-234K20,3,233,AS,exp,31,←,left,←,0.8774753999896348,True,21,-1,0,7
Y2-S2-234K20,3,234,AS,exp,27,↓,down,↓,0.6870178999379277,True,21,1,1,8
Y2-S2-234K20,3,235,AS,exp,37,←,left,←,0.6554800998419523,True,20,1,0,8
Y2-S2-234K20,3,236,AS,exp,46,↓,right,→,0.9131383001804352,False,20,-1,1,9
Y2-S2-234K20,3,237,AS,exp,25,←,left,←,0.605532499961555,True,21,-1,0,9
Y2-S2-234K20,3,238,AS,exp,47,↓,down,↓,0.7854396002367139,True,21,-1,0,9
Y2-S2-234K20,3,239,AS,exp,30,→,right,→,0.8411228000186384,True,21,1,1,10
Y2-S2-234K20,3,240,AS,exp,48,↓,down,↓,0.7347984001971781,True,20,1,0,10
Y2-S2-234K20,3,241,AS,exp,37,↑,up,↑,0.7989471000619233,True,20,1,0,10
Y2-S2-234K20,3,242,AS,exp,40,→,right,→,0.5399481998756528,True,20,1,0,10
Y2-S2-234K20,3,243,AS,exp,33,↑,up,↑,0.5011768997646868,True,19,1,0,10
Y2-S2-234K20,3,244,AS,exp,42,↓,right,→,1.2141589000821114,False,19,-1,1,11
Y2-S2-234K20,3,245,AS,exp,33,←,no_key,no_letter,-1.0,False,20,-1,0,11
Y2-S2-234K20,3,246,AS,exp,29,↑,up,↑,0.9809400998055935,True,21,-1,0,11
Y2-S2-234K20,3,247,AS,exp,48,←,left,←,0.6058583999983966,True,21,-1,0,11
Y2-S2-234K20,3,248,AS,exp,37,→,left,←,1.124638400040567,False,21,-1,0,11
Y2-S2-234K20,3,249,AS,exp,36,←,left,←,0.5951941004022956,True,22,-1,0,11
Y2-S2-234K20,3,250,AS,exp,39,↓,down,↓,0.7533444999717176,True,22,-1,0,11
Y2-S2-234K20,3,251,AS,exp,40,←,left,←,0.829114300198853,True,22,1,1,12
Y2-S2-234K20,3,252,AS,exp,26,↑,up,↑,0.6065972996875644,True,21,1,0,12
Y2-S2-234K20,3,253,AS,exp,32,↓,down,↓,0.928662100341171,True,21,1,0,12
Y2-S2-234K20,3,254,AS,exp,49,←,left,←,0.6322933002375066,True,21,1,0,12
Y2-S2-234K20,3,255,AS,exp,28,↓,down,↓,0.7107099001295865,True,20,1,0,12
Y2-S2-234K20,3,256,AS,exp,47,→,right,→,0.7461035000160336,True,20,1,0,12
Y2-S2-234K20,3,257,AS,exp,29,↑,up,↑,0.8612374998629093,True,20,1,0,12
Y2-S2-234K20,3,258,AS,exp,41,→,right,→,0.8749991003423929,True,19,1,0,12
Y2-S2-234K20,3,259,AS,exp,33,↑,up,↑,0.6616789000108838,True,19,1,0,12
Y2-S2-234K20,3,260,AS,exp,29,←,left,←,0.7227831003256142,True,19,1,0,12
Y2-S2-234K20,3,261,AS,exp,35,↓,down,↓,0.7969188997521996,True,18,1,0,12
Y2-S2-234K20,3,262,AS,exp,48,↑,up,↑,0.7238337998278439,True,18,1,0,12
Y2-S2-234K20,3,263,AS,exp,35,→,right,→,0.6209529000334442,True,18,1,0,12
Y2-S2-234K20,3,264,AS,exp,35,↑,up,↑,0.6144126998260617,True,17,1,0,12
Y2-S2-234K20,3,265,AS,exp,32,←,left,←,0.6588702001608908,True,17,1,0,12
Y2-S2-234K20,3,266,AS,exp,36,↓,down,↓,0.6723507000133395,True,17,1,0,12
Y2-S2-234K20,3,267,AS,exp,29,↑,down,↓,0.7100965999998152,False,16,-1,1,13
Y2-S2-234K20,3,268,AS,exp,43,←,left,←,0.5663677998818457,True,17,-1,0,13
Y2-S2-234K20,3,269,AS,exp,44,↓,down,↓,0.8153292001225054,True,17,-1,0,13
Y2-S2-234K20,3,270,AS,exp,29,←,left,←,0.6737274001352489,True,17,1,1,14
Y2-S2-234K20,3,271,AS,exp,42,↑,down,↓,1.479025799781084,False,16,-1,1,15
Y2-S2-234K20,3,272,AS,exp,27,←,right,→,0.8600661000236869,False,17,-1,0,15
Y2-S2-234K20,3,273,AS,exp,34,→,left,←,1.323426099959761,False,18,-1,0,15
Y2-S2-234K20,3,274,AS,exp,34,↑,up,↑,0.9165741000324488,True,19,-1,0,15
Y2-S2-234K20,3,275,AS,exp,47,←,left,←,1.0239296997897327,True,19,-1,0,15
Y2-S2-234K20,3,276,AS,exp,50,→,right,→,0.6727922996506095,True,19,1,1,16
Y2-S2-234K20,4,277,PS,intra_train,49,↓,down,↓,0.7030496001243591,True,10,-,-,-
Y2-S2-234K20,4,278,PS,intra_train,31,←,left,←,0.5206002001650631,True,10,-,-,-
Y2-S2-234K20,4,279,PS,intra_train,49,↓,down,↓,0.6413893001154065,True,10,-,-,-
Y2-S2-234K20,4,280,PS,intra_train,34,←,left,←,0.5359261999838054,True,10,-,-,-
Y2-S2-234K20,4,281,PS,intra_train,31,↓,down,↓,0.7160519999451935,True,10,-,-,-
Y2-S2-234K20,4,282,PS,exp,31,↑,up,↑,0.8536177002824843,True,7,0,0,0
Y2-S2-234K20,4,283,PS,exp,28,↓,down,↓,0.8948731999844313,True,7,0,0,0
Y2-S2-234K20,4,284,PS,exp,27,←,left,←,0.8060825997963548,True,7,1,0,0
Y2-S2-234K20,4,285,PS,exp,38,→,no_key,no_letter,-1.0,False,6,-1,1,1
Y2-S2-234K20,4,286,PS,exp,32,←,left,←,0.5851368000730872,True,7,-1,0,1
Y2-S2-234K20,4,287,PS,exp,25,↓,right,→,0.6084786998108029,False,7,-1,0,1
Y2-S2-234K20,4,288,PS,exp,32,→,right,→,0.7633785996586084,True,8,-1,0,1
Y2-S2-234K20,4,289,PS,exp,31,↓,left,←,1.1432304000481963,False,8,-1,0,1
Y2-S2-234K20,4,290,PS,exp,30,→,right,→,0.6047370000742376,True,9,-1,0,1
Y2-S2-234K20,4,291,PS,exp,49,←,left,←,0.6802254002541304,True,9,-1,0,1
Y2-S2-234K20,4,292,PS,exp,35,↓,down,↓,0.8411627002060413,True,9,1,1,2
Y2-S2-234K20,4,293,PS,exp,32,→,right,→,0.5053674997761846,True,8,1,0,2
Y2-S2-234K20,4,294,PS,exp,31,↓,right,→,0.5712340995669365,False,8,-1,1,3
Y2-S2-234K20,4,295,PS,exp,37,←,left,←,0.6853231000714004,True,9,-1,0,3
Y2-S2-234K20,4,296,PS,exp,35,→,right,→,0.6328575001098216,True,9,-1,0,3
Y2-S2-234K20,4,297,PS,exp,39,↑,left,←,1.063542400021106,False,9,-1,0,3
Y2-S2-234K20,4,298,PS,exp,27,→,left,←,0.51768230041489,False,10,-1,0,3
Y2-S2-234K20,4,299,PS,exp,46,↓,down,↓,0.9175986000336707,True,11,-1,0,3
Y2-S2-234K20,4,300,PS,exp,43,→,up,↑,1.112330200150609,False,11,-1,0,3
Y2-S2-234K20,4,301,PS,exp,43,↑,up,↑,0.548982999753207,True,12,-1,0,3
Y2-S2-234K20,4,302,PS,exp,26,←,left,←,0.669118800200522,True,12,-1,0,3
Y2-S2-234K20,4,303,PS,exp,25,↑,up,↑,0.5162122999317944,True,12,1,1,4
Y2-S2-234K20,4,304,PS,exp,36,←,left,←,0.855033400002867,True,11,1,0,4
Y2-S2-234K20,4,305,PS,exp,27,→,right,→,0.8349954001605511,True,11,1,0,4
Y2-S2-234K20,4,306,PS,exp,38,←,left,←,0.605612900108099,True,11,1,0,4
Y2-S2-234K20,4,307,PS,exp,49,→,down,↓,1.4894862999208272,False,10,-1,1,5
Y2-S2-234K20,4,308,PS,exp,29,←,left,←,0.5730091002769768,True,11,-1,0,5
Y2-S2-234K20,4,309,PS,exp,43,→,right,→,0.6339613003656268,True,11,-1,0,5
Y2-S2-234K20,4,310,PS,exp,29,↑,left,←,0.7744215000420809,False,11,-1,0,5
Y2-S2-234K20,4,311,PS,exp,25,→,right,→,0.49326399993151426,True,12,-1,0,5
Y2-S2-234K20,4,312,PS,exp,49,←,left,←,0.701685399748385,True,12,-1,0,5
Y2-S2-234K20,4,313,PS,exp,50,→,right,→,0.48735509999096394,True,12,1,1,6
Y2-S2-234K20,4,314,PS,exp,30,↓,left,←,0.8957499000243843,False,11,-1,1,7
Y2-S2-234K20,4,315,PS,exp,46,→,right,→,0.5156633001752198,True,12,-1,0,7
Y2-S2-234K20,4,316,PS,exp,35,↑,up,↑,0.5081051997840405,True,12,-1,0,7
Y2-S2-234K20,4,317,PS,exp,50,↓,down,↓,0.6036832998506725,True,12,1,1,8
Y2-S2-234K20,4,318,PS,exp,25,↑,up,↑,0.5286050997674465,True,11,1,0,8
Y2-S2-234K20,4,319,PS,exp,42,←,left,←,0.5346797998063266,True,11,1,0,8
Y2-S2-234K20,4,320,PS,exp,50,↓,left,←,1.0757724000141025,False,11,-1,1,9
Y2-S2-234K20,4,321,PS,exp,29,↑,no_key,no_letter,-1.0,False,12,-1,0,9
Y2-S2-234K20,4,322,PS,exp,40,→,right,→,0.4320446001365781,True,13,-1,0,9
Y2-S2-234K20,4,323,PS,exp,30,↑,left,←,0.9963575000874698,False,13,-1,0,9
Y2-S2-234K20,4,324,PS,exp,45,↓,down,↓,0.7479598997160792,True,14,-1,0,9
Y2-S2-234K20,4,325,PS,exp,28,←,left,←,0.5888232002034783,True,14,-1,0,9
Y2-S2-234K20,4,326,PS,exp,47,→,right,→,0.4238248998299241,True,14,1,1,10
Y2-S2-234K20,4,327,PS,exp,40,←,left,←,0.6605866998434067,True,13,1,0,10
Y2-S2-234K20,4,328,PS,exp,32,↓,down,↓,0.685610800050199,True,13,1,0,10
Y2-S2-234K20,4,329,PS,exp,38,←,left,←,0.49306869972497225,True,13,1,0,10
Y2-S2-234K20,4,330,PS,exp,35,↑,left,←,0.9836858999915421,False,12,-1,1,11
Y2-S2-234K20,4,331,PS,exp,37,←,left,←,0.6576857003383338,True,13,-1,0,11
Y2-S2-234K20,4,332,PS,exp,49,↓,right,→,0.814179400447756,False,13,-1,0,11
Y2-S2-234K20,4,333,PS,exp,26,→,right,→,0.5138292000629008,True,14,-1,0,11
Y2-S2-234K20,4,334,PS,exp,49,↓,down,↓,0.7582119000144303,True,14,-1,0,11
Y2-S2-234K20,4,335,PS,exp,39,←,left,←,0.5289532002061605,True,14,1,1,12
Y2-S2-234K20,4,336,PS,exp,49,↑,left,←,0.7193284998647869,False,13,-1,1,13
Y2-S2-234K20,4,337,PS,exp,44,→,right,→,0.6291201999410987,True,14,-1,0,13
Y2-S2-234K20,4,338,PS,exp,40,←,left,←,0.644934699870646,True,14,-1,0,13
Y2-S2-234K20,4,339,PS,exp,35,→,right,→,0.6385742002166808,True,14,1,1,14
Y2-S2-234K20,4,340,PS,exp,32,←,left,←,0.5130567997694016,True,13,1,0,14
Y2-S2-234K20,4,341,PS,exp,42,↓,down,↓,0.6373276999220252,True,13,1,0,14
Y2-S2-234K20,4,342,PS,exp,27,→,right,→,0.6354314000345767,True,13,1,0,14
Y2-S2-234K20,4,343,PS,exp,26,←,left,←,0.40620069997385144,True,12,1,0,14
Y2-S2-234K20,4,344,PS,exp,49,↓,down,↓,0.7131889001466334,True,12,1,0,14
Y2-S2-234K20,4,345,PS,exp,35,↑,up,↑,0.7647606995888054,True,12,1,0,14
Y2-S2-234K20,4,346,PS,exp,41,↓,down,↓,0.6256161001510918,True,11,1,0,14
Y2-S2-234K20,4,347,PS,exp,43,→,right,→,0.5110573000274599,True,11,1,0,14
Y2-S2-234K20,4,348,PS,exp,38,↓,down,↓,0.5721579999662936,True,11,1,0,14
Y2-S2-234K20,4,349,PS,exp,30,←,left,←,0.619011300150305,True,10,1,0,14
Y2-S2-234K20,4,350,PS,exp,34,↓,left,←,1.2299879998899996,False,10,-1,1,15
Y2-S2-234K20,4,351,PS,exp,44,→,right,→,0.4379789000377059,True,11,-1,0,15
Y2-S2-234K20,4,352,PS,exp,34,↑,up,↑,0.6783902999013662,True,11,-1,0,15
Y2-S2-234K20,4,353,PS,exp,34,←,down,↓,0.8937633000314236,False,11,-1,0,15
Y2-S2-234K20,4,354,PS,exp,48,↓,down,↓,0.6105279000476003,True,12,-1,0,15
Y2-S2-234K20,4,355,PS,exp,45,←,left,←,0.6534164003096521,True,12,-1,0,15
Y2-S2-234K20,4,356,PS,exp,33,↑,up,↑,1.270051899831742,True,12,1,1,16
Y2-S2-234K20,5,357,PS,intra_train,31,←,left,←,0.5178020000457764,True,10,-,-,-
Y2-S2-234K20,5,358,PS,intra_train,28,→,right,→,0.6965417000465095,True,10,-,-,-
Y2-S2-234K20,5,359,PS,intra_train,40,↑,up,↑,0.5466386000625789,True,10,-,-,-
Y2-S2-234K20,5,360,PS,intra_train,37,↓,down,↓,0.6089657000266016,True,10,-,-,-
Y2-S2-234K20,5,361,PS,intra_train,25,↑,right,→,0.7325698998756707,False,10,-,-,-
Y2-S2-234K20,5,362,PS,exp,26,→,down,↓,0.8472326998598874,False,7,-1,0,0
Y2-S2-234K20,5,363,PS,exp,42,↑,up,↑,0.5187728996388614,True,8,-1,0,0
Y2-S2-234K20,5,364,PS,exp,50,↓,up,↑,0.6227664002217352,False,8,-1,0,0
Y2-S2-234K20,5,365,PS,exp,45,→,right,→,0.4690995002165437,True,9,-1,0,0
Y2-S2-234K20,5,366,PS,exp,29,↑,up,↑,0.46074040001258254,True,9,-1,0,0
Y2-S2-234K20,5,367,PS,exp,39,↓,down,↓,0.7470924002118409,True,9,1,1,1
Y2-S2-234K20,5,368,PS,exp,28,→,left,←,0.6393422000110149,False,8,-1,1,2
Y2-S2-234K20,5,369,PS,exp,26,←,left,←,0.7084478996694088,True,9,-1,0,2
Y2-S2-234K20,5,370,PS,exp,27,↓,down,↓,0.6358636999502778,True,9,-1,0,2
Y2-S2-234K20,5,371,PS,exp,44,←,left,←,0.5099361999891698,True,9,1,1,3
Y2-S2-234K20,5,372,PS,exp,35,→,right,→,0.4002723000012338,True,8,1,0,3
Y2-S2-234K20,5,373,PS,exp,30,←,left,←,0.6070444001816213,True,8,1,0,3
Y2-S2-234K20,5,374,PS,exp,49,↓,down,↓,0.7190608000382781,True,8,1,0,3
Y2-S2-234K20,5,375,PS,exp,47,→,right,→,0.5031290999613702,True,7,1,0,3
Y2-S2-234K20,5,376,PS,exp,36,↑,left,←,0.9032201999798417,False,7,-1,1,4
Y2-S2-234K20,5,377,PS,exp,32,←,no_key,no_letter,-1.0,False,8,-1,0,4
Y2-S2-234K20,5,378,PS,exp,47,↑,up,↑,0.6495851003564894,True,9,-1,0,4
Y2-S2-234K20,5,379,PS,exp,30,←,left,←,0.4956447998993099,True,9,-1,0,4
Y2-S2-234K20,5,380,PS,exp,48,↓,down,↓,0.7760177999734879,True,9,1,1,5
Y2-S2-234K20,5,381,PS,exp,47,→,right,→,0.6134160999208689,True,8,1,0,5
Y2-S2-234K20,5,382,PS,exp,27,↑,up,↑,0.6925638001412153,True,8,1,0,5
Y2-S2-234K20,5,383,PS,exp,32,↓,up,↑,0.6308917999267578,False,8,-1,1,6
Y2-S2-234K20,5,384,PS,exp,29,↑,up,↑,0.661495600361377,True,9,-1,0,6
Y2-S2-234K20,5,385,PS,exp,38,→,right,→,0.4888005997054279,True,9,-1,0,6
Y2-S2-234K20,5,386,PS,exp,34,↑,up,↑,0.5770266000181437,True,9,1,1,7
Y2-S2-234K20,5,387,PS,exp,34,→,left,←,0.8691545999608934,False,8,-1,1,8
Y2-S2-234K20,5,388,PS,exp,49,↓,down,↓,0.7353999000042677,True,9,-1,0,8
Y2-S2-234K20,5,389,PS,exp,31,↑,up,↑,0.5502268997952342,True,9,-1,0,8
Y2-S2-234K20,5,390,PS,exp,49,←,left,←,0.5652081998996437,True,9,1,1,9
Y2-S2-234K20,5,391,PS,exp,43,→,right,→,0.5745851998217404,True,8,1,0,9
Y2-S2-234K20,5,392,PS,exp,48,↑,up,↑,0.48658719984814525,True,8,1,0,9
Y2-S2-234K20,5,393,PS,exp,36,→,left,←,0.7392873000353575,False,8,-1,1,10
Y2-S2-234K20,5,394,PS,exp,45,←,left,←,0.8231651997193694,True,9,-1,0,10
Y2-S2-234K20,5,395,PS,exp,33,↓,down,↓,0.8022759002633393,True,9,-1,0,10
Y2-S2-234K20,5,396,PS,exp,44,↑,up,↑,0.44610869977623224,True,9,1,1,11
Y2-S2-234K20,5,397,PS,exp,39,→,left,←,0.6225254000164568,False,8,-1,1,12
Y2-S2-234K20,5,398,PS,exp,28,↑,left,←,0.7765395999886096,False,9,-1,0,12
Y2-S2-234K20,5,399,PS,exp,36,→,right,→,0.5127626997418702,True,10,-1,0,12
Y2-S2-234K20,5,400,PS,exp,44,↑,up,↑,0.6742744999937713,True,10,-1,0,12
Y2-S2-234K20,5,401,PS,exp,34,←,left,←,0.5531699997372925,True,10,1,1,13
Y2-S2-234K20,5,402,PS,exp,50,↑,up,↑,0.5004070000723004,True,9,1,0,13
Y2-S2-234K20,5,403,PS,exp,28,←,left,←,0.5478610997088253,True,9,1,0,13
Y2-S2-234K20,5,404,PS,exp,42,↓,down,↓,0.8348038997501135,True,9,1,0,13
Y2-S2-234K20,5,405,PS,exp,26,↑,up,↑,0.48191760014742613,True,8,1,0,13
Y2-S2-234K20,5,406,PS,exp,50,←,left,←,0.599685899913311,True,8,1,0,13
Y2-S2-234K20,5,407,PS,exp,26,↑,up,↑,0.6507214996963739,True,8,1,0,13
Y2-S2-234K20,5,408,PS,exp,39,→,left,←,1.354427999816835,False,7,-1,1,14
Y2-S2-234K20,5,409,PS,exp,29,←,left,←,0.4750855998136103,True,8,-1,0,14
Y2-S2-234K20,5,410,PS,exp,25,↑,left,←,0.6469942000694573,False,8,-1,0,14
Y2-S2-234K20,5,411,PS,exp,32,→,right,→,0.4541532997973263,True,9,-1,0,14
Y2-S2-234K20,5,412,PS,exp,33,←,left,←,0.5795921999961138,True,9,-1,0,14
Y2-S2-234K20,5,413,PS,exp,25,↓,right,→,0.8253520997241139,False,9,-1,0,14
Y2-S2-234K20,5,414,PS,exp,28,↑,up,↑,0.6819966002367437,True,10,-1,0,14
Y2-S2-234K20,5,415,PS,exp,41,←,left,←,0.8586730002425611,True,10,-1,0,14
Y2-S2-234K20,5,416,PS,exp,32,↓,down,↓,0.8673415002413094,True,10,1,1,15
Y2-S2-234K20,5,417,PS,exp,41,←,up,↑,0.8163824998773634,False,9,-1,1,16
Y2-S2-234K20,6,418,AS,intra_train,35,↓,down,↓,0.7749673998914659,True,31,-,-,-
Y2-S2-234K20,6,419,AS,intra_train,28,→,right,→,0.7602860000915825,True,31,-,-,-
Y2-S2-234K20,6,420,AS,intra_train,38,←,left,←,0.8012272999621928,True,31,-,-,-
Y2-S2-234K20,6,421,AS,intra_train,25,↓,down,↓,0.6868339995853603,True,31,-,-,-
Y2-S2-234K20,6,422,AS,intra_train,46,↑,up,↑,0.9125083000399172,True,31,-,-,-
Y2-S2-234K20,6,423,AS,exp,32,←,left,←,0.816510200034827,True,21,0,0,0
Y2-S2-234K20,6,424,AS,exp,46,↑,up,↑,0.7724223998375237,True,21,0,0,0
Y2-S2-234K20,6,425,AS,exp,28,→,right,→,0.7144985999912024,True,21,1,0,0
Y2-S2-234K20,6,426,AS,exp,38,↑,up,↑,0.964306800160557,True,20,1,0,0
Y2-S2-234K20,6,427,AS,exp,34,←,right,→,0.5293255997821689,False,20,-1,1,1
Y2-S2-234K20,6,428,AS,exp,27,↑,up,↑,0.6415321999229491,True,21,-1,0,1
Y2-S2-234K20,6,429,AS,exp,35,←,left,←,0.7923833001405001,True,21,-1,0,1
Y2-S2-234K20,6,430,AS,exp,30,↑,up,↑,0.609461999963969,True,21,1,1,2
Y2-S2-234K20,6,431,AS,exp,27,↓,down,↓,1.060988700017333,True,20,1,0,2
Y2-S2-234K20,6,432,AS,exp,32,↑,up,↑,0.599195099901408,True,20,1,0,2
Y2-S2-234K20,6,433,AS,exp,25,←,left,←,0.9271779996342957,True,20,1,0,2
Y2-S2-234K20,6,434,AS,exp,49,↑,up,↑,0.7919324999675155,True,19,1,0,2
Y2-S2-234K20,6,435,AS,exp,26,←,left,←,0.7071914998814464,True,19,1,0,2
Y2-S2-234K20,6,436,AS,exp,39,↓,down,↓,0.8998696003109217,True,19,1,0,2
Y2-S2-234K20,6,437,AS,exp,42,←,left,←,0.7539626001380384,True,18,1,0,2
Y2-S2-234K20,6,438,AS,exp,37,↑,up,↑,0.6278969999402761,True,18,1,0,2
Y2-S2-234K20,6,439,AS,exp,40,→,left,←,0.5333982999436557,False,18,-1,1,3
Y2-S2-234K20,6,440,AS,exp,41,←,right,→,1.062085899990052,False,19,-1,0,3
Y2-S2-234K20,6,441,AS,exp,49,↑,up,↑,0.7117997002787888,True,20,-1,0,3
Y2-S2-234K20,6,442,AS,exp,33,←,left,←,0.598851999733597,True,20,-1,0,3
Y2-S2-234K20,6,443,AS,exp,44,↓,down,↓,0.969227499794215,True,20,1,1,4
Y2-S2-234K20,6,444,AS,exp,38,↑,down,↓,0.9929354996420443,False,19,-1,1,5
Y2-S2-234K20,6,445,AS,exp,32,→,right,→,0.9745443002320826,True,20,-1,0,5
Y2-S2-234K20,6,446,AS,exp,32,←,left,←,0.5270729996263981,True,20,-1,0,5
Y2-S2-234K20,6,447,AS,exp,48,↓,down,↓,0.8783971001394093,True,20,1,1,6
Y2-S2-234K20,6,448,AS,exp,34,↑,up,↑,0.7346944999881089,True,19,1,0,6
Y2-S2-234K20,6,449,AS,exp,36,←,left,←,0.8414710997603834,True,19,1,0,6
Y2-S2-234K20,6,450,AS,exp,37,↓,down,↓,0.7278447998687625,True,19,1,0,6
Y2-S2-234K20,6,451,AS,exp,48,→,right,→,0.7028850996866822,True,18,1,0,6
Y2-S2-234K20,6,452,AS,exp,41,↓,down,↓,0.9668734003789723,True,18,1,0,6
Y2-S2-234K20,6,453,AS,exp,43,→,right,→,0.8156383000314236,True,18,1,0,6
Y2-S2-234K20,6,454,AS,exp,34,↑,up,↑,0.9330787998624146,True,17,1,0,6
Y2-S2-234K20,6,455,AS,exp,43,↓,down,↓,0.953676899895072,True,17,1,0,6
Y2-S2-234K20,6,456,AS,exp,36,←,left,←,0.7206267998553813,True,17,1,0,6
Y2-S2-234K20,6,457,AS,exp,39,↓,down,↓,0.8993375999853015,True,16,1,0,6
Y2-S2-234K20,6,458,AS,exp,44,←,right,→,0.699395100120455,False,16,-1,1,7
Y2-S2-234K20,6,459,AS,exp,48,↓,left,←,0.6101502999663353,False,17,-1,0,7
Y2-S2-234K20,6,460,AS,exp,40,↑,down,↓,0.9952777000144124,False,18,-1,0,7
Y2-S2-234K20,6,461,AS,exp,39,→,right,→,1.5744726001285017,True,19,-1,0,7
Y2-S2-234K20,6,462,AS,exp,32,↑,up,↑,1.0243486003018916,True,19,-1,0,7
Y2-S2-234K20,6,463,AS,exp,43,→,right,→,0.5649845995940268,True,19,1,1,8
Y2-S2-234K20,6,464,AS,exp,40,↑,up,↑,0.7788498001173139,True,18,1,0,8
Y2-S2-234K20,6,465,AS,exp,41,←,left,←,0.7315488997846842,True,18,1,0,8
Y2-S2-234K20,6,466,AS,exp,37,→,right,→,0.6834435998462141,True,18,1,0,8
Y2-S2-234K20,6,467,AS,exp,29,↑,up,↑,0.7751830001361668,True,17,1,0,8
Y2-S2-234K20,6,468,AS,exp,26,→,right,→,0.6042734999209642,True,17,1,0,8
Y2-S2-234K20,6,469,AS,exp,42,↑,down,↓,1.0755992997437716,False,17,-1,1,9
Y2-S2-234K20,6,470,AS,exp,42,←,left,←,0.7347502000629902,True,18,-1,0,9
Y2-S2-234K20,6,471,AS,exp,44,↓,down,↓,0.8701559999026358,True,18,-1,0,9
Y2-S2-234K20,6,472,AS,exp,29,↑,up,↑,0.8405462000519037,True,18,1,1,10
Y2-S2-234K20,6,473,AS,exp,31,←,right,→,0.71656130021438,False,17,-1,1,11
Y2-S2-234K20,6,474,AS,exp,42,↑,up,↑,0.6977444998919964,True,18,-1,0,11
Y2-S2-234K20,6,475,AS,exp,42,←,left,←,0.6890249000862241,True,18,-1,0,11
Y2-S2-234K20,6,476,AS,exp,41,↓,down,↓,0.836413299664855,True,18,1,1,12
Y2-S2-234K20,6,477,AS,exp,27,↑,up,↑,0.6627708002924919,True,17,1,0,12
Y2-S2-234K20,6,478,AS,exp,25,↓,down,↓,1.0378010999411345,True,17,1,0,12
Y2-S2-234K20,6,479,AS,exp,34,↑,up,↑,0.6921899998560548,True,17,1,0,12
Y2-S2-234K20,6,480,AS,exp,40,↓,right,→,0.7926901001483202,False,16,-1,1,13
Y2-S2-234K20,6,481,AS,exp,40,←,left,←,0.6121868002228439,True,17,-1,0,13
Y2-S2-234K20,6,482,AS,exp,35,↓,down,↓,0.8940991000272334,True,17,-1,0,13
Y2-S2-234K20,6,483,AS,exp,49,↑,up,↑,0.5906211999244988,True,17,1,1,14
Y2-S2-234K20,6,484,AS,exp,37,←,up,↑,0.7327891997992992,False,16,-1,1,15
Y2-S2-234K20,6,485,AS,exp,29,→,right,→,0.6112966001965106,True,17,-1,0,15
Y2-S2-234K20,6,486,AS,exp,38,←,left,←,0.7294808998703957,True,17,-1,0,15
Y2-S2-234K20,6,487,AS,exp,27,↓,up,↑,0.9389478000812232,False,17,-1,0,15
Y2-S2-234K20,6,488,AS,exp,47,↑,up,↑,0.7786969998851418,True,18,-1,0,15
Y2-S2-234K20,6,489,AS,exp,36,→,left,←,0.7062703999690711,False,18,-1,0,15
Y2-S2-234K20,6,490,AS,exp,28,←,left,←,0.5637218998745084,True,19,-1,0,15
Y2-S2-234K20,6,491,AS,exp,38,→,right,→,0.7065693000331521,True,19,-1,0,15
Y2-S2-234K20,6,492,AS,exp,43,↑,right,→,0.7950659999623895,False,19,-1,0,15
Y2-S2-234K20,6,493,AS,exp,45,→,right,→,0.7585740997456014,True,20,-1,0,15
Y2-S2-234K20,6,494,AS,exp,43,↓,down,↓,0.8393021998926997,True,20,-1,0,15
Y2-S2-234K20,6,495,AS,exp,27,↑,up,↑,0.6039999001659453,True,20,1,1,16
Y2-S2-234K20,7,496,AS,intra_train,35,↓,down,↓,0.8589341002516448,True,31,-,-,-
Y2-S2-234K20,7,497,AS,intra_train,37,←,left,←,0.8112429999746382,True,31,-,-,-
Y2-S2-234K20,7,498,AS,intra_train,49,→,right,→,0.7472794996574521,True,31,-,-,-
Y2-S2-234K20,7,499,AS,intra_train,33,←,left,←,0.7249002000316978,True,31,-,-,-
Y2-S2-234K20,7,500,AS,intra_train,39,↓,down,↓,0.7829482001252472,True,31,-,-,-
Y2-S2-234K20,7,501,AS,exp,28,←,left,←,0.7740976000204682,True,21,0,0,0
Y2-S2-234K20,7,502,AS,exp,26,↑,up,↑,0.9108691001310945,True,21,0,0,0
Y2-S2-234K20,7,503,AS,exp,40,←,left,←,0.5371347996406257,True,21,1,0,0
Y2-S2-234K20,7,504,AS,exp,46,↓,down,↓,0.8637124998494983,True,20,1,0,0
Y2-S2-234K20,7,505,AS,exp,38,↑,left,←,1.0846339999698102,False,20,-1,1,1
Y2-S2-234K20,7,506,AS,exp,35,↓,down,↓,0.7431250996887684,True,21,-1,0,1
Y2-S2-234K20,7,507,AS,exp,36,→,right,→,0.6963109001517296,True,21,-1,0,1
Y2-S2-234K20,7,508,AS,exp,50,↓,down,↓,0.7372941998764873,True,21,1,1,2
Y2-S2-234K20,7,509,AS,exp,47,→,right,→,0.6254986003041267,True,20,1,0,2
Y2-S2-234K20,7,510,AS,exp,25,↓,down,↓,1.2526585003361106,True,20,1,0,2
Y2-S2-234K20,7,511,AS,exp,46,↑,up,↑,0.9031491996720433,True,20,1,0,2
Y2-S2-234K20,7,512,AS,exp,33,↓,down,↓,0.8158044000156224,True,19,1,0,2
Y2-S2-234K20,7,513,AS,exp,50,→,right,→,0.778650900349021,True,19,1,0,2
Y2-S2-234K20,7,514,AS,exp,27,←,left,←,1.1020212997682393,True,19,1,0,2
Y2-S2-234K20,7,515,AS,exp,48,↓,down,↓,0.8439446999691427,True,18,1,0,2
Y2-S2-234K20,7,516,AS,exp,30,→,right,→,0.5318873999640346,True,18,1,0,2
Y2-S2-234K20,7,517,AS,exp,31,↑,up,↑,0.9572349996306002,True,18,1,0,2
Y2-S2-234K20,7,518,AS,exp,26,→,right,→,0.7310664998367429,True,17,1,0,2
Y2-S2-234K20,7,519,AS,exp,49,↓,down,↓,1.0551927997730672,True,17,1,0,2
Y2-S2-234K20,7,520,AS,exp,38,←,left,←,0.9586233999580145,True,17,1,0,2
Y2-S2-234K20,7,521,AS,exp,38,→,right,→,0.7974835997447371,True,16,1,0,2
Y2-S2-234K20,7,522,AS,exp,34,↓,up,↑,0.935782500077039,False,16,-1,1,3
Y2-S2-234K20,7,523,AS,exp,33,↑,down,↓,0.9240912003442645,False,17,-1,0,3
Y2-S2-234K20,7,524,AS,exp,44,←,left,←,0.8336700000800192,True,18,-1,0,3
Y2-S2-234K20,7,525,AS,exp,31,↑,right,→,0.6782511998899281,False,18,-1,0,3
Y2-S2-234K20,7,526,AS,exp,37,→,right,→,0.6859716000035405,True,19,-1,0,3
Y2-S2-234K20,7,527,AS,exp,33,←,right,→,0.7879809001460671,False,19,-1,0,3
Y2-S2-234K20,7,528,AS,exp,37,↑,up,↑,0.714285199996084,True,20,-1,0,3
Y2-S2-234K20,7,529,AS,exp,39,↓,down,↓,0.8325865003280342,True,20,-1,0,3
Y2-S2-234K20,7,530,AS,exp,44,↑,up,↑,0.7347501995973289,True,20,1,1,4
Y2-S2-234K20,7,531,AS,exp,45,→,down,↓,0.8956929999403656,False,19,-1,1,5
Y2-S2-234K20,7,532,AS,exp,44,←,left,←,0.9153326000086963,True,20,-1,0,5
Y2-S2-234K20,7,533,AS,exp,37,↑,up,↑,0.8358351001515985,True,20,-1,0,5
Y2-S2-234K20,7,534,AS,exp,36,↓,down,↓,0.7861301000230014,True,20,1,1,6
Y2-S2-234K20,7,535,AS,exp,26,→,right,→,0.7486395002342761,True,19,1,0,6
Y2-S2-234K20,7,536,AS,exp,50,←,left,←,0.6020680996589363,True,19,1,0,6
Y2-S2-234K20,7,537,AS,exp,39,↑,up,↑,1.0299494001083076,True,19,1,0,6
Y2-S2-234K20,7,538,AS,exp,25,←,left,←,0.7654278003610671,True,18,1,0,6
Y2-S2-234K20,7,539,AS,exp,30,→,right,→,1.5556982001289725,True,18,1,0,6
Y2-S2-234K20,7,540,AS,exp,43,↑,down,↓,0.8386066998355091,False,18,-1,1,7
Y2-S2-234K20,7,541,AS,exp,44,→,up,↑,0.9050862998701632,False,19,-1,0,7
Y2-S2-234K20,7,542,AS,exp,33,↑,up,↑,0.5693803001195192,True,20,-1,0,7
Y2-S2-234K20,7,543,AS,exp,35,→,right,→,0.6235789000056684,True,20,-1,0,7
Y2-S2-234K20,7,544,AS,exp,33,↑,up,↑,0.6458231001161039,True,20,1,1,8
Y2-S2-234K20,7,545,AS,exp,33,→,up,↑,0.7623398001305759,False,19,-1,1,9
Y2-S2-234K20,7,546,AS,exp,49,↑,up,↑,0.5877132997848094,True,20,-1,0,9
Y2-S2-234K20,7,547,AS,exp,39,→,down,↓,1.1029090997762978,False,20,-1,0,9
Y2-S2-234K20,7,548,AS,exp,41,←,left,←,0.743866499979049,True,21,-1,0,9
Y2-S2-234K20,7,549,AS,exp,42,↓,down,↓,0.801948799751699,True,21,-1,0,9
Y2-S2-234K20,7,550,AS,exp,26,→,right,→,0.7185786999762058,True,21,1,1,10
Y2-S2-234K20,7,551,AS,exp,38,↑,up,↑,0.7419459000229836,True,20,1,0,10
Y2-S2-234K20,7,552,AS,exp,34,→,right,→,0.6198172997683287,True,20,1,0,10
Y2-S2-234K20,7,553,AS,exp,33,↓,down,↓,0.8110764999873936,True,20,1,0,10
Y2-S2-234K20,7,554,AS,exp,27,→,right,→,0.659300500061363,True,19,1,0,10
Y2-S2-234K20,7,555,AS,exp,46,←,left,←,0.9484973000362515,True,19,1,0,10
Y2-S2-234K20,7,556,AS,exp,50,→,right,→,0.669915100093931,True,19,1,0,10
Y2-S2-234K20,7,557,AS,exp,31,↑,down,↓,0.913060300052166,False,18,-1,1,11
Y2-S2-234K20,7,558,AS,exp,28,←,left,←,0.7141917003318667,True,19,-1,0,11
Y2-S2-234K20,7,559,AS,exp,36,↑,up,↑,0.6131547000259161,True,19,-1,0,11
Y2-S2-234K20,7,560,AS,exp,38,→,right,→,0.7687979000620544,True,19,1,1,12
Y2-S2-234K20,7,561,AS,exp,28,↑,up,↑,0.8974603000096977,True,18,1,0,12
Y2-S2-234K20,7,562,AS,exp,35,←,left,←,0.8479096000082791,True,18,1,0,12
Y2-S2-234K20,7,563,AS,exp,34,→,right,→,0.6798036000691354,True,18,1,0,12
Y2-S2-234K20,7,564,AS,exp,43,↑,up,↑,0.7957485001534224,True,17,1,0,12
Y2-S2-234K20,7,565,AS,exp,34,↓,up,↑,0.7110557998530567,False,17,-1,1,13
Y2-S2-234K20,7,566,AS,exp,27,↑,up,↑,0.478207899723202,True,18,-1,0,13
Y2-S2-234K20,7,567,AS,exp,38,↓,down,↓,0.8243686002679169,True,18,-1,0,13
Y2-S2-234K20,7,568,AS,exp,44,→,right,→,0.7228875998407602,True,18,1,1,14
Y2-S2-234K20,7,569,AS,exp,50,↑,up,↑,0.4907582001760602,True,17,1,0,14
Y2-S2-234K20,7,570,AS,exp,25,←,down,↓,0.9268042999319732,False,17,-1,1,15
Y2-S2-234K20,7,571,AS,exp,46,↓,down,↓,0.8090701000764966,True,18,-1,0,15
Y2-S2-234K20,7,572,AS,exp,29,→,right,→,0.7474679998122156,True,18,-1,0,15
Y2-S2-234K20,7,573,AS,exp,41,↓,down,↓,0.6800735997967422,True,18,1,1,16
Y2-S2-234K20,8,574,PS,intra_train,36,←,left,←,0.4685702999122441,True,10,-,-,-
Y2-S2-234K20,8,575,PS,intra_train,30,→,right,→,0.5131036997772753,True,10,-,-,-
Y2-S2-234K20,8,576,PS,intra_train,46,←,left,←,0.6049200003035367,True,10,-,-,-
Y2-S2-234K20,8,577,PS,intra_train,40,↑,left,←,1.0250726998783648,False,10,-,-,-
Y2-S2-234K20,8,578,PS,intra_train,44,→,right,→,0.5700500998646021,True,10,-,-,-
Y2-S2-234K20,8,579,PS,exp,28,←,left,←,0.5824027000926435,True,7,0,0,0
Y2-S2-234K20,8,580,PS,exp,34,↓,left,←,0.6326967999339104,False,7,-1,0,0
Y2-S2-234K20,8,581,PS,exp,48,←,left,←,0.6551069999113679,True,8,-1,0,0
Y2-S2-234K20,8,582,PS,exp,36,→,right,→,0.4393946002237499,True,8,-1,0,0
Y2-S2-234K20,8,583,PS,exp,33,↑,up,↑,0.7225901000201702,True,8,1,1,1
Y2-S2-234K20,8,584,PS,exp,48,←,left,←,0.6942234002053738,True,7,1,0,1
Y2-S2-234K20,8,585,PS,exp,46,↓,left,←,0.6692983997054398,False,7,-1,1,2
Y2-S2-234K20,8,586,PS,exp,35,→,right,→,0.44804950011894107,True,8,-1,0,2
Y2-S2-234K20,8,587,PS,exp,30,↓,right,→,0.972265999764204,False,8,-1,0,2
Y2-S2-234K20,8,588,PS,exp,48,↑,up,↑,0.631107300054282,True,9,-1,0,2
Y2-S2-234K20,8,589,PS,exp,48,←,down,↓,1.0460748001933098,False,9,-1,0,2
Y2-S2-234K20,8,590,PS,exp,44,↓,right,→,0.6893221996724606,False,10,-1,0,2
Y2-S2-234K20,8,591,PS,exp,36,↑,left,←,0.7306204000487924,False,11,-1,0,2
Y2-S2-234K20,8,592,PS,exp,25,←,left,←,0.3974364004097879,True,12,-1,0,2
Y2-S2-234K20,8,593,PS,exp,41,→,right,→,0.45452750008553267,True,12,-1,0,2
Y2-S2-234K20,8,594,PS,exp,39,↑,up,↑,0.6690505999140441,True,12,1,1,3
Y2-S2-234K20,8,595,PS,exp,49,↓,down,↓,0.5570875997655094,True,11,1,0,3
Y2-S2-234K20,8,596,PS,exp,30,←,left,←,0.5360795999877155,True,11,1,0,3
Y2-S2-234K20,8,597,PS,exp,45,↑,right,→,0.6589280995540321,False,11,-1,1,4
Y2-S2-234K20,8,598,PS,exp,47,←,left,←,0.4204776999540627,True,12,-1,0,4
Y2-S2-234K20,8,599,PS,exp,28,→,right,→,0.42046110006049275,True,12,-1,0,4
Y2-S2-234K20,8,600,PS,exp,38,↓,right,→,0.5170098003000021,False,12,-1,0,4
Y2-S2-234K20,8,601,PS,exp,25,↑,right,→,0.5620426996611059,False,13,-1,0,4
Y2-S2-234K20,8,602,PS,exp,29,→,right,→,0.6336468001827598,True,14,-1,0,4
Y2-S2-234K20,8,603,PS,exp,42,←,left,←,0.4546733000315726,True,14,-1,0,4
Y2-S2-234K20,8,604,PS,exp,31,↓,down,↓,0.7725752997212112,True,14,1,1,5
Y2-S2-234K20,8,605,PS,exp,25,→,right,→,0.45570069970563054,True,13,1,0,5
Y2-S2-234K20,8,606,PS,exp,47,↓,right,→,0.43823849968612194,False,13,-1,1,6
Y2-S2-234K20,8,607,PS,exp,44,↑,down,↓,1.125053099822253,False,14,-1,0,6
Y2-S2-234K20,8,608,PS,exp,36,←,left,←,0.6664224998094141,True,15,-1,0,6
Y2-S2-234K20,8,609,PS,exp,44,↑,up,↑,0.5430882000364363,True,15,-1,0,6
Y2-S2-234K20,8,610,PS,exp,33,→,right,→,0.46980040008202195,True,15,1,1,7
Y2-S2-234K20,8,611,PS,exp,48,↓,down,↓,0.6526072002016008,True,14,1,0,7
Y2-S2-234K20,8,612,PS,exp,43,←,left,←,0.9850435997359455,True,14,1,0,7
Y2-S2-234K20,8,613,PS,exp,37,↑,left,←,0.8574393996968865,False,14,-1,1,8
Y2-S2-234K20,8,614,PS,exp,28,←,left,←,0.5424767998047173,True,15,-1,0,8
Y2-S2-234K20,8,615,PS,exp,41,→,right,→,0.6761663001962006,True,15,-1,0,8
Y2-S2-234K20,8,616,PS,exp,33,←,left,←,0.6421969002112746,True,15,1,1,9
Y2-S2-234K20,8,617,PS,exp,37,→,left,←,1.1700623999349773,False,14,-1,1,10
Y2-S2-234K20,8,618,PS,exp,50,↑,up,↑,0.8913167999126017,True,15,-1,0,10
Y2-S2-234K20,8,619,PS,exp,29,←,left,←,0.7029829998500645,True,15,-1,0,10
Y2-S2-234K20,8,620,PS,exp,50,↓,down,↓,0.798951200209558,True,15,1,1,11
Y2-S2-234K20,8,621,PS,exp,31,→,right,→,0.69991339975968,True,14,1,0,11
Y2-S2-234K20,8,622,PS,exp,45,←,left,←,1.3933035000227392,True,14,1,0,11
Y2-S2-234K20,8,623,PS,exp,42,↓,down,↓,0.7137132999487221,True,14,1,0,11
Y2-S2-234K20,8,624,PS,exp,29,←,right,→,0.9753715000115335,False,13,-1,1,12
Y2-S2-234K20,8,625,PS,exp,32,↓,down,↓,0.7462650001980364,True,14,-1,0,12
Y2-S2-234K20,8,626,PS,exp,28,←,left,←,0.6682788003236055,True,14,-1,0,12
Y2-S2-234K20,8,627,PS,exp,46,→,right,→,0.49433139991015196,True,14,1,1,13
Y2-S2-234K20,8,628,PS,exp,27,↑,up,↑,0.777290899772197,True,13,1,0,13
Y2-S2-234K20,8,629,PS,exp,33,↓,left,←,0.43425949988886714,False,13,-1,1,14
Y2-S2-234K20,8,630,PS,exp,40,→,right,→,0.652479600161314,True,14,-1,0,14
Y2-S2-234K20,8,631,PS,exp,30,←,left,←,0.5835056002251804,True,14,-1,0,14
Y2-S2-234K20,8,632,PS,exp,34,↑,down,↓,1.2514201002195477,False,14,-1,0,14
Y2-S2-234K20,8,633,PS,exp,35,→,right,→,0.5559436003677547,True,15,-1,0,14
Y2-S2-234K20,8,634,PS,exp,39,↓,down,↓,0.5522794001735747,True,15,-1,0,14
Y2-S2-234K20,8,635,PS,exp,25,→,right,→,0.6922502000816166,True,15,1,1,15
Y2-S2-234K20,8,636,PS,exp,25,↓,down,↓,0.5333153000101447,True,14,1,0,15
Y2-S2-234K20,8,637,PS,exp,33,←,left,←,0.6507443003356457,True,14,1,0,15
Y2-S2-234K20,8,638,PS,exp,31,↓,down,↓,0.45674850000068545,True,14,1,0,15
Y2-S2-234K20,8,639,PS,exp,38,↑,up,↑,0.7257651998661458,True,13,1,0,15
Y2-S2-234K20,8,640,PS,exp,47,←,down,↓,0.8150131003931165,False,13,-1,1,16
