PART_ID,Block_no,Trial_no,Block_type,Trial_type,CSI,Stim_letter,Key_pressed,letter_choose,Rt,Corr,Stimulus Time,Level,Reversal,Revs_count
Y2-S2-088K19,1,1,PS,train,34,→,right,→,0.8007061998359859,True,30,-,-,-
Y2-S2-088K19,1,2,PS,train,47,↑,up,↑,0.8638132000342011,True,30,-,-,-
Y2-S2-088K19,1,3,PS,train,43,↓,down,↓,0.6785754999145865,True,30,-,-,-
Y2-S2-088K19,1,4,PS,train,44,←,no_key,no_letter,-1.0,False,30,-,-,-
Y2-S2-088K19,1,5,PS,train,29,↑,up,↑,0.6175432000309229,True,30,-,-,-
Y2-S2-088K19,1,6,PS,train,34,→,right,→,0.5174079998396337,True,30,-,-,-
Y2-S2-088K19,1,7,PS,train,38,↓,down,↓,0.6006628000177443,True,30,-,-,-
Y2-S2-088K19,1,8,PS,train,49,←,left,←,0.40099449967965484,True,30,-,-,-
Y2-S2-088K19,1,9,PS,train,27,↑,up,↑,1.3525748997926712,True,30,-,-,-
Y2-S2-088K19,1,10,PS,train,43,→,right,→,0.5003784000873566,True,30,-,-,-
Y2-S2-088K19,2,11,AS,train,28,←,left,←,0.7178472997620702,True,45,-,-,-
Y2-S2-088K19,2,12,AS,train,40,→,right,→,0.6343241999857128,True,45,-,-,-
Y2-S2-088K19,2,13,AS,train,42,↓,down,↓,1.5509709999896586,True,45,-,-,-
Y2-S2-088K19,2,14,AS,train,27,→,right,→,0.7009344999678433,True,45,-,-,-
Y2-S2-088K19,2,15,AS,train,49,↓,down,↓,0.5679542999714613,True,45,-,-,-
Y2-S2-088K19,2,16,AS,train,31,↑,up,↑,0.7836822001263499,True,45,-,-,-
Y2-S2-088K19,2,17,AS,train,38,←,left,←,0.5177136999554932,True,45,-,-,-
Y2-S2-088K19,2,18,AS,train,29,→,right,→,0.7176341000013053,True,45,-,-,-
Y2-S2-088K19,2,19,AS,train,31,↓,down,↓,0.6680013998411596,True,45,-,-,-
Y2-S2-088K19,2,20,AS,train,36,←,left,←,0.733998800162226,True,45,-,-,-
Y2-S2-088K19,-,21,PS,adaptive,48,↑,up,↑,0.6988125001080334,True,10,0,0,0
Y2-S2-088K19,-,22,PS,adaptive,32,↓,down,↓,0.7816037000156939,True,10,0,0,0
Y2-S2-088K19,-,23,PS,adaptive,33,←,right,→,0.9247675999067724,False,10,-1,0,0
Y2-S2-088K19,-,24,PS,adaptive,47,↑,up,↑,0.5095510999672115,True,11,-1,0,0
Y2-S2-088K19,-,25,PS,adaptive,36,←,left,←,0.8923164000734687,True,11,-1,0,0
Y2-S2-088K19,-,26,PS,adaptive,35,↑,up,↑,0.571980600245297,True,11,1,1,1
Y2-S2-088K19,-,27,PS,adaptive,39,→,right,→,0.566639400087297,True,10,1,0,1
Y2-S2-088K19,-,28,PS,adaptive,47,↓,down,↓,0.6461280998773873,True,10,1,0,1
Y2-S2-088K19,-,29,PS,adaptive,45,←,right,→,1.0791472001001239,False,10,-1,1,2
Y2-S2-088K19,-,30,PS,adaptive,39,↓,down,↓,0.6502378997392952,True,11,-1,0,2
Y2-S2-088K19,-,31,PS,adaptive,42,↑,left,←,0.8420445001684129,False,11,-1,0,2
Y2-S2-088K19,-,32,PS,adaptive,30,→,right,→,0.6422023000195622,True,12,-1,0,2
Y2-S2-088K19,-,33,PS,adaptive,43,↓,down,↓,0.5344153000041842,True,12,-1,0,2
Y2-S2-088K19,-,34,PS,adaptive,28,←,left,←,0.7215104000642896,True,12,1,1,3
Y2-S2-088K19,-,35,PS,adaptive,46,↑,right,→,0.8081887001171708,False,11,-1,1,4
Y2-S2-088K19,-,36,AS,adaptive,28,←,left,←,0.6675983997993171,True,20,0,0,0
Y2-S2-088K19,-,37,AS,adaptive,45,→,right,→,0.6728026000782847,True,20,0,0,0
Y2-S2-088K19,-,38,AS,adaptive,48,←,right,→,0.7976261000148952,False,20,-1,0,0
Y2-S2-088K19,-,39,AS,adaptive,36,↑,up,↑,0.6141988998278975,True,21,-1,0,0
Y2-S2-088K19,-,40,AS,adaptive,26,↓,down,↓,0.6355167999863625,True,21,-1,0,0
Y2-S2-088K19,-,41,AS,adaptive,26,←,left,←,0.5963567001745105,True,21,1,1,1
Y2-S2-088K19,-,42,AS,adaptive,27,↓,down,↓,0.5557283000089228,True,20,1,0,1
Y2-S2-088K19,-,43,AS,adaptive,31,←,right,→,0.8216784996911883,False,20,-1,1,2
Y2-S2-088K19,-,44,AS,adaptive,33,↓,down,↓,0.7600620002485812,True,21,-1,0,2
Y2-S2-088K19,-,45,AS,adaptive,36,→,down,↓,0.9067587000317872,False,21,-1,0,2
Y2-S2-088K19,-,46,AS,adaptive,41,↓,down,↓,0.4837879999540746,True,22,-1,0,2
Y2-S2-088K19,-,47,AS,adaptive,31,→,right,→,0.620112500153482,True,22,-1,0,2
Y2-S2-088K19,-,48,AS,adaptive,28,↑,up,↑,0.6346899997442961,True,22,1,1,3
Y2-S2-088K19,-,49,AS,adaptive,43,→,right,→,0.8672985997982323,True,21,1,0,3
Y2-S2-088K19,-,50,AS,adaptive,50,↓,down,↓,1.0187038998119533,True,21,1,0,3
Y2-S2-088K19,-,51,AS,adaptive,40,→,right,→,0.7905263998545706,True,21,1,0,3
Y2-S2-088K19,-,52,AS,adaptive,28,←,left,←,0.5440182997845113,True,20,1,0,3
Y2-S2-088K19,-,53,AS,adaptive,46,↓,down,↓,0.6613968000747263,True,20,1,0,3
Y2-S2-088K19,-,54,AS,adaptive,28,←,left,←,0.8399194995872676,True,20,1,0,3
Y2-S2-088K19,-,55,AS,adaptive,31,↓,down,↓,0.8991225003264844,True,19,1,0,3
Y2-S2-088K19,-,56,AS,adaptive,35,←,right,→,0.7921227999031544,False,19,-1,1,4
Y2-S2-088K19,1,57,PS,intra_train,42,→,right,→,1.1882354002445936,True,18,-,-,-
Y2-S2-088K19,1,58,PS,intra_train,35,↑,right,→,0.7400771998800337,False,18,-,-,-
Y2-S2-088K19,1,59,PS,intra_train,35,↓,down,↓,0.6662580999545753,True,18,-,-,-
Y2-S2-088K19,1,60,PS,intra_train,49,←,right,→,0.6081547001376748,False,18,-,-,-
Y2-S2-088K19,1,61,PS,intra_train,48,→,right,→,1.081721800379455,True,18,-,-,-
Y2-S2-088K19,1,62,PS,exp,50,↓,down,↓,0.6515299999155104,True,12,0,0,0
Y2-S2-088K19,1,63,PS,exp,29,↑,right,→,0.6688659000210464,False,12,-1,0,0
Y2-S2-088K19,1,64,PS,exp,45,←,right,→,0.5447551999241114,False,13,-1,0,0
Y2-S2-088K19,1,65,PS,exp,36,↓,down,↓,0.6113460999913514,True,14,-1,0,0
Y2-S2-088K19,1,66,PS,exp,38,←,left,←,0.6517692999914289,True,14,-1,0,0
Y2-S2-088K19,1,67,PS,exp,45,↑,right,→,0.7556185000576079,False,14,-1,0,0
Y2-S2-088K19,1,68,PS,exp,50,→,right,→,0.748907099943608,True,15,-1,0,0
Y2-S2-088K19,1,69,PS,exp,42,↓,down,↓,0.6651233998127282,True,15,-1,0,0
Y2-S2-088K19,1,70,PS,exp,33,→,right,→,0.5793685000389814,True,15,1,1,1
Y2-S2-088K19,1,71,PS,exp,28,↓,down,↓,0.4850456998683512,True,14,1,0,1
Y2-S2-088K19,1,72,PS,exp,30,→,right,→,0.7681665997952223,True,14,1,0,1
Y2-S2-088K19,1,73,PS,exp,38,↓,down,↓,0.6996657000854611,True,14,1,0,1
Y2-S2-088K19,1,74,PS,exp,26,←,left,←,0.5622018999420106,True,13,1,0,1
Y2-S2-088K19,1,75,PS,exp,38,→,right,→,0.4097759001888335,True,13,1,0,1
Y2-S2-088K19,1,76,PS,exp,29,↑,up,↑,0.4973098998889327,True,13,1,0,1
Y2-S2-088K19,1,77,PS,exp,25,←,left,←,0.4300716002471745,True,12,1,0,1
Y2-S2-088K19,1,78,PS,exp,47,→,right,→,0.4101030002348125,True,12,1,0,1
Y2-S2-088K19,1,79,PS,exp,49,↑,up,↑,0.5209322003647685,True,12,1,0,1
Y2-S2-088K19,1,80,PS,exp,34,←,left,←,0.5051671001128852,True,11,1,0,1
Y2-S2-088K19,1,81,PS,exp,48,↑,right,→,0.5565764997154474,False,11,-1,1,2
Y2-S2-088K19,1,82,PS,exp,34,↓,down,↓,0.4718959000892937,True,12,-1,0,2
Y2-S2-088K19,1,83,PS,exp,37,←,left,←,0.4141951999627054,True,12,-1,0,2
Y2-S2-088K19,1,84,PS,exp,44,→,right,→,0.799698299728334,True,12,1,1,3
Y2-S2-088K19,1,85,PS,exp,34,↓,down,↓,0.8699166998267174,True,11,1,0,3
Y2-S2-088K19,1,86,PS,exp,37,←,left,←,0.6753787002526224,True,11,1,0,3
Y2-S2-088K19,1,87,PS,exp,49,→,right,→,0.5758570996113122,True,11,1,0,3
Y2-S2-088K19,1,88,PS,exp,50,↑,up,↑,0.6722482996992767,True,10,1,0,3
Y2-S2-088K19,1,89,PS,exp,36,↓,down,↓,0.6138215996325016,True,10,1,0,3
Y2-S2-088K19,1,90,PS,exp,50,↑,up,↑,0.6011303998529911,True,10,1,0,3
Y2-S2-088K19,1,91,PS,exp,49,←,left,←,0.8752799998037517,True,9,1,0,3
Y2-S2-088K19,1,92,PS,exp,47,→,right,→,0.8257141998037696,True,9,1,0,3
Y2-S2-088K19,1,93,PS,exp,42,↓,down,↓,0.8292890000157058,True,9,1,0,3
Y2-S2-088K19,1,94,PS,exp,33,←,right,→,0.7602618001401424,False,8,-1,1,4
Y2-S2-088K19,1,95,PS,exp,27,↑,up,↑,0.7106638001278043,True,9,-1,0,4
Y2-S2-088K19,1,96,PS,exp,38,→,right,→,0.47266880003735423,True,9,-1,0,4
Y2-S2-088K19,1,97,PS,exp,43,↓,left,←,0.9573443997651339,False,9,-1,0,4
Y2-S2-088K19,1,98,PS,exp,38,←,right,→,0.8150702002458274,False,10,-1,0,4
Y2-S2-088K19,1,99,PS,exp,46,↓,down,↓,0.8103570998646319,True,11,-1,0,4
Y2-S2-088K19,1,100,PS,exp,36,→,right,→,0.48816539999097586,True,11,-1,0,4
Y2-S2-088K19,1,101,PS,exp,41,↓,down,↓,0.6670957999303937,True,11,1,1,5
Y2-S2-088K19,1,102,PS,exp,36,←,left,←,0.5587003999389708,True,10,1,0,5
Y2-S2-088K19,1,103,PS,exp,28,↓,down,↓,0.6393347000703216,True,10,1,0,5
Y2-S2-088K19,1,104,PS,exp,41,→,right,→,0.6029433999210596,True,10,1,0,5
Y2-S2-088K19,1,105,PS,exp,45,↓,down,↓,0.6784355002455413,True,9,1,0,5
Y2-S2-088K19,1,106,PS,exp,49,←,left,←,0.6006279001012444,True,9,1,0,5
Y2-S2-088K19,1,107,PS,exp,38,→,right,→,0.47374950023368,True,9,1,0,5
Y2-S2-088K19,1,108,PS,exp,26,↓,down,↓,0.6234506997279823,True,8,1,0,5
Y2-S2-088K19,1,109,PS,exp,44,←,left,←,0.46280730003491044,True,8,1,0,5
Y2-S2-088K19,1,110,PS,exp,31,↓,down,↓,0.4871988003142178,True,8,1,0,5
Y2-S2-088K19,1,111,PS,exp,36,→,right,→,0.6847748002037406,True,7,1,0,5
Y2-S2-088K19,1,112,PS,exp,46,←,left,←,0.44575220020487905,True,7,1,0,5
Y2-S2-088K19,1,113,PS,exp,29,→,right,→,0.5638076001778245,True,7,1,0,5
Y2-S2-088K19,1,114,PS,exp,26,↓,right,→,0.6479866998270154,False,6,-1,1,6
Y2-S2-088K19,1,115,PS,exp,40,↑,up,↑,0.777269400190562,True,7,-1,0,6
Y2-S2-088K19,1,116,PS,exp,50,→,right,→,0.5247988998889923,True,7,-1,0,6
Y2-S2-088K19,1,117,PS,exp,34,←,left,←,0.6118964999914169,True,7,1,1,7
Y2-S2-088K19,1,118,PS,exp,49,→,right,→,1.2344860997982323,True,6,1,0,7
Y2-S2-088K19,1,119,PS,exp,42,↓,up,↑,1.13264590036124,False,6,-1,1,8
Y2-S2-088K19,1,120,PS,exp,33,←,left,←,0.5842375000938773,True,7,-1,0,8
Y2-S2-088K19,1,121,PS,exp,43,↓,down,↓,0.9841024000197649,True,7,-1,0,8
Y2-S2-088K19,1,122,PS,exp,43,↑,right,→,1.0058964998461306,False,7,-1,0,8
Y2-S2-088K19,1,123,PS,exp,33,↓,left,←,1.0575502002611756,False,8,-1,0,8
Y2-S2-088K19,1,124,PS,exp,27,↑,up,↑,0.8064263998530805,True,9,-1,0,8
Y2-S2-088K19,1,125,PS,exp,36,←,left,←,0.6059638001024723,True,9,-1,0,8
Y2-S2-088K19,1,126,PS,exp,41,→,left,←,0.7874644002877176,False,9,-1,0,8
Y2-S2-088K19,1,127,PS,exp,42,↑,left,←,0.7278833999298513,False,10,-1,0,8
Y2-S2-088K19,1,128,PS,exp,45,→,right,→,0.5490802000276744,True,11,-1,0,8
Y2-S2-088K19,1,129,PS,exp,38,↓,down,↓,0.7348792999982834,True,11,-1,0,8
Y2-S2-088K19,1,130,PS,exp,35,→,right,→,0.5855264998972416,True,11,1,1,9
Y2-S2-088K19,1,131,PS,exp,32,↑,up,↑,0.6929856999777257,True,10,1,0,9
Y2-S2-088K19,1,132,PS,exp,47,←,left,←,0.545129899866879,True,10,1,0,9
Y2-S2-088K19,1,133,PS,exp,43,→,right,→,0.4930843999609351,True,10,1,0,9
Y2-S2-088K19,1,134,PS,exp,42,←,left,←,0.456585300154984,True,9,1,0,9
Y2-S2-088K19,1,135,PS,exp,26,→,right,→,0.5133972000330687,True,9,1,0,9
Y2-S2-088K19,1,136,PS,exp,32,↑,up,↑,0.8904303000308573,True,9,1,0,9
Y2-S2-088K19,1,137,PS,exp,31,↓,down,↓,0.6240250999107957,True,8,1,0,9
Y2-S2-088K19,1,138,PS,exp,36,→,right,→,0.4581760000437498,True,8,1,0,9
Y2-S2-088K19,1,139,PS,exp,42,←,right,→,0.7698709000833333,False,8,-1,1,10
Y2-S2-088K19,1,140,PS,exp,37,↑,up,↑,0.9804219002835453,True,9,-1,0,10
Y2-S2-088K19,1,141,PS,exp,41,→,right,→,0.5299712000414729,True,9,-1,0,10
Y2-S2-088K19,1,142,PS,exp,29,↑,up,↑,0.7907149996608496,True,9,1,1,11
Y2-S2-088K19,1,143,PS,exp,47,→,right,→,0.5477525000460446,True,8,1,0,11
Y2-S2-088K19,1,144,PS,exp,26,↓,down,↓,0.8754302002489567,True,8,1,0,11
Y2-S2-088K19,1,145,PS,exp,29,↑,up,↑,0.7064215000718832,True,8,1,0,11
Y2-S2-088K19,1,146,PS,exp,46,←,left,←,0.6313946000300348,True,7,1,0,11
Y2-S2-088K19,1,147,PS,exp,49,↑,up,↑,0.5974171003326774,True,7,1,0,11
Y2-S2-088K19,1,148,PS,exp,42,→,right,→,0.5893121999688447,True,7,1,0,11
Y2-S2-088K19,1,149,PS,exp,46,↓,left,←,0.767683899961412,False,6,-1,1,12
Y2-S2-088K19,1,150,PS,exp,46,←,left,←,0.587744299788028,True,7,-1,0,12
Y2-S2-088K19,1,151,PS,exp,25,↓,down,↓,0.7834419002756476,True,7,-1,0,12
Y2-S2-088K19,1,152,PS,exp,25,→,right,→,0.684736399911344,True,7,1,1,13
Y2-S2-088K19,1,153,PS,exp,34,↓,left,←,0.5486228000372648,False,6,-1,1,14
Y2-S2-088K19,1,154,PS,exp,29,←,left,←,0.579952800180763,True,7,-1,0,14
Y2-S2-088K19,1,155,PS,exp,35,→,right,→,0.5911840000189841,True,7,-1,0,14
Y2-S2-088K19,1,156,PS,exp,25,←,right,→,0.4942267001606524,False,7,-1,0,14
Y2-S2-088K19,1,157,PS,exp,43,↓,right,→,0.5769495996646583,False,8,-1,0,14
Y2-S2-088K19,1,158,PS,exp,50,↑,left,←,0.7040466000325978,False,9,-1,0,14
Y2-S2-088K19,1,159,PS,exp,45,→,right,→,0.3468019999563694,True,10,-1,0,14
Y2-S2-088K19,1,160,PS,exp,36,↑,up,↑,0.501676700077951,True,10,-1,0,14
Y2-S2-088K19,1,161,PS,exp,46,↓,left,←,0.7047127997502685,False,10,-1,0,14
Y2-S2-088K19,1,162,PS,exp,37,←,left,←,0.5166021003387868,True,11,-1,0,14
Y2-S2-088K19,1,163,PS,exp,28,↓,down,↓,0.6867581000551581,True,11,-1,0,14
Y2-S2-088K19,1,164,PS,exp,43,→,right,→,0.5194916999898851,True,11,1,1,15
Y2-S2-088K19,1,165,PS,exp,26,↓,down,↓,0.7348043001256883,True,10,1,0,15
Y2-S2-088K19,1,166,PS,exp,33,↑,up,↑,0.5254263998940587,True,10,1,0,15
Y2-S2-088K19,1,167,PS,exp,36,←,left,←,0.42717859987169504,True,10,1,0,15
Y2-S2-088K19,1,168,PS,exp,37,↑,right,→,0.3568171001970768,False,9,-1,1,16
Y2-S2-088K19,2,169,AS,intra_train,30,→,right,→,1.3261743998154998,True,30,-,-,-
Y2-S2-088K19,2,170,AS,intra_train,30,↑,up,↑,1.0352988000959158,True,30,-,-,-
Y2-S2-088K19,2,171,AS,intra_train,47,↓,down,↓,0.8648830000311136,True,30,-,-,-
Y2-S2-088K19,2,172,AS,intra_train,32,→,right,→,0.9024423998780549,True,30,-,-,-
Y2-S2-088K19,2,173,AS,intra_train,43,↑,up,↑,0.7282843999564648,True,30,-,-,-
Y2-S2-088K19,2,174,AS,exp,31,←,left,←,1.046885299962014,True,20,0,0,0
Y2-S2-088K19,2,175,AS,exp,29,↑,left,←,1.1184073998592794,False,20,-1,0,0
Y2-S2-088K19,2,176,AS,exp,26,↓,down,↓,0.8361322996206582,True,21,-1,0,0
Y2-S2-088K19,2,177,AS,exp,48,↑,down,↓,0.9344480000436306,False,21,-1,0,0
Y2-S2-088K19,2,178,AS,exp,28,↓,down,↓,0.6806704998016357,True,22,-1,0,0
Y2-S2-088K19,2,179,AS,exp,36,→,right,→,0.6197155998088419,True,22,-1,0,0
Y2-S2-088K19,2,180,AS,exp,46,←,left,←,0.4503428000025451,True,22,1,1,1
Y2-S2-088K19,2,181,AS,exp,43,↓,down,↓,1.209107399918139,True,21,1,0,1
Y2-S2-088K19,2,182,AS,exp,41,↑,up,↑,0.9565731002949178,True,21,1,0,1
Y2-S2-088K19,2,183,AS,exp,30,←,left,←,0.4176293001510203,True,21,1,0,1
Y2-S2-088K19,2,184,AS,exp,28,→,right,→,0.5824087001383305,True,20,1,0,1
Y2-S2-088K19,2,185,AS,exp,39,↓,down,↓,0.8813227000646293,True,20,1,0,1
Y2-S2-088K19,2,186,AS,exp,29,←,left,←,1.1311693000607193,True,20,1,0,1
Y2-S2-088K19,2,187,AS,exp,27,↑,right,→,0.937109800055623,False,19,-1,1,2
Y2-S2-088K19,2,188,AS,exp,35,←,left,←,1.238659500144422,True,20,-1,0,2
Y2-S2-088K19,2,189,AS,exp,45,→,right,→,0.8809497999027371,True,20,-1,0,2
Y2-S2-088K19,2,190,AS,exp,34,←,right,→,0.665019900072366,False,20,-1,0,2
Y2-S2-088K19,2,191,AS,exp,33,→,right,→,0.700604600366205,True,21,-1,0,2
Y2-S2-088K19,2,192,AS,exp,40,↓,down,↓,1.0024218996986747,True,21,-1,0,2
Y2-S2-088K19,2,193,AS,exp,25,→,right,→,0.7885439996607602,True,21,1,1,3
Y2-S2-088K19,2,194,AS,exp,34,←,left,←,0.983882199972868,True,20,1,0,3
Y2-S2-088K19,2,195,AS,exp,33,→,right,→,0.6107386001385748,True,20,1,0,3
Y2-S2-088K19,2,196,AS,exp,31,↓,right,→,0.6115067000500858,False,20,-1,1,4
Y2-S2-088K19,2,197,AS,exp,46,↑,right,→,0.7714386996813118,False,21,-1,0,4
Y2-S2-088K19,2,198,AS,exp,34,↓,right,→,0.7911716001108289,False,22,-1,0,4
Y2-S2-088K19,2,199,AS,exp,39,↑,up,↑,0.6982672996819019,True,23,-1,0,4
Y2-S2-088K19,2,200,AS,exp,39,→,right,→,0.6082747001200914,True,23,-1,0,4
Y2-S2-088K19,2,201,AS,exp,35,↑,up,↑,0.5711010000668466,True,23,1,1,5
Y2-S2-088K19,2,202,AS,exp,36,←,left,←,0.7411802001297474,True,22,1,0,5
Y2-S2-088K19,2,203,AS,exp,46,↑,up,↑,0.5505562000907958,True,22,1,0,5
Y2-S2-088K19,2,204,AS,exp,50,→,right,→,0.5844465997070074,True,22,1,0,5
Y2-S2-088K19,2,205,AS,exp,34,←,left,←,0.6170038999989629,True,21,1,0,5
Y2-S2-088K19,2,206,AS,exp,46,↓,down,↓,0.6301742000505328,True,21,1,0,5
Y2-S2-088K19,2,207,AS,exp,35,→,right,→,0.4670262997969985,True,21,1,0,5
Y2-S2-088K19,2,208,AS,exp,47,↑,up,↑,0.5126486998051405,True,20,1,0,5
Y2-S2-088K19,2,209,AS,exp,39,→,right,→,0.41723640030249953,True,20,1,0,5
Y2-S2-088K19,2,210,AS,exp,39,↓,down,↓,0.5490536000579596,True,20,1,0,5
Y2-S2-088K19,2,211,AS,exp,40,←,left,←,0.40065590012818575,True,19,1,0,5
Y2-S2-088K19,2,212,AS,exp,40,↑,up,↑,0.6051916996948421,True,19,1,0,5
Y2-S2-088K19,2,213,AS,exp,34,→,right,→,0.5607735002413392,True,19,1,0,5
Y2-S2-088K19,2,214,AS,exp,29,←,left,←,0.5010950001887977,True,18,1,0,5
Y2-S2-088K19,2,215,AS,exp,27,↓,down,↓,0.6136663998477161,True,18,1,0,5
Y2-S2-088K19,2,216,AS,exp,33,←,left,←,0.35069429967552423,True,18,1,0,5
Y2-S2-088K19,2,217,AS,exp,40,↓,down,↓,0.6545810997486115,True,17,1,0,5
Y2-S2-088K19,2,218,AS,exp,35,←,right,→,0.5487350998446345,False,17,-1,1,6
Y2-S2-088K19,2,219,AS,exp,30,→,right,→,0.4341808999888599,True,18,-1,0,6
Y2-S2-088K19,2,220,AS,exp,43,↑,right,→,0.9015588001348078,False,18,-1,0,6
Y2-S2-088K19,2,221,AS,exp,32,←,left,←,0.33409650018438697,True,19,-1,0,6
Y2-S2-088K19,2,222,AS,exp,31,↑,up,↑,0.5706144999712706,True,19,-1,0,6
Y2-S2-088K19,2,223,AS,exp,36,→,right,→,0.350645599886775,True,19,1,1,7
Y2-S2-088K19,2,224,AS,exp,34,↑,up,↑,0.41722030006349087,True,18,1,0,7
Y2-S2-088K19,2,225,AS,exp,36,←,left,←,0.5737168001942337,True,18,1,0,7
Y2-S2-088K19,2,226,AS,exp,26,↓,down,↓,0.7555688000284135,True,18,1,0,7
Y2-S2-088K19,2,227,AS,exp,27,↑,up,↑,0.5078166001476347,True,17,1,0,7
Y2-S2-088K19,2,228,AS,exp,33,→,right,→,0.367357200011611,True,17,1,0,7
Y2-S2-088K19,2,229,AS,exp,39,←,right,→,0.5521817002445459,False,17,-1,1,8
Y2-S2-088K19,2,230,AS,exp,39,→,right,→,0.38367690006271005,True,18,-1,0,8
Y2-S2-088K19,2,231,AS,exp,25,↑,right,→,0.9163684002123773,False,18,-1,0,8
Y2-S2-088K19,2,232,AS,exp,45,←,left,←,0.40080890012905,True,19,-1,0,8
Y2-S2-088K19,2,233,AS,exp,33,↑,up,↑,0.4998721997253597,True,19,-1,0,8
Y2-S2-088K19,2,234,AS,exp,26,←,left,←,1.1018926999531686,True,19,1,1,9
Y2-S2-088K19,2,235,AS,exp,41,↑,up,↑,0.4850714998319745,True,18,1,0,9
Y2-S2-088K19,2,236,AS,exp,44,→,right,→,0.5679265996441245,True,18,1,0,9
Y2-S2-088K19,2,237,AS,exp,25,←,left,←,1.0905984002165496,True,18,1,0,9
Y2-S2-088K19,2,238,AS,exp,44,→,right,→,0.6251942999660969,True,17,1,0,9
Y2-S2-088K19,2,239,AS,exp,50,←,right,→,0.7451253002509475,False,17,-1,1,10
Y2-S2-088K19,2,240,AS,exp,27,→,right,→,0.5547583000734448,True,18,-1,0,10
Y2-S2-088K19,2,241,AS,exp,35,↓,right,→,0.7702347002923489,False,18,-1,0,10
Y2-S2-088K19,2,242,AS,exp,48,→,right,→,0.708355600014329,True,19,-1,0,10
Y2-S2-088K19,2,243,AS,exp,25,↑,up,↑,0.6962896999903023,True,19,-1,0,10
Y2-S2-088K19,2,244,AS,exp,35,→,right,→,0.4509286000393331,True,19,1,1,11
Y2-S2-088K19,2,245,AS,exp,26,←,left,←,0.4896471998654306,True,18,1,0,11
Y2-S2-088K19,2,246,AS,exp,33,→,right,→,0.4175252001732588,True,18,1,0,11
Y2-S2-088K19,2,247,AS,exp,50,↓,down,↓,0.6594471000134945,True,18,1,0,11
Y2-S2-088K19,2,248,AS,exp,25,→,right,→,0.4175450997427106,True,17,1,0,11
Y2-S2-088K19,2,249,AS,exp,48,←,up,↑,0.8607815997675061,False,17,-1,1,12
Y2-S2-088K19,2,250,AS,exp,44,↓,right,→,0.5009341998957098,False,18,-1,0,12
Y2-S2-088K19,2,251,AS,exp,37,↑,up,↑,0.4343077000230551,True,19,-1,0,12
Y2-S2-088K19,2,252,AS,exp,26,↓,right,→,0.8211582000367343,False,19,-1,0,12
Y2-S2-088K19,2,253,AS,exp,28,↑,right,→,0.9050385002046824,False,20,-1,0,12
Y2-S2-088K19,2,254,AS,exp,43,↓,down,↓,0.59319580020383,True,21,-1,0,12
Y2-S2-088K19,2,255,AS,exp,47,↑,up,↑,0.48404760006815195,True,21,-1,0,12
Y2-S2-088K19,2,256,AS,exp,44,←,right,→,0.5728198001161218,False,21,-1,0,12
Y2-S2-088K19,2,257,AS,exp,33,↑,up,↑,0.6589168002828956,True,22,-1,0,12
Y2-S2-088K19,2,258,AS,exp,41,→,right,→,0.4844120000489056,True,22,-1,0,12
Y2-S2-088K19,2,259,AS,exp,49,↓,down,↓,0.8524380000308156,True,22,1,1,13
Y2-S2-088K19,2,260,AS,exp,29,→,right,→,0.8147812001407146,True,21,1,0,13
Y2-S2-088K19,2,261,AS,exp,44,↓,down,↓,0.8164452002383769,True,21,1,0,13
Y2-S2-088K19,2,262,AS,exp,39,↑,up,↑,0.8672993001528084,True,21,1,0,13
Y2-S2-088K19,2,263,AS,exp,48,→,right,→,0.5391224999912083,True,20,1,0,13
Y2-S2-088K19,2,264,AS,exp,45,↑,up,↑,0.6697164997458458,True,20,1,0,13
Y2-S2-088K19,2,265,AS,exp,27,↓,down,↓,0.760622899979353,True,20,1,0,13
Y2-S2-088K19,2,266,AS,exp,46,↑,up,↑,0.7187933996319771,True,19,1,0,13
Y2-S2-088K19,2,267,AS,exp,43,←,right,→,1.0247169001959264,False,19,-1,1,14
Y2-S2-088K19,2,268,AS,exp,30,→,right,→,0.7472349996678531,True,20,-1,0,14
Y2-S2-088K19,2,269,AS,exp,36,←,left,←,1.1294538001529872,True,20,-1,0,14
Y2-S2-088K19,2,270,AS,exp,34,↓,down,↓,0.7834572996944189,True,20,1,1,15
Y2-S2-088K19,2,271,AS,exp,42,→,right,→,0.959054000210017,True,19,1,0,15
Y2-S2-088K19,2,272,AS,exp,29,↓,down,↓,0.6298427996225655,True,19,1,0,15
Y2-S2-088K19,2,273,AS,exp,27,→,right,→,1.2726020002737641,True,19,1,0,15
Y2-S2-088K19,2,274,AS,exp,27,↓,down,↓,1.1216239999048412,True,18,1,0,15
Y2-S2-088K19,2,275,AS,exp,35,↑,up,↑,0.5415404001250863,True,18,1,0,15
Y2-S2-088K19,2,276,AS,exp,40,→,right,→,0.5068907998502254,True,18,1,0,15
Y2-S2-088K19,2,277,AS,exp,45,↑,up,↑,0.452293099835515,True,17,1,0,15
Y2-S2-088K19,2,278,AS,exp,42,←,left,←,0.45110749965533614,True,17,1,0,15
Y2-S2-088K19,2,279,AS,exp,32,↓,right,→,0.7458186000585556,False,17,-1,1,16
Y2-S2-088K19,3,280,AS,intra_train,28,↑,up,↑,0.7404649001546204,True,30,-,-,-
Y2-S2-088K19,3,281,AS,intra_train,35,←,left,←,0.5671636001206934,True,30,-,-,-
Y2-S2-088K19,3,282,AS,intra_train,37,↓,down,↓,1.2454911000095308,True,30,-,-,-
Y2-S2-088K19,3,283,AS,intra_train,33,←,left,←,0.41783499997109175,True,30,-,-,-
Y2-S2-088K19,3,284,AS,intra_train,35,↑,up,↑,0.789325799793005,True,30,-,-,-
Y2-S2-088K19,3,285,AS,exp,43,→,right,→,0.5213581002317369,True,20,0,0,0
Y2-S2-088K19,3,286,AS,exp,38,←,left,←,0.6224299999885261,True,20,0,0,0
Y2-S2-088K19,3,287,AS,exp,49,↑,up,↑,0.56234319973737,True,20,1,0,0
Y2-S2-088K19,3,288,AS,exp,47,→,right,→,0.5887201000005007,True,19,1,0,0
Y2-S2-088K19,3,289,AS,exp,47,↑,up,↑,0.7039397996850312,True,19,1,0,0
Y2-S2-088K19,3,290,AS,exp,38,↓,down,↓,0.6705102003179491,True,19,1,0,0
Y2-S2-088K19,3,291,AS,exp,37,←,down,↓,1.129243700299412,False,18,-1,1,1
Y2-S2-088K19,3,292,AS,exp,38,↑,up,↑,0.5116163999773562,True,19,-1,0,1
Y2-S2-088K19,3,293,AS,exp,25,→,right,→,0.5430844998918474,True,19,-1,0,1
Y2-S2-088K19,3,294,AS,exp,48,↓,right,→,0.5699018999002874,False,19,-1,0,1
Y2-S2-088K19,3,295,AS,exp,46,←,left,←,0.5580772999674082,True,20,-1,0,1
Y2-S2-088K19,3,296,AS,exp,28,↑,up,↑,0.5216402998194098,True,20,-1,0,1
Y2-S2-088K19,3,297,AS,exp,46,←,left,←,0.4338046000339091,True,20,1,1,2
Y2-S2-088K19,3,298,AS,exp,31,→,left,←,0.7168493997305632,False,19,-1,1,3
Y2-S2-088K19,3,299,AS,exp,42,←,left,←,0.7762861996889114,True,20,-1,0,3
Y2-S2-088K19,3,300,AS,exp,43,↓,down,↓,0.607413100078702,True,20,-1,0,3
Y2-S2-088K19,3,301,AS,exp,32,→,right,→,0.6819190997630358,True,20,1,1,4
Y2-S2-088K19,3,302,AS,exp,33,↓,down,↓,0.7580332001671195,True,19,1,0,4
Y2-S2-088K19,3,303,AS,exp,30,←,left,←,0.40050960006192327,True,19,1,0,4
Y2-S2-088K19,3,304,AS,exp,46,↓,down,↓,0.7746714004315436,True,19,1,0,4
Y2-S2-088K19,3,305,AS,exp,39,→,right,→,0.6831916999071836,True,18,1,0,4
Y2-S2-088K19,3,306,AS,exp,47,↓,down,↓,0.7843546001240611,True,18,1,0,4
Y2-S2-088K19,3,307,AS,exp,43,←,left,←,0.6935375002212822,True,18,1,0,4
Y2-S2-088K19,3,308,AS,exp,48,↓,down,↓,0.611875900067389,True,17,1,0,4
Y2-S2-088K19,3,309,AS,exp,41,←,left,←,0.7246673996560276,True,17,1,0,4
Y2-S2-088K19,3,310,AS,exp,46,↓,down,↓,0.6016742000356317,True,17,1,0,4
Y2-S2-088K19,3,311,AS,exp,28,→,right,→,0.4507442000322044,True,16,1,0,4
Y2-S2-088K19,3,312,AS,exp,43,↑,up,↑,0.9334217999130487,True,16,1,0,4
Y2-S2-088K19,3,313,AS,exp,43,→,up,↑,0.8186832997016609,False,16,-1,1,5
Y2-S2-088K19,3,314,AS,exp,46,↓,down,↓,1.0809589000418782,True,17,-1,0,5
Y2-S2-088K19,3,315,AS,exp,44,↑,up,↑,0.49206729978322983,True,17,-1,0,5
Y2-S2-088K19,3,316,AS,exp,29,←,left,←,0.6376821999438107,True,17,1,1,6
Y2-S2-088K19,3,317,AS,exp,40,→,right,→,0.6309139002114534,True,16,1,0,6
Y2-S2-088K19,3,318,AS,exp,34,←,up,↑,0.6920329998247325,False,16,-1,1,7
Y2-S2-088K19,3,319,AS,exp,42,→,right,→,0.5788500998169184,True,17,-1,0,7
Y2-S2-088K19,3,320,AS,exp,48,↑,up,↑,0.5274360999464989,True,17,-1,0,7
Y2-S2-088K19,3,321,AS,exp,28,→,right,→,0.6093258997425437,True,17,1,1,8
Y2-S2-088K19,3,322,AS,exp,38,←,right,→,0.514722699765116,False,16,-1,1,9
Y2-S2-088K19,3,323,AS,exp,42,→,right,→,0.5999908996745944,True,17,-1,0,9
Y2-S2-088K19,3,324,AS,exp,46,↓,right,→,0.7051403997465968,False,17,-1,0,9
Y2-S2-088K19,3,325,AS,exp,32,→,right,→,0.852914999704808,True,18,-1,0,9
Y2-S2-088K19,3,326,AS,exp,27,←,left,←,0.43396389996632934,True,18,-1,0,9
Y2-S2-088K19,3,327,AS,exp,25,↑,right,→,0.537222399841994,False,18,-1,0,9
Y2-S2-088K19,3,328,AS,exp,46,←,left,←,0.41674579959362745,True,19,-1,0,9
Y2-S2-088K19,3,329,AS,exp,33,→,right,→,1.2714857999235392,True,19,-1,0,9
Y2-S2-088K19,3,330,AS,exp,41,←,left,←,0.40042000031098723,True,19,1,1,10
Y2-S2-088K19,3,331,AS,exp,49,↑,right,→,0.8395028999075294,False,18,-1,1,11
Y2-S2-088K19,3,332,AS,exp,36,←,right,→,0.5066937999799848,False,19,-1,0,11
Y2-S2-088K19,3,333,AS,exp,48,↓,down,↓,0.9088606000877917,True,20,-1,0,11
Y2-S2-088K19,3,334,AS,exp,31,→,right,→,0.7072060001082718,True,20,-1,0,11
Y2-S2-088K19,3,335,AS,exp,50,↓,right,→,0.508339200168848,False,20,-1,0,11
Y2-S2-088K19,3,336,AS,exp,50,↑,up,↑,0.46735099982470274,True,21,-1,0,11
Y2-S2-088K19,3,337,AS,exp,39,→,right,→,0.5885524000041187,True,21,-1,0,11
Y2-S2-088K19,3,338,AS,exp,42,↓,down,↓,0.6008560000918806,True,21,1,1,12
Y2-S2-088K19,3,339,AS,exp,40,→,right,→,0.4505180004052818,True,20,1,0,12
Y2-S2-088K19,3,340,AS,exp,50,↑,up,↑,1.280544400215149,True,20,1,0,12
Y2-S2-088K19,3,341,AS,exp,31,→,right,→,0.5070374999195337,True,20,1,0,12
Y2-S2-088K19,3,342,AS,exp,35,↑,up,↑,0.41745249973610044,True,19,1,0,12
Y2-S2-088K19,3,343,AS,exp,44,→,right,→,0.6013005999848247,True,19,1,0,12
Y2-S2-088K19,3,344,AS,exp,30,↓,down,↓,0.5267620999366045,True,19,1,0,12
Y2-S2-088K19,3,345,AS,exp,45,↑,right,→,0.5857285000383854,False,18,-1,1,13
Y2-S2-088K19,3,346,AS,exp,37,↓,down,↓,0.7403367999941111,True,19,-1,0,13
Y2-S2-088K19,3,347,AS,exp,36,→,right,→,0.531965000089258,True,19,-1,0,13
Y2-S2-088K19,3,348,AS,exp,45,↓,down,↓,0.5026275999844074,True,19,1,1,14
Y2-S2-088K19,3,349,AS,exp,47,↑,up,↑,0.6711729997768998,True,18,1,0,14
Y2-S2-088K19,3,350,AS,exp,42,←,left,←,0.680578799918294,True,18,1,0,14
Y2-S2-088K19,3,351,AS,exp,47,↑,up,↑,0.607158999890089,True,18,1,0,14
Y2-S2-088K19,3,352,AS,exp,38,←,left,←,0.695673800073564,True,17,1,0,14
Y2-S2-088K19,3,353,AS,exp,31,↓,down,↓,0.579592099878937,True,17,1,0,14
Y2-S2-088K19,3,354,AS,exp,34,→,right,→,0.4733434999361634,True,17,1,0,14
Y2-S2-088K19,3,355,AS,exp,38,←,left,←,0.6760768997482955,True,16,1,0,14
Y2-S2-088K19,3,356,AS,exp,37,→,down,↓,0.9977017999626696,False,16,-1,1,15
Y2-S2-088K19,3,357,AS,exp,37,←,left,←,0.6665464001707733,True,17,-1,0,15
Y2-S2-088K19,3,358,AS,exp,28,→,right,→,0.4918868998065591,True,17,-1,0,15
Y2-S2-088K19,3,359,AS,exp,47,↑,up,↑,0.8843859997577965,True,17,1,1,16
Y2-S2-088K19,4,360,PS,intra_train,50,←,left,←,0.6148271998390555,True,18,-,-,-
Y2-S2-088K19,4,361,PS,intra_train,34,↑,up,↑,0.5852856999263167,True,18,-,-,-
Y2-S2-088K19,4,362,PS,intra_train,40,←,left,←,0.4338255003094673,True,18,-,-,-
Y2-S2-088K19,4,363,PS,intra_train,43,→,right,→,0.7829785002395511,True,18,-,-,-
Y2-S2-088K19,4,364,PS,intra_train,45,←,left,←,0.4171502999961376,True,18,-,-,-
Y2-S2-088K19,4,365,PS,exp,40,→,right,→,0.48532760003581643,True,12,0,0,0
Y2-S2-088K19,4,366,PS,exp,44,↑,up,↑,0.7983456002548337,True,12,0,0,0
Y2-S2-088K19,4,367,PS,exp,30,→,right,→,0.5136155998334289,True,12,1,0,0
Y2-S2-088K19,4,368,PS,exp,49,↑,right,→,0.584965200163424,False,11,-1,1,1
Y2-S2-088K19,4,369,PS,exp,25,←,left,←,0.39625339955091476,True,12,-1,0,1
Y2-S2-088K19,4,370,PS,exp,30,↑,up,↑,0.5435562999919057,True,12,-1,0,1
Y2-S2-088K19,4,371,PS,exp,32,↓,down,↓,0.4888251000083983,True,12,1,1,2
Y2-S2-088K19,4,372,PS,exp,28,↑,right,→,0.6612569000571966,False,11,-1,1,3
Y2-S2-088K19,4,373,PS,exp,31,→,right,→,0.7247394998557866,True,12,-1,0,3
Y2-S2-088K19,4,374,PS,exp,43,↓,right,→,0.5071831000968814,False,12,-1,0,3
Y2-S2-088K19,4,375,PS,exp,35,↑,right,→,0.8360925000160933,False,13,-1,0,3
Y2-S2-088K19,4,376,PS,exp,50,→,right,→,0.5538673000410199,True,14,-1,0,3
Y2-S2-088K19,4,377,PS,exp,42,↓,down,↓,0.6967211998999119,True,14,-1,0,3
Y2-S2-088K19,4,378,PS,exp,36,←,left,←,0.7028159997425973,True,14,1,1,4
Y2-S2-088K19,4,379,PS,exp,33,↑,up,↑,0.5968841998837888,True,13,1,0,4
Y2-S2-088K19,4,380,PS,exp,31,←,right,→,0.7885822998359799,False,13,-1,1,5
Y2-S2-088K19,4,381,PS,exp,37,↑,up,↑,0.5289952997118235,True,14,-1,0,5
Y2-S2-088K19,4,382,PS,exp,44,→,right,→,0.7130930996499956,True,14,-1,0,5
Y2-S2-088K19,4,383,PS,exp,37,↓,down,↓,0.6351405996829271,True,14,1,1,6
Y2-S2-088K19,4,384,PS,exp,27,←,left,←,0.5666845999658108,True,13,1,0,6
Y2-S2-088K19,4,385,PS,exp,29,↓,down,↓,0.6908852998167276,True,13,1,0,6
Y2-S2-088K19,4,386,PS,exp,42,←,left,←,0.4562192000448704,True,13,1,0,6
Y2-S2-088K19,4,387,PS,exp,35,→,right,→,0.5573653997853398,True,12,1,0,6
Y2-S2-088K19,4,388,PS,exp,46,←,left,←,0.5647716000676155,True,12,1,0,6
Y2-S2-088K19,4,389,PS,exp,38,→,right,→,0.6046385001391172,True,12,1,0,6
Y2-S2-088K19,4,390,PS,exp,40,←,left,←,0.4913567998446524,True,11,1,0,6
Y2-S2-088K19,4,391,PS,exp,44,→,right,→,0.4517010999843478,True,11,1,0,6
Y2-S2-088K19,4,392,PS,exp,37,←,left,←,0.5309179998002946,True,11,1,0,6
Y2-S2-088K19,4,393,PS,exp,39,→,right,→,0.42259470000863075,True,10,1,0,6
Y2-S2-088K19,4,394,PS,exp,49,←,left,←,0.5247025997377932,True,10,1,0,6
Y2-S2-088K19,4,395,PS,exp,48,↓,down,↓,0.7263680999167264,True,10,1,0,6
Y2-S2-088K19,4,396,PS,exp,31,→,right,→,0.49460940016433597,True,9,1,0,6
Y2-S2-088K19,4,397,PS,exp,40,↑,up,↑,0.6428938000462949,True,9,1,0,6
Y2-S2-088K19,4,398,PS,exp,29,←,left,←,0.4857552000321448,True,9,1,0,6
Y2-S2-088K19,4,399,PS,exp,30,↓,down,↓,0.6413135002367198,True,8,1,0,6
Y2-S2-088K19,4,400,PS,exp,47,←,left,←,0.6963455001823604,True,8,1,0,6
Y2-S2-088K19,4,401,PS,exp,48,→,right,→,0.44418919971212745,True,8,1,0,6
Y2-S2-088K19,4,402,PS,exp,35,↓,down,↓,0.584253799635917,True,7,1,0,6
Y2-S2-088K19,4,403,PS,exp,42,→,right,→,0.5185873000882566,True,7,1,0,6
Y2-S2-088K19,4,404,PS,exp,41,↓,down,↓,0.6414693999104202,True,7,1,0,6
Y2-S2-088K19,4,405,PS,exp,37,→,right,→,0.45844880025833845,True,6,1,0,6
Y2-S2-088K19,4,406,PS,exp,38,↓,down,↓,0.7110240999609232,True,6,1,0,6
Y2-S2-088K19,4,407,PS,exp,44,→,right,→,0.5593576999381185,True,6,1,0,6
Y2-S2-088K19,4,408,PS,exp,36,↑,right,→,0.6451175999827683,False,5,-1,1,7
Y2-S2-088K19,4,409,PS,exp,47,←,left,←,0.6628487003035843,True,6,-1,0,7
Y2-S2-088K19,4,410,PS,exp,38,↑,up,↑,0.6723964996635914,True,6,-1,0,7
Y2-S2-088K19,4,411,PS,exp,50,←,left,←,0.5570320999249816,True,6,1,1,8
Y2-S2-088K19,4,412,PS,exp,33,↑,left,←,0.6268278998322785,False,5,-1,1,9
Y2-S2-088K19,4,413,PS,exp,35,←,right,→,0.6271231002174318,False,6,-1,0,9
Y2-S2-088K19,4,414,PS,exp,26,↓,left,←,0.6005841996520758,False,7,-1,0,9
Y2-S2-088K19,4,415,PS,exp,42,→,right,→,0.6792132002301514,True,8,-1,0,9
Y2-S2-088K19,4,416,PS,exp,36,↓,right,→,0.49716310016810894,False,8,-1,0,9
Y2-S2-088K19,4,417,PS,exp,47,←,left,←,0.623301399871707,True,9,-1,0,9
Y2-S2-088K19,4,418,PS,exp,35,↓,down,↓,0.6180650000460446,True,9,-1,0,9
Y2-S2-088K19,4,419,PS,exp,40,↑,right,→,0.604613299947232,False,9,-1,0,9
Y2-S2-088K19,4,420,PS,exp,45,←,right,→,0.5776645001024008,False,10,-1,0,9
Y2-S2-088K19,4,421,PS,exp,25,↓,down,↓,0.6232018996961415,True,11,-1,0,9
Y2-S2-088K19,4,422,PS,exp,28,←,right,→,0.6604917999356985,False,11,-1,0,9
Y2-S2-088K19,4,423,PS,exp,50,↑,up,↑,0.6226714998483658,True,12,-1,0,9
Y2-S2-088K19,4,424,PS,exp,25,←,right,→,0.6585049000568688,False,12,-1,0,9
Y2-S2-088K19,4,425,PS,exp,47,→,down,↓,0.9178876001387835,False,13,-1,0,9
Y2-S2-088K19,4,426,PS,exp,42,↑,up,↑,0.4574140002951026,True,14,-1,0,9
Y2-S2-088K19,4,427,PS,exp,50,↓,down,↓,0.5738074998371303,True,14,-1,0,9
Y2-S2-088K19,4,428,PS,exp,30,→,right,→,0.4344929000362754,True,14,1,1,10
Y2-S2-088K19,4,429,PS,exp,36,←,up,↑,0.7920737001113594,False,13,-1,1,11
Y2-S2-088K19,4,430,PS,exp,27,↓,down,↓,0.4865671996958554,True,14,-1,0,11
Y2-S2-088K19,4,431,PS,exp,28,→,right,→,0.4367215000092983,True,14,-1,0,11
Y2-S2-088K19,4,432,PS,exp,30,←,up,↑,0.9202139000408351,False,14,-1,0,11
Y2-S2-088K19,4,433,PS,exp,37,↓,down,↓,0.8425473999232054,True,15,-1,0,11
Y2-S2-088K19,4,434,PS,exp,46,↑,right,→,0.49897579988464713,False,15,-1,0,11
Y2-S2-088K19,4,435,PS,exp,50,↓,down,↓,0.5356435999274254,True,16,-1,0,11
Y2-S2-088K19,4,436,PS,exp,44,→,right,→,0.5547004002146423,True,16,-1,0,11
Y2-S2-088K19,4,437,PS,exp,48,←,down,↓,0.8273376999422908,False,16,-1,0,11
Y2-S2-088K19,4,438,PS,exp,40,↑,up,↑,0.4597351998090744,True,17,-1,0,11
Y2-S2-088K19,4,439,PS,exp,45,←,left,←,0.4552901000715792,True,17,-1,0,11
Y2-S2-088K19,4,440,PS,exp,30,↓,down,↓,0.5259986002929509,True,17,1,1,12
Y2-S2-088K19,4,441,PS,exp,34,↑,down,↓,0.8293945998884737,False,16,-1,1,13
Y2-S2-088K19,4,442,PS,exp,47,←,left,←,0.5148844001814723,True,17,-1,0,13
Y2-S2-088K19,4,443,PS,exp,38,↑,up,↑,0.8425789996981621,True,17,-1,0,13
Y2-S2-088K19,4,444,PS,exp,28,↓,down,↓,0.6189631000161171,True,17,1,1,14
Y2-S2-088K19,4,445,PS,exp,31,→,right,→,0.4912371998652816,True,16,1,0,14
Y2-S2-088K19,4,446,PS,exp,28,←,left,←,0.43768489966169,True,16,1,0,14
Y2-S2-088K19,4,447,PS,exp,38,↓,up,↑,0.7380488002672791,False,16,-1,1,15
Y2-S2-088K19,4,448,PS,exp,45,→,right,→,0.6965112001635134,True,17,-1,0,15
Y2-S2-088K19,4,449,PS,exp,43,←,left,←,0.4810788002796471,True,17,-1,0,15
Y2-S2-088K19,4,450,PS,exp,49,→,right,→,0.417512399610132,True,17,1,1,16
Y2-S2-088K19,5,451,PS,intra_train,26,↓,down,↓,0.5627242000773549,True,18,-,-,-
Y2-S2-088K19,5,452,PS,intra_train,42,→,right,→,0.41698750015348196,True,18,-,-,-
Y2-S2-088K19,5,453,PS,intra_train,35,↑,up,↑,0.5560173997655511,True,18,-,-,-
Y2-S2-088K19,5,454,PS,intra_train,41,→,right,→,1.1727805002592504,True,18,-,-,-
Y2-S2-088K19,5,455,PS,intra_train,45,↓,down,↓,0.5405712001956999,True,18,-,-,-
Y2-S2-088K19,5,456,PS,exp,26,←,left,←,0.3937823995947838,True,12,0,0,0
Y2-S2-088K19,5,457,PS,exp,35,→,right,→,0.5502432999201119,True,12,0,0,0
Y2-S2-088K19,5,458,PS,exp,33,↓,down,↓,0.7241051001474261,True,12,1,0,0
Y2-S2-088K19,5,459,PS,exp,31,↑,up,↑,0.591666900087148,True,11,1,0,0
Y2-S2-088K19,5,460,PS,exp,48,↓,down,↓,0.5087892999872565,True,11,1,0,0
Y2-S2-088K19,5,461,PS,exp,38,→,right,→,0.49001369997859,True,11,1,0,0
Y2-S2-088K19,5,462,PS,exp,25,←,left,←,0.5006277998909354,True,10,1,0,0
Y2-S2-088K19,5,463,PS,exp,33,→,right,→,0.40881010005250573,True,10,1,0,0
Y2-S2-088K19,5,464,PS,exp,25,←,right,→,0.8548019998706877,False,10,-1,1,1
Y2-S2-088K19,5,465,PS,exp,49,→,right,→,0.47067320020869374,True,11,-1,0,1
Y2-S2-088K19,5,466,PS,exp,48,↑,up,↑,0.5028864000923932,True,11,-1,0,1
Y2-S2-088K19,5,467,PS,exp,29,→,right,→,0.49560549994930625,True,11,1,1,2
Y2-S2-088K19,5,468,PS,exp,26,↑,up,↑,0.45995220029726624,True,10,1,0,2
Y2-S2-088K19,5,469,PS,exp,36,←,up,↑,0.7196718002669513,False,10,-1,1,3
Y2-S2-088K19,5,470,PS,exp,44,→,right,→,0.584591899998486,True,11,-1,0,3
Y2-S2-088K19,5,471,PS,exp,27,↑,up,↑,0.5298329000361264,True,11,-1,0,3
Y2-S2-088K19,5,472,PS,exp,34,←,left,←,0.4113229000940919,True,11,1,1,4
Y2-S2-088K19,5,473,PS,exp,45,→,right,→,0.4321343000046909,True,10,1,0,4
Y2-S2-088K19,5,474,PS,exp,40,↑,up,↑,0.5240817000158131,True,10,1,0,4
Y2-S2-088K19,5,475,PS,exp,28,↓,down,↓,0.6432015998288989,True,10,1,0,4
Y2-S2-088K19,5,476,PS,exp,44,←,left,←,0.4844720000401139,True,9,1,0,4
Y2-S2-088K19,5,477,PS,exp,26,↑,up,↑,0.5303487996570766,True,9,1,0,4
Y2-S2-088K19,5,478,PS,exp,36,→,right,→,0.5403199000284076,True,9,1,0,4
Y2-S2-088K19,5,479,PS,exp,30,↑,up,↑,0.7535894000902772,True,8,1,0,4
Y2-S2-088K19,5,480,PS,exp,44,←,left,←,0.4031496001407504,True,8,1,0,4
Y2-S2-088K19,5,481,PS,exp,32,↓,down,↓,0.509239399805665,True,8,1,0,4
Y2-S2-088K19,5,482,PS,exp,35,↑,up,↑,0.8342853998765349,True,7,1,0,4
Y2-S2-088K19,5,483,PS,exp,49,←,left,←,0.9088412001729012,True,7,1,0,4
Y2-S2-088K19,5,484,PS,exp,38,↓,left,←,0.610375499818474,False,7,-1,1,5
Y2-S2-088K19,5,485,PS,exp,40,←,left,←,0.4356008004397154,True,8,-1,0,5
Y2-S2-088K19,5,486,PS,exp,30,→,right,→,0.5543651999905705,True,8,-1,0,5
Y2-S2-088K19,5,487,PS,exp,49,↓,left,←,0.5849967002868652,False,8,-1,0,5
Y2-S2-088K19,5,488,PS,exp,49,↑,up,↑,0.576144200284034,True,9,-1,0,5
Y2-S2-088K19,5,489,PS,exp,44,←,left,←,0.3693796000443399,True,9,-1,0,5
Y2-S2-088K19,5,490,PS,exp,33,↓,down,↓,0.6959779998287559,True,9,1,1,6
Y2-S2-088K19,5,491,PS,exp,37,→,right,→,0.7724605998955667,True,8,1,0,6
Y2-S2-088K19,5,492,PS,exp,32,↓,down,↓,1.2763589001260698,True,8,1,0,6
Y2-S2-088K19,5,493,PS,exp,33,↑,right,→,0.46265510004013777,False,8,-1,1,7
Y2-S2-088K19,5,494,PS,exp,43,→,right,→,0.5070135002024472,True,9,-1,0,7
Y2-S2-088K19,5,495,PS,exp,29,↓,down,↓,0.6444790000095963,True,9,-1,0,7
Y2-S2-088K19,5,496,PS,exp,45,↑,up,↑,0.7588770999573171,True,9,1,1,8
Y2-S2-088K19,5,497,PS,exp,26,←,right,→,0.5634893998503685,False,8,-1,1,9
Y2-S2-088K19,5,498,PS,exp,35,↑,right,→,0.4183908002451062,False,9,-1,0,9
Y2-S2-088K19,5,499,PS,exp,42,←,left,←,0.9688891996629536,True,10,-1,0,9
Y2-S2-088K19,5,500,PS,exp,32,↑,up,↑,0.6633599000051618,True,10,-1,0,9
Y2-S2-088K19,5,501,PS,exp,25,→,right,→,0.43870680034160614,True,10,1,1,10
Y2-S2-088K19,5,502,PS,exp,32,←,right,→,0.6086353999562562,False,9,-1,1,11
Y2-S2-088K19,5,503,PS,exp,35,↑,up,↑,0.5651572002097964,True,10,-1,0,11
Y2-S2-088K19,5,504,PS,exp,48,→,right,→,0.429812700022012,True,10,-1,0,11
Y2-S2-088K19,5,505,PS,exp,31,↓,right,→,0.942835200112313,False,10,-1,0,11
Y2-S2-088K19,5,506,PS,exp,33,→,right,→,0.4312354000285268,True,11,-1,0,11
Y2-S2-088K19,5,507,PS,exp,27,↑,up,↑,0.4611188997514546,True,11,-1,0,11
Y2-S2-088K19,5,508,PS,exp,43,↓,down,↓,0.7208929001353681,True,11,1,1,12
Y2-S2-088K19,5,509,PS,exp,36,→,down,↓,1.0670280000194907,False,10,-1,1,13
Y2-S2-088K19,5,510,PS,exp,37,↓,right,→,0.6154215997084975,False,11,-1,0,13
Y2-S2-088K19,5,511,PS,exp,30,↑,up,↑,0.882740399800241,True,12,-1,0,13
Y2-S2-088K19,5,512,PS,exp,43,←,left,←,0.4832210000604391,True,12,-1,0,13
Y2-S2-088K19,5,513,PS,exp,44,↑,up,↑,0.5728730000555515,True,12,1,1,14
Y2-S2-088K19,5,514,PS,exp,38,→,right,→,0.39883239986374974,True,11,1,0,14
Y2-S2-088K19,5,515,PS,exp,42,↓,up,↑,0.8256526002660394,False,11,-1,1,15
Y2-S2-088K19,5,516,PS,exp,46,←,left,←,0.4120821002870798,True,12,-1,0,15
Y2-S2-088K19,5,517,PS,exp,45,→,right,→,0.39316669991239905,True,12,-1,0,15
Y2-S2-088K19,5,518,PS,exp,48,←,left,←,0.60127989994362,True,12,1,1,16
Y2-S2-088K19,6,519,AS,intra_train,46,↑,up,↑,1.3289103000424802,True,30,-,-,-
Y2-S2-088K19,6,520,AS,intra_train,45,→,right,→,0.6710475999861956,True,30,-,-,-
Y2-S2-088K19,6,521,AS,intra_train,50,↑,up,↑,0.8236688999459147,True,30,-,-,-
Y2-S2-088K19,6,522,AS,intra_train,50,→,right,→,0.783156800083816,True,30,-,-,-
Y2-S2-088K19,6,523,AS,intra_train,47,↓,down,↓,0.8661466999910772,True,30,-,-,-
Y2-S2-088K19,6,524,AS,exp,26,←,right,→,1.0121681997552514,False,20,-1,0,0
Y2-S2-088K19,6,525,AS,exp,34,↓,down,↓,0.8774052001535892,True,21,-1,0,0
Y2-S2-088K19,6,526,AS,exp,32,↑,up,↑,0.6001685000956059,True,21,-1,0,0
Y2-S2-088K19,6,527,AS,exp,41,←,left,←,0.8543798997998238,True,21,1,1,1
Y2-S2-088K19,6,528,AS,exp,47,↑,up,↑,0.5062679997645319,True,20,1,0,1
Y2-S2-088K19,6,529,AS,exp,44,↓,up,↑,1.0861726999282837,False,20,-1,1,2
Y2-S2-088K19,6,530,AS,exp,41,↑,up,↑,0.672955899965018,True,21,-1,0,2
Y2-S2-088K19,6,531,AS,exp,43,→,right,→,0.7184720002114773,True,21,-1,0,2
Y2-S2-088K19,6,532,AS,exp,35,←,left,←,0.8585182996466756,True,21,1,1,3
Y2-S2-088K19,6,533,AS,exp,44,↑,up,↑,0.536458000075072,True,20,1,0,3
Y2-S2-088K19,6,534,AS,exp,44,←,left,←,0.6264386000111699,True,20,1,0,3
Y2-S2-088K19,6,535,AS,exp,33,↓,down,↓,0.7360196998342872,True,20,1,0,3
Y2-S2-088K19,6,536,AS,exp,49,←,left,←,0.6954113999381661,True,19,1,0,3
Y2-S2-088K19,6,537,AS,exp,46,↑,up,↑,0.5324817001819611,True,19,1,0,3
Y2-S2-088K19,6,538,AS,exp,30,→,right,→,0.7372066997922957,True,19,1,0,3
Y2-S2-088K19,6,539,AS,exp,50,←,left,←,1.0769926002249122,True,18,1,0,3
Y2-S2-088K19,6,540,AS,exp,42,↑,up,↑,0.8560156002640724,True,18,1,0,3
Y2-S2-088K19,6,541,AS,exp,35,←,left,←,0.6893172999843955,True,18,1,0,3
Y2-S2-088K19,6,542,AS,exp,42,→,right,→,1.045100999996066,True,17,1,0,3
Y2-S2-088K19,6,543,AS,exp,50,↓,left,←,0.8368591000325978,False,17,-1,1,4
Y2-S2-088K19,6,544,AS,exp,47,↑,up,↑,0.5282309004105628,True,18,-1,0,4
Y2-S2-088K19,6,545,AS,exp,47,←,left,←,0.6553942002356052,True,18,-1,0,4
Y2-S2-088K19,6,546,AS,exp,25,→,right,→,0.768082800321281,True,18,1,1,5
Y2-S2-088K19,6,547,AS,exp,42,↓,down,↓,0.9375803000293672,True,17,1,0,5
Y2-S2-088K19,6,548,AS,exp,27,←,left,←,0.7202078998088837,True,17,1,0,5
Y2-S2-088K19,6,549,AS,exp,50,↑,up,↑,0.4911087998189032,True,17,1,0,5
Y2-S2-088K19,6,550,AS,exp,48,↓,down,↓,0.919384800363332,True,16,1,0,5
Y2-S2-088K19,6,551,AS,exp,42,←,down,↓,0.8646406000480056,False,16,-1,1,6
Y2-S2-088K19,6,552,AS,exp,48,↓,down,↓,0.7859474001452327,True,17,-1,0,6
Y2-S2-088K19,6,553,AS,exp,30,→,left,←,1.0519101000390947,False,17,-1,0,6
Y2-S2-088K19,6,554,AS,exp,25,↓,down,↓,0.6860452000983059,True,18,-1,0,6
Y2-S2-088K19,6,555,AS,exp,45,↑,up,↑,0.8128764997236431,True,18,-1,0,6
Y2-S2-088K19,6,556,AS,exp,34,↓,down,↓,0.61568220006302,True,18,1,1,7
Y2-S2-088K19,6,557,AS,exp,30,→,right,→,0.5922958999872208,True,17,1,0,7
Y2-S2-088K19,6,558,AS,exp,43,←,left,←,0.7111013000831008,True,17,1,0,7
Y2-S2-088K19,6,559,AS,exp,31,↑,left,←,0.8909120997413993,False,17,-1,1,8
Y2-S2-088K19,6,560,AS,exp,34,↓,down,↓,0.7207006001845002,True,18,-1,0,8
Y2-S2-088K19,6,561,AS,exp,44,←,left,←,0.4173647998832166,True,18,-1,0,8
Y2-S2-088K19,6,562,AS,exp,48,→,right,→,1.2151671997271478,True,18,1,1,9
Y2-S2-088K19,6,563,AS,exp,43,↑,left,←,0.9099989999085665,False,17,-1,1,10
Y2-S2-088K19,6,564,AS,exp,32,←,left,←,0.41678480012342334,True,18,-1,0,10
Y2-S2-088K19,6,565,AS,exp,47,↓,right,→,0.9974229000508785,False,18,-1,0,10
Y2-S2-088K19,6,566,AS,exp,28,→,right,→,0.5733659001998603,True,19,-1,0,10
Y2-S2-088K19,6,567,AS,exp,36,←,left,←,0.51727050030604,True,19,-1,0,10
Y2-S2-088K19,6,568,AS,exp,32,↑,up,↑,0.8560688998550177,True,19,1,1,11
Y2-S2-088K19,6,569,AS,exp,42,↓,right,→,0.9094755002297461,False,18,-1,1,12
Y2-S2-088K19,6,570,AS,exp,36,←,left,←,0.9504803000018001,True,19,-1,0,12
Y2-S2-088K19,6,571,AS,exp,45,↑,up,↑,0.6878542001359165,True,19,-1,0,12
Y2-S2-088K19,6,572,AS,exp,41,↓,down,↓,0.8264863002113998,True,19,1,1,13
Y2-S2-088K19,6,573,AS,exp,42,←,left,←,1.0199780999682844,True,18,1,0,13
Y2-S2-088K19,6,574,AS,exp,27,↑,up,↑,0.661771500017494,True,18,1,0,13
Y2-S2-088K19,6,575,AS,exp,33,↓,down,↓,0.8763294001109898,True,18,1,0,13
Y2-S2-088K19,6,576,AS,exp,34,→,down,↓,0.8016904001124203,False,17,-1,1,14
Y2-S2-088K19,6,577,AS,exp,48,←,left,←,0.5765563999302685,True,18,-1,0,14
Y2-S2-088K19,6,578,AS,exp,33,↑,up,↑,0.6087699001654983,True,18,-1,0,14
Y2-S2-088K19,6,579,AS,exp,27,→,right,→,0.6438607000745833,True,18,1,1,15
Y2-S2-088K19,6,580,AS,exp,26,↓,down,↓,0.7742213997989893,True,17,1,0,15
Y2-S2-088K19,6,581,AS,exp,46,→,right,→,0.514157600235194,True,17,1,0,15
Y2-S2-088K19,6,582,AS,exp,27,↓,down,↓,0.7791504999622703,True,17,1,0,15
Y2-S2-088K19,6,583,AS,exp,31,↑,up,↑,0.8344984999857843,True,16,1,0,15
Y2-S2-088K19,6,584,AS,exp,33,→,right,→,0.6282409997656941,True,16,1,0,15
Y2-S2-088K19,6,585,AS,exp,47,←,left,←,0.3840608997270465,True,16,1,0,15
Y2-S2-088K19,6,586,AS,exp,40,→,right,→,0.48596249986439943,True,15,1,0,15
Y2-S2-088K19,6,587,AS,exp,49,←,right,→,0.596423199865967,False,15,-1,1,16
Y2-S2-088K19,7,588,AS,intra_train,50,↑,up,↑,1.142292599659413,True,30,-,-,-
Y2-S2-088K19,7,589,AS,intra_train,35,↓,down,↓,0.5504914000630379,True,30,-,-,-
Y2-S2-088K19,7,590,AS,intra_train,41,←,left,←,0.7071506003849208,True,30,-,-,-
Y2-S2-088K19,7,591,AS,intra_train,32,↑,up,↑,1.4353946996852756,True,30,-,-,-
Y2-S2-088K19,7,592,AS,intra_train,25,→,right,→,0.41790799982845783,True,30,-,-,-
Y2-S2-088K19,7,593,AS,exp,45,↓,down,↓,0.9216674999333918,True,20,0,0,0
Y2-S2-088K19,7,594,AS,exp,40,↑,up,↑,0.6735665998421609,True,20,0,0,0
Y2-S2-088K19,7,595,AS,exp,38,↓,down,↓,0.7019030000083148,True,20,1,0,0
Y2-S2-088K19,7,596,AS,exp,42,←,left,←,0.6700606001541018,True,19,1,0,0
Y2-S2-088K19,7,597,AS,exp,37,↑,up,↑,0.5255023003555834,True,19,1,0,0
Y2-S2-088K19,7,598,AS,exp,33,←,left,←,0.9568904000334442,True,19,1,0,0
Y2-S2-088K19,7,599,AS,exp,42,→,right,→,0.6589013999328017,True,18,1,0,0
Y2-S2-088K19,7,600,AS,exp,48,←,left,←,0.43371269991621375,True,18,1,0,0
Y2-S2-088K19,7,601,AS,exp,45,→,right,→,0.5104606999084353,True,18,1,0,0
Y2-S2-088K19,7,602,AS,exp,37,←,right,→,0.47627720003947616,False,17,-1,1,1
Y2-S2-088K19,7,603,AS,exp,28,→,right,→,0.5619834000244737,True,18,-1,0,1
Y2-S2-088K19,7,604,AS,exp,42,←,left,←,0.4172482001595199,True,18,-1,0,1
Y2-S2-088K19,7,605,AS,exp,27,→,right,→,0.5119670000858605,True,18,1,1,2
Y2-S2-088K19,7,606,AS,exp,26,↓,down,↓,0.609357999637723,True,17,1,0,2
Y2-S2-088K19,7,607,AS,exp,45,↑,right,→,0.6481296997517347,False,17,-1,1,3
Y2-S2-088K19,7,608,AS,exp,50,→,right,→,0.38422839995473623,True,18,-1,0,3
Y2-S2-088K19,7,609,AS,exp,47,←,left,←,0.4173933998681605,True,18,-1,0,3
Y2-S2-088K19,7,610,AS,exp,35,↑,up,↑,1.099158899858594,True,18,1,1,4
Y2-S2-088K19,7,611,AS,exp,27,↓,down,↓,0.4509485997259617,True,17,1,0,4
Y2-S2-088K19,7,612,AS,exp,40,↑,right,→,0.5210636002011597,False,17,-1,1,5
Y2-S2-088K19,7,613,AS,exp,50,←,left,←,0.3839209000580013,True,18,-1,0,5
Y2-S2-088K19,7,614,AS,exp,39,↓,down,↓,0.5058919000439346,True,18,-1,0,5
Y2-S2-088K19,7,615,AS,exp,43,→,right,→,0.6495146001689136,True,18,1,1,6
Y2-S2-088K19,7,616,AS,exp,49,↓,right,→,0.5520560997538269,False,17,-1,1,7
Y2-S2-088K19,7,617,AS,exp,37,→,right,→,0.5476911999285221,True,18,-1,0,7
Y2-S2-088K19,7,618,AS,exp,28,↑,up,↑,0.4720294000580907,True,18,-1,0,7
Y2-S2-088K19,7,619,AS,exp,36,↓,down,↓,1.1686056000180542,True,18,1,1,8
Y2-S2-088K19,7,620,AS,exp,30,→,right,→,1.0786530999466777,True,17,1,0,8
Y2-S2-088K19,7,621,AS,exp,39,↑,up,↑,0.9513053996488452,True,17,1,0,8
Y2-S2-088K19,7,622,AS,exp,32,↓,up,↑,0.8213955000974238,False,17,-1,1,9
Y2-S2-088K19,7,623,AS,exp,26,↑,up,↑,0.6964060999453068,True,18,-1,0,9
Y2-S2-088K19,7,624,AS,exp,30,→,right,→,0.5360889998264611,True,18,-1,0,9
Y2-S2-088K19,7,625,AS,exp,38,↑,up,↑,0.3674214999191463,True,18,1,1,10
Y2-S2-088K19,7,626,AS,exp,28,→,right,→,0.5362573997117579,True,17,1,0,10
Y2-S2-088K19,7,627,AS,exp,34,←,left,←,0.4641338000074029,True,17,1,0,10
Y2-S2-088K19,7,628,AS,exp,43,↑,up,↑,0.5075069000013173,True,17,1,0,10
Y2-S2-088K19,7,629,AS,exp,41,↓,down,↓,0.6371700000017881,True,16,1,0,10
Y2-S2-088K19,7,630,AS,exp,45,→,right,→,0.6879811999388039,True,16,1,0,10
Y2-S2-088K19,7,631,AS,exp,39,↑,up,↑,0.36764320032671094,True,16,1,0,10
Y2-S2-088K19,7,632,AS,exp,29,→,right,→,0.43242690013721585,True,15,1,0,10
Y2-S2-088K19,7,633,AS,exp,47,↓,left,←,0.3674660003744066,False,15,-1,1,11
Y2-S2-088K19,7,634,AS,exp,32,→,right,→,0.4898639000020921,True,16,-1,0,11
Y2-S2-088K19,7,635,AS,exp,41,←,left,←,0.5880343997851014,True,16,-1,0,11
Y2-S2-088K19,7,636,AS,exp,40,↑,up,↑,0.4497859999537468,True,16,1,1,12
Y2-S2-088K19,7,637,AS,exp,29,←,right,→,0.6872890000231564,False,15,-1,1,13
Y2-S2-088K19,7,638,AS,exp,27,↑,up,↑,0.4010991002433002,True,16,-1,0,13
Y2-S2-088K19,7,639,AS,exp,35,←,left,←,0.3676352999173105,True,16,-1,0,13
Y2-S2-088K19,7,640,AS,exp,26,↑,right,→,0.6514086001552641,False,16,-1,0,13
Y2-S2-088K19,7,641,AS,exp,43,←,left,←,0.4004123997874558,True,17,-1,0,13
Y2-S2-088K19,7,642,AS,exp,26,→,right,→,0.3839582996442914,True,17,-1,0,13
Y2-S2-088K19,7,643,AS,exp,48,↑,right,→,0.586039399728179,False,17,-1,0,13
Y2-S2-088K19,7,644,AS,exp,48,←,right,→,0.526770300231874,False,18,-1,0,13
Y2-S2-088K19,7,645,AS,exp,38,↑,right,→,0.5338828000240028,False,19,-1,0,13
Y2-S2-088K19,7,646,AS,exp,32,→,right,→,0.38375140028074384,True,20,-1,0,13
Y2-S2-088K19,7,647,AS,exp,44,↓,left,←,0.384247999638319,False,20,-1,0,13
Y2-S2-088K19,7,648,AS,exp,39,←,left,←,0.40059279976412654,True,21,-1,0,13
Y2-S2-088K19,7,649,AS,exp,48,↑,up,↑,0.6529159997589886,True,21,-1,0,13
Y2-S2-088K19,7,650,AS,exp,33,↓,down,↓,0.5567867001518607,True,21,1,1,14
Y2-S2-088K19,7,651,AS,exp,30,→,right,→,0.40044690016657114,True,20,1,0,14
Y2-S2-088K19,7,652,AS,exp,36,↑,up,↑,0.7035929001867771,True,20,1,0,14
Y2-S2-088K19,7,653,AS,exp,39,→,right,→,0.516567200422287,True,20,1,0,14
Y2-S2-088K19,7,654,AS,exp,28,↑,up,↑,0.7661035000346601,True,19,1,0,14
Y2-S2-088K19,7,655,AS,exp,30,←,left,←,0.7561720996163785,True,19,1,0,14
Y2-S2-088K19,7,656,AS,exp,28,↑,up,↑,0.5794504000805318,True,19,1,0,14
Y2-S2-088K19,7,657,AS,exp,48,←,left,←,1.1826488999649882,True,18,1,0,14
Y2-S2-088K19,7,658,AS,exp,27,↑,up,↑,0.736126400064677,True,18,1,0,14
Y2-S2-088K19,7,659,AS,exp,36,←,left,←,0.6271752002649009,True,18,1,0,14
Y2-S2-088K19,7,660,AS,exp,33,↓,down,↓,0.6520345001481473,True,17,1,0,14
Y2-S2-088K19,7,661,AS,exp,42,↑,up,↑,0.7692491998896003,True,17,1,0,14
Y2-S2-088K19,7,662,AS,exp,30,→,right,→,0.52572220005095,True,17,1,0,14
Y2-S2-088K19,7,663,AS,exp,44,←,left,←,0.44471359997987747,True,16,1,0,14
Y2-S2-088K19,7,664,AS,exp,43,↓,up,↑,0.7928873999044299,False,16,-1,1,15
Y2-S2-088K19,7,665,AS,exp,29,↑,up,↑,0.5766704003326595,True,17,-1,0,15
Y2-S2-088K19,7,666,AS,exp,31,↓,up,↑,0.7014706996269524,False,17,-1,0,15
Y2-S2-088K19,7,667,AS,exp,31,→,left,←,0.6970152999274433,False,18,-1,0,15
Y2-S2-088K19,7,668,AS,exp,30,←,left,←,0.5656059002503753,True,19,-1,0,15
Y2-S2-088K19,7,669,AS,exp,26,→,right,→,0.43362500006332994,True,19,-1,0,15
Y2-S2-088K19,7,670,AS,exp,25,↑,up,↑,0.5375202000141144,True,19,1,1,16
Y2-S2-088K19,8,671,PS,intra_train,38,→,right,→,0.859190400224179,True,18,-,-,-
Y2-S2-088K19,8,672,PS,intra_train,39,↑,up,↑,0.7272072001360357,True,18,-,-,-
Y2-S2-088K19,8,673,PS,intra_train,34,→,right,→,0.597314600367099,True,18,-,-,-
Y2-S2-088K19,8,674,PS,intra_train,40,↓,down,↓,0.6785047999583185,True,18,-,-,-
Y2-S2-088K19,8,675,PS,intra_train,37,→,right,→,0.46937530022114515,True,18,-,-,-
Y2-S2-088K19,8,676,PS,exp,42,←,left,←,0.4892762000672519,True,12,0,0,0
Y2-S2-088K19,8,677,PS,exp,38,→,right,→,0.5036604003980756,True,12,0,0,0
Y2-S2-088K19,8,678,PS,exp,31,↓,down,↓,0.7493125000037253,True,12,1,0,0
Y2-S2-088K19,8,679,PS,exp,34,↑,up,↑,0.6493438999168575,True,11,1,0,0
Y2-S2-088K19,8,680,PS,exp,38,←,right,→,0.5470126001164317,False,11,-1,1,1
Y2-S2-088K19,8,681,PS,exp,33,↓,down,↓,0.7507218001410365,True,12,-1,0,1
Y2-S2-088K19,8,682,PS,exp,37,←,left,←,0.7261430998332798,True,12,-1,0,1
Y2-S2-088K19,8,683,PS,exp,29,↓,down,↓,0.6317659001797438,True,12,1,1,2
Y2-S2-088K19,8,684,PS,exp,35,↑,up,↑,0.6932145999744534,True,11,1,0,2
Y2-S2-088K19,8,685,PS,exp,34,↓,down,↓,0.7134286998771131,True,11,1,0,2
Y2-S2-088K19,8,686,PS,exp,43,↑,up,↑,0.5893040997907519,True,11,1,0,2
Y2-S2-088K19,8,687,PS,exp,28,↓,down,↓,0.7071176003664732,True,10,1,0,2
Y2-S2-088K19,8,688,PS,exp,44,←,left,←,0.4585290998220444,True,10,1,0,2
Y2-S2-088K19,8,689,PS,exp,26,↓,down,↓,0.6829474000260234,True,10,1,0,2
Y2-S2-088K19,8,690,PS,exp,32,←,left,←,0.45936139998957515,True,9,1,0,2
Y2-S2-088K19,8,691,PS,exp,45,↑,left,←,0.7381949000991881,False,9,-1,1,3
Y2-S2-088K19,8,692,PS,exp,36,→,right,→,0.5509270001202822,True,10,-1,0,3
Y2-S2-088K19,8,693,PS,exp,31,←,left,←,0.4078512000851333,True,10,-1,0,3
Y2-S2-088K19,8,694,PS,exp,44,↑,up,↑,0.5981036997400224,True,10,1,1,4
Y2-S2-088K19,8,695,PS,exp,26,↓,left,←,0.6263560000807047,False,9,-1,1,5
Y2-S2-088K19,8,696,PS,exp,31,↑,up,↑,0.4792861002497375,True,10,-1,0,5
Y2-S2-088K19,8,697,PS,exp,49,←,left,←,0.4910357999615371,True,10,-1,0,5
Y2-S2-088K19,8,698,PS,exp,34,→,right,→,0.5179143999703228,True,10,1,1,6
Y2-S2-088K19,8,699,PS,exp,48,↓,down,↓,0.7663086000829935,True,9,1,0,6
Y2-S2-088K19,8,700,PS,exp,32,↑,up,↑,0.5278767999261618,True,9,1,0,6
Y2-S2-088K19,8,701,PS,exp,42,←,left,←,0.3537186002358794,True,9,1,0,6
Y2-S2-088K19,8,702,PS,exp,44,→,left,←,0.5898509998805821,False,8,-1,1,7
Y2-S2-088K19,8,703,PS,exp,31,←,left,←,0.3596709999255836,True,9,-1,0,7
Y2-S2-088K19,8,704,PS,exp,28,↓,down,↓,0.7974538998678327,True,9,-1,0,7
Y2-S2-088K19,8,705,PS,exp,31,→,right,→,0.49742820020765066,True,9,1,1,8
Y2-S2-088K19,8,706,PS,exp,44,↑,left,←,0.636621399782598,False,8,-1,1,9
Y2-S2-088K19,8,707,PS,exp,38,→,left,←,0.7275445000268519,False,9,-1,0,9
Y2-S2-088K19,8,708,PS,exp,38,↑,up,↑,0.5232696998864412,True,10,-1,0,9
Y2-S2-088K19,8,709,PS,exp,42,→,up,↑,0.683056200388819,False,10,-1,0,9
Y2-S2-088K19,8,710,PS,exp,32,↑,up,↑,0.43847630033269525,True,11,-1,0,9
Y2-S2-088K19,8,711,PS,exp,47,←,left,←,0.607536300085485,True,11,-1,0,9
Y2-S2-088K19,8,712,PS,exp,35,↑,up,↑,0.439674099907279,True,11,1,1,10
Y2-S2-088K19,8,713,PS,exp,40,→,right,→,0.6158300996758044,True,10,1,0,10
Y2-S2-088K19,8,714,PS,exp,29,↑,up,↑,0.4607023000717163,True,10,1,0,10
Y2-S2-088K19,8,715,PS,exp,38,←,left,←,0.48364639980718493,True,10,1,0,10
Y2-S2-088K19,8,716,PS,exp,35,→,right,→,0.37836610013619065,True,9,1,0,10
Y2-S2-088K19,8,717,PS,exp,32,↑,right,→,0.6458128998056054,False,9,-1,1,11
Y2-S2-088K19,8,718,PS,exp,31,→,right,→,0.4040481001138687,True,10,-1,0,11
Y2-S2-088K19,8,719,PS,exp,35,↑,left,←,0.5697735999710858,False,10,-1,0,11
Y2-S2-088K19,8,720,PS,exp,46,↓,down,↓,0.6222006999887526,True,11,-1,0,11
Y2-S2-088K19,8,721,PS,exp,43,→,right,→,0.42171730007976294,True,11,-1,0,11
Y2-S2-088K19,8,722,PS,exp,32,←,left,←,0.4431036002933979,True,11,1,1,12
Y2-S2-088K19,8,723,PS,exp,30,→,right,→,0.3553696000017226,True,10,1,0,12
Y2-S2-088K19,8,724,PS,exp,48,←,left,←,0.39970429986715317,True,10,1,0,12
Y2-S2-088K19,8,725,PS,exp,36,→,right,→,0.5063893999904394,True,10,1,0,12
Y2-S2-088K19,8,726,PS,exp,45,↑,up,↑,0.5865176999941468,True,9,1,0,12
Y2-S2-088K19,8,727,PS,exp,44,←,left,←,0.381432400085032,True,9,1,0,12
Y2-S2-088K19,8,728,PS,exp,36,→,right,→,0.8718325002118945,True,9,1,0,12
Y2-S2-088K19,8,729,PS,exp,39,←,left,←,0.37048699986189604,True,8,1,0,12
Y2-S2-088K19,8,730,PS,exp,49,↑,up,↑,0.46572270011529326,True,8,1,0,12
Y2-S2-088K19,8,731,PS,exp,32,←,left,←,0.5280153998173773,True,8,1,0,12
Y2-S2-088K19,8,732,PS,exp,49,→,right,→,0.4198322999291122,True,7,1,0,12
Y2-S2-088K19,8,733,PS,exp,35,↑,right,→,0.5358159001916647,False,7,-1,1,13
Y2-S2-088K19,8,734,PS,exp,36,→,right,→,0.35501240007579327,True,8,-1,0,13
Y2-S2-088K19,8,735,PS,exp,32,↑,left,←,0.8115389999002218,False,8,-1,0,13
Y2-S2-088K19,8,736,PS,exp,39,↓,down,↓,0.6442321999929845,True,9,-1,0,13
Y2-S2-088K19,8,737,PS,exp,26,→,right,→,0.5286636999808252,True,9,-1,0,13
Y2-S2-088K19,8,738,PS,exp,35,↓,down,↓,0.4557433002628386,True,9,1,1,14
Y2-S2-088K19,8,739,PS,exp,29,←,left,←,0.48049379978328943,True,8,1,0,14
Y2-S2-088K19,8,740,PS,exp,30,↑,up,↑,0.55769980000332,True,8,1,0,14
Y2-S2-088K19,8,741,PS,exp,30,←,left,←,0.426632400136441,True,8,1,0,14
Y2-S2-088K19,8,742,PS,exp,46,↑,left,←,0.6263659000396729,False,7,-1,1,15
Y2-S2-088K19,8,743,PS,exp,50,←,left,←,0.40224540000781417,True,8,-1,0,15
Y2-S2-088K19,8,744,PS,exp,33,↓,down,↓,0.5967929996550083,True,8,-1,0,15
Y2-S2-088K19,8,745,PS,exp,32,→,left,←,0.6241194000467658,False,8,-1,0,15
Y2-S2-088K19,8,746,PS,exp,47,↑,up,↑,0.525373799726367,True,9,-1,0,15
Y2-S2-088K19,8,747,PS,exp,36,↓,left,←,0.3808020004071295,False,9,-1,0,15
Y2-S2-088K19,8,748,PS,exp,32,←,right,→,0.7283223001286387,False,10,-1,0,15
Y2-S2-088K19,8,749,PS,exp,37,↑,right,→,0.6725570000708103,False,11,-1,0,15
Y2-S2-088K19,8,750,PS,exp,50,←,left,←,0.3802378000691533,True,12,-1,0,15
Y2-S2-088K19,8,751,PS,exp,48,↑,right,→,0.3003434999845922,False,12,-1,0,15
Y2-S2-088K19,8,752,PS,exp,32,→,right,→,0.4898494998924434,True,13,-1,0,15
Y2-S2-088K19,8,753,PS,exp,49,←,left,←,0.5327214999124408,True,13,-1,0,15
Y2-S2-088K19,8,754,PS,exp,30,↑,up,↑,0.44225409999489784,True,13,1,1,16
