PART_ID,Block_no,Trial_no,Block_type,Trial_type,CSI,Stim_letter,Key_pressed,letter_choose,Rt,Corr,Stimulus Time,Level,Reversal,Revs_count
Y2-S2-254K21,1,1,PS,train,34,↑,down,↓,1.7195849001873285,False,30,-,-,-
Y2-S2-254K21,1,2,PS,train,29,→,right,→,0.7196737001650035,True,30,-,-,-
Y2-S2-254K21,1,3,PS,train,25,↓,down,↓,0.8753275000490248,True,30,-,-,-
Y2-S2-254K21,1,4,PS,train,39,↑,up,↑,1.0919985000509769,True,30,-,-,-
Y2-S2-254K21,1,5,PS,train,29,→,right,→,0.5507377001922578,True,30,-,-,-
Y2-S2-254K21,1,6,PS,train,39,↑,up,↑,0.6173451000358909,True,30,-,-,-
Y2-S2-254K21,1,7,PS,train,43,↓,down,↓,0.4508406000677496,True,30,-,-,-
Y2-S2-254K21,1,8,PS,train,40,←,left,←,0.5339879998937249,True,30,-,-,-
Y2-S2-254K21,1,9,PS,train,33,↑,up,↑,0.8827085001394153,True,30,-,-,-
Y2-S2-254K21,1,10,PS,train,43,←,right,→,0.41762399999424815,False,30,-,-,-
Y2-S2-254K21,2,11,AS,train,25,→,right,→,0.667865099851042,True,45,-,-,-
Y2-S2-254K21,2,12,AS,train,41,↓,down,↓,0.717762399930507,True,45,-,-,-
Y2-S2-254K21,2,13,AS,train,41,→,right,→,0.551040600053966,True,45,-,-,-
Y2-S2-254K21,2,14,AS,train,30,↑,up,↑,0.8508513998240232,True,45,-,-,-
Y2-S2-254K21,2,15,AS,train,39,↓,down,↓,0.833737000124529,True,45,-,-,-
Y2-S2-254K21,2,16,AS,train,32,→,right,→,0.5513210000935942,True,45,-,-,-
Y2-S2-254K21,2,17,AS,train,27,↑,up,↑,0.5342888000886887,True,45,-,-,-
Y2-S2-254K21,2,18,AS,train,36,←,left,←,0.4676000999752432,True,45,-,-,-
Y2-S2-254K21,2,19,AS,train,43,↑,up,↑,0.6841574001591653,True,45,-,-,-
Y2-S2-254K21,2,20,AS,train,47,↓,down,↓,0.717879300005734,True,45,-,-,-
Y2-S2-254K21,-,21,PS,adaptive,36,↑,up,↑,0.7397163000423461,True,10,0,0,0
Y2-S2-254K21,-,22,PS,adaptive,40,←,left,←,0.5471296000760049,True,10,0,0,0
Y2-S2-254K21,-,23,PS,adaptive,47,↓,down,↓,0.5010651999618858,True,10,1,0,0
Y2-S2-254K21,-,24,PS,adaptive,30,→,right,→,0.7890651999041438,True,9,1,0,0
Y2-S2-254K21,-,25,PS,adaptive,27,↓,right,→,0.6671630998607725,False,9,-1,1,1
Y2-S2-254K21,-,26,PS,adaptive,46,↑,up,↑,0.6844204999506474,True,10,-1,0,1
Y2-S2-254K21,-,27,PS,adaptive,43,→,right,→,0.7046151999384165,True,10,-1,0,1
Y2-S2-254K21,-,28,PS,adaptive,41,↑,up,↑,0.7047733999788761,True,10,1,1,2
Y2-S2-254K21,-,29,PS,adaptive,30,→,right,→,0.5153098998125643,True,9,1,0,2
Y2-S2-254K21,-,30,PS,adaptive,40,↓,right,→,0.819543199846521,False,9,-1,1,3
Y2-S2-254K21,-,31,PS,adaptive,25,→,right,→,0.51153580006212,True,10,-1,0,3
Y2-S2-254K21,-,32,PS,adaptive,43,↓,up,↑,0.8376327999867499,False,10,-1,0,3
Y2-S2-254K21,-,33,PS,adaptive,28,←,left,←,0.5070654998999089,True,11,-1,0,3
Y2-S2-254K21,-,34,PS,adaptive,29,→,right,→,0.4686723998747766,True,11,-1,0,3
Y2-S2-254K21,-,35,PS,adaptive,34,←,down,↓,0.7610253999009728,False,11,-1,0,3
Y2-S2-254K21,-,36,PS,adaptive,49,↓,up,↑,0.7702570999972522,False,12,-1,0,3
Y2-S2-254K21,-,37,PS,adaptive,43,↑,up,↑,0.7810427001677454,True,13,-1,0,3
Y2-S2-254K21,-,38,PS,adaptive,25,←,left,←,0.47750920010730624,True,13,-1,0,3
Y2-S2-254K21,-,39,PS,adaptive,48,↓,down,↓,0.5354599999263883,True,13,1,1,4
Y2-S2-254K21,-,40,AS,adaptive,32,↑,down,↓,0.5260322999674827,False,20,-1,0,0
Y2-S2-254K21,-,41,AS,adaptive,40,↓,down,↓,0.7567022000439465,True,21,-1,0,0
Y2-S2-254K21,-,42,AS,adaptive,37,→,right,→,0.5390051000285894,True,21,-1,0,0
Y2-S2-254K21,-,43,AS,adaptive,30,↓,down,↓,0.8232154999859631,True,21,1,1,1
Y2-S2-254K21,-,44,AS,adaptive,34,←,left,←,0.4180099000222981,True,20,1,0,1
Y2-S2-254K21,-,45,AS,adaptive,48,→,right,→,0.6121110999956727,True,20,1,0,1
Y2-S2-254K21,-,46,AS,adaptive,37,←,left,←,0.5551293999888003,True,20,1,0,1
Y2-S2-254K21,-,47,AS,adaptive,50,↓,down,↓,0.4936164999380708,True,19,1,0,1
Y2-S2-254K21,-,48,AS,adaptive,35,→,right,→,0.4342400999739766,True,19,1,0,1
Y2-S2-254K21,-,49,AS,adaptive,50,↑,up,↑,0.6774613000452518,True,19,1,0,1
Y2-S2-254K21,-,50,AS,adaptive,48,→,right,→,1.1090481001883745,True,18,1,0,1
Y2-S2-254K21,-,51,AS,adaptive,40,↑,up,↑,0.548572399886325,True,18,1,0,1
Y2-S2-254K21,-,52,AS,adaptive,34,↓,down,↓,0.7544561000540853,True,18,1,0,1
Y2-S2-254K21,-,53,AS,adaptive,47,↑,down,↓,0.8055445998907089,False,17,-1,1,2
Y2-S2-254K21,-,54,AS,adaptive,25,→,right,→,0.4823207000736147,True,18,-1,0,2
Y2-S2-254K21,-,55,AS,adaptive,47,↑,up,↑,0.9634779000189155,True,18,-1,0,2
Y2-S2-254K21,-,56,AS,adaptive,46,↓,down,↓,0.6737936998251826,True,18,1,1,3
Y2-S2-254K21,-,57,AS,adaptive,35,→,right,→,0.7106278999708593,True,17,1,0,3
Y2-S2-254K21,-,58,AS,adaptive,47,↑,down,↓,0.6947596999816597,False,17,-1,1,4
Y2-S2-254K21,1,59,PS,intra_train,38,↓,down,↓,0.9772365000098944,True,18,-,-,-
Y2-S2-254K21,1,60,PS,intra_train,50,↑,up,↑,0.5188577999360859,True,18,-,-,-
Y2-S2-254K21,1,61,PS,intra_train,39,→,right,→,0.4809520000126213,True,18,-,-,-
Y2-S2-254K21,1,62,PS,intra_train,46,↓,down,↓,0.5205184000078589,True,18,-,-,-
Y2-S2-254K21,1,63,PS,intra_train,45,↑,up,↑,0.6919633999932557,True,18,-,-,-
Y2-S2-254K21,1,64,PS,exp,29,→,right,→,0.5605928001459688,True,12,0,0,0
Y2-S2-254K21,1,65,PS,exp,40,←,right,→,0.4038947999943048,False,12,-1,0,0
Y2-S2-254K21,1,66,PS,exp,34,→,right,→,0.4686540998518467,True,13,-1,0,0
Y2-S2-254K21,1,67,PS,exp,45,↑,left,←,0.18434639996849,False,13,-1,0,0
Y2-S2-254K21,1,68,PS,exp,46,→,down,↓,0.9174378998577595,False,14,-1,0,0
Y2-S2-254K21,1,69,PS,exp,38,↑,right,→,0.45818950003013015,False,15,-1,0,0
Y2-S2-254K21,1,70,PS,exp,45,↓,right,→,0.3837565998546779,False,16,-1,0,0
Y2-S2-254K21,1,71,PS,exp,26,→,right,→,0.333911000052467,True,17,-1,0,0
Y2-S2-254K21,1,72,PS,exp,30,←,left,←,0.4764358999673277,True,17,-1,0,0
Y2-S2-254K21,1,73,PS,exp,40,↑,up,↑,0.8911329999100417,True,17,1,1,1
Y2-S2-254K21,1,74,PS,exp,31,↓,down,↓,0.606573399854824,True,16,1,0,1
Y2-S2-254K21,1,75,PS,exp,49,↑,up,↑,0.5897294001188129,True,16,1,0,1
Y2-S2-254K21,1,76,PS,exp,50,←,down,↓,1.0770231001079082,False,16,-1,1,2
Y2-S2-254K21,1,77,PS,exp,32,↑,up,↑,0.6269511999562383,True,17,-1,0,2
Y2-S2-254K21,1,78,PS,exp,38,←,left,←,0.468776399968192,True,17,-1,0,2
Y2-S2-254K21,1,79,PS,exp,45,↑,up,↑,0.417162099853158,True,17,1,1,3
Y2-S2-254K21,1,80,PS,exp,30,↓,down,↓,0.7099628001451492,True,16,1,0,3
Y2-S2-254K21,1,81,PS,exp,28,↑,up,↑,0.5669883000664413,True,16,1,0,3
Y2-S2-254K21,1,82,PS,exp,47,↓,down,↓,0.5568768000230193,True,16,1,0,3
Y2-S2-254K21,1,83,PS,exp,40,→,right,→,0.514469699934125,True,15,1,0,3
Y2-S2-254K21,1,84,PS,exp,37,↓,down,↓,0.45134130003862083,True,15,1,0,3
Y2-S2-254K21,1,85,PS,exp,30,←,left,←,0.4291628000792116,True,15,1,0,3
Y2-S2-254K21,1,86,PS,exp,39,→,right,→,1.089014400029555,True,14,1,0,3
Y2-S2-254K21,1,87,PS,exp,48,↓,right,→,0.9057488001417369,False,14,-1,1,4
Y2-S2-254K21,1,88,PS,exp,34,↑,up,↑,0.505842600017786,True,15,-1,0,4
Y2-S2-254K21,1,89,PS,exp,35,←,left,←,0.4612395002041012,True,15,-1,0,4
Y2-S2-254K21,1,90,PS,exp,43,↑,up,↑,0.9346207000780851,True,15,1,1,5
Y2-S2-254K21,1,91,PS,exp,45,↓,down,↓,0.4146125998813659,True,14,1,0,5
Y2-S2-254K21,1,92,PS,exp,29,←,left,←,0.35040009999647737,True,14,1,0,5
Y2-S2-254K21,1,93,PS,exp,50,→,down,↓,0.8104674001224339,False,14,-1,1,6
Y2-S2-254K21,1,94,PS,exp,35,↑,up,↑,0.5589878999162465,True,15,-1,0,6
Y2-S2-254K21,1,95,PS,exp,50,→,right,→,0.38404529984109104,True,15,-1,0,6
Y2-S2-254K21,1,96,PS,exp,26,↑,up,↑,0.8031864000950009,True,15,1,1,7
Y2-S2-254K21,1,97,PS,exp,50,↓,down,↓,0.4962340001948178,True,14,1,0,7
Y2-S2-254K21,1,98,PS,exp,41,↑,down,↓,0.7438518998678774,False,14,-1,1,8
Y2-S2-254K21,1,99,PS,exp,42,←,left,←,0.8752712998539209,True,15,-1,0,8
Y2-S2-254K21,1,100,PS,exp,27,→,right,→,0.3838534001260996,True,15,-1,0,8
Y2-S2-254K21,1,101,PS,exp,33,↓,up,↑,0.7019561999477446,False,15,-1,0,8
Y2-S2-254K21,1,102,PS,exp,27,→,right,→,0.400419200072065,True,16,-1,0,8
Y2-S2-254K21,1,103,PS,exp,37,←,left,←,0.5005602000746876,True,16,-1,0,8
Y2-S2-254K21,1,104,PS,exp,27,→,right,→,0.6546153998933733,True,16,1,1,9
Y2-S2-254K21,1,105,PS,exp,48,↑,up,↑,0.5003554001450539,True,15,1,0,9
Y2-S2-254K21,1,106,PS,exp,36,→,up,↑,0.8641496000345796,False,15,-1,1,10
Y2-S2-254K21,1,107,PS,exp,38,↓,down,↓,0.6128489999100566,True,16,-1,0,10
Y2-S2-254K21,1,108,PS,exp,35,→,right,→,0.4771265999879688,True,16,-1,0,10
Y2-S2-254K21,1,109,PS,exp,25,↓,down,↓,0.6276394000742584,True,16,1,1,11
Y2-S2-254K21,1,110,PS,exp,39,→,right,→,0.5958893999923021,True,15,1,0,11
Y2-S2-254K21,1,111,PS,exp,28,↑,up,↑,0.5337603001389652,True,15,1,0,11
Y2-S2-254K21,1,112,PS,exp,41,←,left,←,0.4303056001663208,True,15,1,0,11
Y2-S2-254K21,1,113,PS,exp,49,→,right,→,0.4137004998046905,True,14,1,0,11
Y2-S2-254K21,1,114,PS,exp,39,↓,down,↓,0.43228710000403225,True,14,1,0,11
Y2-S2-254K21,1,115,PS,exp,36,←,left,←,0.4680546000599861,True,14,1,0,11
Y2-S2-254K21,1,116,PS,exp,40,↑,up,↑,0.5399875999428332,True,13,1,0,11
Y2-S2-254K21,1,117,PS,exp,41,↓,down,↓,0.41519790003076196,True,13,1,0,11
Y2-S2-254K21,1,118,PS,exp,35,→,right,→,0.6261395998299122,True,13,1,0,11
Y2-S2-254K21,1,119,PS,exp,31,↑,up,↑,0.5565570001490414,True,12,1,0,11
Y2-S2-254K21,1,120,PS,exp,26,↓,down,↓,0.40926430001854897,True,12,1,0,11
Y2-S2-254K21,1,121,PS,exp,45,←,right,→,0.7927941000089049,False,12,-1,1,12
Y2-S2-254K21,1,122,PS,exp,50,↓,down,↓,0.4794559001456946,True,13,-1,0,12
Y2-S2-254K21,1,123,PS,exp,49,←,down,↓,0.8095845999196172,False,13,-1,0,12
Y2-S2-254K21,1,124,PS,exp,35,↑,up,↑,0.6296661000233144,True,14,-1,0,12
Y2-S2-254K21,1,125,PS,exp,49,→,right,→,0.6131182999815792,True,14,-1,0,12
Y2-S2-254K21,1,126,PS,exp,47,←,left,←,0.4499602001160383,True,14,1,1,13
Y2-S2-254K21,1,127,PS,exp,37,↑,right,→,0.8185586000327021,False,13,-1,1,14
Y2-S2-254K21,1,128,PS,exp,41,→,right,→,0.647354100132361,True,14,-1,0,14
Y2-S2-254K21,1,129,PS,exp,50,↑,up,↑,0.516184699954465,True,14,-1,0,14
Y2-S2-254K21,1,130,PS,exp,38,→,down,↓,0.7619052999652922,False,14,-1,0,14
Y2-S2-254K21,1,131,PS,exp,36,↑,up,↑,0.6536773999687284,True,15,-1,0,14
Y2-S2-254K21,1,132,PS,exp,37,→,right,→,0.4480483999941498,True,15,-1,0,14
Y2-S2-254K21,1,133,PS,exp,31,↓,right,→,0.3175073000602424,False,15,-1,0,14
Y2-S2-254K21,1,134,PS,exp,26,←,left,←,0.28379599982872605,True,16,-1,0,14
Y2-S2-254K21,1,135,PS,exp,40,↑,down,↓,0.4004826999735087,False,16,-1,0,14
Y2-S2-254K21,1,136,PS,exp,32,←,up,↑,0.36715540010482073,False,17,-1,0,14
Y2-S2-254K21,1,137,PS,exp,32,→,right,→,0.2511243000626564,True,18,-1,0,14
Y2-S2-254K21,1,138,PS,exp,35,←,left,←,0.2679043998941779,True,18,-1,0,14
Y2-S2-254K21,1,139,PS,exp,33,↓,left,←,0.23463560012169182,False,18,-1,0,14
Y2-S2-254K21,1,140,PS,exp,37,↑,up,↑,0.5701993000693619,True,19,-1,0,14
Y2-S2-254K21,1,141,PS,exp,40,←,up,↑,0.23438389995135367,False,19,-1,0,14
Y2-S2-254K21,1,142,PS,exp,30,→,right,→,0.5156136001460254,True,20,-1,0,14
Y2-S2-254K21,1,143,PS,exp,42,↑,right,→,0.40080370008945465,False,20,-1,0,14
Y2-S2-254K21,1,144,PS,exp,42,↓,down,↓,0.11801419989205897,True,21,-1,0,14
Y2-S2-254K21,1,145,PS,exp,31,↑,up,↑,0.5571326999925077,True,21,-1,0,14
Y2-S2-254K21,1,146,PS,exp,26,↓,down,↓,0.4673454000148922,True,21,1,1,15
Y2-S2-254K21,1,147,PS,exp,49,↑,up,↑,0.565061500063166,True,20,1,0,15
Y2-S2-254K21,1,148,PS,exp,39,↓,down,↓,0.4173039998859167,True,20,1,0,15
Y2-S2-254K21,1,149,PS,exp,45,↑,right,→,0.5313538000918925,False,20,-1,1,16
Y2-S2-254K21,2,150,AS,intra_train,49,→,right,→,0.48380389995872974,True,27,-,-,-
Y2-S2-254K21,2,151,AS,intra_train,42,↓,down,↓,0.619114900007844,True,27,-,-,-
Y2-S2-254K21,2,152,AS,intra_train,40,→,right,→,0.5836833999492228,True,27,-,-,-
Y2-S2-254K21,2,153,AS,intra_train,32,↓,down,↓,0.5006146000232548,True,27,-,-,-
Y2-S2-254K21,2,154,AS,intra_train,44,→,right,→,0.7230577999725938,True,27,-,-,-
Y2-S2-254K21,2,155,AS,exp,37,↓,down,↓,0.41712699993513525,True,18,0,0,0
Y2-S2-254K21,2,156,AS,exp,34,↑,down,↓,0.4930969001725316,False,18,-1,0,0
Y2-S2-254K21,2,157,AS,exp,35,↓,down,↓,0.43460809998214245,True,19,-1,0,0
Y2-S2-254K21,2,158,AS,exp,28,←,left,←,0.689641899894923,True,19,-1,0,0
Y2-S2-254K21,2,159,AS,exp,47,↑,up,↑,0.5076613000128418,True,19,1,1,1
Y2-S2-254K21,2,160,AS,exp,42,→,right,→,0.9543465999886394,True,18,1,0,1
Y2-S2-254K21,2,161,AS,exp,41,←,down,↓,0.7526700999587774,False,18,-1,1,2
Y2-S2-254K21,2,162,AS,exp,29,→,no_key,no_letter,-1.0,False,19,-1,0,2
Y2-S2-254K21,2,163,AS,exp,43,↓,no_key,no_letter,-1.0,False,20,-1,0,2
Y2-S2-254K21,2,164,AS,exp,31,↑,down,↓,0.8459800002165139,False,21,-1,0,2
Y2-S2-254K21,2,165,AS,exp,34,←,left,←,1.036122899968177,True,22,-1,0,2
Y2-S2-254K21,2,166,AS,exp,37,→,right,→,0.6299874000251293,True,22,-1,0,2
Y2-S2-254K21,2,167,AS,exp,27,←,right,→,0.4504517000168562,False,22,-1,0,2
Y2-S2-254K21,2,168,AS,exp,31,↑,up,↑,0.5008991998620331,True,23,-1,0,2
Y2-S2-254K21,2,169,AS,exp,25,→,right,→,0.669660700019449,True,23,-1,0,2
Y2-S2-254K21,2,170,AS,exp,27,↑,up,↑,0.7653437000699341,True,23,1,1,3
Y2-S2-254K21,2,171,AS,exp,47,←,left,←,0.6223693999927491,True,22,1,0,3
Y2-S2-254K21,2,172,AS,exp,40,→,right,→,0.5434215001296252,True,22,1,0,3
Y2-S2-254K21,2,173,AS,exp,42,↑,up,↑,0.8028959000948817,True,22,1,0,3
Y2-S2-254K21,2,174,AS,exp,50,←,left,←,0.7868751001078635,True,21,1,0,3
Y2-S2-254K21,2,175,AS,exp,40,↑,left,←,0.8025795000139624,False,21,-1,1,4
Y2-S2-254K21,2,176,AS,exp,30,↓,down,↓,0.7211250001564622,True,22,-1,0,4
Y2-S2-254K21,2,177,AS,exp,27,→,right,→,0.5841890999581665,True,22,-1,0,4
Y2-S2-254K21,2,178,AS,exp,37,←,left,←,0.46690230001695454,True,22,1,1,5
Y2-S2-254K21,2,179,AS,exp,30,→,right,→,0.45094799995422363,True,21,1,0,5
Y2-S2-254K21,2,180,AS,exp,43,↑,up,↑,0.852095999987796,True,21,1,0,5
Y2-S2-254K21,2,181,AS,exp,25,←,left,←,0.38414309988729656,True,21,1,0,5
Y2-S2-254K21,2,182,AS,exp,46,↑,up,↑,0.7092942001763731,True,20,1,0,5
Y2-S2-254K21,2,183,AS,exp,45,→,right,→,0.41754429996944964,True,20,1,0,5
Y2-S2-254K21,2,184,AS,exp,47,←,left,←,0.4171423001680523,True,20,1,0,5
Y2-S2-254K21,2,185,AS,exp,45,↑,right,→,0.5608978001400828,False,19,-1,1,6
Y2-S2-254K21,2,186,AS,exp,27,↓,down,↓,1.2872825998347253,True,20,-1,0,6
Y2-S2-254K21,2,187,AS,exp,49,←,left,←,0.5014671999961138,True,20,-1,0,6
Y2-S2-254K21,2,188,AS,exp,48,↑,right,→,0.33392390003427863,False,20,-1,0,6
Y2-S2-254K21,2,189,AS,exp,40,←,left,←,0.4504082999192178,True,21,-1,0,6
Y2-S2-254K21,2,190,AS,exp,48,→,right,→,0.5617565999273211,True,21,-1,0,6
Y2-S2-254K21,2,191,AS,exp,46,↓,down,↓,1.1141949000302702,True,21,1,1,7
Y2-S2-254K21,2,192,AS,exp,33,↑,up,↑,0.7669134000316262,True,20,1,0,7
Y2-S2-254K21,2,193,AS,exp,41,←,left,←,0.4674034998752177,True,20,1,0,7
Y2-S2-254K21,2,194,AS,exp,43,↓,down,↓,0.735290499869734,True,20,1,0,7
Y2-S2-254K21,2,195,AS,exp,36,→,right,→,0.6000859001651406,True,19,1,0,7
Y2-S2-254K21,2,196,AS,exp,36,↓,down,↓,0.6958079000469297,True,19,1,0,7
Y2-S2-254K21,2,197,AS,exp,48,↑,down,↓,0.5926695000380278,False,19,-1,1,8
Y2-S2-254K21,2,198,AS,exp,36,↓,down,↓,1.1264370998833328,True,20,-1,0,8
Y2-S2-254K21,2,199,AS,exp,30,→,left,←,0.6888268999755383,False,20,-1,0,8
Y2-S2-254K21,2,200,AS,exp,49,←,left,←,0.48392889997921884,True,21,-1,0,8
Y2-S2-254K21,2,201,AS,exp,49,↑,up,↑,0.4839035999029875,True,21,-1,0,8
Y2-S2-254K21,2,202,AS,exp,48,→,right,→,0.4005046000238508,True,21,1,1,9
Y2-S2-254K21,2,203,AS,exp,36,↓,down,↓,0.5079324999824166,True,20,1,0,9
Y2-S2-254K21,2,204,AS,exp,27,↑,up,↑,0.5825131998863071,True,20,1,0,9
Y2-S2-254K21,2,205,AS,exp,38,→,right,→,0.3836762998253107,True,20,1,0,9
Y2-S2-254K21,2,206,AS,exp,36,←,left,←,0.4338374000508338,True,19,1,0,9
Y2-S2-254K21,2,207,AS,exp,49,→,right,→,0.4341154999565333,True,19,1,0,9
Y2-S2-254K21,2,208,AS,exp,35,↑,up,↑,0.875494500156492,True,19,1,0,9
Y2-S2-254K21,2,209,AS,exp,43,←,left,←,0.6343008999247104,True,18,1,0,9
Y2-S2-254K21,2,210,AS,exp,38,→,right,→,0.4005170001182705,True,18,1,0,9
Y2-S2-254K21,2,211,AS,exp,47,↑,up,↑,0.48162940004840493,True,18,1,0,9
Y2-S2-254K21,2,212,AS,exp,29,→,left,←,0.5837018999736756,False,17,-1,1,10
Y2-S2-254K21,2,213,AS,exp,46,↑,up,↑,0.7834627998527139,True,18,-1,0,10
Y2-S2-254K21,2,214,AS,exp,47,→,right,→,0.6052405000664294,True,18,-1,0,10
Y2-S2-254K21,2,215,AS,exp,44,←,left,←,0.40078609995543957,True,18,1,1,11
Y2-S2-254K21,2,216,AS,exp,29,→,left,←,0.5448092999868095,False,17,-1,1,12
Y2-S2-254K21,2,217,AS,exp,27,↓,left,←,0.7275811000727117,False,18,-1,0,12
Y2-S2-254K21,2,218,AS,exp,33,→,right,→,0.818116599926725,True,19,-1,0,12
Y2-S2-254K21,2,219,AS,exp,50,↓,down,↓,0.5294939000159502,True,19,-1,0,12
Y2-S2-254K21,2,220,AS,exp,27,→,right,→,0.5322037001606077,True,19,1,1,13
Y2-S2-254K21,2,221,AS,exp,28,↑,up,↑,0.7137653999961913,True,18,1,0,13
Y2-S2-254K21,2,222,AS,exp,49,←,left,←,1.119183300063014,True,18,1,0,13
Y2-S2-254K21,2,223,AS,exp,26,↓,down,↓,0.6946910999249667,True,18,1,0,13
Y2-S2-254K21,2,224,AS,exp,36,→,right,→,0.4976936001330614,True,17,1,0,13
Y2-S2-254K21,2,225,AS,exp,48,←,left,←,0.38428959995508194,True,17,1,0,13
Y2-S2-254K21,2,226,AS,exp,46,↓,up,↑,1.085231900215149,False,17,-1,1,14
Y2-S2-254K21,2,227,AS,exp,41,↑,down,↓,0.6154896998777986,False,18,-1,0,14
Y2-S2-254K21,2,228,AS,exp,34,↓,down,↓,0.8673120001330972,True,19,-1,0,14
Y2-S2-254K21,2,229,AS,exp,43,←,left,←,0.49453400005586445,True,19,-1,0,14
Y2-S2-254K21,2,230,AS,exp,47,→,right,→,0.41731279995292425,True,19,1,1,15
Y2-S2-254K21,2,231,AS,exp,28,↓,down,↓,0.9229096998460591,True,18,1,0,15
Y2-S2-254K21,2,232,AS,exp,34,↑,up,↑,0.8210668000392616,True,18,1,0,15
Y2-S2-254K21,2,233,AS,exp,33,←,left,←,0.3841164999175817,True,18,1,0,15
Y2-S2-254K21,2,234,AS,exp,49,→,down,↓,0.7427729000337422,False,17,-1,1,16
Y2-S2-254K21,3,235,AS,intra_train,36,↓,down,↓,0.7170432999264449,True,27,-,-,-
Y2-S2-254K21,3,236,AS,intra_train,48,↑,up,↑,1.1176939001306891,True,27,-,-,-
Y2-S2-254K21,3,237,AS,intra_train,50,←,left,←,0.48394110007211566,True,27,-,-,-
Y2-S2-254K21,3,238,AS,intra_train,50,→,right,→,0.6941804999951273,True,27,-,-,-
Y2-S2-254K21,3,239,AS,intra_train,49,↑,up,↑,0.7580870999954641,True,27,-,-,-
Y2-S2-254K21,3,240,AS,exp,40,↓,down,↓,1.10411600000225,True,18,0,0,0
Y2-S2-254K21,3,241,AS,exp,32,←,left,←,0.5419537001289427,True,18,0,0,0
Y2-S2-254K21,3,242,AS,exp,41,↑,up,↑,0.6527434000745416,True,18,1,0,0
Y2-S2-254K21,3,243,AS,exp,45,→,right,→,0.683914499823004,True,17,1,0,0
Y2-S2-254K21,3,244,AS,exp,48,↑,up,↑,0.9616820998489857,True,17,1,0,0
Y2-S2-254K21,3,245,AS,exp,27,→,right,→,0.6854095000308007,True,17,1,0,0
Y2-S2-254K21,3,246,AS,exp,49,←,left,←,0.4698334999848157,True,16,1,0,0
Y2-S2-254K21,3,247,AS,exp,41,→,right,→,0.8424058998934925,True,16,1,0,0
Y2-S2-254K21,3,248,AS,exp,25,←,left,←,0.46571190003305674,True,16,1,0,0
Y2-S2-254K21,3,249,AS,exp,32,→,right,→,0.5518984999507666,True,15,1,0,0
Y2-S2-254K21,3,250,AS,exp,31,↑,up,↑,0.49893750017508864,True,15,1,0,0
Y2-S2-254K21,3,251,AS,exp,43,←,right,→,0.6321925001684576,False,15,-1,1,1
Y2-S2-254K21,3,252,AS,exp,29,↓,down,↓,0.49916870007291436,True,16,-1,0,1
Y2-S2-254K21,3,253,AS,exp,42,→,right,→,0.6292960001155734,True,16,-1,0,1
Y2-S2-254K21,3,254,AS,exp,33,↓,down,↓,0.5684017001185566,True,16,1,1,2
Y2-S2-254K21,3,255,AS,exp,49,←,left,←,0.5620052998419851,True,15,1,0,2
Y2-S2-254K21,3,256,AS,exp,33,→,right,→,0.7782976999878883,True,15,1,0,2
Y2-S2-254K21,3,257,AS,exp,46,↑,left,←,0.6612666000146419,False,15,-1,1,3
Y2-S2-254K21,3,258,AS,exp,49,↓,down,↓,0.7157172998413444,True,16,-1,0,3
Y2-S2-254K21,3,259,AS,exp,35,←,left,←,1.3972817999310791,True,16,-1,0,3
Y2-S2-254K21,3,260,AS,exp,30,→,right,→,0.7108153998851776,True,16,1,1,4
Y2-S2-254K21,3,261,AS,exp,35,↓,down,↓,1.081942900083959,True,15,1,0,4
Y2-S2-254K21,3,262,AS,exp,46,↑,up,↑,0.6809107000008225,True,15,1,0,4
Y2-S2-254K21,3,263,AS,exp,33,↓,down,↓,0.6839211001060903,True,15,1,0,4
Y2-S2-254K21,3,264,AS,exp,49,↑,down,↓,0.6618959000334144,False,14,-1,1,5
Y2-S2-254K21,3,265,AS,exp,34,←,right,→,0.5969103001989424,False,15,-1,0,5
Y2-S2-254K21,3,266,AS,exp,44,↓,down,↓,0.5104592000134289,True,16,-1,0,5
Y2-S2-254K21,3,267,AS,exp,49,→,right,→,0.3838522001169622,True,16,-1,0,5
Y2-S2-254K21,3,268,AS,exp,33,←,left,←,0.43578059994615614,True,16,1,1,6
Y2-S2-254K21,3,269,AS,exp,31,↑,up,↑,0.6216021000873297,True,15,1,0,6
Y2-S2-254K21,3,270,AS,exp,38,←,left,←,0.46220150007866323,True,15,1,0,6
Y2-S2-254K21,3,271,AS,exp,49,↓,right,→,0.6421812998596579,False,15,-1,1,7
Y2-S2-254K21,3,272,AS,exp,46,←,left,←,0.7043800000101328,True,16,-1,0,7
Y2-S2-254K21,3,273,AS,exp,33,→,right,→,0.735303700203076,True,16,-1,0,7
Y2-S2-254K21,3,274,AS,exp,31,←,left,←,0.8625648999586701,True,16,1,1,8
Y2-S2-254K21,3,275,AS,exp,25,↑,right,→,0.7443504999391735,False,15,-1,1,9
Y2-S2-254K21,3,276,AS,exp,44,→,right,→,0.35084669990465045,True,16,-1,0,9
Y2-S2-254K21,3,277,AS,exp,36,↓,left,←,0.6826770999468863,False,16,-1,0,9
Y2-S2-254K21,3,278,AS,exp,26,←,left,←,0.6001923000440001,True,17,-1,0,9
Y2-S2-254K21,3,279,AS,exp,42,↓,right,→,0.6283428000751883,False,17,-1,0,9
Y2-S2-254K21,3,280,AS,exp,30,→,right,→,0.3504546000622213,True,18,-1,0,9
Y2-S2-254K21,3,281,AS,exp,47,←,left,←,0.62354930001311,True,18,-1,0,9
Y2-S2-254K21,3,282,AS,exp,34,↑,up,↑,0.6846946999430656,True,18,1,1,10
Y2-S2-254K21,3,283,AS,exp,25,→,right,→,0.897027799859643,True,17,1,0,10
Y2-S2-254K21,3,284,AS,exp,41,↓,down,↓,0.6863485001958907,True,17,1,0,10
Y2-S2-254K21,3,285,AS,exp,45,←,left,←,0.6301929999608546,True,17,1,0,10
Y2-S2-254K21,3,286,AS,exp,34,→,right,→,0.5526352000888437,True,16,1,0,10
Y2-S2-254K21,3,287,AS,exp,49,←,left,←,0.46777530014514923,True,16,1,0,10
Y2-S2-254K21,3,288,AS,exp,47,↓,down,↓,0.5553407999686897,True,16,1,0,10
Y2-S2-254K21,3,289,AS,exp,34,↑,down,↓,0.5955799000803381,False,15,-1,1,11
Y2-S2-254K21,3,290,AS,exp,46,↓,right,→,0.5321949999779463,False,16,-1,0,11
Y2-S2-254K21,3,291,AS,exp,43,→,right,→,0.4740561000071466,True,17,-1,0,11
Y2-S2-254K21,3,292,AS,exp,26,↑,up,↑,0.4579928999301046,True,17,-1,0,11
Y2-S2-254K21,3,293,AS,exp,50,→,right,→,0.46747940010391176,True,17,1,1,12
Y2-S2-254K21,3,294,AS,exp,41,↑,right,→,0.6498853000812232,False,16,-1,1,13
Y2-S2-254K21,3,295,AS,exp,34,←,right,→,1.1918667999561876,False,17,-1,0,13
Y2-S2-254K21,3,296,AS,exp,34,→,right,→,0.5151925999671221,True,18,-1,0,13
Y2-S2-254K21,3,297,AS,exp,48,↓,left,←,0.30079269991256297,False,18,-1,0,13
Y2-S2-254K21,3,298,AS,exp,47,↑,right,→,0.543733200058341,False,19,-1,0,13
Y2-S2-254K21,3,299,AS,exp,29,←,right,→,0.5352793000638485,False,20,-1,0,13
Y2-S2-254K21,3,300,AS,exp,45,→,right,→,0.63593570003286,True,21,-1,0,13
Y2-S2-254K21,3,301,AS,exp,36,←,left,←,0.4669020001310855,True,21,-1,0,13
Y2-S2-254K21,3,302,AS,exp,35,↑,up,↑,0.9070456000044942,True,21,1,1,14
Y2-S2-254K21,3,303,AS,exp,45,←,right,→,0.6228102000895888,False,20,-1,1,15
Y2-S2-254K21,3,304,AS,exp,50,↓,down,↓,1.3794239999260753,True,21,-1,0,15
Y2-S2-254K21,3,305,AS,exp,44,↑,up,↑,0.8457249000202864,True,21,-1,0,15
Y2-S2-254K21,3,306,AS,exp,45,→,right,→,0.5262486999854445,True,21,1,1,16
Y2-S2-254K21,4,307,PS,intra_train,39,↓,down,↓,0.5263342999387532,True,18,-,-,-
Y2-S2-254K21,4,308,PS,intra_train,30,←,left,←,0.5851992999669164,True,18,-,-,-
Y2-S2-254K21,4,309,PS,intra_train,33,↑,up,↑,0.8364539998583496,True,18,-,-,-
Y2-S2-254K21,4,310,PS,intra_train,37,↓,down,↓,0.7421824000775814,True,18,-,-,-
Y2-S2-254K21,4,311,PS,intra_train,40,↑,up,↑,0.6444211001507938,True,18,-,-,-
Y2-S2-254K21,4,312,PS,exp,30,←,left,←,0.44582909997552633,True,12,0,0,0
Y2-S2-254K21,4,313,PS,exp,27,↑,left,←,0.8162925001233816,False,12,-1,0,0
Y2-S2-254K21,4,314,PS,exp,47,↓,right,→,0.4010325998533517,False,13,-1,0,0
Y2-S2-254K21,4,315,PS,exp,42,↑,up,↑,0.4408464999869466,True,14,-1,0,0
Y2-S2-254K21,4,316,PS,exp,26,↓,up,↑,0.9291346999816597,False,14,-1,0,0
Y2-S2-254K21,4,317,PS,exp,28,→,right,→,0.5479055000469089,True,15,-1,0,0
Y2-S2-254K21,4,318,PS,exp,46,←,left,←,0.9502542999107391,True,15,-1,0,0
Y2-S2-254K21,4,319,PS,exp,45,→,right,→,0.43332820013165474,True,15,1,1,1
Y2-S2-254K21,4,320,PS,exp,30,↓,down,↓,0.45597600005567074,True,14,1,0,1
Y2-S2-254K21,4,321,PS,exp,32,↑,right,→,0.6416519000194967,False,14,-1,1,2
Y2-S2-254K21,4,322,PS,exp,44,↓,down,↓,0.5012191999703646,True,15,-1,0,2
Y2-S2-254K21,4,323,PS,exp,42,↑,up,↑,0.5436707998160273,True,15,-1,0,2
Y2-S2-254K21,4,324,PS,exp,25,↓,down,↓,0.4803082998842001,True,15,1,1,3
Y2-S2-254K21,4,325,PS,exp,29,→,right,→,0.35052440012805164,True,14,1,0,3
Y2-S2-254K21,4,326,PS,exp,29,↓,down,↓,0.5259571000933647,True,14,1,0,3
Y2-S2-254K21,4,327,PS,exp,25,→,right,→,0.35059359995648265,True,14,1,0,3
Y2-S2-254K21,4,328,PS,exp,25,←,left,←,0.46700130007229745,True,13,1,0,3
Y2-S2-254K21,4,329,PS,exp,40,↓,down,↓,0.8493546000681818,True,13,1,0,3
Y2-S2-254K21,4,330,PS,exp,26,→,right,→,0.46536740008741617,True,13,1,0,3
Y2-S2-254K21,4,331,PS,exp,31,←,left,←,0.687427899800241,True,12,1,0,3
Y2-S2-254K21,4,332,PS,exp,35,↓,down,↓,0.5138842000160366,True,12,1,0,3
Y2-S2-254K21,4,333,PS,exp,25,→,right,→,0.6930716000497341,True,12,1,0,3
Y2-S2-254K21,4,334,PS,exp,43,↑,right,→,0.5388595999684185,False,11,-1,1,4
Y2-S2-254K21,4,335,PS,exp,49,↓,down,↓,0.4555510999634862,True,12,-1,0,4
Y2-S2-254K21,4,336,PS,exp,34,←,left,←,0.5081437998451293,True,12,-1,0,4
Y2-S2-254K21,4,337,PS,exp,33,↓,down,↓,0.45518300007097423,True,12,1,1,5
Y2-S2-254K21,4,338,PS,exp,34,→,right,→,0.35345709999091923,True,11,1,0,5
Y2-S2-254K21,4,339,PS,exp,36,↑,right,→,0.42520250007510185,False,11,-1,1,6
Y2-S2-254K21,4,340,PS,exp,25,↓,down,↓,0.48116540000773966,True,12,-1,0,6
Y2-S2-254K21,4,341,PS,exp,29,↑,right,→,0.6073760001454502,False,12,-1,0,6
Y2-S2-254K21,4,342,PS,exp,41,↓,down,↓,0.4930396999698132,True,13,-1,0,6
Y2-S2-254K21,4,343,PS,exp,42,←,right,→,0.8488616000395268,False,13,-1,0,6
Y2-S2-254K21,4,344,PS,exp,41,↑,up,↑,0.9095962999854237,True,14,-1,0,6
Y2-S2-254K21,4,345,PS,exp,27,←,right,→,0.44120480003766716,False,14,-1,0,6
Y2-S2-254K21,4,346,PS,exp,27,↓,down,↓,0.4505404999945313,True,15,-1,0,6
Y2-S2-254K21,4,347,PS,exp,50,←,left,←,0.48282509995624423,True,15,-1,0,6
Y2-S2-254K21,4,348,PS,exp,25,↓,down,↓,0.504406499909237,True,15,1,1,7
Y2-S2-254K21,4,349,PS,exp,48,←,right,→,0.5122259000781924,False,14,-1,1,8
Y2-S2-254K21,4,350,PS,exp,31,↓,down,↓,0.9321533998008817,True,15,-1,0,8
Y2-S2-254K21,4,351,PS,exp,29,←,left,←,0.4892808999866247,True,15,-1,0,8
Y2-S2-254K21,4,352,PS,exp,32,→,right,→,0.6740605998784304,True,15,1,1,9
Y2-S2-254K21,4,353,PS,exp,28,↑,down,↓,0.7597066999878734,False,14,-1,1,10
Y2-S2-254K21,4,354,PS,exp,46,←,left,←,0.48358660005033016,True,15,-1,0,10
Y2-S2-254K21,4,355,PS,exp,42,↓,left,←,0.8296815000940114,False,15,-1,0,10
Y2-S2-254K21,4,356,PS,exp,47,←,right,→,0.7514405001420528,False,16,-1,0,10
Y2-S2-254K21,4,357,PS,exp,31,→,right,→,0.4003826999105513,True,17,-1,0,10
Y2-S2-254K21,4,358,PS,exp,41,↓,down,↓,1.0632521000225097,True,17,-1,0,10
Y2-S2-254K21,4,359,PS,exp,37,←,left,←,0.8467439000960439,True,17,1,1,11
Y2-S2-254K21,4,360,PS,exp,41,→,right,→,0.38377840002067387,True,16,1,0,11
Y2-S2-254K21,4,361,PS,exp,45,←,right,→,0.5554876998066902,False,16,-1,1,12
Y2-S2-254K21,4,362,PS,exp,25,↑,up,↑,0.912699299864471,True,17,-1,0,12
Y2-S2-254K21,4,363,PS,exp,37,↓,down,↓,0.5075950000900775,True,17,-1,0,12
Y2-S2-254K21,4,364,PS,exp,38,↑,up,↑,0.6975962000433356,True,17,1,1,13
Y2-S2-254K21,4,365,PS,exp,29,↓,up,↑,0.9300523998681456,False,16,-1,1,14
Y2-S2-254K21,4,366,PS,exp,28,→,right,→,0.5814292000140995,True,17,-1,0,14
Y2-S2-254K21,4,367,PS,exp,50,←,left,←,1.0050929000135511,True,17,-1,0,14
Y2-S2-254K21,4,368,PS,exp,46,↑,up,↑,0.7380919000133872,True,17,1,1,15
Y2-S2-254K21,4,369,PS,exp,30,←,left,←,0.5719882999546826,True,16,1,0,15
Y2-S2-254K21,4,370,PS,exp,47,↑,up,↑,0.5163948000408709,True,16,1,0,15
Y2-S2-254K21,4,371,PS,exp,27,→,right,→,0.48125949990935624,True,16,1,0,15
Y2-S2-254K21,4,372,PS,exp,49,↓,up,↑,0.7080312999896705,False,15,-1,1,16
Y2-S2-254K21,5,373,PS,intra_train,32,→,right,→,0.41729629994370043,True,18,-,-,-
Y2-S2-254K21,5,374,PS,intra_train,30,↑,up,↑,0.6146544998046011,True,18,-,-,-
Y2-S2-254K21,5,375,PS,intra_train,48,→,right,→,0.3839859999716282,True,18,-,-,-
Y2-S2-254K21,5,376,PS,intra_train,33,↓,down,↓,0.6903643000405282,True,18,-,-,-
Y2-S2-254K21,5,377,PS,intra_train,34,↑,up,↑,0.6148836000356823,True,18,-,-,-
Y2-S2-254K21,5,378,PS,exp,27,→,right,→,0.7075122999958694,True,12,0,0,0
Y2-S2-254K21,5,379,PS,exp,27,↓,down,↓,0.6750852998811752,True,12,0,0,0
Y2-S2-254K21,5,380,PS,exp,26,→,right,→,0.6638768999837339,True,12,1,0,0
Y2-S2-254K21,5,381,PS,exp,38,↓,down,↓,0.504749899962917,True,11,1,0,0
Y2-S2-254K21,5,382,PS,exp,35,↑,up,↑,0.7293835000600666,True,11,1,0,0
Y2-S2-254K21,5,383,PS,exp,39,↓,down,↓,0.6502853999845684,True,11,1,0,0
Y2-S2-254K21,5,384,PS,exp,30,↑,down,↓,0.4810385999735445,False,10,-1,1,1
Y2-S2-254K21,5,385,PS,exp,33,←,right,→,0.4188195001333952,False,11,-1,0,1
Y2-S2-254K21,5,386,PS,exp,31,→,right,→,0.39241020008921623,True,12,-1,0,1
Y2-S2-254K21,5,387,PS,exp,31,↓,down,↓,0.531330700032413,True,12,-1,0,1
Y2-S2-254K21,5,388,PS,exp,29,↑,up,↑,0.6564796001184732,True,12,1,1,2
Y2-S2-254K21,5,389,PS,exp,49,→,right,→,0.5123276999220252,True,11,1,0,2
Y2-S2-254K21,5,390,PS,exp,35,↓,down,↓,0.7304237000644207,True,11,1,0,2
Y2-S2-254K21,5,391,PS,exp,40,←,left,←,0.5557375000789762,True,11,1,0,2
Y2-S2-254K21,5,392,PS,exp,50,→,right,→,0.41836830019019544,True,10,1,0,2
Y2-S2-254K21,5,393,PS,exp,26,↓,left,←,0.5361742000095546,False,10,-1,1,3
Y2-S2-254K21,5,394,PS,exp,41,←,left,←,0.4951065999921411,True,11,-1,0,3
Y2-S2-254K21,5,395,PS,exp,34,↑,right,→,0.3812434000428766,False,11,-1,0,3
Y2-S2-254K21,5,396,PS,exp,41,→,right,→,0.453739499906078,True,12,-1,0,3
Y2-S2-254K21,5,397,PS,exp,33,↑,left,←,0.5955262000206858,False,12,-1,0,3
Y2-S2-254K21,5,398,PS,exp,48,→,right,→,0.3986761001870036,True,13,-1,0,3
Y2-S2-254K21,5,399,PS,exp,43,↑,right,→,0.7857123999856412,False,13,-1,0,3
Y2-S2-254K21,5,400,PS,exp,36,↓,down,↓,0.695965199964121,True,14,-1,0,3
Y2-S2-254K21,5,401,PS,exp,45,→,right,→,0.33406809996813536,True,14,-1,0,3
Y2-S2-254K21,5,402,PS,exp,44,↓,down,↓,0.4856533999554813,True,14,1,1,4
Y2-S2-254K21,5,403,PS,exp,36,←,left,←,0.5511845999862999,True,13,1,0,4
Y2-S2-254K21,5,404,PS,exp,36,↓,no_key,no_letter,-1.0,False,13,-1,1,5
Y2-S2-254K21,5,405,PS,exp,45,↑,up,↑,0.6570183001458645,True,14,-1,0,5
Y2-S2-254K21,5,406,PS,exp,48,↓,down,↓,0.7528224000707269,True,14,-1,0,5
Y2-S2-254K21,5,407,PS,exp,29,↑,up,↑,0.6380716999992728,True,14,1,1,6
Y2-S2-254K21,5,408,PS,exp,28,↓,down,↓,0.4269085999112576,True,13,1,0,6
Y2-S2-254K21,5,409,PS,exp,29,↑,up,↑,0.5725418999791145,True,13,1,0,6
Y2-S2-254K21,5,410,PS,exp,39,↓,up,↑,0.6263589998707175,False,13,-1,1,7
Y2-S2-254K21,5,411,PS,exp,39,↑,up,↑,0.5943203000351787,True,14,-1,0,7
Y2-S2-254K21,5,412,PS,exp,47,↓,down,↓,0.469145999988541,True,14,-1,0,7
Y2-S2-254K21,5,413,PS,exp,32,←,up,↑,0.8669970000628382,False,14,-1,0,7
Y2-S2-254K21,5,414,PS,exp,26,↓,down,↓,0.6474993000738323,True,15,-1,0,7
Y2-S2-254K21,5,415,PS,exp,42,↑,right,→,0.736470100004226,False,15,-1,0,7
Y2-S2-254K21,5,416,PS,exp,30,←,right,→,1.589828599942848,False,16,-1,0,7
Y2-S2-254K21,5,417,PS,exp,42,↑,down,↓,0.8312880001030862,False,17,-1,0,7
Y2-S2-254K21,5,418,PS,exp,50,←,right,→,0.36721079982817173,False,18,-1,0,7
Y2-S2-254K21,5,419,PS,exp,41,↓,down,↓,1.8772964000236243,True,19,-1,0,7
Y2-S2-254K21,5,420,PS,exp,45,→,right,→,1.0608364001382142,True,19,-1,0,7
Y2-S2-254K21,5,421,PS,exp,42,↓,down,↓,0.6158219000790268,True,19,1,1,8
Y2-S2-254K21,5,422,PS,exp,47,↑,up,↑,0.631198399933055,True,18,1,0,8
Y2-S2-254K21,5,423,PS,exp,25,→,right,→,0.4006268000230193,True,18,1,0,8
Y2-S2-254K21,5,424,PS,exp,26,←,left,←,0.5585781000554562,True,18,1,0,8
Y2-S2-254K21,5,425,PS,exp,47,↑,up,↑,0.555162499891594,True,17,1,0,8
Y2-S2-254K21,5,426,PS,exp,39,←,left,←,0.5509242999833077,True,17,1,0,8
Y2-S2-254K21,5,427,PS,exp,43,↑,up,↑,0.5577169000171125,True,17,1,0,8
Y2-S2-254K21,5,428,PS,exp,32,↓,right,→,0.7715527000837028,False,16,-1,1,9
Y2-S2-254K21,5,429,PS,exp,30,←,left,←,0.6237188000231981,True,17,-1,0,9
Y2-S2-254K21,5,430,PS,exp,50,↑,up,↑,0.8553495998494327,True,17,-1,0,9
Y2-S2-254K21,5,431,PS,exp,33,←,left,←,0.8742739001754671,True,17,1,1,10
Y2-S2-254K21,5,432,PS,exp,43,↑,up,↑,0.47830349998548627,True,16,1,0,10
Y2-S2-254K21,5,433,PS,exp,49,→,right,→,0.723326199920848,True,16,1,0,10
Y2-S2-254K21,5,434,PS,exp,41,↑,up,↑,0.4676884999498725,True,16,1,0,10
Y2-S2-254K21,5,435,PS,exp,45,↓,down,↓,0.4526929999701679,True,15,1,0,10
Y2-S2-254K21,5,436,PS,exp,46,←,left,←,0.5191601000260562,True,15,1,0,10
Y2-S2-254K21,5,437,PS,exp,35,→,right,→,0.35075350012630224,True,15,1,0,10
Y2-S2-254K21,5,438,PS,exp,50,←,left,←,1.1267188000492752,True,14,1,0,10
Y2-S2-254K21,5,439,PS,exp,35,↑,up,↑,0.7117125000804663,True,14,1,0,10
Y2-S2-254K21,5,440,PS,exp,39,↓,down,↓,0.5197960999794304,True,14,1,0,10
Y2-S2-254K21,5,441,PS,exp,26,→,right,→,0.3971857998985797,True,13,1,0,10
Y2-S2-254K21,5,442,PS,exp,45,←,left,←,0.5513720000162721,True,13,1,0,10
Y2-S2-254K21,5,443,PS,exp,40,↑,right,→,0.5697557998355478,False,13,-1,1,11
Y2-S2-254K21,5,444,PS,exp,47,←,left,←,0.4984794999472797,True,14,-1,0,11
Y2-S2-254K21,5,445,PS,exp,28,→,left,←,0.6249308998230845,False,14,-1,0,11
Y2-S2-254K21,5,446,PS,exp,48,↑,right,→,0.3671041999477893,False,15,-1,0,11
Y2-S2-254K21,5,447,PS,exp,30,→,left,←,0.9518722000066191,False,16,-1,0,11
Y2-S2-254K21,5,448,PS,exp,50,↓,down,↓,0.4678944998886436,True,17,-1,0,11
Y2-S2-254K21,5,449,PS,exp,31,←,left,←,0.6971903000958264,True,17,-1,0,11
Y2-S2-254K21,5,450,PS,exp,27,↑,up,↑,0.469152299920097,True,17,1,1,12
Y2-S2-254K21,5,451,PS,exp,26,→,right,→,0.7977181000169367,True,16,1,0,12
Y2-S2-254K21,5,452,PS,exp,39,↑,up,↑,0.463561600074172,True,16,1,0,12
Y2-S2-254K21,5,453,PS,exp,25,←,left,←,0.4005405998323113,True,16,1,0,12
Y2-S2-254K21,5,454,PS,exp,36,↑,right,→,0.6363434998784214,False,15,-1,1,13
Y2-S2-254K21,5,455,PS,exp,35,→,right,→,0.8145294000860304,True,16,-1,0,13
Y2-S2-254K21,5,456,PS,exp,31,←,left,←,0.742931499844417,True,16,-1,0,13
Y2-S2-254K21,5,457,PS,exp,33,↑,up,↑,0.6276209000498056,True,16,1,1,14
Y2-S2-254K21,5,458,PS,exp,40,←,left,←,0.38388390000909567,True,15,1,0,14
Y2-S2-254K21,5,459,PS,exp,42,→,right,→,0.6383552998304367,True,15,1,0,14
Y2-S2-254K21,5,460,PS,exp,49,↓,right,→,0.3339337999932468,False,15,-1,1,15
Y2-S2-254K21,5,461,PS,exp,45,↑,right,→,0.33412840007804334,False,16,-1,0,15
Y2-S2-254K21,5,462,PS,exp,39,→,right,→,0.8102198000997305,True,17,-1,0,15
Y2-S2-254K21,5,463,PS,exp,48,←,left,←,0.6975928000174463,True,17,-1,0,15
Y2-S2-254K21,5,464,PS,exp,43,↓,down,↓,0.5121706000063568,True,17,1,1,16
Y2-S2-254K21,6,465,AS,intra_train,26,↑,up,↑,1.005942900199443,True,27,-,-,-
Y2-S2-254K21,6,466,AS,intra_train,42,↓,down,↓,0.7266102998983115,True,27,-,-,-
Y2-S2-254K21,6,467,AS,intra_train,38,←,left,←,0.4506418998353183,True,27,-,-,-
Y2-S2-254K21,6,468,AS,intra_train,34,↓,down,↓,0.4670635999646038,True,27,-,-,-
Y2-S2-254K21,6,469,AS,intra_train,48,↑,up,↑,0.6789464999455959,True,27,-,-,-
Y2-S2-254K21,6,470,AS,exp,36,↓,down,↓,0.4969057000707835,True,18,0,0,0
Y2-S2-254K21,6,471,AS,exp,43,←,left,←,0.607386999996379,True,18,0,0,0
Y2-S2-254K21,6,472,AS,exp,44,→,up,↑,0.9404639999847859,False,18,-1,0,0
Y2-S2-254K21,6,473,AS,exp,29,↑,no_key,no_letter,-1.0,False,19,-1,0,0
Y2-S2-254K21,6,474,AS,exp,35,→,right,→,0.4008021999616176,True,20,-1,0,0
Y2-S2-254K21,6,475,AS,exp,40,↓,down,↓,0.5976124999579042,True,20,-1,0,0
Y2-S2-254K21,6,476,AS,exp,50,←,right,→,0.4671158001292497,False,20,-1,0,0
Y2-S2-254K21,6,477,AS,exp,45,→,right,→,0.4006964999716729,True,21,-1,0,0
Y2-S2-254K21,6,478,AS,exp,31,←,right,→,0.4505924000404775,False,21,-1,0,0
Y2-S2-254K21,6,479,AS,exp,40,↑,up,↑,1.0736366000492126,True,22,-1,0,0
Y2-S2-254K21,6,480,AS,exp,27,→,left,←,0.4839462998788804,False,22,-1,0,0
Y2-S2-254K21,6,481,AS,exp,34,←,left,←,0.45112290000543,True,23,-1,0,0
Y2-S2-254K21,6,482,AS,exp,40,→,right,→,0.5007305999752134,True,23,-1,0,0
Y2-S2-254K21,6,483,AS,exp,25,↓,down,↓,0.716442400123924,True,23,1,1,1
Y2-S2-254K21,6,484,AS,exp,34,↑,up,↑,0.7765300997998565,True,22,1,0,1
Y2-S2-254K21,6,485,AS,exp,28,↓,down,↓,0.9085547998547554,True,22,1,0,1
Y2-S2-254K21,6,486,AS,exp,31,→,right,→,0.56961530004628,True,22,1,0,1
Y2-S2-254K21,6,487,AS,exp,32,↑,down,↓,0.8207392999902368,False,21,-1,1,2
Y2-S2-254K21,6,488,AS,exp,27,←,left,←,0.536880899919197,True,22,-1,0,2
Y2-S2-254K21,6,489,AS,exp,39,↓,down,↓,1.7486576000228524,True,22,-1,0,2
Y2-S2-254K21,6,490,AS,exp,43,↑,up,↑,0.5538802999071777,True,22,1,1,3
Y2-S2-254K21,6,491,AS,exp,38,←,right,→,0.5230348999612033,False,21,-1,1,4
Y2-S2-254K21,6,492,AS,exp,44,↓,down,↓,0.5362780001014471,True,22,-1,0,4
Y2-S2-254K21,6,493,AS,exp,35,←,left,←,0.6503918999806046,True,22,-1,0,4
Y2-S2-254K21,6,494,AS,exp,44,↓,down,↓,0.5621534001547843,True,22,1,1,5
Y2-S2-254K21,6,495,AS,exp,50,↑,up,↑,0.6329413000494242,True,21,1,0,5
Y2-S2-254K21,6,496,AS,exp,50,→,right,→,0.9439654001034796,True,21,1,0,5
Y2-S2-254K21,6,497,AS,exp,49,↑,up,↑,0.5834335999097675,True,21,1,0,5
Y2-S2-254K21,6,498,AS,exp,48,→,right,→,0.5427709000650793,True,20,1,0,5
Y2-S2-254K21,6,499,AS,exp,34,↑,up,↑,0.5376631999388337,True,20,1,0,5
Y2-S2-254K21,6,500,AS,exp,50,↓,down,↓,0.5131531001534313,True,20,1,0,5
Y2-S2-254K21,6,501,AS,exp,46,←,right,→,0.7698595998808742,False,19,-1,1,6
Y2-S2-254K21,6,502,AS,exp,43,→,left,←,0.46735130017623305,False,20,-1,0,6
Y2-S2-254K21,6,503,AS,exp,35,↓,down,↓,0.5516977000515908,True,21,-1,0,6
Y2-S2-254K21,6,504,AS,exp,40,→,right,→,0.4337575000245124,True,21,-1,0,6
Y2-S2-254K21,6,505,AS,exp,26,↑,up,↑,0.8838829998858273,True,21,1,1,7
Y2-S2-254K21,6,506,AS,exp,43,↓,down,↓,0.5565879000350833,True,20,1,0,7
Y2-S2-254K21,6,507,AS,exp,25,↑,up,↑,0.5965997998137027,True,20,1,0,7
Y2-S2-254K21,6,508,AS,exp,25,↓,down,↓,0.5275747999548912,True,20,1,0,7
Y2-S2-254K21,6,509,AS,exp,29,←,no_key,no_letter,-1.0,False,19,-1,1,8
Y2-S2-254K21,6,510,AS,exp,49,↑,down,↓,0.5803290999028832,False,20,-1,0,8
Y2-S2-254K21,6,511,AS,exp,31,↓,down,↓,0.6040628999471664,True,21,-1,0,8
Y2-S2-254K21,6,512,AS,exp,48,↑,down,↓,0.8817110999953002,False,21,-1,0,8
Y2-S2-254K21,6,513,AS,exp,39,←,left,←,0.5007043001241982,True,22,-1,0,8
Y2-S2-254K21,6,514,AS,exp,39,→,right,→,1.197091800160706,True,22,-1,0,8
Y2-S2-254K21,6,515,AS,exp,40,↑,up,↑,0.6085051998961717,True,22,1,1,9
Y2-S2-254K21,6,516,AS,exp,44,←,left,←,1.4033460000064224,True,21,1,0,9
Y2-S2-254K21,6,517,AS,exp,40,→,right,→,0.40057769999839365,True,21,1,0,9
Y2-S2-254K21,6,518,AS,exp,30,↓,down,↓,0.5965396000538021,True,21,1,0,9
Y2-S2-254K21,6,519,AS,exp,49,↑,left,←,0.9912278999108821,False,20,-1,1,10
Y2-S2-254K21,6,520,AS,exp,27,→,right,→,0.5761679999995977,True,21,-1,0,10
Y2-S2-254K21,6,521,AS,exp,42,↑,up,↑,0.8380365001503378,True,21,-1,0,10
Y2-S2-254K21,6,522,AS,exp,26,←,right,→,0.7289483000058681,False,21,-1,0,10
Y2-S2-254K21,6,523,AS,exp,27,↓,down,↓,0.4171062000095844,True,22,-1,0,10
Y2-S2-254K21,6,524,AS,exp,35,↑,up,↑,0.7615236002020538,True,22,-1,0,10
Y2-S2-254K21,6,525,AS,exp,50,↓,down,↓,0.7841048000846058,True,22,1,1,11
Y2-S2-254K21,6,526,AS,exp,30,→,right,→,0.9310951000079513,True,21,1,0,11
Y2-S2-254K21,6,527,AS,exp,30,↓,down,↓,0.7445829999633133,True,21,1,0,11
Y2-S2-254K21,6,528,AS,exp,35,←,left,←,0.6294974000193179,True,21,1,0,11
Y2-S2-254K21,6,529,AS,exp,40,→,right,→,0.384028899949044,True,20,1,0,11
Y2-S2-254K21,6,530,AS,exp,27,←,left,←,0.5763530998956412,True,20,1,0,11
Y2-S2-254K21,6,531,AS,exp,40,→,right,→,0.3841880999971181,True,20,1,0,11
Y2-S2-254K21,6,532,AS,exp,32,↑,down,↓,0.8586085999850184,False,19,-1,1,12
Y2-S2-254K21,6,533,AS,exp,33,←,right,→,0.4673232000786811,False,20,-1,0,12
Y2-S2-254K21,6,534,AS,exp,45,↓,down,↓,0.4674638998694718,True,21,-1,0,12
Y2-S2-254K21,6,535,AS,exp,40,→,right,→,0.4003493001218885,True,21,-1,0,12
Y2-S2-254K21,6,536,AS,exp,32,↓,down,↓,0.767903600120917,True,21,1,1,13
Y2-S2-254K21,6,537,AS,exp,50,←,left,←,0.6447278999257833,True,20,1,0,13
Y2-S2-254K21,6,538,AS,exp,32,↑,right,→,0.9202300999313593,False,20,-1,1,14
Y2-S2-254K21,6,539,AS,exp,37,←,right,→,0.5921994000673294,False,21,-1,0,14
Y2-S2-254K21,6,540,AS,exp,26,→,right,→,1.1054104999639094,True,22,-1,0,14
Y2-S2-254K21,6,541,AS,exp,29,↓,down,↓,0.5422767999116331,True,22,-1,0,14
Y2-S2-254K21,6,542,AS,exp,29,↑,up,↑,0.6392415000591427,True,22,1,1,15
Y2-S2-254K21,6,543,AS,exp,31,←,right,→,0.4506347000133246,False,21,-1,1,16
Y2-S2-254K21,7,544,AS,intra_train,38,→,right,→,0.4672592000570148,True,27,-,-,-
Y2-S2-254K21,7,545,AS,intra_train,29,↑,up,↑,0.9444148000329733,True,27,-,-,-
Y2-S2-254K21,7,546,AS,intra_train,46,↓,down,↓,0.5839315999764949,True,27,-,-,-
Y2-S2-254K21,7,547,AS,intra_train,28,→,right,→,0.4673260001000017,True,27,-,-,-
Y2-S2-254K21,7,548,AS,intra_train,26,↓,down,↓,0.729774700012058,True,27,-,-,-
Y2-S2-254K21,7,549,AS,exp,39,←,left,←,0.49742559995502234,True,18,0,0,0
Y2-S2-254K21,7,550,AS,exp,25,↑,up,↑,0.7753481999970973,True,18,0,0,0
Y2-S2-254K21,7,551,AS,exp,37,←,right,→,0.4179696999490261,False,18,-1,0,0
Y2-S2-254K21,7,552,AS,exp,41,→,right,→,0.6331317001022398,True,19,-1,0,0
Y2-S2-254K21,7,553,AS,exp,42,←,left,←,0.5467984001152217,True,19,-1,0,0
Y2-S2-254K21,7,554,AS,exp,30,→,right,→,0.5060411999002099,True,19,1,1,1
Y2-S2-254K21,7,555,AS,exp,33,↑,up,↑,0.6493921999353915,True,18,1,0,1
Y2-S2-254K21,7,556,AS,exp,40,↓,up,↑,1.3996339000295848,False,18,-1,1,2
Y2-S2-254K21,7,557,AS,exp,27,↑,down,↓,0.8033563001081347,False,19,-1,0,2
Y2-S2-254K21,7,558,AS,exp,33,←,left,←,0.7066152999177575,True,20,-1,0,2
Y2-S2-254K21,7,559,AS,exp,38,↑,up,↑,0.7121283002197742,True,20,-1,0,2
Y2-S2-254K21,7,560,AS,exp,26,↓,down,↓,0.7018655000720173,True,20,1,1,3
Y2-S2-254K21,7,561,AS,exp,32,→,right,→,0.567960900021717,True,19,1,0,3
Y2-S2-254K21,7,562,AS,exp,33,↑,up,↑,0.9536897998768836,True,19,1,0,3
Y2-S2-254K21,7,563,AS,exp,36,↓,down,↓,0.7577297000680119,True,19,1,0,3
Y2-S2-254K21,7,564,AS,exp,36,→,right,→,0.38363070017658174,True,18,1,0,3
Y2-S2-254K21,7,565,AS,exp,46,↓,right,→,0.4344171001575887,False,18,-1,1,4
Y2-S2-254K21,7,566,AS,exp,48,↑,right,→,0.3668881000485271,False,19,-1,0,4
Y2-S2-254K21,7,567,AS,exp,26,↓,down,↓,1.0691003000829369,True,20,-1,0,4
Y2-S2-254K21,7,568,AS,exp,30,←,left,←,0.4005472001153976,True,20,-1,0,4
Y2-S2-254K21,7,569,AS,exp,48,→,right,→,0.564178999979049,True,20,1,1,5
Y2-S2-254K21,7,570,AS,exp,27,↓,down,↓,0.5186127999331802,True,19,1,0,5
Y2-S2-254K21,7,571,AS,exp,39,→,right,→,0.5690023000352085,True,19,1,0,5
Y2-S2-254K21,7,572,AS,exp,34,↑,up,↑,0.9885080999229103,True,19,1,0,5
Y2-S2-254K21,7,573,AS,exp,47,←,left,←,0.6392812000121921,True,18,1,0,5
Y2-S2-254K21,7,574,AS,exp,39,↑,up,↑,0.5498846999835223,True,18,1,0,5
Y2-S2-254K21,7,575,AS,exp,43,↓,down,↓,0.6358542998787016,True,18,1,0,5
Y2-S2-254K21,7,576,AS,exp,29,→,right,→,0.572165000019595,True,17,1,0,5
Y2-S2-254K21,7,577,AS,exp,33,←,left,←,0.6293158999178559,True,17,1,0,5
Y2-S2-254K21,7,578,AS,exp,41,→,right,→,0.41714709997177124,True,17,1,0,5
Y2-S2-254K21,7,579,AS,exp,35,↑,down,↓,0.7907322000246495,False,16,-1,1,6
Y2-S2-254K21,7,580,AS,exp,44,→,right,→,0.5948413000442088,True,17,-1,0,6
Y2-S2-254K21,7,581,AS,exp,26,↓,down,↓,0.8057664001826197,True,17,-1,0,6
Y2-S2-254K21,7,582,AS,exp,33,→,right,→,0.5154788000509143,True,17,1,1,7
Y2-S2-254K21,7,583,AS,exp,50,←,left,←,0.5372750998940319,True,16,1,0,7
Y2-S2-254K21,7,584,AS,exp,31,→,right,→,0.45846130000427365,True,16,1,0,7
Y2-S2-254K21,7,585,AS,exp,27,↑,up,↑,0.7928011000622064,True,16,1,0,7
Y2-S2-254K21,7,586,AS,exp,26,←,right,→,0.5876380000263453,False,15,-1,1,8
Y2-S2-254K21,7,587,AS,exp,43,→,right,→,0.6386565999127924,True,16,-1,0,8
Y2-S2-254K21,7,588,AS,exp,44,↑,left,←,0.40062749991193414,False,16,-1,0,8
Y2-S2-254K21,7,589,AS,exp,41,↓,down,↓,0.8018835000693798,True,17,-1,0,8
Y2-S2-254K21,7,590,AS,exp,46,→,right,→,0.6288901001680642,True,17,-1,0,8
Y2-S2-254K21,7,591,AS,exp,39,↓,right,→,0.5130731998942792,False,17,-1,0,8
Y2-S2-254K21,7,592,AS,exp,25,←,left,←,0.7784893000498414,True,18,-1,0,8
Y2-S2-254K21,7,593,AS,exp,29,→,right,→,0.4895861998666078,True,18,-1,0,8
Y2-S2-254K21,7,594,AS,exp,35,↑,up,↑,0.8559516000095755,True,18,1,1,9
Y2-S2-254K21,7,595,AS,exp,32,↓,down,↓,0.6258284000214189,True,17,1,0,9
Y2-S2-254K21,7,596,AS,exp,49,↑,up,↑,0.7807477000169456,True,17,1,0,9
Y2-S2-254K21,7,597,AS,exp,34,←,up,↑,0.6448681000620127,False,17,-1,1,10
Y2-S2-254K21,7,598,AS,exp,36,↑,up,↑,0.5670528002083302,True,18,-1,0,10
Y2-S2-254K21,7,599,AS,exp,25,→,right,→,0.9625611000228673,True,18,-1,0,10
Y2-S2-254K21,7,600,AS,exp,44,←,left,←,0.41725079994648695,True,18,1,1,11
Y2-S2-254K21,7,601,AS,exp,47,→,right,→,0.8066251999698579,True,17,1,0,11
Y2-S2-254K21,7,602,AS,exp,31,↓,down,↓,0.5241862998809665,True,17,1,0,11
Y2-S2-254K21,7,603,AS,exp,40,→,right,→,0.46820060000754893,True,17,1,0,11
Y2-S2-254K21,7,604,AS,exp,25,←,down,↓,0.8525105000007898,False,16,-1,1,12
Y2-S2-254K21,7,605,AS,exp,26,↓,down,↓,0.830725200008601,True,17,-1,0,12
Y2-S2-254K21,7,606,AS,exp,32,←,left,←,0.4937087001744658,True,17,-1,0,12
Y2-S2-254K21,7,607,AS,exp,34,↓,down,↓,0.47557950019836426,True,17,1,1,13
Y2-S2-254K21,7,608,AS,exp,35,↑,up,↑,0.6521498998627067,True,16,1,0,13
Y2-S2-254K21,7,609,AS,exp,43,↓,down,↓,0.890116399852559,True,16,1,0,13
Y2-S2-254K21,7,610,AS,exp,44,←,left,←,0.4942212998867035,True,16,1,0,13
Y2-S2-254K21,7,611,AS,exp,45,↓,down,↓,0.7729517999105155,True,15,1,0,13
Y2-S2-254K21,7,612,AS,exp,37,←,right,→,0.7241977998055518,False,15,-1,1,14
Y2-S2-254K21,7,613,AS,exp,49,↑,up,↑,0.6477043000049889,True,16,-1,0,14
Y2-S2-254K21,7,614,AS,exp,25,→,right,→,0.5348461999092251,True,16,-1,0,14
Y2-S2-254K21,7,615,AS,exp,43,←,right,→,0.5906110000796616,False,16,-1,0,14
Y2-S2-254K21,7,616,AS,exp,33,↑,up,↑,0.7076836000196636,True,17,-1,0,14
Y2-S2-254K21,7,617,AS,exp,48,↓,down,↓,0.46852630004286766,True,17,-1,0,14
Y2-S2-254K21,7,618,AS,exp,31,→,right,→,0.542365700006485,True,17,1,1,15
Y2-S2-254K21,7,619,AS,exp,38,←,left,←,0.4390227000694722,True,16,1,0,15
Y2-S2-254K21,7,620,AS,exp,47,↓,down,↓,0.471115899970755,True,16,1,0,15
Y2-S2-254K21,7,621,AS,exp,44,→,right,→,0.8723129001446068,True,16,1,0,15
Y2-S2-254K21,7,622,AS,exp,47,↑,right,→,0.5509356998372823,False,15,-1,1,16
Y2-S2-254K21,8,623,PS,intra_train,43,←,left,←,0.5845248999539763,True,18,-,-,-
Y2-S2-254K21,8,624,PS,intra_train,31,→,right,→,0.43397229979746044,True,18,-,-,-
Y2-S2-254K21,8,625,PS,intra_train,33,←,right,→,0.41748399985954165,False,18,-,-,-
Y2-S2-254K21,8,626,PS,intra_train,49,↓,down,↓,0.5637275001499802,True,18,-,-,-
Y2-S2-254K21,8,627,PS,intra_train,31,→,right,→,0.43379279994405806,True,18,-,-,-
Y2-S2-254K21,8,628,PS,exp,42,↓,down,↓,0.6062668000813574,True,12,0,0,0
Y2-S2-254K21,8,629,PS,exp,35,←,right,→,0.4604132999666035,False,12,-1,0,0
Y2-S2-254K21,8,630,PS,exp,25,↑,right,→,0.31741610006429255,False,13,-1,0,0
Y2-S2-254K21,8,631,PS,exp,47,←,left,←,0.42857469990849495,True,14,-1,0,0
Y2-S2-254K21,8,632,PS,exp,43,↑,up,↑,0.5749019000213593,True,14,-1,0,0
Y2-S2-254K21,8,633,PS,exp,25,←,right,→,0.7460304999258369,False,14,-1,0,0
Y2-S2-254K21,8,634,PS,exp,29,↑,up,↑,0.5237076000776142,True,15,-1,0,0
Y2-S2-254K21,8,635,PS,exp,49,←,left,←,0.4392689000815153,True,15,-1,0,0
Y2-S2-254K21,8,636,PS,exp,32,→,left,←,0.7030516001395881,False,15,-1,0,0
Y2-S2-254K21,8,637,PS,exp,48,↓,down,↓,0.5109407000709325,True,16,-1,0,0
Y2-S2-254K21,8,638,PS,exp,35,→,right,→,0.8115007998421788,True,16,-1,0,0
Y2-S2-254K21,8,639,PS,exp,46,↑,left,←,0.5908340997993946,False,16,-1,0,0
Y2-S2-254K21,8,640,PS,exp,46,→,right,→,0.4175271999556571,True,17,-1,0,0
Y2-S2-254K21,8,641,PS,exp,41,↑,left,←,0.76447520009242,False,17,-1,0,0
Y2-S2-254K21,8,642,PS,exp,33,↓,down,↓,0.5157584000844508,True,18,-1,0,0
Y2-S2-254K21,8,643,PS,exp,40,↑,up,↑,0.6608326002024114,True,18,-1,0,0
Y2-S2-254K21,8,644,PS,exp,43,←,left,←,0.40076240012422204,True,18,1,1,1
Y2-S2-254K21,8,645,PS,exp,26,→,right,→,0.6495473000686616,True,17,1,0,1
Y2-S2-254K21,8,646,PS,exp,30,↓,down,↓,0.9382834997959435,True,17,1,0,1
Y2-S2-254K21,8,647,PS,exp,47,↑,down,↓,0.7221383999567479,False,17,-1,1,2
Y2-S2-254K21,8,648,PS,exp,33,→,right,→,0.6451948001049459,True,18,-1,0,2
Y2-S2-254K21,8,649,PS,exp,49,←,left,←,0.9613544000312686,True,18,-1,0,2
Y2-S2-254K21,8,650,PS,exp,32,→,down,↓,0.7464594000484794,False,18,-1,0,2
Y2-S2-254K21,8,651,PS,exp,34,←,left,←,0.41731219994835556,True,19,-1,0,2
Y2-S2-254K21,8,652,PS,exp,26,↓,right,→,0.9405690000858158,False,19,-1,0,2
Y2-S2-254K21,8,653,PS,exp,47,→,right,→,0.7577315999660641,True,20,-1,0,2
Y2-S2-254K21,8,654,PS,exp,40,↑,down,↓,0.6661217999644578,False,20,-1,0,2
Y2-S2-254K21,8,655,PS,exp,33,↓,down,↓,0.5392106999643147,True,21,-1,0,2
Y2-S2-254K21,8,656,PS,exp,49,→,right,→,0.40070839994587004,True,21,-1,0,2
Y2-S2-254K21,8,657,PS,exp,45,↓,down,↓,0.4507049999665469,True,21,1,1,3
Y2-S2-254K21,8,658,PS,exp,38,→,right,→,0.6029469000641257,True,20,1,0,3
Y2-S2-254K21,8,659,PS,exp,40,↓,down,↓,0.5029434999451041,True,20,1,0,3
Y2-S2-254K21,8,660,PS,exp,37,↑,right,→,0.3506555000785738,False,20,-1,1,4
Y2-S2-254K21,8,661,PS,exp,50,←,left,←,1.031375200022012,True,21,-1,0,4
Y2-S2-254K21,8,662,PS,exp,42,↑,up,↑,0.6230528000742197,True,21,-1,0,4
Y2-S2-254K21,8,663,PS,exp,29,←,down,↓,0.6035611999686807,False,21,-1,0,4
Y2-S2-254K21,8,664,PS,exp,29,↑,down,↓,0.3508748998865485,False,22,-1,0,4
Y2-S2-254K21,8,665,PS,exp,25,←,down,↓,0.23497039987705648,False,23,-1,0,4
Y2-S2-254K21,8,666,PS,exp,31,→,down,↓,0.25106179993599653,False,24,-1,0,4
Y2-S2-254K21,8,667,PS,exp,34,↓,down,↓,0.5338061999063939,True,25,-1,0,4
Y2-S2-254K21,8,668,PS,exp,25,↑,up,↑,0.5172259998507798,True,25,-1,0,4
Y2-S2-254K21,8,669,PS,exp,27,←,left,←,0.7366928998380899,True,25,1,1,5
Y2-S2-254K21,8,670,PS,exp,46,→,right,→,0.38437399989925325,True,24,1,0,5
Y2-S2-254K21,8,671,PS,exp,41,←,left,←,0.6031553000211716,True,24,1,0,5
Y2-S2-254K21,8,672,PS,exp,29,↓,down,↓,0.6149437001440674,True,24,1,0,5
Y2-S2-254K21,8,673,PS,exp,28,↑,right,→,0.4674344998784363,False,23,-1,1,6
Y2-S2-254K21,8,674,PS,exp,44,←,left,←,0.15100020007230341,True,24,-1,0,6
Y2-S2-254K21,8,675,PS,exp,28,↑,right,→,0.41732760006561875,False,24,-1,0,6
Y2-S2-254K21,8,676,PS,exp,47,↓,down,↓,0.38430080004036427,True,25,-1,0,6
Y2-S2-254K21,8,677,PS,exp,28,←,left,←,0.36793209984898567,True,25,-1,0,6
Y2-S2-254K21,8,678,PS,exp,31,↑,left,←,0.3341271998360753,False,25,-1,0,6
Y2-S2-254K21,8,679,PS,exp,27,↓,down,↓,0.4009804998058826,True,26,-1,0,6
Y2-S2-254K21,8,680,PS,exp,48,↑,up,↑,0.3844960001297295,True,26,-1,0,6
Y2-S2-254K21,8,681,PS,exp,45,↓,down,↓,0.5173112000338733,True,26,1,1,7
Y2-S2-254K21,8,682,PS,exp,37,←,right,→,0.4007060998119414,False,25,-1,1,8
Y2-S2-254K21,8,683,PS,exp,48,↑,left,←,0.2335047998931259,False,26,-1,0,8
Y2-S2-254K21,8,684,PS,exp,32,↓,up,↑,0.41783739998936653,False,27,-1,0,8
Y2-S2-254K21,8,685,PS,exp,31,↑,up,↑,0.5675003998912871,True,28,-1,0,8
Y2-S2-254K21,8,686,PS,exp,49,←,left,←,0.467224899912253,True,28,-1,0,8
Y2-S2-254K21,8,687,PS,exp,33,→,right,→,0.6914804000407457,True,28,1,1,9
Y2-S2-254K21,8,688,PS,exp,49,←,left,←,0.567293600179255,True,27,1,0,9
Y2-S2-254K21,8,689,PS,exp,45,→,right,→,0.4177582000847906,True,27,1,0,9
Y2-S2-254K21,8,690,PS,exp,39,↓,right,→,0.2847317000851035,False,27,-1,1,10
Y2-S2-254K21,8,691,PS,exp,33,↑,up,↑,1.4062928999774158,True,28,-1,0,10
Y2-S2-254K21,8,692,PS,exp,50,→,right,→,0.40118020004592836,True,28,-1,0,10
Y2-S2-254K21,8,693,PS,exp,40,↓,down,↓,0.4010328999720514,True,28,1,1,11
Y2-S2-254K21,8,694,PS,exp,40,→,right,→,0.40103010018356144,True,27,1,0,11
Y2-S2-254K21,8,695,PS,exp,35,↓,down,↓,0.7331219001207501,True,27,1,0,11
Y2-S2-254K21,8,696,PS,exp,42,←,right,→,0.2514314001891762,False,27,-1,1,12
Y2-S2-254K21,8,697,PS,exp,42,→,right,→,0.31785889994353056,True,28,-1,0,12
Y2-S2-254K21,8,698,PS,exp,36,↓,down,↓,0.8056421999353915,True,28,-1,0,12
Y2-S2-254K21,8,699,PS,exp,39,←,left,←,0.6008742998819798,True,28,1,1,13
Y2-S2-254K21,8,700,PS,exp,26,→,right,→,0.3675511998590082,True,27,1,0,13
Y2-S2-254K21,8,701,PS,exp,28,↓,down,↓,0.450829999987036,True,27,1,0,13
Y2-S2-254K21,8,702,PS,exp,49,↑,right,→,0.400792800122872,False,27,-1,1,14
Y2-S2-254K21,8,703,PS,exp,43,→,right,→,0.6662383999209851,True,28,-1,0,14
Y2-S2-254K21,8,704,PS,exp,36,↓,down,↓,1.0884681998286396,True,28,-1,0,14
Y2-S2-254K21,8,705,PS,exp,47,→,right,→,1.0273714000359178,True,28,1,1,15
Y2-S2-254K21,8,706,PS,exp,49,↓,left,←,0.4178802000824362,False,27,-1,1,16
