PART_ID,Block_no,Trial_no,Block_type,Trial_type,CSI,Stim_letter,Key_pressed,letter_choose,Rt,Corr,Stimulus Time,Level,Reversal,Revs_count
Y2-S2-207M23,1,1,PS,train,42,↓,down,↓,0.8362010999117047,True,30,-,-,-
Y2-S2-207M23,1,2,PS,train,41,←,left,←,0.6005500999744982,True,30,-,-,-
Y2-S2-207M23,1,3,PS,train,38,↓,down,↓,0.9088221001438797,True,30,-,-,-
Y2-S2-207M23,1,4,PS,train,32,→,right,→,1.9181002001278102,True,30,-,-,-
Y2-S2-207M23,1,5,PS,train,25,↓,down,↓,1.561263799900189,True,30,-,-,-
Y2-S2-207M23,1,6,PS,train,44,←,left,←,1.1368299000896513,True,30,-,-,-
Y2-S2-207M23,1,7,PS,train,37,→,right,→,1.2269723999779671,True,30,-,-,-
Y2-S2-207M23,1,8,PS,train,41,↑,up,↑,0.5838552999775857,True,30,-,-,-
Y2-S2-207M23,1,9,PS,train,26,→,right,→,0.46771829994395375,True,30,-,-,-
Y2-S2-207M23,1,10,PS,train,42,↓,down,↓,0.7437133002094924,True,30,-,-,-
Y2-S2-207M23,2,11,AS,train,48,→,left,←,0.6675388000439852,False,45,-,-,-
Y2-S2-207M23,2,12,AS,train,38,↑,up,↑,0.7338711998891085,True,45,-,-,-
Y2-S2-207M23,2,13,AS,train,36,↓,down,↓,0.6679553999565542,True,45,-,-,-
Y2-S2-207M23,2,14,AS,train,39,↑,up,↑,0.6677983000408858,True,45,-,-,-
Y2-S2-207M23,2,15,AS,train,26,←,left,←,0.684582999907434,True,45,-,-,-
Y2-S2-207M23,2,16,AS,train,35,→,right,→,0.8340018999297172,True,45,-,-,-
Y2-S2-207M23,2,17,AS,train,40,←,left,←,0.6510399000253528,True,45,-,-,-
Y2-S2-207M23,2,18,AS,train,37,↑,up,↑,0.6844369999598712,True,45,-,-,-
Y2-S2-207M23,2,19,AS,train,29,↓,down,↓,0.651068199891597,True,45,-,-,-
Y2-S2-207M23,2,20,AS,train,29,→,right,→,0.5676366998814046,True,45,-,-,-
Y2-S2-207M23,-,21,PS,adaptive,34,↓,down,↓,0.5578296999447048,True,10,0,0,0
Y2-S2-207M23,-,22,PS,adaptive,49,→,right,→,0.779954900033772,True,10,0,0,0
Y2-S2-207M23,-,23,PS,adaptive,36,←,left,←,0.6616452999878675,True,10,1,0,0
Y2-S2-207M23,-,24,PS,adaptive,48,↑,up,↑,1.0716710998676717,True,9,1,0,0
Y2-S2-207M23,-,25,PS,adaptive,49,→,right,→,0.8098196999635547,True,9,1,0,0
Y2-S2-207M23,-,26,PS,adaptive,48,←,left,←,0.8905458999797702,True,9,1,0,0
Y2-S2-207M23,-,27,PS,adaptive,25,↑,left,←,0.9960706999991089,False,8,-1,1,1
Y2-S2-207M23,-,28,PS,adaptive,36,←,left,←,0.5368472000118345,True,9,-1,0,1
Y2-S2-207M23,-,29,PS,adaptive,45,↑,up,↑,1.077141499845311,True,9,-1,0,1
Y2-S2-207M23,-,30,PS,adaptive,40,→,right,→,0.5056026000529528,True,9,1,1,2
Y2-S2-207M23,-,31,PS,adaptive,45,↑,down,↓,0.8376952998805791,False,8,-1,1,3
Y2-S2-207M23,-,32,PS,adaptive,36,→,right,→,0.5970441000536084,True,9,-1,0,3
Y2-S2-207M23,-,33,PS,adaptive,42,←,right,→,0.6525439000688493,False,9,-1,0,3
Y2-S2-207M23,-,34,PS,adaptive,32,→,left,←,0.7059135001618415,False,10,-1,0,3
Y2-S2-207M23,-,35,PS,adaptive,35,↓,down,↓,0.5864235002081841,True,11,-1,0,3
Y2-S2-207M23,-,36,PS,adaptive,48,←,left,←,0.4863284998573363,True,11,-1,0,3
Y2-S2-207M23,-,37,PS,adaptive,33,↑,up,↑,0.43930769991129637,True,11,1,1,4
Y2-S2-207M23,-,38,AS,adaptive,38,→,left,←,0.9288518000394106,False,20,-1,0,0
Y2-S2-207M23,-,39,AS,adaptive,44,↑,up,↑,0.5821932998951524,True,21,-1,0,0
Y2-S2-207M23,-,40,AS,adaptive,46,→,right,→,0.5331617000047117,True,21,-1,0,0
Y2-S2-207M23,-,41,AS,adaptive,37,←,left,←,0.6122066001407802,True,21,1,1,1
Y2-S2-207M23,-,42,AS,adaptive,30,↓,down,↓,0.6033445000648499,True,20,1,0,1
Y2-S2-207M23,-,43,AS,adaptive,33,↑,up,↑,0.6749561000615358,True,20,1,0,1
Y2-S2-207M23,-,44,AS,adaptive,35,↓,down,↓,0.5925722001120448,True,20,1,0,1
Y2-S2-207M23,-,45,AS,adaptive,49,←,left,←,0.5348273001145571,True,19,1,0,1
Y2-S2-207M23,-,46,AS,adaptive,28,→,right,→,0.6511659999378026,True,19,1,0,1
Y2-S2-207M23,-,47,AS,adaptive,35,←,left,←,0.5623019998893142,True,19,1,0,1
Y2-S2-207M23,-,48,AS,adaptive,25,↑,up,↑,0.5584851999301463,True,18,1,0,1
Y2-S2-207M23,-,49,AS,adaptive,28,↓,down,↓,0.6083170000929385,True,18,1,0,1
Y2-S2-207M23,-,50,AS,adaptive,41,←,left,←,0.5040856001432985,True,18,1,0,1
Y2-S2-207M23,-,51,AS,adaptive,27,↓,down,↓,0.6943516000173986,True,17,1,0,1
Y2-S2-207M23,-,52,AS,adaptive,49,↑,up,↑,0.7525690000038594,True,17,1,0,1
Y2-S2-207M23,-,53,AS,adaptive,31,→,right,→,0.5561297000385821,True,17,1,0,1
Y2-S2-207M23,-,54,AS,adaptive,45,↓,down,↓,0.5249111000448465,True,16,1,0,1
Y2-S2-207M23,-,55,AS,adaptive,34,←,left,←,0.5079407999292016,True,16,1,0,1
Y2-S2-207M23,-,56,AS,adaptive,25,↓,down,↓,0.731211599893868,True,16,1,0,1
Y2-S2-207M23,-,57,AS,adaptive,50,→,right,→,0.7233871999196708,True,15,1,0,1
Y2-S2-207M23,-,58,AS,adaptive,47,←,left,←,0.8654010000173002,True,15,1,0,1
Y2-S2-207M23,-,59,AS,adaptive,33,→,right,→,0.5863481999840587,True,15,1,0,1
Y2-S2-207M23,-,60,AS,adaptive,42,↑,up,↑,0.7296600001864135,True,14,1,0,1
Y2-S2-207M23,-,61,AS,adaptive,33,←,left,←,0.684028800111264,True,14,1,0,1
Y2-S2-207M23,-,62,AS,adaptive,49,↓,down,↓,0.7012728000991046,True,14,1,0,1
Y2-S2-207M23,-,63,AS,adaptive,28,←,left,←,0.5909696000162512,True,13,1,0,1
Y2-S2-207M23,-,64,AS,adaptive,37,↑,up,↑,0.4337989999912679,True,13,1,0,1
Y2-S2-207M23,-,65,AS,adaptive,32,→,right,→,0.649385099997744,True,13,1,0,1
Y2-S2-207M23,-,66,AS,adaptive,43,↑,up,↑,0.6045012997929007,True,12,1,0,1
Y2-S2-207M23,-,67,AS,adaptive,50,←,left,←,0.6826665999833494,True,12,1,0,1
Y2-S2-207M23,-,68,AS,adaptive,34,→,right,→,0.45424230000935495,True,12,1,0,1
Y2-S2-207M23,-,69,AS,adaptive,42,↑,up,↑,0.7315175000112504,True,11,1,0,1
Y2-S2-207M23,-,70,AS,adaptive,27,←,left,←,0.7304106999654323,True,11,1,0,1
Y2-S2-207M23,-,71,AS,adaptive,25,↑,up,↑,0.8910737000405788,True,11,1,0,1
Y2-S2-207M23,-,72,AS,adaptive,39,←,right,→,0.7800312000326812,False,10,-1,1,2
Y2-S2-207M23,-,73,AS,adaptive,28,→,left,←,0.5926838000304997,False,11,-1,0,2
Y2-S2-207M23,-,74,AS,adaptive,40,↓,down,↓,0.6281371000222862,True,12,-1,0,2
Y2-S2-207M23,-,75,AS,adaptive,26,↑,up,↑,0.5511411998886615,True,12,-1,0,2
Y2-S2-207M23,-,76,AS,adaptive,45,↓,right,→,0.9540292001329362,False,12,-1,0,2
Y2-S2-207M23,-,77,AS,adaptive,42,→,left,←,0.746595400152728,False,13,-1,0,2
Y2-S2-207M23,-,78,AS,adaptive,39,↑,up,↑,0.6095069998409599,True,14,-1,0,2
Y2-S2-207M23,-,79,AS,adaptive,43,→,right,→,0.47408429998904467,True,14,-1,0,2
Y2-S2-207M23,-,80,AS,adaptive,37,←,left,←,0.6134768999181688,True,14,1,1,3
Y2-S2-207M23,-,81,AS,adaptive,33,↓,up,↑,0.44601060007698834,False,13,-1,1,4
Y2-S2-207M23,1,82,AS,intra_train,44,↑,up,↑,0.526938599999994,True,21,-,-,-
Y2-S2-207M23,1,83,AS,intra_train,40,→,right,→,1.4003771001007408,True,21,-,-,-
Y2-S2-207M23,1,84,AS,intra_train,37,↑,up,↑,0.6461694000754505,True,21,-,-,-
Y2-S2-207M23,1,85,AS,intra_train,37,←,left,←,0.6289987000636756,True,21,-,-,-
Y2-S2-207M23,1,86,AS,intra_train,40,↓,up,↑,0.6183270001783967,False,21,-,-,-
Y2-S2-207M23,1,87,AS,exp,41,↑,up,↑,0.9365008000750095,True,14,0,0,0
Y2-S2-207M23,1,88,AS,exp,28,←,left,←,0.7786498998757452,True,14,0,0,0
Y2-S2-207M23,1,89,AS,exp,25,↑,up,↑,0.5556262999307364,True,14,1,0,0
Y2-S2-207M23,1,90,AS,exp,37,↓,up,↑,0.7771876000333577,False,13,-1,1,1
Y2-S2-207M23,1,91,AS,exp,30,→,right,→,0.5641779999714345,True,14,-1,0,1
Y2-S2-207M23,1,92,AS,exp,32,←,left,←,0.7151148999109864,True,14,-1,0,1
Y2-S2-207M23,1,93,AS,exp,31,↓,down,↓,0.6353874001652002,True,14,1,1,2
Y2-S2-207M23,1,94,AS,exp,50,→,right,→,0.8261023000814021,True,13,1,0,2
Y2-S2-207M23,1,95,AS,exp,34,↑,up,↑,0.5220685000531375,True,13,1,0,2
Y2-S2-207M23,1,96,AS,exp,32,→,right,→,0.6588339998852462,True,13,1,0,2
Y2-S2-207M23,1,97,AS,exp,30,↑,up,↑,0.5712538999505341,True,12,1,0,2
Y2-S2-207M23,1,98,AS,exp,35,→,right,→,0.46300429990515113,True,12,1,0,2
Y2-S2-207M23,1,99,AS,exp,33,↓,down,↓,0.6418533001560718,True,12,1,0,2
Y2-S2-207M23,1,100,AS,exp,25,←,left,←,0.616340400185436,True,11,1,0,2
Y2-S2-207M23,1,101,AS,exp,35,→,left,←,0.446880100062117,False,11,-1,1,3
Y2-S2-207M23,1,102,AS,exp,30,←,left,←,0.5624623000621796,True,12,-1,0,3
Y2-S2-207M23,1,103,AS,exp,39,↓,up,↑,0.5859298000577837,False,12,-1,0,3
Y2-S2-207M23,1,104,AS,exp,27,↑,up,↑,0.7907203999347985,True,13,-1,0,3
Y2-S2-207M23,1,105,AS,exp,41,↓,down,↓,0.6588270000647753,True,13,-1,0,3
Y2-S2-207M23,1,106,AS,exp,48,→,right,→,0.5779752000235021,True,13,1,1,4
Y2-S2-207M23,1,107,AS,exp,42,↓,down,↓,0.6117917001247406,True,12,1,0,4
Y2-S2-207M23,1,108,AS,exp,33,↑,right,→,0.7544221999123693,False,12,-1,1,5
Y2-S2-207M23,1,109,AS,exp,42,→,left,←,1.188588900025934,False,13,-1,0,5
Y2-S2-207M23,1,110,AS,exp,35,↓,down,↓,0.6487546002026647,True,14,-1,0,5
Y2-S2-207M23,1,111,AS,exp,40,→,right,→,0.6854520998895168,True,14,-1,0,5
Y2-S2-207M23,1,112,AS,exp,48,↑,up,↑,0.6411871998570859,True,14,1,1,6
Y2-S2-207M23,1,113,AS,exp,48,←,left,←,1.1277548000216484,True,13,1,0,6
Y2-S2-207M23,1,114,AS,exp,28,↑,up,↑,0.6313600998837501,True,13,1,0,6
Y2-S2-207M23,1,115,AS,exp,32,↓,down,↓,0.6331756000872701,True,13,1,0,6
Y2-S2-207M23,1,116,AS,exp,30,↑,up,↑,0.6454014000482857,True,12,1,0,6
Y2-S2-207M23,1,117,AS,exp,33,↓,up,↑,0.6062384000979364,False,12,-1,1,7
Y2-S2-207M23,1,118,AS,exp,35,↑,up,↑,0.5771114998497069,True,13,-1,0,7
Y2-S2-207M23,1,119,AS,exp,42,→,right,→,0.5810501999221742,True,13,-1,0,7
Y2-S2-207M23,1,120,AS,exp,36,↓,down,↓,0.7338550998829305,True,13,1,1,8
Y2-S2-207M23,1,121,AS,exp,44,→,right,→,0.5379031000193208,True,12,1,0,8
Y2-S2-207M23,1,122,AS,exp,43,↑,up,↑,0.5036051999777555,True,12,1,0,8
Y2-S2-207M23,1,123,AS,exp,46,→,up,↑,0.7323701998684555,False,12,-1,1,9
Y2-S2-207M23,1,124,AS,exp,41,↑,up,↑,0.4637629999779165,True,13,-1,0,9
Y2-S2-207M23,1,125,AS,exp,31,↓,right,→,0.709652999881655,False,13,-1,0,9
Y2-S2-207M23,1,126,AS,exp,40,←,left,←,0.6750419000163674,True,14,-1,0,9
Y2-S2-207M23,1,127,AS,exp,37,↑,up,↑,0.7061185999773443,True,14,-1,0,9
Y2-S2-207M23,1,128,AS,exp,37,→,right,→,0.5574387998785824,True,14,1,1,10
Y2-S2-207M23,1,129,AS,exp,27,↑,up,↑,0.504610100062564,True,13,1,0,10
Y2-S2-207M23,1,130,AS,exp,33,→,right,→,0.7733114999718964,True,13,1,0,10
Y2-S2-207M23,1,131,AS,exp,45,↑,up,↑,0.5886847998481244,True,13,1,0,10
Y2-S2-207M23,1,132,AS,exp,50,↓,left,←,0.7793378999922425,False,12,-1,1,11
Y2-S2-207M23,1,133,AS,exp,43,↑,up,↑,0.45739060011692345,True,13,-1,0,11
Y2-S2-207M23,1,134,AS,exp,30,→,right,→,0.4856279001105577,True,13,-1,0,11
Y2-S2-207M23,1,135,AS,exp,38,←,left,←,0.6876587998121977,True,13,1,1,12
Y2-S2-207M23,1,136,AS,exp,46,→,right,→,0.5165341999381781,True,12,1,0,12
Y2-S2-207M23,1,137,AS,exp,44,↑,up,↑,0.6231589999515563,True,12,1,0,12
Y2-S2-207M23,1,138,AS,exp,45,↓,down,↓,0.6895548000466079,True,12,1,0,12
Y2-S2-207M23,1,139,AS,exp,45,↑,up,↑,0.544304400216788,True,11,1,0,12
Y2-S2-207M23,1,140,AS,exp,48,←,left,←,0.6572030999232084,True,11,1,0,12
Y2-S2-207M23,1,141,AS,exp,36,→,right,→,0.5041358999442309,True,11,1,0,12
Y2-S2-207M23,1,142,AS,exp,30,←,left,←,0.6120293999556452,True,10,1,0,12
Y2-S2-207M23,1,143,AS,exp,39,→,right,→,0.5133382000494748,True,10,1,0,12
Y2-S2-207M23,1,144,AS,exp,27,←,left,←,0.5400547999888659,True,10,1,0,12
Y2-S2-207M23,1,145,AS,exp,46,→,right,→,0.6396999000571668,True,9,1,0,12
Y2-S2-207M23,1,146,AS,exp,29,←,left,←,0.4697495000436902,True,9,1,0,12
Y2-S2-207M23,1,147,AS,exp,25,↓,down,↓,0.491607999894768,True,9,1,0,12
Y2-S2-207M23,1,148,AS,exp,47,→,right,→,0.4705081998836249,True,8,1,0,12
Y2-S2-207M23,1,149,AS,exp,49,↑,up,↑,1.0501778000034392,True,8,1,0,12
Y2-S2-207M23,1,150,AS,exp,29,←,left,←,0.4616767999250442,True,8,1,0,12
Y2-S2-207M23,1,151,AS,exp,30,↑,up,↑,0.4219054998829961,True,7,1,0,12
Y2-S2-207M23,1,152,AS,exp,31,→,right,→,0.6369650999549776,True,7,1,0,12
Y2-S2-207M23,1,153,AS,exp,25,↑,up,↑,0.4099908999633044,True,7,1,0,12
Y2-S2-207M23,1,154,AS,exp,36,↓,right,→,0.8547592000104487,False,6,-1,1,13
Y2-S2-207M23,1,155,AS,exp,42,←,right,→,0.39000140014104545,False,7,-1,0,13
Y2-S2-207M23,1,156,AS,exp,43,→,right,→,0.4281537998467684,True,8,-1,0,13
Y2-S2-207M23,1,157,AS,exp,41,↑,up,↑,0.8113537998870015,True,8,-1,0,13
Y2-S2-207M23,1,158,AS,exp,43,←,left,←,0.42678400012664497,True,8,1,1,14
Y2-S2-207M23,1,159,AS,exp,26,→,right,→,0.5904862999450415,True,7,1,0,14
Y2-S2-207M23,1,160,AS,exp,36,↑,up,↑,0.5315090001095086,True,7,1,0,14
Y2-S2-207M23,1,161,AS,exp,40,←,left,←,0.4508647001348436,True,7,1,0,14
Y2-S2-207M23,1,162,AS,exp,44,↑,right,→,0.5377279999665916,False,6,-1,1,15
Y2-S2-207M23,1,163,AS,exp,37,↓,up,↑,0.5162370000034571,False,7,-1,0,15
Y2-S2-207M23,1,164,AS,exp,38,↑,up,↑,0.4823036000598222,True,8,-1,0,15
Y2-S2-207M23,1,165,AS,exp,28,↓,right,→,1.210248399991542,False,8,-1,0,15
Y2-S2-207M23,1,166,AS,exp,41,↑,right,→,0.4471161998808384,False,9,-1,0,15
Y2-S2-207M23,1,167,AS,exp,31,↓,no_key,no_letter,-1.0,False,10,-1,0,15
Y2-S2-207M23,1,168,AS,exp,34,→,right,→,0.6859695999883115,True,11,-1,0,15
Y2-S2-207M23,1,169,AS,exp,37,↑,up,↑,1.0036523998714983,True,11,-1,0,15
Y2-S2-207M23,1,170,AS,exp,25,←,down,↓,1.0546162999235094,False,11,-1,0,15
Y2-S2-207M23,1,171,AS,exp,46,↓,down,↓,0.6245013999287039,True,12,-1,0,15
Y2-S2-207M23,1,172,AS,exp,38,→,left,←,0.9143902000505477,False,12,-1,0,15
Y2-S2-207M23,1,173,AS,exp,45,←,up,↑,0.8249497001525015,False,13,-1,0,15
Y2-S2-207M23,1,174,AS,exp,25,→,right,→,0.5126688999589533,True,14,-1,0,15
Y2-S2-207M23,1,175,AS,exp,29,←,left,←,0.6249658998567611,True,14,-1,0,15
Y2-S2-207M23,1,176,AS,exp,30,↑,up,↑,0.430727900005877,True,14,1,1,16
Y2-S2-207M23,2,177,PS,intra_train,31,→,right,→,0.5285132999997586,True,15,-,-,-
Y2-S2-207M23,2,178,PS,intra_train,46,↑,up,↑,0.5257527998182923,True,15,-,-,-
Y2-S2-207M23,2,179,PS,intra_train,34,→,right,→,0.803732099942863,True,15,-,-,-
Y2-S2-207M23,2,180,PS,intra_train,41,↑,up,↑,0.524053500033915,True,15,-,-,-
Y2-S2-207M23,2,181,PS,intra_train,27,→,right,→,0.49961599987000227,True,15,-,-,-
Y2-S2-207M23,2,182,PS,exp,40,↑,up,↑,0.4881329999770969,True,10,0,0,0
Y2-S2-207M23,2,183,PS,exp,35,←,left,←,0.4851554997731,True,10,0,0,0
Y2-S2-207M23,2,184,PS,exp,48,↓,down,↓,0.6308454000391066,True,10,1,0,0
Y2-S2-207M23,2,185,PS,exp,42,↑,up,↑,0.679168300004676,True,9,1,0,0
Y2-S2-207M23,2,186,PS,exp,47,↓,down,↓,0.5457231998443604,True,9,1,0,0
Y2-S2-207M23,2,187,PS,exp,29,←,right,→,0.5953057000879198,False,9,-1,1,1
Y2-S2-207M23,2,188,PS,exp,47,↑,down,↓,0.8610061998479068,False,10,-1,0,1
Y2-S2-207M23,2,189,PS,exp,41,→,right,→,0.4292494000401348,True,11,-1,0,1
Y2-S2-207M23,2,190,PS,exp,48,←,right,→,0.7401233999989927,False,11,-1,0,1
Y2-S2-207M23,2,191,PS,exp,36,↑,up,↑,0.5618501000571996,True,12,-1,0,1
Y2-S2-207M23,2,192,PS,exp,36,↓,down,↓,0.64860920002684,True,12,-1,0,1
Y2-S2-207M23,2,193,PS,exp,38,→,right,→,0.5170791000127792,True,12,1,1,2
Y2-S2-207M23,2,194,PS,exp,45,↓,down,↓,0.5094788998831064,True,11,1,0,2
Y2-S2-207M23,2,195,PS,exp,48,→,right,→,0.4786194001790136,True,11,1,0,2
Y2-S2-207M23,2,196,PS,exp,40,←,left,←,0.45560280000790954,True,11,1,0,2
Y2-S2-207M23,2,197,PS,exp,39,↓,right,→,1.0424726998899132,False,10,-1,1,3
Y2-S2-207M23,2,198,PS,exp,29,→,right,→,0.4454551001545042,True,11,-1,0,3
Y2-S2-207M23,2,199,PS,exp,46,↓,down,↓,0.6355393000412732,True,11,-1,0,3
Y2-S2-207M23,2,200,PS,exp,45,→,right,→,0.5068930999841541,True,11,1,1,4
Y2-S2-207M23,2,201,PS,exp,37,↑,up,↑,0.518851300003007,True,10,1,0,4
Y2-S2-207M23,2,202,PS,exp,32,→,left,←,0.8175643000286072,False,10,-1,1,5
Y2-S2-207M23,2,203,PS,exp,34,←,left,←,0.44757530000060797,True,11,-1,0,5
Y2-S2-207M23,2,204,PS,exp,32,→,right,→,0.4538545000832528,True,11,-1,0,5
Y2-S2-207M23,2,205,PS,exp,47,↓,right,→,0.6723019999917597,False,11,-1,0,5
Y2-S2-207M23,2,206,PS,exp,44,←,left,←,0.4664322000462562,True,12,-1,0,5
Y2-S2-207M23,2,207,PS,exp,35,↑,right,→,1.778425500029698,False,12,-1,0,5
Y2-S2-207M23,2,208,PS,exp,29,↓,up,↑,0.5882125000935048,False,13,-1,0,5
Y2-S2-207M23,2,209,PS,exp,41,←,left,←,1.293070200132206,True,14,-1,0,5
Y2-S2-207M23,2,210,PS,exp,27,↑,no_key,no_letter,-1.0,False,14,-1,0,5
Y2-S2-207M23,2,211,PS,exp,38,↓,down,↓,0.6833335999399424,True,15,-1,0,5
Y2-S2-207M23,2,212,PS,exp,27,→,right,→,0.4364553999621421,True,15,-1,0,5
Y2-S2-207M23,2,213,PS,exp,38,↓,down,↓,0.542693599825725,True,15,1,1,6
Y2-S2-207M23,2,214,PS,exp,39,→,right,→,1.0600900000426918,True,14,1,0,6
Y2-S2-207M23,2,215,PS,exp,42,↓,down,↓,0.5394737001042813,True,14,1,0,6
Y2-S2-207M23,2,216,PS,exp,49,→,right,→,1.202771999873221,True,14,1,0,6
Y2-S2-207M23,2,217,PS,exp,42,↑,right,→,0.8287180999759585,False,13,-1,1,7
Y2-S2-207M23,2,218,PS,exp,25,←,left,←,0.46973350015468895,True,14,-1,0,7
Y2-S2-207M23,2,219,PS,exp,31,↓,left,←,0.7269340001512319,False,14,-1,0,7
Y2-S2-207M23,2,220,PS,exp,46,→,right,→,0.36688370001502335,True,15,-1,0,7
Y2-S2-207M23,2,221,PS,exp,32,↑,up,↑,0.5680093001574278,True,15,-1,0,7
Y2-S2-207M23,2,222,PS,exp,27,↓,down,↓,0.7525096000172198,True,15,1,1,8
Y2-S2-207M23,2,223,PS,exp,48,↑,up,↑,0.5745849998202175,True,14,1,0,8
Y2-S2-207M23,2,224,PS,exp,26,←,left,←,0.8548043000046164,True,14,1,0,8
Y2-S2-207M23,2,225,PS,exp,42,↑,up,↑,0.5194199001416564,True,14,1,0,8
Y2-S2-207M23,2,226,PS,exp,30,→,left,←,0.7107967000920326,False,13,-1,1,9
Y2-S2-207M23,2,227,PS,exp,49,←,left,←,0.6289846999570727,True,14,-1,0,9
Y2-S2-207M23,2,228,PS,exp,40,→,right,→,0.6033888999372721,True,14,-1,0,9
Y2-S2-207M23,2,229,PS,exp,31,←,left,←,0.5823681999463588,True,14,1,1,10
Y2-S2-207M23,2,230,PS,exp,29,→,right,→,0.5638300999999046,True,13,1,0,10
Y2-S2-207M23,2,231,PS,exp,45,↑,up,↑,0.5696755000390112,True,13,1,0,10
Y2-S2-207M23,2,232,PS,exp,50,↓,down,↓,0.6939078001305461,True,13,1,0,10
Y2-S2-207M23,2,233,PS,exp,43,↑,up,↑,0.5416369000449777,True,12,1,0,10
Y2-S2-207M23,2,234,PS,exp,48,→,right,→,0.4712644999381155,True,12,1,0,10
Y2-S2-207M23,2,235,PS,exp,43,↑,left,←,1.0288699998054653,False,12,-1,1,11
Y2-S2-207M23,2,236,PS,exp,43,↓,down,↓,0.5496416999958456,True,13,-1,0,11
Y2-S2-207M23,2,237,PS,exp,31,→,right,→,0.4341833000071347,True,13,-1,0,11
Y2-S2-207M23,2,238,PS,exp,45,↓,down,↓,0.49951859982684255,True,13,1,1,12
Y2-S2-207M23,2,239,PS,exp,28,↑,up,↑,0.5533981001935899,True,12,1,0,12
Y2-S2-207M23,2,240,PS,exp,44,↓,down,↓,0.6008506000507623,True,12,1,0,12
Y2-S2-207M23,2,241,PS,exp,48,↑,up,↑,0.6125380999874324,True,12,1,0,12
Y2-S2-207M23,2,242,PS,exp,44,↓,down,↓,0.6107302000746131,True,11,1,0,12
Y2-S2-207M23,2,243,PS,exp,47,←,left,←,0.6281442998442799,True,11,1,0,12
Y2-S2-207M23,2,244,PS,exp,35,↓,down,↓,0.6258370999712497,True,11,1,0,12
Y2-S2-207M23,2,245,PS,exp,34,↑,right,→,0.8611046001315117,False,10,-1,1,13
Y2-S2-207M23,2,246,PS,exp,47,←,left,←,0.5455750999972224,True,11,-1,0,13
Y2-S2-207M23,2,247,PS,exp,46,→,right,→,0.5241978000849485,True,11,-1,0,13
Y2-S2-207M23,2,248,PS,exp,41,←,left,←,0.5951243001036346,True,11,1,1,14
Y2-S2-207M23,2,249,PS,exp,29,→,right,→,0.4949445000384003,True,10,1,0,14
Y2-S2-207M23,2,250,PS,exp,39,←,left,←,0.504917100071907,True,10,1,0,14
Y2-S2-207M23,2,251,PS,exp,38,→,down,↓,0.23378030001185834,False,10,-1,1,15
Y2-S2-207M23,2,252,PS,exp,33,↑,up,↑,0.5571910999715328,True,11,-1,0,15
Y2-S2-207M23,2,253,PS,exp,33,→,right,→,0.45295880013145506,True,11,-1,0,15
Y2-S2-207M23,2,254,PS,exp,48,↑,up,↑,0.9485784999560565,True,11,1,1,16
Y2-S2-207M23,3,255,PS,intra_train,46,↓,up,↑,0.682267599971965,False,15,-,-,-
Y2-S2-207M23,3,256,PS,intra_train,50,↑,up,↑,0.93179119983688,True,15,-,-,-
Y2-S2-207M23,3,257,PS,intra_train,26,↓,down,↓,0.5140730999410152,True,15,-,-,-
Y2-S2-207M23,3,258,PS,intra_train,34,←,left,←,0.4721284999977797,True,15,-,-,-
Y2-S2-207M23,3,259,PS,intra_train,42,↓,down,↓,0.5011662999168038,True,15,-,-,-
Y2-S2-207M23,3,260,PS,exp,27,↑,right,→,0.9181911998894066,False,10,-1,0,0
Y2-S2-207M23,3,261,PS,exp,38,↓,left,←,0.7746470000129193,False,11,-1,0,0
Y2-S2-207M23,3,262,PS,exp,30,↑,up,↑,0.6573145999573171,True,12,-1,0,0
Y2-S2-207M23,3,263,PS,exp,50,↓,down,↓,0.628531200112775,True,12,-1,0,0
Y2-S2-207M23,3,264,PS,exp,35,↑,up,↑,0.8631748000625521,True,12,1,1,1
Y2-S2-207M23,3,265,PS,exp,48,↓,down,↓,0.5785517001058906,True,11,1,0,1
Y2-S2-207M23,3,266,PS,exp,27,→,right,→,0.7000646002124995,True,11,1,0,1
Y2-S2-207M23,3,267,PS,exp,26,←,left,←,0.7339174000080675,True,11,1,0,1
Y2-S2-207M23,3,268,PS,exp,46,↑,up,↑,0.5635300001595169,True,10,1,0,1
Y2-S2-207M23,3,269,PS,exp,32,↓,down,↓,0.47015530010685325,True,10,1,0,1
Y2-S2-207M23,3,270,PS,exp,41,←,right,→,0.6067397999577224,False,10,-1,1,2
Y2-S2-207M23,3,271,PS,exp,50,→,left,←,0.6393646001815796,False,11,-1,0,2
Y2-S2-207M23,3,272,PS,exp,29,↑,up,↑,0.510685799876228,True,12,-1,0,2
Y2-S2-207M23,3,273,PS,exp,28,↓,down,↓,0.9233527998439968,True,12,-1,0,2
Y2-S2-207M23,3,274,PS,exp,43,↑,up,↑,0.656846099998802,True,12,1,1,3
Y2-S2-207M23,3,275,PS,exp,30,↓,right,→,0.6613461000379175,False,11,-1,1,4
Y2-S2-207M23,3,276,PS,exp,45,→,right,→,0.5362108999397606,True,12,-1,0,4
Y2-S2-207M23,3,277,PS,exp,48,↓,down,↓,0.5809800000861287,True,12,-1,0,4
Y2-S2-207M23,3,278,PS,exp,47,←,left,←,0.5642915000207722,True,12,1,1,5
Y2-S2-207M23,3,279,PS,exp,37,↓,right,→,0.841160399839282,False,11,-1,1,6
Y2-S2-207M23,3,280,PS,exp,49,→,right,→,0.6073803999461234,True,12,-1,0,6
Y2-S2-207M23,3,281,PS,exp,50,↑,up,↑,0.6992394998669624,True,12,-1,0,6
Y2-S2-207M23,3,282,PS,exp,44,↓,down,↓,0.687293800059706,True,12,1,1,7
Y2-S2-207M23,3,283,PS,exp,38,→,right,→,0.6929759001359344,True,11,1,0,7
Y2-S2-207M23,3,284,PS,exp,41,↑,down,↓,0.6153639000840485,False,11,-1,1,8
Y2-S2-207M23,3,285,PS,exp,36,→,right,→,0.4779695998877287,True,12,-1,0,8
Y2-S2-207M23,3,286,PS,exp,47,↑,up,↑,0.7495462000370026,True,12,-1,0,8
Y2-S2-207M23,3,287,PS,exp,27,↓,down,↓,0.6163216999266297,True,12,1,1,9
Y2-S2-207M23,3,288,PS,exp,36,↑,up,↑,0.6097081999760121,True,11,1,0,9
Y2-S2-207M23,3,289,PS,exp,45,←,left,←,0.44362520007416606,True,11,1,0,9
Y2-S2-207M23,3,290,PS,exp,42,↓,right,→,0.39217610005289316,False,11,-1,1,10
Y2-S2-207M23,3,291,PS,exp,32,←,left,←,0.5551907001063228,True,12,-1,0,10
Y2-S2-207M23,3,292,PS,exp,31,↑,up,↑,0.972012200159952,True,12,-1,0,10
Y2-S2-207M23,3,293,PS,exp,33,↓,down,↓,0.48647050000727177,True,12,1,1,11
Y2-S2-207M23,3,294,PS,exp,46,↑,up,↑,0.6763266001362354,True,11,1,0,11
Y2-S2-207M23,3,295,PS,exp,50,←,left,←,0.5362134999595582,True,11,1,0,11
Y2-S2-207M23,3,296,PS,exp,26,↑,up,↑,0.5607056000735611,True,11,1,0,11
Y2-S2-207M23,3,297,PS,exp,26,←,left,←,0.7342177999671549,True,10,1,0,11
Y2-S2-207M23,3,298,PS,exp,47,→,right,→,0.7429786000866443,True,10,1,0,11
Y2-S2-207M23,3,299,PS,exp,47,↓,down,↓,0.5335217001847923,True,10,1,0,11
Y2-S2-207M23,3,300,PS,exp,41,↑,up,↑,0.653817499987781,True,9,1,0,11
Y2-S2-207M23,3,301,PS,exp,33,←,right,→,0.6462115000467747,False,9,-1,1,12
Y2-S2-207M23,3,302,PS,exp,42,↓,left,←,0.7062192999292165,False,10,-1,0,12
Y2-S2-207M23,3,303,PS,exp,34,←,left,←,0.48957079998217523,True,11,-1,0,12
Y2-S2-207M23,3,304,PS,exp,41,↑,up,↑,0.8961418999824673,True,11,-1,0,12
Y2-S2-207M23,3,305,PS,exp,42,↓,down,↓,0.7050465999636799,True,11,1,1,13
Y2-S2-207M23,3,306,PS,exp,36,←,left,←,0.48629159992560744,True,10,1,0,13
Y2-S2-207M23,3,307,PS,exp,48,↓,down,↓,0.4823666999582201,True,10,1,0,13
Y2-S2-207M23,3,308,PS,exp,38,↑,up,↑,0.5152257001027465,True,10,1,0,13
Y2-S2-207M23,3,309,PS,exp,31,↓,down,↓,0.7412387998774648,True,9,1,0,13
Y2-S2-207M23,3,310,PS,exp,39,→,right,→,0.4287563001271337,True,9,1,0,13
Y2-S2-207M23,3,311,PS,exp,43,↓,left,←,0.7792176001239568,False,9,-1,1,14
Y2-S2-207M23,3,312,PS,exp,41,←,right,→,0.417587400181219,False,10,-1,0,14
Y2-S2-207M23,3,313,PS,exp,35,↓,down,↓,0.43917240016162395,True,11,-1,0,14
Y2-S2-207M23,3,314,PS,exp,31,→,right,→,0.6803870000876486,True,11,-1,0,14
Y2-S2-207M23,3,315,PS,exp,33,↓,down,↓,0.512449799804017,True,11,1,1,15
Y2-S2-207M23,3,316,PS,exp,38,←,left,←,0.5056614000350237,True,10,1,0,15
Y2-S2-207M23,3,317,PS,exp,44,↓,down,↓,0.39881710009649396,True,10,1,0,15
Y2-S2-207M23,3,318,PS,exp,43,↑,up,↑,0.7452594998758286,True,10,1,0,15
Y2-S2-207M23,3,319,PS,exp,40,↓,down,↓,0.4870322998613119,True,9,1,0,15
Y2-S2-207M23,3,320,PS,exp,45,←,left,←,0.4686952999327332,True,9,1,0,15
Y2-S2-207M23,3,321,PS,exp,29,↓,right,→,0.9046179000288248,False,9,-1,1,16
Y2-S2-207M23,4,322,AS,intra_train,50,←,left,←,0.90735729993321,True,21,-,-,-
Y2-S2-207M23,4,323,AS,intra_train,45,↑,up,↑,0.6662914000917226,True,21,-,-,-
Y2-S2-207M23,4,324,AS,intra_train,36,↓,down,↓,0.5281209000386298,True,21,-,-,-
Y2-S2-207M23,4,325,AS,intra_train,40,→,right,→,0.4840997999999672,True,21,-,-,-
Y2-S2-207M23,4,326,AS,intra_train,26,←,left,←,0.5335391999688,True,21,-,-,-
Y2-S2-207M23,4,327,AS,exp,45,→,right,→,1.0167238998692483,True,14,0,0,0
Y2-S2-207M23,4,328,AS,exp,28,←,left,←,0.5801144000142813,True,14,0,0,0
Y2-S2-207M23,4,329,AS,exp,32,→,right,→,0.5829105998855084,True,14,1,0,0
Y2-S2-207M23,4,330,AS,exp,40,←,right,→,0.4647436998784542,False,13,-1,1,1
Y2-S2-207M23,4,331,AS,exp,37,↓,down,↓,1.1665686001069844,True,14,-1,0,1
Y2-S2-207M23,4,332,AS,exp,39,↑,up,↑,0.5951952000614256,True,14,-1,0,1
Y2-S2-207M23,4,333,AS,exp,28,←,left,←,0.4595765999983996,True,14,1,1,2
Y2-S2-207M23,4,334,AS,exp,32,→,right,→,0.6639759000390768,True,13,1,0,2
Y2-S2-207M23,4,335,AS,exp,41,↓,down,↓,0.5914304999168962,True,13,1,0,2
Y2-S2-207M23,4,336,AS,exp,45,←,right,→,0.6378053999505937,False,13,-1,1,3
Y2-S2-207M23,4,337,AS,exp,34,→,down,↓,0.6891072001308203,False,14,-1,0,3
Y2-S2-207M23,4,338,AS,exp,30,←,left,←,0.6921428998466581,True,15,-1,0,3
Y2-S2-207M23,4,339,AS,exp,43,↓,up,↑,0.45458159991540015,False,15,-1,0,3
Y2-S2-207M23,4,340,AS,exp,33,→,right,→,0.5007554001640528,True,16,-1,0,3
Y2-S2-207M23,4,341,AS,exp,48,↓,down,↓,0.6305933999828994,True,16,-1,0,3
Y2-S2-207M23,4,342,AS,exp,35,↑,up,↑,0.5318545000627637,True,16,1,1,4
Y2-S2-207M23,4,343,AS,exp,35,↓,down,↓,0.4953158001881093,True,15,1,0,4
Y2-S2-207M23,4,344,AS,exp,42,←,left,←,1.1410566000267863,True,15,1,0,4
Y2-S2-207M23,4,345,AS,exp,39,↓,down,↓,0.6617785999551415,True,15,1,0,4
Y2-S2-207M23,4,346,AS,exp,38,←,left,←,0.4581961000803858,True,14,1,0,4
Y2-S2-207M23,4,347,AS,exp,43,→,right,→,0.6298710000701249,True,14,1,0,4
Y2-S2-207M23,4,348,AS,exp,44,↓,down,↓,0.517109900014475,True,14,1,0,4
Y2-S2-207M23,4,349,AS,exp,50,→,right,→,0.403449899982661,True,13,1,0,4
Y2-S2-207M23,4,350,AS,exp,50,↓,up,↑,0.9708438999950886,False,13,-1,1,5
Y2-S2-207M23,4,351,AS,exp,43,←,left,←,0.41741140000522137,True,14,-1,0,5
Y2-S2-207M23,4,352,AS,exp,48,↑,up,↑,0.8420424000360072,True,14,-1,0,5
Y2-S2-207M23,4,353,AS,exp,47,→,right,→,0.4154234998859465,True,14,1,1,6
Y2-S2-207M23,4,354,AS,exp,46,←,left,←,0.6881816999521106,True,13,1,0,6
Y2-S2-207M23,4,355,AS,exp,34,→,right,→,0.44976620003581047,True,13,1,0,6
Y2-S2-207M23,4,356,AS,exp,39,↓,down,↓,0.4600013999734074,True,13,1,0,6
Y2-S2-207M23,4,357,AS,exp,28,→,right,→,0.7969788999762386,True,12,1,0,6
Y2-S2-207M23,4,358,AS,exp,45,←,right,→,1.1421432001516223,False,12,-1,1,7
Y2-S2-207M23,4,359,AS,exp,36,→,right,→,0.4087051001843065,True,13,-1,0,7
Y2-S2-207M23,4,360,AS,exp,34,↑,up,↑,0.5622330000624061,True,13,-1,0,7
Y2-S2-207M23,4,361,AS,exp,38,↓,left,←,0.884459399851039,False,13,-1,0,7
Y2-S2-207M23,4,362,AS,exp,30,↑,up,↑,0.5665663999971002,True,14,-1,0,7
Y2-S2-207M23,4,363,AS,exp,48,↓,up,↑,0.5033410000614822,False,14,-1,0,7
Y2-S2-207M23,4,364,AS,exp,48,→,right,→,0.6962186999153346,True,15,-1,0,7
Y2-S2-207M23,4,365,AS,exp,28,←,up,↑,0.9585943999700248,False,15,-1,0,7
Y2-S2-207M23,4,366,AS,exp,45,↓,down,↓,0.5442824000492692,True,16,-1,0,7
Y2-S2-207M23,4,367,AS,exp,39,↑,up,↑,0.5870141999330372,True,16,-1,0,7
Y2-S2-207M23,4,368,AS,exp,39,↓,down,↓,0.5249264999292791,True,16,1,1,8
Y2-S2-207M23,4,369,AS,exp,27,←,left,←,0.4683304000645876,True,15,1,0,8
Y2-S2-207M23,4,370,AS,exp,38,↑,right,→,0.9336242000572383,False,15,-1,1,9
Y2-S2-207M23,4,371,AS,exp,28,→,left,←,0.8863931999076158,False,16,-1,0,9
Y2-S2-207M23,4,372,AS,exp,35,←,left,←,0.680016899947077,True,17,-1,0,9
Y2-S2-207M23,4,373,AS,exp,33,↓,down,↓,0.6678536999970675,True,17,-1,0,9
Y2-S2-207M23,4,374,AS,exp,35,←,left,←,0.5743360000196844,True,17,1,1,10
Y2-S2-207M23,4,375,AS,exp,27,↑,up,↑,0.5655356000643224,True,16,1,0,10
Y2-S2-207M23,4,376,AS,exp,33,←,left,←,0.4699381000827998,True,16,1,0,10
Y2-S2-207M23,4,377,AS,exp,26,↑,up,↑,0.5380730999168009,True,16,1,0,10
Y2-S2-207M23,4,378,AS,exp,37,→,right,→,1.5651472001336515,True,15,1,0,10
Y2-S2-207M23,4,379,AS,exp,31,↑,up,↑,0.7534596000332385,True,15,1,0,10
Y2-S2-207M23,4,380,AS,exp,34,↓,down,↓,0.6137205001432449,True,15,1,0,10
Y2-S2-207M23,4,381,AS,exp,46,←,left,←,0.4871061001904309,True,14,1,0,10
Y2-S2-207M23,4,382,AS,exp,49,→,right,→,0.4290618000086397,True,14,1,0,10
Y2-S2-207M23,4,383,AS,exp,49,↑,up,↑,0.4978648000396788,True,14,1,0,10
Y2-S2-207M23,4,384,AS,exp,48,↓,down,↓,0.6276734001003206,True,13,1,0,10
Y2-S2-207M23,4,385,AS,exp,35,↑,up,↑,0.45606120000593364,True,13,1,0,10
Y2-S2-207M23,4,386,AS,exp,38,→,right,→,0.4562186999246478,True,13,1,0,10
Y2-S2-207M23,4,387,AS,exp,29,←,left,←,0.6609133000019938,True,12,1,0,10
Y2-S2-207M23,4,388,AS,exp,28,↓,up,↑,0.6185618999879807,False,12,-1,1,11
Y2-S2-207M23,4,389,AS,exp,38,→,right,→,1.656434099888429,True,13,-1,0,11
Y2-S2-207M23,4,390,AS,exp,41,↑,up,↑,0.5508425999432802,True,13,-1,0,11
Y2-S2-207M23,4,391,AS,exp,28,←,left,←,0.39576009986922145,True,13,1,1,12
Y2-S2-207M23,4,392,AS,exp,47,↓,down,↓,0.5397257001604885,True,12,1,0,12
Y2-S2-207M23,4,393,AS,exp,50,←,left,←,0.4329980001784861,True,12,1,0,12
Y2-S2-207M23,4,394,AS,exp,30,↑,up,↑,0.626044699922204,True,12,1,0,12
Y2-S2-207M23,4,395,AS,exp,31,↓,down,↓,0.516924399882555,True,11,1,0,12
Y2-S2-207M23,4,396,AS,exp,37,↑,up,↑,0.5153421999420971,True,11,1,0,12
Y2-S2-207M23,4,397,AS,exp,37,↓,down,↓,0.6062276000156999,True,11,1,0,12
Y2-S2-207M23,4,398,AS,exp,27,←,left,←,0.5398794000502676,True,10,1,0,12
Y2-S2-207M23,4,399,AS,exp,41,↑,up,↑,0.8053395000752062,True,10,1,0,12
Y2-S2-207M23,4,400,AS,exp,29,↓,down,↓,0.5553011000156403,True,10,1,0,12
Y2-S2-207M23,4,401,AS,exp,38,←,left,←,0.6193204000592232,True,9,1,0,12
Y2-S2-207M23,4,402,AS,exp,44,→,right,→,0.7065475000999868,True,9,1,0,12
Y2-S2-207M23,4,403,AS,exp,42,↓,right,→,1.1496155001223087,False,9,-1,1,13
Y2-S2-207M23,4,404,AS,exp,33,↑,up,↑,0.4942245001439005,True,10,-1,0,13
Y2-S2-207M23,4,405,AS,exp,25,↓,down,↓,0.68755909986794,True,10,-1,0,13
Y2-S2-207M23,4,406,AS,exp,39,←,right,→,0.5527295998763293,False,10,-1,0,13
Y2-S2-207M23,4,407,AS,exp,41,↑,up,↑,0.46623230003751814,True,11,-1,0,13
Y2-S2-207M23,4,408,AS,exp,45,↓,left,←,0.7814708000514656,False,11,-1,0,13
Y2-S2-207M23,4,409,AS,exp,48,→,right,→,0.4895693000871688,True,12,-1,0,13
Y2-S2-207M23,4,410,AS,exp,27,↑,right,→,0.9784925000276417,False,12,-1,0,13
Y2-S2-207M23,4,411,AS,exp,42,→,left,←,0.7652119998820126,False,13,-1,0,13
Y2-S2-207M23,4,412,AS,exp,46,↓,down,↓,0.7561000001151115,True,14,-1,0,13
Y2-S2-207M23,4,413,AS,exp,38,→,up,↑,0.6692842000629753,False,14,-1,0,13
Y2-S2-207M23,4,414,AS,exp,40,↓,down,↓,0.6527937999926507,True,15,-1,0,13
Y2-S2-207M23,4,415,AS,exp,27,←,left,←,0.7588414999190718,True,15,-1,0,13
Y2-S2-207M23,4,416,AS,exp,27,↑,up,↑,0.6242101001553237,True,15,1,1,14
Y2-S2-207M23,4,417,AS,exp,27,←,left,←,0.5165114998817444,True,14,1,0,14
Y2-S2-207M23,4,418,AS,exp,44,↑,up,↑,0.5143466000445187,True,14,1,0,14
Y2-S2-207M23,4,419,AS,exp,44,→,right,→,0.6998041998594999,True,14,1,0,14
Y2-S2-207M23,4,420,AS,exp,27,←,left,←,0.552623099880293,True,13,1,0,14
Y2-S2-207M23,4,421,AS,exp,33,↑,up,↑,0.5370245999656618,True,13,1,0,14
Y2-S2-207M23,4,422,AS,exp,47,↓,right,→,0.8560711001046002,False,13,-1,1,15
Y2-S2-207M23,4,423,AS,exp,27,↑,up,↑,0.6056538999546319,True,14,-1,0,15
Y2-S2-207M23,4,424,AS,exp,31,→,right,→,0.6784076001495123,True,14,-1,0,15
Y2-S2-207M23,4,425,AS,exp,36,↑,up,↑,1.3423868999816477,True,14,1,1,16
Y2-S2-207M23,5,426,AS,intra_train,36,↓,down,↓,0.657001500017941,True,21,-,-,-
Y2-S2-207M23,5,427,AS,intra_train,50,↑,up,↑,0.7651458000764251,True,21,-,-,-
Y2-S2-207M23,5,428,AS,intra_train,47,→,right,→,0.6140544998925179,True,21,-,-,-
Y2-S2-207M23,5,429,AS,intra_train,27,↓,down,↓,0.641800400102511,True,21,-,-,-
Y2-S2-207M23,5,430,AS,intra_train,37,→,right,→,1.0533960000611842,True,21,-,-,-
Y2-S2-207M23,5,431,AS,exp,32,↓,down,↓,0.5930403000675142,True,14,0,0,0
Y2-S2-207M23,5,432,AS,exp,42,→,right,→,0.44430069997906685,True,14,0,0,0
Y2-S2-207M23,5,433,AS,exp,48,↑,up,↑,0.5096230998169631,True,14,1,0,0
Y2-S2-207M23,5,434,AS,exp,43,←,left,←,0.4480886999517679,True,13,1,0,0
Y2-S2-207M23,5,435,AS,exp,47,↑,up,↑,0.5736799000296742,True,13,1,0,0
Y2-S2-207M23,5,436,AS,exp,27,←,left,←,0.7027172001544386,True,13,1,0,0
Y2-S2-207M23,5,437,AS,exp,33,→,right,→,0.5192245000507683,True,12,1,0,0
Y2-S2-207M23,5,438,AS,exp,25,↑,up,↑,0.6040047998540103,True,12,1,0,0
Y2-S2-207M23,5,439,AS,exp,26,↓,down,↓,0.39458260009996593,True,12,1,0,0
Y2-S2-207M23,5,440,AS,exp,27,←,left,←,0.5475057999137789,True,11,1,0,0
Y2-S2-207M23,5,441,AS,exp,45,↓,up,↑,0.47740400000475347,False,11,-1,1,1
Y2-S2-207M23,5,442,AS,exp,39,↑,down,↓,0.6862053000368178,False,12,-1,0,1
Y2-S2-207M23,5,443,AS,exp,44,→,right,→,0.4934789000544697,True,13,-1,0,1
Y2-S2-207M23,5,444,AS,exp,35,↓,down,↓,0.5650578001514077,True,13,-1,0,1
Y2-S2-207M23,5,445,AS,exp,25,→,left,←,0.7594220000319183,False,13,-1,0,1
Y2-S2-207M23,5,446,AS,exp,38,↓,down,↓,1.1838019001297653,True,14,-1,0,1
Y2-S2-207M23,5,447,AS,exp,47,→,right,→,0.7381237000226974,True,14,-1,0,1
Y2-S2-207M23,5,448,AS,exp,25,←,left,←,0.45350760011933744,True,14,1,1,2
Y2-S2-207M23,5,449,AS,exp,28,→,right,→,0.4767976999282837,True,13,1,0,2
Y2-S2-207M23,5,450,AS,exp,30,←,left,←,0.4140232999343425,True,13,1,0,2
Y2-S2-207M23,5,451,AS,exp,32,→,right,→,0.3504276000894606,True,13,1,0,2
Y2-S2-207M23,5,452,AS,exp,38,←,left,←,0.45636590011417866,True,12,1,0,2
Y2-S2-207M23,5,453,AS,exp,48,→,left,←,0.4881978998892009,False,12,-1,1,3
Y2-S2-207M23,5,454,AS,exp,36,←,left,←,0.559002400143072,True,13,-1,0,3
Y2-S2-207M23,5,455,AS,exp,40,↑,up,↑,0.7499461001716554,True,13,-1,0,3
Y2-S2-207M23,5,456,AS,exp,40,←,left,←,0.5648090001195669,True,13,1,1,4
Y2-S2-207M23,5,457,AS,exp,49,↑,up,↑,0.7021556999534369,True,12,1,0,4
Y2-S2-207M23,5,458,AS,exp,30,→,left,←,0.5849369000643492,False,12,-1,1,5
Y2-S2-207M23,5,459,AS,exp,38,←,left,←,0.4210366001352668,True,13,-1,0,5
Y2-S2-207M23,5,460,AS,exp,45,↓,down,↓,0.8244919998105615,True,13,-1,0,5
Y2-S2-207M23,5,461,AS,exp,32,←,right,→,0.5421807998791337,False,13,-1,0,5
Y2-S2-207M23,5,462,AS,exp,40,↓,down,↓,0.4771894998848438,True,14,-1,0,5
Y2-S2-207M23,5,463,AS,exp,32,→,right,→,0.5312742001842707,True,14,-1,0,5
Y2-S2-207M23,5,464,AS,exp,35,↓,down,↓,0.5961285000666976,True,14,1,1,6
Y2-S2-207M23,5,465,AS,exp,47,←,left,←,0.4275730000808835,True,13,1,0,6
Y2-S2-207M23,5,466,AS,exp,34,→,right,→,0.5649263998493552,True,13,1,0,6
Y2-S2-207M23,5,467,AS,exp,39,↓,down,↓,0.49952640011906624,True,13,1,0,6
Y2-S2-207M23,5,468,AS,exp,28,←,left,←,0.4243630999699235,True,12,1,0,6
Y2-S2-207M23,5,469,AS,exp,39,↑,up,↑,0.7763292000163347,True,12,1,0,6
Y2-S2-207M23,5,470,AS,exp,41,←,left,←,0.41563639999367297,True,12,1,0,6
Y2-S2-207M23,5,471,AS,exp,31,↑,up,↑,0.6961144998203963,True,11,1,0,6
Y2-S2-207M23,5,472,AS,exp,29,→,right,→,0.4086889000609517,True,11,1,0,6
Y2-S2-207M23,5,473,AS,exp,25,↓,up,↑,0.7857593998778611,False,11,-1,1,7
Y2-S2-207M23,5,474,AS,exp,47,→,right,→,0.4094636000227183,True,12,-1,0,7
Y2-S2-207M23,5,475,AS,exp,28,↓,left,←,0.8249985999427736,False,12,-1,0,7
Y2-S2-207M23,5,476,AS,exp,25,←,right,→,0.6960110000800341,False,13,-1,0,7
Y2-S2-207M23,5,477,AS,exp,26,↓,down,↓,0.6148550000507385,True,14,-1,0,7
Y2-S2-207M23,5,478,AS,exp,49,→,up,↑,0.658835900016129,False,14,-1,0,7
Y2-S2-207M23,5,479,AS,exp,49,←,left,←,0.6306000000331551,True,15,-1,0,7
Y2-S2-207M23,5,480,AS,exp,38,→,right,→,0.906764600193128,True,15,-1,0,7
Y2-S2-207M23,5,481,AS,exp,33,↑,up,↑,0.5330751000437886,True,15,1,1,8
Y2-S2-207M23,5,482,AS,exp,34,←,right,→,0.7310389000922441,False,14,-1,1,9
Y2-S2-207M23,5,483,AS,exp,43,→,up,↑,0.5940767000429332,False,15,-1,0,9
Y2-S2-207M23,5,484,AS,exp,28,↑,up,↑,0.40051249996759,True,16,-1,0,9
Y2-S2-207M23,5,485,AS,exp,35,↓,down,↓,0.49653220013715327,True,16,-1,0,9
Y2-S2-207M23,5,486,AS,exp,37,↑,up,↑,0.537589400075376,True,16,1,1,10
Y2-S2-207M23,5,487,AS,exp,44,←,left,←,0.5629283001180738,True,15,1,0,10
Y2-S2-207M23,5,488,AS,exp,35,↑,up,↑,0.4314856000710279,True,15,1,0,10
Y2-S2-207M23,5,489,AS,exp,35,→,right,→,0.4943240999709815,True,15,1,0,10
Y2-S2-207M23,5,490,AS,exp,31,↑,up,↑,0.5153375000227243,True,14,1,0,10
Y2-S2-207M23,5,491,AS,exp,45,←,left,←,0.5798353999853134,True,14,1,0,10
Y2-S2-207M23,5,492,AS,exp,38,→,right,→,1.3146180000621825,True,14,1,0,10
Y2-S2-207M23,5,493,AS,exp,45,↑,up,↑,0.7334141000173986,True,13,1,0,10
Y2-S2-207M23,5,494,AS,exp,50,↓,up,↑,0.481922899838537,False,13,-1,1,11
Y2-S2-207M23,5,495,AS,exp,44,↑,up,↑,0.5951666000764817,True,14,-1,0,11
Y2-S2-207M23,5,496,AS,exp,38,→,right,→,0.4908222001977265,True,14,-1,0,11
Y2-S2-207M23,5,497,AS,exp,44,↓,down,↓,0.6105691001284868,True,14,1,1,12
Y2-S2-207M23,5,498,AS,exp,25,→,right,→,0.5432802999857813,True,13,1,0,12
Y2-S2-207M23,5,499,AS,exp,48,←,left,←,0.41547370003536344,True,13,1,0,12
Y2-S2-207M23,5,500,AS,exp,49,↓,up,↑,0.7538077000062913,False,13,-1,1,13
Y2-S2-207M23,5,501,AS,exp,31,↑,up,↑,0.6826877999119461,True,14,-1,0,13
Y2-S2-207M23,5,502,AS,exp,35,↓,down,↓,0.40875509986653924,True,14,-1,0,13
Y2-S2-207M23,5,503,AS,exp,50,→,right,→,0.36687459982931614,True,14,1,1,14
Y2-S2-207M23,5,504,AS,exp,40,↑,up,↑,0.6792735999915749,True,13,1,0,14
Y2-S2-207M23,5,505,AS,exp,41,→,right,→,0.41620189999230206,True,13,1,0,14
Y2-S2-207M23,5,506,AS,exp,27,↑,up,↑,0.7007705001160502,True,13,1,0,14
Y2-S2-207M23,5,507,AS,exp,41,↓,no_key,no_letter,-1.0,False,12,-1,1,15
Y2-S2-207M23,5,508,AS,exp,36,↑,up,↑,0.629088900052011,True,13,-1,0,15
Y2-S2-207M23,5,509,AS,exp,26,↓,up,↑,0.5856961000245064,False,13,-1,0,15
Y2-S2-207M23,5,510,AS,exp,48,↑,left,←,0.6550297997891903,False,14,-1,0,15
Y2-S2-207M23,5,511,AS,exp,29,←,left,←,0.5684120999649167,True,15,-1,0,15
Y2-S2-207M23,5,512,AS,exp,45,↑,up,↑,0.48899680003523827,True,15,-1,0,15
Y2-S2-207M23,5,513,AS,exp,41,←,left,←,0.6393564001191407,True,15,1,1,16
Y2-S2-207M23,6,514,PS,intra_train,40,↑,up,↑,0.6197518000844866,True,15,-,-,-
Y2-S2-207M23,6,515,PS,intra_train,27,↓,down,↓,0.5910928999073803,True,15,-,-,-
Y2-S2-207M23,6,516,PS,intra_train,32,→,right,→,0.38379629980772734,True,15,-,-,-
Y2-S2-207M23,6,517,PS,intra_train,46,↑,up,↑,0.4703670002054423,True,15,-,-,-
Y2-S2-207M23,6,518,PS,intra_train,26,→,right,→,0.49109010002575815,True,15,-,-,-
Y2-S2-207M23,6,519,PS,exp,45,↓,up,↑,0.9800378000363708,False,10,-1,0,0
Y2-S2-207M23,6,520,PS,exp,47,→,right,→,0.6238910001702607,True,11,-1,0,0
Y2-S2-207M23,6,521,PS,exp,34,←,left,←,0.4700029001105577,True,11,-1,0,0
Y2-S2-207M23,6,522,PS,exp,33,↑,up,↑,0.5024665999226272,True,11,1,1,1
Y2-S2-207M23,6,523,PS,exp,39,←,right,→,0.4889656000304967,False,10,-1,1,2
Y2-S2-207M23,6,524,PS,exp,26,↑,left,←,0.672244600020349,False,11,-1,0,2
Y2-S2-207M23,6,525,PS,exp,31,↓,down,↓,0.7268940999638289,True,12,-1,0,2
Y2-S2-207M23,6,526,PS,exp,35,↑,up,↑,0.7367183999158442,True,12,-1,0,2
Y2-S2-207M23,6,527,PS,exp,39,←,left,←,0.47491480014286935,True,12,1,1,3
Y2-S2-207M23,6,528,PS,exp,46,↓,right,→,0.8424880998209119,False,11,-1,1,4
Y2-S2-207M23,6,529,PS,exp,31,→,right,→,0.7653628999833018,True,12,-1,0,4
Y2-S2-207M23,6,530,PS,exp,29,←,left,←,0.5893336001317948,True,12,-1,0,4
Y2-S2-207M23,6,531,PS,exp,35,↑,up,↑,0.518354499945417,True,12,1,1,5
Y2-S2-207M23,6,532,PS,exp,45,→,right,→,0.944607200101018,True,11,1,0,5
Y2-S2-207M23,6,533,PS,exp,44,←,left,←,0.50748569983989,True,11,1,0,5
Y2-S2-207M23,6,534,PS,exp,38,→,left,←,0.6388079999014735,False,11,-1,1,6
Y2-S2-207M23,6,535,PS,exp,33,←,left,←,0.4651168000418693,True,12,-1,0,6
Y2-S2-207M23,6,536,PS,exp,31,→,right,→,0.4392124000005424,True,12,-1,0,6
Y2-S2-207M23,6,537,PS,exp,46,↓,down,↓,0.5185077001806349,True,12,1,1,7
Y2-S2-207M23,6,538,PS,exp,35,←,up,↑,0.7782372999936342,False,11,-1,1,8
Y2-S2-207M23,6,539,PS,exp,40,→,right,→,0.5068118998315185,True,12,-1,0,8
Y2-S2-207M23,6,540,PS,exp,31,↓,down,↓,0.7408668000716716,True,12,-1,0,8
Y2-S2-207M23,6,541,PS,exp,40,←,left,←,0.5009846000466496,True,12,1,1,9
Y2-S2-207M23,6,542,PS,exp,50,↑,up,↑,0.5473726000636816,True,11,1,0,9
Y2-S2-207M23,6,543,PS,exp,35,↓,down,↓,0.7557152998633683,True,11,1,0,9
Y2-S2-207M23,6,544,PS,exp,33,↑,right,→,0.6220543999224901,False,11,-1,1,10
Y2-S2-207M23,6,545,PS,exp,25,→,right,→,0.7631236000452191,True,12,-1,0,10
Y2-S2-207M23,6,546,PS,exp,47,↑,up,↑,0.7070777001790702,True,12,-1,0,10
Y2-S2-207M23,6,547,PS,exp,27,←,left,←,0.4288908999878913,True,12,1,1,11
Y2-S2-207M23,6,548,PS,exp,27,→,right,→,0.4877343999687582,True,11,1,0,11
Y2-S2-207M23,6,549,PS,exp,44,←,left,←,0.4051286999601871,True,11,1,0,11
Y2-S2-207M23,6,550,PS,exp,34,→,right,→,0.4876447001006454,True,11,1,0,11
Y2-S2-207M23,6,551,PS,exp,36,↓,down,↓,0.7000406000297517,True,10,1,0,11
Y2-S2-207M23,6,552,PS,exp,47,←,right,→,0.3871479998342693,False,10,-1,1,12
Y2-S2-207M23,6,553,PS,exp,49,↑,right,→,0.6420768999960274,False,11,-1,0,12
Y2-S2-207M23,6,554,PS,exp,46,↓,down,↓,0.8774411000777036,True,12,-1,0,12
Y2-S2-207M23,6,555,PS,exp,31,↑,left,←,0.7865344998426735,False,12,-1,0,12
Y2-S2-207M23,6,556,PS,exp,42,→,up,↑,0.5791253000497818,False,13,-1,0,12
Y2-S2-207M23,6,557,PS,exp,45,←,left,←,0.4898071000352502,True,14,-1,0,12
Y2-S2-207M23,6,558,PS,exp,49,→,right,→,0.4543133999686688,True,14,-1,0,12
Y2-S2-207M23,6,559,PS,exp,34,↓,up,↑,0.8109168000519276,False,14,-1,0,12
Y2-S2-207M23,6,560,PS,exp,50,↑,up,↑,0.5225225000176579,True,15,-1,0,12
Y2-S2-207M23,6,561,PS,exp,34,←,left,←,0.5735778999514878,True,15,-1,0,12
Y2-S2-207M23,6,562,PS,exp,38,↑,down,↓,0.9194747998844832,False,15,-1,0,12
Y2-S2-207M23,6,563,PS,exp,38,↓,down,↓,0.7101646999362856,True,16,-1,0,12
Y2-S2-207M23,6,564,PS,exp,29,→,right,→,0.6064352001994848,True,16,-1,0,12
Y2-S2-207M23,6,565,PS,exp,29,↑,up,↑,0.704781899927184,True,16,1,1,13
Y2-S2-207M23,6,566,PS,exp,27,↓,down,↓,0.5283918001223356,True,15,1,0,13
Y2-S2-207M23,6,567,PS,exp,29,→,right,→,0.4602612000890076,True,15,1,0,13
Y2-S2-207M23,6,568,PS,exp,37,↓,down,↓,0.5352741999085993,True,15,1,0,13
Y2-S2-207M23,6,569,PS,exp,36,←,left,←,0.43678319989703596,True,14,1,0,13
Y2-S2-207M23,6,570,PS,exp,47,↓,down,↓,0.5411547000985593,True,14,1,0,13
Y2-S2-207M23,6,571,PS,exp,34,→,right,→,0.4798191001173109,True,14,1,0,13
Y2-S2-207M23,6,572,PS,exp,36,←,left,←,0.48140010004863143,True,13,1,0,13
Y2-S2-207M23,6,573,PS,exp,40,→,right,→,0.5082219999749213,True,13,1,0,13
Y2-S2-207M23,6,574,PS,exp,46,←,left,←,0.4031979001592845,True,13,1,0,13
Y2-S2-207M23,6,575,PS,exp,36,↑,up,↑,0.5098613000009209,True,12,1,0,13
Y2-S2-207M23,6,576,PS,exp,33,→,right,→,0.4885400999337435,True,12,1,0,13
Y2-S2-207M23,6,577,PS,exp,48,↑,up,↑,0.49470370006747544,True,12,1,0,13
Y2-S2-207M23,6,578,PS,exp,47,→,right,→,0.7942491001449525,True,11,1,0,13
Y2-S2-207M23,6,579,PS,exp,44,←,left,←,0.4267743998207152,True,11,1,0,13
Y2-S2-207M23,6,580,PS,exp,34,→,right,→,0.41581359994597733,True,11,1,0,13
Y2-S2-207M23,6,581,PS,exp,47,↓,down,↓,0.5651622998993844,True,10,1,0,13
Y2-S2-207M23,6,582,PS,exp,35,→,right,→,0.3906129999086261,True,10,1,0,13
Y2-S2-207M23,6,583,PS,exp,47,↓,down,↓,0.6294953001197428,True,10,1,0,13
Y2-S2-207M23,6,584,PS,exp,49,→,right,→,0.384501300053671,True,9,1,0,13
Y2-S2-207M23,6,585,PS,exp,27,↓,down,↓,0.5854707998223603,True,9,1,0,13
Y2-S2-207M23,6,586,PS,exp,31,↑,left,←,0.6783133998978883,False,9,-1,1,14
Y2-S2-207M23,6,587,PS,exp,37,→,right,→,0.8034703999292105,True,10,-1,0,14
Y2-S2-207M23,6,588,PS,exp,39,←,right,→,0.5367083000019193,False,10,-1,0,14
Y2-S2-207M23,6,589,PS,exp,42,↑,up,↑,0.5265341000631452,True,11,-1,0,14
Y2-S2-207M23,6,590,PS,exp,35,←,left,←,0.46872249990701675,True,11,-1,0,14
Y2-S2-207M23,6,591,PS,exp,48,↓,down,↓,0.690718499943614,True,11,1,1,15
Y2-S2-207M23,6,592,PS,exp,37,↑,up,↑,0.6302054000552744,True,10,1,0,15
Y2-S2-207M23,6,593,PS,exp,28,↓,down,↓,0.6001606998033822,True,10,1,0,15
Y2-S2-207M23,6,594,PS,exp,47,↑,up,↑,0.7490897001698613,True,10,1,0,15
Y2-S2-207M23,6,595,PS,exp,49,↓,down,↓,0.5358514999970794,True,9,1,0,15
Y2-S2-207M23,6,596,PS,exp,35,→,right,→,0.4909496000036597,True,9,1,0,15
Y2-S2-207M23,6,597,PS,exp,36,↑,up,↑,0.6270502000115812,True,9,1,0,15
Y2-S2-207M23,6,598,PS,exp,37,→,right,→,0.4933465998619795,True,8,1,0,15
Y2-S2-207M23,6,599,PS,exp,48,↓,down,↓,0.5828025999944657,True,8,1,0,15
Y2-S2-207M23,6,600,PS,exp,28,→,left,←,0.6337707999628037,False,8,-1,1,16
Y2-S2-207M23,7,601,PS,intra_train,49,↑,up,↑,0.5397604999598116,True,15,-,-,-
Y2-S2-207M23,7,602,PS,intra_train,38,→,right,→,0.9490502001717687,True,15,-,-,-
Y2-S2-207M23,7,603,PS,intra_train,44,←,right,→,0.45234789978712797,False,15,-,-,-
Y2-S2-207M23,7,604,PS,intra_train,35,→,right,→,0.6302362000569701,True,15,-,-,-
Y2-S2-207M23,7,605,PS,intra_train,41,↓,down,↓,0.8125513999257237,True,15,-,-,-
Y2-S2-207M23,7,606,PS,exp,31,↑,up,↑,0.42919959989376366,True,10,0,0,0
Y2-S2-207M23,7,607,PS,exp,43,↓,right,→,0.8571110998746008,False,10,-1,0,0
Y2-S2-207M23,7,608,PS,exp,37,↑,up,↑,0.47476259991526604,True,11,-1,0,0
Y2-S2-207M23,7,609,PS,exp,41,←,right,→,0.4449982000514865,False,11,-1,0,0
Y2-S2-207M23,7,610,PS,exp,45,→,right,→,0.4169042999856174,True,12,-1,0,0
Y2-S2-207M23,7,611,PS,exp,48,↑,up,↑,0.561909900046885,True,12,-1,0,0
Y2-S2-207M23,7,612,PS,exp,40,←,left,←,0.4936939000617713,True,12,1,1,1
Y2-S2-207M23,7,613,PS,exp,42,↑,up,↑,0.5225268001668155,True,11,1,0,1
Y2-S2-207M23,7,614,PS,exp,25,←,left,←,0.4395514999050647,True,11,1,0,1
Y2-S2-207M23,7,615,PS,exp,27,↑,up,↑,0.44638939993456006,True,11,1,0,1
Y2-S2-207M23,7,616,PS,exp,43,→,right,→,0.4185729001183063,True,10,1,0,1
Y2-S2-207M23,7,617,PS,exp,34,↓,down,↓,0.5692163000348955,True,10,1,0,1
Y2-S2-207M23,7,618,PS,exp,27,→,right,→,0.38443430000916123,True,10,1,0,1
Y2-S2-207M23,7,619,PS,exp,49,↑,up,↑,0.4578074000310153,True,9,1,0,1
Y2-S2-207M23,7,620,PS,exp,34,←,right,→,0.4940871000289917,False,9,-1,1,2
Y2-S2-207M23,7,621,PS,exp,36,↓,left,←,0.6113726999610662,False,10,-1,0,2
Y2-S2-207M23,7,622,PS,exp,34,↑,up,↑,0.6308508000802249,True,11,-1,0,2
Y2-S2-207M23,7,623,PS,exp,38,↓,up,↑,0.6564362000208348,False,11,-1,0,2
Y2-S2-207M23,7,624,PS,exp,45,→,right,→,0.4118935000151396,True,12,-1,0,2
Y2-S2-207M23,7,625,PS,exp,31,↑,up,↑,0.5562283000908792,True,12,-1,0,2
Y2-S2-207M23,7,626,PS,exp,50,←,left,←,0.44411369995214045,True,12,1,1,3
Y2-S2-207M23,7,627,PS,exp,26,↓,right,→,0.5501621998846531,False,11,-1,1,4
Y2-S2-207M23,7,628,PS,exp,47,↑,left,←,0.5539354998618364,False,12,-1,0,4
Y2-S2-207M23,7,629,PS,exp,28,→,right,→,0.5142035998869687,True,13,-1,0,4
Y2-S2-207M23,7,630,PS,exp,40,←,left,←,0.4229260999709368,True,13,-1,0,4
Y2-S2-207M23,7,631,PS,exp,33,↑,up,↑,0.43053300003521144,True,13,1,1,5
Y2-S2-207M23,7,632,PS,exp,36,→,right,→,0.5815264000557363,True,12,1,0,5
Y2-S2-207M23,7,633,PS,exp,25,↑,up,↑,0.5067272998858243,True,12,1,0,5
Y2-S2-207M23,7,634,PS,exp,40,↓,down,↓,0.5530693999025971,True,12,1,0,5
Y2-S2-207M23,7,635,PS,exp,47,←,left,←,0.5091947000473738,True,11,1,0,5
Y2-S2-207M23,7,636,PS,exp,31,→,right,→,0.5263118001166731,True,11,1,0,5
Y2-S2-207M23,7,637,PS,exp,33,↓,down,↓,0.6935167000629008,True,11,1,0,5
Y2-S2-207M23,7,638,PS,exp,50,←,left,←,0.4687135999556631,True,10,1,0,5
Y2-S2-207M23,7,639,PS,exp,29,↓,right,→,0.5691689001396298,False,10,-1,1,6
Y2-S2-207M23,7,640,PS,exp,50,←,left,←,0.46255130018107593,True,11,-1,0,6
Y2-S2-207M23,7,641,PS,exp,39,→,right,→,0.5876029999926686,True,11,-1,0,6
Y2-S2-207M23,7,642,PS,exp,29,←,right,→,0.6965632999781519,False,11,-1,0,6
Y2-S2-207M23,7,643,PS,exp,41,→,down,↓,0.9722710999194533,False,12,-1,0,6
Y2-S2-207M23,7,644,PS,exp,36,←,left,←,0.5188502001110464,True,13,-1,0,6
Y2-S2-207M23,7,645,PS,exp,32,↑,up,↑,0.5194027000106871,True,13,-1,0,6
Y2-S2-207M23,7,646,PS,exp,28,←,left,←,0.9337740000337362,True,13,1,1,7
Y2-S2-207M23,7,647,PS,exp,26,→,right,→,0.4514725001063198,True,12,1,0,7
Y2-S2-207M23,7,648,PS,exp,42,←,left,←,0.5118537000380456,True,12,1,0,7
Y2-S2-207M23,7,649,PS,exp,41,→,down,↓,0.9488694998435676,False,12,-1,1,8
Y2-S2-207M23,7,650,PS,exp,31,←,left,←,0.7350425000768155,True,13,-1,0,8
Y2-S2-207M23,7,651,PS,exp,42,→,no_key,no_letter,-1.0,False,13,-1,0,8
Y2-S2-207M23,7,652,PS,exp,41,↓,up,↑,0.5094405999407172,False,14,-1,0,8
Y2-S2-207M23,7,653,PS,exp,30,←,left,←,0.43027019989676774,True,15,-1,0,8
Y2-S2-207M23,7,654,PS,exp,44,↓,down,↓,0.6097254999913275,True,15,-1,0,8
Y2-S2-207M23,7,655,PS,exp,35,→,right,→,0.38423189986497164,True,15,1,1,9
Y2-S2-207M23,7,656,PS,exp,29,↓,down,↓,0.5389411998912692,True,14,1,0,9
Y2-S2-207M23,7,657,PS,exp,47,→,right,→,0.53379140002653,True,14,1,0,9
Y2-S2-207M23,7,658,PS,exp,45,↑,up,↑,0.49758379999548197,True,14,1,0,9
Y2-S2-207M23,7,659,PS,exp,31,←,left,←,0.8125386000610888,True,13,1,0,9
Y2-S2-207M23,7,660,PS,exp,36,↑,left,←,0.8700788000132889,False,13,-1,1,10
Y2-S2-207M23,7,661,PS,exp,40,→,right,→,0.5811991000082344,True,14,-1,0,10
Y2-S2-207M23,7,662,PS,exp,37,←,left,←,0.47611299995332956,True,14,-1,0,10
Y2-S2-207M23,7,663,PS,exp,40,↑,up,↑,0.43425299995578825,True,14,1,1,11
Y2-S2-207M23,7,664,PS,exp,47,→,right,→,0.6864565999712795,True,13,1,0,11
Y2-S2-207M23,7,665,PS,exp,38,←,left,←,0.7374631001148373,True,13,1,0,11
Y2-S2-207M23,7,666,PS,exp,29,↑,up,↑,0.5805160000454634,True,13,1,0,11
Y2-S2-207M23,7,667,PS,exp,34,→,right,→,0.5848409999161959,True,12,1,0,11
Y2-S2-207M23,7,668,PS,exp,29,↓,left,←,0.6111024999991059,False,12,-1,1,12
Y2-S2-207M23,7,669,PS,exp,30,↑,up,↑,0.4920943998731673,True,13,-1,0,12
Y2-S2-207M23,7,670,PS,exp,32,←,left,←,0.4221125999465585,True,13,-1,0,12
Y2-S2-207M23,7,671,PS,exp,28,→,right,→,1.4853421000298113,True,13,1,1,13
Y2-S2-207M23,7,672,PS,exp,48,↑,up,↑,0.4702834999188781,True,12,1,0,13
Y2-S2-207M23,7,673,PS,exp,32,↓,up,↑,0.7952379998750985,False,12,-1,1,14
Y2-S2-207M23,7,674,PS,exp,48,→,right,→,0.4862573000136763,True,13,-1,0,14
Y2-S2-207M23,7,675,PS,exp,47,↓,down,↓,0.6062584999017417,True,13,-1,0,14
Y2-S2-207M23,7,676,PS,exp,32,↑,right,→,0.7142085998784751,False,13,-1,0,14
Y2-S2-207M23,7,677,PS,exp,46,←,left,←,0.45506900013424456,True,14,-1,0,14
Y2-S2-207M23,7,678,PS,exp,34,↓,up,↑,0.4291836000047624,False,14,-1,0,14
Y2-S2-207M23,7,679,PS,exp,33,←,down,↓,0.883238899987191,False,15,-1,0,14
Y2-S2-207M23,7,680,PS,exp,41,↑,up,↑,0.5666967001743615,True,16,-1,0,14
Y2-S2-207M23,7,681,PS,exp,40,←,left,←,0.44353129994124174,True,16,-1,0,14
Y2-S2-207M23,7,682,PS,exp,39,↓,down,↓,0.5980201000347733,True,16,1,1,15
Y2-S2-207M23,7,683,PS,exp,33,←,left,←,0.4930552998557687,True,15,1,0,15
Y2-S2-207M23,7,684,PS,exp,31,→,right,→,0.6250255000777543,True,15,1,0,15
Y2-S2-207M23,7,685,PS,exp,47,↓,down,↓,0.697004800196737,True,15,1,0,15
Y2-S2-207M23,7,686,PS,exp,48,←,left,←,0.41295089991763234,True,14,1,0,15
Y2-S2-207M23,7,687,PS,exp,26,↓,right,→,0.9323233999311924,False,14,-1,1,16
Y2-S2-207M23,8,688,AS,intra_train,33,↑,up,↑,0.65076470002532,True,21,-,-,-
Y2-S2-207M23,8,689,AS,intra_train,47,↓,down,↓,0.7177655999548733,True,21,-,-,-
Y2-S2-207M23,8,690,AS,intra_train,50,→,right,→,0.7654340998269618,True,21,-,-,-
Y2-S2-207M23,8,691,AS,intra_train,29,↓,down,↓,0.5502881000284106,True,21,-,-,-
Y2-S2-207M23,8,692,AS,intra_train,47,←,right,→,0.7171867999713868,False,21,-,-,-
Y2-S2-207M23,8,693,AS,exp,45,→,left,←,0.7979524999391288,False,14,-1,0,0
Y2-S2-207M23,8,694,AS,exp,31,↓,down,↓,0.6969997000414878,True,15,-1,0,0
Y2-S2-207M23,8,695,AS,exp,33,→,right,→,0.7294098001439124,True,15,-1,0,0
Y2-S2-207M23,8,696,AS,exp,26,↑,down,↓,1.0325884001795202,False,15,-1,0,0
Y2-S2-207M23,8,697,AS,exp,32,→,right,→,0.5048535000532866,True,16,-1,0,0
Y2-S2-207M23,8,698,AS,exp,25,↑,up,↑,0.5687796999700367,True,16,-1,0,0
Y2-S2-207M23,8,699,AS,exp,31,→,right,→,0.6514326999895275,True,16,1,1,1
Y2-S2-207M23,8,700,AS,exp,33,←,right,→,0.7055795998312533,False,15,-1,1,2
Y2-S2-207M23,8,701,AS,exp,39,↓,down,↓,0.5490806000307202,True,16,-1,0,2
Y2-S2-207M23,8,702,AS,exp,30,→,right,→,0.5293700001202524,True,16,-1,0,2
Y2-S2-207M23,8,703,AS,exp,33,←,left,←,0.6026454998645931,True,16,1,1,3
Y2-S2-207M23,8,704,AS,exp,39,↓,down,↓,0.5522517000790685,True,15,1,0,3
Y2-S2-207M23,8,705,AS,exp,48,→,right,→,0.5592573001049459,True,15,1,0,3
Y2-S2-207M23,8,706,AS,exp,36,↑,up,↑,0.5405377999413759,True,15,1,0,3
Y2-S2-207M23,8,707,AS,exp,40,←,left,←,0.5231492000166327,True,14,1,0,3
Y2-S2-207M23,8,708,AS,exp,33,↓,down,↓,0.5414237999357283,True,14,1,0,3
Y2-S2-207M23,8,709,AS,exp,30,↑,up,↑,1.345992499962449,True,14,1,0,3
Y2-S2-207M23,8,710,AS,exp,32,→,right,→,0.5216618000995368,True,13,1,0,3
Y2-S2-207M23,8,711,AS,exp,32,←,left,←,0.7055172000546008,True,13,1,0,3
Y2-S2-207M23,8,712,AS,exp,34,↓,down,↓,0.7919058999978006,True,13,1,0,3
Y2-S2-207M23,8,713,AS,exp,42,↑,up,↑,1.0688114000950009,True,12,1,0,3
Y2-S2-207M23,8,714,AS,exp,44,↓,down,↓,0.6090506000909954,True,12,1,0,3
Y2-S2-207M23,8,715,AS,exp,31,→,right,→,0.7308345001656562,True,12,1,0,3
Y2-S2-207M23,8,716,AS,exp,31,↑,down,↓,0.7434628000482917,False,11,-1,1,4
Y2-S2-207M23,8,717,AS,exp,26,←,left,←,0.6952958998735994,True,12,-1,0,4
Y2-S2-207M23,8,718,AS,exp,45,↓,down,↓,0.663340900093317,True,12,-1,0,4
Y2-S2-207M23,8,719,AS,exp,26,↑,up,↑,0.9649082999676466,True,12,1,1,5
Y2-S2-207M23,8,720,AS,exp,37,←,left,←,0.5023572999052703,True,11,1,0,5
Y2-S2-207M23,8,721,AS,exp,32,↓,right,→,0.7660519999917597,False,11,-1,1,6
Y2-S2-207M23,8,722,AS,exp,37,←,left,←,0.5566228998359293,True,12,-1,0,6
Y2-S2-207M23,8,723,AS,exp,37,→,right,→,0.6432165999431163,True,12,-1,0,6
Y2-S2-207M23,8,724,AS,exp,34,←,down,↓,0.6872080999892205,False,12,-1,0,6
Y2-S2-207M23,8,725,AS,exp,33,↓,up,↑,0.5243746000342071,False,13,-1,0,6
Y2-S2-207M23,8,726,AS,exp,40,↑,up,↑,0.4490799999330193,True,14,-1,0,6
Y2-S2-207M23,8,727,AS,exp,29,←,left,←,0.5464149999897927,True,14,-1,0,6
Y2-S2-207M23,8,728,AS,exp,25,→,right,→,0.6646909001283348,True,14,1,1,7
Y2-S2-207M23,8,729,AS,exp,43,←,left,←,0.4527359001804143,True,13,1,0,7
Y2-S2-207M23,8,730,AS,exp,29,↑,up,↑,0.4604772001039237,True,13,1,0,7
Y2-S2-207M23,8,731,AS,exp,47,↓,down,↓,0.6171790999360383,True,13,1,0,7
Y2-S2-207M23,8,732,AS,exp,43,↑,up,↑,0.6512293999549001,True,12,1,0,7
Y2-S2-207M23,8,733,AS,exp,47,↓,left,←,0.7835804000496864,False,12,-1,1,8
Y2-S2-207M23,8,734,AS,exp,31,→,right,→,0.6888548999559134,True,13,-1,0,8
Y2-S2-207M23,8,735,AS,exp,27,↑,up,↑,0.6097659999504685,True,13,-1,0,8
Y2-S2-207M23,8,736,AS,exp,35,→,left,←,0.6911806999705732,False,13,-1,0,8
Y2-S2-207M23,8,737,AS,exp,48,←,left,←,0.49965979997068644,True,14,-1,0,8
Y2-S2-207M23,8,738,AS,exp,47,↑,up,↑,0.7216445000376552,True,14,-1,0,8
Y2-S2-207M23,8,739,AS,exp,50,→,right,→,0.4600734000559896,True,14,1,1,9
Y2-S2-207M23,8,740,AS,exp,31,↓,down,↓,0.661890699993819,True,13,1,0,9
Y2-S2-207M23,8,741,AS,exp,30,↑,up,↑,0.6365658999420702,True,13,1,0,9
Y2-S2-207M23,8,742,AS,exp,48,→,right,→,1.1022558000404388,True,13,1,0,9
Y2-S2-207M23,8,743,AS,exp,50,↑,up,↑,0.48533840011805296,True,12,1,0,9
Y2-S2-207M23,8,744,AS,exp,39,↓,down,↓,0.3751860000193119,True,12,1,0,9
Y2-S2-207M23,8,745,AS,exp,42,←,left,←,0.43757650000043213,True,12,1,0,9
Y2-S2-207M23,8,746,AS,exp,33,↑,up,↑,0.5815326001029462,True,11,1,0,9
Y2-S2-207M23,8,747,AS,exp,39,←,left,←,0.5578877998050302,True,11,1,0,9
Y2-S2-207M23,8,748,AS,exp,34,→,right,→,0.4107976001687348,True,11,1,0,9
Y2-S2-207M23,8,749,AS,exp,25,←,down,↓,0.7749924999661744,False,10,-1,1,10
Y2-S2-207M23,8,750,AS,exp,36,→,right,→,0.4237327000591904,True,11,-1,0,10
Y2-S2-207M23,8,751,AS,exp,33,↓,right,→,0.7797474998515099,False,11,-1,0,10
Y2-S2-207M23,8,752,AS,exp,31,↑,up,↑,0.3903413999360055,True,12,-1,0,10
Y2-S2-207M23,8,753,AS,exp,39,←,left,←,0.5401222999207675,True,12,-1,0,10
Y2-S2-207M23,8,754,AS,exp,44,→,right,→,0.7966153000015765,True,12,1,1,11
Y2-S2-207M23,8,755,AS,exp,50,↑,up,↑,0.6136363998521119,True,11,1,0,11
Y2-S2-207M23,8,756,AS,exp,45,←,left,←,0.7245476001407951,True,11,1,0,11
Y2-S2-207M23,8,757,AS,exp,35,↑,up,↑,0.7681008998770267,True,11,1,0,11
Y2-S2-207M23,8,758,AS,exp,43,↓,down,↓,0.577403400093317,True,10,1,0,11
Y2-S2-207M23,8,759,AS,exp,32,←,left,←,0.6447869001422077,True,10,1,0,11
Y2-S2-207M23,8,760,AS,exp,36,↓,down,↓,0.46098090009763837,True,10,1,0,11
Y2-S2-207M23,8,761,AS,exp,49,←,right,→,0.5058381999842823,False,9,-1,1,12
Y2-S2-207M23,8,762,AS,exp,28,→,up,↑,0.6193463001400232,False,10,-1,0,12
Y2-S2-207M23,8,763,AS,exp,42,↑,down,↓,0.7569112998899072,False,11,-1,0,12
Y2-S2-207M23,8,764,AS,exp,40,↓,left,←,0.67952960007824,False,12,-1,0,12
Y2-S2-207M23,8,765,AS,exp,34,→,right,→,0.614083900116384,True,13,-1,0,12
Y2-S2-207M23,8,766,AS,exp,37,↓,down,↓,0.5949977000709623,True,13,-1,0,12
Y2-S2-207M23,8,767,AS,exp,39,←,left,←,0.5231397999450564,True,13,1,1,13
Y2-S2-207M23,8,768,AS,exp,42,↑,up,↑,0.48357379995286465,True,12,1,0,13
Y2-S2-207M23,8,769,AS,exp,37,→,right,→,0.7251397999934852,True,12,1,0,13
Y2-S2-207M23,8,770,AS,exp,45,←,down,↓,0.5977821999695152,False,12,-1,1,14
Y2-S2-207M23,8,771,AS,exp,39,↑,up,↑,0.45267140003852546,True,13,-1,0,14
Y2-S2-207M23,8,772,AS,exp,45,←,left,←,0.483166899997741,True,13,-1,0,14
Y2-S2-207M23,8,773,AS,exp,28,↑,up,↑,0.5348638000432402,True,13,1,1,15
Y2-S2-207M23,8,774,AS,exp,30,↓,left,←,0.6549555000383407,False,12,-1,1,16
