PART_ID,Block_no,Trial_no,Block_type,Trial_type,CSI,Stim_letter,Key_pressed,letter_choose,Rt,Corr,Stimulus Time,Level,Reversal,Revs_count
Y2-S2-214K21,1,1,PS,train,30,→,right,→,0.6685723999980837,True,30,-,-,-
Y2-S2-214K21,1,2,PS,train,33,↑,up,↑,0.5338118999497965,True,30,-,-,-
Y2-S2-214K21,1,3,PS,train,26,→,right,→,0.40053009998518974,True,30,-,-,-
Y2-S2-214K21,1,4,PS,train,50,↑,down,↓,1.4934504999546334,False,30,-,-,-
Y2-S2-214K21,1,5,PS,train,50,↓,down,↓,1.9198083999799564,True,30,-,-,-
Y2-S2-214K21,1,6,PS,train,40,↑,up,↑,0.5670367999700829,True,30,-,-,-
Y2-S2-214K21,1,7,PS,train,29,→,right,→,0.53400040010456,True,30,-,-,-
Y2-S2-214K21,1,8,PS,train,31,←,right,→,0.5003920000744984,False,30,-,-,-
Y2-S2-214K21,1,9,PS,train,47,→,right,→,0.5170644000172615,True,30,-,-,-
Y2-S2-214K21,1,10,PS,train,29,←,left,←,0.5172307000029832,True,30,-,-,-
Y2-S2-214K21,2,11,AS,train,25,↑,down,↓,0.5671724000712857,False,45,-,-,-
Y2-S2-214K21,2,12,AS,train,42,←,left,←,0.5671129999682307,True,45,-,-,-
Y2-S2-214K21,2,13,AS,train,45,→,right,→,0.48433850007131696,True,45,-,-,-
Y2-S2-214K21,2,14,AS,train,48,↓,down,↓,0.5840757000260055,True,45,-,-,-
Y2-S2-214K21,2,15,AS,train,41,←,left,←,0.6170681000221521,True,45,-,-,-
Y2-S2-214K21,2,16,AS,train,50,↑,down,↓,0.650480099953711,False,45,-,-,-
Y2-S2-214K21,2,17,AS,train,35,→,right,→,0.7012693999568,True,45,-,-,-
Y2-S2-214K21,2,18,AS,train,48,↑,up,↑,0.5505378000671044,True,45,-,-,-
Y2-S2-214K21,2,19,AS,train,36,→,right,→,0.550614400068298,True,45,-,-,-
Y2-S2-214K21,2,20,AS,train,31,↑,up,↑,0.6341881999978796,True,45,-,-,-
Y2-S2-214K21,-,21,PS,adaptive,34,→,right,→,0.5067876999964938,True,10,0,0,0
Y2-S2-214K21,-,22,PS,adaptive,27,↓,down,↓,0.6099634000565857,True,10,0,0,0
Y2-S2-214K21,-,23,PS,adaptive,32,↑,up,↑,0.5128430998884141,True,10,1,0,0
Y2-S2-214K21,-,24,PS,adaptive,30,→,right,→,0.5973705000942573,True,9,1,0,0
Y2-S2-214K21,-,25,PS,adaptive,35,←,left,←,0.4720780000789091,True,9,1,0,0
Y2-S2-214K21,-,26,PS,adaptive,31,↓,down,↓,0.5300031999358907,True,9,1,0,0
Y2-S2-214K21,-,27,PS,adaptive,28,→,right,→,0.4882458000211045,True,8,1,0,0
Y2-S2-214K21,-,28,PS,adaptive,25,↓,down,↓,0.7928467000601813,True,8,1,0,0
Y2-S2-214K21,-,29,PS,adaptive,37,↑,down,↓,0.7242567000212148,False,8,-1,1,1
Y2-S2-214K21,-,30,PS,adaptive,27,→,right,→,0.5212242000270635,True,9,-1,0,1
Y2-S2-214K21,-,31,PS,adaptive,44,↓,down,↓,0.5211346000432968,True,9,-1,0,1
Y2-S2-214K21,-,32,PS,adaptive,50,←,left,←,0.5395064000040293,True,9,1,1,2
Y2-S2-214K21,-,33,PS,adaptive,35,→,right,→,0.6091707999585196,True,8,1,0,2
Y2-S2-214K21,-,34,PS,adaptive,45,↓,down,↓,0.6189636000199243,True,8,1,0,2
Y2-S2-214K21,-,35,PS,adaptive,50,↑,up,↑,0.496826000045985,True,8,1,0,2
Y2-S2-214K21,-,36,PS,adaptive,32,→,right,→,0.5816477999323979,True,7,1,0,2
Y2-S2-214K21,-,37,PS,adaptive,43,↓,down,↓,0.5012298999354243,True,7,1,0,2
Y2-S2-214K21,-,38,PS,adaptive,48,↑,up,↑,0.6336754000512883,True,7,1,0,2
Y2-S2-214K21,-,39,PS,adaptive,49,←,right,→,0.5080921000335366,False,6,-1,1,3
Y2-S2-214K21,-,40,PS,adaptive,35,→,right,→,0.5146507000317797,True,7,-1,0,3
Y2-S2-214K21,-,41,PS,adaptive,28,↓,down,↓,0.5048499999102205,True,7,-1,0,3
Y2-S2-214K21,-,42,PS,adaptive,40,→,right,→,0.5394768000114709,True,7,1,1,4
Y2-S2-214K21,-,43,AS,adaptive,50,↓,down,↓,0.594001300050877,True,20,0,0,0
Y2-S2-214K21,-,44,AS,adaptive,35,→,right,→,0.45030529994983226,True,20,0,0,0
Y2-S2-214K21,-,45,AS,adaptive,49,↑,up,↑,0.6471315999515355,True,20,1,0,0
Y2-S2-214K21,-,46,AS,adaptive,34,↓,down,↓,0.48715129995252937,True,19,1,0,0
Y2-S2-214K21,-,47,AS,adaptive,28,→,right,→,0.43373110005632043,True,19,1,0,0
Y2-S2-214K21,-,48,AS,adaptive,34,↑,up,↑,0.570430799969472,True,19,1,0,0
Y2-S2-214K21,-,49,AS,adaptive,26,→,right,→,0.4893550999695435,True,18,1,0,0
Y2-S2-214K21,-,50,AS,adaptive,38,↓,down,↓,0.5655074999667704,True,18,1,0,0
Y2-S2-214K21,-,51,AS,adaptive,30,←,left,←,0.5518967999378219,True,18,1,0,0
Y2-S2-214K21,-,52,AS,adaptive,36,→,right,→,0.7385932999895886,True,17,1,0,0
Y2-S2-214K21,-,53,AS,adaptive,45,↑,up,↑,0.6618672999320552,True,17,1,0,0
Y2-S2-214K21,-,54,AS,adaptive,47,←,left,←,0.5576889999210835,True,17,1,0,0
Y2-S2-214K21,-,55,AS,adaptive,40,→,left,←,0.9146900000050664,False,16,-1,1,1
Y2-S2-214K21,-,56,AS,adaptive,48,←,left,←,0.5043339000549167,True,17,-1,0,1
Y2-S2-214K21,-,57,AS,adaptive,26,→,left,←,0.849655200028792,False,17,-1,0,1
Y2-S2-214K21,-,58,AS,adaptive,40,←,left,←,0.4863689999328926,True,18,-1,0,1
Y2-S2-214K21,-,59,AS,adaptive,45,↓,down,↓,0.731547600007616,True,18,-1,0,1
Y2-S2-214K21,-,60,AS,adaptive,40,→,right,→,0.5707020000554621,True,18,1,1,2
Y2-S2-214K21,-,61,AS,adaptive,31,←,left,←,0.5234957999782637,True,17,1,0,2
Y2-S2-214K21,-,62,AS,adaptive,32,↑,up,↑,0.5345354999881238,True,17,1,0,2
Y2-S2-214K21,-,63,AS,adaptive,41,→,right,→,0.6248247999465093,True,17,1,0,2
Y2-S2-214K21,-,64,AS,adaptive,30,←,left,←,0.5723925000056624,True,16,1,0,2
Y2-S2-214K21,-,65,AS,adaptive,46,→,right,→,0.541440200060606,True,16,1,0,2
Y2-S2-214K21,-,66,AS,adaptive,33,↑,up,↑,0.8812883999198675,True,16,1,0,2
Y2-S2-214K21,-,67,AS,adaptive,44,→,right,→,0.6048630999866873,True,15,1,0,2
Y2-S2-214K21,-,68,AS,adaptive,34,↑,up,↑,0.6425442999461666,True,15,1,0,2
Y2-S2-214K21,-,69,AS,adaptive,42,→,right,→,0.43063079996500164,True,15,1,0,2
Y2-S2-214K21,-,70,AS,adaptive,36,↑,up,↑,0.4608390999492258,True,14,1,0,2
Y2-S2-214K21,-,71,AS,adaptive,37,↓,down,↓,0.5328296999214217,True,14,1,0,2
Y2-S2-214K21,-,72,AS,adaptive,44,←,right,→,0.6472859000787139,False,14,-1,1,3
Y2-S2-214K21,-,73,AS,adaptive,37,↑,up,↑,0.535619700094685,True,15,-1,0,3
Y2-S2-214K21,-,74,AS,adaptive,36,↓,down,↓,0.5369561999104917,True,15,-1,0,3
Y2-S2-214K21,-,75,AS,adaptive,26,←,left,←,0.5401405999436975,True,15,1,1,4
Y2-S2-214K21,1,76,PS,intra_train,32,→,right,→,0.5028231999604031,True,9,-,-,-
Y2-S2-214K21,1,77,PS,intra_train,42,↑,left,←,0.8132762999739498,False,9,-,-,-
Y2-S2-214K21,1,78,PS,intra_train,47,↓,down,↓,0.5120284999720752,True,9,-,-,-
Y2-S2-214K21,1,79,PS,intra_train,39,→,right,→,0.43237779999617487,True,9,-,-,-
Y2-S2-214K21,1,80,PS,intra_train,27,↓,up,↑,0.6598771000280976,False,9,-,-,-
Y2-S2-214K21,1,81,PS,exp,33,↑,right,→,0.7660646999720484,False,6,-1,0,0
Y2-S2-214K21,1,82,PS,exp,37,↓,down,↓,0.5272825999418274,True,7,-1,0,0
Y2-S2-214K21,1,83,PS,exp,27,↑,right,→,0.5449930999893695,False,7,-1,0,0
Y2-S2-214K21,1,84,PS,exp,45,←,left,←,0.5661287000402808,True,8,-1,0,0
Y2-S2-214K21,1,85,PS,exp,28,↓,down,↓,0.5723008000059053,True,8,-1,0,0
Y2-S2-214K21,1,86,PS,exp,48,↑,up,↑,0.6946385999908671,True,8,1,1,1
Y2-S2-214K21,1,87,PS,exp,38,→,right,→,0.48593660001643,True,7,1,0,1
Y2-S2-214K21,1,88,PS,exp,49,↑,down,↓,0.8688087000045925,False,7,-1,1,2
Y2-S2-214K21,1,89,PS,exp,35,↓,down,↓,0.5662789000198245,True,8,-1,0,2
Y2-S2-214K21,1,90,PS,exp,37,→,right,→,0.42542470002081245,True,8,-1,0,2
Y2-S2-214K21,1,91,PS,exp,33,←,right,→,0.6293563999934122,False,8,-1,0,2
Y2-S2-214K21,1,92,PS,exp,35,↑,up,↑,0.557814999949187,True,9,-1,0,2
Y2-S2-214K21,1,93,PS,exp,43,↓,down,↓,0.5745012999977916,True,9,-1,0,2
Y2-S2-214K21,1,94,PS,exp,49,←,left,←,0.5089882999891415,True,9,1,1,3
Y2-S2-214K21,1,95,PS,exp,44,↓,down,↓,0.6200822000391781,True,8,1,0,3
Y2-S2-214K21,1,96,PS,exp,29,↑,up,↑,0.4662513999501243,True,8,1,0,3
Y2-S2-214K21,1,97,PS,exp,29,←,right,→,0.5777938000392169,False,8,-1,1,4
Y2-S2-214K21,1,98,PS,exp,41,→,right,→,0.5218962000217289,True,9,-1,0,4
Y2-S2-214K21,1,99,PS,exp,48,←,left,←,0.48861120000947267,True,9,-1,0,4
Y2-S2-214K21,1,100,PS,exp,45,↑,up,↑,0.5110577000305057,True,9,1,1,5
Y2-S2-214K21,1,101,PS,exp,29,↓,up,↑,0.6298683000495657,False,8,-1,1,6
Y2-S2-214K21,1,102,PS,exp,43,→,right,→,0.5077728000469506,True,9,-1,0,6
Y2-S2-214K21,1,103,PS,exp,30,↓,down,↓,0.6280042000580579,True,9,-1,0,6
Y2-S2-214K21,1,104,PS,exp,43,→,right,→,0.4629980999743566,True,9,1,1,7
Y2-S2-214K21,1,105,PS,exp,40,↓,left,←,0.8426292999647558,False,8,-1,1,8
Y2-S2-214K21,1,106,PS,exp,30,←,left,←,0.6064136000350118,True,9,-1,0,8
Y2-S2-214K21,1,107,PS,exp,46,↑,up,↑,0.6664596000919119,True,9,-1,0,8
Y2-S2-214K21,1,108,PS,exp,48,→,right,→,0.4424081000033766,True,9,1,1,9
Y2-S2-214K21,1,109,PS,exp,25,←,left,←,0.5269221999915317,True,8,1,0,9
Y2-S2-214K21,1,110,PS,exp,41,→,right,→,0.4786084999796003,True,8,1,0,9
Y2-S2-214K21,1,111,PS,exp,38,↑,up,↑,0.5090515000047162,True,8,1,0,9
Y2-S2-214K21,1,112,PS,exp,42,→,right,→,0.44117470004130155,True,7,1,0,9
Y2-S2-214K21,1,113,PS,exp,43,←,right,→,0.711648799944669,False,7,-1,1,10
Y2-S2-214K21,1,114,PS,exp,43,→,right,→,0.8644768999656662,True,8,-1,0,10
Y2-S2-214K21,1,115,PS,exp,31,←,left,←,0.5646559000015259,True,8,-1,0,10
Y2-S2-214K21,1,116,PS,exp,44,↑,left,←,0.6264264000346884,False,8,-1,0,10
Y2-S2-214K21,1,117,PS,exp,31,↓,down,↓,0.6345430000219494,True,9,-1,0,10
Y2-S2-214K21,1,118,PS,exp,32,↑,up,↑,0.5060783000662923,True,9,-1,0,10
Y2-S2-214K21,1,119,PS,exp,38,←,left,←,0.5889512000139803,True,9,1,1,11
Y2-S2-214K21,1,120,PS,exp,43,↑,up,↑,0.5942213000962511,True,8,1,0,11
Y2-S2-214K21,1,121,PS,exp,27,→,left,←,0.5528332000831142,False,8,-1,1,12
Y2-S2-214K21,1,122,PS,exp,38,↓,down,↓,0.5008573000086471,True,9,-1,0,12
Y2-S2-214K21,1,123,PS,exp,26,→,right,→,0.5092940999893472,True,9,-1,0,12
Y2-S2-214K21,1,124,PS,exp,30,←,left,←,0.5231967000290751,True,9,1,1,13
Y2-S2-214K21,1,125,PS,exp,40,↑,up,↑,0.5353347000200301,True,8,1,0,13
Y2-S2-214K21,1,126,PS,exp,30,←,left,←,0.5093000999186188,True,8,1,0,13
Y2-S2-214K21,1,127,PS,exp,44,→,right,→,0.5576037000864744,True,8,1,0,13
Y2-S2-214K21,1,128,PS,exp,42,↑,right,→,0.6191561999730766,False,7,-1,1,14
Y2-S2-214K21,1,129,PS,exp,27,←,left,←,0.6540869000600651,True,8,-1,0,14
Y2-S2-214K21,1,130,PS,exp,40,↓,down,↓,0.7325000999262556,True,8,-1,0,14
Y2-S2-214K21,1,131,PS,exp,34,↑,down,↓,0.6495342999696732,False,8,-1,0,14
Y2-S2-214K21,1,132,PS,exp,32,↓,down,↓,0.6332810000749305,True,9,-1,0,14
Y2-S2-214K21,1,133,PS,exp,50,←,left,←,0.46759309992194176,True,9,-1,0,14
Y2-S2-214K21,1,134,PS,exp,49,↑,up,↑,0.5309381999541074,True,9,1,1,15
Y2-S2-214K21,1,135,PS,exp,50,↓,down,↓,0.5492631000233814,True,8,1,0,15
Y2-S2-214K21,1,136,PS,exp,39,←,down,↓,0.6029506000922993,False,8,-1,1,16
Y2-S2-214K21,2,137,AS,intra_train,35,↑,up,↑,0.6420622000005096,True,21,-,-,-
Y2-S2-214K21,2,138,AS,intra_train,43,←,left,←,0.5815692000323907,True,21,-,-,-
Y2-S2-214K21,2,139,AS,intra_train,50,↑,no_key,no_letter,-1.0,False,21,-,-,-
Y2-S2-214K21,2,140,AS,intra_train,42,←,left,←,0.6804964999901131,True,21,-,-,-
Y2-S2-214K21,2,141,AS,intra_train,28,↑,up,↑,0.6684168999781832,True,21,-,-,-
Y2-S2-214K21,2,142,AS,exp,39,→,left,←,0.6653581999707967,False,14,-1,0,0
Y2-S2-214K21,2,143,AS,exp,35,↑,up,↑,0.5039774000179023,True,15,-1,0,0
Y2-S2-214K21,2,144,AS,exp,35,→,right,→,0.6024523999076337,True,15,-1,0,0
Y2-S2-214K21,2,145,AS,exp,30,↑,up,↑,0.5782995000481606,True,15,1,1,1
Y2-S2-214K21,2,146,AS,exp,25,→,right,→,0.5127221000147983,True,14,1,0,1
Y2-S2-214K21,2,147,AS,exp,27,↑,up,↑,0.46352549991570413,True,14,1,0,1
Y2-S2-214K21,2,148,AS,exp,39,→,left,←,0.45710140001028776,False,14,-1,1,2
Y2-S2-214K21,2,149,AS,exp,48,←,left,←,1.2574799000285566,True,15,-1,0,2
Y2-S2-214K21,2,150,AS,exp,43,→,left,←,0.4766187999630347,False,15,-1,0,2
Y2-S2-214K21,2,151,AS,exp,42,↓,down,↓,0.6995367000345141,True,16,-1,0,2
Y2-S2-214K21,2,152,AS,exp,35,←,left,←,0.48476759996265173,True,16,-1,0,2
Y2-S2-214K21,2,153,AS,exp,39,↑,up,↑,0.47420480009168386,True,16,1,1,3
Y2-S2-214K21,2,154,AS,exp,25,←,no_key,no_letter,-1.0,False,15,-1,1,4
Y2-S2-214K21,2,155,AS,exp,25,↑,up,↑,0.4912489999551326,True,16,-1,0,4
Y2-S2-214K21,2,156,AS,exp,32,→,left,←,0.6543632999528199,False,16,-1,0,4
Y2-S2-214K21,2,157,AS,exp,25,↓,down,↓,0.5150206000544131,True,17,-1,0,4
Y2-S2-214K21,2,158,AS,exp,34,←,left,←,0.7415421000914648,True,17,-1,0,4
Y2-S2-214K21,2,159,AS,exp,32,↓,down,↓,0.6155396999092773,True,17,1,1,5
Y2-S2-214K21,2,160,AS,exp,34,←,left,←,0.7815171999391168,True,16,1,0,5
Y2-S2-214K21,2,161,AS,exp,35,→,left,←,0.6303964999970049,False,16,-1,1,6
Y2-S2-214K21,2,162,AS,exp,29,←,left,←,0.8415494000073522,True,17,-1,0,6
Y2-S2-214K21,2,163,AS,exp,39,→,right,→,1.3760062999790534,True,17,-1,0,6
Y2-S2-214K21,2,164,AS,exp,48,←,left,←,0.6031125999288633,True,17,1,1,7
Y2-S2-214K21,2,165,AS,exp,36,→,right,→,0.5171370999887586,True,16,1,0,7
Y2-S2-214K21,2,166,AS,exp,42,↑,up,↑,0.4761192000005394,True,16,1,0,7
Y2-S2-214K21,2,167,AS,exp,48,→,left,←,0.4924646000145003,False,16,-1,1,8
Y2-S2-214K21,2,168,AS,exp,47,←,left,←,1.2714612000854686,True,17,-1,0,8
Y2-S2-214K21,2,169,AS,exp,26,→,right,→,0.6440744999563321,True,17,-1,0,8
Y2-S2-214K21,2,170,AS,exp,41,↑,up,↑,0.5953150000423193,True,17,1,1,9
Y2-S2-214K21,2,171,AS,exp,36,→,right,→,0.5960344000486657,True,16,1,0,9
Y2-S2-214K21,2,172,AS,exp,49,↓,down,↓,0.6794850999722257,True,16,1,0,9
Y2-S2-214K21,2,173,AS,exp,33,↑,up,↑,0.6743745000567287,True,16,1,0,9
Y2-S2-214K21,2,174,AS,exp,32,→,right,→,0.49201139993965626,True,15,1,0,9
Y2-S2-214K21,2,175,AS,exp,42,↑,up,↑,0.7293298000004143,True,15,1,0,9
Y2-S2-214K21,2,176,AS,exp,41,↓,down,↓,0.6354591998970136,True,15,1,0,9
Y2-S2-214K21,2,177,AS,exp,38,↑,up,↑,0.5194449999835342,True,14,1,0,9
Y2-S2-214K21,2,178,AS,exp,33,→,right,→,0.4877426999155432,True,14,1,0,9
Y2-S2-214K21,2,179,AS,exp,33,↓,down,↓,0.6345495000714436,True,14,1,0,9
Y2-S2-214K21,2,180,AS,exp,47,→,right,→,0.4672598000615835,True,13,1,0,9
Y2-S2-214K21,2,181,AS,exp,39,←,left,←,0.6676217999774963,True,13,1,0,9
Y2-S2-214K21,2,182,AS,exp,26,↓,down,↓,0.5769826000323519,True,13,1,0,9
Y2-S2-214K21,2,183,AS,exp,47,→,right,→,0.7445313000353053,True,12,1,0,9
Y2-S2-214K21,2,184,AS,exp,36,↓,down,↓,0.5365778999403119,True,12,1,0,9
Y2-S2-214K21,2,185,AS,exp,41,←,right,→,0.7836514000082389,False,12,-1,1,10
Y2-S2-214K21,2,186,AS,exp,39,→,right,→,0.8166308000218123,True,13,-1,0,10
Y2-S2-214K21,2,187,AS,exp,41,↑,up,↑,0.6323655999731272,True,13,-1,0,10
Y2-S2-214K21,2,188,AS,exp,47,←,left,←,0.679814700037241,True,13,1,1,11
Y2-S2-214K21,2,189,AS,exp,46,↓,down,↓,0.5581264999927953,True,12,1,0,11
Y2-S2-214K21,2,190,AS,exp,35,→,right,→,0.588593199965544,True,12,1,0,11
Y2-S2-214K21,2,191,AS,exp,33,←,right,→,0.8001351999118924,False,12,-1,1,12
Y2-S2-214K21,2,192,AS,exp,43,↑,up,↑,0.6968554999912158,True,13,-1,0,12
Y2-S2-214K21,2,193,AS,exp,38,←,left,←,0.6148076000390574,True,13,-1,0,12
Y2-S2-214K21,2,194,AS,exp,26,↑,up,↑,0.47270849999040365,True,13,1,1,13
Y2-S2-214K21,2,195,AS,exp,30,↓,down,↓,0.572006499976851,True,12,1,0,13
Y2-S2-214K21,2,196,AS,exp,42,→,right,→,0.5594209999544546,True,12,1,0,13
Y2-S2-214K21,2,197,AS,exp,49,↑,up,↑,0.6402153000235558,True,12,1,0,13
Y2-S2-214K21,2,198,AS,exp,25,→,left,←,0.7923996000317857,False,11,-1,1,14
Y2-S2-214K21,2,199,AS,exp,36,↓,up,↑,0.5644962000660598,False,12,-1,0,14
Y2-S2-214K21,2,200,AS,exp,32,←,left,←,0.471614999929443,True,13,-1,0,14
Y2-S2-214K21,2,201,AS,exp,48,↓,up,↑,0.5923387999646366,False,13,-1,0,14
Y2-S2-214K21,2,202,AS,exp,28,→,right,→,0.5547654000110924,True,14,-1,0,14
Y2-S2-214K21,2,203,AS,exp,46,↑,up,↑,0.6572433999972418,True,14,-1,0,14
Y2-S2-214K21,2,204,AS,exp,36,↓,down,↓,0.5632851000409573,True,14,1,1,15
Y2-S2-214K21,2,205,AS,exp,30,↑,up,↑,0.6918765000300482,True,13,1,0,15
Y2-S2-214K21,2,206,AS,exp,49,↓,down,↓,0.6269885000074282,True,13,1,0,15
Y2-S2-214K21,2,207,AS,exp,30,←,left,←,0.6133804999990389,True,13,1,0,15
Y2-S2-214K21,2,208,AS,exp,45,↑,up,↑,0.4641471999930218,True,12,1,0,15
Y2-S2-214K21,2,209,AS,exp,39,→,right,→,0.49492550001014024,True,12,1,0,15
Y2-S2-214K21,2,210,AS,exp,48,↓,down,↓,0.5670390999875963,True,12,1,0,15
Y2-S2-214K21,2,211,AS,exp,44,→,left,←,0.7688062000088394,False,11,-1,1,16
Y2-S2-214K21,3,212,AS,intra_train,28,←,left,←,1.477265699999407,True,21,-,-,-
Y2-S2-214K21,3,213,AS,intra_train,47,↓,down,↓,0.6346344000194222,True,21,-,-,-
Y2-S2-214K21,3,214,AS,intra_train,39,←,left,←,0.5508779999800026,True,21,-,-,-
Y2-S2-214K21,3,215,AS,intra_train,25,↑,up,↑,0.6447859000181779,True,21,-,-,-
Y2-S2-214K21,3,216,AS,intra_train,31,↓,down,↓,0.5447807000018656,True,21,-,-,-
Y2-S2-214K21,3,217,AS,exp,36,→,right,→,0.644016099977307,True,14,0,0,0
Y2-S2-214K21,3,218,AS,exp,30,↑,up,↑,0.627398700104095,True,14,0,0,0
Y2-S2-214K21,3,219,AS,exp,32,←,left,←,0.594987399992533,True,14,1,0,0
Y2-S2-214K21,3,220,AS,exp,25,→,right,→,0.4551727999933064,True,13,1,0,0
Y2-S2-214K21,3,221,AS,exp,50,↓,down,↓,0.5405802000313997,True,13,1,0,0
Y2-S2-214K21,3,222,AS,exp,35,→,right,→,0.461156600038521,True,13,1,0,0
Y2-S2-214K21,3,223,AS,exp,48,↑,up,↑,0.49158129992429167,True,12,1,0,0
Y2-S2-214K21,3,224,AS,exp,34,→,right,→,0.49470149993430823,True,12,1,0,0
Y2-S2-214K21,3,225,AS,exp,35,←,left,←,0.4552903000731021,True,12,1,0,0
Y2-S2-214K21,3,226,AS,exp,27,→,left,←,0.7049942000303417,False,11,-1,1,1
Y2-S2-214K21,3,227,AS,exp,36,↑,up,↑,0.5874260000418872,True,12,-1,0,1
Y2-S2-214K21,3,228,AS,exp,46,↓,down,↓,0.6319067999720573,True,12,-1,0,1
Y2-S2-214K21,3,229,AS,exp,35,←,right,→,0.5990479999454692,False,12,-1,0,1
Y2-S2-214K21,3,230,AS,exp,46,↑,up,↑,0.734746600035578,True,13,-1,0,1
Y2-S2-214K21,3,231,AS,exp,36,←,left,←,0.6337350000394508,True,13,-1,0,1
Y2-S2-214K21,3,232,AS,exp,38,↓,down,↓,0.5476634000660852,True,13,1,1,2
Y2-S2-214K21,3,233,AS,exp,49,←,right,→,0.7923585999524221,False,12,-1,1,3
Y2-S2-214K21,3,234,AS,exp,40,↑,up,↑,0.7732731000287458,True,13,-1,0,3
Y2-S2-214K21,3,235,AS,exp,36,←,left,←,0.6280999999726191,True,13,-1,0,3
Y2-S2-214K21,3,236,AS,exp,33,↓,down,↓,0.5784231000579894,True,13,1,1,4
Y2-S2-214K21,3,237,AS,exp,26,←,left,←,0.587165099917911,True,12,1,0,4
Y2-S2-214K21,3,238,AS,exp,43,→,right,→,0.5481356999371201,True,12,1,0,4
Y2-S2-214K21,3,239,AS,exp,43,↓,up,↑,0.7497952999547124,False,12,-1,1,5
Y2-S2-214K21,3,240,AS,exp,27,↑,up,↑,0.6093330000294372,True,13,-1,0,5
Y2-S2-214K21,3,241,AS,exp,48,←,left,←,0.6015523999230936,True,13,-1,0,5
Y2-S2-214K21,3,242,AS,exp,48,↑,up,↑,0.6341242999769747,True,13,1,1,6
Y2-S2-214K21,3,243,AS,exp,38,←,left,←,0.43874170002527535,True,12,1,0,6
Y2-S2-214K21,3,244,AS,exp,29,↓,down,↓,0.5865378000307828,True,12,1,0,6
Y2-S2-214K21,3,245,AS,exp,37,→,right,→,0.5538519999245182,True,12,1,0,6
Y2-S2-214K21,3,246,AS,exp,44,←,right,→,0.7053622000385076,False,11,-1,1,7
Y2-S2-214K21,3,247,AS,exp,33,→,right,→,0.6254035000456497,True,12,-1,0,7
Y2-S2-214K21,3,248,AS,exp,40,←,left,←,0.6154456998920068,True,12,-1,0,7
Y2-S2-214K21,3,249,AS,exp,48,↑,up,↑,0.682772499974817,True,12,1,1,8
Y2-S2-214K21,3,250,AS,exp,25,←,right,→,1.078607500065118,False,11,-1,1,9
Y2-S2-214K21,3,251,AS,exp,38,↑,up,↑,0.6885178999509662,True,12,-1,0,9
Y2-S2-214K21,3,252,AS,exp,35,→,right,→,0.7486426000250503,True,12,-1,0,9
Y2-S2-214K21,3,253,AS,exp,29,↑,up,↑,0.8397541999584064,True,12,1,1,10
Y2-S2-214K21,3,254,AS,exp,44,↓,up,↑,0.6545958999777213,False,11,-1,1,11
Y2-S2-214K21,3,255,AS,exp,50,→,right,→,0.5673832000466064,True,12,-1,0,11
Y2-S2-214K21,3,256,AS,exp,44,↑,up,↑,0.668866700027138,True,12,-1,0,11
Y2-S2-214K21,3,257,AS,exp,25,←,right,→,0.6559117999859154,False,12,-1,0,11
Y2-S2-214K21,3,258,AS,exp,40,→,right,→,0.5619951999979094,True,13,-1,0,11
Y2-S2-214K21,3,259,AS,exp,48,↑,up,↑,0.6711341999471188,True,13,-1,0,11
Y2-S2-214K21,3,260,AS,exp,36,→,right,→,0.5783985999878496,True,13,1,1,12
Y2-S2-214K21,3,261,AS,exp,31,↑,up,↑,0.657110600033775,True,12,1,0,12
Y2-S2-214K21,3,262,AS,exp,42,↓,down,↓,0.6615907999221236,True,12,1,0,12
Y2-S2-214K21,3,263,AS,exp,40,→,right,→,0.5381219000555575,True,12,1,0,12
Y2-S2-214K21,3,264,AS,exp,25,↑,up,↑,0.507990000071004,True,11,1,0,12
Y2-S2-214K21,3,265,AS,exp,45,←,right,→,0.5708118999609724,False,11,-1,1,13
Y2-S2-214K21,3,266,AS,exp,30,↓,down,↓,0.5303291999734938,True,12,-1,0,13
Y2-S2-214K21,3,267,AS,exp,26,→,right,→,0.5003831000067294,True,12,-1,0,13
Y2-S2-214K21,3,268,AS,exp,27,↑,up,↑,0.6239725999766961,True,12,1,1,14
Y2-S2-214K21,3,269,AS,exp,50,←,right,→,0.5250294000143185,False,11,-1,1,15
Y2-S2-214K21,3,270,AS,exp,49,→,right,→,0.6051197999622673,True,12,-1,0,15
Y2-S2-214K21,3,271,AS,exp,47,←,left,←,0.5841106999432668,True,12,-1,0,15
Y2-S2-214K21,3,272,AS,exp,46,↓,down,↓,0.6629128999775276,True,12,1,1,16
Y2-S2-214K21,4,273,PS,intra_train,38,→,right,→,0.5747748999856412,True,9,-,-,-
Y2-S2-214K21,4,274,PS,intra_train,41,↓,down,↓,0.5308639999711886,True,9,-,-,-
Y2-S2-214K21,4,275,PS,intra_train,35,→,right,→,0.549064299906604,True,9,-,-,-
Y2-S2-214K21,4,276,PS,intra_train,37,←,left,←,0.5482107999268919,True,9,-,-,-
Y2-S2-214K21,4,277,PS,intra_train,42,→,right,→,0.611102299997583,True,9,-,-,-
Y2-S2-214K21,4,278,PS,exp,40,↓,left,←,0.6681682999478653,False,6,-1,0,0
Y2-S2-214K21,4,279,PS,exp,46,←,left,←,0.5251174999866635,True,7,-1,0,0
Y2-S2-214K21,4,280,PS,exp,48,→,left,←,0.604919100063853,False,7,-1,0,0
Y2-S2-214K21,4,281,PS,exp,32,←,left,←,0.5353580999653786,True,8,-1,0,0
Y2-S2-214K21,4,282,PS,exp,30,↓,down,↓,0.6749493000097573,True,8,-1,0,0
Y2-S2-214K21,4,283,PS,exp,45,↑,up,↑,0.5158341999631375,True,8,1,1,1
Y2-S2-214K21,4,284,PS,exp,33,→,left,←,0.6479643000056967,False,7,-1,1,2
Y2-S2-214K21,4,285,PS,exp,50,↑,left,←,0.69157190003898,False,8,-1,0,2
Y2-S2-214K21,4,286,PS,exp,50,→,right,→,0.4852381000528112,True,9,-1,0,2
Y2-S2-214K21,4,287,PS,exp,41,↑,up,↑,0.5120507000247017,True,9,-1,0,2
Y2-S2-214K21,4,288,PS,exp,49,←,left,←,0.5324803000548854,True,9,1,1,3
Y2-S2-214K21,4,289,PS,exp,46,→,right,→,0.5599057000363246,True,8,1,0,3
Y2-S2-214K21,4,290,PS,exp,50,↓,down,↓,0.5567612999584526,True,8,1,0,3
Y2-S2-214K21,4,291,PS,exp,40,↑,up,↑,0.4980670999502763,True,8,1,0,3
Y2-S2-214K21,4,292,PS,exp,48,↓,down,↓,0.5429902999894693,True,7,1,0,3
Y2-S2-214K21,4,293,PS,exp,47,↑,up,↑,0.6073489000555128,True,7,1,0,3
Y2-S2-214K21,4,294,PS,exp,46,←,left,←,0.6409537000581622,True,7,1,0,3
Y2-S2-214K21,4,295,PS,exp,34,→,right,→,0.5974690999137238,True,6,1,0,3
Y2-S2-214K21,4,296,PS,exp,46,↑,up,↑,0.5222454000031576,True,6,1,0,3
Y2-S2-214K21,4,297,PS,exp,33,↓,down,↓,0.513909500092268,True,6,1,0,3
Y2-S2-214K21,4,298,PS,exp,47,→,left,←,0.5967301001073793,False,5,-1,1,4
Y2-S2-214K21,4,299,PS,exp,26,←,left,←,0.7029500999487936,True,6,-1,0,4
Y2-S2-214K21,4,300,PS,exp,32,→,right,→,0.5336585999466479,True,6,-1,0,4
Y2-S2-214K21,4,301,PS,exp,48,↓,down,↓,0.5558305999729782,True,6,1,1,5
Y2-S2-214K21,4,302,PS,exp,38,↑,up,↑,0.49687390006147325,True,5,1,0,5
Y2-S2-214K21,4,303,PS,exp,35,→,right,→,0.8474159999750555,True,5,1,0,5
Y2-S2-214K21,4,304,PS,exp,31,↑,up,↑,0.5194359000306576,True,5,1,0,5
Y2-S2-214K21,4,305,PS,exp,33,←,right,→,0.6537773999152705,False,4,-1,1,6
Y2-S2-214K21,4,306,PS,exp,48,→,left,←,0.7711329999146983,False,5,-1,0,6
Y2-S2-214K21,4,307,PS,exp,31,↑,left,←,0.574801699956879,False,6,-1,0,6
Y2-S2-214K21,4,308,PS,exp,38,←,right,→,0.7438234000001103,False,7,-1,0,6
Y2-S2-214K21,4,309,PS,exp,40,↓,down,↓,0.46681739995256066,True,8,-1,0,6
Y2-S2-214K21,4,310,PS,exp,26,→,right,→,0.6271721000084653,True,8,-1,0,6
Y2-S2-214K21,4,311,PS,exp,34,↑,up,↑,0.5485360999591649,True,8,1,1,7
Y2-S2-214K21,4,312,PS,exp,34,→,right,→,0.5327921999851242,True,7,1,0,7
Y2-S2-214K21,4,313,PS,exp,44,←,left,←,0.5125097000272945,True,7,1,0,7
Y2-S2-214K21,4,314,PS,exp,47,↑,up,↑,0.5110688999993727,True,7,1,0,7
Y2-S2-214K21,4,315,PS,exp,33,→,right,→,0.5161856000777334,True,6,1,0,7
Y2-S2-214K21,4,316,PS,exp,34,↑,up,↑,0.5344595999922603,True,6,1,0,7
Y2-S2-214K21,4,317,PS,exp,40,←,left,←,0.4162101000547409,True,6,1,0,7
Y2-S2-214K21,4,318,PS,exp,41,→,right,→,0.7416038999799639,True,5,1,0,7
Y2-S2-214K21,4,319,PS,exp,43,↓,down,↓,0.5029143000720069,True,5,1,0,7
Y2-S2-214K21,4,320,PS,exp,34,↑,right,→,0.5605208999477327,False,5,-1,1,8
Y2-S2-214K21,4,321,PS,exp,39,↓,left,←,0.5247167999623343,False,6,-1,0,8
Y2-S2-214K21,4,322,PS,exp,30,↑,left,←,0.7041086999233812,False,7,-1,0,8
Y2-S2-214K21,4,323,PS,exp,32,↓,down,↓,0.5883550000144169,True,8,-1,0,8
Y2-S2-214K21,4,324,PS,exp,29,↑,left,←,0.68977089994587,False,8,-1,0,8
Y2-S2-214K21,4,325,PS,exp,25,←,right,→,0.883542999974452,False,9,-1,0,8
Y2-S2-214K21,4,326,PS,exp,42,↑,up,↑,0.5360460999654606,True,10,-1,0,8
Y2-S2-214K21,4,327,PS,exp,29,←,left,←,0.5189781999215484,True,10,-1,0,8
Y2-S2-214K21,4,328,PS,exp,36,↓,down,↓,0.608965800027363,True,10,1,1,9
Y2-S2-214K21,4,329,PS,exp,37,←,left,←,0.509308599983342,True,9,1,0,9
Y2-S2-214K21,4,330,PS,exp,27,↓,left,←,0.6799988999264315,False,9,-1,1,10
Y2-S2-214K21,4,331,PS,exp,36,←,left,←,0.6292205000063404,True,10,-1,0,10
Y2-S2-214K21,4,332,PS,exp,26,↓,down,↓,0.4905686000129208,True,10,-1,0,10
Y2-S2-214K21,4,333,PS,exp,29,←,left,←,0.4744461999507621,True,10,1,1,11
Y2-S2-214K21,4,334,PS,exp,25,↑,up,↑,0.659608400077559,True,9,1,0,11
Y2-S2-214K21,4,335,PS,exp,42,→,right,→,0.5386014999821782,True,9,1,0,11
Y2-S2-214K21,4,336,PS,exp,42,←,left,←,0.5162851000204682,True,9,1,0,11
Y2-S2-214K21,4,337,PS,exp,50,→,right,→,0.5332378000020981,True,8,1,0,11
Y2-S2-214K21,4,338,PS,exp,42,↓,right,→,0.666422100039199,False,8,-1,1,12
Y2-S2-214K21,4,339,PS,exp,37,→,right,→,0.5940364999696612,True,9,-1,0,12
Y2-S2-214K21,4,340,PS,exp,36,↑,up,↑,0.5639947999734432,True,9,-1,0,12
Y2-S2-214K21,4,341,PS,exp,43,←,right,→,0.6571641999762505,False,9,-1,0,12
Y2-S2-214K21,4,342,PS,exp,42,↑,up,↑,0.46287669998127967,True,10,-1,0,12
Y2-S2-214K21,4,343,PS,exp,29,→,right,→,0.4584591999882832,True,10,-1,0,12
Y2-S2-214K21,4,344,PS,exp,32,↓,down,↓,0.8508172000292689,True,10,1,1,13
Y2-S2-214K21,4,345,PS,exp,48,↑,left,←,0.5871146999998018,False,9,-1,1,14
Y2-S2-214K21,4,346,PS,exp,36,←,left,←,0.5243501000804827,True,10,-1,0,14
Y2-S2-214K21,4,347,PS,exp,38,→,right,→,0.556405899929814,True,10,-1,0,14
Y2-S2-214K21,4,348,PS,exp,34,←,left,←,0.5522498999489471,True,10,1,1,15
Y2-S2-214K21,4,349,PS,exp,29,→,right,→,0.5746373999863863,True,9,1,0,15
Y2-S2-214K21,4,350,PS,exp,29,↑,left,←,0.6484444999368861,False,9,-1,1,16
Y2-S2-214K21,5,351,PS,intra_train,48,←,left,←,0.5213925000280142,True,9,-,-,-
Y2-S2-214K21,5,352,PS,intra_train,50,→,right,→,0.45112670003436506,True,9,-,-,-
Y2-S2-214K21,5,353,PS,intra_train,46,↓,down,↓,0.5476046999683604,True,9,-,-,-
Y2-S2-214K21,5,354,PS,intra_train,39,→,right,→,0.5462811000179499,True,9,-,-,-
Y2-S2-214K21,5,355,PS,intra_train,39,↓,down,↓,0.5274436998879537,True,9,-,-,-
Y2-S2-214K21,5,356,PS,exp,47,↑,up,↑,0.5267954000737518,True,6,0,0,0
Y2-S2-214K21,5,357,PS,exp,47,↓,down,↓,0.4965470000170171,True,6,0,0,0
Y2-S2-214K21,5,358,PS,exp,39,↑,down,↓,0.76427759998478,False,6,-1,0,0
Y2-S2-214K21,5,359,PS,exp,38,←,left,←,0.45689460006542504,True,7,-1,0,0
Y2-S2-214K21,5,360,PS,exp,47,↑,up,↑,0.5194461999926716,True,7,-1,0,0
Y2-S2-214K21,5,361,PS,exp,26,←,right,→,0.585193800041452,False,7,-1,0,0
Y2-S2-214K21,5,362,PS,exp,41,→,right,→,0.5996568000409752,True,8,-1,0,0
Y2-S2-214K21,5,363,PS,exp,34,↑,up,↑,0.4969680999638513,True,8,-1,0,0
Y2-S2-214K21,5,364,PS,exp,50,←,left,←,0.4952679999405518,True,8,1,1,1
Y2-S2-214K21,5,365,PS,exp,29,→,left,←,0.7786476000910625,False,7,-1,1,2
Y2-S2-214K21,5,366,PS,exp,45,↓,up,↑,0.563788800034672,False,8,-1,0,2
Y2-S2-214K21,5,367,PS,exp,33,↑,right,→,0.5587127999169752,False,9,-1,0,2
Y2-S2-214K21,5,368,PS,exp,45,→,right,→,0.5299387999111786,True,10,-1,0,2
Y2-S2-214K21,5,369,PS,exp,36,←,left,←,0.5093329000519589,True,10,-1,0,2
Y2-S2-214K21,5,370,PS,exp,49,↓,left,←,0.5654067000141367,False,10,-1,0,2
Y2-S2-214K21,5,371,PS,exp,44,→,right,→,0.695073000038974,True,11,-1,0,2
Y2-S2-214K21,5,372,PS,exp,40,←,left,←,0.5020290999673307,True,11,-1,0,2
Y2-S2-214K21,5,373,PS,exp,46,→,right,→,0.5322904998902231,True,11,1,1,3
Y2-S2-214K21,5,374,PS,exp,50,←,left,←,0.518364500021562,True,10,1,0,3
Y2-S2-214K21,5,375,PS,exp,27,↓,down,↓,0.5858007000060752,True,10,1,0,3
Y2-S2-214K21,5,376,PS,exp,25,↑,up,↑,0.5975937999319285,True,10,1,0,3
Y2-S2-214K21,5,377,PS,exp,36,→,right,→,0.5953950999537483,True,9,1,0,3
Y2-S2-214K21,5,378,PS,exp,38,←,right,→,0.9875547999981791,False,9,-1,1,4
Y2-S2-214K21,5,379,PS,exp,49,→,right,→,0.5435433000093326,True,10,-1,0,4
Y2-S2-214K21,5,380,PS,exp,47,←,left,←,0.45427480002399534,True,10,-1,0,4
Y2-S2-214K21,5,381,PS,exp,35,↑,up,↑,0.5367524999892339,True,10,1,1,5
Y2-S2-214K21,5,382,PS,exp,45,↓,down,↓,0.579839100013487,True,9,1,0,5
Y2-S2-214K21,5,383,PS,exp,32,→,right,→,0.5410436999518424,True,9,1,0,5
Y2-S2-214K21,5,384,PS,exp,40,↑,up,↑,0.4974683999316767,True,9,1,0,5
Y2-S2-214K21,5,385,PS,exp,42,←,left,←,0.5745828999206424,True,8,1,0,5
Y2-S2-214K21,5,386,PS,exp,34,↑,up,↑,0.9803043999709189,True,8,1,0,5
Y2-S2-214K21,5,387,PS,exp,30,→,right,→,0.42589690000750124,True,8,1,0,5
Y2-S2-214K21,5,388,PS,exp,44,←,left,←,0.46106730005703866,True,7,1,0,5
Y2-S2-214K21,5,389,PS,exp,46,↑,up,↑,0.6517751000355929,True,7,1,0,5
Y2-S2-214K21,5,390,PS,exp,47,→,right,→,0.48254849994555116,True,7,1,0,5
Y2-S2-214K21,5,391,PS,exp,30,↑,up,↑,0.6459875000873581,True,6,1,0,5
Y2-S2-214K21,5,392,PS,exp,50,→,right,→,0.41197899996768683,True,6,1,0,5
Y2-S2-214K21,5,393,PS,exp,35,↓,right,→,0.5701788000296801,False,6,-1,1,6
Y2-S2-214K21,5,394,PS,exp,36,←,left,←,0.6458044999744743,True,7,-1,0,6
Y2-S2-214K21,5,395,PS,exp,25,→,left,←,0.777816400048323,False,7,-1,0,6
Y2-S2-214K21,5,396,PS,exp,27,←,right,→,0.5217377000954002,False,8,-1,0,6
Y2-S2-214K21,5,397,PS,exp,47,→,right,→,0.6117436999920756,True,9,-1,0,6
Y2-S2-214K21,5,398,PS,exp,46,←,left,←,0.6879055000608787,True,9,-1,0,6
Y2-S2-214K21,5,399,PS,exp,49,→,right,→,0.49030609999317676,True,9,1,1,7
Y2-S2-214K21,5,400,PS,exp,36,←,left,←,0.46979839995037764,True,8,1,0,7
Y2-S2-214K21,5,401,PS,exp,26,↑,left,←,0.759514500037767,False,8,-1,1,8
Y2-S2-214K21,5,402,PS,exp,28,←,right,→,0.5335129000013694,False,9,-1,0,8
Y2-S2-214K21,5,403,PS,exp,47,↓,down,↓,0.5631726999999955,True,10,-1,0,8
Y2-S2-214K21,5,404,PS,exp,33,↑,up,↑,0.5444090999662876,True,10,-1,0,8
Y2-S2-214K21,5,405,PS,exp,35,←,left,←,0.5703534000786021,True,10,1,1,9
Y2-S2-214K21,5,406,PS,exp,45,→,right,→,0.5059614999918267,True,9,1,0,9
Y2-S2-214K21,5,407,PS,exp,44,↓,down,↓,0.4825050999643281,True,9,1,0,9
Y2-S2-214K21,5,408,PS,exp,50,←,left,←,0.5308064999990165,True,9,1,0,9
Y2-S2-214K21,5,409,PS,exp,50,↑,up,↑,0.4742455000523478,True,8,1,0,9
Y2-S2-214K21,5,410,PS,exp,49,→,right,→,0.5986010000342503,True,8,1,0,9
Y2-S2-214K21,5,411,PS,exp,38,←,left,←,0.44682399998418987,True,8,1,0,9
Y2-S2-214K21,5,412,PS,exp,50,↓,down,↓,0.5034271000185981,True,7,1,0,9
Y2-S2-214K21,5,413,PS,exp,48,↑,up,↑,0.6462550000287592,True,7,1,0,9
Y2-S2-214K21,5,414,PS,exp,30,↓,left,←,0.5351172999944538,False,7,-1,1,10
Y2-S2-214K21,5,415,PS,exp,35,↑,up,↑,0.5569148000795394,True,8,-1,0,10
Y2-S2-214K21,5,416,PS,exp,34,→,right,→,0.5141539999749511,True,8,-1,0,10
Y2-S2-214K21,5,417,PS,exp,29,↓,down,↓,0.5347722999285907,True,8,1,1,11
Y2-S2-214K21,5,418,PS,exp,25,←,left,←,0.5033914000960067,True,7,1,0,11
Y2-S2-214K21,5,419,PS,exp,45,↑,up,↑,0.5173066999996081,True,7,1,0,11
Y2-S2-214K21,5,420,PS,exp,46,←,left,←,0.4824596999678761,True,7,1,0,11
Y2-S2-214K21,5,421,PS,exp,37,↑,up,↑,0.5225812999997288,True,6,1,0,11
Y2-S2-214K21,5,422,PS,exp,36,↓,down,↓,0.5026391999563202,True,6,1,0,11
Y2-S2-214K21,5,423,PS,exp,26,←,left,←,0.4819946000352502,True,6,1,0,11
Y2-S2-214K21,5,424,PS,exp,39,→,left,←,0.7832552999025211,False,5,-1,1,12
Y2-S2-214K21,5,425,PS,exp,36,←,left,←,0.48935470008291304,True,6,-1,0,12
Y2-S2-214K21,5,426,PS,exp,47,↑,left,←,0.6338599999435246,False,6,-1,0,12
Y2-S2-214K21,5,427,PS,exp,38,→,right,→,0.46170929993968457,True,7,-1,0,12
Y2-S2-214K21,5,428,PS,exp,36,←,left,←,0.47323460003826767,True,7,-1,0,12
Y2-S2-214K21,5,429,PS,exp,45,→,right,→,0.6466834000311792,True,7,1,1,13
Y2-S2-214K21,5,430,PS,exp,36,↑,left,←,0.47341790003702044,False,6,-1,1,14
Y2-S2-214K21,5,431,PS,exp,48,←,left,←,0.7420746000716463,True,7,-1,0,14
Y2-S2-214K21,5,432,PS,exp,44,↓,left,←,0.8960854000179097,False,7,-1,0,14
Y2-S2-214K21,5,433,PS,exp,46,↑,up,↑,0.535870699910447,True,8,-1,0,14
Y2-S2-214K21,5,434,PS,exp,39,←,left,←,0.44033079990185797,True,8,-1,0,14
Y2-S2-214K21,5,435,PS,exp,36,→,left,←,0.5868481000652537,False,8,-1,0,14
Y2-S2-214K21,5,436,PS,exp,34,↑,up,↑,0.6303161999676377,True,9,-1,0,14
Y2-S2-214K21,5,437,PS,exp,36,↓,down,↓,0.6580685999942943,True,9,-1,0,14
Y2-S2-214K21,5,438,PS,exp,33,←,left,←,0.4450675999978557,True,9,1,1,15
Y2-S2-214K21,5,439,PS,exp,44,→,right,→,0.42810670007020235,True,8,1,0,15
Y2-S2-214K21,5,440,PS,exp,26,↓,right,→,0.784938000026159,False,8,-1,1,16
Y2-S2-214K21,6,441,AS,intra_train,37,→,right,→,0.46724849997553974,True,21,-,-,-
Y2-S2-214K21,6,442,AS,intra_train,29,←,left,←,1.3472751999506727,True,21,-,-,-
Y2-S2-214K21,6,443,AS,intra_train,39,↑,up,↑,0.5684872000711039,True,21,-,-,-
Y2-S2-214K21,6,444,AS,intra_train,49,↓,down,↓,0.5559352999553084,True,21,-,-,-
Y2-S2-214K21,6,445,AS,intra_train,44,↑,up,↑,1.1732761000748724,True,21,-,-,-
Y2-S2-214K21,6,446,AS,exp,46,↓,down,↓,0.5079763000831008,True,14,0,0,0
Y2-S2-214K21,6,447,AS,exp,31,↑,up,↑,0.68297030008398,True,14,0,0,0
Y2-S2-214K21,6,448,AS,exp,48,→,right,→,0.5528601000551134,True,14,1,0,0
Y2-S2-214K21,6,449,AS,exp,49,↑,down,↓,0.6289493000367656,False,13,-1,1,1
Y2-S2-214K21,6,450,AS,exp,49,←,left,←,0.5465267999097705,True,14,-1,0,1
Y2-S2-214K21,6,451,AS,exp,49,↑,up,↑,0.706376799964346,True,14,-1,0,1
Y2-S2-214K21,6,452,AS,exp,49,←,left,←,0.5983392000198364,True,14,1,1,2
Y2-S2-214K21,6,453,AS,exp,27,→,right,→,0.4440968999406323,True,13,1,0,2
Y2-S2-214K21,6,454,AS,exp,50,↑,up,↑,0.5166854000417516,True,13,1,0,2
Y2-S2-214K21,6,455,AS,exp,28,→,right,→,0.5178088000975549,True,13,1,0,2
Y2-S2-214K21,6,456,AS,exp,31,↑,up,↑,0.5356078000040725,True,12,1,0,2
Y2-S2-214K21,6,457,AS,exp,34,↓,down,↓,0.5472321000415832,True,12,1,0,2
Y2-S2-214K21,6,458,AS,exp,50,←,right,→,0.5386537000304088,False,12,-1,1,3
Y2-S2-214K21,6,459,AS,exp,43,→,right,→,0.47518559999298304,True,13,-1,0,3
Y2-S2-214K21,6,460,AS,exp,45,↑,up,↑,0.526744700036943,True,13,-1,0,3
Y2-S2-214K21,6,461,AS,exp,27,↓,down,↓,0.5631967999506742,True,13,1,1,4
Y2-S2-214K21,6,462,AS,exp,27,←,right,→,0.6136538999853656,False,12,-1,1,5
Y2-S2-214K21,6,463,AS,exp,34,→,right,→,0.5441560000181198,True,13,-1,0,5
Y2-S2-214K21,6,464,AS,exp,36,↑,right,→,0.6668431999860331,False,13,-1,0,5
Y2-S2-214K21,6,465,AS,exp,31,←,left,←,0.6101179999532178,True,14,-1,0,5
Y2-S2-214K21,6,466,AS,exp,37,↑,up,↑,0.5260127999354154,True,14,-1,0,5
Y2-S2-214K21,6,467,AS,exp,35,←,left,←,0.47746289998758584,True,14,1,1,6
Y2-S2-214K21,6,468,AS,exp,42,↓,up,↑,0.8784723998978734,False,13,-1,1,7
Y2-S2-214K21,6,469,AS,exp,43,↑,up,↑,0.5878412999445572,True,14,-1,0,7
Y2-S2-214K21,6,470,AS,exp,28,←,left,←,0.7604900000151247,True,14,-1,0,7
Y2-S2-214K21,6,471,AS,exp,49,→,right,→,0.593917699996382,True,14,1,1,8
Y2-S2-214K21,6,472,AS,exp,45,↑,up,↑,0.5343737000366673,True,13,1,0,8
Y2-S2-214K21,6,473,AS,exp,41,←,left,←,0.6445595000404865,True,13,1,0,8
Y2-S2-214K21,6,474,AS,exp,33,↓,down,↓,0.5888546999776736,True,13,1,0,8
Y2-S2-214K21,6,475,AS,exp,43,←,left,←,0.5089080999605358,True,12,1,0,8
Y2-S2-214K21,6,476,AS,exp,44,→,right,→,0.5506089000264183,True,12,1,0,8
Y2-S2-214K21,6,477,AS,exp,47,←,left,←,0.49264620000030845,True,12,1,0,8
Y2-S2-214K21,6,478,AS,exp,43,→,right,→,0.7074869000352919,True,11,1,0,8
Y2-S2-214K21,6,479,AS,exp,44,↓,down,↓,0.9763700000476092,True,11,1,0,8
Y2-S2-214K21,6,480,AS,exp,37,→,right,→,0.557457200018689,True,11,1,0,8
Y2-S2-214K21,6,481,AS,exp,44,↑,down,↓,0.5711453000549227,False,10,-1,1,9
Y2-S2-214K21,6,482,AS,exp,40,←,left,←,0.5477382000535727,True,11,-1,0,9
Y2-S2-214K21,6,483,AS,exp,39,↓,down,↓,0.7443791999248788,True,11,-1,0,9
Y2-S2-214K21,6,484,AS,exp,36,→,right,→,0.5489136000396684,True,11,1,1,10
Y2-S2-214K21,6,485,AS,exp,29,↓,up,↑,0.6873288999777287,False,10,-1,1,11
Y2-S2-214K21,6,486,AS,exp,27,←,left,←,0.5507198000559583,True,11,-1,0,11
Y2-S2-214K21,6,487,AS,exp,39,↑,up,↑,0.7141076000407338,True,11,-1,0,11
Y2-S2-214K21,6,488,AS,exp,47,←,left,←,0.6148355000186712,True,11,1,1,12
Y2-S2-214K21,6,489,AS,exp,31,↑,up,↑,0.5813992000184953,True,10,1,0,12
Y2-S2-214K21,6,490,AS,exp,44,→,right,→,0.5407166000222787,True,10,1,0,12
Y2-S2-214K21,6,491,AS,exp,42,←,right,→,0.5766215999610722,False,10,-1,1,13
Y2-S2-214K21,6,492,AS,exp,30,→,left,←,0.6102737999754027,False,11,-1,0,13
Y2-S2-214K21,6,493,AS,exp,47,↑,up,↑,0.6439937999239191,True,12,-1,0,13
Y2-S2-214K21,6,494,AS,exp,50,→,left,←,0.7051237000850961,False,12,-1,0,13
Y2-S2-214K21,6,495,AS,exp,50,↑,down,↓,1.080131100025028,False,13,-1,0,13
Y2-S2-214K21,6,496,AS,exp,45,↓,down,↓,0.8105012000305578,True,14,-1,0,13
Y2-S2-214K21,6,497,AS,exp,28,↑,up,↑,0.5556161999702454,True,14,-1,0,13
Y2-S2-214K21,6,498,AS,exp,34,←,left,←,0.555511899990961,True,14,1,1,14
Y2-S2-214K21,6,499,AS,exp,50,↓,down,↓,0.6547538000158966,True,13,1,0,14
Y2-S2-214K21,6,500,AS,exp,50,→,right,→,0.6718143000034615,True,13,1,0,14
Y2-S2-214K21,6,501,AS,exp,29,↓,up,↑,0.6185697999317199,False,13,-1,1,15
Y2-S2-214K21,6,502,AS,exp,40,→,right,→,0.6127168000675738,True,14,-1,0,15
Y2-S2-214K21,6,503,AS,exp,25,↑,up,↑,0.6348025999031961,True,14,-1,0,15
Y2-S2-214K21,6,504,AS,exp,35,←,left,←,0.588183099986054,True,14,1,1,16
Y2-S2-214K21,7,505,AS,intra_train,36,↑,up,↑,0.6093763000098988,True,21,-,-,-
Y2-S2-214K21,7,506,AS,intra_train,35,↓,down,↓,0.7824573999969289,True,21,-,-,-
Y2-S2-214K21,7,507,AS,intra_train,29,→,right,→,0.7168627999490127,True,21,-,-,-
Y2-S2-214K21,7,508,AS,intra_train,39,↓,down,↓,0.5588103999616578,True,21,-,-,-
Y2-S2-214K21,7,509,AS,intra_train,45,→,right,→,0.6238300000550225,True,21,-,-,-
Y2-S2-214K21,7,510,AS,exp,47,←,left,←,0.5957831999985501,True,14,0,0,0
Y2-S2-214K21,7,511,AS,exp,46,↓,down,↓,0.5156483000610024,True,14,0,0,0
Y2-S2-214K21,7,512,AS,exp,32,→,down,↓,0.7396578999469057,False,14,-1,0,0
Y2-S2-214K21,7,513,AS,exp,37,↓,down,↓,0.5394725000951439,True,15,-1,0,0
Y2-S2-214K21,7,514,AS,exp,34,←,left,←,0.5858532000565901,True,15,-1,0,0
Y2-S2-214K21,7,515,AS,exp,43,→,right,→,0.8869581000180915,True,15,1,1,1
Y2-S2-214K21,7,516,AS,exp,36,←,left,←,0.5253423000685871,True,14,1,0,1
Y2-S2-214K21,7,517,AS,exp,45,↑,up,↑,0.5411617000354454,True,14,1,0,1
Y2-S2-214K21,7,518,AS,exp,33,←,left,←,0.8265994999092072,True,14,1,0,1
Y2-S2-214K21,7,519,AS,exp,49,→,right,→,0.4818470000755042,True,13,1,0,1
Y2-S2-214K21,7,520,AS,exp,48,↑,up,↑,0.52240829996299,True,13,1,0,1
Y2-S2-214K21,7,521,AS,exp,28,←,left,←,0.5676763000665233,True,13,1,0,1
Y2-S2-214K21,7,522,AS,exp,48,→,right,→,0.5317349000833929,True,12,1,0,1
Y2-S2-214K21,7,523,AS,exp,26,↑,up,↑,0.6788606999907643,True,12,1,0,1
Y2-S2-214K21,7,524,AS,exp,44,←,left,←,0.46027250005863607,True,12,1,0,1
Y2-S2-214K21,7,525,AS,exp,44,↑,up,↑,0.5586034000152722,True,11,1,0,1
Y2-S2-214K21,7,526,AS,exp,25,←,right,→,0.6354917000280693,False,11,-1,1,2
Y2-S2-214K21,7,527,AS,exp,36,↑,up,↑,0.4925812999717891,True,12,-1,0,2
Y2-S2-214K21,7,528,AS,exp,25,→,right,→,0.5649320000084117,True,12,-1,0,2
Y2-S2-214K21,7,529,AS,exp,36,↓,down,↓,0.5551099000731483,True,12,1,1,3
Y2-S2-214K21,7,530,AS,exp,25,→,right,→,0.48209880001377314,True,11,1,0,3
Y2-S2-214K21,7,531,AS,exp,49,↑,up,↑,0.5457279999973252,True,11,1,0,3
Y2-S2-214K21,7,532,AS,exp,32,↓,down,↓,0.6245431000133976,True,11,1,0,3
Y2-S2-214K21,7,533,AS,exp,26,←,right,→,0.5066370000131428,False,10,-1,1,4
Y2-S2-214K21,7,534,AS,exp,29,→,right,→,0.4625033000484109,True,11,-1,0,4
Y2-S2-214K21,7,535,AS,exp,38,↓,right,→,0.5628021999727935,False,11,-1,0,4
Y2-S2-214K21,7,536,AS,exp,40,→,left,←,0.49196649994701147,False,12,-1,0,4
Y2-S2-214K21,7,537,AS,exp,40,←,right,→,0.47456820006482303,False,13,-1,0,4
Y2-S2-214K21,7,538,AS,exp,45,→,right,→,0.6002941000042483,True,14,-1,0,4
Y2-S2-214K21,7,539,AS,exp,25,↑,up,↑,0.5348745000083,True,14,-1,0,4
Y2-S2-214K21,7,540,AS,exp,39,→,right,→,0.6418013999937102,True,14,1,1,5
Y2-S2-214K21,7,541,AS,exp,25,↓,left,←,0.7311300999717787,False,13,-1,1,6
Y2-S2-214K21,7,542,AS,exp,34,←,left,←,0.5504564999137074,True,14,-1,0,6
Y2-S2-214K21,7,543,AS,exp,26,↑,up,↑,1.0868322999449447,True,14,-1,0,6
Y2-S2-214K21,7,544,AS,exp,41,→,left,←,0.7351632000645623,False,14,-1,0,6
Y2-S2-214K21,7,545,AS,exp,45,←,right,→,0.4566639999393374,False,15,-1,0,6
Y2-S2-214K21,7,546,AS,exp,25,→,right,→,0.4345258000539616,True,16,-1,0,6
Y2-S2-214K21,7,547,AS,exp,49,↑,up,↑,0.5497050000121817,True,16,-1,0,6
Y2-S2-214K21,7,548,AS,exp,38,←,left,←,0.6659762000199407,True,16,1,1,7
Y2-S2-214K21,7,549,AS,exp,48,↓,down,↓,0.6072719000512734,True,15,1,0,7
Y2-S2-214K21,7,550,AS,exp,50,→,right,→,0.5371036999858916,True,15,1,0,7
Y2-S2-214K21,7,551,AS,exp,33,←,left,←,0.6139590000966564,True,15,1,0,7
Y2-S2-214K21,7,552,AS,exp,30,→,right,→,0.5598096000030637,True,14,1,0,7
Y2-S2-214K21,7,553,AS,exp,31,←,left,←,0.4429376000771299,True,14,1,0,7
Y2-S2-214K21,7,554,AS,exp,47,↓,down,↓,0.5972281999420375,True,14,1,0,7
Y2-S2-214K21,7,555,AS,exp,39,→,right,→,0.5382056999951601,True,13,1,0,7
Y2-S2-214K21,7,556,AS,exp,45,↑,up,↑,0.46768979995977134,True,13,1,0,7
Y2-S2-214K21,7,557,AS,exp,25,←,left,←,0.6079479999607429,True,13,1,0,7
Y2-S2-214K21,7,558,AS,exp,37,↓,down,↓,0.5737767000682652,True,12,1,0,7
Y2-S2-214K21,7,559,AS,exp,38,←,left,←,0.5447445999598131,True,12,1,0,7
Y2-S2-214K21,7,560,AS,exp,49,↓,down,↓,0.6267314000288025,True,12,1,0,7
Y2-S2-214K21,7,561,AS,exp,26,→,right,→,0.44396469998173416,True,11,1,0,7
Y2-S2-214K21,7,562,AS,exp,34,↑,right,→,0.5160367999924347,False,11,-1,1,8
Y2-S2-214K21,7,563,AS,exp,30,↓,down,↓,0.4420715000014752,True,12,-1,0,8
Y2-S2-214K21,7,564,AS,exp,48,→,left,←,0.48749379999935627,False,12,-1,0,8
Y2-S2-214K21,7,565,AS,exp,25,←,left,←,0.45945409999694675,True,13,-1,0,8
Y2-S2-214K21,7,566,AS,exp,25,↓,down,↓,0.514513700036332,True,13,-1,0,8
Y2-S2-214K21,7,567,AS,exp,31,↑,up,↑,0.7085882999235764,True,13,1,1,9
Y2-S2-214K21,7,568,AS,exp,30,←,no_key,no_letter,-1.0,False,12,-1,1,10
Y2-S2-214K21,7,569,AS,exp,47,→,left,←,0.6678896000375971,False,13,-1,0,10
Y2-S2-214K21,7,570,AS,exp,35,↓,up,↑,0.806730900076218,False,14,-1,0,10
Y2-S2-214K21,7,571,AS,exp,30,↑,up,↑,0.6866760000120848,True,15,-1,0,10
Y2-S2-214K21,7,572,AS,exp,44,→,right,→,0.6841580000473186,True,15,-1,0,10
Y2-S2-214K21,7,573,AS,exp,40,↑,up,↑,0.5289362000767142,True,15,1,1,11
Y2-S2-214K21,7,574,AS,exp,38,→,right,→,0.47746940003708005,True,14,1,0,11
Y2-S2-214K21,7,575,AS,exp,28,↓,down,↓,0.610786100034602,True,14,1,0,11
Y2-S2-214K21,7,576,AS,exp,44,↑,up,↑,0.5728034999920055,True,14,1,0,11
Y2-S2-214K21,7,577,AS,exp,37,←,right,→,0.44993450003676116,False,13,-1,1,12
Y2-S2-214K21,7,578,AS,exp,27,→,right,→,0.7929396000690758,True,14,-1,0,12
Y2-S2-214K21,7,579,AS,exp,47,↑,up,↑,0.5443549000192434,True,14,-1,0,12
Y2-S2-214K21,7,580,AS,exp,30,↓,down,↓,0.639125999994576,True,14,1,1,13
Y2-S2-214K21,7,581,AS,exp,42,←,right,→,0.512875400017947,False,13,-1,1,14
Y2-S2-214K21,7,582,AS,exp,39,↑,up,↑,0.4645571999717504,True,14,-1,0,14
Y2-S2-214K21,7,583,AS,exp,45,↓,down,↓,0.5393108000280336,True,14,-1,0,14
Y2-S2-214K21,7,584,AS,exp,47,↑,up,↑,0.7820717999711633,True,14,1,1,15
Y2-S2-214K21,7,585,AS,exp,45,←,left,←,0.5217650999547914,True,13,1,0,15
Y2-S2-214K21,7,586,AS,exp,31,→,right,→,0.5405872999690473,True,13,1,0,15
Y2-S2-214K21,7,587,AS,exp,43,↑,up,↑,0.5103199000004679,True,13,1,0,15
Y2-S2-214K21,7,588,AS,exp,27,←,right,→,0.6551748999627307,False,12,-1,1,16
Y2-S2-214K21,8,589,PS,intra_train,42,→,right,→,0.5627829000586644,True,9,-,-,-
Y2-S2-214K21,8,590,PS,intra_train,41,←,right,→,0.5614003000082448,False,9,-,-,-
Y2-S2-214K21,8,591,PS,intra_train,34,↑,up,↑,0.534539100015536,True,9,-,-,-
Y2-S2-214K21,8,592,PS,intra_train,33,↓,right,→,0.539428299991414,False,9,-,-,-
Y2-S2-214K21,8,593,PS,intra_train,27,←,left,←,0.5011340000201017,True,9,-,-,-
Y2-S2-214K21,8,594,PS,exp,32,↓,up,↑,0.5175773000810295,False,6,-1,0,0
Y2-S2-214K21,8,595,PS,exp,28,↑,up,↑,0.6385899001033977,True,7,-1,0,0
Y2-S2-214K21,8,596,PS,exp,44,↓,down,↓,0.5418687000637874,True,7,-1,0,0
Y2-S2-214K21,8,597,PS,exp,49,→,right,→,0.49490599997807294,True,7,1,1,1
Y2-S2-214K21,8,598,PS,exp,34,↓,left,←,0.5478170999558643,False,6,-1,1,2
Y2-S2-214K21,8,599,PS,exp,31,↑,left,←,1.0921258999733254,False,7,-1,0,2
Y2-S2-214K21,8,600,PS,exp,47,↓,down,↓,0.5279423999600112,True,8,-1,0,2
Y2-S2-214K21,8,601,PS,exp,40,→,right,→,0.4578641999978572,True,8,-1,0,2
Y2-S2-214K21,8,602,PS,exp,48,↓,down,↓,0.5908571999752894,True,8,1,1,3
Y2-S2-214K21,8,603,PS,exp,26,↑,up,↑,0.5792282000184059,True,7,1,0,3
Y2-S2-214K21,8,604,PS,exp,42,↓,down,↓,0.6443243999965489,True,7,1,0,3
Y2-S2-214K21,8,605,PS,exp,50,←,left,←,0.4561946999747306,True,7,1,0,3
Y2-S2-214K21,8,606,PS,exp,46,→,right,→,0.5217211999697611,True,6,1,0,3
Y2-S2-214K21,8,607,PS,exp,50,↑,up,↑,0.6213923000032082,True,6,1,0,3
Y2-S2-214K21,8,608,PS,exp,44,↓,down,↓,0.5764532999601215,True,6,1,0,3
Y2-S2-214K21,8,609,PS,exp,41,↑,up,↑,0.6038747999118641,True,5,1,0,3
Y2-S2-214K21,8,610,PS,exp,42,→,left,←,0.5822826999938115,False,5,-1,1,4
Y2-S2-214K21,8,611,PS,exp,27,↑,left,←,0.678249999997206,False,6,-1,0,4
Y2-S2-214K21,8,612,PS,exp,46,→,right,→,0.5357954000355676,True,7,-1,0,4
Y2-S2-214K21,8,613,PS,exp,49,←,right,→,0.5513082999968901,False,7,-1,0,4
Y2-S2-214K21,8,614,PS,exp,26,↑,left,←,0.8726753999944776,False,8,-1,0,4
Y2-S2-214K21,8,615,PS,exp,49,←,left,←,0.6147798999445513,True,9,-1,0,4
Y2-S2-214K21,8,616,PS,exp,25,↓,down,↓,0.522221100050956,True,9,-1,0,4
Y2-S2-214K21,8,617,PS,exp,46,→,right,→,0.5555317000253126,True,9,1,1,5
Y2-S2-214K21,8,618,PS,exp,44,↑,down,↓,0.559026199975051,False,8,-1,1,6
Y2-S2-214K21,8,619,PS,exp,49,→,right,→,0.5186573999235407,True,9,-1,0,6
Y2-S2-214K21,8,620,PS,exp,48,↑,up,↑,0.5152405999833718,True,9,-1,0,6
Y2-S2-214K21,8,621,PS,exp,26,↓,down,↓,0.5229604999767616,True,9,1,1,7
Y2-S2-214K21,8,622,PS,exp,45,→,right,→,0.47760660003405064,True,8,1,0,7
Y2-S2-214K21,8,623,PS,exp,30,↓,down,↓,0.47808839997742325,True,8,1,0,7
Y2-S2-214K21,8,624,PS,exp,37,←,left,←,0.6195882000029087,True,8,1,0,7
Y2-S2-214K21,8,625,PS,exp,43,→,right,→,0.49290519999340177,True,7,1,0,7
Y2-S2-214K21,8,626,PS,exp,27,↓,down,↓,0.4557495000772178,True,7,1,0,7
Y2-S2-214K21,8,627,PS,exp,25,↑,up,↑,0.48681379994377494,True,7,1,0,7
Y2-S2-214K21,8,628,PS,exp,25,↓,right,→,0.5265070999739692,False,6,-1,1,8
Y2-S2-214K21,8,629,PS,exp,45,→,right,→,0.5528901000507176,True,7,-1,0,8
Y2-S2-214K21,8,630,PS,exp,41,↑,up,↑,0.4436643000226468,True,7,-1,0,8
Y2-S2-214K21,8,631,PS,exp,32,→,right,→,0.4728537999326363,True,7,1,1,9
Y2-S2-214K21,8,632,PS,exp,43,↓,down,↓,0.4407796999439597,True,6,1,0,9
Y2-S2-214K21,8,633,PS,exp,35,→,right,→,0.42509680008515716,True,6,1,0,9
Y2-S2-214K21,8,634,PS,exp,31,←,right,→,0.5095797000685707,False,6,-1,1,10
Y2-S2-214K21,8,635,PS,exp,34,↑,right,→,0.6457851000595838,False,7,-1,0,10
Y2-S2-214K21,8,636,PS,exp,30,→,left,←,0.6081399000249803,False,8,-1,0,10
Y2-S2-214K21,8,637,PS,exp,37,↑,up,↑,0.5392708999570459,True,9,-1,0,10
Y2-S2-214K21,8,638,PS,exp,31,←,right,→,0.47125549998600036,False,9,-1,0,10
Y2-S2-214K21,8,639,PS,exp,45,→,right,→,0.5541125000454485,True,10,-1,0,10
Y2-S2-214K21,8,640,PS,exp,46,↑,right,→,0.5616490000393242,False,10,-1,0,10
Y2-S2-214K21,8,641,PS,exp,27,↓,down,↓,0.4591470999876037,True,11,-1,0,10
Y2-S2-214K21,8,642,PS,exp,32,←,left,←,0.48073589999694377,True,11,-1,0,10
Y2-S2-214K21,8,643,PS,exp,30,↑,up,↑,0.4492192999459803,True,11,1,1,11
Y2-S2-214K21,8,644,PS,exp,29,→,right,→,0.4763551999349147,True,10,1,0,11
Y2-S2-214K21,8,645,PS,exp,34,↓,down,↓,0.42031030007638037,True,10,1,0,11
Y2-S2-214K21,8,646,PS,exp,40,←,left,←,0.40662130003329366,True,10,1,0,11
Y2-S2-214K21,8,647,PS,exp,34,↑,up,↑,0.4274373999796808,True,9,1,0,11
Y2-S2-214K21,8,648,PS,exp,50,→,right,→,0.502019300009124,True,9,1,0,11
Y2-S2-214K21,8,649,PS,exp,50,←,left,←,0.4745525000616908,True,9,1,0,11
Y2-S2-214K21,8,650,PS,exp,27,↑,right,→,0.5084532001055777,False,8,-1,1,12
Y2-S2-214K21,8,651,PS,exp,37,↓,down,↓,0.4332951999967918,True,9,-1,0,12
Y2-S2-214K21,8,652,PS,exp,35,→,right,→,0.6504589000251144,True,9,-1,0,12
Y2-S2-214K21,8,653,PS,exp,34,←,left,←,0.3944587999721989,True,9,1,1,13
Y2-S2-214K21,8,654,PS,exp,35,→,right,→,0.6709665000671521,True,8,1,0,13
Y2-S2-214K21,8,655,PS,exp,41,↓,down,↓,0.4903821999905631,True,8,1,0,13
Y2-S2-214K21,8,656,PS,exp,47,↑,up,↑,0.5318201999180019,True,8,1,0,13
Y2-S2-214K21,8,657,PS,exp,43,↓,right,→,0.5035824000369757,False,7,-1,1,14
Y2-S2-214K21,8,658,PS,exp,45,↑,up,↑,0.5567298999521881,True,8,-1,0,14
Y2-S2-214K21,8,659,PS,exp,45,↓,up,↑,0.4912736000260338,False,8,-1,0,14
Y2-S2-214K21,8,660,PS,exp,29,←,left,←,0.41338770010042936,True,9,-1,0,14
Y2-S2-214K21,8,661,PS,exp,35,→,right,→,0.413669400033541,True,9,-1,0,14
Y2-S2-214K21,8,662,PS,exp,25,↑,up,↑,0.44331780006177723,True,9,1,1,15
Y2-S2-214K21,8,663,PS,exp,27,→,right,→,0.39618589996825904,True,8,1,0,15
Y2-S2-214K21,8,664,PS,exp,39,←,left,←,0.440574900014326,True,8,1,0,15
Y2-S2-214K21,8,665,PS,exp,37,↓,right,→,0.6639948999509215,False,8,-1,1,16
