PART_ID,Block_no,Trial_no,Block_type,Trial_type,CSI,Stim_letter,Key_pressed,letter_choose,Rt,Corr,Stimulus Time,Level,Reversal,Revs_count
Y2-S2-246M19,1,1,PS,train,50,↓,down,↓,0.79700079979375,True,30,-,-,-
Y2-S2-246M19,1,2,PS,train,38,←,left,←,0.7445567999966443,True,30,-,-,-
Y2-S2-246M19,1,3,PS,train,31,→,right,→,0.5174981001764536,True,30,-,-,-
Y2-S2-246M19,1,4,PS,train,46,←,left,←,0.7400484997779131,True,30,-,-,-
Y2-S2-246M19,1,5,PS,train,44,↓,down,↓,0.7411920996382833,True,30,-,-,-
Y2-S2-246M19,1,6,PS,train,27,←,left,←,0.6005402998998761,True,30,-,-,-
Y2-S2-246M19,1,7,PS,train,38,↑,up,↑,0.5175417000427842,True,30,-,-,-
Y2-S2-246M19,1,8,PS,train,40,←,left,←,0.6005609999410808,True,30,-,-,-
Y2-S2-246M19,1,9,PS,train,46,↓,down,↓,0.6933601000346243,True,30,-,-,-
Y2-S2-246M19,1,10,PS,train,28,←,left,←,0.4839120004326105,True,30,-,-,-
Y2-S2-246M19,2,11,AS,train,45,↑,up,↑,1.0101302000693977,True,45,-,-,-
Y2-S2-246M19,2,12,AS,train,37,↓,down,↓,0.6847916999831796,True,45,-,-,-
Y2-S2-246M19,2,13,AS,train,40,←,left,←,0.5343184000812471,True,45,-,-,-
Y2-S2-246M19,2,14,AS,train,28,↑,up,↑,0.5509453001432121,True,45,-,-,-
Y2-S2-246M19,2,15,AS,train,28,←,left,←,0.6842288002371788,True,45,-,-,-
Y2-S2-246M19,2,16,AS,train,46,↓,down,↓,0.601082599721849,True,45,-,-,-
Y2-S2-246M19,2,17,AS,train,41,↑,up,↑,0.7338085998781025,True,45,-,-,-
Y2-S2-246M19,2,18,AS,train,30,→,up,↑,0.45100639993324876,False,45,-,-,-
Y2-S2-246M19,2,19,AS,train,40,↓,down,↓,0.784552900120616,True,45,-,-,-
Y2-S2-246M19,2,20,AS,train,40,→,right,→,0.6020165998488665,True,45,-,-,-
Y2-S2-246M19,-,21,PS,adaptive,44,↑,down,↓,0.7741880002431571,False,10,-1,0,0
Y2-S2-246M19,-,22,PS,adaptive,43,←,left,←,0.46612090012058616,True,11,-1,0,0
Y2-S2-246M19,-,23,PS,adaptive,49,↓,down,↓,0.6157001000829041,True,11,-1,0,0
Y2-S2-246M19,-,24,PS,adaptive,45,←,right,→,0.5195409003645182,False,11,-1,0,0
Y2-S2-246M19,-,25,PS,adaptive,45,→,right,→,0.46594200003892183,True,12,-1,0,0
Y2-S2-246M19,-,26,PS,adaptive,32,←,left,←,0.6624167999252677,True,12,-1,0,0
Y2-S2-246M19,-,27,PS,adaptive,43,↑,up,↑,0.622709899675101,True,12,1,1,1
Y2-S2-246M19,-,28,PS,adaptive,25,↓,down,↓,0.7370262001641095,True,11,1,0,1
Y2-S2-246M19,-,29,PS,adaptive,46,↑,up,↑,0.5478139002807438,True,11,1,0,1
Y2-S2-246M19,-,30,PS,adaptive,31,↓,down,↓,0.6714232000522316,True,11,1,0,1
Y2-S2-246M19,-,31,PS,adaptive,27,←,right,→,0.5832430999726057,False,10,-1,1,2
Y2-S2-246M19,-,32,PS,adaptive,49,↑,up,↑,0.776278399862349,True,11,-1,0,2
Y2-S2-246M19,-,33,PS,adaptive,38,←,down,↓,0.9118393999524415,False,11,-1,0,2
Y2-S2-246M19,-,34,PS,adaptive,32,↓,down,↓,0.6952758999541402,True,12,-1,0,2
Y2-S2-246M19,-,35,PS,adaptive,28,→,right,→,0.5228900001384318,True,12,-1,0,2
Y2-S2-246M19,-,36,PS,adaptive,38,↑,up,↑,0.47496720030903816,True,12,1,1,3
Y2-S2-246M19,-,37,PS,adaptive,37,←,left,←,0.5659570000134408,True,11,1,0,3
Y2-S2-246M19,-,38,PS,adaptive,35,→,right,→,0.5813506999984384,True,11,1,0,3
Y2-S2-246M19,-,39,PS,adaptive,42,↑,up,↑,0.46850760001689196,True,11,1,0,3
Y2-S2-246M19,-,40,PS,adaptive,48,→,right,→,0.41293170023709536,True,10,1,0,3
Y2-S2-246M19,-,41,PS,adaptive,31,←,right,→,0.4992601000703871,False,10,-1,1,4
Y2-S2-246M19,-,42,AS,adaptive,25,→,right,→,0.6365600000135601,True,20,0,0,0
Y2-S2-246M19,-,43,AS,adaptive,41,↑,up,↑,0.7371525000780821,True,20,0,0,0
Y2-S2-246M19,-,44,AS,adaptive,33,↓,down,↓,0.6094819996505976,True,20,1,0,0
Y2-S2-246M19,-,45,AS,adaptive,42,→,right,→,0.6031774999573827,True,19,1,0,0
Y2-S2-246M19,-,46,AS,adaptive,48,↑,up,↑,0.5367753002792597,True,19,1,0,0
Y2-S2-246M19,-,47,AS,adaptive,42,→,right,→,0.5550587000325322,True,19,1,0,0
Y2-S2-246M19,-,48,AS,adaptive,30,↑,up,↑,0.46825059968978167,True,18,1,0,0
Y2-S2-246M19,-,49,AS,adaptive,27,↓,down,↓,0.5980544998310506,True,18,1,0,0
Y2-S2-246M19,-,50,AS,adaptive,50,↑,up,↑,0.7209849003702402,True,18,1,0,0
Y2-S2-246M19,-,51,AS,adaptive,48,↓,down,↓,0.7381715998053551,True,17,1,0,0
Y2-S2-246M19,-,52,AS,adaptive,46,←,left,←,0.5427481001242995,True,17,1,0,0
Y2-S2-246M19,-,53,AS,adaptive,28,→,right,→,0.38427160028368235,True,17,1,0,0
Y2-S2-246M19,-,54,AS,adaptive,32,↑,down,↓,0.9719870002008975,False,16,-1,1,1
Y2-S2-246M19,-,55,AS,adaptive,37,←,left,←,0.6136366003192961,True,17,-1,0,1
Y2-S2-246M19,-,56,AS,adaptive,50,↓,down,↓,0.8041135999374092,True,17,-1,0,1
Y2-S2-246M19,-,57,AS,adaptive,50,←,left,←,0.6405933001078665,True,17,1,1,2
Y2-S2-246M19,-,58,AS,adaptive,34,↑,right,→,0.4006733000278473,False,16,-1,1,3
Y2-S2-246M19,-,59,AS,adaptive,26,→,right,→,0.5692531997337937,True,17,-1,0,3
Y2-S2-246M19,-,60,AS,adaptive,49,↓,down,↓,0.8038364998064935,True,17,-1,0,3
Y2-S2-246M19,-,61,AS,adaptive,46,↑,up,↑,0.7102208002470434,True,17,1,1,4
Y2-S2-246M19,1,62,AS,intra_train,37,←,left,←,0.6152518996968865,True,24,-,-,-
Y2-S2-246M19,1,63,AS,intra_train,44,↓,down,↓,0.6954353000037372,True,24,-,-,-
Y2-S2-246M19,1,64,AS,intra_train,49,→,right,→,0.5944451000541449,True,24,-,-,-
Y2-S2-246M19,1,65,AS,intra_train,45,↑,up,↑,0.7037021000869572,True,24,-,-,-
Y2-S2-246M19,1,66,AS,intra_train,40,←,left,←,0.5702935997396708,True,24,-,-,-
Y2-S2-246M19,1,67,AS,exp,25,↑,up,↑,0.7264630002900958,True,16,0,0,0
Y2-S2-246M19,1,68,AS,exp,36,↓,down,↓,0.8303813003003597,True,16,0,0,0
Y2-S2-246M19,1,69,AS,exp,50,←,left,←,0.7379271001555026,True,16,1,0,0
Y2-S2-246M19,1,70,AS,exp,44,→,right,→,0.6230609999038279,True,15,1,0,0
Y2-S2-246M19,1,71,AS,exp,49,↑,up,↑,0.6579946000128984,True,15,1,0,0
Y2-S2-246M19,1,72,AS,exp,29,→,right,→,0.5983601999469101,True,15,1,0,0
Y2-S2-246M19,1,73,AS,exp,39,←,left,←,0.6784501001238823,True,14,1,0,0
Y2-S2-246M19,1,74,AS,exp,43,→,right,→,0.5933355996385217,True,14,1,0,0
Y2-S2-246M19,1,75,AS,exp,43,←,left,←,0.6789608998224139,True,14,1,0,0
Y2-S2-246M19,1,76,AS,exp,31,↑,down,↓,0.682737700175494,False,13,-1,1,1
Y2-S2-246M19,1,77,AS,exp,44,→,right,→,0.5730234999209642,True,14,-1,0,1
Y2-S2-246M19,1,78,AS,exp,50,←,right,→,0.7694005998782814,False,14,-1,0,1
Y2-S2-246M19,1,79,AS,exp,27,↑,up,↑,0.7150798998773098,True,15,-1,0,1
Y2-S2-246M19,1,80,AS,exp,45,→,left,←,0.6084162001498044,False,15,-1,0,1
Y2-S2-246M19,1,81,AS,exp,32,←,left,←,0.6448907000012696,True,16,-1,0,1
Y2-S2-246M19,1,82,AS,exp,48,↑,up,↑,0.6607499998062849,True,16,-1,0,1
Y2-S2-246M19,1,83,AS,exp,35,→,right,→,0.7083395998924971,True,16,1,1,2
Y2-S2-246M19,1,84,AS,exp,34,↑,up,↑,0.5590933999046683,True,15,1,0,2
Y2-S2-246M19,1,85,AS,exp,30,→,up,↑,0.7284156000241637,False,15,-1,1,3
Y2-S2-246M19,1,86,AS,exp,31,↑,up,↑,0.7734192996285856,True,16,-1,0,3
Y2-S2-246M19,1,87,AS,exp,39,→,right,→,0.7018546001054347,True,16,-1,0,3
Y2-S2-246M19,1,88,AS,exp,30,↑,up,↑,0.6319973999634385,True,16,1,1,4
Y2-S2-246M19,1,89,AS,exp,27,↓,up,↑,0.9386058002710342,False,15,-1,1,5
Y2-S2-246M19,1,90,AS,exp,46,→,right,→,0.5268828999251127,True,16,-1,0,5
Y2-S2-246M19,1,91,AS,exp,43,↑,up,↑,0.7131566000171006,True,16,-1,0,5
Y2-S2-246M19,1,92,AS,exp,38,→,right,→,0.5099608995951712,True,16,1,1,6
Y2-S2-246M19,1,93,AS,exp,39,↓,down,↓,0.8852911996655166,True,15,1,0,6
Y2-S2-246M19,1,94,AS,exp,30,↑,right,→,0.6046259999275208,False,15,-1,1,7
Y2-S2-246M19,1,95,AS,exp,31,↓,down,↓,0.7893501999787986,True,16,-1,0,7
Y2-S2-246M19,1,96,AS,exp,43,→,right,→,0.6314214998856187,True,16,-1,0,7
Y2-S2-246M19,1,97,AS,exp,43,↓,down,↓,0.7404038002714515,True,16,1,1,8
Y2-S2-246M19,1,98,AS,exp,46,→,down,↓,0.8792516998946667,False,15,-1,1,9
Y2-S2-246M19,1,99,AS,exp,40,←,left,←,0.7335671000182629,True,16,-1,0,9
Y2-S2-246M19,1,100,AS,exp,46,→,right,→,0.456086500082165,True,16,-1,0,9
Y2-S2-246M19,1,101,AS,exp,41,←,left,←,0.6691025998443365,True,16,1,1,10
Y2-S2-246M19,1,102,AS,exp,32,↓,down,↓,0.5673589999787509,True,15,1,0,10
Y2-S2-246M19,1,103,AS,exp,35,→,left,←,1.839283499866724,False,15,-1,1,11
Y2-S2-246M19,1,104,AS,exp,34,↑,down,↓,0.8800220000557601,False,16,-1,0,11
Y2-S2-246M19,1,105,AS,exp,42,←,left,←,0.6283005997538567,True,17,-1,0,11
Y2-S2-246M19,1,106,AS,exp,29,→,right,→,0.6531572001986206,True,17,-1,0,11
Y2-S2-246M19,1,107,AS,exp,33,←,left,←,0.7781291999854147,True,17,1,1,12
Y2-S2-246M19,1,108,AS,exp,37,↑,up,↑,0.6923119002021849,True,16,1,0,12
Y2-S2-246M19,1,109,AS,exp,45,↓,down,↓,0.8164738002233207,True,16,1,0,12
Y2-S2-246M19,1,110,AS,exp,28,↑,up,↑,0.9974287003278732,True,16,1,0,12
Y2-S2-246M19,1,111,AS,exp,45,←,left,←,0.6584457000717521,True,15,1,0,12
Y2-S2-246M19,1,112,AS,exp,35,→,down,↓,1.3330693002790213,False,15,-1,1,13
Y2-S2-246M19,1,113,AS,exp,39,↓,down,↓,0.7038774997927248,True,16,-1,0,13
Y2-S2-246M19,1,114,AS,exp,45,↑,right,→,0.799189300276339,False,16,-1,0,13
Y2-S2-246M19,1,115,AS,exp,41,←,left,←,0.5441617001779377,True,17,-1,0,13
Y2-S2-246M19,1,116,AS,exp,37,↓,down,↓,0.8605885999277234,True,17,-1,0,13
Y2-S2-246M19,1,117,AS,exp,50,←,left,←,0.6256495998241007,True,17,1,1,14
Y2-S2-246M19,1,118,AS,exp,34,↓,left,←,0.7155714998953044,False,16,-1,1,15
Y2-S2-246M19,1,119,AS,exp,46,→,right,→,0.8785711000673473,True,17,-1,0,15
Y2-S2-246M19,1,120,AS,exp,50,↑,up,↑,0.7343036001548171,True,17,-1,0,15
Y2-S2-246M19,1,121,AS,exp,45,↓,down,↓,0.9507106998935342,True,17,1,1,16
Y2-S2-246M19,2,122,PS,intra_train,27,→,left,←,1.2835835996083915,False,16,-,-,-
Y2-S2-246M19,2,123,PS,intra_train,27,↓,down,↓,0.7492819996550679,True,16,-,-,-
Y2-S2-246M19,2,124,PS,intra_train,38,→,down,↓,1.1505143996328115,False,16,-,-,-
Y2-S2-246M19,2,125,PS,intra_train,34,←,left,←,0.6576586998999119,True,16,-,-,-
Y2-S2-246M19,2,126,PS,intra_train,50,↓,down,↓,0.7264339998364449,True,16,-,-,-
Y2-S2-246M19,2,127,PS,exp,36,→,right,→,0.5853519001975656,True,11,0,0,0
Y2-S2-246M19,2,128,PS,exp,27,←,right,→,0.5402373000979424,False,11,-1,0,0
Y2-S2-246M19,2,129,PS,exp,47,↑,up,↑,0.6529896999709308,True,12,-1,0,0
Y2-S2-246M19,2,130,PS,exp,48,↓,down,↓,0.9556617997586727,True,12,-1,0,0
Y2-S2-246M19,2,131,PS,exp,41,→,right,→,0.6312498999759555,True,12,1,1,1
Y2-S2-246M19,2,132,PS,exp,28,↑,up,↑,0.749392599798739,True,11,1,0,1
Y2-S2-246M19,2,133,PS,exp,41,←,left,←,0.4153931001201272,True,11,1,0,1
Y2-S2-246M19,2,134,PS,exp,46,↑,up,↑,0.6962253996171057,True,11,1,0,1
Y2-S2-246M19,2,135,PS,exp,47,↓,up,↑,0.6395812998525798,False,10,-1,1,2
Y2-S2-246M19,2,136,PS,exp,50,→,right,→,0.49260620027780533,True,11,-1,0,2
Y2-S2-246M19,2,137,PS,exp,39,↑,up,↑,0.652889100369066,True,11,-1,0,2
Y2-S2-246M19,2,138,PS,exp,31,←,left,←,0.5947361001744866,True,11,1,1,3
Y2-S2-246M19,2,139,PS,exp,33,→,right,→,1.4054002999328077,True,10,1,0,3
Y2-S2-246M19,2,140,PS,exp,38,↑,up,↑,0.8326310003176332,True,10,1,0,3
Y2-S2-246M19,2,141,PS,exp,30,→,up,↑,0.7243352998048067,False,10,-1,1,4
Y2-S2-246M19,2,142,PS,exp,32,↑,up,↑,0.5679409001022577,True,11,-1,0,4
Y2-S2-246M19,2,143,PS,exp,39,←,up,↑,0.7655352000147104,False,11,-1,0,4
Y2-S2-246M19,2,144,PS,exp,48,↓,right,→,1.6699095000512898,False,12,-1,0,4
Y2-S2-246M19,2,145,PS,exp,25,→,left,←,0.8499548998661339,False,13,-1,0,4
Y2-S2-246M19,2,146,PS,exp,30,←,right,→,0.6258620996959507,False,14,-1,0,4
Y2-S2-246M19,2,147,PS,exp,50,↑,right,→,0.9730155002325773,False,15,-1,0,4
Y2-S2-246M19,2,148,PS,exp,40,←,right,→,0.6877199001610279,False,16,-1,0,4
Y2-S2-246M19,2,149,PS,exp,49,↑,left,←,0.48806279990822077,False,17,-1,0,4
Y2-S2-246M19,2,150,PS,exp,46,↓,down,↓,0.7211052998900414,True,18,-1,0,4
Y2-S2-246M19,2,151,PS,exp,43,→,right,→,0.5576761998236179,True,18,-1,0,4
Y2-S2-246M19,2,152,PS,exp,48,←,left,←,0.5029637003317475,True,18,1,1,5
Y2-S2-246M19,2,153,PS,exp,39,↑,left,←,1.3612195998430252,False,17,-1,1,6
Y2-S2-246M19,2,154,PS,exp,27,←,left,←,0.6976616000756621,True,18,-1,0,6
Y2-S2-246M19,2,155,PS,exp,36,↓,down,↓,0.8026092001236975,True,18,-1,0,6
Y2-S2-246M19,2,156,PS,exp,34,↑,left,←,0.7726527000777423,False,18,-1,0,6
Y2-S2-246M19,2,157,PS,exp,37,←,left,←,0.7162926001474261,True,19,-1,0,6
Y2-S2-246M19,2,158,PS,exp,50,↓,down,↓,1.2558846999891102,True,19,-1,0,6
Y2-S2-246M19,2,159,PS,exp,45,↑,left,←,1.1899001998826861,False,19,-1,0,6
Y2-S2-246M19,2,160,PS,exp,41,←,left,←,1.9027379998005927,True,20,-1,0,6
Y2-S2-246M19,2,161,PS,exp,32,↓,right,→,1.4517430001869798,False,20,-1,0,6
Y2-S2-246M19,2,162,PS,exp,49,←,left,←,0.7588034002110362,True,21,-1,0,6
Y2-S2-246M19,2,163,PS,exp,34,↓,left,←,0.4672212996520102,False,21,-1,0,6
Y2-S2-246M19,2,164,PS,exp,29,←,up,↑,1.2499860003590584,False,22,-1,0,6
Y2-S2-246M19,2,165,PS,exp,33,↓,right,→,0.5890672001987696,False,23,-1,0,6
Y2-S2-246M19,2,166,PS,exp,47,←,right,→,0.3513175998814404,False,24,-1,0,6
Y2-S2-246M19,2,167,PS,exp,40,↓,down,↓,0.733496000058949,True,25,-1,0,6
Y2-S2-246M19,2,168,PS,exp,36,↑,up,↑,0.8698509000241756,True,25,-1,0,6
Y2-S2-246M19,2,169,PS,exp,33,↓,down,↓,0.6967742000706494,True,25,1,1,7
Y2-S2-246M19,2,170,PS,exp,37,↑,up,↑,0.99907479993999,True,24,1,0,7
Y2-S2-246M19,2,171,PS,exp,29,←,right,→,1.7165946001186967,False,24,-1,1,8
Y2-S2-246M19,2,172,PS,exp,33,↓,down,↓,0.8016573996283114,True,25,-1,0,8
Y2-S2-246M19,2,173,PS,exp,50,←,left,←,0.6248417999595404,True,25,-1,0,8
Y2-S2-246M19,2,174,PS,exp,34,→,right,→,0.2844247999601066,True,25,1,1,9
Y2-S2-246M19,2,175,PS,exp,28,←,left,←,0.46719499956816435,True,24,1,0,9
Y2-S2-246M19,2,176,PS,exp,31,→,left,←,0.36825350020080805,False,24,-1,1,10
Y2-S2-246M19,2,177,PS,exp,32,↓,down,↓,0.8483017003163695,True,25,-1,0,10
Y2-S2-246M19,2,178,PS,exp,33,←,left,←,0.6468695998191833,True,25,-1,0,10
Y2-S2-246M19,2,179,PS,exp,48,↑,up,↑,0.5992262000218034,True,25,1,1,11
Y2-S2-246M19,2,180,PS,exp,33,↓,down,↓,0.6531519000418484,True,24,1,0,11
Y2-S2-246M19,2,181,PS,exp,37,→,right,→,0.8060109000653028,True,24,1,0,11
Y2-S2-246M19,2,182,PS,exp,34,↑,up,↑,1.1781948995776474,True,24,1,0,11
Y2-S2-246M19,2,183,PS,exp,40,→,right,→,0.5817147996276617,True,23,1,0,11
Y2-S2-246M19,2,184,PS,exp,45,←,left,←,0.45039269980043173,True,23,1,0,11
Y2-S2-246M19,2,185,PS,exp,46,↓,down,↓,0.6579141998663545,True,23,1,0,11
Y2-S2-246M19,2,186,PS,exp,30,←,left,←,0.5425384002737701,True,22,1,0,11
Y2-S2-246M19,2,187,PS,exp,35,→,right,→,0.8314910000190139,True,22,1,0,11
Y2-S2-246M19,2,188,PS,exp,38,←,left,←,0.33434539986774325,True,22,1,0,11
Y2-S2-246M19,2,189,PS,exp,30,↓,left,←,0.7039328003302217,False,21,-1,1,12
Y2-S2-246M19,2,190,PS,exp,34,↑,no_key,no_letter,-1.0,False,22,-1,0,12
Y2-S2-246M19,2,191,PS,exp,27,→,right,→,0.43405359983444214,True,23,-1,0,12
Y2-S2-246M19,2,192,PS,exp,38,↑,up,↑,1.7314526000991464,True,23,-1,0,12
Y2-S2-246M19,2,193,PS,exp,37,→,up,↑,0.1841383003629744,False,23,-1,0,12
Y2-S2-246M19,2,194,PS,exp,38,←,up,↑,1.0307686999440193,False,24,-1,0,12
Y2-S2-246M19,2,195,PS,exp,38,↓,no_key,no_letter,-1.0,False,25,-1,0,12
Y2-S2-246M19,2,196,PS,exp,42,←,right,→,0.8437696001492441,False,26,-1,0,12
Y2-S2-246M19,2,197,PS,exp,45,↓,up,↑,1.6171162999235094,False,27,-1,0,12
Y2-S2-246M19,2,198,PS,exp,36,→,no_key,no_letter,-1.0,False,28,-1,0,12
Y2-S2-246M19,2,199,PS,exp,28,↓,down,↓,0.7289387001655996,True,29,-1,0,12
Y2-S2-246M19,2,200,PS,exp,40,←,left,←,0.5337530998513103,True,29,-1,0,12
Y2-S2-246M19,2,201,PS,exp,29,↓,down,↓,0.7343382998369634,True,29,1,1,13
Y2-S2-246M19,2,202,PS,exp,33,←,left,←,0.5006189001724124,True,28,1,0,13
Y2-S2-246M19,2,203,PS,exp,29,↑,up,↑,0.6639937004074454,True,28,1,0,13
Y2-S2-246M19,2,204,PS,exp,43,↓,down,↓,0.6786370002664626,True,28,1,0,13
Y2-S2-246M19,2,205,PS,exp,45,←,left,←,0.7854277999140322,True,27,1,0,13
Y2-S2-246M19,2,206,PS,exp,35,→,right,→,0.6233692998066545,True,27,1,0,13
Y2-S2-246M19,2,207,PS,exp,41,←,right,→,0.8056063000112772,False,27,-1,1,14
Y2-S2-246M19,2,208,PS,exp,25,↑,up,↑,0.821685700211674,True,28,-1,0,14
Y2-S2-246M19,2,209,PS,exp,31,←,left,←,0.5005183001048863,True,28,-1,0,14
Y2-S2-246M19,2,210,PS,exp,36,→,right,→,0.8813442001119256,True,28,1,1,15
Y2-S2-246M19,2,211,PS,exp,37,↓,down,↓,1.4079820001497865,True,27,1,0,15
Y2-S2-246M19,2,212,PS,exp,26,→,right,→,0.8661759002134204,True,27,1,0,15
Y2-S2-246M19,2,213,PS,exp,46,←,up,↑,1.974524799734354,False,27,-1,1,16
Y2-S2-246M19,3,214,PS,intra_train,44,↑,up,↑,0.7038745996542275,True,16,-,-,-
Y2-S2-246M19,3,215,PS,intra_train,47,←,left,←,0.60325050028041,True,16,-,-,-
Y2-S2-246M19,3,216,PS,intra_train,36,↓,down,↓,0.9645940000191331,True,16,-,-,-
Y2-S2-246M19,3,217,PS,intra_train,31,←,left,←,0.572701099794358,True,16,-,-,-
Y2-S2-246M19,3,218,PS,intra_train,31,↑,down,↓,0.8993396000005305,False,16,-,-,-
Y2-S2-246M19,3,219,PS,exp,43,→,up,↑,1.2477850997820497,False,11,-1,0,0
Y2-S2-246M19,3,220,PS,exp,29,←,right,→,0.9541579000651836,False,12,-1,0,0
Y2-S2-246M19,3,221,PS,exp,36,↑,up,↑,0.7674039998091757,True,13,-1,0,0
Y2-S2-246M19,3,222,PS,exp,33,→,right,→,1.427172299940139,True,13,-1,0,0
Y2-S2-246M19,3,223,PS,exp,44,↑,left,←,1.3158360002562404,False,13,-1,0,0
Y2-S2-246M19,3,224,PS,exp,34,→,no_key,no_letter,-1.0,False,14,-1,0,0
Y2-S2-246M19,3,225,PS,exp,47,↓,up,↑,0.526292699854821,False,15,-1,0,0
Y2-S2-246M19,3,226,PS,exp,32,↑,right,→,1.1718880999833345,False,16,-1,0,0
Y2-S2-246M19,3,227,PS,exp,49,←,left,←,0.4812618000432849,True,17,-1,0,0
Y2-S2-246M19,3,228,PS,exp,39,↑,up,↑,0.4766549998894334,True,17,-1,0,0
Y2-S2-246M19,3,229,PS,exp,29,←,left,←,0.6023760000243783,True,17,1,1,1
Y2-S2-246M19,3,230,PS,exp,38,↑,up,↑,0.4519253997132182,True,16,1,0,1
Y2-S2-246M19,3,231,PS,exp,46,←,left,←,1.224574400112033,True,16,1,0,1
Y2-S2-246M19,3,232,PS,exp,37,↑,up,↑,0.5166059001348913,True,16,1,0,1
Y2-S2-246M19,3,233,PS,exp,36,↓,down,↓,0.8109395001083612,True,15,1,0,1
Y2-S2-246M19,3,234,PS,exp,50,→,right,→,0.5463919001631439,True,15,1,0,1
Y2-S2-246M19,3,235,PS,exp,26,↓,up,↑,0.7611656002700329,False,15,-1,1,2
Y2-S2-246M19,3,236,PS,exp,30,←,left,←,0.7994065000675619,True,16,-1,0,2
Y2-S2-246M19,3,237,PS,exp,27,→,right,→,0.9120683004148304,True,16,-1,0,2
Y2-S2-246M19,3,238,PS,exp,29,←,left,←,1.2651670998893678,True,16,1,1,3
Y2-S2-246M19,3,239,PS,exp,47,↓,down,↓,0.8479019002988935,True,15,1,0,3
Y2-S2-246M19,3,240,PS,exp,35,←,left,←,0.6218457999639213,True,15,1,0,3
Y2-S2-246M19,3,241,PS,exp,31,↑,up,↑,0.6039971997961402,True,15,1,0,3
Y2-S2-246M19,3,242,PS,exp,34,→,right,→,0.6480443999171257,True,14,1,0,3
Y2-S2-246M19,3,243,PS,exp,41,↑,up,↑,0.5269097997806966,True,14,1,0,3
Y2-S2-246M19,3,244,PS,exp,35,→,right,→,0.5387968001887202,True,14,1,0,3
Y2-S2-246M19,3,245,PS,exp,34,↓,down,↓,0.5755392001010478,True,13,1,0,3
Y2-S2-246M19,3,246,PS,exp,28,↑,down,↓,0.4310437999665737,False,13,-1,1,4
Y2-S2-246M19,3,247,PS,exp,49,←,left,←,0.5109433000907302,True,14,-1,0,4
Y2-S2-246M19,3,248,PS,exp,31,↓,down,↓,0.7661585998721421,True,14,-1,0,4
Y2-S2-246M19,3,249,PS,exp,42,→,right,→,0.4385659000836313,True,14,1,1,5
Y2-S2-246M19,3,250,PS,exp,43,↓,down,↓,1.0824548001401126,True,13,1,0,5
Y2-S2-246M19,3,251,PS,exp,32,→,right,→,0.49494179990142584,True,13,1,0,5
Y2-S2-246M19,3,252,PS,exp,48,↑,up,↑,0.8195381001569331,True,13,1,0,5
Y2-S2-246M19,3,253,PS,exp,48,←,left,←,0.7080977000296116,True,12,1,0,5
Y2-S2-246M19,3,254,PS,exp,39,↑,up,↑,0.6270367000252008,True,12,1,0,5
Y2-S2-246M19,3,255,PS,exp,40,→,right,→,0.5123156001791358,True,12,1,0,5
Y2-S2-246M19,3,256,PS,exp,37,↑,up,↑,0.44536529993638396,True,11,1,0,5
Y2-S2-246M19,3,257,PS,exp,50,→,right,→,0.6235750000923872,True,11,1,0,5
Y2-S2-246M19,3,258,PS,exp,46,↓,down,↓,0.6164028998464346,True,11,1,0,5
Y2-S2-246M19,3,259,PS,exp,25,→,right,→,1.2799646998755634,True,10,1,0,5
Y2-S2-246M19,3,260,PS,exp,37,←,left,←,0.42879820009693503,True,10,1,0,5
Y2-S2-246M19,3,261,PS,exp,48,→,right,→,1.2922724997624755,True,10,1,0,5
Y2-S2-246M19,3,262,PS,exp,31,←,right,→,0.5724078002385795,False,9,-1,1,6
Y2-S2-246M19,3,263,PS,exp,36,↓,left,←,1.0225472999736667,False,10,-1,0,6
Y2-S2-246M19,3,264,PS,exp,28,←,left,←,1.0154093001037836,True,11,-1,0,6
Y2-S2-246M19,3,265,PS,exp,44,→,left,←,0.7738532000221312,False,11,-1,0,6
Y2-S2-246M19,3,266,PS,exp,26,↑,right,→,1.200216599740088,False,12,-1,0,6
Y2-S2-246M19,3,267,PS,exp,28,→,no_key,no_letter,-1.0,False,13,-1,0,6
Y2-S2-246M19,3,268,PS,exp,39,↑,left,←,0.3337009996175766,False,14,-1,0,6
Y2-S2-246M19,3,269,PS,exp,40,←,left,←,0.5394461001269519,True,15,-1,0,6
Y2-S2-246M19,3,270,PS,exp,35,↑,left,←,0.3172777001745999,False,15,-1,0,6
Y2-S2-246M19,3,271,PS,exp,48,←,left,←,0.5254211998544633,True,16,-1,0,6
Y2-S2-246M19,3,272,PS,exp,48,→,right,→,0.5707917003892362,True,16,-1,0,6
Y2-S2-246M19,3,273,PS,exp,31,↓,down,↓,0.7999586001969874,True,16,1,1,7
Y2-S2-246M19,3,274,PS,exp,48,←,left,←,0.5426654000766575,True,15,1,0,7
Y2-S2-246M19,3,275,PS,exp,38,↓,down,↓,0.6748629999347031,True,15,1,0,7
Y2-S2-246M19,3,276,PS,exp,44,←,left,←,0.49930839985609055,True,15,1,0,7
Y2-S2-246M19,3,277,PS,exp,43,↑,up,↑,0.8454876001924276,True,14,1,0,7
Y2-S2-246M19,3,278,PS,exp,28,→,right,→,0.6951087997294962,True,14,1,0,7
Y2-S2-246M19,3,279,PS,exp,32,↓,left,←,1.438349099829793,False,14,-1,1,8
Y2-S2-246M19,3,280,PS,exp,39,→,right,→,0.581719399895519,True,15,-1,0,8
Y2-S2-246M19,3,281,PS,exp,29,↑,up,↑,0.5339334001764655,True,15,-1,0,8
Y2-S2-246M19,3,282,PS,exp,42,↓,down,↓,0.792780399788171,True,15,1,1,9
Y2-S2-246M19,3,283,PS,exp,49,→,right,→,0.6295241001062095,True,14,1,0,9
Y2-S2-246M19,3,284,PS,exp,25,←,right,→,1.0593929002061486,False,14,-1,1,10
Y2-S2-246M19,3,285,PS,exp,37,↑,up,↑,0.7479244000278413,True,15,-1,0,10
Y2-S2-246M19,3,286,PS,exp,31,→,left,←,0.8152858996763825,False,15,-1,0,10
Y2-S2-246M19,3,287,PS,exp,40,↓,down,↓,0.8487919000908732,True,16,-1,0,10
Y2-S2-246M19,3,288,PS,exp,32,↑,up,↑,0.8146369000896811,True,16,-1,0,10
Y2-S2-246M19,3,289,PS,exp,32,←,right,→,0.5787669001147151,False,16,-1,0,10
Y2-S2-246M19,3,290,PS,exp,40,↑,no_key,no_letter,-1.0,False,17,-1,0,10
Y2-S2-246M19,3,291,PS,exp,50,←,right,→,1.033182700164616,False,18,-1,0,10
Y2-S2-246M19,3,292,PS,exp,38,↑,down,↓,1.1609483999200165,False,19,-1,0,10
Y2-S2-246M19,3,293,PS,exp,31,↓,down,↓,0.4515677997842431,True,20,-1,0,10
Y2-S2-246M19,3,294,PS,exp,26,→,left,←,0.41722630010917783,False,20,-1,0,10
Y2-S2-246M19,3,295,PS,exp,29,←,left,←,0.4339565997943282,True,21,-1,0,10
Y2-S2-246M19,3,296,PS,exp,33,↓,down,↓,0.4673184002749622,True,21,-1,0,10
Y2-S2-246M19,3,297,PS,exp,39,←,no_key,no_letter,-1.0,False,21,-1,0,10
Y2-S2-246M19,3,298,PS,exp,27,→,right,→,0.48400320019572973,True,22,-1,0,10
Y2-S2-246M19,3,299,PS,exp,40,↓,down,↓,0.7363076996989548,True,22,-1,0,10
Y2-S2-246M19,3,300,PS,exp,29,→,right,→,0.6531417998485267,True,22,1,1,11
Y2-S2-246M19,3,301,PS,exp,36,↓,down,↓,0.5491689997725189,True,21,1,0,11
Y2-S2-246M19,3,302,PS,exp,43,→,right,→,0.5334846000187099,True,21,1,0,11
Y2-S2-246M19,3,303,PS,exp,48,↑,up,↑,1.3301674001850188,True,21,1,0,11
Y2-S2-246M19,3,304,PS,exp,50,↓,down,↓,0.922450799960643,True,20,1,0,11
Y2-S2-246M19,3,305,PS,exp,43,↑,up,↑,0.9857302997261286,True,20,1,0,11
Y2-S2-246M19,3,306,PS,exp,47,→,right,→,1.7259054002352059,True,20,1,0,11
Y2-S2-246M19,3,307,PS,exp,36,↓,down,↓,0.8777482998557389,True,19,1,0,11
Y2-S2-246M19,3,308,PS,exp,37,←,left,←,1.2702019000425935,True,19,1,0,11
Y2-S2-246M19,3,309,PS,exp,50,↑,up,↑,0.7230078997090459,True,19,1,0,11
Y2-S2-246M19,3,310,PS,exp,27,→,no_key,no_letter,-1.0,False,18,-1,1,12
Y2-S2-246M19,3,311,PS,exp,49,←,left,←,0.45057239988818765,True,19,-1,0,12
Y2-S2-246M19,3,312,PS,exp,25,→,right,→,0.7850836999714375,True,19,-1,0,12
Y2-S2-246M19,3,313,PS,exp,35,←,up,↑,0.3343927999958396,False,19,-1,0,12
Y2-S2-246M19,3,314,PS,exp,42,↑,up,↑,0.8000155999325216,True,20,-1,0,12
Y2-S2-246M19,3,315,PS,exp,27,→,up,↑,1.0539921997115016,False,20,-1,0,12
Y2-S2-246M19,3,316,PS,exp,33,←,up,↑,2.0035310997627676,False,21,-1,0,12
Y2-S2-246M19,3,317,PS,exp,35,↓,right,→,1.0465617002919316,False,22,-1,0,12
Y2-S2-246M19,3,318,PS,exp,48,→,up,↑,0.38389529986307025,False,23,-1,0,12
Y2-S2-246M19,3,319,PS,exp,48,↓,up,↑,1.6538769998587668,False,24,-1,0,12
Y2-S2-246M19,3,320,PS,exp,37,←,right,→,0.7719403998926282,False,25,-1,0,12
Y2-S2-246M19,3,321,PS,exp,27,→,left,←,1.1197297000326216,False,26,-1,0,12
Y2-S2-246M19,3,322,PS,exp,33,↓,down,↓,0.736088200006634,True,27,-1,0,12
Y2-S2-246M19,3,323,PS,exp,36,←,left,←,0.5006559998728335,True,27,-1,0,12
Y2-S2-246M19,3,324,PS,exp,46,↑,up,↑,1.0404061996378005,True,27,1,1,13
Y2-S2-246M19,3,325,PS,exp,33,↓,down,↓,0.965309000108391,True,26,1,0,13
Y2-S2-246M19,3,326,PS,exp,33,→,right,→,0.45057239988818765,True,26,1,0,13
Y2-S2-246M19,3,327,PS,exp,33,←,left,←,0.5341385998763144,True,26,1,0,13
Y2-S2-246M19,3,328,PS,exp,26,→,right,→,0.3341556000523269,True,25,1,0,13
Y2-S2-246M19,3,329,PS,exp,29,←,left,←,0.45066399965435266,True,25,1,0,13
Y2-S2-246M19,3,330,PS,exp,32,↓,down,↓,0.6498837000690401,True,25,1,0,13
Y2-S2-246M19,3,331,PS,exp,50,←,left,←,0.5002868003211915,True,24,1,0,13
Y2-S2-246M19,3,332,PS,exp,26,↓,right,→,0.6715939003042877,False,24,-1,1,14
Y2-S2-246M19,3,333,PS,exp,33,→,left,←,0.46731120022013783,False,25,-1,0,14
Y2-S2-246M19,3,334,PS,exp,34,←,up,↑,0.45062729995697737,False,26,-1,0,14
Y2-S2-246M19,3,335,PS,exp,39,↑,down,↓,1.019302999600768,False,27,-1,0,14
Y2-S2-246M19,3,336,PS,exp,28,←,left,←,1.6182658998295665,True,28,-1,0,14
Y2-S2-246M19,3,337,PS,exp,28,↓,up,↑,2.0940884998999536,False,28,-1,0,14
Y2-S2-246M19,3,338,PS,exp,49,←,right,→,0.03470820002257824,False,29,-1,0,14
Y2-S2-246M19,3,339,PS,exp,33,→,right,→,1.2161787999793887,True,30,-1,0,14
Y2-S2-246M19,3,340,PS,exp,45,←,left,←,0.5671375999227166,True,30,-1,0,14
Y2-S2-246M19,3,341,PS,exp,38,→,right,→,0.5007879002951086,True,30,1,1,15
Y2-S2-246M19,3,342,PS,exp,31,↑,up,↑,0.858682899735868,True,29,1,0,15
Y2-S2-246M19,3,343,PS,exp,37,↓,down,↓,0.7395493998192251,True,29,1,0,15
Y2-S2-246M19,3,344,PS,exp,50,←,left,←,0.6758929002098739,True,29,1,0,15
Y2-S2-246M19,3,345,PS,exp,47,↑,up,↑,0.7942915000021458,True,28,1,0,15
Y2-S2-246M19,3,346,PS,exp,48,←,left,←,0.7470402996987104,True,28,1,0,15
Y2-S2-246M19,3,347,PS,exp,33,→,right,→,1.8763266000896692,True,28,1,0,15
Y2-S2-246M19,3,348,PS,exp,50,↑,up,↑,0.8997661997564137,True,27,1,0,15
Y2-S2-246M19,3,349,PS,exp,28,←,left,←,1.0224007000215352,True,27,1,0,15
Y2-S2-246M19,3,350,PS,exp,26,→,right,→,0.4840898998081684,True,27,1,0,15
Y2-S2-246M19,3,351,PS,exp,34,↓,down,↓,0.7567038000561297,True,26,1,0,15
Y2-S2-246M19,3,352,PS,exp,46,→,right,→,0.43417319981381297,True,26,1,0,15
Y2-S2-246M19,3,353,PS,exp,31,↑,up,↑,0.5341431996785104,True,26,1,0,15
Y2-S2-246M19,3,354,PS,exp,31,→,right,→,0.48436619993299246,True,25,1,0,15
Y2-S2-246M19,3,355,PS,exp,47,←,left,←,0.4506599004380405,True,25,1,0,15
Y2-S2-246M19,3,356,PS,exp,50,→,right,→,0.45061379997059703,True,25,1,0,15
Y2-S2-246M19,3,357,PS,exp,45,↑,left,←,0.5341479000635445,False,24,-1,1,16
Y2-S2-246M19,4,358,AS,intra_train,28,↓,down,↓,0.6340513997711241,True,24,-,-,-
Y2-S2-246M19,4,359,AS,intra_train,25,↑,up,↑,0.7093327003531158,True,24,-,-,-
Y2-S2-246M19,4,360,AS,intra_train,40,↓,down,↓,0.6822406002320349,True,24,-,-,-
Y2-S2-246M19,4,361,AS,intra_train,45,↑,up,↑,0.7023749998770654,True,24,-,-,-
Y2-S2-246M19,4,362,AS,intra_train,28,→,right,→,0.7250948003493249,True,24,-,-,-
Y2-S2-246M19,4,363,AS,exp,33,←,up,↑,0.8697981997393072,False,16,-1,0,0
Y2-S2-246M19,4,364,AS,exp,36,→,right,→,0.7081170999445021,True,17,-1,0,0
Y2-S2-246M19,4,365,AS,exp,37,↓,down,↓,0.7907376997172832,True,17,-1,0,0
Y2-S2-246M19,4,366,AS,exp,50,→,left,←,0.5616901996545494,False,17,-1,0,0
Y2-S2-246M19,4,367,AS,exp,46,↑,right,→,0.6517734001390636,False,18,-1,0,0
Y2-S2-246M19,4,368,AS,exp,30,↓,down,↓,0.7160682999528944,True,19,-1,0,0
Y2-S2-246M19,4,369,AS,exp,40,→,left,←,0.38442649971693754,False,19,-1,0,0
Y2-S2-246M19,4,370,AS,exp,30,↑,up,↑,0.680042200256139,True,20,-1,0,0
Y2-S2-246M19,4,371,AS,exp,26,←,left,←,0.5660084998235106,True,20,-1,0,0
Y2-S2-246M19,4,372,AS,exp,31,↓,down,↓,0.850176400039345,True,20,1,1,1
Y2-S2-246M19,4,373,AS,exp,26,→,right,→,1.190249300096184,True,19,1,0,1
Y2-S2-246M19,4,374,AS,exp,48,↓,down,↓,0.7957429997622967,True,19,1,0,1
Y2-S2-246M19,4,375,AS,exp,49,↑,down,↓,1.0302793998271227,False,19,-1,1,2
Y2-S2-246M19,4,376,AS,exp,50,↓,down,↓,0.8299815999343991,True,20,-1,0,2
Y2-S2-246M19,4,377,AS,exp,30,←,left,←,0.633593900129199,True,20,-1,0,2
Y2-S2-246M19,4,378,AS,exp,41,→,right,→,0.6516754999756813,True,20,1,1,3
Y2-S2-246M19,4,379,AS,exp,44,↓,down,↓,0.6778583996929228,True,19,1,0,3
Y2-S2-246M19,4,380,AS,exp,42,↑,down,↓,0.9142922000028193,False,19,-1,1,4
Y2-S2-246M19,4,381,AS,exp,43,→,right,→,0.6439761999063194,True,20,-1,0,4
Y2-S2-246M19,4,382,AS,exp,29,←,left,←,0.6908117001876235,True,20,-1,0,4
Y2-S2-246M19,4,383,AS,exp,30,↑,up,↑,0.8377235997468233,True,20,1,1,5
Y2-S2-246M19,4,384,AS,exp,40,←,left,←,0.900350300129503,True,19,1,0,5
Y2-S2-246M19,4,385,AS,exp,43,→,up,↑,0.7764640999957919,False,19,-1,1,6
Y2-S2-246M19,4,386,AS,exp,45,↑,up,↑,0.7729996000416577,True,20,-1,0,6
Y2-S2-246M19,4,387,AS,exp,45,←,up,↑,1.0995966996997595,False,20,-1,0,6
Y2-S2-246M19,4,388,AS,exp,41,↓,down,↓,0.6661266000010073,True,21,-1,0,6
Y2-S2-246M19,4,389,AS,exp,30,↑,up,↑,0.7508994997479022,True,21,-1,0,6
Y2-S2-246M19,4,390,AS,exp,38,↓,up,↑,0.7114544999785721,False,21,-1,0,6
Y2-S2-246M19,4,391,AS,exp,44,↑,down,↓,0.8390453001484275,False,22,-1,0,6
Y2-S2-246M19,4,392,AS,exp,41,→,right,→,0.5007232995703816,True,23,-1,0,6
Y2-S2-246M19,4,393,AS,exp,35,←,left,←,0.43366790004074574,True,23,-1,0,6
Y2-S2-246M19,4,394,AS,exp,32,↓,down,↓,0.9312900002114475,True,23,1,1,7
Y2-S2-246M19,4,395,AS,exp,26,→,right,→,0.6776284999214113,True,22,1,0,7
Y2-S2-246M19,4,396,AS,exp,49,←,left,←,0.6806351998820901,True,22,1,0,7
Y2-S2-246M19,4,397,AS,exp,50,→,right,→,0.4841113998554647,True,22,1,0,7
Y2-S2-246M19,4,398,AS,exp,32,←,left,←,0.6451832000166178,True,21,1,0,7
Y2-S2-246M19,4,399,AS,exp,26,↓,down,↓,0.6641810000874102,True,21,1,0,7
Y2-S2-246M19,4,400,AS,exp,39,→,right,→,0.6557665001600981,True,21,1,0,7
Y2-S2-246M19,4,401,AS,exp,46,↓,down,↓,0.7046213001012802,True,20,1,0,7
Y2-S2-246M19,4,402,AS,exp,25,↑,down,↓,0.8966355002485216,False,20,-1,1,8
Y2-S2-246M19,4,403,AS,exp,48,→,right,→,0.7003868999890983,True,21,-1,0,8
Y2-S2-246M19,4,404,AS,exp,48,↓,down,↓,0.6491477997042239,True,21,-1,0,8
Y2-S2-246M19,4,405,AS,exp,47,←,left,←,0.6996472999453545,True,21,1,1,9
Y2-S2-246M19,4,406,AS,exp,48,↓,down,↓,0.9655356002040207,True,20,1,0,9
Y2-S2-246M19,4,407,AS,exp,41,←,left,←,0.43394750030711293,True,20,1,0,9
Y2-S2-246M19,4,408,AS,exp,42,↑,up,↑,1.2160401996225119,True,20,1,0,9
Y2-S2-246M19,4,409,AS,exp,43,←,left,←,0.515230399556458,True,19,1,0,9
Y2-S2-246M19,4,410,AS,exp,37,↑,right,→,0.6537293000146747,False,19,-1,1,10
Y2-S2-246M19,4,411,AS,exp,50,↓,down,↓,0.7656409000046551,True,20,-1,0,10
Y2-S2-246M19,4,412,AS,exp,49,→,right,→,0.7317307000048459,True,20,-1,0,10
Y2-S2-246M19,4,413,AS,exp,44,↑,right,→,1.836801199708134,False,20,-1,0,10
Y2-S2-246M19,4,414,AS,exp,42,↓,down,↓,0.8079001000151038,True,21,-1,0,10
Y2-S2-246M19,4,415,AS,exp,45,→,right,→,0.41711399983614683,True,21,-1,0,10
Y2-S2-246M19,4,416,AS,exp,45,↑,up,↑,0.5321995001286268,True,21,1,1,11
Y2-S2-246M19,4,417,AS,exp,46,←,left,←,0.5683025997132063,True,20,1,0,11
Y2-S2-246M19,4,418,AS,exp,25,↑,up,↑,0.8329708999954164,True,20,1,0,11
Y2-S2-246M19,4,419,AS,exp,37,←,left,←,0.5046247998252511,True,20,1,0,11
Y2-S2-246M19,4,420,AS,exp,28,→,right,→,0.6450435002334416,True,19,1,0,11
Y2-S2-246M19,4,421,AS,exp,45,←,left,←,0.4507191996090114,True,19,1,0,11
Y2-S2-246M19,4,422,AS,exp,31,↑,up,↑,0.6464045001193881,True,19,1,0,11
Y2-S2-246M19,4,423,AS,exp,26,↓,down,↓,0.821297800168395,True,18,1,0,11
Y2-S2-246M19,4,424,AS,exp,32,↑,up,↑,0.6730691003613174,True,18,1,0,11
Y2-S2-246M19,4,425,AS,exp,31,↓,down,↓,0.8829390001483262,True,18,1,0,11
Y2-S2-246M19,4,426,AS,exp,41,→,right,→,0.5578185999765992,True,17,1,0,11
Y2-S2-246M19,4,427,AS,exp,26,←,left,←,0.6613112003542483,True,17,1,0,11
Y2-S2-246M19,4,428,AS,exp,40,→,right,→,0.6177389998920262,True,17,1,0,11
Y2-S2-246M19,4,429,AS,exp,48,↑,right,→,0.73495680000633,False,16,-1,1,12
Y2-S2-246M19,4,430,AS,exp,34,↓,right,→,0.870684300083667,False,17,-1,0,12
Y2-S2-246M19,4,431,AS,exp,42,↑,left,←,0.467913500033319,False,18,-1,0,12
Y2-S2-246M19,4,432,AS,exp,44,←,left,←,0.7322948998771608,True,19,-1,0,12
Y2-S2-246M19,4,433,AS,exp,26,↑,left,←,0.8199387998320162,False,19,-1,0,12
Y2-S2-246M19,4,434,AS,exp,47,↓,down,↓,0.8004939998500049,True,20,-1,0,12
Y2-S2-246M19,4,435,AS,exp,38,←,left,←,0.5220113000832498,True,20,-1,0,12
Y2-S2-246M19,4,436,AS,exp,50,→,right,→,0.5941942003555596,True,20,1,1,13
Y2-S2-246M19,4,437,AS,exp,44,←,left,←,0.6211354001425207,True,19,1,0,13
Y2-S2-246M19,4,438,AS,exp,39,↑,up,↑,0.7640937999822199,True,19,1,0,13
Y2-S2-246M19,4,439,AS,exp,48,→,right,→,0.7646890003234148,True,19,1,0,13
Y2-S2-246M19,4,440,AS,exp,35,↑,right,→,0.5981994001194835,False,18,-1,1,14
Y2-S2-246M19,4,441,AS,exp,26,←,up,↑,0.7545258002355695,False,19,-1,0,14
Y2-S2-246M19,4,442,AS,exp,34,→,left,←,0.31784480018541217,False,20,-1,0,14
Y2-S2-246M19,4,443,AS,exp,48,↑,up,↑,0.48392469994723797,True,21,-1,0,14
Y2-S2-246M19,4,444,AS,exp,46,→,right,→,0.6599705000407994,True,21,-1,0,14
Y2-S2-246M19,4,445,AS,exp,48,↑,up,↑,0.9958190997131169,True,21,1,1,15
Y2-S2-246M19,4,446,AS,exp,34,↓,down,↓,0.6247632000595331,True,20,1,0,15
Y2-S2-246M19,4,447,AS,exp,25,←,left,←,0.6694664000533521,True,20,1,0,15
Y2-S2-246M19,4,448,AS,exp,28,→,left,←,0.6681065000593662,False,20,-1,1,16
Y2-S2-246M19,5,449,AS,intra_train,40,←,left,←,0.7579207001253963,True,24,-,-,-
Y2-S2-246M19,5,450,AS,intra_train,42,→,right,→,0.5851997002027929,True,24,-,-,-
Y2-S2-246M19,5,451,AS,intra_train,40,↑,up,↑,0.6155384001322091,True,24,-,-,-
Y2-S2-246M19,5,452,AS,intra_train,25,↓,down,↓,0.7301314999349415,True,24,-,-,-
Y2-S2-246M19,5,453,AS,intra_train,26,→,left,←,0.4839003998786211,False,24,-,-,-
Y2-S2-246M19,5,454,AS,exp,34,↓,up,↑,0.6797352000139654,False,16,-1,0,0
Y2-S2-246M19,5,455,AS,exp,49,←,right,→,0.3506366000510752,False,17,-1,0,0
Y2-S2-246M19,5,456,AS,exp,28,→,right,→,1.3407486998476088,True,18,-1,0,0
Y2-S2-246M19,5,457,AS,exp,44,↑,down,↓,0.23418479971587658,False,18,-1,0,0
Y2-S2-246M19,5,458,AS,exp,35,←,up,↑,0.4860005001537502,False,19,-1,0,0
Y2-S2-246M19,5,459,AS,exp,31,→,right,→,0.10101509978994727,True,20,-1,0,0
Y2-S2-246M19,5,460,AS,exp,43,↓,down,↓,0.38405050011351705,True,20,-1,0,0
Y2-S2-246M19,5,461,AS,exp,29,←,right,→,0.08430839981883764,False,20,-1,0,0
Y2-S2-246M19,5,462,AS,exp,44,↓,down,↓,0.816217599902302,True,21,-1,0,0
Y2-S2-246M19,5,463,AS,exp,27,→,right,→,0.167731000110507,True,21,-1,0,0
Y2-S2-246M19,5,464,AS,exp,46,←,left,←,1.527915499638766,True,21,1,1,1
Y2-S2-246M19,5,465,AS,exp,33,↓,up,↑,0.8126329001970589,False,20,-1,1,2
Y2-S2-246M19,5,466,AS,exp,48,←,left,←,1.7033238001167774,True,21,-1,0,2
Y2-S2-246M19,5,467,AS,exp,49,↑,right,→,0.20091800019145012,False,21,-1,0,2
Y2-S2-246M19,5,468,AS,exp,49,←,up,↑,0.18463229993358254,False,22,-1,0,2
Y2-S2-246M19,5,469,AS,exp,50,↓,down,↓,0.40064819995313883,True,23,-1,0,2
Y2-S2-246M19,5,470,AS,exp,36,←,up,↑,0.8361956002190709,False,23,-1,0,2
Y2-S2-246M19,5,471,AS,exp,39,↑,right,→,0.928772000130266,False,24,-1,0,2
Y2-S2-246M19,5,472,AS,exp,28,←,right,→,0.8021014002151787,False,25,-1,0,2
Y2-S2-246M19,5,473,AS,exp,31,→,up,↑,0.48395089991390705,False,26,-1,0,2
Y2-S2-246M19,5,474,AS,exp,39,←,down,↓,0.4843955999240279,False,27,-1,0,2
Y2-S2-246M19,5,475,AS,exp,44,→,right,→,0.6850163997150958,True,28,-1,0,2
Y2-S2-246M19,5,476,AS,exp,27,↓,down,↓,0.8197225001640618,True,28,-1,0,2
Y2-S2-246M19,5,477,AS,exp,26,↑,down,↓,0.4343004999682307,False,28,-1,0,2
Y2-S2-246M19,5,478,AS,exp,30,↓,down,↓,0.8506546001881361,True,29,-1,0,2
Y2-S2-246M19,5,479,AS,exp,46,→,right,→,0.7603980000130832,True,29,-1,0,2
Y2-S2-246M19,5,480,AS,exp,41,↑,up,↑,0.6522599002346396,True,29,1,1,3
Y2-S2-246M19,5,481,AS,exp,41,←,left,←,0.38468609983101487,True,28,1,0,3
Y2-S2-246M19,5,482,AS,exp,37,→,right,→,0.3510161996819079,True,28,1,0,3
Y2-S2-246M19,5,483,AS,exp,49,←,left,←,0.3341165999881923,True,28,1,0,3
Y2-S2-246M19,5,484,AS,exp,31,↑,no_key,no_letter,-1.0,False,27,-1,1,4
Y2-S2-246M19,5,485,AS,exp,50,←,right,→,0.4012227999046445,False,28,-1,0,4
Y2-S2-246M19,5,486,AS,exp,50,↑,up,↑,0.5004452001303434,True,29,-1,0,4
Y2-S2-246M19,5,487,AS,exp,48,←,left,←,1.3890705001540482,True,29,-1,0,4
Y2-S2-246M19,5,488,AS,exp,32,↑,up,↑,0.7194850998930633,True,29,1,1,5
Y2-S2-246M19,5,489,AS,exp,33,↓,down,↓,1.1501326002180576,True,28,1,0,5
Y2-S2-246M19,5,490,AS,exp,47,←,left,←,0.760875599924475,True,28,1,0,5
Y2-S2-246M19,5,491,AS,exp,29,↑,no_key,no_letter,-1.0,False,28,-1,1,6
Y2-S2-246M19,5,492,AS,exp,40,→,right,→,0.754704300314188,True,29,-1,0,6
Y2-S2-246M19,5,493,AS,exp,36,↓,left,←,0.3348801997490227,False,29,-1,0,6
Y2-S2-246M19,5,494,AS,exp,35,→,down,↓,0.06775870034471154,False,30,-1,0,6
Y2-S2-246M19,5,495,AS,exp,25,↑,right,→,0.16804590029641986,False,31,-1,0,6
Y2-S2-246M19,5,496,AS,exp,36,←,left,←,0.13418749999254942,True,32,-1,0,6
Y2-S2-246M19,5,497,AS,exp,31,→,left,←,0.5174190998077393,False,32,-1,0,6
Y2-S2-246M19,5,498,AS,exp,49,←,down,↓,1.4657151997089386,False,33,-1,0,6
Y2-S2-246M19,5,499,AS,exp,28,→,right,→,0.05126670002937317,True,34,-1,0,6
Y2-S2-246M19,5,500,AS,exp,44,←,left,←,0.6348272999748588,True,34,-1,0,6
Y2-S2-246M19,5,501,AS,exp,42,↓,down,↓,0.5507479002699256,True,34,1,1,7
Y2-S2-246M19,5,502,AS,exp,39,↑,up,↑,1.225938499905169,True,33,1,0,7
Y2-S2-246M19,5,503,AS,exp,42,↓,down,↓,0.7183178998529911,True,33,1,0,7
Y2-S2-246M19,5,504,AS,exp,33,←,left,←,0.6007153000682592,True,33,1,0,7
Y2-S2-246M19,5,505,AS,exp,44,↑,up,↑,1.0935439998283982,True,32,1,0,7
Y2-S2-246M19,5,506,AS,exp,25,→,right,→,0.7809413997456431,True,32,1,0,7
Y2-S2-246M19,5,507,AS,exp,33,↑,up,↑,1.4349818001501262,True,32,1,0,7
Y2-S2-246M19,5,508,AS,exp,36,→,right,→,0.8282478000037372,True,31,1,0,7
Y2-S2-246M19,5,509,AS,exp,25,↓,down,↓,0.8145829997956753,True,31,1,0,7
Y2-S2-246M19,5,510,AS,exp,29,→,right,→,0.6505461996421218,True,31,1,0,7
Y2-S2-246M19,5,511,AS,exp,40,↓,down,↓,0.9585033999755979,True,30,1,0,7
Y2-S2-246M19,5,512,AS,exp,41,↑,up,↑,0.7448734999634326,True,30,1,0,7
Y2-S2-246M19,5,513,AS,exp,40,↓,down,↓,0.9124087998643517,True,30,1,0,7
Y2-S2-246M19,5,514,AS,exp,41,↑,left,←,0.7201187000609934,False,29,-1,1,8
Y2-S2-246M19,5,515,AS,exp,28,←,left,←,1.2367066000588238,True,30,-1,0,8
Y2-S2-246M19,5,516,AS,exp,49,→,left,←,1.7213357998989522,False,30,-1,0,8
Y2-S2-246M19,5,517,AS,exp,41,←,left,←,0.8362022000364959,True,31,-1,0,8
Y2-S2-246M19,5,518,AS,exp,34,→,left,←,1.1022799001075327,False,31,-1,0,8
Y2-S2-246M19,5,519,AS,exp,47,↑,up,↑,1.3039776999503374,True,32,-1,0,8
Y2-S2-246M19,5,520,AS,exp,46,←,right,→,1.11803530016914,False,32,-1,0,8
Y2-S2-246M19,5,521,AS,exp,26,→,right,→,1.3342561000026762,True,33,-1,0,8
Y2-S2-246M19,5,522,AS,exp,28,↓,right,→,0.05086780013516545,False,33,-1,0,8
Y2-S2-246M19,5,523,AS,exp,31,→,up,↑,1.2973036002367735,False,34,-1,0,8
Y2-S2-246M19,5,524,AS,exp,27,↑,up,↑,0.7173874001018703,True,35,-1,0,8
Y2-S2-246M19,5,525,AS,exp,27,→,up,↑,0.3180720997042954,False,35,-1,0,8
Y2-S2-246M19,5,526,AS,exp,45,↑,right,→,0.8319287998601794,False,36,-1,0,8
Y2-S2-246M19,5,527,AS,exp,31,↓,left,←,1.2972935000434518,False,37,-1,0,8
Y2-S2-246M19,5,528,AS,exp,45,↑,up,↑,0.7007491001859307,True,38,-1,0,8
Y2-S2-246M19,5,529,AS,exp,42,←,left,←,0.650691700167954,True,38,-1,0,8
Y2-S2-246M19,5,530,AS,exp,32,→,right,→,0.5009499001316726,True,38,1,1,9
Y2-S2-246M19,5,531,AS,exp,38,←,left,←,0.7928269999101758,True,37,1,0,9
Y2-S2-246M19,5,532,AS,exp,27,→,right,→,0.5508078997954726,True,37,1,0,9
Y2-S2-246M19,5,533,AS,exp,28,↑,up,↑,0.6999840000644326,True,37,1,0,9
Y2-S2-246M19,5,534,AS,exp,49,←,left,←,0.7751262998208404,True,36,1,0,9
Y2-S2-246M19,5,535,AS,exp,27,→,right,→,0.7940378002822399,True,36,1,0,9
Y2-S2-246M19,5,536,AS,exp,38,←,left,←,0.8584317998029292,True,36,1,0,9
Y2-S2-246M19,5,537,AS,exp,26,↑,up,↑,1.498032399918884,True,35,1,0,9
Y2-S2-246M19,5,538,AS,exp,30,→,no_key,no_letter,-1.0,False,35,-1,1,10
Y2-S2-246M19,5,539,AS,exp,41,↑,right,→,1.1633549998514354,False,36,-1,0,10
Y2-S2-246M19,5,540,AS,exp,37,→,left,←,0.4010542999021709,False,37,-1,0,10
Y2-S2-246M19,5,541,AS,exp,26,↑,up,↑,1.3046774002723396,True,38,-1,0,10
Y2-S2-246M19,5,542,AS,exp,29,←,left,←,0.8928761002607644,True,38,-1,0,10
Y2-S2-246M19,5,543,AS,exp,36,↓,down,↓,1.244412699714303,True,38,1,1,11
Y2-S2-246M19,5,544,AS,exp,34,↑,up,↑,1.0085709001868963,True,37,1,0,11
Y2-S2-246M19,5,545,AS,exp,43,→,right,→,1.4538584002293646,True,37,1,0,11
Y2-S2-246M19,5,546,AS,exp,25,↓,down,↓,0.8900586999952793,True,37,1,0,11
Y2-S2-246M19,5,547,AS,exp,38,→,left,←,0.3845677999779582,False,36,-1,1,12
Y2-S2-246M19,5,548,AS,exp,37,↓,right,→,0.5679177003912628,False,37,-1,0,12
Y2-S2-246M19,5,549,AS,exp,25,←,right,→,0.70039700018242,False,38,-1,0,12
Y2-S2-246M19,5,550,AS,exp,42,↑,left,←,0.2173418002203107,False,39,-1,0,12
Y2-S2-246M19,5,551,AS,exp,26,↓,down,↓,0.001115499995648861,True,40,-1,0,12
Y2-S2-246M19,5,552,AS,exp,36,←,right,→,0.6013838001526892,False,40,-1,0,12
Y2-S2-246M19,5,553,AS,exp,39,→,right,→,0.1676807999610901,True,41,-1,0,12
Y2-S2-246M19,5,554,AS,exp,34,←,no_key,no_letter,-1.0,False,41,-1,0,12
Y2-S2-246M19,5,555,AS,exp,36,↓,no_key,no_letter,-1.0,False,42,-1,0,12
Y2-S2-246M19,5,556,AS,exp,49,↑,no_key,no_letter,-1.0,False,43,-1,0,12
Y2-S2-246M19,5,557,AS,exp,48,←,left,←,1.5357454000040889,True,44,-1,0,12
Y2-S2-246M19,5,558,AS,exp,27,↓,up,↑,0.7171749002300203,False,44,-1,0,12
Y2-S2-246M19,5,559,AS,exp,43,←,left,←,0.2345539997331798,True,45,-1,0,12
Y2-S2-246M19,5,560,AS,exp,41,↑,up,↑,0.20083129964768887,True,45,-1,0,12
Y2-S2-246M19,5,561,AS,exp,26,←,right,→,0.4011341999284923,False,45,-1,0,12
Y2-S2-246M19,5,562,AS,exp,29,↓,down,↓,0.6175724999047816,True,46,-1,0,12
Y2-S2-246M19,5,563,AS,exp,33,→,down,↓,0.48428470036014915,False,46,-1,0,12
Y2-S2-246M19,5,564,AS,exp,41,←,left,←,0.517879500053823,True,47,-1,0,12
Y2-S2-246M19,5,565,AS,exp,38,→,up,↑,0.21789890015497804,False,47,-1,0,12
Y2-S2-246M19,5,566,AS,exp,28,←,up,↑,1.1569771999493241,False,48,-1,0,12
Y2-S2-246M19,5,567,AS,exp,29,↓,left,←,0.318034500349313,False,49,-1,0,12
Y2-S2-246M19,5,568,AS,exp,31,→,right,→,0.45112459966912866,True,50,-1,0,12
Y2-S2-246M19,5,569,AS,exp,49,↓,left,←,2.480064900126308,False,50,-1,0,12
Y2-S2-246M19,5,570,AS,exp,30,←,left,←,0.7843415001407266,True,51,-1,0,12
Y2-S2-246M19,5,571,AS,exp,39,↑,up,↑,1.13686090009287,True,51,-1,0,12
Y2-S2-246M19,5,572,AS,exp,30,←,up,↑,0.7345451000146568,False,51,-1,0,12
Y2-S2-246M19,5,573,AS,exp,48,↑,up,↑,1.7088826997205615,True,52,-1,0,12
Y2-S2-246M19,5,574,AS,exp,31,→,up,↑,1.1380910999141634,False,52,-1,0,12
Y2-S2-246M19,5,575,AS,exp,39,↓,right,→,1.5809297999367118,False,53,-1,0,12
Y2-S2-246M19,5,576,AS,exp,46,→,right,→,0.6844731997698545,True,54,-1,0,12
Y2-S2-246M19,5,577,AS,exp,43,↑,no_key,no_letter,-1.0,False,54,-1,0,12
Y2-S2-246M19,5,578,AS,exp,34,→,up,↑,1.033805100247264,False,55,-1,0,12
Y2-S2-246M19,5,579,AS,exp,45,←,right,→,0.15080610010772943,False,56,-1,0,12
Y2-S2-246M19,5,580,AS,exp,47,↓,down,↓,1.3423402002081275,True,57,-1,0,12
Y2-S2-246M19,5,581,AS,exp,36,→,right,→,0.7175835999660194,True,57,-1,0,12
Y2-S2-246M19,5,582,AS,exp,45,↓,down,↓,0.8012704998254776,True,57,1,1,13
Y2-S2-246M19,5,583,AS,exp,48,←,left,←,0.567576200235635,True,56,1,0,13
Y2-S2-246M19,5,584,AS,exp,34,↓,down,↓,1.189747499767691,True,56,1,0,13
Y2-S2-246M19,5,585,AS,exp,32,→,right,→,0.5511412997730076,True,56,1,0,13
Y2-S2-246M19,5,586,AS,exp,46,↑,up,↑,0.5175704001449049,True,55,1,0,13
Y2-S2-246M19,5,587,AS,exp,35,→,right,→,0.5175427999347448,True,55,1,0,13
Y2-S2-246M19,5,588,AS,exp,33,↓,down,↓,1.0171810002066195,True,55,1,0,13
Y2-S2-246M19,5,589,AS,exp,42,↑,up,↑,0.6510214000009,True,54,1,0,13
Y2-S2-246M19,5,590,AS,exp,49,←,left,←,0.6345027000643313,True,54,1,0,13
Y2-S2-246M19,5,591,AS,exp,50,↑,up,↑,0.9676522999070585,True,54,1,0,13
Y2-S2-246M19,5,592,AS,exp,34,↓,down,↓,0.8347742999903858,True,53,1,0,13
Y2-S2-246M19,5,593,AS,exp,27,←,right,→,0.9674777002073824,False,53,-1,1,14
Y2-S2-246M19,5,594,AS,exp,38,↑,no_key,no_letter,-1.0,False,54,-1,0,14
Y2-S2-246M19,5,595,AS,exp,31,↓,right,→,0.8014724999666214,False,55,-1,0,14
Y2-S2-246M19,5,596,AS,exp,42,→,up,↑,0.25069430004805326,False,56,-1,0,14
Y2-S2-246M19,5,597,AS,exp,25,↓,up,↑,0.13411130011081696,False,57,-1,0,14
Y2-S2-246M19,5,598,AS,exp,43,→,down,↓,0.9013358997181058,False,58,-1,0,14
Y2-S2-246M19,5,599,AS,exp,45,↑,no_key,no_letter,-1.0,False,59,-1,0,14
Y2-S2-246M19,5,600,AS,exp,50,↓,left,←,0.8509343001060188,False,60,-1,0,14
Y2-S2-246M19,5,601,AS,exp,31,→,down,↓,0.7346056001260877,False,61,-1,0,14
Y2-S2-246M19,5,602,AS,exp,28,←,right,→,2.283314900007099,False,62,-1,0,14
Y2-S2-246M19,5,603,AS,exp,26,↓,left,←,1.0841852999292314,False,63,-1,0,14
Y2-S2-246M19,5,604,AS,exp,43,←,right,→,2.6244459999725223,False,64,-1,0,14
Y2-S2-246M19,5,605,AS,exp,33,→,down,↓,0.3176595000550151,False,65,-1,0,14
Y2-S2-246M19,5,606,AS,exp,36,↑,down,↓,0.6010437002405524,False,66,-1,0,14
Y2-S2-246M19,5,607,AS,exp,33,←,left,←,0.551129600033164,True,67,-1,0,14
Y2-S2-246M19,5,608,AS,exp,48,↑,down,↓,0.6012254999950528,False,67,-1,0,14
Y2-S2-246M19,5,609,AS,exp,36,→,up,↑,0.033771200105547905,False,68,-1,0,14
Y2-S2-246M19,5,610,AS,exp,43,↓,down,↓,0.8011711998842657,True,69,-1,0,14
Y2-S2-246M19,5,611,AS,exp,33,←,right,→,0.7515373001806438,False,69,-1,0,14
Y2-S2-246M19,5,612,AS,exp,41,→,left,←,1.0179465003311634,False,70,-1,0,14
Y2-S2-246M19,5,613,AS,exp,32,←,left,←,0.8175129001028836,True,71,-1,0,14
Y2-S2-246M19,5,614,AS,exp,29,↑,up,↑,0.8510640999302268,True,71,-1,0,14
Y2-S2-246M19,5,615,AS,exp,34,→,up,↑,1.5060087000019848,False,71,-1,0,14
Y2-S2-246M19,5,616,AS,exp,42,←,up,↑,1.2172327004373074,False,72,-1,0,14
Y2-S2-246M19,5,617,AS,exp,31,↓,down,↓,1.0176157001405954,True,73,-1,0,14
Y2-S2-246M19,5,618,AS,exp,44,→,left,←,0.7175269997678697,False,73,-1,0,14
Y2-S2-246M19,5,619,AS,exp,43,↑,right,→,1.0341515997424722,False,74,-1,0,14
Y2-S2-246M19,5,620,AS,exp,42,↓,no_key,no_letter,-1.0,False,75,-1,0,14
Y2-S2-246M19,5,621,AS,exp,26,→,no_key,no_letter,-1.0,False,76,-1,0,14
Y2-S2-246M19,5,622,AS,exp,34,←,no_key,no_letter,-1.0,False,77,-1,0,14
Y2-S2-246M19,5,623,AS,exp,49,→,up,↑,1.5444388999603689,False,78,-1,0,14
Y2-S2-246M19,5,624,AS,exp,26,←,right,→,0.5346603002399206,False,79,-1,0,14
Y2-S2-246M19,5,625,AS,exp,29,↓,up,↑,0.20174159994348884,False,80,-1,0,14
Y2-S2-246M19,5,626,AS,exp,40,←,up,↑,2.4543685000389814,False,81,-1,0,14
Y2-S2-246M19,5,627,AS,exp,50,↓,no_key,no_letter,-1.0,False,82,-1,0,14
Y2-S2-246M19,5,628,AS,exp,40,→,no_key,no_letter,-1.0,False,83,-1,0,14
Y2-S2-246M19,5,629,AS,exp,34,↓,no_key,no_letter,-1.0,False,84,-1,0,14
Y2-S2-246M19,5,630,AS,exp,45,↑,up,↑,1.2349529000930488,True,85,-1,0,14
Y2-S2-246M19,5,631,AS,exp,46,↓,right,→,0.23432750022038817,False,85,-1,0,14
Y2-S2-246M19,5,632,AS,exp,39,→,right,→,0.7010131999850273,True,86,-1,0,14
Y2-S2-246M19,5,633,AS,exp,27,↓,down,↓,1.051547299604863,True,86,-1,0,14
Y2-S2-246M19,5,634,AS,exp,45,↑,up,↑,0.8844958003610373,True,86,1,1,15
Y2-S2-246M19,5,635,AS,exp,45,↓,right,→,0.5678074997849762,False,85,-1,1,16
Y2-S2-246M19,6,636,PS,intra_train,26,↑,up,↑,0.5559869999997318,True,16,-,-,-
Y2-S2-246M19,6,637,PS,intra_train,47,←,left,←,0.4591275998391211,True,16,-,-,-
Y2-S2-246M19,6,638,PS,intra_train,38,↑,no_key,no_letter,-1.0,False,16,-,-,-
Y2-S2-246M19,6,639,PS,intra_train,47,↓,down,↓,0.7053705998696387,True,16,-,-,-
Y2-S2-246M19,6,640,PS,intra_train,33,→,right,→,0.45960350008681417,True,16,-,-,-
Y2-S2-246M19,6,641,PS,exp,27,←,left,←,0.7343811998143792,True,11,0,0,0
Y2-S2-246M19,6,642,PS,exp,26,↑,up,↑,0.4444095999933779,True,11,0,0,0
Y2-S2-246M19,6,643,PS,exp,35,←,left,←,0.42011789977550507,True,11,1,0,0
Y2-S2-246M19,6,644,PS,exp,31,↓,down,↓,1.4414634997956455,True,10,1,0,0
Y2-S2-246M19,6,645,PS,exp,37,←,left,←,0.5048581999726593,True,10,1,0,0
Y2-S2-246M19,6,646,PS,exp,42,↓,down,↓,0.5637250998988748,True,10,1,0,0
Y2-S2-246M19,6,647,PS,exp,38,↑,up,↑,0.9127466999925673,True,9,1,0,0
Y2-S2-246M19,6,648,PS,exp,26,↓,left,←,0.3513496001251042,False,9,-1,1,1
Y2-S2-246M19,6,649,PS,exp,30,↑,up,↑,0.5548465000465512,True,10,-1,0,1
Y2-S2-246M19,6,650,PS,exp,48,↓,down,↓,0.39627639995887876,True,10,-1,0,1
Y2-S2-246M19,6,651,PS,exp,42,→,right,→,0.4041210999712348,True,10,1,1,2
Y2-S2-246M19,6,652,PS,exp,28,↓,down,↓,0.4930369001813233,True,9,1,0,2
Y2-S2-246M19,6,653,PS,exp,35,↑,up,↑,0.42614049976691604,True,9,1,0,2
Y2-S2-246M19,6,654,PS,exp,41,↓,down,↓,0.5967905996367335,True,9,1,0,2
Y2-S2-246M19,6,655,PS,exp,25,↑,up,↑,0.5163909997791052,True,8,1,0,2
Y2-S2-246M19,6,656,PS,exp,49,←,left,←,0.4767816998064518,True,8,1,0,2
Y2-S2-246M19,6,657,PS,exp,30,↓,down,↓,0.7620407999493182,True,8,1,0,2
Y2-S2-246M19,6,658,PS,exp,50,↑,up,↑,0.5134052000939846,True,7,1,0,2
Y2-S2-246M19,6,659,PS,exp,45,←,left,←,0.6676591001451015,True,7,1,0,2
Y2-S2-246M19,6,660,PS,exp,43,→,left,←,0.7246803999878466,False,7,-1,1,3
Y2-S2-246M19,6,661,PS,exp,33,←,right,→,0.5338651002384722,False,8,-1,0,3
Y2-S2-246M19,6,662,PS,exp,43,↓,up,↑,0.6535153002478182,False,9,-1,0,3
Y2-S2-246M19,6,663,PS,exp,43,→,right,→,0.8469615997746587,True,10,-1,0,3
Y2-S2-246M19,6,664,PS,exp,32,←,up,↑,0.8639103998430073,False,10,-1,0,3
Y2-S2-246M19,6,665,PS,exp,30,↓,down,↓,0.8786832997575402,True,11,-1,0,3
Y2-S2-246M19,6,666,PS,exp,42,↑,up,↑,0.7946834997273982,True,11,-1,0,3
Y2-S2-246M19,6,667,PS,exp,30,↓,up,↑,0.8396768001839519,False,11,-1,0,3
Y2-S2-246M19,6,668,PS,exp,32,→,right,→,0.6391578000038862,True,12,-1,0,3
Y2-S2-246M19,6,669,PS,exp,48,↑,up,↑,0.7269043000414968,True,12,-1,0,3
Y2-S2-246M19,6,670,PS,exp,26,→,left,←,1.2918742001056671,False,12,-1,0,3
Y2-S2-246M19,6,671,PS,exp,42,↑,up,↑,0.9335333001799881,True,13,-1,0,3
Y2-S2-246M19,6,672,PS,exp,33,←,down,↓,0.5896755000576377,False,13,-1,0,3
Y2-S2-246M19,6,673,PS,exp,30,→,left,←,1.336584100034088,False,14,-1,0,3
Y2-S2-246M19,6,674,PS,exp,37,←,down,↓,0.5884111002087593,False,15,-1,0,3
Y2-S2-246M19,6,675,PS,exp,48,↑,up,↑,0.5988545003347099,True,16,-1,0,3
Y2-S2-246M19,6,676,PS,exp,50,↓,down,↓,0.6383917997591197,True,16,-1,0,3
Y2-S2-246M19,6,677,PS,exp,39,←,left,←,0.9677941002883017,True,16,1,1,4
Y2-S2-246M19,6,678,PS,exp,45,↓,down,↓,0.7063615000806749,True,15,1,0,4
Y2-S2-246M19,6,679,PS,exp,46,→,right,→,0.5398273998871446,True,15,1,0,4
Y2-S2-246M19,6,680,PS,exp,47,↓,down,↓,0.7272485001012683,True,15,1,0,4
Y2-S2-246M19,6,681,PS,exp,38,↑,up,↑,0.4784093997441232,True,14,1,0,4
Y2-S2-246M19,6,682,PS,exp,25,→,right,→,1.3283997001126409,True,14,1,0,4
Y2-S2-246M19,6,683,PS,exp,47,↑,up,↑,0.6637850999832153,True,14,1,0,4
Y2-S2-246M19,6,684,PS,exp,46,→,right,→,0.730993099976331,True,13,1,0,4
Y2-S2-246M19,6,685,PS,exp,32,←,left,←,0.703942499589175,True,13,1,0,4
Y2-S2-246M19,6,686,PS,exp,26,→,right,→,0.720884199719876,True,13,1,0,4
Y2-S2-246M19,6,687,PS,exp,26,←,right,→,0.6337402001954615,False,12,-1,1,5
Y2-S2-246M19,6,688,PS,exp,25,→,right,→,0.7008162997663021,True,13,-1,0,5
Y2-S2-246M19,6,689,PS,exp,39,←,left,←,0.40610230015590787,True,13,-1,0,5
Y2-S2-246M19,6,690,PS,exp,47,↑,up,↑,0.5655751000158489,True,13,1,1,6
Y2-S2-246M19,6,691,PS,exp,40,↓,down,↓,0.9305833000689745,True,12,1,0,6
Y2-S2-246M19,6,692,PS,exp,25,→,right,→,0.4181861998513341,True,12,1,0,6
Y2-S2-246M19,6,693,PS,exp,50,↑,up,↑,0.5233594002202153,True,12,1,0,6
Y2-S2-246M19,6,694,PS,exp,34,←,right,→,0.7254440002143383,False,11,-1,1,7
Y2-S2-246M19,6,695,PS,exp,40,→,right,→,0.4470143998041749,True,12,-1,0,7
Y2-S2-246M19,6,696,PS,exp,37,↑,right,→,0.580691700335592,False,12,-1,0,7
Y2-S2-246M19,6,697,PS,exp,48,→,right,→,0.4863581000827253,True,13,-1,0,7
Y2-S2-246M19,6,698,PS,exp,33,↓,down,↓,1.173986999783665,True,13,-1,0,7
Y2-S2-246M19,6,699,PS,exp,31,→,right,→,0.5188520001247525,True,13,1,1,8
Y2-S2-246M19,6,700,PS,exp,37,↑,up,↑,0.4668787997215986,True,12,1,0,8
Y2-S2-246M19,6,701,PS,exp,45,↓,down,↓,0.7823471003212035,True,12,1,0,8
Y2-S2-246M19,6,702,PS,exp,39,→,right,→,0.4239160995930433,True,12,1,0,8
Y2-S2-246M19,6,703,PS,exp,45,←,left,←,0.6555745000950992,True,11,1,0,8
Y2-S2-246M19,6,704,PS,exp,39,↓,down,↓,0.812553399708122,True,11,1,0,8
Y2-S2-246M19,6,705,PS,exp,33,←,down,↓,0.8010378000326455,False,11,-1,1,9
Y2-S2-246M19,6,706,PS,exp,27,↓,up,↑,0.7515563000924885,False,12,-1,0,9
Y2-S2-246M19,6,707,PS,exp,40,←,right,→,0.4996130997315049,False,13,-1,0,9
Y2-S2-246M19,6,708,PS,exp,42,↓,down,↓,0.8797774002887309,True,14,-1,0,9
Y2-S2-246M19,6,709,PS,exp,25,←,left,←,1.0950548998080194,True,14,-1,0,9
Y2-S2-246M19,6,710,PS,exp,26,↑,up,↑,0.5912259998731315,True,14,1,1,10
Y2-S2-246M19,6,711,PS,exp,26,←,right,→,0.5943750999867916,False,13,-1,1,11
Y2-S2-246M19,6,712,PS,exp,36,→,right,→,0.4268730999901891,True,14,-1,0,11
Y2-S2-246M19,6,713,PS,exp,44,←,left,←,0.426987299695611,True,14,-1,0,11
Y2-S2-246M19,6,714,PS,exp,32,→,right,→,0.46513279993087053,True,14,1,1,12
Y2-S2-246M19,6,715,PS,exp,35,↑,up,↑,0.5332252997905016,True,13,1,0,12
Y2-S2-246M19,6,716,PS,exp,42,→,right,→,0.4645784995518625,True,13,1,0,12
Y2-S2-246M19,6,717,PS,exp,39,↓,left,←,0.6547865997999907,False,13,-1,1,13
Y2-S2-246M19,6,718,PS,exp,28,←,left,←,0.48550890013575554,True,14,-1,0,13
Y2-S2-246M19,6,719,PS,exp,41,↓,up,↑,1.1326991999521852,False,14,-1,0,13
Y2-S2-246M19,6,720,PS,exp,50,→,right,→,0.4450407000258565,True,15,-1,0,13
Y2-S2-246M19,6,721,PS,exp,45,←,left,←,0.8937533004209399,True,15,-1,0,13
Y2-S2-246M19,6,722,PS,exp,27,↓,down,↓,0.4760979004204273,True,15,1,1,14
Y2-S2-246M19,6,723,PS,exp,41,←,left,←,0.8884176001884043,True,14,1,0,14
Y2-S2-246M19,6,724,PS,exp,46,↑,up,↑,0.4527686000801623,True,14,1,0,14
Y2-S2-246M19,6,725,PS,exp,50,→,right,→,0.40578219993039966,True,14,1,0,14
Y2-S2-246M19,6,726,PS,exp,26,↑,up,↑,0.5144292996264994,True,13,1,0,14
Y2-S2-246M19,6,727,PS,exp,35,↓,down,↓,0.7724199998192489,True,13,1,0,14
Y2-S2-246M19,6,728,PS,exp,31,←,left,←,0.40213270019739866,True,13,1,0,14
Y2-S2-246M19,6,729,PS,exp,43,↓,down,↓,0.4522158997133374,True,12,1,0,14
Y2-S2-246M19,6,730,PS,exp,37,←,right,→,0.31751810014247894,False,12,-1,1,15
Y2-S2-246M19,6,731,PS,exp,44,→,left,←,0.30066809989511967,False,13,-1,0,15
Y2-S2-246M19,6,732,PS,exp,26,↓,down,↓,0.5367932999506593,True,14,-1,0,15
Y2-S2-246M19,6,733,PS,exp,26,↑,up,↑,0.4305946002714336,True,14,-1,0,15
Y2-S2-246M19,6,734,PS,exp,30,←,left,←,0.334595900028944,True,14,1,1,16
Y2-S2-246M19,7,735,PS,intra_train,38,↑,down,↓,0.6538487998768687,False,16,-,-,-
Y2-S2-246M19,7,736,PS,intra_train,32,↓,down,↓,0.5715383999049664,True,16,-,-,-
Y2-S2-246M19,7,737,PS,intra_train,45,↑,up,↑,0.4351936001330614,True,16,-,-,-
Y2-S2-246M19,7,738,PS,intra_train,34,←,left,←,0.45083760004490614,True,16,-,-,-
Y2-S2-246M19,7,739,PS,intra_train,29,↑,up,↑,0.4006392997689545,True,16,-,-,-
Y2-S2-246M19,7,740,PS,exp,31,→,right,→,0.48588749999180436,True,11,0,0,0
Y2-S2-246M19,7,741,PS,exp,45,↑,left,←,0.36129850009456277,False,11,-1,0,0
Y2-S2-246M19,7,742,PS,exp,30,↓,left,←,0.20065280003473163,False,12,-1,0,0
Y2-S2-246M19,7,743,PS,exp,49,←,right,→,0.250817000400275,False,13,-1,0,0
Y2-S2-246M19,7,744,PS,exp,37,↓,down,↓,0.46300770016387105,True,14,-1,0,0
Y2-S2-246M19,7,745,PS,exp,45,←,right,→,0.3339306996203959,False,14,-1,0,0
Y2-S2-246M19,7,746,PS,exp,38,↓,down,↓,0.6207992001436651,True,15,-1,0,0
Y2-S2-246M19,7,747,PS,exp,43,→,right,→,0.44610629975795746,True,15,-1,0,0
Y2-S2-246M19,7,748,PS,exp,25,↑,up,↑,0.3837714004330337,True,15,1,1,1
Y2-S2-246M19,7,749,PS,exp,37,→,right,→,0.4875818998552859,True,14,1,0,1
Y2-S2-246M19,7,750,PS,exp,35,←,left,←,0.40579569991678,True,14,1,0,1
Y2-S2-246M19,7,751,PS,exp,41,↑,up,↑,0.4113857997581363,True,14,1,0,1
Y2-S2-246M19,7,752,PS,exp,41,←,left,←,0.45262529980391264,True,13,1,0,1
Y2-S2-246M19,7,753,PS,exp,30,↑,up,↑,0.5466511002741754,True,13,1,0,1
Y2-S2-246M19,7,754,PS,exp,49,→,right,→,0.41976850014179945,True,13,1,0,1
Y2-S2-246M19,7,755,PS,exp,35,↓,left,←,0.30070400005206466,False,12,-1,1,2
Y2-S2-246M19,7,756,PS,exp,50,↑,up,↑,0.6228251000866294,True,13,-1,0,2
Y2-S2-246M19,7,757,PS,exp,35,↓,down,↓,0.49442969961091876,True,13,-1,0,2
Y2-S2-246M19,7,758,PS,exp,27,←,left,←,0.45161940017715096,True,13,1,1,3
Y2-S2-246M19,7,759,PS,exp,44,↑,up,↑,0.3770532002672553,True,12,1,0,3
Y2-S2-246M19,7,760,PS,exp,32,→,right,→,0.5093837003223598,True,12,1,0,3
Y2-S2-246M19,7,761,PS,exp,43,↑,up,↑,0.6379976002499461,True,12,1,0,3
Y2-S2-246M19,7,762,PS,exp,26,↓,up,↑,0.6192316999658942,False,11,-1,1,4
Y2-S2-246M19,7,763,PS,exp,30,→,left,←,0.1839538998901844,False,12,-1,0,4
Y2-S2-246M19,7,764,PS,exp,43,←,left,←,0.5810361001640558,True,13,-1,0,4
Y2-S2-246M19,7,765,PS,exp,44,→,right,→,0.52421690011397,True,13,-1,0,4
Y2-S2-246M19,7,766,PS,exp,50,↑,up,↑,0.4266157001256943,True,13,1,1,5
Y2-S2-246M19,7,767,PS,exp,31,→,right,→,0.4270087997429073,True,12,1,0,5
Y2-S2-246M19,7,768,PS,exp,36,↑,up,↑,0.5359614002518356,True,12,1,0,5
Y2-S2-246M19,7,769,PS,exp,25,↓,down,↓,0.6009093998000026,True,12,1,0,5
Y2-S2-246M19,7,770,PS,exp,34,→,right,→,0.5153219001367688,True,11,1,0,5
Y2-S2-246M19,7,771,PS,exp,44,←,left,←,0.4738170001655817,True,11,1,0,5
Y2-S2-246M19,7,772,PS,exp,43,→,right,→,0.5165810999460518,True,11,1,0,5
Y2-S2-246M19,7,773,PS,exp,33,↓,down,↓,0.5895586996339262,True,10,1,0,5
Y2-S2-246M19,7,774,PS,exp,43,→,right,→,0.36229850025847554,True,10,1,0,5
Y2-S2-246M19,7,775,PS,exp,50,↓,down,↓,0.5388198997825384,True,10,1,0,5
Y2-S2-246M19,7,776,PS,exp,44,→,right,→,0.5017821001820266,True,9,1,0,5
Y2-S2-246M19,7,777,PS,exp,50,↑,up,↑,0.36104049999266863,True,9,1,0,5
Y2-S2-246M19,7,778,PS,exp,36,↓,down,↓,0.4640402998775244,True,9,1,0,5
Y2-S2-246M19,7,779,PS,exp,50,←,down,↓,0.5245040999725461,False,8,-1,1,6
Y2-S2-246M19,7,780,PS,exp,25,↓,down,↓,0.6445448002777994,True,9,-1,0,6
Y2-S2-246M19,7,781,PS,exp,30,←,left,←,0.5549817001447082,True,9,-1,0,6
Y2-S2-246M19,7,782,PS,exp,25,↓,down,↓,0.531742500141263,True,9,1,1,7
Y2-S2-246M19,7,783,PS,exp,39,←,left,←,0.46093809977173805,True,8,1,0,7
Y2-S2-246M19,7,784,PS,exp,28,↑,up,↑,0.3896110998466611,True,8,1,0,7
Y2-S2-246M19,7,785,PS,exp,46,↓,down,↓,0.4635087000206113,True,8,1,0,7
Y2-S2-246M19,7,786,PS,exp,41,↑,up,↑,0.5851810998283327,True,7,1,0,7
Y2-S2-246M19,7,787,PS,exp,26,↓,down,↓,0.5698327999562025,True,7,1,0,7
Y2-S2-246M19,7,788,PS,exp,25,←,right,→,0.4687354997731745,False,7,-1,1,8
Y2-S2-246M19,7,789,PS,exp,26,→,left,←,0.5675808000378311,False,8,-1,0,8
Y2-S2-246M19,7,790,PS,exp,36,←,left,←,0.5593078997917473,True,9,-1,0,8
Y2-S2-246M19,7,791,PS,exp,26,→,right,→,0.5354088000021875,True,9,-1,0,8
Y2-S2-246M19,7,792,PS,exp,47,↓,right,→,0.4733629999682307,False,9,-1,0,8
Y2-S2-246M19,7,793,PS,exp,31,→,right,→,0.5092881000600755,True,10,-1,0,8
Y2-S2-246M19,7,794,PS,exp,40,↑,left,←,0.6162160001695156,False,10,-1,0,8
Y2-S2-246M19,7,795,PS,exp,25,←,down,↓,0.8986217998899519,False,11,-1,0,8
Y2-S2-246M19,7,796,PS,exp,26,→,right,→,0.5345819997601211,True,12,-1,0,8
Y2-S2-246M19,7,797,PS,exp,50,↓,down,↓,0.5963602000847459,True,12,-1,0,8
Y2-S2-246M19,7,798,PS,exp,49,↑,up,↑,0.45272540021687746,True,12,1,1,9
Y2-S2-246M19,7,799,PS,exp,34,↓,down,↓,0.5034533999860287,True,11,1,0,9
Y2-S2-246M19,7,800,PS,exp,34,←,right,→,0.36323200026527047,False,11,-1,1,10
Y2-S2-246M19,7,801,PS,exp,47,↑,up,↑,0.43812600011006,True,12,-1,0,10
Y2-S2-246M19,7,802,PS,exp,45,→,right,→,0.5356598999351263,True,12,-1,0,10
Y2-S2-246M19,7,803,PS,exp,45,↓,down,↓,0.4247440001927316,True,12,1,1,11
Y2-S2-246M19,7,804,PS,exp,27,→,right,→,0.4439140995964408,True,11,1,0,11
Y2-S2-246M19,7,805,PS,exp,25,←,left,←,0.4376290999352932,True,11,1,0,11
Y2-S2-246M19,7,806,PS,exp,25,→,right,→,0.48862289963290095,True,11,1,0,11
Y2-S2-246M19,7,807,PS,exp,34,←,left,←,0.4835007996298373,True,10,1,0,11
Y2-S2-246M19,7,808,PS,exp,30,→,right,→,0.7429015999659896,True,10,1,0,11
Y2-S2-246M19,7,809,PS,exp,35,↑,up,↑,0.6262337998487055,True,10,1,0,11
Y2-S2-246M19,7,810,PS,exp,47,→,right,→,0.47873050021007657,True,9,1,0,11
Y2-S2-246M19,7,811,PS,exp,36,←,left,←,0.5362086999230087,True,9,1,0,11
Y2-S2-246M19,7,812,PS,exp,50,↓,down,↓,0.6191878998652101,True,9,1,0,11
Y2-S2-246M19,7,813,PS,exp,35,↑,up,↑,0.5015481999143958,True,8,1,0,11
Y2-S2-246M19,7,814,PS,exp,45,→,right,→,0.3351610000245273,True,8,1,0,11
Y2-S2-246M19,7,815,PS,exp,40,↑,up,↑,0.46082739997655153,True,8,1,0,11
Y2-S2-246M19,7,816,PS,exp,36,↓,up,↑,0.6045947000384331,False,7,-1,1,12
Y2-S2-246M19,7,817,PS,exp,50,←,left,←,0.5898275999352336,True,8,-1,0,12
Y2-S2-246M19,7,818,PS,exp,39,→,right,→,0.5578985000029206,True,8,-1,0,12
Y2-S2-246M19,7,819,PS,exp,47,↑,up,↑,0.5642552999779582,True,8,1,1,13
Y2-S2-246M19,7,820,PS,exp,34,→,right,→,0.5244098999537528,True,7,1,0,13
Y2-S2-246M19,7,821,PS,exp,38,↓,right,→,0.5444195000454783,False,7,-1,1,14
Y2-S2-246M19,7,822,PS,exp,44,←,right,→,0.5712786996737123,False,8,-1,0,14
Y2-S2-246M19,7,823,PS,exp,42,↓,right,→,0.5703108999878168,False,9,-1,0,14
Y2-S2-246M19,7,824,PS,exp,39,←,left,←,0.8944802000187337,True,10,-1,0,14
Y2-S2-246M19,7,825,PS,exp,33,↓,down,↓,0.5847613997757435,True,10,-1,0,14
Y2-S2-246M19,7,826,PS,exp,45,→,right,→,0.5673366999253631,True,10,1,1,15
Y2-S2-246M19,7,827,PS,exp,42,←,left,←,0.7497754003852606,True,9,1,0,15
Y2-S2-246M19,7,828,PS,exp,28,↓,down,↓,0.44879950024187565,True,9,1,0,15
Y2-S2-246M19,7,829,PS,exp,48,↑,down,↓,0.7447621999308467,False,9,-1,1,16
Y2-S2-246M19,8,830,AS,intra_train,43,↓,up,↑,0.2682855003513396,False,24,-,-,-
Y2-S2-246M19,8,831,AS,intra_train,28,→,left,←,1.852712200023234,False,24,-,-,-
Y2-S2-246M19,8,832,AS,intra_train,43,←,left,←,0.6836019000038505,True,24,-,-,-
Y2-S2-246M19,8,833,AS,intra_train,49,↓,down,↓,0.7345277997665107,True,24,-,-,-
Y2-S2-246M19,8,834,AS,intra_train,33,↑,no_key,no_letter,-1.0,False,24,-,-,-
Y2-S2-246M19,8,835,AS,exp,47,↓,up,↑,0.26720849983394146,False,16,-1,0,0
Y2-S2-246M19,8,836,AS,exp,40,→,right,→,0.67142069991678,True,17,-1,0,0
Y2-S2-246M19,8,837,AS,exp,32,↓,left,←,0.0011730999685823917,False,17,-1,0,0
Y2-S2-246M19,8,838,AS,exp,46,↑,up,↑,0.017862399574369192,True,18,-1,0,0
Y2-S2-246M19,8,839,AS,exp,48,→,right,→,0.15128140011802316,True,18,-1,0,0
Y2-S2-246M19,8,840,AS,exp,38,↑,down,↓,0.01785569963976741,False,18,-1,0,0
Y2-S2-246M19,8,841,AS,exp,38,→,right,→,0.5429325997829437,True,19,-1,0,0
Y2-S2-246M19,8,842,AS,exp,43,↑,left,←,0.23423050018027425,False,19,-1,0,0
Y2-S2-246M19,8,843,AS,exp,40,←,left,←,0.3170507000759244,True,20,-1,0,0
Y2-S2-246M19,8,844,AS,exp,26,↑,up,↑,0.05167010007426143,True,20,-1,0,0
Y2-S2-246M19,8,845,AS,exp,44,→,left,←,0.05169079964980483,False,20,-1,0,0
Y2-S2-246M19,8,846,AS,exp,40,↑,up,↑,0.3671009000390768,True,21,-1,0,0
Y2-S2-246M19,8,847,AS,exp,35,←,right,→,0.36742130015045404,False,21,-1,0,0
Y2-S2-246M19,8,848,AS,exp,25,→,up,↑,0.11756120016798377,False,22,-1,0,0
Y2-S2-246M19,8,849,AS,exp,28,←,left,←,-0.014644299633800983,True,23,-1,0,0
Y2-S2-246M19,8,850,AS,exp,28,↑,up,↑,0.30077109998092055,True,23,-1,0,0
Y2-S2-246M19,8,851,AS,exp,47,←,up,↑,0.10106610041111708,False,23,-1,0,0
Y2-S2-246M19,8,852,AS,exp,28,↓,left,←,0.051017300225794315,False,24,-1,0,0
Y2-S2-246M19,8,853,AS,exp,41,↑,up,↑,0.08498500008136034,True,25,-1,0,0
Y2-S2-246M19,8,854,AS,exp,37,↓,down,↓,0.3677381002344191,True,25,-1,0,0
Y2-S2-246M19,8,855,AS,exp,41,←,up,↑,0.267800800036639,False,25,-1,0,0
Y2-S2-246M19,8,856,AS,exp,30,↑,right,→,0.3010412002913654,False,26,-1,0,0
Y2-S2-246M19,8,857,AS,exp,26,←,right,→,0.3844843995757401,False,27,-1,0,0
Y2-S2-246M19,8,858,AS,exp,50,↑,up,↑,0.3015044000931084,True,28,-1,0,0
Y2-S2-246M19,8,859,AS,exp,44,↓,up,↑,0.2676046001724899,False,28,-1,0,0
Y2-S2-246M19,8,860,AS,exp,26,↑,up,↑,0.16773479990661144,True,29,-1,0,0
Y2-S2-246M19,8,861,AS,exp,39,↓,right,→,0.017841000109910965,False,29,-1,0,0
Y2-S2-246M19,8,862,AS,exp,36,→,up,↑,0.08440540032461286,False,30,-1,0,0
Y2-S2-246M19,8,863,AS,exp,25,←,right,→,0.3673707996495068,False,31,-1,0,0
Y2-S2-246M19,8,864,AS,exp,28,→,right,→,0.10098410025238991,True,32,-1,0,0
Y2-S2-246M19,8,865,AS,exp,45,←,left,←,0.31757899979129434,True,32,-1,0,0
Y2-S2-246M19,8,866,AS,exp,38,→,up,↑,0.017731099855154753,False,32,-1,0,0
Y2-S2-246M19,8,867,AS,exp,37,↓,up,↑,0.251110200304538,False,33,-1,0,0
Y2-S2-246M19,8,868,AS,exp,33,↑,left,←,0.23411870002746582,False,34,-1,0,0
Y2-S2-246M19,8,869,AS,exp,44,→,left,←,0.16757490020245314,False,35,-1,0,0
Y2-S2-246M19,8,870,AS,exp,41,↑,left,←,0.03397589968517423,False,36,-1,0,0
Y2-S2-246M19,8,871,AS,exp,50,←,up,↑,0.08371479995548725,False,37,-1,0,0
Y2-S2-246M19,8,872,AS,exp,30,↑,up,↑,0.16808159975335002,True,38,-1,0,0
Y2-S2-246M19,8,873,AS,exp,31,←,down,↓,0.2508263001218438,False,38,-1,0,0
Y2-S2-246M19,8,874,AS,exp,49,↓,right,→,0.15093659982085228,False,39,-1,0,0
Y2-S2-246M19,8,875,AS,exp,39,→,left,←,0.017676299903541803,False,40,-1,0,0
Y2-S2-246M19,8,876,AS,exp,31,←,down,↓,0.2510607000440359,False,41,-1,0,0
Y2-S2-246M19,8,877,AS,exp,25,↑,up,↑,0.6010610996745527,True,42,-1,0,0
Y2-S2-246M19,8,878,AS,exp,36,←,left,←,0.41781049966812134,True,42,-1,0,0
Y2-S2-246M19,8,879,AS,exp,36,↑,up,↑,0.5842400998808444,True,42,1,1,1
Y2-S2-246M19,8,880,AS,exp,35,↓,down,↓,0.8170813000760972,True,41,1,0,1
Y2-S2-246M19,8,881,AS,exp,49,←,left,←,0.41791420010849833,True,41,1,0,1
Y2-S2-246M19,8,882,AS,exp,36,→,right,→,0.4175364999100566,True,41,1,0,1
Y2-S2-246M19,8,883,AS,exp,28,←,left,←,0.4011752000078559,True,40,1,0,1
Y2-S2-246M19,8,884,AS,exp,42,→,right,→,0.4677555998787284,True,40,1,0,1
Y2-S2-246M19,8,885,AS,exp,26,←,left,←,0.38423890015110373,True,40,1,0,1
Y2-S2-246M19,8,886,AS,exp,29,→,left,←,0.5675920001231134,False,39,-1,1,2
Y2-S2-246M19,8,887,AS,exp,25,←,left,←,0.617761000059545,True,40,-1,0,2
Y2-S2-246M19,8,888,AS,exp,30,↑,up,↑,0.4346350999549031,True,40,-1,0,2
Y2-S2-246M19,8,889,AS,exp,41,↓,down,↓,0.6665465999394655,True,40,1,1,3
Y2-S2-246M19,8,890,AS,exp,40,←,left,←,0.48425620002672076,True,39,1,0,3
Y2-S2-246M19,8,891,AS,exp,45,↑,up,↑,0.6672135000117123,True,39,1,0,3
Y2-S2-246M19,8,892,AS,exp,37,←,left,←,0.617525499779731,True,39,1,0,3
Y2-S2-246M19,8,893,AS,exp,38,↑,up,↑,0.6172637999989092,True,38,1,0,3
Y2-S2-246M19,8,894,AS,exp,30,→,right,→,1.580583400093019,True,38,1,0,3
Y2-S2-246M19,8,895,AS,exp,32,↓,down,↓,0.8508370998315513,True,38,1,0,3
Y2-S2-246M19,8,896,AS,exp,49,↑,up,↑,0.5844434997998178,True,37,1,0,3
Y2-S2-246M19,8,897,AS,exp,43,↓,down,↓,1.3823204999789596,True,37,1,0,3
Y2-S2-246M19,8,898,AS,exp,38,↑,up,↑,0.8545870003290474,True,37,1,0,3
Y2-S2-246M19,8,899,AS,exp,31,↓,down,↓,0.7173973000608385,True,36,1,0,3
Y2-S2-246M19,8,900,AS,exp,50,→,right,→,0.5676586995832622,True,36,1,0,3
Y2-S2-246M19,8,901,AS,exp,33,←,left,←,0.7340505002066493,True,36,1,0,3
Y2-S2-246M19,8,902,AS,exp,41,→,right,→,0.5843700999394059,True,35,1,0,3
Y2-S2-246M19,8,903,AS,exp,44,←,left,←,1.301059799734503,True,35,1,0,3
Y2-S2-246M19,8,904,AS,exp,27,→,left,←,0.31760499998927116,False,35,-1,1,4
Y2-S2-246M19,8,905,AS,exp,32,↓,left,←,0.3511756001971662,False,36,-1,0,4
Y2-S2-246M19,8,906,AS,exp,40,←,left,←,0.6506068003363907,True,37,-1,0,4
Y2-S2-246M19,8,907,AS,exp,28,→,right,→,0.6676420997828245,True,37,-1,0,4
Y2-S2-246M19,8,908,AS,exp,36,↓,left,←,0.36762289982289076,False,37,-1,0,4
Y2-S2-246M19,8,909,AS,exp,39,↑,right,→,0.4842656999826431,False,38,-1,0,4
Y2-S2-246M19,8,910,AS,exp,27,↓,up,↑,0.5843934002332389,False,39,-1,0,4
Y2-S2-246M19,8,911,AS,exp,48,→,right,→,0.451131799723953,True,40,-1,0,4
Y2-S2-246M19,8,912,AS,exp,34,↓,down,↓,0.46722069988027215,True,40,-1,0,4
Y2-S2-246M19,8,913,AS,exp,42,↑,up,↑,0.8948440998792648,True,40,1,1,5
Y2-S2-246M19,8,914,AS,exp,32,→,right,→,0.5008903997950256,True,39,1,0,5
Y2-S2-246M19,8,915,AS,exp,27,←,left,←,0.7172785997390747,True,39,1,0,5
Y2-S2-246M19,8,916,AS,exp,25,→,right,→,0.4509211997501552,True,39,1,0,5
Y2-S2-246M19,8,917,AS,exp,50,←,right,→,0.5008781002834439,False,38,-1,1,6
Y2-S2-246M19,8,918,AS,exp,32,↓,down,↓,0.700857600197196,True,39,-1,0,6
Y2-S2-246M19,8,919,AS,exp,35,→,right,→,0.667166099883616,True,39,-1,0,6
Y2-S2-246M19,8,920,AS,exp,39,↓,down,↓,1.3995956997387111,True,39,1,1,7
Y2-S2-246M19,8,921,AS,exp,27,→,right,→,0.7171310000121593,True,38,1,0,7
Y2-S2-246M19,8,922,AS,exp,49,↑,up,↑,0.5845837001688778,True,38,1,0,7
Y2-S2-246M19,8,923,AS,exp,31,←,left,←,0.7333442000672221,True,38,1,0,7
Y2-S2-246M19,8,924,AS,exp,30,↓,down,↓,0.6006273999810219,True,37,1,0,7
Y2-S2-246M19,8,925,AS,exp,33,↑,up,↑,1.3406457998789847,True,37,1,0,7
Y2-S2-246M19,8,926,AS,exp,33,→,right,→,0.60038400022313,True,37,1,0,7
Y2-S2-246M19,8,927,AS,exp,45,↓,down,↓,0.501006199978292,True,36,1,0,7
Y2-S2-246M19,8,928,AS,exp,47,←,left,←,1.240308000240475,True,36,1,0,7
Y2-S2-246M19,8,929,AS,exp,49,→,right,→,0.43410660000517964,True,36,1,0,7
Y2-S2-246M19,8,930,AS,exp,37,↓,down,↓,0.5511336997151375,True,35,1,0,7
Y2-S2-246M19,8,931,AS,exp,47,←,left,←,0.5009856000542641,True,35,1,0,7
Y2-S2-246M19,8,932,AS,exp,33,↓,down,↓,0.5840187999419868,True,35,1,0,7
Y2-S2-246M19,8,933,AS,exp,36,→,right,→,0.45109609980136156,True,34,1,0,7
Y2-S2-246M19,8,934,AS,exp,36,↑,up,↑,0.83046879991889,True,34,1,0,7
Y2-S2-246M19,8,935,AS,exp,46,←,right,→,0.6008417000994086,False,34,-1,1,8
Y2-S2-246M19,8,936,AS,exp,42,↑,up,↑,0.5837733000516891,True,35,-1,0,8
Y2-S2-246M19,8,937,AS,exp,35,→,right,→,0.5508972997777164,True,35,-1,0,8
Y2-S2-246M19,8,938,AS,exp,48,←,left,←,0.667367999907583,True,35,1,1,9
Y2-S2-246M19,8,939,AS,exp,44,→,right,→,0.48452189983800054,True,34,1,0,9
Y2-S2-246M19,8,940,AS,exp,32,←,left,←,0.6340637998655438,True,34,1,0,9
Y2-S2-246M19,8,941,AS,exp,47,↑,up,↑,0.5677877003327012,True,34,1,0,9
Y2-S2-246M19,8,942,AS,exp,32,↓,down,↓,1.2471735998988152,True,33,1,0,9
Y2-S2-246M19,8,943,AS,exp,43,↑,up,↑,0.7570613999851048,True,33,1,0,9
Y2-S2-246M19,8,944,AS,exp,42,↓,down,↓,0.4676421000622213,True,33,1,0,9
Y2-S2-246M19,8,945,AS,exp,40,→,right,→,1.5098446998745203,True,32,1,0,9
Y2-S2-246M19,8,946,AS,exp,26,↑,up,↑,0.617325899656862,True,32,1,0,9
Y2-S2-246M19,8,947,AS,exp,48,←,left,←,0.6341437003575265,True,32,1,0,9
Y2-S2-246M19,8,948,AS,exp,46,↓,up,↑,0.5340849999338388,False,31,-1,1,10
Y2-S2-246M19,8,949,AS,exp,32,←,left,←,0.550629900302738,True,32,-1,0,10
Y2-S2-246M19,8,950,AS,exp,50,↑,up,↑,0.7716743997298181,True,32,-1,0,10
Y2-S2-246M19,8,951,AS,exp,39,↓,down,↓,0.6006793002597988,True,32,1,1,11
Y2-S2-246M19,8,952,AS,exp,26,→,right,→,0.550573299638927,True,31,1,0,11
Y2-S2-246M19,8,953,AS,exp,37,←,left,←,0.4176940997131169,True,31,1,0,11
Y2-S2-246M19,8,954,AS,exp,47,→,right,→,0.633975200355053,True,31,1,0,11
Y2-S2-246M19,8,955,AS,exp,32,←,left,←,0.6341413999907672,True,30,1,0,11
Y2-S2-246M19,8,956,AS,exp,41,→,right,→,0.5343848997727036,True,30,1,0,11
Y2-S2-246M19,8,957,AS,exp,40,↑,up,↑,0.617603600025177,True,30,1,0,11
Y2-S2-246M19,8,958,AS,exp,27,←,left,←,1.3708445001393557,True,29,1,0,11
Y2-S2-246M19,8,959,AS,exp,45,→,right,→,0.6169256996363401,True,29,1,0,11
Y2-S2-246M19,8,960,AS,exp,31,↑,up,↑,1.183725600130856,True,29,1,0,11
Y2-S2-246M19,8,961,AS,exp,43,→,right,→,1.5154071003198624,True,28,1,0,11
Y2-S2-246M19,8,962,AS,exp,43,↑,up,↑,0.7257050001062453,True,28,1,0,11
Y2-S2-246M19,8,963,AS,exp,32,↓,down,↓,0.6846543001011014,True,28,1,0,11
Y2-S2-246M19,8,964,AS,exp,25,←,left,←,1.1354578998871148,True,27,1,0,11
Y2-S2-246M19,8,965,AS,exp,50,↓,down,↓,0.7772288001142442,True,27,1,0,11
Y2-S2-246M19,8,966,AS,exp,36,→,right,→,0.5672140000388026,True,27,1,0,11
Y2-S2-246M19,8,967,AS,exp,44,↓,down,↓,0.8288223999552429,True,26,1,0,11
Y2-S2-246M19,8,968,AS,exp,27,↑,up,↑,0.6030199001543224,True,26,1,0,11
Y2-S2-246M19,8,969,AS,exp,44,←,left,←,0.4839939000084996,True,26,1,0,11
Y2-S2-246M19,8,970,AS,exp,32,↑,up,↑,0.6516446000896394,True,25,1,0,11
Y2-S2-246M19,8,971,AS,exp,30,↓,down,↓,0.6592604997567832,True,25,1,0,11
Y2-S2-246M19,8,972,AS,exp,28,→,right,→,0.6307075000368059,True,25,1,0,11
Y2-S2-246M19,8,973,AS,exp,37,↑,up,↑,0.7205185000784695,True,24,1,0,11
Y2-S2-246M19,8,974,AS,exp,34,→,right,→,0.6145979999564588,True,24,1,0,11
Y2-S2-246M19,8,975,AS,exp,33,↓,down,↓,0.7560319998301566,True,24,1,0,11
Y2-S2-246M19,8,976,AS,exp,41,→,right,→,0.6050847000442445,True,23,1,0,11
Y2-S2-246M19,8,977,AS,exp,49,↑,up,↑,0.6336102001369,True,23,1,0,11
Y2-S2-246M19,8,978,AS,exp,32,↓,down,↓,0.733283800072968,True,23,1,0,11
Y2-S2-246M19,8,979,AS,exp,39,↑,up,↑,0.6930364998988807,True,22,1,0,11
Y2-S2-246M19,8,980,AS,exp,39,←,left,←,0.5883817998692393,True,22,1,0,11
Y2-S2-246M19,8,981,AS,exp,40,↓,down,↓,0.8008838999085128,True,22,1,0,11
Y2-S2-246M19,8,982,AS,exp,46,→,right,→,0.7694373000413179,True,21,1,0,11
Y2-S2-246M19,8,983,AS,exp,45,↓,down,↓,0.6434518001042306,True,21,1,0,11
Y2-S2-246M19,8,984,AS,exp,35,↑,up,↑,1.1244931002147496,True,21,1,0,11
Y2-S2-246M19,8,985,AS,exp,32,←,left,←,0.7047279998660088,True,20,1,0,11
Y2-S2-246M19,8,986,AS,exp,32,↓,down,↓,0.5722603998146951,True,20,1,0,11
Y2-S2-246M19,8,987,AS,exp,47,↑,up,↑,0.6722518997266889,True,20,1,0,11
Y2-S2-246M19,8,988,AS,exp,41,↓,down,↓,0.6290756999514997,True,19,1,0,11
Y2-S2-246M19,8,989,AS,exp,36,←,left,←,0.4899997999891639,True,19,1,0,11
Y2-S2-246M19,8,990,AS,exp,28,↓,down,↓,0.7057497999630868,True,19,1,0,11
Y2-S2-246M19,8,991,AS,exp,26,↑,up,↑,0.6531484997831285,True,18,1,0,11
Y2-S2-246M19,8,992,AS,exp,50,←,left,←,0.5153566999360919,True,18,1,0,11
Y2-S2-246M19,8,993,AS,exp,31,→,right,→,0.43386439979076385,True,18,1,0,11
Y2-S2-246M19,8,994,AS,exp,40,↑,up,↑,0.7002520998939872,True,17,1,0,11
Y2-S2-246M19,8,995,AS,exp,50,→,right,→,0.6527233999222517,True,17,1,0,11
Y2-S2-246M19,8,996,AS,exp,33,↓,down,↓,0.6464507998898625,True,17,1,0,11
Y2-S2-246M19,8,997,AS,exp,49,←,left,←,0.6262892996892333,True,16,1,0,11
Y2-S2-246M19,8,998,AS,exp,33,→,right,→,0.477522199973464,True,16,1,0,11
Y2-S2-246M19,8,999,AS,exp,49,↓,down,↓,0.6556241000071168,True,16,1,0,11
Y2-S2-246M19,8,1000,AS,exp,44,↑,down,↓,0.7884231996722519,False,15,-1,1,12
Y2-S2-246M19,8,1001,AS,exp,46,↓,down,↓,0.6112353997305036,True,16,-1,0,12
Y2-S2-246M19,8,1002,AS,exp,43,←,left,←,0.5422455002553761,True,16,-1,0,12
Y2-S2-246M19,8,1003,AS,exp,33,↓,left,←,0.7980690998956561,False,16,-1,0,12
Y2-S2-246M19,8,1004,AS,exp,36,←,left,←,0.5781581001356244,True,17,-1,0,12
Y2-S2-246M19,8,1005,AS,exp,29,→,right,→,0.46680100029334426,True,17,-1,0,12
Y2-S2-246M19,8,1006,AS,exp,34,↑,up,↑,0.7498241001740098,True,17,1,1,13
Y2-S2-246M19,8,1007,AS,exp,37,→,right,→,0.707630000077188,True,16,1,0,13
Y2-S2-246M19,8,1008,AS,exp,40,↑,up,↑,0.6756210997700691,True,16,1,0,13
Y2-S2-246M19,8,1009,AS,exp,26,↓,down,↓,0.5665827002376318,True,16,1,0,13
Y2-S2-246M19,8,1010,AS,exp,38,←,left,←,0.4883399000391364,True,15,1,0,13
Y2-S2-246M19,8,1011,AS,exp,40,↓,up,↑,0.7585089998319745,False,15,-1,1,14
Y2-S2-246M19,8,1012,AS,exp,39,→,up,↑,0.8710683998651803,False,16,-1,0,14
Y2-S2-246M19,8,1013,AS,exp,29,←,left,←,0.5800511999987066,True,17,-1,0,14
Y2-S2-246M19,8,1014,AS,exp,50,↑,up,↑,0.5903208996169269,True,17,-1,0,14
Y2-S2-246M19,8,1015,AS,exp,48,→,right,→,0.7153754001483321,True,17,1,1,15
Y2-S2-246M19,8,1016,AS,exp,37,↑,up,↑,0.726972300093621,True,16,1,0,15
Y2-S2-246M19,8,1017,AS,exp,43,→,right,→,0.467412699945271,True,16,1,0,15
Y2-S2-246M19,8,1018,AS,exp,25,←,left,←,0.5021920003928244,True,16,1,0,15
Y2-S2-246M19,8,1019,AS,exp,44,↓,up,↑,0.7447583000175655,False,15,-1,1,16
