PART_ID,Block_no,Trial_no,Block_type,Trial_type,CSI,Stim_letter,Key_pressed,letter_choose,Rt,Corr,Stimulus Time,Level,Reversal,Revs_count
Y2-S2-187M32,1,1,PS,train,46,←,left,←,0.8536235000938177,True,30,-,-,-
Y2-S2-187M32,1,2,PS,train,27,→,right,→,0.8498927999753505,True,30,-,-,-
Y2-S2-187M32,1,3,PS,train,31,↑,up,↑,0.7130249999463558,True,30,-,-,-
Y2-S2-187M32,1,4,PS,train,32,→,right,→,0.7124420001637191,True,30,-,-,-
Y2-S2-187M32,1,5,PS,train,46,↑,up,↑,0.7560641998425126,True,30,-,-,-
Y2-S2-187M32,1,6,PS,train,26,→,right,→,0.9861520999111235,True,30,-,-,-
Y2-S2-187M32,1,7,PS,train,39,←,left,←,0.6794364999514073,True,30,-,-,-
Y2-S2-187M32,1,8,PS,train,42,↓,down,↓,0.9065702999942005,True,30,-,-,-
Y2-S2-187M32,1,9,PS,train,32,→,right,→,0.8888340999837965,True,30,-,-,-
Y2-S2-187M32,1,10,PS,train,27,↓,down,↓,1.1109331001061946,True,30,-,-,-
Y2-S2-187M32,2,11,AS,train,33,←,left,←,0.7340208999812603,True,45,-,-,-
Y2-S2-187M32,2,12,AS,train,40,↑,up,↑,0.7012621001340449,True,45,-,-,-
Y2-S2-187M32,2,13,AS,train,47,←,left,←,0.734401399968192,True,45,-,-,-
Y2-S2-187M32,2,14,AS,train,46,→,right,→,0.8005021000280976,True,45,-,-,-
Y2-S2-187M32,2,15,AS,train,35,↑,up,↑,0.6342437001876533,True,45,-,-,-
Y2-S2-187M32,2,16,AS,train,35,→,right,→,0.8341542000416666,True,45,-,-,-
Y2-S2-187M32,2,17,AS,train,25,↓,down,↓,0.9521428998559713,True,45,-,-,-
Y2-S2-187M32,2,18,AS,train,44,←,left,←,0.6844299000222236,True,45,-,-,-
Y2-S2-187M32,2,19,AS,train,30,→,right,→,0.8006593000609428,True,45,-,-,-
Y2-S2-187M32,2,20,AS,train,32,←,no_key,no_letter,-1.0,False,45,-,-,-
Y2-S2-187M32,-,21,PS,adaptive,32,→,right,→,1.5658122999593616,True,10,0,0,0
Y2-S2-187M32,-,22,PS,adaptive,42,↓,down,↓,1.6815186000894755,True,10,0,0,0
Y2-S2-187M32,-,23,PS,adaptive,27,↑,up,↑,1.5297482998576015,True,10,1,0,0
Y2-S2-187M32,-,24,PS,adaptive,32,↓,left,←,0.978227199986577,False,9,-1,1,1
Y2-S2-187M32,-,25,PS,adaptive,27,↑,down,↓,0.8358576998580247,False,10,-1,0,1
Y2-S2-187M32,-,26,PS,adaptive,27,←,right,→,0.6639036999549717,False,11,-1,0,1
Y2-S2-187M32,-,27,PS,adaptive,41,↑,up,↑,0.9403118998743594,True,12,-1,0,1
Y2-S2-187M32,-,28,PS,adaptive,45,←,left,←,0.8962505999952555,True,12,-1,0,1
Y2-S2-187M32,-,29,PS,adaptive,32,→,right,→,0.7702566999942064,True,12,1,1,2
Y2-S2-187M32,-,30,PS,adaptive,31,←,right,→,1.4529705999884754,False,11,-1,1,3
Y2-S2-187M32,-,31,PS,adaptive,29,↑,down,↓,0.9730727998539805,False,12,-1,0,3
Y2-S2-187M32,-,32,PS,adaptive,28,↓,right,→,1.104891800088808,False,13,-1,0,3
Y2-S2-187M32,-,33,PS,adaptive,41,→,down,↓,0.8549020001664758,False,14,-1,0,3
Y2-S2-187M32,-,34,PS,adaptive,44,↑,up,↑,0.4930615001358092,True,15,-1,0,3
Y2-S2-187M32,-,35,PS,adaptive,33,←,left,←,0.7302482998929918,True,15,-1,0,3
Y2-S2-187M32,-,36,PS,adaptive,41,↓,down,↓,0.8495618000160903,True,15,1,1,4
Y2-S2-187M32,-,37,AS,adaptive,35,→,right,→,0.5804983999114484,True,20,0,0,0
Y2-S2-187M32,-,38,AS,adaptive,41,↑,up,↑,0.6524566998705268,True,20,0,0,0
Y2-S2-187M32,-,39,AS,adaptive,37,↓,down,↓,0.938370699994266,True,20,1,0,0
Y2-S2-187M32,-,40,AS,adaptive,28,↑,up,↑,0.6299705000128597,True,19,1,0,0
Y2-S2-187M32,-,41,AS,adaptive,45,↓,down,↓,0.766533900052309,True,19,1,0,0
Y2-S2-187M32,-,42,AS,adaptive,25,↑,down,↓,0.9633405001368374,False,19,-1,1,1
Y2-S2-187M32,-,43,AS,adaptive,49,→,right,→,0.5773425998631865,True,20,-1,0,1
Y2-S2-187M32,-,44,AS,adaptive,28,←,left,←,0.6966065999586135,True,20,-1,0,1
Y2-S2-187M32,-,45,AS,adaptive,25,↓,up,↑,0.6231661001220345,False,20,-1,0,1
Y2-S2-187M32,-,46,AS,adaptive,25,→,left,←,0.899797199992463,False,21,-1,0,1
Y2-S2-187M32,-,47,AS,adaptive,39,↑,up,↑,0.6368690000381321,True,22,-1,0,1
Y2-S2-187M32,-,48,AS,adaptive,48,→,right,→,0.7232406998518854,True,22,-1,0,1
Y2-S2-187M32,-,49,AS,adaptive,28,↓,down,↓,1.05649370001629,True,22,1,1,2
Y2-S2-187M32,-,50,AS,adaptive,37,→,right,→,0.7584442000370473,True,21,1,0,2
Y2-S2-187M32,-,51,AS,adaptive,50,↓,down,↓,0.6900859999004751,True,21,1,0,2
Y2-S2-187M32,-,52,AS,adaptive,37,←,right,→,0.6801470001228154,False,21,-1,1,3
Y2-S2-187M32,-,53,AS,adaptive,31,↑,up,↑,0.7872158999089152,True,22,-1,0,3
Y2-S2-187M32,-,54,AS,adaptive,49,→,right,→,0.583781500114128,True,22,-1,0,3
Y2-S2-187M32,-,55,AS,adaptive,33,↓,down,↓,1.3879897000733763,True,22,1,1,4
Y2-S2-187M32,1,56,AS,intra_train,29,←,right,→,1.233799599809572,False,31,-,-,-
Y2-S2-187M32,1,57,AS,intra_train,26,↑,no_key,no_letter,-1.0,False,31,-,-,-
Y2-S2-187M32,1,58,AS,intra_train,29,→,right,→,0.6007373000029474,True,31,-,-,-
Y2-S2-187M32,1,59,AS,intra_train,42,←,no_key,no_letter,-1.0,False,31,-,-,-
Y2-S2-187M32,1,60,AS,intra_train,27,↑,no_key,no_letter,-1.0,False,31,-,-,-
Y2-S2-187M32,1,61,AS,exp,28,↓,no_key,no_letter,-1.0,False,21,-1,0,0
Y2-S2-187M32,1,62,AS,exp,34,→,right,→,0.5590588001068681,True,22,-1,0,0
Y2-S2-187M32,1,63,AS,exp,49,↑,no_key,no_letter,-1.0,False,22,-1,0,0
Y2-S2-187M32,1,64,AS,exp,35,→,right,→,1.1610057998914272,True,23,-1,0,0
Y2-S2-187M32,1,65,AS,exp,28,↓,down,↓,0.910959999775514,True,23,-1,0,0
Y2-S2-187M32,1,66,AS,exp,26,←,left,←,0.6179389997851104,True,23,1,1,1
Y2-S2-187M32,1,67,AS,exp,37,→,left,←,0.7694430998526514,False,22,-1,1,2
Y2-S2-187M32,1,68,AS,exp,35,←,no_key,no_letter,-1.0,False,23,-1,0,2
Y2-S2-187M32,1,69,AS,exp,39,→,right,→,1.5574092001188546,True,24,-1,0,2
Y2-S2-187M32,1,70,AS,exp,35,↑,left,←,1.075556700117886,False,24,-1,0,2
Y2-S2-187M32,1,71,AS,exp,48,→,right,→,0.7388168999459594,True,25,-1,0,2
Y2-S2-187M32,1,72,AS,exp,46,↑,no_key,no_letter,-1.0,False,25,-1,0,2
Y2-S2-187M32,1,73,AS,exp,50,↓,down,↓,0.8784968999680132,True,26,-1,0,2
Y2-S2-187M32,1,74,AS,exp,29,←,left,←,1.083990499842912,True,26,-1,0,2
Y2-S2-187M32,1,75,AS,exp,35,→,right,→,0.8103680999483913,True,26,1,1,3
Y2-S2-187M32,1,76,AS,exp,42,↑,up,↑,1.1094591000583023,True,25,1,0,3
Y2-S2-187M32,1,77,AS,exp,35,←,down,↓,1.318379599833861,False,25,-1,1,4
Y2-S2-187M32,1,78,AS,exp,25,→,down,↓,1.6244694001507014,False,26,-1,0,4
Y2-S2-187M32,1,79,AS,exp,41,↓,down,↓,1.9763649001251906,True,27,-1,0,4
Y2-S2-187M32,1,80,AS,exp,38,←,left,←,0.7563349001575261,True,27,-1,0,4
Y2-S2-187M32,1,81,AS,exp,43,↓,down,↓,1.0270004998892546,True,27,1,1,5
Y2-S2-187M32,1,82,AS,exp,39,↑,down,↓,0.9100066001992673,False,26,-1,1,6
Y2-S2-187M32,1,83,AS,exp,31,←,left,←,0.8577586999163032,True,27,-1,0,6
Y2-S2-187M32,1,84,AS,exp,35,→,right,→,0.5672106000129133,True,27,-1,0,6
Y2-S2-187M32,1,85,AS,exp,41,←,left,←,0.6371273000258952,True,27,1,1,7
Y2-S2-187M32,1,86,AS,exp,38,→,right,→,0.6188296000473201,True,26,1,0,7
Y2-S2-187M32,1,87,AS,exp,44,←,right,→,1.1872293001506478,False,26,-1,1,8
Y2-S2-187M32,1,88,AS,exp,49,↓,down,↓,0.8910393000114709,True,27,-1,0,8
Y2-S2-187M32,1,89,AS,exp,42,→,right,→,0.9439499001018703,True,27,-1,0,8
Y2-S2-187M32,1,90,AS,exp,28,↓,down,↓,0.914274699985981,True,27,1,1,9
Y2-S2-187M32,1,91,AS,exp,36,→,down,↓,1.681442999979481,False,26,-1,1,10
Y2-S2-187M32,1,92,AS,exp,39,←,left,←,1.4334907000884414,True,27,-1,0,10
Y2-S2-187M32,1,93,AS,exp,45,↓,down,↓,0.8112969000358135,True,27,-1,0,10
Y2-S2-187M32,1,94,AS,exp,49,→,right,→,0.7557758998591453,True,27,1,1,11
Y2-S2-187M32,1,95,AS,exp,27,←,left,←,0.7752580000087619,True,26,1,0,11
Y2-S2-187M32,1,96,AS,exp,42,→,right,→,0.7912252999376506,True,26,1,0,11
Y2-S2-187M32,1,97,AS,exp,39,↑,no_key,no_letter,-1.0,False,26,-1,1,12
Y2-S2-187M32,1,98,AS,exp,25,↓,down,↓,0.8391028000041842,True,27,-1,0,12
Y2-S2-187M32,1,99,AS,exp,36,↑,up,↑,0.7445370999630541,True,27,-1,0,12
Y2-S2-187M32,1,100,AS,exp,27,↓,down,↓,0.7962984000332654,True,27,1,1,13
Y2-S2-187M32,1,101,AS,exp,27,←,left,←,0.7644040999002755,True,26,1,0,13
Y2-S2-187M32,1,102,AS,exp,36,→,right,→,0.7705073000397533,True,26,1,0,13
Y2-S2-187M32,1,103,AS,exp,41,↑,right,→,1.450611700071022,False,26,-1,1,14
Y2-S2-187M32,1,104,AS,exp,37,←,no_key,no_letter,-1.0,False,27,-1,0,14
Y2-S2-187M32,1,105,AS,exp,42,→,right,→,0.713703699875623,True,28,-1,0,14
Y2-S2-187M32,1,106,AS,exp,37,←,left,←,0.6801561000756919,True,28,-1,0,14
Y2-S2-187M32,1,107,AS,exp,47,↑,up,↑,0.8649899999145418,True,28,1,1,15
Y2-S2-187M32,1,108,AS,exp,43,→,right,→,0.6885410000104457,True,27,1,0,15
Y2-S2-187M32,1,109,AS,exp,27,↑,up,↑,0.7496229000389576,True,27,1,0,15
Y2-S2-187M32,1,110,AS,exp,29,↓,down,↓,0.8802539000753313,True,27,1,0,15
Y2-S2-187M32,1,111,AS,exp,30,←,right,→,1.2533128999639302,False,26,-1,1,16
Y2-S2-187M32,2,112,PS,intra_train,36,↑,up,↑,0.7339981000404805,True,21,-,-,-
Y2-S2-187M32,2,113,PS,intra_train,36,←,left,←,0.7896537999622524,True,21,-,-,-
Y2-S2-187M32,2,114,PS,intra_train,45,→,right,→,0.6651601002085954,True,21,-,-,-
Y2-S2-187M32,2,115,PS,intra_train,38,←,left,←,0.6755139001179487,True,21,-,-,-
Y2-S2-187M32,2,116,PS,intra_train,48,↑,up,↑,0.616676599951461,True,21,-,-,-
Y2-S2-187M32,2,117,PS,exp,29,↓,down,↓,0.8146027999464422,True,14,0,0,0
Y2-S2-187M32,2,118,PS,exp,28,→,down,↓,0.9707535000052303,False,14,-1,0,0
Y2-S2-187M32,2,119,PS,exp,39,↑,up,↑,0.57292850012891,True,15,-1,0,0
Y2-S2-187M32,2,120,PS,exp,36,←,left,←,0.899167199851945,True,15,-1,0,0
Y2-S2-187M32,2,121,PS,exp,28,→,right,→,0.8678360001649708,True,15,1,1,1
Y2-S2-187M32,2,122,PS,exp,32,←,right,→,1.1657825000584126,False,14,-1,1,2
Y2-S2-187M32,2,123,PS,exp,30,→,up,↑,0.7827023998834193,False,15,-1,0,2
Y2-S2-187M32,2,124,PS,exp,28,↑,down,↓,0.839715100126341,False,16,-1,0,2
Y2-S2-187M32,2,125,PS,exp,47,→,right,→,0.9197366000153124,True,17,-1,0,2
Y2-S2-187M32,2,126,PS,exp,40,↓,down,↓,0.789266400039196,True,17,-1,0,2
Y2-S2-187M32,2,127,PS,exp,27,→,right,→,0.8389564000535756,True,17,1,1,3
Y2-S2-187M32,2,128,PS,exp,49,←,left,←,0.6876590999308974,True,16,1,0,3
Y2-S2-187M32,2,129,PS,exp,46,↑,up,↑,0.899865300161764,True,16,1,0,3
Y2-S2-187M32,2,130,PS,exp,30,←,right,→,0.7402417999692261,False,16,-1,1,4
Y2-S2-187M32,2,131,PS,exp,37,↓,down,↓,0.8023031000047922,True,17,-1,0,4
Y2-S2-187M32,2,132,PS,exp,50,←,left,←,0.6034097999799997,True,17,-1,0,4
Y2-S2-187M32,2,133,PS,exp,31,↑,up,↑,0.7511332000140101,True,17,1,1,5
Y2-S2-187M32,2,134,PS,exp,44,←,left,←,0.756626799935475,True,16,1,0,5
Y2-S2-187M32,2,135,PS,exp,49,→,right,→,0.5670163000468165,True,16,1,0,5
Y2-S2-187M32,2,136,PS,exp,50,↓,up,↑,0.78504449990578,False,16,-1,1,6
Y2-S2-187M32,2,137,PS,exp,42,→,right,→,0.667555799940601,True,17,-1,0,6
Y2-S2-187M32,2,138,PS,exp,49,↑,up,↑,0.7057643998414278,True,17,-1,0,6
Y2-S2-187M32,2,139,PS,exp,29,→,left,←,0.8870413999538869,False,17,-1,0,6
Y2-S2-187M32,2,140,PS,exp,50,←,left,←,0.7005877001211047,True,18,-1,0,6
Y2-S2-187M32,2,141,PS,exp,31,↓,down,↓,0.8496552999131382,True,18,-1,0,6
Y2-S2-187M32,2,142,PS,exp,25,←,left,←,0.7192265000194311,True,18,1,1,7
Y2-S2-187M32,2,143,PS,exp,25,↓,left,←,1.506634300108999,False,17,-1,1,8
Y2-S2-187M32,2,144,PS,exp,25,←,left,←,0.5091974998358637,True,18,-1,0,8
Y2-S2-187M32,2,145,PS,exp,33,↑,up,↑,0.5063742999918759,True,18,-1,0,8
Y2-S2-187M32,2,146,PS,exp,30,←,left,←,0.606338300043717,True,18,1,1,9
Y2-S2-187M32,2,147,PS,exp,30,↑,down,↓,0.913106300169602,False,17,-1,1,10
Y2-S2-187M32,2,148,PS,exp,36,←,left,←,0.6046073001343757,True,18,-1,0,10
Y2-S2-187M32,2,149,PS,exp,46,↑,up,↑,0.7275519999675453,True,18,-1,0,10
Y2-S2-187M32,2,150,PS,exp,36,→,right,→,0.615438099950552,True,18,1,1,11
Y2-S2-187M32,2,151,PS,exp,41,←,left,←,0.6316822001244873,True,17,1,0,11
Y2-S2-187M32,2,152,PS,exp,29,↑,left,←,0.8606665001716465,False,17,-1,1,12
Y2-S2-187M32,2,153,PS,exp,38,↓,down,↓,1.0188829000107944,True,18,-1,0,12
Y2-S2-187M32,2,154,PS,exp,44,→,down,↓,0.9347916999831796,False,18,-1,0,12
Y2-S2-187M32,2,155,PS,exp,40,←,down,↓,0.938221599906683,False,19,-1,0,12
Y2-S2-187M32,2,156,PS,exp,42,↑,up,↑,0.7018846999853849,True,20,-1,0,12
Y2-S2-187M32,2,157,PS,exp,41,←,left,←,0.7074579000473022,True,20,-1,0,12
Y2-S2-187M32,2,158,PS,exp,46,↓,down,↓,0.875074400100857,True,20,1,1,13
Y2-S2-187M32,2,159,PS,exp,27,←,right,→,0.8476706999354064,False,19,-1,1,14
Y2-S2-187M32,2,160,PS,exp,45,↓,down,↓,0.817279800074175,True,20,-1,0,14
Y2-S2-187M32,2,161,PS,exp,25,→,right,→,0.6259994001593441,True,20,-1,0,14
Y2-S2-187M32,2,162,PS,exp,47,←,no_key,no_letter,-1.0,False,20,-1,0,14
Y2-S2-187M32,2,163,PS,exp,45,↓,down,↓,0.825734700076282,True,21,-1,0,14
Y2-S2-187M32,2,164,PS,exp,48,←,left,←,0.7331006999593228,True,21,-1,0,14
Y2-S2-187M32,2,165,PS,exp,35,→,left,←,0.8174521999899298,False,21,-1,0,14
Y2-S2-187M32,2,166,PS,exp,31,←,left,←,0.5004686000756919,True,22,-1,0,14
Y2-S2-187M32,2,167,PS,exp,45,↓,down,↓,0.7905472998972982,True,22,-1,0,14
Y2-S2-187M32,2,168,PS,exp,26,←,right,→,0.567407000111416,False,22,-1,0,14
Y2-S2-187M32,2,169,PS,exp,40,↓,down,↓,0.6935112001374364,True,23,-1,0,14
Y2-S2-187M32,2,170,PS,exp,37,→,right,→,0.7167451998684555,True,23,-1,0,14
Y2-S2-187M32,2,171,PS,exp,31,←,left,←,0.7488114999141544,True,23,1,1,15
Y2-S2-187M32,2,172,PS,exp,42,↑,up,↑,0.623612399911508,True,22,1,0,15
Y2-S2-187M32,2,173,PS,exp,36,→,left,←,0.5006633999291807,False,22,-1,1,16
Y2-S2-187M32,3,174,PS,intra_train,37,↑,up,↑,0.8684586999006569,True,21,-,-,-
Y2-S2-187M32,3,175,PS,intra_train,36,→,right,→,0.6145893998909742,True,21,-,-,-
Y2-S2-187M32,3,176,PS,intra_train,26,↑,up,↑,0.6856259999331087,True,21,-,-,-
Y2-S2-187M32,3,177,PS,intra_train,40,→,right,→,0.6946058000903577,True,21,-,-,-
Y2-S2-187M32,3,178,PS,intra_train,30,↑,up,↑,0.6095433000009507,True,21,-,-,-
Y2-S2-187M32,3,179,PS,exp,30,→,right,→,0.5733272999059409,True,14,0,0,0
Y2-S2-187M32,3,180,PS,exp,40,←,right,→,0.8134670997969806,False,14,-1,0,0
Y2-S2-187M32,3,181,PS,exp,25,↑,down,↓,1.1352667000610381,False,15,-1,0,0
Y2-S2-187M32,3,182,PS,exp,46,↓,right,→,0.8685681000351906,False,16,-1,0,0
Y2-S2-187M32,3,183,PS,exp,40,→,right,→,0.3170765999238938,True,17,-1,0,0
Y2-S2-187M32,3,184,PS,exp,33,←,right,→,0.7438531999941915,False,17,-1,0,0
Y2-S2-187M32,3,185,PS,exp,39,↓,left,←,1.015835199970752,False,18,-1,0,0
Y2-S2-187M32,3,186,PS,exp,50,↑,up,↑,0.5339920001570135,True,19,-1,0,0
Y2-S2-187M32,3,187,PS,exp,26,←,right,→,0.7975242000538856,False,19,-1,0,0
Y2-S2-187M32,3,188,PS,exp,39,↑,up,↑,0.6946447000373155,True,20,-1,0,0
Y2-S2-187M32,3,189,PS,exp,30,↓,down,↓,0.8634951999410987,True,20,-1,0,0
Y2-S2-187M32,3,190,PS,exp,36,→,right,→,0.5680621000938118,True,20,1,1,1
Y2-S2-187M32,3,191,PS,exp,42,↑,right,→,1.0824144000653177,False,19,-1,1,2
Y2-S2-187M32,3,192,PS,exp,25,←,left,←,0.7864617998711765,True,20,-1,0,2
Y2-S2-187M32,3,193,PS,exp,50,→,right,→,0.7711714999750257,True,20,-1,0,2
Y2-S2-187M32,3,194,PS,exp,28,↑,up,↑,0.6043900002259761,True,20,1,1,3
Y2-S2-187M32,3,195,PS,exp,41,↓,down,↓,0.9079481998924166,True,19,1,0,3
Y2-S2-187M32,3,196,PS,exp,36,↑,up,↑,0.7011337000876665,True,19,1,0,3
Y2-S2-187M32,3,197,PS,exp,28,→,right,→,0.5254613999277353,True,19,1,0,3
Y2-S2-187M32,3,198,PS,exp,40,↓,down,↓,0.7655327999964356,True,18,1,0,3
Y2-S2-187M32,3,199,PS,exp,36,↑,up,↑,0.7637690000701696,True,18,1,0,3
Y2-S2-187M32,3,200,PS,exp,28,→,right,→,0.7719576000235975,True,18,1,0,3
Y2-S2-187M32,3,201,PS,exp,34,↓,down,↓,0.8568988000042737,True,17,1,0,3
Y2-S2-187M32,3,202,PS,exp,46,←,left,←,0.5111822998151183,True,17,1,0,3
Y2-S2-187M32,3,203,PS,exp,38,↓,down,↓,0.7635766000021249,True,17,1,0,3
Y2-S2-187M32,3,204,PS,exp,32,←,left,←,0.7235871001612395,True,16,1,0,3
Y2-S2-187M32,3,205,PS,exp,31,↓,down,↓,0.7873451001942158,True,16,1,0,3
Y2-S2-187M32,3,206,PS,exp,27,→,right,→,0.7259219000115991,True,16,1,0,3
Y2-S2-187M32,3,207,PS,exp,42,↑,up,↑,0.5854572001844645,True,15,1,0,3
Y2-S2-187M32,3,208,PS,exp,36,→,right,→,0.6843244000338018,True,15,1,0,3
Y2-S2-187M32,3,209,PS,exp,46,←,right,→,0.8182311998680234,False,15,-1,1,4
Y2-S2-187M32,3,210,PS,exp,42,↑,left,←,0.970451399916783,False,16,-1,0,4
Y2-S2-187M32,3,211,PS,exp,37,→,right,→,0.736864399863407,True,17,-1,0,4
Y2-S2-187M32,3,212,PS,exp,44,←,left,←,0.7401673998683691,True,17,-1,0,4
Y2-S2-187M32,3,213,PS,exp,31,↓,up,↑,1.0185387001838535,False,17,-1,0,4
Y2-S2-187M32,3,214,PS,exp,47,←,right,→,1.4884609999135137,False,18,-1,0,4
Y2-S2-187M32,3,215,PS,exp,50,→,right,→,0.7023890998680145,True,19,-1,0,4
Y2-S2-187M32,3,216,PS,exp,48,↓,down,↓,0.9076272000093013,True,19,-1,0,4
Y2-S2-187M32,3,217,PS,exp,42,↑,up,↑,0.6282162999268621,True,19,1,1,5
Y2-S2-187M32,3,218,PS,exp,43,↓,down,↓,0.8849828999955207,True,18,1,0,5
Y2-S2-187M32,3,219,PS,exp,42,←,left,←,0.7759274998679757,True,18,1,0,5
Y2-S2-187M32,3,220,PS,exp,38,↓,down,↓,0.9763535000383854,True,18,1,0,5
Y2-S2-187M32,3,221,PS,exp,27,↑,down,↓,1.0551746999844909,False,17,-1,1,6
Y2-S2-187M32,3,222,PS,exp,31,←,left,←,0.5601065000519156,True,18,-1,0,6
Y2-S2-187M32,3,223,PS,exp,46,→,right,→,0.61721510021016,True,18,-1,0,6
Y2-S2-187M32,3,224,PS,exp,38,↓,up,↑,0.7789133999031037,False,18,-1,0,6
Y2-S2-187M32,3,225,PS,exp,47,←,left,←,0.6384513999801129,True,19,-1,0,6
Y2-S2-187M32,3,226,PS,exp,29,↑,up,↑,0.8580077001824975,True,19,-1,0,6
Y2-S2-187M32,3,227,PS,exp,36,↓,down,↓,0.7464020999614149,True,19,1,1,7
Y2-S2-187M32,3,228,PS,exp,42,←,right,→,0.9229253998491913,False,18,-1,1,8
Y2-S2-187M32,3,229,PS,exp,34,→,right,→,0.7153650000691414,True,19,-1,0,8
Y2-S2-187M32,3,230,PS,exp,38,↓,down,↓,0.8583545999135822,True,19,-1,0,8
Y2-S2-187M32,3,231,PS,exp,41,↑,up,↑,0.7309420998208225,True,19,1,1,9
Y2-S2-187M32,3,232,PS,exp,46,↓,up,↑,0.8450087001547217,False,18,-1,1,10
Y2-S2-187M32,3,233,PS,exp,27,↑,right,→,0.40112919989041984,False,19,-1,0,10
Y2-S2-187M32,3,234,PS,exp,34,↓,down,↓,0.5571727999486029,True,20,-1,0,10
Y2-S2-187M32,3,235,PS,exp,38,←,left,←,0.5870010000653565,True,20,-1,0,10
Y2-S2-187M32,3,236,PS,exp,49,↑,up,↑,0.5754078000318259,True,20,1,1,11
Y2-S2-187M32,3,237,PS,exp,25,←,right,→,0.8275101999752223,False,19,-1,1,12
Y2-S2-187M32,3,238,PS,exp,42,→,no_key,no_letter,-1.0,False,20,-1,0,12
Y2-S2-187M32,3,239,PS,exp,38,↓,right,→,0.4339020000770688,False,21,-1,0,12
Y2-S2-187M32,3,240,PS,exp,25,→,down,↓,1.0626115000341088,False,22,-1,0,12
Y2-S2-187M32,3,241,PS,exp,31,←,left,←,0.6862845998257399,True,23,-1,0,12
Y2-S2-187M32,3,242,PS,exp,46,↓,down,↓,0.7649365998804569,True,23,-1,0,12
Y2-S2-187M32,3,243,PS,exp,41,↑,up,↑,0.5860740998759866,True,23,1,1,13
Y2-S2-187M32,3,244,PS,exp,33,→,right,→,0.5004358999431133,True,22,1,0,13
Y2-S2-187M32,3,245,PS,exp,40,↑,up,↑,0.4836500999517739,True,22,1,0,13
Y2-S2-187M32,3,246,PS,exp,49,←,left,←,0.6386239000130445,True,22,1,0,13
Y2-S2-187M32,3,247,PS,exp,44,↑,up,↑,0.9455937000457197,True,21,1,0,13
Y2-S2-187M32,3,248,PS,exp,41,→,right,→,0.7076894000638276,True,21,1,0,13
Y2-S2-187M32,3,249,PS,exp,25,↑,up,↑,0.8303838998544961,True,21,1,0,13
Y2-S2-187M32,3,250,PS,exp,32,↓,down,↓,0.6445420999079943,True,20,1,0,13
Y2-S2-187M32,3,251,PS,exp,45,→,right,→,0.5715622000861913,True,20,1,0,13
Y2-S2-187M32,3,252,PS,exp,48,←,left,←,0.747125499881804,True,20,1,0,13
Y2-S2-187M32,3,253,PS,exp,49,↓,down,↓,0.7918330999091268,True,19,1,0,13
Y2-S2-187M32,3,254,PS,exp,29,←,up,↑,1.4069189000874758,False,19,-1,1,14
Y2-S2-187M32,3,255,PS,exp,34,→,right,→,1.0751757000107318,True,20,-1,0,14
Y2-S2-187M32,3,256,PS,exp,33,←,left,←,0.8064037000294775,True,20,-1,0,14
Y2-S2-187M32,3,257,PS,exp,34,↑,up,↑,0.7751600998453796,True,20,1,1,15
Y2-S2-187M32,3,258,PS,exp,34,↓,down,↓,0.9513838000129908,True,19,1,0,15
Y2-S2-187M32,3,259,PS,exp,49,←,left,←,0.6888989999424666,True,19,1,0,15
Y2-S2-187M32,3,260,PS,exp,29,↓,down,↓,0.7951903999783099,True,19,1,0,15
Y2-S2-187M32,3,261,PS,exp,41,↑,up,↑,0.7305831999983639,True,18,1,0,15
Y2-S2-187M32,3,262,PS,exp,34,←,left,←,0.7918887999840081,True,18,1,0,15
Y2-S2-187M32,3,263,PS,exp,49,↓,down,↓,0.7656099000014365,True,18,1,0,15
Y2-S2-187M32,3,264,PS,exp,30,→,right,→,0.9135849000886083,True,17,1,0,15
Y2-S2-187M32,3,265,PS,exp,40,←,left,←,0.5819899998605251,True,17,1,0,15
Y2-S2-187M32,3,266,PS,exp,37,→,right,→,0.7383506000041962,True,17,1,0,15
Y2-S2-187M32,3,267,PS,exp,31,↓,down,↓,0.7324584999587387,True,16,1,0,15
Y2-S2-187M32,3,268,PS,exp,25,←,left,←,1.1953984000720084,True,16,1,0,15
Y2-S2-187M32,3,269,PS,exp,33,↓,down,↓,0.9041597999166697,True,16,1,0,15
Y2-S2-187M32,3,270,PS,exp,27,→,right,→,0.9624652001075447,True,15,1,0,15
Y2-S2-187M32,3,271,PS,exp,31,↑,down,↓,1.132272700080648,False,15,-1,1,16
Y2-S2-187M32,4,272,AS,intra_train,35,↓,down,↓,1.0849015999119729,True,31,-,-,-
Y2-S2-187M32,4,273,AS,intra_train,42,↑,up,↑,0.8189431000500917,True,31,-,-,-
Y2-S2-187M32,4,274,AS,intra_train,49,↓,down,↓,1.461104999994859,True,31,-,-,-
Y2-S2-187M32,4,275,AS,intra_train,47,←,left,←,1.8201335000339895,True,31,-,-,-
Y2-S2-187M32,4,276,AS,intra_train,28,↑,up,↑,0.8727557000238448,True,31,-,-,-
Y2-S2-187M32,4,277,AS,exp,44,←,left,←,0.7766615999862552,True,21,0,0,0
Y2-S2-187M32,4,278,AS,exp,26,↑,down,↓,0.8007344999350607,False,21,-1,0,0
Y2-S2-187M32,4,279,AS,exp,38,→,right,→,0.6335412000771612,True,22,-1,0,0
Y2-S2-187M32,4,280,AS,exp,41,↓,up,↑,0.796597900101915,False,22,-1,0,0
Y2-S2-187M32,4,281,AS,exp,49,→,no_key,no_letter,-1.0,False,23,-1,0,0
Y2-S2-187M32,4,282,AS,exp,50,↓,up,↑,1.1658766001928598,False,24,-1,0,0
Y2-S2-187M32,4,283,AS,exp,47,→,right,→,0.6444581001996994,True,25,-1,0,0
Y2-S2-187M32,4,284,AS,exp,43,↓,down,↓,0.9047342000994831,True,25,-1,0,0
Y2-S2-187M32,4,285,AS,exp,26,↑,up,↑,0.7986095000524074,True,25,1,1,1
Y2-S2-187M32,4,286,AS,exp,41,↓,down,↓,0.8944802999030799,True,24,1,0,1
Y2-S2-187M32,4,287,AS,exp,41,→,right,→,0.68053809995763,True,24,1,0,1
Y2-S2-187M32,4,288,AS,exp,50,↑,up,↑,0.6173221000935882,True,24,1,0,1
Y2-S2-187M32,4,289,AS,exp,37,→,right,→,0.9933389001525939,True,23,1,0,1
Y2-S2-187M32,4,290,AS,exp,30,↓,down,↓,0.8900305000133812,True,23,1,0,1
Y2-S2-187M32,4,291,AS,exp,43,←,left,←,0.7066518999636173,True,23,1,0,1
Y2-S2-187M32,4,292,AS,exp,48,↑,up,↑,0.7426847999449819,True,22,1,0,1
Y2-S2-187M32,4,293,AS,exp,27,↓,down,↓,1.3533246000297368,True,22,1,0,1
Y2-S2-187M32,4,294,AS,exp,42,→,right,→,0.6292232000268996,True,22,1,0,1
Y2-S2-187M32,4,295,AS,exp,33,↑,up,↑,0.6759422000031918,True,21,1,0,1
Y2-S2-187M32,4,296,AS,exp,42,↓,down,↓,0.965481499908492,True,21,1,0,1
Y2-S2-187M32,4,297,AS,exp,48,←,left,←,1.1830525000113994,True,21,1,0,1
Y2-S2-187M32,4,298,AS,exp,40,→,right,→,0.7149129000026733,True,20,1,0,1
Y2-S2-187M32,4,299,AS,exp,40,←,right,→,0.6825941998977214,False,20,-1,1,2
Y2-S2-187M32,4,300,AS,exp,34,→,right,→,0.8031587998848408,True,21,-1,0,2
Y2-S2-187M32,4,301,AS,exp,27,←,left,←,0.748244599904865,True,21,-1,0,2
Y2-S2-187M32,4,302,AS,exp,25,↓,down,↓,0.8619943999219686,True,21,1,1,3
Y2-S2-187M32,4,303,AS,exp,28,↑,up,↑,0.6803864999674261,True,20,1,0,3
Y2-S2-187M32,4,304,AS,exp,25,→,right,→,0.9035698999650776,True,20,1,0,3
Y2-S2-187M32,4,305,AS,exp,44,↑,up,↑,0.6115770000033081,True,20,1,0,3
Y2-S2-187M32,4,306,AS,exp,45,→,right,→,0.644424700178206,True,19,1,0,3
Y2-S2-187M32,4,307,AS,exp,34,↓,down,↓,0.8491695998236537,True,19,1,0,3
Y2-S2-187M32,4,308,AS,exp,45,←,right,→,0.7477279999293387,False,19,-1,1,4
Y2-S2-187M32,4,309,AS,exp,46,↑,up,↑,1.027586700161919,True,20,-1,0,4
Y2-S2-187M32,4,310,AS,exp,26,↓,down,↓,0.8390163998119533,True,20,-1,0,4
Y2-S2-187M32,4,311,AS,exp,30,↑,down,↓,0.9495343999005854,False,20,-1,0,4
Y2-S2-187M32,4,312,AS,exp,41,↓,down,↓,0.8864861000329256,True,21,-1,0,4
Y2-S2-187M32,4,313,AS,exp,41,→,right,→,0.890532199991867,True,21,-1,0,4
Y2-S2-187M32,4,314,AS,exp,47,←,left,←,0.8741117999888957,True,21,1,1,5
Y2-S2-187M32,4,315,AS,exp,33,↑,up,↑,0.8081086000893265,True,20,1,0,5
Y2-S2-187M32,4,316,AS,exp,49,←,left,←,0.7251472999341786,True,20,1,0,5
Y2-S2-187M32,4,317,AS,exp,42,↓,down,↓,0.7663707998581231,True,20,1,0,5
Y2-S2-187M32,4,318,AS,exp,30,↑,up,↑,0.6830582998227328,True,19,1,0,5
Y2-S2-187M32,4,319,AS,exp,38,↓,down,↓,0.8471427999902517,True,19,1,0,5
Y2-S2-187M32,4,320,AS,exp,46,→,right,→,0.6605996999423951,True,19,1,0,5
Y2-S2-187M32,4,321,AS,exp,48,←,left,←,0.7737790001556277,True,18,1,0,5
Y2-S2-187M32,4,322,AS,exp,42,↓,down,↓,0.969857000047341,True,18,1,0,5
Y2-S2-187M32,4,323,AS,exp,44,→,right,→,0.6169491000473499,True,18,1,0,5
Y2-S2-187M32,4,324,AS,exp,31,↓,down,↓,1.0637176998425275,True,17,1,0,5
Y2-S2-187M32,4,325,AS,exp,47,→,up,↑,0.9010369000025094,False,17,-1,1,6
Y2-S2-187M32,4,326,AS,exp,29,←,right,→,0.9003311998676509,False,18,-1,0,6
Y2-S2-187M32,4,327,AS,exp,48,↑,down,↓,1.0320139999967068,False,19,-1,0,6
Y2-S2-187M32,4,328,AS,exp,30,↓,down,↓,0.7747116000391543,True,20,-1,0,6
Y2-S2-187M32,4,329,AS,exp,39,→,left,←,0.9724999000318348,False,20,-1,0,6
Y2-S2-187M32,4,330,AS,exp,34,↑,down,↓,1.0611439000349492,False,21,-1,0,6
Y2-S2-187M32,4,331,AS,exp,31,←,left,←,0.759226500056684,True,22,-1,0,6
Y2-S2-187M32,4,332,AS,exp,34,↓,down,↓,0.8461317999754101,True,22,-1,0,6
Y2-S2-187M32,4,333,AS,exp,25,←,right,→,0.6747925998643041,False,22,-1,0,6
Y2-S2-187M32,4,334,AS,exp,35,↑,up,↑,1.0519912999588996,True,23,-1,0,6
Y2-S2-187M32,4,335,AS,exp,37,↓,up,↑,0.6408132999204099,False,23,-1,0,6
Y2-S2-187M32,4,336,AS,exp,46,→,right,→,0.8220947000663728,True,24,-1,0,6
Y2-S2-187M32,4,337,AS,exp,26,↑,up,↑,0.7324364001397043,True,24,-1,0,6
Y2-S2-187M32,4,338,AS,exp,50,↓,down,↓,0.7928681999910623,True,24,1,1,7
Y2-S2-187M32,4,339,AS,exp,38,→,right,→,0.637559600174427,True,23,1,0,7
Y2-S2-187M32,4,340,AS,exp,29,↓,down,↓,0.8637620001100004,True,23,1,0,7
Y2-S2-187M32,4,341,AS,exp,46,←,no_key,no_letter,-1.0,False,23,-1,1,8
Y2-S2-187M32,4,342,AS,exp,34,↑,up,↑,0.9151499001309276,True,24,-1,0,8
Y2-S2-187M32,4,343,AS,exp,31,←,right,→,0.61482819984667,False,24,-1,0,8
Y2-S2-187M32,4,344,AS,exp,36,↓,no_key,no_letter,-1.0,False,25,-1,0,8
Y2-S2-187M32,4,345,AS,exp,39,←,left,←,0.8382180000189692,True,26,-1,0,8
Y2-S2-187M32,4,346,AS,exp,39,→,right,→,0.8772272998467088,True,26,-1,0,8
Y2-S2-187M32,4,347,AS,exp,34,↓,down,↓,0.9858117999974638,True,26,1,1,9
Y2-S2-187M32,4,348,AS,exp,37,←,left,←,0.6881133997812867,True,25,1,0,9
Y2-S2-187M32,4,349,AS,exp,38,↑,up,↑,0.9666691001038998,True,25,1,0,9
Y2-S2-187M32,4,350,AS,exp,26,←,left,←,0.6445478999521583,True,25,1,0,9
Y2-S2-187M32,4,351,AS,exp,33,→,right,→,0.8643376000691205,True,24,1,0,9
Y2-S2-187M32,4,352,AS,exp,35,←,left,←,0.661999500123784,True,24,1,0,9
Y2-S2-187M32,4,353,AS,exp,40,→,no_key,no_letter,-1.0,False,24,-1,1,10
Y2-S2-187M32,4,354,AS,exp,45,↑,up,↑,0.8275015999097377,True,25,-1,0,10
Y2-S2-187M32,4,355,AS,exp,34,←,left,←,0.6292411000467837,True,25,-1,0,10
Y2-S2-187M32,4,356,AS,exp,45,↑,up,↑,0.8394085001200438,True,25,1,1,11
Y2-S2-187M32,4,357,AS,exp,28,←,left,←,0.7056766001041979,True,24,1,0,11
Y2-S2-187M32,4,358,AS,exp,37,↓,no_key,no_letter,-1.0,False,24,-1,1,12
Y2-S2-187M32,4,359,AS,exp,44,←,left,←,0.5176308997906744,True,25,-1,0,12
Y2-S2-187M32,4,360,AS,exp,42,↓,down,↓,0.651166999945417,True,25,-1,0,12
Y2-S2-187M32,4,361,AS,exp,36,→,no_key,no_letter,-1.0,False,25,-1,0,12
Y2-S2-187M32,4,362,AS,exp,34,↓,no_key,no_letter,-1.0,False,26,-1,0,12
Y2-S2-187M32,4,363,AS,exp,30,→,no_key,no_letter,-1.0,False,27,-1,0,12
Y2-S2-187M32,4,364,AS,exp,47,←,left,←,0.9748262001667172,True,28,-1,0,12
Y2-S2-187M32,4,365,AS,exp,41,↓,down,↓,0.7049438999965787,True,28,-1,0,12
Y2-S2-187M32,4,366,AS,exp,50,↑,up,↑,0.7846411999780685,True,28,1,1,13
Y2-S2-187M32,4,367,AS,exp,27,↓,down,↓,0.6896567000076175,True,27,1,0,13
Y2-S2-187M32,4,368,AS,exp,47,→,right,→,0.7950883000157773,True,27,1,0,13
Y2-S2-187M32,4,369,AS,exp,35,↑,up,↑,0.642142100026831,True,27,1,0,13
Y2-S2-187M32,4,370,AS,exp,34,→,right,→,0.7339085000567138,True,26,1,0,13
Y2-S2-187M32,4,371,AS,exp,49,↑,up,↑,0.703598199877888,True,26,1,0,13
Y2-S2-187M32,4,372,AS,exp,48,←,left,←,0.5674406001344323,True,26,1,0,13
Y2-S2-187M32,4,373,AS,exp,35,→,no_key,no_letter,-1.0,False,25,-1,1,14
Y2-S2-187M32,4,374,AS,exp,35,↑,up,↑,0.5672339000739157,True,26,-1,0,14
Y2-S2-187M32,4,375,AS,exp,37,→,right,→,0.9173456002026796,True,26,-1,0,14
Y2-S2-187M32,4,376,AS,exp,36,←,left,←,1.6918508000671864,True,26,1,1,15
Y2-S2-187M32,4,377,AS,exp,39,→,right,→,0.8206064000260085,True,25,1,0,15
Y2-S2-187M32,4,378,AS,exp,34,↑,down,↓,1.0440048999153078,False,25,-1,1,16
Y2-S2-187M32,5,379,AS,intra_train,25,→,right,→,0.6173249001149088,True,31,-,-,-
Y2-S2-187M32,5,380,AS,intra_train,30,←,left,←,0.8299193999264389,True,31,-,-,-
Y2-S2-187M32,5,381,AS,intra_train,47,→,right,→,0.705306300194934,True,31,-,-,-
Y2-S2-187M32,5,382,AS,intra_train,38,↓,up,↑,1.1190211998764426,False,31,-,-,-
Y2-S2-187M32,5,383,AS,intra_train,44,←,left,←,0.7577696000225842,True,31,-,-,-
Y2-S2-187M32,5,384,AS,exp,37,↑,up,↑,0.7008307999931276,True,21,0,0,0
Y2-S2-187M32,5,385,AS,exp,40,↓,down,↓,0.8900737999938428,True,21,0,0,0
Y2-S2-187M32,5,386,AS,exp,31,←,left,←,0.7079204998444766,True,21,1,0,0
Y2-S2-187M32,5,387,AS,exp,49,→,right,→,0.6059673998970538,True,20,1,0,0
Y2-S2-187M32,5,388,AS,exp,25,←,left,←,1.0183937000110745,True,20,1,0,0
Y2-S2-187M32,5,389,AS,exp,37,↑,up,↑,0.6571690000128001,True,20,1,0,0
Y2-S2-187M32,5,390,AS,exp,27,←,left,←,0.7661445999983698,True,19,1,0,0
Y2-S2-187M32,5,391,AS,exp,40,↓,no_key,no_letter,-1.0,False,19,-1,1,1
Y2-S2-187M32,5,392,AS,exp,31,↑,up,↑,0.7021294999867678,True,20,-1,0,1
Y2-S2-187M32,5,393,AS,exp,27,←,right,→,0.9650526000186801,False,20,-1,0,1
Y2-S2-187M32,5,394,AS,exp,29,↓,down,↓,0.8174644000828266,True,21,-1,0,1
Y2-S2-187M32,5,395,AS,exp,42,↑,up,↑,0.7681569999549538,True,21,-1,0,1
Y2-S2-187M32,5,396,AS,exp,48,↓,up,↑,0.8301375000737607,False,21,-1,0,1
Y2-S2-187M32,5,397,AS,exp,42,→,right,→,0.6036292999051511,True,22,-1,0,1
Y2-S2-187M32,5,398,AS,exp,29,↓,up,↑,1.0710030000191182,False,22,-1,0,1
Y2-S2-187M32,5,399,AS,exp,47,←,down,↓,1.5170103998389095,False,23,-1,0,1
Y2-S2-187M32,5,400,AS,exp,44,↑,up,↑,0.6464171998668462,True,24,-1,0,1
Y2-S2-187M32,5,401,AS,exp,40,←,left,←,0.5856560999527574,True,24,-1,0,1
Y2-S2-187M32,5,402,AS,exp,37,↓,down,↓,0.7998148000333458,True,24,1,1,2
Y2-S2-187M32,5,403,AS,exp,36,↑,up,↑,0.804220300167799,True,23,1,0,2
Y2-S2-187M32,5,404,AS,exp,47,→,right,→,0.5944981998763978,True,23,1,0,2
Y2-S2-187M32,5,405,AS,exp,42,↑,no_key,no_letter,-1.0,False,23,-1,1,3
Y2-S2-187M32,5,406,AS,exp,40,←,left,←,0.7524907998740673,True,24,-1,0,3
Y2-S2-187M32,5,407,AS,exp,45,↑,up,↑,0.6583097998518497,True,24,-1,0,3
Y2-S2-187M32,5,408,AS,exp,41,↓,down,↓,0.7638508998788893,True,24,1,1,4
Y2-S2-187M32,5,409,AS,exp,33,↑,up,↑,0.6276718999724835,True,23,1,0,4
Y2-S2-187M32,5,410,AS,exp,28,↓,up,↑,1.0129082999192178,False,23,-1,1,5
Y2-S2-187M32,5,411,AS,exp,30,←,left,←,0.6884257001802325,True,24,-1,0,5
Y2-S2-187M32,5,412,AS,exp,28,↓,down,↓,1.1684417999349535,True,24,-1,0,5
Y2-S2-187M32,5,413,AS,exp,37,↑,up,↑,0.7449736001435667,True,24,1,1,6
Y2-S2-187M32,5,414,AS,exp,33,←,left,←,0.6948935999535024,True,23,1,0,6
Y2-S2-187M32,5,415,AS,exp,25,↑,up,↑,0.6719349001068622,True,23,1,0,6
Y2-S2-187M32,5,416,AS,exp,48,←,no_key,no_letter,-1.0,False,23,-1,1,7
Y2-S2-187M32,5,417,AS,exp,45,→,no_key,no_letter,-1.0,False,24,-1,0,7
Y2-S2-187M32,5,418,AS,exp,30,↑,up,↑,0.6360082000028342,True,25,-1,0,7
Y2-S2-187M32,5,419,AS,exp,49,→,no_key,no_letter,-1.0,False,25,-1,0,7
Y2-S2-187M32,5,420,AS,exp,34,↑,up,↑,0.6441865998785943,True,26,-1,0,7
Y2-S2-187M32,5,421,AS,exp,30,←,left,←,0.6084659001789987,True,26,-1,0,7
Y2-S2-187M32,5,422,AS,exp,43,→,no_key,no_letter,-1.0,False,26,-1,0,7
Y2-S2-187M32,5,423,AS,exp,40,↑,up,↑,0.9329319000244141,True,27,-1,0,7
Y2-S2-187M32,5,424,AS,exp,34,→,right,→,0.6564382000360638,True,27,-1,0,7
Y2-S2-187M32,5,425,AS,exp,42,↓,down,↓,0.6521272999234498,True,27,1,1,8
Y2-S2-187M32,5,426,AS,exp,28,→,right,→,0.6996975999791175,True,26,1,0,8
Y2-S2-187M32,5,427,AS,exp,42,←,left,←,0.7618801000062376,True,26,1,0,8
Y2-S2-187M32,5,428,AS,exp,41,→,right,→,0.6546145998872817,True,26,1,0,8
Y2-S2-187M32,5,429,AS,exp,46,←,left,←,0.7793070999905467,True,25,1,0,8
Y2-S2-187M32,5,430,AS,exp,48,↓,down,↓,0.808625599835068,True,25,1,0,8
Y2-S2-187M32,5,431,AS,exp,39,↑,up,↑,0.9753872000146657,True,25,1,0,8
Y2-S2-187M32,5,432,AS,exp,50,←,left,←,0.8549953000620008,True,24,1,0,8
Y2-S2-187M32,5,433,AS,exp,38,↓,down,↓,0.843334199860692,True,24,1,0,8
Y2-S2-187M32,5,434,AS,exp,27,←,left,←,0.6981261998880655,True,24,1,0,8
Y2-S2-187M32,5,435,AS,exp,35,↓,down,↓,0.792808199999854,True,23,1,0,8
Y2-S2-187M32,5,436,AS,exp,47,←,left,←,0.5809106999076903,True,23,1,0,8
Y2-S2-187M32,5,437,AS,exp,46,↑,no_key,no_letter,-1.0,False,23,-1,1,9
Y2-S2-187M32,5,438,AS,exp,48,←,left,←,0.8613785998895764,True,24,-1,0,9
Y2-S2-187M32,5,439,AS,exp,35,↓,down,↓,0.697122500045225,True,24,-1,0,9
Y2-S2-187M32,5,440,AS,exp,46,↑,down,↓,1.0256776998285204,False,24,-1,0,9
Y2-S2-187M32,5,441,AS,exp,30,↓,down,↓,0.7869508999865502,True,25,-1,0,9
Y2-S2-187M32,5,442,AS,exp,41,←,left,←,0.6412021000869572,True,25,-1,0,9
Y2-S2-187M32,5,443,AS,exp,42,→,no_key,no_letter,-1.0,False,25,-1,0,9
Y2-S2-187M32,5,444,AS,exp,39,↓,down,↓,0.7362342998385429,True,26,-1,0,9
Y2-S2-187M32,5,445,AS,exp,48,↑,up,↑,0.8868892998434603,True,26,-1,0,9
Y2-S2-187M32,5,446,AS,exp,39,↓,down,↓,0.8857293999753892,True,26,1,1,10
Y2-S2-187M32,5,447,AS,exp,47,←,left,←,0.6557499000336975,True,25,1,0,10
Y2-S2-187M32,5,448,AS,exp,26,↓,no_key,no_letter,-1.0,False,25,-1,1,11
Y2-S2-187M32,5,449,AS,exp,38,↑,no_key,no_letter,-1.0,False,26,-1,0,11
Y2-S2-187M32,5,450,AS,exp,27,↓,down,↓,0.8957066000439227,True,27,-1,0,11
Y2-S2-187M32,5,451,AS,exp,45,←,left,←,0.6443842998705804,True,27,-1,0,11
Y2-S2-187M32,5,452,AS,exp,33,↓,down,↓,0.7221104998607188,True,27,1,1,12
Y2-S2-187M32,5,453,AS,exp,50,↑,no_key,no_letter,-1.0,False,26,-1,1,13
Y2-S2-187M32,5,454,AS,exp,45,←,left,←,0.9948818001430482,True,27,-1,0,13
Y2-S2-187M32,5,455,AS,exp,29,↓,down,↓,0.7863964000716805,True,27,-1,0,13
Y2-S2-187M32,5,456,AS,exp,32,←,right,→,0.6348147999960929,False,27,-1,0,13
Y2-S2-187M32,5,457,AS,exp,47,↑,up,↑,0.7567735998891294,True,28,-1,0,13
Y2-S2-187M32,5,458,AS,exp,42,←,left,←,0.4840649999678135,True,28,-1,0,13
Y2-S2-187M32,5,459,AS,exp,37,→,right,→,0.6960369001608342,True,28,1,1,14
Y2-S2-187M32,5,460,AS,exp,47,←,left,←,0.7476570999715477,True,27,1,0,14
Y2-S2-187M32,5,461,AS,exp,32,→,no_key,no_letter,-1.0,False,27,-1,1,15
Y2-S2-187M32,5,462,AS,exp,46,↓,down,↓,0.78170430008322,True,28,-1,0,15
Y2-S2-187M32,5,463,AS,exp,27,↑,no_key,no_letter,-1.0,False,28,-1,0,15
Y2-S2-187M32,5,464,AS,exp,32,←,right,→,1.2788486999925226,False,29,-1,0,15
Y2-S2-187M32,5,465,AS,exp,25,↑,up,↑,0.8054749998264015,True,30,-1,0,15
Y2-S2-187M32,5,466,AS,exp,33,→,left,←,1.1226456998847425,False,30,-1,0,15
Y2-S2-187M32,5,467,AS,exp,38,↓,down,↓,0.7816403000615537,True,31,-1,0,15
Y2-S2-187M32,5,468,AS,exp,44,←,down,↓,1.1502944000530988,False,31,-1,0,15
Y2-S2-187M32,5,469,AS,exp,37,→,right,→,0.7390512998681515,True,32,-1,0,15
Y2-S2-187M32,5,470,AS,exp,31,←,no_key,no_letter,-1.0,False,32,-1,0,15
Y2-S2-187M32,5,471,AS,exp,36,→,right,→,0.6337644001469016,True,33,-1,0,15
Y2-S2-187M32,5,472,AS,exp,32,←,left,←,0.6503739999607205,True,33,-1,0,15
Y2-S2-187M32,5,473,AS,exp,30,↑,up,↑,0.65011170017533,True,33,1,1,16
Y2-S2-187M32,6,474,PS,intra_train,50,↓,down,↓,0.8386196000501513,True,21,-,-,-
Y2-S2-187M32,6,475,PS,intra_train,36,→,right,→,0.6214796998538077,True,21,-,-,-
Y2-S2-187M32,6,476,PS,intra_train,27,↑,up,↑,0.7563187999185175,True,21,-,-,-
Y2-S2-187M32,6,477,PS,intra_train,27,→,right,→,0.7046747000422329,True,21,-,-,-
Y2-S2-187M32,6,478,PS,intra_train,46,←,left,←,0.6551189997699112,True,21,-,-,-
Y2-S2-187M32,6,479,PS,exp,50,→,right,→,0.5181410000659525,True,14,0,0,0
Y2-S2-187M32,6,480,PS,exp,32,↑,left,←,1.0335517001803964,False,14,-1,0,0
Y2-S2-187M32,6,481,PS,exp,42,←,left,←,0.6716898998711258,True,15,-1,0,0
Y2-S2-187M32,6,482,PS,exp,47,↓,down,↓,0.7769915999379009,True,15,-1,0,0
Y2-S2-187M32,6,483,PS,exp,46,←,right,→,0.7103885000105947,False,15,-1,0,0
Y2-S2-187M32,6,484,PS,exp,48,↑,up,↑,0.6706162998452783,True,16,-1,0,0
Y2-S2-187M32,6,485,PS,exp,25,→,right,→,0.8047894998453557,True,16,-1,0,0
Y2-S2-187M32,6,486,PS,exp,34,↑,down,↓,0.9289789001923054,False,16,-1,0,0
Y2-S2-187M32,6,487,PS,exp,47,→,right,→,0.6993915000930429,True,17,-1,0,0
Y2-S2-187M32,6,488,PS,exp,44,↓,down,↓,0.8665157000068575,True,17,-1,0,0
Y2-S2-187M32,6,489,PS,exp,35,→,right,→,0.9303258000873029,True,17,1,1,1
Y2-S2-187M32,6,490,PS,exp,50,↓,down,↓,0.9462494999170303,True,16,1,0,1
Y2-S2-187M32,6,491,PS,exp,44,↑,up,↑,0.7303196999710053,True,16,1,0,1
Y2-S2-187M32,6,492,PS,exp,40,↓,down,↓,0.7526956000365317,True,16,1,0,1
Y2-S2-187M32,6,493,PS,exp,50,←,left,←,0.6284097000025213,True,15,1,0,1
Y2-S2-187M32,6,494,PS,exp,36,→,left,←,0.8965813999529928,False,15,-1,1,2
Y2-S2-187M32,6,495,PS,exp,38,↓,down,↓,0.6927665998227894,True,16,-1,0,2
Y2-S2-187M32,6,496,PS,exp,45,↑,down,↓,1.0598981999792159,False,16,-1,0,2
Y2-S2-187M32,6,497,PS,exp,25,↓,down,↓,0.9112166999839246,True,17,-1,0,2
Y2-S2-187M32,6,498,PS,exp,34,↑,down,↓,1.0243386998772621,False,17,-1,0,2
Y2-S2-187M32,6,499,PS,exp,26,←,left,←,0.6198811000213027,True,18,-1,0,2
Y2-S2-187M32,6,500,PS,exp,43,→,right,→,0.5667625998612493,True,18,-1,0,2
Y2-S2-187M32,6,501,PS,exp,37,↓,down,↓,0.7865763001609594,True,18,1,1,3
Y2-S2-187M32,6,502,PS,exp,33,→,right,→,0.7038710999768227,True,17,1,0,3
Y2-S2-187M32,6,503,PS,exp,29,↓,down,↓,0.6550791999325156,True,17,1,0,3
Y2-S2-187M32,6,504,PS,exp,28,←,right,→,0.8082410001661628,False,17,-1,1,4
Y2-S2-187M32,6,505,PS,exp,35,↑,up,↑,0.8079552000854164,True,18,-1,0,4
Y2-S2-187M32,6,506,PS,exp,47,←,left,←,1.0251912998501211,True,18,-1,0,4
Y2-S2-187M32,6,507,PS,exp,38,↓,down,↓,0.6447622999548912,True,18,1,1,5
Y2-S2-187M32,6,508,PS,exp,30,←,left,←,0.6491035001818091,True,17,1,0,5
Y2-S2-187M32,6,509,PS,exp,50,→,right,→,0.6565422001294792,True,17,1,0,5
Y2-S2-187M32,6,510,PS,exp,34,↓,up,↑,0.8317688999231905,False,17,-1,1,6
Y2-S2-187M32,6,511,PS,exp,42,↑,up,↑,0.6636195001192391,True,18,-1,0,6
Y2-S2-187M32,6,512,PS,exp,40,←,up,↑,0.9481263000052422,False,18,-1,0,6
Y2-S2-187M32,6,513,PS,exp,33,↑,up,↑,0.6748027000576258,True,19,-1,0,6
Y2-S2-187M32,6,514,PS,exp,46,←,left,←,0.6549962998833507,True,19,-1,0,6
Y2-S2-187M32,6,515,PS,exp,25,→,right,→,0.7204668000340462,True,19,1,1,7
Y2-S2-187M32,6,516,PS,exp,38,←,left,←,0.6102185000199825,True,18,1,0,7
Y2-S2-187M32,6,517,PS,exp,48,↓,down,↓,0.6816253999713808,True,18,1,0,7
Y2-S2-187M32,6,518,PS,exp,27,↑,up,↑,0.7116374000906944,True,18,1,0,7
Y2-S2-187M32,6,519,PS,exp,34,→,right,→,0.7092210000846535,True,17,1,0,7
Y2-S2-187M32,6,520,PS,exp,28,←,left,←,0.8150725001469254,True,17,1,0,7
Y2-S2-187M32,6,521,PS,exp,47,→,right,→,0.6532882999163121,True,17,1,0,7
Y2-S2-187M32,6,522,PS,exp,35,↓,down,↓,0.7018587000202388,True,16,1,0,7
Y2-S2-187M32,6,523,PS,exp,38,→,right,→,0.49585589999333024,True,16,1,0,7
Y2-S2-187M32,6,524,PS,exp,43,↓,down,↓,0.7280518999323249,True,16,1,0,7
Y2-S2-187M32,6,525,PS,exp,44,↑,up,↑,0.7025665000546724,True,15,1,0,7
Y2-S2-187M32,6,526,PS,exp,35,←,left,←,0.6801503000315279,True,15,1,0,7
Y2-S2-187M32,6,527,PS,exp,48,↑,up,↑,0.6185843001585454,True,15,1,0,7
Y2-S2-187M32,6,528,PS,exp,39,←,left,←,0.6675704999361187,True,14,1,0,7
Y2-S2-187M32,6,529,PS,exp,39,↓,down,↓,0.7758942001964897,True,14,1,0,7
Y2-S2-187M32,6,530,PS,exp,45,←,right,→,0.6609541999641806,False,14,-1,1,8
Y2-S2-187M32,6,531,PS,exp,26,↓,down,↓,0.8223940001334995,True,15,-1,0,8
Y2-S2-187M32,6,532,PS,exp,32,←,left,←,0.6122806998901069,True,15,-1,0,8
Y2-S2-187M32,6,533,PS,exp,48,↓,down,↓,0.6475362000055611,True,15,1,1,9
Y2-S2-187M32,6,534,PS,exp,32,→,left,←,0.5628121001645923,False,14,-1,1,10
Y2-S2-187M32,6,535,PS,exp,33,↓,down,↓,0.8823279000353068,True,15,-1,0,10
Y2-S2-187M32,6,536,PS,exp,31,←,left,←,0.4802797001320869,True,15,-1,0,10
Y2-S2-187M32,6,537,PS,exp,42,→,left,←,0.656781000085175,False,15,-1,0,10
Y2-S2-187M32,6,538,PS,exp,28,↑,left,←,0.5440862998366356,False,16,-1,0,10
Y2-S2-187M32,6,539,PS,exp,45,←,left,←,0.7052744999527931,True,17,-1,0,10
Y2-S2-187M32,6,540,PS,exp,33,↓,down,↓,1.3197695999406278,True,17,-1,0,10
Y2-S2-187M32,6,541,PS,exp,35,↑,down,↓,0.8011032999493182,False,17,-1,0,10
Y2-S2-187M32,6,542,PS,exp,48,→,right,→,0.5769471998792142,True,18,-1,0,10
Y2-S2-187M32,6,543,PS,exp,27,←,left,←,0.8251816001720726,True,18,-1,0,10
Y2-S2-187M32,6,544,PS,exp,49,↑,up,↑,0.5840193999465555,True,18,1,1,11
Y2-S2-187M32,6,545,PS,exp,45,↓,down,↓,0.7844472001306713,True,17,1,0,11
Y2-S2-187M32,6,546,PS,exp,31,↑,up,↑,0.7819838998839259,True,17,1,0,11
Y2-S2-187M32,6,547,PS,exp,25,↓,down,↓,0.7887984998524189,True,17,1,0,11
Y2-S2-187M32,6,548,PS,exp,29,→,up,↑,0.9850242000538856,False,16,-1,1,12
Y2-S2-187M32,6,549,PS,exp,39,↓,down,↓,0.8010941999964416,True,17,-1,0,12
Y2-S2-187M32,6,550,PS,exp,26,→,right,→,0.8147223999258131,True,17,-1,0,12
Y2-S2-187M32,6,551,PS,exp,25,↓,up,↑,0.7086429998744279,False,17,-1,0,12
Y2-S2-187M32,6,552,PS,exp,31,→,right,→,0.6889389001298696,True,18,-1,0,12
Y2-S2-187M32,6,553,PS,exp,48,←,right,→,0.6754800998605788,False,18,-1,0,12
Y2-S2-187M32,6,554,PS,exp,31,↓,down,↓,1.0105953000020236,True,19,-1,0,12
Y2-S2-187M32,6,555,PS,exp,38,↑,up,↑,0.9041357999667525,True,19,-1,0,12
Y2-S2-187M32,6,556,PS,exp,48,↓,down,↓,0.8142915000207722,True,19,1,1,13
Y2-S2-187M32,6,557,PS,exp,30,↑,up,↑,0.8664805998560041,True,18,1,0,13
Y2-S2-187M32,6,558,PS,exp,35,↓,down,↓,0.8704452000092715,True,18,1,0,13
Y2-S2-187M32,6,559,PS,exp,37,↑,up,↑,0.7317669000476599,True,18,1,0,13
Y2-S2-187M32,6,560,PS,exp,33,↓,down,↓,0.7518993997946382,True,17,1,0,13
Y2-S2-187M32,6,561,PS,exp,44,→,right,→,0.5286121000535786,True,17,1,0,13
Y2-S2-187M32,6,562,PS,exp,26,↓,down,↓,0.6906274000648409,True,17,1,0,13
Y2-S2-187M32,6,563,PS,exp,43,→,right,→,0.6688279998488724,True,16,1,0,13
Y2-S2-187M32,6,564,PS,exp,42,←,left,←,0.6746529000811279,True,16,1,0,13
Y2-S2-187M32,6,565,PS,exp,47,→,right,→,0.6661175999324769,True,16,1,0,13
Y2-S2-187M32,6,566,PS,exp,50,←,left,←,0.7090402999892831,True,15,1,0,13
Y2-S2-187M32,6,567,PS,exp,32,→,right,→,0.5613013999536633,True,15,1,0,13
Y2-S2-187M32,6,568,PS,exp,41,↑,up,↑,0.8846537999343127,True,15,1,0,13
Y2-S2-187M32,6,569,PS,exp,31,←,left,←,0.511483300011605,True,14,1,0,13
Y2-S2-187M32,6,570,PS,exp,29,→,left,←,0.8848265002015978,False,14,-1,1,14
Y2-S2-187M32,6,571,PS,exp,49,↓,down,↓,0.8794229000341147,True,15,-1,0,14
Y2-S2-187M32,6,572,PS,exp,35,→,right,→,0.7176663998980075,True,15,-1,0,14
Y2-S2-187M32,6,573,PS,exp,25,←,right,→,0.4555661000777036,False,15,-1,0,14
Y2-S2-187M32,6,574,PS,exp,40,↑,up,↑,0.5616361000575125,True,16,-1,0,14
Y2-S2-187M32,6,575,PS,exp,35,↓,down,↓,0.6339245999697596,True,16,-1,0,14
Y2-S2-187M32,6,576,PS,exp,34,↑,down,↓,0.6184876998886466,False,16,-1,0,14
Y2-S2-187M32,6,577,PS,exp,40,→,right,→,0.5858535000588745,True,17,-1,0,14
Y2-S2-187M32,6,578,PS,exp,37,↑,up,↑,0.7656529999803752,True,17,-1,0,14
Y2-S2-187M32,6,579,PS,exp,30,←,left,←,0.7015125998295844,True,17,1,1,15
Y2-S2-187M32,6,580,PS,exp,31,↓,down,↓,0.7791677999775857,True,16,1,0,15
Y2-S2-187M32,6,581,PS,exp,37,↑,up,↑,0.9004589000251144,True,16,1,0,15
Y2-S2-187M32,6,582,PS,exp,39,↓,down,↓,0.6789001999422908,True,16,1,0,15
Y2-S2-187M32,6,583,PS,exp,27,←,left,←,0.740704600000754,True,15,1,0,15
Y2-S2-187M32,6,584,PS,exp,29,↑,up,↑,0.5135853998363018,True,15,1,0,15
Y2-S2-187M32,6,585,PS,exp,25,→,no_key,no_letter,-1.0,False,15,-1,1,16
Y2-S2-187M32,7,586,PS,intra_train,38,←,left,←,0.6642570998519659,True,21,-,-,-
Y2-S2-187M32,7,587,PS,intra_train,27,↓,down,↓,0.6550924999173731,True,21,-,-,-
Y2-S2-187M32,7,588,PS,intra_train,39,←,left,←,0.6208720998838544,True,21,-,-,-
Y2-S2-187M32,7,589,PS,intra_train,36,↓,down,↓,0.8092841999605298,True,21,-,-,-
Y2-S2-187M32,7,590,PS,intra_train,35,↑,up,↑,0.6877140998840332,True,21,-,-,-
Y2-S2-187M32,7,591,PS,exp,34,→,right,→,0.5555269999895245,True,14,0,0,0
Y2-S2-187M32,7,592,PS,exp,29,←,right,→,0.79020019993186,False,14,-1,0,0
Y2-S2-187M32,7,593,PS,exp,28,↑,up,↑,0.7988452001009136,True,15,-1,0,0
Y2-S2-187M32,7,594,PS,exp,29,↓,down,↓,0.5960868000984192,True,15,-1,0,0
Y2-S2-187M32,7,595,PS,exp,50,↑,up,↑,0.7419496001675725,True,15,1,1,1
Y2-S2-187M32,7,596,PS,exp,45,←,no_key,no_letter,-1.0,False,14,-1,1,2
Y2-S2-187M32,7,597,PS,exp,27,↑,up,↑,0.6084824001882225,True,15,-1,0,2
Y2-S2-187M32,7,598,PS,exp,28,→,right,→,0.5309953999239951,True,15,-1,0,2
Y2-S2-187M32,7,599,PS,exp,26,←,left,←,0.7345230998471379,True,15,1,1,3
Y2-S2-187M32,7,600,PS,exp,46,→,no_key,no_letter,-1.0,False,14,-1,1,4
Y2-S2-187M32,7,601,PS,exp,25,←,left,←,0.6027734999079257,True,15,-1,0,4
Y2-S2-187M32,7,602,PS,exp,38,↑,down,↓,0.8923845998942852,False,15,-1,0,4
Y2-S2-187M32,7,603,PS,exp,29,↓,down,↓,0.9148940998129547,True,16,-1,0,4
Y2-S2-187M32,7,604,PS,exp,48,→,right,→,0.643421099986881,True,16,-1,0,4
Y2-S2-187M32,7,605,PS,exp,33,←,down,↓,1.0628743001725525,False,16,-1,0,4
Y2-S2-187M32,7,606,PS,exp,39,↑,up,↑,0.5519872000440955,True,17,-1,0,4
Y2-S2-187M32,7,607,PS,exp,45,←,no_key,no_letter,-1.0,False,17,-1,0,4
Y2-S2-187M32,7,608,PS,exp,31,→,right,→,0.6273414997849613,True,18,-1,0,4
Y2-S2-187M32,7,609,PS,exp,49,↓,down,↓,0.7396664000116289,True,18,-1,0,4
Y2-S2-187M32,7,610,PS,exp,26,←,left,←,0.6272110000718385,True,18,1,1,5
Y2-S2-187M32,7,611,PS,exp,32,↑,up,↑,0.5305230000521988,True,17,1,0,5
Y2-S2-187M32,7,612,PS,exp,39,←,left,←,0.5405344001483172,True,17,1,0,5
Y2-S2-187M32,7,613,PS,exp,48,→,right,→,0.5724026998504996,True,17,1,0,5
Y2-S2-187M32,7,614,PS,exp,36,↑,up,↑,0.541854599956423,True,16,1,0,5
Y2-S2-187M32,7,615,PS,exp,37,→,no_key,no_letter,-1.0,False,16,-1,1,6
Y2-S2-187M32,7,616,PS,exp,44,←,left,←,0.5768488999456167,True,17,-1,0,6
Y2-S2-187M32,7,617,PS,exp,29,↑,up,↑,0.5416812999173999,True,17,-1,0,6
Y2-S2-187M32,7,618,PS,exp,25,←,up,↑,0.712981800083071,False,17,-1,0,6
Y2-S2-187M32,7,619,PS,exp,31,↑,up,↑,0.5110430000349879,True,18,-1,0,6
Y2-S2-187M32,7,620,PS,exp,39,↓,down,↓,0.6830433998256922,True,18,-1,0,6
Y2-S2-187M32,7,621,PS,exp,29,↑,up,↑,0.8088825999293476,True,18,1,1,7
Y2-S2-187M32,7,622,PS,exp,28,←,left,←,0.601723600178957,True,17,1,0,7
Y2-S2-187M32,7,623,PS,exp,48,↑,up,↑,0.5892938000615686,True,17,1,0,7
Y2-S2-187M32,7,624,PS,exp,29,←,right,→,1.0621929001063108,False,17,-1,1,8
Y2-S2-187M32,7,625,PS,exp,40,↑,up,↑,0.7336545998696238,True,18,-1,0,8
Y2-S2-187M32,7,626,PS,exp,27,↓,down,↓,0.7563104000873864,True,18,-1,0,8
Y2-S2-187M32,7,627,PS,exp,43,←,left,←,0.5949653999414295,True,18,1,1,9
Y2-S2-187M32,7,628,PS,exp,39,→,right,→,0.8293184000067413,True,17,1,0,9
Y2-S2-187M32,7,629,PS,exp,40,↓,down,↓,0.9633853000123054,True,17,1,0,9
Y2-S2-187M32,7,630,PS,exp,34,→,right,→,0.6013107001781464,True,17,1,0,9
Y2-S2-187M32,7,631,PS,exp,27,↓,down,↓,0.6596921000164002,True,16,1,0,9
Y2-S2-187M32,7,632,PS,exp,46,↑,up,↑,0.672156099928543,True,16,1,0,9
Y2-S2-187M32,7,633,PS,exp,33,→,right,→,0.7741335001774132,True,16,1,0,9
Y2-S2-187M32,7,634,PS,exp,25,↓,down,↓,0.7429491998627782,True,15,1,0,9
Y2-S2-187M32,7,635,PS,exp,39,→,right,→,0.59102030005306,True,15,1,0,9
Y2-S2-187M32,7,636,PS,exp,39,←,no_key,no_letter,-1.0,False,15,-1,1,10
Y2-S2-187M32,7,637,PS,exp,43,↑,no_key,no_letter,-1.0,False,16,-1,0,10
Y2-S2-187M32,7,638,PS,exp,47,↓,down,↓,0.7141287999693304,True,17,-1,0,10
Y2-S2-187M32,7,639,PS,exp,26,←,no_key,no_letter,-1.0,False,17,-1,0,10
Y2-S2-187M32,7,640,PS,exp,38,→,right,→,0.5254726998973638,True,18,-1,0,10
Y2-S2-187M32,7,641,PS,exp,25,↑,no_key,no_letter,-1.0,False,18,-1,0,10
Y2-S2-187M32,7,642,PS,exp,49,→,no_key,no_letter,-1.0,False,19,-1,0,10
Y2-S2-187M32,7,643,PS,exp,26,↑,up,↑,0.6527370999101549,True,20,-1,0,10
Y2-S2-187M32,7,644,PS,exp,47,←,right,→,0.5226500001735985,False,20,-1,0,10
Y2-S2-187M32,7,645,PS,exp,30,→,right,→,0.7160752001218498,True,21,-1,0,10
Y2-S2-187M32,7,646,PS,exp,30,←,right,→,0.7912449999712408,False,21,-1,0,10
Y2-S2-187M32,7,647,PS,exp,38,↑,up,↑,0.6095529000740498,True,22,-1,0,10
Y2-S2-187M32,7,648,PS,exp,25,↓,no_key,no_letter,-1.0,False,22,-1,0,10
Y2-S2-187M32,7,649,PS,exp,25,→,no_key,no_letter,-1.0,False,23,-1,0,10
Y2-S2-187M32,7,650,PS,exp,32,←,left,←,0.661456200061366,True,24,-1,0,10
Y2-S2-187M32,7,651,PS,exp,29,↓,down,↓,0.7638246000278741,True,24,-1,0,10
Y2-S2-187M32,7,652,PS,exp,34,→,right,→,0.6094969999976456,True,24,1,1,11
Y2-S2-187M32,7,653,PS,exp,43,↓,down,↓,0.6644411000888795,True,23,1,0,11
Y2-S2-187M32,7,654,PS,exp,26,←,left,←,0.6667134999297559,True,23,1,0,11
Y2-S2-187M32,7,655,PS,exp,42,↓,down,↓,0.7551965999882668,True,23,1,0,11
Y2-S2-187M32,7,656,PS,exp,30,←,left,←,0.6076581000816077,True,22,1,0,11
Y2-S2-187M32,7,657,PS,exp,33,↑,up,↑,0.5926421000622213,True,22,1,0,11
Y2-S2-187M32,7,658,PS,exp,47,←,left,←,0.5927989999763668,True,22,1,0,11
Y2-S2-187M32,7,659,PS,exp,35,↓,down,↓,0.8882798000704497,True,21,1,0,11
Y2-S2-187M32,7,660,PS,exp,38,←,left,←,0.6143297001253814,True,21,1,0,11
Y2-S2-187M32,7,661,PS,exp,32,↓,down,↓,0.7148774999659508,True,21,1,0,11
Y2-S2-187M32,7,662,PS,exp,48,↑,no_key,no_letter,-1.0,False,20,-1,1,12
Y2-S2-187M32,7,663,PS,exp,41,→,right,→,0.7074380000121891,True,21,-1,0,12
Y2-S2-187M32,7,664,PS,exp,28,↓,down,↓,0.8536602000240237,True,21,-1,0,12
Y2-S2-187M32,7,665,PS,exp,36,↑,up,↑,0.654408099828288,True,21,1,1,13
Y2-S2-187M32,7,666,PS,exp,36,←,left,←,0.6712954000104219,True,20,1,0,13
Y2-S2-187M32,7,667,PS,exp,33,↑,up,↑,0.6766765001229942,True,20,1,0,13
Y2-S2-187M32,7,668,PS,exp,29,→,right,→,0.46748290001414716,True,20,1,0,13
Y2-S2-187M32,7,669,PS,exp,29,↑,up,↑,0.7480791001580656,True,19,1,0,13
Y2-S2-187M32,7,670,PS,exp,29,↓,down,↓,0.6083343999926001,True,19,1,0,13
Y2-S2-187M32,7,671,PS,exp,50,↑,up,↑,0.6630266001448035,True,19,1,0,13
Y2-S2-187M32,7,672,PS,exp,32,→,down,↓,1.1232193000614643,False,18,-1,1,14
Y2-S2-187M32,7,673,PS,exp,33,↓,down,↓,0.630280600162223,True,19,-1,0,14
Y2-S2-187M32,7,674,PS,exp,47,←,left,←,0.6247267001308501,True,19,-1,0,14
Y2-S2-187M32,7,675,PS,exp,44,↑,up,↑,0.6687093998771161,True,19,1,1,15
Y2-S2-187M32,7,676,PS,exp,26,↓,down,↓,0.8016869998537004,True,18,1,0,15
Y2-S2-187M32,7,677,PS,exp,28,←,left,←,0.6899731000885367,True,18,1,0,15
Y2-S2-187M32,7,678,PS,exp,49,→,no_key,no_letter,-1.0,False,18,-1,1,16
Y2-S2-187M32,8,679,AS,intra_train,39,↓,down,↓,0.9347434001974761,True,31,-,-,-
Y2-S2-187M32,8,680,AS,intra_train,25,←,no_key,no_letter,-1.0,False,31,-,-,-
Y2-S2-187M32,8,681,AS,intra_train,43,↑,up,↑,0.7062345000449568,True,31,-,-,-
Y2-S2-187M32,8,682,AS,intra_train,30,↓,down,↓,1.0290946001186967,True,31,-,-,-
Y2-S2-187M32,8,683,AS,intra_train,44,←,left,←,0.7307420999277383,True,31,-,-,-
Y2-S2-187M32,8,684,AS,exp,50,↑,up,↑,0.6320547999348491,True,21,0,0,0
Y2-S2-187M32,8,685,AS,exp,50,→,right,→,1.1036682000849396,True,21,0,0,0
Y2-S2-187M32,8,686,AS,exp,30,←,left,←,0.7242979998700321,True,21,1,0,0
Y2-S2-187M32,8,687,AS,exp,43,↑,up,↑,0.8935624998994172,True,20,1,0,0
Y2-S2-187M32,8,688,AS,exp,33,→,right,→,0.6637506999541074,True,20,1,0,0
Y2-S2-187M32,8,689,AS,exp,37,↑,no_key,no_letter,-1.0,False,20,-1,1,1
Y2-S2-187M32,8,690,AS,exp,33,→,right,→,0.5992030000779778,True,21,-1,0,1
Y2-S2-187M32,8,691,AS,exp,42,←,right,→,0.8255856998730451,False,21,-1,0,1
Y2-S2-187M32,8,692,AS,exp,28,→,no_key,no_letter,-1.0,False,22,-1,0,1
Y2-S2-187M32,8,693,AS,exp,32,←,no_key,no_letter,-1.0,False,23,-1,0,1
Y2-S2-187M32,8,694,AS,exp,27,↑,up,↑,0.8371709999628365,True,24,-1,0,1
Y2-S2-187M32,8,695,AS,exp,26,↓,no_key,no_letter,-1.0,False,24,-1,0,1
Y2-S2-187M32,8,696,AS,exp,36,→,right,→,0.6940198000520468,True,25,-1,0,1
Y2-S2-187M32,8,697,AS,exp,42,↑,up,↑,0.6936984998174012,True,25,-1,0,1
Y2-S2-187M32,8,698,AS,exp,41,←,no_key,no_letter,-1.0,False,25,-1,0,1
Y2-S2-187M32,8,699,AS,exp,44,↓,down,↓,0.802507699932903,True,26,-1,0,1
Y2-S2-187M32,8,700,AS,exp,34,→,right,→,0.7180604999884963,True,26,-1,0,1
Y2-S2-187M32,8,701,AS,exp,48,↑,up,↑,0.8735257999505848,True,26,1,1,2
Y2-S2-187M32,8,702,AS,exp,34,→,right,→,0.7645308999344707,True,25,1,0,2
Y2-S2-187M32,8,703,AS,exp,48,↑,up,↑,0.5859028999693692,True,25,1,0,2
Y2-S2-187M32,8,704,AS,exp,39,←,left,←,0.5977316999342293,True,25,1,0,2
Y2-S2-187M32,8,705,AS,exp,30,↑,up,↑,0.8667824999429286,True,24,1,0,2
Y2-S2-187M32,8,706,AS,exp,32,↓,down,↓,0.8313215000089258,True,24,1,0,2
Y2-S2-187M32,8,707,AS,exp,48,←,left,←,0.7602082998491824,True,24,1,0,2
Y2-S2-187M32,8,708,AS,exp,31,↑,up,↑,0.6865352999884635,True,23,1,0,2
Y2-S2-187M32,8,709,AS,exp,29,↓,down,↓,0.7798744000028819,True,23,1,0,2
Y2-S2-187M32,8,710,AS,exp,25,←,no_key,no_letter,-1.0,False,23,-1,1,3
Y2-S2-187M32,8,711,AS,exp,41,↓,down,↓,0.7829621999990195,True,24,-1,0,3
Y2-S2-187M32,8,712,AS,exp,48,→,right,→,0.6080165000166744,True,24,-1,0,3
Y2-S2-187M32,8,713,AS,exp,40,←,left,←,0.8088656000327319,True,24,1,1,4
Y2-S2-187M32,8,714,AS,exp,49,↓,no_key,no_letter,-1.0,False,23,-1,1,5
Y2-S2-187M32,8,715,AS,exp,45,→,right,→,0.6665469999425113,True,24,-1,0,5
Y2-S2-187M32,8,716,AS,exp,35,←,left,←,0.986122899921611,True,24,-1,0,5
Y2-S2-187M32,8,717,AS,exp,38,→,no_key,no_letter,-1.0,False,24,-1,0,5
Y2-S2-187M32,8,718,AS,exp,25,←,left,←,0.6527834001462907,True,25,-1,0,5
Y2-S2-187M32,8,719,AS,exp,44,→,no_key,no_letter,-1.0,False,25,-1,0,5
Y2-S2-187M32,8,720,AS,exp,33,↓,no_key,no_letter,-1.0,False,26,-1,0,5
Y2-S2-187M32,8,721,AS,exp,27,↑,no_key,no_letter,-1.0,False,27,-1,0,5
Y2-S2-187M32,8,722,AS,exp,33,→,right,→,0.733657700009644,True,28,-1,0,5
Y2-S2-187M32,8,723,AS,exp,29,↓,down,↓,0.913165400037542,True,28,-1,0,5
Y2-S2-187M32,8,724,AS,exp,47,↑,up,↑,2.1236835999879986,True,28,1,1,6
Y2-S2-187M32,8,725,AS,exp,35,→,right,→,0.5337548998650163,True,27,1,0,6
Y2-S2-187M32,8,726,AS,exp,35,↑,no_key,no_letter,-1.0,False,27,-1,1,7
Y2-S2-187M32,8,727,AS,exp,48,→,no_key,no_letter,-1.0,False,28,-1,0,7
Y2-S2-187M32,8,728,AS,exp,38,←,left,←,0.5670975998509675,True,29,-1,0,7
Y2-S2-187M32,8,729,AS,exp,49,↑,up,↑,0.583867299836129,True,29,-1,0,7
Y2-S2-187M32,8,730,AS,exp,34,→,right,→,0.5839576001744717,True,29,1,1,8
Y2-S2-187M32,8,731,AS,exp,49,←,left,←,0.5838476000353694,True,28,1,0,8
Y2-S2-187M32,8,732,AS,exp,34,↓,down,↓,0.884550399845466,True,28,1,0,8
Y2-S2-187M32,8,733,AS,exp,40,→,no_key,no_letter,-1.0,False,28,-1,1,9
Y2-S2-187M32,8,734,AS,exp,34,←,left,←,0.6720290000084788,True,29,-1,0,9
Y2-S2-187M32,8,735,AS,exp,40,↑,up,↑,0.6850394001230597,True,29,-1,0,9
Y2-S2-187M32,8,736,AS,exp,32,↓,down,↓,0.9011066001839936,True,29,1,1,10
Y2-S2-187M32,8,737,AS,exp,42,←,left,←,0.9256774000823498,True,28,1,0,10
Y2-S2-187M32,8,738,AS,exp,41,↑,up,↑,0.6997760001104325,True,28,1,0,10
Y2-S2-187M32,8,739,AS,exp,46,←,left,←,0.6774798000697047,True,28,1,0,10
Y2-S2-187M32,8,740,AS,exp,48,↓,up,↑,0.725559099810198,False,27,-1,1,11
Y2-S2-187M32,8,741,AS,exp,44,←,left,←,0.7662964998744428,True,28,-1,0,11
Y2-S2-187M32,8,742,AS,exp,28,↓,up,↑,0.8449222999624908,False,28,-1,0,11
Y2-S2-187M32,8,743,AS,exp,27,→,left,←,0.6006750999949872,False,29,-1,0,11
Y2-S2-187M32,8,744,AS,exp,37,↑,no_key,no_letter,-1.0,False,30,-1,0,11
Y2-S2-187M32,8,745,AS,exp,44,←,left,←,0.8642390000168234,True,31,-1,0,11
Y2-S2-187M32,8,746,AS,exp,38,↑,no_key,no_letter,-1.0,False,31,-1,0,11
Y2-S2-187M32,8,747,AS,exp,33,→,right,→,0.6674021000508219,True,32,-1,0,11
Y2-S2-187M32,8,748,AS,exp,42,↑,up,↑,0.7862858001608402,True,32,-1,0,11
Y2-S2-187M32,8,749,AS,exp,38,↓,up,↑,0.7991931000724435,False,32,-1,0,11
Y2-S2-187M32,8,750,AS,exp,42,→,right,→,0.7203992998693138,True,33,-1,0,11
Y2-S2-187M32,8,751,AS,exp,29,↑,up,↑,0.8225000998936594,True,33,-1,0,11
Y2-S2-187M32,8,752,AS,exp,32,→,right,→,0.7446500000078231,True,33,1,1,12
Y2-S2-187M32,8,753,AS,exp,40,↑,no_key,no_letter,-1.0,False,32,-1,1,13
Y2-S2-187M32,8,754,AS,exp,26,↓,down,↓,0.8609037001151592,True,33,-1,0,13
Y2-S2-187M32,8,755,AS,exp,40,→,right,→,0.7293448001146317,True,33,-1,0,13
Y2-S2-187M32,8,756,AS,exp,46,↑,up,↑,0.7652084999717772,True,33,1,1,14
Y2-S2-187M32,8,757,AS,exp,33,↓,down,↓,0.858959199860692,True,32,1,0,14
Y2-S2-187M32,8,758,AS,exp,40,→,no_key,no_letter,-1.0,False,32,-1,1,15
Y2-S2-187M32,8,759,AS,exp,31,↑,up,↑,2.1007758998312056,True,33,-1,0,15
Y2-S2-187M32,8,760,AS,exp,50,→,no_key,no_letter,-1.0,False,33,-1,0,15
Y2-S2-187M32,8,761,AS,exp,25,←,left,←,0.6338071001227945,True,34,-1,0,15
Y2-S2-187M32,8,762,AS,exp,39,↑,up,↑,0.6673548000399023,True,34,-1,0,15
Y2-S2-187M32,8,763,AS,exp,27,→,no_key,no_letter,-1.0,False,34,-1,0,15
Y2-S2-187M32,8,764,AS,exp,40,←,no_key,no_letter,-1.0,False,35,-1,0,15
Y2-S2-187M32,8,765,AS,exp,29,→,right,→,1.2089672998990864,True,36,-1,0,15
Y2-S2-187M32,8,766,AS,exp,44,↓,down,↓,0.8932100001256913,True,36,-1,0,15
Y2-S2-187M32,8,767,AS,exp,27,←,left,←,0.8578652001451701,True,36,1,1,16
