PART_ID,Block_no,Trial_no,Block_type,Trial_type,CSI,Stim_letter,Key_pressed,letter_choose,Rt,Corr,Stimulus Time,Level,Reversal,Revs_count
Y2-S2-135K23,1,1,PS,train,37,←,left,←,1.8664504997432232,True,30,-,-,-
Y2-S2-135K23,1,2,PS,train,47,→,right,→,0.5506039001047611,True,30,-,-,-
Y2-S2-135K23,1,3,PS,train,41,↓,down,↓,0.749657700303942,True,30,-,-,-
Y2-S2-135K23,1,4,PS,train,40,→,right,→,1.3507085000164807,True,30,-,-,-
Y2-S2-135K23,1,5,PS,train,50,←,left,←,0.5341607998125255,True,30,-,-,-
Y2-S2-135K23,1,6,PS,train,48,↑,no_key,no_letter,-1.0,False,30,-,-,-
Y2-S2-135K23,1,7,PS,train,37,→,right,→,0.55029910011217,True,30,-,-,-
Y2-S2-135K23,1,8,PS,train,40,↑,up,↑,0.8706513997167349,True,30,-,-,-
Y2-S2-135K23,1,9,PS,train,29,↓,down,↓,0.7701832996681333,True,30,-,-,-
Y2-S2-135K23,1,10,PS,train,38,↑,up,↑,0.6337613998912275,True,30,-,-,-
Y2-S2-135K23,2,11,AS,train,44,←,down,↓,0.7013714001514018,False,45,-,-,-
Y2-S2-135K23,2,12,AS,train,45,↓,down,↓,0.9841702999547124,True,45,-,-,-
Y2-S2-135K23,2,13,AS,train,47,←,left,←,1.6523192999884486,True,45,-,-,-
Y2-S2-135K23,2,14,AS,train,48,↓,down,↓,0.600861500017345,True,45,-,-,-
Y2-S2-135K23,2,15,AS,train,27,→,right,→,1.4089469001628458,True,45,-,-,-
Y2-S2-135K23,2,16,AS,train,43,←,left,←,0.5509134996682405,True,45,-,-,-
Y2-S2-135K23,2,17,AS,train,25,↑,up,↑,0.9340784000232816,True,45,-,-,-
Y2-S2-135K23,2,18,AS,train,35,→,right,→,0.5008052000775933,True,45,-,-,-
Y2-S2-135K23,2,19,AS,train,35,↓,down,↓,0.9210423999466002,True,45,-,-,-
Y2-S2-135K23,2,20,AS,train,37,→,right,→,0.4839472998864949,True,45,-,-,-
Y2-S2-135K23,-,21,PS,adaptive,26,↓,up,↑,0.9925194997340441,False,10,-1,0,0
Y2-S2-135K23,-,22,PS,adaptive,33,←,left,←,0.6586658996529877,True,11,-1,0,0
Y2-S2-135K23,-,23,PS,adaptive,48,↑,up,↑,0.5164017002098262,True,11,-1,0,0
Y2-S2-135K23,-,24,PS,adaptive,34,→,right,→,0.4252579999156296,True,11,1,1,1
Y2-S2-135K23,-,25,PS,adaptive,47,←,left,←,0.5868325997143984,True,10,1,0,1
Y2-S2-135K23,-,26,PS,adaptive,33,↑,up,↑,0.6282945000566542,True,10,1,0,1
Y2-S2-135K23,-,27,PS,adaptive,50,←,left,←,0.7007550001144409,True,10,1,0,1
Y2-S2-135K23,-,28,PS,adaptive,29,↑,right,→,0.5266668000258505,False,9,-1,1,2
Y2-S2-135K23,-,29,PS,adaptive,45,←,left,←,0.5344756999984384,True,10,-1,0,2
Y2-S2-135K23,-,30,PS,adaptive,39,↑,up,↑,0.525963599793613,True,10,-1,0,2
Y2-S2-135K23,-,31,PS,adaptive,25,←,left,←,0.41616320004686713,True,10,1,1,3
Y2-S2-135K23,-,32,PS,adaptive,42,↓,right,→,0.7297816998325288,False,9,-1,1,4
Y2-S2-135K23,-,33,AS,adaptive,44,↑,up,↑,0.5517490999773145,True,20,0,0,0
Y2-S2-135K23,-,34,AS,adaptive,26,←,right,→,0.6829196000471711,False,20,-1,0,0
Y2-S2-135K23,-,35,AS,adaptive,28,↓,right,→,0.9201227999292314,False,21,-1,0,0
Y2-S2-135K23,-,36,AS,adaptive,46,↑,up,↑,0.8282146998681128,True,22,-1,0,0
Y2-S2-135K23,-,37,AS,adaptive,45,←,left,←,0.6760487002320588,True,22,-1,0,0
Y2-S2-135K23,-,38,AS,adaptive,34,→,right,→,0.6981061003170907,True,22,1,1,1
Y2-S2-135K23,-,39,AS,adaptive,41,↑,up,↑,0.6990602002479136,True,21,1,0,1
Y2-S2-135K23,-,40,AS,adaptive,28,←,left,←,0.637276400346309,True,21,1,0,1
Y2-S2-135K23,-,41,AS,adaptive,32,↑,up,↑,0.4666155003942549,True,21,1,0,1
Y2-S2-135K23,-,42,AS,adaptive,46,↓,down,↓,0.7546402001753449,True,20,1,0,1
Y2-S2-135K23,-,43,AS,adaptive,41,←,right,→,1.0925896000117064,False,20,-1,1,2
Y2-S2-135K23,-,44,AS,adaptive,36,↓,right,→,0.8172496999613941,False,21,-1,0,2
Y2-S2-135K23,-,45,AS,adaptive,27,↑,up,↑,0.7937619001604617,True,22,-1,0,2
Y2-S2-135K23,-,46,AS,adaptive,38,←,left,←,0.38427399983629584,True,22,-1,0,2
Y2-S2-135K23,-,47,AS,adaptive,25,↑,up,↑,0.6947643999010324,True,22,1,1,3
Y2-S2-135K23,-,48,AS,adaptive,41,←,right,→,0.5411691996268928,False,21,-1,1,4
Y2-S2-135K23,1,49,AS,intra_train,34,→,right,→,0.5179098001681268,True,33,-,-,-
Y2-S2-135K23,1,50,AS,intra_train,34,←,left,←,0.9560941001400352,True,33,-,-,-
Y2-S2-135K23,1,51,AS,intra_train,31,↓,down,↓,0.957133499905467,True,33,-,-,-
Y2-S2-135K23,1,52,AS,intra_train,38,↑,up,↑,1.3295996002852917,True,33,-,-,-
Y2-S2-135K23,1,53,AS,intra_train,41,→,right,→,0.5339184999465942,True,33,-,-,-
Y2-S2-135K23,1,54,AS,exp,43,←,down,↓,1.0680529000237584,False,22,-1,0,0
Y2-S2-135K23,1,55,AS,exp,44,→,right,→,0.8102232003584504,True,23,-1,0,0
Y2-S2-135K23,1,56,AS,exp,39,↓,down,↓,0.6213797000236809,True,23,-1,0,0
Y2-S2-135K23,1,57,AS,exp,45,←,left,←,0.794507899787277,True,23,1,1,1
Y2-S2-135K23,1,58,AS,exp,25,↓,down,↓,0.7028693999163806,True,22,1,0,1
Y2-S2-135K23,1,59,AS,exp,33,←,left,←,0.751891799736768,True,22,1,0,1
Y2-S2-135K23,1,60,AS,exp,35,↑,up,↑,0.9442186998203397,True,22,1,0,1
Y2-S2-135K23,1,61,AS,exp,37,↓,down,↓,0.7262620003893971,True,21,1,0,1
Y2-S2-135K23,1,62,AS,exp,44,↑,up,↑,0.5230506001971662,True,21,1,0,1
Y2-S2-135K23,1,63,AS,exp,25,←,down,↓,1.1418702998198569,False,21,-1,1,2
Y2-S2-135K23,1,64,AS,exp,26,↓,down,↓,0.6633036998100579,True,22,-1,0,2
Y2-S2-135K23,1,65,AS,exp,39,→,right,→,0.8220820003189147,True,22,-1,0,2
Y2-S2-135K23,1,66,AS,exp,29,↓,down,↓,1.2673905999399722,True,22,1,1,3
Y2-S2-135K23,1,67,AS,exp,38,↑,up,↑,0.7677664998918772,True,21,1,0,3
Y2-S2-135K23,1,68,AS,exp,38,←,left,←,0.5614930996671319,True,21,1,0,3
Y2-S2-135K23,1,69,AS,exp,42,↓,down,↓,0.965472400188446,True,21,1,0,3
Y2-S2-135K23,1,70,AS,exp,38,←,right,→,1.1302914000116289,False,20,-1,1,4
Y2-S2-135K23,1,71,AS,exp,28,↑,up,↑,0.5602803998626769,True,21,-1,0,4
Y2-S2-135K23,1,72,AS,exp,37,←,left,←,1.3457259996794164,True,21,-1,0,4
Y2-S2-135K23,1,73,AS,exp,29,→,right,→,0.7801345000043511,True,21,1,1,5
Y2-S2-135K23,1,74,AS,exp,29,↑,down,↓,1.15561250038445,False,20,-1,1,6
Y2-S2-135K23,1,75,AS,exp,33,←,left,←,0.5488101998344064,True,21,-1,0,6
Y2-S2-135K23,1,76,AS,exp,36,↓,down,↓,0.8881796998903155,True,21,-1,0,6
Y2-S2-135K23,1,77,AS,exp,26,←,left,←,0.6499741999432445,True,21,1,1,7
Y2-S2-135K23,1,78,AS,exp,43,↑,up,↑,0.6152739999815822,True,20,1,0,7
Y2-S2-135K23,1,79,AS,exp,37,→,right,→,0.9533155001699924,True,20,1,0,7
Y2-S2-135K23,1,80,AS,exp,27,↑,up,↑,0.6571338004432619,True,20,1,0,7
Y2-S2-135K23,1,81,AS,exp,32,→,right,→,0.7784839998930693,True,19,1,0,7
Y2-S2-135K23,1,82,AS,exp,27,←,left,←,0.590900500304997,True,19,1,0,7
Y2-S2-135K23,1,83,AS,exp,37,↓,down,↓,0.8054075003601611,True,19,1,0,7
Y2-S2-135K23,1,84,AS,exp,33,←,right,→,0.9539561998099089,False,18,-1,1,8
Y2-S2-135K23,1,85,AS,exp,50,→,right,→,0.8401378998532891,True,19,-1,0,8
Y2-S2-135K23,1,86,AS,exp,28,↑,right,→,1.0148175000213087,False,19,-1,0,8
Y2-S2-135K23,1,87,AS,exp,46,→,right,→,0.7602419001050293,True,20,-1,0,8
Y2-S2-135K23,1,88,AS,exp,35,←,left,←,0.6468386999331415,True,20,-1,0,8
Y2-S2-135K23,1,89,AS,exp,31,↑,right,→,0.8641370995901525,False,20,-1,0,8
Y2-S2-135K23,1,90,AS,exp,31,→,right,→,1.071711199823767,True,21,-1,0,8
Y2-S2-135K23,1,91,AS,exp,41,↑,up,↑,0.6643205001018941,True,21,-1,0,8
Y2-S2-135K23,1,92,AS,exp,43,↓,down,↓,0.810933600179851,True,21,1,1,9
Y2-S2-135K23,1,93,AS,exp,41,←,left,←,0.8284461000002921,True,20,1,0,9
Y2-S2-135K23,1,94,AS,exp,46,→,right,→,0.7288952004164457,True,20,1,0,9
Y2-S2-135K23,1,95,AS,exp,29,↑,up,↑,0.5263221003115177,True,20,1,0,9
Y2-S2-135K23,1,96,AS,exp,37,→,right,→,0.7153834998607635,True,19,1,0,9
Y2-S2-135K23,1,97,AS,exp,44,↑,up,↑,0.6544280997477472,True,19,1,0,9
Y2-S2-135K23,1,98,AS,exp,42,↓,down,↓,0.7818525000475347,True,19,1,0,9
Y2-S2-135K23,1,99,AS,exp,48,→,right,→,0.532575000077486,True,18,1,0,9
Y2-S2-135K23,1,100,AS,exp,38,←,left,←,1.1643496002070606,True,18,1,0,9
Y2-S2-135K23,1,101,AS,exp,39,→,right,→,0.15070929983630776,True,18,1,0,9
Y2-S2-135K23,1,102,AS,exp,34,↑,right,→,1.0600022003054619,False,17,-1,1,10
Y2-S2-135K23,1,103,AS,exp,45,↓,down,↓,0.7273043999448419,True,18,-1,0,10
Y2-S2-135K23,1,104,AS,exp,39,←,left,←,0.47098329989239573,True,18,-1,0,10
Y2-S2-135K23,1,105,AS,exp,33,→,right,→,0.5569437998346984,True,18,1,1,11
Y2-S2-135K23,1,106,AS,exp,46,↓,right,→,0.8461537999100983,False,17,-1,1,12
Y2-S2-135K23,1,107,AS,exp,49,→,right,→,0.7415300002321601,True,18,-1,0,12
Y2-S2-135K23,1,108,AS,exp,46,←,left,←,0.6879805997014046,True,18,-1,0,12
Y2-S2-135K23,1,109,AS,exp,44,↑,up,↑,0.538527499884367,True,18,1,1,13
Y2-S2-135K23,1,110,AS,exp,31,→,right,→,0.6318656001240015,True,17,1,0,13
Y2-S2-135K23,1,111,AS,exp,44,↑,up,↑,0.7126289997249842,True,17,1,0,13
Y2-S2-135K23,1,112,AS,exp,37,←,left,←,0.8065212997607887,True,17,1,0,13
Y2-S2-135K23,1,113,AS,exp,43,↑,up,↑,0.5206877999007702,True,16,1,0,13
Y2-S2-135K23,1,114,AS,exp,36,←,left,←,0.47491000033915043,True,16,1,0,13
Y2-S2-135K23,1,115,AS,exp,48,↑,up,↑,0.6498738001100719,True,16,1,0,13
Y2-S2-135K23,1,116,AS,exp,28,↓,up,↑,0.6773998998105526,False,15,-1,1,14
Y2-S2-135K23,1,117,AS,exp,33,↑,up,↑,0.4668996003456414,True,16,-1,0,14
Y2-S2-135K23,1,118,AS,exp,40,←,left,←,0.9394339001737535,True,16,-1,0,14
Y2-S2-135K23,1,119,AS,exp,29,→,right,→,0.5369947999715805,True,16,1,1,15
Y2-S2-135K23,1,120,AS,exp,45,↑,up,↑,0.47938060015439987,True,15,1,0,15
Y2-S2-135K23,1,121,AS,exp,33,↓,up,↑,0.7310537998564541,False,15,-1,1,16
Y2-S2-135K23,2,122,PS,intra_train,33,→,right,→,0.5514042000286281,True,15,-,-,-
Y2-S2-135K23,2,123,PS,intra_train,34,←,left,←,0.35045789973810315,True,15,-,-,-
Y2-S2-135K23,2,124,PS,intra_train,42,↓,down,↓,0.6843266002833843,True,15,-,-,-
Y2-S2-135K23,2,125,PS,intra_train,50,→,right,→,0.41988939978182316,True,15,-,-,-
Y2-S2-135K23,2,126,PS,intra_train,30,↓,down,↓,0.5739444000646472,True,15,-,-,-
Y2-S2-135K23,2,127,PS,exp,47,→,right,→,0.44295769976451993,True,10,0,0,0
Y2-S2-135K23,2,128,PS,exp,45,↓,down,↓,0.5456530000083148,True,10,0,0,0
Y2-S2-135K23,2,129,PS,exp,26,→,right,→,0.4872250002808869,True,10,1,0,0
Y2-S2-135K23,2,130,PS,exp,50,↑,up,↑,0.5075191999785602,True,9,1,0,0
Y2-S2-135K23,2,131,PS,exp,50,←,right,→,0.6843317002058029,False,9,-1,1,1
Y2-S2-135K23,2,132,PS,exp,26,↑,up,↑,0.6503980001434684,True,10,-1,0,1
Y2-S2-135K23,2,133,PS,exp,35,←,right,→,0.6721212002448738,False,10,-1,0,1
Y2-S2-135K23,2,134,PS,exp,49,↑,up,↑,0.5121291996911168,True,11,-1,0,1
Y2-S2-135K23,2,135,PS,exp,28,→,right,→,0.7148280004039407,True,11,-1,0,1
Y2-S2-135K23,2,136,PS,exp,36,↓,down,↓,0.5484400000423193,True,11,1,1,2
Y2-S2-135K23,2,137,PS,exp,50,→,right,→,0.46869179978966713,True,10,1,0,2
Y2-S2-135K23,2,138,PS,exp,37,↓,down,↓,0.41328700026497245,True,10,1,0,2
Y2-S2-135K23,2,139,PS,exp,50,↑,right,→,0.47442330000922084,False,10,-1,1,3
Y2-S2-135K23,2,140,PS,exp,28,←,left,←,0.38870619982481003,True,11,-1,0,3
Y2-S2-135K23,2,141,PS,exp,29,↑,right,→,0.5696256002411246,False,11,-1,0,3
Y2-S2-135K23,2,142,PS,exp,39,←,right,→,0.409009899944067,False,12,-1,0,3
Y2-S2-135K23,2,143,PS,exp,45,→,left,←,0.3339964998885989,False,13,-1,0,3
Y2-S2-135K23,2,144,PS,exp,25,←,left,←,0.5827789003960788,True,14,-1,0,3
Y2-S2-135K23,2,145,PS,exp,35,→,right,→,0.4817197001539171,True,14,-1,0,3
Y2-S2-135K23,2,146,PS,exp,46,←,left,←,0.9607560001313686,True,14,1,1,4
Y2-S2-135K23,2,147,PS,exp,31,↓,right,→,0.7515247999690473,False,13,-1,1,5
Y2-S2-135K23,2,148,PS,exp,37,←,left,←,0.5594279998913407,True,14,-1,0,5
Y2-S2-135K23,2,149,PS,exp,49,↓,down,↓,1.0634769997559488,True,14,-1,0,5
Y2-S2-135K23,2,150,PS,exp,35,←,right,→,0.8442987999878824,False,14,-1,0,5
Y2-S2-135K23,2,151,PS,exp,42,↓,down,↓,0.6254863999783993,True,15,-1,0,5
Y2-S2-135K23,2,152,PS,exp,47,→,right,→,0.4326762999407947,True,15,-1,0,5
Y2-S2-135K23,2,153,PS,exp,30,←,left,←,0.5761138000525534,True,15,1,1,6
Y2-S2-135K23,2,154,PS,exp,43,↑,up,↑,0.5003102999180555,True,14,1,0,6
Y2-S2-135K23,2,155,PS,exp,25,→,right,→,0.7515541003085673,True,14,1,0,6
Y2-S2-135K23,2,156,PS,exp,43,←,right,→,0.5133187002502382,False,14,-1,1,7
Y2-S2-135K23,2,157,PS,exp,28,→,right,→,0.49666929990053177,True,15,-1,0,7
Y2-S2-135K23,2,158,PS,exp,43,↓,down,↓,0.7507083001546562,True,15,-1,0,7
Y2-S2-135K23,2,159,PS,exp,28,←,left,←,0.42497360007837415,True,15,1,1,8
Y2-S2-135K23,2,160,PS,exp,50,↓,down,↓,0.5907042003236711,True,14,1,0,8
Y2-S2-135K23,2,161,PS,exp,38,↑,right,→,0.9175289999693632,False,14,-1,1,9
Y2-S2-135K23,2,162,PS,exp,50,↓,right,→,0.5628654998727143,False,15,-1,0,9
Y2-S2-135K23,2,163,PS,exp,27,←,right,→,0.5224511995911598,False,16,-1,0,9
Y2-S2-135K23,2,164,PS,exp,29,→,right,→,0.36698379972949624,True,17,-1,0,9
Y2-S2-135K23,2,165,PS,exp,28,↓,left,←,0.4172966000624001,False,17,-1,0,9
Y2-S2-135K23,2,166,PS,exp,33,↑,up,↑,0.6343334000557661,True,18,-1,0,9
Y2-S2-135K23,2,167,PS,exp,40,←,left,←,0.43385979998856783,True,18,-1,0,9
Y2-S2-135K23,2,168,PS,exp,47,↓,down,↓,0.6155717996880412,True,18,1,1,10
Y2-S2-135K23,2,169,PS,exp,44,←,right,→,0.47728409990668297,False,17,-1,1,11
Y2-S2-135K23,2,170,PS,exp,29,↑,up,↑,0.523968500085175,True,18,-1,0,11
Y2-S2-135K23,2,171,PS,exp,31,←,left,←,0.5551168001256883,True,18,-1,0,11
Y2-S2-135K23,2,172,PS,exp,46,→,no_key,no_letter,-1.0,False,18,-1,0,11
Y2-S2-135K23,2,173,PS,exp,46,↓,down,↓,0.7631334997713566,True,19,-1,0,11
Y2-S2-135K23,2,174,PS,exp,43,→,right,→,1.5502527998760343,True,19,-1,0,11
Y2-S2-135K23,2,175,PS,exp,50,←,no_key,no_letter,-1.0,False,19,-1,0,11
Y2-S2-135K23,2,176,PS,exp,50,↑,up,↑,0.6628034003078938,True,20,-1,0,11
Y2-S2-135K23,2,177,PS,exp,35,↓,right,→,0.9474753998219967,False,20,-1,0,11
Y2-S2-135K23,2,178,PS,exp,28,→,no_key,no_letter,-1.0,False,21,-1,0,11
Y2-S2-135K23,2,179,PS,exp,37,↓,right,→,0.38407439971342683,False,22,-1,0,11
Y2-S2-135K23,2,180,PS,exp,25,→,right,→,0.467240700032562,True,23,-1,0,11
Y2-S2-135K23,2,181,PS,exp,38,↓,left,←,0.4842611998319626,False,23,-1,0,11
Y2-S2-135K23,2,182,PS,exp,42,↑,up,↑,0.5902746003121138,True,24,-1,0,11
Y2-S2-135K23,2,183,PS,exp,50,→,right,→,0.48396260011941195,True,24,-1,0,11
Y2-S2-135K23,2,184,PS,exp,40,↓,down,↓,0.7297294000163674,True,24,1,1,12
Y2-S2-135K23,2,185,PS,exp,34,↑,up,↑,1.091482300311327,True,23,1,0,12
Y2-S2-135K23,2,186,PS,exp,26,↓,right,→,0.5007482003420591,False,23,-1,1,13
Y2-S2-135K23,2,187,PS,exp,30,→,right,→,0.48408269975334406,True,24,-1,0,13
Y2-S2-135K23,2,188,PS,exp,47,↓,down,↓,0.665971000213176,True,24,-1,0,13
Y2-S2-135K23,2,189,PS,exp,26,↑,up,↑,0.645766600035131,True,24,1,1,14
Y2-S2-135K23,2,190,PS,exp,44,→,right,→,0.5009698998183012,True,23,1,0,14
Y2-S2-135K23,2,191,PS,exp,42,↓,down,↓,0.6889252997934818,True,23,1,0,14
Y2-S2-135K23,2,192,PS,exp,45,→,right,→,0.5599279999732971,True,23,1,0,14
Y2-S2-135K23,2,193,PS,exp,39,↑,up,↑,0.6221229997463524,True,22,1,0,14
Y2-S2-135K23,2,194,PS,exp,29,←,right,→,0.4505410003475845,False,22,-1,1,15
Y2-S2-135K23,2,195,PS,exp,37,↑,up,↑,0.48429369973018765,True,23,-1,0,15
Y2-S2-135K23,2,196,PS,exp,46,↓,down,↓,0.5562473996542394,True,23,-1,0,15
Y2-S2-135K23,2,197,PS,exp,31,→,right,→,0.467867000028491,True,23,1,1,16
Y2-S2-135K23,3,198,PS,intra_train,33,←,left,←,0.6645408999174833,True,15,-,-,-
Y2-S2-135K23,3,199,PS,intra_train,46,→,left,←,0.3675517998635769,False,15,-,-,-
Y2-S2-135K23,3,200,PS,intra_train,44,←,left,←,0.5399702996946871,True,15,-,-,-
Y2-S2-135K23,3,201,PS,intra_train,49,↑,up,↑,0.5669448999688029,True,15,-,-,-
Y2-S2-135K23,3,202,PS,intra_train,46,←,left,←,1.0491216997615993,True,15,-,-,-
Y2-S2-135K23,3,203,PS,exp,45,→,right,→,0.5738013000227511,True,10,0,0,0
Y2-S2-135K23,3,204,PS,exp,28,↑,up,↑,0.5189514001831412,True,10,0,0,0
Y2-S2-135K23,3,205,PS,exp,37,↓,up,↑,0.7170314998365939,False,10,-1,0,0
Y2-S2-135K23,3,206,PS,exp,50,→,right,→,0.4219423998147249,True,11,-1,0,0
Y2-S2-135K23,3,207,PS,exp,39,←,left,←,0.48738030018284917,True,11,-1,0,0
Y2-S2-135K23,3,208,PS,exp,44,↓,down,↓,0.6398422997444868,True,11,1,1,1
Y2-S2-135K23,3,209,PS,exp,44,←,left,←,0.49954350013285875,True,10,1,0,1
Y2-S2-135K23,3,210,PS,exp,47,→,right,→,0.575847300235182,True,10,1,0,1
Y2-S2-135K23,3,211,PS,exp,39,↓,down,↓,0.959321899805218,True,10,1,0,1
Y2-S2-135K23,3,212,PS,exp,34,←,left,←,0.44686440005898476,True,9,1,0,1
Y2-S2-135K23,3,213,PS,exp,40,→,right,→,0.46494670026004314,True,9,1,0,1
Y2-S2-135K23,3,214,PS,exp,47,←,right,→,0.4604004002176225,False,9,-1,1,2
Y2-S2-135K23,3,215,PS,exp,38,↑,up,↑,0.5043890997767448,True,10,-1,0,2
Y2-S2-135K23,3,216,PS,exp,42,→,right,→,0.4499399997293949,True,10,-1,0,2
Y2-S2-135K23,3,217,PS,exp,47,↑,right,→,1.2803229000419378,False,10,-1,0,2
Y2-S2-135K23,3,218,PS,exp,35,↓,up,↑,1.289633400272578,False,11,-1,0,2
Y2-S2-135K23,3,219,PS,exp,31,←,left,←,0.6806156998500228,True,12,-1,0,2
Y2-S2-135K23,3,220,PS,exp,30,→,right,→,0.8969703000038862,True,12,-1,0,2
Y2-S2-135K23,3,221,PS,exp,50,↑,up,↑,0.4972429000772536,True,12,1,1,3
Y2-S2-135K23,3,222,PS,exp,27,→,right,→,1.112302000168711,True,11,1,0,3
Y2-S2-135K23,3,223,PS,exp,40,↓,down,↓,0.893665200099349,True,11,1,0,3
Y2-S2-135K23,3,224,PS,exp,43,←,left,←,0.45223130006343126,True,11,1,0,3
Y2-S2-135K23,3,225,PS,exp,36,→,right,→,0.5394319002516568,True,10,1,0,3
Y2-S2-135K23,3,226,PS,exp,39,↓,down,↓,0.5622715000063181,True,10,1,0,3
Y2-S2-135K23,3,227,PS,exp,41,↑,up,↑,0.557041899766773,True,10,1,0,3
Y2-S2-135K23,3,228,PS,exp,42,↓,up,↑,0.6755107999779284,False,9,-1,1,4
Y2-S2-135K23,3,229,PS,exp,37,↑,up,↑,0.5453882999718189,True,10,-1,0,4
Y2-S2-135K23,3,230,PS,exp,46,←,left,←,0.5047171004116535,True,10,-1,0,4
Y2-S2-135K23,3,231,PS,exp,47,↓,down,↓,0.5264844000339508,True,10,1,1,5
Y2-S2-135K23,3,232,PS,exp,28,←,right,→,0.6771482997573912,False,9,-1,1,6
Y2-S2-135K23,3,233,PS,exp,44,→,right,→,0.4772347002290189,True,10,-1,0,6
Y2-S2-135K23,3,234,PS,exp,26,↑,up,↑,0.47271439991891384,True,10,-1,0,6
Y2-S2-135K23,3,235,PS,exp,25,↓,down,↓,0.5155079001560807,True,10,1,1,7
Y2-S2-135K23,3,236,PS,exp,28,←,right,→,0.6761724003590643,False,9,-1,1,8
Y2-S2-135K23,3,237,PS,exp,25,→,right,→,0.6505891000851989,True,10,-1,0,8
Y2-S2-135K23,3,238,PS,exp,25,←,left,←,0.43284690007567406,True,10,-1,0,8
Y2-S2-135K23,3,239,PS,exp,31,→,right,→,0.4458954003639519,True,10,1,1,9
Y2-S2-135K23,3,240,PS,exp,37,↓,right,→,0.6310061002150178,False,9,-1,1,10
Y2-S2-135K23,3,241,PS,exp,31,←,left,←,0.38090879982337356,True,10,-1,0,10
Y2-S2-135K23,3,242,PS,exp,41,↓,down,↓,0.6749164001084864,True,10,-1,0,10
Y2-S2-135K23,3,243,PS,exp,36,←,left,←,0.4413794996216893,True,10,1,1,11
Y2-S2-135K23,3,244,PS,exp,29,↓,right,→,0.573206799570471,False,9,-1,1,12
Y2-S2-135K23,3,245,PS,exp,38,←,right,→,0.4516786001622677,False,10,-1,0,12
Y2-S2-135K23,3,246,PS,exp,31,↓,right,→,0.7306705000810325,False,11,-1,0,12
Y2-S2-135K23,3,247,PS,exp,28,→,right,→,0.41705659963190556,True,12,-1,0,12
Y2-S2-135K23,3,248,PS,exp,44,←,left,←,0.5236068996600807,True,12,-1,0,12
Y2-S2-135K23,3,249,PS,exp,38,→,right,→,0.4789133998565376,True,12,1,1,13
Y2-S2-135K23,3,250,PS,exp,25,←,left,←,0.48149950010702014,True,11,1,0,13
Y2-S2-135K23,3,251,PS,exp,28,↓,down,↓,0.6333840996958315,True,11,1,0,13
Y2-S2-135K23,3,252,PS,exp,29,→,right,→,0.5109228999353945,True,11,1,0,13
Y2-S2-135K23,3,253,PS,exp,40,↑,up,↑,0.5968638998456299,True,10,1,0,13
Y2-S2-135K23,3,254,PS,exp,26,↓,down,↓,0.5770304999314249,True,10,1,0,13
Y2-S2-135K23,3,255,PS,exp,44,↑,right,→,0.7358328001573682,False,10,-1,1,14
Y2-S2-135K23,3,256,PS,exp,34,←,left,←,0.5356026003137231,True,11,-1,0,14
Y2-S2-135K23,3,257,PS,exp,32,↑,up,↑,0.45124749979004264,True,11,-1,0,14
Y2-S2-135K23,3,258,PS,exp,37,↓,down,↓,0.5915562999434769,True,11,1,1,15
Y2-S2-135K23,3,259,PS,exp,35,←,left,←,0.4515478000976145,True,10,1,0,15
Y2-S2-135K23,3,260,PS,exp,46,↑,up,↑,0.5430586002767086,True,10,1,0,15
Y2-S2-135K23,3,261,PS,exp,38,→,right,→,0.5850794999860227,True,10,1,0,15
Y2-S2-135K23,3,262,PS,exp,28,←,no_key,no_letter,-1.0,False,9,-1,1,16
Y2-S2-135K23,4,263,AS,intra_train,43,→,right,→,0.84975970024243,True,33,-,-,-
Y2-S2-135K23,4,264,AS,intra_train,38,↑,up,↑,0.8263014000840485,True,33,-,-,-
Y2-S2-135K23,4,265,AS,intra_train,40,←,left,←,0.4009529002942145,True,33,-,-,-
Y2-S2-135K23,4,266,AS,intra_train,45,→,right,→,0.41705780010670424,True,33,-,-,-
Y2-S2-135K23,4,267,AS,intra_train,29,↓,down,↓,0.9210104001685977,True,33,-,-,-
Y2-S2-135K23,4,268,AS,exp,48,→,right,→,0.7495328998193145,True,22,0,0,0
Y2-S2-135K23,4,269,AS,exp,28,↑,up,↑,0.6954845995642245,True,22,0,0,0
Y2-S2-135K23,4,270,AS,exp,35,↓,left,←,0.8872913997620344,False,22,-1,0,0
Y2-S2-135K23,4,271,AS,exp,37,→,up,↑,0.964198799803853,False,23,-1,0,0
Y2-S2-135K23,4,272,AS,exp,34,↓,down,↓,1.0282637998461723,True,24,-1,0,0
Y2-S2-135K23,4,273,AS,exp,44,↑,up,↑,0.8332938002422452,True,24,-1,0,0
Y2-S2-135K23,4,274,AS,exp,37,→,right,→,0.7750583002343774,True,24,1,1,1
Y2-S2-135K23,4,275,AS,exp,39,↑,up,↑,0.6095468997955322,True,23,1,0,1
Y2-S2-135K23,4,276,AS,exp,45,←,right,→,0.48576930025592446,False,23,-1,1,2
Y2-S2-135K23,4,277,AS,exp,49,→,right,→,0.5981763997115195,True,24,-1,0,2
Y2-S2-135K23,4,278,AS,exp,41,←,left,←,0.9563259999267757,True,24,-1,0,2
Y2-S2-135K23,4,279,AS,exp,37,↓,down,↓,0.8558777999132872,True,24,1,1,3
Y2-S2-135K23,4,280,AS,exp,28,↑,up,↑,0.6799305002205074,True,23,1,0,3
Y2-S2-135K23,4,281,AS,exp,46,→,right,→,0.680604999884963,True,23,1,0,3
Y2-S2-135K23,4,282,AS,exp,27,↓,down,↓,0.7991108996793628,True,23,1,0,3
Y2-S2-135K23,4,283,AS,exp,26,↑,up,↑,0.48371619964018464,True,22,1,0,3
Y2-S2-135K23,4,284,AS,exp,44,↓,down,↓,0.5623415997251868,True,22,1,0,3
Y2-S2-135K23,4,285,AS,exp,39,↑,up,↑,1.2479061000049114,True,22,1,0,3
Y2-S2-135K23,4,286,AS,exp,44,←,left,←,0.6864910000003874,True,21,1,0,3
Y2-S2-135K23,4,287,AS,exp,39,↑,up,↑,0.7576243998482823,True,21,1,0,3
Y2-S2-135K23,4,288,AS,exp,28,→,right,→,0.6021595997735858,True,21,1,0,3
Y2-S2-135K23,4,289,AS,exp,26,↓,down,↓,0.6118176998570561,True,20,1,0,3
Y2-S2-135K23,4,290,AS,exp,45,←,left,←,1.0831416002474725,True,20,1,0,3
Y2-S2-135K23,4,291,AS,exp,48,↑,up,↑,0.776855300180614,True,20,1,0,3
Y2-S2-135K23,4,292,AS,exp,39,↓,down,↓,0.7764002000913024,True,19,1,0,3
Y2-S2-135K23,4,293,AS,exp,26,←,left,←,0.7285552998073399,True,19,1,0,3
Y2-S2-135K23,4,294,AS,exp,25,↓,down,↓,0.654948300216347,True,19,1,0,3
Y2-S2-135K23,4,295,AS,exp,50,↑,up,↑,0.638654500246048,True,18,1,0,3
Y2-S2-135K23,4,296,AS,exp,47,↓,down,↓,0.6922287000343204,True,18,1,0,3
Y2-S2-135K23,4,297,AS,exp,25,→,right,→,0.8658976000733674,True,18,1,0,3
Y2-S2-135K23,4,298,AS,exp,49,↑,left,←,1.0433848001994193,False,17,-1,1,4
Y2-S2-135K23,4,299,AS,exp,32,←,left,←,0.4172451999038458,True,18,-1,0,4
Y2-S2-135K23,4,300,AS,exp,29,↓,down,↓,0.5994627000764012,True,18,-1,0,4
Y2-S2-135K23,4,301,AS,exp,45,←,left,←,0.5087216999381781,True,18,1,1,5
Y2-S2-135K23,4,302,AS,exp,27,↑,down,↓,0.8141992003656924,False,17,-1,1,6
Y2-S2-135K23,4,303,AS,exp,32,←,right,→,0.8032448003068566,False,18,-1,0,6
Y2-S2-135K23,4,304,AS,exp,33,→,right,→,0.6877528000622988,True,19,-1,0,6
Y2-S2-135K23,4,305,AS,exp,43,↓,down,↓,1.4314040001481771,True,19,-1,0,6
Y2-S2-135K23,4,306,AS,exp,30,←,left,←,0.9539529997855425,True,19,1,1,7
Y2-S2-135K23,4,307,AS,exp,36,↑,right,→,0.84149290015921,False,18,-1,1,8
Y2-S2-135K23,4,308,AS,exp,27,→,right,→,1.0506788999773562,True,19,-1,0,8
Y2-S2-135K23,4,309,AS,exp,35,←,left,←,0.9164177998900414,True,19,-1,0,8
Y2-S2-135K23,4,310,AS,exp,27,↓,down,↓,0.8531478997319937,True,19,1,1,9
Y2-S2-135K23,4,311,AS,exp,31,→,right,→,0.47782110003754497,True,18,1,0,9
Y2-S2-135K23,4,312,AS,exp,47,←,right,→,0.49153990019112825,False,18,-1,1,10
Y2-S2-135K23,4,313,AS,exp,43,→,right,→,0.651823400054127,True,19,-1,0,10
Y2-S2-135K23,4,314,AS,exp,41,↑,up,↑,0.5134197999723256,True,19,-1,0,10
Y2-S2-135K23,4,315,AS,exp,43,↓,right,→,1.3686353000812232,False,19,-1,0,10
Y2-S2-135K23,4,316,AS,exp,50,↑,up,↑,0.7626563999801874,True,20,-1,0,10
Y2-S2-135K23,4,317,AS,exp,50,↓,down,↓,0.7589833000674844,True,20,-1,0,10
Y2-S2-135K23,4,318,AS,exp,38,→,right,→,0.7866458003409207,True,20,1,1,11
Y2-S2-135K23,4,319,AS,exp,45,←,left,←,0.5561345000751317,True,19,1,0,11
Y2-S2-135K23,4,320,AS,exp,32,↓,down,↓,0.79828210035339,True,19,1,0,11
Y2-S2-135K23,4,321,AS,exp,42,→,right,→,0.7297783996909857,True,19,1,0,11
Y2-S2-135K23,4,322,AS,exp,25,↑,up,↑,0.9898986001498997,True,18,1,0,11
Y2-S2-135K23,4,323,AS,exp,45,←,left,←,0.9141759001649916,True,18,1,0,11
Y2-S2-135K23,4,324,AS,exp,40,→,right,→,0.6032320000231266,True,18,1,0,11
Y2-S2-135K23,4,325,AS,exp,29,↓,down,↓,1.041147300042212,True,17,1,0,11
Y2-S2-135K23,4,326,AS,exp,49,↑,up,↑,0.6960658999159932,True,17,1,0,11
Y2-S2-135K23,4,327,AS,exp,30,↓,down,↓,1.0426957001909614,True,17,1,0,11
Y2-S2-135K23,4,328,AS,exp,44,→,right,→,1.0444201999343932,True,16,1,0,11
Y2-S2-135K23,4,329,AS,exp,25,↑,up,↑,0.6045121997594833,True,16,1,0,11
Y2-S2-135K23,4,330,AS,exp,44,→,right,→,0.7859968999400735,True,16,1,0,11
Y2-S2-135K23,4,331,AS,exp,27,↑,up,↑,0.4944681003689766,True,15,1,0,11
Y2-S2-135K23,4,332,AS,exp,26,←,right,→,1.1580731999129057,False,15,-1,1,12
Y2-S2-135K23,4,333,AS,exp,39,↓,right,→,0.8069831002503633,False,16,-1,0,12
Y2-S2-135K23,4,334,AS,exp,34,↑,up,↑,0.7306817998178303,True,17,-1,0,12
Y2-S2-135K23,4,335,AS,exp,37,←,left,←,0.8642776999622583,True,17,-1,0,12
Y2-S2-135K23,4,336,AS,exp,39,↓,down,↓,0.8863869002088904,True,17,1,1,13
Y2-S2-135K23,4,337,AS,exp,25,←,down,↓,1.7772964998148382,False,16,-1,1,14
Y2-S2-135K23,4,338,AS,exp,32,↓,down,↓,0.9035231000743806,True,17,-1,0,14
Y2-S2-135K23,4,339,AS,exp,46,←,left,←,1.068556800018996,True,17,-1,0,14
Y2-S2-135K23,4,340,AS,exp,50,↓,down,↓,0.8191738999448717,True,17,1,1,15
Y2-S2-135K23,4,341,AS,exp,26,←,right,→,0.8940841997973621,False,16,-1,1,16
Y2-S2-135K23,5,342,AS,intra_train,44,→,right,→,2.173263099975884,True,33,-,-,-
Y2-S2-135K23,5,343,AS,intra_train,37,↓,down,↓,1.6863000998273492,True,33,-,-,-
Y2-S2-135K23,5,344,AS,intra_train,38,←,left,←,0.8082226999104023,True,33,-,-,-
Y2-S2-135K23,5,345,AS,intra_train,40,↑,up,↑,0.8861929001286626,True,33,-,-,-
Y2-S2-135K23,5,346,AS,intra_train,27,↓,down,↓,0.6670822999440134,True,33,-,-,-
Y2-S2-135K23,5,347,AS,exp,45,↑,up,↑,0.7809680998325348,True,22,0,0,0
Y2-S2-135K23,5,348,AS,exp,41,↓,down,↓,0.9696492003276944,True,22,0,0,0
Y2-S2-135K23,5,349,AS,exp,44,→,right,→,0.6546767000108957,True,22,1,0,0
Y2-S2-135K23,5,350,AS,exp,38,←,left,←,1.0255626998841763,True,21,1,0,0
Y2-S2-135K23,5,351,AS,exp,31,↑,up,↑,1.4877558001317084,True,21,1,0,0
Y2-S2-135K23,5,352,AS,exp,28,→,right,→,0.6866510999388993,True,21,1,0,0
Y2-S2-135K23,5,353,AS,exp,32,↓,down,↓,0.6764088002964854,True,20,1,0,0
Y2-S2-135K23,5,354,AS,exp,27,↑,up,↑,0.6031531002372503,True,20,1,0,0
Y2-S2-135K23,5,355,AS,exp,31,↓,no_key,no_letter,-1.0,False,20,-1,1,1
Y2-S2-135K23,5,356,AS,exp,39,←,left,←,1.2435979000292718,True,21,-1,0,1
Y2-S2-135K23,5,357,AS,exp,48,→,right,→,0.4673713003285229,True,21,-1,0,1
Y2-S2-135K23,5,358,AS,exp,37,←,left,←,0.6175577999092638,True,21,1,1,2
Y2-S2-135K23,5,359,AS,exp,32,→,right,→,0.4506419999524951,True,20,1,0,2
Y2-S2-135K23,5,360,AS,exp,25,↓,down,↓,1.0300202001817524,True,20,1,0,2
Y2-S2-135K23,5,361,AS,exp,42,↑,up,↑,0.8389371996745467,True,20,1,0,2
Y2-S2-135K23,5,362,AS,exp,49,←,left,←,0.7547650001943111,True,19,1,0,2
Y2-S2-135K23,5,363,AS,exp,47,↓,right,→,0.49020469980314374,False,19,-1,1,3
Y2-S2-135K23,5,364,AS,exp,47,←,left,←,0.7402232000604272,True,20,-1,0,3
Y2-S2-135K23,5,365,AS,exp,32,↓,left,←,1.0434836000204086,False,20,-1,0,3
Y2-S2-135K23,5,366,AS,exp,27,←,no_key,no_letter,-1.0,False,21,-1,0,3
Y2-S2-135K23,5,367,AS,exp,47,↑,up,↑,0.8017841000109911,True,22,-1,0,3
Y2-S2-135K23,5,368,AS,exp,43,↓,down,↓,0.8796168998815119,True,22,-1,0,3
Y2-S2-135K23,5,369,AS,exp,29,←,left,←,1.2283300999552011,True,22,1,1,4
Y2-S2-135K23,5,370,AS,exp,50,↓,down,↓,0.8266352000646293,True,21,1,0,4
Y2-S2-135K23,5,371,AS,exp,49,←,left,←,1.0796960997395217,True,21,1,0,4
Y2-S2-135K23,5,372,AS,exp,36,↓,down,↓,0.6959163998253644,True,21,1,0,4
Y2-S2-135K23,5,373,AS,exp,36,↑,no_key,no_letter,-1.0,False,20,-1,1,5
Y2-S2-135K23,5,374,AS,exp,26,←,left,←,0.5595257002860308,True,21,-1,0,5
Y2-S2-135K23,5,375,AS,exp,42,→,right,→,0.5462905000895262,True,21,-1,0,5
Y2-S2-135K23,5,376,AS,exp,32,↑,up,↑,0.6624392997473478,True,21,1,1,6
Y2-S2-135K23,5,377,AS,exp,50,→,right,→,0.8296626000665128,True,20,1,0,6
Y2-S2-135K23,5,378,AS,exp,28,↓,up,↑,0.9602260002866387,False,20,-1,1,7
Y2-S2-135K23,5,379,AS,exp,50,↑,up,↑,0.6551702003926039,True,21,-1,0,7
Y2-S2-135K23,5,380,AS,exp,25,→,no_key,no_letter,-1.0,False,21,-1,0,7
Y2-S2-135K23,5,381,AS,exp,34,↓,down,↓,0.7957268003374338,True,22,-1,0,7
Y2-S2-135K23,5,382,AS,exp,39,←,left,←,0.8597535998560488,True,22,-1,0,7
Y2-S2-135K23,5,383,AS,exp,36,↓,down,↓,0.7739631999284029,True,22,1,1,8
Y2-S2-135K23,5,384,AS,exp,32,←,left,←,0.6604789001867175,True,21,1,0,8
Y2-S2-135K23,5,385,AS,exp,45,↑,up,↑,0.9158990001305938,True,21,1,0,8
Y2-S2-135K23,5,386,AS,exp,27,↓,down,↓,0.6301601999439299,True,21,1,0,8
Y2-S2-135K23,5,387,AS,exp,33,←,left,←,0.5950552998110652,True,20,1,0,8
Y2-S2-135K23,5,388,AS,exp,34,→,right,→,0.8586255996488035,True,20,1,0,8
Y2-S2-135K23,5,389,AS,exp,34,↑,up,↑,0.6106928000226617,True,20,1,0,8
Y2-S2-135K23,5,390,AS,exp,43,↓,down,↓,0.6894129002466798,True,19,1,0,8
Y2-S2-135K23,5,391,AS,exp,42,←,left,←,0.7040472002699971,True,19,1,0,8
Y2-S2-135K23,5,392,AS,exp,34,↑,up,↑,0.6325177000835538,True,19,1,0,8
Y2-S2-135K23,5,393,AS,exp,45,↓,down,↓,0.8576676999218762,True,18,1,0,8
Y2-S2-135K23,5,394,AS,exp,32,→,right,→,0.7611951003782451,True,18,1,0,8
Y2-S2-135K23,5,395,AS,exp,48,↑,down,↓,0.9624363998882473,False,18,-1,1,9
Y2-S2-135K23,5,396,AS,exp,30,→,right,→,0.8177787996828556,True,19,-1,0,9
Y2-S2-135K23,5,397,AS,exp,46,←,right,→,0.593068900052458,False,19,-1,0,9
Y2-S2-135K23,5,398,AS,exp,44,↓,no_key,no_letter,-1.0,False,20,-1,0,9
Y2-S2-135K23,5,399,AS,exp,39,↑,up,↑,0.8145175999961793,True,21,-1,0,9
Y2-S2-135K23,5,400,AS,exp,43,→,right,→,0.5601920001208782,True,21,-1,0,9
Y2-S2-135K23,5,401,AS,exp,30,←,left,←,0.4837202001363039,True,21,1,1,10
Y2-S2-135K23,5,402,AS,exp,48,↓,left,←,0.8705783998593688,False,20,-1,1,11
Y2-S2-135K23,5,403,AS,exp,39,←,right,→,0.58824050007388,False,21,-1,0,11
Y2-S2-135K23,5,404,AS,exp,27,↑,up,↑,0.9238338000141084,True,22,-1,0,11
Y2-S2-135K23,5,405,AS,exp,33,←,left,←,1.170282400213182,True,22,-1,0,11
Y2-S2-135K23,5,406,AS,exp,39,↓,down,↓,0.7067976999096572,True,22,1,1,12
Y2-S2-135K23,5,407,AS,exp,28,→,right,→,0.9099126998335123,True,21,1,0,12
Y2-S2-135K23,5,408,AS,exp,49,←,left,←,0.4173539998009801,True,21,1,0,12
Y2-S2-135K23,5,409,AS,exp,47,↓,down,↓,0.6332176998257637,True,21,1,0,12
Y2-S2-135K23,5,410,AS,exp,28,←,left,←,0.545386599842459,True,20,1,0,12
Y2-S2-135K23,5,411,AS,exp,26,→,right,→,0.6757045001722872,True,20,1,0,12
Y2-S2-135K23,5,412,AS,exp,26,↑,right,→,0.845949299633503,False,20,-1,1,13
Y2-S2-135K23,5,413,AS,exp,48,→,right,→,0.8362018996849656,True,21,-1,0,13
Y2-S2-135K23,5,414,AS,exp,37,←,left,←,0.8120797001756728,True,21,-1,0,13
Y2-S2-135K23,5,415,AS,exp,42,→,right,→,0.8674880000762641,True,21,1,1,14
Y2-S2-135K23,5,416,AS,exp,35,↓,down,↓,0.8524000002071261,True,20,1,0,14
Y2-S2-135K23,5,417,AS,exp,47,→,right,→,0.6434213002212346,True,20,1,0,14
Y2-S2-135K23,5,418,AS,exp,29,↓,down,↓,0.6897657001391053,True,20,1,0,14
Y2-S2-135K23,5,419,AS,exp,44,↑,up,↑,0.6215329002588987,True,19,1,0,14
Y2-S2-135K23,5,420,AS,exp,39,→,right,→,0.5594627996906638,True,19,1,0,14
Y2-S2-135K23,5,421,AS,exp,48,←,left,←,0.7280346001498401,True,19,1,0,14
Y2-S2-135K23,5,422,AS,exp,43,→,right,→,0.7245655995793641,True,18,1,0,14
Y2-S2-135K23,5,423,AS,exp,30,↓,left,←,0.9943913999013603,False,18,-1,1,15
Y2-S2-135K23,5,424,AS,exp,36,↑,up,↑,0.7404981995932758,True,19,-1,0,15
Y2-S2-135K23,5,425,AS,exp,33,←,left,←,0.606585199944675,True,19,-1,0,15
Y2-S2-135K23,5,426,AS,exp,47,→,right,→,1.107615299988538,True,19,1,1,16
Y2-S2-135K23,6,427,PS,intra_train,30,↓,down,↓,0.9078481001779437,True,15,-,-,-
Y2-S2-135K23,6,428,PS,intra_train,44,→,right,→,0.5327196000143886,True,15,-,-,-
Y2-S2-135K23,6,429,PS,intra_train,46,←,left,←,0.6154390997253358,True,15,-,-,-
Y2-S2-135K23,6,430,PS,intra_train,25,↓,right,→,0.8125314996577799,False,15,-,-,-
Y2-S2-135K23,6,431,PS,intra_train,41,←,left,←,0.4974974999204278,True,15,-,-,-
Y2-S2-135K23,6,432,PS,exp,25,↑,up,↑,0.7670315001159906,True,10,0,0,0
Y2-S2-135K23,6,433,PS,exp,43,←,right,→,1.2746967002749443,False,10,-1,0,0
Y2-S2-135K23,6,434,PS,exp,29,↓,down,↓,0.8949287999421358,True,11,-1,0,0
Y2-S2-135K23,6,435,PS,exp,33,←,up,↑,1.02597719989717,False,11,-1,0,0
Y2-S2-135K23,6,436,PS,exp,37,→,right,→,0.4433273999020457,True,12,-1,0,0
Y2-S2-135K23,6,437,PS,exp,35,↓,down,↓,0.6742314998991787,True,12,-1,0,0
Y2-S2-135K23,6,438,PS,exp,40,→,right,→,0.6224826001562178,True,12,1,1,1
Y2-S2-135K23,6,439,PS,exp,37,↑,up,↑,0.4972856999374926,True,11,1,0,1
Y2-S2-135K23,6,440,PS,exp,37,↓,down,↓,0.6807173998095095,True,11,1,0,1
Y2-S2-135K23,6,441,PS,exp,32,↑,right,→,0.8612206000834703,False,11,-1,1,2
Y2-S2-135K23,6,442,PS,exp,30,↓,down,↓,0.6772489002905786,True,12,-1,0,2
Y2-S2-135K23,6,443,PS,exp,43,←,left,←,0.6022927998565137,True,12,-1,0,2
Y2-S2-135K23,6,444,PS,exp,43,→,right,→,0.9808077998459339,True,12,1,1,3
Y2-S2-135K23,6,445,PS,exp,42,↑,up,↑,1.181717500090599,True,11,1,0,3
Y2-S2-135K23,6,446,PS,exp,32,←,right,→,0.5575243998318911,False,11,-1,1,4
Y2-S2-135K23,6,447,PS,exp,42,↓,down,↓,0.6535789002664387,True,12,-1,0,4
Y2-S2-135K23,6,448,PS,exp,30,→,right,→,0.539085699710995,True,12,-1,0,4
Y2-S2-135K23,6,449,PS,exp,31,↓,down,↓,0.5727240000851452,True,12,1,1,5
Y2-S2-135K23,6,450,PS,exp,48,←,left,←,0.4195383000187576,True,11,1,0,5
Y2-S2-135K23,6,451,PS,exp,38,→,right,→,0.5750310998409986,True,11,1,0,5
Y2-S2-135K23,6,452,PS,exp,37,↑,up,↑,0.6660684999078512,True,11,1,0,5
Y2-S2-135K23,6,453,PS,exp,48,→,right,→,0.5859530000016093,True,10,1,0,5
Y2-S2-135K23,6,454,PS,exp,48,↓,down,↓,0.6453975001350045,True,10,1,0,5
Y2-S2-135K23,6,455,PS,exp,27,←,left,←,0.6463794996961951,True,10,1,0,5
Y2-S2-135K23,6,456,PS,exp,27,↑,up,↑,0.5220761001110077,True,9,1,0,5
Y2-S2-135K23,6,457,PS,exp,35,↓,down,↓,0.6512485002167523,True,9,1,0,5
Y2-S2-135K23,6,458,PS,exp,39,←,left,←,0.43972899997606874,True,9,1,0,5
Y2-S2-135K23,6,459,PS,exp,30,→,right,→,0.5011981995776296,True,8,1,0,5
Y2-S2-135K23,6,460,PS,exp,36,↑,up,↑,0.5493895001709461,True,8,1,0,5
Y2-S2-135K23,6,461,PS,exp,28,→,right,→,0.4880575002171099,True,8,1,0,5
Y2-S2-135K23,6,462,PS,exp,28,↓,left,←,0.725738599896431,False,7,-1,1,6
Y2-S2-135K23,6,463,PS,exp,31,←,right,→,0.5453165001235902,False,8,-1,0,6
Y2-S2-135K23,6,464,PS,exp,50,↓,down,↓,0.7038699998520315,True,9,-1,0,6
Y2-S2-135K23,6,465,PS,exp,37,↑,up,↑,0.5838534999638796,True,9,-1,0,6
Y2-S2-135K23,6,466,PS,exp,33,←,left,←,0.5346322995610535,True,9,1,1,7
Y2-S2-135K23,6,467,PS,exp,29,↓,left,←,0.822556700091809,False,8,-1,1,8
Y2-S2-135K23,6,468,PS,exp,39,↑,up,↑,0.469537400174886,True,9,-1,0,8
Y2-S2-135K23,6,469,PS,exp,40,←,left,←,1.1519447001628578,True,9,-1,0,8
Y2-S2-135K23,6,470,PS,exp,29,↑,right,→,0.5485803997144103,False,9,-1,0,8
Y2-S2-135K23,6,471,PS,exp,50,→,right,→,0.4590171002782881,True,10,-1,0,8
Y2-S2-135K23,6,472,PS,exp,48,↑,right,→,0.40365019999444485,False,10,-1,0,8
Y2-S2-135K23,6,473,PS,exp,46,→,right,→,0.5659818002022803,True,11,-1,0,8
Y2-S2-135K23,6,474,PS,exp,34,↓,up,↑,0.9274476999416947,False,11,-1,0,8
Y2-S2-135K23,6,475,PS,exp,32,→,right,→,0.7789072999730706,True,12,-1,0,8
Y2-S2-135K23,6,476,PS,exp,34,↑,up,↑,0.4125564997084439,True,12,-1,0,8
Y2-S2-135K23,6,477,PS,exp,49,→,right,→,0.4481764999218285,True,12,1,1,9
Y2-S2-135K23,6,478,PS,exp,31,↑,up,↑,0.4872607998549938,True,11,1,0,9
Y2-S2-135K23,6,479,PS,exp,30,→,right,→,1.0153257003985345,True,11,1,0,9
Y2-S2-135K23,6,480,PS,exp,41,←,up,↑,0.8780936999246478,False,11,-1,1,10
Y2-S2-135K23,6,481,PS,exp,25,↓,down,↓,0.7698968001641333,True,12,-1,0,10
Y2-S2-135K23,6,482,PS,exp,46,→,right,→,0.5404864996671677,True,12,-1,0,10
Y2-S2-135K23,6,483,PS,exp,36,↓,down,↓,0.7006365000270307,True,12,1,1,11
Y2-S2-135K23,6,484,PS,exp,45,↑,up,↑,0.8324902001768351,True,11,1,0,11
Y2-S2-135K23,6,485,PS,exp,25,←,left,←,0.6148680998012424,True,11,1,0,11
Y2-S2-135K23,6,486,PS,exp,49,↑,up,↑,0.4723101002164185,True,11,1,0,11
Y2-S2-135K23,6,487,PS,exp,44,←,right,→,0.7095904001034796,False,10,-1,1,12
Y2-S2-135K23,6,488,PS,exp,36,→,right,→,0.8229954000562429,True,11,-1,0,12
Y2-S2-135K23,6,489,PS,exp,32,↓,left,←,0.9234178001061082,False,11,-1,0,12
Y2-S2-135K23,6,490,PS,exp,34,→,left,←,1.1086839996278286,False,12,-1,0,12
Y2-S2-135K23,6,491,PS,exp,38,↑,right,→,0.8621566002257168,False,13,-1,0,12
Y2-S2-135K23,6,492,PS,exp,38,↓,down,↓,0.6332229999825358,True,14,-1,0,12
Y2-S2-135K23,6,493,PS,exp,43,↑,up,↑,0.5175658999942243,True,14,-1,0,12
Y2-S2-135K23,6,494,PS,exp,36,←,left,←,0.47966840025037527,True,14,1,1,13
Y2-S2-135K23,6,495,PS,exp,40,→,right,→,0.8698136997409165,True,13,1,0,13
Y2-S2-135K23,6,496,PS,exp,28,↓,right,→,0.6070211003534496,False,13,-1,1,14
Y2-S2-135K23,6,497,PS,exp,48,→,right,→,1.2051072996109724,True,14,-1,0,14
Y2-S2-135K23,6,498,PS,exp,32,←,left,←,0.5867186998948455,True,14,-1,0,14
Y2-S2-135K23,6,499,PS,exp,39,↑,up,↑,0.7128555998206139,True,14,1,1,15
Y2-S2-135K23,6,500,PS,exp,32,←,left,←,0.4754701000638306,True,13,1,0,15
Y2-S2-135K23,6,501,PS,exp,27,→,left,←,0.9203316001221538,False,13,-1,1,16
Y2-S2-135K23,7,502,PS,intra_train,25,↑,up,↑,0.8031685999594629,True,15,-,-,-
Y2-S2-135K23,7,503,PS,intra_train,32,↓,down,↓,0.7200909997336566,True,15,-,-,-
Y2-S2-135K23,7,504,PS,intra_train,35,↑,up,↑,0.8874405999667943,True,15,-,-,-
Y2-S2-135K23,7,505,PS,intra_train,37,←,left,←,0.38401229958981276,True,15,-,-,-
Y2-S2-135K23,7,506,PS,intra_train,25,→,right,→,0.4921889998950064,True,15,-,-,-
Y2-S2-135K23,7,507,PS,exp,34,↑,left,←,0.37588690035045147,False,10,-1,0,0
Y2-S2-135K23,7,508,PS,exp,36,←,left,←,0.48908530035987496,True,11,-1,0,0
Y2-S2-135K23,7,509,PS,exp,49,↑,up,↑,0.5291130999103189,True,11,-1,0,0
Y2-S2-135K23,7,510,PS,exp,49,←,left,←,0.4603463001549244,True,11,1,1,1
Y2-S2-135K23,7,511,PS,exp,31,↓,down,↓,0.7915376001037657,True,10,1,0,1
Y2-S2-135K23,7,512,PS,exp,28,←,down,↓,0.8234870000742376,False,10,-1,1,2
Y2-S2-135K23,7,513,PS,exp,42,→,right,→,0.5175911001861095,True,11,-1,0,2
Y2-S2-135K23,7,514,PS,exp,37,↓,left,←,0.40906890016049147,False,11,-1,0,2
Y2-S2-135K23,7,515,PS,exp,30,←,left,←,0.8707689000293612,True,12,-1,0,2
Y2-S2-135K23,7,516,PS,exp,33,→,left,←,0.7589993001893163,False,12,-1,0,2
Y2-S2-135K23,7,517,PS,exp,42,↓,down,↓,0.6381807997822762,True,13,-1,0,2
Y2-S2-135K23,7,518,PS,exp,48,→,right,→,0.772673700004816,True,13,-1,0,2
Y2-S2-135K23,7,519,PS,exp,26,↓,down,↓,0.7421026001684368,True,13,1,1,3
Y2-S2-135K23,7,520,PS,exp,46,↑,up,↑,0.9478659997694194,True,12,1,0,3
Y2-S2-135K23,7,521,PS,exp,41,←,left,←,1.7517037000507116,True,12,1,0,3
Y2-S2-135K23,7,522,PS,exp,26,↑,up,↑,1.0974178998731077,True,12,1,0,3
Y2-S2-135K23,7,523,PS,exp,25,→,right,→,0.5012684999965131,True,11,1,0,3
Y2-S2-135K23,7,524,PS,exp,28,↓,right,→,0.47318259999156,False,11,-1,1,4
Y2-S2-135K23,7,525,PS,exp,41,←,left,←,0.4783447999507189,True,12,-1,0,4
Y2-S2-135K23,7,526,PS,exp,27,→,right,→,0.5982014997862279,True,12,-1,0,4
Y2-S2-135K23,7,527,PS,exp,44,↓,down,↓,0.8168424000032246,True,12,1,1,5
Y2-S2-135K23,7,528,PS,exp,50,→,right,→,0.6439354000613093,True,11,1,0,5
Y2-S2-135K23,7,529,PS,exp,31,↑,up,↑,0.5710550001822412,True,11,1,0,5
Y2-S2-135K23,7,530,PS,exp,27,↓,down,↓,0.7195851001888514,True,11,1,0,5
Y2-S2-135K23,7,531,PS,exp,30,↑,up,↑,0.5578246996738017,True,10,1,0,5
Y2-S2-135K23,7,532,PS,exp,37,↓,down,↓,0.6504575000144541,True,10,1,0,5
Y2-S2-135K23,7,533,PS,exp,29,→,right,→,0.741607700008899,True,10,1,0,5
Y2-S2-135K23,7,534,PS,exp,36,↑,up,↑,0.5394681002944708,True,9,1,0,5
Y2-S2-135K23,7,535,PS,exp,44,←,left,←,0.5370832001790404,True,9,1,0,5
Y2-S2-135K23,7,536,PS,exp,39,↓,down,↓,0.5312760001979768,True,9,1,0,5
Y2-S2-135K23,7,537,PS,exp,45,←,right,→,0.7517276997677982,False,8,-1,1,6
Y2-S2-135K23,7,538,PS,exp,32,→,right,→,0.5538317998871207,True,9,-1,0,6
Y2-S2-135K23,7,539,PS,exp,47,↑,up,↑,0.8726018001325428,True,9,-1,0,6
Y2-S2-135K23,7,540,PS,exp,31,→,right,→,0.9174222000874579,True,9,1,1,7
Y2-S2-135K23,7,541,PS,exp,31,↑,right,→,0.7773369001224637,False,8,-1,1,8
Y2-S2-135K23,7,542,PS,exp,46,→,left,←,1.0753252999857068,False,9,-1,0,8
Y2-S2-135K23,7,543,PS,exp,43,↓,down,↓,0.6728924000635743,True,10,-1,0,8
Y2-S2-135K23,7,544,PS,exp,30,↑,up,↑,0.5652903001755476,True,10,-1,0,8
Y2-S2-135K23,7,545,PS,exp,30,→,right,→,0.4344728998839855,True,10,1,1,9
Y2-S2-135K23,7,546,PS,exp,29,↓,up,↑,0.8947513001039624,False,9,-1,1,10
Y2-S2-135K23,7,547,PS,exp,39,→,right,→,0.48474959982559085,True,10,-1,0,10
Y2-S2-135K23,7,548,PS,exp,38,←,right,→,0.7987875998951495,False,10,-1,0,10
Y2-S2-135K23,7,549,PS,exp,28,→,up,↑,0.6963283997029066,False,11,-1,0,10
Y2-S2-135K23,7,550,PS,exp,45,←,left,←,0.47961230017244816,True,12,-1,0,10
Y2-S2-135K23,7,551,PS,exp,34,↓,down,↓,0.6847385000437498,True,12,-1,0,10
Y2-S2-135K23,7,552,PS,exp,44,↑,up,↑,0.6159177999943495,True,12,1,1,11
Y2-S2-135K23,7,553,PS,exp,38,←,left,←,0.47400510031729937,True,11,1,0,11
Y2-S2-135K23,7,554,PS,exp,44,→,right,→,0.5879876003600657,True,11,1,0,11
Y2-S2-135K23,7,555,PS,exp,36,↓,down,↓,0.6207455997355282,True,11,1,0,11
Y2-S2-135K23,7,556,PS,exp,36,→,right,→,0.9047761000692844,True,10,1,0,11
Y2-S2-135K23,7,557,PS,exp,28,←,left,←,0.48790419986471534,True,10,1,0,11
Y2-S2-135K23,7,558,PS,exp,47,↓,down,↓,0.8337884997017682,True,10,1,0,11
Y2-S2-135K23,7,559,PS,exp,25,←,left,←,0.5659858998842537,True,9,1,0,11
Y2-S2-135K23,7,560,PS,exp,42,→,right,→,0.597016999963671,True,9,1,0,11
Y2-S2-135K23,7,561,PS,exp,35,↑,right,→,0.7829158999957144,False,9,-1,1,12
Y2-S2-135K23,7,562,PS,exp,25,→,left,←,0.7583214002661407,False,10,-1,0,12
Y2-S2-135K23,7,563,PS,exp,28,↓,down,↓,0.6084943003952503,True,11,-1,0,12
Y2-S2-135K23,7,564,PS,exp,40,→,right,→,0.580139699857682,True,11,-1,0,12
Y2-S2-135K23,7,565,PS,exp,47,←,left,←,0.6671734997071326,True,11,1,1,13
Y2-S2-135K23,7,566,PS,exp,44,→,right,→,0.5276815998367965,True,10,1,0,13
Y2-S2-135K23,7,567,PS,exp,35,↑,up,↑,0.505840600002557,True,10,1,0,13
Y2-S2-135K23,7,568,PS,exp,43,→,right,→,0.6773516000248492,True,10,1,0,13
Y2-S2-135K23,7,569,PS,exp,34,←,left,←,0.5052378000691533,True,9,1,0,13
Y2-S2-135K23,7,570,PS,exp,26,↓,down,↓,0.928931700065732,True,9,1,0,13
Y2-S2-135K23,7,571,PS,exp,28,→,up,↑,0.6824595998041332,False,9,-1,1,14
Y2-S2-135K23,7,572,PS,exp,32,↑,up,↑,0.5189822996035218,True,10,-1,0,14
Y2-S2-135K23,7,573,PS,exp,25,←,right,→,0.5348919001407921,False,10,-1,0,14
Y2-S2-135K23,7,574,PS,exp,41,→,right,→,0.571285099722445,True,11,-1,0,14
Y2-S2-135K23,7,575,PS,exp,47,↑,up,↑,0.5179499997757375,True,11,-1,0,14
Y2-S2-135K23,7,576,PS,exp,25,←,right,→,0.6909896000288427,False,11,-1,0,14
Y2-S2-135K23,7,577,PS,exp,25,↑,up,↑,0.5118361003696918,True,12,-1,0,14
Y2-S2-135K23,7,578,PS,exp,36,←,left,←,0.5481859999708831,True,12,-1,0,14
Y2-S2-135K23,7,579,PS,exp,30,↑,up,↑,0.6364879999309778,True,12,1,1,15
Y2-S2-135K23,7,580,PS,exp,27,→,right,→,0.6309516001492739,True,11,1,0,15
Y2-S2-135K23,7,581,PS,exp,44,↑,up,↑,0.5002088998444378,True,11,1,0,15
Y2-S2-135K23,7,582,PS,exp,37,↓,down,↓,0.6250618998892605,True,11,1,0,15
Y2-S2-135K23,7,583,PS,exp,47,→,left,←,1.0469010998494923,False,10,-1,1,16
Y2-S2-135K23,8,584,AS,intra_train,42,↑,right,→,0.6338836001232266,False,33,-,-,-
Y2-S2-135K23,8,585,AS,intra_train,27,↓,down,↓,0.8033873001113534,True,33,-,-,-
Y2-S2-135K23,8,586,AS,intra_train,31,←,left,←,0.82329719979316,True,33,-,-,-
Y2-S2-135K23,8,587,AS,intra_train,38,↓,down,↓,0.7632311000488698,True,33,-,-,-
Y2-S2-135K23,8,588,AS,intra_train,31,↑,up,↑,0.6673407000489533,True,33,-,-,-
Y2-S2-135K23,8,589,AS,exp,43,↓,down,↓,0.831534500233829,True,22,0,0,0
Y2-S2-135K23,8,590,AS,exp,26,←,left,←,0.8413622002117336,True,22,0,0,0
Y2-S2-135K23,8,591,AS,exp,27,↑,up,↑,0.541703199967742,True,22,1,0,0
Y2-S2-135K23,8,592,AS,exp,34,←,left,←,1.565358200110495,True,21,1,0,0
Y2-S2-135K23,8,593,AS,exp,28,→,right,→,0.9667875999584794,True,21,1,0,0
Y2-S2-135K23,8,594,AS,exp,36,←,right,→,1.1992541002109647,False,21,-1,1,1
Y2-S2-135K23,8,595,AS,exp,29,→,right,→,0.8206344000063837,True,22,-1,0,1
Y2-S2-135K23,8,596,AS,exp,41,←,left,←,0.5931073999963701,True,22,-1,0,1
Y2-S2-135K23,8,597,AS,exp,42,→,right,→,0.7351585002616048,True,22,1,1,2
Y2-S2-135K23,8,598,AS,exp,44,↓,right,→,0.576486499980092,False,21,-1,1,3
Y2-S2-135K23,8,599,AS,exp,26,→,right,→,0.6721433000639081,True,22,-1,0,3
Y2-S2-135K23,8,600,AS,exp,30,←,left,←,0.6744137997739017,True,22,-1,0,3
Y2-S2-135K23,8,601,AS,exp,39,↑,up,↑,0.6045683003030717,True,22,1,1,4
Y2-S2-135K23,8,602,AS,exp,25,→,right,→,0.8979659997858107,True,21,1,0,4
Y2-S2-135K23,8,603,AS,exp,26,←,left,←,0.4507575002498925,True,21,1,0,4
Y2-S2-135K23,8,604,AS,exp,36,↓,down,↓,1.1191075998358428,True,21,1,0,4
Y2-S2-135K23,8,605,AS,exp,50,←,left,←,0.8694961997680366,True,20,1,0,4
Y2-S2-135K23,8,606,AS,exp,29,↓,down,↓,0.5710058002732694,True,20,1,0,4
Y2-S2-135K23,8,607,AS,exp,47,←,right,→,0.978617100045085,False,20,-1,1,5
Y2-S2-135K23,8,608,AS,exp,48,↓,left,←,0.9013236002065241,False,21,-1,0,5
Y2-S2-135K23,8,609,AS,exp,35,↑,up,↑,0.5723834000527859,True,22,-1,0,5
Y2-S2-135K23,8,610,AS,exp,38,↓,down,↓,0.7610680996440351,True,22,-1,0,5
Y2-S2-135K23,8,611,AS,exp,31,→,right,→,1.6565398001112044,True,22,1,1,6
Y2-S2-135K23,8,612,AS,exp,27,↑,up,↑,0.6642960999161005,True,21,1,0,6
Y2-S2-135K23,8,613,AS,exp,49,→,right,→,0.46737310010939837,True,21,1,0,6
Y2-S2-135K23,8,614,AS,exp,30,←,left,←,0.8236182001419365,True,21,1,0,6
Y2-S2-135K23,8,615,AS,exp,32,↑,up,↑,0.6517006000503898,True,20,1,0,6
Y2-S2-135K23,8,616,AS,exp,41,→,right,→,0.5340321999974549,True,20,1,0,6
Y2-S2-135K23,8,617,AS,exp,26,↑,up,↑,0.7959309001453221,True,20,1,0,6
Y2-S2-135K23,8,618,AS,exp,43,←,left,←,0.8318568002432585,True,19,1,0,6
Y2-S2-135K23,8,619,AS,exp,49,↑,right,→,0.7158951996825635,False,19,-1,1,7
Y2-S2-135K23,8,620,AS,exp,25,→,right,→,0.6048944001086056,True,20,-1,0,7
Y2-S2-135K23,8,621,AS,exp,45,↓,down,↓,0.7910263002850115,True,20,-1,0,7
Y2-S2-135K23,8,622,AS,exp,43,→,right,→,0.4668180998414755,True,20,1,1,8
Y2-S2-135K23,8,623,AS,exp,27,↓,up,↑,1.0214621997438371,False,19,-1,1,9
Y2-S2-135K23,8,624,AS,exp,36,→,right,→,0.956133599858731,True,20,-1,0,9
Y2-S2-135K23,8,625,AS,exp,46,↓,down,↓,0.6424630000256002,True,20,-1,0,9
Y2-S2-135K23,8,626,AS,exp,40,←,up,↑,0.922751999925822,False,20,-1,0,9
Y2-S2-135K23,8,627,AS,exp,45,→,right,→,0.7004601997323334,True,21,-1,0,9
Y2-S2-135K23,8,628,AS,exp,30,↓,down,↓,1.0213131997734308,True,21,-1,0,9
Y2-S2-135K23,8,629,AS,exp,41,→,right,→,0.7635455001145601,True,21,1,1,10
Y2-S2-135K23,8,630,AS,exp,27,←,right,→,0.7621686002239585,False,20,-1,1,11
Y2-S2-135K23,8,631,AS,exp,36,↑,right,→,0.923320300411433,False,21,-1,0,11
Y2-S2-135K23,8,632,AS,exp,32,←,left,←,0.5007768999785185,True,22,-1,0,11
Y2-S2-135K23,8,633,AS,exp,42,↑,up,↑,0.8962282999418676,True,22,-1,0,11
Y2-S2-135K23,8,634,AS,exp,30,↓,down,↓,0.5845364998094738,True,22,1,1,12
Y2-S2-135K23,8,635,AS,exp,47,↑,up,↑,0.7278018998913467,True,21,1,0,12
Y2-S2-135K23,8,636,AS,exp,32,←,left,←,0.7803687998093665,True,21,1,0,12
Y2-S2-135K23,8,637,AS,exp,42,↑,up,↑,0.8555660001002252,True,21,1,0,12
Y2-S2-135K23,8,638,AS,exp,26,↓,down,↓,0.724439499899745,True,20,1,0,12
Y2-S2-135K23,8,639,AS,exp,38,←,left,←,0.7558880001306534,True,20,1,0,12
Y2-S2-135K23,8,640,AS,exp,35,→,right,→,0.6272700000554323,True,20,1,0,12
Y2-S2-135K23,8,641,AS,exp,50,←,left,←,0.4510188000276685,True,19,1,0,12
Y2-S2-135K23,8,642,AS,exp,28,→,right,→,0.5132165998220444,True,19,1,0,12
Y2-S2-135K23,8,643,AS,exp,28,↑,up,↑,0.7242828998714685,True,19,1,0,12
Y2-S2-135K23,8,644,AS,exp,41,↓,down,↓,0.6665125996805727,True,18,1,0,12
Y2-S2-135K23,8,645,AS,exp,49,↑,right,→,0.8565583000890911,False,18,-1,1,13
Y2-S2-135K23,8,646,AS,exp,35,→,right,→,0.8134221001528203,True,19,-1,0,13
Y2-S2-135K23,8,647,AS,exp,36,↑,right,→,0.727105500176549,False,19,-1,0,13
Y2-S2-135K23,8,648,AS,exp,39,→,right,→,1.1709157000295818,True,20,-1,0,13
Y2-S2-135K23,8,649,AS,exp,38,←,left,←,0.7342868000268936,True,20,-1,0,13
Y2-S2-135K23,8,650,AS,exp,28,→,right,→,0.7014017999172211,True,20,1,1,14
Y2-S2-135K23,8,651,AS,exp,25,↑,up,↑,0.7558932001702487,True,19,1,0,14
Y2-S2-135K23,8,652,AS,exp,43,→,right,→,0.689548599999398,True,19,1,0,14
Y2-S2-135K23,8,653,AS,exp,27,←,right,→,0.7092847996391356,False,19,-1,1,15
Y2-S2-135K23,8,654,AS,exp,36,↑,up,↑,0.6063680998049676,True,20,-1,0,15
Y2-S2-135K23,8,655,AS,exp,32,↓,down,↓,0.7354144998826087,True,20,-1,0,15
Y2-S2-135K23,8,656,AS,exp,38,↑,up,↑,0.8511771000921726,True,20,1,1,16
