PART_ID,Block_no,Trial_no,Block_type,Trial_type,CSI,Stim_letter,Key_pressed,letter_choose,Rt,Corr,Stimulus Time,Level,Reversal,Revs_count
Y2-S2-078M27,1,1,PS,train,38,→,right,→,0.5339081999845803,True,30,-,-,-
Y2-S2-078M27,1,2,PS,train,47,↑,up,↑,0.5841316999867558,True,30,-,-,-
Y2-S2-078M27,1,3,PS,train,28,←,left,←,0.5506389000220224,True,30,-,-,-
Y2-S2-078M27,1,4,PS,train,26,↓,down,↓,2.1618829999351874,True,30,-,-,-
Y2-S2-078M27,1,5,PS,train,29,↑,up,↑,0.4679610999301076,True,30,-,-,-
Y2-S2-078M27,1,6,PS,train,32,↓,down,↓,1.0843172000022605,True,30,-,-,-
Y2-S2-078M27,1,7,PS,train,41,→,right,→,0.6006592999910936,True,30,-,-,-
Y2-S2-078M27,1,8,PS,train,31,←,left,←,0.7222921999637038,True,30,-,-,-
Y2-S2-078M27,1,9,PS,train,43,→,right,→,0.5673168000066653,True,30,-,-,-
Y2-S2-078M27,1,10,PS,train,49,←,left,←,0.6979179999325424,True,30,-,-,-
Y2-S2-078M27,2,11,AS,train,25,→,right,→,0.4676525000249967,True,45,-,-,-
Y2-S2-078M27,2,12,AS,train,27,↑,up,↑,0.6344382999232039,True,45,-,-,-
Y2-S2-078M27,2,13,AS,train,29,←,left,←,0.7671358999796212,True,45,-,-,-
Y2-S2-078M27,2,14,AS,train,50,→,right,→,0.5014293000567704,True,45,-,-,-
Y2-S2-078M27,2,15,AS,train,33,↑,up,↑,0.7507975000189617,True,45,-,-,-
Y2-S2-078M27,2,16,AS,train,26,↓,down,↓,0.7009807000868022,True,45,-,-,-
Y2-S2-078M27,2,17,AS,train,27,→,left,←,0.4178566000191495,False,45,-,-,-
Y2-S2-078M27,2,18,AS,train,47,←,left,←,0.7013952999841422,True,45,-,-,-
Y2-S2-078M27,2,19,AS,train,40,→,right,→,0.7008884999668226,True,45,-,-,-
Y2-S2-078M27,2,20,AS,train,38,←,left,←,0.5344835999421775,True,45,-,-,-
Y2-S2-078M27,-,21,PS,adaptive,38,↑,up,↑,0.45473709993530065,True,10,0,0,0
Y2-S2-078M27,-,22,PS,adaptive,47,←,left,←,0.3997502999845892,True,10,0,0,0
Y2-S2-078M27,-,23,PS,adaptive,44,↑,up,↑,0.38433000002987683,True,10,1,0,0
Y2-S2-078M27,-,24,PS,adaptive,49,←,right,→,0.6047750998986885,False,9,-1,1,1
Y2-S2-078M27,-,25,PS,adaptive,44,→,right,→,0.5273091999115422,True,10,-1,0,1
Y2-S2-078M27,-,26,PS,adaptive,26,↑,up,↑,0.48060499993152916,True,10,-1,0,1
Y2-S2-078M27,-,27,PS,adaptive,46,←,left,←,1.3151803000364453,True,10,1,1,2
Y2-S2-078M27,-,28,PS,adaptive,42,↓,down,↓,0.7916930000064895,True,9,1,0,2
Y2-S2-078M27,-,29,PS,adaptive,40,←,left,←,0.5078405999811366,True,9,1,0,2
Y2-S2-078M27,-,30,PS,adaptive,39,↑,up,↑,0.4148425000021234,True,9,1,0,2
Y2-S2-078M27,-,31,PS,adaptive,48,↓,down,↓,0.6256112999981269,True,8,1,0,2
Y2-S2-078M27,-,32,PS,adaptive,27,←,down,↓,0.7415750999934971,False,8,-1,1,3
Y2-S2-078M27,-,33,PS,adaptive,49,↑,up,↑,0.6130728999851272,True,9,-1,0,3
Y2-S2-078M27,-,34,PS,adaptive,48,→,right,→,0.5830175000010058,True,9,-1,0,3
Y2-S2-078M27,-,35,PS,adaptive,36,←,left,←,0.6217905000085011,True,9,1,1,4
Y2-S2-078M27,-,36,AS,adaptive,44,↓,down,↓,0.6574849999742582,True,20,0,0,0
Y2-S2-078M27,-,37,AS,adaptive,46,←,left,←,0.6981996999820694,True,20,0,0,0
Y2-S2-078M27,-,38,AS,adaptive,47,↑,down,↓,0.7467910000123084,False,20,-1,0,0
Y2-S2-078M27,-,39,AS,adaptive,50,←,left,←,0.6272270000772551,True,21,-1,0,0
Y2-S2-078M27,-,40,AS,adaptive,37,↑,up,↑,0.6153333999682218,True,21,-1,0,0
Y2-S2-078M27,-,41,AS,adaptive,40,→,right,→,0.5298595000058413,True,21,1,1,1
Y2-S2-078M27,-,42,AS,adaptive,33,↑,up,↑,0.588747899979353,True,20,1,0,1
Y2-S2-078M27,-,43,AS,adaptive,46,→,right,→,0.6026112000690773,True,20,1,0,1
Y2-S2-078M27,-,44,AS,adaptive,47,↓,down,↓,1.0434013999765739,True,20,1,0,1
Y2-S2-078M27,-,45,AS,adaptive,34,↑,down,↓,0.4506610999815166,False,19,-1,1,2
Y2-S2-078M27,-,46,AS,adaptive,33,←,left,←,0.7368279999354854,True,20,-1,0,2
Y2-S2-078M27,-,47,AS,adaptive,28,↑,up,↑,0.6668983999406919,True,20,-1,0,2
Y2-S2-078M27,-,48,AS,adaptive,35,←,left,←,0.6170149000827223,True,20,1,1,3
Y2-S2-078M27,-,49,AS,adaptive,25,↓,up,↑,0.6880916999652982,False,19,-1,1,4
Y2-S2-078M27,1,50,PS,intra_train,27,↑,up,↑,0.49007129995152354,True,12,-,-,-
Y2-S2-078M27,1,51,PS,intra_train,38,→,right,→,0.47245030000340194,True,12,-,-,-
Y2-S2-078M27,1,52,PS,intra_train,34,↑,up,↑,1.07853439997416,True,12,-,-,-
Y2-S2-078M27,1,53,PS,intra_train,42,→,right,→,0.7408730000024661,True,12,-,-,-
Y2-S2-078M27,1,54,PS,intra_train,39,←,left,←,0.4234382000286132,True,12,-,-,-
Y2-S2-078M27,1,55,PS,exp,28,→,right,→,0.5169813999673352,True,8,0,0,0
Y2-S2-078M27,1,56,PS,exp,48,↑,up,↑,0.4135443000122905,True,8,0,0,0
Y2-S2-078M27,1,57,PS,exp,46,→,right,→,0.5214812000049278,True,8,1,0,0
Y2-S2-078M27,1,58,PS,exp,25,↑,right,→,0.8945185999618843,False,7,-1,1,1
Y2-S2-078M27,1,59,PS,exp,48,←,up,↑,0.833453799947165,False,8,-1,0,1
Y2-S2-078M27,1,60,PS,exp,28,↑,up,↑,0.4149894000729546,True,9,-1,0,1
Y2-S2-078M27,1,61,PS,exp,49,←,left,←,0.47077250003349036,True,9,-1,0,1
Y2-S2-078M27,1,62,PS,exp,31,↓,up,↑,0.6834211000241339,False,9,-1,0,1
Y2-S2-078M27,1,63,PS,exp,41,←,left,←,0.4209775999188423,True,10,-1,0,1
Y2-S2-078M27,1,64,PS,exp,29,→,left,←,0.7854345999658108,False,10,-1,0,1
Y2-S2-078M27,1,65,PS,exp,44,↑,up,↑,0.4023757999530062,True,11,-1,0,1
Y2-S2-078M27,1,66,PS,exp,48,↓,up,↑,0.8508826999459416,False,11,-1,0,1
Y2-S2-078M27,1,67,PS,exp,33,↑,up,↑,0.5329949000151828,True,12,-1,0,1
Y2-S2-078M27,1,68,PS,exp,27,→,right,→,0.5838932000333443,True,12,-1,0,1
Y2-S2-078M27,1,69,PS,exp,30,↑,up,↑,0.49910609994549304,True,12,1,1,2
Y2-S2-078M27,1,70,PS,exp,49,↓,down,↓,0.9751157000428066,True,11,1,0,2
Y2-S2-078M27,1,71,PS,exp,45,←,left,←,0.5402236999943852,True,11,1,0,2
Y2-S2-078M27,1,72,PS,exp,41,↓,right,→,0.9357283998979256,False,11,-1,1,3
Y2-S2-078M27,1,73,PS,exp,34,←,left,←,0.5821061000460759,True,12,-1,0,3
Y2-S2-078M27,1,74,PS,exp,37,↑,up,↑,0.4929029999766499,True,12,-1,0,3
Y2-S2-078M27,1,75,PS,exp,39,←,left,←,0.6710261999396607,True,12,1,1,4
Y2-S2-078M27,1,76,PS,exp,44,↓,right,→,0.9075828000204638,False,11,-1,1,5
Y2-S2-078M27,1,77,PS,exp,27,→,right,→,0.43188219994772226,True,12,-1,0,5
Y2-S2-078M27,1,78,PS,exp,29,↑,up,↑,0.4955119000514969,True,12,-1,0,5
Y2-S2-078M27,1,79,PS,exp,48,→,right,→,0.5505460000131279,True,12,1,1,6
Y2-S2-078M27,1,80,PS,exp,41,↓,down,↓,0.7212727000005543,True,11,1,0,6
Y2-S2-078M27,1,81,PS,exp,36,↑,down,↓,0.5026137999957427,False,11,-1,1,7
Y2-S2-078M27,1,82,PS,exp,40,→,down,↓,0.5605611000210047,False,12,-1,0,7
Y2-S2-078M27,1,83,PS,exp,34,←,right,→,0.8768983000190929,False,13,-1,0,7
Y2-S2-078M27,1,84,PS,exp,28,↓,down,↓,0.4597209000494331,True,14,-1,0,7
Y2-S2-078M27,1,85,PS,exp,36,→,right,→,0.5331819999264553,True,14,-1,0,7
Y2-S2-078M27,1,86,PS,exp,29,←,left,←,0.5570146000245586,True,14,1,1,8
Y2-S2-078M27,1,87,PS,exp,28,↑,up,↑,0.4702428999589756,True,13,1,0,8
Y2-S2-078M27,1,88,PS,exp,37,↓,down,↓,0.5874223000137135,True,13,1,0,8
Y2-S2-078M27,1,89,PS,exp,42,→,right,→,0.5266728999558836,True,13,1,0,8
Y2-S2-078M27,1,90,PS,exp,29,←,right,→,0.6116899999324232,False,12,-1,1,9
Y2-S2-078M27,1,91,PS,exp,50,↑,up,↑,0.6558493999764323,True,13,-1,0,9
Y2-S2-078M27,1,92,PS,exp,29,↓,down,↓,0.5966863000066951,True,13,-1,0,9
Y2-S2-078M27,1,93,PS,exp,39,↑,down,↓,0.6067163000116125,False,13,-1,0,9
Y2-S2-078M27,1,94,PS,exp,26,↓,down,↓,0.8016448999987915,True,14,-1,0,9
Y2-S2-078M27,1,95,PS,exp,25,→,right,→,0.5096596999792382,True,14,-1,0,9
Y2-S2-078M27,1,96,PS,exp,40,↓,down,↓,1.229602999985218,True,14,1,1,10
Y2-S2-078M27,1,97,PS,exp,40,↑,up,↑,0.6048709000460804,True,13,1,0,10
Y2-S2-078M27,1,98,PS,exp,38,↓,down,↓,0.6513153000269085,True,13,1,0,10
Y2-S2-078M27,1,99,PS,exp,30,→,right,→,0.48387709993403405,True,13,1,0,10
Y2-S2-078M27,1,100,PS,exp,48,↓,down,↓,0.6238578000338748,True,12,1,0,10
Y2-S2-078M27,1,101,PS,exp,29,↑,up,↑,0.4920295999618247,True,12,1,0,10
Y2-S2-078M27,1,102,PS,exp,33,↓,up,↑,0.9270274000009522,False,12,-1,1,11
Y2-S2-078M27,1,103,PS,exp,39,↑,up,↑,0.8378319999901578,True,13,-1,0,11
Y2-S2-078M27,1,104,PS,exp,34,→,right,→,0.5124852999579161,True,13,-1,0,11
Y2-S2-078M27,1,105,PS,exp,45,↓,down,↓,0.6601456999778748,True,13,1,1,12
Y2-S2-078M27,1,106,PS,exp,40,←,left,←,0.6105436000507325,True,12,1,0,12
Y2-S2-078M27,1,107,PS,exp,39,→,right,→,0.9885766999796033,True,12,1,0,12
Y2-S2-078M27,1,108,PS,exp,48,↓,down,↓,0.6406412000069395,True,12,1,0,12
Y2-S2-078M27,1,109,PS,exp,37,→,right,→,0.9735285999486223,True,11,1,0,12
Y2-S2-078M27,1,110,PS,exp,50,←,left,←,0.6027460000477731,True,11,1,0,12
Y2-S2-078M27,1,111,PS,exp,47,→,right,→,0.4720121999271214,True,11,1,0,12
Y2-S2-078M27,1,112,PS,exp,46,↑,down,↓,0.5539418999105692,False,10,-1,1,13
Y2-S2-078M27,1,113,PS,exp,31,←,left,←,0.39435499999672174,True,11,-1,0,13
Y2-S2-078M27,1,114,PS,exp,45,↓,down,↓,0.49774250003974885,True,11,-1,0,13
Y2-S2-078M27,1,115,PS,exp,30,→,right,→,0.4594131000339985,True,11,1,1,14
Y2-S2-078M27,1,116,PS,exp,25,←,right,→,0.5512806000187993,False,10,-1,1,15
Y2-S2-078M27,1,117,PS,exp,37,↓,left,←,0.7816061000339687,False,11,-1,0,15
Y2-S2-078M27,1,118,PS,exp,36,←,left,←,0.48248709994368255,True,12,-1,0,15
Y2-S2-078M27,1,119,PS,exp,27,↓,down,↓,0.715576900052838,True,12,-1,0,15
Y2-S2-078M27,1,120,PS,exp,38,↑,up,↑,0.4483244000002742,True,12,1,1,16
Y2-S2-078M27,2,121,AS,intra_train,33,←,left,←,0.43458429991733283,True,30,-,-,-
Y2-S2-078M27,2,122,AS,intra_train,44,→,right,→,0.5675323999021202,True,30,-,-,-
Y2-S2-078M27,2,123,AS,intra_train,44,↑,up,↑,0.4339826999930665,True,30,-,-,-
Y2-S2-078M27,2,124,AS,intra_train,28,→,right,→,0.6005072999978438,True,30,-,-,-
Y2-S2-078M27,2,125,AS,intra_train,29,↑,up,↑,0.6342068000230938,True,30,-,-,-
Y2-S2-078M27,2,126,AS,exp,45,→,right,→,0.5084739999147132,True,20,0,0,0
Y2-S2-078M27,2,127,AS,exp,35,↑,up,↑,1.0918968999758363,True,20,0,0,0
Y2-S2-078M27,2,128,AS,exp,43,→,right,→,0.5590595999965444,True,20,1,0,0
Y2-S2-078M27,2,129,AS,exp,31,↓,down,↓,0.7136520999483764,True,19,1,0,0
Y2-S2-078M27,2,130,AS,exp,31,→,right,→,0.3507272000424564,True,19,1,0,0
Y2-S2-078M27,2,131,AS,exp,39,←,left,←,0.6647852999158204,True,19,1,0,0
Y2-S2-078M27,2,132,AS,exp,49,↓,down,↓,0.6672201999463141,True,18,1,0,0
Y2-S2-078M27,2,133,AS,exp,32,↑,up,↑,0.5119578000158072,True,18,1,0,0
Y2-S2-078M27,2,134,AS,exp,37,↓,down,↓,0.7802331999409944,True,18,1,0,0
Y2-S2-078M27,2,135,AS,exp,41,→,right,→,0.5613113000290468,True,17,1,0,0
Y2-S2-078M27,2,136,AS,exp,50,←,left,←,0.49793830001726747,True,17,1,0,0
Y2-S2-078M27,2,137,AS,exp,35,→,right,→,0.9672904999461025,True,17,1,0,0
Y2-S2-078M27,2,138,AS,exp,31,↑,up,↑,0.6980151999741793,True,16,1,0,0
Y2-S2-078M27,2,139,AS,exp,29,→,right,→,0.4967049000551924,True,16,1,0,0
Y2-S2-078M27,2,140,AS,exp,42,←,right,→,0.6669280000496656,False,16,-1,1,1
Y2-S2-078M27,2,141,AS,exp,33,↑,up,↑,0.638448299956508,True,17,-1,0,1
Y2-S2-078M27,2,142,AS,exp,50,←,left,←,0.6420558000681922,True,17,-1,0,1
Y2-S2-078M27,2,143,AS,exp,37,↑,up,↑,1.2646333000157028,True,17,1,1,2
Y2-S2-078M27,2,144,AS,exp,30,←,no_key,no_letter,-1.0,False,16,-1,1,3
Y2-S2-078M27,2,145,AS,exp,32,→,right,→,0.5478839999996126,True,17,-1,0,3
Y2-S2-078M27,2,146,AS,exp,34,↓,down,↓,0.8889242999721318,True,17,-1,0,3
Y2-S2-078M27,2,147,AS,exp,28,→,right,→,0.4554026999976486,True,17,1,1,4
Y2-S2-078M27,2,148,AS,exp,28,↑,up,↑,0.4842489999718964,True,16,1,0,4
Y2-S2-078M27,2,149,AS,exp,31,←,left,←,0.6034526999574155,True,16,1,0,4
Y2-S2-078M27,2,150,AS,exp,47,↓,down,↓,0.5896937999641523,True,16,1,0,4
Y2-S2-078M27,2,151,AS,exp,39,↑,down,↓,0.7247104999842122,False,15,-1,1,5
Y2-S2-078M27,2,152,AS,exp,30,→,right,→,0.5491236000088975,True,16,-1,0,5
Y2-S2-078M27,2,153,AS,exp,42,←,left,←,0.47598690004087985,True,16,-1,0,5
Y2-S2-078M27,2,154,AS,exp,36,↑,up,↑,0.5596459000371397,True,16,1,1,6
Y2-S2-078M27,2,155,AS,exp,42,←,left,←,1.5971928000217304,True,15,1,0,6
Y2-S2-078M27,2,156,AS,exp,32,→,right,→,1.0080084999790415,True,15,1,0,6
Y2-S2-078M27,2,157,AS,exp,32,↓,down,↓,1.2835229999618605,True,15,1,0,6
Y2-S2-078M27,2,158,AS,exp,25,→,right,→,0.666876999894157,True,14,1,0,6
Y2-S2-078M27,2,159,AS,exp,42,↓,down,↓,0.5752465999685228,True,14,1,0,6
Y2-S2-078M27,2,160,AS,exp,27,↑,down,↓,0.8856583000160754,False,14,-1,1,7
Y2-S2-078M27,2,161,AS,exp,50,←,left,←,0.6800832999870181,True,15,-1,0,7
Y2-S2-078M27,2,162,AS,exp,27,→,right,→,0.6392242000438273,True,15,-1,0,7
Y2-S2-078M27,2,163,AS,exp,45,↓,down,↓,0.7311817000154406,True,15,1,1,8
Y2-S2-078M27,2,164,AS,exp,41,↑,up,↑,0.46816789999138564,True,14,1,0,8
Y2-S2-078M27,2,165,AS,exp,35,↓,up,↑,0.6709546000929549,False,14,-1,1,9
Y2-S2-078M27,2,166,AS,exp,39,←,left,←,0.42628390004392713,True,15,-1,0,9
Y2-S2-078M27,2,167,AS,exp,49,↓,down,↓,1.164112800033763,True,15,-1,0,9
Y2-S2-078M27,2,168,AS,exp,43,→,down,↓,0.7482174000469968,False,15,-1,0,9
Y2-S2-078M27,2,169,AS,exp,40,↓,down,↓,0.5508555999258533,True,16,-1,0,9
Y2-S2-078M27,2,170,AS,exp,36,→,right,→,0.6308703999966383,True,16,-1,0,9
Y2-S2-078M27,2,171,AS,exp,29,↓,down,↓,0.7275866999989375,True,16,1,1,10
Y2-S2-078M27,2,172,AS,exp,33,↑,down,↓,0.7169885999755934,False,15,-1,1,11
Y2-S2-078M27,2,173,AS,exp,25,→,right,→,0.5367921000579372,True,16,-1,0,11
Y2-S2-078M27,2,174,AS,exp,44,↓,down,↓,0.8386344999307767,True,16,-1,0,11
Y2-S2-078M27,2,175,AS,exp,49,←,no_key,no_letter,-1.0,False,16,-1,0,11
Y2-S2-078M27,2,176,AS,exp,29,→,right,→,0.36736160004511476,True,17,-1,0,11
Y2-S2-078M27,2,177,AS,exp,28,↑,down,↓,0.8734961999580264,False,17,-1,0,11
Y2-S2-078M27,2,178,AS,exp,44,←,left,←,0.6281759000848979,True,18,-1,0,11
Y2-S2-078M27,2,179,AS,exp,25,↑,right,→,0.7696189999114722,False,18,-1,0,11
Y2-S2-078M27,2,180,AS,exp,31,←,right,→,0.5971305000130087,False,19,-1,0,11
Y2-S2-078M27,2,181,AS,exp,40,↓,down,↓,1.5958647000370547,True,20,-1,0,11
Y2-S2-078M27,2,182,AS,exp,29,←,left,←,0.6358535999897867,True,20,-1,0,11
Y2-S2-078M27,2,183,AS,exp,40,↑,up,↑,0.6262771999463439,True,20,1,1,12
Y2-S2-078M27,2,184,AS,exp,50,→,right,→,0.6171013000421226,True,19,1,0,12
Y2-S2-078M27,2,185,AS,exp,36,↑,down,↓,0.7735230000689626,False,19,-1,1,13
Y2-S2-078M27,2,186,AS,exp,28,←,left,←,0.6040847999975085,True,20,-1,0,13
Y2-S2-078M27,2,187,AS,exp,26,→,right,→,0.5519421000499278,True,20,-1,0,13
Y2-S2-078M27,2,188,AS,exp,47,←,right,→,0.6620062000583857,False,20,-1,0,13
Y2-S2-078M27,2,189,AS,exp,35,↓,up,↑,0.4504879000596702,False,21,-1,0,13
Y2-S2-078M27,2,190,AS,exp,32,↑,up,↑,0.5839268999407068,True,22,-1,0,13
Y2-S2-078M27,2,191,AS,exp,47,←,left,←,0.6921465999912471,True,22,-1,0,13
Y2-S2-078M27,2,192,AS,exp,28,↑,up,↑,0.6276249999646097,True,22,1,1,14
Y2-S2-078M27,2,193,AS,exp,25,↓,down,↓,0.7422231000382453,True,21,1,0,14
Y2-S2-078M27,2,194,AS,exp,25,↑,up,↑,0.7537650999147445,True,21,1,0,14
Y2-S2-078M27,2,195,AS,exp,42,↓,down,↓,0.7424246999435127,True,21,1,0,14
Y2-S2-078M27,2,196,AS,exp,46,←,left,←,0.6349709000205621,True,20,1,0,14
Y2-S2-078M27,2,197,AS,exp,26,→,right,→,0.400495000067167,True,20,1,0,14
Y2-S2-078M27,2,198,AS,exp,46,←,right,→,0.7899552000453696,False,20,-1,1,15
Y2-S2-078M27,2,199,AS,exp,31,↑,up,↑,0.7584359999746084,True,21,-1,0,15
Y2-S2-078M27,2,200,AS,exp,28,←,right,→,0.6816618999000639,False,21,-1,0,15
Y2-S2-078M27,2,201,AS,exp,25,↑,up,↑,1.5059368999209255,True,22,-1,0,15
Y2-S2-078M27,2,202,AS,exp,42,→,right,→,0.6659953999333084,True,22,-1,0,15
Y2-S2-078M27,2,203,AS,exp,33,←,left,←,0.6518207000335678,True,22,1,1,16
Y2-S2-078M27,3,204,AS,intra_train,50,↑,up,↑,0.38464109995402396,True,30,-,-,-
Y2-S2-078M27,3,205,AS,intra_train,40,↓,down,↓,0.8265943999867886,True,30,-,-,-
Y2-S2-078M27,3,206,AS,intra_train,26,→,right,→,0.5341680999845266,True,30,-,-,-
Y2-S2-078M27,3,207,AS,intra_train,25,↓,no_key,no_letter,-1.0,False,30,-,-,-
Y2-S2-078M27,3,208,AS,intra_train,40,↑,up,↑,0.45128380006644875,True,30,-,-,-
Y2-S2-078M27,3,209,AS,exp,49,↓,down,↓,0.5662439999869093,True,20,0,0,0
Y2-S2-078M27,3,210,AS,exp,46,→,right,→,0.45079880009870976,True,20,0,0,0
Y2-S2-078M27,3,211,AS,exp,25,←,left,←,0.5971103999763727,True,20,1,0,0
Y2-S2-078M27,3,212,AS,exp,26,→,right,→,0.6367352999513969,True,19,1,0,0
Y2-S2-078M27,3,213,AS,exp,35,↓,down,↓,0.603014099993743,True,19,1,0,0
Y2-S2-078M27,3,214,AS,exp,26,↑,up,↑,0.6932704000500962,True,19,1,0,0
Y2-S2-078M27,3,215,AS,exp,26,→,right,→,1.2702702999813482,True,18,1,0,0
Y2-S2-078M27,3,216,AS,exp,47,↑,up,↑,0.7419342999346554,True,18,1,0,0
Y2-S2-078M27,3,217,AS,exp,46,→,right,→,0.7388967999722809,True,18,1,0,0
Y2-S2-078M27,3,218,AS,exp,31,←,left,←,0.7348904999671504,True,17,1,0,0
Y2-S2-078M27,3,219,AS,exp,38,↓,down,↓,1.3158592999679968,True,17,1,0,0
Y2-S2-078M27,3,220,AS,exp,26,→,right,→,0.5671594000887126,True,17,1,0,0
Y2-S2-078M27,3,221,AS,exp,50,↑,up,↑,0.5497345000039786,True,16,1,0,0
Y2-S2-078M27,3,222,AS,exp,32,↓,up,↑,0.9188079999294132,False,16,-1,1,1
Y2-S2-078M27,3,223,AS,exp,27,←,left,←,0.7485956000164151,True,17,-1,0,1
Y2-S2-078M27,3,224,AS,exp,42,↓,down,↓,0.7258992000715807,True,17,-1,0,1
Y2-S2-078M27,3,225,AS,exp,29,→,right,→,0.6503192000091076,True,17,1,1,2
Y2-S2-078M27,3,226,AS,exp,48,↓,down,↓,0.5632671000203118,True,16,1,0,2
Y2-S2-078M27,3,227,AS,exp,45,↑,right,→,1.1566669000312686,False,16,-1,1,3
Y2-S2-078M27,3,228,AS,exp,36,→,right,→,0.5835312999552116,True,17,-1,0,3
Y2-S2-078M27,3,229,AS,exp,45,↓,down,↓,0.8750845000613481,True,17,-1,0,3
Y2-S2-078M27,3,230,AS,exp,26,→,right,→,0.66411709995009,True,17,1,1,4
Y2-S2-078M27,3,231,AS,exp,42,↑,up,↑,0.707536100060679,True,16,1,0,4
Y2-S2-078M27,3,232,AS,exp,45,←,left,←,0.6026879999553785,True,16,1,0,4
Y2-S2-078M27,3,233,AS,exp,40,↑,up,↑,0.5592745000030845,True,16,1,0,4
Y2-S2-078M27,3,234,AS,exp,29,↓,down,↓,0.7174612000817433,True,15,1,0,4
Y2-S2-078M27,3,235,AS,exp,28,↑,up,↑,0.6931709999917075,True,15,1,0,4
Y2-S2-078M27,3,236,AS,exp,34,↓,left,←,0.8014839999377728,False,15,-1,1,5
Y2-S2-078M27,3,237,AS,exp,47,↑,up,↑,0.5439983999822289,True,16,-1,0,5
Y2-S2-078M27,3,238,AS,exp,37,→,right,→,0.48293389996979386,True,16,-1,0,5
Y2-S2-078M27,3,239,AS,exp,42,↑,no_key,no_letter,-1.0,False,16,-1,0,5
Y2-S2-078M27,3,240,AS,exp,26,→,right,→,0.5974474999820814,True,17,-1,0,5
Y2-S2-078M27,3,241,AS,exp,35,←,left,←,0.4678042000159621,True,17,-1,0,5
Y2-S2-078M27,3,242,AS,exp,40,↓,up,↑,1.1586899999529123,False,17,-1,0,5
Y2-S2-078M27,3,243,AS,exp,34,→,no_key,no_letter,-1.0,False,18,-1,0,5
Y2-S2-078M27,3,244,AS,exp,28,←,left,←,0.6721462000859901,True,19,-1,0,5
Y2-S2-078M27,3,245,AS,exp,44,→,right,→,0.576656199991703,True,19,-1,0,5
Y2-S2-078M27,3,246,AS,exp,45,←,left,←,1.3600117999594659,True,19,1,1,6
Y2-S2-078M27,3,247,AS,exp,29,↓,left,←,0.9501444000052288,False,18,-1,1,7
Y2-S2-078M27,3,248,AS,exp,26,←,left,←,0.5028450000099838,True,19,-1,0,7
Y2-S2-078M27,3,249,AS,exp,49,↓,down,↓,0.641902899951674,True,19,-1,0,7
Y2-S2-078M27,3,250,AS,exp,29,→,left,←,0.45054840005468577,False,19,-1,0,7
Y2-S2-078M27,3,251,AS,exp,32,←,left,←,0.5559389999834821,True,20,-1,0,7
Y2-S2-078M27,3,252,AS,exp,28,↓,down,↓,0.7934649999951944,True,20,-1,0,7
Y2-S2-078M27,3,253,AS,exp,28,←,left,←,0.530000799917616,True,20,1,1,8
Y2-S2-078M27,3,254,AS,exp,41,↓,down,↓,0.6930829000193626,True,19,1,0,8
Y2-S2-078M27,3,255,AS,exp,34,→,right,→,0.6332369000883773,True,19,1,0,8
Y2-S2-078M27,3,256,AS,exp,45,↓,down,↓,0.8006642999825999,True,19,1,0,8
Y2-S2-078M27,3,257,AS,exp,25,←,right,→,0.5800856000278145,False,18,-1,1,9
Y2-S2-078M27,3,258,AS,exp,29,→,right,→,0.6357412999495864,True,19,-1,0,9
Y2-S2-078M27,3,259,AS,exp,42,←,left,←,0.9312061000382528,True,19,-1,0,9
Y2-S2-078M27,3,260,AS,exp,41,↑,up,↑,0.5638297999976203,True,19,1,1,10
Y2-S2-078M27,3,261,AS,exp,47,→,right,→,0.5393556000199169,True,18,1,0,10
Y2-S2-078M27,3,262,AS,exp,42,↑,up,↑,0.7938336000079289,True,18,1,0,10
Y2-S2-078M27,3,263,AS,exp,47,←,left,←,0.561360300052911,True,18,1,0,10
Y2-S2-078M27,3,264,AS,exp,35,↓,up,↑,1.0560722999507561,False,17,-1,1,11
Y2-S2-078M27,3,265,AS,exp,27,←,left,←,0.5787477999692783,True,18,-1,0,11
Y2-S2-078M27,3,266,AS,exp,26,↓,down,↓,0.6371492000762373,True,18,-1,0,11
Y2-S2-078M27,3,267,AS,exp,39,↑,down,↓,0.8160008999984711,False,18,-1,0,11
Y2-S2-078M27,3,268,AS,exp,35,←,left,←,0.5183115999680012,True,19,-1,0,11
Y2-S2-078M27,3,269,AS,exp,29,→,right,→,0.5260295000625774,True,19,-1,0,11
Y2-S2-078M27,3,270,AS,exp,38,↓,down,↓,0.6645226000109687,True,19,1,1,12
Y2-S2-078M27,3,271,AS,exp,48,→,right,→,0.5984952999278903,True,18,1,0,12
Y2-S2-078M27,3,272,AS,exp,30,↓,down,↓,1.0084966999711469,True,18,1,0,12
Y2-S2-078M27,3,273,AS,exp,41,↑,up,↑,0.6282061999663711,True,18,1,0,12
Y2-S2-078M27,3,274,AS,exp,34,↓,down,↓,0.7773762000724673,True,17,1,0,12
Y2-S2-078M27,3,275,AS,exp,44,→,right,→,0.47262010001577437,True,17,1,0,12
Y2-S2-078M27,3,276,AS,exp,38,↓,down,↓,0.5001329999649897,True,17,1,0,12
Y2-S2-078M27,3,277,AS,exp,26,↑,no_key,no_letter,-1.0,False,16,-1,1,13
Y2-S2-078M27,3,278,AS,exp,44,→,right,→,0.7561035000253469,True,17,-1,0,13
Y2-S2-078M27,3,279,AS,exp,33,←,right,→,0.5088917000684887,False,17,-1,0,13
Y2-S2-078M27,3,280,AS,exp,26,↓,down,↓,0.7666082000359893,True,18,-1,0,13
Y2-S2-078M27,3,281,AS,exp,27,←,left,←,1.3696838000323623,True,18,-1,0,13
Y2-S2-078M27,3,282,AS,exp,30,↓,up,↑,0.7663368999492377,False,18,-1,0,13
Y2-S2-078M27,3,283,AS,exp,29,←,left,←,0.6620381000684574,True,19,-1,0,13
Y2-S2-078M27,3,284,AS,exp,36,→,right,→,0.5034435000270605,True,19,-1,0,13
Y2-S2-078M27,3,285,AS,exp,47,↓,down,↓,0.5898446999490261,True,19,1,1,14
Y2-S2-078M27,3,286,AS,exp,45,→,down,↓,0.7695922000566497,False,18,-1,1,15
Y2-S2-078M27,3,287,AS,exp,36,↓,down,↓,0.6942252999870107,True,19,-1,0,15
Y2-S2-078M27,3,288,AS,exp,25,→,right,→,0.417287899996154,True,19,-1,0,15
Y2-S2-078M27,3,289,AS,exp,38,↓,down,↓,1.011600499972701,True,19,1,1,16
Y2-S2-078M27,4,290,PS,intra_train,31,↑,up,↑,0.5294145999941975,True,12,-,-,-
Y2-S2-078M27,4,291,PS,intra_train,38,→,right,→,0.5055415999377146,True,12,-,-,-
Y2-S2-078M27,4,292,PS,intra_train,29,↑,up,↑,0.5038976999931037,True,12,-,-,-
Y2-S2-078M27,4,293,PS,intra_train,26,↓,down,↓,0.6547580000478774,True,12,-,-,-
Y2-S2-078M27,4,294,PS,intra_train,37,↑,up,↑,0.4876178000122309,True,12,-,-,-
Y2-S2-078M27,4,295,PS,exp,35,↓,down,↓,0.4987019000109285,True,8,0,0,0
Y2-S2-078M27,4,296,PS,exp,41,←,left,←,0.41561620007269084,True,8,0,0,0
Y2-S2-078M27,4,297,PS,exp,35,↓,up,↑,0.6757110999897122,False,8,-1,0,0
Y2-S2-078M27,4,298,PS,exp,47,←,left,←,0.6890230000717565,True,9,-1,0,0
Y2-S2-078M27,4,299,PS,exp,31,↑,up,↑,0.7192558998940513,True,9,-1,0,0
Y2-S2-078M27,4,300,PS,exp,37,↓,right,→,0.5866167999338359,False,9,-1,0,0
Y2-S2-078M27,4,301,PS,exp,43,←,right,→,0.44017010007519275,False,10,-1,0,0
Y2-S2-078M27,4,302,PS,exp,27,↑,up,↑,0.5283681999426335,True,11,-1,0,0
Y2-S2-078M27,4,303,PS,exp,39,↓,up,↑,0.629477999988012,False,11,-1,0,0
Y2-S2-078M27,4,304,PS,exp,26,→,right,→,0.4250088999979198,True,12,-1,0,0
Y2-S2-078M27,4,305,PS,exp,45,↓,down,↓,0.6379572000587359,True,12,-1,0,0
Y2-S2-078M27,4,306,PS,exp,34,←,left,←,0.5919108000816777,True,12,1,1,1
Y2-S2-078M27,4,307,PS,exp,43,↓,down,↓,0.5805787000572309,True,11,1,0,1
Y2-S2-078M27,4,308,PS,exp,25,↑,up,↑,1.0023002000525594,True,11,1,0,1
Y2-S2-078M27,4,309,PS,exp,33,↓,down,↓,0.5599043000256643,True,11,1,0,1
Y2-S2-078M27,4,310,PS,exp,34,←,right,→,0.6627072000410408,False,10,-1,1,2
Y2-S2-078M27,4,311,PS,exp,42,↓,down,↓,0.636687699938193,True,11,-1,0,2
Y2-S2-078M27,4,312,PS,exp,33,←,right,→,0.5626664999872446,False,11,-1,0,2
Y2-S2-078M27,4,313,PS,exp,44,→,right,→,0.5500517999753356,True,12,-1,0,2
Y2-S2-078M27,4,314,PS,exp,25,←,left,←,0.5779260999988765,True,12,-1,0,2
Y2-S2-078M27,4,315,PS,exp,29,↑,right,→,0.9741103999549523,False,12,-1,0,2
Y2-S2-078M27,4,316,PS,exp,47,↓,up,↑,1.0612733999732882,False,13,-1,0,2
Y2-S2-078M27,4,317,PS,exp,48,↑,down,↓,0.8424086000304669,False,14,-1,0,2
Y2-S2-078M27,4,318,PS,exp,40,→,right,→,0.6347798999631777,True,15,-1,0,2
Y2-S2-078M27,4,319,PS,exp,30,↓,down,↓,0.4402921999571845,True,15,-1,0,2
Y2-S2-078M27,4,320,PS,exp,31,←,left,←,0.5647493000142276,True,15,1,1,3
Y2-S2-078M27,4,321,PS,exp,34,→,right,→,0.5287733000004664,True,14,1,0,3
Y2-S2-078M27,4,322,PS,exp,31,↓,left,←,0.9479152000276372,False,14,-1,1,4
Y2-S2-078M27,4,323,PS,exp,32,↑,up,↑,0.4774097999325022,True,15,-1,0,4
Y2-S2-078M27,4,324,PS,exp,30,→,right,→,1.2458877000026405,True,15,-1,0,4
Y2-S2-078M27,4,325,PS,exp,25,↓,down,↓,0.623086899984628,True,15,1,1,5
Y2-S2-078M27,4,326,PS,exp,32,↑,up,↑,0.629124499973841,True,14,1,0,5
Y2-S2-078M27,4,327,PS,exp,31,←,right,→,0.791047599981539,False,14,-1,1,6
Y2-S2-078M27,4,328,PS,exp,38,↑,up,↑,0.545022499980405,True,15,-1,0,6
Y2-S2-078M27,4,329,PS,exp,46,→,right,→,0.4425989000592381,True,15,-1,0,6
Y2-S2-078M27,4,330,PS,exp,27,↓,down,↓,0.6259071999229491,True,15,1,1,7
Y2-S2-078M27,4,331,PS,exp,39,→,right,→,0.553043800056912,True,14,1,0,7
Y2-S2-078M27,4,332,PS,exp,39,←,left,←,0.6474596998887137,True,14,1,0,7
Y2-S2-078M27,4,333,PS,exp,37,↓,down,↓,0.6209969000192359,True,14,1,0,7
Y2-S2-078M27,4,334,PS,exp,33,↑,down,↓,0.48355060000903904,False,13,-1,1,8
Y2-S2-078M27,4,335,PS,exp,36,→,right,→,1.1754776000743732,True,14,-1,0,8
Y2-S2-078M27,4,336,PS,exp,37,↑,down,↓,0.6512101999251172,False,14,-1,0,8
Y2-S2-078M27,4,337,PS,exp,40,←,left,←,0.49813630001153797,True,15,-1,0,8
Y2-S2-078M27,4,338,PS,exp,49,→,right,→,0.5650830999948084,True,15,-1,0,8
Y2-S2-078M27,4,339,PS,exp,36,←,left,←,0.5664411999750882,True,15,1,1,9
Y2-S2-078M27,4,340,PS,exp,26,↓,up,↑,0.9134818000020459,False,14,-1,1,10
Y2-S2-078M27,4,341,PS,exp,25,↑,right,→,1.0333300000056624,False,15,-1,0,10
Y2-S2-078M27,4,342,PS,exp,39,→,right,→,0.5757066999794915,True,16,-1,0,10
Y2-S2-078M27,4,343,PS,exp,33,↓,down,↓,0.6708795999875292,True,16,-1,0,10
Y2-S2-078M27,4,344,PS,exp,31,↑,up,↑,0.8347079999512061,True,16,1,1,11
Y2-S2-078M27,4,345,PS,exp,50,→,right,→,0.5207800000207499,True,15,1,0,11
Y2-S2-078M27,4,346,PS,exp,28,←,left,←,0.6334967999719083,True,15,1,0,11
Y2-S2-078M27,4,347,PS,exp,31,→,right,→,0.5438480000011623,True,15,1,0,11
Y2-S2-078M27,4,348,PS,exp,46,←,left,←,0.5729332000482827,True,14,1,0,11
Y2-S2-078M27,4,349,PS,exp,29,→,right,→,0.5759318999480456,True,14,1,0,11
Y2-S2-078M27,4,350,PS,exp,44,←,right,→,1.042165599996224,False,14,-1,1,12
Y2-S2-078M27,4,351,PS,exp,31,↓,left,←,1.212387299980037,False,15,-1,0,12
Y2-S2-078M27,4,352,PS,exp,26,←,right,→,0.7139731999486685,False,16,-1,0,12
Y2-S2-078M27,4,353,PS,exp,26,↑,up,↑,1.1139975999249145,True,17,-1,0,12
Y2-S2-078M27,4,354,PS,exp,29,←,right,→,0.49281550000887364,False,17,-1,0,12
Y2-S2-078M27,4,355,PS,exp,49,↑,up,↑,0.5257254999596626,True,18,-1,0,12
Y2-S2-078M27,4,356,PS,exp,31,←,left,←,0.4700821000151336,True,18,-1,0,12
Y2-S2-078M27,4,357,PS,exp,27,→,right,→,0.40088709990959615,True,18,1,1,13
Y2-S2-078M27,4,358,PS,exp,41,↑,up,↑,0.45439720002468675,True,17,1,0,13
Y2-S2-078M27,4,359,PS,exp,30,←,left,←,1.1098753999685869,True,17,1,0,13
Y2-S2-078M27,4,360,PS,exp,44,↓,up,↑,0.5334105000365525,False,17,-1,1,14
Y2-S2-078M27,4,361,PS,exp,35,←,left,←,0.4927569000283256,True,18,-1,0,14
Y2-S2-078M27,4,362,PS,exp,37,↑,up,↑,0.4869581999955699,True,18,-1,0,14
Y2-S2-078M27,4,363,PS,exp,30,↓,down,↓,0.6101838999893516,True,18,1,1,15
Y2-S2-078M27,4,364,PS,exp,37,←,left,←,0.4929451000643894,True,17,1,0,15
Y2-S2-078M27,4,365,PS,exp,49,↑,up,↑,0.4768830999964848,True,17,1,0,15
Y2-S2-078M27,4,366,PS,exp,44,←,left,←,0.5910670999437571,True,17,1,0,15
Y2-S2-078M27,4,367,PS,exp,45,↑,up,↑,0.4699629000388086,True,16,1,0,15
Y2-S2-078M27,4,368,PS,exp,33,→,right,→,0.40051950002089143,True,16,1,0,15
Y2-S2-078M27,4,369,PS,exp,36,↓,right,→,0.9802914999891073,False,16,-1,1,16
Y2-S2-078M27,5,370,PS,intra_train,35,←,left,←,0.5419540998991579,True,12,-,-,-
Y2-S2-078M27,5,371,PS,intra_train,49,↑,up,↑,0.521841200068593,True,12,-,-,-
Y2-S2-078M27,5,372,PS,intra_train,39,↓,down,↓,0.529904399998486,True,12,-,-,-
Y2-S2-078M27,5,373,PS,intra_train,44,→,right,→,0.4989007000112906,True,12,-,-,-
Y2-S2-078M27,5,374,PS,intra_train,30,↓,down,↓,0.46270020003430545,True,12,-,-,-
Y2-S2-078M27,5,375,PS,exp,46,←,left,←,0.6629470000043511,True,8,0,0,0
Y2-S2-078M27,5,376,PS,exp,26,↑,left,←,0.6861884999088943,False,8,-1,0,0
Y2-S2-078M27,5,377,PS,exp,37,↓,down,↓,0.7037933999672532,True,9,-1,0,0
Y2-S2-078M27,5,378,PS,exp,38,←,left,←,0.4347682000370696,True,9,-1,0,0
Y2-S2-078M27,5,379,PS,exp,29,→,down,↓,0.7512993999989703,False,9,-1,0,0
Y2-S2-078M27,5,380,PS,exp,42,←,left,←,0.6300356000429019,True,10,-1,0,0
Y2-S2-078M27,5,381,PS,exp,37,→,right,→,0.34608879999723285,True,10,-1,0,0
Y2-S2-078M27,5,382,PS,exp,50,↓,down,↓,0.4099388999165967,True,10,1,1,1
Y2-S2-078M27,5,383,PS,exp,37,↑,up,↑,0.5283994999481365,True,9,1,0,1
Y2-S2-078M27,5,384,PS,exp,49,←,left,←,0.48647590004839003,True,9,1,0,1
Y2-S2-078M27,5,385,PS,exp,38,↓,up,↑,0.7883956999285147,False,9,-1,1,2
Y2-S2-078M27,5,386,PS,exp,30,→,left,←,0.6517495000734925,False,10,-1,0,2
Y2-S2-078M27,5,387,PS,exp,46,↑,up,↑,0.4798921999754384,True,11,-1,0,2
Y2-S2-078M27,5,388,PS,exp,43,→,left,←,0.7066268000053242,False,11,-1,0,2
Y2-S2-078M27,5,389,PS,exp,28,↑,up,↑,0.3774427000898868,True,12,-1,0,2
Y2-S2-078M27,5,390,PS,exp,38,↓,up,↑,0.8068050000583753,False,12,-1,0,2
Y2-S2-078M27,5,391,PS,exp,48,←,left,←,0.5995201000478119,True,13,-1,0,2
Y2-S2-078M27,5,392,PS,exp,28,↓,down,↓,0.8136149999918416,True,13,-1,0,2
Y2-S2-078M27,5,393,PS,exp,37,←,left,←,0.5133039000211284,True,13,1,1,3
Y2-S2-078M27,5,394,PS,exp,40,→,right,→,0.4006424999097362,True,12,1,0,3
Y2-S2-078M27,5,395,PS,exp,25,↑,left,←,0.7696425999747589,False,12,-1,1,4
Y2-S2-078M27,5,396,PS,exp,48,→,right,→,0.7260335000464693,True,13,-1,0,4
Y2-S2-078M27,5,397,PS,exp,41,←,left,←,0.6071418999927118,True,13,-1,0,4
Y2-S2-078M27,5,398,PS,exp,27,↑,down,↓,1.3683926000958309,False,13,-1,0,4
Y2-S2-078M27,5,399,PS,exp,26,←,left,←,0.4136128999525681,True,14,-1,0,4
Y2-S2-078M27,5,400,PS,exp,47,↓,down,↓,0.6000834999140352,True,14,-1,0,4
Y2-S2-078M27,5,401,PS,exp,50,→,right,→,0.5807881000218913,True,14,1,1,5
Y2-S2-078M27,5,402,PS,exp,28,↑,up,↑,0.5171954999677837,True,13,1,0,5
Y2-S2-078M27,5,403,PS,exp,29,→,right,→,0.8229367999592796,True,13,1,0,5
Y2-S2-078M27,5,404,PS,exp,29,←,left,←,0.8835907999891788,True,13,1,0,5
Y2-S2-078M27,5,405,PS,exp,49,↑,up,↑,0.4286456999834627,True,12,1,0,5
Y2-S2-078M27,5,406,PS,exp,50,→,left,←,0.8176082000136375,False,12,-1,1,6
Y2-S2-078M27,5,407,PS,exp,30,↓,down,↓,0.6434202000964433,True,13,-1,0,6
Y2-S2-078M27,5,408,PS,exp,35,→,right,→,0.4545174000086263,True,13,-1,0,6
Y2-S2-078M27,5,409,PS,exp,33,←,left,←,0.5302922000410035,True,13,1,1,7
Y2-S2-078M27,5,410,PS,exp,43,↑,up,↑,0.43107639998197556,True,12,1,0,7
Y2-S2-078M27,5,411,PS,exp,41,→,right,→,0.4809869999298826,True,12,1,0,7
Y2-S2-078M27,5,412,PS,exp,29,↑,up,↑,0.4626560000469908,True,12,1,0,7
Y2-S2-078M27,5,413,PS,exp,47,↓,down,↓,0.47518990002572536,True,11,1,0,7
Y2-S2-078M27,5,414,PS,exp,35,→,right,→,0.48142149997875094,True,11,1,0,7
Y2-S2-078M27,5,415,PS,exp,45,↑,up,↑,0.5030541000887752,True,11,1,0,7
Y2-S2-078M27,5,416,PS,exp,25,←,left,←,0.624633300001733,True,10,1,0,7
Y2-S2-078M27,5,417,PS,exp,34,↓,right,→,0.8178156999638304,False,10,-1,1,8
Y2-S2-078M27,5,418,PS,exp,40,→,right,→,0.43310100003145635,True,11,-1,0,8
Y2-S2-078M27,5,419,PS,exp,28,↓,down,↓,0.5373356000054628,True,11,-1,0,8
Y2-S2-078M27,5,420,PS,exp,32,↑,up,↑,0.8473846999695525,True,11,1,1,9
Y2-S2-078M27,5,421,PS,exp,25,←,left,←,0.5007174999918789,True,10,1,0,9
Y2-S2-078M27,5,422,PS,exp,46,→,right,→,0.40584439993835986,True,10,1,0,9
Y2-S2-078M27,5,423,PS,exp,32,←,left,←,0.477410800056532,True,10,1,0,9
Y2-S2-078M27,5,424,PS,exp,43,→,right,→,0.39627760008443147,True,9,1,0,9
Y2-S2-078M27,5,425,PS,exp,34,↓,up,↑,0.7844638000242412,False,9,-1,1,10
Y2-S2-078M27,5,426,PS,exp,35,→,right,→,0.7801823999034241,True,10,-1,0,10
Y2-S2-078M27,5,427,PS,exp,47,←,left,←,0.4671963999280706,True,10,-1,0,10
Y2-S2-078M27,5,428,PS,exp,30,↓,down,↓,0.958212099969387,True,10,1,1,11
Y2-S2-078M27,5,429,PS,exp,39,↑,up,↑,0.40813830005936325,True,9,1,0,11
Y2-S2-078M27,5,430,PS,exp,33,←,left,←,0.47674680000636727,True,9,1,0,11
Y2-S2-078M27,5,431,PS,exp,29,↓,right,→,0.6002761999843642,False,9,-1,1,12
Y2-S2-078M27,5,432,PS,exp,29,←,left,←,0.47333339997567236,True,10,-1,0,12
Y2-S2-078M27,5,433,PS,exp,30,↓,up,↑,0.5971217000624165,False,10,-1,0,12
Y2-S2-078M27,5,434,PS,exp,30,↑,up,↑,0.40702110005076975,True,11,-1,0,12
Y2-S2-078M27,5,435,PS,exp,43,↓,down,↓,0.4702945000026375,True,11,-1,0,12
Y2-S2-078M27,5,436,PS,exp,42,↑,up,↑,0.5915396000491455,True,11,1,1,13
Y2-S2-078M27,5,437,PS,exp,45,←,right,→,0.4792701000114903,False,10,-1,1,14
Y2-S2-078M27,5,438,PS,exp,50,→,left,←,0.7119201000314206,False,11,-1,0,14
Y2-S2-078M27,5,439,PS,exp,32,↑,up,↑,0.6339886999921873,True,12,-1,0,14
Y2-S2-078M27,5,440,PS,exp,40,→,right,→,0.45826940005645156,True,12,-1,0,14
Y2-S2-078M27,5,441,PS,exp,31,←,right,→,0.4815571999642998,False,12,-1,0,14
Y2-S2-078M27,5,442,PS,exp,50,↑,up,↑,0.392617900040932,True,13,-1,0,14
Y2-S2-078M27,5,443,PS,exp,28,↓,down,↓,0.7141436999663711,True,13,-1,0,14
Y2-S2-078M27,5,444,PS,exp,30,←,right,→,0.46759550005663186,False,13,-1,0,14
Y2-S2-078M27,5,445,PS,exp,37,↑,up,↑,0.35051210003439337,True,14,-1,0,14
Y2-S2-078M27,5,446,PS,exp,34,↓,down,↓,0.43694959999993443,True,14,-1,0,14
Y2-S2-078M27,5,447,PS,exp,40,←,left,←,0.5201431000605226,True,14,1,1,15
Y2-S2-078M27,5,448,PS,exp,28,→,right,→,0.45190019998699427,True,13,1,0,15
Y2-S2-078M27,5,449,PS,exp,34,↑,up,↑,0.5379881999688223,True,13,1,0,15
Y2-S2-078M27,5,450,PS,exp,27,←,left,←,0.47428550000768155,True,13,1,0,15
Y2-S2-078M27,5,451,PS,exp,38,↓,down,↓,0.4895674000727013,True,12,1,0,15
Y2-S2-078M27,5,452,PS,exp,25,←,right,→,0.5161135999951512,False,12,-1,1,16
Y2-S2-078M27,6,453,AS,intra_train,49,↓,down,↓,0.6339271999895573,True,30,-,-,-
Y2-S2-078M27,6,454,AS,intra_train,35,→,right,→,0.6171625000424683,True,30,-,-,-
Y2-S2-078M27,6,455,AS,intra_train,32,←,down,↓,0.4175440000835806,False,30,-,-,-
Y2-S2-078M27,6,456,AS,intra_train,42,↑,up,↑,0.6004623000044376,True,30,-,-,-
Y2-S2-078M27,6,457,AS,intra_train,39,←,left,←,0.5509425000054762,True,30,-,-,-
Y2-S2-078M27,6,458,AS,exp,37,↑,up,↑,0.3840792999835685,True,20,0,0,0
Y2-S2-078M27,6,459,AS,exp,41,↓,down,↓,0.5821029000217095,True,20,0,0,0
Y2-S2-078M27,6,460,AS,exp,34,→,right,→,0.617604999919422,True,20,1,0,0
Y2-S2-078M27,6,461,AS,exp,44,↑,up,↑,1.4081970999250188,True,19,1,0,0
Y2-S2-078M27,6,462,AS,exp,35,→,right,→,0.6759523999644443,True,19,1,0,0
Y2-S2-078M27,6,463,AS,exp,34,←,left,←,0.5572090999921784,True,19,1,0,0
Y2-S2-078M27,6,464,AS,exp,39,→,left,←,0.5744790000608191,False,18,-1,1,1
Y2-S2-078M27,6,465,AS,exp,26,↓,down,↓,0.7147860999684781,True,19,-1,0,1
Y2-S2-078M27,6,466,AS,exp,36,→,right,→,0.40104489994701,True,19,-1,0,1
Y2-S2-078M27,6,467,AS,exp,30,←,right,→,0.4173293000785634,False,19,-1,0,1
Y2-S2-078M27,6,468,AS,exp,35,↑,up,↑,0.417567600030452,True,20,-1,0,1
Y2-S2-078M27,6,469,AS,exp,39,→,right,→,1.4245911000762135,True,20,-1,0,1
Y2-S2-078M27,6,470,AS,exp,28,↑,up,↑,0.5103247999213636,True,20,1,1,2
Y2-S2-078M27,6,471,AS,exp,35,←,left,←,0.6794298000168055,True,19,1,0,2
Y2-S2-078M27,6,472,AS,exp,47,↑,up,↑,0.4506071999203414,True,19,1,0,2
Y2-S2-078M27,6,473,AS,exp,29,↓,down,↓,0.6815137000521645,True,19,1,0,2
Y2-S2-078M27,6,474,AS,exp,27,←,right,→,0.5688079999526963,False,18,-1,1,3
Y2-S2-078M27,6,475,AS,exp,37,↑,up,↑,1.2156603001058102,True,19,-1,0,3
Y2-S2-078M27,6,476,AS,exp,36,←,left,←,0.561271799961105,True,19,-1,0,3
Y2-S2-078M27,6,477,AS,exp,41,↑,up,↑,0.6040286000352353,True,19,1,1,4
Y2-S2-078M27,6,478,AS,exp,40,→,left,←,0.486615699948743,False,18,-1,1,5
Y2-S2-078M27,6,479,AS,exp,27,←,right,→,0.5174860999686643,False,19,-1,0,5
Y2-S2-078M27,6,480,AS,exp,30,↓,down,↓,0.6295569000067189,True,20,-1,0,5
Y2-S2-078M27,6,481,AS,exp,43,←,left,←,0.40121879999060184,True,20,-1,0,5
Y2-S2-078M27,6,482,AS,exp,39,→,right,→,0.6054893999826163,True,20,1,1,6
Y2-S2-078M27,6,483,AS,exp,31,↓,down,↓,0.7163941999897361,True,19,1,0,6
Y2-S2-078M27,6,484,AS,exp,32,→,right,→,0.5544800000498071,True,19,1,0,6
Y2-S2-078M27,6,485,AS,exp,46,↓,down,↓,0.8019594999495894,True,19,1,0,6
Y2-S2-078M27,6,486,AS,exp,37,←,left,←,0.8048930999357253,True,18,1,0,6
Y2-S2-078M27,6,487,AS,exp,45,↑,up,↑,0.9191324999555945,True,18,1,0,6
Y2-S2-078M27,6,488,AS,exp,46,→,right,→,0.5006507999496534,True,18,1,0,6
Y2-S2-078M27,6,489,AS,exp,33,↓,down,↓,0.6413136000046507,True,17,1,0,6
Y2-S2-078M27,6,490,AS,exp,33,→,down,↓,0.8057950000511482,False,17,-1,1,7
Y2-S2-078M27,6,491,AS,exp,36,↓,down,↓,0.7238641999429092,True,18,-1,0,7
Y2-S2-078M27,6,492,AS,exp,49,→,right,→,0.5932999999495223,True,18,-1,0,7
Y2-S2-078M27,6,493,AS,exp,46,↓,down,↓,0.7244095000205562,True,18,1,1,8
Y2-S2-078M27,6,494,AS,exp,32,→,right,→,0.3836256000213325,True,17,1,0,8
Y2-S2-078M27,6,495,AS,exp,33,←,right,→,0.7026747999479994,False,17,-1,1,9
Y2-S2-078M27,6,496,AS,exp,34,↑,up,↑,0.6012341999448836,True,18,-1,0,9
Y2-S2-078M27,6,497,AS,exp,38,↓,down,↓,0.7141408999450505,True,18,-1,0,9
Y2-S2-078M27,6,498,AS,exp,37,←,left,←,0.6696448000147939,True,18,1,1,10
Y2-S2-078M27,6,499,AS,exp,41,→,right,→,0.6230747000081465,True,17,1,0,10
Y2-S2-078M27,6,500,AS,exp,40,↓,down,↓,0.5697339999023825,True,17,1,0,10
Y2-S2-078M27,6,501,AS,exp,25,←,left,←,0.5506638999795541,True,17,1,0,10
Y2-S2-078M27,6,502,AS,exp,36,↑,up,↑,0.8282588999718428,True,16,1,0,10
Y2-S2-078M27,6,503,AS,exp,26,←,left,←,1.4282221000175923,True,16,1,0,10
Y2-S2-078M27,6,504,AS,exp,25,↑,down,↓,0.7427939999615774,False,16,-1,1,11
Y2-S2-078M27,6,505,AS,exp,47,→,right,→,0.6129191999789327,True,17,-1,0,11
Y2-S2-078M27,6,506,AS,exp,48,←,left,←,0.7194650999736041,True,17,-1,0,11
Y2-S2-078M27,6,507,AS,exp,36,↑,up,↑,0.3673059999709949,True,17,1,1,12
Y2-S2-078M27,6,508,AS,exp,48,↓,down,↓,0.6117179000284523,True,16,1,0,12
Y2-S2-078M27,6,509,AS,exp,29,←,left,←,0.9985882999608293,True,16,1,0,12
Y2-S2-078M27,6,510,AS,exp,29,↑,up,↑,0.9673432999989018,True,16,1,0,12
Y2-S2-078M27,6,511,AS,exp,37,↓,down,↓,0.5825346000492573,True,15,1,0,12
Y2-S2-078M27,6,512,AS,exp,35,→,left,←,0.86078320001252,False,15,-1,1,13
Y2-S2-078M27,6,513,AS,exp,36,←,left,←,0.6044362999964505,True,16,-1,0,13
Y2-S2-078M27,6,514,AS,exp,48,↑,up,↑,0.9845209000632167,True,16,-1,0,13
Y2-S2-078M27,6,515,AS,exp,44,↓,right,→,1.0030816999496892,False,16,-1,0,13
Y2-S2-078M27,6,516,AS,exp,34,→,right,→,0.4826902999775484,True,17,-1,0,13
Y2-S2-078M27,6,517,AS,exp,46,↑,up,↑,0.7787225000793114,True,17,-1,0,13
Y2-S2-078M27,6,518,AS,exp,33,↓,down,↓,0.7991875000298023,True,17,1,1,14
Y2-S2-078M27,6,519,AS,exp,33,↑,up,↑,0.5218057000311092,True,16,1,0,14
Y2-S2-078M27,6,520,AS,exp,36,→,right,→,1.0463014000561088,True,16,1,0,14
Y2-S2-078M27,6,521,AS,exp,48,↓,up,↑,0.7299234999809414,False,16,-1,1,15
Y2-S2-078M27,6,522,AS,exp,38,→,right,→,0.5203268999466673,True,17,-1,0,15
Y2-S2-078M27,6,523,AS,exp,30,↑,up,↑,0.5336124999448657,True,17,-1,0,15
Y2-S2-078M27,6,524,AS,exp,36,←,left,←,1.2454342000419274,True,17,1,1,16
Y2-S2-078M27,7,525,AS,intra_train,35,↓,down,↓,0.6864049000432715,True,30,-,-,-
Y2-S2-078M27,7,526,AS,intra_train,38,↑,up,↑,0.500755799934268,True,30,-,-,-
Y2-S2-078M27,7,527,AS,intra_train,46,↓,down,↓,1.0537927000550553,True,30,-,-,-
Y2-S2-078M27,7,528,AS,intra_train,46,→,right,→,0.7945950999855995,True,30,-,-,-
Y2-S2-078M27,7,529,AS,intra_train,33,↓,down,↓,0.8752088999608532,True,30,-,-,-
Y2-S2-078M27,7,530,AS,exp,33,↑,up,↑,0.5055951999966055,True,20,0,0,0
Y2-S2-078M27,7,531,AS,exp,38,→,right,→,0.5954045000253245,True,20,0,0,0
Y2-S2-078M27,7,532,AS,exp,40,↑,up,↑,0.5676029999740422,True,20,1,0,0
Y2-S2-078M27,7,533,AS,exp,38,→,right,→,0.5533540999749675,True,19,1,0,0
Y2-S2-078M27,7,534,AS,exp,42,↑,up,↑,0.908359199995175,True,19,1,0,0
Y2-S2-078M27,7,535,AS,exp,45,↓,down,↓,0.6821308999788016,True,19,1,0,0
Y2-S2-078M27,7,536,AS,exp,27,→,right,→,0.6691290999297053,True,18,1,0,0
Y2-S2-078M27,7,537,AS,exp,32,↓,down,↓,1.06281129992567,True,18,1,0,0
Y2-S2-078M27,7,538,AS,exp,28,↑,up,↑,0.8505071999970824,True,18,1,0,0
Y2-S2-078M27,7,539,AS,exp,36,→,right,→,0.4612786000361666,True,17,1,0,0
Y2-S2-078M27,7,540,AS,exp,37,↓,down,↓,0.7426010000053793,True,17,1,0,0
Y2-S2-078M27,7,541,AS,exp,26,←,left,←,0.7268517999909818,True,17,1,0,0
Y2-S2-078M27,7,542,AS,exp,50,↓,down,↓,1.1371698000002652,True,16,1,0,0
Y2-S2-078M27,7,543,AS,exp,28,→,right,→,0.5051312000723556,True,16,1,0,0
Y2-S2-078M27,7,544,AS,exp,48,←,down,↓,0.5234825999941677,False,16,-1,1,1
Y2-S2-078M27,7,545,AS,exp,34,→,right,→,0.6991041000001132,True,17,-1,0,1
Y2-S2-078M27,7,546,AS,exp,25,←,right,→,0.7339028998976573,False,17,-1,0,1
Y2-S2-078M27,7,547,AS,exp,49,→,left,←,1.2732021999545395,False,18,-1,0,1
Y2-S2-078M27,7,548,AS,exp,25,←,left,←,0.5462765999836847,True,19,-1,0,1
Y2-S2-078M27,7,549,AS,exp,34,→,down,↓,1.1461110999807715,False,19,-1,0,1
Y2-S2-078M27,7,550,AS,exp,42,↓,down,↓,0.7123364999424666,True,20,-1,0,1
Y2-S2-078M27,7,551,AS,exp,34,→,right,→,0.6230699999723583,True,20,-1,0,1
Y2-S2-078M27,7,552,AS,exp,35,↑,down,↓,0.7575394999003038,False,20,-1,0,1
Y2-S2-078M27,7,553,AS,exp,37,→,down,↓,0.5797260999679565,False,21,-1,0,1
Y2-S2-078M27,7,554,AS,exp,41,↓,down,↓,0.5647072000429034,True,22,-1,0,1
Y2-S2-078M27,7,555,AS,exp,31,↑,up,↑,0.6260704000014812,True,22,-1,0,1
Y2-S2-078M27,7,556,AS,exp,34,↓,right,→,1.1122453000862151,False,22,-1,0,1
Y2-S2-078M27,7,557,AS,exp,44,←,left,←,0.6082198000513017,True,23,-1,0,1
Y2-S2-078M27,7,558,AS,exp,36,↑,up,↑,0.5890726000070572,True,23,-1,0,1
Y2-S2-078M27,7,559,AS,exp,48,↓,down,↓,0.8092674999497831,True,23,1,1,2
Y2-S2-078M27,7,560,AS,exp,36,←,left,←,0.6444665999151766,True,22,1,0,2
Y2-S2-078M27,7,561,AS,exp,31,↓,down,↓,1.0605838000774384,True,22,1,0,2
Y2-S2-078M27,7,562,AS,exp,40,←,right,→,0.4167054001009092,False,22,-1,1,3
Y2-S2-078M27,7,563,AS,exp,41,→,right,→,0.8082418000558391,True,23,-1,0,3
Y2-S2-078M27,7,564,AS,exp,43,↑,up,↑,0.7554359999485314,True,23,-1,0,3
Y2-S2-078M27,7,565,AS,exp,32,↓,down,↓,0.798164299922064,True,23,1,1,4
Y2-S2-078M27,7,566,AS,exp,36,↑,up,↑,0.6770144000183791,True,22,1,0,4
Y2-S2-078M27,7,567,AS,exp,43,←,left,←,0.7734632000792772,True,22,1,0,4
Y2-S2-078M27,7,568,AS,exp,27,↑,up,↑,0.646475899964571,True,22,1,0,4
Y2-S2-078M27,7,569,AS,exp,34,↓,up,↑,0.964404399972409,False,21,-1,1,5
Y2-S2-078M27,7,570,AS,exp,45,→,up,↑,0.9110660998849198,False,22,-1,0,5
Y2-S2-078M27,7,571,AS,exp,36,↓,down,↓,0.788224900024943,True,23,-1,0,5
Y2-S2-078M27,7,572,AS,exp,49,→,right,→,0.48371770000085235,True,23,-1,0,5
Y2-S2-078M27,7,573,AS,exp,29,↓,down,↓,0.7952314999420196,True,23,1,1,6
Y2-S2-078M27,7,574,AS,exp,50,↑,up,↑,1.3873091000132263,True,22,1,0,6
Y2-S2-078M27,7,575,AS,exp,26,←,left,←,0.6500986999599263,True,22,1,0,6
Y2-S2-078M27,7,576,AS,exp,36,↓,down,↓,0.7468836000189185,True,22,1,0,6
Y2-S2-078M27,7,577,AS,exp,32,→,right,→,0.6971757999854162,True,21,1,0,6
Y2-S2-078M27,7,578,AS,exp,49,↓,down,↓,0.7540115000447258,True,21,1,0,6
Y2-S2-078M27,7,579,AS,exp,42,→,right,→,0.5449172001099214,True,21,1,0,6
Y2-S2-078M27,7,580,AS,exp,49,↓,down,↓,0.8197602999862283,True,20,1,0,6
Y2-S2-078M27,7,581,AS,exp,50,→,right,→,0.7199383999686688,True,20,1,0,6
Y2-S2-078M27,7,582,AS,exp,37,↓,down,↓,0.599136000033468,True,20,1,0,6
Y2-S2-078M27,7,583,AS,exp,25,↑,up,↑,0.5974970998940989,True,19,1,0,6
Y2-S2-078M27,7,584,AS,exp,35,→,right,→,0.49715810001362115,True,19,1,0,6
Y2-S2-078M27,7,585,AS,exp,45,←,left,←,0.6743319999659434,True,19,1,0,6
Y2-S2-078M27,7,586,AS,exp,26,→,right,→,0.5268006999976933,True,18,1,0,6
Y2-S2-078M27,7,587,AS,exp,41,↑,up,↑,0.681603700038977,True,18,1,0,6
Y2-S2-078M27,7,588,AS,exp,28,←,up,↑,0.9698727999348193,False,18,-1,1,7
Y2-S2-078M27,7,589,AS,exp,43,→,right,→,0.8838638999732211,True,19,-1,0,7
Y2-S2-078M27,7,590,AS,exp,35,←,left,←,0.6871912999777123,True,19,-1,0,7
Y2-S2-078M27,7,591,AS,exp,45,→,right,→,0.5157568000722677,True,19,1,1,8
Y2-S2-078M27,7,592,AS,exp,40,↓,down,↓,0.5637235000031069,True,18,1,0,8
Y2-S2-078M27,7,593,AS,exp,50,↑,up,↑,0.6389389000833035,True,18,1,0,8
Y2-S2-078M27,7,594,AS,exp,36,↓,down,↓,0.6200557999545708,True,18,1,0,8
Y2-S2-078M27,7,595,AS,exp,32,↑,right,→,0.8440328000579029,False,17,-1,1,9
Y2-S2-078M27,7,596,AS,exp,29,→,right,→,0.5878542000427842,True,18,-1,0,9
Y2-S2-078M27,7,597,AS,exp,29,↑,up,↑,0.4866842000046745,True,18,-1,0,9
Y2-S2-078M27,7,598,AS,exp,34,↓,up,↑,0.4691635000053793,False,18,-1,0,9
Y2-S2-078M27,7,599,AS,exp,39,←,left,←,0.4507488999515772,True,19,-1,0,9
Y2-S2-078M27,7,600,AS,exp,43,→,right,→,0.4510135999880731,True,19,-1,0,9
Y2-S2-078M27,7,601,AS,exp,29,←,left,←,0.744962100056,True,19,1,1,10
Y2-S2-078M27,7,602,AS,exp,50,→,right,→,0.9355274999979883,True,18,1,0,10
Y2-S2-078M27,7,603,AS,exp,30,↓,down,↓,0.8611506000161171,True,18,1,0,10
Y2-S2-078M27,7,604,AS,exp,37,→,right,→,0.4338923000032082,True,18,1,0,10
Y2-S2-078M27,7,605,AS,exp,36,←,right,→,0.7778427000157535,False,17,-1,1,11
Y2-S2-078M27,7,606,AS,exp,46,→,right,→,0.7113095000386238,True,18,-1,0,11
Y2-S2-078M27,7,607,AS,exp,49,↓,left,←,0.8289721000473946,False,18,-1,0,11
Y2-S2-078M27,7,608,AS,exp,41,←,left,←,0.598572599934414,True,19,-1,0,11
Y2-S2-078M27,7,609,AS,exp,38,↓,left,←,0.971374599961564,False,19,-1,0,11
Y2-S2-078M27,7,610,AS,exp,42,↑,up,↑,0.6642965999199077,True,20,-1,0,11
Y2-S2-078M27,7,611,AS,exp,30,←,right,→,0.54621339996811,False,20,-1,0,11
Y2-S2-078M27,7,612,AS,exp,48,↑,up,↑,0.5369127000449225,True,21,-1,0,11
Y2-S2-078M27,7,613,AS,exp,38,→,right,→,0.41722459997981787,True,21,-1,0,11
Y2-S2-078M27,7,614,AS,exp,34,↓,up,↑,0.8605858000228181,False,21,-1,0,11
Y2-S2-078M27,7,615,AS,exp,32,←,left,←,0.690614299965091,True,22,-1,0,11
Y2-S2-078M27,7,616,AS,exp,29,↓,down,↓,0.9078427999047562,True,22,-1,0,11
Y2-S2-078M27,7,617,AS,exp,37,→,right,→,0.38423780002631247,True,22,1,1,12
Y2-S2-078M27,7,618,AS,exp,37,↑,up,↑,0.7706655999645591,True,21,1,0,12
Y2-S2-078M27,7,619,AS,exp,25,→,right,→,0.46717960003297776,True,21,1,0,12
Y2-S2-078M27,7,620,AS,exp,42,↑,up,↑,0.4505555999930948,True,21,1,0,12
Y2-S2-078M27,7,621,AS,exp,37,→,right,→,0.6061614999780431,True,20,1,0,12
Y2-S2-078M27,7,622,AS,exp,35,↑,up,↑,0.5136958999792114,True,20,1,0,12
Y2-S2-078M27,7,623,AS,exp,35,←,right,→,0.563395099947229,False,20,-1,1,13
Y2-S2-078M27,7,624,AS,exp,43,→,right,→,0.6503496000077575,True,21,-1,0,13
Y2-S2-078M27,7,625,AS,exp,38,↑,up,↑,0.6075218000914901,True,21,-1,0,13
Y2-S2-078M27,7,626,AS,exp,44,←,left,←,0.7203408000059426,True,21,1,1,14
Y2-S2-078M27,7,627,AS,exp,33,→,right,→,0.400960800005123,True,20,1,0,14
Y2-S2-078M27,7,628,AS,exp,27,↓,down,↓,0.7497921999311075,True,20,1,0,14
Y2-S2-078M27,7,629,AS,exp,32,←,right,→,0.6437945000361651,False,20,-1,1,15
Y2-S2-078M27,7,630,AS,exp,42,→,right,→,0.580873400089331,True,21,-1,0,15
Y2-S2-078M27,7,631,AS,exp,32,←,left,←,0.6285262999590486,True,21,-1,0,15
Y2-S2-078M27,7,632,AS,exp,36,→,right,→,0.6154049999313429,True,21,1,1,16
Y2-S2-078M27,8,633,PS,intra_train,25,↑,up,↑,0.691418599919416,True,12,-,-,-
Y2-S2-078M27,8,634,PS,intra_train,41,←,down,↓,0.9855024999706075,False,12,-,-,-
Y2-S2-078M27,8,635,PS,intra_train,43,↓,down,↓,0.5913513000123203,True,12,-,-,-
Y2-S2-078M27,8,636,PS,intra_train,28,→,right,→,0.5350303000304848,True,12,-,-,-
Y2-S2-078M27,8,637,PS,intra_train,50,←,left,←,0.4901536999968812,True,12,-,-,-
Y2-S2-078M27,8,638,PS,exp,32,↓,left,←,0.6706071000080556,False,8,-1,0,0
Y2-S2-078M27,8,639,PS,exp,40,→,right,→,0.5288374000228941,True,9,-1,0,0
Y2-S2-078M27,8,640,PS,exp,49,↑,up,↑,0.4299155999906361,True,9,-1,0,0
Y2-S2-078M27,8,641,PS,exp,39,←,left,←,0.4725676999660209,True,9,1,1,1
Y2-S2-078M27,8,642,PS,exp,45,↑,up,↑,0.53515020001214,True,8,1,0,1
Y2-S2-078M27,8,643,PS,exp,29,↓,up,↑,0.5441813999786973,False,8,-1,1,2
Y2-S2-078M27,8,644,PS,exp,45,→,right,→,0.5169614999322221,True,9,-1,0,2
Y2-S2-078M27,8,645,PS,exp,26,↑,down,↓,0.7479082000209019,False,9,-1,0,2
Y2-S2-078M27,8,646,PS,exp,35,←,left,←,0.47083819995168597,True,10,-1,0,2
Y2-S2-078M27,8,647,PS,exp,46,↑,up,↑,0.5597379000391811,True,10,-1,0,2
Y2-S2-078M27,8,648,PS,exp,44,→,right,→,0.48346380004659295,True,10,1,1,3
Y2-S2-078M27,8,649,PS,exp,32,↑,right,→,0.6077638999558985,False,9,-1,1,4
Y2-S2-078M27,8,650,PS,exp,50,→,right,→,0.4547610000008717,True,10,-1,0,4
Y2-S2-078M27,8,651,PS,exp,50,↑,down,↓,0.7027447998989373,False,10,-1,0,4
Y2-S2-078M27,8,652,PS,exp,31,→,right,→,0.6146717000519857,True,11,-1,0,4
Y2-S2-078M27,8,653,PS,exp,47,←,right,→,0.6435843000654131,False,11,-1,0,4
Y2-S2-078M27,8,654,PS,exp,47,↑,up,↑,0.7387211000313982,True,12,-1,0,4
Y2-S2-078M27,8,655,PS,exp,37,↓,down,↓,0.7471208999631926,True,12,-1,0,4
Y2-S2-078M27,8,656,PS,exp,48,←,left,←,0.5753330000443384,True,12,1,1,5
Y2-S2-078M27,8,657,PS,exp,43,↑,left,←,0.8251082999631763,False,11,-1,1,6
Y2-S2-078M27,8,658,PS,exp,48,←,left,←,0.8403290999121964,True,12,-1,0,6
Y2-S2-078M27,8,659,PS,exp,47,↑,up,↑,0.5452046999707818,True,12,-1,0,6
Y2-S2-078M27,8,660,PS,exp,38,→,right,→,0.38163519999943674,True,12,1,1,7
Y2-S2-078M27,8,661,PS,exp,43,↑,up,↑,0.4496351999696344,True,11,1,0,7
Y2-S2-078M27,8,662,PS,exp,37,→,right,→,0.4329262999817729,True,11,1,0,7
Y2-S2-078M27,8,663,PS,exp,37,↑,right,→,0.7368931999662891,False,11,-1,1,8
Y2-S2-078M27,8,664,PS,exp,28,←,right,→,0.46322480007074773,False,12,-1,0,8
Y2-S2-078M27,8,665,PS,exp,47,↑,up,↑,0.5738935000263155,True,13,-1,0,8
Y2-S2-078M27,8,666,PS,exp,27,↓,up,↑,0.7743725000182167,False,13,-1,0,8
Y2-S2-078M27,8,667,PS,exp,40,→,right,→,0.546437400043942,True,14,-1,0,8
Y2-S2-078M27,8,668,PS,exp,26,↓,down,↓,0.6043982000555843,True,14,-1,0,8
Y2-S2-078M27,8,669,PS,exp,43,→,right,→,0.44613299996126443,True,14,1,1,9
Y2-S2-078M27,8,670,PS,exp,37,↑,down,↓,0.9948637000052258,False,13,-1,1,10
Y2-S2-078M27,8,671,PS,exp,46,↓,down,↓,0.7788801999995485,True,14,-1,0,10
Y2-S2-078M27,8,672,PS,exp,36,→,right,→,0.41331309999804944,True,14,-1,0,10
Y2-S2-078M27,8,673,PS,exp,36,←,left,←,0.6081523000029847,True,14,1,1,11
Y2-S2-078M27,8,674,PS,exp,39,→,left,←,0.5140508000040427,False,13,-1,1,12
Y2-S2-078M27,8,675,PS,exp,39,↑,up,↑,0.3678213000530377,True,14,-1,0,12
Y2-S2-078M27,8,676,PS,exp,39,→,right,→,0.4268794000381604,True,14,-1,0,12
Y2-S2-078M27,8,677,PS,exp,27,↓,left,←,0.755752700031735,False,14,-1,0,12
Y2-S2-078M27,8,678,PS,exp,25,→,right,→,0.3838959999848157,True,15,-1,0,12
Y2-S2-078M27,8,679,PS,exp,27,↑,up,↑,0.474770599976182,True,15,-1,0,12
Y2-S2-078M27,8,680,PS,exp,42,→,up,↑,0.4501446000067517,False,15,-1,0,12
Y2-S2-078M27,8,681,PS,exp,40,↓,down,↓,0.7808475000783801,True,16,-1,0,12
Y2-S2-078M27,8,682,PS,exp,29,→,right,→,0.8559821000089869,True,16,-1,0,12
Y2-S2-078M27,8,683,PS,exp,30,←,right,→,0.5056880000047386,False,16,-1,0,12
Y2-S2-078M27,8,684,PS,exp,37,↑,up,↑,0.5594868999905884,True,17,-1,0,12
Y2-S2-078M27,8,685,PS,exp,32,↓,down,↓,0.7308554999763146,True,17,-1,0,12
Y2-S2-078M27,8,686,PS,exp,36,→,right,→,0.3673700999934226,True,17,1,1,13
Y2-S2-078M27,8,687,PS,exp,50,←,right,→,0.6526559999911115,False,16,-1,1,14
Y2-S2-078M27,8,688,PS,exp,38,↓,down,↓,0.6769965999992564,True,17,-1,0,14
Y2-S2-078M27,8,689,PS,exp,26,→,right,→,0.4693536999402568,True,17,-1,0,14
Y2-S2-078M27,8,690,PS,exp,45,←,left,←,0.9202363999793306,True,17,1,1,15
Y2-S2-078M27,8,691,PS,exp,28,↓,down,↓,0.5486531000351533,True,16,1,0,15
Y2-S2-078M27,8,692,PS,exp,49,↑,up,↑,0.6720237999688834,True,16,1,0,15
Y2-S2-078M27,8,693,PS,exp,39,←,right,→,0.4589711999287829,False,16,-1,1,16
