PART_ID,Block_no,Trial_no,Block_type,Trial_type,CSI,Stim_letter,Key_pressed,letter_choose,Rt,Corr,Stimulus Time,Level,Reversal,Revs_count
Y2-S2-277K19,1,1,PS,train,42,↑,up,↑,1.005751800024882,True,30,-,-,-
Y2-S2-277K19,1,2,PS,train,29,↓,down,↓,0.7676976000075229,True,30,-,-,-
Y2-S2-277K19,1,3,PS,train,35,→,right,→,0.5842405000003055,True,30,-,-,-
Y2-S2-277K19,1,4,PS,train,33,↑,up,↑,0.6171482999925502,True,30,-,-,-
Y2-S2-277K19,1,5,PS,train,33,→,right,→,0.5670657999580726,True,30,-,-,-
Y2-S2-277K19,1,6,PS,train,41,←,left,←,0.9296926999813877,True,30,-,-,-
Y2-S2-277K19,1,7,PS,train,33,→,right,→,0.7662782999686897,True,30,-,-,-
Y2-S2-277K19,1,8,PS,train,26,↑,up,↑,0.816462800023146,True,30,-,-,-
Y2-S2-277K19,1,9,PS,train,25,←,left,←,0.6341475000372157,True,30,-,-,-
Y2-S2-277K19,1,10,PS,train,32,→,right,→,0.6709164000349119,True,30,-,-,-
Y2-S2-277K19,2,11,AS,train,44,↓,down,↓,0.8507440999965183,True,45,-,-,-
Y2-S2-277K19,2,12,AS,train,27,→,right,→,0.7674451000057161,True,45,-,-,-
Y2-S2-277K19,2,13,AS,train,46,↓,down,↓,0.8676049000350758,True,45,-,-,-
Y2-S2-277K19,2,14,AS,train,47,↑,down,↓,1.0458729999954812,False,45,-,-,-
Y2-S2-277K19,2,15,AS,train,32,↓,down,↓,0.7672427999787033,True,45,-,-,-
Y2-S2-277K19,2,16,AS,train,28,→,right,→,0.7516010000254028,True,45,-,-,-
Y2-S2-277K19,2,17,AS,train,38,↓,down,↓,0.6344192000105977,True,45,-,-,-
Y2-S2-277K19,2,18,AS,train,26,→,right,→,0.7176104000536725,True,45,-,-,-
Y2-S2-277K19,2,19,AS,train,46,↓,down,↓,0.8175985999987461,True,45,-,-,-
Y2-S2-277K19,2,20,AS,train,26,→,no_key,no_letter,-1.0,False,45,-,-,-
Y2-S2-277K19,-,21,PS,adaptive,31,↑,up,↑,0.7460571000119671,True,10,0,0,0
Y2-S2-277K19,-,22,PS,adaptive,47,←,left,←,0.6646509999991395,True,10,0,0,0
Y2-S2-277K19,-,23,PS,adaptive,43,→,right,→,0.5134431000333279,True,10,1,0,0
Y2-S2-277K19,-,24,PS,adaptive,43,↑,up,↑,0.7796450000023469,True,9,1,0,0
Y2-S2-277K19,-,25,PS,adaptive,44,↓,down,↓,0.8148219999857247,True,9,1,0,0
Y2-S2-277K19,-,26,PS,adaptive,42,→,down,↓,1.5274772999691777,False,9,-1,1,1
Y2-S2-277K19,-,27,PS,adaptive,31,↑,right,→,1.352015400014352,False,10,-1,0,1
Y2-S2-277K19,-,28,PS,adaptive,46,←,left,←,0.8893262000055984,True,11,-1,0,1
Y2-S2-277K19,-,29,PS,adaptive,46,↓,down,↓,0.6953128000022843,True,11,-1,0,1
Y2-S2-277K19,-,30,PS,adaptive,45,←,left,←,1.0351138000260107,True,11,1,1,2
Y2-S2-277K19,-,31,PS,adaptive,42,→,right,→,0.8055237000226043,True,10,1,0,2
Y2-S2-277K19,-,32,PS,adaptive,49,↓,left,←,1.4328760000062175,False,10,-1,1,3
Y2-S2-277K19,-,33,PS,adaptive,35,→,right,→,1.7494353000074625,True,11,-1,0,3
Y2-S2-277K19,-,34,PS,adaptive,30,←,left,←,0.7003152000252157,True,11,-1,0,3
Y2-S2-277K19,-,35,PS,adaptive,32,→,left,←,1.3785859000054188,False,11,-1,0,3
Y2-S2-277K19,-,36,PS,adaptive,41,↑,right,→,1.6860098000033759,False,12,-1,0,3
Y2-S2-277K19,-,37,PS,adaptive,33,←,left,←,0.9369231999735348,True,13,-1,0,3
Y2-S2-277K19,-,38,PS,adaptive,35,→,right,→,0.7180123999714851,True,13,-1,0,3
Y2-S2-277K19,-,39,PS,adaptive,40,↑,no_key,no_letter,-1.0,False,13,-1,0,3
Y2-S2-277K19,-,40,PS,adaptive,30,↓,up,↑,0.6116472000139765,False,14,-1,0,3
Y2-S2-277K19,-,41,PS,adaptive,46,←,left,←,1.0023521999828517,True,15,-1,0,3
Y2-S2-277K19,-,42,PS,adaptive,43,↓,down,↓,0.9462487999699079,True,15,-1,0,3
Y2-S2-277K19,-,43,PS,adaptive,34,←,no_key,no_letter,-1.0,False,15,-1,0,3
Y2-S2-277K19,-,44,PS,adaptive,49,→,right,→,0.6757080999668688,True,16,-1,0,3
Y2-S2-277K19,-,45,PS,adaptive,43,↓,left,←,1.1250016000121832,False,16,-1,0,3
Y2-S2-277K19,-,46,PS,adaptive,29,←,no_key,no_letter,-1.0,False,17,-1,0,3
Y2-S2-277K19,-,47,PS,adaptive,45,→,right,→,0.5816400000476278,True,18,-1,0,3
Y2-S2-277K19,-,48,PS,adaptive,35,↑,up,↑,0.5925219000200741,True,18,-1,0,3
Y2-S2-277K19,-,49,PS,adaptive,25,↓,down,↓,0.9670255000237375,True,18,1,1,4
Y2-S2-277K19,-,50,AS,adaptive,38,↑,up,↑,0.7753653000108898,True,20,0,0,0
Y2-S2-277K19,-,51,AS,adaptive,35,→,right,→,0.5716555999824777,True,20,0,0,0
Y2-S2-277K19,-,52,AS,adaptive,35,←,left,←,1.1442456999793649,True,20,1,0,0
Y2-S2-277K19,-,53,AS,adaptive,48,→,left,←,0.8186262000235729,False,19,-1,1,1
Y2-S2-277K19,-,54,AS,adaptive,34,↑,down,↓,1.2271145000122488,False,20,-1,0,1
Y2-S2-277K19,-,55,AS,adaptive,45,→,right,→,0.9233049000031315,True,21,-1,0,1
Y2-S2-277K19,-,56,AS,adaptive,34,←,up,↑,1.3752564000315033,False,21,-1,0,1
Y2-S2-277K19,-,57,AS,adaptive,37,↓,left,←,1.1551942000514828,False,22,-1,0,1
Y2-S2-277K19,-,58,AS,adaptive,47,↑,up,↑,1.2602419999893755,True,23,-1,0,1
Y2-S2-277K19,-,59,AS,adaptive,41,↓,up,↑,0.7381596000050195,False,23,-1,0,1
Y2-S2-277K19,-,60,AS,adaptive,29,↑,up,↑,1.0192235999857076,True,24,-1,0,1
Y2-S2-277K19,-,61,AS,adaptive,31,←,no_key,no_letter,-1.0,False,24,-1,0,1
Y2-S2-277K19,-,62,AS,adaptive,32,→,right,→,0.8196268999599852,True,25,-1,0,1
Y2-S2-277K19,-,63,AS,adaptive,47,←,up,↑,1.18154570000479,False,25,-1,0,1
Y2-S2-277K19,-,64,AS,adaptive,44,→,right,→,0.7660834999987856,True,26,-1,0,1
Y2-S2-277K19,-,65,AS,adaptive,31,←,right,→,0.6686638999963179,False,26,-1,0,1
Y2-S2-277K19,-,66,AS,adaptive,27,→,right,→,1.532427700003609,True,27,-1,0,1
Y2-S2-277K19,-,67,AS,adaptive,37,←,left,←,0.6732259000418708,True,27,-1,0,1
Y2-S2-277K19,-,68,AS,adaptive,42,↓,right,→,1.21583910001209,False,27,-1,0,1
Y2-S2-277K19,-,69,AS,adaptive,25,→,right,→,0.7695453999913298,True,28,-1,0,1
Y2-S2-277K19,-,70,AS,adaptive,42,↓,down,↓,0.9858116000541486,True,28,-1,0,1
Y2-S2-277K19,-,71,AS,adaptive,28,↑,down,↓,1.5765040999976918,False,28,-1,0,1
Y2-S2-277K19,-,72,AS,adaptive,37,→,right,→,1.1435659000417218,True,29,-1,0,1
Y2-S2-277K19,-,73,AS,adaptive,50,↑,no_key,no_letter,-1.0,False,29,-1,0,1
Y2-S2-277K19,-,74,AS,adaptive,32,←,up,↑,1.0463634000043385,False,30,-1,0,1
Y2-S2-277K19,-,75,AS,adaptive,49,↑,no_key,no_letter,-1.0,False,31,-1,0,1
Y2-S2-277K19,-,76,AS,adaptive,46,→,right,→,1.023071900010109,True,32,-1,0,1
Y2-S2-277K19,-,77,AS,adaptive,50,↓,no_key,no_letter,-1.0,False,32,-1,0,1
Y2-S2-277K19,-,78,AS,adaptive,37,↑,up,↑,1.2632073999848217,True,33,-1,0,1
Y2-S2-277K19,-,79,AS,adaptive,43,→,up,↑,0.7388372999848798,False,33,-1,0,1
Y2-S2-277K19,-,80,AS,adaptive,32,←,no_key,no_letter,-1.0,False,34,-1,0,1
Y2-S2-277K19,-,81,AS,adaptive,43,↓,down,↓,0.9521097000106238,True,35,-1,0,1
Y2-S2-277K19,-,82,AS,adaptive,34,←,right,→,1.2900397999910638,False,35,-1,0,1
Y2-S2-277K19,-,83,AS,adaptive,27,→,left,←,0.8918133999686688,False,36,-1,0,1
Y2-S2-277K19,-,84,AS,adaptive,27,↑,up,↑,0.2677757000201382,True,37,-1,0,1
Y2-S2-277K19,-,85,AS,adaptive,25,←,no_key,no_letter,-1.0,False,37,-1,0,1
Y2-S2-277K19,-,86,AS,adaptive,29,→,right,→,1.2598147000535391,True,38,-1,0,1
Y2-S2-277K19,-,87,AS,adaptive,42,↑,no_key,no_letter,-1.0,False,38,-1,0,1
Y2-S2-277K19,-,88,AS,adaptive,37,↓,right,→,0.650494700006675,False,39,-1,0,1
Y2-S2-277K19,-,89,AS,adaptive,48,←,no_key,no_letter,-1.0,False,40,-1,0,1
Y2-S2-277K19,-,90,AS,adaptive,43,↓,up,↑,0.9774428000091575,False,41,-1,0,1
Y2-S2-277K19,-,91,AS,adaptive,41,↑,up,↑,1.6782685000216588,True,42,-1,0,1
Y2-S2-277K19,-,92,AS,adaptive,33,→,right,→,0.9613714999868535,True,42,-1,0,1
Y2-S2-277K19,-,93,AS,adaptive,43,↑,no_key,no_letter,-1.0,False,42,-1,0,1
Y2-S2-277K19,-,94,AS,adaptive,33,→,right,→,1.410472400020808,True,43,-1,0,1
Y2-S2-277K19,-,95,AS,adaptive,45,↑,no_key,no_letter,-1.0,False,43,-1,0,1
Y2-S2-277K19,-,96,AS,adaptive,39,→,down,↓,1.057504299969878,False,44,-1,0,1
Y2-S2-277K19,-,97,AS,adaptive,45,↑,no_key,no_letter,-1.0,False,45,-1,0,1
Y2-S2-277K19,-,98,AS,adaptive,50,←,right,→,0.7175499000004493,False,46,-1,0,1
Y2-S2-277K19,-,99,AS,adaptive,32,→,no_key,no_letter,-1.0,False,47,-1,0,1
Y2-S2-277K19,-,100,AS,adaptive,47,↑,right,→,0.3344029000145383,False,48,-1,0,1
Y2-S2-277K19,-,101,AS,adaptive,31,←,right,→,0.30088350002188236,False,49,-1,0,1
Y2-S2-277K19,-,102,AS,adaptive,42,↑,right,→,1.3800819999887608,False,50,-1,0,1
Y2-S2-277K19,-,103,AS,adaptive,49,←,left,←,0.7844307000050321,True,51,-1,0,1
Y2-S2-277K19,-,104,AS,adaptive,38,→,no_key,no_letter,-1.0,False,51,-1,0,1
Y2-S2-277K19,-,105,AS,adaptive,32,↑,right,→,2.1128037000307813,False,52,-1,0,1
Y2-S2-277K19,-,106,AS,adaptive,50,→,right,→,0.8344030000152998,True,53,-1,0,1
Y2-S2-277K19,-,107,AS,adaptive,27,←,right,→,0.7511143999872729,False,53,-1,0,1
Y2-S2-277K19,-,108,AS,adaptive,44,→,right,→,0.6182973999530077,True,54,-1,0,1
Y2-S2-277K19,-,109,AS,adaptive,33,←,left,←,0.7675354999955744,True,54,-1,0,1
Y2-S2-277K19,-,110,AS,adaptive,49,↓,down,↓,1.1361081000068225,True,54,1,1,2
Y2-S2-277K19,-,111,AS,adaptive,44,→,right,→,0.6842692999634892,True,53,1,0,2
Y2-S2-277K19,-,112,AS,adaptive,37,←,no_key,no_letter,-1.0,False,53,-1,1,3
Y2-S2-277K19,-,113,AS,adaptive,39,↓,down,↓,1.1279543000273407,True,54,-1,0,3
Y2-S2-277K19,-,114,AS,adaptive,32,←,left,←,0.9339870000258088,True,54,-1,0,3
Y2-S2-277K19,-,115,AS,adaptive,31,→,no_key,no_letter,-1.0,False,54,-1,0,3
Y2-S2-277K19,-,116,AS,adaptive,41,←,up,↑,2.3108298999723047,False,55,-1,0,3
Y2-S2-277K19,-,117,AS,adaptive,36,↑,up,↑,0.9507013999973424,True,56,-1,0,3
Y2-S2-277K19,-,118,AS,adaptive,29,→,no_key,no_letter,-1.0,False,56,-1,0,3
Y2-S2-277K19,-,119,AS,adaptive,26,↑,up,↑,0.1681943000294268,True,57,-1,0,3
Y2-S2-277K19,-,120,AS,adaptive,46,→,no_key,no_letter,-1.0,False,57,-1,0,3
Y2-S2-277K19,-,121,AS,adaptive,38,←,left,←,1.0337555999867618,True,58,-1,0,3
Y2-S2-277K19,-,122,AS,adaptive,25,↑,no_key,no_letter,-1.0,False,58,-1,0,3
Y2-S2-277K19,-,123,AS,adaptive,45,↓,down,↓,1.540343800035771,True,59,-1,0,3
Y2-S2-277K19,-,124,AS,adaptive,37,←,left,←,1.6525382999680005,True,59,-1,0,3
Y2-S2-277K19,-,125,AS,adaptive,46,↑,left,←,1.5901954000000842,False,59,-1,0,3
Y2-S2-277K19,-,126,AS,adaptive,43,→,right,→,0.4340793000301346,True,60,-1,0,3
Y2-S2-277K19,-,127,AS,adaptive,46,↓,no_key,no_letter,-1.0,False,60,-1,0,3
Y2-S2-277K19,-,128,AS,adaptive,50,→,right,→,1.1340945000411011,True,61,-1,0,3
Y2-S2-277K19,-,129,AS,adaptive,26,↓,down,↓,1.2382745000068098,True,61,-1,0,3
Y2-S2-277K19,-,130,AS,adaptive,40,→,right,→,0.684382299950812,True,61,1,1,4
Y2-S2-277K19,1,131,AS,intra_train,25,↑,up,↑,0.9514334999839775,True,90,-,-,-
Y2-S2-277K19,1,132,AS,intra_train,48,←,right,→,0.7177658999571577,False,90,-,-,-
Y2-S2-277K19,1,133,AS,intra_train,39,↓,down,↓,0.7509940000018105,True,90,-,-,-
Y2-S2-277K19,1,134,AS,intra_train,29,←,left,←,1.2009308999986388,True,90,-,-,-
Y2-S2-277K19,1,135,AS,intra_train,41,↓,down,↓,2.062831199960783,True,90,-,-,-
Y2-S2-277K19,1,136,AS,exp,38,→,no_key,no_letter,-1.0,False,60,-1,0,0
Y2-S2-277K19,1,137,AS,exp,33,↑,left,←,0.21755830000620335,False,61,-1,0,0
Y2-S2-277K19,1,138,AS,exp,31,←,left,←,0.8509423999930732,True,62,-1,0,0
Y2-S2-277K19,1,139,AS,exp,46,↑,left,←,2.101424799999222,False,62,-1,0,0
Y2-S2-277K19,1,140,AS,exp,47,←,no_key,no_letter,-1.0,False,63,-1,0,0
Y2-S2-277K19,1,141,AS,exp,47,→,right,→,0.7679555999930017,True,64,-1,0,0
Y2-S2-277K19,1,142,AS,exp,44,↑,up,↑,1.0671386999893002,True,64,-1,0,0
Y2-S2-277K19,1,143,AS,exp,34,→,up,↑,2.3262930000200868,False,64,-1,0,0
Y2-S2-277K19,1,144,AS,exp,37,↑,right,→,2.5836057999986224,False,65,-1,0,0
Y2-S2-277K19,1,145,AS,exp,29,←,left,←,1.5361658000038005,True,66,-1,0,0
Y2-S2-277K19,1,146,AS,exp,34,↑,no_key,no_letter,-1.0,False,66,-1,0,0
Y2-S2-277K19,1,147,AS,exp,36,→,right,→,0.8509253999800421,True,67,-1,0,0
Y2-S2-277K19,1,148,AS,exp,41,↑,no_key,no_letter,-1.0,False,67,-1,0,0
Y2-S2-277K19,1,149,AS,exp,44,←,no_key,no_letter,-1.0,False,68,-1,0,0
Y2-S2-277K19,1,150,AS,exp,40,↑,up,↑,0.9511293999967165,True,69,-1,0,0
Y2-S2-277K19,1,151,AS,exp,27,→,up,↑,2.375582200009376,False,69,-1,0,0
Y2-S2-277K19,1,152,AS,exp,48,↑,no_key,no_letter,-1.0,False,70,-1,0,0
Y2-S2-277K19,1,153,AS,exp,35,→,right,→,1.0513652000227012,True,71,-1,0,0
Y2-S2-277K19,1,154,AS,exp,42,↓,up,↑,0.9677034000051208,False,71,-1,0,0
Y2-S2-277K19,1,155,AS,exp,38,↑,no_key,no_letter,-1.0,False,72,-1,0,0
Y2-S2-277K19,1,156,AS,exp,30,↓,up,↑,0.7345831000129692,False,73,-1,0,0
Y2-S2-277K19,1,157,AS,exp,39,←,left,←,1.1175350000266917,True,74,-1,0,0
Y2-S2-277K19,1,158,AS,exp,29,↑,up,↑,2.1419931999989785,True,74,-1,0,0
Y2-S2-277K19,1,159,AS,exp,32,↓,no_key,no_letter,-1.0,False,74,-1,0,0
Y2-S2-277K19,1,160,AS,exp,32,↑,up,↑,1.944233099988196,True,75,-1,0,0
Y2-S2-277K19,1,161,AS,exp,50,→,no_key,no_letter,-1.0,False,75,-1,0,0
Y2-S2-277K19,1,162,AS,exp,38,↑,up,↑,1.4786968000116758,True,76,-1,0,0
Y2-S2-277K19,1,163,AS,exp,44,↓,left,←,2.5953596999752335,False,76,-1,0,0
Y2-S2-277K19,1,164,AS,exp,46,↑,up,↑,1.6341754000168294,True,77,-1,0,0
Y2-S2-277K19,1,165,AS,exp,46,↓,up,↑,0.6676530999829993,False,77,-1,0,0
Y2-S2-277K19,1,166,AS,exp,27,←,no_key,no_letter,-1.0,False,78,-1,0,0
Y2-S2-277K19,1,167,AS,exp,44,→,up,↑,0.10089300002437085,False,79,-1,0,0
Y2-S2-277K19,1,168,AS,exp,36,↑,up,↑,0.25114780000876635,True,80,-1,0,0
Y2-S2-277K19,1,169,AS,exp,30,←,no_key,no_letter,-1.0,False,80,-1,0,0
Y2-S2-277K19,1,170,AS,exp,26,↓,up,↑,1.8369046000298113,False,81,-1,0,0
Y2-S2-277K19,1,171,AS,exp,41,→,up,↑,0.767766600009054,False,82,-1,0,0
Y2-S2-277K19,1,172,AS,exp,34,↑,up,↑,2.4338862000149675,True,83,-1,0,0
Y2-S2-277K19,1,173,AS,exp,48,↓,no_key,no_letter,-1.0,False,83,-1,0,0
Y2-S2-277K19,1,174,AS,exp,34,→,up,↑,0.5845729000284337,False,84,-1,0,0
Y2-S2-277K19,1,175,AS,exp,27,↓,down,↓,1.4175982999731787,True,85,-1,0,0
Y2-S2-277K19,1,176,AS,exp,49,→,no_key,no_letter,-1.0,False,85,-1,0,0
Y2-S2-277K19,1,177,AS,exp,42,↓,up,↑,1.017821500019636,False,86,-1,0,0
Y2-S2-277K19,1,178,AS,exp,42,↑,up,↑,1.1510834000073373,True,87,-1,0,0
Y2-S2-277K19,1,179,AS,exp,36,→,right,→,1.0176968000014313,True,87,-1,0,0
Y2-S2-277K19,1,180,AS,exp,44,↑,right,→,1.3510291000129655,False,87,-1,0,0
Y2-S2-277K19,1,181,AS,exp,44,→,no_key,no_letter,-1.0,False,88,-1,0,0
Y2-S2-277K19,1,182,AS,exp,28,↓,right,→,2.0134394000051543,False,89,-1,0,0
Y2-S2-277K19,1,183,AS,exp,48,→,right,→,0.8844341000076383,True,90,-1,0,0
Y2-S2-277K19,1,184,AS,exp,27,↑,up,↑,1.084563500015065,True,90,-1,0,0
Y2-S2-277K19,1,185,AS,exp,33,→,right,→,1.334195000003092,True,90,1,1,1
Y2-S2-277K19,1,186,AS,exp,28,↑,right,→,2.280645999999251,False,89,-1,1,2
Y2-S2-277K19,1,187,AS,exp,30,→,right,→,1.2013556999736466,True,90,-1,0,2
Y2-S2-277K19,1,188,AS,exp,36,←,right,→,2.4481367000262253,False,90,-1,0,2
Y2-S2-277K19,1,189,AS,exp,25,↓,no_key,no_letter,-1.0,False,91,-1,0,2
Y2-S2-277K19,1,190,AS,exp,41,→,no_key,no_letter,-1.0,False,92,-1,0,2
Y2-S2-277K19,1,191,AS,exp,29,↑,right,→,0.6843911999603733,False,93,-1,0,2
Y2-S2-277K19,1,192,AS,exp,33,←,right,→,1.1511450000107288,False,94,-1,0,2
Y2-S2-277K19,1,193,AS,exp,46,↑,right,→,0.5343600999913178,False,95,-1,0,2
Y2-S2-277K19,1,194,AS,exp,45,←,no_key,no_letter,-1.0,False,96,-1,0,2
Y2-S2-277K19,1,195,AS,exp,47,→,right,→,2.4986937000066973,True,97,-1,0,2
Y2-S2-277K19,1,196,AS,exp,25,↓,down,↓,1.5011342999641784,True,97,-1,0,2
Y2-S2-277K19,1,197,AS,exp,50,←,no_key,no_letter,-1.0,False,97,-1,0,2
Y2-S2-277K19,1,198,AS,exp,27,↓,right,→,0.30070860002888367,False,98,-1,0,2
Y2-S2-277K19,1,199,AS,exp,27,←,left,←,1.118084599962458,True,99,-1,0,2
Y2-S2-277K19,1,200,AS,exp,27,↓,up,↑,2.2140540999826044,False,99,-1,0,2
Y2-S2-277K19,1,201,AS,exp,27,↑,no_key,no_letter,-1.0,False,100,-1,0,2
Y2-S2-277K19,1,202,AS,exp,42,→,right,→,2.7856881999759935,True,101,-1,0,2
Y2-S2-277K19,1,203,AS,exp,32,←,right,→,0.7512766999425367,False,101,-1,0,2
Y2-S2-277K19,1,204,AS,exp,46,→,no_key,no_letter,-1.0,False,102,-1,0,2
Y2-S2-277K19,1,205,AS,exp,40,↓,right,→,2.4886361999670044,False,103,-1,0,2
Y2-S2-277K19,1,206,AS,exp,34,←,no_key,no_letter,-1.0,False,104,-1,0,2
Y2-S2-277K19,1,207,AS,exp,47,↑,no_key,no_letter,-1.0,False,105,-1,0,2
Y2-S2-277K19,1,208,AS,exp,36,←,right,→,3.178948799963109,False,106,-1,0,2
Y2-S2-277K19,1,209,AS,exp,29,↓,no_key,no_letter,-1.0,False,107,-1,0,2
Y2-S2-277K19,1,210,AS,exp,37,←,left,←,2.0130965000134893,True,108,-1,0,2
Y2-S2-277K19,1,211,AS,exp,35,→,right,→,0.9843879000400193,True,108,-1,0,2
Y2-S2-277K19,1,212,AS,exp,31,↑,right,→,2.536340700055007,False,108,-1,0,2
Y2-S2-277K19,1,213,AS,exp,41,←,no_key,no_letter,-1.0,False,109,-1,0,2
Y2-S2-277K19,1,214,AS,exp,39,→,no_key,no_letter,-1.0,False,110,-1,0,2
Y2-S2-277K19,1,215,AS,exp,33,↓,right,→,0.4344501000014134,False,111,-1,0,2
Y2-S2-277K19,1,216,AS,exp,42,→,no_key,no_letter,-1.0,False,112,-1,0,2
Y2-S2-277K19,1,217,AS,exp,47,↓,right,→,0.5343934000120498,False,113,-1,0,2
Y2-S2-277K19,1,218,AS,exp,25,↑,right,→,2.5436889000120573,False,114,-1,0,2
Y2-S2-277K19,1,219,AS,exp,33,→,right,→,0.03431349998572841,True,115,-1,0,2
Y2-S2-277K19,1,220,AS,exp,28,↓,right,→,2.707111600029748,False,115,-1,0,2
Y2-S2-277K19,1,221,AS,exp,35,→,no_key,no_letter,-1.0,False,116,-1,0,2
Y2-S2-277K19,1,222,AS,exp,44,↑,right,→,0.05131800001254305,False,117,-1,0,2
Y2-S2-277K19,1,223,AS,exp,36,↓,up,↑,1.6510260000359267,False,118,-1,0,2
Y2-S2-277K19,1,224,AS,exp,28,←,right,→,1.1842719999840483,False,119,-1,0,2
Y2-S2-277K19,1,225,AS,exp,39,→,right,→,3.012023300048895,True,120,-1,0,2
Y2-S2-277K19,1,226,AS,exp,46,↓,no_key,no_letter,-1.0,False,120,-1,0,2
Y2-S2-277K19,1,227,AS,exp,40,→,right,→,1.967913300031796,True,121,-1,0,2
Y2-S2-277K19,1,228,AS,exp,39,←,right,→,1.1010051999473944,False,121,-1,0,2
Y2-S2-277K19,1,229,AS,exp,40,→,no_key,no_letter,-1.0,False,122,-1,0,2
Y2-S2-277K19,1,230,AS,exp,41,←,no_key,no_letter,-1.0,False,123,-1,0,2
Y2-S2-277K19,1,231,AS,exp,50,↑,no_key,no_letter,-1.0,False,124,-1,0,2
Y2-S2-277K19,1,232,AS,exp,44,↓,right,→,0.7677368000149727,False,125,-1,0,2
Y2-S2-277K19,1,233,AS,exp,31,←,left,←,1.0678047999972478,True,126,-1,0,2
Y2-S2-277K19,1,234,AS,exp,27,↑,up,↑,0.9510095000150613,True,126,-1,0,2
Y2-S2-277K19,1,235,AS,exp,40,→,right,→,0.9676538999774493,True,126,1,1,3
Y2-S2-277K19,1,236,AS,exp,29,↓,down,↓,0.6843601999571547,True,125,1,0,3
Y2-S2-277K19,1,237,AS,exp,41,←,left,←,0.9842955999774858,True,125,1,0,3
Y2-S2-277K19,1,238,AS,exp,36,↑,no_key,no_letter,-1.0,False,125,-1,1,4
Y2-S2-277K19,1,239,AS,exp,33,→,right,→,1.4009250000235625,True,126,-1,0,4
Y2-S2-277K19,1,240,AS,exp,31,←,no_key,no_letter,-1.0,False,126,-1,0,4
Y2-S2-277K19,1,241,AS,exp,45,↓,up,↑,2.8053571000345983,False,127,-1,0,4
Y2-S2-277K19,1,242,AS,exp,32,→,up,↑,1.550944900023751,False,128,-1,0,4
Y2-S2-277K19,1,243,AS,exp,37,↓,right,→,2.5672294000396505,False,129,-1,0,4
Y2-S2-277K19,1,244,AS,exp,32,↑,no_key,no_letter,-1.0,False,130,-1,0,4
Y2-S2-277K19,1,245,AS,exp,28,←,right,→,2.117421800037846,False,131,-1,0,4
Y2-S2-277K19,1,246,AS,exp,35,↓,right,→,1.4019000999978743,False,132,-1,0,4
Y2-S2-277K19,1,247,AS,exp,32,→,right,→,0.8346006000065245,True,133,-1,0,4
Y2-S2-277K19,1,248,AS,exp,48,↓,right,→,1.6003851999994367,False,133,-1,0,4
Y2-S2-277K19,1,249,AS,exp,46,↑,right,→,0.7511691999970935,False,134,-1,0,4
Y2-S2-277K19,1,250,AS,exp,39,→,right,→,1.5681375000276603,True,135,-1,0,4
Y2-S2-277K19,1,251,AS,exp,50,↑,right,→,0.4681506000342779,False,135,-1,0,4
Y2-S2-277K19,1,252,AS,exp,50,↓,right,→,0.05112000001827255,False,136,-1,0,4
Y2-S2-277K19,1,253,AS,exp,36,↑,right,→,2.034684299957007,False,137,-1,0,4
Y2-S2-277K19,1,254,AS,exp,50,←,right,→,0.38462980004260316,False,138,-1,0,4
Y2-S2-277K19,1,255,AS,exp,36,↑,no_key,no_letter,-1.0,False,139,-1,0,4
Y2-S2-277K19,1,256,AS,exp,33,→,right,→,0.0011587999761104584,True,140,-1,0,4
Y2-S2-277K19,1,257,AS,exp,29,↓,no_key,no_letter,-1.0,False,140,-1,0,4
Y2-S2-277K19,1,258,AS,exp,29,←,no_key,no_letter,-1.0,False,141,-1,0,4
Y2-S2-277K19,1,259,AS,exp,27,↓,down,↓,1.9346682999748737,True,142,-1,0,4
Y2-S2-277K19,1,260,AS,exp,28,↑,up,↑,1.1178997000097297,True,142,-1,0,4
Y2-S2-277K19,1,261,AS,exp,46,→,no_key,no_letter,-1.0,False,142,-1,0,4
Y2-S2-277K19,1,262,AS,exp,40,↑,no_key,no_letter,-1.0,False,143,-1,0,4
Y2-S2-277K19,1,263,AS,exp,44,↓,right,→,1.7347830000217073,False,144,-1,0,4
Y2-S2-277K19,1,264,AS,exp,29,←,left,←,1.5347073000157252,True,145,-1,0,4
Y2-S2-277K19,1,265,AS,exp,35,→,right,→,1.6512215999537148,True,145,-1,0,4
Y2-S2-277K19,1,266,AS,exp,40,↑,up,↑,1.7012218000018038,True,145,1,1,5
Y2-S2-277K19,1,267,AS,exp,27,←,right,→,0.9179025000194088,False,144,-1,1,6
Y2-S2-277K19,1,268,AS,exp,25,↑,no_key,no_letter,-1.0,False,145,-1,0,6
Y2-S2-277K19,1,269,AS,exp,31,→,right,→,3.7331425999873318,True,146,-1,0,6
Y2-S2-277K19,1,270,AS,exp,32,←,right,→,0.867719300033059,False,146,-1,0,6
Y2-S2-277K19,1,271,AS,exp,38,→,down,↓,0.6003656999673694,False,147,-1,0,6
Y2-S2-277K19,1,272,AS,exp,25,↓,no_key,no_letter,-1.0,False,148,-1,0,6
Y2-S2-277K19,1,273,AS,exp,42,→,no_key,no_letter,-1.0,False,149,-1,0,6
Y2-S2-277K19,1,274,AS,exp,25,↑,no_key,no_letter,-1.0,False,150,-1,0,6
Y2-S2-277K19,1,275,AS,exp,47,→,no_key,no_letter,-1.0,False,151,-1,0,6
Y2-S2-277K19,1,276,AS,exp,48,↑,right,→,0.8343414000119083,False,152,-1,0,6
Y2-S2-277K19,1,277,AS,exp,40,↓,no_key,no_letter,-1.0,False,153,-1,0,6
Y2-S2-277K19,1,278,AS,exp,47,→,up,↑,3.15921980002895,False,154,-1,0,6
Y2-S2-277K19,1,279,AS,exp,27,↓,up,↑,2.9710612000199035,False,155,-1,0,6
Y2-S2-277K19,1,280,AS,exp,47,↑,no_key,no_letter,-1.0,False,156,-1,0,6
Y2-S2-277K19,1,281,AS,exp,27,→,up,↑,2.017289300041739,False,157,-1,0,6
Y2-S2-277K19,1,282,AS,exp,35,↑,up,↑,1.0173777000163682,True,158,-1,0,6
Y2-S2-277K19,1,283,AS,exp,30,↓,no_key,no_letter,-1.0,False,158,-1,0,6
Y2-S2-277K19,1,284,AS,exp,50,↑,no_key,no_letter,-1.0,False,159,-1,0,6
Y2-S2-277K19,1,285,AS,exp,40,↓,no_key,no_letter,-1.0,False,160,-1,0,6
Y2-S2-277K19,1,286,AS,exp,43,↑,right,→,1.6511449999525212,False,161,-1,0,6
Y2-S2-277K19,1,287,AS,exp,34,←,right,→,1.3350388000253588,False,162,-1,0,6
Y2-S2-277K19,1,288,AS,exp,39,→,right,→,0.5844767999951728,True,163,-1,0,6
Y2-S2-277K19,1,289,AS,exp,32,↑,up,↑,1.6840609000064433,True,163,-1,0,6
Y2-S2-277K19,1,290,AS,exp,48,→,right,→,1.600930500018876,True,163,1,1,7
Y2-S2-277K19,1,291,AS,exp,29,↑,up,↑,0.8342942000017501,True,162,1,0,7
Y2-S2-277K19,1,292,AS,exp,47,→,right,→,0.5017054000054486,True,162,1,0,7
Y2-S2-277K19,1,293,AS,exp,35,↓,down,↓,1.1172496000071988,True,162,1,0,7
Y2-S2-277K19,1,294,AS,exp,43,→,right,→,1.0176309999660589,True,161,1,0,7
Y2-S2-277K19,1,295,AS,exp,37,←,left,←,0.9844873999827541,True,161,1,0,7
Y2-S2-277K19,1,296,AS,exp,27,↑,up,↑,1.6001628000522032,True,161,1,0,7
Y2-S2-277K19,1,297,AS,exp,45,←,left,←,1.2511731999693438,True,160,1,0,7
Y2-S2-277K19,1,298,AS,exp,34,↓,down,↓,0.8512314999825321,True,160,1,0,7
Y2-S2-277K19,1,299,AS,exp,49,←,left,←,1.0843806999619119,True,160,1,0,7
Y2-S2-277K19,1,300,AS,exp,38,→,right,→,0.7681369999772869,True,159,1,0,7
Y2-S2-277K19,1,301,AS,exp,42,←,left,←,0.4668294000439346,True,159,1,0,7
Y2-S2-277K19,1,302,AS,exp,33,↑,up,↑,1.2177691999822855,True,159,1,0,7
Y2-S2-277K19,1,303,AS,exp,31,←,left,←,1.41766869998537,True,158,1,0,7
Y2-S2-277K19,1,304,AS,exp,42,↑,up,↑,2.1846842999802902,True,158,1,0,7
Y2-S2-277K19,1,305,AS,exp,32,↓,down,↓,1.7347479000454769,True,158,1,0,7
Y2-S2-277K19,1,306,AS,exp,35,←,left,←,1.1511488999822177,True,157,1,0,7
Y2-S2-277K19,1,307,AS,exp,25,↓,no_key,no_letter,-1.0,False,157,-1,1,8
Y2-S2-277K19,1,308,AS,exp,47,↑,up,↑,1.3178171999752522,True,158,-1,0,8
Y2-S2-277K19,1,309,AS,exp,26,↓,down,↓,1.1846534000360407,True,158,-1,0,8
Y2-S2-277K19,1,310,AS,exp,29,→,right,→,1.234230000001844,True,158,1,1,9
Y2-S2-277K19,1,311,AS,exp,29,←,no_key,no_letter,-1.0,False,157,-1,1,10
Y2-S2-277K19,1,312,AS,exp,29,↓,down,↓,1.051098300027661,True,158,-1,0,10
Y2-S2-277K19,1,313,AS,exp,27,→,right,→,1.167724700004328,True,158,-1,0,10
Y2-S2-277K19,1,314,AS,exp,45,←,left,←,1.1347264000214636,True,158,1,1,11
Y2-S2-277K19,1,315,AS,exp,25,↑,no_key,no_letter,-1.0,False,157,-1,1,12
Y2-S2-277K19,1,316,AS,exp,37,←,right,→,3.6317735000047833,False,158,-1,0,12
Y2-S2-277K19,1,317,AS,exp,30,↓,no_key,no_letter,-1.0,False,159,-1,0,12
Y2-S2-277K19,1,318,AS,exp,32,←,no_key,no_letter,-1.0,False,160,-1,0,12
Y2-S2-277K19,1,319,AS,exp,40,↓,right,→,2.71720740001183,False,161,-1,0,12
Y2-S2-277K19,1,320,AS,exp,29,←,right,→,0.9015788999968208,False,162,-1,0,12
Y2-S2-277K19,1,321,AS,exp,27,↓,down,↓,1.084561499999836,True,163,-1,0,12
Y2-S2-277K19,1,322,AS,exp,43,←,left,←,1.2841684999875724,True,163,-1,0,12
Y2-S2-277K19,1,323,AS,exp,44,↓,no_key,no_letter,-1.0,False,163,-1,0,12
Y2-S2-277K19,1,324,AS,exp,25,←,right,→,0.6344422000111081,False,164,-1,0,12
Y2-S2-277K19,1,325,AS,exp,50,↓,down,↓,1.2847196999937296,True,165,-1,0,12
Y2-S2-277K19,1,326,AS,exp,40,↑,no_key,no_letter,-1.0,False,165,-1,0,12
Y2-S2-277K19,1,327,AS,exp,25,→,right,→,1.584419499966316,True,166,-1,0,12
Y2-S2-277K19,1,328,AS,exp,38,←,right,→,1.9012425999972038,False,166,-1,0,12
Y2-S2-277K19,1,329,AS,exp,38,→,right,→,1.1343800000031479,True,167,-1,0,12
Y2-S2-277K19,1,330,AS,exp,25,↑,no_key,no_letter,-1.0,False,167,-1,0,12
Y2-S2-277K19,1,331,AS,exp,44,←,right,→,1.534578499966301,False,168,-1,0,12
Y2-S2-277K19,1,332,AS,exp,40,↓,no_key,no_letter,-1.0,False,169,-1,0,12
Y2-S2-277K19,1,333,AS,exp,44,↑,right,→,3.681440099957399,False,170,-1,0,12
Y2-S2-277K19,1,334,AS,exp,27,↓,right,→,1.2678683999693021,False,171,-1,0,12
Y2-S2-277K19,1,335,AS,exp,39,↑,right,→,2.6344257000018843,False,172,-1,0,12
Y2-S2-277K19,1,336,AS,exp,34,→,right,→,2.617664600024,True,173,-1,0,12
Y2-S2-277K19,1,337,AS,exp,35,←,no_key,no_letter,-1.0,False,173,-1,0,12
Y2-S2-277K19,1,338,AS,exp,45,→,right,→,2.3012539999908768,True,174,-1,0,12
Y2-S2-277K19,1,339,AS,exp,38,←,right,→,1.3846764999907464,False,174,-1,0,12
Y2-S2-277K19,1,340,AS,exp,25,→,right,→,0.7006553999963216,True,175,-1,0,12
Y2-S2-277K19,1,341,AS,exp,38,↓,down,↓,1.167560100031551,True,175,-1,0,12
Y2-S2-277K19,1,342,AS,exp,32,←,left,←,1.7680096999974921,True,175,1,1,13
Y2-S2-277K19,1,343,AS,exp,37,↑,up,↑,1.1512100999825634,True,174,1,0,13
Y2-S2-277K19,1,344,AS,exp,44,↓,down,↓,0.9013606000225991,True,174,1,0,13
Y2-S2-277K19,1,345,AS,exp,50,←,left,←,1.2680109000066295,True,174,1,0,13
Y2-S2-277K19,1,346,AS,exp,25,→,right,→,1.2010276000364684,True,173,1,0,13
Y2-S2-277K19,1,347,AS,exp,46,↓,down,↓,0.8513319999910891,True,173,1,0,13
Y2-S2-277K19,1,348,AS,exp,48,↑,down,↓,3.4887272999621928,False,173,-1,1,14
Y2-S2-277K19,1,349,AS,exp,33,←,left,←,2.684594999998808,True,174,-1,0,14
Y2-S2-277K19,1,350,AS,exp,31,↑,right,→,1.6181706000352278,False,174,-1,0,14
Y2-S2-277K19,1,351,AS,exp,50,↓,down,↓,4.307912899996154,True,175,-1,0,14
Y2-S2-277K19,1,352,AS,exp,41,→,down,↓,0.7510510999709368,False,175,-1,0,14
Y2-S2-277K19,1,353,AS,exp,43,←,down,↓,1.6847196000162512,False,176,-1,0,14
Y2-S2-277K19,1,354,AS,exp,29,→,down,↓,1.3177157000172883,False,177,-1,0,14
Y2-S2-277K19,1,355,AS,exp,41,↑,left,←,0.5346223000087775,False,178,-1,0,14
Y2-S2-277K19,1,356,AS,exp,32,→,no_key,no_letter,-1.0,False,179,-1,0,14
Y2-S2-277K19,1,357,AS,exp,26,↓,down,↓,0.18485570000484586,True,180,-1,0,14
Y2-S2-277K19,1,358,AS,exp,47,↑,no_key,no_letter,-1.0,False,180,-1,0,14
Y2-S2-277K19,1,359,AS,exp,32,↓,down,↓,3.1186870000092313,True,181,-1,0,14
Y2-S2-277K19,1,360,AS,exp,42,→,no_key,no_letter,-1.0,False,181,-1,0,14
Y2-S2-277K19,1,361,AS,exp,41,↑,no_key,no_letter,-1.0,False,182,-1,0,14
Y2-S2-277K19,1,362,AS,exp,32,→,down,↓,0.9176565000088885,False,183,-1,0,14
Y2-S2-277K19,1,363,AS,exp,27,↑,no_key,no_letter,-1.0,False,184,-1,0,14
Y2-S2-277K19,1,364,AS,exp,49,←,no_key,no_letter,-1.0,False,185,-1,0,14
Y2-S2-277K19,1,365,AS,exp,38,↓,no_key,no_letter,-1.0,False,186,-1,0,14
Y2-S2-277K19,1,366,AS,exp,45,←,left,←,0.8344062999822199,True,187,-1,0,14
Y2-S2-277K19,1,367,AS,exp,29,↑,up,↑,1.3014228999963962,True,187,-1,0,14
Y2-S2-277K19,1,368,AS,exp,33,↓,down,↓,0.8509876999887638,True,187,1,1,15
Y2-S2-277K19,1,369,AS,exp,33,→,right,→,1.334103100001812,True,186,1,0,15
Y2-S2-277K19,1,370,AS,exp,49,↓,down,↓,1.4514055000036024,True,186,1,0,15
Y2-S2-277K19,1,371,AS,exp,44,←,left,←,1.2347006000345573,True,186,1,0,15
Y2-S2-277K19,1,372,AS,exp,36,→,right,→,1.2012094999663532,True,185,1,0,15
Y2-S2-277K19,1,373,AS,exp,36,↑,up,↑,2.0509062000201084,True,185,1,0,15
Y2-S2-277K19,1,374,AS,exp,44,→,right,→,4.155905999999959,True,185,1,0,15
Y2-S2-277K19,1,375,AS,exp,41,←,left,←,0.9177520999801345,True,184,1,0,15
Y2-S2-277K19,1,376,AS,exp,36,→,right,→,0.9340254999697208,True,184,1,0,15
Y2-S2-277K19,1,377,AS,exp,40,↑,down,↓,0.6845596000202931,False,184,-1,1,16
Y2-S2-277K19,2,378,PS,intra_train,38,↓,down,↓,1.3652019000146538,True,25,-,-,-
Y2-S2-277K19,2,379,PS,intra_train,31,←,left,←,0.7443185999873094,True,25,-,-,-
Y2-S2-277K19,2,380,PS,intra_train,44,↑,no_key,no_letter,-1.0,False,25,-,-,-
Y2-S2-277K19,2,381,PS,intra_train,25,→,right,→,1.0730925000389107,True,25,-,-,-
Y2-S2-277K19,2,382,PS,intra_train,34,↓,left,←,1.1788808000274003,False,25,-,-,-
Y2-S2-277K19,2,383,PS,exp,40,↑,up,↑,0.7147354000480846,True,17,0,0,0
Y2-S2-277K19,2,384,PS,exp,28,←,no_key,no_letter,-1.0,False,17,-1,0,0
Y2-S2-277K19,2,385,PS,exp,35,→,right,→,0.6551506000105292,True,18,-1,0,0
Y2-S2-277K19,2,386,PS,exp,42,↑,no_key,no_letter,-1.0,False,18,-1,0,0
Y2-S2-277K19,2,387,PS,exp,25,↓,left,←,1.009368299972266,False,19,-1,0,0
Y2-S2-277K19,2,388,PS,exp,43,→,right,→,0.4006095000077039,True,20,-1,0,0
Y2-S2-277K19,2,389,PS,exp,39,↑,left,←,0.8669119999976829,False,20,-1,0,0
Y2-S2-277K19,2,390,PS,exp,28,→,right,→,0.590881799987983,True,21,-1,0,0
Y2-S2-277K19,2,391,PS,exp,37,↑,up,↑,0.5622009999933653,True,21,-1,0,0
Y2-S2-277K19,2,392,PS,exp,36,↓,down,↓,0.569393299985677,True,21,1,1,1
Y2-S2-277K19,2,393,PS,exp,44,→,right,→,0.3840362999471836,True,20,1,0,1
Y2-S2-277K19,2,394,PS,exp,27,↑,up,↑,0.5669943999964744,True,20,1,0,1
Y2-S2-277K19,2,395,PS,exp,29,←,left,←,0.8260726000298746,True,20,1,0,1
Y2-S2-277K19,2,396,PS,exp,35,→,right,→,0.6185606999788433,True,19,1,0,1
Y2-S2-277K19,2,397,PS,exp,43,←,left,←,0.5372139000101015,True,19,1,0,1
Y2-S2-277K19,2,398,PS,exp,47,↑,up,↑,0.5161303000058979,True,19,1,0,1
Y2-S2-277K19,2,399,PS,exp,29,↓,down,↓,0.6912952999700792,True,18,1,0,1
Y2-S2-277K19,2,400,PS,exp,33,→,right,→,0.9571885999757797,True,18,1,0,1
Y2-S2-277K19,2,401,PS,exp,49,↑,up,↑,0.5277137999655679,True,18,1,0,1
Y2-S2-277K19,2,402,PS,exp,38,←,right,→,0.9824841999798082,False,17,-1,1,2
Y2-S2-277K19,2,403,PS,exp,47,↑,up,↑,0.6542984999832697,True,18,-1,0,2
Y2-S2-277K19,2,404,PS,exp,33,←,left,←,0.50994899997022,True,18,-1,0,2
Y2-S2-277K19,2,405,PS,exp,32,↓,down,↓,0.7709761000005528,True,18,1,1,3
Y2-S2-277K19,2,406,PS,exp,42,↑,up,↑,0.5636973000364378,True,17,1,0,3
Y2-S2-277K19,2,407,PS,exp,43,↓,down,↓,0.8245892999693751,True,17,1,0,3
Y2-S2-277K19,2,408,PS,exp,34,↑,down,↓,0.8103537000133656,False,17,-1,1,4
Y2-S2-277K19,2,409,PS,exp,46,→,right,→,0.5577359999879263,True,18,-1,0,4
Y2-S2-277K19,2,410,PS,exp,25,←,left,←,0.965971100027673,True,18,-1,0,4
Y2-S2-277K19,2,411,PS,exp,27,↓,left,←,1.1525936999823898,False,18,-1,0,4
Y2-S2-277K19,2,412,PS,exp,37,↑,no_key,no_letter,-1.0,False,19,-1,0,4
Y2-S2-277K19,2,413,PS,exp,37,←,left,←,0.6654171000118367,True,20,-1,0,4
Y2-S2-277K19,2,414,PS,exp,35,→,up,↑,1.335192000027746,False,20,-1,0,4
Y2-S2-277K19,2,415,PS,exp,49,↓,down,↓,1.5097808000282384,True,21,-1,0,4
Y2-S2-277K19,2,416,PS,exp,39,→,down,↓,1.0743280000169761,False,21,-1,0,4
Y2-S2-277K19,2,417,PS,exp,36,↑,up,↑,0.5399371000239626,True,22,-1,0,4
Y2-S2-277K19,2,418,PS,exp,48,→,right,→,1.2174776999745518,True,22,-1,0,4
Y2-S2-277K19,2,419,PS,exp,29,↓,down,↓,0.6581373999943025,True,22,1,1,5
Y2-S2-277K19,2,420,PS,exp,40,→,right,→,0.8287727999850176,True,21,1,0,5
Y2-S2-277K19,2,421,PS,exp,42,←,left,←,0.6981486000004224,True,21,1,0,5
Y2-S2-277K19,2,422,PS,exp,39,↓,down,↓,0.7513279000413604,True,21,1,0,5
Y2-S2-277K19,2,423,PS,exp,41,→,left,←,1.0493004999589175,False,20,-1,1,6
Y2-S2-277K19,2,424,PS,exp,43,↑,up,↑,0.7149227000190876,True,21,-1,0,6
Y2-S2-277K19,2,425,PS,exp,41,→,right,→,1.071604099997785,True,21,-1,0,6
Y2-S2-277K19,2,426,PS,exp,30,↓,right,→,1.331564599997364,False,21,-1,0,6
Y2-S2-277K19,2,427,PS,exp,47,↑,down,↓,1.0509046000079252,False,22,-1,0,6
Y2-S2-277K19,2,428,PS,exp,27,↓,down,↓,1.034652800008189,True,23,-1,0,6
Y2-S2-277K19,2,429,PS,exp,38,→,down,↓,1.2658722000196576,False,23,-1,0,6
Y2-S2-277K19,2,430,PS,exp,41,↑,down,↓,1.1517931999987923,False,24,-1,0,6
Y2-S2-277K19,2,431,PS,exp,39,→,right,→,0.6740098999580368,True,25,-1,0,6
Y2-S2-277K19,2,432,PS,exp,27,↑,up,↑,0.736538799945265,True,25,-1,0,6
Y2-S2-277K19,2,433,PS,exp,41,↓,up,↑,1.0009332000045106,False,25,-1,0,6
Y2-S2-277K19,2,434,PS,exp,36,↑,up,↑,0.5672442999784835,True,26,-1,0,6
Y2-S2-277K19,2,435,PS,exp,40,→,right,→,0.5674322000122629,True,26,-1,0,6
Y2-S2-277K19,2,436,PS,exp,43,←,left,←,0.7347645999980159,True,26,1,1,7
Y2-S2-277K19,2,437,PS,exp,28,↓,up,↑,0.910948000033386,False,25,-1,1,8
Y2-S2-277K19,2,438,PS,exp,25,→,right,→,0.8534979000105523,True,26,-1,0,8
Y2-S2-277K19,2,439,PS,exp,46,↑,right,→,0.8353967000148259,False,26,-1,0,8
Y2-S2-277K19,2,440,PS,exp,48,→,right,→,0.7141425000154413,True,27,-1,0,8
Y2-S2-277K19,2,441,PS,exp,50,↑,up,↑,0.7131527999881655,True,27,-1,0,8
Y2-S2-277K19,2,442,PS,exp,35,↓,down,↓,0.7187342999968678,True,27,1,1,9
Y2-S2-277K19,2,443,PS,exp,43,←,left,←,0.6793606999563053,True,26,1,0,9
Y2-S2-277K19,2,444,PS,exp,27,↑,up,↑,0.5170236999983899,True,26,1,0,9
Y2-S2-277K19,2,445,PS,exp,35,↓,down,↓,0.7067587000201456,True,26,1,0,9
Y2-S2-277K19,2,446,PS,exp,25,→,right,→,0.6522026999737136,True,25,1,0,9
Y2-S2-277K19,2,447,PS,exp,33,↓,down,↓,0.7136963999946602,True,25,1,0,9
Y2-S2-277K19,2,448,PS,exp,38,←,left,←,0.7633025000104681,True,25,1,0,9
Y2-S2-277K19,2,449,PS,exp,34,↑,up,↑,0.773367399990093,True,24,1,0,9
Y2-S2-277K19,2,450,PS,exp,25,←,left,←,0.5173779000178911,True,24,1,0,9
Y2-S2-277K19,2,451,PS,exp,50,↓,down,↓,0.5802987999632023,True,24,1,0,9
Y2-S2-277K19,2,452,PS,exp,38,→,no_key,no_letter,-1.0,False,23,-1,1,10
Y2-S2-277K19,2,453,PS,exp,25,←,left,←,0.8004739999887533,True,24,-1,0,10
Y2-S2-277K19,2,454,PS,exp,34,↑,up,↑,0.4839512999751605,True,24,-1,0,10
Y2-S2-277K19,2,455,PS,exp,34,←,left,←,0.9424588999827392,True,24,1,1,11
Y2-S2-277K19,2,456,PS,exp,46,↑,no_key,no_letter,-1.0,False,23,-1,1,12
Y2-S2-277K19,2,457,PS,exp,46,↓,down,↓,0.6953254999825731,True,24,-1,0,12
Y2-S2-277K19,2,458,PS,exp,36,→,right,→,1.0498278999584727,True,24,-1,0,12
Y2-S2-277K19,2,459,PS,exp,48,←,left,←,0.7051848999690264,True,24,1,1,13
Y2-S2-277K19,2,460,PS,exp,29,↓,down,↓,0.7297755000181496,True,23,1,0,13
Y2-S2-277K19,2,461,PS,exp,32,←,left,←,0.5661260000197217,True,23,1,0,13
Y2-S2-277K19,2,462,PS,exp,42,↓,down,↓,0.853647899988573,True,23,1,0,13
Y2-S2-277K19,2,463,PS,exp,37,→,right,→,0.7397490000003017,True,22,1,0,13
Y2-S2-277K19,2,464,PS,exp,44,←,left,←,0.43403590004891157,True,22,1,0,13
Y2-S2-277K19,2,465,PS,exp,39,↑,no_key,no_letter,-1.0,False,22,-1,1,14
Y2-S2-277K19,2,466,PS,exp,40,←,left,←,1.1466408999986015,True,23,-1,0,14
Y2-S2-277K19,2,467,PS,exp,38,↑,up,↑,0.6931764999753796,True,23,-1,0,14
Y2-S2-277K19,2,468,PS,exp,28,↓,up,↑,1.0659753999789245,False,23,-1,0,14
Y2-S2-277K19,2,469,PS,exp,49,↑,up,↑,0.6633591999998316,True,24,-1,0,14
Y2-S2-277K19,2,470,PS,exp,44,↓,up,↑,1.0980123999761418,False,24,-1,0,14
Y2-S2-277K19,2,471,PS,exp,40,↑,no_key,no_letter,-1.0,False,25,-1,0,14
Y2-S2-277K19,2,472,PS,exp,35,←,left,←,0.8648446000297554,True,26,-1,0,14
Y2-S2-277K19,2,473,PS,exp,47,→,right,→,0.7291002999991179,True,26,-1,0,14
Y2-S2-277K19,2,474,PS,exp,46,←,left,←,0.6439680999610573,True,26,1,1,15
Y2-S2-277K19,2,475,PS,exp,35,→,right,→,0.8314782000379637,True,25,1,0,15
Y2-S2-277K19,2,476,PS,exp,31,↑,up,↑,0.7631271999562159,True,25,1,0,15
Y2-S2-277K19,2,477,PS,exp,35,↓,down,↓,0.7367296000011265,True,25,1,0,15
Y2-S2-277K19,2,478,PS,exp,34,→,right,→,0.6818709000363015,True,24,1,0,15
Y2-S2-277K19,2,479,PS,exp,30,←,left,←,0.5175051999976858,True,24,1,0,15
Y2-S2-277K19,2,480,PS,exp,25,↓,down,↓,0.7196252000285313,True,24,1,0,15
Y2-S2-277K19,2,481,PS,exp,48,←,left,←,0.7155210999771953,True,23,1,0,15
Y2-S2-277K19,2,482,PS,exp,36,→,no_key,no_letter,-1.0,False,23,-1,1,16
Y2-S2-277K19,3,483,PS,intra_train,50,←,left,←,0.8363054000074044,True,25,-,-,-
Y2-S2-277K19,3,484,PS,intra_train,39,→,right,→,0.500560000014957,True,25,-,-,-
Y2-S2-277K19,3,485,PS,intra_train,38,←,left,←,0.5944741999846883,True,25,-,-,-
Y2-S2-277K19,3,486,PS,intra_train,36,→,no_key,no_letter,-1.0,False,25,-,-,-
Y2-S2-277K19,3,487,PS,intra_train,41,←,left,←,0.8674173000035807,True,25,-,-,-
Y2-S2-277K19,3,488,PS,exp,45,↓,down,↓,0.7608967999694869,True,17,0,0,0
Y2-S2-277K19,3,489,PS,exp,48,→,right,→,0.8507863999693654,True,17,0,0,0
Y2-S2-277K19,3,490,PS,exp,33,←,left,←,1.2499203000334091,True,17,1,0,0
Y2-S2-277K19,3,491,PS,exp,50,↓,down,↓,0.7604281999520026,True,16,1,0,0
Y2-S2-277K19,3,492,PS,exp,39,→,right,→,0.7971423999988474,True,16,1,0,0
Y2-S2-277K19,3,493,PS,exp,27,↓,down,↓,1.4607107999618165,True,16,1,0,0
Y2-S2-277K19,3,494,PS,exp,34,→,right,→,0.5745409000082873,True,15,1,0,0
Y2-S2-277K19,3,495,PS,exp,45,←,left,←,0.5461798000033014,True,15,1,0,0
Y2-S2-277K19,3,496,PS,exp,37,↓,down,↓,0.6673987999674864,True,15,1,0,0
Y2-S2-277K19,3,497,PS,exp,38,↑,down,↓,0.7930894999881275,False,14,-1,1,1
Y2-S2-277K19,3,498,PS,exp,35,↓,left,←,0.7392032999778166,False,15,-1,0,1
Y2-S2-277K19,3,499,PS,exp,49,←,left,←,0.7162519000121392,True,16,-1,0,1
Y2-S2-277K19,3,500,PS,exp,40,↑,left,←,0.7679317999863997,False,16,-1,0,1
Y2-S2-277K19,3,501,PS,exp,28,↓,down,↓,0.73209720000159,True,17,-1,0,1
Y2-S2-277K19,3,502,PS,exp,34,←,down,↓,0.9575568999862298,False,17,-1,0,1
Y2-S2-277K19,3,503,PS,exp,49,↑,up,↑,0.681422499998007,True,18,-1,0,1
Y2-S2-277K19,3,504,PS,exp,25,↓,down,↓,0.7444151999661699,True,18,-1,0,1
Y2-S2-277K19,3,505,PS,exp,47,→,right,→,0.6581509000388905,True,18,1,1,2
Y2-S2-277K19,3,506,PS,exp,25,←,left,←,0.7648159000091255,True,17,1,0,2
Y2-S2-277K19,3,507,PS,exp,25,↑,up,↑,0.6586200000019744,True,17,1,0,2
Y2-S2-277K19,3,508,PS,exp,43,←,left,←,0.9653240000479855,True,17,1,0,2
Y2-S2-277K19,3,509,PS,exp,29,→,up,↑,1.4309277000138536,False,16,-1,1,3
Y2-S2-277K19,3,510,PS,exp,43,←,left,←,0.6065097999526188,True,17,-1,0,3
Y2-S2-277K19,3,511,PS,exp,41,→,right,→,0.5996479999739677,True,17,-1,0,3
Y2-S2-277K19,3,512,PS,exp,34,←,left,←,0.5474156999844126,True,17,1,1,4
Y2-S2-277K19,3,513,PS,exp,27,↑,up,↑,0.4608956999727525,True,16,1,0,4
Y2-S2-277K19,3,514,PS,exp,26,↓,down,↓,0.8000606000423431,True,16,1,0,4
Y2-S2-277K19,3,515,PS,exp,43,→,right,→,0.9407605000305921,True,16,1,0,4
Y2-S2-277K19,3,516,PS,exp,40,↑,up,↑,0.518081899965182,True,15,1,0,4
Y2-S2-277K19,3,517,PS,exp,44,→,right,→,0.6698386000352912,True,15,1,0,4
Y2-S2-277K19,3,518,PS,exp,46,↑,up,↑,0.5550615999964066,True,15,1,0,4
Y2-S2-277K19,3,519,PS,exp,42,←,left,←,0.8046497000032105,True,14,1,0,4
Y2-S2-277K19,3,520,PS,exp,43,↓,up,↑,0.8851605000090785,False,14,-1,1,5
Y2-S2-277K19,3,521,PS,exp,27,↑,up,↑,0.597232999978587,True,15,-1,0,5
Y2-S2-277K19,3,522,PS,exp,43,→,right,→,0.7467190999886952,True,15,-1,0,5
Y2-S2-277K19,3,523,PS,exp,49,←,left,←,0.5802032999927178,True,15,1,1,6
Y2-S2-277K19,3,524,PS,exp,25,↓,down,↓,0.9494196999585256,True,14,1,0,6
Y2-S2-277K19,3,525,PS,exp,26,↑,up,↑,0.7142165000550449,True,14,1,0,6
Y2-S2-277K19,3,526,PS,exp,26,←,left,←,0.9016733000171371,True,14,1,0,6
Y2-S2-277K19,3,527,PS,exp,41,→,right,→,1.2428324000211433,True,13,1,0,6
Y2-S2-277K19,3,528,PS,exp,26,↑,up,↑,0.8358665000414476,True,13,1,0,6
Y2-S2-277K19,3,529,PS,exp,27,↓,up,↑,0.8340995999751613,False,13,-1,1,7
Y2-S2-277K19,3,530,PS,exp,26,←,right,→,0.5078140000114217,False,14,-1,0,7
Y2-S2-277K19,3,531,PS,exp,35,→,right,→,0.5505784000270069,True,15,-1,0,7
Y2-S2-277K19,3,532,PS,exp,50,←,up,↑,1.5122996999998577,False,15,-1,0,7
Y2-S2-277K19,3,533,PS,exp,44,→,right,→,0.9607095999526791,True,16,-1,0,7
Y2-S2-277K19,3,534,PS,exp,36,↓,up,↑,0.7116276000160724,False,16,-1,0,7
Y2-S2-277K19,3,535,PS,exp,34,→,right,→,0.6134829000220634,True,17,-1,0,7
Y2-S2-277K19,3,536,PS,exp,41,↓,down,↓,1.1528934999951161,True,17,-1,0,7
Y2-S2-277K19,3,537,PS,exp,37,→,right,→,0.8307216999819502,True,17,1,1,8
Y2-S2-277K19,3,538,PS,exp,44,↑,up,↑,0.7582922999863513,True,16,1,0,8
Y2-S2-277K19,3,539,PS,exp,26,←,left,←,1.0759053999790922,True,16,1,0,8
Y2-S2-277K19,3,540,PS,exp,28,↓,left,←,1.2807188999722712,False,16,-1,1,9
Y2-S2-277K19,3,541,PS,exp,34,↑,left,←,1.2282040000427514,False,17,-1,0,9
Y2-S2-277K19,3,542,PS,exp,38,↓,down,↓,0.6288106999709271,True,18,-1,0,9
Y2-S2-277K19,3,543,PS,exp,31,←,left,←,0.6585731999948621,True,18,-1,0,9
Y2-S2-277K19,3,544,PS,exp,47,→,right,→,0.6782204000046477,True,18,1,1,10
Y2-S2-277K19,3,545,PS,exp,37,↑,up,↑,0.6756162000237964,True,17,1,0,10
Y2-S2-277K19,3,546,PS,exp,46,←,down,↓,0.3503667999757454,False,17,-1,1,11
Y2-S2-277K19,3,547,PS,exp,31,→,right,→,1.697284399997443,True,18,-1,0,11
Y2-S2-277K19,3,548,PS,exp,47,←,left,←,0.6751084999996237,True,18,-1,0,11
Y2-S2-277K19,3,549,PS,exp,29,↑,up,↑,0.6163455999922007,True,18,1,1,12
Y2-S2-277K19,3,550,PS,exp,44,↓,down,↓,0.7532070000306703,True,17,1,0,12
Y2-S2-277K19,3,551,PS,exp,38,←,left,←,0.7168624000041746,True,17,1,0,12
Y2-S2-277K19,3,552,PS,exp,30,↑,up,↑,0.49766619998263195,True,17,1,0,12
Y2-S2-277K19,3,553,PS,exp,47,↓,down,↓,0.6580253000138327,True,16,1,0,12
Y2-S2-277K19,3,554,PS,exp,41,→,left,←,1.020944399992004,False,16,-1,1,13
Y2-S2-277K19,3,555,PS,exp,41,↑,up,↑,0.5225807999959216,True,17,-1,0,13
Y2-S2-277K19,3,556,PS,exp,39,←,left,←,0.6202625000150874,True,17,-1,0,13
Y2-S2-277K19,3,557,PS,exp,45,↓,down,↓,0.8257088999962434,True,17,1,1,14
Y2-S2-277K19,3,558,PS,exp,26,←,left,←,0.9594678000430577,True,16,1,0,14
Y2-S2-277K19,3,559,PS,exp,46,↓,down,↓,0.575830899993889,True,16,1,0,14
Y2-S2-277K19,3,560,PS,exp,47,→,right,→,0.46891559998039156,True,16,1,0,14
Y2-S2-277K19,3,561,PS,exp,42,↓,down,↓,0.920349299965892,True,15,1,0,14
Y2-S2-277K19,3,562,PS,exp,40,←,left,←,1.1205519000068307,True,15,1,0,14
Y2-S2-277K19,3,563,PS,exp,30,↓,no_key,no_letter,-1.0,False,15,-1,1,15
Y2-S2-277K19,3,564,PS,exp,31,→,left,←,1.2424585000262596,False,16,-1,0,15
Y2-S2-277K19,3,565,PS,exp,36,←,down,↓,1.4165394000010565,False,17,-1,0,15
Y2-S2-277K19,3,566,PS,exp,28,↑,up,↑,0.7607893999665976,True,18,-1,0,15
Y2-S2-277K19,3,567,PS,exp,35,↓,down,↓,0.8421730999834836,True,18,-1,0,15
Y2-S2-277K19,3,568,PS,exp,25,↑,up,↑,0.5825018000323325,True,18,1,1,16
Y2-S2-277K19,4,569,AS,intra_train,41,↓,down,↓,1.1513677999610081,True,90,-,-,-
Y2-S2-277K19,4,570,AS,intra_train,46,↑,up,↑,0.6011645000544377,True,90,-,-,-
Y2-S2-277K19,4,571,AS,intra_train,38,←,left,←,0.7513113999739289,True,90,-,-,-
Y2-S2-277K19,4,572,AS,intra_train,26,↓,down,↓,1.451294299971778,True,90,-,-,-
Y2-S2-277K19,4,573,AS,intra_train,48,←,left,←,1.1845009999815375,True,90,-,-,-
Y2-S2-277K19,4,574,AS,exp,45,↑,up,↑,0.8846972000319511,True,60,0,0,0
Y2-S2-277K19,4,575,AS,exp,27,→,left,←,0.6844737000064924,False,60,-1,0,0
Y2-S2-277K19,4,576,AS,exp,25,←,left,←,0.8176806999836117,True,61,-1,0,0
Y2-S2-277K19,4,577,AS,exp,41,↑,up,↑,0.7844447999959812,True,61,-1,0,0
Y2-S2-277K19,4,578,AS,exp,25,←,left,←,0.7344935000292026,True,61,1,1,1
Y2-S2-277K19,4,579,AS,exp,31,↑,up,↑,0.5674715000204742,True,60,1,0,1
Y2-S2-277K19,4,580,AS,exp,35,←,left,←,0.934263400034979,True,60,1,0,1
Y2-S2-277K19,4,581,AS,exp,30,→,right,→,0.6843118999968283,True,60,1,0,1
Y2-S2-277K19,4,582,AS,exp,46,←,left,←,1.0339504999574274,True,59,1,0,1
Y2-S2-277K19,4,583,AS,exp,40,→,right,→,0.6509321999619715,True,59,1,0,1
Y2-S2-277K19,4,584,AS,exp,42,←,left,←,0.9177770999958739,True,59,1,0,1
Y2-S2-277K19,4,585,AS,exp,35,↑,up,↑,0.9508419000194408,True,58,1,0,1
Y2-S2-277K19,4,586,AS,exp,46,←,left,←,0.8013263000175357,True,58,1,0,1
Y2-S2-277K19,4,587,AS,exp,42,↓,down,↓,1.0505112999817356,True,58,1,0,1
Y2-S2-277K19,4,588,AS,exp,34,←,left,←,1.1715305999969132,True,57,1,0,1
Y2-S2-277K19,4,589,AS,exp,26,↑,up,↑,0.8343260000110604,True,57,1,0,1
Y2-S2-277K19,4,590,AS,exp,42,→,right,→,0.8345059999846853,True,57,1,0,1
Y2-S2-277K19,4,591,AS,exp,36,↓,down,↓,1.1720090000308119,True,56,1,0,1
Y2-S2-277K19,4,592,AS,exp,48,→,right,→,0.7176296999678016,True,56,1,0,1
Y2-S2-277K19,4,593,AS,exp,33,←,left,←,0.7843514999840409,True,56,1,0,1
Y2-S2-277K19,4,594,AS,exp,44,↓,down,↓,0.8844562999438494,True,55,1,0,1
Y2-S2-277K19,4,595,AS,exp,31,↑,up,↑,0.818128600018099,True,55,1,0,1
Y2-S2-277K19,4,596,AS,exp,30,←,left,←,0.9842375000007451,True,55,1,0,1
Y2-S2-277K19,4,597,AS,exp,47,→,right,→,0.9508588000317104,True,54,1,0,1
Y2-S2-277K19,4,598,AS,exp,26,↓,down,↓,1.1452525000204332,True,54,1,0,1
Y2-S2-277K19,4,599,AS,exp,42,↑,up,↑,0.601035600004252,True,54,1,0,1
Y2-S2-277K19,4,600,AS,exp,43,←,left,←,0.6676407000049949,True,53,1,0,1
Y2-S2-277K19,4,601,AS,exp,29,↑,up,↑,0.5510581000125967,True,53,1,0,1
Y2-S2-277K19,4,602,AS,exp,39,←,left,←,0.9837066999753006,True,53,1,0,1
Y2-S2-277K19,4,603,AS,exp,46,→,right,→,0.5172273999778554,True,52,1,0,1
Y2-S2-277K19,4,604,AS,exp,30,↑,up,↑,0.6677882999647409,True,52,1,0,1
Y2-S2-277K19,4,605,AS,exp,26,←,left,←,0.8343225000426173,True,52,1,0,1
Y2-S2-277K19,4,606,AS,exp,37,↓,down,↓,0.6010106999892741,True,51,1,0,1
Y2-S2-277K19,4,607,AS,exp,27,→,right,→,0.6007309999549761,True,51,1,0,1
Y2-S2-277K19,4,608,AS,exp,39,↓,down,↓,0.6345948000089265,True,51,1,0,1
Y2-S2-277K19,4,609,AS,exp,28,→,right,→,0.7009710000129417,True,50,1,0,1
Y2-S2-277K19,4,610,AS,exp,26,←,left,←,0.8506549999583513,True,50,1,0,1
Y2-S2-277K19,4,611,AS,exp,26,↑,up,↑,0.6344975999672897,True,50,1,0,1
Y2-S2-277K19,4,612,AS,exp,34,←,left,←,0.917885800008662,True,49,1,0,1
Y2-S2-277K19,4,613,AS,exp,30,↓,down,↓,1.0639733000425622,True,49,1,0,1
Y2-S2-277K19,4,614,AS,exp,40,↑,up,↑,0.6841595000005327,True,49,1,0,1
Y2-S2-277K19,4,615,AS,exp,26,→,right,→,0.7678982999641448,True,48,1,0,1
Y2-S2-277K19,4,616,AS,exp,37,↑,up,↑,0.7009792000171728,True,48,1,0,1
Y2-S2-277K19,4,617,AS,exp,43,→,right,→,0.7676086000283249,True,48,1,0,1
Y2-S2-277K19,4,618,AS,exp,35,↓,down,↓,0.6676092999987304,True,47,1,0,1
Y2-S2-277K19,4,619,AS,exp,45,→,right,→,0.7010825000470504,True,47,1,0,1
Y2-S2-277K19,4,620,AS,exp,37,←,left,←,0.8839170000283048,True,47,1,0,1
Y2-S2-277K19,4,621,AS,exp,34,↑,up,↑,2.0305800000205636,True,46,1,0,1
Y2-S2-277K19,4,622,AS,exp,50,↓,down,↓,0.7174943999852985,True,46,1,0,1
Y2-S2-277K19,4,623,AS,exp,42,←,left,←,0.6842342999880202,True,46,1,0,1
Y2-S2-277K19,4,624,AS,exp,35,↓,down,↓,1.0081840000348166,True,45,1,0,1
Y2-S2-277K19,4,625,AS,exp,49,↑,up,↑,0.6349139999947511,True,45,1,0,1
Y2-S2-277K19,4,626,AS,exp,34,→,right,→,0.7672251999611035,True,45,1,0,1
Y2-S2-277K19,4,627,AS,exp,40,↑,up,↑,0.8671304999734275,True,44,1,0,1
Y2-S2-277K19,4,628,AS,exp,32,→,right,→,0.8008188999956474,True,44,1,0,1
Y2-S2-277K19,4,629,AS,exp,27,↓,down,↓,1.123579500010237,True,44,1,0,1
Y2-S2-277K19,4,630,AS,exp,33,→,right,→,0.6510154999559745,True,43,1,0,1
Y2-S2-277K19,4,631,AS,exp,40,↑,up,↑,0.8506860000197776,True,43,1,0,1
Y2-S2-277K19,4,632,AS,exp,40,←,left,←,0.9669281000387855,True,43,1,0,1
Y2-S2-277K19,4,633,AS,exp,25,↓,down,↓,0.5679534000228159,True,42,1,0,1
Y2-S2-277K19,4,634,AS,exp,40,→,right,→,0.7505596000119112,True,42,1,0,1
Y2-S2-277K19,4,635,AS,exp,47,←,left,←,0.6509035999770276,True,42,1,0,1
Y2-S2-277K19,4,636,AS,exp,31,↑,up,↑,0.7340792999602854,True,41,1,0,1
Y2-S2-277K19,4,637,AS,exp,39,→,right,→,1.0713738999911584,True,41,1,0,1
Y2-S2-277K19,4,638,AS,exp,50,↑,up,↑,0.7340243000071496,True,41,1,0,1
Y2-S2-277K19,4,639,AS,exp,36,↓,down,↓,0.8489313999889418,True,40,1,0,1
Y2-S2-277K19,4,640,AS,exp,36,←,left,←,0.6505248000030406,True,40,1,0,1
Y2-S2-277K19,4,641,AS,exp,39,↑,up,↑,0.6840935000218451,True,40,1,0,1
Y2-S2-277K19,4,642,AS,exp,34,↓,down,↓,0.6012628999887966,True,39,1,0,1
Y2-S2-277K19,4,643,AS,exp,46,←,left,←,0.550790400011465,True,39,1,0,1
Y2-S2-277K19,4,644,AS,exp,25,↑,up,↑,0.8311753000016324,True,39,1,0,1
Y2-S2-277K19,4,645,AS,exp,48,→,right,→,0.9524885999853723,True,38,1,0,1
Y2-S2-277K19,4,646,AS,exp,36,←,left,←,0.6170410999911837,True,38,1,0,1
Y2-S2-277K19,4,647,AS,exp,38,↓,down,↓,0.7505839000223204,True,38,1,0,1
Y2-S2-277K19,4,648,AS,exp,42,→,right,→,0.9815187000203878,True,37,1,0,1
Y2-S2-277K19,4,649,AS,exp,46,←,left,←,0.8196696999948472,True,37,1,0,1
Y2-S2-277K19,4,650,AS,exp,35,→,no_key,no_letter,-1.0,False,37,-1,1,2
Y2-S2-277K19,4,651,AS,exp,43,↓,down,↓,0.9855763000086881,True,38,-1,0,2
Y2-S2-277K19,4,652,AS,exp,33,↑,up,↑,0.6673258999944665,True,38,-1,0,2
Y2-S2-277K19,4,653,AS,exp,33,→,right,→,0.7502350999857299,True,38,1,1,3
Y2-S2-277K19,4,654,AS,exp,29,↑,up,↑,1.0227372999652289,True,37,1,0,3
Y2-S2-277K19,4,655,AS,exp,37,→,right,→,0.5511162999900989,True,37,1,0,3
Y2-S2-277K19,4,656,AS,exp,38,↑,up,↑,0.7340722000226378,True,37,1,0,3
Y2-S2-277K19,4,657,AS,exp,42,↓,right,→,0.6341142999590375,False,36,-1,1,4
Y2-S2-277K19,4,658,AS,exp,46,→,right,→,0.7004473999841139,True,37,-1,0,4
Y2-S2-277K19,4,659,AS,exp,38,↑,up,↑,0.7006932999938726,True,37,-1,0,4
Y2-S2-277K19,4,660,AS,exp,33,↓,down,↓,2.180871599994134,True,37,1,1,5
Y2-S2-277K19,4,661,AS,exp,27,←,left,←,0.7810431999969296,True,36,1,0,5
Y2-S2-277K19,4,662,AS,exp,33,→,right,→,0.7177062999689952,True,36,1,0,5
Y2-S2-277K19,4,663,AS,exp,29,↓,down,↓,0.8003843000042252,True,36,1,0,5
Y2-S2-277K19,4,664,AS,exp,41,↑,up,↑,0.6173137000296265,True,35,1,0,5
Y2-S2-277K19,4,665,AS,exp,29,←,right,→,1.3166745000053197,False,35,-1,1,6
Y2-S2-277K19,4,666,AS,exp,33,↑,up,↑,1.0771080999984406,True,36,-1,0,6
Y2-S2-277K19,4,667,AS,exp,40,←,left,←,1.6965733999968506,True,36,-1,0,6
Y2-S2-277K19,4,668,AS,exp,44,→,right,→,0.9586986000067554,True,36,1,1,7
Y2-S2-277K19,4,669,AS,exp,37,←,left,←,0.9044374999939464,True,35,1,0,7
Y2-S2-277K19,4,670,AS,exp,43,↑,up,↑,1.0659165999968536,True,35,1,0,7
Y2-S2-277K19,4,671,AS,exp,37,←,left,←,1.0683901000302285,True,35,1,0,7
Y2-S2-277K19,4,672,AS,exp,50,↑,up,↑,0.8680432999972254,True,34,1,0,7
Y2-S2-277K19,4,673,AS,exp,34,←,left,←,0.8369225999922492,True,34,1,0,7
Y2-S2-277K19,4,674,AS,exp,49,→,right,→,0.6509320000186563,True,34,1,0,7
Y2-S2-277K19,4,675,AS,exp,50,↓,down,↓,1.0883938999613747,True,33,1,0,7
Y2-S2-277K19,4,676,AS,exp,31,↑,no_key,no_letter,-1.0,False,33,-1,1,8
Y2-S2-277K19,4,677,AS,exp,25,↓,down,↓,1.205408299982082,True,34,-1,0,8
Y2-S2-277K19,4,678,AS,exp,40,←,left,←,1.6419587999698706,True,34,-1,0,8
Y2-S2-277K19,4,679,AS,exp,46,→,right,→,0.9588810999994166,True,34,1,1,9
Y2-S2-277K19,4,680,AS,exp,38,←,left,←,1.092249500041362,True,33,1,0,9
Y2-S2-277K19,4,681,AS,exp,25,↓,down,↓,1.021292999968864,True,33,1,0,9
Y2-S2-277K19,4,682,AS,exp,26,←,left,←,1.3286611000075936,True,33,1,0,9
Y2-S2-277K19,4,683,AS,exp,31,→,right,→,0.9930660999962129,True,32,1,0,9
Y2-S2-277K19,4,684,AS,exp,40,←,left,←,1.1955536999739707,True,32,1,0,9
Y2-S2-277K19,4,685,AS,exp,45,→,right,→,1.0887475000345148,True,32,1,0,9
Y2-S2-277K19,4,686,AS,exp,30,↓,down,↓,1.1358664999715984,True,31,1,0,9
Y2-S2-277K19,4,687,AS,exp,28,←,left,←,1.526021600002423,True,31,1,0,9
Y2-S2-277K19,4,688,AS,exp,32,→,right,→,0.9011957000475377,True,31,1,0,9
Y2-S2-277K19,4,689,AS,exp,44,←,left,←,0.7220165000180714,True,30,1,0,9
Y2-S2-277K19,4,690,AS,exp,35,↓,down,↓,1.152171100024134,True,30,1,0,9
Y2-S2-277K19,4,691,AS,exp,29,→,up,↑,1.758931800024584,False,30,-1,1,10
Y2-S2-277K19,4,692,AS,exp,35,↑,up,↑,0.51734880002914,True,31,-1,0,10
Y2-S2-277K19,4,693,AS,exp,44,←,left,←,1.6321145999827422,True,31,-1,0,10
Y2-S2-277K19,4,694,AS,exp,33,↑,up,↑,1.980008699989412,True,31,1,1,11
Y2-S2-277K19,4,695,AS,exp,25,↓,down,↓,0.9246391000342555,True,30,1,0,11
Y2-S2-277K19,4,696,AS,exp,34,↑,up,↑,1.0609521000296809,True,30,1,0,11
Y2-S2-277K19,4,697,AS,exp,27,←,left,←,2.0765491000493057,True,30,1,0,11
Y2-S2-277K19,4,698,AS,exp,31,↓,down,↓,0.9084508999949321,True,29,1,0,11
Y2-S2-277K19,4,699,AS,exp,43,↑,up,↑,0.8379286000272259,True,29,1,0,11
Y2-S2-277K19,4,700,AS,exp,38,←,left,←,1.6530882000224665,True,29,1,0,11
Y2-S2-277K19,4,701,AS,exp,46,↓,down,↓,1.3869445999735035,True,28,1,0,11
Y2-S2-277K19,4,702,AS,exp,34,→,right,→,0.8215345000498928,True,28,1,0,11
Y2-S2-277K19,4,703,AS,exp,30,↓,no_key,no_letter,-1.0,False,28,-1,1,12
Y2-S2-277K19,4,704,AS,exp,44,←,left,←,0.9864955000230111,True,29,-1,0,12
Y2-S2-277K19,4,705,AS,exp,34,→,right,→,0.9368714999873191,True,29,-1,0,12
Y2-S2-277K19,4,706,AS,exp,29,↑,up,↑,1.2462605999899097,True,29,1,1,13
Y2-S2-277K19,4,707,AS,exp,38,→,right,→,0.9237100000027567,True,28,1,0,13
Y2-S2-277K19,4,708,AS,exp,37,↓,no_key,no_letter,-1.0,False,28,-1,1,14
Y2-S2-277K19,4,709,AS,exp,30,→,right,→,0.8015407999628223,True,29,-1,0,14
Y2-S2-277K19,4,710,AS,exp,42,↓,down,↓,0.9237682999810204,True,29,-1,0,14
Y2-S2-277K19,4,711,AS,exp,38,←,left,←,1.3132142000249587,True,29,1,1,15
Y2-S2-277K19,4,712,AS,exp,34,↑,up,↑,0.8452165999915451,True,28,1,0,15
Y2-S2-277K19,4,713,AS,exp,31,←,left,←,1.2386944000027142,True,28,1,0,15
Y2-S2-277K19,4,714,AS,exp,33,↓,left,←,1.5546154999756254,False,28,-1,1,16
Y2-S2-277K19,5,715,AS,intra_train,50,←,left,←,0.96750400000019,True,90,-,-,-
Y2-S2-277K19,5,716,AS,intra_train,27,↓,down,↓,0.9174830000265501,True,90,-,-,-
Y2-S2-277K19,5,717,AS,intra_train,41,→,right,→,0.9844765000161715,True,90,-,-,-
Y2-S2-277K19,5,718,AS,intra_train,44,←,left,←,0.7180411999579519,True,90,-,-,-
Y2-S2-277K19,5,719,AS,intra_train,31,↑,up,↑,0.834381700027734,True,90,-,-,-
Y2-S2-277K19,5,720,AS,exp,30,→,right,→,0.984046799945645,True,60,0,0,0
Y2-S2-277K19,5,721,AS,exp,26,↓,down,↓,0.8010115000070073,True,60,0,0,0
Y2-S2-277K19,5,722,AS,exp,46,↑,up,↑,0.8684832999715582,True,60,1,0,0
Y2-S2-277K19,5,723,AS,exp,33,←,left,←,0.9344954999978654,True,59,1,0,0
Y2-S2-277K19,5,724,AS,exp,36,↓,down,↓,0.8845439000288025,True,59,1,0,0
Y2-S2-277K19,5,725,AS,exp,25,←,left,←,0.5510652000084519,True,59,1,0,0
Y2-S2-277K19,5,726,AS,exp,49,↑,right,→,0.43434649996925145,False,58,-1,1,1
Y2-S2-277K19,5,727,AS,exp,44,→,left,←,0.9177828999818303,False,59,-1,0,1
Y2-S2-277K19,5,728,AS,exp,45,←,left,←,0.784327800036408,True,60,-1,0,1
Y2-S2-277K19,5,729,AS,exp,37,→,right,→,0.6348457999993116,True,60,-1,0,1
Y2-S2-277K19,5,730,AS,exp,36,↓,down,↓,1.1975270999828354,True,60,1,1,2
Y2-S2-277K19,5,731,AS,exp,50,←,up,↑,1.9145389000186697,False,59,-1,1,3
Y2-S2-277K19,5,732,AS,exp,27,↑,up,↑,1.000629799964372,True,60,-1,0,3
Y2-S2-277K19,5,733,AS,exp,47,←,left,←,1.0171549000078812,True,60,-1,0,3
Y2-S2-277K19,5,734,AS,exp,37,↓,down,↓,0.9675335000501946,True,60,1,1,4
Y2-S2-277K19,5,735,AS,exp,33,→,right,→,0.9843760000076145,True,59,1,0,4
Y2-S2-277K19,5,736,AS,exp,25,↑,up,↑,0.9839817999745719,True,59,1,0,4
Y2-S2-277K19,5,737,AS,exp,31,↓,down,↓,0.9508096000063233,True,59,1,0,4
Y2-S2-277K19,5,738,AS,exp,27,→,down,↓,2.1723689999780618,False,58,-1,1,5
Y2-S2-277K19,5,739,AS,exp,39,↓,down,↓,1.190988800022751,True,59,-1,0,5
Y2-S2-277K19,5,740,AS,exp,32,←,down,↓,1.926740399969276,False,59,-1,0,5
Y2-S2-277K19,5,741,AS,exp,39,↓,down,↓,1.1752681999932975,True,60,-1,0,5
Y2-S2-277K19,5,742,AS,exp,36,↑,down,↓,1.3293196000158787,False,60,-1,0,5
Y2-S2-277K19,5,743,AS,exp,49,←,down,↓,1.8494413000298664,False,61,-1,0,5
Y2-S2-277K19,5,744,AS,exp,32,↑,up,↑,1.89942680002423,True,62,-1,0,5
Y2-S2-277K19,5,745,AS,exp,35,←,left,←,1.4784176000393927,True,62,-1,0,5
Y2-S2-277K19,5,746,AS,exp,26,↑,up,↑,0.8841373000177555,True,62,1,1,6
Y2-S2-277K19,5,747,AS,exp,36,→,no_key,no_letter,-1.0,False,61,-1,1,7
Y2-S2-277K19,5,748,AS,exp,27,↓,down,↓,2.1755464000161737,True,62,-1,0,7
Y2-S2-277K19,5,749,AS,exp,33,→,right,→,0.9509072999935597,True,62,-1,0,7
Y2-S2-277K19,5,750,AS,exp,40,↑,left,←,2.1657816999941133,False,62,-1,0,7
Y2-S2-277K19,5,751,AS,exp,32,→,right,→,0.8844139999710023,True,63,-1,0,7
Y2-S2-277K19,5,752,AS,exp,44,←,left,←,1.1172224000329152,True,63,-1,0,7
Y2-S2-277K19,5,753,AS,exp,33,↓,down,↓,1.4524665999924764,True,63,1,1,8
Y2-S2-277K19,5,754,AS,exp,50,↑,down,↓,1.6727668000385165,False,62,-1,1,9
Y2-S2-277K19,5,755,AS,exp,32,←,left,←,1.1672639999887906,True,63,-1,0,9
Y2-S2-277K19,5,756,AS,exp,50,↓,down,↓,0.95093910000287,True,63,-1,0,9
Y2-S2-277K19,5,757,AS,exp,25,←,left,←,0.667667200032156,True,63,1,1,10
Y2-S2-277K19,5,758,AS,exp,40,↓,down,↓,0.7843695000046864,True,62,1,0,10
Y2-S2-277K19,5,759,AS,exp,45,←,left,←,0.9347839999827556,True,62,1,0,10
Y2-S2-277K19,5,760,AS,exp,34,→,left,←,1.734986099996604,False,62,-1,1,11
Y2-S2-277K19,5,761,AS,exp,42,↑,up,↑,1.4345803000032902,True,63,-1,0,11
Y2-S2-277K19,5,762,AS,exp,40,←,left,←,0.9512766000116244,True,63,-1,0,11
Y2-S2-277K19,5,763,AS,exp,30,↓,down,↓,0.70104309997987,True,63,1,1,12
Y2-S2-277K19,5,764,AS,exp,49,↑,up,↑,0.6012551999883726,True,62,1,0,12
Y2-S2-277K19,5,765,AS,exp,31,→,right,→,1.11739289999241,True,62,1,0,12
Y2-S2-277K19,5,766,AS,exp,33,←,right,→,0.7176238000392914,False,62,-1,1,13
Y2-S2-277K19,5,767,AS,exp,37,↑,right,→,0.21769590000621974,False,63,-1,0,13
Y2-S2-277K19,5,768,AS,exp,35,↓,up,↑,0.5511110999505036,False,64,-1,0,13
Y2-S2-277K19,5,769,AS,exp,50,↑,up,↑,1.3461880999966525,True,65,-1,0,13
Y2-S2-277K19,5,770,AS,exp,28,↓,up,↑,0.9176506999647245,False,65,-1,0,13
Y2-S2-277K19,5,771,AS,exp,44,↑,up,↑,0.7848779000341892,True,66,-1,0,13
Y2-S2-277K19,5,772,AS,exp,44,→,down,↓,2.2876157999853604,False,66,-1,0,13
Y2-S2-277K19,5,773,AS,exp,36,←,left,←,1.4501270999899134,True,67,-1,0,13
Y2-S2-277K19,5,774,AS,exp,25,↑,up,↑,0.834292399988044,True,67,-1,0,13
Y2-S2-277K19,5,775,AS,exp,42,↓,down,↓,1.067818800045643,True,67,1,1,14
Y2-S2-277K19,5,776,AS,exp,41,←,left,←,0.8010251999949105,True,66,1,0,14
Y2-S2-277K19,5,777,AS,exp,42,→,right,→,0.9844690000172704,True,66,1,0,14
Y2-S2-277K19,5,778,AS,exp,38,←,left,←,1.1014761999831535,True,66,1,0,14
Y2-S2-277K19,5,779,AS,exp,27,→,right,→,1.3255518000223674,True,65,1,0,14
Y2-S2-277K19,5,780,AS,exp,36,↓,down,↓,1.3983200000366196,True,65,1,0,14
Y2-S2-277K19,5,781,AS,exp,48,←,up,↑,2.722389300004579,False,65,-1,1,15
Y2-S2-277K19,5,782,AS,exp,30,→,no_key,no_letter,-1.0,False,66,-1,0,15
Y2-S2-277K19,5,783,AS,exp,31,←,left,←,1.7840344000142068,True,67,-1,0,15
Y2-S2-277K19,5,784,AS,exp,43,↓,down,↓,1.3284383999998681,True,67,-1,0,15
Y2-S2-277K19,5,785,AS,exp,41,↑,up,↑,1.0010897999745794,True,67,1,1,16
Y2-S2-277K19,6,786,PS,intra_train,41,←,left,←,1.6124634000007063,True,25,-,-,-
Y2-S2-277K19,6,787,PS,intra_train,44,↓,down,↓,0.8626021999516524,True,25,-,-,-
Y2-S2-277K19,6,788,PS,intra_train,44,←,left,←,1.5448048999533057,True,25,-,-,-
Y2-S2-277K19,6,789,PS,intra_train,41,↑,up,↑,0.8956652999622747,True,25,-,-,-
Y2-S2-277K19,6,790,PS,intra_train,26,→,no_key,no_letter,-1.0,False,25,-,-,-
Y2-S2-277K19,6,791,PS,exp,35,↓,right,→,1.7173012000275776,False,17,-1,0,0
Y2-S2-277K19,6,792,PS,exp,36,→,right,→,0.6191860000253655,True,18,-1,0,0
Y2-S2-277K19,6,793,PS,exp,30,←,left,←,0.5379200000315905,True,18,-1,0,0
Y2-S2-277K19,6,794,PS,exp,35,↑,up,↑,0.6867361000040546,True,18,1,1,1
Y2-S2-277K19,6,795,PS,exp,39,→,right,→,0.7649361000512727,True,17,1,0,1
Y2-S2-277K19,6,796,PS,exp,45,↓,down,↓,0.781293399981223,True,17,1,0,1
Y2-S2-277K19,6,797,PS,exp,40,→,left,←,0.9762805000063963,False,17,-1,1,2
Y2-S2-277K19,6,798,PS,exp,33,←,right,→,0.6219940000446513,False,18,-1,0,2
Y2-S2-277K19,6,799,PS,exp,39,↑,up,↑,0.49907790002180263,True,19,-1,0,2
Y2-S2-277K19,6,800,PS,exp,47,↓,down,↓,0.769154499983415,True,19,-1,0,2
Y2-S2-277K19,6,801,PS,exp,37,←,left,←,0.6102784000104293,True,19,1,1,3
Y2-S2-277K19,6,802,PS,exp,35,→,right,→,0.6045905000064522,True,18,1,0,3
Y2-S2-277K19,6,803,PS,exp,33,↑,up,↑,1.4721615000162274,True,18,1,0,3
Y2-S2-277K19,6,804,PS,exp,36,←,left,←,0.7740687999757938,True,18,1,0,3
Y2-S2-277K19,6,805,PS,exp,48,↑,up,↑,0.5555291999480687,True,17,1,0,3
Y2-S2-277K19,6,806,PS,exp,29,↓,right,→,1.1555438000359572,False,17,-1,1,4
Y2-S2-277K19,6,807,PS,exp,34,↑,up,↑,1.0888689000275917,True,18,-1,0,4
Y2-S2-277K19,6,808,PS,exp,39,→,right,→,1.0838333000428975,True,18,-1,0,4
Y2-S2-277K19,6,809,PS,exp,26,↑,right,→,0.9446639000088908,False,18,-1,0,4
Y2-S2-277K19,6,810,PS,exp,35,→,right,→,0.9160432000062428,True,19,-1,0,4
Y2-S2-277K19,6,811,PS,exp,48,↓,left,←,0.4003833999740891,False,19,-1,0,4
Y2-S2-277K19,6,812,PS,exp,44,↑,left,←,0.6027239999966696,False,20,-1,0,4
Y2-S2-277K19,6,813,PS,exp,31,←,up,↑,0.8797031000140123,False,21,-1,0,4
Y2-S2-277K19,6,814,PS,exp,45,↓,right,→,0.6538379999692552,False,22,-1,0,4
Y2-S2-277K19,6,815,PS,exp,27,→,left,←,0.8245684999856167,False,23,-1,0,4
Y2-S2-277K19,6,816,PS,exp,50,↓,up,↑,0.051550400035921484,False,24,-1,0,4
Y2-S2-277K19,6,817,PS,exp,44,↑,right,→,1.3226916999556124,False,25,-1,0,4
Y2-S2-277K19,6,818,PS,exp,33,→,right,→,0.30127499997615814,True,26,-1,0,4
Y2-S2-277K19,6,819,PS,exp,35,↓,right,→,0.3676335000200197,False,26,-1,0,4
Y2-S2-277K19,6,820,PS,exp,44,←,right,→,0.3345092000090517,False,27,-1,0,4
Y2-S2-277K19,6,821,PS,exp,48,↓,right,→,0.8560244999825954,False,28,-1,0,4
Y2-S2-277K19,6,822,PS,exp,46,→,no_key,no_letter,-1.0,False,29,-1,0,4
Y2-S2-277K19,6,823,PS,exp,40,↓,up,↑,1.5407571999821812,False,30,-1,0,4
Y2-S2-277K19,6,824,PS,exp,26,↑,up,↑,1.1892720000469126,True,31,-1,0,4
Y2-S2-277K19,6,825,PS,exp,45,↓,down,↓,0.9171543000265956,True,31,-1,0,4
Y2-S2-277K19,6,826,PS,exp,38,←,down,↓,0.16762279998511076,False,31,-1,0,4
Y2-S2-277K19,6,827,PS,exp,46,↓,down,↓,1.2987299999804236,True,32,-1,0,4
Y2-S2-277K19,6,828,PS,exp,50,←,left,←,1.610721500008367,True,32,-1,0,4
Y2-S2-277K19,6,829,PS,exp,49,→,no_key,no_letter,-1.0,False,32,-1,0,4
Y2-S2-277K19,6,830,PS,exp,27,←,left,←,0.7863875000039116,True,33,-1,0,4
Y2-S2-277K19,6,831,PS,exp,41,↓,left,←,1.531910199963022,False,33,-1,0,4
Y2-S2-277K19,6,832,PS,exp,44,↑,no_key,no_letter,-1.0,False,34,-1,0,4
Y2-S2-277K19,6,833,PS,exp,27,→,up,↑,2.0057511999621056,False,35,-1,0,4
Y2-S2-277K19,6,834,PS,exp,48,↑,up,↑,1.1588432000135072,True,36,-1,0,4
Y2-S2-277K19,6,835,PS,exp,28,→,no_key,no_letter,-1.0,False,36,-1,0,4
Y2-S2-277K19,6,836,PS,exp,31,↑,up,↑,0.7009859999525361,True,37,-1,0,4
Y2-S2-277K19,6,837,PS,exp,34,↓,no_key,no_letter,-1.0,False,37,-1,0,4
Y2-S2-277K19,6,838,PS,exp,26,↑,up,↑,1.1611249999841675,True,38,-1,0,4
Y2-S2-277K19,6,839,PS,exp,36,→,up,↑,1.8308086000033654,False,38,-1,0,4
Y2-S2-277K19,6,840,PS,exp,28,↓,up,↑,0.6177509999834001,False,39,-1,0,4
Y2-S2-277K19,6,841,PS,exp,29,↑,up,↑,1.2094371999846771,True,40,-1,0,4
Y2-S2-277K19,6,842,PS,exp,47,→,right,→,0.8366750000277534,True,40,-1,0,4
Y2-S2-277K19,6,843,PS,exp,27,↑,up,↑,0.6348200999782421,True,40,1,1,5
Y2-S2-277K19,6,844,PS,exp,33,→,right,→,0.5344968999852426,True,39,1,0,5
Y2-S2-277K19,6,845,PS,exp,35,←,no_key,no_letter,-1.0,False,39,-1,1,6
Y2-S2-277K19,6,846,PS,exp,48,→,right,→,1.0735854000085965,True,40,-1,0,6
Y2-S2-277K19,6,847,PS,exp,44,←,left,←,0.8445376000017859,True,40,-1,0,6
Y2-S2-277K19,6,848,PS,exp,37,↓,down,↓,0.870420599996578,True,40,1,1,7
Y2-S2-277K19,6,849,PS,exp,42,↑,up,↑,0.5182999999960884,True,39,1,0,7
Y2-S2-277K19,6,850,PS,exp,43,→,right,→,0.4681694000028074,True,39,1,0,7
Y2-S2-277K19,6,851,PS,exp,42,↑,up,↑,0.43458749999990687,True,39,1,0,7
Y2-S2-277K19,6,852,PS,exp,28,↓,down,↓,1.0410024999873713,True,38,1,0,7
Y2-S2-277K19,6,853,PS,exp,30,←,left,←,0.6837590999784879,True,38,1,0,7
Y2-S2-277K19,6,854,PS,exp,26,↓,down,↓,0.6176282999804243,True,38,1,0,7
Y2-S2-277K19,6,855,PS,exp,47,→,right,→,0.7006884999573231,True,37,1,0,7
Y2-S2-277K19,6,856,PS,exp,50,←,left,←,0.9088775999844074,True,37,1,0,7
Y2-S2-277K19,6,857,PS,exp,30,↑,up,↑,0.6009747000061907,True,37,1,0,7
Y2-S2-277K19,6,858,PS,exp,40,↓,down,↓,0.5341798000154085,True,36,1,0,7
Y2-S2-277K19,6,859,PS,exp,32,→,right,→,0.6006250000209548,True,36,1,0,7
Y2-S2-277K19,6,860,PS,exp,38,↓,down,↓,0.5344084000098519,True,36,1,0,7
Y2-S2-277K19,6,861,PS,exp,35,↑,up,↑,0.7565055000013672,True,35,1,0,7
Y2-S2-277K19,6,862,PS,exp,34,↓,down,↓,0.6007506000460126,True,35,1,0,7
Y2-S2-277K19,6,863,PS,exp,37,←,left,←,0.8349745000014082,True,35,1,0,7
Y2-S2-277K19,6,864,PS,exp,27,→,right,→,0.600680099974852,True,34,1,0,7
Y2-S2-277K19,6,865,PS,exp,49,↑,up,↑,0.567227500025183,True,34,1,0,7
Y2-S2-277K19,6,866,PS,exp,43,↓,down,↓,0.8179336999892257,True,34,1,0,7
Y2-S2-277K19,6,867,PS,exp,35,→,right,→,0.6838522999896668,True,33,1,0,7
Y2-S2-277K19,6,868,PS,exp,44,←,left,←,1.4330958999926224,True,33,1,0,7
Y2-S2-277K19,6,869,PS,exp,36,→,right,→,0.849633099976927,True,33,1,0,7
Y2-S2-277K19,6,870,PS,exp,27,←,left,←,0.7320775000262074,True,32,1,0,7
Y2-S2-277K19,6,871,PS,exp,46,↓,down,↓,0.7031732000177726,True,32,1,0,7
Y2-S2-277K19,6,872,PS,exp,26,←,up,↑,0.46794539998518303,False,32,-1,1,8
Y2-S2-277K19,6,873,PS,exp,38,↑,up,↑,0.6003530000452884,True,33,-1,0,8
Y2-S2-277K19,6,874,PS,exp,38,↓,down,↓,0.8306834999821149,True,33,-1,0,8
Y2-S2-277K19,6,875,PS,exp,30,↑,up,↑,0.6842799000442028,True,33,1,1,9
Y2-S2-277K19,6,876,PS,exp,35,→,right,→,0.8361610000138171,True,32,1,0,9
Y2-S2-277K19,6,877,PS,exp,41,←,no_key,no_letter,-1.0,False,32,-1,1,10
Y2-S2-277K19,6,878,PS,exp,42,→,right,→,0.5009785000002012,True,33,-1,0,10
Y2-S2-277K19,6,879,PS,exp,31,←,left,←,0.7309620000305586,True,33,-1,0,10
Y2-S2-277K19,6,880,PS,exp,32,↓,down,↓,0.7449937000055797,True,33,1,1,11
Y2-S2-277K19,6,881,PS,exp,36,→,right,→,0.5846842000028118,True,32,1,0,11
Y2-S2-277K19,6,882,PS,exp,42,↑,up,↑,0.83416169998236,True,32,1,0,11
Y2-S2-277K19,6,883,PS,exp,44,↓,down,↓,0.9361265000188723,True,32,1,0,11
Y2-S2-277K19,6,884,PS,exp,37,←,left,←,0.5673718000180088,True,31,1,0,11
Y2-S2-277K19,6,885,PS,exp,38,↓,down,↓,1.0487749999738298,True,31,1,0,11
Y2-S2-277K19,6,886,PS,exp,37,→,right,→,0.763415299996268,True,31,1,0,11
Y2-S2-277K19,6,887,PS,exp,50,↓,down,↓,0.879297100007534,True,30,1,0,11
Y2-S2-277K19,6,888,PS,exp,48,←,left,←,0.7791906000347808,True,30,1,0,11
Y2-S2-277K19,6,889,PS,exp,50,↓,right,→,1.623827799980063,False,30,-1,1,12
Y2-S2-277K19,6,890,PS,exp,40,→,right,→,1.1624076000298373,True,31,-1,0,12
Y2-S2-277K19,6,891,PS,exp,36,↑,up,↑,1.2863842999795452,True,31,-1,0,12
Y2-S2-277K19,6,892,PS,exp,35,↓,down,↓,0.9261983000324108,True,31,1,1,13
Y2-S2-277K19,6,893,PS,exp,27,↑,right,→,0.9660328999743797,False,30,-1,1,14
Y2-S2-277K19,6,894,PS,exp,33,→,right,→,0.9547536000027321,True,31,-1,0,14
Y2-S2-277K19,6,895,PS,exp,48,↓,down,↓,0.7102255999925546,True,31,-1,0,14
Y2-S2-277K19,6,896,PS,exp,36,↑,up,↑,0.6340352999977767,True,31,1,1,15
Y2-S2-277K19,6,897,PS,exp,48,→,right,→,0.500449099985417,True,30,1,0,15
Y2-S2-277K19,6,898,PS,exp,48,↓,up,↑,0.41755499999271706,False,30,-1,1,16
Y2-S2-277K19,7,899,PS,intra_train,36,↑,up,↑,0.8169662000145763,True,25,-,-,-
Y2-S2-277K19,7,900,PS,intra_train,34,←,left,←,0.7157533999998122,True,25,-,-,-
Y2-S2-277K19,7,901,PS,intra_train,31,↑,up,↑,0.5900438000098802,True,25,-,-,-
Y2-S2-277K19,7,902,PS,intra_train,32,←,up,↑,1.1771946999942884,False,25,-,-,-
Y2-S2-277K19,7,903,PS,intra_train,32,↓,up,↑,1.6908545000478625,False,25,-,-,-
Y2-S2-277K19,7,904,PS,exp,27,←,left,←,0.7837593000149354,True,17,0,0,0
Y2-S2-277K19,7,905,PS,exp,41,↑,no_key,no_letter,-1.0,False,17,-1,0,0
Y2-S2-277K19,7,906,PS,exp,32,→,no_key,no_letter,-1.0,False,18,-1,0,0
Y2-S2-277K19,7,907,PS,exp,25,←,left,←,0.6138407000107691,True,19,-1,0,0
Y2-S2-277K19,7,908,PS,exp,46,↓,down,↓,0.7950198999606073,True,19,-1,0,0
Y2-S2-277K19,7,909,PS,exp,32,↑,up,↑,0.9721119000460021,True,19,1,1,1
Y2-S2-277K19,7,910,PS,exp,48,←,right,→,0.8994977999827825,False,18,-1,1,2
Y2-S2-277K19,7,911,PS,exp,28,→,no_key,no_letter,-1.0,False,19,-1,0,2
Y2-S2-277K19,7,912,PS,exp,34,←,right,→,0.8973842000123113,False,20,-1,0,2
Y2-S2-277K19,7,913,PS,exp,28,↑,up,↑,0.7274975999607705,True,21,-1,0,2
Y2-S2-277K19,7,914,PS,exp,25,←,left,←,0.9291449000011198,True,21,-1,0,2
Y2-S2-277K19,7,915,PS,exp,45,→,right,→,0.8386494000442326,True,21,1,1,3
Y2-S2-277K19,7,916,PS,exp,48,←,left,←,0.5522765999776311,True,20,1,0,3
Y2-S2-277K19,7,917,PS,exp,40,→,no_key,no_letter,-1.0,False,20,-1,1,4
Y2-S2-277K19,7,918,PS,exp,39,←,left,←,1.0219310999964364,True,21,-1,0,4
Y2-S2-277K19,7,919,PS,exp,37,↑,up,↑,1.0434723000507802,True,21,-1,0,4
Y2-S2-277K19,7,920,PS,exp,29,→,right,→,0.5953513999702409,True,21,1,1,5
Y2-S2-277K19,7,921,PS,exp,44,↓,down,↓,0.8702753999968991,True,20,1,0,5
Y2-S2-277K19,7,922,PS,exp,27,←,left,←,1.2732114999671467,True,20,1,0,5
Y2-S2-277K19,7,923,PS,exp,40,↓,up,↑,1.0617065000114962,False,20,-1,1,6
Y2-S2-277K19,7,924,PS,exp,44,↑,up,↑,0.8073290000320412,True,21,-1,0,6
Y2-S2-277K19,7,925,PS,exp,42,←,up,↑,0.9141259000170976,False,21,-1,0,6
Y2-S2-277K19,7,926,PS,exp,31,→,left,←,0.8882746000308543,False,22,-1,0,6
Y2-S2-277K19,7,927,PS,exp,37,←,left,←,0.8557073000119999,True,23,-1,0,6
Y2-S2-277K19,7,928,PS,exp,44,→,right,→,0.8629391000140458,True,23,-1,0,6
Y2-S2-277K19,7,929,PS,exp,42,↓,down,↓,0.7645952999591827,True,23,1,1,7
Y2-S2-277K19,7,930,PS,exp,25,↑,up,↑,1.0598283000290394,True,22,1,0,7
Y2-S2-277K19,7,931,PS,exp,27,↓,down,↓,1.2508851999882609,True,22,1,0,7
Y2-S2-277K19,7,932,PS,exp,25,↑,up,↑,1.331760100030806,True,22,1,0,7
Y2-S2-277K19,7,933,PS,exp,28,←,right,→,1.1073421000037342,False,21,-1,1,8
Y2-S2-277K19,7,934,PS,exp,42,↓,left,←,1.306146799994167,False,22,-1,0,8
Y2-S2-277K19,7,935,PS,exp,27,→,right,→,0.9050545000354759,True,23,-1,0,8
Y2-S2-277K19,7,936,PS,exp,34,←,left,←,0.7113275000010617,True,23,-1,0,8
Y2-S2-277K19,7,937,PS,exp,45,↑,up,↑,0.7090438000159338,True,23,1,1,9
Y2-S2-277K19,7,938,PS,exp,37,→,right,→,0.8581333000329323,True,22,1,0,9
Y2-S2-277K19,7,939,PS,exp,46,←,right,→,0.7645731000229716,False,22,-1,1,10
Y2-S2-277K19,7,940,PS,exp,49,↓,down,↓,0.8149468000046909,True,23,-1,0,10
Y2-S2-277K19,7,941,PS,exp,48,→,right,→,0.5545845000306144,True,23,-1,0,10
Y2-S2-277K19,7,942,PS,exp,48,←,right,→,1.2014852999709547,False,23,-1,0,10
Y2-S2-277K19,7,943,PS,exp,25,→,right,→,0.6388915999559686,True,24,-1,0,10
Y2-S2-277K19,7,944,PS,exp,47,↓,no_key,no_letter,-1.0,False,24,-1,0,10
Y2-S2-277K19,7,945,PS,exp,48,←,left,←,0.6148773999884725,True,25,-1,0,10
Y2-S2-277K19,7,946,PS,exp,36,↓,down,↓,0.6961020000162534,True,25,-1,0,10
Y2-S2-277K19,7,947,PS,exp,46,↑,up,↑,0.5339023999986239,True,25,1,1,11
Y2-S2-277K19,7,948,PS,exp,29,↓,down,↓,0.5734448999864981,True,24,1,0,11
Y2-S2-277K19,7,949,PS,exp,34,←,left,←,0.57886900001904,True,24,1,0,11
Y2-S2-277K19,7,950,PS,exp,33,→,right,→,0.417598599975463,True,24,1,0,11
Y2-S2-277K19,7,951,PS,exp,48,←,left,←,0.8769172999891452,True,23,1,0,11
Y2-S2-277K19,7,952,PS,exp,50,↑,up,↑,0.517316400015261,True,23,1,0,11
Y2-S2-277K19,7,953,PS,exp,34,↓,down,↓,0.8199931000126526,True,23,1,0,11
Y2-S2-277K19,7,954,PS,exp,28,←,left,←,0.6814069999963976,True,22,1,0,11
Y2-S2-277K19,7,955,PS,exp,33,↓,down,↓,0.7561311000026762,True,22,1,0,11
Y2-S2-277K19,7,956,PS,exp,43,→,right,→,0.5006123000057414,True,22,1,0,11
Y2-S2-277K19,7,957,PS,exp,32,←,left,←,0.6694958999869414,True,21,1,0,11
Y2-S2-277K19,7,958,PS,exp,30,↓,down,↓,0.779249900020659,True,21,1,0,11
Y2-S2-277K19,7,959,PS,exp,29,→,right,→,0.7094660999719054,True,21,1,0,11
Y2-S2-277K19,7,960,PS,exp,50,↓,down,↓,0.7344546999665909,True,20,1,0,11
Y2-S2-277K19,7,961,PS,exp,34,↑,up,↑,0.5464206000324339,True,20,1,0,11
Y2-S2-277K19,7,962,PS,exp,47,→,right,→,0.6254800999886356,True,20,1,0,11
Y2-S2-277K19,7,963,PS,exp,28,↓,up,↑,1.575066199991852,False,19,-1,1,12
Y2-S2-277K19,7,964,PS,exp,38,←,right,→,0.46721710002748296,False,20,-1,0,12
Y2-S2-277K19,7,965,PS,exp,37,↑,up,↑,0.9074446999584325,True,21,-1,0,12
Y2-S2-277K19,7,966,PS,exp,28,→,right,→,0.7158650999772362,True,21,-1,0,12
Y2-S2-277K19,7,967,PS,exp,47,↑,up,↑,0.6468146999832243,True,21,1,1,13
Y2-S2-277K19,7,968,PS,exp,41,→,right,→,0.7357536999625154,True,20,1,0,13
Y2-S2-277K19,7,969,PS,exp,46,↑,up,↑,1.1915498999878764,True,20,1,0,13
Y2-S2-277K19,7,970,PS,exp,36,↓,right,→,1.3795933999936096,False,20,-1,1,14
Y2-S2-277K19,7,971,PS,exp,28,→,left,←,1.165575599996373,False,21,-1,0,14
Y2-S2-277K19,7,972,PS,exp,36,↑,up,↑,0.8341619999846444,True,22,-1,0,14
Y2-S2-277K19,7,973,PS,exp,43,↓,down,↓,1.2454858999699354,True,22,-1,0,14
Y2-S2-277K19,7,974,PS,exp,41,↑,up,↑,0.7348483999958262,True,22,1,1,15
Y2-S2-277K19,7,975,PS,exp,36,→,down,↓,1.1030248000170104,False,21,-1,1,16
Y2-S2-277K19,8,976,AS,intra_train,48,↑,up,↑,1.2010330999619327,True,90,-,-,-
Y2-S2-277K19,8,977,AS,intra_train,48,↓,down,↓,0.6845804000040516,True,90,-,-,-
Y2-S2-277K19,8,978,AS,intra_train,34,↑,down,↓,0.6178481999668293,False,90,-,-,-
Y2-S2-277K19,8,979,AS,intra_train,38,←,left,←,0.950619800016284,True,90,-,-,-
Y2-S2-277K19,8,980,AS,intra_train,26,→,right,→,0.7340587999788113,True,90,-,-,-
Y2-S2-277K19,8,981,AS,exp,48,↓,down,↓,1.3793040000018664,True,60,0,0,0
Y2-S2-277K19,8,982,AS,exp,31,←,left,←,0.9346396999899298,True,60,0,0,0
Y2-S2-277K19,8,983,AS,exp,31,↓,down,↓,1.0007010999834165,True,60,1,0,0
Y2-S2-277K19,8,984,AS,exp,43,→,right,→,0.9007727999705821,True,59,1,0,0
Y2-S2-277K19,8,985,AS,exp,27,↑,up,↑,1.0008682000334375,True,59,1,0,0
Y2-S2-277K19,8,986,AS,exp,37,↓,down,↓,0.9340844000107609,True,59,1,0,0
Y2-S2-277K19,8,987,AS,exp,30,↑,up,↑,1.0014507999876514,True,58,1,0,0
Y2-S2-277K19,8,988,AS,exp,35,↓,down,↓,1.1453858999884687,True,58,1,0,0
Y2-S2-277K19,8,989,AS,exp,33,←,left,←,0.9171578999958001,True,58,1,0,0
Y2-S2-277K19,8,990,AS,exp,29,→,right,→,0.9341735999914818,True,57,1,0,0
Y2-S2-277K19,8,991,AS,exp,50,←,left,←,0.7842658000299707,True,57,1,0,0
Y2-S2-277K19,8,992,AS,exp,30,↑,up,↑,1.4288220999878831,True,57,1,0,0
Y2-S2-277K19,8,993,AS,exp,27,←,right,→,1.7514975999947637,False,56,-1,1,1
Y2-S2-277K19,8,994,AS,exp,48,↓,left,←,0.7509968999656849,False,57,-1,0,1
Y2-S2-277K19,8,995,AS,exp,45,↑,up,↑,0.5677873000386171,True,58,-1,0,1
Y2-S2-277K19,8,996,AS,exp,41,→,right,→,0.8176431999891065,True,58,-1,0,1
Y2-S2-277K19,8,997,AS,exp,39,←,up,↑,1.9717400000081398,False,58,-1,0,1
Y2-S2-277K19,8,998,AS,exp,38,↑,up,↑,0.6510004999581724,True,59,-1,0,1
Y2-S2-277K19,8,999,AS,exp,26,↓,down,↓,0.9517420000047423,True,59,-1,0,1
Y2-S2-277K19,8,1000,AS,exp,42,↑,up,↑,0.6680311000091024,True,59,1,1,2
Y2-S2-277K19,8,1001,AS,exp,35,↓,down,↓,1.0340159999905154,True,58,1,0,2
Y2-S2-277K19,8,1002,AS,exp,32,→,right,→,1.1483261000248604,True,58,1,0,2
Y2-S2-277K19,8,1003,AS,exp,41,↑,up,↑,0.7842015999485739,True,58,1,0,2
Y2-S2-277K19,8,1004,AS,exp,29,↓,left,←,1.8660673000267707,False,57,-1,1,3
Y2-S2-277K19,8,1005,AS,exp,49,→,right,→,1.204754900012631,True,58,-1,0,3
Y2-S2-277K19,8,1006,AS,exp,38,←,left,←,1.1524520000093617,True,58,-1,0,3
Y2-S2-277K19,8,1007,AS,exp,37,↑,no_key,no_letter,-1.0,False,58,-1,0,3
Y2-S2-277K19,8,1008,AS,exp,45,→,right,→,0.5012527999933809,True,59,-1,0,3
Y2-S2-277K19,8,1009,AS,exp,31,←,left,←,0.9678190000122413,True,59,-1,0,3
Y2-S2-277K19,8,1010,AS,exp,28,↓,no_key,no_letter,-1.0,False,59,-1,0,3
Y2-S2-277K19,8,1011,AS,exp,28,→,right,→,0.21852360002230853,True,60,-1,0,3
Y2-S2-277K19,8,1012,AS,exp,44,←,right,→,0.5511951000080444,False,60,-1,0,3
Y2-S2-277K19,8,1013,AS,exp,31,↓,right,→,0.6345695999916643,False,61,-1,0,3
Y2-S2-277K19,8,1014,AS,exp,41,←,right,→,0.7510545999975875,False,62,-1,0,3
Y2-S2-277K19,8,1015,AS,exp,29,→,right,→,1.0178288000170141,True,63,-1,0,3
Y2-S2-277K19,8,1016,AS,exp,43,←,left,←,0.851184299972374,True,63,-1,0,3
Y2-S2-277K19,8,1017,AS,exp,41,↓,down,↓,0.9179042000323534,True,63,1,1,4
Y2-S2-277K19,8,1018,AS,exp,26,→,right,→,0.9678846999886446,True,62,1,0,4
Y2-S2-277K19,8,1019,AS,exp,34,←,right,→,1.732192900031805,False,62,-1,1,5
Y2-S2-277K19,8,1020,AS,exp,27,→,up,↑,0.7173427999950945,False,63,-1,0,5
Y2-S2-277K19,8,1021,AS,exp,34,←,down,↓,0.3341912000323646,False,64,-1,0,5
Y2-S2-277K19,8,1022,AS,exp,36,↓,up,↑,0.08418830001028255,False,65,-1,0,5
Y2-S2-277K19,8,1023,AS,exp,28,←,up,↑,0.23442339996108785,False,66,-1,0,5
Y2-S2-277K19,8,1024,AS,exp,39,↓,up,↑,0.28426240000408143,False,67,-1,0,5
Y2-S2-277K19,8,1025,AS,exp,37,←,up,↑,0.917620700027328,False,68,-1,0,5
Y2-S2-277K19,8,1026,AS,exp,46,→,right,→,0.2843561000190675,True,69,-1,0,5
Y2-S2-277K19,8,1027,AS,exp,44,↑,right,→,0.9011666999431327,False,69,-1,0,5
Y2-S2-277K19,8,1028,AS,exp,25,←,right,→,0.3012559000053443,False,70,-1,0,5
Y2-S2-277K19,8,1029,AS,exp,37,↓,left,←,0.5344294999958947,False,71,-1,0,5
Y2-S2-277K19,8,1030,AS,exp,39,→,right,→,2.092738499981351,True,72,-1,0,5
Y2-S2-277K19,8,1031,AS,exp,43,↑,up,↑,1.2505633999826387,True,72,-1,0,5
Y2-S2-277K19,8,1032,AS,exp,48,↓,down,↓,1.3005520000006072,True,72,1,1,6
Y2-S2-277K19,8,1033,AS,exp,30,↑,up,↑,0.7348182999994606,True,71,1,0,6
Y2-S2-277K19,8,1034,AS,exp,44,←,left,←,0.9182399999699555,True,71,1,0,6
Y2-S2-277K19,8,1035,AS,exp,39,↑,up,↑,0.6346214999794029,True,71,1,0,6
Y2-S2-277K19,8,1036,AS,exp,25,←,left,←,1.0184647999703884,True,70,1,0,6
Y2-S2-277K19,8,1037,AS,exp,36,↑,up,↑,1.0011135999811813,True,70,1,0,6
Y2-S2-277K19,8,1038,AS,exp,50,→,right,→,1.200596900016535,True,70,1,0,6
Y2-S2-277K19,8,1039,AS,exp,50,↑,up,↑,1.0177808000007644,True,69,1,0,6
Y2-S2-277K19,8,1040,AS,exp,43,↓,down,↓,1.2842932000057772,True,69,1,0,6
Y2-S2-277K19,8,1041,AS,exp,35,→,left,←,2.763276100042276,False,69,-1,1,7
Y2-S2-277K19,8,1042,AS,exp,27,↓,down,↓,0.851200399978552,True,70,-1,0,7
Y2-S2-277K19,8,1043,AS,exp,39,←,left,←,1.1510116000426933,True,70,-1,0,7
Y2-S2-277K19,8,1044,AS,exp,35,→,right,→,1.1175699000013992,True,70,1,1,8
Y2-S2-277K19,8,1045,AS,exp,50,←,left,←,0.6846650000079535,True,69,1,0,8
Y2-S2-277K19,8,1046,AS,exp,41,↓,down,↓,0.8512008999823593,True,69,1,0,8
Y2-S2-277K19,8,1047,AS,exp,26,←,left,←,0.984557100047823,True,69,1,0,8
Y2-S2-277K19,8,1048,AS,exp,25,↑,up,↑,0.8342075999826193,True,68,1,0,8
Y2-S2-277K19,8,1049,AS,exp,33,←,right,→,0.6677987999864854,False,68,-1,1,9
Y2-S2-277K19,8,1050,AS,exp,50,↓,down,↓,0.7013632000307553,True,69,-1,0,9
Y2-S2-277K19,8,1051,AS,exp,43,←,no_key,no_letter,-1.0,False,69,-1,0,9
Y2-S2-277K19,8,1052,AS,exp,48,↑,up,↑,0.9680126999737695,True,70,-1,0,9
Y2-S2-277K19,8,1053,AS,exp,44,→,right,→,0.750995000009425,True,70,-1,0,9
Y2-S2-277K19,8,1054,AS,exp,34,←,left,←,0.8181153999757953,True,70,1,1,10
Y2-S2-277K19,8,1055,AS,exp,43,↓,down,↓,1.101071800047066,True,69,1,0,10
Y2-S2-277K19,8,1056,AS,exp,39,→,right,→,1.2339151999913156,True,69,1,0,10
Y2-S2-277K19,8,1057,AS,exp,39,←,right,→,0.7178074999828823,False,69,-1,1,11
Y2-S2-277K19,8,1058,AS,exp,26,→,up,↑,2.161417299997993,False,70,-1,0,11
Y2-S2-277K19,8,1059,AS,exp,30,↑,up,↑,1.909359100041911,True,71,-1,0,11
Y2-S2-277K19,8,1060,AS,exp,25,↓,up,↑,0.6676006999914534,False,71,-1,0,11
Y2-S2-277K19,8,1061,AS,exp,43,↑,up,↑,0.6678459999966435,True,72,-1,0,11
Y2-S2-277K19,8,1062,AS,exp,33,↓,down,↓,0.8175571999745443,True,72,-1,0,11
Y2-S2-277K19,8,1063,AS,exp,43,→,right,→,1.5439969000290148,True,72,1,1,12
Y2-S2-277K19,8,1064,AS,exp,45,↓,left,←,0.5510120000108145,False,71,-1,1,13
Y2-S2-277K19,8,1065,AS,exp,42,→,up,↑,0.6511422999901697,False,72,-1,0,13
Y2-S2-277K19,8,1066,AS,exp,44,←,right,→,1.200889800034929,False,73,-1,0,13
Y2-S2-277K19,8,1067,AS,exp,30,↑,right,→,1.6404146999702789,False,74,-1,0,13
Y2-S2-277K19,8,1068,AS,exp,36,↓,up,↑,1.034204800031148,False,75,-1,0,13
Y2-S2-277K19,8,1069,AS,exp,39,→,down,↓,0.7512964999768883,False,76,-1,0,13
Y2-S2-277K19,8,1070,AS,exp,32,↓,down,↓,1.2673494999762625,True,77,-1,0,13
Y2-S2-277K19,8,1071,AS,exp,29,←,left,←,1.11762799997814,True,77,-1,0,13
Y2-S2-277K19,8,1072,AS,exp,39,↓,down,↓,0.7508114000083879,True,77,1,1,14
Y2-S2-277K19,8,1073,AS,exp,26,↑,up,↑,0.7510364999761805,True,76,1,0,14
Y2-S2-277K19,8,1074,AS,exp,35,↓,down,↓,1.2508453999762423,True,76,1,0,14
Y2-S2-277K19,8,1075,AS,exp,28,←,left,←,1.1174845999921672,True,76,1,0,14
Y2-S2-277K19,8,1076,AS,exp,31,→,right,→,0.7841376000433229,True,75,1,0,14
Y2-S2-277K19,8,1077,AS,exp,41,↑,up,↑,0.8012193000176921,True,75,1,0,14
Y2-S2-277K19,8,1078,AS,exp,25,←,left,←,1.1508957000332884,True,75,1,0,14
Y2-S2-277K19,8,1079,AS,exp,37,↓,down,↓,1.414934300002642,True,74,1,0,14
Y2-S2-277K19,8,1080,AS,exp,45,↑,up,↑,1.050935200008098,True,74,1,0,14
Y2-S2-277K19,8,1081,AS,exp,30,→,right,→,0.9510624000104144,True,74,1,0,14
Y2-S2-277K19,8,1082,AS,exp,42,←,left,←,0.934324599977117,True,73,1,0,14
Y2-S2-277K19,8,1083,AS,exp,26,→,up,↑,1.084928999945987,False,73,-1,1,15
Y2-S2-277K19,8,1084,AS,exp,39,↑,up,↑,0.8167645999928936,True,74,-1,0,15
Y2-S2-277K19,8,1085,AS,exp,42,←,right,→,0.5677257000352256,False,74,-1,0,15
Y2-S2-277K19,8,1086,AS,exp,29,↑,right,→,0.8014515000395477,False,75,-1,0,15
Y2-S2-277K19,8,1087,AS,exp,34,←,left,←,0.9510254999622703,True,76,-1,0,15
Y2-S2-277K19,8,1088,AS,exp,45,↓,down,↓,1.3339540000306442,True,76,-1,0,15
Y2-S2-277K19,8,1089,AS,exp,30,↑,up,↑,0.9844799999846146,True,76,1,1,16
