PART_ID,Block_no,Trial_no,Block_type,Trial_type,CSI,Stim_letter,Key_pressed,letter_choose,Rt,Corr,Stimulus Time,Level,Reversal,Revs_count
Y2-S2-281K22,1,1,PS,train,45,→,right,→,0.6837722000200301,True,30,-,-,-
Y2-S2-281K22,1,2,PS,train,31,↓,down,↓,0.7108603999949992,True,30,-,-,-
Y2-S2-281K22,1,3,PS,train,37,↑,left,←,1.8092781999730505,False,30,-,-,-
Y2-S2-281K22,1,4,PS,train,31,↓,no_key,no_letter,-1.0,False,30,-,-,-
Y2-S2-281K22,1,5,PS,train,40,→,right,→,0.9068815000355244,True,30,-,-,-
Y2-S2-281K22,1,6,PS,train,43,←,left,←,0.8390609000343829,True,30,-,-,-
Y2-S2-281K22,1,7,PS,train,48,↑,up,↑,0.9765955000184476,True,30,-,-,-
Y2-S2-281K22,1,8,PS,train,34,→,right,→,0.533603599993512,True,30,-,-,-
Y2-S2-281K22,1,9,PS,train,50,↑,up,↑,0.6340686000185087,True,30,-,-,-
Y2-S2-281K22,1,10,PS,train,27,↓,down,↓,2.1115324000129476,True,30,-,-,-
Y2-S2-281K22,2,11,AS,train,26,←,left,←,0.701992699992843,True,45,-,-,-
Y2-S2-281K22,2,12,AS,train,46,↑,up,↑,0.6345224999822676,True,45,-,-,-
Y2-S2-281K22,2,13,AS,train,27,←,left,←,0.9305113000445999,True,45,-,-,-
Y2-S2-281K22,2,14,AS,train,46,↓,down,↓,0.7177344000083394,True,45,-,-,-
Y2-S2-281K22,2,15,AS,train,39,→,right,→,0.6674712000531144,True,45,-,-,-
Y2-S2-281K22,2,16,AS,train,45,↓,down,↓,0.850692700012587,True,45,-,-,-
Y2-S2-281K22,2,17,AS,train,44,→,right,→,0.7016143999644555,True,45,-,-,-
Y2-S2-281K22,2,18,AS,train,38,↑,up,↑,0.8338701000320725,True,45,-,-,-
Y2-S2-281K22,2,19,AS,train,37,↓,down,↓,0.8172448999830522,True,45,-,-,-
Y2-S2-281K22,2,20,AS,train,35,→,right,→,0.5178242000401951,True,45,-,-,-
Y2-S2-281K22,-,21,PS,adaptive,30,↑,right,→,1.1487030000425875,False,10,-1,0,0
Y2-S2-281K22,-,22,PS,adaptive,34,→,up,↑,1.2727833000244573,False,11,-1,0,0
Y2-S2-281K22,-,23,PS,adaptive,45,↓,down,↓,0.8506649000337347,True,12,-1,0,0
Y2-S2-281K22,-,24,PS,adaptive,48,↑,up,↑,1.5261857000296004,True,12,-1,0,0
Y2-S2-281K22,-,25,PS,adaptive,50,→,right,→,0.791599899996072,True,12,1,1,1
Y2-S2-281K22,-,26,PS,adaptive,38,↑,up,↑,0.4631368999835104,True,11,1,0,1
Y2-S2-281K22,-,27,PS,adaptive,41,←,left,←,1.012231700005941,True,11,1,0,1
Y2-S2-281K22,-,28,PS,adaptive,47,→,right,→,0.4686002999660559,True,11,1,0,1
Y2-S2-281K22,-,29,PS,adaptive,47,↑,up,↑,0.5773405999643728,True,10,1,0,1
Y2-S2-281K22,-,30,PS,adaptive,33,→,right,→,0.4914213999873027,True,10,1,0,1
Y2-S2-281K22,-,31,PS,adaptive,32,↓,down,↓,0.7426151999970898,True,10,1,0,1
Y2-S2-281K22,-,32,PS,adaptive,40,→,right,→,0.48909879999700934,True,9,1,0,1
Y2-S2-281K22,-,33,PS,adaptive,38,↓,down,↓,0.6745032000471838,True,9,1,0,1
Y2-S2-281K22,-,34,PS,adaptive,36,↑,up,↑,0.6152190999710001,True,9,1,0,1
Y2-S2-281K22,-,35,PS,adaptive,43,↓,down,↓,0.6508556000189856,True,8,1,0,1
Y2-S2-281K22,-,36,PS,adaptive,50,←,left,←,0.6864791000261903,True,8,1,0,1
Y2-S2-281K22,-,37,PS,adaptive,47,→,right,→,0.7484306000405923,True,8,1,0,1
Y2-S2-281K22,-,38,PS,adaptive,47,↑,up,↑,0.5409158999682404,True,7,1,0,1
Y2-S2-281K22,-,39,PS,adaptive,28,←,left,←,0.7751960999448784,True,7,1,0,1
Y2-S2-281K22,-,40,PS,adaptive,34,↓,down,↓,0.8325180999818258,True,7,1,0,1
Y2-S2-281K22,-,41,PS,adaptive,42,→,right,→,0.8011407000012696,True,6,1,0,1
Y2-S2-281K22,-,42,PS,adaptive,29,←,down,↓,0.5985554000362754,False,6,-1,1,2
Y2-S2-281K22,-,43,PS,adaptive,44,→,right,→,0.8676402000128292,True,7,-1,0,2
Y2-S2-281K22,-,44,PS,adaptive,50,↑,up,↑,0.5770761999883689,True,7,-1,0,2
Y2-S2-281K22,-,45,PS,adaptive,37,←,left,←,0.5828053999575786,True,7,1,1,3
Y2-S2-281K22,-,46,PS,adaptive,46,↓,left,←,0.8531665000482462,False,6,-1,1,4
Y2-S2-281K22,-,47,AS,adaptive,47,→,right,→,0.6236550000030547,True,20,0,0,0
Y2-S2-281K22,-,48,AS,adaptive,50,↑,up,↑,0.7905277000390925,True,20,0,0,0
Y2-S2-281K22,-,49,AS,adaptive,25,→,right,→,0.7893538000062108,True,20,1,0,0
Y2-S2-281K22,-,50,AS,adaptive,38,←,left,←,0.679343499999959,True,19,1,0,0
Y2-S2-281K22,-,51,AS,adaptive,50,↑,up,↑,0.5445435000001453,True,19,1,0,0
Y2-S2-281K22,-,52,AS,adaptive,32,←,left,←,0.5628173999721184,True,19,1,0,0
Y2-S2-281K22,-,53,AS,adaptive,46,→,right,→,1.2483392000431195,True,18,1,0,0
Y2-S2-281K22,-,54,AS,adaptive,41,↑,down,↓,0.9104384999955073,False,18,-1,1,1
Y2-S2-281K22,-,55,AS,adaptive,39,←,left,←,0.6051033000112511,True,19,-1,0,1
Y2-S2-281K22,-,56,AS,adaptive,28,↓,down,↓,1.1840187999769114,True,19,-1,0,1
Y2-S2-281K22,-,57,AS,adaptive,38,→,right,→,0.6648807000019588,True,19,1,1,2
Y2-S2-281K22,-,58,AS,adaptive,34,←,left,←,1.552793099952396,True,18,1,0,2
Y2-S2-281K22,-,59,AS,adaptive,40,↓,down,↓,0.8565295999869704,True,18,1,0,2
Y2-S2-281K22,-,60,AS,adaptive,34,↑,left,←,1.2676931000314653,False,18,-1,1,3
Y2-S2-281K22,-,61,AS,adaptive,33,←,right,→,0.8352587000117637,False,19,-1,0,3
Y2-S2-281K22,-,62,AS,adaptive,34,↑,up,↑,0.7670289999805391,True,20,-1,0,3
Y2-S2-281K22,-,63,AS,adaptive,37,↓,up,↑,0.7515532000106759,False,20,-1,0,3
Y2-S2-281K22,-,64,AS,adaptive,44,↑,up,↑,0.7911058000172488,True,21,-1,0,3
Y2-S2-281K22,-,65,AS,adaptive,26,→,right,→,0.7342559000244364,True,21,-1,0,3
Y2-S2-281K22,-,66,AS,adaptive,39,↑,up,↑,0.7840861000004224,True,21,1,1,4
Y2-S2-281K22,1,67,PS,intra_train,27,→,right,→,0.7811791999847628,True,10,-,-,-
Y2-S2-281K22,1,68,PS,intra_train,33,←,left,←,0.6548164000269026,True,10,-,-,-
Y2-S2-281K22,1,69,PS,intra_train,35,↑,up,↑,0.5894952000235207,True,10,-,-,-
Y2-S2-281K22,1,70,PS,intra_train,44,→,left,←,0.7751122000045143,False,10,-,-,-
Y2-S2-281K22,1,71,PS,intra_train,34,↓,down,↓,0.6759126000106335,True,10,-,-,-
Y2-S2-281K22,1,72,PS,exp,39,↑,up,↑,1.0839332999894395,True,7,0,0,0
Y2-S2-281K22,1,73,PS,exp,44,←,right,→,0.6391188999987207,False,7,-1,0,0
Y2-S2-281K22,1,74,PS,exp,30,↑,up,↑,0.6900550000136718,True,8,-1,0,0
Y2-S2-281K22,1,75,PS,exp,50,→,right,→,0.6605817999807186,True,8,-1,0,0
Y2-S2-281K22,1,76,PS,exp,47,↑,no_key,no_letter,-1.0,False,8,-1,0,0
Y2-S2-281K22,1,77,PS,exp,46,→,right,→,0.5900250999839045,True,9,-1,0,0
Y2-S2-281K22,1,78,PS,exp,44,↑,up,↑,0.5897369000012986,True,9,-1,0,0
Y2-S2-281K22,1,79,PS,exp,39,↓,down,↓,0.9215125999762677,True,9,1,1,1
Y2-S2-281K22,1,80,PS,exp,39,←,right,→,0.6679225999978371,False,8,-1,1,2
Y2-S2-281K22,1,81,PS,exp,50,↑,up,↑,0.5829695999855176,True,9,-1,0,2
Y2-S2-281K22,1,82,PS,exp,48,→,right,→,0.5759707999532111,True,9,-1,0,2
Y2-S2-281K22,1,83,PS,exp,44,↑,up,↑,0.5429951000260189,True,9,1,1,3
Y2-S2-281K22,1,84,PS,exp,45,→,right,→,0.6790087000117637,True,8,1,0,3
Y2-S2-281K22,1,85,PS,exp,38,↑,up,↑,0.6777522999909706,True,8,1,0,3
Y2-S2-281K22,1,86,PS,exp,35,↓,down,↓,0.6926556000253186,True,8,1,0,3
Y2-S2-281K22,1,87,PS,exp,40,↑,left,←,0.9118453999981284,False,7,-1,1,4
Y2-S2-281K22,1,88,PS,exp,36,→,right,→,0.731761800008826,True,8,-1,0,4
Y2-S2-281K22,1,89,PS,exp,36,↑,up,↑,0.6025120999547653,True,8,-1,0,4
Y2-S2-281K22,1,90,PS,exp,35,↓,up,↑,0.6371876000193879,False,8,-1,0,4
Y2-S2-281K22,1,91,PS,exp,28,→,right,→,0.6516314999898896,True,9,-1,0,4
Y2-S2-281K22,1,92,PS,exp,45,←,left,←,0.6104035999742337,True,9,-1,0,4
Y2-S2-281K22,1,93,PS,exp,37,↓,down,↓,0.6751720999600366,True,9,1,1,5
Y2-S2-281K22,1,94,PS,exp,31,↑,up,↑,0.5568155000219122,True,8,1,0,5
Y2-S2-281K22,1,95,PS,exp,33,←,left,←,0.5835483999690041,True,8,1,0,5
Y2-S2-281K22,1,96,PS,exp,35,→,left,←,0.7995190999936312,False,8,-1,1,6
Y2-S2-281K22,1,97,PS,exp,28,↓,down,↓,0.748875500052236,True,9,-1,0,6
Y2-S2-281K22,1,98,PS,exp,41,↑,up,↑,0.5215308999759145,True,9,-1,0,6
Y2-S2-281K22,1,99,PS,exp,48,↓,down,↓,0.7273713999893516,True,9,1,1,7
Y2-S2-281K22,1,100,PS,exp,31,→,right,→,0.6625804999493994,True,8,1,0,7
Y2-S2-281K22,1,101,PS,exp,25,↓,down,↓,0.8635784999933094,True,8,1,0,7
Y2-S2-281K22,1,102,PS,exp,34,↑,up,↑,0.49322240002220497,True,8,1,0,7
Y2-S2-281K22,1,103,PS,exp,34,←,left,←,0.5835800999775529,True,7,1,0,7
Y2-S2-281K22,1,104,PS,exp,48,↓,down,↓,0.6372018999536522,True,7,1,0,7
Y2-S2-281K22,1,105,PS,exp,34,→,right,→,0.6642975999857299,True,7,1,0,7
Y2-S2-281K22,1,106,PS,exp,38,←,left,←,0.7142862000036985,True,6,1,0,7
Y2-S2-281K22,1,107,PS,exp,35,↑,right,→,0.8196819999720901,False,6,-1,1,8
Y2-S2-281K22,1,108,PS,exp,40,→,right,→,0.6933285999693908,True,7,-1,0,8
Y2-S2-281K22,1,109,PS,exp,31,←,left,←,0.5830726000131108,True,7,-1,0,8
Y2-S2-281K22,1,110,PS,exp,36,↑,up,↑,0.7115375000284985,True,7,1,1,9
Y2-S2-281K22,1,111,PS,exp,43,←,left,←,0.8192303000250831,True,6,1,0,9
Y2-S2-281K22,1,112,PS,exp,30,→,right,→,0.863831199996639,True,6,1,0,9
Y2-S2-281K22,1,113,PS,exp,50,↑,right,→,0.7305052999872714,False,6,-1,1,10
Y2-S2-281K22,1,114,PS,exp,28,→,right,→,0.7559473000001162,True,7,-1,0,10
Y2-S2-281K22,1,115,PS,exp,43,↓,right,→,0.848881000012625,False,7,-1,0,10
Y2-S2-281K22,1,116,PS,exp,29,←,left,←,0.7847557000350207,True,8,-1,0,10
Y2-S2-281K22,1,117,PS,exp,44,↑,up,↑,1.0224845000193454,True,8,-1,0,10
Y2-S2-281K22,1,118,PS,exp,36,→,right,→,0.5903911999776028,True,8,1,1,11
Y2-S2-281K22,1,119,PS,exp,43,↓,down,↓,0.7207930999575183,True,7,1,0,11
Y2-S2-281K22,1,120,PS,exp,44,→,right,→,0.7058672000421211,True,7,1,0,11
Y2-S2-281K22,1,121,PS,exp,31,←,right,→,0.5284013000200503,False,7,-1,1,12
Y2-S2-281K22,1,122,PS,exp,40,→,down,↓,1.0809474000125192,False,8,-1,0,12
Y2-S2-281K22,1,123,PS,exp,37,←,left,←,0.7378338000271469,True,9,-1,0,12
Y2-S2-281K22,1,124,PS,exp,43,→,right,→,0.8954727000091225,True,9,-1,0,12
Y2-S2-281K22,1,125,PS,exp,50,↓,down,↓,0.551758499990683,True,9,1,1,13
Y2-S2-281K22,1,126,PS,exp,49,→,right,→,0.6172915000352077,True,8,1,0,13
Y2-S2-281K22,1,127,PS,exp,45,←,left,←,0.6517711000051349,True,8,1,0,13
Y2-S2-281K22,1,128,PS,exp,40,→,right,→,0.6576452000299469,True,8,1,0,13
Y2-S2-281K22,1,129,PS,exp,50,↑,up,↑,0.7000456000096165,True,7,1,0,13
Y2-S2-281K22,1,130,PS,exp,25,←,left,←,0.7829225999885239,True,7,1,0,13
Y2-S2-281K22,1,131,PS,exp,46,↓,down,↓,0.6766724999761209,True,7,1,0,13
Y2-S2-281K22,1,132,PS,exp,30,→,right,→,0.6664854999980889,True,6,1,0,13
Y2-S2-281K22,1,133,PS,exp,25,↑,right,→,0.7556122999521904,False,6,-1,1,14
Y2-S2-281K22,1,134,PS,exp,41,→,down,↓,0.740710299985949,False,7,-1,0,14
Y2-S2-281K22,1,135,PS,exp,39,↓,down,↓,0.7462512999773026,True,8,-1,0,14
Y2-S2-281K22,1,136,PS,exp,50,←,left,←,0.7229892000323161,True,8,-1,0,14
Y2-S2-281K22,1,137,PS,exp,31,↓,down,↓,1.2978376999963075,True,8,1,1,15
Y2-S2-281K22,1,138,PS,exp,32,→,right,→,0.8320494000217877,True,7,1,0,15
Y2-S2-281K22,1,139,PS,exp,40,↑,down,↓,0.9272911999723874,False,7,-1,1,16
Y2-S2-281K22,2,140,AS,intra_train,35,→,right,→,0.8572080999729224,True,30,-,-,-
Y2-S2-281K22,2,141,AS,intra_train,25,↓,down,↓,0.8458231000113301,True,30,-,-,-
Y2-S2-281K22,2,142,AS,intra_train,26,↑,up,↑,0.815067799994722,True,30,-,-,-
Y2-S2-281K22,2,143,AS,intra_train,30,→,right,→,0.5338627999881282,True,30,-,-,-
Y2-S2-281K22,2,144,AS,intra_train,42,←,left,←,0.6172769999830052,True,30,-,-,-
Y2-S2-281K22,2,145,AS,exp,45,→,right,→,0.7374366999720223,True,20,0,0,0
Y2-S2-281K22,2,146,AS,exp,43,↓,down,↓,0.6112157999887131,True,20,0,0,0
Y2-S2-281K22,2,147,AS,exp,33,→,right,→,0.5957935000187717,True,20,1,0,0
Y2-S2-281K22,2,148,AS,exp,33,←,left,←,0.9721253999741748,True,19,1,0,0
Y2-S2-281K22,2,149,AS,exp,44,↑,up,↑,0.7763678000192158,True,19,1,0,0
Y2-S2-281K22,2,150,AS,exp,25,→,right,→,0.7609983999864198,True,19,1,0,0
Y2-S2-281K22,2,151,AS,exp,29,←,left,←,0.6244452000246383,True,18,1,0,0
Y2-S2-281K22,2,152,AS,exp,49,→,left,←,1.094625499972608,False,18,-1,1,1
Y2-S2-281K22,2,153,AS,exp,40,↓,down,↓,0.9576252000406384,True,19,-1,0,1
Y2-S2-281K22,2,154,AS,exp,49,→,right,→,1.0327498000115156,True,19,-1,0,1
Y2-S2-281K22,2,155,AS,exp,39,←,right,→,0.9526348999934271,False,19,-1,0,1
Y2-S2-281K22,2,156,AS,exp,45,↓,down,↓,0.9867176999687217,True,20,-1,0,1
Y2-S2-281K22,2,157,AS,exp,50,↑,up,↑,0.759527700021863,True,20,-1,0,1
Y2-S2-281K22,2,158,AS,exp,33,←,left,←,0.8690515999915078,True,20,1,1,2
Y2-S2-281K22,2,159,AS,exp,38,↓,down,↓,0.889498199976515,True,19,1,0,2
Y2-S2-281K22,2,160,AS,exp,38,←,left,←,0.7088001999654807,True,19,1,0,2
Y2-S2-281K22,2,161,AS,exp,35,↑,up,↑,0.7641567999962717,True,19,1,0,2
Y2-S2-281K22,2,162,AS,exp,26,→,right,→,0.7376370999845676,True,18,1,0,2
Y2-S2-281K22,2,163,AS,exp,38,←,left,←,1.1240935000241734,True,18,1,0,2
Y2-S2-281K22,2,164,AS,exp,35,→,right,→,0.8486531000235118,True,18,1,0,2
Y2-S2-281K22,2,165,AS,exp,37,↑,down,↓,1.1793819000013173,False,17,-1,1,3
Y2-S2-281K22,2,166,AS,exp,36,←,left,←,0.8480286999838427,True,18,-1,0,3
Y2-S2-281K22,2,167,AS,exp,35,↑,down,↓,1.085942600038834,False,18,-1,0,3
Y2-S2-281K22,2,168,AS,exp,29,↓,left,←,1.3198100000154227,False,19,-1,0,3
Y2-S2-281K22,2,169,AS,exp,42,→,right,→,0.5640074000111781,True,20,-1,0,3
Y2-S2-281K22,2,170,AS,exp,45,←,down,↓,0.989118299970869,False,20,-1,0,3
Y2-S2-281K22,2,171,AS,exp,35,↑,up,↑,0.8499002000316978,True,21,-1,0,3
Y2-S2-281K22,2,172,AS,exp,28,↓,down,↓,0.931411899975501,True,21,-1,0,3
Y2-S2-281K22,2,173,AS,exp,34,→,right,→,0.8607058000052348,True,21,1,1,4
Y2-S2-281K22,2,174,AS,exp,30,←,left,←,0.9165497999638319,True,20,1,0,4
Y2-S2-281K22,2,175,AS,exp,33,↑,up,↑,0.8762765999999829,True,20,1,0,4
Y2-S2-281K22,2,176,AS,exp,41,↓,down,↓,0.7924013000447303,True,20,1,0,4
Y2-S2-281K22,2,177,AS,exp,44,←,left,←,0.6949883000343107,True,19,1,0,4
Y2-S2-281K22,2,178,AS,exp,44,↓,down,↓,0.9381399000412785,True,19,1,0,4
Y2-S2-281K22,2,179,AS,exp,44,↑,up,↑,0.6428063999628648,True,19,1,0,4
Y2-S2-281K22,2,180,AS,exp,29,→,up,↑,0.8014442999847233,False,18,-1,1,5
Y2-S2-281K22,2,181,AS,exp,34,↓,down,↓,0.6426401999779046,True,19,-1,0,5
Y2-S2-281K22,2,182,AS,exp,29,↑,down,↓,0.9653116000117734,False,19,-1,0,5
Y2-S2-281K22,2,183,AS,exp,46,↓,down,↓,0.9611044999910519,True,20,-1,0,5
Y2-S2-281K22,2,184,AS,exp,48,↑,up,↑,0.5721822999767028,True,20,-1,0,5
Y2-S2-281K22,2,185,AS,exp,34,←,left,←,1.2570549999945797,True,20,1,1,6
Y2-S2-281K22,2,186,AS,exp,45,↑,up,↑,0.5689019000274129,True,19,1,0,6
Y2-S2-281K22,2,187,AS,exp,27,→,right,→,0.9995990000315942,True,19,1,0,6
Y2-S2-281K22,2,188,AS,exp,50,←,left,←,1.1541130000259727,True,19,1,0,6
Y2-S2-281K22,2,189,AS,exp,28,↑,up,↑,0.5376170999952592,True,18,1,0,6
Y2-S2-281K22,2,190,AS,exp,42,↓,down,↓,0.9598909000051208,True,18,1,0,6
Y2-S2-281K22,2,191,AS,exp,39,→,right,→,0.7587873000302352,True,18,1,0,6
Y2-S2-281K22,2,192,AS,exp,38,↑,down,↓,1.2329218999948353,False,17,-1,1,7
Y2-S2-281K22,2,193,AS,exp,26,←,up,↑,0.8792472999775782,False,18,-1,0,7
Y2-S2-281K22,2,194,AS,exp,30,→,right,→,0.7415156000060961,True,19,-1,0,7
Y2-S2-281K22,2,195,AS,exp,30,↑,up,↑,0.7411905000335537,True,19,-1,0,7
Y2-S2-281K22,2,196,AS,exp,48,←,left,←,0.8482886999845505,True,19,1,1,8
Y2-S2-281K22,2,197,AS,exp,31,→,right,→,1.2320381000172347,True,18,1,0,8
Y2-S2-281K22,2,198,AS,exp,44,←,left,←,0.8849701000144705,True,18,1,0,8
Y2-S2-281K22,2,199,AS,exp,33,↓,down,↓,0.806478199956473,True,18,1,0,8
Y2-S2-281K22,2,200,AS,exp,32,→,left,←,0.9827921999967657,False,17,-1,1,9
Y2-S2-281K22,2,201,AS,exp,34,←,left,←,0.6284010999952443,True,18,-1,0,9
Y2-S2-281K22,2,202,AS,exp,28,↓,down,↓,0.7554888000013307,True,18,-1,0,9
Y2-S2-281K22,2,203,AS,exp,44,↑,right,→,0.907400099968072,False,18,-1,0,9
Y2-S2-281K22,2,204,AS,exp,26,←,right,→,1.0338685000315309,False,19,-1,0,9
Y2-S2-281K22,2,205,AS,exp,43,→,right,→,0.8206644000019878,True,20,-1,0,9
Y2-S2-281K22,2,206,AS,exp,46,←,left,←,1.0243188999593258,True,20,-1,0,9
Y2-S2-281K22,2,207,AS,exp,43,↑,up,↑,0.9756108000292443,True,20,1,1,10
Y2-S2-281K22,2,208,AS,exp,46,↓,down,↓,1.1768396000261419,True,19,1,0,10
Y2-S2-281K22,2,209,AS,exp,30,↑,up,↑,0.8144893999560736,True,19,1,0,10
Y2-S2-281K22,2,210,AS,exp,31,→,right,→,0.943272500007879,True,19,1,0,10
Y2-S2-281K22,2,211,AS,exp,27,↓,down,↓,0.7410893000196666,True,18,1,0,10
Y2-S2-281K22,2,212,AS,exp,47,↑,up,↑,0.7561724000261165,True,18,1,0,10
Y2-S2-281K22,2,213,AS,exp,27,↓,up,↑,1.308409199991729,False,18,-1,1,11
Y2-S2-281K22,2,214,AS,exp,49,←,left,←,0.8945299999904819,True,19,-1,0,11
Y2-S2-281K22,2,215,AS,exp,29,↑,down,↓,1.3051434000371955,False,19,-1,0,11
Y2-S2-281K22,2,216,AS,exp,33,→,right,→,1.0493990000104532,True,20,-1,0,11
Y2-S2-281K22,2,217,AS,exp,40,↓,down,↓,1.1057738999952562,True,20,-1,0,11
Y2-S2-281K22,2,218,AS,exp,44,←,left,←,0.6428573000011966,True,20,1,1,12
Y2-S2-281K22,2,219,AS,exp,30,→,right,→,0.5479701000149362,True,19,1,0,12
Y2-S2-281K22,2,220,AS,exp,30,←,left,←,0.6045302000129595,True,19,1,0,12
Y2-S2-281K22,2,221,AS,exp,44,→,right,→,0.6635845999699086,True,19,1,0,12
Y2-S2-281K22,2,222,AS,exp,30,↑,right,→,1.0835910000023432,False,18,-1,1,13
Y2-S2-281K22,2,223,AS,exp,50,↓,down,↓,0.926951100002043,True,19,-1,0,13
Y2-S2-281K22,2,224,AS,exp,49,←,left,←,0.7876065999735147,True,19,-1,0,13
Y2-S2-281K22,2,225,AS,exp,42,→,left,←,1.5352140000322834,False,19,-1,0,13
Y2-S2-281K22,2,226,AS,exp,36,↑,up,↑,0.8185847999993712,True,20,-1,0,13
Y2-S2-281K22,2,227,AS,exp,28,←,up,↑,1.3602578000281937,False,20,-1,0,13
Y2-S2-281K22,2,228,AS,exp,25,→,right,→,0.905370699998457,True,21,-1,0,13
Y2-S2-281K22,2,229,AS,exp,32,↓,down,↓,0.9848904000245966,True,21,-1,0,13
Y2-S2-281K22,2,230,AS,exp,38,→,right,→,0.5723950999672525,True,21,1,1,14
Y2-S2-281K22,2,231,AS,exp,36,←,left,←,0.7190055000246502,True,20,1,0,14
Y2-S2-281K22,2,232,AS,exp,38,↓,down,↓,0.78319059999194,True,20,1,0,14
Y2-S2-281K22,2,233,AS,exp,46,←,left,←,0.6032247999683022,True,20,1,0,14
Y2-S2-281K22,2,234,AS,exp,27,↓,down,↓,0.7975234999903478,True,19,1,0,14
Y2-S2-281K22,2,235,AS,exp,33,→,no_key,no_letter,-1.0,False,19,-1,1,15
Y2-S2-281K22,2,236,AS,exp,34,↑,no_key,no_letter,-1.0,False,20,-1,0,15
Y2-S2-281K22,2,237,AS,exp,49,↓,down,↓,1.0441719999653287,True,21,-1,0,15
Y2-S2-281K22,2,238,AS,exp,31,←,left,←,0.8938197999959812,True,21,-1,0,15
Y2-S2-281K22,2,239,AS,exp,33,→,right,→,0.6971687999903224,True,21,1,1,16
Y2-S2-281K22,3,240,AS,intra_train,48,↑,up,↑,1.2644914999837056,True,30,-,-,-
Y2-S2-281K22,3,241,AS,intra_train,37,→,right,→,0.8292757999734022,True,30,-,-,-
Y2-S2-281K22,3,242,AS,intra_train,36,↓,down,↓,0.6339985000086017,True,30,-,-,-
Y2-S2-281K22,3,243,AS,intra_train,31,↑,up,↑,0.9113197999540716,True,30,-,-,-
Y2-S2-281K22,3,244,AS,intra_train,48,↓,down,↓,0.7004943999927491,True,30,-,-,-
Y2-S2-281K22,3,245,AS,exp,50,↑,up,↑,0.7197056000004523,True,20,0,0,0
Y2-S2-281K22,3,246,AS,exp,49,→,right,→,0.6674460000358522,True,20,0,0,0
Y2-S2-281K22,3,247,AS,exp,27,↓,down,↓,0.5971097000292502,True,20,1,0,0
Y2-S2-281K22,3,248,AS,exp,25,←,left,←,0.6574847999727353,True,19,1,0,0
Y2-S2-281K22,3,249,AS,exp,45,↓,down,↓,1.0275891000055708,True,19,1,0,0
Y2-S2-281K22,3,250,AS,exp,35,↑,up,↑,0.735686500032898,True,19,1,0,0
Y2-S2-281K22,3,251,AS,exp,37,→,right,→,0.5646428999607451,True,18,1,0,0
Y2-S2-281K22,3,252,AS,exp,25,↑,up,↑,0.5396711999783292,True,18,1,0,0
Y2-S2-281K22,3,253,AS,exp,38,←,left,←,1.0466204999829642,True,18,1,0,0
Y2-S2-281K22,3,254,AS,exp,41,→,right,→,0.7776264999993145,True,17,1,0,0
Y2-S2-281K22,3,255,AS,exp,32,↑,up,↑,0.6224999999976717,True,17,1,0,0
Y2-S2-281K22,3,256,AS,exp,41,↓,up,↑,0.667361699976027,False,17,-1,1,1
Y2-S2-281K22,3,257,AS,exp,47,←,left,←,0.7338818999705836,True,18,-1,0,1
Y2-S2-281K22,3,258,AS,exp,29,↑,up,↑,0.8877725999918766,True,18,-1,0,1
Y2-S2-281K22,3,259,AS,exp,49,→,right,→,1.107051600003615,True,18,1,1,2
Y2-S2-281K22,3,260,AS,exp,26,↑,up,↑,0.7838381000328809,True,17,1,0,2
Y2-S2-281K22,3,261,AS,exp,35,↓,down,↓,0.9282017000368796,True,17,1,0,2
Y2-S2-281K22,3,262,AS,exp,39,←,left,←,1.088742399995681,True,17,1,0,2
Y2-S2-281K22,3,263,AS,exp,31,↓,down,↓,0.7090608000289649,True,16,1,0,2
Y2-S2-281K22,3,264,AS,exp,41,→,right,→,0.5682426999555901,True,16,1,0,2
Y2-S2-281K22,3,265,AS,exp,38,↑,up,↑,0.5148417000309564,True,16,1,0,2
Y2-S2-281K22,3,266,AS,exp,40,→,down,↓,0.8522396000334993,False,15,-1,1,3
Y2-S2-281K22,3,267,AS,exp,27,↑,up,↑,0.5741074999677949,True,16,-1,0,3
Y2-S2-281K22,3,268,AS,exp,42,↓,down,↓,0.8698160999920219,True,16,-1,0,3
Y2-S2-281K22,3,269,AS,exp,39,↑,up,↑,0.6520081000053324,True,16,1,1,4
Y2-S2-281K22,3,270,AS,exp,50,↓,up,↑,0.7995750999543816,False,15,-1,1,5
Y2-S2-281K22,3,271,AS,exp,45,↑,up,↑,0.751676200015936,True,16,-1,0,5
Y2-S2-281K22,3,272,AS,exp,38,→,left,←,1.1102236000006087,False,16,-1,0,5
Y2-S2-281K22,3,273,AS,exp,40,↑,up,↑,0.7291103999596089,True,17,-1,0,5
Y2-S2-281K22,3,274,AS,exp,44,↓,up,↑,0.7046399000100791,False,17,-1,0,5
Y2-S2-281K22,3,275,AS,exp,40,←,left,←,0.7802427999558859,True,18,-1,0,5
Y2-S2-281K22,3,276,AS,exp,47,↓,down,↓,0.7318209999939427,True,18,-1,0,5
Y2-S2-281K22,3,277,AS,exp,38,←,down,↓,0.8838813999900594,False,18,-1,0,5
Y2-S2-281K22,3,278,AS,exp,41,→,right,→,1.457495899987407,True,19,-1,0,5
Y2-S2-281K22,3,279,AS,exp,42,↑,up,↑,0.7394436000031419,True,19,-1,0,5
Y2-S2-281K22,3,280,AS,exp,28,↓,down,↓,0.8048656999599189,True,19,1,1,6
Y2-S2-281K22,3,281,AS,exp,41,→,no_key,no_letter,-1.0,False,18,-1,1,7
Y2-S2-281K22,3,282,AS,exp,36,←,left,←,0.7024834000039846,True,19,-1,0,7
Y2-S2-281K22,3,283,AS,exp,26,↓,down,↓,0.8636703999945894,True,19,-1,0,7
Y2-S2-281K22,3,284,AS,exp,26,←,left,←,0.6131178000359796,True,19,1,1,8
Y2-S2-281K22,3,285,AS,exp,45,↓,down,↓,0.5665838000131771,True,18,1,0,8
Y2-S2-281K22,3,286,AS,exp,42,→,right,→,1.8488770999829285,True,18,1,0,8
Y2-S2-281K22,3,287,AS,exp,48,↓,down,↓,0.7617791999946348,True,18,1,0,8
Y2-S2-281K22,3,288,AS,exp,38,↑,right,→,1.1430473000509664,False,17,-1,1,9
Y2-S2-281K22,3,289,AS,exp,45,←,left,←,0.5878441000240855,True,18,-1,0,9
Y2-S2-281K22,3,290,AS,exp,48,→,right,→,1.0805809000157751,True,18,-1,0,9
Y2-S2-281K22,3,291,AS,exp,31,↑,up,↑,1.1090303999953903,True,18,1,1,10
Y2-S2-281K22,3,292,AS,exp,50,↓,down,↓,0.5611572999623604,True,17,1,0,10
Y2-S2-281K22,3,293,AS,exp,40,→,down,↓,0.9403119999915361,False,17,-1,1,11
Y2-S2-281K22,3,294,AS,exp,45,↑,up,↑,0.5514326000120491,True,18,-1,0,11
Y2-S2-281K22,3,295,AS,exp,26,←,left,←,0.6046865999815054,True,18,-1,0,11
Y2-S2-281K22,3,296,AS,exp,39,→,right,→,0.8825918000075035,True,18,1,1,12
Y2-S2-281K22,3,297,AS,exp,38,←,right,→,0.9328626000205986,False,17,-1,1,13
Y2-S2-281K22,3,298,AS,exp,41,↓,down,↓,1.2807794000254944,True,18,-1,0,13
Y2-S2-281K22,3,299,AS,exp,41,↑,up,↑,0.7494855000404641,True,18,-1,0,13
Y2-S2-281K22,3,300,AS,exp,30,←,right,→,1.0560825999709778,False,18,-1,0,13
Y2-S2-281K22,3,301,AS,exp,30,→,right,→,0.7570043000159785,True,19,-1,0,13
Y2-S2-281K22,3,302,AS,exp,41,↓,down,↓,0.7634031000197865,True,19,-1,0,13
Y2-S2-281K22,3,303,AS,exp,48,→,right,→,0.7579137000138871,True,19,1,1,14
Y2-S2-281K22,3,304,AS,exp,46,↑,up,↑,0.7540676000062376,True,18,1,0,14
Y2-S2-281K22,3,305,AS,exp,41,→,right,→,0.5422143999603577,True,18,1,0,14
Y2-S2-281K22,3,306,AS,exp,46,↑,up,↑,0.786556999955792,True,18,1,0,14
Y2-S2-281K22,3,307,AS,exp,49,→,right,→,0.7220944000291638,True,17,1,0,14
Y2-S2-281K22,3,308,AS,exp,26,↑,up,↑,0.7062471000244841,True,17,1,0,14
Y2-S2-281K22,3,309,AS,exp,25,←,left,←,0.6789777999510989,True,17,1,0,14
Y2-S2-281K22,3,310,AS,exp,39,→,right,→,0.7242708000121638,True,16,1,0,14
Y2-S2-281K22,3,311,AS,exp,47,↓,up,↑,0.6545633999630809,False,16,-1,1,15
Y2-S2-281K22,3,312,AS,exp,50,←,left,←,0.6124833999783732,True,17,-1,0,15
Y2-S2-281K22,3,313,AS,exp,50,↑,down,↓,0.7713194999960251,False,17,-1,0,15
Y2-S2-281K22,3,314,AS,exp,49,↓,down,↓,0.7768900000373833,True,18,-1,0,15
Y2-S2-281K22,3,315,AS,exp,35,↑,down,↓,1.2931691000121646,False,18,-1,0,15
Y2-S2-281K22,3,316,AS,exp,29,←,left,←,0.8072889999602921,True,19,-1,0,15
Y2-S2-281K22,3,317,AS,exp,41,↓,down,↓,0.9079800000181422,True,19,-1,0,15
Y2-S2-281K22,3,318,AS,exp,27,←,left,←,0.9810568999964744,True,19,1,1,16
Y2-S2-281K22,4,319,PS,intra_train,50,↓,left,←,0.8299380000098608,False,10,-,-,-
Y2-S2-281K22,4,320,PS,intra_train,41,→,right,→,0.6846829999703914,True,10,-,-,-
Y2-S2-281K22,4,321,PS,intra_train,35,↓,left,←,0.8616551000159234,False,10,-,-,-
Y2-S2-281K22,4,322,PS,intra_train,44,→,right,→,0.7315887999720871,True,10,-,-,-
Y2-S2-281K22,4,323,PS,intra_train,39,←,left,←,0.7563302999478765,True,10,-,-,-
Y2-S2-281K22,4,324,PS,exp,25,↓,down,↓,0.7318902999977581,True,7,0,0,0
Y2-S2-281K22,4,325,PS,exp,47,↑,up,↑,0.6916790999821387,True,7,0,0,0
Y2-S2-281K22,4,326,PS,exp,49,←,left,←,0.6610014999751002,True,7,1,0,0
Y2-S2-281K22,4,327,PS,exp,42,→,right,→,0.677789900044445,True,6,1,0,0
Y2-S2-281K22,4,328,PS,exp,50,↓,left,←,0.6178241000161506,False,6,-1,1,1
Y2-S2-281K22,4,329,PS,exp,38,→,right,→,0.501478899968788,True,7,-1,0,1
Y2-S2-281K22,4,330,PS,exp,35,←,right,→,0.6534489000332542,False,7,-1,0,1
Y2-S2-281K22,4,331,PS,exp,47,→,right,→,0.8560253999894485,True,8,-1,0,1
Y2-S2-281K22,4,332,PS,exp,42,↑,up,↑,0.5010982999810949,True,8,-1,0,1
Y2-S2-281K22,4,333,PS,exp,35,→,right,→,0.4905459000146948,True,8,1,1,2
Y2-S2-281K22,4,334,PS,exp,50,↓,right,→,0.7389082000008784,False,7,-1,1,3
Y2-S2-281K22,4,335,PS,exp,38,→,right,→,0.7460049000219442,True,8,-1,0,3
Y2-S2-281K22,4,336,PS,exp,38,↓,down,↓,0.6623450000188313,True,8,-1,0,3
Y2-S2-281K22,4,337,PS,exp,28,←,down,↓,1.2096587999840267,False,8,-1,0,3
Y2-S2-281K22,4,338,PS,exp,42,↓,right,→,1.5419339999789372,False,9,-1,0,3
Y2-S2-281K22,4,339,PS,exp,27,→,right,→,0.6869860999868251,True,10,-1,0,3
Y2-S2-281K22,4,340,PS,exp,26,↑,up,↑,0.6725800999556668,True,10,-1,0,3
Y2-S2-281K22,4,341,PS,exp,37,←,left,←,0.5768000999814831,True,10,1,1,4
Y2-S2-281K22,4,342,PS,exp,44,↓,up,↑,1.233375600015279,False,9,-1,1,5
Y2-S2-281K22,4,343,PS,exp,46,↑,left,←,1.111050500010606,False,10,-1,0,5
Y2-S2-281K22,4,344,PS,exp,39,→,right,→,0.7012287999968976,True,11,-1,0,5
Y2-S2-281K22,4,345,PS,exp,38,↑,up,↑,0.6940534000168554,True,11,-1,0,5
Y2-S2-281K22,4,346,PS,exp,40,↓,down,↓,0.7653989999671467,True,11,1,1,6
Y2-S2-281K22,4,347,PS,exp,26,↑,up,↑,0.8237311000120826,True,10,1,0,6
Y2-S2-281K22,4,348,PS,exp,45,↓,down,↓,0.807729099993594,True,10,1,0,6
Y2-S2-281K22,4,349,PS,exp,34,↑,up,↑,0.6958043000195175,True,10,1,0,6
Y2-S2-281K22,4,350,PS,exp,30,←,left,←,0.6347550000064075,True,9,1,0,6
Y2-S2-281K22,4,351,PS,exp,42,→,right,→,1.325556299998425,True,9,1,0,6
Y2-S2-281K22,4,352,PS,exp,46,←,left,←,0.7802618999849074,True,9,1,0,6
Y2-S2-281K22,4,353,PS,exp,27,↓,down,↓,1.0456988000078127,True,8,1,0,6
Y2-S2-281K22,4,354,PS,exp,30,←,left,←,0.8907948999549262,True,8,1,0,6
Y2-S2-281K22,4,355,PS,exp,47,↑,up,↑,0.7269803999806754,True,8,1,0,6
Y2-S2-281K22,4,356,PS,exp,44,↓,down,↓,0.7201598000247031,True,7,1,0,6
Y2-S2-281K22,4,357,PS,exp,30,←,left,←,0.6811274999636225,True,7,1,0,6
Y2-S2-281K22,4,358,PS,exp,33,↑,up,↑,0.7094007999985479,True,7,1,0,6
Y2-S2-281K22,4,359,PS,exp,47,→,right,→,0.6541951000108384,True,6,1,0,6
Y2-S2-281K22,4,360,PS,exp,30,↓,up,↑,1.2043010999914259,False,6,-1,1,7
Y2-S2-281K22,4,361,PS,exp,31,↑,up,↑,0.7970850000274368,True,7,-1,0,7
Y2-S2-281K22,4,362,PS,exp,44,↓,down,↓,0.7830241000046954,True,7,-1,0,7
Y2-S2-281K22,4,363,PS,exp,39,↑,right,→,0.9181993000092916,False,7,-1,0,7
Y2-S2-281K22,4,364,PS,exp,28,←,right,→,0.8137168000102974,False,8,-1,0,7
Y2-S2-281K22,4,365,PS,exp,43,→,right,→,0.6077235999982804,True,9,-1,0,7
Y2-S2-281K22,4,366,PS,exp,33,←,left,←,0.7876938999979757,True,9,-1,0,7
Y2-S2-281K22,4,367,PS,exp,44,↓,up,↑,0.7864393999916501,False,9,-1,0,7
Y2-S2-281K22,4,368,PS,exp,41,→,right,→,0.5612000999972224,True,10,-1,0,7
Y2-S2-281K22,4,369,PS,exp,40,↑,up,↑,0.6269116999465041,True,10,-1,0,7
Y2-S2-281K22,4,370,PS,exp,34,↓,down,↓,0.6716352999792434,True,10,1,1,8
Y2-S2-281K22,4,371,PS,exp,49,→,right,→,0.5487718000076711,True,9,1,0,8
Y2-S2-281K22,4,372,PS,exp,33,↓,down,↓,0.857519900018815,True,9,1,0,8
Y2-S2-281K22,4,373,PS,exp,46,↑,up,↑,0.7780857000034302,True,9,1,0,8
Y2-S2-281K22,4,374,PS,exp,39,←,left,←,0.7966720000258647,True,8,1,0,8
Y2-S2-281K22,4,375,PS,exp,33,↑,up,↑,0.6516922999871895,True,8,1,0,8
Y2-S2-281K22,4,376,PS,exp,35,↓,down,↓,0.605595999979414,True,8,1,0,8
Y2-S2-281K22,4,377,PS,exp,27,←,left,←,0.6425277999951504,True,7,1,0,8
Y2-S2-281K22,4,378,PS,exp,46,↓,down,↓,0.6843535999651067,True,7,1,0,8
Y2-S2-281K22,4,379,PS,exp,32,←,left,←,0.7602044999948703,True,7,1,0,8
Y2-S2-281K22,4,380,PS,exp,39,↓,down,↓,0.7562567999702878,True,6,1,0,8
Y2-S2-281K22,4,381,PS,exp,32,↑,down,↓,0.8412438000086695,False,6,-1,1,9
Y2-S2-281K22,4,382,PS,exp,27,↓,down,↓,1.1878645000397228,True,7,-1,0,9
Y2-S2-281K22,4,383,PS,exp,35,←,left,←,1.0361349000013433,True,7,-1,0,9
Y2-S2-281K22,4,384,PS,exp,48,→,right,→,0.565361800021492,True,7,1,1,10
Y2-S2-281K22,4,385,PS,exp,31,←,left,←,0.7039575999951921,True,6,1,0,10
Y2-S2-281K22,4,386,PS,exp,48,↑,left,←,0.8592079000081867,False,6,-1,1,11
Y2-S2-281K22,4,387,PS,exp,41,→,right,→,0.5494340999866836,True,7,-1,0,11
Y2-S2-281K22,4,388,PS,exp,50,↓,left,←,0.685451400000602,False,7,-1,0,11
Y2-S2-281K22,4,389,PS,exp,50,→,right,→,0.6205313999671489,True,8,-1,0,11
Y2-S2-281K22,4,390,PS,exp,31,↑,up,↑,0.586607199977152,True,8,-1,0,11
Y2-S2-281K22,4,391,PS,exp,46,←,left,←,0.588644600007683,True,8,1,1,12
Y2-S2-281K22,4,392,PS,exp,42,↑,right,→,0.8276307999622077,False,7,-1,1,13
Y2-S2-281K22,4,393,PS,exp,48,←,left,←,0.7234638000372797,True,8,-1,0,13
Y2-S2-281K22,4,394,PS,exp,46,↑,up,↑,0.5976087999879383,True,8,-1,0,13
Y2-S2-281K22,4,395,PS,exp,28,→,right,→,0.5936148999608122,True,8,1,1,14
Y2-S2-281K22,4,396,PS,exp,42,←,left,←,0.7925405999994837,True,7,1,0,14
Y2-S2-281K22,4,397,PS,exp,47,↑,up,↑,0.7614535000175238,True,7,1,0,14
Y2-S2-281K22,4,398,PS,exp,38,↓,down,↓,0.6264195000403561,True,7,1,0,14
Y2-S2-281K22,4,399,PS,exp,47,→,right,→,0.7485087999957614,True,6,1,0,14
Y2-S2-281K22,4,400,PS,exp,28,↑,up,↑,0.6278073000139557,True,6,1,0,14
Y2-S2-281K22,4,401,PS,exp,49,↓,right,→,0.8167763999663293,False,6,-1,1,15
Y2-S2-281K22,4,402,PS,exp,48,↑,right,→,1.005199300008826,False,7,-1,0,15
Y2-S2-281K22,4,403,PS,exp,50,←,right,→,0.7204016000032425,False,8,-1,0,15
Y2-S2-281K22,4,404,PS,exp,47,↑,up,↑,0.5700783000211231,True,9,-1,0,15
Y2-S2-281K22,4,405,PS,exp,38,→,right,→,0.6198737000231631,True,9,-1,0,15
Y2-S2-281K22,4,406,PS,exp,43,←,left,←,0.7440207999898121,True,9,1,1,16
Y2-S2-281K22,5,407,PS,intra_train,40,→,right,→,0.9568168999976479,True,10,-,-,-
Y2-S2-281K22,5,408,PS,intra_train,50,←,left,←,0.519418100011535,True,10,-,-,-
Y2-S2-281K22,5,409,PS,intra_train,32,→,right,→,0.6108784000389278,True,10,-,-,-
Y2-S2-281K22,5,410,PS,intra_train,35,↓,right,→,0.8805859999847598,False,10,-,-,-
Y2-S2-281K22,5,411,PS,intra_train,50,←,left,←,0.6539119000080973,True,10,-,-,-
Y2-S2-281K22,5,412,PS,exp,25,↑,up,↑,0.7529880000511184,True,7,0,0,0
Y2-S2-281K22,5,413,PS,exp,27,→,right,→,0.5965573000139557,True,7,0,0,0
Y2-S2-281K22,5,414,PS,exp,27,↑,right,→,0.6012298000277951,False,7,-1,0,0
Y2-S2-281K22,5,415,PS,exp,41,↓,down,↓,0.5886838000151329,True,8,-1,0,0
Y2-S2-281K22,5,416,PS,exp,40,←,left,←,0.668456099985633,True,8,-1,0,0
Y2-S2-281K22,5,417,PS,exp,27,→,right,→,0.5023686999920756,True,8,1,1,1
Y2-S2-281K22,5,418,PS,exp,47,←,right,→,0.5788796999840997,False,7,-1,1,2
Y2-S2-281K22,5,419,PS,exp,50,→,right,→,0.6547139999456704,True,8,-1,0,2
Y2-S2-281K22,5,420,PS,exp,42,↑,up,↑,0.9804651000304148,True,8,-1,0,2
Y2-S2-281K22,5,421,PS,exp,35,←,right,→,0.6199273999664001,False,8,-1,0,2
Y2-S2-281K22,5,422,PS,exp,48,↑,up,↑,0.537609999999404,True,9,-1,0,2
Y2-S2-281K22,5,423,PS,exp,33,↓,down,↓,0.6352391000255011,True,9,-1,0,2
Y2-S2-281K22,5,424,PS,exp,35,←,left,←,0.682703299971763,True,9,1,1,3
Y2-S2-281K22,5,425,PS,exp,32,→,left,←,0.6153091000160202,False,8,-1,1,4
Y2-S2-281K22,5,426,PS,exp,47,←,left,←,0.5812766999588348,True,9,-1,0,4
Y2-S2-281K22,5,427,PS,exp,45,↑,up,↑,0.47123339999234304,True,9,-1,0,4
Y2-S2-281K22,5,428,PS,exp,34,←,left,←,0.5806678999797441,True,9,1,1,5
Y2-S2-281K22,5,429,PS,exp,50,→,right,→,0.6526659999508411,True,8,1,0,5
Y2-S2-281K22,5,430,PS,exp,35,↑,up,↑,0.5564877000288107,True,8,1,0,5
Y2-S2-281K22,5,431,PS,exp,25,↓,down,↓,0.5775090000242926,True,8,1,0,5
Y2-S2-281K22,5,432,PS,exp,49,→,right,→,0.5554486000328325,True,7,1,0,5
Y2-S2-281K22,5,433,PS,exp,29,←,left,←,0.6383891000295989,True,7,1,0,5
Y2-S2-281K22,5,434,PS,exp,46,↑,up,↑,0.6113348999642767,True,7,1,0,5
Y2-S2-281K22,5,435,PS,exp,33,←,left,←,0.9968744999496266,True,6,1,0,5
Y2-S2-281K22,5,436,PS,exp,47,↓,left,←,0.7353146999957971,False,6,-1,1,6
Y2-S2-281K22,5,437,PS,exp,33,→,right,→,0.5774188000359572,True,7,-1,0,6
Y2-S2-281K22,5,438,PS,exp,49,←,left,←,0.6371764999930747,True,7,-1,0,6
Y2-S2-281K22,5,439,PS,exp,33,↑,left,←,0.677410600008443,False,7,-1,0,6
Y2-S2-281K22,5,440,PS,exp,30,↓,down,↓,0.7102311000344343,True,8,-1,0,6
Y2-S2-281K22,5,441,PS,exp,39,→,right,→,0.5545393000356853,True,8,-1,0,6
Y2-S2-281K22,5,442,PS,exp,26,↓,down,↓,0.5704631000407971,True,8,1,1,7
Y2-S2-281K22,5,443,PS,exp,26,↑,up,↑,0.5604160000220872,True,7,1,0,7
Y2-S2-281K22,5,444,PS,exp,40,→,right,→,0.5857279999763705,True,7,1,0,7
Y2-S2-281K22,5,445,PS,exp,41,↓,right,→,0.5922560999752022,False,7,-1,1,8
Y2-S2-281K22,5,446,PS,exp,32,→,right,→,0.6264377000043169,True,8,-1,0,8
Y2-S2-281K22,5,447,PS,exp,49,↓,right,→,0.6240644999779761,False,8,-1,0,8
Y2-S2-281K22,5,448,PS,exp,49,→,right,→,0.8919117000186816,True,9,-1,0,8
Y2-S2-281K22,5,449,PS,exp,30,↓,down,↓,0.5269033000222407,True,9,-1,0,8
Y2-S2-281K22,5,450,PS,exp,45,←,left,←,0.5456233999575488,True,9,1,1,9
Y2-S2-281K22,5,451,PS,exp,40,↑,up,↑,0.801526700030081,True,8,1,0,9
Y2-S2-281K22,5,452,PS,exp,27,↓,right,→,0.7829965999699198,False,8,-1,1,10
Y2-S2-281K22,5,453,PS,exp,29,→,right,→,0.7693916999851353,True,9,-1,0,10
Y2-S2-281K22,5,454,PS,exp,28,↑,right,→,0.7252165999962017,False,9,-1,0,10
Y2-S2-281K22,5,455,PS,exp,38,←,left,←,0.5905285999760963,True,10,-1,0,10
Y2-S2-281K22,5,456,PS,exp,26,↓,down,↓,0.9033641999703832,True,10,-1,0,10
Y2-S2-281K22,5,457,PS,exp,48,↑,up,↑,0.7028642000514083,True,10,1,1,11
Y2-S2-281K22,5,458,PS,exp,34,↓,down,↓,0.6774480000021867,True,9,1,0,11
Y2-S2-281K22,5,459,PS,exp,37,↑,right,→,0.7380078000132926,False,9,-1,1,12
Y2-S2-281K22,5,460,PS,exp,39,→,right,→,0.6802546000108123,True,10,-1,0,12
Y2-S2-281K22,5,461,PS,exp,44,←,left,←,0.5504977999953553,True,10,-1,0,12
Y2-S2-281K22,5,462,PS,exp,31,↓,down,↓,0.5194731000228785,True,10,1,1,13
Y2-S2-281K22,5,463,PS,exp,34,↑,up,↑,0.47087400004966184,True,9,1,0,13
Y2-S2-281K22,5,464,PS,exp,27,→,right,→,0.495416900026612,True,9,1,0,13
Y2-S2-281K22,5,465,PS,exp,45,↓,down,↓,0.49026920000324026,True,9,1,0,13
Y2-S2-281K22,5,466,PS,exp,27,↑,left,←,1.1321314999950118,False,8,-1,1,14
Y2-S2-281K22,5,467,PS,exp,40,←,left,←,0.5494340999866836,True,9,-1,0,14
Y2-S2-281K22,5,468,PS,exp,35,→,right,→,0.6271372999763116,True,9,-1,0,14
Y2-S2-281K22,5,469,PS,exp,34,↑,down,↓,0.7408274000044912,False,9,-1,0,14
Y2-S2-281K22,5,470,PS,exp,38,←,left,←,0.5458577999961562,True,10,-1,0,14
Y2-S2-281K22,5,471,PS,exp,35,↑,right,→,1.1315132000017911,False,10,-1,0,14
Y2-S2-281K22,5,472,PS,exp,34,→,right,→,0.5363917999784462,True,11,-1,0,14
Y2-S2-281K22,5,473,PS,exp,48,↑,up,↑,0.5235373000032268,True,11,-1,0,14
Y2-S2-281K22,5,474,PS,exp,45,←,left,←,0.7061511999927461,True,11,1,1,15
Y2-S2-281K22,5,475,PS,exp,31,→,right,→,0.8010595999658108,True,10,1,0,15
Y2-S2-281K22,5,476,PS,exp,40,↓,down,↓,0.6521863000234589,True,10,1,0,15
Y2-S2-281K22,5,477,PS,exp,45,↑,up,↑,1.1811382999876514,True,10,1,0,15
Y2-S2-281K22,5,478,PS,exp,38,←,left,←,0.7985937999910675,True,9,1,0,15
Y2-S2-281K22,5,479,PS,exp,43,↓,left,←,0.8786836000508629,False,9,-1,1,16
Y2-S2-281K22,6,480,AS,intra_train,43,→,right,→,1.6882555999909528,True,30,-,-,-
Y2-S2-281K22,6,481,AS,intra_train,33,↓,down,↓,0.798802999954205,True,30,-,-,-
Y2-S2-281K22,6,482,AS,intra_train,49,↑,up,↑,0.6003412999561988,True,30,-,-,-
Y2-S2-281K22,6,483,AS,intra_train,30,←,left,←,0.7123102999757975,True,30,-,-,-
Y2-S2-281K22,6,484,AS,intra_train,46,↓,down,↓,0.8981452999869362,True,30,-,-,-
Y2-S2-281K22,6,485,AS,exp,42,→,right,→,1.2588491999777034,True,20,0,0,0
Y2-S2-281K22,6,486,AS,exp,50,↑,up,↑,0.8288768000202253,True,20,0,0,0
Y2-S2-281K22,6,487,AS,exp,45,↓,down,↓,0.7059483000193723,True,20,1,0,0
Y2-S2-281K22,6,488,AS,exp,37,→,right,→,0.5710436999797821,True,19,1,0,0
Y2-S2-281K22,6,489,AS,exp,37,←,right,→,0.9137021999922581,False,19,-1,1,1
Y2-S2-281K22,6,490,AS,exp,44,↑,up,↑,0.6160516999661922,True,20,-1,0,1
Y2-S2-281K22,6,491,AS,exp,49,↓,down,↓,0.7072996000060812,True,20,-1,0,1
Y2-S2-281K22,6,492,AS,exp,26,←,left,←,0.7286700999829918,True,20,1,1,2
Y2-S2-281K22,6,493,AS,exp,34,→,right,→,0.6206231000251137,True,19,1,0,2
Y2-S2-281K22,6,494,AS,exp,42,↓,down,↓,0.7432609000243247,True,19,1,0,2
Y2-S2-281K22,6,495,AS,exp,43,←,left,←,0.7722115999786183,True,19,1,0,2
Y2-S2-281K22,6,496,AS,exp,31,↓,down,↓,1.0698384999996051,True,18,1,0,2
Y2-S2-281K22,6,497,AS,exp,46,↑,up,↑,0.6401917000184767,True,18,1,0,2
Y2-S2-281K22,6,498,AS,exp,50,←,left,←,0.6517378000426106,True,18,1,0,2
Y2-S2-281K22,6,499,AS,exp,45,↑,up,↑,0.48812510003335774,True,17,1,0,2
Y2-S2-281K22,6,500,AS,exp,29,→,down,↓,0.8774447999894619,False,17,-1,1,3
Y2-S2-281K22,6,501,AS,exp,38,←,left,←,0.7702160999760963,True,18,-1,0,3
Y2-S2-281K22,6,502,AS,exp,40,→,left,←,0.8698022000025958,False,18,-1,0,3
Y2-S2-281K22,6,503,AS,exp,49,↓,down,↓,0.6976346999872476,True,19,-1,0,3
Y2-S2-281K22,6,504,AS,exp,25,↑,down,↓,1.353170600021258,False,19,-1,0,3
Y2-S2-281K22,6,505,AS,exp,43,↓,down,↓,0.7635129999835044,True,20,-1,0,3
Y2-S2-281K22,6,506,AS,exp,34,→,right,→,0.5648862000089139,True,20,-1,0,3
Y2-S2-281K22,6,507,AS,exp,25,↓,down,↓,0.7047605999978259,True,20,1,1,4
Y2-S2-281K22,6,508,AS,exp,42,↑,up,↑,0.49489959998754784,True,19,1,0,4
Y2-S2-281K22,6,509,AS,exp,47,←,left,←,0.7637390999589115,True,19,1,0,4
Y2-S2-281K22,6,510,AS,exp,39,↑,up,↑,0.8021854999824427,True,19,1,0,4
Y2-S2-281K22,6,511,AS,exp,45,↓,down,↓,0.9170851000235416,True,18,1,0,4
Y2-S2-281K22,6,512,AS,exp,36,↑,up,↑,0.7381450000102632,True,18,1,0,4
Y2-S2-281K22,6,513,AS,exp,49,→,right,→,0.8072736000176519,True,18,1,0,4
Y2-S2-281K22,6,514,AS,exp,27,↑,up,↑,0.6115955999703147,True,17,1,0,4
Y2-S2-281K22,6,515,AS,exp,35,←,left,←,0.7568374000256881,True,17,1,0,4
Y2-S2-281K22,6,516,AS,exp,33,→,right,→,0.6595140999997966,True,17,1,0,4
Y2-S2-281K22,6,517,AS,exp,31,←,left,←,0.7481574999983422,True,16,1,0,4
Y2-S2-281K22,6,518,AS,exp,47,→,up,↑,0.8322164000128396,False,16,-1,1,5
Y2-S2-281K22,6,519,AS,exp,32,←,left,←,0.7420048000058159,True,17,-1,0,5
Y2-S2-281K22,6,520,AS,exp,30,↓,down,↓,0.8644210000056773,True,17,-1,0,5
Y2-S2-281K22,6,521,AS,exp,36,←,left,←,0.5889656999497674,True,17,1,1,6
Y2-S2-281K22,6,522,AS,exp,32,↑,right,→,0.8116207999992184,False,16,-1,1,7
Y2-S2-281K22,6,523,AS,exp,50,↓,down,↓,0.6702455999911763,True,17,-1,0,7
Y2-S2-281K22,6,524,AS,exp,42,←,left,←,0.5459818999515846,True,17,-1,0,7
Y2-S2-281K22,6,525,AS,exp,49,→,right,→,0.8519524000003003,True,17,1,1,8
Y2-S2-281K22,6,526,AS,exp,41,←,right,→,0.7023189999745227,False,16,-1,1,9
Y2-S2-281K22,6,527,AS,exp,31,↓,down,↓,0.6127915999968536,True,17,-1,0,9
Y2-S2-281K22,6,528,AS,exp,29,↑,up,↑,1.3445305000059307,True,17,-1,0,9
Y2-S2-281K22,6,529,AS,exp,30,→,right,→,0.47383430000627413,True,17,1,1,10
Y2-S2-281K22,6,530,AS,exp,29,↓,left,←,0.7469929000362754,False,16,-1,1,11
Y2-S2-281K22,6,531,AS,exp,42,←,left,←,0.7851233000401407,True,17,-1,0,11
Y2-S2-281K22,6,532,AS,exp,50,↓,down,↓,0.7053568999981508,True,17,-1,0,11
Y2-S2-281K22,6,533,AS,exp,30,↑,up,↑,1.3660535999806598,True,17,1,1,12
Y2-S2-281K22,6,534,AS,exp,35,←,left,←,0.6767335000331514,True,16,1,0,12
Y2-S2-281K22,6,535,AS,exp,40,↑,up,↑,0.5798214999958873,True,16,1,0,12
Y2-S2-281K22,6,536,AS,exp,50,↓,down,↓,0.6264710000250489,True,16,1,0,12
Y2-S2-281K22,6,537,AS,exp,26,↑,right,→,0.7517373000155203,False,15,-1,1,13
Y2-S2-281K22,6,538,AS,exp,29,←,left,←,0.7522866000072099,True,16,-1,0,13
Y2-S2-281K22,6,539,AS,exp,45,→,left,←,0.8706038999953307,False,16,-1,0,13
Y2-S2-281K22,6,540,AS,exp,50,↓,down,↓,1.3031303000170738,True,17,-1,0,13
Y2-S2-281K22,6,541,AS,exp,42,↑,up,↑,0.7475460999994539,True,17,-1,0,13
Y2-S2-281K22,6,542,AS,exp,25,↓,down,↓,0.8590741000371054,True,17,1,1,14
Y2-S2-281K22,6,543,AS,exp,27,←,left,←,0.5692356999497861,True,16,1,0,14
Y2-S2-281K22,6,544,AS,exp,37,↑,up,↑,0.6101716000121087,True,16,1,0,14
Y2-S2-281K22,6,545,AS,exp,50,→,right,→,1.1650555999949574,True,16,1,0,14
Y2-S2-281K22,6,546,AS,exp,30,↓,left,←,0.8235098000150174,False,15,-1,1,15
Y2-S2-281K22,6,547,AS,exp,44,→,right,→,0.5278600999736227,True,16,-1,0,15
Y2-S2-281K22,6,548,AS,exp,32,↓,down,↓,0.987230799975805,True,16,-1,0,15
Y2-S2-281K22,6,549,AS,exp,44,→,right,→,0.5677679000073113,True,16,1,1,16
Y2-S2-281K22,7,550,AS,intra_train,38,↑,up,↑,1.2380334999761544,True,30,-,-,-
Y2-S2-281K22,7,551,AS,intra_train,39,←,left,←,0.6338743999949656,True,30,-,-,-
Y2-S2-281K22,7,552,AS,intra_train,33,→,right,→,0.5172809999785386,True,30,-,-,-
Y2-S2-281K22,7,553,AS,intra_train,45,↑,up,↑,1.2976293999818154,True,30,-,-,-
Y2-S2-281K22,7,554,AS,intra_train,40,↓,down,↓,0.8486169999814592,True,30,-,-,-
Y2-S2-281K22,7,555,AS,exp,50,→,right,→,0.5681542999809608,True,20,0,0,0
Y2-S2-281K22,7,556,AS,exp,37,↑,up,↑,0.7594277000171132,True,20,0,0,0
Y2-S2-281K22,7,557,AS,exp,43,→,right,→,1.337576000019908,True,20,1,0,0
Y2-S2-281K22,7,558,AS,exp,26,↑,left,←,0.9463570999796502,False,19,-1,1,1
Y2-S2-281K22,7,559,AS,exp,33,↓,down,↓,0.679175800003577,True,20,-1,0,1
Y2-S2-281K22,7,560,AS,exp,33,↑,down,↓,0.902571499987971,False,20,-1,0,1
Y2-S2-281K22,7,561,AS,exp,30,←,left,←,1.3272877999697812,True,21,-1,0,1
Y2-S2-281K22,7,562,AS,exp,25,→,right,→,0.7677588000078686,True,21,-1,0,1
Y2-S2-281K22,7,563,AS,exp,48,←,left,←,0.7027641999884509,True,21,1,1,2
Y2-S2-281K22,7,564,AS,exp,28,↓,down,↓,0.5446115999948233,True,20,1,0,2
Y2-S2-281K22,7,565,AS,exp,43,↑,up,↑,1.17552109999815,True,20,1,0,2
Y2-S2-281K22,7,566,AS,exp,32,←,left,←,0.6187477000057697,True,20,1,0,2
Y2-S2-281K22,7,567,AS,exp,30,↓,up,↑,0.6989105999819003,False,19,-1,1,3
Y2-S2-281K22,7,568,AS,exp,36,→,right,→,0.4673338999855332,True,20,-1,0,3
Y2-S2-281K22,7,569,AS,exp,47,←,left,←,0.534131399996113,True,20,-1,0,3
Y2-S2-281K22,7,570,AS,exp,25,→,right,→,0.510244800010696,True,20,1,1,4
Y2-S2-281K22,7,571,AS,exp,37,↓,left,←,1.0277264000033028,False,19,-1,1,5
Y2-S2-281K22,7,572,AS,exp,44,↑,left,←,1.2651694000232965,False,20,-1,0,5
Y2-S2-281K22,7,573,AS,exp,36,→,right,→,0.5311221999581903,True,21,-1,0,5
Y2-S2-281K22,7,574,AS,exp,46,↑,up,↑,0.675323200004641,True,21,-1,0,5
Y2-S2-281K22,7,575,AS,exp,49,→,up,↑,1.2123413999797776,False,21,-1,0,5
Y2-S2-281K22,7,576,AS,exp,28,←,left,←,0.5653694000211544,True,22,-1,0,5
Y2-S2-281K22,7,577,AS,exp,33,→,right,→,1.1492495999555103,True,22,-1,0,5
Y2-S2-281K22,7,578,AS,exp,49,↓,down,↓,0.934874500031583,True,22,1,1,6
Y2-S2-281K22,7,579,AS,exp,26,↑,up,↑,0.6698730000061914,True,21,1,0,6
Y2-S2-281K22,7,580,AS,exp,42,↓,down,↓,0.826815299980808,True,21,1,0,6
Y2-S2-281K22,7,581,AS,exp,29,←,left,←,0.5831275000236928,True,21,1,0,6
Y2-S2-281K22,7,582,AS,exp,33,↑,up,↑,0.45048070000484586,True,20,1,0,6
Y2-S2-281K22,7,583,AS,exp,49,↓,down,↓,0.6975984000018798,True,20,1,0,6
Y2-S2-281K22,7,584,AS,exp,49,←,left,←,0.6209858999936841,True,20,1,0,6
Y2-S2-281K22,7,585,AS,exp,38,↑,left,←,1.3091826000018045,False,19,-1,1,7
Y2-S2-281K22,7,586,AS,exp,44,→,right,→,0.6910669000353664,True,20,-1,0,7
Y2-S2-281K22,7,587,AS,exp,37,↑,up,↑,0.6663010999909602,True,20,-1,0,7
Y2-S2-281K22,7,588,AS,exp,31,↓,down,↓,0.6177954000304453,True,20,1,1,8
Y2-S2-281K22,7,589,AS,exp,25,←,left,←,0.6322632999508642,True,19,1,0,8
Y2-S2-281K22,7,590,AS,exp,25,↓,down,↓,0.6107350999955088,True,19,1,0,8
Y2-S2-281K22,7,591,AS,exp,40,←,left,←,0.4338477000128478,True,19,1,0,8
Y2-S2-281K22,7,592,AS,exp,37,↓,down,↓,0.5827755000209436,True,18,1,0,8
Y2-S2-281K22,7,593,AS,exp,38,↑,no_key,no_letter,-1.0,False,18,-1,1,9
Y2-S2-281K22,7,594,AS,exp,45,←,left,←,0.8721160999848507,True,19,-1,0,9
Y2-S2-281K22,7,595,AS,exp,44,→,right,→,0.7433925999794155,True,19,-1,0,9
Y2-S2-281K22,7,596,AS,exp,27,↓,down,↓,0.7928795999614522,True,19,1,1,10
Y2-S2-281K22,7,597,AS,exp,41,←,left,←,0.7146050999872386,True,18,1,0,10
Y2-S2-281K22,7,598,AS,exp,32,↑,up,↑,0.47021469997707754,True,18,1,0,10
Y2-S2-281K22,7,599,AS,exp,36,↓,left,←,0.7857063999981619,False,18,-1,1,11
Y2-S2-281K22,7,600,AS,exp,49,←,left,←,0.7302867000107653,True,19,-1,0,11
Y2-S2-281K22,7,601,AS,exp,41,→,right,→,0.8235586000373587,True,19,-1,0,11
Y2-S2-281K22,7,602,AS,exp,48,↓,down,↓,0.7609458999941126,True,19,1,1,12
Y2-S2-281K22,7,603,AS,exp,39,→,right,→,0.6090569000225514,True,18,1,0,12
Y2-S2-281K22,7,604,AS,exp,41,←,left,←,0.618206100014504,True,18,1,0,12
Y2-S2-281K22,7,605,AS,exp,36,↑,up,↑,0.6672998999711126,True,18,1,0,12
Y2-S2-281K22,7,606,AS,exp,43,←,left,←,0.5842562000034377,True,17,1,0,12
Y2-S2-281K22,7,607,AS,exp,29,↑,up,↑,0.655758999986574,True,17,1,0,12
Y2-S2-281K22,7,608,AS,exp,42,→,right,→,1.2010986999957822,True,17,1,0,12
Y2-S2-281K22,7,609,AS,exp,33,←,right,→,0.8854937999858521,False,16,-1,1,13
Y2-S2-281K22,7,610,AS,exp,39,→,right,→,0.6816970999934711,True,17,-1,0,13
Y2-S2-281K22,7,611,AS,exp,28,←,left,←,1.3361012999666855,True,17,-1,0,13
Y2-S2-281K22,7,612,AS,exp,31,→,right,→,0.9870464999694377,True,17,1,1,14
Y2-S2-281K22,7,613,AS,exp,25,↑,up,↑,0.6592220999882556,True,16,1,0,14
Y2-S2-281K22,7,614,AS,exp,32,→,right,→,0.9039119999506511,True,16,1,0,14
Y2-S2-281K22,7,615,AS,exp,28,←,left,←,0.59291150001809,True,16,1,0,14
Y2-S2-281K22,7,616,AS,exp,44,↓,right,→,0.7935499000013806,False,15,-1,1,15
Y2-S2-281K22,7,617,AS,exp,39,↑,up,↑,0.7730682999826968,True,16,-1,0,15
Y2-S2-281K22,7,618,AS,exp,38,→,left,←,0.5435582000063732,False,16,-1,0,15
Y2-S2-281K22,7,619,AS,exp,48,←,left,←,0.7965798000223003,True,17,-1,0,15
Y2-S2-281K22,7,620,AS,exp,34,↓,down,↓,0.9802745999768376,True,17,-1,0,15
Y2-S2-281K22,7,621,AS,exp,40,↑,up,↑,0.47762359998887405,True,17,1,1,16
Y2-S2-281K22,8,622,PS,intra_train,31,↓,right,→,1.3706859999801964,False,10,-,-,-
Y2-S2-281K22,8,623,PS,intra_train,41,→,right,→,0.718502499978058,True,10,-,-,-
Y2-S2-281K22,8,624,PS,intra_train,46,←,left,←,0.7278955000219867,True,10,-,-,-
Y2-S2-281K22,8,625,PS,intra_train,26,↓,down,↓,0.6627158999908715,True,10,-,-,-
Y2-S2-281K22,8,626,PS,intra_train,27,→,right,→,0.5123441999894567,True,10,-,-,-
Y2-S2-281K22,8,627,PS,exp,29,←,left,←,0.5432725999853574,True,7,0,0,0
Y2-S2-281K22,8,628,PS,exp,43,↑,up,↑,0.8456285999855027,True,7,0,0,0
Y2-S2-281K22,8,629,PS,exp,25,↓,no_key,no_letter,-1.0,False,7,-1,0,0
Y2-S2-281K22,8,630,PS,exp,26,↑,right,→,0.7844969000434503,False,8,-1,0,0
Y2-S2-281K22,8,631,PS,exp,34,→,right,→,0.5869545000023209,True,9,-1,0,0
Y2-S2-281K22,8,632,PS,exp,41,↓,down,↓,0.6650293999700807,True,9,-1,0,0
Y2-S2-281K22,8,633,PS,exp,25,→,right,→,0.612738800002262,True,9,1,1,1
Y2-S2-281K22,8,634,PS,exp,34,↑,up,↑,0.6988801999832503,True,8,1,0,1
Y2-S2-281K22,8,635,PS,exp,30,↓,left,←,0.7149267999920994,False,8,-1,1,2
Y2-S2-281K22,8,636,PS,exp,39,←,left,←,0.5116387000307441,True,9,-1,0,2
Y2-S2-281K22,8,637,PS,exp,44,→,right,→,0.5016128999995999,True,9,-1,0,2
Y2-S2-281K22,8,638,PS,exp,50,↓,left,←,0.8005193999852054,False,9,-1,0,2
Y2-S2-281K22,8,639,PS,exp,43,→,right,→,0.5064996000146493,True,10,-1,0,2
Y2-S2-281K22,8,640,PS,exp,29,↓,down,↓,0.661715499998536,True,10,-1,0,2
Y2-S2-281K22,8,641,PS,exp,47,←,left,←,0.6538909000228159,True,10,1,1,3
Y2-S2-281K22,8,642,PS,exp,46,→,left,←,0.8293397999950685,False,9,-1,1,4
Y2-S2-281K22,8,643,PS,exp,47,↓,down,↓,0.8676220999914221,True,10,-1,0,4
Y2-S2-281K22,8,644,PS,exp,50,←,left,←,0.5529643000336364,True,10,-1,0,4
Y2-S2-281K22,8,645,PS,exp,39,↑,up,↑,0.40711069997632876,True,10,1,1,5
Y2-S2-281K22,8,646,PS,exp,43,←,left,←,0.7717894000234082,True,9,1,0,5
Y2-S2-281K22,8,647,PS,exp,41,↓,up,↑,1.3710507999639958,False,9,-1,1,6
Y2-S2-281K22,8,648,PS,exp,50,←,left,←,0.6603625999996439,True,10,-1,0,6
Y2-S2-281K22,8,649,PS,exp,29,→,up,↑,0.7286541000357829,False,10,-1,0,6
Y2-S2-281K22,8,650,PS,exp,48,↑,left,←,0.5111552000162192,False,11,-1,0,6
Y2-S2-281K22,8,651,PS,exp,45,→,right,→,0.6233181999996305,True,12,-1,0,6
Y2-S2-281K22,8,652,PS,exp,47,←,left,←,0.543809599999804,True,12,-1,0,6
Y2-S2-281K22,8,653,PS,exp,44,↑,up,↑,0.8581084000179544,True,12,1,1,7
Y2-S2-281K22,8,654,PS,exp,25,↓,right,→,0.6857960000052117,False,11,-1,1,8
Y2-S2-281K22,8,655,PS,exp,35,↑,up,↑,0.504342700005509,True,12,-1,0,8
Y2-S2-281K22,8,656,PS,exp,27,→,right,→,0.6574087000335567,True,12,-1,0,8
Y2-S2-281K22,8,657,PS,exp,31,←,left,←,0.5346868999768049,True,12,1,1,9
Y2-S2-281K22,8,658,PS,exp,37,↓,down,↓,0.6902511999942362,True,11,1,0,9
Y2-S2-281K22,8,659,PS,exp,47,←,right,→,0.7126524000195786,False,11,-1,1,10
Y2-S2-281K22,8,660,PS,exp,49,→,right,→,0.46881009999196976,True,12,-1,0,10
Y2-S2-281K22,8,661,PS,exp,50,↓,right,→,0.6910662000300363,False,12,-1,0,10
Y2-S2-281K22,8,662,PS,exp,32,←,left,←,0.48023409995948896,True,13,-1,0,10
Y2-S2-281K22,8,663,PS,exp,44,↓,right,→,0.6048349000047892,False,13,-1,0,10
Y2-S2-281K22,8,664,PS,exp,25,→,left,←,0.5557983999606222,False,14,-1,0,10
Y2-S2-281K22,8,665,PS,exp,42,↑,right,→,0.5001822999911383,False,15,-1,0,10
Y2-S2-281K22,8,666,PS,exp,35,→,right,→,0.511834800010547,True,16,-1,0,10
Y2-S2-281K22,8,667,PS,exp,46,↓,down,↓,1.2062903000041842,True,16,-1,0,10
Y2-S2-281K22,8,668,PS,exp,29,→,right,→,0.4861797000048682,True,16,1,1,11
Y2-S2-281K22,8,669,PS,exp,35,←,left,←,0.5966491000144742,True,15,1,0,11
Y2-S2-281K22,8,670,PS,exp,48,↓,down,↓,0.7541276999982074,True,15,1,0,11
Y2-S2-281K22,8,671,PS,exp,25,←,down,↓,1.2890420000185259,False,15,-1,1,12
Y2-S2-281K22,8,672,PS,exp,35,↓,left,←,0.9046388999558985,False,16,-1,0,12
Y2-S2-281K22,8,673,PS,exp,40,↑,up,↑,0.4863162999972701,True,17,-1,0,12
Y2-S2-281K22,8,674,PS,exp,40,←,left,←,0.7217196999699809,True,17,-1,0,12
Y2-S2-281K22,8,675,PS,exp,29,↑,left,←,1.1813169999513775,False,17,-1,0,12
Y2-S2-281K22,8,676,PS,exp,43,→,right,→,1.0726365000009537,True,18,-1,0,12
Y2-S2-281K22,8,677,PS,exp,37,←,left,←,0.6702669999795035,True,18,-1,0,12
Y2-S2-281K22,8,678,PS,exp,43,→,right,→,1.0101834999513812,True,18,1,1,13
Y2-S2-281K22,8,679,PS,exp,49,←,up,↑,0.8150452999980189,False,17,-1,1,14
Y2-S2-281K22,8,680,PS,exp,47,→,right,→,0.8372118000406772,True,18,-1,0,14
Y2-S2-281K22,8,681,PS,exp,41,↑,up,↑,0.5268680999870412,True,18,-1,0,14
Y2-S2-281K22,8,682,PS,exp,26,↓,down,↓,0.6308013999951072,True,18,1,1,15
Y2-S2-281K22,8,683,PS,exp,44,←,left,←,0.7006185000063851,True,17,1,0,15
Y2-S2-281K22,8,684,PS,exp,38,→,right,→,0.5391170000075363,True,17,1,0,15
Y2-S2-281K22,8,685,PS,exp,29,↑,up,↑,1.433958799985703,True,17,1,0,15
Y2-S2-281K22,8,686,PS,exp,38,↓,left,←,1.017006299982313,False,16,-1,1,16
