PART_ID,Block_no,Trial_no,Block_type,Trial_type,CSI,Stim_letter,Key_pressed,letter_choose,Rt,Corr,Stimulus Time,Level,Reversal,Revs_count
Y2-S2-081K20,1,1,PS,train,30,↓,down,↓,0.7466012998484075,True,30,-,-,-
Y2-S2-081K20,1,2,PS,train,46,→,right,→,0.5172806000337005,True,30,-,-,-
Y2-S2-081K20,1,3,PS,train,37,↑,up,↑,1.9265116001479328,True,30,-,-,-
Y2-S2-081K20,1,4,PS,train,33,←,no_key,no_letter,-1.0,False,30,-,-,-
Y2-S2-081K20,1,5,PS,train,33,↑,up,↑,0.550579599570483,True,30,-,-,-
Y2-S2-081K20,1,6,PS,train,47,↓,down,↓,0.5506528001278639,True,30,-,-,-
Y2-S2-081K20,1,7,PS,train,33,←,down,↓,0.6902545001357794,False,30,-,-,-
Y2-S2-081K20,1,8,PS,train,25,→,right,→,0.5339281000196934,True,30,-,-,-
Y2-S2-081K20,1,9,PS,train,39,←,left,←,0.6172420000657439,True,30,-,-,-
Y2-S2-081K20,1,10,PS,train,37,↓,down,↓,1.698461000341922,True,30,-,-,-
Y2-S2-081K20,2,11,AS,train,39,←,right,→,0.5011122999712825,False,45,-,-,-
Y2-S2-081K20,2,12,AS,train,28,↑,up,↑,0.6678475998342037,True,45,-,-,-
Y2-S2-081K20,2,13,AS,train,33,↓,down,↓,0.7010440998710692,True,45,-,-,-
Y2-S2-081K20,2,14,AS,train,44,→,right,→,0.8336686003021896,True,45,-,-,-
Y2-S2-081K20,2,15,AS,train,32,↑,up,↑,0.684453200083226,True,45,-,-,-
Y2-S2-081K20,2,16,AS,train,30,→,right,→,0.5009874999523163,True,45,-,-,-
Y2-S2-081K20,2,17,AS,train,37,↓,down,↓,0.8007903997786343,True,45,-,-,-
Y2-S2-081K20,2,18,AS,train,27,←,left,←,0.7007985003292561,True,45,-,-,-
Y2-S2-081K20,2,19,AS,train,39,↓,down,↓,0.5849094004370272,True,45,-,-,-
Y2-S2-081K20,2,20,AS,train,38,←,left,←,0.5175616997294128,True,45,-,-,-
Y2-S2-081K20,-,21,PS,adaptive,48,↑,up,↑,0.58397619985044,True,10,0,0,0
Y2-S2-081K20,-,22,PS,adaptive,47,↓,down,↓,0.6245107003487647,True,10,0,0,0
Y2-S2-081K20,-,23,PS,adaptive,33,↑,up,↑,0.43626790028065443,True,10,1,0,0
Y2-S2-081K20,-,24,PS,adaptive,46,↓,down,↓,0.6224489999003708,True,9,1,0,0
Y2-S2-081K20,-,25,PS,adaptive,35,↑,up,↑,0.9561684997752309,True,9,1,0,0
Y2-S2-081K20,-,26,PS,adaptive,50,→,left,←,1.2300725001841784,False,9,-1,1,1
Y2-S2-081K20,-,27,PS,adaptive,46,↓,down,↓,0.5879247998818755,True,10,-1,0,1
Y2-S2-081K20,-,28,PS,adaptive,36,→,right,→,0.6454378999769688,True,10,-1,0,1
Y2-S2-081K20,-,29,PS,adaptive,32,←,left,←,0.7843748000450432,True,10,1,1,2
Y2-S2-081K20,-,30,PS,adaptive,25,↑,up,↑,0.6618355000391603,True,9,1,0,2
Y2-S2-081K20,-,31,PS,adaptive,34,↓,down,↓,0.6014233003370464,True,9,1,0,2
Y2-S2-081K20,-,32,PS,adaptive,33,→,right,→,0.47430119989439845,True,9,1,0,2
Y2-S2-081K20,-,33,PS,adaptive,42,↑,left,←,1.0310281999409199,False,8,-1,1,3
Y2-S2-081K20,-,34,PS,adaptive,50,←,right,→,0.9382480001077056,False,9,-1,0,3
Y2-S2-081K20,-,35,PS,adaptive,46,↑,up,↑,0.676513799931854,True,10,-1,0,3
Y2-S2-081K20,-,36,PS,adaptive,27,←,left,←,0.5291758002713323,True,10,-1,0,3
Y2-S2-081K20,-,37,PS,adaptive,31,↑,up,↑,0.5416231998242438,True,10,1,1,4
Y2-S2-081K20,-,38,AS,adaptive,37,↓,down,↓,0.5425344998948276,True,20,0,0,0
Y2-S2-081K20,-,39,AS,adaptive,39,→,right,→,0.5308248996734619,True,20,0,0,0
Y2-S2-081K20,-,40,AS,adaptive,33,↑,up,↑,0.5019900002516806,True,20,1,0,0
Y2-S2-081K20,-,41,AS,adaptive,31,←,left,←,0.4507226999849081,True,19,1,0,0
Y2-S2-081K20,-,42,AS,adaptive,39,→,right,→,0.4906111997552216,True,19,1,0,0
Y2-S2-081K20,-,43,AS,adaptive,42,↓,down,↓,0.643026000354439,True,19,1,0,0
Y2-S2-081K20,-,44,AS,adaptive,45,↑,up,↑,0.6417275997810066,True,18,1,0,0
Y2-S2-081K20,-,45,AS,adaptive,48,→,right,→,0.5512828999198973,True,18,1,0,0
Y2-S2-081K20,-,46,AS,adaptive,48,←,left,←,0.5720444996841252,True,18,1,0,0
Y2-S2-081K20,-,47,AS,adaptive,44,↑,right,→,0.8512389003299177,False,17,-1,1,1
Y2-S2-081K20,-,48,AS,adaptive,39,←,right,→,0.46746370010077953,False,18,-1,0,1
Y2-S2-081K20,-,49,AS,adaptive,41,↓,down,↓,0.6314158998429775,True,19,-1,0,1
Y2-S2-081K20,-,50,AS,adaptive,38,←,left,←,0.6294161998666823,True,19,-1,0,1
Y2-S2-081K20,-,51,AS,adaptive,29,→,right,→,0.6298029003664851,True,19,1,1,2
Y2-S2-081K20,-,52,AS,adaptive,29,↑,up,↑,0.8598492001183331,True,18,1,0,2
Y2-S2-081K20,-,53,AS,adaptive,50,↓,down,↓,0.7030863002873957,True,18,1,0,2
Y2-S2-081K20,-,54,AS,adaptive,30,↑,up,↑,0.7476526997052133,True,18,1,0,2
Y2-S2-081K20,-,55,AS,adaptive,50,↓,down,↓,0.6176444999873638,True,17,1,0,2
Y2-S2-081K20,-,56,AS,adaptive,31,↑,up,↑,0.6126386001706123,True,17,1,0,2
Y2-S2-081K20,-,57,AS,adaptive,37,→,right,→,0.48493169993162155,True,17,1,0,2
Y2-S2-081K20,-,58,AS,adaptive,36,↓,down,↓,0.7795333997346461,True,16,1,0,2
Y2-S2-081K20,-,59,AS,adaptive,41,→,right,→,0.46599179971963167,True,16,1,0,2
Y2-S2-081K20,-,60,AS,adaptive,46,↑,up,↑,1.160816399846226,True,16,1,0,2
Y2-S2-081K20,-,61,AS,adaptive,40,↓,down,↓,0.643883400131017,True,15,1,0,2
Y2-S2-081K20,-,62,AS,adaptive,30,←,left,←,0.5445667998865247,True,15,1,0,2
Y2-S2-081K20,-,63,AS,adaptive,42,→,right,→,0.5738570997491479,True,15,1,0,2
Y2-S2-081K20,-,64,AS,adaptive,37,←,right,→,0.9077093997038901,False,14,-1,1,3
Y2-S2-081K20,-,65,AS,adaptive,29,→,right,→,0.5343681001104414,True,15,-1,0,3
Y2-S2-081K20,-,66,AS,adaptive,38,←,left,←,0.768720299936831,True,15,-1,0,3
Y2-S2-081K20,-,67,AS,adaptive,34,↓,down,↓,0.8059833999723196,True,15,1,1,4
Y2-S2-081K20,1,68,PS,intra_train,42,↑,up,↑,0.5255434000864625,True,13,-,-,-
Y2-S2-081K20,1,69,PS,intra_train,32,→,right,→,0.4430980999022722,True,13,-,-,-
Y2-S2-081K20,1,70,PS,intra_train,32,←,left,←,1.015317200217396,True,13,-,-,-
Y2-S2-081K20,1,71,PS,intra_train,30,↓,down,↓,0.45895199989899993,True,13,-,-,-
Y2-S2-081K20,1,72,PS,intra_train,36,↑,down,↓,0.6105739995837212,False,13,-,-,-
Y2-S2-081K20,1,73,PS,exp,25,→,left,←,0.7849137000739574,False,9,-1,0,0
Y2-S2-081K20,1,74,PS,exp,39,←,left,←,0.6295629995875061,True,10,-1,0,0
Y2-S2-081K20,1,75,PS,exp,29,→,right,→,0.5845019998960197,True,10,-1,0,0
Y2-S2-081K20,1,76,PS,exp,49,←,right,→,0.7157526998780668,False,10,-1,0,0
Y2-S2-081K20,1,77,PS,exp,48,↓,left,←,0.3175111999735236,False,11,-1,0,0
Y2-S2-081K20,1,78,PS,exp,30,←,left,←,0.5381021001376212,True,12,-1,0,0
Y2-S2-081K20,1,79,PS,exp,34,↑,up,↑,0.5435696002095938,True,12,-1,0,0
Y2-S2-081K20,1,80,PS,exp,35,↓,down,↓,0.5046449000947177,True,12,1,1,1
Y2-S2-081K20,1,81,PS,exp,34,↑,up,↑,0.4929257002659142,True,11,1,0,1
Y2-S2-081K20,1,82,PS,exp,50,↓,up,↑,0.688782500103116,False,11,-1,1,2
Y2-S2-081K20,1,83,PS,exp,46,↑,up,↑,0.6063212002627552,True,12,-1,0,2
Y2-S2-081K20,1,84,PS,exp,32,→,left,←,0.7654146999120712,False,12,-1,0,2
Y2-S2-081K20,1,85,PS,exp,41,↑,up,↑,0.5555713996291161,True,13,-1,0,2
Y2-S2-081K20,1,86,PS,exp,32,↓,down,↓,0.7112965998239815,True,13,-1,0,2
Y2-S2-081K20,1,87,PS,exp,42,←,down,↓,0.6441438002511859,False,13,-1,0,2
Y2-S2-081K20,1,88,PS,exp,50,→,right,→,0.6208361997269094,True,14,-1,0,2
Y2-S2-081K20,1,89,PS,exp,45,↑,up,↑,0.5383577002212405,True,14,-1,0,2
Y2-S2-081K20,1,90,PS,exp,27,→,left,←,0.4829103001393378,False,14,-1,0,2
Y2-S2-081K20,1,91,PS,exp,26,↓,down,↓,0.5717632998712361,True,15,-1,0,2
Y2-S2-081K20,1,92,PS,exp,25,↑,down,↓,0.6532487999647856,False,15,-1,0,2
Y2-S2-081K20,1,93,PS,exp,34,→,right,→,0.5222616996616125,True,16,-1,0,2
Y2-S2-081K20,1,94,PS,exp,46,↑,up,↑,0.6544614001177251,True,16,-1,0,2
Y2-S2-081K20,1,95,PS,exp,33,←,left,←,0.625211900100112,True,16,1,1,3
Y2-S2-081K20,1,96,PS,exp,31,↑,up,↑,0.6395140001550317,True,15,1,0,3
Y2-S2-081K20,1,97,PS,exp,33,→,right,→,0.6545945000834763,True,15,1,0,3
Y2-S2-081K20,1,98,PS,exp,29,←,left,←,0.5214703995734453,True,15,1,0,3
Y2-S2-081K20,1,99,PS,exp,43,→,right,→,0.5531485001556575,True,14,1,0,3
Y2-S2-081K20,1,100,PS,exp,38,↓,down,↓,0.5882594999857247,True,14,1,0,3
Y2-S2-081K20,1,101,PS,exp,43,↑,up,↑,0.6825473997741938,True,14,1,0,3
Y2-S2-081K20,1,102,PS,exp,49,→,right,→,0.4406089000403881,True,13,1,0,3
Y2-S2-081K20,1,103,PS,exp,42,←,left,←,0.44182669976726174,True,13,1,0,3
Y2-S2-081K20,1,104,PS,exp,32,↓,down,↓,0.5360486996360123,True,13,1,0,3
Y2-S2-081K20,1,105,PS,exp,28,←,left,←,0.4167092000134289,True,12,1,0,3
Y2-S2-081K20,1,106,PS,exp,48,↓,down,↓,0.5893870000727475,True,12,1,0,3
Y2-S2-081K20,1,107,PS,exp,45,→,right,→,0.5218713996000588,True,12,1,0,3
Y2-S2-081K20,1,108,PS,exp,39,←,left,←,0.740639999974519,True,11,1,0,3
Y2-S2-081K20,1,109,PS,exp,45,↑,up,↑,0.689868800342083,True,11,1,0,3
Y2-S2-081K20,1,110,PS,exp,25,←,left,←,0.5762213002890348,True,11,1,0,3
Y2-S2-081K20,1,111,PS,exp,45,↓,down,↓,0.5468333000317216,True,10,1,0,3
Y2-S2-081K20,1,112,PS,exp,46,→,right,→,0.5907157002948225,True,10,1,0,3
Y2-S2-081K20,1,113,PS,exp,30,←,left,←,0.5362037001177669,True,10,1,0,3
Y2-S2-081K20,1,114,PS,exp,33,→,right,→,0.5185591001063585,True,9,1,0,3
Y2-S2-081K20,1,115,PS,exp,44,←,left,←,0.5280202999711037,True,9,1,0,3
Y2-S2-081K20,1,116,PS,exp,31,→,right,→,0.44879799988120794,True,9,1,0,3
Y2-S2-081K20,1,117,PS,exp,25,←,left,←,0.6708956998772919,True,8,1,0,3
Y2-S2-081K20,1,118,PS,exp,44,→,left,←,0.59223199961707,False,8,-1,1,4
Y2-S2-081K20,1,119,PS,exp,26,←,right,→,0.6121964999474585,False,9,-1,0,4
Y2-S2-081K20,1,120,PS,exp,26,↑,left,←,0.5246003000065684,False,10,-1,0,4
Y2-S2-081K20,1,121,PS,exp,25,←,left,←,0.6641977000981569,True,11,-1,0,4
Y2-S2-081K20,1,122,PS,exp,29,→,right,→,0.6017505000345409,True,11,-1,0,4
Y2-S2-081K20,1,123,PS,exp,37,↓,down,↓,0.7004170999862254,True,11,1,1,5
Y2-S2-081K20,1,124,PS,exp,46,→,right,→,0.49700549989938736,True,10,1,0,5
Y2-S2-081K20,1,125,PS,exp,49,←,left,←,0.5300966999493539,True,10,1,0,5
Y2-S2-081K20,1,126,PS,exp,40,↑,up,↑,0.5041775000281632,True,10,1,0,5
Y2-S2-081K20,1,127,PS,exp,42,↓,up,↑,0.884572200011462,False,9,-1,1,6
Y2-S2-081K20,1,128,PS,exp,40,↑,up,↑,0.49203359987586737,True,10,-1,0,6
Y2-S2-081K20,1,129,PS,exp,50,←,right,→,0.8794486001133919,False,10,-1,0,6
Y2-S2-081K20,1,130,PS,exp,50,↓,up,↑,0.7003672998398542,False,11,-1,0,6
Y2-S2-081K20,1,131,PS,exp,37,↑,up,↑,0.5557137001305819,True,12,-1,0,6
Y2-S2-081K20,1,132,PS,exp,40,→,right,→,0.5562769002281129,True,12,-1,0,6
Y2-S2-081K20,1,133,PS,exp,29,↑,up,↑,0.7614821000024676,True,12,1,1,7
Y2-S2-081K20,1,134,PS,exp,48,←,left,←,0.6802807999774814,True,11,1,0,7
Y2-S2-081K20,1,135,PS,exp,37,↑,up,↑,0.9033559998497367,True,11,1,0,7
Y2-S2-081K20,1,136,PS,exp,35,↓,down,↓,0.6216802000999451,True,11,1,0,7
Y2-S2-081K20,1,137,PS,exp,46,↑,up,↑,0.8128154003061354,True,10,1,0,7
Y2-S2-081K20,1,138,PS,exp,27,←,left,←,0.4869165001437068,True,10,1,0,7
Y2-S2-081K20,1,139,PS,exp,38,↓,down,↓,0.6426002997905016,True,10,1,0,7
Y2-S2-081K20,1,140,PS,exp,30,←,left,←,0.4922304996289313,True,9,1,0,7
Y2-S2-081K20,1,141,PS,exp,31,→,right,→,0.5590730998665094,True,9,1,0,7
Y2-S2-081K20,1,142,PS,exp,32,←,left,←,0.5458674998953938,True,9,1,0,7
Y2-S2-081K20,1,143,PS,exp,32,↑,left,←,0.7737262002192438,False,8,-1,1,8
Y2-S2-081K20,1,144,PS,exp,49,→,right,→,0.5546160996891558,True,9,-1,0,8
Y2-S2-081K20,1,145,PS,exp,44,←,left,←,0.5600685998797417,True,9,-1,0,8
Y2-S2-081K20,1,146,PS,exp,50,→,left,←,0.6181847001425922,False,9,-1,0,8
Y2-S2-081K20,1,147,PS,exp,33,↓,down,↓,0.5214452003128827,True,10,-1,0,8
Y2-S2-081K20,1,148,PS,exp,32,←,left,←,0.6379253999330103,True,10,-1,0,8
Y2-S2-081K20,1,149,PS,exp,27,↓,down,↓,0.6288097002543509,True,10,1,1,9
Y2-S2-081K20,1,150,PS,exp,33,↑,up,↑,0.8398540001362562,True,9,1,0,9
Y2-S2-081K20,1,151,PS,exp,38,←,left,←,0.605473100207746,True,9,1,0,9
Y2-S2-081K20,1,152,PS,exp,35,↑,down,↓,0.7653741003014147,False,9,-1,1,10
Y2-S2-081K20,1,153,PS,exp,40,↓,left,←,0.6736002997495234,False,10,-1,0,10
Y2-S2-081K20,1,154,PS,exp,47,←,left,←,0.6007011001929641,True,11,-1,0,10
Y2-S2-081K20,1,155,PS,exp,43,↑,left,←,0.6512213996611536,False,11,-1,0,10
Y2-S2-081K20,1,156,PS,exp,31,↓,down,↓,0.6125960000790656,True,12,-1,0,10
Y2-S2-081K20,1,157,PS,exp,31,←,right,→,0.5885242000222206,False,12,-1,0,10
Y2-S2-081K20,1,158,PS,exp,26,↓,down,↓,0.624741000123322,True,13,-1,0,10
Y2-S2-081K20,1,159,PS,exp,49,↑,up,↑,0.7067297999747097,True,13,-1,0,10
Y2-S2-081K20,1,160,PS,exp,29,←,right,→,1.6983992997556925,False,13,-1,0,10
Y2-S2-081K20,1,161,PS,exp,28,↑,up,↑,0.6967870001681149,True,14,-1,0,10
Y2-S2-081K20,1,162,PS,exp,26,↓,down,↓,0.5808178000152111,True,14,-1,0,10
Y2-S2-081K20,1,163,PS,exp,44,→,right,→,0.537631900049746,True,14,1,1,11
Y2-S2-081K20,1,164,PS,exp,38,↓,down,↓,0.7889064000919461,True,13,1,0,11
Y2-S2-081K20,1,165,PS,exp,48,←,right,→,0.5170634998939931,False,13,-1,1,12
Y2-S2-081K20,1,166,PS,exp,33,↓,down,↓,0.5910891001112759,True,14,-1,0,12
Y2-S2-081K20,1,167,PS,exp,25,→,right,→,0.49921979987993836,True,14,-1,0,12
Y2-S2-081K20,1,168,PS,exp,50,↑,up,↑,0.631411699578166,True,14,1,1,13
Y2-S2-081K20,1,169,PS,exp,43,↓,down,↓,0.45466180006042123,True,13,1,0,13
Y2-S2-081K20,1,170,PS,exp,50,←,left,←,0.5058114998973906,True,13,1,0,13
Y2-S2-081K20,1,171,PS,exp,36,↑,up,↑,0.7245910000056028,True,13,1,0,13
Y2-S2-081K20,1,172,PS,exp,42,→,right,→,0.6294339997693896,True,12,1,0,13
Y2-S2-081K20,1,173,PS,exp,30,↓,down,↓,0.49477289989590645,True,12,1,0,13
Y2-S2-081K20,1,174,PS,exp,41,↑,up,↑,0.8507922999560833,True,12,1,0,13
Y2-S2-081K20,1,175,PS,exp,39,→,right,→,0.5414285999722779,True,11,1,0,13
Y2-S2-081K20,1,176,PS,exp,34,←,left,←,0.5878118998371065,True,11,1,0,13
Y2-S2-081K20,1,177,PS,exp,27,→,right,→,0.6968697002157569,True,11,1,0,13
Y2-S2-081K20,1,178,PS,exp,46,↑,up,↑,0.66042419988662,True,10,1,0,13
Y2-S2-081K20,1,179,PS,exp,48,←,left,←,0.6331662996672094,True,10,1,0,13
Y2-S2-081K20,1,180,PS,exp,49,→,right,→,0.6469760998152196,True,10,1,0,13
Y2-S2-081K20,1,181,PS,exp,26,↑,up,↑,0.7009676001034677,True,9,1,0,13
Y2-S2-081K20,1,182,PS,exp,43,→,right,→,0.5922924997285008,True,9,1,0,13
Y2-S2-081K20,1,183,PS,exp,44,↓,up,↑,0.6525169000960886,False,9,-1,1,14
Y2-S2-081K20,1,184,PS,exp,47,↑,up,↑,0.8870649999007583,True,10,-1,0,14
Y2-S2-081K20,1,185,PS,exp,47,↓,down,↓,0.5003598998300731,True,10,-1,0,14
Y2-S2-081K20,1,186,PS,exp,42,→,right,→,0.42450910015031695,True,10,1,1,15
Y2-S2-081K20,1,187,PS,exp,27,↓,down,↓,0.5165786002762616,True,9,1,0,15
Y2-S2-081K20,1,188,PS,exp,34,↑,up,↑,0.6951235998421907,True,9,1,0,15
Y2-S2-081K20,1,189,PS,exp,40,↓,down,↓,0.702592599671334,True,9,1,0,15
Y2-S2-081K20,1,190,PS,exp,45,→,down,↓,0.661444699857384,False,8,-1,1,16
Y2-S2-081K20,2,191,AS,intra_train,35,↑,up,↑,0.6306076999753714,True,21,-,-,-
Y2-S2-081K20,2,192,AS,intra_train,50,↓,down,↓,0.7533593000844121,True,21,-,-,-
Y2-S2-081K20,2,193,AS,intra_train,42,←,left,←,0.585428100079298,True,21,-,-,-
Y2-S2-081K20,2,194,AS,intra_train,33,↑,up,↑,0.4837731998413801,True,21,-,-,-
Y2-S2-081K20,2,195,AS,intra_train,39,→,right,→,0.6388988001272082,True,21,-,-,-
Y2-S2-081K20,2,196,AS,exp,47,↑,up,↑,0.9762687999755144,True,14,0,0,0
Y2-S2-081K20,2,197,AS,exp,39,←,left,←,0.7171163000166416,True,14,0,0,0
Y2-S2-081K20,2,198,AS,exp,35,→,up,↑,1.5634285998530686,False,14,-1,0,0
Y2-S2-081K20,2,199,AS,exp,34,↓,down,↓,0.649760200176388,True,15,-1,0,0
Y2-S2-081K20,2,200,AS,exp,44,→,right,→,0.5819234997034073,True,15,-1,0,0
Y2-S2-081K20,2,201,AS,exp,50,←,left,←,0.5104839000850916,True,15,1,1,1
Y2-S2-081K20,2,202,AS,exp,48,→,right,→,0.7479583001695573,True,14,1,0,1
Y2-S2-081K20,2,203,AS,exp,30,←,down,↓,1.0799753000028431,False,14,-1,1,2
Y2-S2-081K20,2,204,AS,exp,27,↓,down,↓,0.6258478001691401,True,15,-1,0,2
Y2-S2-081K20,2,205,AS,exp,31,←,right,→,0.4795360001735389,False,15,-1,0,2
Y2-S2-081K20,2,206,AS,exp,27,↓,down,↓,1.1495587001554668,True,16,-1,0,2
Y2-S2-081K20,2,207,AS,exp,33,→,right,→,0.6247211000882089,True,16,-1,0,2
Y2-S2-081K20,2,208,AS,exp,41,←,left,←,0.6626635999418795,True,16,1,1,3
Y2-S2-081K20,2,209,AS,exp,31,→,right,→,0.5945121999830008,True,15,1,0,3
Y2-S2-081K20,2,210,AS,exp,32,←,left,←,0.6673200000077486,True,15,1,0,3
Y2-S2-081K20,2,211,AS,exp,26,↑,up,↑,0.6211814000271261,True,15,1,0,3
Y2-S2-081K20,2,212,AS,exp,28,↓,down,↓,0.41879040002822876,True,14,1,0,3
Y2-S2-081K20,2,213,AS,exp,37,→,right,→,0.4793833000585437,True,14,1,0,3
Y2-S2-081K20,2,214,AS,exp,43,←,left,←,0.40611379966139793,True,14,1,0,3
Y2-S2-081K20,2,215,AS,exp,31,↑,right,→,0.5995682999491692,False,13,-1,1,4
Y2-S2-081K20,2,216,AS,exp,42,←,left,←,0.4500309997238219,True,14,-1,0,4
Y2-S2-081K20,2,217,AS,exp,47,↑,up,↑,0.5981303001753986,True,14,-1,0,4
Y2-S2-081K20,2,218,AS,exp,36,←,left,←,0.4716090001165867,True,14,1,1,5
Y2-S2-081K20,2,219,AS,exp,28,→,right,→,0.5332085001282394,True,13,1,0,5
Y2-S2-081K20,2,220,AS,exp,45,←,right,→,0.7569932001642883,False,13,-1,1,6
Y2-S2-081K20,2,221,AS,exp,32,↑,up,↑,0.8580800001509488,True,14,-1,0,6
Y2-S2-081K20,2,222,AS,exp,28,↓,down,↓,0.5963518000207841,True,14,-1,0,6
Y2-S2-081K20,2,223,AS,exp,37,→,left,←,0.7208278002217412,False,14,-1,0,6
Y2-S2-081K20,2,224,AS,exp,28,←,right,→,0.4855133998207748,False,15,-1,0,6
Y2-S2-081K20,2,225,AS,exp,35,→,right,→,0.663287399802357,True,16,-1,0,6
Y2-S2-081K20,2,226,AS,exp,47,←,left,←,0.5916611002758145,True,16,-1,0,6
Y2-S2-081K20,2,227,AS,exp,36,↑,right,→,0.7612445000559092,False,16,-1,0,6
Y2-S2-081K20,2,228,AS,exp,30,←,left,←,1.0462313001044095,True,17,-1,0,6
Y2-S2-081K20,2,229,AS,exp,46,→,right,→,0.5829563997685909,True,17,-1,0,6
Y2-S2-081K20,2,230,AS,exp,34,↓,up,↑,0.8535108999349177,False,17,-1,0,6
Y2-S2-081K20,2,231,AS,exp,47,→,right,→,0.8651017001830041,True,18,-1,0,6
Y2-S2-081K20,2,232,AS,exp,45,↓,left,←,0.857407100033015,False,18,-1,0,6
Y2-S2-081K20,2,233,AS,exp,41,↑,down,↓,1.598070400301367,False,19,-1,0,6
Y2-S2-081K20,2,234,AS,exp,36,↓,right,→,0.7144872997887433,False,20,-1,0,6
Y2-S2-081K20,2,235,AS,exp,32,→,right,→,0.6343422997742891,True,21,-1,0,6
Y2-S2-081K20,2,236,AS,exp,40,←,left,←,0.6868873001076281,True,21,-1,0,6
Y2-S2-081K20,2,237,AS,exp,41,↓,no_key,no_letter,-1.0,False,21,-1,0,6
Y2-S2-081K20,2,238,AS,exp,26,←,left,←,0.6923245997168124,True,22,-1,0,6
Y2-S2-081K20,2,239,AS,exp,32,↓,down,↓,1.8983219997026026,True,22,-1,0,6
Y2-S2-081K20,2,240,AS,exp,28,←,left,←,0.8377372999675572,True,22,1,1,7
Y2-S2-081K20,2,241,AS,exp,45,↓,down,↓,0.6153043997474015,True,21,1,0,7
Y2-S2-081K20,2,242,AS,exp,26,←,left,←,0.6698189000599086,True,21,1,0,7
Y2-S2-081K20,2,243,AS,exp,31,↑,down,↓,0.9245175998657942,False,21,-1,1,8
Y2-S2-081K20,2,244,AS,exp,37,←,left,←,1.0673918002285063,True,22,-1,0,8
Y2-S2-081K20,2,245,AS,exp,32,→,right,→,0.6509779002517462,True,22,-1,0,8
Y2-S2-081K20,2,246,AS,exp,30,↑,up,↑,0.744305900298059,True,22,1,1,9
Y2-S2-081K20,2,247,AS,exp,28,←,left,←,0.5756577998399734,True,21,1,0,9
Y2-S2-081K20,2,248,AS,exp,36,→,right,→,0.676739199552685,True,21,1,0,9
Y2-S2-081K20,2,249,AS,exp,37,↓,down,↓,0.9116655001416802,True,21,1,0,9
Y2-S2-081K20,2,250,AS,exp,34,←,no_key,no_letter,-1.0,False,20,-1,1,10
Y2-S2-081K20,2,251,AS,exp,30,↓,down,↓,0.654205999802798,True,21,-1,0,10
Y2-S2-081K20,2,252,AS,exp,31,←,left,←,0.5674425000324845,True,21,-1,0,10
Y2-S2-081K20,2,253,AS,exp,43,↓,down,↓,1.1817140001803637,True,21,1,1,11
Y2-S2-081K20,2,254,AS,exp,45,↑,up,↑,0.7398130996152759,True,20,1,0,11
Y2-S2-081K20,2,255,AS,exp,40,←,left,←,0.5103100999258459,True,20,1,0,11
Y2-S2-081K20,2,256,AS,exp,36,→,right,→,0.5346614997833967,True,20,1,0,11
Y2-S2-081K20,2,257,AS,exp,30,↓,down,↓,0.5954053997993469,True,19,1,0,11
Y2-S2-081K20,2,258,AS,exp,29,→,right,→,0.7824120996519923,True,19,1,0,11
Y2-S2-081K20,2,259,AS,exp,28,←,left,←,0.5005836002528667,True,19,1,0,11
Y2-S2-081K20,2,260,AS,exp,42,↑,up,↑,0.7645827000960708,True,18,1,0,11
Y2-S2-081K20,2,261,AS,exp,47,→,right,→,0.4776968997903168,True,18,1,0,11
Y2-S2-081K20,2,262,AS,exp,30,←,left,←,0.4335350003093481,True,18,1,0,11
Y2-S2-081K20,2,263,AS,exp,30,→,right,→,0.47493720008060336,True,17,1,0,11
Y2-S2-081K20,2,264,AS,exp,43,←,left,←,0.494989600032568,True,17,1,0,11
Y2-S2-081K20,2,265,AS,exp,48,↓,down,↓,0.4523088000714779,True,17,1,0,11
Y2-S2-081K20,2,266,AS,exp,50,→,right,→,0.9613995002582669,True,16,1,0,11
Y2-S2-081K20,2,267,AS,exp,41,↓,down,↓,0.6058048000559211,True,16,1,0,11
Y2-S2-081K20,2,268,AS,exp,26,←,left,←,0.4475401001982391,True,16,1,0,11
Y2-S2-081K20,2,269,AS,exp,29,→,right,→,0.4528664997778833,True,15,1,0,11
Y2-S2-081K20,2,270,AS,exp,46,←,left,←,0.46890460001304746,True,15,1,0,11
Y2-S2-081K20,2,271,AS,exp,39,→,right,→,0.7635038001462817,True,15,1,0,11
Y2-S2-081K20,2,272,AS,exp,39,↑,up,↑,0.6592327998951077,True,14,1,0,11
Y2-S2-081K20,2,273,AS,exp,27,←,left,←,0.7515981001779437,True,14,1,0,11
Y2-S2-081K20,2,274,AS,exp,47,↑,up,↑,0.7220222000032663,True,14,1,0,11
Y2-S2-081K20,2,275,AS,exp,29,←,left,←,0.4935384001582861,True,13,1,0,11
Y2-S2-081K20,2,276,AS,exp,49,↓,down,↓,0.5642982996068895,True,13,1,0,11
Y2-S2-081K20,2,277,AS,exp,39,→,right,→,0.6252978998236358,True,13,1,0,11
Y2-S2-081K20,2,278,AS,exp,39,↓,down,↓,0.5735130999237299,True,12,1,0,11
Y2-S2-081K20,2,279,AS,exp,25,→,left,←,0.653163000009954,False,12,-1,1,12
Y2-S2-081K20,2,280,AS,exp,26,↓,down,↓,0.44664719980210066,True,13,-1,0,12
Y2-S2-081K20,2,281,AS,exp,44,↑,up,↑,0.775348600000143,True,13,-1,0,12
Y2-S2-081K20,2,282,AS,exp,44,↓,up,↑,0.8746668002568185,False,13,-1,0,12
Y2-S2-081K20,2,283,AS,exp,25,←,left,←,0.5599225996993482,True,14,-1,0,12
Y2-S2-081K20,2,284,AS,exp,50,→,right,→,0.6200304003432393,True,14,-1,0,12
Y2-S2-081K20,2,285,AS,exp,35,↓,down,↓,0.5237878002226353,True,14,1,1,13
Y2-S2-081K20,2,286,AS,exp,33,↑,up,↑,0.9098038002848625,True,13,1,0,13
Y2-S2-081K20,2,287,AS,exp,49,→,up,↑,1.0561544997617602,False,13,-1,1,14
Y2-S2-081K20,2,288,AS,exp,29,←,left,←,0.5147657999768853,True,14,-1,0,14
Y2-S2-081K20,2,289,AS,exp,45,↓,right,→,0.5523744998499751,False,14,-1,0,14
Y2-S2-081K20,2,290,AS,exp,49,→,right,→,0.5278289001435041,True,15,-1,0,14
Y2-S2-081K20,2,291,AS,exp,48,←,right,→,0.47808799985796213,False,15,-1,0,14
Y2-S2-081K20,2,292,AS,exp,44,→,left,←,1.0883806003257632,False,16,-1,0,14
Y2-S2-081K20,2,293,AS,exp,47,↑,down,↓,0.6102626998908818,False,17,-1,0,14
Y2-S2-081K20,2,294,AS,exp,30,→,left,←,0.5745916999876499,False,18,-1,0,14
Y2-S2-081K20,2,295,AS,exp,40,↓,down,↓,0.9590488998219371,True,19,-1,0,14
Y2-S2-081K20,2,296,AS,exp,36,→,right,→,0.5852505997754633,True,19,-1,0,14
Y2-S2-081K20,2,297,AS,exp,28,←,left,←,0.7469019000418484,True,19,1,1,15
Y2-S2-081K20,2,298,AS,exp,25,↑,up,↑,0.7517504002898932,True,18,1,0,15
Y2-S2-081K20,2,299,AS,exp,33,→,left,←,0.6135293999686837,False,18,-1,1,16
Y2-S2-081K20,3,300,AS,intra_train,39,↑,up,↑,0.7832108000293374,True,21,-,-,-
Y2-S2-081K20,3,301,AS,intra_train,30,←,left,←,1.0142621998675168,True,21,-,-,-
Y2-S2-081K20,3,302,AS,intra_train,40,↑,up,↑,0.6214250000193715,True,21,-,-,-
Y2-S2-081K20,3,303,AS,intra_train,29,↓,down,↓,0.4667571000754833,True,21,-,-,-
Y2-S2-081K20,3,304,AS,intra_train,42,←,left,←,0.6782575999386609,True,21,-,-,-
Y2-S2-081K20,3,305,AS,exp,40,↑,up,↑,0.47446730034425855,True,14,0,0,0
Y2-S2-081K20,3,306,AS,exp,27,→,left,←,0.5828906996175647,False,14,-1,0,0
Y2-S2-081K20,3,307,AS,exp,28,↑,up,↑,0.8650508997961879,True,15,-1,0,0
Y2-S2-081K20,3,308,AS,exp,30,↓,right,→,0.7842049999162555,False,15,-1,0,0
Y2-S2-081K20,3,309,AS,exp,40,→,right,→,0.5191917000338435,True,16,-1,0,0
Y2-S2-081K20,3,310,AS,exp,27,↓,down,↓,0.6240546000190079,True,16,-1,0,0
Y2-S2-081K20,3,311,AS,exp,28,→,up,↑,0.8284311997704208,False,16,-1,0,0
Y2-S2-081K20,3,312,AS,exp,43,←,right,→,0.6275531002320349,False,17,-1,0,0
Y2-S2-081K20,3,313,AS,exp,25,↓,down,↓,0.6185723003000021,True,18,-1,0,0
Y2-S2-081K20,3,314,AS,exp,26,→,right,→,0.708097199909389,True,18,-1,0,0
Y2-S2-081K20,3,315,AS,exp,43,↓,down,↓,0.6004654001444578,True,18,1,1,1
Y2-S2-081K20,3,316,AS,exp,29,→,right,→,0.546482200268656,True,17,1,0,1
Y2-S2-081K20,3,317,AS,exp,29,↓,down,↓,0.657463800162077,True,17,1,0,1
Y2-S2-081K20,3,318,AS,exp,43,↑,up,↑,0.9153285999782383,True,17,1,0,1
Y2-S2-081K20,3,319,AS,exp,29,↓,down,↓,0.5891691003926098,True,16,1,0,1
Y2-S2-081K20,3,320,AS,exp,26,↑,no_key,no_letter,-1.0,False,16,-1,1,2
Y2-S2-081K20,3,321,AS,exp,31,←,left,←,0.5763588999398053,True,17,-1,0,2
Y2-S2-081K20,3,322,AS,exp,32,→,right,→,0.6230872999876738,True,17,-1,0,2
Y2-S2-081K20,3,323,AS,exp,49,↓,up,↑,1.388549900148064,False,17,-1,0,2
Y2-S2-081K20,3,324,AS,exp,31,→,right,→,0.6308280001394451,True,18,-1,0,2
Y2-S2-081K20,3,325,AS,exp,38,↓,down,↓,0.49600329995155334,True,18,-1,0,2
Y2-S2-081K20,3,326,AS,exp,41,←,left,←,1.1288323001936078,True,18,1,1,3
Y2-S2-081K20,3,327,AS,exp,33,→,right,→,0.5154929999262094,True,17,1,0,3
Y2-S2-081K20,3,328,AS,exp,39,↑,no_key,no_letter,-1.0,False,17,-1,1,4
Y2-S2-081K20,3,329,AS,exp,26,→,right,→,0.5488738999702036,True,18,-1,0,4
Y2-S2-081K20,3,330,AS,exp,47,←,right,→,0.6266494998708367,False,18,-1,0,4
Y2-S2-081K20,3,331,AS,exp,37,↑,left,←,0.8336346000432968,False,19,-1,0,4
Y2-S2-081K20,3,332,AS,exp,33,→,right,→,0.5363524998538196,True,20,-1,0,4
Y2-S2-081K20,3,333,AS,exp,50,↑,up,↑,0.6443087998777628,True,20,-1,0,4
Y2-S2-081K20,3,334,AS,exp,38,←,left,←,1.4148483998142183,True,20,1,1,5
Y2-S2-081K20,3,335,AS,exp,48,↑,up,↑,1.2185045001097023,True,19,1,0,5
Y2-S2-081K20,3,336,AS,exp,30,→,right,→,0.6248987996950746,True,19,1,0,5
Y2-S2-081K20,3,337,AS,exp,44,↓,down,↓,0.5498760002665222,True,19,1,0,5
Y2-S2-081K20,3,338,AS,exp,50,↑,up,↑,1.1339879999868572,True,18,1,0,5
Y2-S2-081K20,3,339,AS,exp,40,↓,up,↑,0.9546040999703109,False,18,-1,1,6
Y2-S2-081K20,3,340,AS,exp,49,↑,up,↑,0.7282748003490269,True,19,-1,0,6
Y2-S2-081K20,3,341,AS,exp,42,↓,down,↓,0.49660539999604225,True,19,-1,0,6
Y2-S2-081K20,3,342,AS,exp,33,→,right,→,0.5116945998743176,True,19,1,1,7
Y2-S2-081K20,3,343,AS,exp,27,↑,up,↑,0.4900311999954283,True,18,1,0,7
Y2-S2-081K20,3,344,AS,exp,28,→,right,→,0.718960199970752,True,18,1,0,7
Y2-S2-081K20,3,345,AS,exp,40,↓,up,↑,0.9289594003930688,False,18,-1,1,8
Y2-S2-081K20,3,346,AS,exp,43,→,right,→,0.54551039962098,True,19,-1,0,8
Y2-S2-081K20,3,347,AS,exp,26,↓,down,↓,0.7272997000254691,True,19,-1,0,8
Y2-S2-081K20,3,348,AS,exp,27,←,left,←,0.6121738003566861,True,19,1,1,9
Y2-S2-081K20,3,349,AS,exp,42,↑,up,↑,0.7356515997089446,True,18,1,0,9
Y2-S2-081K20,3,350,AS,exp,25,↓,up,↑,0.8746032998897135,False,18,-1,1,10
Y2-S2-081K20,3,351,AS,exp,37,←,up,↑,1.0262671997770667,False,19,-1,0,10
Y2-S2-081K20,3,352,AS,exp,25,→,right,→,0.5405194996856153,True,20,-1,0,10
Y2-S2-081K20,3,353,AS,exp,35,↑,up,↑,0.6352618001401424,True,20,-1,0,10
Y2-S2-081K20,3,354,AS,exp,30,↓,down,↓,0.5384929003193974,True,20,1,1,11
Y2-S2-081K20,3,355,AS,exp,42,→,right,→,1.4096018997952342,True,19,1,0,11
Y2-S2-081K20,3,356,AS,exp,46,←,left,←,0.5695131001994014,True,19,1,0,11
Y2-S2-081K20,3,357,AS,exp,48,↓,down,↓,0.6227646004408598,True,19,1,0,11
Y2-S2-081K20,3,358,AS,exp,32,→,right,→,0.6084067998453975,True,18,1,0,11
Y2-S2-081K20,3,359,AS,exp,38,↓,down,↓,0.5695859999395907,True,18,1,0,11
Y2-S2-081K20,3,360,AS,exp,45,←,no_key,no_letter,-1.0,False,18,-1,1,12
Y2-S2-081K20,3,361,AS,exp,50,↓,down,↓,0.6287928996607661,True,19,-1,0,12
Y2-S2-081K20,3,362,AS,exp,30,←,left,←,0.40049219969660044,True,19,-1,0,12
Y2-S2-081K20,3,363,AS,exp,31,↑,up,↑,0.7342727999202907,True,19,1,1,13
Y2-S2-081K20,3,364,AS,exp,35,←,left,←,0.5528036998584867,True,18,1,0,13
Y2-S2-081K20,3,365,AS,exp,26,→,right,→,0.6624070997349918,True,18,1,0,13
Y2-S2-081K20,3,366,AS,exp,44,←,left,←,0.7162636001594365,True,18,1,0,13
Y2-S2-081K20,3,367,AS,exp,44,↑,up,↑,0.6126511003822088,True,17,1,0,13
Y2-S2-081K20,3,368,AS,exp,27,→,right,→,0.6812016000039876,True,17,1,0,13
Y2-S2-081K20,3,369,AS,exp,41,←,right,→,0.7031840002164245,False,17,-1,1,14
Y2-S2-081K20,3,370,AS,exp,43,↓,down,↓,0.6743601001799107,True,18,-1,0,14
Y2-S2-081K20,3,371,AS,exp,50,→,right,→,0.5637175999581814,True,18,-1,0,14
Y2-S2-081K20,3,372,AS,exp,48,↓,right,→,0.6047032000496984,False,18,-1,0,14
Y2-S2-081K20,3,373,AS,exp,30,↑,up,↑,1.1762920999899507,True,19,-1,0,14
Y2-S2-081K20,3,374,AS,exp,29,↓,down,↓,0.6778481998480856,True,19,-1,0,14
Y2-S2-081K20,3,375,AS,exp,27,→,left,←,0.6866603000089526,False,19,-1,0,14
Y2-S2-081K20,3,376,AS,exp,36,←,left,←,0.6792933996766806,True,20,-1,0,14
Y2-S2-081K20,3,377,AS,exp,26,→,left,←,0.7819089000113308,False,20,-1,0,14
Y2-S2-081K20,3,378,AS,exp,48,↑,up,↑,0.6749224001541734,True,21,-1,0,14
Y2-S2-081K20,3,379,AS,exp,29,↓,down,↓,0.6670409003272653,True,21,-1,0,14
Y2-S2-081K20,3,380,AS,exp,34,↑,up,↑,0.7511676996946335,True,21,1,1,15
Y2-S2-081K20,3,381,AS,exp,34,←,left,←,0.5712394998408854,True,20,1,0,15
Y2-S2-081K20,3,382,AS,exp,38,↑,up,↑,0.6435365001671016,True,20,1,0,15
Y2-S2-081K20,3,383,AS,exp,26,↓,down,↓,0.5992864998988807,True,20,1,0,15
Y2-S2-081K20,3,384,AS,exp,42,↑,up,↑,0.4507152000442147,True,19,1,0,15
Y2-S2-081K20,3,385,AS,exp,31,↓,down,↓,0.8519539996050298,True,19,1,0,15
Y2-S2-081K20,3,386,AS,exp,25,→,right,→,0.568850299809128,True,19,1,0,15
Y2-S2-081K20,3,387,AS,exp,42,↓,down,↓,0.7081112000159919,True,18,1,0,15
Y2-S2-081K20,3,388,AS,exp,27,←,left,←,0.6829383997246623,True,18,1,0,15
Y2-S2-081K20,3,389,AS,exp,35,↑,up,↑,0.9035004996694624,True,18,1,0,15
Y2-S2-081K20,3,390,AS,exp,50,→,right,→,0.5681990999728441,True,17,1,0,15
Y2-S2-081K20,3,391,AS,exp,42,↓,down,↓,0.6323043997399509,True,17,1,0,15
Y2-S2-081K20,3,392,AS,exp,29,→,right,→,0.6524930000305176,True,17,1,0,15
Y2-S2-081K20,3,393,AS,exp,27,←,down,↓,0.9801582996733487,False,16,-1,1,16
Y2-S2-081K20,4,394,PS,intra_train,39,→,right,→,0.8647785000503063,True,13,-,-,-
Y2-S2-081K20,4,395,PS,intra_train,35,↑,up,↑,0.5194749999791384,True,13,-,-,-
Y2-S2-081K20,4,396,PS,intra_train,44,→,right,→,0.46393670001998544,True,13,-,-,-
Y2-S2-081K20,4,397,PS,intra_train,46,↓,up,↑,0.9062421997077763,False,13,-,-,-
Y2-S2-081K20,4,398,PS,intra_train,44,↑,up,↑,0.53492739982903,True,13,-,-,-
Y2-S2-081K20,4,399,PS,exp,46,→,right,→,0.593624500092119,True,9,0,0,0
Y2-S2-081K20,4,400,PS,exp,33,↑,left,←,0.7289749998599291,False,9,-1,0,0
Y2-S2-081K20,4,401,PS,exp,29,←,left,←,0.4689321001060307,True,10,-1,0,0
Y2-S2-081K20,4,402,PS,exp,36,↓,down,↓,0.5829493002966046,True,10,-1,0,0
Y2-S2-081K20,4,403,PS,exp,28,↑,up,↑,0.6612911000847816,True,10,1,1,1
Y2-S2-081K20,4,404,PS,exp,48,←,left,←,0.48716440005227923,True,9,1,0,1
Y2-S2-081K20,4,405,PS,exp,45,↑,up,↑,0.656568200327456,True,9,1,0,1
Y2-S2-081K20,4,406,PS,exp,35,↓,left,←,0.6563297999091446,False,9,-1,1,2
Y2-S2-081K20,4,407,PS,exp,49,→,left,←,0.5972660998813808,False,10,-1,0,2
Y2-S2-081K20,4,408,PS,exp,41,↓,left,←,0.8393876003101468,False,11,-1,0,2
Y2-S2-081K20,4,409,PS,exp,37,→,left,←,0.5196265000849962,False,12,-1,0,2
Y2-S2-081K20,4,410,PS,exp,25,↑,left,←,0.5849586999975145,False,13,-1,0,2
Y2-S2-081K20,4,411,PS,exp,43,→,right,→,0.5960546000860631,True,14,-1,0,2
Y2-S2-081K20,4,412,PS,exp,44,←,left,←,0.7495994996279478,True,14,-1,0,2
Y2-S2-081K20,4,413,PS,exp,43,→,right,→,0.6366635002195835,True,14,1,1,3
Y2-S2-081K20,4,414,PS,exp,50,↓,down,↓,1.0277851996943355,True,13,1,0,3
Y2-S2-081K20,4,415,PS,exp,31,←,left,←,0.5314360000193119,True,13,1,0,3
Y2-S2-081K20,4,416,PS,exp,41,→,right,→,0.6606475999578834,True,13,1,0,3
Y2-S2-081K20,4,417,PS,exp,32,↑,right,→,0.7149403002113104,False,12,-1,1,4
Y2-S2-081K20,4,418,PS,exp,32,←,right,→,0.5823530000634491,False,13,-1,0,4
Y2-S2-081K20,4,419,PS,exp,38,↑,up,↑,0.6389299998991191,True,14,-1,0,4
Y2-S2-081K20,4,420,PS,exp,26,←,left,←,0.5098815001547337,True,14,-1,0,4
Y2-S2-081K20,4,421,PS,exp,39,→,right,→,0.7079273001290858,True,14,1,1,5
Y2-S2-081K20,4,422,PS,exp,25,↓,down,↓,0.7552298996597528,True,13,1,0,5
Y2-S2-081K20,4,423,PS,exp,32,→,right,→,0.6829332001507282,True,13,1,0,5
Y2-S2-081K20,4,424,PS,exp,38,←,left,←,0.4741839002817869,True,13,1,0,5
Y2-S2-081K20,4,425,PS,exp,33,↓,right,→,0.920643599703908,False,12,-1,1,6
Y2-S2-081K20,4,426,PS,exp,33,←,left,←,0.45700709987431765,True,13,-1,0,6
Y2-S2-081K20,4,427,PS,exp,25,↑,right,→,0.6045043999329209,False,13,-1,0,6
Y2-S2-081K20,4,428,PS,exp,41,→,right,→,0.48237539967522025,True,14,-1,0,6
Y2-S2-081K20,4,429,PS,exp,31,←,left,←,0.5335992001928389,True,14,-1,0,6
Y2-S2-081K20,4,430,PS,exp,41,↑,up,↑,0.7116920999251306,True,14,1,1,7
Y2-S2-081K20,4,431,PS,exp,46,→,right,→,0.5407006000168622,True,13,1,0,7
Y2-S2-081K20,4,432,PS,exp,47,↓,up,↑,0.6181737999431789,False,13,-1,1,8
Y2-S2-081K20,4,433,PS,exp,27,↑,up,↑,0.49824560014531016,True,14,-1,0,8
Y2-S2-081K20,4,434,PS,exp,38,↓,down,↓,0.5319904000498354,True,14,-1,0,8
Y2-S2-081K20,4,435,PS,exp,33,↑,up,↑,0.6212655999697745,True,14,1,1,9
Y2-S2-081K20,4,436,PS,exp,49,→,right,→,0.6142732002772391,True,13,1,0,9
Y2-S2-081K20,4,437,PS,exp,44,←,left,←,0.4504145001992583,True,13,1,0,9
Y2-S2-081K20,4,438,PS,exp,49,→,right,→,0.4618641999550164,True,13,1,0,9
Y2-S2-081K20,4,439,PS,exp,39,←,right,→,0.4627902000211179,False,12,-1,1,10
Y2-S2-081K20,4,440,PS,exp,30,↑,up,↑,0.7039433000609279,True,13,-1,0,10
Y2-S2-081K20,4,441,PS,exp,40,→,left,←,0.6662079999223351,False,13,-1,0,10
Y2-S2-081K20,4,442,PS,exp,43,↑,up,↑,0.5901633002795279,True,14,-1,0,10
Y2-S2-081K20,4,443,PS,exp,41,←,left,←,0.4741460997611284,True,14,-1,0,10
Y2-S2-081K20,4,444,PS,exp,28,→,right,→,0.6773176998831332,True,14,1,1,11
Y2-S2-081K20,4,445,PS,exp,43,↓,down,↓,0.5798709001392126,True,13,1,0,11
Y2-S2-081K20,4,446,PS,exp,47,↑,right,→,0.5091987000778317,False,13,-1,1,12
Y2-S2-081K20,4,447,PS,exp,29,←,left,←,0.43922389997169375,True,14,-1,0,12
Y2-S2-081K20,4,448,PS,exp,40,→,right,→,0.42587839998304844,True,14,-1,0,12
Y2-S2-081K20,4,449,PS,exp,30,←,right,→,0.7403621003031731,False,14,-1,0,12
Y2-S2-081K20,4,450,PS,exp,39,↑,up,↑,0.594431099947542,True,15,-1,0,12
Y2-S2-081K20,4,451,PS,exp,33,↓,down,↓,0.5128846000880003,True,15,-1,0,12
Y2-S2-081K20,4,452,PS,exp,40,→,right,→,0.45968890003859997,True,15,1,1,13
Y2-S2-081K20,4,453,PS,exp,30,↑,up,↑,0.4770543002523482,True,14,1,0,13
Y2-S2-081K20,4,454,PS,exp,37,↓,right,→,0.6524363998323679,False,14,-1,1,14
Y2-S2-081K20,4,455,PS,exp,43,↑,up,↑,0.8591156001202762,True,15,-1,0,14
Y2-S2-081K20,4,456,PS,exp,43,↓,down,↓,0.5950994999147952,True,15,-1,0,14
Y2-S2-081K20,4,457,PS,exp,45,→,right,→,0.6606473000720143,True,15,1,1,15
Y2-S2-081K20,4,458,PS,exp,34,↑,up,↑,0.4899993999861181,True,14,1,0,15
Y2-S2-081K20,4,459,PS,exp,47,→,right,→,0.47739689983427525,True,14,1,0,15
Y2-S2-081K20,4,460,PS,exp,33,←,left,←,0.7125321002677083,True,14,1,0,15
Y2-S2-081K20,4,461,PS,exp,26,↓,up,↑,0.5501707000657916,False,13,-1,1,16
Y2-S2-081K20,5,462,PS,intra_train,46,→,right,→,0.8424427998252213,True,13,-,-,-
Y2-S2-081K20,5,463,PS,intra_train,40,↓,down,↓,0.45589570002630353,True,13,-,-,-
Y2-S2-081K20,5,464,PS,intra_train,25,←,left,←,0.4672529003582895,True,13,-,-,-
Y2-S2-081K20,5,465,PS,intra_train,43,→,right,→,0.5108693996444345,True,13,-,-,-
Y2-S2-081K20,5,466,PS,intra_train,45,↑,up,↑,0.607551499735564,True,13,-,-,-
Y2-S2-081K20,5,467,PS,exp,32,←,left,←,0.4765141997486353,True,9,0,0,0
Y2-S2-081K20,5,468,PS,exp,29,→,right,→,0.5010140999220312,True,9,0,0,0
Y2-S2-081K20,5,469,PS,exp,38,↓,left,←,0.5763236000202596,False,9,-1,0,0
Y2-S2-081K20,5,470,PS,exp,41,→,right,→,0.5570029001682997,True,10,-1,0,0
Y2-S2-081K20,5,471,PS,exp,30,↓,down,↓,0.6039710999466479,True,10,-1,0,0
Y2-S2-081K20,5,472,PS,exp,37,→,right,→,0.5993574000895023,True,10,1,1,1
Y2-S2-081K20,5,473,PS,exp,36,↓,left,←,0.5289927995763719,False,9,-1,1,2
Y2-S2-081K20,5,474,PS,exp,45,←,left,←,0.6237773001194,True,10,-1,0,2
Y2-S2-081K20,5,475,PS,exp,25,→,left,←,0.5639165001921356,False,10,-1,0,2
Y2-S2-081K20,5,476,PS,exp,47,↓,down,↓,0.431823099963367,True,11,-1,0,2
Y2-S2-081K20,5,477,PS,exp,43,←,left,←,0.5957806999795139,True,11,-1,0,2
Y2-S2-081K20,5,478,PS,exp,27,↑,left,←,0.6267558000981808,False,11,-1,0,2
Y2-S2-081K20,5,479,PS,exp,37,↓,down,↓,0.5415592002682388,True,12,-1,0,2
Y2-S2-081K20,5,480,PS,exp,49,↑,up,↑,0.6299935998395085,True,12,-1,0,2
Y2-S2-081K20,5,481,PS,exp,38,→,left,←,0.5628239000216126,False,12,-1,0,2
Y2-S2-081K20,5,482,PS,exp,27,←,left,←,0.5130682000890374,True,13,-1,0,2
Y2-S2-081K20,5,483,PS,exp,37,→,right,→,0.5698731001466513,True,13,-1,0,2
Y2-S2-081K20,5,484,PS,exp,38,↑,up,↑,0.793228100053966,True,13,1,1,3
Y2-S2-081K20,5,485,PS,exp,35,←,left,←,0.6582467998377979,True,12,1,0,3
Y2-S2-081K20,5,486,PS,exp,39,↑,up,↑,0.7067964999005198,True,12,1,0,3
Y2-S2-081K20,5,487,PS,exp,41,→,right,→,0.4683997998945415,True,12,1,0,3
Y2-S2-081K20,5,488,PS,exp,26,↑,up,↑,0.6727303001098335,True,11,1,0,3
Y2-S2-081K20,5,489,PS,exp,32,←,left,←,0.4286863999441266,True,11,1,0,3
Y2-S2-081K20,5,490,PS,exp,46,↑,left,←,0.48905180022120476,False,11,-1,1,4
Y2-S2-081K20,5,491,PS,exp,41,←,left,←,0.6517528002150357,True,12,-1,0,4
Y2-S2-081K20,5,492,PS,exp,31,↑,right,→,0.89254380017519,False,12,-1,0,4
Y2-S2-081K20,5,493,PS,exp,35,←,left,←,0.5101633998565376,True,13,-1,0,4
Y2-S2-081K20,5,494,PS,exp,50,→,right,→,0.5634296997450292,True,13,-1,0,4
Y2-S2-081K20,5,495,PS,exp,44,←,left,←,0.7817267002537847,True,13,1,1,5
Y2-S2-081K20,5,496,PS,exp,38,↓,down,↓,0.6428585997782648,True,12,1,0,5
Y2-S2-081K20,5,497,PS,exp,42,←,left,←,0.45855090022087097,True,12,1,0,5
Y2-S2-081K20,5,498,PS,exp,33,→,left,←,0.8204958997666836,False,12,-1,1,6
Y2-S2-081K20,5,499,PS,exp,29,←,left,←,0.5289222998544574,True,13,-1,0,6
Y2-S2-081K20,5,500,PS,exp,35,↑,up,↑,0.7470626002177596,True,13,-1,0,6
Y2-S2-081K20,5,501,PS,exp,42,←,left,←,0.478277999907732,True,13,1,1,7
Y2-S2-081K20,5,502,PS,exp,25,↑,left,←,0.6337749999947846,False,12,-1,1,8
Y2-S2-081K20,5,503,PS,exp,32,↓,down,↓,0.5098808999173343,True,13,-1,0,8
Y2-S2-081K20,5,504,PS,exp,44,→,right,→,0.5682760002091527,True,13,-1,0,8
Y2-S2-081K20,5,505,PS,exp,28,↑,up,↑,0.5635168999433517,True,13,1,1,9
Y2-S2-081K20,5,506,PS,exp,26,→,right,→,0.44991949992254376,True,12,1,0,9
Y2-S2-081K20,5,507,PS,exp,28,↑,up,↑,0.5221327999606729,True,12,1,0,9
Y2-S2-081K20,5,508,PS,exp,42,←,left,←,0.4079100997187197,True,12,1,0,9
Y2-S2-081K20,5,509,PS,exp,44,→,right,→,0.5004735002294183,True,11,1,0,9
Y2-S2-081K20,5,510,PS,exp,33,←,down,↓,0.5657971003092825,False,11,-1,1,10
Y2-S2-081K20,5,511,PS,exp,38,↓,down,↓,0.4404430999420583,True,12,-1,0,10
Y2-S2-081K20,5,512,PS,exp,35,←,left,←,0.45578529965132475,True,12,-1,0,10
Y2-S2-081K20,5,513,PS,exp,32,→,right,→,0.6004118998534977,True,12,1,1,11
Y2-S2-081K20,5,514,PS,exp,50,←,down,↓,0.6238040002062917,False,11,-1,1,12
Y2-S2-081K20,5,515,PS,exp,32,→,right,→,0.5408805999904871,True,12,-1,0,12
Y2-S2-081K20,5,516,PS,exp,45,↓,right,→,0.7807672997005284,False,12,-1,0,12
Y2-S2-081K20,5,517,PS,exp,42,→,right,→,0.6241342001594603,True,13,-1,0,12
Y2-S2-081K20,5,518,PS,exp,41,←,left,←,0.7498719999566674,True,13,-1,0,12
Y2-S2-081K20,5,519,PS,exp,35,↓,down,↓,0.4014883995987475,True,13,1,1,13
Y2-S2-081K20,5,520,PS,exp,34,→,down,↓,0.7550840000621974,False,12,-1,1,14
Y2-S2-081K20,5,521,PS,exp,46,←,left,←,0.5497416998259723,True,13,-1,0,14
Y2-S2-081K20,5,522,PS,exp,43,→,right,→,0.6121889003552496,True,13,-1,0,14
Y2-S2-081K20,5,523,PS,exp,44,↑,right,→,0.7175259003415704,False,13,-1,0,14
Y2-S2-081K20,5,524,PS,exp,44,↓,down,↓,0.4894373998977244,True,14,-1,0,14
Y2-S2-081K20,5,525,PS,exp,35,←,left,←,0.45409819995984435,True,14,-1,0,14
Y2-S2-081K20,5,526,PS,exp,32,↓,down,↓,0.8008221997879446,True,14,1,1,15
Y2-S2-081K20,5,527,PS,exp,36,↑,up,↑,0.8031792002730072,True,13,1,0,15
Y2-S2-081K20,5,528,PS,exp,42,→,right,→,0.5727915000170469,True,13,1,0,15
Y2-S2-081K20,5,529,PS,exp,45,↓,down,↓,0.6394115001894534,True,13,1,0,15
Y2-S2-081K20,5,530,PS,exp,48,←,right,→,0.7824420002289116,False,12,-1,1,16
Y2-S2-081K20,6,531,AS,intra_train,42,↑,up,↑,0.6506696003489196,True,21,-,-,-
Y2-S2-081K20,6,532,AS,intra_train,40,←,left,←,0.753131799865514,True,21,-,-,-
Y2-S2-081K20,6,533,AS,intra_train,26,↑,up,↑,0.767178500071168,True,21,-,-,-
Y2-S2-081K20,6,534,AS,intra_train,33,←,left,←,0.633222300093621,True,21,-,-,-
Y2-S2-081K20,6,535,AS,intra_train,44,↑,up,↑,0.7033553998917341,True,21,-,-,-
Y2-S2-081K20,6,536,AS,exp,31,→,left,←,0.4912650999613106,False,14,-1,0,0
Y2-S2-081K20,6,537,AS,exp,44,↓,down,↓,0.6063337000086904,True,15,-1,0,0
Y2-S2-081K20,6,538,AS,exp,41,←,left,←,0.6536306999623775,True,15,-1,0,0
Y2-S2-081K20,6,539,AS,exp,30,→,right,→,0.776191100012511,True,15,1,1,1
Y2-S2-081K20,6,540,AS,exp,32,←,left,←,0.5820452999323606,True,14,1,0,1
Y2-S2-081K20,6,541,AS,exp,29,↓,down,↓,0.5471672997809947,True,14,1,0,1
Y2-S2-081K20,6,542,AS,exp,38,→,right,→,0.4706262997351587,True,14,1,0,1
Y2-S2-081K20,6,543,AS,exp,35,←,left,←,0.47256589960306883,True,13,1,0,1
Y2-S2-081K20,6,544,AS,exp,48,↓,down,↓,0.4545215996913612,True,13,1,0,1
Y2-S2-081K20,6,545,AS,exp,27,↑,up,↑,0.6407665000297129,True,13,1,0,1
Y2-S2-081K20,6,546,AS,exp,43,→,up,↑,1.0803449000231922,False,12,-1,1,2
Y2-S2-081K20,6,547,AS,exp,45,↓,down,↓,0.5465079001151025,True,13,-1,0,2
Y2-S2-081K20,6,548,AS,exp,43,←,left,←,0.8413228001445532,True,13,-1,0,2
Y2-S2-081K20,6,549,AS,exp,28,↑,up,↑,0.7530174003913999,True,13,1,1,3
Y2-S2-081K20,6,550,AS,exp,26,→,right,→,0.7092653000727296,True,12,1,0,3
Y2-S2-081K20,6,551,AS,exp,26,↑,up,↑,0.7909992001950741,True,12,1,0,3
Y2-S2-081K20,6,552,AS,exp,27,←,up,↑,0.7488671997562051,False,12,-1,1,4
Y2-S2-081K20,6,553,AS,exp,30,↑,up,↑,0.8865478001534939,True,13,-1,0,4
Y2-S2-081K20,6,554,AS,exp,29,↓,up,↑,0.7096410002559423,False,13,-1,0,4
Y2-S2-081K20,6,555,AS,exp,26,→,right,→,0.46675340039655566,True,14,-1,0,4
Y2-S2-081K20,6,556,AS,exp,26,←,right,→,0.5630719000473619,False,14,-1,0,4
Y2-S2-081K20,6,557,AS,exp,29,↑,up,↑,0.7828945000655949,True,15,-1,0,4
Y2-S2-081K20,6,558,AS,exp,35,←,left,←,0.7138441996648908,True,15,-1,0,4
Y2-S2-081K20,6,559,AS,exp,28,↓,down,↓,0.5213572001084685,True,15,1,1,5
Y2-S2-081K20,6,560,AS,exp,48,→,down,↓,0.6252741003409028,False,14,-1,1,6
Y2-S2-081K20,6,561,AS,exp,30,←,left,←,0.6176514998078346,True,15,-1,0,6
Y2-S2-081K20,6,562,AS,exp,48,↓,down,↓,0.4522655997425318,True,15,-1,0,6
Y2-S2-081K20,6,563,AS,exp,26,→,right,→,0.49140350008383393,True,15,1,1,7
Y2-S2-081K20,6,564,AS,exp,45,↑,down,↓,0.5974439000710845,False,14,-1,1,8
Y2-S2-081K20,6,565,AS,exp,39,↓,down,↓,0.6104741003364325,True,15,-1,0,8
Y2-S2-081K20,6,566,AS,exp,39,←,left,←,0.7484352001920342,True,15,-1,0,8
Y2-S2-081K20,6,567,AS,exp,31,→,right,→,0.45890389988198876,True,15,1,1,9
Y2-S2-081K20,6,568,AS,exp,40,←,left,←,0.5691965003497899,True,14,1,0,9
Y2-S2-081K20,6,569,AS,exp,38,↑,up,↑,0.7530113998800516,True,14,1,0,9
Y2-S2-081K20,6,570,AS,exp,44,→,left,←,0.9031981001608074,False,14,-1,1,10
Y2-S2-081K20,6,571,AS,exp,48,←,left,←,0.5935344998724759,True,15,-1,0,10
Y2-S2-081K20,6,572,AS,exp,39,↓,down,↓,0.5310595999471843,True,15,-1,0,10
Y2-S2-081K20,6,573,AS,exp,42,↑,up,↑,0.7812247001565993,True,15,1,1,11
Y2-S2-081K20,6,574,AS,exp,34,↓,down,↓,0.7439212999306619,True,14,1,0,11
Y2-S2-081K20,6,575,AS,exp,31,↑,up,↑,0.7451692996546626,True,14,1,0,11
Y2-S2-081K20,6,576,AS,exp,43,←,left,←,0.686461600009352,True,14,1,0,11
Y2-S2-081K20,6,577,AS,exp,38,↑,up,↑,0.5939817000180483,True,13,1,0,11
Y2-S2-081K20,6,578,AS,exp,25,→,left,←,0.7172449002973735,False,13,-1,1,12
Y2-S2-081K20,6,579,AS,exp,44,←,left,←,0.4809069000184536,True,14,-1,0,12
Y2-S2-081K20,6,580,AS,exp,27,→,right,→,0.539682799950242,True,14,-1,0,12
Y2-S2-081K20,6,581,AS,exp,30,↑,up,↑,0.6860324996523559,True,14,1,1,13
Y2-S2-081K20,6,582,AS,exp,35,↓,up,↑,0.7874943003989756,False,13,-1,1,14
Y2-S2-081K20,6,583,AS,exp,40,↑,down,↓,0.7342884000390768,False,14,-1,0,14
Y2-S2-081K20,6,584,AS,exp,35,←,left,←,0.4757034997455776,True,15,-1,0,14
Y2-S2-081K20,6,585,AS,exp,34,→,right,→,0.6452352995984256,True,15,-1,0,14
Y2-S2-081K20,6,586,AS,exp,44,↓,up,↑,0.7411624998785555,False,15,-1,0,14
Y2-S2-081K20,6,587,AS,exp,33,→,right,→,0.5615542000159621,True,16,-1,0,14
Y2-S2-081K20,6,588,AS,exp,40,↓,down,↓,0.5321132000535727,True,16,-1,0,14
Y2-S2-081K20,6,589,AS,exp,46,→,right,→,0.475893700029701,True,16,1,1,15
Y2-S2-081K20,6,590,AS,exp,32,←,left,←,0.5690049999393523,True,15,1,0,15
Y2-S2-081K20,6,591,AS,exp,50,→,right,→,0.6058526001870632,True,15,1,0,15
Y2-S2-081K20,6,592,AS,exp,46,↓,down,↓,0.4681259002536535,True,15,1,0,15
Y2-S2-081K20,6,593,AS,exp,38,←,left,←,0.5750428000465035,True,14,1,0,15
Y2-S2-081K20,6,594,AS,exp,46,↓,down,↓,0.5569084999151528,True,14,1,0,15
Y2-S2-081K20,6,595,AS,exp,39,↑,down,↓,0.5389932999387383,False,14,-1,1,16
Y2-S2-081K20,7,596,AS,intra_train,39,←,left,←,0.46740940026938915,True,21,-,-,-
Y2-S2-081K20,7,597,AS,intra_train,32,→,right,→,0.6190622001886368,True,21,-,-,-
Y2-S2-081K20,7,598,AS,intra_train,26,←,left,←,1.4985412997193635,True,21,-,-,-
Y2-S2-081K20,7,599,AS,intra_train,40,↓,down,↓,0.4835493001155555,True,21,-,-,-
Y2-S2-081K20,7,600,AS,intra_train,35,→,left,←,0.5389550998806953,False,21,-,-,-
Y2-S2-081K20,7,601,AS,exp,45,↑,down,↓,0.5457719997502863,False,14,-1,0,0
Y2-S2-081K20,7,602,AS,exp,46,←,left,←,0.620745100080967,True,15,-1,0,0
Y2-S2-081K20,7,603,AS,exp,49,↓,down,↓,0.5431627999059856,True,15,-1,0,0
Y2-S2-081K20,7,604,AS,exp,39,→,right,→,0.5387504999525845,True,15,1,1,1
Y2-S2-081K20,7,605,AS,exp,50,↑,down,↓,1.2300873999483883,False,14,-1,1,2
Y2-S2-081K20,7,606,AS,exp,25,↓,down,↓,0.47222229978069663,True,15,-1,0,2
Y2-S2-081K20,7,607,AS,exp,34,←,right,→,0.5460571995936334,False,15,-1,0,2
Y2-S2-081K20,7,608,AS,exp,45,↓,down,↓,0.5595615999773145,True,16,-1,0,2
Y2-S2-081K20,7,609,AS,exp,32,←,left,←,1.1518076001666486,True,16,-1,0,2
Y2-S2-081K20,7,610,AS,exp,50,↓,down,↓,1.4637108999304473,True,16,1,1,3
Y2-S2-081K20,7,611,AS,exp,30,→,right,→,0.5487101003527641,True,15,1,0,3
Y2-S2-081K20,7,612,AS,exp,33,←,left,←,0.6258833999745548,True,15,1,0,3
Y2-S2-081K20,7,613,AS,exp,31,↑,up,↑,0.7040186002850533,True,15,1,0,3
Y2-S2-081K20,7,614,AS,exp,42,←,left,←,0.5085629997774959,True,14,1,0,3
Y2-S2-081K20,7,615,AS,exp,26,→,left,←,0.7625458003021777,False,14,-1,1,4
Y2-S2-081K20,7,616,AS,exp,26,↑,up,↑,0.6190296998247504,True,15,-1,0,4
Y2-S2-081K20,7,617,AS,exp,45,↓,up,↑,0.7587526999413967,False,15,-1,0,4
Y2-S2-081K20,7,618,AS,exp,36,↑,up,↑,0.6031150999478996,True,16,-1,0,4
Y2-S2-081K20,7,619,AS,exp,45,←,left,←,0.6516963997855783,True,16,-1,0,4
Y2-S2-081K20,7,620,AS,exp,38,→,right,→,0.5291581000201404,True,16,1,1,5
Y2-S2-081K20,7,621,AS,exp,33,↑,up,↑,0.6626273998990655,True,15,1,0,5
Y2-S2-081K20,7,622,AS,exp,36,→,left,←,0.6775950998999178,False,15,-1,1,6
Y2-S2-081K20,7,623,AS,exp,46,↓,down,↓,0.46262829983606935,True,16,-1,0,6
Y2-S2-081K20,7,624,AS,exp,50,→,right,→,0.659506700001657,True,16,-1,0,6
Y2-S2-081K20,7,625,AS,exp,39,↑,down,↓,0.5498375999741256,False,16,-1,0,6
Y2-S2-081K20,7,626,AS,exp,39,↓,up,↑,0.684336599893868,False,17,-1,0,6
Y2-S2-081K20,7,627,AS,exp,25,→,right,→,0.5846072998829186,True,18,-1,0,6
Y2-S2-081K20,7,628,AS,exp,33,↑,up,↑,0.6057893000543118,True,18,-1,0,6
Y2-S2-081K20,7,629,AS,exp,29,←,left,←,0.41690220031887293,True,18,1,1,7
Y2-S2-081K20,7,630,AS,exp,30,↓,down,↓,0.6467789998278022,True,17,1,0,7
Y2-S2-081K20,7,631,AS,exp,27,→,right,→,0.6027210997417569,True,17,1,0,7
Y2-S2-081K20,7,632,AS,exp,37,↓,down,↓,0.47091569984331727,True,17,1,0,7
Y2-S2-081K20,7,633,AS,exp,31,→,right,→,0.44952689995989203,True,16,1,0,7
Y2-S2-081K20,7,634,AS,exp,50,↓,up,↑,0.6493685999885201,False,16,-1,1,8
Y2-S2-081K20,7,635,AS,exp,40,↑,down,↓,0.4512296998873353,False,17,-1,0,8
Y2-S2-081K20,7,636,AS,exp,42,↓,down,↓,0.48024559998884797,True,18,-1,0,8
Y2-S2-081K20,7,637,AS,exp,44,↑,up,↑,0.6975416000932455,True,18,-1,0,8
Y2-S2-081K20,7,638,AS,exp,33,←,left,←,0.4761194000020623,True,18,1,1,9
Y2-S2-081K20,7,639,AS,exp,37,↓,up,↑,0.5399767002090812,False,17,-1,1,10
Y2-S2-081K20,7,640,AS,exp,37,→,right,→,0.5017047002911568,True,18,-1,0,10
Y2-S2-081K20,7,641,AS,exp,45,↑,up,↑,0.6213494003750384,True,18,-1,0,10
Y2-S2-081K20,7,642,AS,exp,36,→,right,→,1.0461838999763131,True,18,1,1,11
Y2-S2-081K20,7,643,AS,exp,43,↓,down,↓,0.7480701999738812,True,17,1,0,11
Y2-S2-081K20,7,644,AS,exp,46,→,right,→,0.47088770009577274,True,17,1,0,11
Y2-S2-081K20,7,645,AS,exp,28,↓,down,↓,1.0467496998608112,True,17,1,0,11
Y2-S2-081K20,7,646,AS,exp,27,↑,up,↑,0.6253232001326978,True,16,1,0,11
Y2-S2-081K20,7,647,AS,exp,29,↓,up,↑,0.6205791998654604,False,16,-1,1,12
Y2-S2-081K20,7,648,AS,exp,28,↑,up,↑,0.6707534999586642,True,17,-1,0,12
Y2-S2-081K20,7,649,AS,exp,27,←,up,↑,0.8238836000673473,False,17,-1,0,12
Y2-S2-081K20,7,650,AS,exp,30,↑,up,↑,0.5685897003859282,True,18,-1,0,12
Y2-S2-081K20,7,651,AS,exp,44,→,right,→,0.4928961000405252,True,18,-1,0,12
Y2-S2-081K20,7,652,AS,exp,35,↓,down,↓,0.6739242002367973,True,18,1,1,13
Y2-S2-081K20,7,653,AS,exp,33,↑,up,↑,0.7174643999896944,True,17,1,0,13
Y2-S2-081K20,7,654,AS,exp,36,→,right,→,0.6050777998752892,True,17,1,0,13
Y2-S2-081K20,7,655,AS,exp,42,↑,up,↑,0.7835573996417224,True,17,1,0,13
Y2-S2-081K20,7,656,AS,exp,35,↓,down,↓,0.5371614997275174,True,16,1,0,13
Y2-S2-081K20,7,657,AS,exp,38,↑,up,↑,0.6835612999275327,True,16,1,0,13
Y2-S2-081K20,7,658,AS,exp,43,←,right,→,0.5415233001112938,False,16,-1,1,14
Y2-S2-081K20,7,659,AS,exp,48,↓,right,→,0.7907870002090931,False,17,-1,0,14
Y2-S2-081K20,7,660,AS,exp,39,→,right,→,0.6773765999823809,True,18,-1,0,14
Y2-S2-081K20,7,661,AS,exp,49,↑,up,↑,0.6771498001180589,True,18,-1,0,14
Y2-S2-081K20,7,662,AS,exp,43,←,left,←,0.5245694001205266,True,18,1,1,15
Y2-S2-081K20,7,663,AS,exp,30,↑,right,→,0.7663284000009298,False,17,-1,1,16
Y2-S2-081K20,8,664,PS,intra_train,48,→,right,→,1.2995553999207914,True,13,-,-,-
Y2-S2-081K20,8,665,PS,intra_train,43,←,left,←,0.48734959959983826,True,13,-,-,-
Y2-S2-081K20,8,666,PS,intra_train,46,→,right,→,0.5206423997879028,True,13,-,-,-
Y2-S2-081K20,8,667,PS,intra_train,44,↓,down,↓,0.5667070001363754,True,13,-,-,-
Y2-S2-081K20,8,668,PS,intra_train,29,↑,right,→,0.5551238004118204,False,13,-,-,-
Y2-S2-081K20,8,669,PS,exp,47,↓,down,↓,0.5927532999776304,True,9,0,0,0
Y2-S2-081K20,8,670,PS,exp,44,→,down,↓,0.6676914999261498,False,9,-1,0,0
Y2-S2-081K20,8,671,PS,exp,33,↑,up,↑,0.5187853998504579,True,10,-1,0,0
Y2-S2-081K20,8,672,PS,exp,44,↓,down,↓,0.4681104999035597,True,10,-1,0,0
Y2-S2-081K20,8,673,PS,exp,43,←,left,←,0.5229649995453656,True,10,1,1,1
Y2-S2-081K20,8,674,PS,exp,39,↑,up,↑,0.5969481999054551,True,9,1,0,1
Y2-S2-081K20,8,675,PS,exp,44,→,right,→,0.6493908003903925,True,9,1,0,1
Y2-S2-081K20,8,676,PS,exp,26,←,left,←,0.5055895997211337,True,9,1,0,1
Y2-S2-081K20,8,677,PS,exp,41,→,right,→,0.4804151002317667,True,8,1,0,1
Y2-S2-081K20,8,678,PS,exp,49,↓,down,↓,0.43931009992957115,True,8,1,0,1
Y2-S2-081K20,8,679,PS,exp,45,→,right,→,0.608007499948144,True,8,1,0,1
Y2-S2-081K20,8,680,PS,exp,48,↓,down,↓,0.4837290998548269,True,7,1,0,1
Y2-S2-081K20,8,681,PS,exp,43,↑,up,↑,0.5249923001974821,True,7,1,0,1
Y2-S2-081K20,8,682,PS,exp,34,→,right,→,0.476592100225389,True,7,1,0,1
Y2-S2-081K20,8,683,PS,exp,48,↑,left,←,0.6188487997278571,False,6,-1,1,2
Y2-S2-081K20,8,684,PS,exp,41,←,left,←,0.42434069979935884,True,7,-1,0,2
Y2-S2-081K20,8,685,PS,exp,39,↓,right,→,0.5682902997359633,False,7,-1,0,2
Y2-S2-081K20,8,686,PS,exp,33,↑,down,↓,0.5997784999199212,False,8,-1,0,2
Y2-S2-081K20,8,687,PS,exp,26,→,right,→,0.8663473995402455,True,9,-1,0,2
Y2-S2-081K20,8,688,PS,exp,34,↓,left,←,1.6412733998149633,False,9,-1,0,2
Y2-S2-081K20,8,689,PS,exp,46,↑,up,↑,0.630912700202316,True,10,-1,0,2
Y2-S2-081K20,8,690,PS,exp,44,↓,up,↑,0.7528101000934839,False,10,-1,0,2
Y2-S2-081K20,8,691,PS,exp,39,↑,right,→,0.544919699896127,False,11,-1,0,2
Y2-S2-081K20,8,692,PS,exp,47,→,right,→,0.5489115999080241,True,12,-1,0,2
Y2-S2-081K20,8,693,PS,exp,32,←,right,→,0.8195388996973634,False,12,-1,0,2
Y2-S2-081K20,8,694,PS,exp,42,↑,up,↑,0.7383759999647737,True,13,-1,0,2
Y2-S2-081K20,8,695,PS,exp,46,↓,down,↓,0.5334878000430763,True,13,-1,0,2
Y2-S2-081K20,8,696,PS,exp,35,←,left,←,0.4928359999321401,True,13,1,1,3
Y2-S2-081K20,8,697,PS,exp,35,→,right,→,0.5512171997688711,True,12,1,0,3
Y2-S2-081K20,8,698,PS,exp,26,←,left,←,0.5210783001966774,True,12,1,0,3
Y2-S2-081K20,8,699,PS,exp,44,↓,right,→,0.6820640997029841,False,12,-1,1,4
Y2-S2-081K20,8,700,PS,exp,44,→,right,→,0.6357042002491653,True,13,-1,0,4
Y2-S2-081K20,8,701,PS,exp,29,↓,down,↓,0.559536499902606,True,13,-1,0,4
Y2-S2-081K20,8,702,PS,exp,35,←,left,←,0.539727299939841,True,13,1,1,5
Y2-S2-081K20,8,703,PS,exp,48,→,left,←,0.8287794003263116,False,12,-1,1,6
Y2-S2-081K20,8,704,PS,exp,45,↓,down,↓,0.5394989997148514,True,13,-1,0,6
Y2-S2-081K20,8,705,PS,exp,38,↑,down,↓,0.5720962001942098,False,13,-1,0,6
Y2-S2-081K20,8,706,PS,exp,38,→,right,→,0.6786914002150297,True,14,-1,0,6
Y2-S2-081K20,8,707,PS,exp,49,↑,up,↑,0.6768273999914527,True,14,-1,0,6
Y2-S2-081K20,8,708,PS,exp,30,↓,down,↓,0.4774476997554302,True,14,1,1,7
Y2-S2-081K20,8,709,PS,exp,36,↑,left,←,0.8765715002082288,False,13,-1,1,8
Y2-S2-081K20,8,710,PS,exp,39,→,right,→,0.5403839997015893,True,14,-1,0,8
Y2-S2-081K20,8,711,PS,exp,28,↓,down,↓,0.45410870015621185,True,14,-1,0,8
Y2-S2-081K20,8,712,PS,exp,40,→,right,→,0.5269542001187801,True,14,1,1,9
Y2-S2-081K20,8,713,PS,exp,32,↓,down,↓,0.6786121996119618,True,13,1,0,9
Y2-S2-081K20,8,714,PS,exp,38,→,right,→,0.6139450003392994,True,13,1,0,9
Y2-S2-081K20,8,715,PS,exp,37,↑,left,←,0.6677696998231113,False,13,-1,1,10
Y2-S2-081K20,8,716,PS,exp,47,←,right,→,0.6969276000745595,False,14,-1,0,10
Y2-S2-081K20,8,717,PS,exp,34,→,right,→,0.5569537999108434,True,15,-1,0,10
Y2-S2-081K20,8,718,PS,exp,27,↑,up,↑,0.7676722998730838,True,15,-1,0,10
Y2-S2-081K20,8,719,PS,exp,32,←,right,→,0.8354453998617828,False,15,-1,0,10
Y2-S2-081K20,8,720,PS,exp,34,↓,down,↓,0.634527700021863,True,16,-1,0,10
Y2-S2-081K20,8,721,PS,exp,48,↑,up,↑,0.6952879996970296,True,16,-1,0,10
Y2-S2-081K20,8,722,PS,exp,28,↓,right,→,0.8355078999884427,False,16,-1,0,10
Y2-S2-081K20,8,723,PS,exp,44,→,right,→,0.6863491996191442,True,17,-1,0,10
Y2-S2-081K20,8,724,PS,exp,39,←,left,←,0.4592398996464908,True,17,-1,0,10
Y2-S2-081K20,8,725,PS,exp,45,↓,down,↓,0.644142400007695,True,17,1,1,11
Y2-S2-081K20,8,726,PS,exp,41,←,left,←,0.5069675999693573,True,16,1,0,11
Y2-S2-081K20,8,727,PS,exp,46,↓,left,←,0.8173324000090361,False,16,-1,1,12
Y2-S2-081K20,8,728,PS,exp,45,←,left,←,0.7034189999103546,True,17,-1,0,12
Y2-S2-081K20,8,729,PS,exp,43,→,right,→,0.5947256996296346,True,17,-1,0,12
Y2-S2-081K20,8,730,PS,exp,27,↑,down,↓,0.659682999830693,False,17,-1,0,12
Y2-S2-081K20,8,731,PS,exp,46,↓,down,↓,0.5906663001514971,True,18,-1,0,12
Y2-S2-081K20,8,732,PS,exp,50,↑,up,↑,0.5662990999408066,True,18,-1,0,12
Y2-S2-081K20,8,733,PS,exp,43,→,right,→,0.5771865998394787,True,18,1,1,13
Y2-S2-081K20,8,734,PS,exp,44,↓,down,↓,0.49897850025445223,True,17,1,0,13
Y2-S2-081K20,8,735,PS,exp,37,←,left,←,0.6478552999906242,True,17,1,0,13
Y2-S2-081K20,8,736,PS,exp,28,↓,down,↓,0.5649395999498665,True,17,1,0,13
Y2-S2-081K20,8,737,PS,exp,35,↑,right,→,0.7183864000253379,False,16,-1,1,14
Y2-S2-081K20,8,738,PS,exp,32,↓,down,↓,0.6008544000796974,True,17,-1,0,14
Y2-S2-081K20,8,739,PS,exp,35,↑,up,↑,0.6005752002820373,True,17,-1,0,14
Y2-S2-081K20,8,740,PS,exp,45,→,right,→,0.4577438998967409,True,17,1,1,15
Y2-S2-081K20,8,741,PS,exp,28,←,right,→,0.5518666999414563,False,16,-1,1,16
