PART_ID,Block_no,Trial_no,Block_type,Trial_type,CSI,Stim_letter,Key_pressed,letter_choose,Rt,Corr,Stimulus Time,Level,Reversal,Revs_count
Y2-S2-101K19,1,1,PS,train,47,→,right,→,1.586047899996629,True,30,-,-,-
Y2-S2-101K19,1,2,PS,train,49,↑,up,↑,0.6004403999831993,True,30,-,-,-
Y2-S2-101K19,1,3,PS,train,26,←,left,←,0.7538041000079829,True,30,-,-,-
Y2-S2-101K19,1,4,PS,train,45,↑,up,↑,0.5669679999991786,True,30,-,-,-
Y2-S2-101K19,1,5,PS,train,38,↓,down,↓,0.6978686000220478,True,30,-,-,-
Y2-S2-101K19,1,6,PS,train,34,←,left,←,0.5172143000236247,True,30,-,-,-
Y2-S2-101K19,1,7,PS,train,26,↓,down,↓,2.0383978000027128,True,30,-,-,-
Y2-S2-101K19,1,8,PS,train,50,↑,up,↑,0.6693360999925062,True,30,-,-,-
Y2-S2-101K19,1,9,PS,train,31,↓,down,↓,0.779376599995885,True,30,-,-,-
Y2-S2-101K19,1,10,PS,train,30,→,no_key,no_letter,-1.0,False,30,-,-,-
Y2-S2-101K19,2,11,AS,train,50,↓,down,↓,0.6008156999887433,True,45,-,-,-
Y2-S2-101K19,2,12,AS,train,30,→,right,→,0.6010999999998603,True,45,-,-,-
Y2-S2-101K19,2,13,AS,train,31,←,left,←,0.8174182999937329,True,45,-,-,-
Y2-S2-101K19,2,14,AS,train,26,↑,up,↑,0.8839853999961633,True,45,-,-,-
Y2-S2-101K19,2,15,AS,train,26,←,left,←,0.8005364999989979,True,45,-,-,-
Y2-S2-101K19,2,16,AS,train,38,↓,down,↓,0.8007034999900497,True,45,-,-,-
Y2-S2-101K19,2,17,AS,train,48,←,left,←,0.7175977999868337,True,45,-,-,-
Y2-S2-101K19,2,18,AS,train,30,↓,down,↓,0.6344116999825928,True,45,-,-,-
Y2-S2-101K19,2,19,AS,train,42,←,left,←,0.5843404000042938,True,45,-,-,-
Y2-S2-101K19,2,20,AS,train,44,→,right,→,0.6340941999806091,True,45,-,-,-
Y2-S2-101K19,-,21,PS,adaptive,35,←,right,→,1.1873093000031076,False,10,-1,0,0
Y2-S2-101K19,-,22,PS,adaptive,37,→,right,→,0.7219443999929354,True,11,-1,0,0
Y2-S2-101K19,-,23,PS,adaptive,39,←,left,←,0.6187517000071239,True,11,-1,0,0
Y2-S2-101K19,-,24,PS,adaptive,30,↑,up,↑,0.8993615999934264,True,11,1,1,1
Y2-S2-101K19,-,25,PS,adaptive,36,→,right,→,0.5765095999813639,True,10,1,0,1
Y2-S2-101K19,-,26,PS,adaptive,37,↓,left,←,0.787590399995679,False,10,-1,1,2
Y2-S2-101K19,-,27,PS,adaptive,28,↑,up,↑,0.8264221000135876,True,11,-1,0,2
Y2-S2-101K19,-,28,PS,adaptive,28,→,right,→,1.0934585999930277,True,11,-1,0,2
Y2-S2-101K19,-,29,PS,adaptive,47,↓,down,↓,0.6190403000218794,True,11,1,1,3
Y2-S2-101K19,-,30,PS,adaptive,43,→,right,→,0.5627264999784529,True,10,1,0,3
Y2-S2-101K19,-,31,PS,adaptive,32,←,left,←,0.5595698999823071,True,10,1,0,3
Y2-S2-101K19,-,32,PS,adaptive,38,→,right,→,0.4880474000237882,True,10,1,0,3
Y2-S2-101K19,-,33,PS,adaptive,39,↑,up,↑,0.9572517000196967,True,9,1,0,3
Y2-S2-101K19,-,34,PS,adaptive,32,↓,right,→,1.0523523000010755,False,9,-1,1,4
Y2-S2-101K19,-,35,AS,adaptive,39,→,right,→,0.609471100004157,True,20,0,0,0
Y2-S2-101K19,-,36,AS,adaptive,44,←,left,←,0.7045270999951754,True,20,0,0,0
Y2-S2-101K19,-,37,AS,adaptive,43,↓,down,↓,0.7172782999987248,True,20,1,0,0
Y2-S2-101K19,-,38,AS,adaptive,31,↑,up,↑,0.6346400000038557,True,19,1,0,0
Y2-S2-101K19,-,39,AS,adaptive,47,←,right,→,0.6857901999901515,False,19,-1,1,1
Y2-S2-101K19,-,40,AS,adaptive,29,→,right,→,0.5442028000252321,True,20,-1,0,1
Y2-S2-101K19,-,41,AS,adaptive,27,↑,up,↑,0.6055268000054639,True,20,-1,0,1
Y2-S2-101K19,-,42,AS,adaptive,42,↓,down,↓,0.6794640000152867,True,20,1,1,2
Y2-S2-101K19,-,43,AS,adaptive,43,↑,up,↑,0.5622725000139326,True,19,1,0,2
Y2-S2-101K19,-,44,AS,adaptive,45,→,right,→,0.5369980999967083,True,19,1,0,2
Y2-S2-101K19,-,45,AS,adaptive,38,←,left,←,0.637808400002541,True,19,1,0,2
Y2-S2-101K19,-,46,AS,adaptive,42,↓,down,↓,0.5944605999975465,True,18,1,0,2
Y2-S2-101K19,-,47,AS,adaptive,32,→,right,→,0.5355611999984831,True,18,1,0,2
Y2-S2-101K19,-,48,AS,adaptive,37,↑,up,↑,0.62968230000115,True,18,1,0,2
Y2-S2-101K19,-,49,AS,adaptive,45,→,right,→,0.562217700004112,True,17,1,0,2
Y2-S2-101K19,-,50,AS,adaptive,50,←,left,←,0.9696907000034116,True,17,1,0,2
Y2-S2-101K19,-,51,AS,adaptive,30,↓,down,↓,0.6821136999933515,True,17,1,0,2
Y2-S2-101K19,-,52,AS,adaptive,32,→,right,→,0.6008631000004243,True,16,1,0,2
Y2-S2-101K19,-,53,AS,adaptive,32,←,left,←,0.6423177999968175,True,16,1,0,2
Y2-S2-101K19,-,54,AS,adaptive,41,↓,down,↓,0.617114099994069,True,16,1,0,2
Y2-S2-101K19,-,55,AS,adaptive,50,←,left,←,0.6093399999954272,True,15,1,0,2
Y2-S2-101K19,-,56,AS,adaptive,41,→,right,→,0.5928076000127476,True,15,1,0,2
Y2-S2-101K19,-,57,AS,adaptive,44,↑,up,↑,0.49563879999914207,True,15,1,0,2
Y2-S2-101K19,-,58,AS,adaptive,43,←,left,←,0.6614273000159301,True,14,1,0,2
Y2-S2-101K19,-,59,AS,adaptive,29,↑,up,↑,0.6626739999919664,True,14,1,0,2
Y2-S2-101K19,-,60,AS,adaptive,36,←,left,←,0.6730305000091903,True,14,1,0,2
Y2-S2-101K19,-,61,AS,adaptive,50,→,right,→,0.9975239000050351,True,13,1,0,2
Y2-S2-101K19,-,62,AS,adaptive,39,↓,down,↓,0.6847453000082169,True,13,1,0,2
Y2-S2-101K19,-,63,AS,adaptive,47,←,left,←,0.6850630999833811,True,13,1,0,2
Y2-S2-101K19,-,64,AS,adaptive,46,↓,down,↓,0.6845161999808624,True,12,1,0,2
Y2-S2-101K19,-,65,AS,adaptive,32,↑,up,↑,0.6960782000096515,True,12,1,0,2
Y2-S2-101K19,-,66,AS,adaptive,48,→,right,→,0.5995345000119414,True,12,1,0,2
Y2-S2-101K19,-,67,AS,adaptive,44,↓,down,↓,0.5814843999978621,True,11,1,0,2
Y2-S2-101K19,-,68,AS,adaptive,41,→,right,→,0.5326270000077784,True,11,1,0,2
Y2-S2-101K19,-,69,AS,adaptive,31,↓,up,↑,0.6793143000104465,False,11,-1,1,3
Y2-S2-101K19,-,70,AS,adaptive,30,←,left,←,0.5582898999855388,True,12,-1,0,3
Y2-S2-101K19,-,71,AS,adaptive,39,→,right,→,0.5129811999795493,True,12,-1,0,3
Y2-S2-101K19,-,72,AS,adaptive,46,←,left,←,0.6620441999984905,True,12,1,1,4
Y2-S2-101K19,1,73,PS,intra_train,39,→,right,→,0.502945100015495,True,15,-,-,-
Y2-S2-101K19,1,74,PS,intra_train,40,↑,up,↑,0.6123774999869056,True,15,-,-,-
Y2-S2-101K19,1,75,PS,intra_train,50,←,left,←,0.4771164999983739,True,15,-,-,-
Y2-S2-101K19,1,76,PS,intra_train,41,↓,down,↓,0.5937608999956865,True,15,-,-,-
Y2-S2-101K19,1,77,PS,intra_train,29,↑,up,↑,0.6286100000143051,True,15,-,-,-
Y2-S2-101K19,1,78,PS,exp,29,←,left,←,0.6233685000042897,True,10,0,0,0
Y2-S2-101K19,1,79,PS,exp,46,↑,up,↑,1.1310836999909952,True,10,0,0,0
Y2-S2-101K19,1,80,PS,exp,32,←,right,→,0.635917999985395,False,10,-1,0,0
Y2-S2-101K19,1,81,PS,exp,32,↓,down,↓,1.3029860999959055,True,11,-1,0,0
Y2-S2-101K19,1,82,PS,exp,35,→,right,→,0.6115655000030529,True,11,-1,0,0
Y2-S2-101K19,1,83,PS,exp,42,←,right,→,0.8080557000066619,False,11,-1,0,0
Y2-S2-101K19,1,84,PS,exp,46,↑,up,↑,0.8559063999855425,True,12,-1,0,0
Y2-S2-101K19,1,85,PS,exp,45,→,right,→,0.599627599993255,True,12,-1,0,0
Y2-S2-101K19,1,86,PS,exp,32,↑,up,↑,0.7529890000005253,True,12,1,1,1
Y2-S2-101K19,1,87,PS,exp,31,→,right,→,0.5670667999947909,True,11,1,0,1
Y2-S2-101K19,1,88,PS,exp,39,↑,up,↑,0.6952634000044782,True,11,1,0,1
Y2-S2-101K19,1,89,PS,exp,46,←,left,←,0.6136489999771584,True,11,1,0,1
Y2-S2-101K19,1,90,PS,exp,42,→,right,→,0.6815203999867663,True,10,1,0,1
Y2-S2-101K19,1,91,PS,exp,48,←,left,←,0.7928094000089914,True,10,1,0,1
Y2-S2-101K19,1,92,PS,exp,50,↓,down,↓,0.7036682000034489,True,10,1,0,1
Y2-S2-101K19,1,93,PS,exp,43,↑,left,←,0.7371940999873914,False,9,-1,1,2
Y2-S2-101K19,1,94,PS,exp,35,→,right,→,0.554156400001375,True,10,-1,0,2
Y2-S2-101K19,1,95,PS,exp,37,↓,down,↓,1.0242903000034858,True,10,-1,0,2
Y2-S2-101K19,1,96,PS,exp,31,↑,down,↓,1.5435155999730341,False,10,-1,0,2
Y2-S2-101K19,1,97,PS,exp,27,↓,left,←,1.139333600003738,False,11,-1,0,2
Y2-S2-101K19,1,98,PS,exp,50,←,left,←,0.6380837000033353,True,12,-1,0,2
Y2-S2-101K19,1,99,PS,exp,27,→,right,→,0.6338987000053748,True,12,-1,0,2
Y2-S2-101K19,1,100,PS,exp,33,↑,left,←,0.8051383999991231,False,12,-1,0,2
Y2-S2-101K19,1,101,PS,exp,34,→,right,→,0.5781484000035562,True,13,-1,0,2
Y2-S2-101K19,1,102,PS,exp,27,↓,down,↓,0.6959405000088736,True,13,-1,0,2
Y2-S2-101K19,1,103,PS,exp,26,→,right,→,0.6618815999827348,True,13,1,1,3
Y2-S2-101K19,1,104,PS,exp,25,↓,down,↓,0.6364636000071187,True,12,1,0,3
Y2-S2-101K19,1,105,PS,exp,42,←,left,←,0.9840756999910809,True,12,1,0,3
Y2-S2-101K19,1,106,PS,exp,27,→,right,→,0.6516201999911573,True,12,1,0,3
Y2-S2-101K19,1,107,PS,exp,27,↓,down,↓,0.7754773999913596,True,11,1,0,3
Y2-S2-101K19,1,108,PS,exp,50,↑,down,↓,1.0301977999915835,False,11,-1,1,4
Y2-S2-101K19,1,109,PS,exp,39,→,right,→,0.7597054000070784,True,12,-1,0,4
Y2-S2-101K19,1,110,PS,exp,37,←,left,←,0.7986441999964882,True,12,-1,0,4
Y2-S2-101K19,1,111,PS,exp,36,↑,down,↓,0.8970267999975476,False,12,-1,0,4
Y2-S2-101K19,1,112,PS,exp,28,←,left,←,0.9197521999885794,True,13,-1,0,4
Y2-S2-101K19,1,113,PS,exp,43,↑,no_key,no_letter,-1.0,False,13,-1,0,4
Y2-S2-101K19,1,114,PS,exp,50,↓,down,↓,0.7254666000080761,True,14,-1,0,4
Y2-S2-101K19,1,115,PS,exp,49,→,right,→,0.5305765999946743,True,14,-1,0,4
Y2-S2-101K19,1,116,PS,exp,37,↓,down,↓,0.6101541000243742,True,14,1,1,5
Y2-S2-101K19,1,117,PS,exp,38,↑,left,←,0.9923397999955341,False,13,-1,1,6
Y2-S2-101K19,1,118,PS,exp,47,←,left,←,0.6361429000098724,True,14,-1,0,6
Y2-S2-101K19,1,119,PS,exp,42,→,right,→,0.5565730000089388,True,14,-1,0,6
Y2-S2-101K19,1,120,PS,exp,45,↑,up,↑,0.6119223000132479,True,14,1,1,7
Y2-S2-101K19,1,121,PS,exp,45,→,right,→,0.5928272000164725,True,13,1,0,7
Y2-S2-101K19,1,122,PS,exp,36,←,left,←,0.5854730999853928,True,13,1,0,7
Y2-S2-101K19,1,123,PS,exp,44,↑,down,↓,0.7708472000085749,False,13,-1,1,8
Y2-S2-101K19,1,124,PS,exp,42,←,left,←,0.690551100007724,True,14,-1,0,8
Y2-S2-101K19,1,125,PS,exp,49,↑,down,↓,1.1306133999896701,False,14,-1,0,8
Y2-S2-101K19,1,126,PS,exp,28,→,right,→,0.5826393000024837,True,15,-1,0,8
Y2-S2-101K19,1,127,PS,exp,37,←,left,←,0.6382171000004746,True,15,-1,0,8
Y2-S2-101K19,1,128,PS,exp,37,↑,up,↑,0.9724806000012904,True,15,1,1,9
Y2-S2-101K19,1,129,PS,exp,47,↓,down,↓,1.7312873999762814,True,14,1,0,9
Y2-S2-101K19,1,130,PS,exp,25,↑,up,↑,0.916963499999838,True,14,1,0,9
Y2-S2-101K19,1,131,PS,exp,27,↓,down,↓,0.6473496000107843,True,14,1,0,9
Y2-S2-101K19,1,132,PS,exp,48,←,left,←,0.5103668999799993,True,13,1,0,9
Y2-S2-101K19,1,133,PS,exp,44,→,right,→,0.572428299987223,True,13,1,0,9
Y2-S2-101K19,1,134,PS,exp,33,↓,right,→,1.0216762000054587,False,13,-1,1,10
Y2-S2-101K19,1,135,PS,exp,28,←,left,←,0.5966855000006035,True,14,-1,0,10
Y2-S2-101K19,1,136,PS,exp,34,↑,up,↑,0.6784507999836933,True,14,-1,0,10
Y2-S2-101K19,1,137,PS,exp,46,←,left,←,0.4999649999954272,True,14,1,1,11
Y2-S2-101K19,1,138,PS,exp,35,↑,up,↑,0.7904404999862891,True,13,1,0,11
Y2-S2-101K19,1,139,PS,exp,50,←,left,←,0.5319928000099026,True,13,1,0,11
Y2-S2-101K19,1,140,PS,exp,47,→,right,→,0.6040443000092637,True,13,1,0,11
Y2-S2-101K19,1,141,PS,exp,46,←,left,←,0.9617545999935828,True,12,1,0,11
Y2-S2-101K19,1,142,PS,exp,33,→,right,→,0.5096185999864247,True,12,1,0,11
Y2-S2-101K19,1,143,PS,exp,30,←,left,←,0.5533075999992434,True,12,1,0,11
Y2-S2-101K19,1,144,PS,exp,25,→,right,→,0.4862334000063129,True,11,1,0,11
Y2-S2-101K19,1,145,PS,exp,37,↑,up,↑,0.598887600004673,True,11,1,0,11
Y2-S2-101K19,1,146,PS,exp,25,↓,down,↓,0.6495566999947187,True,11,1,0,11
Y2-S2-101K19,1,147,PS,exp,25,→,right,→,0.5115719999885187,True,10,1,0,11
Y2-S2-101K19,1,148,PS,exp,36,←,left,←,0.54331639999873,True,10,1,0,11
Y2-S2-101K19,1,149,PS,exp,28,↓,down,↓,0.7188712000206579,True,10,1,0,11
Y2-S2-101K19,1,150,PS,exp,25,←,left,←,0.5432500000169966,True,9,1,0,11
Y2-S2-101K19,1,151,PS,exp,27,→,right,→,0.5289733999816235,True,9,1,0,11
Y2-S2-101K19,1,152,PS,exp,50,↑,up,↑,0.8890077999967616,True,9,1,0,11
Y2-S2-101K19,1,153,PS,exp,38,←,left,←,0.5584120000130497,True,8,1,0,11
Y2-S2-101K19,1,154,PS,exp,36,↓,right,→,1.1129222000017762,False,8,-1,1,12
Y2-S2-101K19,1,155,PS,exp,27,↑,up,↑,0.6740618000039831,True,9,-1,0,12
Y2-S2-101K19,1,156,PS,exp,41,↓,down,↓,0.9782399999967311,True,9,-1,0,12
Y2-S2-101K19,1,157,PS,exp,26,↑,up,↑,0.7485860000015236,True,9,1,1,13
Y2-S2-101K19,1,158,PS,exp,46,→,right,→,1.5366238999995403,True,8,1,0,13
Y2-S2-101K19,1,159,PS,exp,25,↑,left,←,0.7971871000190731,False,8,-1,1,14
Y2-S2-101K19,1,160,PS,exp,44,←,left,←,0.8769816000130959,True,9,-1,0,14
Y2-S2-101K19,1,161,PS,exp,43,↑,up,↑,0.734304899990093,True,9,-1,0,14
Y2-S2-101K19,1,162,PS,exp,26,←,left,←,0.5848356999922544,True,9,1,1,15
Y2-S2-101K19,1,163,PS,exp,31,→,right,→,0.8697959999844898,True,8,1,0,15
Y2-S2-101K19,1,164,PS,exp,32,↓,left,←,0.7569088999880478,False,8,-1,1,16
Y2-S2-101K19,2,165,AS,intra_train,48,→,right,→,0.6682066000066698,True,16,-,-,-
Y2-S2-101K19,2,166,AS,intra_train,43,←,left,←,0.8878052000072785,True,16,-,-,-
Y2-S2-101K19,2,167,AS,intra_train,49,→,right,→,0.6278189000149723,True,16,-,-,-
Y2-S2-101K19,2,168,AS,intra_train,50,↓,down,↓,0.826221399998758,True,16,-,-,-
Y2-S2-101K19,2,169,AS,intra_train,39,→,right,→,0.5776298000128008,True,16,-,-,-
Y2-S2-101K19,2,170,AS,exp,27,↓,down,↓,0.8042370999755803,True,11,0,0,0
Y2-S2-101K19,2,171,AS,exp,29,↑,up,↑,0.5904538000177126,True,11,0,0,0
Y2-S2-101K19,2,172,AS,exp,47,←,left,←,0.6247787999745924,True,11,1,0,0
Y2-S2-101K19,2,173,AS,exp,32,→,right,→,0.658903499977896,True,10,1,0,0
Y2-S2-101K19,2,174,AS,exp,49,↑,up,↑,0.7772093999956269,True,10,1,0,0
Y2-S2-101K19,2,175,AS,exp,40,←,right,→,0.6243739999772515,False,10,-1,1,1
Y2-S2-101K19,2,176,AS,exp,44,↑,up,↑,0.6606510000128765,True,11,-1,0,1
Y2-S2-101K19,2,177,AS,exp,44,→,right,→,0.6450273999944329,True,11,-1,0,1
Y2-S2-101K19,2,178,AS,exp,33,←,right,→,0.6936424000014085,False,11,-1,0,1
Y2-S2-101K19,2,179,AS,exp,38,↑,up,↑,0.5746979000105057,True,12,-1,0,1
Y2-S2-101K19,2,180,AS,exp,26,←,right,→,0.5943485000170767,False,12,-1,0,1
Y2-S2-101K19,2,181,AS,exp,32,↑,down,↓,1.011836099991342,False,13,-1,0,1
Y2-S2-101K19,2,182,AS,exp,37,↓,down,↓,1.8401063999917824,True,14,-1,0,1
Y2-S2-101K19,2,183,AS,exp,29,↑,up,↑,0.7013067999796476,True,14,-1,0,1
Y2-S2-101K19,2,184,AS,exp,31,←,left,←,0.6297373999841511,True,14,1,1,2
Y2-S2-101K19,2,185,AS,exp,31,→,right,→,0.5240188000025228,True,13,1,0,2
Y2-S2-101K19,2,186,AS,exp,43,↓,down,↓,0.6455740999954287,True,13,1,0,2
Y2-S2-101K19,2,187,AS,exp,48,↑,up,↑,0.8332539000257384,True,13,1,0,2
Y2-S2-101K19,2,188,AS,exp,47,←,right,→,0.7323733000084758,False,12,-1,1,3
Y2-S2-101K19,2,189,AS,exp,48,→,right,→,0.6562054000096396,True,13,-1,0,3
Y2-S2-101K19,2,190,AS,exp,25,←,left,←,0.7582865000003949,True,13,-1,0,3
Y2-S2-101K19,2,191,AS,exp,50,→,right,→,0.6271559000015259,True,13,1,1,4
Y2-S2-101K19,2,192,AS,exp,44,↑,up,↑,1.0054474999778904,True,12,1,0,4
Y2-S2-101K19,2,193,AS,exp,33,→,right,→,0.5771688999957405,True,12,1,0,4
Y2-S2-101K19,2,194,AS,exp,29,↓,down,↓,1.193904100015061,True,12,1,0,4
Y2-S2-101K19,2,195,AS,exp,45,→,right,→,1.026784099987708,True,11,1,0,4
Y2-S2-101K19,2,196,AS,exp,40,↑,up,↑,0.8130370000144467,True,11,1,0,4
Y2-S2-101K19,2,197,AS,exp,38,→,right,→,0.7054395999875851,True,11,1,0,4
Y2-S2-101K19,2,198,AS,exp,31,↑,up,↑,0.7830188999942038,True,10,1,0,4
Y2-S2-101K19,2,199,AS,exp,46,→,right,→,0.5349348000017926,True,10,1,0,4
Y2-S2-101K19,2,200,AS,exp,49,↑,up,↑,0.5726646999828517,True,10,1,0,4
Y2-S2-101K19,2,201,AS,exp,42,→,right,→,0.879088599991519,True,9,1,0,4
Y2-S2-101K19,2,202,AS,exp,28,↑,up,↑,0.7572753000131343,True,9,1,0,4
Y2-S2-101K19,2,203,AS,exp,28,↓,down,↓,0.87743049999699,True,9,1,0,4
Y2-S2-101K19,2,204,AS,exp,48,↑,up,↑,0.6413898000027984,True,8,1,0,4
Y2-S2-101K19,2,205,AS,exp,36,←,right,→,0.5879086999921128,False,8,-1,1,5
Y2-S2-101K19,2,206,AS,exp,42,↓,down,↓,0.8353176999953575,True,9,-1,0,5
Y2-S2-101K19,2,207,AS,exp,25,↑,up,↑,0.6039500999904703,True,9,-1,0,5
Y2-S2-101K19,2,208,AS,exp,30,→,right,→,0.5981564999965485,True,9,1,1,6
Y2-S2-101K19,2,209,AS,exp,32,↓,down,↓,0.7613990000099875,True,8,1,0,6
Y2-S2-101K19,2,210,AS,exp,34,←,left,←,0.9318086999992374,True,8,1,0,6
Y2-S2-101K19,2,211,AS,exp,47,↓,down,↓,0.8274626999918837,True,8,1,0,6
Y2-S2-101K19,2,212,AS,exp,39,→,left,←,1.7674360999953933,False,7,-1,1,7
Y2-S2-101K19,2,213,AS,exp,30,↓,down,↓,0.7418854999996256,True,8,-1,0,7
Y2-S2-101K19,2,214,AS,exp,33,←,left,←,0.5753059000126086,True,8,-1,0,7
Y2-S2-101K19,2,215,AS,exp,40,→,right,→,1.7006388999870978,True,8,1,1,8
Y2-S2-101K19,2,216,AS,exp,37,←,right,→,0.8058159000065643,False,7,-1,1,9
Y2-S2-101K19,2,217,AS,exp,34,↓,down,↓,0.711285700002918,True,8,-1,0,9
Y2-S2-101K19,2,218,AS,exp,41,←,right,→,0.7214505999872927,False,8,-1,0,9
Y2-S2-101K19,2,219,AS,exp,42,↑,no_key,no_letter,-1.0,False,9,-1,0,9
Y2-S2-101K19,2,220,AS,exp,38,↓,down,↓,0.6711376999737695,True,10,-1,0,9
Y2-S2-101K19,2,221,AS,exp,33,→,right,→,0.5754211000166833,True,10,-1,0,9
Y2-S2-101K19,2,222,AS,exp,26,←,right,→,0.6425656999927014,False,10,-1,0,9
Y2-S2-101K19,2,223,AS,exp,45,↓,down,↓,0.7588321999937762,True,11,-1,0,9
Y2-S2-101K19,2,224,AS,exp,44,→,right,→,0.6042622000095434,True,11,-1,0,9
Y2-S2-101K19,2,225,AS,exp,31,↓,down,↓,0.6536032999865711,True,11,1,1,10
Y2-S2-101K19,2,226,AS,exp,47,↑,down,↓,0.9973277999961283,False,10,-1,1,11
Y2-S2-101K19,2,227,AS,exp,43,↓,down,↓,0.738368000020273,True,11,-1,0,11
Y2-S2-101K19,2,228,AS,exp,41,→,left,←,1.1514438000158407,False,11,-1,0,11
Y2-S2-101K19,2,229,AS,exp,47,↓,down,↓,0.6895969999895897,True,12,-1,0,11
Y2-S2-101K19,2,230,AS,exp,47,↑,up,↑,0.7697648000030313,True,12,-1,0,11
Y2-S2-101K19,2,231,AS,exp,34,←,left,←,0.6339726999867707,True,12,1,1,12
Y2-S2-101K19,2,232,AS,exp,38,→,right,→,0.7366576999775134,True,11,1,0,12
Y2-S2-101K19,2,233,AS,exp,37,↓,right,→,1.2833882000122685,False,11,-1,1,13
Y2-S2-101K19,2,234,AS,exp,29,←,left,←,0.8166911999869626,True,12,-1,0,13
Y2-S2-101K19,2,235,AS,exp,25,↓,down,↓,0.6726660999993328,True,12,-1,0,13
Y2-S2-101K19,2,236,AS,exp,50,←,left,←,1.392708200000925,True,12,1,1,14
Y2-S2-101K19,2,237,AS,exp,30,↓,down,↓,0.6100281999970321,True,11,1,0,14
Y2-S2-101K19,2,238,AS,exp,34,→,right,→,0.5726276999921538,True,11,1,0,14
Y2-S2-101K19,2,239,AS,exp,25,←,left,←,1.062496900005499,True,11,1,0,14
Y2-S2-101K19,2,240,AS,exp,40,↑,no_key,no_letter,-1.0,False,10,-1,1,15
Y2-S2-101K19,2,241,AS,exp,47,↓,down,↓,0.7363577999931294,True,11,-1,0,15
Y2-S2-101K19,2,242,AS,exp,31,←,left,←,0.5683795000077225,True,11,-1,0,15
Y2-S2-101K19,2,243,AS,exp,35,↓,down,↓,0.5759039999975357,True,11,1,1,16
Y2-S2-101K19,3,244,AS,intra_train,46,←,left,←,0.6394890999945346,True,16,-,-,-
Y2-S2-101K19,3,245,AS,intra_train,40,↓,down,↓,0.5939172999933362,True,16,-,-,-
Y2-S2-101K19,3,246,AS,intra_train,35,←,left,←,0.8069774000032339,True,16,-,-,-
Y2-S2-101K19,3,247,AS,intra_train,35,↓,down,↓,0.5075729000091087,True,16,-,-,-
Y2-S2-101K19,3,248,AS,intra_train,28,←,left,←,0.5516014999884646,True,16,-,-,-
Y2-S2-101K19,3,249,AS,exp,37,↑,up,↑,0.7655230999807827,True,11,0,0,0
Y2-S2-101K19,3,250,AS,exp,27,→,right,→,0.553026299981866,True,11,0,0,0
Y2-S2-101K19,3,251,AS,exp,45,↑,right,→,0.922519799991278,False,11,-1,0,0
Y2-S2-101K19,3,252,AS,exp,29,↓,down,↓,0.6267701000033412,True,12,-1,0,0
Y2-S2-101K19,3,253,AS,exp,44,→,right,→,0.5082226000085939,True,12,-1,0,0
Y2-S2-101K19,3,254,AS,exp,49,↓,down,↓,0.7848777999752201,True,12,1,1,1
Y2-S2-101K19,3,255,AS,exp,30,←,left,←,0.9228676999919116,True,11,1,0,1
Y2-S2-101K19,3,256,AS,exp,28,→,right,→,0.5391729999973904,True,11,1,0,1
Y2-S2-101K19,3,257,AS,exp,38,←,left,←,0.6776577999989968,True,11,1,0,1
Y2-S2-101K19,3,258,AS,exp,47,→,right,→,1.0403784000081941,True,10,1,0,1
Y2-S2-101K19,3,259,AS,exp,34,↓,down,↓,0.7148202000244055,True,10,1,0,1
Y2-S2-101K19,3,260,AS,exp,49,↑,up,↑,0.5774354000168387,True,10,1,0,1
Y2-S2-101K19,3,261,AS,exp,41,↓,down,↓,0.6463962999987416,True,9,1,0,1
Y2-S2-101K19,3,262,AS,exp,46,←,left,←,0.6172380000061821,True,9,1,0,1
Y2-S2-101K19,3,263,AS,exp,27,↓,down,↓,0.6968922999803908,True,9,1,0,1
Y2-S2-101K19,3,264,AS,exp,49,↑,up,↑,0.6744572000170592,True,8,1,0,1
Y2-S2-101K19,3,265,AS,exp,31,→,right,→,0.624673200014513,True,8,1,0,1
Y2-S2-101K19,3,266,AS,exp,29,←,left,←,0.7114732000045478,True,8,1,0,1
Y2-S2-101K19,3,267,AS,exp,49,→,right,→,0.6809130999899935,True,7,1,0,1
Y2-S2-101K19,3,268,AS,exp,27,←,right,→,1.70786809999845,False,7,-1,1,2
Y2-S2-101K19,3,269,AS,exp,43,↓,down,↓,0.7758240999828558,True,8,-1,0,2
Y2-S2-101K19,3,270,AS,exp,34,→,right,→,0.6095448000123724,True,8,-1,0,2
Y2-S2-101K19,3,271,AS,exp,36,←,left,←,0.6425022000039462,True,8,1,1,3
Y2-S2-101K19,3,272,AS,exp,31,↓,down,↓,0.6829834000091068,True,7,1,0,3
Y2-S2-101K19,3,273,AS,exp,27,←,left,←,0.8619468999968376,True,7,1,0,3
Y2-S2-101K19,3,274,AS,exp,28,→,right,→,0.6031661999877542,True,7,1,0,3
Y2-S2-101K19,3,275,AS,exp,37,↓,down,↓,0.809042299981229,True,6,1,0,3
Y2-S2-101K19,3,276,AS,exp,43,←,left,←,1.095621399988886,True,6,1,0,3
Y2-S2-101K19,3,277,AS,exp,45,↑,up,↑,0.8693706000049133,True,6,1,0,3
Y2-S2-101K19,3,278,AS,exp,39,←,no_key,no_letter,-1.0,False,5,-1,1,4
Y2-S2-101K19,3,279,AS,exp,43,↓,down,↓,0.9209378999948967,True,6,-1,0,4
Y2-S2-101K19,3,280,AS,exp,28,←,left,←,1.6304797000193503,True,6,-1,0,4
Y2-S2-101K19,3,281,AS,exp,36,→,left,←,0.9461953999998514,False,6,-1,0,4
Y2-S2-101K19,3,282,AS,exp,31,↑,up,↑,0.6178851000149734,True,7,-1,0,4
Y2-S2-101K19,3,283,AS,exp,40,←,left,←,0.7321478000085335,True,7,-1,0,4
Y2-S2-101K19,3,284,AS,exp,28,↓,down,↓,0.8258206000027712,True,7,1,1,5
Y2-S2-101K19,3,285,AS,exp,32,←,up,↑,1.0144172000000253,False,6,-1,1,6
Y2-S2-101K19,3,286,AS,exp,29,↑,up,↑,0.7714654000010341,True,7,-1,0,6
Y2-S2-101K19,3,287,AS,exp,49,→,left,←,1.7031418000115082,False,7,-1,0,6
Y2-S2-101K19,3,288,AS,exp,26,←,left,←,0.8096535999793559,True,8,-1,0,6
Y2-S2-101K19,3,289,AS,exp,43,↑,up,↑,0.6536771999963094,True,8,-1,0,6
Y2-S2-101K19,3,290,AS,exp,32,↓,down,↓,0.7183807999826968,True,8,1,1,7
Y2-S2-101K19,3,291,AS,exp,37,←,no_key,no_letter,-1.0,False,7,-1,1,8
Y2-S2-101K19,3,292,AS,exp,42,↑,up,↑,0.7599296000262257,True,8,-1,0,8
Y2-S2-101K19,3,293,AS,exp,33,←,left,←,0.738679800007958,True,8,-1,0,8
Y2-S2-101K19,3,294,AS,exp,39,→,left,←,0.9091878999897745,False,8,-1,0,8
Y2-S2-101K19,3,295,AS,exp,25,↑,up,↑,0.6753520000202116,True,9,-1,0,8
Y2-S2-101K19,3,296,AS,exp,47,→,right,→,0.6074193000094965,True,9,-1,0,8
Y2-S2-101K19,3,297,AS,exp,40,←,right,→,1.5884471000172198,False,9,-1,0,8
Y2-S2-101K19,3,298,AS,exp,41,→,right,→,0.60820699998294,True,10,-1,0,8
Y2-S2-101K19,3,299,AS,exp,50,↓,down,↓,0.9117698999762069,True,10,-1,0,8
Y2-S2-101K19,3,300,AS,exp,31,→,right,→,0.5310482000058983,True,10,1,1,9
Y2-S2-101K19,3,301,AS,exp,26,↓,down,↓,1.5660030999861192,True,9,1,0,9
Y2-S2-101K19,3,302,AS,exp,50,←,left,←,0.6273493000189774,True,9,1,0,9
Y2-S2-101K19,3,303,AS,exp,32,↑,down,↓,0.6710313000075985,False,9,-1,1,10
Y2-S2-101K19,3,304,AS,exp,36,→,left,←,0.6408583999727853,False,10,-1,0,10
Y2-S2-101K19,3,305,AS,exp,47,↑,up,↑,0.6503010999877006,True,11,-1,0,10
Y2-S2-101K19,3,306,AS,exp,46,→,right,→,0.562940100004198,True,11,-1,0,10
Y2-S2-101K19,3,307,AS,exp,30,↓,down,↓,0.8639963000023272,True,11,1,1,11
Y2-S2-101K19,3,308,AS,exp,27,→,right,→,0.6160624000185635,True,10,1,0,11
Y2-S2-101K19,3,309,AS,exp,30,←,right,→,0.7930703999882098,False,10,-1,1,12
Y2-S2-101K19,3,310,AS,exp,26,↑,up,↑,0.8122641999798361,True,11,-1,0,12
Y2-S2-101K19,3,311,AS,exp,25,↓,down,↓,1.0447197000030428,True,11,-1,0,12
Y2-S2-101K19,3,312,AS,exp,37,→,right,→,0.7325158000166994,True,11,1,1,13
Y2-S2-101K19,3,313,AS,exp,39,←,left,←,0.8500826999952551,True,10,1,0,13
Y2-S2-101K19,3,314,AS,exp,43,↓,down,↓,0.8889330999809317,True,10,1,0,13
Y2-S2-101K19,3,315,AS,exp,36,←,left,←,1.074912599986419,True,10,1,0,13
Y2-S2-101K19,3,316,AS,exp,25,↓,down,↓,0.6633125999942422,True,9,1,0,13
Y2-S2-101K19,3,317,AS,exp,35,←,right,→,0.753606900019804,False,9,-1,1,14
Y2-S2-101K19,3,318,AS,exp,40,→,left,←,0.6868536999973003,False,10,-1,0,14
Y2-S2-101K19,3,319,AS,exp,35,↑,up,↑,0.820963899983326,True,11,-1,0,14
Y2-S2-101K19,3,320,AS,exp,47,↓,down,↓,1.5452078000234906,True,11,-1,0,14
Y2-S2-101K19,3,321,AS,exp,45,↑,up,↑,0.5997957000217866,True,11,1,1,15
Y2-S2-101K19,3,322,AS,exp,33,←,left,←,0.6038830999750644,True,10,1,0,15
Y2-S2-101K19,3,323,AS,exp,40,↑,up,↑,0.6906473999843001,True,10,1,0,15
Y2-S2-101K19,3,324,AS,exp,38,↓,down,↓,0.6878719999804161,True,10,1,0,15
Y2-S2-101K19,3,325,AS,exp,27,→,right,→,0.595060999999987,True,9,1,0,15
Y2-S2-101K19,3,326,AS,exp,42,←,left,←,0.6536069999856409,True,9,1,0,15
Y2-S2-101K19,3,327,AS,exp,38,→,right,→,0.6000465999823064,True,9,1,0,15
Y2-S2-101K19,3,328,AS,exp,48,↑,up,↑,0.6679215999902226,True,8,1,0,15
Y2-S2-101K19,3,329,AS,exp,35,→,right,→,0.611705500021344,True,8,1,0,15
Y2-S2-101K19,3,330,AS,exp,27,←,left,←,0.5829756000021007,True,8,1,0,15
Y2-S2-101K19,3,331,AS,exp,50,↓,down,↓,0.7142582999949809,True,7,1,0,15
Y2-S2-101K19,3,332,AS,exp,36,←,left,←,0.6019845000118949,True,7,1,0,15
Y2-S2-101K19,3,333,AS,exp,44,→,right,→,0.9741728999943007,True,7,1,0,15
Y2-S2-101K19,3,334,AS,exp,28,↓,left,←,1.3890083000005689,False,6,-1,1,16
Y2-S2-101K19,4,335,PS,intra_train,49,→,right,→,0.5486584999889601,True,15,-,-,-
Y2-S2-101K19,4,336,PS,intra_train,39,←,left,←,0.5286727999919094,True,15,-,-,-
Y2-S2-101K19,4,337,PS,intra_train,40,↓,up,↑,0.5354850000003353,False,15,-,-,-
Y2-S2-101K19,4,338,PS,intra_train,37,↑,up,↑,0.5849118999904022,True,15,-,-,-
Y2-S2-101K19,4,339,PS,intra_train,45,←,left,←,0.5179564999998547,True,15,-,-,-
Y2-S2-101K19,4,340,PS,exp,26,↑,up,↑,0.5286057000048459,True,10,0,0,0
Y2-S2-101K19,4,341,PS,exp,27,↓,up,↑,1.0697803999937605,False,10,-1,0,0
Y2-S2-101K19,4,342,PS,exp,46,↑,up,↑,0.6104264999739826,True,11,-1,0,0
Y2-S2-101K19,4,343,PS,exp,41,←,left,←,0.6026027000043541,True,11,-1,0,0
Y2-S2-101K19,4,344,PS,exp,35,→,left,←,0.8447605999826919,False,11,-1,0,0
Y2-S2-101K19,4,345,PS,exp,43,←,left,←,0.5546743999875616,True,12,-1,0,0
Y2-S2-101K19,4,346,PS,exp,37,→,right,→,0.5819512000016402,True,12,-1,0,0
Y2-S2-101K19,4,347,PS,exp,32,↑,up,↑,1.421657500002766,True,12,1,1,1
Y2-S2-101K19,4,348,PS,exp,35,→,right,→,0.5132396999979392,True,11,1,0,1
Y2-S2-101K19,4,349,PS,exp,40,←,left,←,0.5313428999797907,True,11,1,0,1
Y2-S2-101K19,4,350,PS,exp,31,↓,down,↓,0.617881899990607,True,11,1,0,1
Y2-S2-101K19,4,351,PS,exp,46,↑,up,↑,0.4786250999895856,True,10,1,0,1
Y2-S2-101K19,4,352,PS,exp,39,←,left,←,0.5474513999943156,True,10,1,0,1
Y2-S2-101K19,4,353,PS,exp,26,↑,up,↑,0.61861730000237,True,10,1,0,1
Y2-S2-101K19,4,354,PS,exp,26,←,left,←,0.5982460999803152,True,9,1,0,1
Y2-S2-101K19,4,355,PS,exp,27,↑,up,↑,0.5437115000095218,True,9,1,0,1
Y2-S2-101K19,4,356,PS,exp,48,→,right,→,0.7262104999972507,True,9,1,0,1
Y2-S2-101K19,4,357,PS,exp,27,↓,up,↑,0.6727926999737974,False,8,-1,1,2
Y2-S2-101K19,4,358,PS,exp,41,←,left,←,0.5701258000044618,True,9,-1,0,2
Y2-S2-101K19,4,359,PS,exp,49,↑,up,↑,0.7276324999984354,True,9,-1,0,2
Y2-S2-101K19,4,360,PS,exp,47,→,right,→,0.47222470000269823,True,9,1,1,3
Y2-S2-101K19,4,361,PS,exp,49,↓,down,↓,0.5751748000038788,True,8,1,0,3
Y2-S2-101K19,4,362,PS,exp,49,→,right,→,0.5315697000187356,True,8,1,0,3
Y2-S2-101K19,4,363,PS,exp,49,←,right,→,1.113875699986238,False,8,-1,1,4
Y2-S2-101K19,4,364,PS,exp,26,→,right,→,0.8711293000087608,True,9,-1,0,4
Y2-S2-101K19,4,365,PS,exp,43,↑,right,→,1.6765714999928605,False,9,-1,0,4
Y2-S2-101K19,4,366,PS,exp,49,←,left,←,0.6397512000112329,True,10,-1,0,4
Y2-S2-101K19,4,367,PS,exp,46,↑,up,↑,0.6067144999979064,True,10,-1,0,4
Y2-S2-101K19,4,368,PS,exp,39,←,left,←,0.5456666999962181,True,10,1,1,5
Y2-S2-101K19,4,369,PS,exp,39,↑,up,↑,0.6922541000240017,True,9,1,0,5
Y2-S2-101K19,4,370,PS,exp,35,→,right,→,0.5285531000117771,True,9,1,0,5
Y2-S2-101K19,4,371,PS,exp,46,↑,up,↑,0.5157632000045851,True,9,1,0,5
Y2-S2-101K19,4,372,PS,exp,46,↓,right,→,0.8038236000284087,False,8,-1,1,6
Y2-S2-101K19,4,373,PS,exp,36,→,right,→,0.5747069999924861,True,9,-1,0,6
Y2-S2-101K19,4,374,PS,exp,40,←,right,→,0.641128999995999,False,9,-1,0,6
Y2-S2-101K19,4,375,PS,exp,46,→,right,→,0.6100296000076924,True,10,-1,0,6
Y2-S2-101K19,4,376,PS,exp,46,←,right,→,1.0968122000049334,False,10,-1,0,6
Y2-S2-101K19,4,377,PS,exp,30,→,right,→,0.6212713999848347,True,11,-1,0,6
Y2-S2-101K19,4,378,PS,exp,32,↓,down,↓,0.6553981000033673,True,11,-1,0,6
Y2-S2-101K19,4,379,PS,exp,42,→,right,→,0.5253043999837246,True,11,1,1,7
Y2-S2-101K19,4,380,PS,exp,46,←,left,←,0.6766889000136871,True,10,1,0,7
Y2-S2-101K19,4,381,PS,exp,30,↑,right,→,1.5117547000118066,False,10,-1,1,8
Y2-S2-101K19,4,382,PS,exp,46,↓,down,↓,0.6360833999933675,True,11,-1,0,8
Y2-S2-101K19,4,383,PS,exp,48,←,left,←,0.6726962999964599,True,11,-1,0,8
Y2-S2-101K19,4,384,PS,exp,25,↑,up,↑,0.574783899995964,True,11,1,1,9
Y2-S2-101K19,4,385,PS,exp,50,→,right,→,0.5971367000020109,True,10,1,0,9
Y2-S2-101K19,4,386,PS,exp,28,↓,left,←,1.2147203999920748,False,10,-1,1,10
Y2-S2-101K19,4,387,PS,exp,35,←,left,←,0.5975094999885187,True,11,-1,0,10
Y2-S2-101K19,4,388,PS,exp,45,↓,down,↓,0.7258480000018608,True,11,-1,0,10
Y2-S2-101K19,4,389,PS,exp,43,↑,up,↑,0.5751454000128433,True,11,1,1,11
Y2-S2-101K19,4,390,PS,exp,36,→,right,→,0.5251428999763448,True,10,1,0,11
Y2-S2-101K19,4,391,PS,exp,48,↑,up,↑,0.5811917000100948,True,10,1,0,11
Y2-S2-101K19,4,392,PS,exp,44,↓,down,↓,0.4992945999838412,True,10,1,0,11
Y2-S2-101K19,4,393,PS,exp,46,↑,up,↑,0.5554276000184473,True,9,1,0,11
Y2-S2-101K19,4,394,PS,exp,34,↓,right,→,1.1091827000200283,False,9,-1,1,12
Y2-S2-101K19,4,395,PS,exp,33,↑,left,←,0.7967908999999054,False,10,-1,0,12
Y2-S2-101K19,4,396,PS,exp,27,←,left,←,0.687366900005145,True,11,-1,0,12
Y2-S2-101K19,4,397,PS,exp,49,↑,no_key,no_letter,-1.0,False,11,-1,0,12
Y2-S2-101K19,4,398,PS,exp,45,↓,down,↓,0.5768158000137191,True,12,-1,0,12
Y2-S2-101K19,4,399,PS,exp,31,↑,left,←,1.0688136999960989,False,12,-1,0,12
Y2-S2-101K19,4,400,PS,exp,49,←,left,←,0.5627466999867465,True,13,-1,0,12
Y2-S2-101K19,4,401,PS,exp,42,↓,down,↓,0.6203666999936104,True,13,-1,0,12
Y2-S2-101K19,4,402,PS,exp,41,→,right,→,0.48684689999208786,True,13,1,1,13
Y2-S2-101K19,4,403,PS,exp,47,↑,up,↑,0.6027074000157882,True,12,1,0,13
Y2-S2-101K19,4,404,PS,exp,44,←,right,→,0.8411295999831054,False,12,-1,1,14
Y2-S2-101K19,4,405,PS,exp,38,→,left,←,1.1995648000156507,False,13,-1,0,14
Y2-S2-101K19,4,406,PS,exp,40,←,left,←,0.5851409999886528,True,14,-1,0,14
Y2-S2-101K19,4,407,PS,exp,32,↓,down,↓,0.6639604000083636,True,14,-1,0,14
Y2-S2-101K19,4,408,PS,exp,27,→,right,→,0.5447044000029564,True,14,1,1,15
Y2-S2-101K19,4,409,PS,exp,29,←,left,←,0.513719399983529,True,13,1,0,15
Y2-S2-101K19,4,410,PS,exp,30,↓,down,↓,0.7007169999997132,True,13,1,0,15
Y2-S2-101K19,4,411,PS,exp,42,→,right,→,0.5182758000155445,True,13,1,0,15
Y2-S2-101K19,4,412,PS,exp,36,↑,up,↑,0.5997671999793965,True,12,1,0,15
Y2-S2-101K19,4,413,PS,exp,29,←,left,←,0.785535200004233,True,12,1,0,15
Y2-S2-101K19,4,414,PS,exp,25,→,right,→,0.5473725999763701,True,12,1,0,15
Y2-S2-101K19,4,415,PS,exp,40,↑,up,↑,0.6563569999998435,True,11,1,0,15
Y2-S2-101K19,4,416,PS,exp,48,↓,down,↓,0.6515738999878522,True,11,1,0,15
Y2-S2-101K19,4,417,PS,exp,41,←,left,←,0.5103918999957386,True,11,1,0,15
Y2-S2-101K19,4,418,PS,exp,31,↑,right,→,1.2634669999824837,False,10,-1,1,16
Y2-S2-101K19,5,419,PS,intra_train,41,↓,down,↓,0.6218828000128269,True,15,-,-,-
Y2-S2-101K19,5,420,PS,intra_train,30,←,left,←,0.4768027000245638,True,15,-,-,-
Y2-S2-101K19,5,421,PS,intra_train,36,↑,up,↑,0.4824062999978196,True,15,-,-,-
Y2-S2-101K19,5,422,PS,intra_train,46,←,left,←,0.5449617000122089,True,15,-,-,-
Y2-S2-101K19,5,423,PS,intra_train,35,→,right,→,0.5080635999911465,True,15,-,-,-
Y2-S2-101K19,5,424,PS,exp,48,↑,right,→,0.5765040999976918,False,10,-1,0,0
Y2-S2-101K19,5,425,PS,exp,31,↓,down,↓,0.6230056000058539,True,11,-1,0,0
Y2-S2-101K19,5,426,PS,exp,44,→,right,→,0.5311237999994773,True,11,-1,0,0
Y2-S2-101K19,5,427,PS,exp,35,←,left,←,0.4748836999933701,True,11,1,1,1
Y2-S2-101K19,5,428,PS,exp,42,↑,up,↑,0.495444599975599,True,10,1,0,1
Y2-S2-101K19,5,429,PS,exp,33,←,left,←,0.5665329000039492,True,10,1,0,1
Y2-S2-101K19,5,430,PS,exp,42,↑,up,↑,0.562619000003906,True,10,1,0,1
Y2-S2-101K19,5,431,PS,exp,36,←,left,←,0.582513100001961,True,9,1,0,1
Y2-S2-101K19,5,432,PS,exp,45,↓,down,↓,0.529335600003833,True,9,1,0,1
Y2-S2-101K19,5,433,PS,exp,29,↑,left,←,0.5608266000053845,False,9,-1,1,2
Y2-S2-101K19,5,434,PS,exp,39,→,right,→,0.5191068999993149,True,10,-1,0,2
Y2-S2-101K19,5,435,PS,exp,40,↓,down,↓,0.7017152000044007,True,10,-1,0,2
Y2-S2-101K19,5,436,PS,exp,39,→,right,→,0.6195205000112765,True,10,1,1,3
Y2-S2-101K19,5,437,PS,exp,34,↓,down,↓,0.5580574000196066,True,9,1,0,3
Y2-S2-101K19,5,438,PS,exp,26,↑,left,←,0.910328700003447,False,9,-1,1,4
Y2-S2-101K19,5,439,PS,exp,37,→,right,→,0.5226786999846809,True,10,-1,0,4
Y2-S2-101K19,5,440,PS,exp,48,↑,left,←,1.7195560999971349,False,10,-1,0,4
Y2-S2-101K19,5,441,PS,exp,29,←,left,←,0.5218162999954075,True,11,-1,0,4
Y2-S2-101K19,5,442,PS,exp,34,→,right,→,0.49594200000865385,True,11,-1,0,4
Y2-S2-101K19,5,443,PS,exp,47,↓,down,↓,0.572365300002275,True,11,1,1,5
Y2-S2-101K19,5,444,PS,exp,30,↑,down,↓,0.7519638999947347,False,10,-1,1,6
Y2-S2-101K19,5,445,PS,exp,38,↓,down,↓,0.6603868999809492,True,11,-1,0,6
Y2-S2-101K19,5,446,PS,exp,42,→,right,→,0.579306200001156,True,11,-1,0,6
Y2-S2-101K19,5,447,PS,exp,32,↑,up,↑,0.750166400015587,True,11,1,1,7
Y2-S2-101K19,5,448,PS,exp,50,↓,down,↓,0.7067082999856211,True,10,1,0,7
Y2-S2-101K19,5,449,PS,exp,43,←,right,→,0.5954356000002008,False,10,-1,1,8
Y2-S2-101K19,5,450,PS,exp,48,↓,down,↓,0.5672161999973468,True,11,-1,0,8
Y2-S2-101K19,5,451,PS,exp,34,↑,up,↑,0.5844508000009228,True,11,-1,0,8
Y2-S2-101K19,5,452,PS,exp,34,→,right,→,0.5583466000098269,True,11,1,1,9
Y2-S2-101K19,5,453,PS,exp,45,←,left,←,0.5154842000047211,True,10,1,0,9
Y2-S2-101K19,5,454,PS,exp,47,↑,up,↑,0.6548139000078663,True,10,1,0,9
Y2-S2-101K19,5,455,PS,exp,49,←,left,←,0.5037165000103414,True,10,1,0,9
Y2-S2-101K19,5,456,PS,exp,26,→,right,→,0.47629829999641515,True,9,1,0,9
Y2-S2-101K19,5,457,PS,exp,38,←,right,→,0.8336016999965068,False,9,-1,1,10
Y2-S2-101K19,5,458,PS,exp,32,→,right,→,0.5298214000067674,True,10,-1,0,10
Y2-S2-101K19,5,459,PS,exp,31,↑,up,↑,0.575912900007097,True,10,-1,0,10
Y2-S2-101K19,5,460,PS,exp,36,←,left,←,0.5246061999932863,True,10,1,1,11
Y2-S2-101K19,5,461,PS,exp,32,→,right,→,0.5533554000139702,True,9,1,0,11
Y2-S2-101K19,5,462,PS,exp,34,↓,down,↓,0.6504539000161458,True,9,1,0,11
Y2-S2-101K19,5,463,PS,exp,32,→,right,→,0.4638516000122763,True,9,1,0,11
Y2-S2-101K19,5,464,PS,exp,46,↑,right,→,0.9132116000109818,False,8,-1,1,12
Y2-S2-101K19,5,465,PS,exp,44,↓,down,↓,0.6065751999849454,True,9,-1,0,12
Y2-S2-101K19,5,466,PS,exp,37,↑,up,↑,0.6052125999995042,True,9,-1,0,12
Y2-S2-101K19,5,467,PS,exp,41,←,left,←,0.586966000002576,True,9,1,1,13
Y2-S2-101K19,5,468,PS,exp,42,↑,up,↑,0.5490091000101529,True,8,1,0,13
Y2-S2-101K19,5,469,PS,exp,34,←,left,←,0.5332173999922816,True,8,1,0,13
Y2-S2-101K19,5,470,PS,exp,41,↓,down,↓,0.5510288999939803,True,8,1,0,13
Y2-S2-101K19,5,471,PS,exp,25,→,right,→,0.5815793999936432,True,7,1,0,13
Y2-S2-101K19,5,472,PS,exp,26,←,left,←,0.49200030000065453,True,7,1,0,13
Y2-S2-101K19,5,473,PS,exp,34,↑,up,↑,0.4812785999965854,True,7,1,0,13
Y2-S2-101K19,5,474,PS,exp,46,↓,left,←,0.4852427000005264,False,6,-1,1,14
Y2-S2-101K19,5,475,PS,exp,29,→,right,→,0.7404422999825329,True,7,-1,0,14
Y2-S2-101K19,5,476,PS,exp,38,↑,left,←,0.7276004000159446,False,7,-1,0,14
Y2-S2-101K19,5,477,PS,exp,31,←,left,←,0.5390521999797784,True,8,-1,0,14
Y2-S2-101K19,5,478,PS,exp,26,↑,up,↑,0.5844785000081174,True,8,-1,0,14
Y2-S2-101K19,5,479,PS,exp,26,→,right,→,0.5114876000152435,True,8,1,1,15
Y2-S2-101K19,5,480,PS,exp,27,←,right,→,1.289645599987125,False,7,-1,1,16
Y2-S2-101K19,6,481,AS,intra_train,47,→,right,→,0.5011596000113059,True,16,-,-,-
Y2-S2-101K19,6,482,AS,intra_train,30,←,left,←,0.9306209000060335,True,16,-,-,-
Y2-S2-101K19,6,483,AS,intra_train,46,↓,down,↓,0.7279114999982994,True,16,-,-,-
Y2-S2-101K19,6,484,AS,intra_train,49,→,right,→,0.5059993999893777,True,16,-,-,-
Y2-S2-101K19,6,485,AS,intra_train,40,↑,up,↑,0.6193041000224184,True,16,-,-,-
Y2-S2-101K19,6,486,AS,exp,37,→,right,→,0.9471865999803413,True,11,0,0,0
Y2-S2-101K19,6,487,AS,exp,30,←,left,←,0.6689290999784134,True,11,0,0,0
Y2-S2-101K19,6,488,AS,exp,46,↑,up,↑,0.64346559997648,True,11,1,0,0
Y2-S2-101K19,6,489,AS,exp,38,↓,down,↓,0.7317164000123739,True,10,1,0,0
Y2-S2-101K19,6,490,AS,exp,26,←,right,→,0.536599400016712,False,10,-1,1,1
Y2-S2-101K19,6,491,AS,exp,32,↑,up,↑,0.8496787000040058,True,11,-1,0,1
Y2-S2-101K19,6,492,AS,exp,50,→,right,→,0.6034728999948129,True,11,-1,0,1
Y2-S2-101K19,6,493,AS,exp,41,↑,up,↑,0.6185664999939036,True,11,1,1,2
Y2-S2-101K19,6,494,AS,exp,34,↓,down,↓,0.8945230999961495,True,10,1,0,2
Y2-S2-101K19,6,495,AS,exp,35,→,down,↓,0.7306973999948241,False,10,-1,1,3
Y2-S2-101K19,6,496,AS,exp,25,↓,down,↓,1.2432629999821074,True,11,-1,0,3
Y2-S2-101K19,6,497,AS,exp,41,←,right,→,0.7385565000004135,False,11,-1,0,3
Y2-S2-101K19,6,498,AS,exp,36,↑,up,↑,0.9652062999957707,True,12,-1,0,3
Y2-S2-101K19,6,499,AS,exp,35,←,left,←,0.6363272000162397,True,12,-1,0,3
Y2-S2-101K19,6,500,AS,exp,44,→,right,→,0.9034692000132054,True,12,1,1,4
Y2-S2-101K19,6,501,AS,exp,43,←,left,←,0.7739838999987114,True,11,1,0,4
Y2-S2-101K19,6,502,AS,exp,40,↑,up,↑,0.6513786000141408,True,11,1,0,4
Y2-S2-101K19,6,503,AS,exp,41,↓,down,↓,0.8082123000058345,True,11,1,0,4
Y2-S2-101K19,6,504,AS,exp,30,→,right,→,0.6615078000177164,True,10,1,0,4
Y2-S2-101K19,6,505,AS,exp,33,←,left,←,0.8793216999911238,True,10,1,0,4
Y2-S2-101K19,6,506,AS,exp,41,→,right,→,1.6834887000150047,True,10,1,0,4
Y2-S2-101K19,6,507,AS,exp,34,←,left,←,0.5781720999802928,True,9,1,0,4
Y2-S2-101K19,6,508,AS,exp,33,↑,up,↑,0.6309470999985933,True,9,1,0,4
Y2-S2-101K19,6,509,AS,exp,32,↓,down,↓,0.6539291999943089,True,9,1,0,4
Y2-S2-101K19,6,510,AS,exp,49,→,right,→,0.9980297000147402,True,8,1,0,4
Y2-S2-101K19,6,511,AS,exp,25,↑,up,↑,0.6900964000087697,True,8,1,0,4
Y2-S2-101K19,6,512,AS,exp,35,↓,down,↓,0.6233914000040386,True,8,1,0,4
Y2-S2-101K19,6,513,AS,exp,44,←,left,←,0.6781355000275653,True,7,1,0,4
Y2-S2-101K19,6,514,AS,exp,48,→,right,→,1.3056169000046793,True,7,1,0,4
Y2-S2-101K19,6,515,AS,exp,45,↑,up,↑,0.6939200999913737,True,7,1,0,4
Y2-S2-101K19,6,516,AS,exp,50,↓,up,↑,1.0595813999825623,False,6,-1,1,5
Y2-S2-101K19,6,517,AS,exp,35,↑,down,↓,0.7429061000002548,False,7,-1,0,5
Y2-S2-101K19,6,518,AS,exp,37,→,right,→,1.0535311999847181,True,8,-1,0,5
Y2-S2-101K19,6,519,AS,exp,29,←,left,←,0.6055769000086002,True,8,-1,0,5
Y2-S2-101K19,6,520,AS,exp,30,↑,up,↑,0.5772372000210453,True,8,1,1,6
Y2-S2-101K19,6,521,AS,exp,35,←,no_key,no_letter,-1.0,False,7,-1,1,7
Y2-S2-101K19,6,522,AS,exp,38,→,right,→,0.5508778000075836,True,8,-1,0,7
Y2-S2-101K19,6,523,AS,exp,29,↑,up,↑,0.5815628999844193,True,8,-1,0,7
Y2-S2-101K19,6,524,AS,exp,49,↓,down,↓,0.753756499994779,True,8,1,1,8
Y2-S2-101K19,6,525,AS,exp,30,→,right,→,0.731511899997713,True,7,1,0,8
Y2-S2-101K19,6,526,AS,exp,27,←,right,→,0.7786838999891188,False,7,-1,1,9
Y2-S2-101K19,6,527,AS,exp,41,↓,down,↓,0.6830191000190098,True,8,-1,0,9
Y2-S2-101K19,6,528,AS,exp,46,↑,up,↑,0.6071138000115752,True,8,-1,0,9
Y2-S2-101K19,6,529,AS,exp,39,→,right,→,0.5168805999855977,True,8,1,1,10
Y2-S2-101K19,6,530,AS,exp,39,↑,up,↑,0.7423545999918133,True,7,1,0,10
Y2-S2-101K19,6,531,AS,exp,28,→,right,→,0.5468806000135373,True,7,1,0,10
Y2-S2-101K19,6,532,AS,exp,38,↑,up,↑,0.7375964999955613,True,7,1,0,10
Y2-S2-101K19,6,533,AS,exp,32,↓,down,↓,1.1765145999961533,True,6,1,0,10
Y2-S2-101K19,6,534,AS,exp,36,↑,up,↑,0.6390026999870315,True,6,1,0,10
Y2-S2-101K19,6,535,AS,exp,34,←,right,→,0.5851805999991484,False,6,-1,1,11
Y2-S2-101K19,6,536,AS,exp,35,↑,up,↑,0.6526922000048216,True,7,-1,0,11
Y2-S2-101K19,6,537,AS,exp,26,↓,down,↓,1.3388159000023734,True,7,-1,0,11
Y2-S2-101K19,6,538,AS,exp,26,←,left,←,0.7850602999969851,True,7,1,1,12
Y2-S2-101K19,6,539,AS,exp,44,↓,down,↓,0.6977769999939483,True,6,1,0,12
Y2-S2-101K19,6,540,AS,exp,32,←,left,←,0.572874999983469,True,6,1,0,12
Y2-S2-101K19,6,541,AS,exp,31,↑,down,↓,0.9408228000102099,False,6,-1,1,13
Y2-S2-101K19,6,542,AS,exp,38,↓,down,↓,0.9204509999835864,True,7,-1,0,13
Y2-S2-101K19,6,543,AS,exp,32,↑,up,↑,0.6398739999858662,True,7,-1,0,13
Y2-S2-101K19,6,544,AS,exp,46,←,left,←,1.421727999986615,True,7,1,1,14
Y2-S2-101K19,6,545,AS,exp,35,↓,up,↑,0.6817778999975417,False,6,-1,1,15
Y2-S2-101K19,6,546,AS,exp,40,→,up,↑,1.052512200025376,False,7,-1,0,15
Y2-S2-101K19,6,547,AS,exp,44,←,left,←,0.7373761999770068,True,8,-1,0,15
Y2-S2-101K19,6,548,AS,exp,32,↓,down,↓,0.6319078999804333,True,8,-1,0,15
Y2-S2-101K19,6,549,AS,exp,29,↑,up,↑,0.5823016999929678,True,8,1,1,16
Y2-S2-101K19,7,550,AS,intra_train,40,→,right,→,0.43630279999342747,True,16,-,-,-
Y2-S2-101K19,7,551,AS,intra_train,40,↓,down,↓,0.579393699998036,True,16,-,-,-
Y2-S2-101K19,7,552,AS,intra_train,29,→,right,→,0.5203595000202768,True,16,-,-,-
Y2-S2-101K19,7,553,AS,intra_train,34,↓,down,↓,0.5613018999865744,True,16,-,-,-
Y2-S2-101K19,7,554,AS,intra_train,32,↑,down,↓,0.5300971000106074,False,16,-,-,-
Y2-S2-101K19,7,555,AS,exp,48,→,right,→,0.544328999996651,True,11,0,0,0
Y2-S2-101K19,7,556,AS,exp,35,↓,down,↓,0.7121089000138454,True,11,0,0,0
Y2-S2-101K19,7,557,AS,exp,42,→,right,→,0.5199077999859583,True,11,1,0,0
Y2-S2-101K19,7,558,AS,exp,34,↓,down,↓,0.5423631999874488,True,10,1,0,0
Y2-S2-101K19,7,559,AS,exp,35,←,left,←,0.5221036000002641,True,10,1,0,0
Y2-S2-101K19,7,560,AS,exp,30,→,right,→,0.590845700004138,True,10,1,0,0
Y2-S2-101K19,7,561,AS,exp,41,↓,down,↓,0.5752034999895841,True,9,1,0,0
Y2-S2-101K19,7,562,AS,exp,42,←,down,↓,1.4671041000110563,False,9,-1,1,1
Y2-S2-101K19,7,563,AS,exp,48,→,right,→,0.5082241999916732,True,10,-1,0,1
Y2-S2-101K19,7,564,AS,exp,29,↑,up,↑,0.6202841000049375,True,10,-1,0,1
Y2-S2-101K19,7,565,AS,exp,28,←,right,→,0.8988609999942128,False,10,-1,0,1
Y2-S2-101K19,7,566,AS,exp,34,→,right,→,0.7057231000217143,True,11,-1,0,1
Y2-S2-101K19,7,567,AS,exp,39,↓,down,↓,0.6547981999756303,True,11,-1,0,1
Y2-S2-101K19,7,568,AS,exp,27,↑,up,↑,0.637458900018828,True,11,1,1,2
Y2-S2-101K19,7,569,AS,exp,37,↓,up,↑,1.0175911999831442,False,10,-1,1,3
Y2-S2-101K19,7,570,AS,exp,38,↑,up,↑,0.5666031000146177,True,11,-1,0,3
Y2-S2-101K19,7,571,AS,exp,39,←,left,←,0.6698009999818169,True,11,-1,0,3
Y2-S2-101K19,7,572,AS,exp,34,↓,up,↑,0.7266558000119403,False,11,-1,0,3
Y2-S2-101K19,7,573,AS,exp,40,↑,up,↑,0.9348560000071302,True,12,-1,0,3
Y2-S2-101K19,7,574,AS,exp,42,←,right,→,0.565063599991845,False,12,-1,0,3
Y2-S2-101K19,7,575,AS,exp,46,→,right,→,0.562844900006894,True,13,-1,0,3
Y2-S2-101K19,7,576,AS,exp,33,↑,up,↑,0.5947745000012219,True,13,-1,0,3
Y2-S2-101K19,7,577,AS,exp,44,←,left,←,0.6394073000119533,True,13,1,1,4
Y2-S2-101K19,7,578,AS,exp,50,↑,right,→,1.657309100002749,False,12,-1,1,5
Y2-S2-101K19,7,579,AS,exp,31,←,left,←,0.6612156000046525,True,13,-1,0,5
Y2-S2-101K19,7,580,AS,exp,37,↑,up,↑,0.5441018999845255,True,13,-1,0,5
Y2-S2-101K19,7,581,AS,exp,50,→,right,→,0.5476553000044078,True,13,1,1,6
Y2-S2-101K19,7,582,AS,exp,36,↓,down,↓,0.7716595999954734,True,12,1,0,6
Y2-S2-101K19,7,583,AS,exp,43,↑,up,↑,0.6996989000181202,True,12,1,0,6
Y2-S2-101K19,7,584,AS,exp,42,↓,down,↓,1.2060110000020359,True,12,1,0,6
Y2-S2-101K19,7,585,AS,exp,50,→,right,→,1.6197970999928657,True,11,1,0,6
Y2-S2-101K19,7,586,AS,exp,50,↑,left,←,1.4872507999825757,False,11,-1,1,7
Y2-S2-101K19,7,587,AS,exp,46,←,left,←,0.5241843999829143,True,12,-1,0,7
Y2-S2-101K19,7,588,AS,exp,31,↓,up,↑,0.7696475999837276,False,12,-1,0,7
Y2-S2-101K19,7,589,AS,exp,32,→,right,→,0.5642667000065558,True,13,-1,0,7
Y2-S2-101K19,7,590,AS,exp,49,←,right,→,1.0338813999842387,False,13,-1,0,7
Y2-S2-101K19,7,591,AS,exp,31,↑,up,↑,0.6408953000209294,True,14,-1,0,7
Y2-S2-101K19,7,592,AS,exp,27,→,right,→,0.8968166000267956,True,14,-1,0,7
Y2-S2-101K19,7,593,AS,exp,36,↓,up,↑,1.211074799997732,False,14,-1,0,7
Y2-S2-101K19,7,594,AS,exp,31,↑,down,↓,0.7210988999868277,False,15,-1,0,7
Y2-S2-101K19,7,595,AS,exp,29,↓,down,↓,0.5566904000006616,True,16,-1,0,7
Y2-S2-101K19,7,596,AS,exp,27,↑,up,↑,0.5781604000076186,True,16,-1,0,7
Y2-S2-101K19,7,597,AS,exp,33,←,left,←,0.580240400013281,True,16,1,1,8
Y2-S2-101K19,7,598,AS,exp,40,→,right,→,0.5583048999833409,True,15,1,0,8
Y2-S2-101K19,7,599,AS,exp,49,←,left,←,0.5484425000031479,True,15,1,0,8
Y2-S2-101K19,7,600,AS,exp,35,↓,down,↓,0.6123391000146512,True,15,1,0,8
Y2-S2-101K19,7,601,AS,exp,39,↑,up,↑,0.6135013000166509,True,14,1,0,8
Y2-S2-101K19,7,602,AS,exp,33,→,right,→,0.511269100010395,True,14,1,0,8
Y2-S2-101K19,7,603,AS,exp,28,←,left,←,0.6689643999852706,True,14,1,0,8
Y2-S2-101K19,7,604,AS,exp,38,↑,up,↑,0.6230588000034913,True,13,1,0,8
Y2-S2-101K19,7,605,AS,exp,47,→,right,→,0.5412490000016987,True,13,1,0,8
Y2-S2-101K19,7,606,AS,exp,47,←,left,←,0.5809118000033777,True,13,1,0,8
Y2-S2-101K19,7,607,AS,exp,43,↓,down,↓,0.7059795999957714,True,12,1,0,8
Y2-S2-101K19,7,608,AS,exp,50,←,left,←,0.6433319999778178,True,12,1,0,8
Y2-S2-101K19,7,609,AS,exp,49,→,right,→,0.5826039999956265,True,12,1,0,8
Y2-S2-101K19,7,610,AS,exp,45,↑,up,↑,0.7059688000008464,True,11,1,0,8
Y2-S2-101K19,7,611,AS,exp,37,↓,down,↓,0.63403250000556,True,11,1,0,8
Y2-S2-101K19,7,612,AS,exp,50,→,right,→,0.5934467000188306,True,11,1,0,8
Y2-S2-101K19,7,613,AS,exp,30,↓,down,↓,0.548654100013664,True,10,1,0,8
Y2-S2-101K19,7,614,AS,exp,38,←,left,←,0.7908080000197515,True,10,1,0,8
Y2-S2-101K19,7,615,AS,exp,27,↑,up,↑,0.7843377999961376,True,10,1,0,8
Y2-S2-101K19,7,616,AS,exp,47,→,right,→,0.5165992999973241,True,9,1,0,8
Y2-S2-101K19,7,617,AS,exp,29,←,left,←,0.5886885999934748,True,9,1,0,8
Y2-S2-101K19,7,618,AS,exp,42,→,right,→,0.5738726999843493,True,9,1,0,8
Y2-S2-101K19,7,619,AS,exp,31,←,left,←,0.6832766000006814,True,8,1,0,8
Y2-S2-101K19,7,620,AS,exp,37,→,right,→,0.7554035999928601,True,8,1,0,8
Y2-S2-101K19,7,621,AS,exp,34,↑,up,↑,0.5889141000225209,True,8,1,0,8
Y2-S2-101K19,7,622,AS,exp,26,←,right,→,0.5317125000001397,False,7,-1,1,9
Y2-S2-101K19,7,623,AS,exp,38,↓,down,↓,0.8647434000158682,True,8,-1,0,9
Y2-S2-101K19,7,624,AS,exp,35,→,right,→,0.5218993999878876,True,8,-1,0,9
Y2-S2-101K19,7,625,AS,exp,46,←,left,←,0.6338925999880303,True,8,1,1,10
Y2-S2-101K19,7,626,AS,exp,43,→,right,→,0.4840967000054661,True,7,1,0,10
Y2-S2-101K19,7,627,AS,exp,37,←,right,→,0.6175214000104461,False,7,-1,1,11
Y2-S2-101K19,7,628,AS,exp,36,↑,up,↑,0.6583706999954302,True,8,-1,0,11
Y2-S2-101K19,7,629,AS,exp,36,↓,down,↓,0.5682835000043269,True,8,-1,0,11
Y2-S2-101K19,7,630,AS,exp,41,↑,up,↑,0.6665972000046168,True,8,1,1,12
Y2-S2-101K19,7,631,AS,exp,33,←,left,←,0.7973535000055563,True,7,1,0,12
Y2-S2-101K19,7,632,AS,exp,41,→,left,←,0.659316300007049,False,7,-1,1,13
Y2-S2-101K19,7,633,AS,exp,38,↑,up,↑,0.678344299987657,True,8,-1,0,13
Y2-S2-101K19,7,634,AS,exp,40,←,left,←,0.6587459000002127,True,8,-1,0,13
Y2-S2-101K19,7,635,AS,exp,31,↑,up,↑,0.6450342999887653,True,8,1,1,14
Y2-S2-101K19,7,636,AS,exp,37,→,right,→,0.9610397999931592,True,7,1,0,14
Y2-S2-101K19,7,637,AS,exp,33,↓,down,↓,1.282765699987067,True,7,1,0,14
Y2-S2-101K19,7,638,AS,exp,41,←,left,←,0.6377552000049036,True,7,1,0,14
Y2-S2-101K19,7,639,AS,exp,45,↑,down,↓,1.1259549999958836,False,6,-1,1,15
Y2-S2-101K19,7,640,AS,exp,41,↓,down,↓,0.7486488000140525,True,7,-1,0,15
Y2-S2-101K19,7,641,AS,exp,29,←,right,→,0.5971019999997225,False,7,-1,0,15
Y2-S2-101K19,7,642,AS,exp,32,→,right,→,0.5210995999805164,True,8,-1,0,15
Y2-S2-101K19,7,643,AS,exp,26,↓,down,↓,0.6938206999911927,True,8,-1,0,15
Y2-S2-101K19,7,644,AS,exp,42,↑,right,→,1.0218685999861918,False,8,-1,0,15
Y2-S2-101K19,7,645,AS,exp,27,→,left,←,0.6135250999941491,False,9,-1,0,15
Y2-S2-101K19,7,646,AS,exp,32,←,left,←,1.0714863000030164,True,10,-1,0,15
Y2-S2-101K19,7,647,AS,exp,50,↑,up,↑,0.5857678999891505,True,10,-1,0,15
Y2-S2-101K19,7,648,AS,exp,39,↓,down,↓,0.7130065000092145,True,10,1,1,16
Y2-S2-101K19,8,649,PS,intra_train,34,→,right,→,0.5477243999775965,True,15,-,-,-
Y2-S2-101K19,8,650,PS,intra_train,49,↓,down,↓,0.5905179000110365,True,15,-,-,-
Y2-S2-101K19,8,651,PS,intra_train,43,→,right,→,0.6405749999976251,True,15,-,-,-
Y2-S2-101K19,8,652,PS,intra_train,34,↓,down,↓,0.5635034000151791,True,15,-,-,-
Y2-S2-101K19,8,653,PS,intra_train,41,↑,up,↑,0.5064943000033963,True,15,-,-,-
Y2-S2-101K19,8,654,PS,exp,38,←,left,←,0.499787800014019,True,10,0,0,0
Y2-S2-101K19,8,655,PS,exp,35,↓,down,↓,0.6682352000207175,True,10,0,0,0
Y2-S2-101K19,8,656,PS,exp,49,→,right,→,0.4988403999886941,True,10,1,0,0
Y2-S2-101K19,8,657,PS,exp,29,↑,left,←,1.027572399994824,False,9,-1,1,1
Y2-S2-101K19,8,658,PS,exp,41,→,right,→,0.5334539999894332,True,10,-1,0,1
Y2-S2-101K19,8,659,PS,exp,25,←,left,←,0.5220125000050757,True,10,-1,0,1
Y2-S2-101K19,8,660,PS,exp,48,→,right,→,0.96534409999731,True,10,1,1,2
Y2-S2-101K19,8,661,PS,exp,35,←,left,←,0.533818900003098,True,9,1,0,2
Y2-S2-101K19,8,662,PS,exp,29,↑,left,←,0.7452693999803159,False,9,-1,1,3
Y2-S2-101K19,8,663,PS,exp,32,→,right,→,0.5552352000086103,True,10,-1,0,3
Y2-S2-101K19,8,664,PS,exp,33,↑,right,→,0.941574699972989,False,10,-1,0,3
Y2-S2-101K19,8,665,PS,exp,25,↓,down,↓,0.6995719000115059,True,11,-1,0,3
Y2-S2-101K19,8,666,PS,exp,27,←,left,←,0.8333533000259195,True,11,-1,0,3
Y2-S2-101K19,8,667,PS,exp,31,↓,right,→,1.110762900003465,False,11,-1,0,3
Y2-S2-101K19,8,668,PS,exp,43,→,right,→,0.5188221000134945,True,12,-1,0,3
Y2-S2-101K19,8,669,PS,exp,44,↑,up,↑,0.682928099995479,True,12,-1,0,3
Y2-S2-101K19,8,670,PS,exp,37,←,left,←,0.5649910000211094,True,12,1,1,4
Y2-S2-101K19,8,671,PS,exp,33,↑,up,↑,0.6479029000038281,True,11,1,0,4
Y2-S2-101K19,8,672,PS,exp,37,←,right,→,0.6817648000142071,False,11,-1,1,5
Y2-S2-101K19,8,673,PS,exp,26,↑,up,↑,0.8070058000157587,True,12,-1,0,5
Y2-S2-101K19,8,674,PS,exp,33,↓,down,↓,0.7796206999919377,True,12,-1,0,5
Y2-S2-101K19,8,675,PS,exp,32,←,left,←,0.5741311000019778,True,12,1,1,6
Y2-S2-101K19,8,676,PS,exp,31,→,right,→,0.6793461999914143,True,11,1,0,6
Y2-S2-101K19,8,677,PS,exp,47,←,left,←,0.5706843000079971,True,11,1,0,6
Y2-S2-101K19,8,678,PS,exp,41,→,right,→,0.5579859999998007,True,11,1,0,6
Y2-S2-101K19,8,679,PS,exp,37,←,left,←,0.9765887999965344,True,10,1,0,6
Y2-S2-101K19,8,680,PS,exp,37,↑,left,←,0.7091177999973297,False,10,-1,1,7
Y2-S2-101K19,8,681,PS,exp,28,←,left,←,0.5059752000088338,True,11,-1,0,7
Y2-S2-101K19,8,682,PS,exp,28,→,right,→,0.5509563000232447,True,11,-1,0,7
Y2-S2-101K19,8,683,PS,exp,38,↓,down,↓,0.6659616999968421,True,11,1,1,8
Y2-S2-101K19,8,684,PS,exp,34,↑,up,↑,0.7051973999768961,True,10,1,0,8
Y2-S2-101K19,8,685,PS,exp,32,→,right,→,0.4942872000101488,True,10,1,0,8
Y2-S2-101K19,8,686,PS,exp,49,↑,up,↑,0.7387880999885965,True,10,1,0,8
Y2-S2-101K19,8,687,PS,exp,27,↓,right,→,0.813977599987993,False,9,-1,1,9
Y2-S2-101K19,8,688,PS,exp,49,→,right,→,0.495751599984942,True,10,-1,0,9
Y2-S2-101K19,8,689,PS,exp,38,↓,down,↓,0.7354913000017405,True,10,-1,0,9
Y2-S2-101K19,8,690,PS,exp,40,↑,right,→,0.7714974000118673,False,10,-1,0,9
Y2-S2-101K19,8,691,PS,exp,41,←,left,←,0.5914509000140242,True,11,-1,0,9
Y2-S2-101K19,8,692,PS,exp,49,↓,down,↓,0.6325867999985348,True,11,-1,0,9
Y2-S2-101K19,8,693,PS,exp,32,→,right,→,0.667045699985465,True,11,1,1,10
Y2-S2-101K19,8,694,PS,exp,35,←,right,→,0.6183987999975216,False,10,-1,1,11
Y2-S2-101K19,8,695,PS,exp,39,↓,left,←,1.3443222000205424,False,11,-1,0,11
Y2-S2-101K19,8,696,PS,exp,39,→,right,→,0.6561758000170812,True,12,-1,0,11
Y2-S2-101K19,8,697,PS,exp,46,↓,down,↓,0.6122090000135358,True,12,-1,0,11
Y2-S2-101K19,8,698,PS,exp,45,↑,up,↑,0.5785942999937106,True,12,1,1,12
Y2-S2-101K19,8,699,PS,exp,38,←,left,←,0.5103645000199322,True,11,1,0,12
Y2-S2-101K19,8,700,PS,exp,27,↓,down,↓,0.5138904999766964,True,11,1,0,12
Y2-S2-101K19,8,701,PS,exp,33,→,right,→,0.5928123999910895,True,11,1,0,12
Y2-S2-101K19,8,702,PS,exp,47,↓,left,←,0.7693627999979071,False,10,-1,1,13
Y2-S2-101K19,8,703,PS,exp,47,←,left,←,0.5126355999964289,True,11,-1,0,13
Y2-S2-101K19,8,704,PS,exp,38,↓,down,↓,0.7293225000030361,True,11,-1,0,13
Y2-S2-101K19,8,705,PS,exp,50,→,right,→,0.4777909000113141,True,11,1,1,14
Y2-S2-101K19,8,706,PS,exp,40,←,left,←,0.6171188000007533,True,10,1,0,14
Y2-S2-101K19,8,707,PS,exp,42,→,right,→,0.6517455999855883,True,10,1,0,14
Y2-S2-101K19,8,708,PS,exp,29,←,left,←,0.465872800006764,True,10,1,0,14
Y2-S2-101K19,8,709,PS,exp,46,→,right,→,0.717976699990686,True,9,1,0,14
Y2-S2-101K19,8,710,PS,exp,27,↑,up,↑,0.6003231999929994,True,9,1,0,14
Y2-S2-101K19,8,711,PS,exp,46,←,left,←,0.5151020000048447,True,9,1,0,14
Y2-S2-101K19,8,712,PS,exp,37,→,right,→,0.6467073000094388,True,8,1,0,14
Y2-S2-101K19,8,713,PS,exp,26,↓,down,↓,0.6305165000085253,True,8,1,0,14
Y2-S2-101K19,8,714,PS,exp,44,↑,right,→,0.6971542999963276,False,8,-1,1,15
Y2-S2-101K19,8,715,PS,exp,38,→,down,↓,1.567162699997425,False,9,-1,0,15
Y2-S2-101K19,8,716,PS,exp,34,↑,up,↑,0.5549311999930069,True,10,-1,0,15
Y2-S2-101K19,8,717,PS,exp,34,↓,down,↓,0.4774782999884337,True,10,-1,0,15
Y2-S2-101K19,8,718,PS,exp,48,↑,up,↑,0.545682099997066,True,10,1,1,16
