PART_ID,Block_no,Trial_no,Block_type,Trial_type,CSI,Stim_letter,Key_pressed,letter_choose,Rt,Corr,Stimulus Time,Level,Reversal,Revs_count
Y2-S2-169M21,1,1,PS,train,28,←,no_key,no_letter,-1.0,False,30,-,-,-
Y2-S2-169M21,1,2,PS,train,27,↓,left,←,0.38427159981802106,False,30,-,-,-
Y2-S2-169M21,1,3,PS,train,50,←,left,←,0.43434049980714917,True,30,-,-,-
Y2-S2-169M21,1,4,PS,train,43,→,right,→,0.5008475999347866,True,30,-,-,-
Y2-S2-169M21,1,5,PS,train,45,←,left,←,0.434283500071615,True,30,-,-,-
Y2-S2-169M21,1,6,PS,train,37,→,right,→,0.5004282998852432,True,30,-,-,-
Y2-S2-169M21,1,7,PS,train,30,↓,left,←,0.5008612000383437,False,30,-,-,-
Y2-S2-169M21,1,8,PS,train,27,←,left,←,0.5007983003742993,True,30,-,-,-
Y2-S2-169M21,1,9,PS,train,25,↑,down,↓,0.5337542998604476,False,30,-,-,-
Y2-S2-169M21,1,10,PS,train,37,←,left,←,0.41778350016102195,True,30,-,-,-
Y2-S2-169M21,2,11,AS,train,35,↑,up,↑,0.6339471000246704,True,45,-,-,-
Y2-S2-169M21,2,12,AS,train,38,←,left,←,0.4513075998984277,True,45,-,-,-
Y2-S2-169M21,2,13,AS,train,27,↑,right,→,0.6346273999661207,False,45,-,-,-
Y2-S2-169M21,2,14,AS,train,29,←,left,←,0.5011597000993788,True,45,-,-,-
Y2-S2-169M21,2,15,AS,train,35,↑,up,↑,0.5010519996285439,True,45,-,-,-
Y2-S2-169M21,2,16,AS,train,36,↓,down,↓,0.6843117997050285,True,45,-,-,-
Y2-S2-169M21,2,17,AS,train,38,→,left,←,0.3842986999079585,False,45,-,-,-
Y2-S2-169M21,2,18,AS,train,27,↑,up,↑,0.8504498996771872,True,45,-,-,-
Y2-S2-169M21,2,19,AS,train,27,↓,down,↓,0.6673965002410114,True,45,-,-,-
Y2-S2-169M21,2,20,AS,train,43,→,left,←,0.48463299963623285,False,45,-,-,-
Y2-S2-169M21,-,21,PS,adaptive,49,↓,left,←,1.5610612002201378,False,10,-1,0,0
Y2-S2-169M21,-,22,PS,adaptive,46,→,right,→,0.49769659992307425,True,11,-1,0,0
Y2-S2-169M21,-,23,PS,adaptive,44,←,right,→,0.7193272998556495,False,11,-1,0,0
Y2-S2-169M21,-,24,PS,adaptive,47,→,left,←,0.9018135000951588,False,12,-1,0,0
Y2-S2-169M21,-,25,PS,adaptive,41,↓,right,→,0.6521821999922395,False,13,-1,0,0
Y2-S2-169M21,-,26,PS,adaptive,29,↑,up,↑,0.42469360027462244,True,14,-1,0,0
Y2-S2-169M21,-,27,PS,adaptive,28,←,left,←,0.43903160002082586,True,14,-1,0,0
Y2-S2-169M21,-,28,PS,adaptive,37,↓,up,↑,0.7747526997700334,False,14,-1,0,0
Y2-S2-169M21,-,29,PS,adaptive,27,↑,up,↑,0.41849449975416064,True,15,-1,0,0
Y2-S2-169M21,-,30,PS,adaptive,36,↓,up,↑,0.7505451999604702,False,15,-1,0,0
Y2-S2-169M21,-,31,PS,adaptive,26,←,left,←,0.4694488001987338,True,16,-1,0,0
Y2-S2-169M21,-,32,PS,adaptive,33,↓,down,↓,0.5265711997635663,True,16,-1,0,0
Y2-S2-169M21,-,33,PS,adaptive,41,→,right,→,0.5928726000711322,True,16,1,1,1
Y2-S2-169M21,-,34,PS,adaptive,38,↓,down,↓,0.8181556998752058,True,15,1,0,1
Y2-S2-169M21,-,35,PS,adaptive,35,→,down,↓,0.7231103996746242,False,15,-1,1,2
Y2-S2-169M21,-,36,PS,adaptive,45,←,left,←,0.38379770005121827,True,16,-1,0,2
Y2-S2-169M21,-,37,PS,adaptive,49,↓,down,↓,0.5001752004027367,True,16,-1,0,2
Y2-S2-169M21,-,38,PS,adaptive,50,←,right,→,0.5220490000210702,False,16,-1,0,2
Y2-S2-169M21,-,39,PS,adaptive,29,↑,up,↑,0.4574740999378264,True,17,-1,0,2
Y2-S2-169M21,-,40,PS,adaptive,41,↓,right,→,0.6742233000695705,False,17,-1,0,2
Y2-S2-169M21,-,41,PS,adaptive,32,→,right,→,1.1007826998829842,True,18,-1,0,2
Y2-S2-169M21,-,42,PS,adaptive,48,←,left,←,1.01288599986583,True,18,-1,0,2
Y2-S2-169M21,-,43,PS,adaptive,39,→,right,→,0.5593002997338772,True,18,1,1,3
Y2-S2-169M21,-,44,PS,adaptive,42,←,left,←,1.0734954997897148,True,17,1,0,3
Y2-S2-169M21,-,45,PS,adaptive,46,↓,down,↓,0.5856264000758529,True,17,1,0,3
Y2-S2-169M21,-,46,PS,adaptive,47,←,left,←,0.8339855996891856,True,17,1,0,3
Y2-S2-169M21,-,47,PS,adaptive,47,→,right,→,0.46271179988980293,True,16,1,0,3
Y2-S2-169M21,-,48,PS,adaptive,41,↓,up,↑,0.6121580000035465,False,16,-1,1,4
Y2-S2-169M21,-,49,AS,adaptive,40,↑,right,→,0.4004579000174999,False,20,-1,0,0
Y2-S2-169M21,-,50,AS,adaptive,34,→,down,↓,0.8172039003111422,False,21,-1,0,0
Y2-S2-169M21,-,51,AS,adaptive,25,↑,down,↓,0.5749201998114586,False,22,-1,0,0
Y2-S2-169M21,-,52,AS,adaptive,32,↓,down,↓,0.46758729964494705,True,23,-1,0,0
Y2-S2-169M21,-,53,AS,adaptive,33,←,right,→,0.45051310025155544,False,23,-1,0,0
Y2-S2-169M21,-,54,AS,adaptive,47,→,left,←,0.4673305000178516,False,24,-1,0,0
Y2-S2-169M21,-,55,AS,adaptive,39,←,left,←,0.41707680001854897,True,25,-1,0,0
Y2-S2-169M21,-,56,AS,adaptive,34,→,right,→,0.451381899882108,True,25,-1,0,0
Y2-S2-169M21,-,57,AS,adaptive,25,↑,up,↑,0.43411509972065687,True,25,1,1,1
Y2-S2-169M21,-,58,AS,adaptive,48,←,left,←,0.7384726000018418,True,24,1,0,1
Y2-S2-169M21,-,59,AS,adaptive,36,↓,down,↓,0.722783399745822,True,24,1,0,1
Y2-S2-169M21,-,60,AS,adaptive,26,←,right,→,0.5171511000953615,False,24,-1,1,2
Y2-S2-169M21,-,61,AS,adaptive,45,↑,up,↑,0.41734990011900663,True,25,-1,0,2
Y2-S2-169M21,-,62,AS,adaptive,26,↓,down,↓,0.5915336003527045,True,25,-1,0,2
Y2-S2-169M21,-,63,AS,adaptive,40,←,left,←,0.6682691001333296,True,25,1,1,3
Y2-S2-169M21,-,64,AS,adaptive,41,↑,up,↑,0.9245040002278984,True,24,1,0,3
Y2-S2-169M21,-,65,AS,adaptive,33,→,right,→,0.5337110999971628,True,24,1,0,3
Y2-S2-169M21,-,66,AS,adaptive,35,↓,down,↓,0.5993900001049042,True,24,1,0,3
Y2-S2-169M21,-,67,AS,adaptive,35,←,right,→,0.5169044998474419,False,23,-1,1,4
Y2-S2-169M21,1,68,AS,intra_train,35,↓,left,←,0.20095730014145374,False,36,-,-,-
Y2-S2-169M21,1,69,AS,intra_train,31,→,right,→,0.46749090030789375,True,36,-,-,-
Y2-S2-169M21,1,70,AS,intra_train,31,↑,down,↓,0.5839337999932468,False,36,-,-,-
Y2-S2-169M21,1,71,AS,intra_train,30,←,left,←,0.3843568000011146,True,36,-,-,-
Y2-S2-169M21,1,72,AS,intra_train,46,→,right,→,0.45115819992497563,True,36,-,-,-
Y2-S2-169M21,1,73,AS,exp,31,←,right,→,0.5175087000243366,False,24,-1,0,0
Y2-S2-169M21,1,74,AS,exp,43,↑,up,↑,0.4506357000209391,True,25,-1,0,0
Y2-S2-169M21,1,75,AS,exp,42,←,left,←,0.5505760996602476,True,25,-1,0,0
Y2-S2-169M21,1,76,AS,exp,41,→,left,←,0.5877046999521554,False,25,-1,0,0
Y2-S2-169M21,1,77,AS,exp,44,←,left,←,1.1780419000424445,True,26,-1,0,0
Y2-S2-169M21,1,78,AS,exp,37,→,right,→,0.4503925000317395,True,26,-1,0,0
Y2-S2-169M21,1,79,AS,exp,28,↑,up,↑,0.6411594999954104,True,26,1,1,1
Y2-S2-169M21,1,80,AS,exp,48,→,right,→,0.4506844002753496,True,25,1,0,1
Y2-S2-169M21,1,81,AS,exp,30,←,left,←,0.6408462999388576,True,25,1,0,1
Y2-S2-169M21,1,82,AS,exp,36,↑,up,↑,0.4342548996210098,True,25,1,0,1
Y2-S2-169M21,1,83,AS,exp,48,→,right,→,0.400605000089854,True,24,1,0,1
Y2-S2-169M21,1,84,AS,exp,33,↓,up,↑,0.41713269986212254,False,24,-1,1,2
Y2-S2-169M21,1,85,AS,exp,26,←,left,←,0.5505971000529826,True,25,-1,0,2
Y2-S2-169M21,1,86,AS,exp,28,↓,down,↓,0.7326167998835444,True,25,-1,0,2
Y2-S2-169M21,1,87,AS,exp,30,→,right,→,0.4337007999420166,True,25,1,1,3
Y2-S2-169M21,1,88,AS,exp,31,←,left,←,0.4003551001660526,True,24,1,0,3
Y2-S2-169M21,1,89,AS,exp,50,↓,down,↓,0.5925220996141434,True,24,1,0,3
Y2-S2-169M21,1,90,AS,exp,35,↑,up,↑,0.4836508999578655,True,24,1,0,3
Y2-S2-169M21,1,91,AS,exp,45,←,left,←,0.4339550002478063,True,23,1,0,3
Y2-S2-169M21,1,92,AS,exp,27,↑,up,↑,0.4172284002415836,True,23,1,0,3
Y2-S2-169M21,1,93,AS,exp,31,←,left,←,0.5850701997987926,True,23,1,0,3
Y2-S2-169M21,1,94,AS,exp,44,↑,up,↑,0.4173469999805093,True,22,1,0,3
Y2-S2-169M21,1,95,AS,exp,47,↓,down,↓,0.7526735002174973,True,22,1,0,3
Y2-S2-169M21,1,96,AS,exp,48,↑,up,↑,0.4177341000176966,True,22,1,0,3
Y2-S2-169M21,1,97,AS,exp,40,↓,up,↑,0.8920550998300314,False,21,-1,1,4
Y2-S2-169M21,1,98,AS,exp,30,→,right,→,0.6304628998041153,True,22,-1,0,4
Y2-S2-169M21,1,99,AS,exp,42,↓,down,↓,0.5829049004241824,True,22,-1,0,4
Y2-S2-169M21,1,100,AS,exp,39,↑,up,↑,0.46768679982051253,True,22,1,1,5
Y2-S2-169M21,1,101,AS,exp,48,↓,down,↓,0.4841418000869453,True,21,1,0,5
Y2-S2-169M21,1,102,AS,exp,26,→,right,→,0.5500097000040114,True,21,1,0,5
Y2-S2-169M21,1,103,AS,exp,36,↓,down,↓,0.5951004000380635,True,21,1,0,5
Y2-S2-169M21,1,104,AS,exp,27,↑,up,↑,0.43393819965422153,True,20,1,0,5
Y2-S2-169M21,1,105,AS,exp,44,←,left,←,0.3506020000204444,True,20,1,0,5
Y2-S2-169M21,1,106,AS,exp,27,→,right,→,0.5458944998681545,True,20,1,0,5
Y2-S2-169M21,1,107,AS,exp,38,↑,down,↓,0.5958688999526203,False,19,-1,1,6
Y2-S2-169M21,1,108,AS,exp,35,→,right,→,0.519567200448364,True,20,-1,0,6
Y2-S2-169M21,1,109,AS,exp,46,↓,up,↑,0.6452914997935295,False,20,-1,0,6
Y2-S2-169M21,1,110,AS,exp,30,↑,right,→,0.5540960999205709,False,21,-1,0,6
Y2-S2-169M21,1,111,AS,exp,27,←,right,→,0.6449242997914553,False,22,-1,0,6
Y2-S2-169M21,1,112,AS,exp,38,↓,down,↓,0.5873085996136069,True,23,-1,0,6
Y2-S2-169M21,1,113,AS,exp,39,←,down,↓,0.6965153003111482,False,23,-1,0,6
Y2-S2-169M21,1,114,AS,exp,34,↓,down,↓,0.5740066999569535,True,24,-1,0,6
Y2-S2-169M21,1,115,AS,exp,48,→,right,→,0.5177485002204776,True,24,-1,0,6
Y2-S2-169M21,1,116,AS,exp,28,←,right,→,0.5336982998996973,False,24,-1,0,6
Y2-S2-169M21,1,117,AS,exp,49,↑,up,↑,0.4842656999826431,True,25,-1,0,6
Y2-S2-169M21,1,118,AS,exp,43,→,right,→,0.43407389987260103,True,25,-1,0,6
Y2-S2-169M21,1,119,AS,exp,33,↑,up,↑,0.7962682000361383,True,25,1,1,7
Y2-S2-169M21,1,120,AS,exp,28,→,up,↑,0.5340982000343502,False,24,-1,1,8
Y2-S2-169M21,1,121,AS,exp,42,↑,up,↑,0.41722889989614487,True,25,-1,0,8
Y2-S2-169M21,1,122,AS,exp,49,↓,up,↑,0.5339945000596344,False,25,-1,0,8
Y2-S2-169M21,1,123,AS,exp,48,→,right,→,0.5507004000246525,True,26,-1,0,8
Y2-S2-169M21,1,124,AS,exp,39,←,right,→,0.4667876996099949,False,26,-1,0,8
Y2-S2-169M21,1,125,AS,exp,47,↑,up,↑,0.5672551998868585,True,27,-1,0,8
Y2-S2-169M21,1,126,AS,exp,50,→,right,→,0.45039189979434013,True,27,-1,0,8
Y2-S2-169M21,1,127,AS,exp,34,↑,up,↑,0.40084420004859567,True,27,1,1,9
Y2-S2-169M21,1,128,AS,exp,50,→,right,→,0.7034073998220265,True,26,1,0,9
Y2-S2-169M21,1,129,AS,exp,25,↑,up,↑,0.41718490002676845,True,26,1,0,9
Y2-S2-169M21,1,130,AS,exp,38,→,right,→,0.4841086999513209,True,26,1,0,9
Y2-S2-169M21,1,131,AS,exp,29,↑,up,↑,0.6189966001547873,True,25,1,0,9
Y2-S2-169M21,1,132,AS,exp,29,→,right,→,0.4667353997938335,True,25,1,0,9
Y2-S2-169M21,1,133,AS,exp,31,↑,up,↑,0.45069089997559786,True,25,1,0,9
Y2-S2-169M21,1,134,AS,exp,31,←,left,←,0.8518365998752415,True,24,1,0,9
Y2-S2-169M21,1,135,AS,exp,30,→,right,→,0.5172558999620378,True,24,1,0,9
Y2-S2-169M21,1,136,AS,exp,50,←,left,←,0.4508401998318732,True,24,1,0,9
Y2-S2-169M21,1,137,AS,exp,35,↑,up,↑,0.665994199924171,True,23,1,0,9
Y2-S2-169M21,1,138,AS,exp,28,←,left,←,0.6204415000975132,True,23,1,0,9
Y2-S2-169M21,1,139,AS,exp,39,→,left,←,0.5732563002966344,False,23,-1,1,10
Y2-S2-169M21,1,140,AS,exp,47,←,left,←,0.7949374001473188,True,24,-1,0,10
Y2-S2-169M21,1,141,AS,exp,43,↑,up,↑,0.6313792001456022,True,24,-1,0,10
Y2-S2-169M21,1,142,AS,exp,31,↓,down,↓,0.7465888997539878,True,24,1,1,11
Y2-S2-169M21,1,143,AS,exp,32,→,right,→,0.6867360002361238,True,23,1,0,11
Y2-S2-169M21,1,144,AS,exp,34,↑,up,↑,0.6445352002047002,True,23,1,0,11
Y2-S2-169M21,1,145,AS,exp,48,↓,down,↓,0.6195081998594105,True,23,1,0,11
Y2-S2-169M21,1,146,AS,exp,49,→,right,→,0.7827313002198935,True,22,1,0,11
Y2-S2-169M21,1,147,AS,exp,30,↓,up,↑,0.43453870015218854,False,22,-1,1,12
Y2-S2-169M21,1,148,AS,exp,30,↑,up,↑,0.48418069956824183,True,23,-1,0,12
Y2-S2-169M21,1,149,AS,exp,29,←,left,←,0.4670591000467539,True,23,-1,0,12
Y2-S2-169M21,1,150,AS,exp,38,↑,up,↑,0.589094600174576,True,23,1,1,13
Y2-S2-169M21,1,151,AS,exp,33,←,left,←,0.6402687001973391,True,22,1,0,13
Y2-S2-169M21,1,152,AS,exp,29,↑,right,→,0.5348006999120116,False,22,-1,1,14
Y2-S2-169M21,1,153,AS,exp,49,↓,up,↑,0.3837114996276796,False,23,-1,0,14
Y2-S2-169M21,1,154,AS,exp,38,←,left,←,0.4670188003219664,True,24,-1,0,14
Y2-S2-169M21,1,155,AS,exp,36,→,right,→,0.4175170003436506,True,24,-1,0,14
Y2-S2-169M21,1,156,AS,exp,32,↓,down,↓,0.5007365001365542,True,24,1,1,15
Y2-S2-169M21,1,157,AS,exp,50,↑,down,↓,0.5999179002828896,False,23,-1,1,16
Y2-S2-169M21,2,158,PS,intra_train,26,→,right,→,0.5995046999305487,True,25,-,-,-
Y2-S2-169M21,2,159,PS,intra_train,50,↑,up,↑,0.4008335000835359,True,25,-,-,-
Y2-S2-169M21,2,160,PS,intra_train,46,↓,down,↓,0.5000722999684513,True,25,-,-,-
Y2-S2-169M21,2,161,PS,intra_train,31,→,right,→,0.6025022999383509,True,25,-,-,-
Y2-S2-169M21,2,162,PS,intra_train,29,←,right,→,0.7406653999350965,False,25,-,-,-
Y2-S2-169M21,2,163,PS,exp,48,→,left,←,0.8232836001552641,False,17,-1,0,0
Y2-S2-169M21,2,164,PS,exp,36,↑,left,←,0.6743386001326144,False,18,-1,0,0
Y2-S2-169M21,2,165,PS,exp,27,↓,up,↑,0.5886669000610709,False,19,-1,0,0
Y2-S2-169M21,2,166,PS,exp,28,↑,right,→,0.6968384999781847,False,20,-1,0,0
Y2-S2-169M21,2,167,PS,exp,37,←,right,→,1.0253288000822067,False,21,-1,0,0
Y2-S2-169M21,2,168,PS,exp,48,↑,up,↑,0.4511848003603518,True,22,-1,0,0
Y2-S2-169M21,2,169,PS,exp,37,←,left,←,0.4340018001385033,True,22,-1,0,0
Y2-S2-169M21,2,170,PS,exp,40,↓,up,↑,1.5605462999083102,False,22,-1,0,0
Y2-S2-169M21,2,171,PS,exp,48,→,left,←,0.3839987996034324,False,23,-1,0,0
Y2-S2-169M21,2,172,PS,exp,37,←,left,←,0.910984099842608,True,24,-1,0,0
Y2-S2-169M21,2,173,PS,exp,27,→,right,→,0.7202154998667538,True,24,-1,0,0
Y2-S2-169M21,2,174,PS,exp,25,↓,down,↓,1.0591091001406312,True,24,1,1,1
Y2-S2-169M21,2,175,PS,exp,28,↑,up,↑,0.8531591999344528,True,23,1,0,1
Y2-S2-169M21,2,176,PS,exp,47,→,right,→,0.8893034001812339,True,23,1,0,1
Y2-S2-169M21,2,177,PS,exp,28,↓,right,→,0.6139504001475871,False,23,-1,1,2
Y2-S2-169M21,2,178,PS,exp,31,←,left,←,0.4840442002750933,True,24,-1,0,2
Y2-S2-169M21,2,179,PS,exp,44,→,right,→,0.6561472998000681,True,24,-1,0,2
Y2-S2-169M21,2,180,PS,exp,43,↓,down,↓,0.7984694000333548,True,24,1,1,3
Y2-S2-169M21,2,181,PS,exp,48,←,left,←,0.5006042998284101,True,23,1,0,3
Y2-S2-169M21,2,182,PS,exp,43,→,right,→,0.5171966999769211,True,23,1,0,3
Y2-S2-169M21,2,183,PS,exp,43,←,right,→,0.608790900092572,False,23,-1,1,4
Y2-S2-169M21,2,184,PS,exp,47,→,right,→,0.4506027000024915,True,24,-1,0,4
Y2-S2-169M21,2,185,PS,exp,25,←,left,←,0.8244854998774827,True,24,-1,0,4
Y2-S2-169M21,2,186,PS,exp,25,→,right,→,0.5734709003008902,True,24,1,1,5
Y2-S2-169M21,2,187,PS,exp,37,←,right,→,0.8711339998990297,False,23,-1,1,6
Y2-S2-169M21,2,188,PS,exp,49,→,right,→,0.4671752001158893,True,24,-1,0,6
Y2-S2-169M21,2,189,PS,exp,40,↑,left,←,0.8069494003430009,False,24,-1,0,6
Y2-S2-169M21,2,190,PS,exp,43,→,right,→,0.8979687998071313,True,25,-1,0,6
Y2-S2-169M21,2,191,PS,exp,30,←,right,→,0.7808772004209459,False,25,-1,0,6
Y2-S2-169M21,2,192,PS,exp,27,→,right,→,0.4675306002609432,True,26,-1,0,6
Y2-S2-169M21,2,193,PS,exp,36,←,left,←,0.46715019969269633,True,26,-1,0,6
Y2-S2-169M21,2,194,PS,exp,29,→,right,→,0.6906014000996947,True,26,1,1,7
Y2-S2-169M21,2,195,PS,exp,49,←,right,→,0.6234622998163104,False,25,-1,1,8
Y2-S2-169M21,2,196,PS,exp,38,↑,left,←,0.6990152997896075,False,26,-1,0,8
Y2-S2-169M21,2,197,PS,exp,28,←,left,←,0.4510483001358807,True,27,-1,0,8
Y2-S2-169M21,2,198,PS,exp,25,↑,right,→,0.6754581001587212,False,27,-1,0,8
Y2-S2-169M21,2,199,PS,exp,32,↓,down,↓,0.5841143997386098,True,28,-1,0,8
Y2-S2-169M21,2,200,PS,exp,49,↑,up,↑,0.7018841998651624,True,28,-1,0,8
Y2-S2-169M21,2,201,PS,exp,37,←,left,←,0.36782340006902814,True,28,1,1,9
Y2-S2-169M21,2,202,PS,exp,48,↑,left,←,0.5838650004006922,False,27,-1,1,10
Y2-S2-169M21,2,203,PS,exp,45,↓,down,↓,0.5337513000704348,True,28,-1,0,10
Y2-S2-169M21,2,204,PS,exp,31,↑,left,←,0.5337952999398112,False,28,-1,0,10
Y2-S2-169M21,2,205,PS,exp,45,→,right,→,0.5506082000210881,True,29,-1,0,10
Y2-S2-169M21,2,206,PS,exp,32,←,left,←,0.7311256001703441,True,29,-1,0,10
Y2-S2-169M21,2,207,PS,exp,31,↑,no_key,no_letter,-1.0,False,29,-1,0,10
Y2-S2-169M21,2,208,PS,exp,31,→,right,→,0.4501954996958375,True,30,-1,0,10
Y2-S2-169M21,2,209,PS,exp,27,↓,up,↑,1.3654485000297427,False,30,-1,0,10
Y2-S2-169M21,2,210,PS,exp,47,↑,up,↑,0.4340397003106773,True,31,-1,0,10
Y2-S2-169M21,2,211,PS,exp,39,←,left,←,0.8123646997846663,True,31,-1,0,10
Y2-S2-169M21,2,212,PS,exp,45,↑,up,↑,0.38359390012919903,True,31,1,1,11
Y2-S2-169M21,2,213,PS,exp,47,→,right,→,0.4010050003416836,True,30,1,0,11
Y2-S2-169M21,2,214,PS,exp,32,←,left,←,0.4838041001930833,True,30,1,0,11
Y2-S2-169M21,2,215,PS,exp,45,↑,up,↑,0.38509050011634827,True,30,1,0,11
Y2-S2-169M21,2,216,PS,exp,48,↓,up,↑,0.45141789969056845,False,29,-1,1,12
Y2-S2-169M21,2,217,PS,exp,26,→,right,→,0.48380549997091293,True,30,-1,0,12
Y2-S2-169M21,2,218,PS,exp,35,←,left,←,0.43446150003001094,True,30,-1,0,12
Y2-S2-169M21,2,219,PS,exp,25,↑,up,↑,0.45088989986106753,True,30,1,1,13
Y2-S2-169M21,2,220,PS,exp,25,→,right,→,0.8265913999639452,True,29,1,0,13
Y2-S2-169M21,2,221,PS,exp,37,←,left,←,0.40115749975666404,True,29,1,0,13
Y2-S2-169M21,2,222,PS,exp,31,→,right,→,0.9398066001012921,True,29,1,0,13
Y2-S2-169M21,2,223,PS,exp,50,↑,up,↑,0.40104010002687573,True,28,1,0,13
Y2-S2-169M21,2,224,PS,exp,31,←,left,←,0.5339391999877989,True,28,1,0,13
Y2-S2-169M21,2,225,PS,exp,49,→,right,→,0.4342209999449551,True,28,1,0,13
Y2-S2-169M21,2,226,PS,exp,27,↓,down,↓,0.5507401996292174,True,27,1,0,13
Y2-S2-169M21,2,227,PS,exp,48,→,right,→,0.3677023998461664,True,27,1,0,13
Y2-S2-169M21,2,228,PS,exp,49,↑,up,↑,0.4174920003861189,True,27,1,0,13
Y2-S2-169M21,2,229,PS,exp,29,←,left,←,0.4177973000332713,True,26,1,0,13
Y2-S2-169M21,2,230,PS,exp,38,↑,up,↑,0.8019612999632955,True,26,1,0,13
Y2-S2-169M21,2,231,PS,exp,30,↓,down,↓,0.8859087997116148,True,26,1,0,13
Y2-S2-169M21,2,232,PS,exp,50,↑,up,↑,0.4841120997443795,True,25,1,0,13
Y2-S2-169M21,2,233,PS,exp,36,↓,down,↓,0.9145929999649525,True,25,1,0,13
Y2-S2-169M21,2,234,PS,exp,44,←,left,←,0.4172805002890527,True,25,1,0,13
Y2-S2-169M21,2,235,PS,exp,29,↑,up,↑,0.46753730019554496,True,24,1,0,13
Y2-S2-169M21,2,236,PS,exp,41,←,left,←,0.3511557001620531,True,24,1,0,13
Y2-S2-169M21,2,237,PS,exp,50,→,right,→,0.4669916001148522,True,24,1,0,13
Y2-S2-169M21,2,238,PS,exp,39,↓,down,↓,0.8182910997420549,True,23,1,0,13
Y2-S2-169M21,2,239,PS,exp,45,↑,up,↑,0.788236299995333,True,23,1,0,13
Y2-S2-169M21,2,240,PS,exp,40,↓,down,↓,0.7649024999700487,True,23,1,0,13
Y2-S2-169M21,2,241,PS,exp,42,→,right,→,0.611909800209105,True,22,1,0,13
Y2-S2-169M21,2,242,PS,exp,31,↑,left,←,1.5420609000138938,False,22,-1,1,14
Y2-S2-169M21,2,243,PS,exp,28,↓,down,↓,0.5005847997963428,True,23,-1,0,14
Y2-S2-169M21,2,244,PS,exp,38,↑,up,↑,0.4503846000880003,True,23,-1,0,14
Y2-S2-169M21,2,245,PS,exp,45,←,down,↓,0.9360016998834908,False,23,-1,0,14
Y2-S2-169M21,2,246,PS,exp,37,→,right,→,0.4005068000406027,True,24,-1,0,14
Y2-S2-169M21,2,247,PS,exp,46,↑,up,↑,0.4338213000446558,True,24,-1,0,14
Y2-S2-169M21,2,248,PS,exp,25,←,left,←,0.5176559998653829,True,24,1,1,15
Y2-S2-169M21,2,249,PS,exp,39,→,right,→,0.3672960000112653,True,23,1,0,15
Y2-S2-169M21,2,250,PS,exp,45,↑,up,↑,0.7344093001447618,True,23,1,0,15
Y2-S2-169M21,2,251,PS,exp,48,↓,down,↓,0.5171969998627901,True,23,1,0,15
Y2-S2-169M21,2,252,PS,exp,25,↑,up,↑,0.38405789993703365,True,22,1,0,15
Y2-S2-169M21,2,253,PS,exp,47,←,left,←,0.43379699997603893,True,22,1,0,15
Y2-S2-169M21,2,254,PS,exp,49,↑,up,↑,0.43392879981547594,True,22,1,0,15
Y2-S2-169M21,2,255,PS,exp,40,←,left,←,0.611326300073415,True,21,1,0,15
Y2-S2-169M21,2,256,PS,exp,43,↓,down,↓,0.8110692999325693,True,21,1,0,15
Y2-S2-169M21,2,257,PS,exp,38,→,right,→,0.4673437001183629,True,21,1,0,15
Y2-S2-169M21,2,258,PS,exp,31,←,left,←,0.9536088998429477,True,20,1,0,15
Y2-S2-169M21,2,259,PS,exp,42,→,right,→,0.4172723996452987,True,20,1,0,15
Y2-S2-169M21,2,260,PS,exp,37,↓,up,↑,0.7127312999218702,False,20,-1,1,16
Y2-S2-169M21,3,261,PS,intra_train,34,←,left,←,0.45058949990198016,True,25,-,-,-
Y2-S2-169M21,3,262,PS,intra_train,38,↑,up,↑,0.41722310008481145,True,25,-,-,-
Y2-S2-169M21,3,263,PS,intra_train,47,↓,down,↓,0.4839500002563,True,25,-,-,-
Y2-S2-169M21,3,264,PS,intra_train,37,→,right,→,0.40091959992423654,True,25,-,-,-
Y2-S2-169M21,3,265,PS,intra_train,35,←,left,←,0.43381679989397526,True,25,-,-,-
Y2-S2-169M21,3,266,PS,exp,46,→,right,→,0.4172491002827883,True,17,0,0,0
Y2-S2-169M21,3,267,PS,exp,30,←,up,↑,0.5198190999217331,False,17,-1,0,0
Y2-S2-169M21,3,268,PS,exp,26,→,left,←,0.49848389998078346,False,18,-1,0,0
Y2-S2-169M21,3,269,PS,exp,26,↑,up,↑,0.41777919977903366,True,19,-1,0,0
Y2-S2-169M21,3,270,PS,exp,46,→,right,→,1.3097887001931667,True,19,-1,0,0
Y2-S2-169M21,3,271,PS,exp,45,↑,up,↑,0.6022707996889949,True,19,1,1,1
Y2-S2-169M21,3,272,PS,exp,42,←,up,↑,0.8317738003097475,False,18,-1,1,2
Y2-S2-169M21,3,273,PS,exp,43,↓,down,↓,0.522365199867636,True,19,-1,0,2
Y2-S2-169M21,3,274,PS,exp,30,→,right,→,1.3621574002318084,True,19,-1,0,2
Y2-S2-169M21,3,275,PS,exp,48,←,left,←,0.45087770000100136,True,19,1,1,3
Y2-S2-169M21,3,276,PS,exp,47,↓,down,↓,0.47567540034651756,True,18,1,0,3
Y2-S2-169M21,3,277,PS,exp,36,→,right,→,0.5883772000670433,True,18,1,0,3
Y2-S2-169M21,3,278,PS,exp,39,←,left,←,0.4716167002916336,True,18,1,0,3
Y2-S2-169M21,3,279,PS,exp,36,→,right,→,0.7254081000573933,True,17,1,0,3
Y2-S2-169M21,3,280,PS,exp,44,↓,left,←,0.9427112000994384,False,17,-1,1,4
Y2-S2-169M21,3,281,PS,exp,47,→,right,→,0.6931810998357832,True,18,-1,0,4
Y2-S2-169M21,3,282,PS,exp,25,↑,up,↑,0.49045420018956065,True,18,-1,0,4
Y2-S2-169M21,3,283,PS,exp,31,←,left,←,0.4929709997959435,True,18,1,1,5
Y2-S2-169M21,3,284,PS,exp,32,↑,right,→,0.7299498002976179,False,17,-1,1,6
Y2-S2-169M21,3,285,PS,exp,28,↓,down,↓,0.5946665001101792,True,18,-1,0,6
Y2-S2-169M21,3,286,PS,exp,30,←,left,←,1.3126778001897037,True,18,-1,0,6
Y2-S2-169M21,3,287,PS,exp,35,↑,up,↑,0.8970809997990727,True,18,1,1,7
Y2-S2-169M21,3,288,PS,exp,41,←,left,←,0.4005444999784231,True,17,1,0,7
Y2-S2-169M21,3,289,PS,exp,43,→,left,←,0.4172435002401471,False,17,-1,1,8
Y2-S2-169M21,3,290,PS,exp,31,↑,left,←,0.7668403000570834,False,18,-1,0,8
Y2-S2-169M21,3,291,PS,exp,40,↓,down,↓,0.48719350015744567,True,19,-1,0,8
Y2-S2-169M21,3,292,PS,exp,27,←,left,←,0.5414729998447001,True,19,-1,0,8
Y2-S2-169M21,3,293,PS,exp,41,↓,down,↓,0.6675452999770641,True,19,1,1,9
Y2-S2-169M21,3,294,PS,exp,40,↑,up,↑,0.6300675002858043,True,18,1,0,9
Y2-S2-169M21,3,295,PS,exp,36,↓,down,↓,0.6891004000790417,True,18,1,0,9
Y2-S2-169M21,3,296,PS,exp,31,→,left,←,0.5658637001179159,False,18,-1,1,10
Y2-S2-169M21,3,297,PS,exp,25,↓,down,↓,0.537272300105542,True,19,-1,0,10
Y2-S2-169M21,3,298,PS,exp,25,→,left,←,0.5264823003672063,False,19,-1,0,10
Y2-S2-169M21,3,299,PS,exp,25,↑,up,↑,1.361920999828726,True,20,-1,0,10
Y2-S2-169M21,3,300,PS,exp,39,→,right,→,1.013533000368625,True,20,-1,0,10
Y2-S2-169M21,3,301,PS,exp,26,↑,up,↑,0.9041937999427319,True,20,1,1,11
Y2-S2-169M21,3,302,PS,exp,29,←,left,←,0.8579948996193707,True,19,1,0,11
Y2-S2-169M21,3,303,PS,exp,41,↓,up,↑,0.6599659998901188,False,19,-1,1,12
Y2-S2-169M21,3,304,PS,exp,27,↑,up,↑,0.9442837000824511,True,20,-1,0,12
Y2-S2-169M21,3,305,PS,exp,26,↓,up,↑,1.3824173002503812,False,20,-1,0,12
Y2-S2-169M21,3,306,PS,exp,46,←,left,←,0.7302783997729421,True,21,-1,0,12
Y2-S2-169M21,3,307,PS,exp,44,↑,up,↑,0.7130920002236962,True,21,-1,0,12
Y2-S2-169M21,3,308,PS,exp,40,→,right,→,0.5593436001800001,True,21,1,1,13
Y2-S2-169M21,3,309,PS,exp,36,←,left,←,0.8091000001877546,True,20,1,0,13
Y2-S2-169M21,3,310,PS,exp,47,↑,up,↑,0.7286270996555686,True,20,1,0,13
Y2-S2-169M21,3,311,PS,exp,44,←,left,←,1.260234700050205,True,20,1,0,13
Y2-S2-169M21,3,312,PS,exp,49,↓,down,↓,0.9334956998936832,True,19,1,0,13
Y2-S2-169M21,3,313,PS,exp,47,←,right,→,0.4971413998864591,False,19,-1,1,14
Y2-S2-169M21,3,314,PS,exp,43,↓,down,↓,0.5778277004137635,True,20,-1,0,14
Y2-S2-169M21,3,315,PS,exp,49,→,right,→,0.5571376997977495,True,20,-1,0,14
Y2-S2-169M21,3,316,PS,exp,48,←,left,←,1.5654784999787807,True,20,1,1,15
Y2-S2-169M21,3,317,PS,exp,46,↓,down,↓,0.7290138998068869,True,19,1,0,15
Y2-S2-169M21,3,318,PS,exp,34,←,right,→,0.5850229999050498,False,19,-1,1,16
Y2-S2-169M21,4,319,AS,intra_train,41,→,right,→,0.5840084003284574,True,36,-,-,-
Y2-S2-169M21,4,320,AS,intra_train,28,↑,up,↑,1.2120624003000557,True,36,-,-,-
Y2-S2-169M21,4,321,AS,intra_train,43,→,right,→,0.6006788001395762,True,36,-,-,-
Y2-S2-169M21,4,322,AS,intra_train,48,←,right,→,0.484453700017184,False,36,-,-,-
Y2-S2-169M21,4,323,AS,intra_train,44,↑,up,↑,0.4840446999296546,True,36,-,-,-
Y2-S2-169M21,4,324,AS,exp,40,→,right,→,0.9631353998556733,True,24,0,0,0
Y2-S2-169M21,4,325,AS,exp,39,↓,right,→,0.8342758002690971,False,24,-1,0,0
Y2-S2-169M21,4,326,AS,exp,43,←,no_key,no_letter,-1.0,False,25,-1,0,0
Y2-S2-169M21,4,327,AS,exp,35,↓,down,↓,0.7971001002006233,True,26,-1,0,0
Y2-S2-169M21,4,328,AS,exp,29,↑,up,↑,1.130919000133872,True,26,-1,0,0
Y2-S2-169M21,4,329,AS,exp,27,↓,down,↓,0.5170824001543224,True,26,1,1,1
Y2-S2-169M21,4,330,AS,exp,26,↑,up,↑,0.7790604997426271,True,25,1,0,1
Y2-S2-169M21,4,331,AS,exp,29,→,right,→,0.45092880027368665,True,25,1,0,1
Y2-S2-169M21,4,332,AS,exp,32,↑,up,↑,0.8184005999937654,True,25,1,0,1
Y2-S2-169M21,4,333,AS,exp,25,←,left,←,0.777766500134021,True,24,1,0,1
Y2-S2-169M21,4,334,AS,exp,45,↑,up,↑,1.061615000013262,True,24,1,0,1
Y2-S2-169M21,4,335,AS,exp,42,←,left,←,0.799193600192666,True,24,1,0,1
Y2-S2-169M21,4,336,AS,exp,28,↓,down,↓,0.7485805996693671,True,23,1,0,1
Y2-S2-169M21,4,337,AS,exp,35,←,left,←,0.609130899887532,True,23,1,0,1
Y2-S2-169M21,4,338,AS,exp,45,↓,down,↓,0.8120121001265943,True,23,1,0,1
Y2-S2-169M21,4,339,AS,exp,31,→,left,←,0.8853490999899805,False,22,-1,1,2
Y2-S2-169M21,4,340,AS,exp,47,↑,left,←,0.9621983002871275,False,23,-1,0,2
Y2-S2-169M21,4,341,AS,exp,43,→,left,←,0.569471400231123,False,24,-1,0,2
Y2-S2-169M21,4,342,AS,exp,48,↑,up,↑,0.4672961998730898,True,25,-1,0,2
Y2-S2-169M21,4,343,AS,exp,45,↓,down,↓,0.798772799782455,True,25,-1,0,2
Y2-S2-169M21,4,344,AS,exp,38,←,left,←,0.4837057003751397,True,25,1,1,3
Y2-S2-169M21,4,345,AS,exp,28,↓,down,↓,1.426124700345099,True,24,1,0,3
Y2-S2-169M21,4,346,AS,exp,31,↑,up,↑,0.4840568001382053,True,24,1,0,3
Y2-S2-169M21,4,347,AS,exp,38,←,left,←,0.5002743001095951,True,24,1,0,3
Y2-S2-169M21,4,348,AS,exp,43,→,right,→,1.087356900330633,True,23,1,0,3
Y2-S2-169M21,4,349,AS,exp,32,←,left,←,0.7836814001202583,True,23,1,0,3
Y2-S2-169M21,4,350,AS,exp,31,→,right,→,0.8113204999826849,True,23,1,0,3
Y2-S2-169M21,4,351,AS,exp,41,↑,up,↑,0.7420181999914348,True,22,1,0,3
Y2-S2-169M21,4,352,AS,exp,43,→,left,←,1.6354907001368701,False,22,-1,1,4
Y2-S2-169M21,4,353,AS,exp,29,←,left,←,0.8461221000179648,True,23,-1,0,4
Y2-S2-169M21,4,354,AS,exp,37,↓,down,↓,0.9331830996088684,True,23,-1,0,4
Y2-S2-169M21,4,355,AS,exp,34,↑,up,↑,0.7855165000073612,True,23,1,1,5
Y2-S2-169M21,4,356,AS,exp,50,→,right,→,0.7351538999937475,True,22,1,0,5
Y2-S2-169M21,4,357,AS,exp,49,↓,down,↓,0.9109261999838054,True,22,1,0,5
Y2-S2-169M21,4,358,AS,exp,31,↑,down,↓,0.9514445997774601,False,22,-1,1,6
Y2-S2-169M21,4,359,AS,exp,31,←,no_key,no_letter,-1.0,False,23,-1,0,6
Y2-S2-169M21,4,360,AS,exp,28,↑,up,↑,1.0178674003109336,True,24,-1,0,6
Y2-S2-169M21,4,361,AS,exp,46,→,right,→,0.803615199867636,True,24,-1,0,6
Y2-S2-169M21,4,362,AS,exp,44,←,left,←,0.7510700998827815,True,24,1,1,7
Y2-S2-169M21,4,363,AS,exp,47,→,right,→,1.5532766999676824,True,23,1,0,7
Y2-S2-169M21,4,364,AS,exp,27,↑,up,↑,0.6378136002458632,True,23,1,0,7
Y2-S2-169M21,4,365,AS,exp,31,→,no_key,no_letter,-1.0,False,23,-1,1,8
Y2-S2-169M21,4,366,AS,exp,43,↓,down,↓,0.8961392999626696,True,24,-1,0,8
Y2-S2-169M21,4,367,AS,exp,46,←,left,←,0.7425748002715409,True,24,-1,0,8
Y2-S2-169M21,4,368,AS,exp,38,↓,down,↓,0.8669614000245929,True,24,1,1,9
Y2-S2-169M21,4,369,AS,exp,28,→,no_key,no_letter,-1.0,False,23,-1,1,10
Y2-S2-169M21,4,370,AS,exp,48,↑,up,↑,0.4674303000792861,True,24,-1,0,10
Y2-S2-169M21,4,371,AS,exp,41,→,right,→,0.6316721001639962,True,24,-1,0,10
Y2-S2-169M21,4,372,AS,exp,45,↑,no_key,no_letter,-1.0,False,24,-1,0,10
Y2-S2-169M21,4,373,AS,exp,28,→,right,→,0.4508767002262175,True,25,-1,0,10
Y2-S2-169M21,4,374,AS,exp,35,↑,up,↑,0.6180897997692227,True,25,-1,0,10
Y2-S2-169M21,4,375,AS,exp,32,←,left,←,0.8040250996127725,True,25,1,1,11
Y2-S2-169M21,4,376,AS,exp,28,→,no_key,no_letter,-1.0,False,24,-1,1,12
Y2-S2-169M21,4,377,AS,exp,37,↑,left,←,1.5528329000808299,False,25,-1,0,12
Y2-S2-169M21,4,378,AS,exp,29,→,right,→,0.5009975000284612,True,26,-1,0,12
Y2-S2-169M21,4,379,AS,exp,30,↑,no_key,no_letter,-1.0,False,26,-1,0,12
Y2-S2-169M21,4,380,AS,exp,47,↓,up,↑,0.5007087998092175,False,27,-1,0,12
Y2-S2-169M21,4,381,AS,exp,47,→,right,→,0.5006789001636207,True,28,-1,0,12
Y2-S2-169M21,4,382,AS,exp,34,←,left,←,0.5013343999162316,True,28,-1,0,12
Y2-S2-169M21,4,383,AS,exp,33,↑,up,↑,0.43428759975358844,True,28,1,1,13
Y2-S2-169M21,4,384,AS,exp,26,←,left,←,0.9086647001095116,True,27,1,0,13
Y2-S2-169M21,4,385,AS,exp,35,↑,up,↑,2.0740253999829292,True,27,1,0,13
Y2-S2-169M21,4,386,AS,exp,47,←,left,←,0.7008253000676632,True,27,1,0,13
Y2-S2-169M21,4,387,AS,exp,39,↑,up,↑,2.0988370003178716,True,26,1,0,13
Y2-S2-169M21,4,388,AS,exp,31,→,right,→,0.7513576000928879,True,26,1,0,13
Y2-S2-169M21,4,389,AS,exp,28,↑,up,↑,0.6275788000784814,True,26,1,0,13
Y2-S2-169M21,4,390,AS,exp,40,→,right,→,0.7157084001228213,True,25,1,0,13
Y2-S2-169M21,4,391,AS,exp,25,↑,up,↑,0.7933494001626968,True,25,1,0,13
Y2-S2-169M21,4,392,AS,exp,25,↓,down,↓,0.8451475999318063,True,25,1,0,13
Y2-S2-169M21,4,393,AS,exp,45,←,left,←,0.7657022001221776,True,24,1,0,13
Y2-S2-169M21,4,394,AS,exp,40,↓,down,↓,1.213132900185883,True,24,1,0,13
Y2-S2-169M21,4,395,AS,exp,37,←,left,←,0.6178828002884984,True,24,1,0,13
Y2-S2-169M21,4,396,AS,exp,26,↓,down,↓,0.7868961999192834,True,23,1,0,13
Y2-S2-169M21,4,397,AS,exp,38,→,right,→,0.5006358004175127,True,23,1,0,13
Y2-S2-169M21,4,398,AS,exp,28,↓,down,↓,0.7602693000808358,True,23,1,0,13
Y2-S2-169M21,4,399,AS,exp,26,→,up,↑,1.353750899899751,False,22,-1,1,14
Y2-S2-169M21,4,400,AS,exp,33,↑,up,↑,0.6310971998609602,True,23,-1,0,14
Y2-S2-169M21,4,401,AS,exp,30,↓,down,↓,0.8014973998069763,True,23,-1,0,14
Y2-S2-169M21,4,402,AS,exp,30,←,left,←,0.6884150002151728,True,23,1,1,15
Y2-S2-169M21,4,403,AS,exp,47,↑,left,←,1.2502097999677062,False,22,-1,1,16
Y2-S2-169M21,5,404,AS,intra_train,33,↓,down,↓,1.9748551999218762,True,36,-,-,-
Y2-S2-169M21,5,405,AS,intra_train,41,→,right,→,0.6673054997809231,True,36,-,-,-
Y2-S2-169M21,5,406,AS,intra_train,47,↑,up,↑,0.41758270002901554,True,36,-,-,-
Y2-S2-169M21,5,407,AS,intra_train,48,↓,down,↓,0.6508487998507917,True,36,-,-,-
Y2-S2-169M21,5,408,AS,intra_train,42,→,right,→,0.5345208002254367,True,36,-,-,-
Y2-S2-169M21,5,409,AS,exp,35,←,left,←,0.7331584999337792,True,24,0,0,0
Y2-S2-169M21,5,410,AS,exp,41,↑,up,↑,0.721292800270021,True,24,0,0,0
Y2-S2-169M21,5,411,AS,exp,39,←,left,←,0.5172580000944436,True,24,1,0,0
Y2-S2-169M21,5,412,AS,exp,35,→,left,←,0.8225014000199735,False,23,-1,1,1
Y2-S2-169M21,5,413,AS,exp,31,↑,up,↑,0.6396635002456605,True,24,-1,0,1
Y2-S2-169M21,5,414,AS,exp,43,←,left,←,0.4172815000638366,True,24,-1,0,1
Y2-S2-169M21,5,415,AS,exp,34,→,right,→,0.6092313998378813,True,24,1,1,2
Y2-S2-169M21,5,416,AS,exp,39,↑,up,↑,0.5004531997255981,True,23,1,0,2
Y2-S2-169M21,5,417,AS,exp,49,→,right,→,0.4672805001027882,True,23,1,0,2
Y2-S2-169M21,5,418,AS,exp,48,←,right,→,0.45049440022557974,False,23,-1,1,3
Y2-S2-169M21,5,419,AS,exp,33,↓,down,↓,0.5173260001465678,True,24,-1,0,3
Y2-S2-169M21,5,420,AS,exp,28,→,right,→,0.5339632998220623,True,24,-1,0,3
Y2-S2-169M21,5,421,AS,exp,26,←,left,←,0.517424900084734,True,24,1,1,4
Y2-S2-169M21,5,422,AS,exp,34,↑,up,↑,0.6604800000786781,True,23,1,0,4
Y2-S2-169M21,5,423,AS,exp,35,→,left,←,0.607376900035888,False,23,-1,1,5
Y2-S2-169M21,5,424,AS,exp,31,↓,down,↓,0.7272342997603118,True,24,-1,0,5
Y2-S2-169M21,5,425,AS,exp,43,→,left,←,0.3836556999012828,False,24,-1,0,5
Y2-S2-169M21,5,426,AS,exp,40,↑,up,↑,0.4341227002441883,True,25,-1,0,5
Y2-S2-169M21,5,427,AS,exp,31,→,up,↑,0.45091170025989413,False,25,-1,0,5
Y2-S2-169M21,5,428,AS,exp,29,←,left,←,0.3676428999751806,True,26,-1,0,5
Y2-S2-169M21,5,429,AS,exp,49,→,right,→,0.5172728998586535,True,26,-1,0,5
Y2-S2-169M21,5,430,AS,exp,39,↓,down,↓,1.5608322001062334,True,26,1,1,6
Y2-S2-169M21,5,431,AS,exp,41,←,left,←,0.46730419993400574,True,25,1,0,6
Y2-S2-169M21,5,432,AS,exp,39,→,right,→,0.5341412997804582,True,25,1,0,6
Y2-S2-169M21,5,433,AS,exp,44,↓,down,↓,0.5337569997645915,True,25,1,0,6
Y2-S2-169M21,5,434,AS,exp,38,↑,up,↑,0.7674517999403179,True,24,1,0,6
Y2-S2-169M21,5,435,AS,exp,41,↓,down,↓,0.5169684002175927,True,24,1,0,6
Y2-S2-169M21,5,436,AS,exp,45,←,right,→,0.5810190998017788,False,24,-1,1,7
Y2-S2-169M21,5,437,AS,exp,36,↓,up,↑,0.5900799999944866,False,25,-1,0,7
Y2-S2-169M21,5,438,AS,exp,47,↑,up,↑,0.8164854999631643,True,26,-1,0,7
Y2-S2-169M21,5,439,AS,exp,26,←,left,←,0.7202606000937521,True,26,-1,0,7
Y2-S2-169M21,5,440,AS,exp,30,↓,left,←,1.8244471000507474,False,26,-1,0,7
Y2-S2-169M21,5,441,AS,exp,37,←,left,←,0.43425239995121956,True,27,-1,0,7
Y2-S2-169M21,5,442,AS,exp,30,↓,up,↑,0.4838438997976482,False,27,-1,0,7
Y2-S2-169M21,5,443,AS,exp,29,→,right,→,0.46700860001146793,True,28,-1,0,7
Y2-S2-169M21,5,444,AS,exp,32,↓,down,↓,0.8638359997421503,True,28,-1,0,7
Y2-S2-169M21,5,445,AS,exp,28,→,right,→,0.4504844001494348,True,28,1,1,8
Y2-S2-169M21,5,446,AS,exp,27,↓,down,↓,0.5839916002005339,True,27,1,0,8
Y2-S2-169M21,5,447,AS,exp,44,←,left,←,0.7096430999226868,True,27,1,0,8
Y2-S2-169M21,5,448,AS,exp,42,→,right,→,0.4175691995769739,True,27,1,0,8
Y2-S2-169M21,5,449,AS,exp,26,↓,down,↓,0.7103690998628736,True,26,1,0,8
Y2-S2-169M21,5,450,AS,exp,33,↑,up,↑,0.5171578000299633,True,26,1,0,8
Y2-S2-169M21,5,451,AS,exp,43,←,left,←,0.7029063003137708,True,26,1,0,8
Y2-S2-169M21,5,452,AS,exp,25,↓,up,↑,1.720368199981749,False,25,-1,1,9
Y2-S2-169M21,5,453,AS,exp,26,→,no_key,no_letter,-1.0,False,26,-1,0,9
Y2-S2-169M21,5,454,AS,exp,42,↑,right,→,0.5008441000245512,False,27,-1,0,9
Y2-S2-169M21,5,455,AS,exp,32,↓,down,↓,0.5843842001631856,True,28,-1,0,9
Y2-S2-169M21,5,456,AS,exp,28,←,left,←,0.5840525003150105,True,28,-1,0,9
Y2-S2-169M21,5,457,AS,exp,50,↑,up,↑,0.5175910997204483,True,28,1,1,10
Y2-S2-169M21,5,458,AS,exp,25,←,left,←,0.6943051000125706,True,27,1,0,10
Y2-S2-169M21,5,459,AS,exp,29,↑,up,↑,0.8704730998724699,True,27,1,0,10
Y2-S2-169M21,5,460,AS,exp,46,↓,right,→,1.1811088998802006,False,27,-1,1,11
Y2-S2-169M21,5,461,AS,exp,25,←,left,←,0.36792790004983544,True,28,-1,0,11
Y2-S2-169M21,5,462,AS,exp,37,→,right,→,0.5180619996972382,True,28,-1,0,11
Y2-S2-169M21,5,463,AS,exp,35,←,left,←,0.40099290013313293,True,28,1,1,12
Y2-S2-169M21,5,464,AS,exp,32,↑,up,↑,0.7680194997228682,True,27,1,0,12
Y2-S2-169M21,5,465,AS,exp,27,←,left,←,0.4010374997742474,True,27,1,0,12
Y2-S2-169M21,5,466,AS,exp,50,↓,down,↓,0.9286388996988535,True,27,1,0,12
Y2-S2-169M21,5,467,AS,exp,41,↑,no_key,no_letter,-1.0,False,26,-1,1,13
Y2-S2-169M21,5,468,AS,exp,33,←,no_key,no_letter,-1.0,False,27,-1,0,13
Y2-S2-169M21,5,469,AS,exp,30,↓,no_key,no_letter,-1.0,False,28,-1,0,13
Y2-S2-169M21,5,470,AS,exp,42,↑,up,↑,0.600655899848789,True,29,-1,0,13
Y2-S2-169M21,5,471,AS,exp,41,↓,down,↓,0.877220300026238,True,29,-1,0,13
Y2-S2-169M21,5,472,AS,exp,43,←,left,←,0.7514916001819074,True,29,1,1,14
Y2-S2-169M21,5,473,AS,exp,30,↓,down,↓,0.5339092002250254,True,28,1,0,14
Y2-S2-169M21,5,474,AS,exp,28,←,left,←,0.11749600013718009,True,28,1,0,14
Y2-S2-169M21,5,475,AS,exp,43,↓,down,↓,0.21690759994089603,True,28,1,0,14
Y2-S2-169M21,5,476,AS,exp,49,←,left,←,0.0011746999807655811,True,27,1,0,14
Y2-S2-169M21,5,477,AS,exp,50,↑,up,↑,0.5840081996284425,True,27,1,0,14
Y2-S2-169M21,5,478,AS,exp,40,←,right,→,0.8474531997926533,False,27,-1,1,15
Y2-S2-169M21,5,479,AS,exp,44,↓,no_key,no_letter,-1.0,False,28,-1,0,15
Y2-S2-169M21,5,480,AS,exp,31,↑,right,→,0.7439252003096044,False,29,-1,0,15
Y2-S2-169M21,5,481,AS,exp,44,→,right,→,0.1676019998267293,True,30,-1,0,15
Y2-S2-169M21,5,482,AS,exp,28,↓,up,↑,0.9152669003233314,False,30,-1,0,15
Y2-S2-169M21,5,483,AS,exp,32,↑,down,↓,0.36782210040837526,False,31,-1,0,15
Y2-S2-169M21,5,484,AS,exp,41,→,right,→,0.48396759992465377,True,32,-1,0,15
Y2-S2-169M21,5,485,AS,exp,25,↑,no_key,no_letter,-1.0,False,32,-1,0,15
Y2-S2-169M21,5,486,AS,exp,27,←,right,→,0.3512915000319481,False,33,-1,0,15
Y2-S2-169M21,5,487,AS,exp,28,↓,up,↑,0.30097900005057454,False,34,-1,0,15
Y2-S2-169M21,5,488,AS,exp,29,←,no_key,no_letter,-1.0,False,35,-1,0,15
Y2-S2-169M21,5,489,AS,exp,47,↑,left,←,0.01755509991198778,False,36,-1,0,15
Y2-S2-169M21,5,490,AS,exp,28,←,right,→,0.5509882001206279,False,37,-1,0,15
Y2-S2-169M21,5,491,AS,exp,50,→,right,→,0.6339261997491121,True,38,-1,0,15
Y2-S2-169M21,5,492,AS,exp,43,←,left,←,0.5343019003048539,True,38,-1,0,15
Y2-S2-169M21,5,493,AS,exp,45,↑,up,↑,0.7171498001553118,True,38,1,1,16
Y2-S2-169M21,6,494,PS,intra_train,25,←,left,←,0.5505079999566078,True,25,-,-,-
Y2-S2-169M21,6,495,PS,intra_train,38,→,left,←,0.38449280010536313,False,25,-,-,-
Y2-S2-169M21,6,496,PS,intra_train,41,↓,down,↓,0.8178093996830285,True,25,-,-,-
Y2-S2-169M21,6,497,PS,intra_train,49,↑,right,→,0.8668343001045287,False,25,-,-,-
Y2-S2-169M21,6,498,PS,intra_train,36,←,left,←,0.450615500099957,True,25,-,-,-
Y2-S2-169M21,6,499,PS,exp,35,→,right,→,0.8455588999204338,True,17,0,0,0
Y2-S2-169M21,6,500,PS,exp,47,←,left,←,0.35066189989447594,True,17,0,0,0
Y2-S2-169M21,6,501,PS,exp,34,↓,down,↓,0.4786687004379928,True,17,1,0,0
Y2-S2-169M21,6,502,PS,exp,50,↑,up,↑,0.6059043002314866,True,16,1,0,0
Y2-S2-169M21,6,503,PS,exp,39,→,right,→,0.5047899996861815,True,16,1,0,0
Y2-S2-169M21,6,504,PS,exp,25,↓,left,←,0.7194791999645531,False,16,-1,1,1
Y2-S2-169M21,6,505,PS,exp,41,↑,up,↑,0.6872939001768827,True,17,-1,0,1
Y2-S2-169M21,6,506,PS,exp,35,→,right,→,0.5861030998639762,True,17,-1,0,1
Y2-S2-169M21,6,507,PS,exp,27,←,left,←,0.6354090003296733,True,17,1,1,2
Y2-S2-169M21,6,508,PS,exp,49,→,right,→,0.3841213001869619,True,16,1,0,2
Y2-S2-169M21,6,509,PS,exp,50,←,left,←,0.6519263000227511,True,16,1,0,2
Y2-S2-169M21,6,510,PS,exp,29,↓,left,←,0.6408210000954568,False,16,-1,1,3
Y2-S2-169M21,6,511,PS,exp,31,↑,up,↑,0.4516659998334944,True,17,-1,0,3
Y2-S2-169M21,6,512,PS,exp,48,↓,up,↑,0.5637028999626637,False,17,-1,0,3
Y2-S2-169M21,6,513,PS,exp,38,→,up,↑,1.3716382998973131,False,18,-1,0,3
Y2-S2-169M21,6,514,PS,exp,32,←,left,←,1.1042883000336587,True,19,-1,0,3
Y2-S2-169M21,6,515,PS,exp,43,→,right,→,0.4340260000899434,True,19,-1,0,3
Y2-S2-169M21,6,516,PS,exp,25,↓,down,↓,0.6069720000959933,True,19,1,1,4
Y2-S2-169M21,6,517,PS,exp,48,↑,left,←,1.0042182002216578,False,18,-1,1,5
Y2-S2-169M21,6,518,PS,exp,49,↓,down,↓,0.4005909999832511,True,19,-1,0,5
Y2-S2-169M21,6,519,PS,exp,41,←,left,←,0.7051941999234259,True,19,-1,0,5
Y2-S2-169M21,6,520,PS,exp,44,→,left,←,0.49527089996263385,False,19,-1,0,5
Y2-S2-169M21,6,521,PS,exp,25,←,right,→,0.5666987001895905,False,20,-1,0,5
Y2-S2-169M21,6,522,PS,exp,49,→,right,→,0.43383579980582,True,21,-1,0,5
Y2-S2-169M21,6,523,PS,exp,48,↑,left,←,0.5783720002509654,False,21,-1,0,5
Y2-S2-169M21,6,524,PS,exp,41,→,right,→,0.40057050017639995,True,22,-1,0,5
Y2-S2-169M21,6,525,PS,exp,25,↑,left,←,0.709905999712646,False,22,-1,0,5
Y2-S2-169M21,6,526,PS,exp,31,↓,down,↓,0.5008459999226034,True,23,-1,0,5
Y2-S2-169M21,6,527,PS,exp,32,→,right,→,0.5556745999492705,True,23,-1,0,5
Y2-S2-169M21,6,528,PS,exp,40,↑,right,→,1.0081990999169648,False,23,-1,0,5
Y2-S2-169M21,6,529,PS,exp,33,↓,down,↓,0.833213800098747,True,24,-1,0,5
Y2-S2-169M21,6,530,PS,exp,26,↑,up,↑,0.4010877003893256,True,24,-1,0,5
Y2-S2-169M21,6,531,PS,exp,32,↓,down,↓,0.5338357998989522,True,24,1,1,6
Y2-S2-169M21,6,532,PS,exp,41,←,left,←,0.4672161000780761,True,23,1,0,6
Y2-S2-169M21,6,533,PS,exp,37,↓,down,↓,1.4668298996984959,True,23,1,0,6
Y2-S2-169M21,6,534,PS,exp,32,↑,up,↑,0.40082050021737814,True,23,1,0,6
Y2-S2-169M21,6,535,PS,exp,33,←,left,←,0.41740719974040985,True,22,1,0,6
Y2-S2-169M21,6,536,PS,exp,42,→,right,→,0.5006618001498282,True,22,1,0,6
Y2-S2-169M21,6,537,PS,exp,39,↑,up,↑,0.48366859974339604,True,22,1,0,6
Y2-S2-169M21,6,538,PS,exp,41,←,left,←,0.5557117001153529,True,21,1,0,6
Y2-S2-169M21,6,539,PS,exp,33,→,right,→,0.5476646996103227,True,21,1,0,6
Y2-S2-169M21,6,540,PS,exp,39,↑,up,↑,1.0828978000208735,True,21,1,0,6
Y2-S2-169M21,6,541,PS,exp,39,→,left,←,1.087527200113982,False,20,-1,1,7
Y2-S2-169M21,6,542,PS,exp,41,←,left,←,0.4673307999037206,True,21,-1,0,7
Y2-S2-169M21,6,543,PS,exp,47,↓,down,↓,0.5335655999369919,True,21,-1,0,7
Y2-S2-169M21,6,544,PS,exp,30,→,left,←,0.483878499828279,False,21,-1,0,7
Y2-S2-169M21,6,545,PS,exp,46,←,left,←,0.45064920000731945,True,22,-1,0,7
Y2-S2-169M21,6,546,PS,exp,50,↓,right,→,0.35073279961943626,False,22,-1,0,7
Y2-S2-169M21,6,547,PS,exp,38,←,left,←,0.6766872000880539,True,23,-1,0,7
Y2-S2-169M21,6,548,PS,exp,30,↓,left,←,0.865346800070256,False,23,-1,0,7
Y2-S2-169M21,6,549,PS,exp,33,←,left,←,0.4338225000537932,True,24,-1,0,7
Y2-S2-169M21,6,550,PS,exp,43,↑,up,↑,0.8131828997284174,True,24,-1,0,7
Y2-S2-169M21,6,551,PS,exp,44,←,left,←,0.8222024999558926,True,24,1,1,8
Y2-S2-169M21,6,552,PS,exp,25,↓,down,↓,0.732316100038588,True,23,1,0,8
Y2-S2-169M21,6,553,PS,exp,37,↑,right,→,1.8161458000540733,False,23,-1,1,9
Y2-S2-169M21,6,554,PS,exp,42,←,right,→,0.5007389998063445,False,24,-1,0,9
Y2-S2-169M21,6,555,PS,exp,39,↓,down,↓,0.6529318001121283,True,25,-1,0,9
Y2-S2-169M21,6,556,PS,exp,29,→,right,→,0.6325437999330461,True,25,-1,0,9
Y2-S2-169M21,6,557,PS,exp,46,↑,up,↑,0.4179006000049412,True,25,1,1,10
Y2-S2-169M21,6,558,PS,exp,33,↓,down,↓,0.5868151001632214,True,24,1,0,10
Y2-S2-169M21,6,559,PS,exp,36,↑,up,↑,0.41751009970903397,True,24,1,0,10
Y2-S2-169M21,6,560,PS,exp,28,←,left,←,0.3839921997860074,True,24,1,0,10
Y2-S2-169M21,6,561,PS,exp,38,↑,up,↑,0.4672890999354422,True,23,1,0,10
Y2-S2-169M21,6,562,PS,exp,35,↓,down,↓,0.5173017997294664,True,23,1,0,10
Y2-S2-169M21,6,563,PS,exp,43,→,right,→,0.569433500058949,True,23,1,0,10
Y2-S2-169M21,6,564,PS,exp,38,↑,up,↑,0.48365180008113384,True,22,1,0,10
Y2-S2-169M21,6,565,PS,exp,29,→,right,→,0.43383589992299676,True,22,1,0,10
Y2-S2-169M21,6,566,PS,exp,28,↑,up,↑,0.7754741003736854,True,22,1,0,10
Y2-S2-169M21,6,567,PS,exp,48,↓,down,↓,0.7640364998951554,True,21,1,0,10
Y2-S2-169M21,6,568,PS,exp,28,←,left,←,0.8053435999900103,True,21,1,0,10
Y2-S2-169M21,6,569,PS,exp,48,↑,up,↑,0.698316200170666,True,21,1,0,10
Y2-S2-169M21,6,570,PS,exp,45,→,right,→,0.4004330998286605,True,20,1,0,10
Y2-S2-169M21,6,571,PS,exp,39,↓,down,↓,0.5094881001859903,True,20,1,0,10
Y2-S2-169M21,6,572,PS,exp,27,←,left,←,0.41760919988155365,True,20,1,0,10
Y2-S2-169M21,6,573,PS,exp,34,↓,down,↓,0.6027088998816907,True,19,1,0,10
Y2-S2-169M21,6,574,PS,exp,26,↑,up,↑,0.5136078996583819,True,19,1,0,10
Y2-S2-169M21,6,575,PS,exp,38,→,right,→,0.40200100000947714,True,19,1,0,10
Y2-S2-169M21,6,576,PS,exp,29,↓,right,→,0.35062359971925616,False,18,-1,1,11
Y2-S2-169M21,6,577,PS,exp,36,→,right,→,0.41744650015607476,True,19,-1,0,11
Y2-S2-169M21,6,578,PS,exp,38,↑,up,↑,0.5149833001196384,True,19,-1,0,11
Y2-S2-169M21,6,579,PS,exp,30,↓,right,→,0.8491638000123203,False,19,-1,0,11
Y2-S2-169M21,6,580,PS,exp,49,↑,up,↑,0.6797927003353834,True,20,-1,0,11
Y2-S2-169M21,6,581,PS,exp,36,↓,up,↑,1.9583657002076507,False,20,-1,0,11
Y2-S2-169M21,6,582,PS,exp,47,←,left,←,0.48429210018366575,True,21,-1,0,11
Y2-S2-169M21,6,583,PS,exp,36,→,right,→,0.43384090019389987,True,21,-1,0,11
Y2-S2-169M21,6,584,PS,exp,38,↓,down,↓,0.8070683996193111,True,21,1,1,12
Y2-S2-169M21,6,585,PS,exp,42,←,left,←,0.4005542998202145,True,20,1,0,12
Y2-S2-169M21,6,586,PS,exp,34,↓,left,←,0.45053680008277297,False,20,-1,1,13
Y2-S2-169M21,6,587,PS,exp,27,↑,left,←,0.3342249998822808,False,21,-1,0,13
Y2-S2-169M21,6,588,PS,exp,32,←,left,←,0.41724490001797676,True,22,-1,0,13
Y2-S2-169M21,6,589,PS,exp,38,↑,up,↑,0.4837611997500062,True,22,-1,0,13
Y2-S2-169M21,6,590,PS,exp,46,→,left,←,0.4175345003604889,False,22,-1,0,13
Y2-S2-169M21,6,591,PS,exp,43,←,left,←,0.43343420000746846,True,23,-1,0,13
Y2-S2-169M21,6,592,PS,exp,48,→,left,←,0.4006970999762416,False,23,-1,0,13
Y2-S2-169M21,6,593,PS,exp,46,←,left,←,0.3836415000259876,True,24,-1,0,13
Y2-S2-169M21,6,594,PS,exp,32,→,right,→,0.4341917000710964,True,24,-1,0,13
Y2-S2-169M21,6,595,PS,exp,48,↑,up,↑,0.5764210997149348,True,24,1,1,14
Y2-S2-169M21,6,596,PS,exp,49,→,right,→,0.43392599979415536,True,23,1,0,14
Y2-S2-169M21,6,597,PS,exp,37,↑,up,↑,0.3676550001837313,True,23,1,0,14
Y2-S2-169M21,6,598,PS,exp,34,↓,up,↑,0.26774590043351054,False,23,-1,1,15
Y2-S2-169M21,6,599,PS,exp,41,↑,left,←,0.20089410012587905,False,24,-1,0,15
Y2-S2-169M21,6,600,PS,exp,30,←,left,←,0.4338401001878083,True,25,-1,0,15
Y2-S2-169M21,6,601,PS,exp,47,→,right,→,0.46720660012215376,True,25,-1,0,15
Y2-S2-169M21,6,602,PS,exp,30,↓,up,↑,0.38467880012467504,False,25,-1,0,15
Y2-S2-169M21,6,603,PS,exp,39,←,right,→,0.4839062998071313,False,26,-1,0,15
Y2-S2-169M21,6,604,PS,exp,37,→,right,→,0.384444999974221,True,27,-1,0,15
Y2-S2-169M21,6,605,PS,exp,36,↑,up,↑,0.5841467999853194,True,27,-1,0,15
Y2-S2-169M21,6,606,PS,exp,36,←,left,←,0.658442699816078,True,27,1,1,16
Y2-S2-169M21,7,607,PS,intra_train,25,↑,up,↑,1.192819899879396,True,25,-,-,-
Y2-S2-169M21,7,608,PS,intra_train,29,←,left,←,0.4172271001152694,True,25,-,-,-
Y2-S2-169M21,7,609,PS,intra_train,49,↓,down,↓,1.0113109997473657,True,25,-,-,-
Y2-S2-169M21,7,610,PS,intra_train,26,↑,up,↑,0.993189400061965,True,25,-,-,-
Y2-S2-169M21,7,611,PS,intra_train,35,↓,down,↓,0.5338939996436238,True,25,-,-,-
Y2-S2-169M21,7,612,PS,exp,45,→,right,→,0.7411489002406597,True,17,0,0,0
Y2-S2-169M21,7,613,PS,exp,30,↓,down,↓,0.5402796999551356,True,17,0,0,0
Y2-S2-169M21,7,614,PS,exp,38,→,right,→,0.66910450020805,True,17,1,0,0
Y2-S2-169M21,7,615,PS,exp,30,←,left,←,0.6085435003042221,True,16,1,0,0
Y2-S2-169M21,7,616,PS,exp,28,↑,up,↑,0.5089988000690937,True,16,1,0,0
Y2-S2-169M21,7,617,PS,exp,40,→,left,←,0.017515699844807386,False,16,-1,1,1
Y2-S2-169M21,7,618,PS,exp,38,←,left,←,0.38395419996231794,True,17,-1,0,1
Y2-S2-169M21,7,619,PS,exp,49,→,right,→,0.4996727998368442,True,17,-1,0,1
Y2-S2-169M21,7,620,PS,exp,27,↓,left,←,0.49319770000874996,False,17,-1,0,1
Y2-S2-169M21,7,621,PS,exp,43,→,right,→,1.0552072003483772,True,18,-1,0,1
Y2-S2-169M21,7,622,PS,exp,50,←,left,←,0.4340516999363899,True,18,-1,0,1
Y2-S2-169M21,7,623,PS,exp,50,→,right,→,0.6014362997375429,True,18,1,1,2
Y2-S2-169M21,7,624,PS,exp,30,↑,up,↑,0.6902870000340044,True,17,1,0,2
Y2-S2-169M21,7,625,PS,exp,29,↓,left,←,0.3015801999717951,False,17,-1,1,3
Y2-S2-169M21,7,626,PS,exp,37,→,right,→,0.5329237999394536,True,18,-1,0,3
Y2-S2-169M21,7,627,PS,exp,30,↓,down,↓,0.6772716003470123,True,18,-1,0,3
Y2-S2-169M21,7,628,PS,exp,39,↑,up,↑,0.4343762001954019,True,18,1,1,4
Y2-S2-169M21,7,629,PS,exp,49,←,left,←,0.6689138999208808,True,17,1,0,4
Y2-S2-169M21,7,630,PS,exp,50,↑,up,↑,0.4523535002954304,True,17,1,0,4
Y2-S2-169M21,7,631,PS,exp,35,↓,up,↑,0.5178651004098356,False,17,-1,1,5
Y2-S2-169M21,7,632,PS,exp,29,↑,left,←,0.4340343000367284,False,18,-1,0,5
Y2-S2-169M21,7,633,PS,exp,40,→,left,←,0.3839219999499619,False,19,-1,0,5
Y2-S2-169M21,7,634,PS,exp,41,←,left,←,0.45058410009369254,True,20,-1,0,5
Y2-S2-169M21,7,635,PS,exp,43,↑,up,↑,0.43407960003241897,True,20,-1,0,5
Y2-S2-169M21,7,636,PS,exp,49,←,left,←,0.4005942000076175,True,20,1,1,6
Y2-S2-169M21,7,637,PS,exp,39,→,right,→,0.43370559997856617,True,19,1,0,6
Y2-S2-169M21,7,638,PS,exp,29,↑,left,←,0.519563699606806,False,19,-1,1,7
Y2-S2-169M21,7,639,PS,exp,41,←,left,←,0.557419499848038,True,20,-1,0,7
Y2-S2-169M21,7,640,PS,exp,41,↓,down,↓,0.5683681997470558,True,20,-1,0,7
Y2-S2-169M21,7,641,PS,exp,44,←,left,←,0.40060060005635023,True,20,1,1,8
Y2-S2-169M21,7,642,PS,exp,37,↓,left,←,0.4341347999870777,False,19,-1,1,9
Y2-S2-169M21,7,643,PS,exp,30,→,right,→,0.7321852003224194,True,20,-1,0,9
Y2-S2-169M21,7,644,PS,exp,29,←,left,←,0.40063179982826114,True,20,-1,0,9
Y2-S2-169M21,7,645,PS,exp,29,↓,down,↓,0.5178668000735343,True,20,1,1,10
Y2-S2-169M21,7,646,PS,exp,45,←,left,←,0.6763573000207543,True,19,1,0,10
Y2-S2-169M21,7,647,PS,exp,46,↑,up,↑,0.5991269000805914,True,19,1,0,10
Y2-S2-169M21,7,648,PS,exp,29,←,left,←,0.4508047001436353,True,19,1,0,10
Y2-S2-169M21,7,649,PS,exp,27,↓,down,↓,0.4877046002075076,True,18,1,0,10
Y2-S2-169M21,7,650,PS,exp,33,←,down,↓,0.8691716999746859,False,18,-1,1,11
Y2-S2-169M21,7,651,PS,exp,41,→,right,→,0.4334060000255704,True,19,-1,0,11
Y2-S2-169M21,7,652,PS,exp,31,↓,down,↓,0.5001925001852214,True,19,-1,0,11
Y2-S2-169M21,7,653,PS,exp,27,↑,left,←,0.559946599882096,False,19,-1,0,11
Y2-S2-169M21,7,654,PS,exp,50,←,right,→,0.35000200010836124,False,20,-1,0,11
Y2-S2-169M21,7,655,PS,exp,50,→,right,→,0.36751409992575645,True,21,-1,0,11
Y2-S2-169M21,7,656,PS,exp,34,↑,up,↑,1.7388984998688102,True,21,-1,0,11
Y2-S2-169M21,7,657,PS,exp,39,→,right,→,0.3671683999709785,True,21,1,1,12
Y2-S2-169M21,7,658,PS,exp,38,↑,left,←,0.40046050027012825,False,20,-1,1,13
Y2-S2-169M21,7,659,PS,exp,41,↓,left,←,0.41717700008302927,False,21,-1,0,13
Y2-S2-169M21,7,660,PS,exp,30,↑,left,←,0.2846530000679195,False,22,-1,0,13
Y2-S2-169M21,7,661,PS,exp,44,↓,down,↓,1.3765234998427331,True,23,-1,0,13
Y2-S2-169M21,7,662,PS,exp,30,←,left,←,0.5006979997269809,True,23,-1,0,13
Y2-S2-169M21,7,663,PS,exp,28,↑,up,↑,1.082823900040239,True,23,1,1,14
Y2-S2-169M21,7,664,PS,exp,44,↓,left,←,0.41739859990775585,False,22,-1,1,15
Y2-S2-169M21,7,665,PS,exp,48,→,left,←,0.4503994002006948,False,23,-1,0,15
Y2-S2-169M21,7,666,PS,exp,45,↑,up,↑,0.7833699001930654,True,24,-1,0,15
Y2-S2-169M21,7,667,PS,exp,33,↓,down,↓,0.620819800067693,True,24,-1,0,15
Y2-S2-169M21,7,668,PS,exp,25,→,right,→,0.4508651001378894,True,24,1,1,16
Y2-S2-169M21,8,669,AS,intra_train,38,←,up,↑,0.6172381001524627,False,36,-,-,-
Y2-S2-169M21,8,670,AS,intra_train,32,→,right,→,0.48455299995839596,True,36,-,-,-
Y2-S2-169M21,8,671,AS,intra_train,31,↑,right,→,0.5179395000450313,False,36,-,-,-
Y2-S2-169M21,8,672,AS,intra_train,35,←,left,←,0.5673536001704633,True,36,-,-,-
Y2-S2-169M21,8,673,AS,intra_train,31,↓,down,↓,0.5347890998236835,True,36,-,-,-
Y2-S2-169M21,8,674,AS,exp,32,↑,up,↑,0.6120424000546336,True,24,0,0,0
Y2-S2-169M21,8,675,AS,exp,27,↓,down,↓,0.7880766000598669,True,24,0,0,0
Y2-S2-169M21,8,676,AS,exp,42,←,right,→,0.4178145001642406,False,24,-1,0,0
Y2-S2-169M21,8,677,AS,exp,44,↓,down,↓,0.7701991000212729,True,25,-1,0,0
Y2-S2-169M21,8,678,AS,exp,27,↑,left,←,0.4838871997781098,False,25,-1,0,0
Y2-S2-169M21,8,679,AS,exp,48,↓,up,↑,0.48419729992747307,False,26,-1,0,0
Y2-S2-169M21,8,680,AS,exp,37,↑,right,→,0.5005113002844155,False,27,-1,0,0
Y2-S2-169M21,8,681,AS,exp,36,←,left,←,0.6347893001511693,True,28,-1,0,0
Y2-S2-169M21,8,682,AS,exp,39,→,right,→,0.4839081997051835,True,28,-1,0,0
Y2-S2-169M21,8,683,AS,exp,38,↑,up,↑,0.6756786000914872,True,28,1,1,1
Y2-S2-169M21,8,684,AS,exp,27,↓,up,↑,0.8126034000888467,False,27,-1,1,2
Y2-S2-169M21,8,685,AS,exp,25,←,left,←,0.500819600187242,True,28,-1,0,2
Y2-S2-169M21,8,686,AS,exp,39,→,left,←,0.5004713996313512,False,28,-1,0,2
Y2-S2-169M21,8,687,AS,exp,37,↑,right,→,0.4674582998268306,False,29,-1,0,2
Y2-S2-169M21,8,688,AS,exp,44,↓,up,↑,0.48429130017757416,False,30,-1,0,2
Y2-S2-169M21,8,689,AS,exp,49,←,left,←,0.7157936999574304,True,31,-1,0,2
Y2-S2-169M21,8,690,AS,exp,46,→,right,→,0.5675320997834206,True,31,-1,0,2
Y2-S2-169M21,8,691,AS,exp,49,←,left,←,0.5004614000208676,True,31,1,1,3
Y2-S2-169M21,8,692,AS,exp,41,↓,down,↓,0.6875803000293672,True,30,1,0,3
Y2-S2-169M21,8,693,AS,exp,32,↑,up,↑,0.5504079000093043,True,30,1,0,3
Y2-S2-169M21,8,694,AS,exp,33,→,right,→,0.5672665000893176,True,30,1,0,3
Y2-S2-169M21,8,695,AS,exp,28,↑,up,↑,0.5007132003083825,True,29,1,0,3
Y2-S2-169M21,8,696,AS,exp,43,→,right,→,0.5506267999298871,True,29,1,0,3
Y2-S2-169M21,8,697,AS,exp,40,↑,up,↑,1.2698121001012623,True,29,1,0,3
Y2-S2-169M21,8,698,AS,exp,29,→,right,→,0.5172619000077248,True,28,1,0,3
Y2-S2-169M21,8,699,AS,exp,45,←,right,→,0.6357316002249718,False,28,-1,1,4
Y2-S2-169M21,8,700,AS,exp,26,↓,down,↓,0.6915982998907566,True,29,-1,0,4
Y2-S2-169M21,8,701,AS,exp,45,→,left,←,0.5674550998955965,False,29,-1,0,4
Y2-S2-169M21,8,702,AS,exp,31,←,left,←,0.550823399797082,True,30,-1,0,4
Y2-S2-169M21,8,703,AS,exp,34,→,right,→,0.7091405000537634,True,30,-1,0,4
Y2-S2-169M21,8,704,AS,exp,44,↑,no_key,no_letter,-1.0,False,30,-1,0,4
Y2-S2-169M21,8,705,AS,exp,41,←,left,←,0.5506251999177039,True,31,-1,0,4
Y2-S2-169M21,8,706,AS,exp,38,↓,no_key,no_letter,-1.0,False,31,-1,0,4
Y2-S2-169M21,8,707,AS,exp,50,←,left,←,0.46755449986085296,True,32,-1,0,4
Y2-S2-169M21,8,708,AS,exp,36,↓,down,↓,0.5839802999980748,True,32,-1,0,4
Y2-S2-169M21,8,709,AS,exp,39,↑,up,↑,0.451140399556607,True,32,1,1,5
Y2-S2-169M21,8,710,AS,exp,46,↓,down,↓,0.46789179975166917,True,31,1,0,5
Y2-S2-169M21,8,711,AS,exp,29,←,left,←,0.9225216000340879,True,31,1,0,5
Y2-S2-169M21,8,712,AS,exp,44,↑,up,↑,0.45096360007300973,True,31,1,0,5
Y2-S2-169M21,8,713,AS,exp,49,↓,down,↓,0.8949107998050749,True,30,1,0,5
Y2-S2-169M21,8,714,AS,exp,42,←,left,←,0.6008891998790205,True,30,1,0,5
Y2-S2-169M21,8,715,AS,exp,40,→,right,→,0.40118010016158223,True,30,1,0,5
Y2-S2-169M21,8,716,AS,exp,43,↑,up,↑,0.6766405999660492,True,29,1,0,5
Y2-S2-169M21,8,717,AS,exp,34,→,right,→,0.600607399828732,True,29,1,0,5
Y2-S2-169M21,8,718,AS,exp,32,↓,down,↓,0.8919512000866234,True,29,1,0,5
Y2-S2-169M21,8,719,AS,exp,38,→,right,→,0.5838798996992409,True,28,1,0,5
Y2-S2-169M21,8,720,AS,exp,28,↓,down,↓,0.5343621000647545,True,28,1,0,5
Y2-S2-169M21,8,721,AS,exp,39,→,down,↓,0.6971379001624882,False,28,-1,1,6
Y2-S2-169M21,8,722,AS,exp,25,↑,left,←,0.5674156001769006,False,29,-1,0,6
Y2-S2-169M21,8,723,AS,exp,38,→,right,→,0.40095699997618794,True,30,-1,0,6
Y2-S2-169M21,8,724,AS,exp,50,↑,up,↑,0.4011014997959137,True,30,-1,0,6
Y2-S2-169M21,8,725,AS,exp,26,↓,down,↓,0.5009464002214372,True,30,1,1,7
Y2-S2-169M21,8,726,AS,exp,38,↑,up,↑,0.40102750016376376,True,29,1,0,7
Y2-S2-169M21,8,727,AS,exp,35,↓,up,↑,0.8008920000866055,False,29,-1,1,8
Y2-S2-169M21,8,728,AS,exp,32,↑,no_key,no_letter,-1.0,False,30,-1,0,8
Y2-S2-169M21,8,729,AS,exp,28,↓,down,↓,0.6992683000862598,True,31,-1,0,8
Y2-S2-169M21,8,730,AS,exp,28,↑,up,↑,0.6897688000462949,True,31,-1,0,8
Y2-S2-169M21,8,731,AS,exp,26,→,right,→,0.5343944998458028,True,31,1,1,9
Y2-S2-169M21,8,732,AS,exp,45,←,right,→,0.6005219002254307,False,30,-1,1,10
Y2-S2-169M21,8,733,AS,exp,47,↑,up,↑,0.5840354999527335,True,31,-1,0,10
Y2-S2-169M21,8,734,AS,exp,49,→,right,→,0.48433149978518486,True,31,-1,0,10
Y2-S2-169M21,8,735,AS,exp,34,↑,up,↑,0.5004273997619748,True,31,1,1,11
Y2-S2-169M21,8,736,AS,exp,39,↓,down,↓,0.5172083000652492,True,30,1,0,11
Y2-S2-169M21,8,737,AS,exp,39,↑,up,↑,0.4175055003724992,True,30,1,0,11
Y2-S2-169M21,8,738,AS,exp,44,↓,down,↓,0.48426710022613406,True,30,1,0,11
Y2-S2-169M21,8,739,AS,exp,25,→,right,→,1.807060199789703,True,29,1,0,11
Y2-S2-169M21,8,740,AS,exp,39,←,left,←,0.6174610001035035,True,29,1,0,11
Y2-S2-169M21,8,741,AS,exp,33,↑,up,↑,0.6690918998792768,True,29,1,0,11
Y2-S2-169M21,8,742,AS,exp,32,→,right,→,0.43438610015437007,True,28,1,0,11
Y2-S2-169M21,8,743,AS,exp,30,←,left,←,0.5674099996685982,True,28,1,0,11
Y2-S2-169M21,8,744,AS,exp,42,↓,up,↑,0.6462726998142898,False,28,-1,1,12
Y2-S2-169M21,8,745,AS,exp,35,↑,up,↑,0.5173547999002039,True,29,-1,0,12
Y2-S2-169M21,8,746,AS,exp,30,←,left,←,0.4012071997858584,True,29,-1,0,12
Y2-S2-169M21,8,747,AS,exp,31,↓,down,↓,0.5006234999746084,True,29,1,1,13
Y2-S2-169M21,8,748,AS,exp,34,→,right,→,0.550638500135392,True,28,1,0,13
Y2-S2-169M21,8,749,AS,exp,25,↑,up,↑,0.4177443999797106,True,28,1,0,13
Y2-S2-169M21,8,750,AS,exp,47,→,right,→,0.5171118997968733,True,28,1,0,13
Y2-S2-169M21,8,751,AS,exp,31,←,left,←,1.5269514000974596,True,27,1,0,13
Y2-S2-169M21,8,752,AS,exp,33,↑,up,↑,0.6181986001320183,True,27,1,0,13
Y2-S2-169M21,8,753,AS,exp,36,→,up,↑,0.5838557002134621,False,27,-1,1,14
Y2-S2-169M21,8,754,AS,exp,38,←,left,←,0.45052829990163445,True,28,-1,0,14
Y2-S2-169M21,8,755,AS,exp,29,↓,down,↓,0.7216791003011167,True,28,-1,0,14
Y2-S2-169M21,8,756,AS,exp,48,→,right,→,1.1251891003921628,True,28,1,1,15
Y2-S2-169M21,8,757,AS,exp,36,↑,up,↑,0.4674573000520468,True,27,1,0,15
Y2-S2-169M21,8,758,AS,exp,45,←,left,←,0.4839034997858107,True,27,1,0,15
Y2-S2-169M21,8,759,AS,exp,39,↑,up,↑,0.6494913003407419,True,27,1,0,15
Y2-S2-169M21,8,760,AS,exp,42,↓,down,↓,0.7562765995971859,True,26,1,0,15
Y2-S2-169M21,8,761,AS,exp,47,↑,up,↑,0.517153900116682,True,26,1,0,15
Y2-S2-169M21,8,762,AS,exp,43,↓,down,↓,0.690919800195843,True,26,1,0,15
Y2-S2-169M21,8,763,AS,exp,43,→,right,→,0.6025876998901367,True,25,1,0,15
Y2-S2-169M21,8,764,AS,exp,33,←,left,←,0.6145363999530673,True,25,1,0,15
Y2-S2-169M21,8,765,AS,exp,36,→,right,→,0.4840130000375211,True,25,1,0,15
Y2-S2-169M21,8,766,AS,exp,46,↑,left,←,0.5004862998612225,False,24,-1,1,16
