PART_ID,Block_no,Trial_no,Block_type,Trial_type,CSI,Stim_letter,Key_pressed,letter_choose,Rt,Corr,Stimulus Time,Level,Reversal,Revs_count
Y2-S2-149K18,1,1,PS,train,40,←,left,←,1.230631300015375,True,30,-,-,-
Y2-S2-149K18,1,2,PS,train,46,↑,up,↑,0.8647978999651968,True,30,-,-,-
Y2-S2-149K18,1,3,PS,train,43,↓,down,↓,0.7639933000318706,True,30,-,-,-
Y2-S2-149K18,1,4,PS,train,50,←,left,←,0.9364159000106156,True,30,-,-,-
Y2-S2-149K18,1,5,PS,train,44,↑,up,↑,0.7845157999545336,True,30,-,-,-
Y2-S2-149K18,1,6,PS,train,39,→,right,→,1.0813589999452233,True,30,-,-,-
Y2-S2-149K18,1,7,PS,train,31,↑,up,↑,0.6816328000277281,True,30,-,-,-
Y2-S2-149K18,1,8,PS,train,28,←,left,←,0.9242658999282867,True,30,-,-,-
Y2-S2-149K18,1,9,PS,train,43,↑,up,↑,1.9295257001649588,True,30,-,-,-
Y2-S2-149K18,1,10,PS,train,33,←,left,←,0.904953199904412,True,30,-,-,-
Y2-S2-149K18,2,11,AS,train,36,→,right,→,0.7507297999691218,True,45,-,-,-
Y2-S2-149K18,2,12,AS,train,26,←,left,←,0.8672511999029666,True,45,-,-,-
Y2-S2-149K18,2,13,AS,train,26,↓,down,↓,0.7839520999696106,True,45,-,-,-
Y2-S2-149K18,2,14,AS,train,33,→,right,→,0.7010951000265777,True,45,-,-,-
Y2-S2-149K18,2,15,AS,train,46,↑,up,↑,1.0161057999357581,True,45,-,-,-
Y2-S2-149K18,2,16,AS,train,40,↓,down,↓,0.71778229996562,True,45,-,-,-
Y2-S2-149K18,2,17,AS,train,34,→,right,→,0.943823300069198,True,45,-,-,-
Y2-S2-149K18,2,18,AS,train,49,←,left,←,0.784165299963206,True,45,-,-,-
Y2-S2-149K18,2,19,AS,train,27,↑,up,↑,0.6177352000959218,True,45,-,-,-
Y2-S2-149K18,2,20,AS,train,28,←,left,←,0.9765978001523763,True,45,-,-,-
Y2-S2-149K18,-,21,PS,adaptive,34,↓,down,↓,0.7229980998672545,True,10,0,0,0
Y2-S2-149K18,-,22,PS,adaptive,35,→,right,→,0.6496292999945581,True,10,0,0,0
Y2-S2-149K18,-,23,PS,adaptive,30,↑,right,→,1.3342490999493748,False,10,-1,0,0
Y2-S2-149K18,-,24,PS,adaptive,40,→,right,→,0.8486426000017673,True,11,-1,0,0
Y2-S2-149K18,-,25,PS,adaptive,28,←,right,→,0.9343149000778794,False,11,-1,0,0
Y2-S2-149K18,-,26,PS,adaptive,42,↓,down,↓,0.7200192001182586,True,12,-1,0,0
Y2-S2-149K18,-,27,PS,adaptive,32,←,left,←,0.7399100998882204,True,12,-1,0,0
Y2-S2-149K18,-,28,PS,adaptive,32,→,right,→,0.69484609994106,True,12,1,1,1
Y2-S2-149K18,-,29,PS,adaptive,31,↓,down,↓,0.5671333000063896,True,11,1,0,1
Y2-S2-149K18,-,30,PS,adaptive,43,←,left,←,0.7214657000731677,True,11,1,0,1
Y2-S2-149K18,-,31,PS,adaptive,39,↑,up,↑,0.5994460000656545,True,11,1,0,1
Y2-S2-149K18,-,32,PS,adaptive,35,↓,down,↓,0.7358834999613464,True,10,1,0,1
Y2-S2-149K18,-,33,PS,adaptive,36,←,left,←,0.5661327999550849,True,10,1,0,1
Y2-S2-149K18,-,34,PS,adaptive,38,↑,up,↑,0.6235776001121849,True,10,1,0,1
Y2-S2-149K18,-,35,PS,adaptive,40,↓,down,↓,0.6446551999542862,True,9,1,0,1
Y2-S2-149K18,-,36,PS,adaptive,48,→,left,←,0.7563324999064207,False,9,-1,1,2
Y2-S2-149K18,-,37,PS,adaptive,33,←,left,←,1.2939100000075996,True,10,-1,0,2
Y2-S2-149K18,-,38,PS,adaptive,25,↑,up,↑,0.6208349999506027,True,10,-1,0,2
Y2-S2-149K18,-,39,PS,adaptive,26,→,right,→,0.6434448999352753,True,10,1,1,3
Y2-S2-149K18,-,40,PS,adaptive,48,↓,down,↓,0.573348400183022,True,9,1,0,3
Y2-S2-149K18,-,41,PS,adaptive,30,←,left,←,0.6774634001776576,True,9,1,0,3
Y2-S2-149K18,-,42,PS,adaptive,35,↓,down,↓,0.6115176000166684,True,9,1,0,3
Y2-S2-149K18,-,43,PS,adaptive,26,→,right,→,0.7925493000075221,True,8,1,0,3
Y2-S2-149K18,-,44,PS,adaptive,40,↓,down,↓,0.5806013999972492,True,8,1,0,3
Y2-S2-149K18,-,45,PS,adaptive,43,←,left,←,0.8885248999577016,True,8,1,0,3
Y2-S2-149K18,-,46,PS,adaptive,34,↑,up,↑,0.5237636999227107,True,7,1,0,3
Y2-S2-149K18,-,47,PS,adaptive,42,←,down,↓,0.892049899790436,False,7,-1,1,4
Y2-S2-149K18,-,48,AS,adaptive,49,↑,down,↓,1.0623807997908443,False,20,-1,0,0
Y2-S2-149K18,-,49,AS,adaptive,31,→,right,→,0.7743716000113636,True,21,-1,0,0
Y2-S2-149K18,-,50,AS,adaptive,50,↑,up,↑,0.595568599877879,True,21,-1,0,0
Y2-S2-149K18,-,51,AS,adaptive,45,←,left,←,0.7905581002123654,True,21,1,1,1
Y2-S2-149K18,-,52,AS,adaptive,44,→,right,→,0.760198200121522,True,20,1,0,1
Y2-S2-149K18,-,53,AS,adaptive,28,↑,up,↑,0.6149685999844223,True,20,1,0,1
Y2-S2-149K18,-,54,AS,adaptive,39,↓,down,↓,0.6169408999849111,True,20,1,0,1
Y2-S2-149K18,-,55,AS,adaptive,49,→,right,→,0.953912700060755,True,19,1,0,1
Y2-S2-149K18,-,56,AS,adaptive,29,↑,up,↑,0.7609033000189811,True,19,1,0,1
Y2-S2-149K18,-,57,AS,adaptive,45,→,right,→,0.7100076000206172,True,19,1,0,1
Y2-S2-149K18,-,58,AS,adaptive,40,↑,up,↑,0.7506611000280827,True,18,1,0,1
Y2-S2-149K18,-,59,AS,adaptive,43,→,right,→,0.6755464000161737,True,18,1,0,1
Y2-S2-149K18,-,60,AS,adaptive,38,←,left,←,1.1128501000348479,True,18,1,0,1
Y2-S2-149K18,-,61,AS,adaptive,27,→,right,→,0.69195850007236,True,17,1,0,1
Y2-S2-149K18,-,62,AS,adaptive,48,↑,up,↑,0.7566381001379341,True,17,1,0,1
Y2-S2-149K18,-,63,AS,adaptive,32,↓,up,↑,0.9647815001662821,False,17,-1,1,2
Y2-S2-149K18,-,64,AS,adaptive,48,→,right,→,0.7424550000578165,True,18,-1,0,2
Y2-S2-149K18,-,65,AS,adaptive,39,↓,down,↓,0.6676876000128686,True,18,-1,0,2
Y2-S2-149K18,-,66,AS,adaptive,37,←,left,←,0.7404769000131637,True,18,1,1,3
Y2-S2-149K18,-,67,AS,adaptive,48,→,left,←,1.5912156000267714,False,17,-1,1,4
Y2-S2-149K18,1,68,AS,intra_train,41,↑,up,↑,0.87640820001252,True,27,-,-,-
Y2-S2-149K18,1,69,AS,intra_train,38,←,left,←,1.512788100168109,True,27,-,-,-
Y2-S2-149K18,1,70,AS,intra_train,29,↑,up,↑,0.56720139994286,True,27,-,-,-
Y2-S2-149K18,1,71,AS,intra_train,37,↓,down,↓,0.8128670000005513,True,27,-,-,-
Y2-S2-149K18,1,72,AS,intra_train,37,↑,up,↑,0.5172109000850469,True,27,-,-,-
Y2-S2-149K18,1,73,AS,exp,36,↓,up,↑,1.116502600023523,False,18,-1,0,0
Y2-S2-149K18,1,74,AS,exp,25,←,left,←,0.9338986999355257,True,19,-1,0,0
Y2-S2-149K18,1,75,AS,exp,40,↑,up,↑,0.7790212000254542,True,19,-1,0,0
Y2-S2-149K18,1,76,AS,exp,47,→,right,→,0.7940798001363873,True,19,1,1,1
Y2-S2-149K18,1,77,AS,exp,47,↓,down,↓,0.7969339999835938,True,18,1,0,1
Y2-S2-149K18,1,78,AS,exp,40,→,right,→,0.7714927000924945,True,18,1,0,1
Y2-S2-149K18,1,79,AS,exp,45,↓,down,↓,0.6341951999347657,True,18,1,0,1
Y2-S2-149K18,1,80,AS,exp,42,→,right,→,0.8550616998691112,True,17,1,0,1
Y2-S2-149K18,1,81,AS,exp,49,↓,down,↓,0.6465416001155972,True,17,1,0,1
Y2-S2-149K18,1,82,AS,exp,47,↑,down,↓,0.8430860000662506,False,17,-1,1,2
Y2-S2-149K18,1,83,AS,exp,40,←,left,←,1.0012776001822203,True,18,-1,0,2
Y2-S2-149K18,1,84,AS,exp,37,→,right,→,0.7802228999789804,True,18,-1,0,2
Y2-S2-149K18,1,85,AS,exp,46,↑,right,→,1.0644165000412613,False,18,-1,0,2
Y2-S2-149K18,1,86,AS,exp,50,→,right,→,0.6443608999252319,True,19,-1,0,2
Y2-S2-149K18,1,87,AS,exp,30,←,left,←,0.8407664999831468,True,19,-1,0,2
Y2-S2-149K18,1,88,AS,exp,48,↓,down,↓,0.7304453998804092,True,19,1,1,3
Y2-S2-149K18,1,89,AS,exp,50,←,left,←,0.800846999976784,True,18,1,0,3
Y2-S2-149K18,1,90,AS,exp,50,↓,down,↓,0.6639219000935555,True,18,1,0,3
Y2-S2-149K18,1,91,AS,exp,34,↑,up,↑,0.6074469001032412,True,18,1,0,3
Y2-S2-149K18,1,92,AS,exp,43,→,right,→,1.077407600125298,True,17,1,0,3
Y2-S2-149K18,1,93,AS,exp,35,↓,down,↓,0.6122189001180232,True,17,1,0,3
Y2-S2-149K18,1,94,AS,exp,25,↑,up,↑,0.5714324999134988,True,17,1,0,3
Y2-S2-149K18,1,95,AS,exp,32,→,right,→,1.143481200095266,True,16,1,0,3
Y2-S2-149K18,1,96,AS,exp,38,←,left,←,1.0343075999990106,True,16,1,0,3
Y2-S2-149K18,1,97,AS,exp,31,↑,up,↑,0.6651659000199288,True,16,1,0,3
Y2-S2-149K18,1,98,AS,exp,43,↓,up,↑,0.9019885999150574,False,15,-1,1,4
Y2-S2-149K18,1,99,AS,exp,40,→,right,→,0.9314017000142485,True,16,-1,0,4
Y2-S2-149K18,1,100,AS,exp,37,↓,right,→,1.062889900058508,False,16,-1,0,4
Y2-S2-149K18,1,101,AS,exp,43,→,down,↓,1.0658652998972684,False,17,-1,0,4
Y2-S2-149K18,1,102,AS,exp,43,←,left,←,1.0421354998834431,True,18,-1,0,4
Y2-S2-149K18,1,103,AS,exp,25,→,left,←,1.2944114001002163,False,18,-1,0,4
Y2-S2-149K18,1,104,AS,exp,40,↑,up,↑,0.5574711000081152,True,19,-1,0,4
Y2-S2-149K18,1,105,AS,exp,40,↓,down,↓,0.8317517000250518,True,19,-1,0,4
Y2-S2-149K18,1,106,AS,exp,30,←,left,←,0.920919300056994,True,19,1,1,5
Y2-S2-149K18,1,107,AS,exp,48,→,right,→,0.7648479000199586,True,18,1,0,5
Y2-S2-149K18,1,108,AS,exp,43,↑,up,↑,0.5951958999503404,True,18,1,0,5
Y2-S2-149K18,1,109,AS,exp,46,→,right,→,0.8441870000679046,True,18,1,0,5
Y2-S2-149K18,1,110,AS,exp,34,↑,up,↑,0.6825313998851925,True,17,1,0,5
Y2-S2-149K18,1,111,AS,exp,35,←,left,←,0.8264957000501454,True,17,1,0,5
Y2-S2-149K18,1,112,AS,exp,32,↓,down,↓,0.6565012999344617,True,17,1,0,5
Y2-S2-149K18,1,113,AS,exp,46,←,left,←,0.8675930998288095,True,16,1,0,5
Y2-S2-149K18,1,114,AS,exp,25,↓,down,↓,0.7728826000820845,True,16,1,0,5
Y2-S2-149K18,1,115,AS,exp,50,→,right,→,1.2145542001817375,True,16,1,0,5
Y2-S2-149K18,1,116,AS,exp,40,←,left,←,0.9448096000123769,True,15,1,0,5
Y2-S2-149K18,1,117,AS,exp,26,→,right,→,1.0101150998380035,True,15,1,0,5
Y2-S2-149K18,1,118,AS,exp,41,↑,up,↑,0.8648057000245899,True,15,1,0,5
Y2-S2-149K18,1,119,AS,exp,37,→,right,→,0.7467460001353174,True,14,1,0,5
Y2-S2-149K18,1,120,AS,exp,37,↑,up,↑,0.6393968001939356,True,14,1,0,5
Y2-S2-149K18,1,121,AS,exp,37,→,left,←,1.076611700002104,False,14,-1,1,6
Y2-S2-149K18,1,122,AS,exp,37,↑,down,↓,1.3544441999401897,False,15,-1,0,6
Y2-S2-149K18,1,123,AS,exp,42,←,left,←,0.7536868001334369,True,16,-1,0,6
Y2-S2-149K18,1,124,AS,exp,40,↑,up,↑,0.6604662998579443,True,16,-1,0,6
Y2-S2-149K18,1,125,AS,exp,40,←,up,↑,0.8309361999854445,False,16,-1,0,6
Y2-S2-149K18,1,126,AS,exp,35,↑,up,↑,0.6279384999070317,True,17,-1,0,6
Y2-S2-149K18,1,127,AS,exp,40,↓,down,↓,0.9229356001596898,True,17,-1,0,6
Y2-S2-149K18,1,128,AS,exp,30,←,left,←,1.072007300099358,True,17,1,1,7
Y2-S2-149K18,1,129,AS,exp,43,→,right,→,0.8004644000902772,True,16,1,0,7
Y2-S2-149K18,1,130,AS,exp,36,↑,up,↑,0.6550255001056939,True,16,1,0,7
Y2-S2-149K18,1,131,AS,exp,47,→,right,→,0.9895752999000251,True,16,1,0,7
Y2-S2-149K18,1,132,AS,exp,38,↑,down,↓,1.156759199919179,False,15,-1,1,8
Y2-S2-149K18,1,133,AS,exp,41,↓,down,↓,0.5646562001202255,True,16,-1,0,8
Y2-S2-149K18,1,134,AS,exp,25,→,no_key,no_letter,-1.0,False,16,-1,0,8
Y2-S2-149K18,1,135,AS,exp,31,↓,down,↓,0.8544383000116795,True,17,-1,0,8
Y2-S2-149K18,1,136,AS,exp,47,←,left,←,0.798073000041768,True,17,-1,0,8
Y2-S2-149K18,1,137,AS,exp,38,↑,up,↑,0.605104299960658,True,17,1,1,9
Y2-S2-149K18,1,138,AS,exp,50,←,left,←,0.8533979000058025,True,16,1,0,9
Y2-S2-149K18,1,139,AS,exp,28,↑,down,↓,0.9947687999811023,False,16,-1,1,10
Y2-S2-149K18,1,140,AS,exp,50,→,left,←,0.754232499981299,False,17,-1,0,10
Y2-S2-149K18,1,141,AS,exp,43,↓,down,↓,0.730853000190109,True,18,-1,0,10
Y2-S2-149K18,1,142,AS,exp,43,←,left,←,0.6292564999312162,True,18,-1,0,10
Y2-S2-149K18,1,143,AS,exp,44,→,left,←,0.9846361000090837,False,18,-1,0,10
Y2-S2-149K18,1,144,AS,exp,38,←,left,←,0.8455236000008881,True,19,-1,0,10
Y2-S2-149K18,1,145,AS,exp,35,→,right,→,0.6801144999917597,True,19,-1,0,10
Y2-S2-149K18,1,146,AS,exp,35,←,left,←,0.6510805999860168,True,19,1,1,11
Y2-S2-149K18,1,147,AS,exp,39,↓,down,↓,1.0943869999609888,True,18,1,0,11
Y2-S2-149K18,1,148,AS,exp,40,←,left,←,0.7358993000816554,True,18,1,0,11
Y2-S2-149K18,1,149,AS,exp,37,↓,down,↓,0.9062685000244528,True,18,1,0,11
Y2-S2-149K18,1,150,AS,exp,36,←,left,←,0.6996019000653177,True,17,1,0,11
Y2-S2-149K18,1,151,AS,exp,31,→,right,→,1.4325164000038058,True,17,1,0,11
Y2-S2-149K18,1,152,AS,exp,31,←,left,←,0.6243199000600725,True,17,1,0,11
Y2-S2-149K18,1,153,AS,exp,45,↑,up,↑,0.9229890001006424,True,16,1,0,11
Y2-S2-149K18,1,154,AS,exp,40,↓,down,↓,0.8022209000773728,True,16,1,0,11
Y2-S2-149K18,1,155,AS,exp,41,→,right,→,0.8160198999103159,True,16,1,0,11
Y2-S2-149K18,1,156,AS,exp,25,←,left,←,0.7392394000198692,True,15,1,0,11
Y2-S2-149K18,1,157,AS,exp,30,↓,down,↓,0.7298062001354992,True,15,1,0,11
Y2-S2-149K18,1,158,AS,exp,36,↑,up,↑,0.70772480010055,True,15,1,0,11
Y2-S2-149K18,1,159,AS,exp,35,↓,up,↑,0.7973519000224769,False,14,-1,1,12
Y2-S2-149K18,1,160,AS,exp,37,←,left,←,0.5911758998408914,True,15,-1,0,12
Y2-S2-149K18,1,161,AS,exp,29,↑,up,↑,0.7138787000440061,True,15,-1,0,12
Y2-S2-149K18,1,162,AS,exp,31,←,left,←,0.5517026998568326,True,15,1,1,13
Y2-S2-149K18,1,163,AS,exp,29,↓,down,↓,0.7367430001031607,True,14,1,0,13
Y2-S2-149K18,1,164,AS,exp,49,↑,left,←,0.8650362999178469,False,14,-1,1,14
Y2-S2-149K18,1,165,AS,exp,39,↓,down,↓,0.6889173001982272,True,15,-1,0,14
Y2-S2-149K18,1,166,AS,exp,26,←,down,↓,0.7889839000999928,False,15,-1,0,14
Y2-S2-149K18,1,167,AS,exp,48,→,right,→,0.6484640999697149,True,16,-1,0,14
Y2-S2-149K18,1,168,AS,exp,41,←,left,←,0.678388400003314,True,16,-1,0,14
Y2-S2-149K18,1,169,AS,exp,49,→,right,→,0.6346879999618977,True,16,1,1,15
Y2-S2-149K18,1,170,AS,exp,30,←,left,←,0.5679026998113841,True,15,1,0,15
Y2-S2-149K18,1,171,AS,exp,38,↓,down,↓,0.8502112999558449,True,15,1,0,15
Y2-S2-149K18,1,172,AS,exp,40,→,right,→,0.6098478001076728,True,15,1,0,15
Y2-S2-149K18,1,173,AS,exp,47,←,right,→,0.89647960010916,False,14,-1,1,16
Y2-S2-149K18,2,174,PS,intra_train,48,→,right,→,1.057673400035128,True,12,-,-,-
Y2-S2-149K18,2,175,PS,intra_train,45,↑,up,↑,0.6057261000387371,True,12,-,-,-
Y2-S2-149K18,2,176,PS,intra_train,25,↓,down,↓,0.8291160999797285,True,12,-,-,-
Y2-S2-149K18,2,177,PS,intra_train,26,↑,left,←,0.7715386000927538,False,12,-,-,-
Y2-S2-149K18,2,178,PS,intra_train,34,←,left,←,0.7012155000120401,True,12,-,-,-
Y2-S2-149K18,2,179,PS,exp,36,↑,up,↑,0.6885182000696659,True,8,0,0,0
Y2-S2-149K18,2,180,PS,exp,40,→,down,↓,0.7446111000608653,False,8,-1,0,0
Y2-S2-149K18,2,181,PS,exp,37,↓,down,↓,0.6801844001747668,True,9,-1,0,0
Y2-S2-149K18,2,182,PS,exp,48,→,right,→,0.6193055999465287,True,9,-1,0,0
Y2-S2-149K18,2,183,PS,exp,29,↑,down,↓,0.6989234001375735,False,9,-1,0,0
Y2-S2-149K18,2,184,PS,exp,48,↓,down,↓,0.7728219998534769,True,10,-1,0,0
Y2-S2-149K18,2,185,PS,exp,47,→,left,←,0.5995770997833461,False,10,-1,0,0
Y2-S2-149K18,2,186,PS,exp,41,←,left,←,0.5303348999004811,True,11,-1,0,0
Y2-S2-149K18,2,187,PS,exp,47,↓,down,↓,1.0734000001102686,True,11,-1,0,0
Y2-S2-149K18,2,188,PS,exp,31,↑,down,↓,0.8224057999905199,False,11,-1,0,0
Y2-S2-149K18,2,189,PS,exp,29,↓,down,↓,0.7028991999104619,True,12,-1,0,0
Y2-S2-149K18,2,190,PS,exp,26,←,left,←,0.5942096998915076,True,12,-1,0,0
Y2-S2-149K18,2,191,PS,exp,26,↑,right,→,0.7431967000011355,False,12,-1,0,0
Y2-S2-149K18,2,192,PS,exp,43,←,left,←,0.5665354998782277,True,13,-1,0,0
Y2-S2-149K18,2,193,PS,exp,30,↑,up,↑,0.7978513000998646,True,13,-1,0,0
Y2-S2-149K18,2,194,PS,exp,40,←,left,←,0.5186391000170261,True,13,1,1,1
Y2-S2-149K18,2,195,PS,exp,38,↑,up,↑,0.5622490998357534,True,12,1,0,1
Y2-S2-149K18,2,196,PS,exp,50,↓,right,→,0.688099900027737,False,12,-1,1,2
Y2-S2-149K18,2,197,PS,exp,46,→,right,→,1.3951125999446958,True,13,-1,0,2
Y2-S2-149K18,2,198,PS,exp,46,↑,up,↑,0.5540404999628663,True,13,-1,0,2
Y2-S2-149K18,2,199,PS,exp,43,↓,down,↓,0.7048722999170423,True,13,1,1,3
Y2-S2-149K18,2,200,PS,exp,47,→,right,→,0.8670361000113189,True,12,1,0,3
Y2-S2-149K18,2,201,PS,exp,41,↑,right,→,1.2548966999165714,False,12,-1,1,4
Y2-S2-149K18,2,202,PS,exp,37,↓,down,↓,0.8434173001442105,True,13,-1,0,4
Y2-S2-149K18,2,203,PS,exp,49,→,right,→,0.8418199000880122,True,13,-1,0,4
Y2-S2-149K18,2,204,PS,exp,26,↓,down,↓,0.6825202000327408,True,13,1,1,5
Y2-S2-149K18,2,205,PS,exp,50,←,left,←,0.9303968001622707,True,12,1,0,5
Y2-S2-149K18,2,206,PS,exp,39,↑,up,↑,0.6885435997974128,True,12,1,0,5
Y2-S2-149K18,2,207,PS,exp,42,←,left,←,0.6915573999285698,True,12,1,0,5
Y2-S2-149K18,2,208,PS,exp,49,↑,up,↑,0.5624734999146312,True,11,1,0,5
Y2-S2-149K18,2,209,PS,exp,34,↓,down,↓,0.8330593998543918,True,11,1,0,5
Y2-S2-149K18,2,210,PS,exp,35,←,left,←,0.831430200021714,True,11,1,0,5
Y2-S2-149K18,2,211,PS,exp,47,↑,left,←,1.1203399000223726,False,10,-1,1,6
Y2-S2-149K18,2,212,PS,exp,47,↓,down,↓,0.6903167001437396,True,11,-1,0,6
Y2-S2-149K18,2,213,PS,exp,37,↑,down,↓,0.7429599000606686,False,11,-1,0,6
Y2-S2-149K18,2,214,PS,exp,45,↓,down,↓,0.8400916999671608,True,12,-1,0,6
Y2-S2-149K18,2,215,PS,exp,40,→,right,→,1.298420300008729,True,12,-1,0,6
Y2-S2-149K18,2,216,PS,exp,47,↓,down,↓,0.7582815999630839,True,12,1,1,7
Y2-S2-149K18,2,217,PS,exp,36,←,left,←,0.6899545998312533,True,11,1,0,7
Y2-S2-149K18,2,218,PS,exp,49,→,right,→,0.7430809999350458,True,11,1,0,7
Y2-S2-149K18,2,219,PS,exp,25,↑,down,↓,0.684976699994877,False,11,-1,1,8
Y2-S2-149K18,2,220,PS,exp,28,→,right,→,1.0021282997913659,True,12,-1,0,8
Y2-S2-149K18,2,221,PS,exp,36,↓,down,↓,0.6359260999597609,True,12,-1,0,8
Y2-S2-149K18,2,222,PS,exp,47,→,right,→,0.7174422000534832,True,12,1,1,9
Y2-S2-149K18,2,223,PS,exp,29,←,left,←,1.0105149999726564,True,11,1,0,9
Y2-S2-149K18,2,224,PS,exp,27,→,left,←,0.7905576000921428,False,11,-1,1,10
Y2-S2-149K18,2,225,PS,exp,29,↓,down,↓,1.3507884999271482,True,12,-1,0,10
Y2-S2-149K18,2,226,PS,exp,25,←,left,←,0.7395395999774337,True,12,-1,0,10
Y2-S2-149K18,2,227,PS,exp,25,↓,left,←,0.8647521999664605,False,12,-1,0,10
Y2-S2-149K18,2,228,PS,exp,45,→,right,→,0.5078716001007706,True,13,-1,0,10
Y2-S2-149K18,2,229,PS,exp,50,↑,up,↑,0.8002142000477761,True,13,-1,0,10
Y2-S2-149K18,2,230,PS,exp,39,↓,down,↓,0.6384074001107365,True,13,1,1,11
Y2-S2-149K18,2,231,PS,exp,36,→,right,→,0.5079183999914676,True,12,1,0,11
Y2-S2-149K18,2,232,PS,exp,25,↓,down,↓,0.7705387000460178,True,12,1,0,11
Y2-S2-149K18,2,233,PS,exp,30,↑,right,→,1.1085888999514282,False,12,-1,1,12
Y2-S2-149K18,2,234,PS,exp,42,→,right,→,0.5013673000503331,True,13,-1,0,12
Y2-S2-149K18,2,235,PS,exp,35,↑,up,↑,0.8352632999885827,True,13,-1,0,12
Y2-S2-149K18,2,236,PS,exp,42,←,right,→,0.6826015999540687,False,13,-1,0,12
Y2-S2-149K18,2,237,PS,exp,43,↓,down,↓,0.6975815000478178,True,14,-1,0,12
Y2-S2-149K18,2,238,PS,exp,48,↑,up,↑,0.6098956998903304,True,14,-1,0,12
Y2-S2-149K18,2,239,PS,exp,40,→,right,→,0.5845416001975536,True,14,1,1,13
Y2-S2-149K18,2,240,PS,exp,47,↑,up,↑,0.6773977000266314,True,13,1,0,13
Y2-S2-149K18,2,241,PS,exp,42,↓,down,↓,0.725069799926132,True,13,1,0,13
Y2-S2-149K18,2,242,PS,exp,40,←,left,←,1.0601355999242514,True,13,1,0,13
Y2-S2-149K18,2,243,PS,exp,43,→,right,→,0.6786120999604464,True,12,1,0,13
Y2-S2-149K18,2,244,PS,exp,25,↓,down,↓,0.6622357999440283,True,12,1,0,13
Y2-S2-149K18,2,245,PS,exp,29,↑,right,→,0.7952361002098769,False,12,-1,1,14
Y2-S2-149K18,2,246,PS,exp,34,↓,down,↓,0.714473000029102,True,13,-1,0,14
Y2-S2-149K18,2,247,PS,exp,40,←,left,←,0.6941519998945296,True,13,-1,0,14
Y2-S2-149K18,2,248,PS,exp,32,→,right,→,0.7342727000359446,True,13,1,1,15
Y2-S2-149K18,2,249,PS,exp,37,←,left,←,0.5749232999514788,True,12,1,0,15
Y2-S2-149K18,2,250,PS,exp,50,↓,down,↓,1.0510358000174165,True,12,1,0,15
Y2-S2-149K18,2,251,PS,exp,39,↑,up,↑,0.6426237998530269,True,12,1,0,15
Y2-S2-149K18,2,252,PS,exp,41,→,right,→,0.5999692999757826,True,11,1,0,15
Y2-S2-149K18,2,253,PS,exp,29,←,left,←,0.7365925000049174,True,11,1,0,15
Y2-S2-149K18,2,254,PS,exp,35,↑,right,→,0.9116295999847353,False,11,-1,1,16
Y2-S2-149K18,3,255,PS,intra_train,28,↓,down,↓,0.7480874999891967,True,12,-,-,-
Y2-S2-149K18,3,256,PS,intra_train,32,→,right,→,0.6093142998870462,True,12,-,-,-
Y2-S2-149K18,3,257,PS,intra_train,48,←,right,→,0.8249238999560475,False,12,-,-,-
Y2-S2-149K18,3,258,PS,intra_train,30,↑,up,↑,0.7281170999631286,True,12,-,-,-
Y2-S2-149K18,3,259,PS,intra_train,38,→,right,→,0.6569141999352723,True,12,-,-,-
Y2-S2-149K18,3,260,PS,exp,33,↑,up,↑,0.7294243001379073,True,8,0,0,0
Y2-S2-149K18,3,261,PS,exp,47,↓,down,↓,0.6917091999202967,True,8,0,0,0
Y2-S2-149K18,3,262,PS,exp,48,↑,up,↑,0.6242247999180108,True,8,1,0,0
Y2-S2-149K18,3,263,PS,exp,42,↓,down,↓,0.6902987000066787,True,7,1,0,0
Y2-S2-149K18,3,264,PS,exp,30,↑,down,↓,0.9322152000386268,False,7,-1,1,1
Y2-S2-149K18,3,265,PS,exp,48,↓,right,→,0.5750539000146091,False,8,-1,0,1
Y2-S2-149K18,3,266,PS,exp,26,↑,down,↓,0.758441099897027,False,9,-1,0,1
Y2-S2-149K18,3,267,PS,exp,32,←,right,→,0.5044271000660956,False,10,-1,0,1
Y2-S2-149K18,3,268,PS,exp,46,↑,up,↑,0.6546813000459224,True,11,-1,0,1
Y2-S2-149K18,3,269,PS,exp,45,→,right,→,1.5144946000073105,True,11,-1,0,1
Y2-S2-149K18,3,270,PS,exp,34,↑,up,↑,0.9907831000164151,True,11,1,1,2
Y2-S2-149K18,3,271,PS,exp,50,→,right,→,0.6620281999930739,True,10,1,0,2
Y2-S2-149K18,3,272,PS,exp,31,←,left,←,0.6186323999427259,True,10,1,0,2
Y2-S2-149K18,3,273,PS,exp,34,↓,up,↑,0.7598512000404298,False,10,-1,1,3
Y2-S2-149K18,3,274,PS,exp,45,←,left,←,0.713656899984926,True,11,-1,0,3
Y2-S2-149K18,3,275,PS,exp,40,↑,up,↑,0.6442545999307185,True,11,-1,0,3
Y2-S2-149K18,3,276,PS,exp,34,→,right,→,0.5904979000333697,True,11,1,1,4
Y2-S2-149K18,3,277,PS,exp,49,←,right,→,0.46911350009031594,False,10,-1,1,5
Y2-S2-149K18,3,278,PS,exp,27,↓,right,→,0.516651599900797,False,11,-1,0,5
Y2-S2-149K18,3,279,PS,exp,30,→,right,→,0.6624853999819607,True,12,-1,0,5
Y2-S2-149K18,3,280,PS,exp,49,←,right,→,0.7233818999957293,False,12,-1,0,5
Y2-S2-149K18,3,281,PS,exp,48,→,right,→,0.5243997999932617,True,13,-1,0,5
Y2-S2-149K18,3,282,PS,exp,33,↓,down,↓,0.8199075001757592,True,13,-1,0,5
Y2-S2-149K18,3,283,PS,exp,26,←,left,←,0.7818609999958426,True,13,1,1,6
Y2-S2-149K18,3,284,PS,exp,48,↓,down,↓,0.7986909998580813,True,12,1,0,6
Y2-S2-149K18,3,285,PS,exp,27,↑,up,↑,0.7499995001126081,True,12,1,0,6
Y2-S2-149K18,3,286,PS,exp,30,→,right,→,0.5359323997981846,True,12,1,0,6
Y2-S2-149K18,3,287,PS,exp,31,←,left,←,0.6436397999059409,True,11,1,0,6
Y2-S2-149K18,3,288,PS,exp,36,↑,up,↑,0.798729200148955,True,11,1,0,6
Y2-S2-149K18,3,289,PS,exp,32,↓,down,↓,0.6689140999224037,True,11,1,0,6
Y2-S2-149K18,3,290,PS,exp,39,←,left,←,0.847843199968338,True,10,1,0,6
Y2-S2-149K18,3,291,PS,exp,42,→,right,→,0.6253702000249177,True,10,1,0,6
Y2-S2-149K18,3,292,PS,exp,50,↑,up,↑,0.6417781000491232,True,10,1,0,6
Y2-S2-149K18,3,293,PS,exp,35,←,left,←,0.6685220999643207,True,9,1,0,6
Y2-S2-149K18,3,294,PS,exp,44,↓,down,↓,0.9647667999379337,True,9,1,0,6
Y2-S2-149K18,3,295,PS,exp,48,↑,up,↑,0.6579932000022382,True,9,1,0,6
Y2-S2-149K18,3,296,PS,exp,43,←,left,←,0.6888618001248688,True,8,1,0,6
Y2-S2-149K18,3,297,PS,exp,35,↑,up,↑,0.568771000020206,True,8,1,0,6
Y2-S2-149K18,3,298,PS,exp,35,←,right,→,0.6879610999021679,False,8,-1,1,7
Y2-S2-149K18,3,299,PS,exp,43,→,right,→,0.5885310999583453,True,9,-1,0,7
Y2-S2-149K18,3,300,PS,exp,37,↓,down,↓,0.8451093998737633,True,9,-1,0,7
Y2-S2-149K18,3,301,PS,exp,49,↑,up,↑,0.5780399998184294,True,9,1,1,8
Y2-S2-149K18,3,302,PS,exp,27,←,right,→,1.1227891999296844,False,8,-1,1,9
Y2-S2-149K18,3,303,PS,exp,36,↓,down,↓,0.7489231999497861,True,9,-1,0,9
Y2-S2-149K18,3,304,PS,exp,39,↑,up,↑,0.5931789998430759,True,9,-1,0,9
Y2-S2-149K18,3,305,PS,exp,46,↓,down,↓,0.5938252001069486,True,9,1,1,10
Y2-S2-149K18,3,306,PS,exp,35,→,right,→,0.6338623999617994,True,8,1,0,10
Y2-S2-149K18,3,307,PS,exp,50,↓,down,↓,0.7314565000124276,True,8,1,0,10
Y2-S2-149K18,3,308,PS,exp,40,↑,up,↑,0.6486925000790507,True,8,1,0,10
Y2-S2-149K18,3,309,PS,exp,36,←,right,→,0.5563512998633087,False,7,-1,1,11
Y2-S2-149K18,3,310,PS,exp,46,→,left,←,0.9872898000758141,False,8,-1,0,11
Y2-S2-149K18,3,311,PS,exp,42,←,right,→,0.5940523000899702,False,9,-1,0,11
Y2-S2-149K18,3,312,PS,exp,42,→,right,→,0.48741489998064935,True,10,-1,0,11
Y2-S2-149K18,3,313,PS,exp,50,↓,down,↓,0.8174240000080317,True,10,-1,0,11
Y2-S2-149K18,3,314,PS,exp,33,←,left,←,0.6715897999238223,True,10,1,1,12
Y2-S2-149K18,3,315,PS,exp,40,↑,left,←,0.8345804000273347,False,9,-1,1,13
Y2-S2-149K18,3,316,PS,exp,38,→,right,→,0.70656120008789,True,10,-1,0,13
Y2-S2-149K18,3,317,PS,exp,45,↓,down,↓,0.7741638999432325,True,10,-1,0,13
Y2-S2-149K18,3,318,PS,exp,30,↑,up,↑,0.5846732999198139,True,10,1,1,14
Y2-S2-149K18,3,319,PS,exp,49,←,left,←,0.6055744998157024,True,9,1,0,14
Y2-S2-149K18,3,320,PS,exp,43,↑,left,←,0.9453176998067647,False,9,-1,1,15
Y2-S2-149K18,3,321,PS,exp,41,←,left,←,0.6241526999510825,True,10,-1,0,15
Y2-S2-149K18,3,322,PS,exp,42,↓,down,↓,0.8005486999172717,True,10,-1,0,15
Y2-S2-149K18,3,323,PS,exp,41,←,left,←,1.1105410000309348,True,10,1,1,16
Y2-S2-149K18,4,324,AS,intra_train,44,↓,down,↓,0.7560071002226323,True,27,-,-,-
Y2-S2-149K18,4,325,AS,intra_train,32,→,right,→,0.72696050000377,True,27,-,-,-
Y2-S2-149K18,4,326,AS,intra_train,37,↓,down,↓,0.9197719998192042,True,27,-,-,-
Y2-S2-149K18,4,327,AS,intra_train,49,←,left,←,0.6403741000685841,True,27,-,-,-
Y2-S2-149K18,4,328,AS,intra_train,32,↓,down,↓,0.7228989999275655,True,27,-,-,-
Y2-S2-149K18,4,329,AS,exp,43,→,right,→,0.8211000999435782,True,18,0,0,0
Y2-S2-149K18,4,330,AS,exp,26,←,left,←,0.6763735001441091,True,18,0,0,0
Y2-S2-149K18,4,331,AS,exp,49,↓,down,↓,0.8721772998105735,True,18,1,0,0
Y2-S2-149K18,4,332,AS,exp,32,↑,down,↓,1.137042900081724,False,17,-1,1,1
Y2-S2-149K18,4,333,AS,exp,35,→,right,→,0.5562424999661744,True,18,-1,0,1
Y2-S2-149K18,4,334,AS,exp,35,←,left,←,0.7210244999732822,True,18,-1,0,1
Y2-S2-149K18,4,335,AS,exp,25,↑,up,↑,0.7429990000091493,True,18,1,1,2
Y2-S2-149K18,4,336,AS,exp,49,←,left,←,0.7595514000859112,True,17,1,0,2
Y2-S2-149K18,4,337,AS,exp,42,↑,right,→,1.0280901999212801,False,17,-1,1,3
Y2-S2-149K18,4,338,AS,exp,25,↓,down,↓,0.7197356999386102,True,18,-1,0,3
Y2-S2-149K18,4,339,AS,exp,40,↑,up,↑,1.3470324000809342,True,18,-1,0,3
Y2-S2-149K18,4,340,AS,exp,29,←,left,←,0.738504400011152,True,18,1,1,4
Y2-S2-149K18,4,341,AS,exp,30,↓,down,↓,0.6631831000559032,True,17,1,0,4
Y2-S2-149K18,4,342,AS,exp,34,↑,down,↓,0.771437699906528,False,17,-1,1,5
Y2-S2-149K18,4,343,AS,exp,43,←,down,↓,1.4284222000278533,False,18,-1,0,5
Y2-S2-149K18,4,344,AS,exp,40,→,left,←,0.6977148000150919,False,19,-1,0,5
Y2-S2-149K18,4,345,AS,exp,44,←,left,←,0.6621316000819206,True,20,-1,0,5
Y2-S2-149K18,4,346,AS,exp,47,↓,down,↓,0.963913599960506,True,20,-1,0,5
Y2-S2-149K18,4,347,AS,exp,38,→,right,→,0.5588569999672472,True,20,1,1,6
Y2-S2-149K18,4,348,AS,exp,45,←,down,↓,0.9652845000382513,False,19,-1,1,7
Y2-S2-149K18,4,349,AS,exp,50,↓,no_key,no_letter,-1.0,False,20,-1,0,7
Y2-S2-149K18,4,350,AS,exp,30,→,right,→,0.6097379999700934,True,21,-1,0,7
Y2-S2-149K18,4,351,AS,exp,36,←,left,←,0.9407158999238163,True,21,-1,0,7
Y2-S2-149K18,4,352,AS,exp,27,→,right,→,0.666117399930954,True,21,1,1,8
Y2-S2-149K18,4,353,AS,exp,40,↑,up,↑,0.9449058999307454,True,20,1,0,8
Y2-S2-149K18,4,354,AS,exp,34,→,right,→,0.5259581999853253,True,20,1,0,8
Y2-S2-149K18,4,355,AS,exp,28,↑,up,↑,1.000745400087908,True,20,1,0,8
Y2-S2-149K18,4,356,AS,exp,42,←,left,←,1.0373994999099523,True,19,1,0,8
Y2-S2-149K18,4,357,AS,exp,42,↑,up,↑,0.8756810000631958,True,19,1,0,8
Y2-S2-149K18,4,358,AS,exp,38,→,right,→,0.8187565000262111,True,19,1,0,8
Y2-S2-149K18,4,359,AS,exp,40,←,left,←,0.5732046000193805,True,18,1,0,8
Y2-S2-149K18,4,360,AS,exp,46,↓,right,→,0.991842299932614,False,18,-1,1,9
Y2-S2-149K18,4,361,AS,exp,50,↑,up,↑,0.8027617998886853,True,19,-1,0,9
Y2-S2-149K18,4,362,AS,exp,33,↓,down,↓,0.6513348000589758,True,19,-1,0,9
Y2-S2-149K18,4,363,AS,exp,41,←,left,←,0.9151973000261933,True,19,1,1,10
Y2-S2-149K18,4,364,AS,exp,30,↑,left,←,1.4585309999529272,False,18,-1,1,11
Y2-S2-149K18,4,365,AS,exp,41,→,right,→,0.8522208000067621,True,19,-1,0,11
Y2-S2-149K18,4,366,AS,exp,35,←,left,←,0.6741218999959528,True,19,-1,0,11
Y2-S2-149K18,4,367,AS,exp,41,↑,up,↑,1.0638580999802798,True,19,1,1,12
Y2-S2-149K18,4,368,AS,exp,37,→,right,→,0.5840018999297172,True,18,1,0,12
Y2-S2-149K18,4,369,AS,exp,47,↑,up,↑,1.0777353001758456,True,18,1,0,12
Y2-S2-149K18,4,370,AS,exp,33,←,left,←,0.7869134999345988,True,18,1,0,12
Y2-S2-149K18,4,371,AS,exp,49,↑,left,←,1.1772920999210328,False,17,-1,1,13
Y2-S2-149K18,4,372,AS,exp,30,→,right,→,1.3699606999289244,True,18,-1,0,13
Y2-S2-149K18,4,373,AS,exp,28,↑,up,↑,0.8593268000986427,True,18,-1,0,13
Y2-S2-149K18,4,374,AS,exp,37,↓,down,↓,0.9815038999076933,True,18,1,1,14
Y2-S2-149K18,4,375,AS,exp,45,↑,up,↑,1.1109837999101728,True,17,1,0,14
Y2-S2-149K18,4,376,AS,exp,50,←,left,←,1.1110203999560326,True,17,1,0,14
Y2-S2-149K18,4,377,AS,exp,26,→,right,→,1.4899655000772327,True,17,1,0,14
Y2-S2-149K18,4,378,AS,exp,25,↑,up,↑,0.9439360001124442,True,16,1,0,14
Y2-S2-149K18,4,379,AS,exp,46,←,left,←,0.5315754001494497,True,16,1,0,14
Y2-S2-149K18,4,380,AS,exp,34,↓,down,↓,0.8195747998543084,True,16,1,0,14
Y2-S2-149K18,4,381,AS,exp,40,→,down,↓,0.9871469000354409,False,15,-1,1,15
Y2-S2-149K18,4,382,AS,exp,48,←,down,↓,0.9177389999385923,False,16,-1,0,15
Y2-S2-149K18,4,383,AS,exp,25,↑,up,↑,0.8474244999233633,True,17,-1,0,15
Y2-S2-149K18,4,384,AS,exp,47,←,left,←,0.5275784998666495,True,17,-1,0,15
Y2-S2-149K18,4,385,AS,exp,25,↑,up,↑,0.789494700031355,True,17,1,1,16
Y2-S2-149K18,5,386,AS,intra_train,39,←,left,←,0.6171719999983907,True,27,-,-,-
Y2-S2-149K18,5,387,AS,intra_train,29,↓,down,↓,0.854004800086841,True,27,-,-,-
Y2-S2-149K18,5,388,AS,intra_train,28,→,right,→,0.5172580999787897,True,27,-,-,-
Y2-S2-149K18,5,389,AS,intra_train,50,↓,left,←,0.5670384000986814,False,27,-,-,-
Y2-S2-149K18,5,390,AS,intra_train,32,↑,up,↑,0.5171294000465423,True,27,-,-,-
Y2-S2-149K18,5,391,AS,exp,32,→,right,→,0.6307643998879939,True,18,0,0,0
Y2-S2-149K18,5,392,AS,exp,50,↑,up,↑,0.533569100080058,True,18,0,0,0
Y2-S2-149K18,5,393,AS,exp,29,→,right,→,0.7466975999996066,True,18,1,0,0
Y2-S2-149K18,5,394,AS,exp,44,←,left,←,0.5692871999926865,True,17,1,0,0
Y2-S2-149K18,5,395,AS,exp,34,→,right,→,0.5022417998407036,True,17,1,0,0
Y2-S2-149K18,5,396,AS,exp,49,←,left,←,0.7672842999454588,True,17,1,0,0
Y2-S2-149K18,5,397,AS,exp,41,→,right,→,0.7746411999687552,True,16,1,0,0
Y2-S2-149K18,5,398,AS,exp,42,←,left,←,0.540497399866581,True,16,1,0,0
Y2-S2-149K18,5,399,AS,exp,29,↑,up,↑,0.6077596000395715,True,16,1,0,0
Y2-S2-149K18,5,400,AS,exp,33,→,right,→,0.566839300096035,True,15,1,0,0
Y2-S2-149K18,5,401,AS,exp,41,←,left,←,0.8889743001200259,True,15,1,0,0
Y2-S2-149K18,5,402,AS,exp,42,↑,left,←,0.8040450001135468,False,15,-1,1,1
Y2-S2-149K18,5,403,AS,exp,45,↓,right,→,1.1499652999918908,False,16,-1,0,1
Y2-S2-149K18,5,404,AS,exp,29,←,left,←,0.5752179999835789,True,17,-1,0,1
Y2-S2-149K18,5,405,AS,exp,36,→,right,→,0.7345904998946935,True,17,-1,0,1
Y2-S2-149K18,5,406,AS,exp,30,←,left,←,0.48096249997615814,True,17,1,1,2
Y2-S2-149K18,5,407,AS,exp,25,↓,down,↓,0.9773408998735249,True,16,1,0,2
Y2-S2-149K18,5,408,AS,exp,43,←,left,←,0.6800154999364167,True,16,1,0,2
Y2-S2-149K18,5,409,AS,exp,37,↓,right,→,0.9000874001067132,False,16,-1,1,3
Y2-S2-149K18,5,410,AS,exp,41,←,left,←,0.4792126000393182,True,17,-1,0,3
Y2-S2-149K18,5,411,AS,exp,50,↑,right,→,0.738108899910003,False,17,-1,0,3
Y2-S2-149K18,5,412,AS,exp,32,←,left,←,1.8875320998486131,True,18,-1,0,3
Y2-S2-149K18,5,413,AS,exp,41,↑,up,↑,0.7271600000094622,True,18,-1,0,3
Y2-S2-149K18,5,414,AS,exp,38,←,left,←,0.5873936999123544,True,18,1,1,4
Y2-S2-149K18,5,415,AS,exp,46,↑,up,↑,0.49641710007563233,True,17,1,0,4
Y2-S2-149K18,5,416,AS,exp,42,→,right,→,0.7512980001047254,True,17,1,0,4
Y2-S2-149K18,5,417,AS,exp,29,←,left,←,1.3600868000648916,True,17,1,0,4
Y2-S2-149K18,5,418,AS,exp,40,→,right,→,0.7963000999297947,True,16,1,0,4
Y2-S2-149K18,5,419,AS,exp,46,↑,left,←,0.7400911001022905,False,16,-1,1,5
Y2-S2-149K18,5,420,AS,exp,34,←,left,←,0.7408282000105828,True,17,-1,0,5
Y2-S2-149K18,5,421,AS,exp,36,↓,right,→,0.8745561998803169,False,17,-1,0,5
Y2-S2-149K18,5,422,AS,exp,39,→,right,→,0.7885221999604255,True,18,-1,0,5
Y2-S2-149K18,5,423,AS,exp,50,←,left,←,0.5586641998961568,True,18,-1,0,5
Y2-S2-149K18,5,424,AS,exp,42,→,right,→,0.5108316999394447,True,18,1,1,6
Y2-S2-149K18,5,425,AS,exp,26,←,left,←,0.7854004998225719,True,17,1,0,6
Y2-S2-149K18,5,426,AS,exp,49,↓,down,↓,0.9571275000926107,True,17,1,0,6
Y2-S2-149K18,5,427,AS,exp,43,→,right,→,1.1234879000112414,True,17,1,0,6
Y2-S2-149K18,5,428,AS,exp,45,↑,up,↑,0.6443869001232088,True,16,1,0,6
Y2-S2-149K18,5,429,AS,exp,47,↓,down,↓,1.1045812999363989,True,16,1,0,6
Y2-S2-149K18,5,430,AS,exp,43,→,right,→,0.9620097000151873,True,16,1,0,6
Y2-S2-149K18,5,431,AS,exp,40,↑,down,↓,1.1744289000052959,False,15,-1,1,7
Y2-S2-149K18,5,432,AS,exp,44,→,down,↓,0.971938299946487,False,16,-1,0,7
Y2-S2-149K18,5,433,AS,exp,38,←,left,←,0.6415551998652518,True,17,-1,0,7
Y2-S2-149K18,5,434,AS,exp,27,↓,down,↓,1.0608989999163896,True,17,-1,0,7
Y2-S2-149K18,5,435,AS,exp,45,↑,up,↑,0.5952558999415487,True,17,1,1,8
Y2-S2-149K18,5,436,AS,exp,45,←,left,←,1.7698814000468701,True,16,1,0,8
Y2-S2-149K18,5,437,AS,exp,48,↑,up,↑,0.5502046002075076,True,16,1,0,8
Y2-S2-149K18,5,438,AS,exp,49,←,left,←,0.7252329001203179,True,16,1,0,8
Y2-S2-149K18,5,439,AS,exp,40,↑,up,↑,0.5972672998905182,True,15,1,0,8
Y2-S2-149K18,5,440,AS,exp,27,←,left,←,0.6382553000003099,True,15,1,0,8
Y2-S2-149K18,5,441,AS,exp,47,↑,up,↑,0.5548698999918997,True,15,1,0,8
Y2-S2-149K18,5,442,AS,exp,31,↓,down,↓,1.0829149999190122,True,14,1,0,8
Y2-S2-149K18,5,443,AS,exp,35,↑,down,↓,0.9887649999000132,False,14,-1,1,9
Y2-S2-149K18,5,444,AS,exp,39,←,left,←,1.0595732000656426,True,15,-1,0,9
Y2-S2-149K18,5,445,AS,exp,38,↑,up,↑,0.6693525998853147,True,15,-1,0,9
Y2-S2-149K18,5,446,AS,exp,41,↓,right,→,0.8570643998682499,False,15,-1,0,9
Y2-S2-149K18,5,447,AS,exp,35,←,right,→,0.7411748999729753,False,16,-1,0,9
Y2-S2-149K18,5,448,AS,exp,47,↑,up,↑,1.0347031001001596,True,17,-1,0,9
Y2-S2-149K18,5,449,AS,exp,41,←,left,←,0.6276471999008209,True,17,-1,0,9
Y2-S2-149K18,5,450,AS,exp,37,↑,up,↑,0.5924800001084805,True,17,1,1,10
Y2-S2-149K18,5,451,AS,exp,50,→,right,→,0.6054050999227911,True,16,1,0,10
Y2-S2-149K18,5,452,AS,exp,29,↑,up,↑,0.7557423999533057,True,16,1,0,10
Y2-S2-149K18,5,453,AS,exp,44,←,left,←,0.5858195999171585,True,16,1,0,10
Y2-S2-149K18,5,454,AS,exp,38,→,right,→,0.5617911999579519,True,15,1,0,10
Y2-S2-149K18,5,455,AS,exp,35,↑,up,↑,0.6496017999015749,True,15,1,0,10
Y2-S2-149K18,5,456,AS,exp,38,←,left,←,0.5177768000867218,True,15,1,0,10
Y2-S2-149K18,5,457,AS,exp,47,→,right,→,0.6938040999229997,True,14,1,0,10
Y2-S2-149K18,5,458,AS,exp,38,←,left,←,0.5435450000222772,True,14,1,0,10
Y2-S2-149K18,5,459,AS,exp,25,↓,down,↓,1.0514362999238074,True,14,1,0,10
Y2-S2-149K18,5,460,AS,exp,38,→,right,→,0.6532230000011623,True,13,1,0,10
Y2-S2-149K18,5,461,AS,exp,45,←,left,←,0.599851599894464,True,13,1,0,10
Y2-S2-149K18,5,462,AS,exp,40,↓,right,→,0.6025694001000375,False,13,-1,1,11
Y2-S2-149K18,5,463,AS,exp,35,←,right,→,0.6703848999459296,False,14,-1,0,11
Y2-S2-149K18,5,464,AS,exp,29,→,left,←,0.7197400000877678,False,15,-1,0,11
Y2-S2-149K18,5,465,AS,exp,33,↓,down,↓,0.8640650999732316,True,16,-1,0,11
Y2-S2-149K18,5,466,AS,exp,39,→,right,→,1.2052479998674244,True,16,-1,0,11
Y2-S2-149K18,5,467,AS,exp,32,←,down,↓,0.9544426999054849,False,16,-1,0,11
Y2-S2-149K18,5,468,AS,exp,29,→,right,→,0.9014907998498529,True,17,-1,0,11
Y2-S2-149K18,5,469,AS,exp,29,←,left,←,0.6854130998253822,True,17,-1,0,11
Y2-S2-149K18,5,470,AS,exp,34,↓,left,←,0.7101682999636978,False,17,-1,0,11
Y2-S2-149K18,5,471,AS,exp,29,↑,up,↑,0.577054699882865,True,18,-1,0,11
Y2-S2-149K18,5,472,AS,exp,50,→,right,→,0.6528600000310689,True,18,-1,0,11
Y2-S2-149K18,5,473,AS,exp,37,←,left,←,0.7232582999859005,True,18,1,1,12
Y2-S2-149K18,5,474,AS,exp,26,↓,down,↓,0.927953900070861,True,17,1,0,12
Y2-S2-149K18,5,475,AS,exp,39,←,left,←,0.6299004000611603,True,17,1,0,12
Y2-S2-149K18,5,476,AS,exp,31,→,right,→,0.4795884999912232,True,17,1,0,12
Y2-S2-149K18,5,477,AS,exp,44,↑,up,↑,0.5546864999923855,True,16,1,0,12
Y2-S2-149K18,5,478,AS,exp,37,←,left,←,0.6586931999772787,True,16,1,0,12
Y2-S2-149K18,5,479,AS,exp,25,↓,right,→,0.9536762000061572,False,16,-1,1,13
Y2-S2-149K18,5,480,AS,exp,30,→,right,→,0.5156933998223394,True,17,-1,0,13
Y2-S2-149K18,5,481,AS,exp,45,↑,up,↑,0.8394485998433083,True,17,-1,0,13
Y2-S2-149K18,5,482,AS,exp,27,↓,down,↓,1.0717337999958545,True,17,1,1,14
Y2-S2-149K18,5,483,AS,exp,46,→,right,→,0.8792435000650585,True,16,1,0,14
Y2-S2-149K18,5,484,AS,exp,27,←,left,←,0.6729913000017405,True,16,1,0,14
Y2-S2-149K18,5,485,AS,exp,47,↑,up,↑,0.6039277999661863,True,16,1,0,14
Y2-S2-149K18,5,486,AS,exp,25,→,right,→,0.6006076999474317,True,15,1,0,14
Y2-S2-149K18,5,487,AS,exp,43,↓,down,↓,0.8147816001437604,True,15,1,0,14
Y2-S2-149K18,5,488,AS,exp,46,↑,down,↓,0.9111382998526096,False,15,-1,1,15
Y2-S2-149K18,5,489,AS,exp,28,↓,up,↑,0.8592127999290824,False,16,-1,0,15
Y2-S2-149K18,5,490,AS,exp,45,↑,up,↑,0.6693202999886125,True,17,-1,0,15
Y2-S2-149K18,5,491,AS,exp,47,→,right,→,0.6136774001643062,True,17,-1,0,15
Y2-S2-149K18,5,492,AS,exp,41,↑,up,↑,0.5707475999370217,True,17,1,1,16
Y2-S2-149K18,6,493,PS,intra_train,41,↓,down,↓,0.7912173001095653,True,12,-,-,-
Y2-S2-149K18,6,494,PS,intra_train,29,↑,down,↓,0.7410895000211895,False,12,-,-,-
Y2-S2-149K18,6,495,PS,intra_train,44,↓,down,↓,0.5811224998906255,True,12,-,-,-
Y2-S2-149K18,6,496,PS,intra_train,27,→,right,→,0.6487384000793099,True,12,-,-,-
Y2-S2-149K18,6,497,PS,intra_train,32,←,left,←,0.8147557999473065,True,12,-,-,-
Y2-S2-149K18,6,498,PS,exp,48,↑,up,↑,0.6544689000584185,True,8,0,0,0
Y2-S2-149K18,6,499,PS,exp,34,←,right,→,0.5627220999449492,False,8,-1,0,0
Y2-S2-149K18,6,500,PS,exp,33,↓,down,↓,0.6962072998285294,True,9,-1,0,0
Y2-S2-149K18,6,501,PS,exp,33,←,left,←,0.6598380000796169,True,9,-1,0,0
Y2-S2-149K18,6,502,PS,exp,39,↓,down,↓,0.7395075999666005,True,9,1,1,1
Y2-S2-149K18,6,503,PS,exp,46,↑,up,↑,0.7436936998274177,True,8,1,0,1
Y2-S2-149K18,6,504,PS,exp,45,↓,down,↓,0.7057640000712126,True,8,1,0,1
Y2-S2-149K18,6,505,PS,exp,29,→,left,←,1.1853869000915438,False,8,-1,1,2
Y2-S2-149K18,6,506,PS,exp,47,↓,right,→,0.7129769001621753,False,9,-1,0,2
Y2-S2-149K18,6,507,PS,exp,50,←,right,→,0.7274916998576373,False,10,-1,0,2
Y2-S2-149K18,6,508,PS,exp,48,→,right,→,0.8725516002159566,True,11,-1,0,2
Y2-S2-149K18,6,509,PS,exp,28,↓,down,↓,0.7411736000794917,True,11,-1,0,2
Y2-S2-149K18,6,510,PS,exp,33,←,left,←,1.1746982999611646,True,11,1,1,3
Y2-S2-149K18,6,511,PS,exp,26,↓,down,↓,0.8494613000657409,True,10,1,0,3
Y2-S2-149K18,6,512,PS,exp,46,←,left,←,0.5027809001039714,True,10,1,0,3
Y2-S2-149K18,6,513,PS,exp,44,→,right,→,0.5335315999109298,True,10,1,0,3
Y2-S2-149K18,6,514,PS,exp,41,←,left,←,1.170688700163737,True,9,1,0,3
Y2-S2-149K18,6,515,PS,exp,25,↑,up,↑,0.764974300051108,True,9,1,0,3
Y2-S2-149K18,6,516,PS,exp,44,→,right,→,0.8324390999041498,True,9,1,0,3
Y2-S2-149K18,6,517,PS,exp,29,↑,left,←,0.665416699834168,False,8,-1,1,4
Y2-S2-149K18,6,518,PS,exp,39,→,right,→,0.5295992000028491,True,9,-1,0,4
Y2-S2-149K18,6,519,PS,exp,28,↑,up,↑,0.7939485001843423,True,9,-1,0,4
Y2-S2-149K18,6,520,PS,exp,25,→,right,→,0.6330411999952048,True,9,1,1,5
Y2-S2-149K18,6,521,PS,exp,48,↓,down,↓,0.6464588001836091,True,8,1,0,5
Y2-S2-149K18,6,522,PS,exp,48,←,right,→,0.46804160019382834,False,8,-1,1,6
Y2-S2-149K18,6,523,PS,exp,45,→,right,→,0.7792724999599159,True,9,-1,0,6
Y2-S2-149K18,6,524,PS,exp,36,↓,right,→,0.4863450999837369,False,9,-1,0,6
Y2-S2-149K18,6,525,PS,exp,29,→,right,→,0.5728722999338061,True,10,-1,0,6
Y2-S2-149K18,6,526,PS,exp,28,←,left,←,0.813952999887988,True,10,-1,0,6
Y2-S2-149K18,6,527,PS,exp,50,↑,up,↑,0.6922653000801802,True,10,1,1,7
Y2-S2-149K18,6,528,PS,exp,31,→,right,→,1.2091465000994503,True,9,1,0,7
Y2-S2-149K18,6,529,PS,exp,38,←,left,←,1.0321818001102656,True,9,1,0,7
Y2-S2-149K18,6,530,PS,exp,50,↓,down,↓,0.6570511998143047,True,9,1,0,7
Y2-S2-149K18,6,531,PS,exp,29,←,left,←,0.71324050007388,True,8,1,0,7
Y2-S2-149K18,6,532,PS,exp,31,↓,down,↓,0.6570349000394344,True,8,1,0,7
Y2-S2-149K18,6,533,PS,exp,34,←,left,←,0.9002058000769466,True,8,1,0,7
Y2-S2-149K18,6,534,PS,exp,49,→,right,→,0.5813234001398087,True,7,1,0,7
Y2-S2-149K18,6,535,PS,exp,35,←,right,→,0.9270219001919031,False,7,-1,1,8
Y2-S2-149K18,6,536,PS,exp,32,→,right,→,0.9661260999273509,True,8,-1,0,8
Y2-S2-149K18,6,537,PS,exp,28,↑,up,↑,0.787680100183934,True,8,-1,0,8
Y2-S2-149K18,6,538,PS,exp,32,↓,right,→,0.7314325999468565,False,8,-1,0,8
Y2-S2-149K18,6,539,PS,exp,38,↑,up,↑,0.6850850000046194,True,9,-1,0,8
Y2-S2-149K18,6,540,PS,exp,28,←,left,←,0.6469604000449181,True,9,-1,0,8
Y2-S2-149K18,6,541,PS,exp,43,↓,down,↓,0.5841067999135703,True,9,1,1,9
Y2-S2-149K18,6,542,PS,exp,50,↑,right,→,0.5130618999246508,False,8,-1,1,10
Y2-S2-149K18,6,543,PS,exp,34,→,up,↑,0.8718143000733107,False,9,-1,0,10
Y2-S2-149K18,6,544,PS,exp,50,↓,down,↓,0.6371008998248726,True,10,-1,0,10
Y2-S2-149K18,6,545,PS,exp,31,←,left,←,0.6426199001725763,True,10,-1,0,10
Y2-S2-149K18,6,546,PS,exp,50,↓,down,↓,0.6721467000897974,True,10,1,1,11
Y2-S2-149K18,6,547,PS,exp,48,↑,down,↓,0.7682444998063147,False,9,-1,1,12
Y2-S2-149K18,6,548,PS,exp,34,←,right,→,0.6284290000330657,False,10,-1,0,12
Y2-S2-149K18,6,549,PS,exp,42,→,right,→,0.8894603000953794,True,11,-1,0,12
Y2-S2-149K18,6,550,PS,exp,43,↑,up,↑,0.7304726000875235,True,11,-1,0,12
Y2-S2-149K18,6,551,PS,exp,45,→,right,→,0.5766873001120985,True,11,1,1,13
Y2-S2-149K18,6,552,PS,exp,35,↑,up,↑,0.6873694001697004,True,10,1,0,13
Y2-S2-149K18,6,553,PS,exp,26,←,right,→,1.0986284001264721,False,10,-1,1,14
Y2-S2-149K18,6,554,PS,exp,30,↓,down,↓,0.6450088999699801,True,11,-1,0,14
Y2-S2-149K18,6,555,PS,exp,34,↑,up,↑,0.5652288000565022,True,11,-1,0,14
Y2-S2-149K18,6,556,PS,exp,35,↓,down,↓,1.3905694999266416,True,11,1,1,15
Y2-S2-149K18,6,557,PS,exp,30,←,left,←,0.9935542000457644,True,10,1,0,15
Y2-S2-149K18,6,558,PS,exp,35,↑,up,↑,0.6787632000632584,True,10,1,0,15
Y2-S2-149K18,6,559,PS,exp,39,←,up,↑,1.0656161999795586,False,10,-1,1,16
Y2-S2-149K18,7,560,PS,intra_train,27,→,right,→,0.7773800001014024,True,12,-,-,-
Y2-S2-149K18,7,561,PS,intra_train,32,↓,down,↓,0.7546744998544455,True,12,-,-,-
Y2-S2-149K18,7,562,PS,intra_train,37,→,right,→,0.5535768999252468,True,12,-,-,-
Y2-S2-149K18,7,563,PS,intra_train,42,↑,up,↑,0.5363213999662548,True,12,-,-,-
Y2-S2-149K18,7,564,PS,intra_train,31,↓,down,↓,0.6714929000008851,True,12,-,-,-
Y2-S2-149K18,7,565,PS,exp,45,↑,right,→,0.5980305001139641,False,8,-1,0,0
Y2-S2-149K18,7,566,PS,exp,32,←,right,→,0.784611799987033,False,9,-1,0,0
Y2-S2-149K18,7,567,PS,exp,32,↓,right,→,0.5353394001722336,False,10,-1,0,0
Y2-S2-149K18,7,568,PS,exp,34,→,right,→,0.6300602001138031,True,11,-1,0,0
Y2-S2-149K18,7,569,PS,exp,34,↑,up,↑,0.5376577000133693,True,11,-1,0,0
Y2-S2-149K18,7,570,PS,exp,34,←,left,←,0.8031275998800993,True,11,1,1,1
Y2-S2-149K18,7,571,PS,exp,41,↓,right,→,0.570801499998197,False,10,-1,1,2
Y2-S2-149K18,7,572,PS,exp,38,↑,right,→,0.5566480001434684,False,11,-1,0,2
Y2-S2-149K18,7,573,PS,exp,27,→,right,→,1.2602905000094324,True,12,-1,0,2
Y2-S2-149K18,7,574,PS,exp,41,←,left,←,0.7979067000560462,True,12,-1,0,2
Y2-S2-149K18,7,575,PS,exp,39,↓,down,↓,0.6810051000211388,True,12,1,1,3
Y2-S2-149K18,7,576,PS,exp,32,←,left,←,0.7568415999412537,True,11,1,0,3
Y2-S2-149K18,7,577,PS,exp,46,↓,down,↓,0.7184968001674861,True,11,1,0,3
Y2-S2-149K18,7,578,PS,exp,45,→,right,→,0.5054703999776393,True,11,1,0,3
Y2-S2-149K18,7,579,PS,exp,46,↓,down,↓,0.7344529000110924,True,10,1,0,3
Y2-S2-149K18,7,580,PS,exp,39,↑,right,→,0.4262737000826746,False,10,-1,1,4
Y2-S2-149K18,7,581,PS,exp,33,←,left,←,0.6916346000507474,True,11,-1,0,4
Y2-S2-149K18,7,582,PS,exp,48,→,right,→,0.45596690010279417,True,11,-1,0,4
Y2-S2-149K18,7,583,PS,exp,27,←,right,→,0.5657019999343902,False,11,-1,0,4
Y2-S2-149K18,7,584,PS,exp,49,→,right,→,0.4653729998972267,True,12,-1,0,4
Y2-S2-149K18,7,585,PS,exp,25,↓,down,↓,0.6339457000140101,True,12,-1,0,4
Y2-S2-149K18,7,586,PS,exp,29,←,left,←,0.6582981999963522,True,12,1,1,5
Y2-S2-149K18,7,587,PS,exp,40,↓,down,↓,0.6941708000376821,True,11,1,0,5
Y2-S2-149K18,7,588,PS,exp,30,↑,up,↑,0.5710641001351178,True,11,1,0,5
Y2-S2-149K18,7,589,PS,exp,32,→,right,→,0.519154499983415,True,11,1,0,5
Y2-S2-149K18,7,590,PS,exp,31,←,right,→,0.6808245000429451,False,10,-1,1,6
Y2-S2-149K18,7,591,PS,exp,42,↓,down,↓,0.848596700001508,True,11,-1,0,6
Y2-S2-149K18,7,592,PS,exp,28,←,left,←,0.7713770000264049,True,11,-1,0,6
Y2-S2-149K18,7,593,PS,exp,35,↑,up,↑,0.5375494000036269,True,11,1,1,7
Y2-S2-149K18,7,594,PS,exp,48,→,right,→,0.6068907000590116,True,10,1,0,7
Y2-S2-149K18,7,595,PS,exp,29,↓,down,↓,0.9171619000844657,True,10,1,0,7
Y2-S2-149K18,7,596,PS,exp,47,→,right,→,1.0985233997926116,True,10,1,0,7
Y2-S2-149K18,7,597,PS,exp,30,↑,up,↑,0.5544827999547124,True,9,1,0,7
Y2-S2-149K18,7,598,PS,exp,26,←,left,←,0.7473776999395341,True,9,1,0,7
Y2-S2-149K18,7,599,PS,exp,44,↓,down,↓,0.5519487999845296,True,9,1,0,7
Y2-S2-149K18,7,600,PS,exp,35,→,right,→,0.5519796998705715,True,8,1,0,7
Y2-S2-149K18,7,601,PS,exp,43,↓,down,↓,0.6754980999976397,True,8,1,0,7
Y2-S2-149K18,7,602,PS,exp,41,→,right,→,0.5918399000074714,True,8,1,0,7
Y2-S2-149K18,7,603,PS,exp,42,←,left,←,0.6107250000350177,True,7,1,0,7
Y2-S2-149K18,7,604,PS,exp,26,→,right,→,0.5296136999968439,True,7,1,0,7
Y2-S2-149K18,7,605,PS,exp,32,↓,right,→,0.5102335000410676,False,7,-1,1,8
Y2-S2-149K18,7,606,PS,exp,27,←,left,←,0.6375611999537796,True,8,-1,0,8
Y2-S2-149K18,7,607,PS,exp,49,→,right,→,0.7715450001414865,True,8,-1,0,8
Y2-S2-149K18,7,608,PS,exp,29,←,right,→,0.7195524999406189,False,8,-1,0,8
Y2-S2-149K18,7,609,PS,exp,28,↑,down,↓,0.730926200048998,False,9,-1,0,8
Y2-S2-149K18,7,610,PS,exp,27,→,right,→,0.6351918999571353,True,10,-1,0,8
Y2-S2-149K18,7,611,PS,exp,25,↑,left,←,1.0298727999906987,False,10,-1,0,8
Y2-S2-149K18,7,612,PS,exp,43,↓,down,↓,0.6336342000868171,True,11,-1,0,8
Y2-S2-149K18,7,613,PS,exp,34,←,left,←,0.6153120999224484,True,11,-1,0,8
Y2-S2-149K18,7,614,PS,exp,37,↑,up,↑,0.5276810999494046,True,11,1,1,9
Y2-S2-149K18,7,615,PS,exp,36,↓,down,↓,0.5208490998484194,True,10,1,0,9
Y2-S2-149K18,7,616,PS,exp,30,↑,up,↑,0.6020758000668138,True,10,1,0,9
Y2-S2-149K18,7,617,PS,exp,29,←,left,←,0.5406696000136435,True,10,1,0,9
Y2-S2-149K18,7,618,PS,exp,50,↑,right,→,0.621333499904722,False,9,-1,1,10
Y2-S2-149K18,7,619,PS,exp,39,←,right,→,0.5666701998561621,False,10,-1,0,10
Y2-S2-149K18,7,620,PS,exp,28,→,right,→,0.6160267000086606,True,11,-1,0,10
Y2-S2-149K18,7,621,PS,exp,32,↑,up,↑,0.4698807999957353,True,11,-1,0,10
Y2-S2-149K18,7,622,PS,exp,48,←,left,←,0.9254813999868929,True,11,1,1,11
Y2-S2-149K18,7,623,PS,exp,25,↓,right,→,0.921315599931404,False,10,-1,1,12
Y2-S2-149K18,7,624,PS,exp,36,→,right,→,0.6717571001499891,True,11,-1,0,12
Y2-S2-149K18,7,625,PS,exp,45,↑,up,↑,0.5237340999301523,True,11,-1,0,12
Y2-S2-149K18,7,626,PS,exp,34,→,right,→,0.5593293998390436,True,11,1,1,13
Y2-S2-149K18,7,627,PS,exp,46,↑,up,↑,0.7028584000654519,True,10,1,0,13
Y2-S2-149K18,7,628,PS,exp,48,↓,down,↓,0.6082964001689106,True,10,1,0,13
Y2-S2-149K18,7,629,PS,exp,32,→,right,→,0.605564699973911,True,10,1,0,13
Y2-S2-149K18,7,630,PS,exp,49,↓,down,↓,0.6395247001200914,True,9,1,0,13
Y2-S2-149K18,7,631,PS,exp,32,→,down,↓,0.7719547001179308,False,9,-1,1,14
Y2-S2-149K18,7,632,PS,exp,26,←,left,←,0.701114600058645,True,10,-1,0,14
Y2-S2-149K18,7,633,PS,exp,26,↓,right,→,0.6795845001470298,False,10,-1,0,14
Y2-S2-149K18,7,634,PS,exp,48,↑,right,→,0.974798999959603,False,11,-1,0,14
Y2-S2-149K18,7,635,PS,exp,34,↓,right,→,0.5853042001836002,False,12,-1,0,14
Y2-S2-149K18,7,636,PS,exp,40,→,right,→,0.5554033999796957,True,13,-1,0,14
Y2-S2-149K18,7,637,PS,exp,45,←,left,←,0.7199099999852479,True,13,-1,0,14
Y2-S2-149K18,7,638,PS,exp,45,↓,down,↓,0.6562522000167519,True,13,1,1,15
Y2-S2-149K18,7,639,PS,exp,45,→,right,→,0.543590399902314,True,12,1,0,15
Y2-S2-149K18,7,640,PS,exp,27,↑,right,→,0.6785288001410663,False,12,-1,1,16
Y2-S2-149K18,8,641,AS,intra_train,27,←,left,←,1.0043508999515325,True,27,-,-,-
Y2-S2-149K18,8,642,AS,intra_train,48,↑,up,↑,0.6370138002093881,True,27,-,-,-
Y2-S2-149K18,8,643,AS,intra_train,47,←,left,←,0.5171964999753982,True,27,-,-,-
Y2-S2-149K18,8,644,AS,intra_train,34,↓,down,↓,0.7566587999463081,True,27,-,-,-
Y2-S2-149K18,8,645,AS,intra_train,28,→,right,→,0.688823499949649,True,27,-,-,-
Y2-S2-149K18,8,646,AS,exp,47,↑,right,→,0.48215049994178116,False,18,-1,0,0
Y2-S2-149K18,8,647,AS,exp,43,←,left,←,0.5598126000259072,True,19,-1,0,0
Y2-S2-149K18,8,648,AS,exp,32,→,right,→,0.5639818999916315,True,19,-1,0,0
Y2-S2-149K18,8,649,AS,exp,40,←,left,←,0.7879220000468194,True,19,1,1,1
Y2-S2-149K18,8,650,AS,exp,35,↑,up,↑,0.7760836998932064,True,18,1,0,1
Y2-S2-149K18,8,651,AS,exp,38,↓,down,↓,0.6991081000305712,True,18,1,0,1
Y2-S2-149K18,8,652,AS,exp,44,←,left,←,0.5369818999897689,True,18,1,0,1
Y2-S2-149K18,8,653,AS,exp,31,↑,down,↓,1.8133492001798004,False,17,-1,1,2
Y2-S2-149K18,8,654,AS,exp,36,→,right,→,0.6474291000049561,True,18,-1,0,2
Y2-S2-149K18,8,655,AS,exp,44,←,left,←,0.5202681000810117,True,18,-1,0,2
Y2-S2-149K18,8,656,AS,exp,43,↓,right,→,0.9006546000018716,False,18,-1,0,2
Y2-S2-149K18,8,657,AS,exp,41,←,left,←,0.5342691999394447,True,19,-1,0,2
Y2-S2-149K18,8,658,AS,exp,34,↑,up,↑,0.566508200019598,True,19,-1,0,2
Y2-S2-149K18,8,659,AS,exp,36,↓,down,↓,1.1734360998962075,True,19,1,1,3
Y2-S2-149K18,8,660,AS,exp,48,↑,no_key,no_letter,-1.0,False,18,-1,1,4
Y2-S2-149K18,8,661,AS,exp,35,↓,down,↓,1.0117034998256713,True,19,-1,0,4
Y2-S2-149K18,8,662,AS,exp,45,↑,up,↑,0.600014999974519,True,19,-1,0,4
Y2-S2-149K18,8,663,AS,exp,39,→,up,↑,0.8156573998276144,False,19,-1,0,4
Y2-S2-149K18,8,664,AS,exp,40,↓,down,↓,0.7265625,True,20,-1,0,4
Y2-S2-149K18,8,665,AS,exp,42,↑,up,↑,0.5445654999930412,True,20,-1,0,4
Y2-S2-149K18,8,666,AS,exp,38,↓,down,↓,0.946033300133422,True,20,1,1,5
Y2-S2-149K18,8,667,AS,exp,40,↑,up,↑,0.5574608999304473,True,19,1,0,5
Y2-S2-149K18,8,668,AS,exp,47,↓,down,↓,0.9805347002111375,True,19,1,0,5
Y2-S2-149K18,8,669,AS,exp,46,→,right,→,0.6672855999786407,True,19,1,0,5
Y2-S2-149K18,8,670,AS,exp,46,↑,up,↑,0.5938514000736177,True,18,1,0,5
Y2-S2-149K18,8,671,AS,exp,45,→,right,→,0.8211651998572052,True,18,1,0,5
Y2-S2-149K18,8,672,AS,exp,28,←,left,←,0.9242948000319302,True,18,1,0,5
Y2-S2-149K18,8,673,AS,exp,48,→,right,→,0.5896717000287026,True,17,1,0,5
Y2-S2-149K18,8,674,AS,exp,36,↑,up,↑,0.8193172002211213,True,17,1,0,5
Y2-S2-149K18,8,675,AS,exp,40,↓,up,↑,1.3420816999860108,False,17,-1,1,6
Y2-S2-149K18,8,676,AS,exp,41,←,left,←,0.6133998001459986,True,18,-1,0,6
Y2-S2-149K18,8,677,AS,exp,25,↑,up,↑,0.8388072000816464,True,18,-1,0,6
Y2-S2-149K18,8,678,AS,exp,45,↓,right,→,0.9193546001333743,False,18,-1,0,6
Y2-S2-149K18,8,679,AS,exp,29,←,left,←,0.6862732998561114,True,19,-1,0,6
Y2-S2-149K18,8,680,AS,exp,49,↓,right,→,0.6666353999171406,False,19,-1,0,6
Y2-S2-149K18,8,681,AS,exp,27,↑,up,↑,0.7328429999761283,True,20,-1,0,6
Y2-S2-149K18,8,682,AS,exp,39,←,left,←,0.8553532001096755,True,20,-1,0,6
Y2-S2-149K18,8,683,AS,exp,48,↑,up,↑,0.5072387000545859,True,20,1,1,7
Y2-S2-149K18,8,684,AS,exp,29,↓,down,↓,0.7373369000852108,True,19,1,0,7
Y2-S2-149K18,8,685,AS,exp,38,↑,up,↑,0.8859040001407266,True,19,1,0,7
Y2-S2-149K18,8,686,AS,exp,29,→,right,→,0.5328186999540776,True,19,1,0,7
Y2-S2-149K18,8,687,AS,exp,44,←,left,←,1.090993900084868,True,18,1,0,7
Y2-S2-149K18,8,688,AS,exp,43,→,right,→,0.5946305999532342,True,18,1,0,7
Y2-S2-149K18,8,689,AS,exp,47,↑,up,↑,1.8380888998508453,True,18,1,0,7
Y2-S2-149K18,8,690,AS,exp,31,→,right,→,0.6407061999198049,True,17,1,0,7
Y2-S2-149K18,8,691,AS,exp,50,↓,left,←,0.8548870000522584,False,17,-1,1,8
Y2-S2-149K18,8,692,AS,exp,45,↑,up,↑,0.6553807000163943,True,18,-1,0,8
Y2-S2-149K18,8,693,AS,exp,34,↓,down,↓,0.9000079999677837,True,18,-1,0,8
Y2-S2-149K18,8,694,AS,exp,45,↑,up,↑,1.5170147002208978,True,18,1,1,9
Y2-S2-149K18,8,695,AS,exp,38,↓,down,↓,0.9898664001375437,True,17,1,0,9
Y2-S2-149K18,8,696,AS,exp,49,←,left,←,0.6251417999155819,True,17,1,0,9
Y2-S2-149K18,8,697,AS,exp,34,→,right,→,0.5100630999077111,True,17,1,0,9
Y2-S2-149K18,8,698,AS,exp,37,↓,down,↓,0.6710985000245273,True,16,1,0,9
Y2-S2-149K18,8,699,AS,exp,43,→,right,→,0.6341737001203,True,16,1,0,9
Y2-S2-149K18,8,700,AS,exp,42,↑,up,↑,0.5341322999447584,True,16,1,0,9
Y2-S2-149K18,8,701,AS,exp,45,→,right,→,0.6934106999542564,True,15,1,0,9
Y2-S2-149K18,8,702,AS,exp,45,←,left,←,0.5472752000205219,True,15,1,0,9
Y2-S2-149K18,8,703,AS,exp,44,↑,up,↑,0.6008506999351084,True,15,1,0,9
Y2-S2-149K18,8,704,AS,exp,25,↓,down,↓,0.7510583000257611,True,14,1,0,9
Y2-S2-149K18,8,705,AS,exp,34,←,left,←,0.6101005000527948,True,14,1,0,9
Y2-S2-149K18,8,706,AS,exp,30,→,right,→,0.6207769999746233,True,14,1,0,9
Y2-S2-149K18,8,707,AS,exp,37,↓,up,↑,0.9400581999216229,False,13,-1,1,10
Y2-S2-149K18,8,708,AS,exp,38,←,left,←,0.7333580001723021,True,14,-1,0,10
Y2-S2-149K18,8,709,AS,exp,45,↑,up,↑,0.4960725998971611,True,14,-1,0,10
Y2-S2-149K18,8,710,AS,exp,33,←,left,←,0.6571054998785257,True,14,1,1,11
Y2-S2-149K18,8,711,AS,exp,44,→,right,→,0.5264822000171989,True,13,1,0,11
Y2-S2-149K18,8,712,AS,exp,48,↑,up,↑,0.5528456999454647,True,13,1,0,11
Y2-S2-149K18,8,713,AS,exp,32,↓,up,↑,0.6617797999642789,False,13,-1,1,12
Y2-S2-149K18,8,714,AS,exp,49,↑,up,↑,0.44590949988923967,True,14,-1,0,12
Y2-S2-149K18,8,715,AS,exp,30,↓,up,↑,0.6327359001152217,False,14,-1,0,12
Y2-S2-149K18,8,716,AS,exp,36,↑,up,↑,0.4264600002206862,True,15,-1,0,12
Y2-S2-149K18,8,717,AS,exp,36,←,left,←,0.7544996000360698,True,15,-1,0,12
Y2-S2-149K18,8,718,AS,exp,41,→,right,→,0.48994819982908666,True,15,1,1,13
Y2-S2-149K18,8,719,AS,exp,49,↑,no_key,no_letter,-1.0,False,14,-1,1,14
Y2-S2-149K18,8,720,AS,exp,43,↓,up,↑,0.7473138999193907,False,15,-1,0,14
Y2-S2-149K18,8,721,AS,exp,45,←,left,←,0.5353964001405984,True,16,-1,0,14
Y2-S2-149K18,8,722,AS,exp,38,↓,down,↓,0.8300226998981088,True,16,-1,0,14
Y2-S2-149K18,8,723,AS,exp,46,←,right,→,0.706175799947232,False,16,-1,0,14
Y2-S2-149K18,8,724,AS,exp,40,↓,down,↓,0.7858627999667078,True,17,-1,0,14
Y2-S2-149K18,8,725,AS,exp,41,←,right,→,1.175384899834171,False,17,-1,0,14
Y2-S2-149K18,8,726,AS,exp,40,↑,down,↓,0.7916453999932855,False,18,-1,0,14
Y2-S2-149K18,8,727,AS,exp,46,↓,left,←,0.9101918002124876,False,19,-1,0,14
Y2-S2-149K18,8,728,AS,exp,29,↑,up,↑,0.7654279000125825,True,20,-1,0,14
Y2-S2-149K18,8,729,AS,exp,27,→,right,→,0.6946919001638889,True,20,-1,0,14
Y2-S2-149K18,8,730,AS,exp,49,↑,up,↑,0.7565155997872353,True,20,1,1,15
Y2-S2-149K18,8,731,AS,exp,44,↓,down,↓,0.8390538999810815,True,19,1,0,15
Y2-S2-149K18,8,732,AS,exp,34,↑,down,↓,1.0948063998948783,False,19,-1,1,16
