PART_ID,Block_no,Trial_no,Block_type,Trial_type,CSI,Stim_letter,Key_pressed,letter_choose,Rt,Corr,Stimulus Time,Level,Reversal,Revs_count
Y2-S2-083M22,1,1,PS,train,43,↑,up,↑,0.6695497999899089,True,30,-,-,-
Y2-S2-083M22,1,2,PS,train,40,←,left,←,0.6340574002824724,True,30,-,-,-
Y2-S2-083M22,1,3,PS,train,38,↑,up,↑,0.5174289997667074,True,30,-,-,-
Y2-S2-083M22,1,4,PS,train,34,→,right,→,0.7045702999457717,True,30,-,-,-
Y2-S2-083M22,1,5,PS,train,33,↓,down,↓,0.6707987999543548,True,30,-,-,-
Y2-S2-083M22,1,6,PS,train,44,↑,up,↑,1.4136974001303315,True,30,-,-,-
Y2-S2-083M22,1,7,PS,train,50,→,right,→,0.7773331999778748,True,30,-,-,-
Y2-S2-083M22,1,8,PS,train,26,↑,up,↑,0.7346160998567939,True,30,-,-,-
Y2-S2-083M22,1,9,PS,train,40,↓,up,↑,0.6682267002761364,False,30,-,-,-
Y2-S2-083M22,1,10,PS,train,45,→,right,→,0.4839955996721983,True,30,-,-,-
Y2-S2-083M22,2,11,AS,train,42,↑,up,↑,0.6010443000122905,True,45,-,-,-
Y2-S2-083M22,2,12,AS,train,38,→,right,→,0.6175504000857472,True,45,-,-,-
Y2-S2-083M22,2,13,AS,train,32,↓,down,↓,0.5344668002799153,True,45,-,-,-
Y2-S2-083M22,2,14,AS,train,48,→,right,→,0.567083700094372,True,45,-,-,-
Y2-S2-083M22,2,15,AS,train,46,←,right,→,0.43434710009023547,False,45,-,-,-
Y2-S2-083M22,2,16,AS,train,44,↓,down,↓,0.7502373997122049,True,45,-,-,-
Y2-S2-083M22,2,17,AS,train,25,→,right,→,1.547651399858296,True,45,-,-,-
Y2-S2-083M22,2,18,AS,train,39,↓,down,↓,0.5676719998009503,True,45,-,-,-
Y2-S2-083M22,2,19,AS,train,44,→,right,→,0.9204718000255525,True,45,-,-,-
Y2-S2-083M22,2,20,AS,train,45,↑,up,↑,1.1603767997585237,True,45,-,-,-
Y2-S2-083M22,-,21,PS,adaptive,50,←,left,←,0.7055236003361642,True,10,0,0,0
Y2-S2-083M22,-,22,PS,adaptive,38,↓,down,↓,0.5155104999430478,True,10,0,0,0
Y2-S2-083M22,-,23,PS,adaptive,44,→,right,→,0.9722028002142906,True,10,1,0,0
Y2-S2-083M22,-,24,PS,adaptive,28,←,right,→,0.6162041001953185,False,9,-1,1,1
Y2-S2-083M22,-,25,PS,adaptive,26,→,left,←,0.8729341998696327,False,10,-1,0,1
Y2-S2-083M22,-,26,PS,adaptive,50,↑,down,↓,0.8549788002856076,False,11,-1,0,1
Y2-S2-083M22,-,27,PS,adaptive,49,←,right,→,0.6280705002136528,False,12,-1,0,1
Y2-S2-083M22,-,28,PS,adaptive,47,↓,left,←,0.687315299641341,False,13,-1,0,1
Y2-S2-083M22,-,29,PS,adaptive,45,→,right,→,0.658858900424093,True,14,-1,0,1
Y2-S2-083M22,-,30,PS,adaptive,42,↑,up,↑,0.6909364997409284,True,14,-1,0,1
Y2-S2-083M22,-,31,PS,adaptive,34,→,right,→,0.4011154999025166,True,14,1,1,2
Y2-S2-083M22,-,32,PS,adaptive,42,↓,down,↓,0.6429596999660134,True,13,1,0,2
Y2-S2-083M22,-,33,PS,adaptive,47,→,right,→,0.49278669990599155,True,13,1,0,2
Y2-S2-083M22,-,34,PS,adaptive,45,↓,down,↓,1.3172019999474287,True,13,1,0,2
Y2-S2-083M22,-,35,PS,adaptive,34,←,right,→,0.6462946999818087,False,12,-1,1,3
Y2-S2-083M22,-,36,PS,adaptive,41,→,right,→,0.7169594001024961,True,13,-1,0,3
Y2-S2-083M22,-,37,PS,adaptive,29,←,right,→,0.8156892997212708,False,13,-1,0,3
Y2-S2-083M22,-,38,PS,adaptive,47,→,right,→,0.9096198999322951,True,14,-1,0,3
Y2-S2-083M22,-,39,PS,adaptive,27,←,left,←,0.768505800049752,True,14,-1,0,3
Y2-S2-083M22,-,40,PS,adaptive,49,→,right,→,0.5527001000009477,True,14,1,1,4
Y2-S2-083M22,-,41,AS,adaptive,48,↓,down,↓,0.6159028001129627,True,20,0,0,0
Y2-S2-083M22,-,42,AS,adaptive,42,→,right,→,0.5207273000851274,True,20,0,0,0
Y2-S2-083M22,-,43,AS,adaptive,45,↓,down,↓,0.6448095999658108,True,20,1,0,0
Y2-S2-083M22,-,44,AS,adaptive,38,→,right,→,0.5704148998484015,True,19,1,0,0
Y2-S2-083M22,-,45,AS,adaptive,48,↓,down,↓,0.6843900000676513,True,19,1,0,0
Y2-S2-083M22,-,46,AS,adaptive,47,↑,down,↓,0.5493108998052776,False,19,-1,1,1
Y2-S2-083M22,-,47,AS,adaptive,34,→,right,→,0.9995665997266769,True,20,-1,0,1
Y2-S2-083M22,-,48,AS,adaptive,34,↑,up,↑,0.7024245001375675,True,20,-1,0,1
Y2-S2-083M22,-,49,AS,adaptive,25,←,left,←,0.5229550995863974,True,20,1,1,2
Y2-S2-083M22,-,50,AS,adaptive,36,↑,down,↓,0.7652572998777032,False,19,-1,1,3
Y2-S2-083M22,-,51,AS,adaptive,39,↓,down,↓,0.6587653001770377,True,20,-1,0,3
Y2-S2-083M22,-,52,AS,adaptive,39,←,right,→,0.6089790998958051,False,20,-1,0,3
Y2-S2-083M22,-,53,AS,adaptive,49,→,right,→,1.1497436999343336,True,21,-1,0,3
Y2-S2-083M22,-,54,AS,adaptive,27,↓,down,↓,0.6912217000499368,True,21,-1,0,3
Y2-S2-083M22,-,55,AS,adaptive,29,↑,right,→,0.8079035999253392,False,21,-1,0,3
Y2-S2-083M22,-,56,AS,adaptive,42,→,right,→,0.7717916001565754,True,22,-1,0,3
Y2-S2-083M22,-,57,AS,adaptive,39,↓,down,↓,0.7886359998956323,True,22,-1,0,3
Y2-S2-083M22,-,58,AS,adaptive,39,→,left,←,1.1532959998585284,False,22,-1,0,3
Y2-S2-083M22,-,59,AS,adaptive,31,←,right,→,0.6710442998446524,False,23,-1,0,3
Y2-S2-083M22,-,60,AS,adaptive,44,↓,down,↓,0.725524399895221,True,24,-1,0,3
Y2-S2-083M22,-,61,AS,adaptive,29,←,left,←,0.591129899956286,True,24,-1,0,3
Y2-S2-083M22,-,62,AS,adaptive,29,↑,right,→,0.9188761003315449,False,24,-1,0,3
Y2-S2-083M22,-,63,AS,adaptive,32,←,down,↓,1.439126200042665,False,25,-1,0,3
Y2-S2-083M22,-,64,AS,adaptive,48,↓,down,↓,0.6402190001681447,True,26,-1,0,3
Y2-S2-083M22,-,65,AS,adaptive,27,→,right,→,1.9648501998744905,True,26,-1,0,3
Y2-S2-083M22,-,66,AS,adaptive,40,↓,down,↓,1.1222127000801265,True,26,1,1,4
Y2-S2-083M22,1,67,AS,intra_train,33,→,right,→,0.6342154000885785,True,37,-,-,-
Y2-S2-083M22,1,68,AS,intra_train,36,↑,up,↑,0.8683485998772085,True,37,-,-,-
Y2-S2-083M22,1,69,AS,intra_train,32,↓,down,↓,0.6504991999827325,True,37,-,-,-
Y2-S2-083M22,1,70,AS,intra_train,42,←,right,→,0.5843305001035333,False,37,-,-,-
Y2-S2-083M22,1,71,AS,intra_train,49,↓,down,↓,0.6174991000443697,True,37,-,-,-
Y2-S2-083M22,1,72,AS,exp,36,←,left,←,1.100165699608624,True,25,0,0,0
Y2-S2-083M22,1,73,AS,exp,33,↑,up,↑,1.025251999963075,True,25,0,0,0
Y2-S2-083M22,1,74,AS,exp,48,←,left,←,0.5506309000775218,True,25,1,0,0
Y2-S2-083M22,1,75,AS,exp,43,↓,down,↓,0.5858681001700461,True,24,1,0,0
Y2-S2-083M22,1,76,AS,exp,25,→,right,→,0.6545426999218762,True,24,1,0,0
Y2-S2-083M22,1,77,AS,exp,38,↑,up,↑,0.6726253000088036,True,24,1,0,0
Y2-S2-083M22,1,78,AS,exp,44,↓,down,↓,0.6740562999621034,True,23,1,0,0
Y2-S2-083M22,1,79,AS,exp,45,→,right,→,0.5173256997950375,True,23,1,0,0
Y2-S2-083M22,1,80,AS,exp,36,↑,up,↑,0.7952541001141071,True,23,1,0,0
Y2-S2-083M22,1,81,AS,exp,48,←,left,←,0.7152762999758124,True,22,1,0,0
Y2-S2-083M22,1,82,AS,exp,31,↑,up,↑,0.8801925000734627,True,22,1,0,0
Y2-S2-083M22,1,83,AS,exp,49,→,right,→,0.7780562001280487,True,22,1,0,0
Y2-S2-083M22,1,84,AS,exp,31,↑,up,↑,0.9956418997608125,True,21,1,0,0
Y2-S2-083M22,1,85,AS,exp,28,↓,down,↓,1.116156800184399,True,21,1,0,0
Y2-S2-083M22,1,86,AS,exp,49,↑,left,←,0.9779238002374768,False,21,-1,1,1
Y2-S2-083M22,1,87,AS,exp,48,↓,left,←,0.9607755998149514,False,22,-1,0,1
Y2-S2-083M22,1,88,AS,exp,37,↑,up,↑,0.8300522002391517,True,23,-1,0,1
Y2-S2-083M22,1,89,AS,exp,38,←,left,←,1.1473668003454804,True,23,-1,0,1
Y2-S2-083M22,1,90,AS,exp,31,↑,up,↑,0.6044773999601603,True,23,1,1,2
Y2-S2-083M22,1,91,AS,exp,31,↓,down,↓,0.7108449996449053,True,22,1,0,2
Y2-S2-083M22,1,92,AS,exp,47,→,right,→,0.613037200178951,True,22,1,0,2
Y2-S2-083M22,1,93,AS,exp,38,←,left,←,0.6622716002166271,True,22,1,0,2
Y2-S2-083M22,1,94,AS,exp,41,→,right,→,0.8609628998674452,True,21,1,0,2
Y2-S2-083M22,1,95,AS,exp,42,↑,up,↑,1.024940200150013,True,21,1,0,2
Y2-S2-083M22,1,96,AS,exp,50,→,right,→,0.7872521001845598,True,21,1,0,2
Y2-S2-083M22,1,97,AS,exp,49,↑,right,→,0.9495097999460995,False,20,-1,1,3
Y2-S2-083M22,1,98,AS,exp,44,←,right,→,1.7760626999661326,False,21,-1,0,3
Y2-S2-083M22,1,99,AS,exp,26,↓,down,↓,1.1691421996802092,True,22,-1,0,3
Y2-S2-083M22,1,100,AS,exp,40,↑,up,↑,0.7817126996815205,True,22,-1,0,3
Y2-S2-083M22,1,101,AS,exp,27,←,left,←,0.8719155001454055,True,22,1,1,4
Y2-S2-083M22,1,102,AS,exp,40,↓,down,↓,0.9434434999711812,True,21,1,0,4
Y2-S2-083M22,1,103,AS,exp,32,↑,up,↑,0.6018630997277796,True,21,1,0,4
Y2-S2-083M22,1,104,AS,exp,41,←,left,←,0.8649402000010014,True,21,1,0,4
Y2-S2-083M22,1,105,AS,exp,40,→,right,→,0.7893177000805736,True,20,1,0,4
Y2-S2-083M22,1,106,AS,exp,33,↑,up,↑,1.1959979999810457,True,20,1,0,4
Y2-S2-083M22,1,107,AS,exp,47,→,right,→,0.9514083000831306,True,20,1,0,4
Y2-S2-083M22,1,108,AS,exp,32,←,left,←,0.828668300062418,True,19,1,0,4
Y2-S2-083M22,1,109,AS,exp,50,↑,up,↑,0.8712661997415125,True,19,1,0,4
Y2-S2-083M22,1,110,AS,exp,42,→,right,→,0.49536689976230264,True,19,1,0,4
Y2-S2-083M22,1,111,AS,exp,31,←,right,→,0.5824285000562668,False,18,-1,1,5
Y2-S2-083M22,1,112,AS,exp,42,→,right,→,0.8615167001262307,True,19,-1,0,5
Y2-S2-083M22,1,113,AS,exp,33,↓,down,↓,0.6985822999849916,True,19,-1,0,5
Y2-S2-083M22,1,114,AS,exp,41,←,left,←,0.607508999761194,True,19,1,1,6
Y2-S2-083M22,1,115,AS,exp,26,↑,up,↑,0.8159095998853445,True,18,1,0,6
Y2-S2-083M22,1,116,AS,exp,32,→,right,→,0.7273381003178656,True,18,1,0,6
Y2-S2-083M22,1,117,AS,exp,36,←,right,→,0.5284146000631154,False,18,-1,1,7
Y2-S2-083M22,1,118,AS,exp,46,↑,up,↑,0.6497571002691984,True,19,-1,0,7
Y2-S2-083M22,1,119,AS,exp,46,→,left,←,0.7438897998072207,False,19,-1,0,7
Y2-S2-083M22,1,120,AS,exp,32,←,left,←,0.8913942999206483,True,20,-1,0,7
Y2-S2-083M22,1,121,AS,exp,33,↑,left,←,0.8461033999919891,False,20,-1,0,7
Y2-S2-083M22,1,122,AS,exp,36,→,right,→,0.735873700119555,True,21,-1,0,7
Y2-S2-083M22,1,123,AS,exp,49,↑,up,↑,1.0232678004540503,True,21,-1,0,7
Y2-S2-083M22,1,124,AS,exp,45,←,right,→,0.854523400310427,False,21,-1,0,7
Y2-S2-083M22,1,125,AS,exp,28,→,right,→,0.7912449003197253,True,22,-1,0,7
Y2-S2-083M22,1,126,AS,exp,44,↑,up,↑,1.070146500132978,True,22,-1,0,7
Y2-S2-083M22,1,127,AS,exp,33,→,right,→,0.7601022003218532,True,22,1,1,8
Y2-S2-083M22,1,128,AS,exp,45,←,right,→,0.7245223997160792,False,21,-1,1,9
Y2-S2-083M22,1,129,AS,exp,31,↑,right,→,0.7592953997664154,False,22,-1,0,9
Y2-S2-083M22,1,130,AS,exp,33,→,right,→,0.8120518000796437,True,23,-1,0,9
Y2-S2-083M22,1,131,AS,exp,39,←,left,←,0.7928933999501169,True,23,-1,0,9
Y2-S2-083M22,1,132,AS,exp,35,→,left,←,0.9317316003143787,False,23,-1,0,9
Y2-S2-083M22,1,133,AS,exp,43,↑,up,↑,1.169561699964106,True,24,-1,0,9
Y2-S2-083M22,1,134,AS,exp,47,→,right,→,0.7364004999399185,True,24,-1,0,9
Y2-S2-083M22,1,135,AS,exp,26,↑,up,↑,0.7637827000580728,True,24,1,1,10
Y2-S2-083M22,1,136,AS,exp,48,←,left,←,0.6195211000740528,True,23,1,0,10
Y2-S2-083M22,1,137,AS,exp,50,↑,up,↑,0.7779580000787973,True,23,1,0,10
Y2-S2-083M22,1,138,AS,exp,46,↓,down,↓,0.8341640997678041,True,23,1,0,10
Y2-S2-083M22,1,139,AS,exp,35,→,right,→,0.5742697999812663,True,22,1,0,10
Y2-S2-083M22,1,140,AS,exp,31,↓,left,←,1.0455481996759772,False,22,-1,1,11
Y2-S2-083M22,1,141,AS,exp,50,↑,up,↑,0.7998371999710798,True,23,-1,0,11
Y2-S2-083M22,1,142,AS,exp,49,←,left,←,0.7259060000069439,True,23,-1,0,11
Y2-S2-083M22,1,143,AS,exp,35,↓,no_key,no_letter,-1.0,False,23,-1,0,11
Y2-S2-083M22,1,144,AS,exp,40,↑,up,↑,0.7682822998613119,True,24,-1,0,11
Y2-S2-083M22,1,145,AS,exp,26,←,left,←,0.6408214000985026,True,24,-1,0,11
Y2-S2-083M22,1,146,AS,exp,49,↓,left,←,0.5171307995915413,False,24,-1,0,11
Y2-S2-083M22,1,147,AS,exp,27,←,left,←,0.7160467999055982,True,25,-1,0,11
Y2-S2-083M22,1,148,AS,exp,40,↓,down,↓,0.5339350001886487,True,25,-1,0,11
Y2-S2-083M22,1,149,AS,exp,32,←,left,←,0.72480050008744,True,25,1,1,12
Y2-S2-083M22,1,150,AS,exp,41,↓,down,↓,0.6403795001097023,True,24,1,0,12
Y2-S2-083M22,1,151,AS,exp,37,←,left,←,0.5005570999346673,True,24,1,0,12
Y2-S2-083M22,1,152,AS,exp,31,↓,down,↓,0.7068515000864863,True,24,1,0,12
Y2-S2-083M22,1,153,AS,exp,37,←,left,←,0.6162503999657929,True,23,1,0,12
Y2-S2-083M22,1,154,AS,exp,29,↓,down,↓,0.5654012998566031,True,23,1,0,12
Y2-S2-083M22,1,155,AS,exp,25,←,left,←,0.6621548999100924,True,23,1,0,12
Y2-S2-083M22,1,156,AS,exp,38,↑,up,↑,0.8624204997904599,True,22,1,0,12
Y2-S2-083M22,1,157,AS,exp,42,↓,left,←,0.8283752002753317,False,22,-1,1,13
Y2-S2-083M22,1,158,AS,exp,39,→,left,←,1.1501384996809065,False,23,-1,0,13
Y2-S2-083M22,1,159,AS,exp,34,↓,down,↓,0.8181993002071977,True,24,-1,0,13
Y2-S2-083M22,1,160,AS,exp,29,←,left,←,0.9116818998008966,True,24,-1,0,13
Y2-S2-083M22,1,161,AS,exp,44,↑,left,←,1.8057332001626492,False,24,-1,0,13
Y2-S2-083M22,1,162,AS,exp,35,↓,right,→,1.2469651000574231,False,25,-1,0,13
Y2-S2-083M22,1,163,AS,exp,33,←,no_key,no_letter,-1.0,False,26,-1,0,13
Y2-S2-083M22,1,164,AS,exp,47,↓,down,↓,0.8034633998759091,True,27,-1,0,13
Y2-S2-083M22,1,165,AS,exp,37,→,right,→,0.8644135999493301,True,27,-1,0,13
Y2-S2-083M22,1,166,AS,exp,32,↑,up,↑,1.0400251997634768,True,27,1,1,14
Y2-S2-083M22,1,167,AS,exp,47,↓,no_key,no_letter,-1.0,False,26,-1,1,15
Y2-S2-083M22,1,168,AS,exp,34,↑,left,←,1.0630270997062325,False,27,-1,0,15
Y2-S2-083M22,1,169,AS,exp,50,↓,down,↓,0.6761591001413763,True,28,-1,0,15
Y2-S2-083M22,1,170,AS,exp,49,↑,up,↑,1.182806700002402,True,28,-1,0,15
Y2-S2-083M22,1,171,AS,exp,32,←,right,→,0.9395818999037147,False,28,-1,0,15
Y2-S2-083M22,1,172,AS,exp,37,→,no_key,no_letter,-1.0,False,29,-1,0,15
Y2-S2-083M22,1,173,AS,exp,36,←,down,↓,2.0422622999176383,False,30,-1,0,15
Y2-S2-083M22,1,174,AS,exp,32,↓,down,↓,1.239287500269711,True,31,-1,0,15
Y2-S2-083M22,1,175,AS,exp,49,→,no_key,no_letter,-1.0,False,31,-1,0,15
Y2-S2-083M22,1,176,AS,exp,32,↑,up,↑,0.8567411000840366,True,32,-1,0,15
Y2-S2-083M22,1,177,AS,exp,35,→,right,→,0.6343060000799596,True,32,-1,0,15
Y2-S2-083M22,1,178,AS,exp,38,↓,up,↑,1.0404781000688672,False,32,-1,0,15
Y2-S2-083M22,1,179,AS,exp,35,→,right,→,0.6839105999097228,True,33,-1,0,15
Y2-S2-083M22,1,180,AS,exp,49,↓,down,↓,0.7793074999935925,True,33,-1,0,15
Y2-S2-083M22,1,181,AS,exp,50,←,left,←,0.911187999881804,True,33,1,1,16
Y2-S2-083M22,2,182,PS,intra_train,35,→,right,→,0.9735362003557384,True,19,-,-,-
Y2-S2-083M22,2,183,PS,intra_train,37,↑,up,↑,0.9604302998632193,True,19,-,-,-
Y2-S2-083M22,2,184,PS,intra_train,44,←,left,←,0.6062657004222274,True,19,-,-,-
Y2-S2-083M22,2,185,PS,intra_train,48,↑,up,↑,0.6002466999925673,True,19,-,-,-
Y2-S2-083M22,2,186,PS,intra_train,45,→,right,→,0.5772112002596259,True,19,-,-,-
Y2-S2-083M22,2,187,PS,exp,25,←,right,→,0.7243053000420332,False,13,-1,0,0
Y2-S2-083M22,2,188,PS,exp,34,↑,up,↑,0.5843330002389848,True,14,-1,0,0
Y2-S2-083M22,2,189,PS,exp,50,↓,down,↓,0.5779217998497188,True,14,-1,0,0
Y2-S2-083M22,2,190,PS,exp,47,↑,up,↑,0.6133918999694288,True,14,1,1,1
Y2-S2-083M22,2,191,PS,exp,49,↓,down,↓,0.7364868000149727,True,13,1,0,1
Y2-S2-083M22,2,192,PS,exp,49,→,right,→,0.4657585001550615,True,13,1,0,1
Y2-S2-083M22,2,193,PS,exp,31,←,left,←,0.7329208999872208,True,13,1,0,1
Y2-S2-083M22,2,194,PS,exp,34,↓,down,↓,0.6514368001371622,True,12,1,0,1
Y2-S2-083M22,2,195,PS,exp,35,←,left,←,0.7701934999786317,True,12,1,0,1
Y2-S2-083M22,2,196,PS,exp,48,↑,up,↑,0.7730156001634896,True,12,1,0,1
Y2-S2-083M22,2,197,PS,exp,25,←,right,→,0.7542640003375709,False,11,-1,1,2
Y2-S2-083M22,2,198,PS,exp,28,→,right,→,0.5130624999292195,True,12,-1,0,2
Y2-S2-083M22,2,199,PS,exp,46,←,right,→,0.4699394996277988,False,12,-1,0,2
Y2-S2-083M22,2,200,PS,exp,41,↑,up,↑,0.8001990001648664,True,13,-1,0,2
Y2-S2-083M22,2,201,PS,exp,45,↓,down,↓,1.0763317998498678,True,13,-1,0,2
Y2-S2-083M22,2,202,PS,exp,26,→,down,↓,1.3253130000084639,False,13,-1,0,2
Y2-S2-083M22,2,203,PS,exp,29,↓,down,↓,0.59811079967767,True,14,-1,0,2
Y2-S2-083M22,2,204,PS,exp,47,↑,left,←,1.1213748999871314,False,14,-1,0,2
Y2-S2-083M22,2,205,PS,exp,50,←,left,←,0.6800803998485208,True,15,-1,0,2
Y2-S2-083M22,2,206,PS,exp,38,→,right,→,0.49429129995405674,True,15,-1,0,2
Y2-S2-083M22,2,207,PS,exp,50,↓,down,↓,0.7261594999581575,True,15,1,1,3
Y2-S2-083M22,2,208,PS,exp,37,←,left,←,0.7173258000984788,True,14,1,0,3
Y2-S2-083M22,2,209,PS,exp,42,↓,left,←,1.553073599934578,False,14,-1,1,4
Y2-S2-083M22,2,210,PS,exp,33,←,left,←,0.5481944000348449,True,15,-1,0,4
Y2-S2-083M22,2,211,PS,exp,32,↓,down,↓,1.0019988999702036,True,15,-1,0,4
Y2-S2-083M22,2,212,PS,exp,32,→,right,→,0.6718572000972927,True,15,1,1,5
Y2-S2-083M22,2,213,PS,exp,40,↓,down,↓,0.818714200053364,True,14,1,0,5
Y2-S2-083M22,2,214,PS,exp,28,→,left,←,0.7823453997261822,False,14,-1,1,6
Y2-S2-083M22,2,215,PS,exp,50,↓,down,↓,0.6137753999792039,True,15,-1,0,6
Y2-S2-083M22,2,216,PS,exp,25,→,right,→,0.7210134002380073,True,15,-1,0,6
Y2-S2-083M22,2,217,PS,exp,26,↓,down,↓,0.6896150000393391,True,15,1,1,7
Y2-S2-083M22,2,218,PS,exp,29,→,right,→,0.9398599998094141,True,14,1,0,7
Y2-S2-083M22,2,219,PS,exp,50,↑,down,↓,1.474912699777633,False,14,-1,1,8
Y2-S2-083M22,2,220,PS,exp,28,↓,right,→,1.0169695997610688,False,15,-1,0,8
Y2-S2-083M22,2,221,PS,exp,43,→,no_key,no_letter,-1.0,False,16,-1,0,8
Y2-S2-083M22,2,222,PS,exp,35,↑,no_key,no_letter,-1.0,False,17,-1,0,8
Y2-S2-083M22,2,223,PS,exp,26,↓,right,→,0.8520206003449857,False,18,-1,0,8
Y2-S2-083M22,2,224,PS,exp,38,←,left,←,0.6822385000996292,True,19,-1,0,8
Y2-S2-083M22,2,225,PS,exp,48,↓,down,↓,0.6288540000095963,True,19,-1,0,8
Y2-S2-083M22,2,226,PS,exp,28,←,down,↓,0.6531732999719679,False,19,-1,0,8
Y2-S2-083M22,2,227,PS,exp,36,↑,down,↓,1.075687300413847,False,20,-1,0,8
Y2-S2-083M22,2,228,PS,exp,41,→,right,→,0.5617937999777496,True,21,-1,0,8
Y2-S2-083M22,2,229,PS,exp,41,↑,up,↑,0.7190740997903049,True,21,-1,0,8
Y2-S2-083M22,2,230,PS,exp,46,←,left,←,0.8008117000572383,True,21,1,1,9
Y2-S2-083M22,2,231,PS,exp,27,↓,left,←,0.8777748001739383,False,20,-1,1,10
Y2-S2-083M22,2,232,PS,exp,34,→,no_key,no_letter,-1.0,False,21,-1,0,10
Y2-S2-083M22,2,233,PS,exp,50,↓,down,↓,0.7614259999245405,True,22,-1,0,10
Y2-S2-083M22,2,234,PS,exp,45,↑,no_key,no_letter,-1.0,False,22,-1,0,10
Y2-S2-083M22,2,235,PS,exp,35,↓,down,↓,1.557035599835217,True,23,-1,0,10
Y2-S2-083M22,2,236,PS,exp,46,→,right,→,0.48395279981195927,True,23,-1,0,10
Y2-S2-083M22,2,237,PS,exp,26,↓,no_key,no_letter,-1.0,False,23,-1,0,10
Y2-S2-083M22,2,238,PS,exp,46,↑,down,↓,1.1356124999001622,False,24,-1,0,10
Y2-S2-083M22,2,239,PS,exp,35,→,right,→,0.45040629990398884,True,25,-1,0,10
Y2-S2-083M22,2,240,PS,exp,38,↑,no_key,no_letter,-1.0,False,25,-1,0,10
Y2-S2-083M22,2,241,PS,exp,45,→,right,→,0.7069824999198318,True,26,-1,0,10
Y2-S2-083M22,2,242,PS,exp,48,↓,down,↓,0.6194270001724362,True,26,-1,0,10
Y2-S2-083M22,2,243,PS,exp,47,←,left,←,0.8931702002882957,True,26,1,1,11
Y2-S2-083M22,2,244,PS,exp,29,↓,down,↓,1.429269699845463,True,25,1,0,11
Y2-S2-083M22,2,245,PS,exp,42,↑,no_key,no_letter,-1.0,False,25,-1,1,12
Y2-S2-083M22,2,246,PS,exp,49,→,right,→,0.035033199936151505,True,26,-1,0,12
Y2-S2-083M22,2,247,PS,exp,48,←,right,→,0.930131500121206,False,26,-1,0,12
Y2-S2-083M22,2,248,PS,exp,40,→,no_key,no_letter,-1.0,False,27,-1,0,12
Y2-S2-083M22,2,249,PS,exp,50,←,right,→,2.0342290000990033,False,28,-1,0,12
Y2-S2-083M22,2,250,PS,exp,33,→,right,→,0.6762153999879956,True,29,-1,0,12
Y2-S2-083M22,2,251,PS,exp,30,↑,no_key,no_letter,-1.0,False,29,-1,0,12
Y2-S2-083M22,2,252,PS,exp,31,→,no_key,no_letter,-1.0,False,30,-1,0,12
Y2-S2-083M22,2,253,PS,exp,33,↑,right,→,0.30114280013367534,False,31,-1,0,12
Y2-S2-083M22,2,254,PS,exp,33,↓,down,↓,0.7617750000208616,True,32,-1,0,12
Y2-S2-083M22,2,255,PS,exp,48,→,right,→,0.45069729955866933,True,32,-1,0,12
Y2-S2-083M22,2,256,PS,exp,50,←,left,←,0.7518635001033545,True,32,1,1,13
Y2-S2-083M22,2,257,PS,exp,45,→,right,→,0.4843082004226744,True,31,1,0,13
Y2-S2-083M22,2,258,PS,exp,44,↓,no_key,no_letter,-1.0,False,31,-1,1,14
Y2-S2-083M22,2,259,PS,exp,47,→,right,→,0.6507882000878453,True,32,-1,0,14
Y2-S2-083M22,2,260,PS,exp,31,←,no_key,no_letter,-1.0,False,32,-1,0,14
Y2-S2-083M22,2,261,PS,exp,34,→,right,→,0.7665593000128865,True,33,-1,0,14
Y2-S2-083M22,2,262,PS,exp,47,↑,left,←,1.424283199943602,False,33,-1,0,14
Y2-S2-083M22,2,263,PS,exp,45,←,no_key,no_letter,-1.0,False,34,-1,0,14
Y2-S2-083M22,2,264,PS,exp,42,↓,left,←,1.3928066003136337,False,35,-1,0,14
Y2-S2-083M22,2,265,PS,exp,26,→,right,→,0.4842841001227498,True,36,-1,0,14
Y2-S2-083M22,2,266,PS,exp,37,↑,no_key,no_letter,-1.0,False,36,-1,0,14
Y2-S2-083M22,2,267,PS,exp,31,↓,left,←,0.5676429001614451,False,37,-1,0,14
Y2-S2-083M22,2,268,PS,exp,34,→,right,→,0.46686429996043444,True,38,-1,0,14
Y2-S2-083M22,2,269,PS,exp,37,←,no_key,no_letter,-1.0,False,38,-1,0,14
Y2-S2-083M22,2,270,PS,exp,39,↑,right,→,0.8299581999890506,False,39,-1,0,14
Y2-S2-083M22,2,271,PS,exp,27,↓,no_key,no_letter,-1.0,False,40,-1,0,14
Y2-S2-083M22,2,272,PS,exp,45,→,no_key,no_letter,-1.0,False,41,-1,0,14
Y2-S2-083M22,2,273,PS,exp,42,↓,right,→,1.5305790998972952,False,42,-1,0,14
Y2-S2-083M22,2,274,PS,exp,26,↑,down,↓,1.0893015996553004,False,43,-1,0,14
Y2-S2-083M22,2,275,PS,exp,32,↓,down,↓,0.6017189999110997,True,44,-1,0,14
Y2-S2-083M22,2,276,PS,exp,36,↑,up,↑,0.7012812001630664,True,44,-1,0,14
Y2-S2-083M22,2,277,PS,exp,28,←,left,←,0.6513876998797059,True,44,1,1,15
Y2-S2-083M22,2,278,PS,exp,33,↑,up,↑,0.7507588998414576,True,43,1,0,15
Y2-S2-083M22,2,279,PS,exp,35,←,left,←,0.651050599757582,True,43,1,0,15
Y2-S2-083M22,2,280,PS,exp,47,↓,down,↓,0.6012231996282935,True,43,1,0,15
Y2-S2-083M22,2,281,PS,exp,29,↑,up,↑,1.238924799952656,True,42,1,0,15
Y2-S2-083M22,2,282,PS,exp,47,←,left,←,0.7005363996140659,True,42,1,0,15
Y2-S2-083M22,2,283,PS,exp,46,→,right,→,0.8339879000559449,True,42,1,0,15
Y2-S2-083M22,2,284,PS,exp,38,←,left,←,0.7009354997426271,True,41,1,0,15
Y2-S2-083M22,2,285,PS,exp,34,↓,no_key,no_letter,-1.0,False,41,-1,1,16
Y2-S2-083M22,3,286,PS,intra_train,40,→,right,→,0.4011085000820458,True,19,-,-,-
Y2-S2-083M22,3,287,PS,intra_train,33,↓,down,↓,0.5526552000083029,True,19,-,-,-
Y2-S2-083M22,3,288,PS,intra_train,38,↑,up,↑,0.6521825999952853,True,19,-,-,-
Y2-S2-083M22,3,289,PS,intra_train,39,→,right,→,0.4904734999872744,True,19,-,-,-
Y2-S2-083M22,3,290,PS,intra_train,49,↑,up,↑,0.5470009003765881,True,19,-,-,-
Y2-S2-083M22,3,291,PS,exp,32,←,left,←,0.5113527998328209,True,13,0,0,0
Y2-S2-083M22,3,292,PS,exp,41,→,right,→,0.4650045996531844,True,13,0,0,0
Y2-S2-083M22,3,293,PS,exp,45,←,left,←,0.5232357000932097,True,13,1,0,0
Y2-S2-083M22,3,294,PS,exp,32,↑,up,↑,0.5578530998900533,True,12,1,0,0
Y2-S2-083M22,3,295,PS,exp,25,↓,down,↓,0.6059146001935005,True,12,1,0,0
Y2-S2-083M22,3,296,PS,exp,50,→,right,→,0.42207289999350905,True,12,1,0,0
Y2-S2-083M22,3,297,PS,exp,49,↓,down,↓,0.5340844998136163,True,11,1,0,0
Y2-S2-083M22,3,298,PS,exp,39,→,right,→,0.35399620002135634,True,11,1,0,0
Y2-S2-083M22,3,299,PS,exp,26,↓,right,→,0.39868609979748726,False,11,-1,1,1
Y2-S2-083M22,3,300,PS,exp,32,→,right,→,0.4089132999069989,True,12,-1,0,1
Y2-S2-083M22,3,301,PS,exp,36,↑,down,↓,0.9744321000762284,False,12,-1,0,1
Y2-S2-083M22,3,302,PS,exp,27,→,right,→,0.5044271000660956,True,13,-1,0,1
Y2-S2-083M22,3,303,PS,exp,25,↑,left,←,0.5398377999663353,False,13,-1,0,1
Y2-S2-083M22,3,304,PS,exp,47,↓,right,→,0.33381110010668635,False,14,-1,0,1
Y2-S2-083M22,3,305,PS,exp,31,←,left,←,0.5489928997121751,True,15,-1,0,1
Y2-S2-083M22,3,306,PS,exp,34,→,right,→,0.3838331000879407,True,15,-1,0,1
Y2-S2-083M22,3,307,PS,exp,27,↓,down,↓,0.46778809977695346,True,15,1,1,2
Y2-S2-083M22,3,308,PS,exp,28,←,left,←,0.4298926000483334,True,14,1,0,2
Y2-S2-083M22,3,309,PS,exp,37,↓,down,↓,0.5155976000241935,True,14,1,0,2
Y2-S2-083M22,3,310,PS,exp,34,↑,up,↑,0.814856099896133,True,14,1,0,2
Y2-S2-083M22,3,311,PS,exp,29,↓,down,↓,0.5691714002750814,True,13,1,0,2
Y2-S2-083M22,3,312,PS,exp,48,↑,down,↓,1.1886044996790588,False,13,-1,1,3
Y2-S2-083M22,3,313,PS,exp,27,↓,down,↓,0.5125448000617325,True,14,-1,0,3
Y2-S2-083M22,3,314,PS,exp,43,←,left,←,0.5415123999118805,True,14,-1,0,3
Y2-S2-083M22,3,315,PS,exp,43,↓,down,↓,0.7266652998514473,True,14,1,1,4
Y2-S2-083M22,3,316,PS,exp,42,↑,up,↑,1.0058349999599159,True,13,1,0,4
Y2-S2-083M22,3,317,PS,exp,32,→,down,↓,1.1719889002852142,False,13,-1,1,5
Y2-S2-083M22,3,318,PS,exp,25,↓,down,↓,0.6081093996763229,True,14,-1,0,5
Y2-S2-083M22,3,319,PS,exp,28,↑,up,↑,0.9797828998416662,True,14,-1,0,5
Y2-S2-083M22,3,320,PS,exp,45,→,right,→,0.5388242001645267,True,14,1,1,6
Y2-S2-083M22,3,321,PS,exp,28,↑,right,→,1.6523238001391292,False,13,-1,1,7
Y2-S2-083M22,3,322,PS,exp,47,→,right,→,0.44250290002673864,True,14,-1,0,7
Y2-S2-083M22,3,323,PS,exp,30,↓,down,↓,0.6106902998872101,True,14,-1,0,7
Y2-S2-083M22,3,324,PS,exp,47,←,left,←,0.4670649999752641,True,14,1,1,8
Y2-S2-083M22,3,325,PS,exp,37,↑,up,↑,0.7308682003058493,True,13,1,0,8
Y2-S2-083M22,3,326,PS,exp,28,↓,down,↓,0.6949373995885253,True,13,1,0,8
Y2-S2-083M22,3,327,PS,exp,28,↑,down,↓,1.0563699002377689,False,13,-1,1,9
Y2-S2-083M22,3,328,PS,exp,46,←,down,↓,1.8400606997311115,False,14,-1,0,9
Y2-S2-083M22,3,329,PS,exp,26,→,right,→,0.5780863002873957,True,15,-1,0,9
Y2-S2-083M22,3,330,PS,exp,50,↓,down,↓,0.5680468999780715,True,15,-1,0,9
Y2-S2-083M22,3,331,PS,exp,44,→,left,←,1.1247700997628272,False,15,-1,0,9
Y2-S2-083M22,3,332,PS,exp,41,←,left,←,0.5362547999247909,True,16,-1,0,9
Y2-S2-083M22,3,333,PS,exp,25,↓,left,←,1.0864495001733303,False,16,-1,0,9
Y2-S2-083M22,3,334,PS,exp,37,↑,left,←,1.0595630002208054,False,17,-1,0,9
Y2-S2-083M22,3,335,PS,exp,42,←,left,←,1.6251429002732038,True,18,-1,0,9
Y2-S2-083M22,3,336,PS,exp,49,↓,down,↓,0.5599374999292195,True,18,-1,0,9
Y2-S2-083M22,3,337,PS,exp,41,↑,up,↑,0.905141499824822,True,18,1,1,10
Y2-S2-083M22,3,338,PS,exp,35,→,right,→,0.46762789972126484,True,17,1,0,10
Y2-S2-083M22,3,339,PS,exp,43,↑,left,←,0.799857399892062,False,17,-1,1,11
Y2-S2-083M22,3,340,PS,exp,30,←,right,→,0.6323457001708448,False,18,-1,0,11
Y2-S2-083M22,3,341,PS,exp,40,↓,down,↓,0.690267900004983,True,19,-1,0,11
Y2-S2-083M22,3,342,PS,exp,45,↑,up,↑,0.5644971998408437,True,19,-1,0,11
Y2-S2-083M22,3,343,PS,exp,42,→,right,→,0.45059539983049035,True,19,1,1,12
Y2-S2-083M22,3,344,PS,exp,42,↑,up,↑,0.7299031997099519,True,18,1,0,12
Y2-S2-083M22,3,345,PS,exp,29,→,right,→,0.5131741003133357,True,18,1,0,12
Y2-S2-083M22,3,346,PS,exp,34,↑,up,↑,0.6496954001486301,True,18,1,0,12
Y2-S2-083M22,3,347,PS,exp,33,↓,down,↓,0.6732860999181867,True,17,1,0,12
Y2-S2-083M22,3,348,PS,exp,25,→,right,→,0.492525199893862,True,17,1,0,12
Y2-S2-083M22,3,349,PS,exp,26,↑,up,↑,0.6093202996999025,True,17,1,0,12
Y2-S2-083M22,3,350,PS,exp,37,→,right,→,0.28369220020249486,True,16,1,0,12
Y2-S2-083M22,3,351,PS,exp,31,←,right,→,1.5200037998147309,False,16,-1,1,13
Y2-S2-083M22,3,352,PS,exp,32,→,no_key,no_letter,-1.0,False,17,-1,0,13
Y2-S2-083M22,3,353,PS,exp,37,↓,up,↑,1.2112267999909818,False,18,-1,0,13
Y2-S2-083M22,3,354,PS,exp,28,↑,up,↑,0.724756000097841,True,19,-1,0,13
Y2-S2-083M22,3,355,PS,exp,48,↓,down,↓,0.6755288001149893,True,19,-1,0,13
Y2-S2-083M22,3,356,PS,exp,46,→,left,←,1.652427799999714,False,19,-1,0,13
Y2-S2-083M22,3,357,PS,exp,34,←,left,←,1.56609580013901,True,20,-1,0,13
Y2-S2-083M22,3,358,PS,exp,27,→,down,↓,1.3665379001758993,False,20,-1,0,13
Y2-S2-083M22,3,359,PS,exp,26,↑,up,↑,0.7899751998484135,True,21,-1,0,13
Y2-S2-083M22,3,360,PS,exp,44,←,left,←,0.6902364999987185,True,21,-1,0,13
Y2-S2-083M22,3,361,PS,exp,27,↓,left,←,1.8454919001087546,False,21,-1,0,13
Y2-S2-083M22,3,362,PS,exp,29,→,right,→,0.0690087997354567,True,22,-1,0,13
Y2-S2-083M22,3,363,PS,exp,26,↑,right,→,1.2412149999290705,False,22,-1,0,13
Y2-S2-083M22,3,364,PS,exp,39,→,left,←,0.8986590998247266,False,23,-1,0,13
Y2-S2-083M22,3,365,PS,exp,33,↓,no_key,no_letter,-1.0,False,24,-1,0,13
Y2-S2-083M22,3,366,PS,exp,44,↑,up,↑,0.9406257001683116,True,25,-1,0,13
Y2-S2-083M22,3,367,PS,exp,42,→,right,→,0.48397229984402657,True,25,-1,0,13
Y2-S2-083M22,3,368,PS,exp,43,↓,down,↓,0.6020446000620723,True,25,1,1,14
Y2-S2-083M22,3,369,PS,exp,43,←,right,→,0.45049759978428483,False,24,-1,1,15
Y2-S2-083M22,3,370,PS,exp,31,→,right,→,0.43616370018571615,True,25,-1,0,15
Y2-S2-083M22,3,371,PS,exp,44,↑,up,↑,0.7052997001446784,True,25,-1,0,15
Y2-S2-083M22,3,372,PS,exp,47,→,right,→,0.43423999985679984,True,25,1,1,16
Y2-S2-083M22,4,373,AS,intra_train,32,↑,up,↑,1.6386432000435889,True,37,-,-,-
Y2-S2-083M22,4,374,AS,intra_train,42,←,left,←,0.4674937999807298,True,37,-,-,-
Y2-S2-083M22,4,375,AS,intra_train,35,↑,up,↑,1.1901496998034418,True,37,-,-,-
Y2-S2-083M22,4,376,AS,intra_train,46,→,left,←,0.5178231997415423,False,37,-,-,-
Y2-S2-083M22,4,377,AS,intra_train,46,↑,up,↑,0.617193799931556,True,37,-,-,-
Y2-S2-083M22,4,378,AS,exp,44,→,right,→,0.7594163999892771,True,25,0,0,0
Y2-S2-083M22,4,379,AS,exp,46,←,left,←,0.6042390000075102,True,25,0,0,0
Y2-S2-083M22,4,380,AS,exp,36,↓,down,↓,0.8099647997878492,True,25,1,0,0
Y2-S2-083M22,4,381,AS,exp,28,←,left,←,0.5005473997443914,True,24,1,0,0
Y2-S2-083M22,4,382,AS,exp,50,→,right,→,0.787848699837923,True,24,1,0,0
Y2-S2-083M22,4,383,AS,exp,29,↓,down,↓,0.5171656999737024,True,24,1,0,0
Y2-S2-083M22,4,384,AS,exp,32,↑,up,↑,0.625545300077647,True,23,1,0,0
Y2-S2-083M22,4,385,AS,exp,50,→,right,→,0.7088167001493275,True,23,1,0,0
Y2-S2-083M22,4,386,AS,exp,26,↑,up,↑,0.6121721998788416,True,23,1,0,0
Y2-S2-083M22,4,387,AS,exp,41,↓,down,↓,0.8874393999576569,True,22,1,0,0
Y2-S2-083M22,4,388,AS,exp,26,←,left,←,0.7945194002240896,True,22,1,0,0
Y2-S2-083M22,4,389,AS,exp,32,→,right,→,0.6522665000520647,True,22,1,0,0
Y2-S2-083M22,4,390,AS,exp,30,←,left,←,1.0912625999189913,True,21,1,0,0
Y2-S2-083M22,4,391,AS,exp,41,→,right,→,0.960794800426811,True,21,1,0,0
Y2-S2-083M22,4,392,AS,exp,50,←,right,→,0.8750094999559224,False,21,-1,1,1
Y2-S2-083M22,4,393,AS,exp,46,→,right,→,0.9405743000097573,True,22,-1,0,1
Y2-S2-083M22,4,394,AS,exp,44,←,left,←,0.6535849999636412,True,22,-1,0,1
Y2-S2-083M22,4,395,AS,exp,49,↑,up,↑,0.7363964002579451,True,22,1,1,2
Y2-S2-083M22,4,396,AS,exp,33,←,right,→,0.9614575998857617,False,21,-1,1,3
Y2-S2-083M22,4,397,AS,exp,31,↑,up,↑,0.781169299967587,True,22,-1,0,3
Y2-S2-083M22,4,398,AS,exp,48,→,left,←,0.9485988998785615,False,22,-1,0,3
Y2-S2-083M22,4,399,AS,exp,40,←,left,←,0.5954944998957217,True,23,-1,0,3
Y2-S2-083M22,4,400,AS,exp,41,→,right,→,0.7185235996730626,True,23,-1,0,3
Y2-S2-083M22,4,401,AS,exp,33,↓,right,→,1.020760000217706,False,23,-1,0,3
Y2-S2-083M22,4,402,AS,exp,47,↑,up,↑,0.9307551998645067,True,24,-1,0,3
Y2-S2-083M22,4,403,AS,exp,45,←,right,→,0.9294291995465755,False,24,-1,0,3
Y2-S2-083M22,4,404,AS,exp,28,↑,no_key,no_letter,-1.0,False,25,-1,0,3
Y2-S2-083M22,4,405,AS,exp,25,→,right,→,0.6929127001203597,True,26,-1,0,3
Y2-S2-083M22,4,406,AS,exp,30,↓,down,↓,0.6039169002324343,True,26,-1,0,3
Y2-S2-083M22,4,407,AS,exp,26,←,left,←,0.6042192000895739,True,26,1,1,4
Y2-S2-083M22,4,408,AS,exp,33,↓,down,↓,0.8271417999640107,True,25,1,0,4
Y2-S2-083M22,4,409,AS,exp,25,↑,up,↑,0.8419613000005484,True,25,1,0,4
Y2-S2-083M22,4,410,AS,exp,33,←,right,→,0.6730007999576628,False,25,-1,1,5
Y2-S2-083M22,4,411,AS,exp,37,↑,left,←,0.9676367999054492,False,26,-1,0,5
Y2-S2-083M22,4,412,AS,exp,50,→,no_key,no_letter,-1.0,False,27,-1,0,5
Y2-S2-083M22,4,413,AS,exp,33,←,right,→,1.4621633999049664,False,28,-1,0,5
Y2-S2-083M22,4,414,AS,exp,29,→,right,→,0.8783400999382138,True,29,-1,0,5
Y2-S2-083M22,4,415,AS,exp,38,↓,down,↓,0.7393585001118481,True,29,-1,0,5
Y2-S2-083M22,4,416,AS,exp,30,→,right,→,0.5172413000836968,True,29,1,1,6
Y2-S2-083M22,4,417,AS,exp,50,←,right,→,0.8607956999912858,False,28,-1,1,7
Y2-S2-083M22,4,418,AS,exp,38,↑,right,→,1.528054099995643,False,29,-1,0,7
Y2-S2-083M22,4,419,AS,exp,32,↓,no_key,no_letter,-1.0,False,30,-1,0,7
Y2-S2-083M22,4,420,AS,exp,41,→,right,→,0.6174530000425875,True,31,-1,0,7
Y2-S2-083M22,4,421,AS,exp,26,↓,down,↓,1.0085567003116012,True,31,-1,0,7
Y2-S2-083M22,4,422,AS,exp,36,→,right,→,0.7832637000828981,True,31,1,1,8
Y2-S2-083M22,4,423,AS,exp,26,↑,up,↑,1.2314606998115778,True,30,1,0,8
Y2-S2-083M22,4,424,AS,exp,39,↓,right,→,1.1638406999409199,False,30,-1,1,9
Y2-S2-083M22,4,425,AS,exp,33,←,no_key,no_letter,-1.0,False,31,-1,0,9
Y2-S2-083M22,4,426,AS,exp,27,↓,down,↓,1.4376733000390232,True,32,-1,0,9
Y2-S2-083M22,4,427,AS,exp,42,→,right,→,0.6346538998186588,True,32,-1,0,9
Y2-S2-083M22,4,428,AS,exp,41,←,right,→,0.7615088997408748,False,32,-1,0,9
Y2-S2-083M22,4,429,AS,exp,34,↑,down,↓,1.1902036000974476,False,33,-1,0,9
Y2-S2-083M22,4,430,AS,exp,34,→,right,→,0.7928186999633908,True,34,-1,0,9
Y2-S2-083M22,4,431,AS,exp,25,↓,right,→,1.7339604999870062,False,34,-1,0,9
Y2-S2-083M22,4,432,AS,exp,26,←,left,←,1.0983866997994483,True,35,-1,0,9
Y2-S2-083M22,4,433,AS,exp,27,↑,down,↓,1.5138885998167098,False,35,-1,0,9
Y2-S2-083M22,4,434,AS,exp,47,↓,no_key,no_letter,-1.0,False,36,-1,0,9
Y2-S2-083M22,4,435,AS,exp,44,↑,right,→,0.5177261000499129,False,37,-1,0,9
Y2-S2-083M22,4,436,AS,exp,41,↓,right,→,0.13418809976428747,False,38,-1,0,9
Y2-S2-083M22,4,437,AS,exp,47,→,right,→,0.8558489000424743,True,39,-1,0,9
Y2-S2-083M22,4,438,AS,exp,31,←,no_key,no_letter,-1.0,False,39,-1,0,9
Y2-S2-083M22,4,439,AS,exp,49,↑,no_key,no_letter,-1.0,False,40,-1,0,9
Y2-S2-083M22,4,440,AS,exp,37,→,right,→,0.4845582996495068,True,41,-1,0,9
Y2-S2-083M22,4,441,AS,exp,26,↓,no_key,no_letter,-1.0,False,41,-1,0,9
Y2-S2-083M22,4,442,AS,exp,41,↑,right,→,0.7004368999041617,False,42,-1,0,9
Y2-S2-083M22,4,443,AS,exp,44,→,right,→,0.8174279001541436,True,43,-1,0,9
Y2-S2-083M22,4,444,AS,exp,35,↑,up,↑,0.9951029000803828,True,43,-1,0,9
Y2-S2-083M22,4,445,AS,exp,46,←,left,←,0.7169651999138296,True,43,1,1,10
Y2-S2-083M22,4,446,AS,exp,27,→,right,→,0.6338235000148416,True,42,1,0,10
Y2-S2-083M22,4,447,AS,exp,26,←,left,←,0.7013312997296453,True,42,1,0,10
Y2-S2-083M22,4,448,AS,exp,37,→,right,→,0.601223099976778,True,42,1,0,10
Y2-S2-083M22,4,449,AS,exp,30,←,left,←,0.584570899605751,True,41,1,0,10
Y2-S2-083M22,4,450,AS,exp,33,↑,up,↑,0.8663471001200378,True,41,1,0,10
Y2-S2-083M22,4,451,AS,exp,47,↓,down,↓,0.6176660996861756,True,41,1,0,10
Y2-S2-083M22,4,452,AS,exp,39,→,right,→,0.48481549974530935,True,40,1,0,10
Y2-S2-083M22,4,453,AS,exp,40,←,right,→,0.5508582000620663,False,40,-1,1,11
Y2-S2-083M22,4,454,AS,exp,43,↑,up,↑,0.5347931003198028,True,41,-1,0,11
Y2-S2-083M22,4,455,AS,exp,39,↓,down,↓,0.8175770998932421,True,41,-1,0,11
Y2-S2-083M22,4,456,AS,exp,40,←,left,←,0.7174686999060214,True,41,1,1,12
Y2-S2-083M22,4,457,AS,exp,26,↓,down,↓,0.9205196998082101,True,40,1,0,12
Y2-S2-083M22,4,458,AS,exp,47,→,left,←,1.319971399847418,False,40,-1,1,13
Y2-S2-083M22,4,459,AS,exp,44,↑,up,↑,1.0338314999826252,True,41,-1,0,13
Y2-S2-083M22,4,460,AS,exp,36,→,no_key,no_letter,-1.0,False,41,-1,0,13
Y2-S2-083M22,4,461,AS,exp,32,↑,up,↑,1.5384611003100872,True,42,-1,0,13
Y2-S2-083M22,4,462,AS,exp,34,←,no_key,no_letter,-1.0,False,42,-1,0,13
Y2-S2-083M22,4,463,AS,exp,30,↑,down,↓,0.36743230000138283,False,43,-1,0,13
Y2-S2-083M22,4,464,AS,exp,34,←,left,←,0.8338673999533057,True,44,-1,0,13
Y2-S2-083M22,4,465,AS,exp,39,→,right,→,0.7504401998594403,True,44,-1,0,13
Y2-S2-083M22,4,466,AS,exp,44,←,left,←,0.8170123999007046,True,44,1,1,14
Y2-S2-083M22,4,467,AS,exp,38,↓,down,↓,0.8010371001437306,True,43,1,0,14
Y2-S2-083M22,4,468,AS,exp,46,↑,up,↑,1.006216200068593,True,43,1,0,14
Y2-S2-083M22,4,469,AS,exp,47,←,down,↓,1.5583005002699792,False,43,-1,1,15
Y2-S2-083M22,4,470,AS,exp,48,↓,right,→,1.3168122000060976,False,44,-1,0,15
Y2-S2-083M22,4,471,AS,exp,41,↑,no_key,no_letter,-1.0,False,45,-1,0,15
Y2-S2-083M22,4,472,AS,exp,40,↓,down,↓,0.8674500002525747,True,46,-1,0,15
Y2-S2-083M22,4,473,AS,exp,43,←,left,←,0.850691800005734,True,46,-1,0,15
Y2-S2-083M22,4,474,AS,exp,29,↑,up,↑,1.0162009000778198,True,46,1,1,16
Y2-S2-083M22,5,475,AS,intra_train,49,↓,down,↓,0.6503477999940515,True,37,-,-,-
Y2-S2-083M22,5,476,AS,intra_train,27,←,right,→,0.5007890001870692,False,37,-,-,-
Y2-S2-083M22,5,477,AS,intra_train,34,→,right,→,0.6007375000044703,True,37,-,-,-
Y2-S2-083M22,5,478,AS,intra_train,43,↓,down,↓,0.6340552000328898,True,37,-,-,-
Y2-S2-083M22,5,479,AS,intra_train,42,↑,up,↑,0.7008800003677607,True,37,-,-,-
Y2-S2-083M22,5,480,AS,exp,29,↓,down,↓,0.6247809999622405,True,25,0,0,0
Y2-S2-083M22,5,481,AS,exp,35,↑,up,↑,1.2423901995643973,True,25,0,0,0
Y2-S2-083M22,5,482,AS,exp,29,↓,down,↓,0.500386799685657,True,25,1,0,0
Y2-S2-083M22,5,483,AS,exp,48,←,left,←,0.7156806997954845,True,24,1,0,0
Y2-S2-083M22,5,484,AS,exp,44,→,right,→,0.7330272998660803,True,24,1,0,0
Y2-S2-083M22,5,485,AS,exp,41,←,left,←,0.500613400246948,True,24,1,0,0
Y2-S2-083M22,5,486,AS,exp,29,↑,up,↑,1.053024800028652,True,23,1,0,0
Y2-S2-083M22,5,487,AS,exp,40,↓,up,↑,1.076775399968028,False,23,-1,1,1
Y2-S2-083M22,5,488,AS,exp,46,→,right,→,0.5341568998992443,True,24,-1,0,1
Y2-S2-083M22,5,489,AS,exp,46,↑,up,↑,0.6537640001624823,True,24,-1,0,1
Y2-S2-083M22,5,490,AS,exp,43,←,left,←,0.6068938001990318,True,24,1,1,2
Y2-S2-083M22,5,491,AS,exp,47,↑,no_key,no_letter,-1.0,False,23,-1,1,3
Y2-S2-083M22,5,492,AS,exp,25,→,right,→,1.4358345000073314,True,24,-1,0,3
Y2-S2-083M22,5,493,AS,exp,30,↑,up,↑,0.6869426001794636,True,24,-1,0,3
Y2-S2-083M22,5,494,AS,exp,27,←,right,→,1.2108006998896599,False,24,-1,0,3
Y2-S2-083M22,5,495,AS,exp,29,↓,right,→,2.0359780001454055,False,25,-1,0,3
Y2-S2-083M22,5,496,AS,exp,33,←,no_key,no_letter,-1.0,False,26,-1,0,3
Y2-S2-083M22,5,497,AS,exp,31,→,right,→,0.8270049998536706,True,27,-1,0,3
Y2-S2-083M22,5,498,AS,exp,37,↑,right,→,0.5674812998622656,False,27,-1,0,3
Y2-S2-083M22,5,499,AS,exp,25,↓,no_key,no_letter,-1.0,False,28,-1,0,3
Y2-S2-083M22,5,500,AS,exp,28,→,no_key,no_letter,-1.0,False,29,-1,0,3
Y2-S2-083M22,5,501,AS,exp,26,←,left,←,0.8942736000753939,True,30,-1,0,3
Y2-S2-083M22,5,502,AS,exp,41,→,right,→,0.6171566001139581,True,30,-1,0,3
Y2-S2-083M22,5,503,AS,exp,42,↑,no_key,no_letter,-1.0,False,30,-1,0,3
Y2-S2-083M22,5,504,AS,exp,47,←,no_key,no_letter,-1.0,False,31,-1,0,3
Y2-S2-083M22,5,505,AS,exp,25,→,no_key,no_letter,-1.0,False,32,-1,0,3
Y2-S2-083M22,5,506,AS,exp,39,↑,right,→,1.650467500090599,False,33,-1,0,3
Y2-S2-083M22,5,507,AS,exp,40,↓,no_key,no_letter,-1.0,False,34,-1,0,3
Y2-S2-083M22,5,508,AS,exp,30,←,no_key,no_letter,-1.0,False,35,-1,0,3
Y2-S2-083M22,5,509,AS,exp,35,↓,down,↓,1.8054898995906115,True,36,-1,0,3
Y2-S2-083M22,5,510,AS,exp,39,←,left,←,0.7960994001477957,True,36,-1,0,3
Y2-S2-083M22,5,511,AS,exp,42,→,right,→,0.6007055998779833,True,36,1,1,4
Y2-S2-083M22,5,512,AS,exp,30,↑,up,↑,0.7548787002451718,True,35,1,0,4
Y2-S2-083M22,5,513,AS,exp,29,↓,down,↓,0.5349396001547575,True,35,1,0,4
Y2-S2-083M22,5,514,AS,exp,27,→,right,→,0.6171985999681056,True,35,1,0,4
Y2-S2-083M22,5,515,AS,exp,32,←,left,←,1.113502999767661,True,34,1,0,4
Y2-S2-083M22,5,516,AS,exp,28,↓,down,↓,0.8959965999238193,True,34,1,0,4
Y2-S2-083M22,5,517,AS,exp,35,↑,up,↑,0.8765505999326706,True,34,1,0,4
Y2-S2-083M22,5,518,AS,exp,31,→,right,→,0.6674987999722362,True,33,1,0,4
Y2-S2-083M22,5,519,AS,exp,38,←,right,→,0.7461731000803411,False,33,-1,1,5
Y2-S2-083M22,5,520,AS,exp,25,↑,down,↓,1.4333524997346103,False,34,-1,0,5
Y2-S2-083M22,5,521,AS,exp,37,→,no_key,no_letter,-1.0,False,35,-1,0,5
Y2-S2-083M22,5,522,AS,exp,46,↑,no_key,no_letter,-1.0,False,36,-1,0,5
Y2-S2-083M22,5,523,AS,exp,41,→,right,→,0.7005525999702513,True,37,-1,0,5
Y2-S2-083M22,5,524,AS,exp,28,←,right,→,0.43435729993507266,False,37,-1,0,5
Y2-S2-083M22,5,525,AS,exp,37,↓,no_key,no_letter,-1.0,False,38,-1,0,5
Y2-S2-083M22,5,526,AS,exp,32,→,right,→,0.5344243003055453,True,39,-1,0,5
Y2-S2-083M22,5,527,AS,exp,47,←,left,←,0.8390031000599265,True,39,-1,0,5
Y2-S2-083M22,5,528,AS,exp,45,→,no_key,no_letter,-1.0,False,39,-1,0,5
Y2-S2-083M22,5,529,AS,exp,33,↑,right,→,0.9389284001663327,False,40,-1,0,5
Y2-S2-083M22,5,530,AS,exp,49,→,right,→,0.9615211002528667,True,41,-1,0,5
Y2-S2-083M22,5,531,AS,exp,26,←,no_key,no_letter,-1.0,False,41,-1,0,5
Y2-S2-083M22,5,532,AS,exp,50,↓,no_key,no_letter,-1.0,False,42,-1,0,5
Y2-S2-083M22,5,533,AS,exp,39,←,right,→,0.6680340999737382,False,43,-1,0,5
Y2-S2-083M22,5,534,AS,exp,27,↑,up,↑,1.4506919998675585,True,44,-1,0,5
Y2-S2-083M22,5,535,AS,exp,26,→,no_key,no_letter,-1.0,False,44,-1,0,5
Y2-S2-083M22,5,536,AS,exp,38,↓,right,→,1.5573491998948157,False,45,-1,0,5
Y2-S2-083M22,5,537,AS,exp,29,→,right,→,0.5344691998325288,True,46,-1,0,5
Y2-S2-083M22,5,538,AS,exp,26,↑,up,↑,0.7670791996642947,True,46,-1,0,5
Y2-S2-083M22,5,539,AS,exp,42,↓,down,↓,0.7176219001412392,True,46,1,1,6
Y2-S2-083M22,5,540,AS,exp,33,←,left,←,0.800388399977237,True,45,1,0,6
Y2-S2-083M22,5,541,AS,exp,37,↓,down,↓,0.5500580002553761,True,45,1,0,6
Y2-S2-083M22,5,542,AS,exp,45,↑,up,↑,1.102754699997604,True,45,1,0,6
Y2-S2-083M22,5,543,AS,exp,33,→,right,→,0.7841552998870611,True,44,1,0,6
Y2-S2-083M22,5,544,AS,exp,36,↓,down,↓,0.7678388999775052,True,44,1,0,6
Y2-S2-083M22,5,545,AS,exp,32,←,right,→,0.7013635998591781,False,44,-1,1,7
Y2-S2-083M22,5,546,AS,exp,31,→,right,→,0.8006509002298117,True,45,-1,0,7
Y2-S2-083M22,5,547,AS,exp,44,↑,up,↑,0.6846175999380648,True,45,-1,0,7
Y2-S2-083M22,5,548,AS,exp,36,→,right,→,0.6840065000578761,True,45,1,1,8
Y2-S2-083M22,5,549,AS,exp,25,↑,up,↑,0.8340894998982549,True,44,1,0,8
Y2-S2-083M22,5,550,AS,exp,36,←,left,←,0.7669832999818027,True,44,1,0,8
Y2-S2-083M22,5,551,AS,exp,27,↑,up,↑,0.60093649988994,True,44,1,0,8
Y2-S2-083M22,5,552,AS,exp,46,→,right,→,0.6345127997919917,True,43,1,0,8
Y2-S2-083M22,5,553,AS,exp,47,↑,up,↑,0.8966850996948779,True,43,1,0,8
Y2-S2-083M22,5,554,AS,exp,47,→,right,→,0.6009130999445915,True,43,1,0,8
Y2-S2-083M22,5,555,AS,exp,29,↑,up,↑,1.0543434000574052,True,42,1,0,8
Y2-S2-083M22,5,556,AS,exp,25,↓,down,↓,0.6841025999747217,True,42,1,0,8
Y2-S2-083M22,5,557,AS,exp,29,→,right,→,0.41786300018429756,True,42,1,0,8
Y2-S2-083M22,5,558,AS,exp,45,←,left,←,0.6669981996528804,True,41,1,0,8
Y2-S2-083M22,5,559,AS,exp,40,→,right,→,0.7678106999956071,True,41,1,0,8
Y2-S2-083M22,5,560,AS,exp,44,↓,down,↓,0.7840772997587919,True,41,1,0,8
Y2-S2-083M22,5,561,AS,exp,39,↑,up,↑,0.4845762997865677,True,40,1,0,8
Y2-S2-083M22,5,562,AS,exp,37,↓,down,↓,0.5346136000007391,True,40,1,0,8
Y2-S2-083M22,5,563,AS,exp,36,→,right,→,0.38437619991600513,True,40,1,0,8
Y2-S2-083M22,5,564,AS,exp,26,↑,up,↑,0.5677366000600159,True,39,1,0,8
Y2-S2-083M22,5,565,AS,exp,27,↓,down,↓,0.8333868999034166,True,39,1,0,8
Y2-S2-083M22,5,566,AS,exp,37,→,right,→,0.4018476000055671,True,39,1,0,8
Y2-S2-083M22,5,567,AS,exp,41,↓,down,↓,0.7165751997381449,True,38,1,0,8
Y2-S2-083M22,5,568,AS,exp,28,↑,up,↑,0.667083500418812,True,38,1,0,8
Y2-S2-083M22,5,569,AS,exp,48,←,left,←,0.534914500080049,True,38,1,0,8
Y2-S2-083M22,5,570,AS,exp,28,↓,down,↓,0.6012645000591874,True,37,1,0,8
Y2-S2-083M22,5,571,AS,exp,38,→,left,←,0.5843818001449108,False,37,-1,1,9
Y2-S2-083M22,5,572,AS,exp,44,↑,up,↑,0.8545913998968899,True,38,-1,0,9
Y2-S2-083M22,5,573,AS,exp,31,←,left,←,0.7672623000107706,True,38,-1,0,9
Y2-S2-083M22,5,574,AS,exp,26,↑,no_key,no_letter,-1.0,False,38,-1,0,9
Y2-S2-083M22,5,575,AS,exp,50,←,no_key,no_letter,-1.0,False,39,-1,0,9
Y2-S2-083M22,5,576,AS,exp,37,↓,down,↓,0.7837739996612072,True,40,-1,0,9
Y2-S2-083M22,5,577,AS,exp,38,→,right,→,0.6841376996599138,True,40,-1,0,9
Y2-S2-083M22,5,578,AS,exp,44,←,no_key,no_letter,-1.0,False,40,-1,0,9
Y2-S2-083M22,5,579,AS,exp,34,↑,right,→,0.7669530999846756,False,41,-1,0,9
Y2-S2-083M22,5,580,AS,exp,46,↓,down,↓,0.5842178999446332,True,42,-1,0,9
Y2-S2-083M22,5,581,AS,exp,47,→,right,→,0.5175955998711288,True,42,-1,0,9
Y2-S2-083M22,5,582,AS,exp,48,↑,up,↑,0.6678193998523057,True,42,1,1,10
Y2-S2-083M22,5,583,AS,exp,38,→,right,→,0.5011872001923621,True,41,1,0,10
Y2-S2-083M22,5,584,AS,exp,39,↓,down,↓,0.8002726002596319,True,41,1,0,10
Y2-S2-083M22,5,585,AS,exp,46,←,right,→,0.5512761999852955,False,41,-1,1,11
Y2-S2-083M22,5,586,AS,exp,37,↑,up,↑,0.5844038999639452,True,42,-1,0,11
Y2-S2-083M22,5,587,AS,exp,30,↓,down,↓,0.700569299980998,True,42,-1,0,11
Y2-S2-083M22,5,588,AS,exp,41,↑,up,↑,0.9470887002535164,True,42,1,1,12
Y2-S2-083M22,5,589,AS,exp,40,←,left,←,0.5014591999351978,True,41,1,0,12
Y2-S2-083M22,5,590,AS,exp,26,↑,up,↑,1.917771500069648,True,41,1,0,12
Y2-S2-083M22,5,591,AS,exp,33,←,left,←,0.534554900135845,True,41,1,0,12
Y2-S2-083M22,5,592,AS,exp,33,↓,down,↓,0.6509270998649299,True,40,1,0,12
Y2-S2-083M22,5,593,AS,exp,36,←,left,←,0.5175914000719786,True,40,1,0,12
Y2-S2-083M22,5,594,AS,exp,49,→,right,→,0.767626800108701,True,40,1,0,12
Y2-S2-083M22,5,595,AS,exp,27,↑,up,↑,0.45112730003893375,True,39,1,0,12
Y2-S2-083M22,5,596,AS,exp,29,←,left,←,0.7174295000731945,True,39,1,0,12
Y2-S2-083M22,5,597,AS,exp,25,↓,down,↓,0.434258199762553,True,39,1,0,12
Y2-S2-083M22,5,598,AS,exp,43,←,left,←,0.6836777999997139,True,38,1,0,12
Y2-S2-083M22,5,599,AS,exp,49,→,right,→,0.5676754000596702,True,38,1,0,12
Y2-S2-083M22,5,600,AS,exp,44,←,left,←,0.6842105998657644,True,38,1,0,12
Y2-S2-083M22,5,601,AS,exp,28,→,right,→,0.5175149003043771,True,37,1,0,12
Y2-S2-083M22,5,602,AS,exp,48,↑,up,↑,0.7892760997638106,True,37,1,0,12
Y2-S2-083M22,5,603,AS,exp,36,↓,up,↑,0.7172218998894095,False,37,-1,1,13
Y2-S2-083M22,5,604,AS,exp,38,↑,up,↑,0.4845477002672851,True,38,-1,0,13
Y2-S2-083M22,5,605,AS,exp,38,→,right,→,0.7173122996464372,True,38,-1,0,13
Y2-S2-083M22,5,606,AS,exp,30,↑,up,↑,1.5883342996239662,True,38,1,1,14
Y2-S2-083M22,5,607,AS,exp,46,→,right,→,0.7007096000015736,True,37,1,0,14
Y2-S2-083M22,5,608,AS,exp,38,↑,up,↑,0.7171720000915229,True,37,1,0,14
Y2-S2-083M22,5,609,AS,exp,40,←,left,←,0.7175701996311545,True,37,1,0,14
Y2-S2-083M22,5,610,AS,exp,33,→,right,→,0.8309133001603186,True,36,1,0,14
Y2-S2-083M22,5,611,AS,exp,31,↓,down,↓,1.563081200234592,True,36,1,0,14
Y2-S2-083M22,5,612,AS,exp,30,↑,up,↑,0.8385976999998093,True,36,1,0,14
Y2-S2-083M22,5,613,AS,exp,31,←,left,←,0.9840061999857426,True,35,1,0,14
Y2-S2-083M22,5,614,AS,exp,34,→,right,→,0.5837625004351139,True,35,1,0,14
Y2-S2-083M22,5,615,AS,exp,35,↑,no_key,no_letter,-1.0,False,35,-1,1,15
Y2-S2-083M22,5,616,AS,exp,26,←,no_key,no_letter,-1.0,False,36,-1,0,15
Y2-S2-083M22,5,617,AS,exp,29,↓,down,↓,0.4676338001154363,True,37,-1,0,15
Y2-S2-083M22,5,618,AS,exp,25,→,right,→,0.7003211001865566,True,37,-1,0,15
Y2-S2-083M22,5,619,AS,exp,50,↑,up,↑,1.332403200212866,True,37,1,1,16
Y2-S2-083M22,6,620,PS,intra_train,29,←,left,←,0.5188898998312652,True,19,-,-,-
Y2-S2-083M22,6,621,PS,intra_train,36,↓,down,↓,0.5478821001015604,True,19,-,-,-
Y2-S2-083M22,6,622,PS,intra_train,33,↑,up,↑,0.7181227002292871,True,19,-,-,-
Y2-S2-083M22,6,623,PS,intra_train,34,←,left,←,0.4995999997481704,True,19,-,-,-
Y2-S2-083M22,6,624,PS,intra_train,42,↑,up,↑,0.6449460000731051,True,19,-,-,-
Y2-S2-083M22,6,625,PS,exp,36,↓,down,↓,0.4739375999197364,True,13,0,0,0
Y2-S2-083M22,6,626,PS,exp,30,→,right,→,0.4291383000090718,True,13,0,0,0
Y2-S2-083M22,6,627,PS,exp,34,↓,down,↓,0.5350146000273526,True,13,1,0,0
Y2-S2-083M22,6,628,PS,exp,36,←,left,←,0.8954651998355985,True,12,1,0,0
Y2-S2-083M22,6,629,PS,exp,32,→,right,→,0.4305765996687114,True,12,1,0,0
Y2-S2-083M22,6,630,PS,exp,30,↑,up,↑,0.9336421997286379,True,12,1,0,0
Y2-S2-083M22,6,631,PS,exp,43,↓,down,↓,0.5120307998731732,True,11,1,0,0
Y2-S2-083M22,6,632,PS,exp,28,←,left,←,0.8336209002882242,True,11,1,0,0
Y2-S2-083M22,6,633,PS,exp,39,↓,down,↓,0.48520939983427525,True,11,1,0,0
Y2-S2-083M22,6,634,PS,exp,42,↑,left,←,0.5188011997379363,False,10,-1,1,1
Y2-S2-083M22,6,635,PS,exp,50,→,right,→,0.44847619999200106,True,11,-1,0,1
Y2-S2-083M22,6,636,PS,exp,32,←,right,→,0.38244140008464456,False,11,-1,0,1
Y2-S2-083M22,6,637,PS,exp,38,→,right,→,0.48565890034660697,True,12,-1,0,1
Y2-S2-083M22,6,638,PS,exp,30,↑,up,↑,0.7674496998079121,True,12,-1,0,1
Y2-S2-083M22,6,639,PS,exp,45,↓,down,↓,0.6006285999901593,True,12,1,1,2
Y2-S2-083M22,6,640,PS,exp,34,↑,up,↑,0.710752499755472,True,11,1,0,2
Y2-S2-083M22,6,641,PS,exp,50,←,left,←,1.0496113998815417,True,11,1,0,2
Y2-S2-083M22,6,642,PS,exp,38,↑,up,↑,0.713777800090611,True,11,1,0,2
Y2-S2-083M22,6,643,PS,exp,43,→,right,→,1.291549100074917,True,10,1,0,2
Y2-S2-083M22,6,644,PS,exp,31,↓,down,↓,0.6428046999499202,True,10,1,0,2
Y2-S2-083M22,6,645,PS,exp,44,→,no_key,no_letter,-1.0,False,10,-1,1,3
Y2-S2-083M22,6,646,PS,exp,35,↓,down,↓,0.8219210999086499,True,11,-1,0,3
Y2-S2-083M22,6,647,PS,exp,50,↑,left,←,0.9750453000888228,False,11,-1,0,3
Y2-S2-083M22,6,648,PS,exp,46,→,right,→,0.5791147998534143,True,12,-1,0,3
Y2-S2-083M22,6,649,PS,exp,36,↓,down,↓,0.6749812001362443,True,12,-1,0,3
Y2-S2-083M22,6,650,PS,exp,25,→,down,↓,1.0435178996995091,False,12,-1,0,3
Y2-S2-083M22,6,651,PS,exp,30,↓,down,↓,0.6997008002363145,True,13,-1,0,3
Y2-S2-083M22,6,652,PS,exp,39,→,down,↓,1.1935356999747455,False,13,-1,0,3
Y2-S2-083M22,6,653,PS,exp,25,↑,no_key,no_letter,-1.0,False,14,-1,0,3
Y2-S2-083M22,6,654,PS,exp,40,→,right,→,0.44367469986900687,True,15,-1,0,3
Y2-S2-083M22,6,655,PS,exp,40,↓,down,↓,1.2225302997976542,True,15,-1,0,3
Y2-S2-083M22,6,656,PS,exp,43,→,no_key,no_letter,-1.0,False,15,-1,0,3
Y2-S2-083M22,6,657,PS,exp,26,↓,down,↓,0.8526126998476684,True,16,-1,0,3
Y2-S2-083M22,6,658,PS,exp,45,↑,no_key,no_letter,-1.0,False,16,-1,0,3
Y2-S2-083M22,6,659,PS,exp,34,←,no_key,no_letter,-1.0,False,17,-1,0,3
Y2-S2-083M22,6,660,PS,exp,36,↑,up,↑,0.9414718002080917,True,18,-1,0,3
Y2-S2-083M22,6,661,PS,exp,42,←,left,←,1.0574064003303647,True,18,-1,0,3
Y2-S2-083M22,6,662,PS,exp,25,→,right,→,0.510346700437367,True,18,1,1,4
Y2-S2-083M22,6,663,PS,exp,37,↑,up,↑,0.7920849998481572,True,17,1,0,4
Y2-S2-083M22,6,664,PS,exp,48,←,no_key,no_letter,-1.0,False,17,-1,1,5
Y2-S2-083M22,6,665,PS,exp,27,↓,no_key,no_letter,-1.0,False,18,-1,0,5
Y2-S2-083M22,6,666,PS,exp,46,↑,up,↑,0.7311648996546865,True,19,-1,0,5
Y2-S2-083M22,6,667,PS,exp,43,→,right,→,0.5265151001513004,True,19,-1,0,5
Y2-S2-083M22,6,668,PS,exp,35,←,left,←,0.8130784002132714,True,19,1,1,6
Y2-S2-083M22,6,669,PS,exp,47,↓,left,←,0.825316600035876,False,18,-1,1,7
Y2-S2-083M22,6,670,PS,exp,32,←,left,←,0.5167680000886321,True,19,-1,0,7
Y2-S2-083M22,6,671,PS,exp,41,↓,down,↓,0.6159505997784436,True,19,-1,0,7
Y2-S2-083M22,6,672,PS,exp,43,↑,up,↑,0.6397977001033723,True,19,1,1,8
Y2-S2-083M22,6,673,PS,exp,27,←,no_key,no_letter,-1.0,False,18,-1,1,9
Y2-S2-083M22,6,674,PS,exp,43,→,no_key,no_letter,-1.0,False,19,-1,0,9
Y2-S2-083M22,6,675,PS,exp,41,↑,up,↑,0.7643287000246346,True,20,-1,0,9
Y2-S2-083M22,6,676,PS,exp,48,→,left,←,1.871198800392449,False,20,-1,0,9
Y2-S2-083M22,6,677,PS,exp,26,←,no_key,no_letter,-1.0,False,21,-1,0,9
Y2-S2-083M22,6,678,PS,exp,30,↓,up,↑,1.536499499808997,False,22,-1,0,9
Y2-S2-083M22,6,679,PS,exp,38,↑,up,↑,0.9276508996263146,True,23,-1,0,9
Y2-S2-083M22,6,680,PS,exp,47,←,left,←,0.9131510998122394,True,23,-1,0,9
Y2-S2-083M22,6,681,PS,exp,45,↓,down,↓,0.6581864999607205,True,23,1,1,10
Y2-S2-083M22,6,682,PS,exp,49,←,left,←,0.7344323000870645,True,22,1,0,10
Y2-S2-083M22,6,683,PS,exp,37,→,right,→,0.500408099964261,True,22,1,0,10
Y2-S2-083M22,6,684,PS,exp,37,↓,down,↓,0.7086203997023404,True,22,1,0,10
Y2-S2-083M22,6,685,PS,exp,31,←,left,←,0.7174219000153244,True,21,1,0,10
Y2-S2-083M22,6,686,PS,exp,44,→,right,→,0.4838614999316633,True,21,1,0,10
Y2-S2-083M22,6,687,PS,exp,39,↑,up,↑,0.5880132000893354,True,21,1,0,10
Y2-S2-083M22,6,688,PS,exp,32,↓,down,↓,0.5171376001089811,True,20,1,0,10
Y2-S2-083M22,6,689,PS,exp,41,←,left,←,0.615070799831301,True,20,1,0,10
Y2-S2-083M22,6,690,PS,exp,38,→,right,→,0.5031735002994537,True,20,1,0,10
Y2-S2-083M22,6,691,PS,exp,42,↓,down,↓,0.5421588998287916,True,19,1,0,10
Y2-S2-083M22,6,692,PS,exp,35,←,left,←,0.8177384999580681,True,19,1,0,10
Y2-S2-083M22,6,693,PS,exp,43,↑,up,↑,0.8956856997683644,True,19,1,0,10
Y2-S2-083M22,6,694,PS,exp,38,↓,down,↓,0.5168376001529396,True,18,1,0,10
Y2-S2-083M22,6,695,PS,exp,28,↑,up,↑,0.6967882998287678,True,18,1,0,10
Y2-S2-083M22,6,696,PS,exp,40,↓,down,↓,0.4885244998149574,True,18,1,0,10
Y2-S2-083M22,6,697,PS,exp,28,↑,up,↑,0.9672580999322236,True,17,1,0,10
Y2-S2-083M22,6,698,PS,exp,29,→,down,↓,1.4611638002097607,False,17,-1,1,11
Y2-S2-083M22,6,699,PS,exp,27,↑,up,↑,0.7819211003370583,True,18,-1,0,11
Y2-S2-083M22,6,700,PS,exp,38,↓,down,↓,0.9018164998851717,True,18,-1,0,11
Y2-S2-083M22,6,701,PS,exp,30,←,no_key,no_letter,-1.0,False,18,-1,0,11
Y2-S2-083M22,6,702,PS,exp,34,→,right,→,0.6830215998925269,True,19,-1,0,11
Y2-S2-083M22,6,703,PS,exp,40,↑,up,↑,0.6271621002815664,True,19,-1,0,11
Y2-S2-083M22,6,704,PS,exp,26,←,left,←,0.6695962999947369,True,19,1,1,12
Y2-S2-083M22,6,705,PS,exp,40,→,right,→,0.49003429990261793,True,18,1,0,12
Y2-S2-083M22,6,706,PS,exp,36,←,left,←,0.8460062998346984,True,18,1,0,12
Y2-S2-083M22,6,707,PS,exp,48,↑,no_key,no_letter,-1.0,False,18,-1,1,13
Y2-S2-083M22,6,708,PS,exp,39,↓,down,↓,0.5747152999974787,True,19,-1,0,13
Y2-S2-083M22,6,709,PS,exp,29,←,left,←,0.5905161001719534,True,19,-1,0,13
Y2-S2-083M22,6,710,PS,exp,25,→,right,→,0.4504173998720944,True,19,1,1,14
Y2-S2-083M22,6,711,PS,exp,42,←,left,←,0.9681061999872327,True,18,1,0,14
Y2-S2-083M22,6,712,PS,exp,35,→,right,→,0.48402650002390146,True,18,1,0,14
Y2-S2-083M22,6,713,PS,exp,41,↑,up,↑,1.3568267999216914,True,18,1,0,14
Y2-S2-083M22,6,714,PS,exp,45,→,right,→,0.4935961998999119,True,17,1,0,14
Y2-S2-083M22,6,715,PS,exp,31,↓,down,↓,0.4992769998498261,True,17,1,0,14
Y2-S2-083M22,6,716,PS,exp,40,↑,up,↑,0.6865538000129163,True,17,1,0,14
Y2-S2-083M22,6,717,PS,exp,38,→,right,→,0.35063769994303584,True,16,1,0,14
Y2-S2-083M22,6,718,PS,exp,48,←,left,←,0.54041269980371,True,16,1,0,14
Y2-S2-083M22,6,719,PS,exp,50,↓,down,↓,0.5595602998510003,True,16,1,0,14
Y2-S2-083M22,6,720,PS,exp,28,↑,up,↑,0.6170461997389793,True,15,1,0,14
Y2-S2-083M22,6,721,PS,exp,29,←,left,←,0.5603258996270597,True,15,1,0,14
Y2-S2-083M22,6,722,PS,exp,29,→,right,→,0.5525863999500871,True,15,1,0,14
Y2-S2-083M22,6,723,PS,exp,41,↑,up,↑,0.821456499863416,True,14,1,0,14
Y2-S2-083M22,6,724,PS,exp,26,←,no_key,no_letter,-1.0,False,14,-1,1,15
Y2-S2-083M22,6,725,PS,exp,42,↑,up,↑,1.4948652000166476,True,15,-1,0,15
Y2-S2-083M22,6,726,PS,exp,27,→,no_key,no_letter,-1.0,False,15,-1,0,15
Y2-S2-083M22,6,727,PS,exp,32,↑,down,↓,0.9649665001779795,False,16,-1,0,15
Y2-S2-083M22,6,728,PS,exp,29,←,right,→,1.0058389999903738,False,17,-1,0,15
Y2-S2-083M22,6,729,PS,exp,36,→,no_key,no_letter,-1.0,False,18,-1,0,15
Y2-S2-083M22,6,730,PS,exp,35,↓,down,↓,0.4939767997711897,True,19,-1,0,15
Y2-S2-083M22,6,731,PS,exp,32,→,right,→,0.43387719988822937,True,19,-1,0,15
Y2-S2-083M22,6,732,PS,exp,35,←,left,←,0.5937835997901857,True,19,1,1,16
Y2-S2-083M22,7,733,PS,intra_train,37,↓,down,↓,1.1593850003555417,True,19,-,-,-
Y2-S2-083M22,7,734,PS,intra_train,27,↑,up,↑,0.5560717997141182,True,19,-,-,-
Y2-S2-083M22,7,735,PS,intra_train,32,→,right,→,0.3674171003513038,True,19,-,-,-
Y2-S2-083M22,7,736,PS,intra_train,42,↑,up,↑,0.5833824002183974,True,19,-,-,-
Y2-S2-083M22,7,737,PS,intra_train,29,←,left,←,1.0364052997902036,True,19,-,-,-
Y2-S2-083M22,7,738,PS,exp,25,↓,down,↓,0.5284434002824128,True,13,0,0,0
Y2-S2-083M22,7,739,PS,exp,44,←,left,←,0.46087650023400784,True,13,0,0,0
Y2-S2-083M22,7,740,PS,exp,44,↓,left,←,0.7591099999845028,False,13,-1,0,0
Y2-S2-083M22,7,741,PS,exp,45,←,left,←,0.7718350999057293,True,14,-1,0,0
Y2-S2-083M22,7,742,PS,exp,43,→,right,→,0.6395829999819398,True,14,-1,0,0
Y2-S2-083M22,7,743,PS,exp,44,←,left,←,0.6000831997953355,True,14,1,1,1
Y2-S2-083M22,7,744,PS,exp,34,↑,no_key,no_letter,-1.0,False,13,-1,1,2
Y2-S2-083M22,7,745,PS,exp,38,←,right,→,1.4066194999031723,False,14,-1,0,2
Y2-S2-083M22,7,746,PS,exp,32,↓,down,↓,0.5730526000261307,True,15,-1,0,2
Y2-S2-083M22,7,747,PS,exp,40,←,left,←,0.8223028001375496,True,15,-1,0,2
Y2-S2-083M22,7,748,PS,exp,39,→,no_key,no_letter,-1.0,False,15,-1,0,2
Y2-S2-083M22,7,749,PS,exp,46,←,left,←,0.9473751001060009,True,16,-1,0,2
Y2-S2-083M22,7,750,PS,exp,48,→,right,→,1.3711443999782205,True,16,-1,0,2
Y2-S2-083M22,7,751,PS,exp,35,←,left,←,1.3381913001649082,True,16,1,1,3
Y2-S2-083M22,7,752,PS,exp,40,→,no_key,no_letter,-1.0,False,15,-1,1,4
Y2-S2-083M22,7,753,PS,exp,43,←,left,←,0.602783799637109,True,16,-1,0,4
Y2-S2-083M22,7,754,PS,exp,31,→,no_key,no_letter,-1.0,False,16,-1,0,4
Y2-S2-083M22,7,755,PS,exp,29,←,left,←,0.20133089972659945,True,17,-1,0,4
Y2-S2-083M22,7,756,PS,exp,33,↓,left,←,0.8931243000552058,False,17,-1,0,4
Y2-S2-083M22,7,757,PS,exp,42,←,no_key,no_letter,-1.0,False,18,-1,0,4
Y2-S2-083M22,7,758,PS,exp,37,↓,left,←,0.8422392997890711,False,19,-1,0,4
Y2-S2-083M22,7,759,PS,exp,32,→,right,→,0.5746779004111886,True,20,-1,0,4
Y2-S2-083M22,7,760,PS,exp,45,↓,down,↓,0.5011554998345673,True,20,-1,0,4
Y2-S2-083M22,7,761,PS,exp,30,←,left,←,0.6072014002129436,True,20,1,1,5
Y2-S2-083M22,7,762,PS,exp,28,↓,down,↓,0.5789728001691401,True,19,1,0,5
Y2-S2-083M22,7,763,PS,exp,46,↑,down,↓,1.1152397003024817,False,19,-1,1,6
Y2-S2-083M22,7,764,PS,exp,47,↓,down,↓,0.5637281001545489,True,20,-1,0,6
Y2-S2-083M22,7,765,PS,exp,46,↑,down,↓,0.6824127002619207,False,20,-1,0,6
Y2-S2-083M22,7,766,PS,exp,43,↓,down,↓,0.5906600002199411,True,21,-1,0,6
Y2-S2-083M22,7,767,PS,exp,28,↑,up,↑,1.097907999996096,True,21,-1,0,6
Y2-S2-083M22,7,768,PS,exp,28,→,right,→,0.5328394002281129,True,21,1,1,7
Y2-S2-083M22,7,769,PS,exp,28,↓,down,↓,0.5944191999733448,True,20,1,0,7
Y2-S2-083M22,7,770,PS,exp,37,→,right,→,0.45028339978307486,True,20,1,0,7
Y2-S2-083M22,7,771,PS,exp,45,↑,up,↑,0.5921817002817988,True,20,1,0,7
Y2-S2-083M22,7,772,PS,exp,25,←,left,←,0.5604201001115143,True,19,1,0,7
Y2-S2-083M22,7,773,PS,exp,26,↑,up,↑,0.5705554001033306,True,19,1,0,7
Y2-S2-083M22,7,774,PS,exp,47,→,right,→,0.5760472998954356,True,19,1,0,7
Y2-S2-083M22,7,775,PS,exp,46,↓,down,↓,0.5822199997492135,True,18,1,0,7
Y2-S2-083M22,7,776,PS,exp,44,↑,up,↑,0.5277445996180177,True,18,1,0,7
Y2-S2-083M22,7,777,PS,exp,29,←,right,→,1.0275425999425352,False,18,-1,1,8
Y2-S2-083M22,7,778,PS,exp,34,↓,down,↓,0.504175600130111,True,19,-1,0,8
Y2-S2-083M22,7,779,PS,exp,39,↑,up,↑,0.5877463999204338,True,19,-1,0,8
Y2-S2-083M22,7,780,PS,exp,27,←,no_key,no_letter,-1.0,False,19,-1,0,8
Y2-S2-083M22,7,781,PS,exp,47,↓,down,↓,0.5496684997342527,True,20,-1,0,8
Y2-S2-083M22,7,782,PS,exp,25,→,right,→,1.0747449998743832,True,20,-1,0,8
Y2-S2-083M22,7,783,PS,exp,28,←,left,←,0.4338432000949979,True,20,1,1,9
Y2-S2-083M22,7,784,PS,exp,47,→,right,→,0.4506759997457266,True,19,1,0,9
Y2-S2-083M22,7,785,PS,exp,29,↓,no_key,no_letter,-1.0,False,19,-1,1,10
Y2-S2-083M22,7,786,PS,exp,38,→,right,→,0.35047270031645894,True,20,-1,0,10
Y2-S2-083M22,7,787,PS,exp,25,↓,down,↓,0.5084171001799405,True,20,-1,0,10
Y2-S2-083M22,7,788,PS,exp,35,↑,right,→,0.4173594997264445,False,20,-1,0,10
Y2-S2-083M22,7,789,PS,exp,44,↓,down,↓,0.5633978000842035,True,21,-1,0,10
Y2-S2-083M22,7,790,PS,exp,28,←,left,←,1.8674000999890268,True,21,-1,0,10
Y2-S2-083M22,7,791,PS,exp,26,↑,up,↑,1.0546734002418816,True,21,1,1,11
Y2-S2-083M22,7,792,PS,exp,32,↓,down,↓,0.574008900206536,True,20,1,0,11
Y2-S2-083M22,7,793,PS,exp,41,↑,up,↑,0.7429335997439921,True,20,1,0,11
Y2-S2-083M22,7,794,PS,exp,49,←,left,←,0.9446813999675214,True,20,1,0,11
Y2-S2-083M22,7,795,PS,exp,27,↓,no_key,no_letter,-1.0,False,19,-1,1,12
Y2-S2-083M22,7,796,PS,exp,43,←,left,←,0.5244902996346354,True,20,-1,0,12
Y2-S2-083M22,7,797,PS,exp,39,↓,no_key,no_letter,-1.0,False,20,-1,0,12
Y2-S2-083M22,7,798,PS,exp,45,↑,no_key,no_letter,-1.0,False,21,-1,0,12
Y2-S2-083M22,7,799,PS,exp,42,←,left,←,0.16771710012108088,True,22,-1,0,12
Y2-S2-083M22,7,800,PS,exp,35,↑,no_key,no_letter,-1.0,False,22,-1,0,12
Y2-S2-083M22,7,801,PS,exp,42,↓,no_key,no_letter,-1.0,False,23,-1,0,12
Y2-S2-083M22,7,802,PS,exp,46,→,no_key,no_letter,-1.0,False,24,-1,0,12
Y2-S2-083M22,7,803,PS,exp,32,←,left,←,0.35143980011343956,True,25,-1,0,12
Y2-S2-083M22,7,804,PS,exp,44,→,no_key,no_letter,-1.0,False,25,-1,0,12
Y2-S2-083M22,7,805,PS,exp,41,←,left,←,1.45297159999609,True,26,-1,0,12
Y2-S2-083M22,7,806,PS,exp,33,↓,no_key,no_letter,-1.0,False,26,-1,0,12
Y2-S2-083M22,7,807,PS,exp,45,←,left,←,0.5837444001808763,True,27,-1,0,12
Y2-S2-083M22,7,808,PS,exp,47,↑,up,↑,0.7260477002710104,True,27,-1,0,12
Y2-S2-083M22,7,809,PS,exp,39,↓,down,↓,0.583816499914974,True,27,1,1,13
Y2-S2-083M22,7,810,PS,exp,40,↑,up,↑,1.2873514001257718,True,26,1,0,13
Y2-S2-083M22,7,811,PS,exp,38,←,left,←,0.5672201002016664,True,26,1,0,13
Y2-S2-083M22,7,812,PS,exp,26,↓,down,↓,0.70379350008443,True,26,1,0,13
Y2-S2-083M22,7,813,PS,exp,45,→,right,→,0.48382600024342537,True,25,1,0,13
Y2-S2-083M22,7,814,PS,exp,49,↑,up,↑,0.8953005997464061,True,25,1,0,13
Y2-S2-083M22,7,815,PS,exp,32,→,right,→,0.5507216998375952,True,25,1,0,13
Y2-S2-083M22,7,816,PS,exp,31,↓,down,↓,0.5339640998281538,True,24,1,0,13
Y2-S2-083M22,7,817,PS,exp,40,←,right,→,0.41741849994286895,False,24,-1,1,14
Y2-S2-083M22,7,818,PS,exp,47,↑,up,↑,0.6346009001135826,True,25,-1,0,14
Y2-S2-083M22,7,819,PS,exp,49,↓,right,→,0.6874335999600589,False,25,-1,0,14
Y2-S2-083M22,7,820,PS,exp,41,↑,up,↑,1.8811501003801823,True,26,-1,0,14
Y2-S2-083M22,7,821,PS,exp,42,←,up,↑,1.6719745001755655,False,26,-1,0,14
Y2-S2-083M22,7,822,PS,exp,30,↑,up,↑,1.631569900084287,True,27,-1,0,14
Y2-S2-083M22,7,823,PS,exp,44,→,right,→,1.1208644998259842,True,27,-1,0,14
Y2-S2-083M22,7,824,PS,exp,32,↓,down,↓,0.5838844999670982,True,27,1,1,15
Y2-S2-083M22,7,825,PS,exp,27,→,right,→,0.46726670023053885,True,26,1,0,15
Y2-S2-083M22,7,826,PS,exp,36,↓,down,↓,0.5171788996085525,True,26,1,0,15
Y2-S2-083M22,7,827,PS,exp,30,←,left,←,0.6924457000568509,True,26,1,0,15
Y2-S2-083M22,7,828,PS,exp,40,↑,down,↓,2.0269930004142225,False,25,-1,1,16
Y2-S2-083M22,8,829,AS,intra_train,29,←,left,←,0.6678535998798907,True,37,-,-,-
Y2-S2-083M22,8,830,AS,intra_train,48,↑,up,↑,0.7507788999937475,True,37,-,-,-
Y2-S2-083M22,8,831,AS,intra_train,41,←,left,←,0.6504379003308713,True,37,-,-,-
Y2-S2-083M22,8,832,AS,intra_train,26,→,right,→,0.5840644999407232,True,37,-,-,-
Y2-S2-083M22,8,833,AS,intra_train,43,←,right,→,0.6175051000900567,False,37,-,-,-
Y2-S2-083M22,8,834,AS,exp,42,→,right,→,0.45037080021575093,True,25,0,0,0
Y2-S2-083M22,8,835,AS,exp,42,←,left,←,0.6293152999132872,True,25,0,0,0
Y2-S2-083M22,8,836,AS,exp,30,↓,right,→,1.083040699828416,False,25,-1,0,0
Y2-S2-083M22,8,837,AS,exp,29,↑,up,↑,0.501254600007087,True,26,-1,0,0
Y2-S2-083M22,8,838,AS,exp,29,→,left,←,0.5338371000252664,False,26,-1,0,0
Y2-S2-083M22,8,839,AS,exp,41,←,right,→,0.5171945998445153,False,27,-1,0,0
Y2-S2-083M22,8,840,AS,exp,45,↓,down,↓,0.7587326997891068,True,28,-1,0,0
Y2-S2-083M22,8,841,AS,exp,43,↑,no_key,no_letter,-1.0,False,28,-1,0,0
Y2-S2-083M22,8,842,AS,exp,49,↓,down,↓,0.5674250996671617,True,29,-1,0,0
Y2-S2-083M22,8,843,AS,exp,28,←,left,←,0.6758669000118971,True,29,-1,0,0
Y2-S2-083M22,8,844,AS,exp,35,↓,left,←,1.4292090004310012,False,29,-1,0,0
Y2-S2-083M22,8,845,AS,exp,29,↑,no_key,no_letter,-1.0,False,30,-1,0,0
Y2-S2-083M22,8,846,AS,exp,50,→,right,→,1.2354355999268591,True,31,-1,0,0
Y2-S2-083M22,8,847,AS,exp,45,↑,up,↑,0.6335833999328315,True,31,-1,0,0
Y2-S2-083M22,8,848,AS,exp,35,←,left,←,0.533504200167954,True,31,1,1,1
Y2-S2-083M22,8,849,AS,exp,34,↑,up,↑,0.617170600220561,True,30,1,0,1
Y2-S2-083M22,8,850,AS,exp,27,←,no_key,no_letter,-1.0,False,30,-1,1,2
Y2-S2-083M22,8,851,AS,exp,32,↓,up,↑,1.174511400051415,False,31,-1,0,2
Y2-S2-083M22,8,852,AS,exp,39,←,no_key,no_letter,-1.0,False,32,-1,0,2
Y2-S2-083M22,8,853,AS,exp,29,↑,up,↑,0.7672786000184715,True,33,-1,0,2
Y2-S2-083M22,8,854,AS,exp,33,←,left,←,0.7463396000675857,True,33,-1,0,2
Y2-S2-083M22,8,855,AS,exp,31,→,right,→,0.5671930001117289,True,33,1,1,3
Y2-S2-083M22,8,856,AS,exp,41,←,left,←,0.852558400016278,True,32,1,0,3
Y2-S2-083M22,8,857,AS,exp,37,→,no_key,no_letter,-1.0,False,32,-1,1,4
Y2-S2-083M22,8,858,AS,exp,29,↑,no_key,no_letter,-1.0,False,33,-1,0,4
Y2-S2-083M22,8,859,AS,exp,46,←,left,←,0.8342567002400756,True,34,-1,0,4
Y2-S2-083M22,8,860,AS,exp,38,↑,up,↑,0.9024094003252685,True,34,-1,0,4
Y2-S2-083M22,8,861,AS,exp,33,↓,down,↓,0.9245241000317037,True,34,1,1,5
Y2-S2-083M22,8,862,AS,exp,40,←,left,←,0.8070236002095044,True,33,1,0,5
Y2-S2-083M22,8,863,AS,exp,33,↓,down,↓,0.8238635002635419,True,33,1,0,5
Y2-S2-083M22,8,864,AS,exp,27,→,right,→,0.7451760000549257,True,33,1,0,5
Y2-S2-083M22,8,865,AS,exp,43,↓,down,↓,0.7863982003182173,True,32,1,0,5
Y2-S2-083M22,8,866,AS,exp,38,↑,down,↓,1.527676499914378,False,32,-1,1,6
Y2-S2-083M22,8,867,AS,exp,36,→,right,→,0.4844443001784384,True,33,-1,0,6
Y2-S2-083M22,8,868,AS,exp,41,↓,right,→,1.5745887998491526,False,33,-1,0,6
Y2-S2-083M22,8,869,AS,exp,39,↑,no_key,no_letter,-1.0,False,34,-1,0,6
Y2-S2-083M22,8,870,AS,exp,35,←,right,→,0.6008711997419596,False,35,-1,0,6
Y2-S2-083M22,8,871,AS,exp,47,→,right,→,0.6505908002145588,True,36,-1,0,6
Y2-S2-083M22,8,872,AS,exp,32,←,left,←,1.5447460003197193,True,36,-1,0,6
Y2-S2-083M22,8,873,AS,exp,45,↓,down,↓,0.7956981002353132,True,36,1,1,7
Y2-S2-083M22,8,874,AS,exp,40,→,right,→,0.6342359003610909,True,35,1,0,7
Y2-S2-083M22,8,875,AS,exp,33,↑,up,↑,1.3060332001186907,True,35,1,0,7
Y2-S2-083M22,8,876,AS,exp,46,↓,down,↓,0.8353054998442531,True,35,1,0,7
Y2-S2-083M22,8,877,AS,exp,47,→,no_key,no_letter,-1.0,False,34,-1,1,8
Y2-S2-083M22,8,878,AS,exp,41,↑,left,←,0.517754000145942,False,35,-1,0,8
Y2-S2-083M22,8,879,AS,exp,25,↓,up,↑,0.4512140997685492,False,36,-1,0,8
Y2-S2-083M22,8,880,AS,exp,28,↑,up,↑,0.6176488003693521,True,37,-1,0,8
Y2-S2-083M22,8,881,AS,exp,38,→,right,→,0.5675788000226021,True,37,-1,0,8
Y2-S2-083M22,8,882,AS,exp,35,↑,up,↑,0.6839982001110911,True,37,1,1,9
Y2-S2-083M22,8,883,AS,exp,43,↓,down,↓,0.7338680000975728,True,36,1,0,9
Y2-S2-083M22,8,884,AS,exp,28,→,right,→,0.7339531998150051,True,36,1,0,9
Y2-S2-083M22,8,885,AS,exp,45,↑,up,↑,1.0280500003136694,True,36,1,0,9
Y2-S2-083M22,8,886,AS,exp,25,←,right,→,2.196857300121337,False,35,-1,1,10
Y2-S2-083M22,8,887,AS,exp,31,→,right,→,0.6339679998345673,True,36,-1,0,10
Y2-S2-083M22,8,888,AS,exp,39,↑,right,→,2.0698279002681375,False,36,-1,0,10
Y2-S2-083M22,8,889,AS,exp,44,→,right,→,0.9962530001066625,True,37,-1,0,10
Y2-S2-083M22,8,890,AS,exp,45,↓,no_key,no_letter,-1.0,False,37,-1,0,10
Y2-S2-083M22,8,891,AS,exp,25,←,left,←,0.889508199878037,True,38,-1,0,10
Y2-S2-083M22,8,892,AS,exp,33,↑,no_key,no_letter,-1.0,False,38,-1,0,10
Y2-S2-083M22,8,893,AS,exp,39,←,right,→,0.827787899877876,False,39,-1,0,10
Y2-S2-083M22,8,894,AS,exp,25,↓,down,↓,0.974760000128299,True,40,-1,0,10
Y2-S2-083M22,8,895,AS,exp,36,←,left,←,0.6676839999854565,True,40,-1,0,10
Y2-S2-083M22,8,896,AS,exp,25,→,right,→,0.6342575997114182,True,40,1,1,11
Y2-S2-083M22,8,897,AS,exp,32,↑,up,↑,0.8657050002366304,True,39,1,0,11
Y2-S2-083M22,8,898,AS,exp,48,↓,down,↓,0.6012763003818691,True,39,1,0,11
Y2-S2-083M22,8,899,AS,exp,25,→,down,↓,0.9746289001777768,False,39,-1,1,12
Y2-S2-083M22,8,900,AS,exp,30,←,right,→,1.3263036999851465,False,40,-1,0,12
Y2-S2-083M22,8,901,AS,exp,39,→,right,→,0.7005363004282117,True,41,-1,0,12
Y2-S2-083M22,8,902,AS,exp,42,←,left,←,0.6511737001128495,True,41,-1,0,12
Y2-S2-083M22,8,903,AS,exp,46,↑,up,↑,1.3311430998146534,True,41,1,1,13
Y2-S2-083M22,8,904,AS,exp,46,→,right,→,0.5512175997719169,True,40,1,0,13
Y2-S2-083M22,8,905,AS,exp,26,↓,down,↓,0.717903200071305,True,40,1,0,13
Y2-S2-083M22,8,906,AS,exp,31,←,left,←,0.6670798002742231,True,40,1,0,13
Y2-S2-083M22,8,907,AS,exp,34,→,right,→,0.5677546998485923,True,39,1,0,13
Y2-S2-083M22,8,908,AS,exp,50,↑,up,↑,0.8379058004356921,True,39,1,0,13
Y2-S2-083M22,8,909,AS,exp,48,→,left,←,2.0740657998248935,False,39,-1,1,14
Y2-S2-083M22,8,910,AS,exp,42,↑,up,↑,0.617637399584055,True,40,-1,0,14
Y2-S2-083M22,8,911,AS,exp,47,↓,no_key,no_letter,-1.0,False,40,-1,0,14
Y2-S2-083M22,8,912,AS,exp,36,↑,right,→,1.7934642997570336,False,41,-1,0,14
Y2-S2-083M22,8,913,AS,exp,28,←,right,→,0.38455000007525086,False,42,-1,0,14
Y2-S2-083M22,8,914,AS,exp,34,↓,down,↓,0.6860731998458505,True,43,-1,0,14
Y2-S2-083M22,8,915,AS,exp,29,→,right,→,0.7172000999562442,True,43,-1,0,14
Y2-S2-083M22,8,916,AS,exp,49,↑,up,↑,0.5012733996845782,True,43,1,1,15
Y2-S2-083M22,8,917,AS,exp,27,←,left,←,0.5013681002892554,True,42,1,0,15
Y2-S2-083M22,8,918,AS,exp,49,→,right,→,0.5842196997255087,True,42,1,0,15
Y2-S2-083M22,8,919,AS,exp,43,↑,up,↑,0.6680272002704442,True,42,1,0,15
Y2-S2-083M22,8,920,AS,exp,28,←,right,→,0.4843422998674214,False,41,-1,1,16
