PART_ID,Block_no,Trial_no,Block_type,Trial_type,CSI,Stim_letter,Key_pressed,letter_choose,Rt,Corr,Stimulus Time,Level,Reversal,Revs_count
Y2-S2-126K25,1,1,PS,train,46,↓,down,↓,1.287591999862343,True,30,-,-,-
Y2-S2-126K25,1,2,PS,train,30,→,right,→,0.6953561999835074,True,30,-,-,-
Y2-S2-126K25,1,3,PS,train,39,↑,up,↑,1.0164528000168502,True,30,-,-,-
Y2-S2-126K25,1,4,PS,train,25,↓,down,↓,1.5193031998351216,True,30,-,-,-
Y2-S2-126K25,1,5,PS,train,34,↑,up,↑,1.3541362998075783,True,30,-,-,-
Y2-S2-126K25,1,6,PS,train,39,↓,down,↓,0.969919899944216,True,30,-,-,-
Y2-S2-126K25,1,7,PS,train,40,↑,up,↑,0.5838681999593973,True,30,-,-,-
Y2-S2-126K25,1,8,PS,train,38,→,right,→,0.8483067001216114,True,30,-,-,-
Y2-S2-126K25,1,9,PS,train,27,←,left,←,0.5338433999568224,True,30,-,-,-
Y2-S2-126K25,1,10,PS,train,41,↑,up,↑,0.767759199719876,True,30,-,-,-
Y2-S2-126K25,2,11,AS,train,50,←,left,←,0.7177374996244907,True,45,-,-,-
Y2-S2-126K25,2,12,AS,train,26,↓,down,↓,0.8172412002459168,True,45,-,-,-
Y2-S2-126K25,2,13,AS,train,29,↑,up,↑,0.8342376002110541,True,45,-,-,-
Y2-S2-126K25,2,14,AS,train,32,←,left,←,0.7178575000725687,True,45,-,-,-
Y2-S2-126K25,2,15,AS,train,30,↑,up,↑,0.850662499666214,True,45,-,-,-
Y2-S2-126K25,2,16,AS,train,37,→,right,→,0.7179825999774039,True,45,-,-,-
Y2-S2-126K25,2,17,AS,train,50,↑,up,↑,0.6177195999771357,True,45,-,-,-
Y2-S2-126K25,2,18,AS,train,25,←,left,←,0.6676540998741984,True,45,-,-,-
Y2-S2-126K25,2,19,AS,train,27,→,right,→,0.8506799996830523,True,45,-,-,-
Y2-S2-126K25,2,20,AS,train,25,↓,down,↓,0.8838853999041021,True,45,-,-,-
Y2-S2-126K25,-,21,PS,adaptive,33,→,left,←,0.7060598996467888,False,10,-1,0,0
Y2-S2-126K25,-,22,PS,adaptive,26,↓,up,↑,0.7683414998464286,False,11,-1,0,0
Y2-S2-126K25,-,23,PS,adaptive,43,←,right,→,0.8720426000654697,False,12,-1,0,0
Y2-S2-126K25,-,24,PS,adaptive,32,→,right,→,0.5561906998045743,True,13,-1,0,0
Y2-S2-126K25,-,25,PS,adaptive,41,←,left,←,0.6671372000128031,True,13,-1,0,0
Y2-S2-126K25,-,26,PS,adaptive,44,→,right,→,0.6961427996866405,True,13,1,1,1
Y2-S2-126K25,-,27,PS,adaptive,28,↑,left,←,0.7434189999476075,False,12,-1,1,2
Y2-S2-126K25,-,28,PS,adaptive,41,→,right,→,0.5807503000833094,True,13,-1,0,2
Y2-S2-126K25,-,29,PS,adaptive,30,↑,up,↑,0.7141730999574065,True,13,-1,0,2
Y2-S2-126K25,-,30,PS,adaptive,30,→,down,↓,0.982030600309372,False,13,-1,0,2
Y2-S2-126K25,-,31,PS,adaptive,41,↓,down,↓,0.7381317000836134,True,14,-1,0,2
Y2-S2-126K25,-,32,PS,adaptive,27,↑,up,↑,0.6310558002442122,True,14,-1,0,2
Y2-S2-126K25,-,33,PS,adaptive,25,↓,left,←,1.2399720000103116,False,14,-1,0,2
Y2-S2-126K25,-,34,PS,adaptive,26,→,right,→,0.7883633999153972,True,15,-1,0,2
Y2-S2-126K25,-,35,PS,adaptive,32,↑,up,↑,0.6648610001429915,True,15,-1,0,2
Y2-S2-126K25,-,36,PS,adaptive,46,←,no_key,no_letter,-1.0,False,15,-1,0,2
Y2-S2-126K25,-,37,PS,adaptive,33,→,right,→,0.7355995001271367,True,16,-1,0,2
Y2-S2-126K25,-,38,PS,adaptive,37,←,right,→,0.8057368998415768,False,16,-1,0,2
Y2-S2-126K25,-,39,PS,adaptive,50,↑,down,↓,1.0080024003982544,False,17,-1,0,2
Y2-S2-126K25,-,40,PS,adaptive,35,↓,down,↓,0.936266700271517,True,18,-1,0,2
Y2-S2-126K25,-,41,PS,adaptive,48,↑,up,↑,1.0549078998155892,True,18,-1,0,2
Y2-S2-126K25,-,42,PS,adaptive,31,←,right,→,0.7591897998936474,False,18,-1,0,2
Y2-S2-126K25,-,43,PS,adaptive,26,↓,down,↓,0.6857679998502135,True,19,-1,0,2
Y2-S2-126K25,-,44,PS,adaptive,42,→,right,→,0.5749548003077507,True,19,-1,0,2
Y2-S2-126K25,-,45,PS,adaptive,32,↓,down,↓,0.5764679000712931,True,19,1,1,3
Y2-S2-126K25,-,46,PS,adaptive,37,↑,up,↑,0.9720752998255193,True,18,1,0,3
Y2-S2-126K25,-,47,PS,adaptive,39,→,right,→,0.6843511001206934,True,18,1,0,3
Y2-S2-126K25,-,48,PS,adaptive,39,↑,up,↑,0.5333937001414597,True,18,1,0,3
Y2-S2-126K25,-,49,PS,adaptive,34,↓,down,↓,0.6676264000125229,True,17,1,0,3
Y2-S2-126K25,-,50,PS,adaptive,42,→,right,→,0.5281282002106309,True,17,1,0,3
Y2-S2-126K25,-,51,PS,adaptive,40,←,left,←,0.8163678999990225,True,17,1,0,3
Y2-S2-126K25,-,52,PS,adaptive,31,↑,down,↓,0.6707721999846399,False,16,-1,1,4
Y2-S2-126K25,-,53,AS,adaptive,41,←,left,←,0.7284774002619088,True,20,0,0,0
Y2-S2-126K25,-,54,AS,adaptive,49,→,right,→,0.8646386000327766,True,20,0,0,0
Y2-S2-126K25,-,55,AS,adaptive,32,←,left,←,0.6941611999645829,True,20,1,0,0
Y2-S2-126K25,-,56,AS,adaptive,30,↑,up,↑,0.5981645998544991,True,19,1,0,0
Y2-S2-126K25,-,57,AS,adaptive,37,→,right,→,0.577169300056994,True,19,1,0,0
Y2-S2-126K25,-,58,AS,adaptive,40,↑,up,↑,0.7407646998763084,True,19,1,0,0
Y2-S2-126K25,-,59,AS,adaptive,45,←,left,←,0.7847211002372205,True,18,1,0,0
Y2-S2-126K25,-,60,AS,adaptive,44,↓,down,↓,1.4116113996133208,True,18,1,0,0
Y2-S2-126K25,-,61,AS,adaptive,50,↑,up,↑,1.0720871998928487,True,18,1,0,0
Y2-S2-126K25,-,62,AS,adaptive,39,↓,down,↓,0.6600208999589086,True,17,1,0,0
Y2-S2-126K25,-,63,AS,adaptive,30,→,right,→,0.4836301999166608,True,17,1,0,0
Y2-S2-126K25,-,64,AS,adaptive,49,↓,down,↓,0.728643300011754,True,17,1,0,0
Y2-S2-126K25,-,65,AS,adaptive,43,←,left,←,0.6638217000290751,True,16,1,0,0
Y2-S2-126K25,-,66,AS,adaptive,44,↓,down,↓,0.7469883002340794,True,16,1,0,0
Y2-S2-126K25,-,67,AS,adaptive,41,↑,up,↑,0.6693123998120427,True,16,1,0,0
Y2-S2-126K25,-,68,AS,adaptive,35,→,right,→,0.6008906001225114,True,15,1,0,0
Y2-S2-126K25,-,69,AS,adaptive,26,←,down,↓,0.7308225999586284,False,15,-1,1,1
Y2-S2-126K25,-,70,AS,adaptive,26,→,right,→,0.5797432996332645,True,16,-1,0,1
Y2-S2-126K25,-,71,AS,adaptive,33,↑,left,←,0.8299396000802517,False,16,-1,0,1
Y2-S2-126K25,-,72,AS,adaptive,45,↓,down,↓,0.6109054000116885,True,17,-1,0,1
Y2-S2-126K25,-,73,AS,adaptive,47,←,left,←,0.9430978000164032,True,17,-1,0,1
Y2-S2-126K25,-,74,AS,adaptive,43,→,right,→,0.47091509960591793,True,17,1,1,2
Y2-S2-126K25,-,75,AS,adaptive,47,←,left,←,0.5637255003675818,True,16,1,0,2
Y2-S2-126K25,-,76,AS,adaptive,42,→,right,→,0.6297984998673201,True,16,1,0,2
Y2-S2-126K25,-,77,AS,adaptive,38,←,right,→,0.8559692003764212,False,16,-1,1,3
Y2-S2-126K25,-,78,AS,adaptive,29,↓,down,↓,0.6711177998222411,True,17,-1,0,3
Y2-S2-126K25,-,79,AS,adaptive,41,→,right,→,0.6177082997746766,True,17,-1,0,3
Y2-S2-126K25,-,80,AS,adaptive,31,↑,up,↑,0.7240240001119673,True,17,1,1,4
Y2-S2-126K25,1,81,AS,intra_train,42,→,no_key,no_letter,-1.0,False,24,-,-,-
Y2-S2-126K25,1,82,AS,intra_train,30,↑,up,↑,0.6603196002542973,True,24,-,-,-
Y2-S2-126K25,1,83,AS,intra_train,34,←,left,←,0.6419382002204657,True,24,-,-,-
Y2-S2-126K25,1,84,AS,intra_train,50,↑,up,↑,0.7011065003462136,True,24,-,-,-
Y2-S2-126K25,1,85,AS,intra_train,49,↓,down,↓,0.716328099835664,True,24,-,-,-
Y2-S2-126K25,1,86,AS,exp,26,←,right,→,0.7329235002398491,False,16,-1,0,0
Y2-S2-126K25,1,87,AS,exp,30,↑,down,↓,0.6765053998678923,False,17,-1,0,0
Y2-S2-126K25,1,88,AS,exp,33,←,right,→,0.36731680016964674,False,18,-1,0,0
Y2-S2-126K25,1,89,AS,exp,47,↑,up,↑,0.450802399776876,True,19,-1,0,0
Y2-S2-126K25,1,90,AS,exp,31,↓,down,↓,0.5251242998056114,True,19,-1,0,0
Y2-S2-126K25,1,91,AS,exp,28,→,right,→,0.6702510002069175,True,19,1,1,1
Y2-S2-126K25,1,92,AS,exp,42,↑,up,↑,0.6337748998776078,True,18,1,0,1
Y2-S2-126K25,1,93,AS,exp,50,←,left,←,0.5848749997094274,True,18,1,0,1
Y2-S2-126K25,1,94,AS,exp,47,→,right,→,0.5783656002022326,True,18,1,0,1
Y2-S2-126K25,1,95,AS,exp,35,↑,up,↑,0.7119489000178874,True,17,1,0,1
Y2-S2-126K25,1,96,AS,exp,50,→,right,→,0.6335038002580404,True,17,1,0,1
Y2-S2-126K25,1,97,AS,exp,43,↑,up,↑,0.6764083001762629,True,17,1,0,1
Y2-S2-126K25,1,98,AS,exp,25,↓,down,↓,0.7159847002476454,True,16,1,0,1
Y2-S2-126K25,1,99,AS,exp,42,→,right,→,0.6887351996265352,True,16,1,0,1
Y2-S2-126K25,1,100,AS,exp,33,↓,down,↓,0.6663349000737071,True,16,1,0,1
Y2-S2-126K25,1,101,AS,exp,43,←,down,↓,0.8052959996275604,False,15,-1,1,2
Y2-S2-126K25,1,102,AS,exp,36,→,right,→,0.5971527001820505,True,16,-1,0,2
Y2-S2-126K25,1,103,AS,exp,44,←,left,←,0.6951297000050545,True,16,-1,0,2
Y2-S2-126K25,1,104,AS,exp,50,→,down,↓,0.9406918003223836,False,16,-1,0,2
Y2-S2-126K25,1,105,AS,exp,35,↓,down,↓,0.6871100999414921,True,17,-1,0,2
Y2-S2-126K25,1,106,AS,exp,29,→,right,→,0.7917648004367948,True,17,-1,0,2
Y2-S2-126K25,1,107,AS,exp,26,↓,down,↓,0.7149765002541244,True,17,1,1,3
Y2-S2-126K25,1,108,AS,exp,34,→,right,→,0.717879300005734,True,16,1,0,3
Y2-S2-126K25,1,109,AS,exp,46,←,left,←,0.7445416999980807,True,16,1,0,3
Y2-S2-126K25,1,110,AS,exp,25,↑,up,↑,0.828086200170219,True,16,1,0,3
Y2-S2-126K25,1,111,AS,exp,40,→,right,→,0.5382078997790813,True,15,1,0,3
Y2-S2-126K25,1,112,AS,exp,40,↑,up,↑,0.6795151000842452,True,15,1,0,3
Y2-S2-126K25,1,113,AS,exp,31,→,right,→,0.5035256999544799,True,15,1,0,3
Y2-S2-126K25,1,114,AS,exp,38,↓,down,↓,0.6711917999200523,True,14,1,0,3
Y2-S2-126K25,1,115,AS,exp,32,↑,down,↓,1.0155062996782362,False,14,-1,1,4
Y2-S2-126K25,1,116,AS,exp,29,→,right,→,0.6004262999631464,True,15,-1,0,4
Y2-S2-126K25,1,117,AS,exp,38,↓,down,↓,0.5483669997192919,True,15,-1,0,4
Y2-S2-126K25,1,118,AS,exp,45,→,right,→,0.4685702999122441,True,15,1,1,5
Y2-S2-126K25,1,119,AS,exp,41,←,left,←,0.6404778999276459,True,14,1,0,5
Y2-S2-126K25,1,120,AS,exp,40,→,left,←,0.5916777998209,False,14,-1,1,6
Y2-S2-126K25,1,121,AS,exp,34,←,right,→,0.7659350000321865,False,15,-1,0,6
Y2-S2-126K25,1,122,AS,exp,45,↑,up,↑,0.7331654001027346,True,16,-1,0,6
Y2-S2-126K25,1,123,AS,exp,32,←,right,→,0.5711157000623643,False,16,-1,0,6
Y2-S2-126K25,1,124,AS,exp,42,→,left,←,0.41719310032203794,False,17,-1,0,6
Y2-S2-126K25,1,125,AS,exp,40,↑,up,↑,0.5394061002880335,True,18,-1,0,6
Y2-S2-126K25,1,126,AS,exp,45,←,left,←,0.8276170999743044,True,18,-1,0,6
Y2-S2-126K25,1,127,AS,exp,28,→,right,→,0.7946246000938118,True,18,1,1,7
Y2-S2-126K25,1,128,AS,exp,36,←,left,←,0.6981687997467816,True,17,1,0,7
Y2-S2-126K25,1,129,AS,exp,50,→,right,→,0.5742099001072347,True,17,1,0,7
Y2-S2-126K25,1,130,AS,exp,50,←,left,←,0.5071740997955203,True,17,1,0,7
Y2-S2-126K25,1,131,AS,exp,45,↓,down,↓,0.6771587999537587,True,16,1,0,7
Y2-S2-126K25,1,132,AS,exp,31,←,left,←,0.6696496000513434,True,16,1,0,7
Y2-S2-126K25,1,133,AS,exp,45,↓,down,↓,0.5847672000527382,True,16,1,0,7
Y2-S2-126K25,1,134,AS,exp,40,↑,down,↓,0.7063838001340628,False,15,-1,1,8
Y2-S2-126K25,1,135,AS,exp,37,←,right,→,0.8197928001172841,False,16,-1,0,8
Y2-S2-126K25,1,136,AS,exp,38,↓,down,↓,0.7234416999854147,True,17,-1,0,8
Y2-S2-126K25,1,137,AS,exp,27,→,right,→,0.7200156003236771,True,17,-1,0,8
Y2-S2-126K25,1,138,AS,exp,32,←,left,←,0.6642096997238696,True,17,1,1,9
Y2-S2-126K25,1,139,AS,exp,39,↑,up,↑,0.7673114002682269,True,16,1,0,9
Y2-S2-126K25,1,140,AS,exp,43,↓,right,→,1.0135125000961125,False,16,-1,1,10
Y2-S2-126K25,1,141,AS,exp,40,↑,right,→,0.5278968997299671,False,17,-1,0,10
Y2-S2-126K25,1,142,AS,exp,50,↓,down,↓,0.5862813000567257,True,18,-1,0,10
Y2-S2-126K25,1,143,AS,exp,43,↑,up,↑,0.6907147997990251,True,18,-1,0,10
Y2-S2-126K25,1,144,AS,exp,40,←,left,←,0.5703332000412047,True,18,1,1,11
Y2-S2-126K25,1,145,AS,exp,30,↓,down,↓,0.5901564001105726,True,17,1,0,11
Y2-S2-126K25,1,146,AS,exp,31,←,left,←,0.5661931000649929,True,17,1,0,11
Y2-S2-126K25,1,147,AS,exp,32,↑,up,↑,0.5266714002937078,True,17,1,0,11
Y2-S2-126K25,1,148,AS,exp,46,→,right,→,0.672811500262469,True,16,1,0,11
Y2-S2-126K25,1,149,AS,exp,33,←,left,←,1.0247050998732448,True,16,1,0,11
Y2-S2-126K25,1,150,AS,exp,27,↑,up,↑,0.4656699998304248,True,16,1,0,11
Y2-S2-126K25,1,151,AS,exp,41,↓,up,↑,0.8791732997633517,False,15,-1,1,12
Y2-S2-126K25,1,152,AS,exp,38,←,left,←,0.7271122001111507,True,16,-1,0,12
Y2-S2-126K25,1,153,AS,exp,33,→,right,→,0.5576633000746369,True,16,-1,0,12
Y2-S2-126K25,1,154,AS,exp,36,↓,down,↓,0.5338836000300944,True,16,1,1,13
Y2-S2-126K25,1,155,AS,exp,31,→,right,→,0.5267562996596098,True,15,1,0,13
Y2-S2-126K25,1,156,AS,exp,38,←,left,←,0.6851718998514116,True,15,1,0,13
Y2-S2-126K25,1,157,AS,exp,41,→,right,→,0.5834503001533449,True,15,1,0,13
Y2-S2-126K25,1,158,AS,exp,27,↑,down,↓,0.7630019001662731,False,14,-1,1,14
Y2-S2-126K25,1,159,AS,exp,37,→,right,→,0.5311292000114918,True,15,-1,0,14
Y2-S2-126K25,1,160,AS,exp,32,←,right,→,0.8425606996752322,False,15,-1,0,14
Y2-S2-126K25,1,161,AS,exp,37,↑,up,↑,0.6288620997220278,True,16,-1,0,14
Y2-S2-126K25,1,162,AS,exp,32,←,right,→,0.7195324003696442,False,16,-1,0,14
Y2-S2-126K25,1,163,AS,exp,31,→,right,→,0.6323237000033259,True,17,-1,0,14
Y2-S2-126K25,1,164,AS,exp,46,←,right,→,0.7900232002139091,False,17,-1,0,14
Y2-S2-126K25,1,165,AS,exp,28,↑,up,↑,0.7245125998742878,True,18,-1,0,14
Y2-S2-126K25,1,166,AS,exp,43,→,right,→,0.5957720000296831,True,18,-1,0,14
Y2-S2-126K25,1,167,AS,exp,48,←,left,←,1.1635366003029048,True,18,1,1,15
Y2-S2-126K25,1,168,AS,exp,49,→,right,→,0.7613818999379873,True,17,1,0,15
Y2-S2-126K25,1,169,AS,exp,45,↓,down,↓,0.7516662999987602,True,17,1,0,15
Y2-S2-126K25,1,170,AS,exp,35,→,right,→,0.5857516000978649,True,17,1,0,15
Y2-S2-126K25,1,171,AS,exp,31,←,left,←,0.8168707001022995,True,16,1,0,15
Y2-S2-126K25,1,172,AS,exp,46,→,right,→,0.610601699911058,True,16,1,0,15
Y2-S2-126K25,1,173,AS,exp,44,←,left,←,0.7450668001547456,True,16,1,0,15
Y2-S2-126K25,1,174,AS,exp,35,↓,no_key,no_letter,-1.0,False,15,-1,1,16
Y2-S2-126K25,2,175,PS,intra_train,26,→,right,→,0.644958300050348,True,25,-,-,-
Y2-S2-126K25,2,176,PS,intra_train,31,↑,right,→,1.453604900278151,False,25,-,-,-
Y2-S2-126K25,2,177,PS,intra_train,37,←,left,←,0.7053785002790391,True,25,-,-,-
Y2-S2-126K25,2,178,PS,intra_train,31,↑,up,↑,0.823603100143373,True,25,-,-,-
Y2-S2-126K25,2,179,PS,intra_train,31,←,no_key,no_letter,-1.0,False,25,-,-,-
Y2-S2-126K25,2,180,PS,exp,47,↑,up,↑,0.6252496000379324,True,17,0,0,0
Y2-S2-126K25,2,181,PS,exp,43,→,right,→,0.7584172999486327,True,17,0,0,0
Y2-S2-126K25,2,182,PS,exp,50,←,left,←,0.5031347000040114,True,17,1,0,0
Y2-S2-126K25,2,183,PS,exp,47,↑,right,→,0.7947196997702122,False,16,-1,1,1
Y2-S2-126K25,2,184,PS,exp,27,←,left,←,0.4008456999436021,True,17,-1,0,1
Y2-S2-126K25,2,185,PS,exp,33,↓,right,→,0.9793595997616649,False,17,-1,0,1
Y2-S2-126K25,2,186,PS,exp,37,→,no_key,no_letter,-1.0,False,18,-1,0,1
Y2-S2-126K25,2,187,PS,exp,38,↓,down,↓,0.7850210997276008,True,19,-1,0,1
Y2-S2-126K25,2,188,PS,exp,43,→,right,→,0.6650419998914003,True,19,-1,0,1
Y2-S2-126K25,2,189,PS,exp,43,↑,no_key,no_letter,-1.0,False,19,-1,0,1
Y2-S2-126K25,2,190,PS,exp,32,←,right,→,0.6257108999416232,False,20,-1,0,1
Y2-S2-126K25,2,191,PS,exp,35,↓,down,↓,0.5893566999584436,True,21,-1,0,1
Y2-S2-126K25,2,192,PS,exp,49,↑,up,↑,0.5523751997388899,True,21,-1,0,1
Y2-S2-126K25,2,193,PS,exp,41,→,right,→,0.5604630997404456,True,21,1,1,2
Y2-S2-126K25,2,194,PS,exp,25,↓,up,↑,0.6058614002540708,False,20,-1,1,3
Y2-S2-126K25,2,195,PS,exp,38,↑,right,→,0.8629489997401834,False,21,-1,0,3
Y2-S2-126K25,2,196,PS,exp,27,↓,down,↓,0.7388310004025698,True,22,-1,0,3
Y2-S2-126K25,2,197,PS,exp,31,↑,no_key,no_letter,-1.0,False,22,-1,0,3
Y2-S2-126K25,2,198,PS,exp,42,←,left,←,0.7493952000513673,True,23,-1,0,3
Y2-S2-126K25,2,199,PS,exp,31,↓,up,↑,1.145276399794966,False,23,-1,0,3
Y2-S2-126K25,2,200,PS,exp,41,→,left,←,0.6902317996136844,False,24,-1,0,3
Y2-S2-126K25,2,201,PS,exp,30,↓,down,↓,0.6066078003495932,True,25,-1,0,3
Y2-S2-126K25,2,202,PS,exp,35,←,left,←,0.6223451998084784,True,25,-1,0,3
Y2-S2-126K25,2,203,PS,exp,44,↑,up,↑,0.9236890003085136,True,25,1,1,4
Y2-S2-126K25,2,204,PS,exp,40,↓,no_key,no_letter,-1.0,False,24,-1,1,5
Y2-S2-126K25,2,205,PS,exp,30,→,right,→,0.9773921999149024,True,25,-1,0,5
Y2-S2-126K25,2,206,PS,exp,31,↑,up,↑,0.7261357000097632,True,25,-1,0,5
Y2-S2-126K25,2,207,PS,exp,31,←,left,←,0.8603202002122998,True,25,1,1,6
Y2-S2-126K25,2,208,PS,exp,42,→,right,→,0.5170709998346865,True,24,1,0,6
Y2-S2-126K25,2,209,PS,exp,39,↓,right,→,0.9404693003743887,False,24,-1,1,7
Y2-S2-126K25,2,210,PS,exp,45,←,left,←,0.7699506003409624,True,25,-1,0,7
Y2-S2-126K25,2,211,PS,exp,29,↓,down,↓,0.6996321999467909,True,25,-1,0,7
Y2-S2-126K25,2,212,PS,exp,30,→,left,←,0.7895372002385557,False,25,-1,0,7
Y2-S2-126K25,2,213,PS,exp,30,↓,down,↓,0.7856749999336898,True,26,-1,0,7
Y2-S2-126K25,2,214,PS,exp,35,→,right,→,0.6298814998008311,True,26,-1,0,7
Y2-S2-126K25,2,215,PS,exp,28,↑,up,↑,0.7812107997015119,True,26,1,1,8
Y2-S2-126K25,2,216,PS,exp,32,→,right,→,0.7775117997080088,True,25,1,0,8
Y2-S2-126K25,2,217,PS,exp,41,↓,down,↓,0.5170533997006714,True,25,1,0,8
Y2-S2-126K25,2,218,PS,exp,35,←,left,←,0.6978214997798204,True,25,1,0,8
Y2-S2-126K25,2,219,PS,exp,50,↑,up,↑,0.8929127003066242,True,24,1,0,8
Y2-S2-126K25,2,220,PS,exp,42,←,right,→,1.6944420002400875,False,24,-1,1,9
Y2-S2-126K25,2,221,PS,exp,27,→,right,→,0.5170416999608278,True,25,-1,0,9
Y2-S2-126K25,2,222,PS,exp,27,↓,no_key,no_letter,-1.0,False,25,-1,0,9
Y2-S2-126K25,2,223,PS,exp,36,→,right,→,0.6124223996885121,True,26,-1,0,9
Y2-S2-126K25,2,224,PS,exp,34,←,left,←,0.7672057002782822,True,26,-1,0,9
Y2-S2-126K25,2,225,PS,exp,50,→,no_key,no_letter,-1.0,False,26,-1,0,9
Y2-S2-126K25,2,226,PS,exp,48,↑,up,↑,0.7759941001422703,True,27,-1,0,9
Y2-S2-126K25,2,227,PS,exp,50,→,right,→,0.567208600230515,True,27,-1,0,9
Y2-S2-126K25,2,228,PS,exp,40,←,left,←,0.6457491000182927,True,27,1,1,10
Y2-S2-126K25,2,229,PS,exp,49,↓,down,↓,0.8869570000097156,True,26,1,0,10
Y2-S2-126K25,2,230,PS,exp,26,←,right,→,0.638276900164783,False,26,-1,1,11
Y2-S2-126K25,2,231,PS,exp,45,↓,down,↓,0.6309508001431823,True,27,-1,0,11
Y2-S2-126K25,2,232,PS,exp,31,→,right,→,0.6771933999843895,True,27,-1,0,11
Y2-S2-126K25,2,233,PS,exp,45,↓,down,↓,1.132512700278312,True,27,1,1,12
Y2-S2-126K25,2,234,PS,exp,48,←,left,←,0.7148766000755131,True,26,1,0,12
Y2-S2-126K25,2,235,PS,exp,41,↑,up,↑,0.7105267997831106,True,26,1,0,12
Y2-S2-126K25,2,236,PS,exp,38,→,right,→,0.9719972000457346,True,26,1,0,12
Y2-S2-126K25,2,237,PS,exp,39,↑,up,↑,0.6505740997381508,True,25,1,0,12
Y2-S2-126K25,2,238,PS,exp,27,←,left,←,0.8144999002106488,True,25,1,0,12
Y2-S2-126K25,2,239,PS,exp,48,→,right,→,0.5507795996963978,True,25,1,0,12
Y2-S2-126K25,2,240,PS,exp,48,↓,down,↓,0.6753015001304448,True,24,1,0,12
Y2-S2-126K25,2,241,PS,exp,43,↑,left,←,0.4836281002499163,False,24,-1,1,13
Y2-S2-126K25,2,242,PS,exp,33,←,left,←,0.5501279002055526,True,25,-1,0,13
Y2-S2-126K25,2,243,PS,exp,50,→,right,→,0.655031899921596,True,25,-1,0,13
Y2-S2-126K25,2,244,PS,exp,35,↓,up,↑,0.875927499961108,False,25,-1,0,13
Y2-S2-126K25,2,245,PS,exp,33,→,right,→,0.5673262001946568,True,26,-1,0,13
Y2-S2-126K25,2,246,PS,exp,28,↑,up,↑,0.6545989001169801,True,26,-1,0,13
Y2-S2-126K25,2,247,PS,exp,30,←,left,←,0.5337636000476778,True,26,1,1,14
Y2-S2-126K25,2,248,PS,exp,50,↓,down,↓,0.7448526998050511,True,25,1,0,14
Y2-S2-126K25,2,249,PS,exp,44,→,right,→,0.6329617998562753,True,25,1,0,14
Y2-S2-126K25,2,250,PS,exp,26,↑,up,↑,0.6652476997114718,True,25,1,0,14
Y2-S2-126K25,2,251,PS,exp,29,←,up,↑,1.8510969998314977,False,24,-1,1,15
Y2-S2-126K25,2,252,PS,exp,42,↑,up,↑,0.8460801001638174,True,25,-1,0,15
Y2-S2-126K25,2,253,PS,exp,40,→,right,→,0.8185769999399781,True,25,-1,0,15
Y2-S2-126K25,2,254,PS,exp,33,↓,down,↓,0.6281045000068843,True,25,1,1,16
Y2-S2-126K25,3,255,PS,intra_train,25,←,right,→,0.5892392001114786,False,25,-,-,-
Y2-S2-126K25,3,256,PS,intra_train,28,↑,up,↑,0.9695481001399457,True,25,-,-,-
Y2-S2-126K25,3,257,PS,intra_train,34,→,right,→,0.6054219999350607,True,25,-,-,-
Y2-S2-126K25,3,258,PS,intra_train,38,↑,up,↑,0.5985888000577688,True,25,-,-,-
Y2-S2-126K25,3,259,PS,intra_train,44,↓,down,↓,0.6643543001264334,True,25,-,-,-
Y2-S2-126K25,3,260,PS,exp,42,←,left,←,0.5712063000537455,True,17,0,0,0
Y2-S2-126K25,3,261,PS,exp,36,↓,down,↓,1.1042769001796842,True,17,0,0,0
Y2-S2-126K25,3,262,PS,exp,32,←,right,→,0.7849987996742129,False,17,-1,0,0
Y2-S2-126K25,3,263,PS,exp,29,→,left,←,1.1251789000816643,False,18,-1,0,0
Y2-S2-126K25,3,264,PS,exp,36,↑,right,→,1.0899066999554634,False,19,-1,0,0
Y2-S2-126K25,3,265,PS,exp,33,→,left,←,0.5280495998449624,False,20,-1,0,0
Y2-S2-126K25,3,266,PS,exp,34,←,right,→,0.6252534002996981,False,21,-1,0,0
Y2-S2-126K25,3,267,PS,exp,48,→,right,→,0.6302443998865783,True,22,-1,0,0
Y2-S2-126K25,3,268,PS,exp,44,↑,up,↑,0.7749557001516223,True,22,-1,0,0
Y2-S2-126K25,3,269,PS,exp,39,↓,down,↓,0.8550181998871267,True,22,1,1,1
Y2-S2-126K25,3,270,PS,exp,30,←,right,→,0.766578100156039,False,21,-1,1,2
Y2-S2-126K25,3,271,PS,exp,29,↑,down,↓,1.0346853998489678,False,22,-1,0,2
Y2-S2-126K25,3,272,PS,exp,37,↓,down,↓,0.9297390002757311,True,23,-1,0,2
Y2-S2-126K25,3,273,PS,exp,50,↑,up,↑,0.5871764998883009,True,23,-1,0,2
Y2-S2-126K25,3,274,PS,exp,50,→,right,→,0.6110866996459663,True,23,1,1,3
Y2-S2-126K25,3,275,PS,exp,40,↑,left,←,0.8688101000152528,False,22,-1,1,4
Y2-S2-126K25,3,276,PS,exp,34,↓,down,↓,1.1909500998444855,True,23,-1,0,4
Y2-S2-126K25,3,277,PS,exp,43,←,left,←,1.4138855002820492,True,23,-1,0,4
Y2-S2-126K25,3,278,PS,exp,27,→,down,↓,1.0967765003442764,False,23,-1,0,4
Y2-S2-126K25,3,279,PS,exp,32,←,left,←,0.8913006000220776,True,24,-1,0,4
Y2-S2-126K25,3,280,PS,exp,41,↑,down,↓,0.9829299002885818,False,24,-1,0,4
Y2-S2-126K25,3,281,PS,exp,33,↓,no_key,no_letter,-1.0,False,25,-1,0,4
Y2-S2-126K25,3,282,PS,exp,40,↑,up,↑,0.7279236000031233,True,26,-1,0,4
Y2-S2-126K25,3,283,PS,exp,41,↓,down,↓,0.8179632001556456,True,26,-1,0,4
Y2-S2-126K25,3,284,PS,exp,26,←,left,←,0.6795282000675797,True,26,1,1,5
Y2-S2-126K25,3,285,PS,exp,31,↓,down,↓,0.7812043000012636,True,25,1,0,5
Y2-S2-126K25,3,286,PS,exp,30,←,left,←,0.6158354002982378,True,25,1,0,5
Y2-S2-126K25,3,287,PS,exp,28,↓,down,↓,0.6530960001982749,True,25,1,0,5
Y2-S2-126K25,3,288,PS,exp,49,↑,up,↑,0.7418844001367688,True,24,1,0,5
Y2-S2-126K25,3,289,PS,exp,43,→,left,←,2.0251539000310004,False,24,-1,1,6
Y2-S2-126K25,3,290,PS,exp,47,←,left,←,0.586206799838692,True,25,-1,0,6
Y2-S2-126K25,3,291,PS,exp,44,→,right,→,0.7849765000864863,True,25,-1,0,6
Y2-S2-126K25,3,292,PS,exp,30,↑,up,↑,0.7871598000638187,True,25,1,1,7
Y2-S2-126K25,3,293,PS,exp,25,←,left,←,0.616954100318253,True,24,1,0,7
Y2-S2-126K25,3,294,PS,exp,45,↑,left,←,1.2474909001030028,False,24,-1,1,8
Y2-S2-126K25,3,295,PS,exp,29,→,left,←,1.1339266002178192,False,25,-1,0,8
Y2-S2-126K25,3,296,PS,exp,36,↑,up,↑,0.5009198002517223,True,26,-1,0,8
Y2-S2-126K25,3,297,PS,exp,36,→,right,→,0.5674332999624312,True,26,-1,0,8
Y2-S2-126K25,3,298,PS,exp,42,↓,left,←,0.7043479001149535,False,26,-1,0,8
Y2-S2-126K25,3,299,PS,exp,45,↑,left,←,2.0555503997020423,False,27,-1,0,8
Y2-S2-126K25,3,300,PS,exp,27,↓,no_key,no_letter,-1.0,False,28,-1,0,8
Y2-S2-126K25,3,301,PS,exp,32,↑,up,↑,0.8852014997974038,True,29,-1,0,8
Y2-S2-126K25,3,302,PS,exp,34,↓,down,↓,0.5505769001320004,True,29,-1,0,8
Y2-S2-126K25,3,303,PS,exp,49,←,left,←,0.5836113002151251,True,29,1,1,9
Y2-S2-126K25,3,304,PS,exp,33,→,right,→,1.0853125997819006,True,28,1,0,9
Y2-S2-126K25,3,305,PS,exp,50,←,left,←,0.7473898995667696,True,28,1,0,9
Y2-S2-126K25,3,306,PS,exp,30,→,right,→,0.8070188998244703,True,28,1,0,9
Y2-S2-126K25,3,307,PS,exp,38,↓,up,↑,0.9016573997214437,False,27,-1,1,10
Y2-S2-126K25,3,308,PS,exp,36,→,right,→,0.5007952000014484,True,28,-1,0,10
Y2-S2-126K25,3,309,PS,exp,42,↑,down,↓,1.1387767000123858,False,28,-1,0,10
Y2-S2-126K25,3,310,PS,exp,46,←,left,←,1.8349319999106228,True,29,-1,0,10
Y2-S2-126K25,3,311,PS,exp,49,→,right,→,1.1697362000122666,True,29,-1,0,10
Y2-S2-126K25,3,312,PS,exp,40,↑,up,↑,1.1391942999325693,True,29,1,1,11
Y2-S2-126K25,3,313,PS,exp,40,↓,down,↓,0.6745957001112401,True,28,1,0,11
Y2-S2-126K25,3,314,PS,exp,28,←,left,←,0.6009390000253916,True,28,1,0,11
Y2-S2-126K25,3,315,PS,exp,30,↓,no_key,no_letter,-1.0,False,28,-1,1,12
Y2-S2-126K25,3,316,PS,exp,43,↑,up,↑,0.971756299957633,True,29,-1,0,12
Y2-S2-126K25,3,317,PS,exp,32,↓,down,↓,0.8049280000850558,True,29,-1,0,12
Y2-S2-126K25,3,318,PS,exp,43,↑,up,↑,1.0981731000356376,True,29,1,1,13
Y2-S2-126K25,3,319,PS,exp,28,↓,no_key,no_letter,-1.0,False,28,-1,1,14
Y2-S2-126K25,3,320,PS,exp,30,↑,no_key,no_letter,-1.0,False,29,-1,0,14
Y2-S2-126K25,3,321,PS,exp,26,→,right,→,1.1020088996738195,True,30,-1,0,14
Y2-S2-126K25,3,322,PS,exp,37,←,left,←,1.2817220999859273,True,30,-1,0,14
Y2-S2-126K25,3,323,PS,exp,39,→,right,→,1.0006512999534607,True,30,1,1,15
Y2-S2-126K25,3,324,PS,exp,36,←,left,←,0.617251300252974,True,29,1,0,15
Y2-S2-126K25,3,325,PS,exp,48,↓,down,↓,0.880649899598211,True,29,1,0,15
Y2-S2-126K25,3,326,PS,exp,26,↑,up,↑,0.8616387001238763,True,29,1,0,15
Y2-S2-126K25,3,327,PS,exp,50,↓,left,←,0.6818953999318182,False,28,-1,1,16
Y2-S2-126K25,4,328,AS,intra_train,46,↑,up,↑,0.8614750998094678,True,24,-,-,-
Y2-S2-126K25,4,329,AS,intra_train,49,←,left,←,0.7894133999943733,True,24,-,-,-
Y2-S2-126K25,4,330,AS,intra_train,40,→,right,→,0.6867966996505857,True,24,-,-,-
Y2-S2-126K25,4,331,AS,intra_train,25,←,left,←,0.7839621002785861,True,24,-,-,-
Y2-S2-126K25,4,332,AS,intra_train,34,↓,down,↓,0.8851107000373304,True,24,-,-,-
Y2-S2-126K25,4,333,AS,exp,44,→,up,↑,0.8209975003264844,False,16,-1,0,0
Y2-S2-126K25,4,334,AS,exp,29,↑,left,←,1.3618529997766018,False,17,-1,0,0
Y2-S2-126K25,4,335,AS,exp,27,←,left,←,0.5838255998678505,True,18,-1,0,0
Y2-S2-126K25,4,336,AS,exp,32,→,right,→,0.5721710999496281,True,18,-1,0,0
Y2-S2-126K25,4,337,AS,exp,27,↓,down,↓,0.9738535997457802,True,18,1,1,1
Y2-S2-126K25,4,338,AS,exp,36,←,left,←,0.5882203001528978,True,17,1,0,1
Y2-S2-126K25,4,339,AS,exp,34,→,right,→,0.7595836003310978,True,17,1,0,1
Y2-S2-126K25,4,340,AS,exp,47,↑,up,↑,0.7469736002385616,True,17,1,0,1
Y2-S2-126K25,4,341,AS,exp,25,↓,down,↓,1.3156285998411477,True,16,1,0,1
Y2-S2-126K25,4,342,AS,exp,48,→,right,→,0.5649377000518143,True,16,1,0,1
Y2-S2-126K25,4,343,AS,exp,28,↓,down,↓,0.5306700002402067,True,16,1,0,1
Y2-S2-126K25,4,344,AS,exp,49,←,down,↓,0.8093380997888744,False,15,-1,1,2
Y2-S2-126K25,4,345,AS,exp,43,→,down,↓,0.8192780003882945,False,16,-1,0,2
Y2-S2-126K25,4,346,AS,exp,36,↓,up,↑,0.21787190018221736,False,17,-1,0,2
Y2-S2-126K25,4,347,AS,exp,44,→,right,→,0.5718228002078831,True,18,-1,0,2
Y2-S2-126K25,4,348,AS,exp,28,↑,no_key,no_letter,-1.0,False,18,-1,0,2
Y2-S2-126K25,4,349,AS,exp,41,↓,down,↓,0.7375276000238955,True,19,-1,0,2
Y2-S2-126K25,4,350,AS,exp,35,←,down,↓,0.9606800996698439,False,19,-1,0,2
Y2-S2-126K25,4,351,AS,exp,47,↓,down,↓,0.5872467001900077,True,20,-1,0,2
Y2-S2-126K25,4,352,AS,exp,25,↑,up,↑,0.8460447997786105,True,20,-1,0,2
Y2-S2-126K25,4,353,AS,exp,34,←,up,↑,0.8588042999617755,False,20,-1,0,2
Y2-S2-126K25,4,354,AS,exp,35,↑,up,↑,0.8203723002225161,True,21,-1,0,2
Y2-S2-126K25,4,355,AS,exp,50,→,right,→,1.616975300014019,True,21,-1,0,2
Y2-S2-126K25,4,356,AS,exp,35,↑,up,↑,0.9303521998226643,True,21,1,1,3
Y2-S2-126K25,4,357,AS,exp,28,→,right,→,0.7792022000066936,True,20,1,0,3
Y2-S2-126K25,4,358,AS,exp,29,↓,down,↓,1.0083419997245073,True,20,1,0,3
Y2-S2-126K25,4,359,AS,exp,46,←,right,→,1.0380897000432014,False,20,-1,1,4
Y2-S2-126K25,4,360,AS,exp,31,↑,no_key,no_letter,-1.0,False,21,-1,0,4
Y2-S2-126K25,4,361,AS,exp,30,→,right,→,0.7331213997676969,True,22,-1,0,4
Y2-S2-126K25,4,362,AS,exp,26,←,left,←,0.6389747001230717,True,22,-1,0,4
Y2-S2-126K25,4,363,AS,exp,41,↑,down,↓,1.0783998998813331,False,22,-1,0,4
Y2-S2-126K25,4,364,AS,exp,41,←,right,→,1.2850044998340309,False,23,-1,0,4
Y2-S2-126K25,4,365,AS,exp,29,↓,no_key,no_letter,-1.0,False,24,-1,0,4
Y2-S2-126K25,4,366,AS,exp,25,→,right,→,0.550604599993676,True,25,-1,0,4
Y2-S2-126K25,4,367,AS,exp,43,↓,down,↓,0.7867252002470195,True,25,-1,0,4
Y2-S2-126K25,4,368,AS,exp,44,↑,down,↓,0.732112199999392,False,25,-1,0,4
Y2-S2-126K25,4,369,AS,exp,32,←,left,←,0.6653118999674916,True,26,-1,0,4
Y2-S2-126K25,4,370,AS,exp,33,→,right,→,0.8437915001995862,True,26,-1,0,4
Y2-S2-126K25,4,371,AS,exp,30,←,no_key,no_letter,-1.0,False,26,-1,0,4
Y2-S2-126K25,4,372,AS,exp,40,→,no_key,no_letter,-1.0,False,27,-1,0,4
Y2-S2-126K25,4,373,AS,exp,31,↑,up,↑,0.9975131000392139,True,28,-1,0,4
Y2-S2-126K25,4,374,AS,exp,26,↓,down,↓,0.6785691999830306,True,28,-1,0,4
Y2-S2-126K25,4,375,AS,exp,42,←,right,→,0.6005445998162031,False,28,-1,0,4
Y2-S2-126K25,4,376,AS,exp,36,↑,up,↑,0.7075593001209199,True,29,-1,0,4
Y2-S2-126K25,4,377,AS,exp,30,→,right,→,0.704253800213337,True,29,-1,0,4
Y2-S2-126K25,4,378,AS,exp,39,↓,down,↓,0.770344499964267,True,29,1,1,5
Y2-S2-126K25,4,379,AS,exp,41,↑,down,↓,0.7938713002949953,False,28,-1,1,6
Y2-S2-126K25,4,380,AS,exp,46,→,up,↑,0.7472998998127878,False,29,-1,0,6
Y2-S2-126K25,4,381,AS,exp,36,↑,up,↑,0.8022392001003027,True,30,-1,0,6
Y2-S2-126K25,4,382,AS,exp,34,←,left,←,0.8231791001744568,True,30,-1,0,6
Y2-S2-126K25,4,383,AS,exp,33,↑,up,↑,1.6404892997816205,True,30,1,1,7
Y2-S2-126K25,4,384,AS,exp,48,←,left,←,0.7100801998749375,True,29,1,0,7
Y2-S2-126K25,4,385,AS,exp,30,→,right,→,0.7139640003442764,True,29,1,0,7
Y2-S2-126K25,4,386,AS,exp,35,↓,down,↓,0.965725100133568,True,29,1,0,7
Y2-S2-126K25,4,387,AS,exp,26,←,left,←,0.8105374001897871,True,28,1,0,7
Y2-S2-126K25,4,388,AS,exp,35,↑,up,↑,1.2575425999239087,True,28,1,0,7
Y2-S2-126K25,4,389,AS,exp,48,↓,down,↓,0.6930655003525317,True,28,1,0,7
Y2-S2-126K25,4,390,AS,exp,49,←,left,←,1.7533208997920156,True,27,1,0,7
Y2-S2-126K25,4,391,AS,exp,36,↓,down,↓,0.4176833997480571,True,27,1,0,7
Y2-S2-126K25,4,392,AS,exp,31,→,right,→,0.46727570006623864,True,27,1,0,7
Y2-S2-126K25,4,393,AS,exp,27,↓,down,↓,0.40105179976671934,True,26,1,0,7
Y2-S2-126K25,4,394,AS,exp,38,←,left,←,0.7186321001499891,True,26,1,0,7
Y2-S2-126K25,4,395,AS,exp,30,→,right,→,0.6625811001285911,True,26,1,0,7
Y2-S2-126K25,4,396,AS,exp,34,←,left,←,0.8092506998218596,True,25,1,0,7
Y2-S2-126K25,4,397,AS,exp,29,↓,down,↓,0.5968030001968145,True,25,1,0,7
Y2-S2-126K25,4,398,AS,exp,28,←,left,←,0.7868166002444923,True,25,1,0,7
Y2-S2-126K25,4,399,AS,exp,35,↓,down,↓,0.7119939997792244,True,24,1,0,7
Y2-S2-126K25,4,400,AS,exp,26,←,no_key,no_letter,-1.0,False,24,-1,1,8
Y2-S2-126K25,4,401,AS,exp,48,→,right,→,0.6488238000310957,True,25,-1,0,8
Y2-S2-126K25,4,402,AS,exp,32,←,left,←,0.5339328004047275,True,25,-1,0,8
Y2-S2-126K25,4,403,AS,exp,35,↓,down,↓,0.602262600325048,True,25,1,1,9
Y2-S2-126K25,4,404,AS,exp,46,←,left,←,0.8531395001336932,True,24,1,0,9
Y2-S2-126K25,4,405,AS,exp,27,→,right,→,0.6207156996242702,True,24,1,0,9
Y2-S2-126K25,4,406,AS,exp,38,↑,up,↑,0.6156302001327276,True,24,1,0,9
Y2-S2-126K25,4,407,AS,exp,45,←,left,←,0.4339339998550713,True,23,1,0,9
Y2-S2-126K25,4,408,AS,exp,43,↑,up,↑,0.5006307996809483,True,23,1,0,9
Y2-S2-126K25,4,409,AS,exp,34,→,right,→,0.8279566997662187,True,23,1,0,9
Y2-S2-126K25,4,410,AS,exp,41,↓,down,↓,0.7795740999281406,True,22,1,0,9
Y2-S2-126K25,4,411,AS,exp,34,←,left,←,0.5631381999701262,True,22,1,0,9
Y2-S2-126K25,4,412,AS,exp,31,↓,down,↓,0.5005814000032842,True,22,1,0,9
Y2-S2-126K25,4,413,AS,exp,44,↑,up,↑,0.8014560001902282,True,21,1,0,9
Y2-S2-126K25,4,414,AS,exp,33,↓,down,↓,0.8148318999446929,True,21,1,0,9
Y2-S2-126K25,4,415,AS,exp,35,↑,no_key,no_letter,-1.0,False,21,-1,1,10
Y2-S2-126K25,4,416,AS,exp,45,↓,no_key,no_letter,-1.0,False,22,-1,0,10
Y2-S2-126K25,4,417,AS,exp,30,←,left,←,0.7540640002116561,True,23,-1,0,10
Y2-S2-126K25,4,418,AS,exp,39,↓,down,↓,1.2786669000051916,True,23,-1,0,10
Y2-S2-126K25,4,419,AS,exp,42,←,right,→,1.172266900073737,False,23,-1,0,10
Y2-S2-126K25,4,420,AS,exp,33,→,right,→,1.3147507002577186,True,24,-1,0,10
Y2-S2-126K25,4,421,AS,exp,46,←,left,←,0.7194606000557542,True,24,-1,0,10
Y2-S2-126K25,4,422,AS,exp,50,→,right,→,0.9281720002181828,True,24,1,1,11
Y2-S2-126K25,4,423,AS,exp,49,↓,down,↓,0.8448442998342216,True,23,1,0,11
Y2-S2-126K25,4,424,AS,exp,49,↑,down,↓,1.4940329999662936,False,23,-1,1,12
Y2-S2-126K25,4,425,AS,exp,28,→,right,→,0.9379014000296593,True,24,-1,0,12
Y2-S2-126K25,4,426,AS,exp,36,↑,right,→,1.0725535000674427,False,24,-1,0,12
Y2-S2-126K25,4,427,AS,exp,38,→,right,→,0.48390959994867444,True,25,-1,0,12
Y2-S2-126K25,4,428,AS,exp,36,←,left,←,0.5513754999265075,True,25,-1,0,12
Y2-S2-126K25,4,429,AS,exp,39,↑,up,↑,0.6845758999697864,True,25,1,1,13
Y2-S2-126K25,4,430,AS,exp,29,→,right,→,0.7171991998329759,True,24,1,0,13
Y2-S2-126K25,4,431,AS,exp,28,←,right,→,0.5008117002435029,False,24,-1,1,14
Y2-S2-126K25,4,432,AS,exp,25,→,right,→,0.6944955997169018,True,25,-1,0,14
Y2-S2-126K25,4,433,AS,exp,37,↑,up,↑,0.7301945998333395,True,25,-1,0,14
Y2-S2-126K25,4,434,AS,exp,50,→,right,→,0.6335191996768117,True,25,1,1,15
Y2-S2-126K25,4,435,AS,exp,42,←,right,→,0.7610430996865034,False,24,-1,1,16
Y2-S2-126K25,5,436,AS,intra_train,45,→,right,→,0.6756989001296461,True,24,-,-,-
Y2-S2-126K25,5,437,AS,intra_train,44,←,right,→,0.4674420999363065,False,24,-,-,-
Y2-S2-126K25,5,438,AS,intra_train,25,→,right,→,0.6145465997979045,True,24,-,-,-
Y2-S2-126K25,5,439,AS,intra_train,41,←,left,←,0.8561991997994483,True,24,-,-,-
Y2-S2-126K25,5,440,AS,intra_train,44,↑,up,↑,0.6063270000740886,True,24,-,-,-
Y2-S2-126K25,5,441,AS,exp,37,↓,down,↓,0.6907767998054624,True,16,0,0,0
Y2-S2-126K25,5,442,AS,exp,37,←,left,←,0.5484501998871565,True,16,0,0,0
Y2-S2-126K25,5,443,AS,exp,25,↑,right,→,0.770853899884969,False,16,-1,0,0
Y2-S2-126K25,5,444,AS,exp,34,↓,down,↓,0.7218763004057109,True,17,-1,0,0
Y2-S2-126K25,5,445,AS,exp,48,→,right,→,0.5513563002459705,True,17,-1,0,0
Y2-S2-126K25,5,446,AS,exp,44,↓,down,↓,0.5816712002269924,True,17,1,1,1
Y2-S2-126K25,5,447,AS,exp,34,↑,up,↑,0.8692097999155521,True,16,1,0,1
Y2-S2-126K25,5,448,AS,exp,36,→,right,→,0.5644920999184251,True,16,1,0,1
Y2-S2-126K25,5,449,AS,exp,29,↓,up,↑,0.7001552996225655,False,16,-1,1,2
Y2-S2-126K25,5,450,AS,exp,32,↑,up,↑,0.7035342999733984,True,17,-1,0,2
Y2-S2-126K25,5,451,AS,exp,46,↓,down,↓,0.6916235000826418,True,17,-1,0,2
Y2-S2-126K25,5,452,AS,exp,37,→,down,↓,0.8638897999189794,False,17,-1,0,2
Y2-S2-126K25,5,453,AS,exp,35,↑,up,↑,1.151924000121653,True,18,-1,0,2
Y2-S2-126K25,5,454,AS,exp,35,←,left,←,0.8601022004149854,True,18,-1,0,2
Y2-S2-126K25,5,455,AS,exp,28,↓,down,↓,0.7253912999294698,True,18,1,1,3
Y2-S2-126K25,5,456,AS,exp,36,←,down,↓,0.8747283997945487,False,17,-1,1,4
Y2-S2-126K25,5,457,AS,exp,44,↓,down,↓,0.6126081999391317,True,18,-1,0,4
Y2-S2-126K25,5,458,AS,exp,36,↑,up,↑,0.8442073999904096,True,18,-1,0,4
Y2-S2-126K25,5,459,AS,exp,34,↓,down,↓,0.7332543996162713,True,18,1,1,5
Y2-S2-126K25,5,460,AS,exp,43,→,no_key,no_letter,-1.0,False,17,-1,1,6
Y2-S2-126K25,5,461,AS,exp,38,↑,up,↑,0.9847935996949673,True,18,-1,0,6
Y2-S2-126K25,5,462,AS,exp,25,→,no_key,no_letter,-1.0,False,18,-1,0,6
Y2-S2-126K25,5,463,AS,exp,36,←,left,←,0.8749712002463639,True,19,-1,0,6
Y2-S2-126K25,5,464,AS,exp,39,→,right,→,0.5336079001426697,True,19,-1,0,6
Y2-S2-126K25,5,465,AS,exp,34,↑,up,↑,0.8348364997655153,True,19,1,1,7
Y2-S2-126K25,5,466,AS,exp,40,←,right,→,0.7671472998335958,False,18,-1,1,8
Y2-S2-126K25,5,467,AS,exp,26,→,right,→,0.6837859996594489,True,19,-1,0,8
Y2-S2-126K25,5,468,AS,exp,43,←,left,←,0.6209558001719415,True,19,-1,0,8
Y2-S2-126K25,5,469,AS,exp,36,→,no_key,no_letter,-1.0,False,19,-1,0,8
Y2-S2-126K25,5,470,AS,exp,32,←,no_key,no_letter,-1.0,False,20,-1,0,8
Y2-S2-126K25,5,471,AS,exp,41,→,right,→,0.6396238002926111,True,21,-1,0,8
Y2-S2-126K25,5,472,AS,exp,43,←,left,←,0.6987458001822233,True,21,-1,0,8
Y2-S2-126K25,5,473,AS,exp,30,→,no_key,no_letter,-1.0,False,21,-1,0,8
Y2-S2-126K25,5,474,AS,exp,25,↓,down,↓,0.838617299683392,True,22,-1,0,8
Y2-S2-126K25,5,475,AS,exp,25,→,right,→,0.7828305000439286,True,22,-1,0,8
Y2-S2-126K25,5,476,AS,exp,42,↑,up,↑,0.6707472000271082,True,22,1,1,9
Y2-S2-126K25,5,477,AS,exp,38,↓,down,↓,0.8787859999574721,True,21,1,0,9
Y2-S2-126K25,5,478,AS,exp,25,↑,down,↓,1.5750902001745999,False,21,-1,1,10
Y2-S2-126K25,5,479,AS,exp,39,←,left,←,0.7293023001402617,True,22,-1,0,10
Y2-S2-126K25,5,480,AS,exp,42,↑,up,↑,0.789697099942714,True,22,-1,0,10
Y2-S2-126K25,5,481,AS,exp,34,→,right,→,0.8641154998913407,True,22,1,1,11
Y2-S2-126K25,5,482,AS,exp,49,↑,left,←,0.9667727998457849,False,21,-1,1,12
Y2-S2-126K25,5,483,AS,exp,42,←,right,→,0.9295753003098071,False,22,-1,0,12
Y2-S2-126K25,5,484,AS,exp,34,↑,right,→,1.855730699840933,False,23,-1,0,12
Y2-S2-126K25,5,485,AS,exp,36,→,right,→,0.6117406999692321,True,24,-1,0,12
Y2-S2-126K25,5,486,AS,exp,28,↑,no_key,no_letter,-1.0,False,24,-1,0,12
Y2-S2-126K25,5,487,AS,exp,38,↓,down,↓,0.6375438999384642,True,25,-1,0,12
Y2-S2-126K25,5,488,AS,exp,49,→,right,→,0.48389509972184896,True,25,-1,0,12
Y2-S2-126K25,5,489,AS,exp,33,↓,down,↓,0.5006261998787522,True,25,1,1,13
Y2-S2-126K25,5,490,AS,exp,34,↑,up,↑,0.40076890029013157,True,24,1,0,13
Y2-S2-126K25,5,491,AS,exp,41,←,left,←,0.7239764002151787,True,24,1,0,13
Y2-S2-126K25,5,492,AS,exp,31,↑,up,↑,0.67181590013206,True,24,1,0,13
Y2-S2-126K25,5,493,AS,exp,34,→,right,→,0.6445475998334587,True,23,1,0,13
Y2-S2-126K25,5,494,AS,exp,28,↓,down,↓,0.6243392997421324,True,23,1,0,13
Y2-S2-126K25,5,495,AS,exp,28,↑,up,↑,0.45077049965038896,True,23,1,0,13
Y2-S2-126K25,5,496,AS,exp,43,↓,down,↓,0.43387449998408556,True,22,1,0,13
Y2-S2-126K25,5,497,AS,exp,44,→,right,→,0.4340185998007655,True,22,1,0,13
Y2-S2-126K25,5,498,AS,exp,44,↑,up,↑,0.7462267000228167,True,22,1,0,13
Y2-S2-126K25,5,499,AS,exp,46,←,left,←,0.732315800152719,True,21,1,0,13
Y2-S2-126K25,5,500,AS,exp,25,↑,up,↑,0.483927299734205,True,21,1,0,13
Y2-S2-126K25,5,501,AS,exp,31,→,no_key,no_letter,-1.0,False,21,-1,1,14
Y2-S2-126K25,5,502,AS,exp,46,←,left,←,0.715854300186038,True,22,-1,0,14
Y2-S2-126K25,5,503,AS,exp,40,→,right,→,0.5850065997801721,True,22,-1,0,14
Y2-S2-126K25,5,504,AS,exp,50,↑,up,↑,0.6765529997646809,True,22,1,1,15
Y2-S2-126K25,5,505,AS,exp,47,↓,no_key,no_letter,-1.0,False,21,-1,1,16
Y2-S2-126K25,6,506,PS,intra_train,27,→,right,→,0.6716297999955714,True,25,-,-,-
Y2-S2-126K25,6,507,PS,intra_train,31,←,left,←,0.9545944998972118,True,25,-,-,-
Y2-S2-126K25,6,508,PS,intra_train,50,→,right,→,0.5505828997120261,True,25,-,-,-
Y2-S2-126K25,6,509,PS,intra_train,30,←,left,←,0.5172143001109362,True,25,-,-,-
Y2-S2-126K25,6,510,PS,intra_train,25,↓,down,↓,0.5966715002432466,True,25,-,-,-
Y2-S2-126K25,6,511,PS,exp,34,↑,up,↑,0.6115219001658261,True,17,0,0,0
Y2-S2-126K25,6,512,PS,exp,42,↓,down,↓,0.5802740999497473,True,17,0,0,0
Y2-S2-126K25,6,513,PS,exp,30,←,left,←,0.5407992000691593,True,17,1,0,0
Y2-S2-126K25,6,514,PS,exp,45,↑,up,↑,0.4385181004181504,True,16,1,0,0
Y2-S2-126K25,6,515,PS,exp,39,→,right,→,0.45818359963595867,True,16,1,0,0
Y2-S2-126K25,6,516,PS,exp,35,←,right,→,1.103889100253582,False,16,-1,1,1
Y2-S2-126K25,6,517,PS,exp,47,→,right,→,0.5170454001054168,True,17,-1,0,1
Y2-S2-126K25,6,518,PS,exp,45,↑,up,↑,0.5233355001546443,True,17,-1,0,1
Y2-S2-126K25,6,519,PS,exp,31,←,left,←,0.6090807002037764,True,17,1,1,2
Y2-S2-126K25,6,520,PS,exp,32,↑,right,→,0.6929092998616397,False,16,-1,1,3
Y2-S2-126K25,6,521,PS,exp,38,↓,left,←,0.8441504002548754,False,17,-1,0,3
Y2-S2-126K25,6,522,PS,exp,38,→,right,→,0.4821260003373027,True,18,-1,0,3
Y2-S2-126K25,6,523,PS,exp,40,↑,up,↑,0.4708718997426331,True,18,-1,0,3
Y2-S2-126K25,6,524,PS,exp,47,↓,down,↓,0.47258559986948967,True,18,1,1,4
Y2-S2-126K25,6,525,PS,exp,43,←,up,↑,0.723212500102818,False,17,-1,1,5
Y2-S2-126K25,6,526,PS,exp,37,↓,down,↓,0.7714802999980748,True,18,-1,0,5
Y2-S2-126K25,6,527,PS,exp,34,→,down,↓,0.6977221998386085,False,18,-1,0,5
Y2-S2-126K25,6,528,PS,exp,42,←,right,→,0.6712219002656639,False,19,-1,0,5
Y2-S2-126K25,6,529,PS,exp,43,↑,up,↑,0.6115198000334203,True,20,-1,0,5
Y2-S2-126K25,6,530,PS,exp,45,→,left,←,0.78717470029369,False,20,-1,0,5
Y2-S2-126K25,6,531,PS,exp,34,↓,down,↓,0.5750866001471877,True,21,-1,0,5
Y2-S2-126K25,6,532,PS,exp,50,↑,no_key,no_letter,-1.0,False,21,-1,0,5
Y2-S2-126K25,6,533,PS,exp,47,←,left,←,0.6065238998271525,True,22,-1,0,5
Y2-S2-126K25,6,534,PS,exp,43,→,right,→,1.0081734000705183,True,22,-1,0,5
Y2-S2-126K25,6,535,PS,exp,26,↑,right,→,1.0852218000218272,False,22,-1,0,5
Y2-S2-126K25,6,536,PS,exp,42,←,left,←,0.585663499776274,True,23,-1,0,5
Y2-S2-126K25,6,537,PS,exp,28,→,right,→,0.5006511998362839,True,23,-1,0,5
Y2-S2-126K25,6,538,PS,exp,42,↓,no_key,no_letter,-1.0,False,23,-1,0,5
Y2-S2-126K25,6,539,PS,exp,25,←,left,←,0.4672988997772336,True,24,-1,0,5
Y2-S2-126K25,6,540,PS,exp,47,↓,right,→,0.603307300247252,False,24,-1,0,5
Y2-S2-126K25,6,541,PS,exp,32,↑,up,↑,0.8594581000506878,True,25,-1,0,5
Y2-S2-126K25,6,542,PS,exp,49,←,left,←,0.6435758001171052,True,25,-1,0,5
Y2-S2-126K25,6,543,PS,exp,49,→,right,→,0.4672161997295916,True,25,1,1,6
Y2-S2-126K25,6,544,PS,exp,29,↑,right,→,0.8172738999128342,False,24,-1,1,7
Y2-S2-126K25,6,545,PS,exp,34,↓,down,↓,0.6054378999397159,True,25,-1,0,7
Y2-S2-126K25,6,546,PS,exp,41,→,right,→,0.651726100128144,True,25,-1,0,7
Y2-S2-126K25,6,547,PS,exp,42,↓,no_key,no_letter,-1.0,False,25,-1,0,7
Y2-S2-126K25,6,548,PS,exp,27,→,right,→,0.5671167997643352,True,26,-1,0,7
Y2-S2-126K25,6,549,PS,exp,30,←,left,←,0.7212157999165356,True,26,-1,0,7
Y2-S2-126K25,6,550,PS,exp,50,↑,up,↑,0.6854424001649022,True,26,1,1,8
Y2-S2-126K25,6,551,PS,exp,28,→,right,→,0.4673395003192127,True,25,1,0,8
Y2-S2-126K25,6,552,PS,exp,35,↑,up,↑,0.5340287000872195,True,25,1,0,8
Y2-S2-126K25,6,553,PS,exp,27,↓,down,↓,0.6956568998284638,True,25,1,0,8
Y2-S2-126K25,6,554,PS,exp,33,←,left,←,0.500562499742955,True,24,1,0,8
Y2-S2-126K25,6,555,PS,exp,50,→,right,→,0.5173688000068069,True,24,1,0,8
Y2-S2-126K25,6,556,PS,exp,42,←,left,←,1.7428991999477148,True,24,1,0,8
Y2-S2-126K25,6,557,PS,exp,33,↑,up,↑,0.5173931000754237,True,23,1,0,8
Y2-S2-126K25,6,558,PS,exp,32,←,left,←,0.5919340001419187,True,23,1,0,8
Y2-S2-126K25,6,559,PS,exp,50,→,right,→,0.8402905003167689,True,23,1,0,8
Y2-S2-126K25,6,560,PS,exp,34,↓,down,↓,0.6370107997208834,True,22,1,0,8
Y2-S2-126K25,6,561,PS,exp,33,→,right,→,0.73353650001809,True,22,1,0,8
Y2-S2-126K25,6,562,PS,exp,28,←,left,←,0.583954700268805,True,22,1,0,8
Y2-S2-126K25,6,563,PS,exp,39,→,right,→,0.6712547997012734,True,21,1,0,8
Y2-S2-126K25,6,564,PS,exp,47,←,left,←,0.41764929983764887,True,21,1,0,8
Y2-S2-126K25,6,565,PS,exp,28,→,left,←,0.5437713996507227,False,21,-1,1,9
Y2-S2-126K25,6,566,PS,exp,43,←,left,←,0.6115346001461148,True,22,-1,0,9
Y2-S2-126K25,6,567,PS,exp,44,↑,up,↑,0.6527917003259063,True,22,-1,0,9
Y2-S2-126K25,6,568,PS,exp,47,→,right,→,0.6820416999980807,True,22,1,1,10
Y2-S2-126K25,6,569,PS,exp,25,↑,up,↑,0.6425463003106415,True,21,1,0,10
Y2-S2-126K25,6,570,PS,exp,30,←,left,←,0.6695884000509977,True,21,1,0,10
Y2-S2-126K25,6,571,PS,exp,30,↓,down,↓,0.7385804001241922,True,21,1,0,10
Y2-S2-126K25,6,572,PS,exp,40,↑,up,↑,0.5347295999526978,True,20,1,0,10
Y2-S2-126K25,6,573,PS,exp,28,←,no_key,no_letter,-1.0,False,20,-1,1,11
Y2-S2-126K25,6,574,PS,exp,33,↑,up,↑,0.5829170001670718,True,21,-1,0,11
Y2-S2-126K25,6,575,PS,exp,48,→,up,↑,1.2195760998874903,False,21,-1,0,11
Y2-S2-126K25,6,576,PS,exp,49,↑,up,↑,0.5921248001977801,True,22,-1,0,11
Y2-S2-126K25,6,577,PS,exp,26,←,left,←,0.6381411999464035,True,22,-1,0,11
Y2-S2-126K25,6,578,PS,exp,37,↑,up,↑,0.5528591000474989,True,22,1,1,12
Y2-S2-126K25,6,579,PS,exp,40,↓,down,↓,0.6329904003068805,True,21,1,0,12
Y2-S2-126K25,6,580,PS,exp,30,←,left,←,0.5365257998928428,True,21,1,0,12
Y2-S2-126K25,6,581,PS,exp,33,↓,down,↓,0.7943425001576543,True,21,1,0,12
Y2-S2-126K25,6,582,PS,exp,40,↑,up,↑,0.6145930998027325,True,20,1,0,12
Y2-S2-126K25,6,583,PS,exp,46,→,left,←,0.7036696998402476,False,20,-1,1,13
Y2-S2-126K25,6,584,PS,exp,43,↑,up,↑,0.5299812001176178,True,21,-1,0,13
Y2-S2-126K25,6,585,PS,exp,49,←,left,←,0.8907528999261558,True,21,-1,0,13
Y2-S2-126K25,6,586,PS,exp,50,↓,down,↓,0.7212113998830318,True,21,1,1,14
Y2-S2-126K25,6,587,PS,exp,49,↑,up,↑,0.5520735001191497,True,20,1,0,14
Y2-S2-126K25,6,588,PS,exp,28,→,right,→,0.5661244001239538,True,20,1,0,14
Y2-S2-126K25,6,589,PS,exp,35,↓,down,↓,0.6718998001888394,True,20,1,0,14
Y2-S2-126K25,6,590,PS,exp,49,→,no_key,no_letter,-1.0,False,19,-1,1,15
Y2-S2-126K25,6,591,PS,exp,29,↑,left,←,1.154540800023824,False,20,-1,0,15
Y2-S2-126K25,6,592,PS,exp,39,→,right,→,0.5228251996450126,True,21,-1,0,15
Y2-S2-126K25,6,593,PS,exp,42,←,left,←,0.48410499980673194,True,21,-1,0,15
Y2-S2-126K25,6,594,PS,exp,41,↓,down,↓,0.7879113000817597,True,21,1,1,16
Y2-S2-126K25,7,595,PS,intra_train,44,→,right,→,1.6221843999810517,True,25,-,-,-
Y2-S2-126K25,7,596,PS,intra_train,32,←,left,←,0.4171659997664392,True,25,-,-,-
Y2-S2-126K25,7,597,PS,intra_train,34,↑,up,↑,0.7298383000306785,True,25,-,-,-
Y2-S2-126K25,7,598,PS,intra_train,29,←,left,←,0.4505716999992728,True,25,-,-,-
Y2-S2-126K25,7,599,PS,intra_train,28,↑,right,→,0.6469067996367812,False,25,-,-,-
Y2-S2-126K25,7,600,PS,exp,38,←,left,←,0.4899321002885699,True,17,0,0,0
Y2-S2-126K25,7,601,PS,exp,30,↑,up,↑,0.7610157001763582,True,17,0,0,0
Y2-S2-126K25,7,602,PS,exp,43,↓,down,↓,0.650235699955374,True,17,1,0,0
Y2-S2-126K25,7,603,PS,exp,34,↑,down,↓,1.2734245001338422,False,16,-1,1,1
Y2-S2-126K25,7,604,PS,exp,33,→,left,←,0.5662881000898778,False,17,-1,0,1
Y2-S2-126K25,7,605,PS,exp,46,←,left,←,0.6791941998526454,True,18,-1,0,1
Y2-S2-126K25,7,606,PS,exp,25,→,no_key,no_letter,-1.0,False,18,-1,0,1
Y2-S2-126K25,7,607,PS,exp,38,↓,down,↓,0.5503454999998212,True,19,-1,0,1
Y2-S2-126K25,7,608,PS,exp,25,←,left,←,0.6582247000187635,True,19,-1,0,1
Y2-S2-126K25,7,609,PS,exp,46,↓,down,↓,0.6320436000823975,True,19,1,1,2
Y2-S2-126K25,7,610,PS,exp,28,←,right,→,0.5934432996436954,False,18,-1,1,3
Y2-S2-126K25,7,611,PS,exp,30,→,right,→,0.5486131999641657,True,19,-1,0,3
Y2-S2-126K25,7,612,PS,exp,32,←,left,←,1.740999300032854,True,19,-1,0,3
Y2-S2-126K25,7,613,PS,exp,45,→,right,→,0.5738010997883976,True,19,1,1,4
Y2-S2-126K25,7,614,PS,exp,30,←,left,←,0.5561609002761543,True,18,1,0,4
Y2-S2-126K25,7,615,PS,exp,50,↑,up,↑,0.7924452000297606,True,18,1,0,4
Y2-S2-126K25,7,616,PS,exp,35,↓,down,↓,0.6191667998209596,True,18,1,0,4
Y2-S2-126K25,7,617,PS,exp,31,←,no_key,no_letter,-1.0,False,17,-1,1,5
Y2-S2-126K25,7,618,PS,exp,50,↓,down,↓,0.660478699952364,True,18,-1,0,5
Y2-S2-126K25,7,619,PS,exp,26,→,left,←,1.4737251000478864,False,18,-1,0,5
Y2-S2-126K25,7,620,PS,exp,25,←,left,←,0.5722478996030986,True,19,-1,0,5
Y2-S2-126K25,7,621,PS,exp,34,↑,no_key,no_letter,-1.0,False,19,-1,0,5
Y2-S2-126K25,7,622,PS,exp,40,←,left,←,0.5620711999945343,True,20,-1,0,5
Y2-S2-126K25,7,623,PS,exp,25,↓,up,↑,0.9700337001122534,False,20,-1,0,5
Y2-S2-126K25,7,624,PS,exp,37,↑,up,↑,0.6535263997502625,True,21,-1,0,5
Y2-S2-126K25,7,625,PS,exp,29,↓,no_key,no_letter,-1.0,False,21,-1,0,5
Y2-S2-126K25,7,626,PS,exp,26,↑,up,↑,0.5008066999725997,True,22,-1,0,5
Y2-S2-126K25,7,627,PS,exp,48,←,left,←,1.3360001002438366,True,22,-1,0,5
Y2-S2-126K25,7,628,PS,exp,46,↑,up,↑,0.60274269990623,True,22,1,1,6
Y2-S2-126K25,7,629,PS,exp,47,→,right,→,0.7630590000189841,True,21,1,0,6
Y2-S2-126K25,7,630,PS,exp,26,↑,up,↑,0.7663429998792708,True,21,1,0,6
Y2-S2-126K25,7,631,PS,exp,28,←,left,←,0.5621711001731455,True,21,1,0,6
Y2-S2-126K25,7,632,PS,exp,31,→,right,→,1.832731899805367,True,20,1,0,6
Y2-S2-126K25,7,633,PS,exp,42,←,right,→,0.5207246001809835,False,20,-1,1,7
Y2-S2-126K25,7,634,PS,exp,47,↓,down,↓,0.5863119997084141,True,21,-1,0,7
Y2-S2-126K25,7,635,PS,exp,37,→,down,↓,1.4348709001205862,False,21,-1,0,7
Y2-S2-126K25,7,636,PS,exp,29,↓,down,↓,1.1286601996980608,True,22,-1,0,7
Y2-S2-126K25,7,637,PS,exp,36,←,left,←,0.7618803000077605,True,22,-1,0,7
Y2-S2-126K25,7,638,PS,exp,41,↑,up,↑,0.6593851000070572,True,22,1,1,8
Y2-S2-126K25,7,639,PS,exp,42,↓,left,←,0.7751172003336251,False,21,-1,1,9
Y2-S2-126K25,7,640,PS,exp,45,↑,up,↑,0.6562088001519442,True,22,-1,0,9
Y2-S2-126K25,7,641,PS,exp,38,↓,down,↓,1.4490648000501096,True,22,-1,0,9
Y2-S2-126K25,7,642,PS,exp,39,←,left,←,0.6465876000002027,True,22,1,1,10
Y2-S2-126K25,7,643,PS,exp,32,→,right,→,0.7807922000065446,True,21,1,0,10
Y2-S2-126K25,7,644,PS,exp,46,←,left,←,1.596827699802816,True,21,1,0,10
Y2-S2-126K25,7,645,PS,exp,27,→,right,→,0.5412166998721659,True,21,1,0,10
Y2-S2-126K25,7,646,PS,exp,46,↑,up,↑,0.6979183997027576,True,20,1,0,10
Y2-S2-126K25,7,647,PS,exp,49,←,left,←,1.4342358000576496,True,20,1,0,10
Y2-S2-126K25,7,648,PS,exp,31,↓,down,↓,0.9621350998058915,True,20,1,0,10
Y2-S2-126K25,7,649,PS,exp,46,↑,up,↑,1.1374403000809252,True,19,1,0,10
Y2-S2-126K25,7,650,PS,exp,29,→,right,→,0.8592112003825605,True,19,1,0,10
Y2-S2-126K25,7,651,PS,exp,35,↑,up,↑,0.5034894002601504,True,19,1,0,10
Y2-S2-126K25,7,652,PS,exp,49,→,right,→,0.7201911001466215,True,18,1,0,10
Y2-S2-126K25,7,653,PS,exp,25,↓,left,←,1.2330923001281917,False,18,-1,1,11
Y2-S2-126K25,7,654,PS,exp,47,→,no_key,no_letter,-1.0,False,19,-1,0,11
Y2-S2-126K25,7,655,PS,exp,50,↑,up,↑,0.7246022000908852,True,20,-1,0,11
Y2-S2-126K25,7,656,PS,exp,27,↓,down,↓,0.578284400049597,True,20,-1,0,11
Y2-S2-126K25,7,657,PS,exp,41,←,left,←,0.672641500364989,True,20,1,1,12
Y2-S2-126K25,7,658,PS,exp,31,↓,no_key,no_letter,-1.0,False,19,-1,1,13
Y2-S2-126K25,7,659,PS,exp,42,→,no_key,no_letter,-1.0,False,20,-1,0,13
Y2-S2-126K25,7,660,PS,exp,33,↑,up,↑,0.48394150007516146,True,21,-1,0,13
Y2-S2-126K25,7,661,PS,exp,25,←,no_key,no_letter,-1.0,False,21,-1,0,13
Y2-S2-126K25,7,662,PS,exp,47,→,right,→,0.5615567001514137,True,22,-1,0,13
Y2-S2-126K25,7,663,PS,exp,31,←,left,←,0.467497400008142,True,22,-1,0,13
Y2-S2-126K25,7,664,PS,exp,47,↑,up,↑,0.6580500002019107,True,22,1,1,14
Y2-S2-126K25,7,665,PS,exp,41,←,left,←,0.46764919999986887,True,21,1,0,14
Y2-S2-126K25,7,666,PS,exp,36,→,right,→,1.3759252997115254,True,21,1,0,14
Y2-S2-126K25,7,667,PS,exp,39,↑,up,↑,0.5538479997776449,True,21,1,0,14
Y2-S2-126K25,7,668,PS,exp,38,↓,down,↓,0.6854882999323308,True,20,1,0,14
Y2-S2-126K25,7,669,PS,exp,45,→,right,→,0.4508163002319634,True,20,1,0,14
Y2-S2-126K25,7,670,PS,exp,43,↓,down,↓,0.5986653999425471,True,20,1,0,14
Y2-S2-126K25,7,671,PS,exp,37,→,right,→,0.517645699903369,True,19,1,0,14
Y2-S2-126K25,7,672,PS,exp,36,↓,down,↓,0.5626986999996006,True,19,1,0,14
Y2-S2-126K25,7,673,PS,exp,50,←,left,←,0.48988840030506253,True,19,1,0,14
Y2-S2-126K25,7,674,PS,exp,32,↓,down,↓,0.8032375001348555,True,18,1,0,14
Y2-S2-126K25,7,675,PS,exp,35,←,left,←,0.5996497999876738,True,18,1,0,14
Y2-S2-126K25,7,676,PS,exp,27,↑,down,↓,0.9626519000157714,False,18,-1,1,15
Y2-S2-126K25,7,677,PS,exp,28,↓,down,↓,1.982204900123179,True,19,-1,0,15
Y2-S2-126K25,7,678,PS,exp,41,←,down,↓,0.5521907000802457,False,19,-1,0,15
Y2-S2-126K25,7,679,PS,exp,47,↓,left,←,1.7052335999906063,False,20,-1,0,15
Y2-S2-126K25,7,680,PS,exp,36,↑,up,↑,0.46724360017105937,True,21,-1,0,15
Y2-S2-126K25,7,681,PS,exp,45,→,right,→,0.6158631001599133,True,21,-1,0,15
Y2-S2-126K25,7,682,PS,exp,37,↑,up,↑,0.6047513000667095,True,21,1,1,16
Y2-S2-126K25,8,683,AS,intra_train,27,→,right,→,0.5726968999952078,True,24,-,-,-
Y2-S2-126K25,8,684,AS,intra_train,31,←,left,←,0.48428279999643564,True,24,-,-,-
Y2-S2-126K25,8,685,AS,intra_train,28,↑,up,↑,0.8957699998281896,True,24,-,-,-
Y2-S2-126K25,8,686,AS,intra_train,41,→,down,↓,1.409076000098139,False,24,-,-,-
Y2-S2-126K25,8,687,AS,intra_train,40,↑,up,↑,0.611380800139159,True,24,-,-,-
Y2-S2-126K25,8,688,AS,exp,31,→,up,↑,0.854063400067389,False,16,-1,0,0
Y2-S2-126K25,8,689,AS,exp,46,↓,down,↓,0.90659169992432,True,17,-1,0,0
Y2-S2-126K25,8,690,AS,exp,42,←,right,→,0.5039586001075804,False,17,-1,0,0
Y2-S2-126K25,8,691,AS,exp,43,→,left,←,0.4173348997719586,False,18,-1,0,0
Y2-S2-126K25,8,692,AS,exp,49,←,right,→,0.7657127999700606,False,19,-1,0,0
Y2-S2-126K25,8,693,AS,exp,35,→,right,→,0.5771475001238286,True,20,-1,0,0
Y2-S2-126K25,8,694,AS,exp,39,↓,up,↑,0.7517046998254955,False,20,-1,0,0
Y2-S2-126K25,8,695,AS,exp,45,→,down,↓,0.8789605000056326,False,21,-1,0,0
Y2-S2-126K25,8,696,AS,exp,41,↑,up,↑,0.712020100094378,True,22,-1,0,0
Y2-S2-126K25,8,697,AS,exp,29,→,right,→,0.6389049999415874,True,22,-1,0,0
Y2-S2-126K25,8,698,AS,exp,44,↓,up,↑,0.5715418998152018,False,22,-1,0,0
Y2-S2-126K25,8,699,AS,exp,50,→,right,→,0.7430910002440214,True,23,-1,0,0
Y2-S2-126K25,8,700,AS,exp,45,↑,up,↑,0.6956528997980058,True,23,-1,0,0
Y2-S2-126K25,8,701,AS,exp,47,←,left,←,0.5837892997078598,True,23,1,1,1
Y2-S2-126K25,8,702,AS,exp,50,↓,down,↓,0.4837919999845326,True,22,1,0,1
Y2-S2-126K25,8,703,AS,exp,48,←,left,←,1.1782379001379013,True,22,1,0,1
Y2-S2-126K25,8,704,AS,exp,26,→,right,→,0.5557490000501275,True,22,1,0,1
Y2-S2-126K25,8,705,AS,exp,40,↑,up,↑,0.5717198001220822,True,21,1,0,1
Y2-S2-126K25,8,706,AS,exp,46,←,down,↓,1.4950855998322368,False,21,-1,1,2
Y2-S2-126K25,8,707,AS,exp,33,→,left,←,1.2739626001566648,False,22,-1,0,2
Y2-S2-126K25,8,708,AS,exp,46,←,left,←,0.7387457001022995,True,23,-1,0,2
Y2-S2-126K25,8,709,AS,exp,42,→,right,→,0.5711175999604166,True,23,-1,0,2
Y2-S2-126K25,8,710,AS,exp,28,←,left,←,0.7823882000520825,True,23,1,1,3
Y2-S2-126K25,8,711,AS,exp,44,→,left,←,0.8827884001657367,False,22,-1,1,4
Y2-S2-126K25,8,712,AS,exp,48,↑,up,↑,0.8853044002316892,True,23,-1,0,4
Y2-S2-126K25,8,713,AS,exp,28,↓,down,↓,0.9335984997451305,True,23,-1,0,4
Y2-S2-126K25,8,714,AS,exp,46,↑,up,↑,0.6073944000527263,True,23,1,1,5
Y2-S2-126K25,8,715,AS,exp,34,↓,up,↑,0.9435872999019921,False,22,-1,1,6
Y2-S2-126K25,8,716,AS,exp,44,→,right,→,0.7059486997313797,True,23,-1,0,6
Y2-S2-126K25,8,717,AS,exp,42,↑,up,↑,0.8515806002542377,True,23,-1,0,6
Y2-S2-126K25,8,718,AS,exp,48,←,down,↓,1.7789325998164713,False,23,-1,0,6
Y2-S2-126K25,8,719,AS,exp,25,↑,down,↓,0.984355800319463,False,24,-1,0,6
Y2-S2-126K25,8,720,AS,exp,42,↓,down,↓,1.1038148002699018,True,25,-1,0,6
Y2-S2-126K25,8,721,AS,exp,38,↑,up,↑,0.6292658001184464,True,25,-1,0,6
Y2-S2-126K25,8,722,AS,exp,45,←,no_key,no_letter,-1.0,False,25,-1,0,6
Y2-S2-126K25,8,723,AS,exp,41,↑,up,↑,0.5672716000117362,True,26,-1,0,6
Y2-S2-126K25,8,724,AS,exp,32,↓,down,↓,0.6549853002652526,True,26,-1,0,6
Y2-S2-126K25,8,725,AS,exp,38,←,left,←,0.6832362003624439,True,26,1,1,7
Y2-S2-126K25,8,726,AS,exp,39,→,right,→,0.7326632998883724,True,25,1,0,7
Y2-S2-126K25,8,727,AS,exp,45,↓,down,↓,0.8456368003971875,True,25,1,0,7
Y2-S2-126K25,8,728,AS,exp,49,←,left,←,0.8607012000866234,True,25,1,0,7
Y2-S2-126K25,8,729,AS,exp,33,↓,down,↓,0.8624780001118779,True,24,1,0,7
Y2-S2-126K25,8,730,AS,exp,29,←,left,←,0.5862785000354052,True,24,1,0,7
Y2-S2-126K25,8,731,AS,exp,42,↑,up,↑,0.7358821001835167,True,24,1,0,7
Y2-S2-126K25,8,732,AS,exp,34,↓,down,↓,1.3010819000191987,True,23,1,0,7
Y2-S2-126K25,8,733,AS,exp,38,↑,up,↑,0.5004915003664792,True,23,1,0,7
Y2-S2-126K25,8,734,AS,exp,33,←,left,←,1.3043933999724686,True,23,1,0,7
Y2-S2-126K25,8,735,AS,exp,26,→,right,→,0.4835041998885572,True,22,1,0,7
Y2-S2-126K25,8,736,AS,exp,25,↑,down,↓,0.8722581001929939,False,22,-1,1,8
Y2-S2-126K25,8,737,AS,exp,41,→,right,→,0.9086643997579813,True,23,-1,0,8
Y2-S2-126K25,8,738,AS,exp,48,↓,up,↑,0.8539240998215973,False,23,-1,0,8
Y2-S2-126K25,8,739,AS,exp,44,←,left,←,0.6505863997153938,True,24,-1,0,8
Y2-S2-126K25,8,740,AS,exp,36,↑,right,→,1.168845399748534,False,24,-1,0,8
Y2-S2-126K25,8,741,AS,exp,43,→,right,→,0.6848810003139079,True,25,-1,0,8
Y2-S2-126K25,8,742,AS,exp,36,↑,up,↑,1.354506100062281,True,25,-1,0,8
Y2-S2-126K25,8,743,AS,exp,33,↓,right,→,1.052028900012374,False,25,-1,0,8
Y2-S2-126K25,8,744,AS,exp,42,↑,up,↑,0.5170104997232556,True,26,-1,0,8
Y2-S2-126K25,8,745,AS,exp,49,↓,down,↓,0.46689809998497367,True,26,-1,0,8
Y2-S2-126K25,8,746,AS,exp,26,←,left,←,2.050862899981439,True,26,1,1,9
Y2-S2-126K25,8,747,AS,exp,34,↓,down,↓,0.5339024001732469,True,25,1,0,9
Y2-S2-126K25,8,748,AS,exp,30,←,left,←,0.45007470017299056,True,25,1,0,9
Y2-S2-126K25,8,749,AS,exp,28,↓,down,↓,0.8259942000731826,True,25,1,0,9
Y2-S2-126K25,8,750,AS,exp,28,↑,up,↑,0.8426680001430213,True,24,1,0,9
Y2-S2-126K25,8,751,AS,exp,32,↓,down,↓,0.6187134999781847,True,24,1,0,9
Y2-S2-126K25,8,752,AS,exp,25,↑,down,↓,0.9335658000782132,False,24,-1,1,10
Y2-S2-126K25,8,753,AS,exp,43,←,right,→,0.8082407000474632,False,25,-1,0,10
Y2-S2-126K25,8,754,AS,exp,31,↓,down,↓,0.7697276999242604,True,26,-1,0,10
Y2-S2-126K25,8,755,AS,exp,40,↑,down,↓,1.0048703998327255,False,26,-1,0,10
Y2-S2-126K25,8,756,AS,exp,42,←,left,←,0.669255499728024,True,27,-1,0,10
Y2-S2-126K25,8,757,AS,exp,49,↑,up,↑,0.5174652999266982,True,27,-1,0,10
Y2-S2-126K25,8,758,AS,exp,28,→,right,→,0.6550875999964774,True,27,1,1,11
Y2-S2-126K25,8,759,AS,exp,27,↓,down,↓,0.483581000007689,True,26,1,0,11
Y2-S2-126K25,8,760,AS,exp,39,↑,up,↑,0.4503421001136303,True,26,1,0,11
Y2-S2-126K25,8,761,AS,exp,41,↓,down,↓,0.8799531999975443,True,26,1,0,11
Y2-S2-126K25,8,762,AS,exp,44,→,right,→,0.5005323998630047,True,25,1,0,11
Y2-S2-126K25,8,763,AS,exp,39,↓,right,→,1.1416972000151873,False,25,-1,1,12
Y2-S2-126K25,8,764,AS,exp,25,←,left,←,0.6564152999781072,True,26,-1,0,12
Y2-S2-126K25,8,765,AS,exp,40,→,right,→,0.7647426999174058,True,26,-1,0,12
Y2-S2-126K25,8,766,AS,exp,26,↓,down,↓,0.6676866998896003,True,26,1,1,13
Y2-S2-126K25,8,767,AS,exp,35,→,up,↑,1.0379466000013053,False,25,-1,1,14
Y2-S2-126K25,8,768,AS,exp,35,↓,down,↓,0.915345000103116,True,26,-1,0,14
Y2-S2-126K25,8,769,AS,exp,42,→,right,→,0.6211616997607052,True,26,-1,0,14
Y2-S2-126K25,8,770,AS,exp,42,←,left,←,0.6920970999635756,True,26,1,1,15
Y2-S2-126K25,8,771,AS,exp,42,↑,no_key,no_letter,-1.0,False,25,-1,1,16
