PART_ID,Block_no,Trial_no,Block_type,Trial_type,CSI,Stim_letter,Key_pressed,letter_choose,Rt,Corr,Stimulus Time,Level,Reversal,Revs_count
Y2-S2-280M21,1,1,PS,train,33,↑,up,↑,1.8721175999962725,True,30,-,-,-
Y2-S2-280M21,1,2,PS,train,42,→,right,→,0.6010761000216007,True,30,-,-,-
Y2-S2-280M21,1,3,PS,train,27,↑,up,↑,0.5507123999996111,True,30,-,-,-
Y2-S2-280M21,1,4,PS,train,32,↓,up,↑,0.48487459996249527,False,30,-,-,-
Y2-S2-280M21,1,5,PS,train,50,→,right,→,0.5672520999796689,True,30,-,-,-
Y2-S2-280M21,1,6,PS,train,48,←,left,←,0.4009801999782212,True,30,-,-,-
Y2-S2-280M21,1,7,PS,train,44,↓,down,↓,0.6338654999854043,True,30,-,-,-
Y2-S2-280M21,1,8,PS,train,44,→,right,→,0.4011241999687627,True,30,-,-,-
Y2-S2-280M21,1,9,PS,train,50,↓,down,↓,0.5006685999687761,True,30,-,-,-
Y2-S2-280M21,1,10,PS,train,36,↑,up,↑,0.4344006000319496,True,30,-,-,-
Y2-S2-280M21,2,11,AS,train,30,←,left,←,0.9464662999962457,True,45,-,-,-
Y2-S2-280M21,2,12,AS,train,43,↑,up,↑,0.7672605999978259,True,45,-,-,-
Y2-S2-280M21,2,13,AS,train,35,↓,down,↓,0.7175324999843724,True,45,-,-,-
Y2-S2-280M21,2,14,AS,train,40,↑,down,↓,0.567885100026615,False,45,-,-,-
Y2-S2-280M21,2,15,AS,train,33,→,right,→,0.6344446000293829,True,45,-,-,-
Y2-S2-280M21,2,16,AS,train,46,↑,up,↑,0.7671328000142239,True,45,-,-,-
Y2-S2-280M21,2,17,AS,train,33,↓,down,↓,0.517670699977316,True,45,-,-,-
Y2-S2-280M21,2,18,AS,train,41,←,left,←,0.500550500000827,True,45,-,-,-
Y2-S2-280M21,2,19,AS,train,39,↑,up,↑,0.8676928000058979,True,45,-,-,-
Y2-S2-280M21,2,20,AS,train,33,→,right,→,0.38417949998984113,True,45,-,-,-
Y2-S2-280M21,-,21,PS,adaptive,35,↓,down,↓,0.4891269999789074,True,10,0,0,0
Y2-S2-280M21,-,22,PS,adaptive,48,↑,up,↑,0.4693729000282474,True,10,0,0,0
Y2-S2-280M21,-,23,PS,adaptive,39,→,up,↑,1.043930799991358,False,10,-1,0,0
Y2-S2-280M21,-,24,PS,adaptive,47,↑,left,←,0.8751993000041693,False,11,-1,0,0
Y2-S2-280M21,-,25,PS,adaptive,27,→,right,→,0.7434392000432126,True,12,-1,0,0
Y2-S2-280M21,-,26,PS,adaptive,37,←,left,←,0.4260778999887407,True,12,-1,0,0
Y2-S2-280M21,-,27,PS,adaptive,39,→,right,→,0.3932024999521673,True,12,1,1,1
Y2-S2-280M21,-,28,PS,adaptive,30,←,up,↑,0.7915930000017397,False,11,-1,1,2
Y2-S2-280M21,-,29,PS,adaptive,38,→,right,→,0.41104119998635724,True,12,-1,0,2
Y2-S2-280M21,-,30,PS,adaptive,40,↑,up,↑,0.6312997000059113,True,12,-1,0,2
Y2-S2-280M21,-,31,PS,adaptive,38,←,left,←,0.4586684999521822,True,12,1,1,3
Y2-S2-280M21,-,32,PS,adaptive,30,↓,down,↓,0.461488000000827,True,11,1,0,3
Y2-S2-280M21,-,33,PS,adaptive,29,→,right,→,0.721082900010515,True,11,1,0,3
Y2-S2-280M21,-,34,PS,adaptive,25,↓,down,↓,0.5908827999955975,True,11,1,0,3
Y2-S2-280M21,-,35,PS,adaptive,45,←,left,←,0.5361262999940664,True,10,1,0,3
Y2-S2-280M21,-,36,PS,adaptive,39,→,right,→,0.45155649998923764,True,10,1,0,3
Y2-S2-280M21,-,37,PS,adaptive,47,←,left,←,0.42996050004148856,True,10,1,0,3
Y2-S2-280M21,-,38,PS,adaptive,36,↑,up,↑,0.45152570004574955,True,9,1,0,3
Y2-S2-280M21,-,39,PS,adaptive,34,→,left,←,0.7024970999918878,False,9,-1,1,4
Y2-S2-280M21,-,40,AS,adaptive,34,↓,down,↓,0.8867008000379428,True,20,0,0,0
Y2-S2-280M21,-,41,AS,adaptive,30,↑,up,↑,0.4505633999942802,True,20,0,0,0
Y2-S2-280M21,-,42,AS,adaptive,43,←,left,←,0.46702929999446496,True,20,1,0,0
Y2-S2-280M21,-,43,AS,adaptive,37,→,down,↓,1.2188744999584742,False,19,-1,1,1
Y2-S2-280M21,-,44,AS,adaptive,27,↑,left,←,0.8986729999887757,False,20,-1,0,1
Y2-S2-280M21,-,45,AS,adaptive,48,←,left,←,1.0503399000153877,True,21,-1,0,1
Y2-S2-280M21,-,46,AS,adaptive,32,↑,up,↑,0.6324486999656074,True,21,-1,0,1
Y2-S2-280M21,-,47,AS,adaptive,29,→,down,↓,0.9182517000008374,False,21,-1,0,1
Y2-S2-280M21,-,48,AS,adaptive,49,↓,right,→,0.9585121999843977,False,22,-1,0,1
Y2-S2-280M21,-,49,AS,adaptive,45,←,left,←,0.781507900042925,True,23,-1,0,1
Y2-S2-280M21,-,50,AS,adaptive,26,→,right,→,0.7267587000387721,True,23,-1,0,1
Y2-S2-280M21,-,51,AS,adaptive,39,←,left,←,0.8216913000214845,True,23,1,1,2
Y2-S2-280M21,-,52,AS,adaptive,35,→,right,→,0.7128372999723069,True,22,1,0,2
Y2-S2-280M21,-,53,AS,adaptive,49,←,left,←,0.7217326000100002,True,22,1,0,2
Y2-S2-280M21,-,54,AS,adaptive,25,↓,down,↓,1.1065634000115097,True,22,1,0,2
Y2-S2-280M21,-,55,AS,adaptive,27,→,left,←,0.7697632000199519,False,21,-1,1,3
Y2-S2-280M21,-,56,AS,adaptive,27,↓,down,↓,0.6564489000011235,True,22,-1,0,3
Y2-S2-280M21,-,57,AS,adaptive,48,←,left,←,0.5435540999751538,True,22,-1,0,3
Y2-S2-280M21,-,58,AS,adaptive,41,→,left,←,0.7922173000406474,False,22,-1,0,3
Y2-S2-280M21,-,59,AS,adaptive,43,←,left,←,0.6462651999900118,True,23,-1,0,3
Y2-S2-280M21,-,60,AS,adaptive,33,↑,up,↑,0.778716099972371,True,23,-1,0,3
Y2-S2-280M21,-,61,AS,adaptive,37,←,left,←,0.70888340001693,True,23,1,1,4
Y2-S2-280M21,1,62,AS,intra_train,27,↓,down,↓,0.8078656999859959,True,33,-,-,-
Y2-S2-280M21,1,63,AS,intra_train,39,→,right,→,0.7798300000140443,True,33,-,-,-
Y2-S2-280M21,1,64,AS,intra_train,39,↑,up,↑,0.4510861999588087,True,33,-,-,-
Y2-S2-280M21,1,65,AS,intra_train,31,↓,down,↓,0.5175648999866098,True,33,-,-,-
Y2-S2-280M21,1,66,AS,intra_train,42,←,left,←,0.5176074000191875,True,33,-,-,-
Y2-S2-280M21,1,67,AS,exp,36,↑,down,↓,0.5998688999679871,False,22,-1,0,0
Y2-S2-280M21,1,68,AS,exp,37,←,right,→,0.6456164999981411,False,23,-1,0,0
Y2-S2-280M21,1,69,AS,exp,35,↑,up,↑,0.43396109994500875,True,24,-1,0,0
Y2-S2-280M21,1,70,AS,exp,25,→,right,→,0.41742439998779446,True,24,-1,0,0
Y2-S2-280M21,1,71,AS,exp,27,↑,up,↑,0.41719569999258965,True,24,1,1,1
Y2-S2-280M21,1,72,AS,exp,49,→,right,→,0.5875660000019707,True,23,1,0,1
Y2-S2-280M21,1,73,AS,exp,26,↓,down,↓,1.1051310000475496,True,23,1,0,1
Y2-S2-280M21,1,74,AS,exp,34,↑,left,←,0.8107015999848954,False,23,-1,1,2
Y2-S2-280M21,1,75,AS,exp,40,←,left,←,0.4842260000295937,True,24,-1,0,2
Y2-S2-280M21,1,76,AS,exp,28,↓,down,↓,0.45047989999875426,True,24,-1,0,2
Y2-S2-280M21,1,77,AS,exp,44,↑,up,↑,0.8214950999827124,True,24,1,1,3
Y2-S2-280M21,1,78,AS,exp,32,←,left,←,0.4669520999887027,True,23,1,0,3
Y2-S2-280M21,1,79,AS,exp,44,↓,down,↓,0.4510868000215851,True,23,1,0,3
Y2-S2-280M21,1,80,AS,exp,26,→,right,→,0.4506594000267796,True,23,1,0,3
Y2-S2-280M21,1,81,AS,exp,31,←,left,←,0.5700422000372782,True,22,1,0,3
Y2-S2-280M21,1,82,AS,exp,38,→,right,→,1.006685100030154,True,22,1,0,3
Y2-S2-280M21,1,83,AS,exp,39,↑,up,↑,0.7566455000196584,True,22,1,0,3
Y2-S2-280M21,1,84,AS,exp,41,→,right,→,0.7884489999851212,True,21,1,0,3
Y2-S2-280M21,1,85,AS,exp,25,↓,up,↑,0.6857779999845661,False,21,-1,1,4
Y2-S2-280M21,1,86,AS,exp,43,→,no_key,no_letter,-1.0,False,22,-1,0,4
Y2-S2-280M21,1,87,AS,exp,26,↑,up,↑,0.4005030000116676,True,23,-1,0,4
Y2-S2-280M21,1,88,AS,exp,45,↓,down,↓,0.46762630000011995,True,23,-1,0,4
Y2-S2-280M21,1,89,AS,exp,49,→,right,→,0.990486399969086,True,23,1,1,5
Y2-S2-280M21,1,90,AS,exp,36,↑,up,↑,0.46793599997181445,True,22,1,0,5
Y2-S2-280M21,1,91,AS,exp,34,←,left,←,0.6146751999622211,True,22,1,0,5
Y2-S2-280M21,1,92,AS,exp,41,→,right,→,0.5928068000357598,True,22,1,0,5
Y2-S2-280M21,1,93,AS,exp,38,↑,up,↑,0.8673736000200734,True,21,1,0,5
Y2-S2-280M21,1,94,AS,exp,42,↓,down,↓,0.5645661000162363,True,21,1,0,5
Y2-S2-280M21,1,95,AS,exp,43,↑,up,↑,0.7577293000067584,True,21,1,0,5
Y2-S2-280M21,1,96,AS,exp,31,→,left,←,0.6234826000290923,False,20,-1,1,6
Y2-S2-280M21,1,97,AS,exp,27,←,left,←,0.6475858999765478,True,21,-1,0,6
Y2-S2-280M21,1,98,AS,exp,50,↑,up,↑,0.8227608999586664,True,21,-1,0,6
Y2-S2-280M21,1,99,AS,exp,34,→,left,←,0.6619296999997459,False,21,-1,0,6
Y2-S2-280M21,1,100,AS,exp,45,↓,down,↓,0.7198942000395618,True,22,-1,0,6
Y2-S2-280M21,1,101,AS,exp,32,→,right,→,0.736650999984704,True,22,-1,0,6
Y2-S2-280M21,1,102,AS,exp,47,←,left,←,0.3839408999774605,True,22,1,1,7
Y2-S2-280M21,1,103,AS,exp,37,↑,up,↑,0.7124921000213362,True,21,1,0,7
Y2-S2-280M21,1,104,AS,exp,36,←,left,←,0.4172023999853991,True,21,1,0,7
Y2-S2-280M21,1,105,AS,exp,26,→,right,→,0.7371439000125974,True,21,1,0,7
Y2-S2-280M21,1,106,AS,exp,43,↑,left,←,1.1525161000317894,False,20,-1,1,8
Y2-S2-280M21,1,107,AS,exp,42,←,left,←,0.40015359997050837,True,21,-1,0,8
Y2-S2-280M21,1,108,AS,exp,28,↓,down,↓,0.5211171999690123,True,21,-1,0,8
Y2-S2-280M21,1,109,AS,exp,46,←,left,←,0.38379620003979653,True,21,1,1,9
Y2-S2-280M21,1,110,AS,exp,30,↓,down,↓,0.7301317000528798,True,20,1,0,9
Y2-S2-280M21,1,111,AS,exp,41,→,up,↑,0.7751781999832019,False,20,-1,1,10
Y2-S2-280M21,1,112,AS,exp,38,↑,right,→,0.7018692999845371,False,21,-1,0,10
Y2-S2-280M21,1,113,AS,exp,25,→,left,←,0.7166363999713212,False,22,-1,0,10
Y2-S2-280M21,1,114,AS,exp,48,↑,up,↑,0.6994962000171654,True,23,-1,0,10
Y2-S2-280M21,1,115,AS,exp,43,→,right,→,0.45089500001631677,True,23,-1,0,10
Y2-S2-280M21,1,116,AS,exp,33,↑,up,↑,1.1702115999651141,True,23,1,1,11
Y2-S2-280M21,1,117,AS,exp,27,↓,down,↓,0.6037367000244558,True,22,1,0,11
Y2-S2-280M21,1,118,AS,exp,49,←,left,←,0.6774406000040472,True,22,1,0,11
Y2-S2-280M21,1,119,AS,exp,32,→,down,↓,0.8948706000228412,False,22,-1,1,12
Y2-S2-280M21,1,120,AS,exp,31,↑,up,↑,0.7275046000140719,True,23,-1,0,12
Y2-S2-280M21,1,121,AS,exp,27,→,right,→,0.6034620000282302,True,23,-1,0,12
Y2-S2-280M21,1,122,AS,exp,34,↓,down,↓,0.48364270001184195,True,23,1,1,13
Y2-S2-280M21,1,123,AS,exp,38,↑,up,↑,0.8804931999766268,True,22,1,0,13
Y2-S2-280M21,1,124,AS,exp,25,→,right,→,0.650142099999357,True,22,1,0,13
Y2-S2-280M21,1,125,AS,exp,34,↑,up,↑,0.4183416999876499,True,22,1,0,13
Y2-S2-280M21,1,126,AS,exp,25,←,left,←,0.41648660000646487,True,21,1,0,13
Y2-S2-280M21,1,127,AS,exp,27,↓,down,↓,0.48396719997981563,True,21,1,0,13
Y2-S2-280M21,1,128,AS,exp,46,←,left,←,0.41728160000639036,True,21,1,0,13
Y2-S2-280M21,1,129,AS,exp,30,↑,right,→,1.0650631000171416,False,20,-1,1,14
Y2-S2-280M21,1,130,AS,exp,40,↓,down,↓,0.5340822999714874,True,21,-1,0,14
Y2-S2-280M21,1,131,AS,exp,36,←,left,←,0.7429211999988183,True,21,-1,0,14
Y2-S2-280M21,1,132,AS,exp,45,↑,up,↑,0.41721840004902333,True,21,1,1,15
Y2-S2-280M21,1,133,AS,exp,27,→,right,→,0.5549037999589927,True,20,1,0,15
Y2-S2-280M21,1,134,AS,exp,33,↓,down,↓,0.4507211000309326,True,20,1,0,15
Y2-S2-280M21,1,135,AS,exp,27,↑,up,↑,0.706187600037083,True,20,1,0,15
Y2-S2-280M21,1,136,AS,exp,39,→,right,→,0.7772236000164412,True,19,1,0,15
Y2-S2-280M21,1,137,AS,exp,44,←,right,→,0.769058000005316,False,19,-1,1,16
Y2-S2-280M21,2,138,PS,intra_train,48,↑,up,↑,0.4520115999621339,True,15,-,-,-
Y2-S2-280M21,2,139,PS,intra_train,33,←,left,←,0.5491515000467189,True,15,-,-,-
Y2-S2-280M21,2,140,PS,intra_train,41,↓,down,↓,0.5565045000403188,True,15,-,-,-
Y2-S2-280M21,2,141,PS,intra_train,42,←,left,←,0.5461238999851048,True,15,-,-,-
Y2-S2-280M21,2,142,PS,intra_train,32,↑,left,←,0.778214999998454,False,15,-,-,-
Y2-S2-280M21,2,143,PS,exp,39,←,left,←,0.45230720000108704,True,10,0,0,0
Y2-S2-280M21,2,144,PS,exp,33,↑,up,↑,0.4206586999935098,True,10,0,0,0
Y2-S2-280M21,2,145,PS,exp,33,↓,down,↓,0.5693933999864385,True,10,1,0,0
Y2-S2-280M21,2,146,PS,exp,46,←,left,←,0.4502286000060849,True,9,1,0,0
Y2-S2-280M21,2,147,PS,exp,33,→,up,↑,0.7266207999782637,False,9,-1,1,1
Y2-S2-280M21,2,148,PS,exp,27,↑,up,↑,0.41926799999782816,True,10,-1,0,1
Y2-S2-280M21,2,149,PS,exp,39,→,left,←,0.8738161000073887,False,10,-1,0,1
Y2-S2-280M21,2,150,PS,exp,38,←,left,←,0.8667668999987654,True,11,-1,0,1
Y2-S2-280M21,2,151,PS,exp,43,→,right,→,0.4519563000067137,True,11,-1,0,1
Y2-S2-280M21,2,152,PS,exp,43,↑,down,↓,1.0430378000019118,False,11,-1,0,1
Y2-S2-280M21,2,153,PS,exp,28,←,left,←,0.8280035000061616,True,12,-1,0,1
Y2-S2-280M21,2,154,PS,exp,36,↓,up,↑,0.729343399987556,False,12,-1,0,1
Y2-S2-280M21,2,155,PS,exp,40,→,right,→,0.6879620999679901,True,13,-1,0,1
Y2-S2-280M21,2,156,PS,exp,26,←,down,↓,0.9043848000001162,False,13,-1,0,1
Y2-S2-280M21,2,157,PS,exp,30,↑,up,↑,0.5506385000189766,True,14,-1,0,1
Y2-S2-280M21,2,158,PS,exp,47,→,right,→,0.5658875000081025,True,14,-1,0,1
Y2-S2-280M21,2,159,PS,exp,25,↑,up,↑,0.6831834000186063,True,14,1,1,2
Y2-S2-280M21,2,160,PS,exp,31,→,right,→,0.4342596000060439,True,13,1,0,2
Y2-S2-280M21,2,161,PS,exp,45,←,left,←,0.4296246000449173,True,13,1,0,2
Y2-S2-280M21,2,162,PS,exp,44,→,right,→,0.5151263999869116,True,13,1,0,2
Y2-S2-280M21,2,163,PS,exp,26,↓,down,↓,0.4453416000469588,True,12,1,0,2
Y2-S2-280M21,2,164,PS,exp,26,←,left,←,0.4679232999915257,True,12,1,0,2
Y2-S2-280M21,2,165,PS,exp,28,→,up,↑,0.643490299989935,False,12,-1,1,3
Y2-S2-280M21,2,166,PS,exp,44,↑,up,↑,0.46141160000115633,True,13,-1,0,3
Y2-S2-280M21,2,167,PS,exp,34,←,up,↑,0.7107099000131711,False,13,-1,0,3
Y2-S2-280M21,2,168,PS,exp,47,↓,down,↓,0.481466899975203,True,14,-1,0,3
Y2-S2-280M21,2,169,PS,exp,33,→,right,→,0.4248513999627903,True,14,-1,0,3
Y2-S2-280M21,2,170,PS,exp,30,←,left,←,0.4951720999670215,True,14,1,1,4
Y2-S2-280M21,2,171,PS,exp,42,↑,up,↑,0.4183970000012778,True,13,1,0,4
Y2-S2-280M21,2,172,PS,exp,43,←,left,←,0.4067951000179164,True,13,1,0,4
Y2-S2-280M21,2,173,PS,exp,40,↑,up,↑,0.40594130003592,True,13,1,0,4
Y2-S2-280M21,2,174,PS,exp,49,→,right,→,0.5611603999859653,True,12,1,0,4
Y2-S2-280M21,2,175,PS,exp,41,↑,up,↑,0.43512749997898936,True,12,1,0,4
Y2-S2-280M21,2,176,PS,exp,39,↓,down,↓,0.8736768999951892,True,12,1,0,4
Y2-S2-280M21,2,177,PS,exp,43,←,left,←,0.5094587999628857,True,11,1,0,4
Y2-S2-280M21,2,178,PS,exp,33,→,right,→,0.5773845000076108,True,11,1,0,4
Y2-S2-280M21,2,179,PS,exp,44,←,left,←,0.5793764000409283,True,11,1,0,4
Y2-S2-280M21,2,180,PS,exp,28,↑,up,↑,0.4335715000052005,True,10,1,0,4
Y2-S2-280M21,2,181,PS,exp,28,↓,down,↓,0.4772604000172578,True,10,1,0,4
Y2-S2-280M21,2,182,PS,exp,27,←,left,←,0.5566891999915242,True,10,1,0,4
Y2-S2-280M21,2,183,PS,exp,41,↓,right,→,0.6319766000378877,False,9,-1,1,5
Y2-S2-280M21,2,184,PS,exp,29,←,left,←,0.7722197000402957,True,10,-1,0,5
Y2-S2-280M21,2,185,PS,exp,43,↓,left,←,0.5607778999838047,False,10,-1,0,5
Y2-S2-280M21,2,186,PS,exp,33,←,left,←,0.4391906999517232,True,11,-1,0,5
Y2-S2-280M21,2,187,PS,exp,37,↑,up,↑,0.5196692000026815,True,11,-1,0,5
Y2-S2-280M21,2,188,PS,exp,39,→,left,←,0.6882702999864705,False,11,-1,0,5
Y2-S2-280M21,2,189,PS,exp,26,←,left,←,0.4132940000272356,True,12,-1,0,5
Y2-S2-280M21,2,190,PS,exp,29,↑,left,←,0.8344818000332452,False,12,-1,0,5
Y2-S2-280M21,2,191,PS,exp,30,↓,down,↓,0.5674489000230096,True,13,-1,0,5
Y2-S2-280M21,2,192,PS,exp,28,→,left,←,0.5751123999943957,False,13,-1,0,5
Y2-S2-280M21,2,193,PS,exp,41,↑,up,↑,0.413465499994345,True,14,-1,0,5
Y2-S2-280M21,2,194,PS,exp,33,→,right,→,0.4689344000071287,True,14,-1,0,5
Y2-S2-280M21,2,195,PS,exp,26,←,left,←,0.5937280000071041,True,14,1,1,6
Y2-S2-280M21,2,196,PS,exp,26,↑,up,↑,0.462500799971167,True,13,1,0,6
Y2-S2-280M21,2,197,PS,exp,35,→,left,←,0.790018500003498,False,13,-1,1,7
Y2-S2-280M21,2,198,PS,exp,40,←,left,←,0.5123680000542663,True,14,-1,0,7
Y2-S2-280M21,2,199,PS,exp,37,↑,up,↑,0.4904629000229761,True,14,-1,0,7
Y2-S2-280M21,2,200,PS,exp,25,←,right,→,0.6591373999835923,False,14,-1,0,7
Y2-S2-280M21,2,201,PS,exp,28,↑,left,←,0.8331563000101596,False,15,-1,0,7
Y2-S2-280M21,2,202,PS,exp,36,↓,down,↓,0.5966756999841891,True,16,-1,0,7
Y2-S2-280M21,2,203,PS,exp,45,←,left,←,1.143831399967894,True,16,-1,0,7
Y2-S2-280M21,2,204,PS,exp,35,↓,down,↓,0.47552159999031574,True,16,1,1,8
Y2-S2-280M21,2,205,PS,exp,30,→,right,→,0.5654877999913879,True,15,1,0,8
Y2-S2-280M21,2,206,PS,exp,48,↑,up,↑,0.44843670004047453,True,15,1,0,8
Y2-S2-280M21,2,207,PS,exp,39,↓,down,↓,0.4732660999870859,True,15,1,0,8
Y2-S2-280M21,2,208,PS,exp,44,→,right,→,0.46348140004556626,True,14,1,0,8
Y2-S2-280M21,2,209,PS,exp,40,↑,up,↑,0.612975700001698,True,14,1,0,8
Y2-S2-280M21,2,210,PS,exp,26,↓,down,↓,0.4782219000044279,True,14,1,0,8
Y2-S2-280M21,2,211,PS,exp,34,→,right,→,0.49281050002900884,True,13,1,0,8
Y2-S2-280M21,2,212,PS,exp,34,↓,down,↓,0.47659650002606213,True,13,1,0,8
Y2-S2-280M21,2,213,PS,exp,50,↑,up,↑,0.4353341000387445,True,13,1,0,8
Y2-S2-280M21,2,214,PS,exp,49,↓,down,↓,0.5722951999632642,True,12,1,0,8
Y2-S2-280M21,2,215,PS,exp,27,↑,left,←,1.049308200017549,False,12,-1,1,9
Y2-S2-280M21,2,216,PS,exp,25,→,right,→,0.5255066999816336,True,13,-1,0,9
Y2-S2-280M21,2,217,PS,exp,49,←,left,←,0.5832287999801338,True,13,-1,0,9
Y2-S2-280M21,2,218,PS,exp,33,↑,up,↑,0.49592780001694337,True,13,1,1,10
Y2-S2-280M21,2,219,PS,exp,34,↓,down,↓,0.4595943000167608,True,12,1,0,10
Y2-S2-280M21,2,220,PS,exp,40,→,right,→,0.45910599996568635,True,12,1,0,10
Y2-S2-280M21,2,221,PS,exp,40,↓,down,↓,0.48812610004097223,True,12,1,0,10
Y2-S2-280M21,2,222,PS,exp,48,↑,up,↑,0.48845090001123026,True,11,1,0,10
Y2-S2-280M21,2,223,PS,exp,42,↓,left,←,0.7773477000300772,False,11,-1,1,11
Y2-S2-280M21,2,224,PS,exp,45,←,left,←,0.7171310000121593,True,12,-1,0,11
Y2-S2-280M21,2,225,PS,exp,42,→,right,→,0.6633888999931514,True,12,-1,0,11
Y2-S2-280M21,2,226,PS,exp,37,↑,down,↓,0.5985393000300974,False,12,-1,0,11
Y2-S2-280M21,2,227,PS,exp,30,←,up,↑,0.6009726999909617,False,13,-1,0,11
Y2-S2-280M21,2,228,PS,exp,42,↑,left,←,0.6482252999558114,False,14,-1,0,11
Y2-S2-280M21,2,229,PS,exp,32,↓,down,↓,0.5408232999616303,True,15,-1,0,11
Y2-S2-280M21,2,230,PS,exp,32,→,right,→,0.7280450999969617,True,15,-1,0,11
Y2-S2-280M21,2,231,PS,exp,39,↑,up,↑,0.45511740003712475,True,15,1,1,12
Y2-S2-280M21,2,232,PS,exp,43,→,right,→,0.5159014000091702,True,14,1,0,12
Y2-S2-280M21,2,233,PS,exp,48,↓,up,↑,0.7811776000307873,False,14,-1,1,13
Y2-S2-280M21,2,234,PS,exp,39,↑,up,↑,0.531217799987644,True,15,-1,0,13
Y2-S2-280M21,2,235,PS,exp,39,↓,down,↓,0.5076293000020087,True,15,-1,0,13
Y2-S2-280M21,2,236,PS,exp,46,↑,up,↑,0.49023499997565523,True,15,1,1,14
Y2-S2-280M21,2,237,PS,exp,50,→,right,→,0.4543100000009872,True,14,1,0,14
Y2-S2-280M21,2,238,PS,exp,44,↑,up,↑,0.5342145999893546,True,14,1,0,14
Y2-S2-280M21,2,239,PS,exp,41,←,right,→,0.7529402999789454,False,14,-1,1,15
Y2-S2-280M21,2,240,PS,exp,44,↓,down,↓,0.5395382000133395,True,15,-1,0,15
Y2-S2-280M21,2,241,PS,exp,26,↑,up,↑,0.44205349998082966,True,15,-1,0,15
Y2-S2-280M21,2,242,PS,exp,40,→,right,→,0.5326901999651454,True,15,1,1,16
Y2-S2-280M21,3,243,PS,intra_train,45,↑,up,↑,0.49310060002608225,True,15,-,-,-
Y2-S2-280M21,3,244,PS,intra_train,31,→,right,→,0.4424548000097275,True,15,-,-,-
Y2-S2-280M21,3,245,PS,intra_train,42,↑,up,↑,0.5206339000142179,True,15,-,-,-
Y2-S2-280M21,3,246,PS,intra_train,44,↓,down,↓,0.540434600028675,True,15,-,-,-
Y2-S2-280M21,3,247,PS,intra_train,35,←,left,←,0.5433442999492399,True,15,-,-,-
Y2-S2-280M21,3,248,PS,exp,42,→,up,↑,0.5859237000113353,False,10,-1,0,0
Y2-S2-280M21,3,249,PS,exp,27,↓,down,↓,0.4829502999782562,True,11,-1,0,0
Y2-S2-280M21,3,250,PS,exp,40,→,left,←,0.7548785000108182,False,11,-1,0,0
Y2-S2-280M21,3,251,PS,exp,39,↑,right,→,0.6359767999965698,False,12,-1,0,0
Y2-S2-280M21,3,252,PS,exp,30,←,left,←,0.4821164000313729,True,13,-1,0,0
Y2-S2-280M21,3,253,PS,exp,25,→,left,←,0.7878273000242189,False,13,-1,0,0
Y2-S2-280M21,3,254,PS,exp,35,↓,down,↓,0.4428520000074059,True,14,-1,0,0
Y2-S2-280M21,3,255,PS,exp,41,←,left,←,1.035225800005719,True,14,-1,0,0
Y2-S2-280M21,3,256,PS,exp,32,↓,down,↓,0.48789859999669716,True,14,1,1,1
Y2-S2-280M21,3,257,PS,exp,47,←,left,←,0.49785679997876287,True,13,1,0,1
Y2-S2-280M21,3,258,PS,exp,33,→,right,→,0.4782145000062883,True,13,1,0,1
Y2-S2-280M21,3,259,PS,exp,40,←,down,↓,0.89386100001866,False,13,-1,1,2
Y2-S2-280M21,3,260,PS,exp,39,↓,down,↓,1.0023459999938495,True,14,-1,0,2
Y2-S2-280M21,3,261,PS,exp,27,←,left,←,0.6171527999686077,True,14,-1,0,2
Y2-S2-280M21,3,262,PS,exp,42,↑,left,←,0.8230489999987185,False,14,-1,0,2
Y2-S2-280M21,3,263,PS,exp,43,→,right,→,0.7029009999823757,True,15,-1,0,2
Y2-S2-280M21,3,264,PS,exp,47,↓,down,↓,1.3120687000337057,True,15,-1,0,2
Y2-S2-280M21,3,265,PS,exp,41,←,left,←,1.0435610999702476,True,15,1,1,3
Y2-S2-280M21,3,266,PS,exp,47,→,right,→,0.4226578999659978,True,14,1,0,3
Y2-S2-280M21,3,267,PS,exp,28,←,left,←,0.6049066000268795,True,14,1,0,3
Y2-S2-280M21,3,268,PS,exp,28,↑,up,↑,0.429095099971164,True,14,1,0,3
Y2-S2-280M21,3,269,PS,exp,47,↓,down,↓,0.8301566999871284,True,13,1,0,3
Y2-S2-280M21,3,270,PS,exp,28,←,left,←,0.40085269999690354,True,13,1,0,3
Y2-S2-280M21,3,271,PS,exp,40,↑,down,↓,0.8181136000202969,False,13,-1,1,4
Y2-S2-280M21,3,272,PS,exp,32,↓,down,↓,0.42299350001849234,True,14,-1,0,4
Y2-S2-280M21,3,273,PS,exp,26,←,left,←,0.4609665999887511,True,14,-1,0,4
Y2-S2-280M21,3,274,PS,exp,45,↑,up,↑,0.43962869996903464,True,14,1,1,5
Y2-S2-280M21,3,275,PS,exp,35,←,left,←,0.9163111000088975,True,13,1,0,5
Y2-S2-280M21,3,276,PS,exp,33,↑,up,↑,0.4419989999732934,True,13,1,0,5
Y2-S2-280M21,3,277,PS,exp,43,↓,down,↓,0.539482299995143,True,13,1,0,5
Y2-S2-280M21,3,278,PS,exp,33,↑,up,↑,0.43907310004578903,True,12,1,0,5
Y2-S2-280M21,3,279,PS,exp,35,↓,left,←,0.37852529995143414,False,12,-1,1,6
Y2-S2-280M21,3,280,PS,exp,48,←,down,↓,0.7882855000207201,False,13,-1,0,6
Y2-S2-280M21,3,281,PS,exp,49,↓,up,↑,0.7122508999891579,False,14,-1,0,6
Y2-S2-280M21,3,282,PS,exp,25,←,right,→,0.8143594000139274,False,15,-1,0,6
Y2-S2-280M21,3,283,PS,exp,27,↓,down,↓,0.5412656999542378,True,16,-1,0,6
Y2-S2-280M21,3,284,PS,exp,38,→,right,→,0.4386831000447273,True,16,-1,0,6
Y2-S2-280M21,3,285,PS,exp,41,↑,right,→,0.8928162000374869,False,16,-1,0,6
Y2-S2-280M21,3,286,PS,exp,48,→,right,→,0.9557906999834813,True,17,-1,0,6
Y2-S2-280M21,3,287,PS,exp,46,↑,up,↑,0.5721466999966651,True,17,-1,0,6
Y2-S2-280M21,3,288,PS,exp,36,→,right,→,0.573440300009679,True,17,1,1,7
Y2-S2-280M21,3,289,PS,exp,32,↓,down,↓,0.45648350002011284,True,16,1,0,7
Y2-S2-280M21,3,290,PS,exp,39,←,left,←,0.47488069999963045,True,16,1,0,7
Y2-S2-280M21,3,291,PS,exp,37,↑,up,↑,0.45351610000943765,True,16,1,0,7
Y2-S2-280M21,3,292,PS,exp,50,←,left,←,0.42859550000866875,True,15,1,0,7
Y2-S2-280M21,3,293,PS,exp,41,↑,left,←,0.8935286000487395,False,15,-1,1,8
Y2-S2-280M21,3,294,PS,exp,44,←,left,←,0.5364231999847107,True,16,-1,0,8
Y2-S2-280M21,3,295,PS,exp,44,→,right,→,0.5929634000058286,True,16,-1,0,8
Y2-S2-280M21,3,296,PS,exp,44,↓,right,→,0.7722152000060305,False,16,-1,0,8
Y2-S2-280M21,3,297,PS,exp,34,←,left,←,0.4171822000062093,True,17,-1,0,8
Y2-S2-280M21,3,298,PS,exp,33,↓,right,→,0.7664495999924839,False,17,-1,0,8
Y2-S2-280M21,3,299,PS,exp,41,→,right,→,0.9863203999702819,True,18,-1,0,8
Y2-S2-280M21,3,300,PS,exp,46,↑,up,↑,1.0008713999995962,True,18,-1,0,8
Y2-S2-280M21,3,301,PS,exp,32,←,left,←,0.48777780000818893,True,18,1,1,9
Y2-S2-280M21,3,302,PS,exp,40,→,right,→,0.9029302999842912,True,17,1,0,9
Y2-S2-280M21,3,303,PS,exp,31,↑,up,↑,0.9161744000157341,True,17,1,0,9
Y2-S2-280M21,3,304,PS,exp,49,←,left,←,0.46818939998047426,True,17,1,0,9
Y2-S2-280M21,3,305,PS,exp,46,→,right,→,0.45789399999193847,True,16,1,0,9
Y2-S2-280M21,3,306,PS,exp,30,↓,down,↓,0.5299916000221856,True,16,1,0,9
Y2-S2-280M21,3,307,PS,exp,25,→,right,→,0.46447460004128516,True,16,1,0,9
Y2-S2-280M21,3,308,PS,exp,48,↑,up,↑,0.4328809999860823,True,15,1,0,9
Y2-S2-280M21,3,309,PS,exp,38,↓,left,←,0.5956509000388905,False,15,-1,1,10
Y2-S2-280M21,3,310,PS,exp,50,←,left,←,0.4413586999871768,True,16,-1,0,10
Y2-S2-280M21,3,311,PS,exp,29,→,right,→,0.46944459999212995,True,16,-1,0,10
Y2-S2-280M21,3,312,PS,exp,29,↑,right,→,0.6578437000280246,False,16,-1,0,10
Y2-S2-280M21,3,313,PS,exp,43,←,up,↑,0.7988242999999784,False,17,-1,0,10
Y2-S2-280M21,3,314,PS,exp,35,→,right,→,0.4698594000074081,True,18,-1,0,10
Y2-S2-280M21,3,315,PS,exp,38,←,right,→,0.5194172999472357,False,18,-1,0,10
Y2-S2-280M21,3,316,PS,exp,35,↑,up,↑,0.4182793000363745,True,19,-1,0,10
Y2-S2-280M21,3,317,PS,exp,34,↓,down,↓,0.5903357000206597,True,19,-1,0,10
Y2-S2-280M21,3,318,PS,exp,31,←,left,←,0.5067228000261821,True,19,1,1,11
Y2-S2-280M21,3,319,PS,exp,38,↓,down,↓,0.5014542000135407,True,18,1,0,11
Y2-S2-280M21,3,320,PS,exp,45,↑,up,↑,0.4009985000011511,True,18,1,0,11
Y2-S2-280M21,3,321,PS,exp,37,→,right,→,0.40047449996927753,True,18,1,0,11
Y2-S2-280M21,3,322,PS,exp,25,↑,up,↑,0.4004848999902606,True,17,1,0,11
Y2-S2-280M21,3,323,PS,exp,29,→,left,←,0.4589253999874927,False,17,-1,1,12
Y2-S2-280M21,3,324,PS,exp,28,↓,down,↓,0.6567870999570005,True,18,-1,0,12
Y2-S2-280M21,3,325,PS,exp,30,→,right,→,0.4342008999665268,True,18,-1,0,12
Y2-S2-280M21,3,326,PS,exp,49,↑,up,↑,0.6447084000101313,True,18,1,1,13
Y2-S2-280M21,3,327,PS,exp,25,→,right,→,1.1014253000030294,True,17,1,0,13
Y2-S2-280M21,3,328,PS,exp,41,←,left,←,0.38382250000722706,True,17,1,0,13
Y2-S2-280M21,3,329,PS,exp,28,→,right,→,0.9402864000294358,True,17,1,0,13
Y2-S2-280M21,3,330,PS,exp,28,↓,down,↓,0.4789431000244804,True,16,1,0,13
Y2-S2-280M21,3,331,PS,exp,47,→,right,→,0.48896559997228906,True,16,1,0,13
Y2-S2-280M21,3,332,PS,exp,32,←,left,←,0.6257290000212379,True,16,1,0,13
Y2-S2-280M21,3,333,PS,exp,25,↓,left,←,0.9979959999909624,False,15,-1,1,14
Y2-S2-280M21,3,334,PS,exp,26,←,left,←,0.5110109999659471,True,16,-1,0,14
Y2-S2-280M21,3,335,PS,exp,45,→,right,→,0.8836214999901131,True,16,-1,0,14
Y2-S2-280M21,3,336,PS,exp,27,←,left,←,1.0831050999695435,True,16,1,1,15
Y2-S2-280M21,3,337,PS,exp,43,↑,down,↓,0.8870271000196226,False,15,-1,1,16
Y2-S2-280M21,4,338,AS,intra_train,35,↓,down,↓,0.7468925999710336,True,33,-,-,-
Y2-S2-280M21,4,339,AS,intra_train,37,↑,up,↑,0.48416870000073686,True,33,-,-,-
Y2-S2-280M21,4,340,AS,intra_train,50,←,left,←,0.7484503000159748,True,33,-,-,-
Y2-S2-280M21,4,341,AS,intra_train,33,↑,up,↑,0.7420487999916077,True,33,-,-,-
Y2-S2-280M21,4,342,AS,intra_train,36,→,right,→,0.4675928999786265,True,33,-,-,-
Y2-S2-280M21,4,343,AS,exp,28,↓,up,↑,0.6502392000402324,False,22,-1,0,0
Y2-S2-280M21,4,344,AS,exp,49,→,right,→,0.4505289000226185,True,23,-1,0,0
Y2-S2-280M21,4,345,AS,exp,25,↑,up,↑,0.5173061999958009,True,23,-1,0,0
Y2-S2-280M21,4,346,AS,exp,26,↓,down,↓,0.4005483000073582,True,23,1,1,1
Y2-S2-280M21,4,347,AS,exp,29,→,right,→,0.584671399963554,True,22,1,0,1
Y2-S2-280M21,4,348,AS,exp,28,↓,down,↓,0.6810901000280865,True,22,1,0,1
Y2-S2-280M21,4,349,AS,exp,42,→,up,↑,0.6069772000191733,False,22,-1,1,2
Y2-S2-280M21,4,350,AS,exp,28,↑,up,↑,0.4337206999771297,True,23,-1,0,2
Y2-S2-280M21,4,351,AS,exp,42,↓,right,→,0.6915384999592789,False,23,-1,0,2
Y2-S2-280M21,4,352,AS,exp,43,←,left,←,0.48404889996163547,True,24,-1,0,2
Y2-S2-280M21,4,353,AS,exp,36,↓,up,↑,0.6073036000016145,False,24,-1,0,2
Y2-S2-280M21,4,354,AS,exp,45,←,down,↓,0.8513543999870308,False,25,-1,0,2
Y2-S2-280M21,4,355,AS,exp,30,↓,down,↓,0.4506483000004664,True,26,-1,0,2
Y2-S2-280M21,4,356,AS,exp,41,←,right,→,0.608596799953375,False,26,-1,0,2
Y2-S2-280M21,4,357,AS,exp,33,↑,up,↑,0.7374107999494299,True,27,-1,0,2
Y2-S2-280M21,4,358,AS,exp,39,↓,down,↓,0.7101453000213951,True,27,-1,0,2
Y2-S2-280M21,4,359,AS,exp,42,←,left,←,0.45056089997524396,True,27,1,1,3
Y2-S2-280M21,4,360,AS,exp,42,→,right,→,0.451644100015983,True,26,1,0,3
Y2-S2-280M21,4,361,AS,exp,46,←,left,←,1.2663727999897674,True,26,1,0,3
Y2-S2-280M21,4,362,AS,exp,36,→,right,→,0.41715880000265315,True,26,1,0,3
Y2-S2-280M21,4,363,AS,exp,42,↑,up,↑,0.41736500000115484,True,25,1,0,3
Y2-S2-280M21,4,364,AS,exp,39,←,left,←,0.3844289999688044,True,25,1,0,3
Y2-S2-280M21,4,365,AS,exp,34,↑,up,↑,0.6357631999999285,True,25,1,0,3
Y2-S2-280M21,4,366,AS,exp,39,→,right,→,0.630928699974902,True,24,1,0,3
Y2-S2-280M21,4,367,AS,exp,50,↑,up,↑,0.4341601000051014,True,24,1,0,3
Y2-S2-280M21,4,368,AS,exp,45,→,right,→,0.4171415999880992,True,24,1,0,3
Y2-S2-280M21,4,369,AS,exp,36,↓,down,↓,0.4507362999720499,True,23,1,0,3
Y2-S2-280M21,4,370,AS,exp,31,↑,up,↑,0.7156617000000551,True,23,1,0,3
Y2-S2-280M21,4,371,AS,exp,43,←,up,↑,1.1776490999618545,False,23,-1,1,4
Y2-S2-280M21,4,372,AS,exp,30,↓,down,↓,0.6938969999901019,True,24,-1,0,4
Y2-S2-280M21,4,373,AS,exp,31,←,up,↑,0.6177915000007488,False,24,-1,0,4
Y2-S2-280M21,4,374,AS,exp,42,↑,up,↑,0.7140221999725327,True,25,-1,0,4
Y2-S2-280M21,4,375,AS,exp,30,←,left,←,0.43385610001860186,True,25,-1,0,4
Y2-S2-280M21,4,376,AS,exp,34,↓,down,↓,0.6969306000391953,True,25,1,1,5
Y2-S2-280M21,4,377,AS,exp,28,↑,up,↑,0.7429074000101537,True,24,1,0,5
Y2-S2-280M21,4,378,AS,exp,36,↓,down,↓,0.5877386000356637,True,24,1,0,5
Y2-S2-280M21,4,379,AS,exp,36,←,left,←,0.9557550000026822,True,24,1,0,5
Y2-S2-280M21,4,380,AS,exp,31,↑,up,↑,0.41688840003916994,True,23,1,0,5
Y2-S2-280M21,4,381,AS,exp,50,↓,down,↓,1.075592500041239,True,23,1,0,5
Y2-S2-280M21,4,382,AS,exp,30,→,right,→,0.417223299969919,True,23,1,0,5
Y2-S2-280M21,4,383,AS,exp,45,↓,up,↑,0.5439997999928892,False,22,-1,1,6
Y2-S2-280M21,4,384,AS,exp,36,→,right,→,0.8826183999772184,True,23,-1,0,6
Y2-S2-280M21,4,385,AS,exp,34,↓,down,↓,0.4505827000248246,True,23,-1,0,6
Y2-S2-280M21,4,386,AS,exp,26,←,left,←,0.7581176000530832,True,23,1,1,7
Y2-S2-280M21,4,387,AS,exp,35,↑,up,↑,0.6730685000075027,True,22,1,0,7
Y2-S2-280M21,4,388,AS,exp,39,→,left,←,0.5491850000107661,False,22,-1,1,8
Y2-S2-280M21,4,389,AS,exp,35,↓,down,↓,0.4338456999976188,True,23,-1,0,8
Y2-S2-280M21,4,390,AS,exp,28,←,left,←,0.7446993000339717,True,23,-1,0,8
Y2-S2-280M21,4,391,AS,exp,50,↑,up,↑,0.517601499974262,True,23,1,1,9
Y2-S2-280M21,4,392,AS,exp,33,↓,down,↓,0.7750137999537401,True,22,1,0,9
Y2-S2-280M21,4,393,AS,exp,50,→,right,→,1.0099728999775834,True,22,1,0,9
Y2-S2-280M21,4,394,AS,exp,42,←,left,←,0.43345239997142926,True,22,1,0,9
Y2-S2-280M21,4,395,AS,exp,34,↓,down,↓,0.6224579000263475,True,21,1,0,9
Y2-S2-280M21,4,396,AS,exp,42,↑,up,↑,0.7524240000057034,True,21,1,0,9
Y2-S2-280M21,4,397,AS,exp,26,→,down,↓,0.9461884000338614,False,21,-1,1,10
Y2-S2-280M21,4,398,AS,exp,43,←,left,←,0.6660630999831483,True,22,-1,0,10
Y2-S2-280M21,4,399,AS,exp,33,→,right,→,0.46737989998655394,True,22,-1,0,10
Y2-S2-280M21,4,400,AS,exp,50,←,left,←,1.0672072000452317,True,22,1,1,11
Y2-S2-280M21,4,401,AS,exp,26,↑,up,↑,0.7160280999960378,True,21,1,0,11
Y2-S2-280M21,4,402,AS,exp,31,→,right,→,0.4504507000092417,True,21,1,0,11
Y2-S2-280M21,4,403,AS,exp,45,←,left,←,0.9906614000210539,True,21,1,0,11
Y2-S2-280M21,4,404,AS,exp,27,→,right,→,0.5729571999981999,True,20,1,0,11
Y2-S2-280M21,4,405,AS,exp,36,↑,up,↑,0.7413746000383981,True,20,1,0,11
Y2-S2-280M21,4,406,AS,exp,31,→,right,→,0.41692170000169426,True,20,1,0,11
Y2-S2-280M21,4,407,AS,exp,37,←,left,←,0.7792818000307307,True,19,1,0,11
Y2-S2-280M21,4,408,AS,exp,29,→,left,←,0.7324148999759927,False,19,-1,1,12
Y2-S2-280M21,4,409,AS,exp,45,↑,up,↑,0.433956999971997,True,20,-1,0,12
Y2-S2-280M21,4,410,AS,exp,31,←,left,←,0.7025235000182875,True,20,-1,0,12
Y2-S2-280M21,4,411,AS,exp,38,→,right,→,1.1915315000223927,True,20,1,1,13
Y2-S2-280M21,4,412,AS,exp,31,↑,up,↑,0.3839538999600336,True,19,1,0,13
Y2-S2-280M21,4,413,AS,exp,31,↓,up,↑,0.4867984000011347,False,19,-1,1,14
Y2-S2-280M21,4,414,AS,exp,48,↑,up,↑,0.6133164999773726,True,20,-1,0,14
Y2-S2-280M21,4,415,AS,exp,31,→,left,←,0.9105077999993227,False,20,-1,0,14
Y2-S2-280M21,4,416,AS,exp,31,↓,down,↓,0.4173730000038631,True,21,-1,0,14
Y2-S2-280M21,4,417,AS,exp,37,→,right,→,0.6304640999878757,True,21,-1,0,14
Y2-S2-280M21,4,418,AS,exp,26,↓,down,↓,0.41720849997363985,True,21,1,1,15
Y2-S2-280M21,4,419,AS,exp,43,→,right,→,0.433932600019034,True,20,1,0,15
Y2-S2-280M21,4,420,AS,exp,36,←,left,←,0.7805943000130355,True,20,1,0,15
Y2-S2-280M21,4,421,AS,exp,30,↑,up,↑,0.3673318999935873,True,20,1,0,15
Y2-S2-280M21,4,422,AS,exp,31,←,left,←,0.4340504000429064,True,19,1,0,15
Y2-S2-280M21,4,423,AS,exp,48,↓,down,↓,0.4507873000111431,True,19,1,0,15
Y2-S2-280M21,4,424,AS,exp,48,←,left,←,0.8334036000305787,True,19,1,0,15
Y2-S2-280M21,4,425,AS,exp,50,↓,down,↓,1.0998010000330396,True,18,1,0,15
Y2-S2-280M21,4,426,AS,exp,27,←,left,←,0.4853845000034198,True,18,1,0,15
Y2-S2-280M21,4,427,AS,exp,42,↑,up,↑,0.3837863999651745,True,18,1,0,15
Y2-S2-280M21,4,428,AS,exp,46,↓,down,↓,0.48465969995595515,True,17,1,0,15
Y2-S2-280M21,4,429,AS,exp,32,→,left,←,1.0225816000020131,False,17,-1,1,16
Y2-S2-280M21,5,430,AS,intra_train,41,↓,down,↓,0.6836098000057973,True,33,-,-,-
Y2-S2-280M21,5,431,AS,intra_train,36,↑,up,↑,0.48373040003934875,True,33,-,-,-
Y2-S2-280M21,5,432,AS,intra_train,38,→,right,→,0.46716709999600425,True,33,-,-,-
Y2-S2-280M21,5,433,AS,intra_train,38,↓,down,↓,0.6338711000280455,True,33,-,-,-
Y2-S2-280M21,5,434,AS,intra_train,32,→,right,→,0.6498635000316426,True,33,-,-,-
Y2-S2-280M21,5,435,AS,exp,33,←,left,←,0.36717409995617345,True,22,0,0,0
Y2-S2-280M21,5,436,AS,exp,48,↓,down,↓,0.5705848000361584,True,22,0,0,0
Y2-S2-280M21,5,437,AS,exp,48,←,right,→,0.6227814999874681,False,22,-1,0,0
Y2-S2-280M21,5,438,AS,exp,29,↑,up,↑,0.4167388000059873,True,23,-1,0,0
Y2-S2-280M21,5,439,AS,exp,33,→,right,→,0.4336811999673955,True,23,-1,0,0
Y2-S2-280M21,5,440,AS,exp,36,↑,up,↑,0.6039920999901369,True,23,1,1,1
Y2-S2-280M21,5,441,AS,exp,48,→,right,→,0.6398444999940693,True,22,1,0,1
Y2-S2-280M21,5,442,AS,exp,26,↑,up,↑,0.45117049996042624,True,22,1,0,1
Y2-S2-280M21,5,443,AS,exp,35,←,left,←,0.7426246000104584,True,22,1,0,1
Y2-S2-280M21,5,444,AS,exp,25,↑,up,↑,0.400253799976781,True,21,1,0,1
Y2-S2-280M21,5,445,AS,exp,44,↓,down,↓,0.7648570000310428,True,21,1,0,1
Y2-S2-280M21,5,446,AS,exp,31,←,left,←,0.40033489995403215,True,21,1,0,1
Y2-S2-280M21,5,447,AS,exp,27,→,right,→,0.5806105000083335,True,20,1,0,1
Y2-S2-280M21,5,448,AS,exp,47,↓,right,→,0.7784457000088878,False,20,-1,1,2
Y2-S2-280M21,5,449,AS,exp,25,→,right,→,0.3833091999986209,True,21,-1,0,2
Y2-S2-280M21,5,450,AS,exp,30,↓,down,↓,0.41742040001554415,True,21,-1,0,2
Y2-S2-280M21,5,451,AS,exp,34,↑,up,↑,1.0720457999850623,True,21,1,1,3
Y2-S2-280M21,5,452,AS,exp,39,←,left,←,0.433579100004863,True,20,1,0,3
Y2-S2-280M21,5,453,AS,exp,25,↓,left,←,0.9789529000408947,False,20,-1,1,4
Y2-S2-280M21,5,454,AS,exp,31,→,right,→,0.38370600005146116,True,21,-1,0,4
Y2-S2-280M21,5,455,AS,exp,43,↓,down,↓,0.40050590003374964,True,21,-1,0,4
Y2-S2-280M21,5,456,AS,exp,44,→,left,←,0.9142116999719292,False,21,-1,0,4
Y2-S2-280M21,5,457,AS,exp,40,↑,up,↑,0.41733849997399375,True,22,-1,0,4
Y2-S2-280M21,5,458,AS,exp,31,↓,down,↓,0.4170133000006899,True,22,-1,0,4
Y2-S2-280M21,5,459,AS,exp,29,↑,down,↓,0.9598662999924272,False,22,-1,0,4
Y2-S2-280M21,5,460,AS,exp,45,←,left,←,0.4176308000460267,True,23,-1,0,4
Y2-S2-280M21,5,461,AS,exp,31,→,right,→,0.6699951999471523,True,23,-1,0,4
Y2-S2-280M21,5,462,AS,exp,49,↑,up,↑,0.4671033999766223,True,23,1,1,5
Y2-S2-280M21,5,463,AS,exp,29,↓,down,↓,0.4167629999574274,True,22,1,0,5
Y2-S2-280M21,5,464,AS,exp,45,→,left,←,0.5785484000225551,False,22,-1,1,6
Y2-S2-280M21,5,465,AS,exp,45,↓,right,→,1.1458224999951199,False,23,-1,0,6
Y2-S2-280M21,5,466,AS,exp,37,↑,up,↑,1.091638999991119,True,24,-1,0,6
Y2-S2-280M21,5,467,AS,exp,25,→,right,→,0.39926569996168837,True,24,-1,0,6
Y2-S2-280M21,5,468,AS,exp,46,↑,right,→,0.8532144000055268,False,24,-1,0,6
Y2-S2-280M21,5,469,AS,exp,26,←,left,←,0.484057399968151,True,25,-1,0,6
Y2-S2-280M21,5,470,AS,exp,31,→,right,→,0.41723359999014065,True,25,-1,0,6
Y2-S2-280M21,5,471,AS,exp,40,←,left,←,0.46714540000539273,True,25,1,1,7
Y2-S2-280M21,5,472,AS,exp,44,↑,up,↑,0.4006002999958582,True,24,1,0,7
Y2-S2-280M21,5,473,AS,exp,27,↓,down,↓,0.41709360003005713,True,24,1,0,7
Y2-S2-280M21,5,474,AS,exp,46,↑,up,↑,0.4336722000152804,True,24,1,0,7
Y2-S2-280M21,5,475,AS,exp,27,←,left,←,0.45061890000943094,True,23,1,0,7
Y2-S2-280M21,5,476,AS,exp,46,↓,down,↓,0.4169076000107452,True,23,1,0,7
Y2-S2-280M21,5,477,AS,exp,47,↑,up,↑,0.3670646999962628,True,23,1,0,7
Y2-S2-280M21,5,478,AS,exp,25,←,left,←,0.5003165999660268,True,22,1,0,7
Y2-S2-280M21,5,479,AS,exp,27,↓,down,↓,0.4173233999754302,True,22,1,0,7
Y2-S2-280M21,5,480,AS,exp,50,→,right,→,0.41700049996143207,True,22,1,0,7
Y2-S2-280M21,5,481,AS,exp,38,↑,down,↓,1.2057780000031926,False,21,-1,1,8
Y2-S2-280M21,5,482,AS,exp,45,→,right,→,0.3672146000317298,True,22,-1,0,8
Y2-S2-280M21,5,483,AS,exp,25,↑,up,↑,0.40077589999418706,True,22,-1,0,8
Y2-S2-280M21,5,484,AS,exp,49,↓,up,↑,1.0622434999677353,False,22,-1,0,8
Y2-S2-280M21,5,485,AS,exp,26,→,left,←,0.9111144000198692,False,23,-1,0,8
Y2-S2-280M21,5,486,AS,exp,41,↑,up,↑,0.6483374999952503,True,24,-1,0,8
Y2-S2-280M21,5,487,AS,exp,33,↓,down,↓,0.36799539998173714,True,24,-1,0,8
Y2-S2-280M21,5,488,AS,exp,40,→,right,→,0.5906129000359215,True,24,1,1,9
Y2-S2-280M21,5,489,AS,exp,25,←,right,→,0.6294756999704987,False,23,-1,1,10
Y2-S2-280M21,5,490,AS,exp,29,↓,down,↓,0.40107760002138093,True,24,-1,0,10
Y2-S2-280M21,5,491,AS,exp,41,↑,up,↑,0.4004984000348486,True,24,-1,0,10
Y2-S2-280M21,5,492,AS,exp,44,↓,left,←,1.2738097000401467,False,24,-1,0,10
Y2-S2-280M21,5,493,AS,exp,26,←,right,→,1.1370861999457702,False,25,-1,0,10
Y2-S2-280M21,5,494,AS,exp,41,→,left,←,0.9183037999900989,False,26,-1,0,10
Y2-S2-280M21,5,495,AS,exp,28,←,left,←,0.5003784000291489,True,27,-1,0,10
Y2-S2-280M21,5,496,AS,exp,39,↓,right,→,0.9485887000337243,False,27,-1,0,10
Y2-S2-280M21,5,497,AS,exp,33,↑,up,↑,0.4668773000012152,True,28,-1,0,10
Y2-S2-280M21,5,498,AS,exp,38,↓,down,↓,0.6503559999982826,True,28,-1,0,10
Y2-S2-280M21,5,499,AS,exp,36,←,left,←,1.1406838999828324,True,28,1,1,11
Y2-S2-280M21,5,500,AS,exp,43,↓,right,→,0.5501920999959111,False,27,-1,1,12
Y2-S2-280M21,5,501,AS,exp,26,→,right,→,0.4674515000078827,True,28,-1,0,12
Y2-S2-280M21,5,502,AS,exp,38,↓,left,←,0.5675908000557683,False,28,-1,0,12
Y2-S2-280M21,5,503,AS,exp,25,↑,up,↑,0.8328643999993801,True,29,-1,0,12
Y2-S2-280M21,5,504,AS,exp,34,←,right,→,1.0660350000252947,False,29,-1,0,12
Y2-S2-280M21,5,505,AS,exp,34,↓,down,↓,0.48424770002020523,True,30,-1,0,12
Y2-S2-280M21,5,506,AS,exp,48,←,left,←,0.8940187999978662,True,30,-1,0,12
Y2-S2-280M21,5,507,AS,exp,34,↑,up,↑,0.6336606999975629,True,30,1,1,13
Y2-S2-280M21,5,508,AS,exp,49,←,right,→,0.6003728000214323,False,29,-1,1,14
Y2-S2-280M21,5,509,AS,exp,36,↓,down,↓,0.43392310000490397,True,30,-1,0,14
Y2-S2-280M21,5,510,AS,exp,34,↑,up,↑,0.6996065999846905,True,30,-1,0,14
Y2-S2-280M21,5,511,AS,exp,42,↓,down,↓,0.7110407000291161,True,30,1,1,15
Y2-S2-280M21,5,512,AS,exp,26,←,left,←,0.4175381000386551,True,29,1,0,15
Y2-S2-280M21,5,513,AS,exp,30,↑,up,↑,0.4004912999807857,True,29,1,0,15
Y2-S2-280M21,5,514,AS,exp,26,↓,down,↓,0.6698045000084676,True,29,1,0,15
Y2-S2-280M21,5,515,AS,exp,34,←,left,←,0.7408419999992475,True,28,1,0,15
Y2-S2-280M21,5,516,AS,exp,34,↓,down,↓,0.951262799964752,True,28,1,0,15
Y2-S2-280M21,5,517,AS,exp,30,↑,up,↑,0.7309752000146545,True,28,1,0,15
Y2-S2-280M21,5,518,AS,exp,39,↓,down,↓,0.45028829999500886,True,27,1,0,15
Y2-S2-280M21,5,519,AS,exp,27,↑,up,↑,0.4006105000153184,True,27,1,0,15
Y2-S2-280M21,5,520,AS,exp,39,←,left,←,0.45016389997908846,True,27,1,0,15
Y2-S2-280M21,5,521,AS,exp,25,↑,up,↑,0.4178537999978289,True,26,1,0,15
Y2-S2-280M21,5,522,AS,exp,33,←,left,←,0.7524745000409894,True,26,1,0,15
Y2-S2-280M21,5,523,AS,exp,41,↓,down,↓,0.5172241000109352,True,26,1,0,15
Y2-S2-280M21,5,524,AS,exp,43,←,left,←,0.67379729996901,True,25,1,0,15
Y2-S2-280M21,5,525,AS,exp,39,↓,down,↓,1.099677900027018,True,25,1,0,15
Y2-S2-280M21,5,526,AS,exp,46,↑,up,↑,0.41745030001038685,True,25,1,0,15
Y2-S2-280M21,5,527,AS,exp,25,←,left,←,0.45037740003317595,True,24,1,0,15
Y2-S2-280M21,5,528,AS,exp,34,→,right,→,0.7398173000547104,True,24,1,0,15
Y2-S2-280M21,5,529,AS,exp,25,↑,up,↑,0.43352090002736077,True,24,1,0,15
Y2-S2-280M21,5,530,AS,exp,37,←,left,←,0.45067279995419085,True,23,1,0,15
Y2-S2-280M21,5,531,AS,exp,43,↑,up,↑,0.46712220000335947,True,23,1,0,15
Y2-S2-280M21,5,532,AS,exp,45,←,left,←,0.4505807000095956,True,23,1,0,15
Y2-S2-280M21,5,533,AS,exp,30,→,right,→,0.466911599971354,True,22,1,0,15
Y2-S2-280M21,5,534,AS,exp,30,←,left,←,0.535052299965173,True,22,1,0,15
Y2-S2-280M21,5,535,AS,exp,28,↑,up,↑,0.4168698000139557,True,22,1,0,15
Y2-S2-280M21,5,536,AS,exp,30,↓,left,←,0.6568666000384837,False,21,-1,1,16
Y2-S2-280M21,6,537,PS,intra_train,49,↑,up,↑,0.5174668999970891,True,15,-,-,-
Y2-S2-280M21,6,538,PS,intra_train,37,→,left,←,0.8796052999678068,False,15,-,-,-
Y2-S2-280M21,6,539,PS,intra_train,44,↓,down,↓,0.48469130002195016,True,15,-,-,-
Y2-S2-280M21,6,540,PS,intra_train,32,→,left,←,0.867504799971357,False,15,-,-,-
Y2-S2-280M21,6,541,PS,intra_train,28,↓,right,→,1.0193565000081435,False,15,-,-,-
Y2-S2-280M21,6,542,PS,exp,46,↑,up,↑,0.5102864000364207,True,10,0,0,0
Y2-S2-280M21,6,543,PS,exp,39,←,left,←,0.6603128000278957,True,10,0,0,0
Y2-S2-280M21,6,544,PS,exp,36,→,right,→,0.4349779000040144,True,10,1,0,0
Y2-S2-280M21,6,545,PS,exp,42,←,down,↓,0.7380640000337735,False,9,-1,1,1
Y2-S2-280M21,6,546,PS,exp,32,→,down,↓,0.6197828999720514,False,10,-1,0,1
Y2-S2-280M21,6,547,PS,exp,39,↑,up,↑,0.4665820000227541,True,11,-1,0,1
Y2-S2-280M21,6,548,PS,exp,29,→,right,→,0.42015510000055656,True,11,-1,0,1
Y2-S2-280M21,6,549,PS,exp,28,↑,up,↑,0.4395551000488922,True,11,1,1,2
Y2-S2-280M21,6,550,PS,exp,43,→,right,→,0.41685390000930056,True,10,1,0,2
Y2-S2-280M21,6,551,PS,exp,41,↓,right,→,0.4987597999861464,False,10,-1,1,3
Y2-S2-280M21,6,552,PS,exp,26,→,down,↓,0.6203399000223726,False,11,-1,0,3
Y2-S2-280M21,6,553,PS,exp,41,↓,up,↑,0.6368409999995492,False,12,-1,0,3
Y2-S2-280M21,6,554,PS,exp,36,→,left,←,0.33396759995957837,False,13,-1,0,3
Y2-S2-280M21,6,555,PS,exp,47,↑,right,→,0.6234026000020094,False,14,-1,0,3
Y2-S2-280M21,6,556,PS,exp,35,←,up,↑,0.7668070999789052,False,15,-1,0,3
Y2-S2-280M21,6,557,PS,exp,43,→,left,←,0.7338822999736294,False,16,-1,0,3
Y2-S2-280M21,6,558,PS,exp,46,↓,down,↓,0.464236699976027,True,17,-1,0,3
Y2-S2-280M21,6,559,PS,exp,28,↑,up,↑,1.1456421000184491,True,17,-1,0,3
Y2-S2-280M21,6,560,PS,exp,47,↓,down,↓,0.4810950999963097,True,17,1,1,4
Y2-S2-280M21,6,561,PS,exp,42,←,left,←,0.5657877000048757,True,16,1,0,4
Y2-S2-280M21,6,562,PS,exp,27,↑,up,↑,0.40063070005271584,True,16,1,0,4
Y2-S2-280M21,6,563,PS,exp,27,→,left,←,1.0268457000493072,False,16,-1,1,5
Y2-S2-280M21,6,564,PS,exp,38,↑,right,→,0.9004797999514267,False,17,-1,0,5
Y2-S2-280M21,6,565,PS,exp,39,→,right,→,1.270808200002648,True,18,-1,0,5
Y2-S2-280M21,6,566,PS,exp,38,↓,down,↓,0.552738500002306,True,18,-1,0,5
Y2-S2-280M21,6,567,PS,exp,42,←,right,→,0.5722789000137709,False,18,-1,0,5
Y2-S2-280M21,6,568,PS,exp,45,↑,up,↑,0.6508368999930099,True,19,-1,0,5
Y2-S2-280M21,6,569,PS,exp,48,↓,down,↓,0.6163024000125006,True,19,-1,0,5
Y2-S2-280M21,6,570,PS,exp,37,↑,up,↑,0.4339390000095591,True,19,1,1,6
Y2-S2-280M21,6,571,PS,exp,27,→,right,→,0.4175243999925442,True,18,1,0,6
Y2-S2-280M21,6,572,PS,exp,47,↓,down,↓,0.6268888000049628,True,18,1,0,6
Y2-S2-280M21,6,573,PS,exp,33,↑,left,←,0.7581085999845527,False,18,-1,1,7
Y2-S2-280M21,6,574,PS,exp,29,←,left,←,0.9939112999709323,True,19,-1,0,7
Y2-S2-280M21,6,575,PS,exp,31,→,right,→,0.5621346000116318,True,19,-1,0,7
Y2-S2-280M21,6,576,PS,exp,29,↓,down,↓,0.595552199985832,True,19,1,1,8
Y2-S2-280M21,6,577,PS,exp,43,↑,up,↑,0.4172934999805875,True,18,1,0,8
Y2-S2-280M21,6,578,PS,exp,38,→,right,→,0.4171578999958001,True,18,1,0,8
Y2-S2-280M21,6,579,PS,exp,39,↓,down,↓,0.4754454999929294,True,18,1,0,8
Y2-S2-280M21,6,580,PS,exp,45,↑,down,↓,0.4173050999525003,False,17,-1,1,9
Y2-S2-280M21,6,581,PS,exp,40,↓,left,←,0.9088596000219695,False,18,-1,0,9
Y2-S2-280M21,6,582,PS,exp,36,→,right,→,0.9420661999611184,True,19,-1,0,9
Y2-S2-280M21,6,583,PS,exp,39,←,left,←,0.7154142999788746,True,19,-1,0,9
Y2-S2-280M21,6,584,PS,exp,29,↓,down,↓,0.627487099962309,True,19,1,1,10
Y2-S2-280M21,6,585,PS,exp,46,→,right,→,0.5579179999767803,True,18,1,0,10
Y2-S2-280M21,6,586,PS,exp,34,↓,down,↓,0.4909806000068784,True,18,1,0,10
Y2-S2-280M21,6,587,PS,exp,33,↑,up,↑,0.47532610001508147,True,18,1,0,10
Y2-S2-280M21,6,588,PS,exp,44,←,left,←,0.6131991999573074,True,17,1,0,10
Y2-S2-280M21,6,589,PS,exp,47,↓,down,↓,0.5824502999894321,True,17,1,0,10
Y2-S2-280M21,6,590,PS,exp,47,→,right,→,0.6025523999705911,True,17,1,0,10
Y2-S2-280M21,6,591,PS,exp,28,↑,up,↑,0.5140272999997251,True,16,1,0,10
Y2-S2-280M21,6,592,PS,exp,32,→,left,←,0.8546423999941908,False,16,-1,1,11
Y2-S2-280M21,6,593,PS,exp,30,←,left,←,1.171015499974601,True,17,-1,0,11
Y2-S2-280M21,6,594,PS,exp,26,↑,up,↑,0.9109554000315256,True,17,-1,0,11
Y2-S2-280M21,6,595,PS,exp,30,→,right,→,0.46537630003876984,True,17,1,1,12
Y2-S2-280M21,6,596,PS,exp,45,↓,down,↓,0.46382929995888844,True,16,1,0,12
Y2-S2-280M21,6,597,PS,exp,35,↑,right,→,0.8758912999765016,False,16,-1,1,13
Y2-S2-280M21,6,598,PS,exp,30,↓,down,↓,0.48841280001215637,True,17,-1,0,13
Y2-S2-280M21,6,599,PS,exp,29,↑,right,→,0.9047497999854386,False,17,-1,0,13
Y2-S2-280M21,6,600,PS,exp,25,→,right,→,0.845272800012026,True,18,-1,0,13
Y2-S2-280M21,6,601,PS,exp,45,↓,left,←,0.7828915999853052,False,18,-1,0,13
Y2-S2-280M21,6,602,PS,exp,42,↑,up,↑,0.6247411000076681,True,19,-1,0,13
Y2-S2-280M21,6,603,PS,exp,25,→,right,→,0.9344623000361025,True,19,-1,0,13
Y2-S2-280M21,6,604,PS,exp,39,←,left,←,0.5599211999797262,True,19,1,1,14
Y2-S2-280M21,6,605,PS,exp,31,→,right,→,0.4175173999974504,True,18,1,0,14
Y2-S2-280M21,6,606,PS,exp,36,↑,up,↑,0.9326207000412978,True,18,1,0,14
Y2-S2-280M21,6,607,PS,exp,48,←,left,←,0.5865613000351004,True,18,1,0,14
Y2-S2-280M21,6,608,PS,exp,42,↑,left,←,0.787914099986665,False,17,-1,1,15
Y2-S2-280M21,6,609,PS,exp,44,←,left,←,0.9955496999900788,True,18,-1,0,15
Y2-S2-280M21,6,610,PS,exp,29,↑,up,↑,0.6695024999789894,True,18,-1,0,15
Y2-S2-280M21,6,611,PS,exp,41,→,right,→,0.8761231999960728,True,18,1,1,16
Y2-S2-280M21,7,612,PS,intra_train,48,↓,down,↓,0.4415912000113167,True,15,-,-,-
Y2-S2-280M21,7,613,PS,intra_train,42,↑,up,↑,0.46448049996979535,True,15,-,-,-
Y2-S2-280M21,7,614,PS,intra_train,43,←,left,←,0.4785592000116594,True,15,-,-,-
Y2-S2-280M21,7,615,PS,intra_train,45,↑,up,↑,0.43745740002486855,True,15,-,-,-
Y2-S2-280M21,7,616,PS,intra_train,32,↓,down,↓,0.5748257000232115,True,15,-,-,-
Y2-S2-280M21,7,617,PS,exp,31,↑,up,↑,0.4571579999756068,True,10,0,0,0
Y2-S2-280M21,7,618,PS,exp,25,←,left,←,0.436554400017485,True,10,0,0,0
Y2-S2-280M21,7,619,PS,exp,25,↓,down,↓,0.5577384000062011,True,10,1,0,0
Y2-S2-280M21,7,620,PS,exp,36,→,right,→,0.7645446000387892,True,9,1,0,0
Y2-S2-280M21,7,621,PS,exp,44,↑,left,←,0.6277857000241056,False,9,-1,1,1
Y2-S2-280M21,7,622,PS,exp,35,↓,up,↑,0.5614142999984324,False,10,-1,0,1
Y2-S2-280M21,7,623,PS,exp,46,→,right,→,0.42729989998042583,True,11,-1,0,1
Y2-S2-280M21,7,624,PS,exp,49,←,left,←,0.4883918999694288,True,11,-1,0,1
Y2-S2-280M21,7,625,PS,exp,30,→,right,→,0.4309188000042923,True,11,1,1,2
Y2-S2-280M21,7,626,PS,exp,39,↓,left,←,0.6717702999594621,False,10,-1,1,3
Y2-S2-280M21,7,627,PS,exp,36,→,right,→,0.490254600008484,True,11,-1,0,3
Y2-S2-280M21,7,628,PS,exp,44,↑,up,↑,0.4186729999491945,True,11,-1,0,3
Y2-S2-280M21,7,629,PS,exp,28,→,left,←,0.5365758000407368,False,11,-1,0,3
Y2-S2-280M21,7,630,PS,exp,36,←,left,←,0.40980630001286045,True,12,-1,0,3
Y2-S2-280M21,7,631,PS,exp,32,→,right,→,0.530645499995444,True,12,-1,0,3
Y2-S2-280M21,7,632,PS,exp,36,←,left,←,1.050508100015577,True,12,1,1,4
Y2-S2-280M21,7,633,PS,exp,27,→,right,→,0.4282117999973707,True,11,1,0,4
Y2-S2-280M21,7,634,PS,exp,50,↓,down,↓,0.4581233999924734,True,11,1,0,4
Y2-S2-280M21,7,635,PS,exp,29,→,left,←,0.41275399998994544,False,11,-1,1,5
Y2-S2-280M21,7,636,PS,exp,50,←,left,←,0.5422418999951333,True,12,-1,0,5
Y2-S2-280M21,7,637,PS,exp,45,→,right,→,0.4107908000005409,True,12,-1,0,5
Y2-S2-280M21,7,638,PS,exp,40,↑,up,↑,0.40224069997202605,True,12,1,1,6
Y2-S2-280M21,7,639,PS,exp,41,↓,right,→,0.5424791999976151,False,11,-1,1,7
Y2-S2-280M21,7,640,PS,exp,35,→,left,←,0.9029883000184782,False,12,-1,0,7
Y2-S2-280M21,7,641,PS,exp,45,↓,down,↓,0.4655540999956429,True,13,-1,0,7
Y2-S2-280M21,7,642,PS,exp,34,↑,up,↑,0.5355782000115141,True,13,-1,0,7
Y2-S2-280M21,7,643,PS,exp,43,←,left,←,0.4147829000139609,True,13,1,1,8
Y2-S2-280M21,7,644,PS,exp,41,→,right,→,0.7182025999645703,True,12,1,0,8
Y2-S2-280M21,7,645,PS,exp,28,↓,down,↓,0.686740200035274,True,12,1,0,8
Y2-S2-280M21,7,646,PS,exp,39,←,left,←,0.49034139997093007,True,12,1,0,8
Y2-S2-280M21,7,647,PS,exp,50,↑,up,↑,0.5177208999521099,True,11,1,0,8
Y2-S2-280M21,7,648,PS,exp,48,↓,left,←,0.672819499974139,False,11,-1,1,9
Y2-S2-280M21,7,649,PS,exp,45,↑,up,↑,0.43139509996399283,True,12,-1,0,9
Y2-S2-280M21,7,650,PS,exp,43,↓,down,↓,0.5899696000269614,True,12,-1,0,9
Y2-S2-280M21,7,651,PS,exp,47,←,left,←,0.41069200000492856,True,12,1,1,10
Y2-S2-280M21,7,652,PS,exp,34,↑,left,←,0.9312674999819137,False,11,-1,1,11
Y2-S2-280M21,7,653,PS,exp,50,←,right,→,0.6029161000042222,False,12,-1,0,11
Y2-S2-280M21,7,654,PS,exp,33,→,up,↑,0.7863597999676131,False,13,-1,0,11
Y2-S2-280M21,7,655,PS,exp,37,↑,up,↑,0.4101202000165358,True,14,-1,0,11
Y2-S2-280M21,7,656,PS,exp,30,←,left,←,0.6197693000431173,True,14,-1,0,11
Y2-S2-280M21,7,657,PS,exp,47,↑,up,↑,0.4182833000086248,True,14,1,1,12
Y2-S2-280M21,7,658,PS,exp,35,→,right,→,0.48330179997719824,True,13,1,0,12
Y2-S2-280M21,7,659,PS,exp,45,↑,up,↑,0.527855799999088,True,13,1,0,12
Y2-S2-280M21,7,660,PS,exp,27,←,left,←,0.439054100017529,True,13,1,0,12
Y2-S2-280M21,7,661,PS,exp,43,↑,up,↑,0.37149590003537014,True,12,1,0,12
Y2-S2-280M21,7,662,PS,exp,40,↓,down,↓,0.4307606999645941,True,12,1,0,12
Y2-S2-280M21,7,663,PS,exp,27,↑,up,↑,0.36860450002131984,True,12,1,0,12
Y2-S2-280M21,7,664,PS,exp,43,←,left,←,0.5152051000040956,True,11,1,0,12
Y2-S2-280M21,7,665,PS,exp,28,↑,up,↑,0.38108680001460016,True,11,1,0,12
Y2-S2-280M21,7,666,PS,exp,48,←,left,←,0.4308315999805927,True,11,1,0,12
Y2-S2-280M21,7,667,PS,exp,31,→,right,→,0.6331884000101127,True,10,1,0,12
Y2-S2-280M21,7,668,PS,exp,28,↓,down,↓,0.5060039999661967,True,10,1,0,12
Y2-S2-280M21,7,669,PS,exp,46,↑,up,↑,0.5870190000277944,True,10,1,0,12
Y2-S2-280M21,7,670,PS,exp,45,←,left,←,0.40623910003341734,True,9,1,0,12
Y2-S2-280M21,7,671,PS,exp,48,↑,up,↑,0.44405739998910576,True,9,1,0,12
Y2-S2-280M21,7,672,PS,exp,31,→,right,→,0.42291339999064803,True,9,1,0,12
Y2-S2-280M21,7,673,PS,exp,28,←,left,←,0.5202700999798253,True,8,1,0,12
Y2-S2-280M21,7,674,PS,exp,38,→,down,↓,0.5036498000263236,False,8,-1,1,13
Y2-S2-280M21,7,675,PS,exp,28,↑,up,↑,0.3507625999627635,True,9,-1,0,13
Y2-S2-280M21,7,676,PS,exp,28,→,left,←,0.6399327000253834,False,9,-1,0,13
Y2-S2-280M21,7,677,PS,exp,42,↓,down,↓,0.47860460000811145,True,10,-1,0,13
Y2-S2-280M21,7,678,PS,exp,40,→,right,→,0.4357076999731362,True,10,-1,0,13
Y2-S2-280M21,7,679,PS,exp,36,←,left,←,0.36468840000452474,True,10,1,1,14
Y2-S2-280M21,7,680,PS,exp,41,↑,right,→,0.5079018999822438,False,9,-1,1,15
Y2-S2-280M21,7,681,PS,exp,26,→,right,→,0.44830950000323355,True,10,-1,0,15
Y2-S2-280M21,7,682,PS,exp,37,↑,down,↓,0.7461515000322834,False,10,-1,0,15
Y2-S2-280M21,7,683,PS,exp,47,→,right,→,0.4033719000290148,True,11,-1,0,15
Y2-S2-280M21,7,684,PS,exp,25,↓,down,↓,0.47578470001462847,True,11,-1,0,15
Y2-S2-280M21,7,685,PS,exp,30,↑,right,→,0.7056250000023283,False,11,-1,0,15
Y2-S2-280M21,7,686,PS,exp,50,↓,down,↓,0.44767660001525655,True,12,-1,0,15
Y2-S2-280M21,7,687,PS,exp,27,↑,down,↓,0.7212918000295758,False,12,-1,0,15
Y2-S2-280M21,7,688,PS,exp,28,←,left,←,0.4795250999741256,True,13,-1,0,15
Y2-S2-280M21,7,689,PS,exp,41,↓,down,↓,0.7270242999657057,True,13,-1,0,15
Y2-S2-280M21,7,690,PS,exp,30,←,right,→,0.666659000038635,False,13,-1,0,15
Y2-S2-280M21,7,691,PS,exp,43,→,right,→,0.43036430003121495,True,14,-1,0,15
Y2-S2-280M21,7,692,PS,exp,46,↓,down,↓,0.4632911999942735,True,14,-1,0,15
Y2-S2-280M21,7,693,PS,exp,49,→,right,→,0.8135632000048645,True,14,1,1,16
Y2-S2-280M21,8,694,AS,intra_train,44,←,left,←,0.9392439000075683,True,33,-,-,-
Y2-S2-280M21,8,695,AS,intra_train,35,↑,up,↑,0.4344435000093654,True,33,-,-,-
Y2-S2-280M21,8,696,AS,intra_train,32,↓,down,↓,0.8050404999521561,True,33,-,-,-
Y2-S2-280M21,8,697,AS,intra_train,25,→,right,→,0.4175597000285052,True,33,-,-,-
Y2-S2-280M21,8,698,AS,intra_train,37,←,left,←,0.6505049000261351,True,33,-,-,-
Y2-S2-280M21,8,699,AS,exp,38,↓,down,↓,0.6140294999931939,True,22,0,0,0
Y2-S2-280M21,8,700,AS,exp,38,→,right,→,0.40125460003037006,True,22,0,0,0
Y2-S2-280M21,8,701,AS,exp,43,↑,up,↑,0.743136000004597,True,22,1,0,0
Y2-S2-280M21,8,702,AS,exp,33,→,left,←,0.7273075999692082,False,21,-1,1,1
Y2-S2-280M21,8,703,AS,exp,29,↓,up,↑,0.6345594999729656,False,22,-1,0,1
Y2-S2-280M21,8,704,AS,exp,38,→,right,→,0.7588456000084989,True,23,-1,0,1
Y2-S2-280M21,8,705,AS,exp,26,←,left,←,0.7515940999728628,True,23,-1,0,1
Y2-S2-280M21,8,706,AS,exp,44,→,right,→,0.7707593999803066,True,23,1,1,2
Y2-S2-280M21,8,707,AS,exp,35,↑,up,↑,0.48373800003901124,True,22,1,0,2
Y2-S2-280M21,8,708,AS,exp,40,←,left,←,0.7038775999681093,True,22,1,0,2
Y2-S2-280M21,8,709,AS,exp,37,↓,down,↓,0.6733249999815598,True,22,1,0,2
Y2-S2-280M21,8,710,AS,exp,25,←,left,←,0.6114974999800324,True,21,1,0,2
Y2-S2-280M21,8,711,AS,exp,37,↑,right,→,0.63398560002679,False,21,-1,1,3
Y2-S2-280M21,8,712,AS,exp,36,↓,up,↑,0.664942900009919,False,22,-1,0,3
Y2-S2-280M21,8,713,AS,exp,30,→,right,→,0.7806388000026345,True,23,-1,0,3
Y2-S2-280M21,8,714,AS,exp,38,↓,down,↓,0.6249045000295155,True,23,-1,0,3
Y2-S2-280M21,8,715,AS,exp,50,←,left,←,0.6900314000085928,True,23,1,1,4
Y2-S2-280M21,8,716,AS,exp,32,→,right,→,0.4172942999866791,True,22,1,0,4
Y2-S2-280M21,8,717,AS,exp,38,←,left,←,0.8948058999958448,True,22,1,0,4
Y2-S2-280M21,8,718,AS,exp,49,→,right,→,0.7459279000177048,True,22,1,0,4
Y2-S2-280M21,8,719,AS,exp,50,↑,down,↓,0.8104535000165924,False,21,-1,1,5
Y2-S2-280M21,8,720,AS,exp,37,↓,right,→,0.6391826999606565,False,22,-1,0,5
Y2-S2-280M21,8,721,AS,exp,31,→,right,→,0.6935750999837182,True,23,-1,0,5
Y2-S2-280M21,8,722,AS,exp,49,←,left,←,0.46722849999787286,True,23,-1,0,5
Y2-S2-280M21,8,723,AS,exp,48,↑,up,↑,0.4838383999885991,True,23,1,1,6
Y2-S2-280M21,8,724,AS,exp,36,↓,down,↓,0.7661315000150353,True,22,1,0,6
Y2-S2-280M21,8,725,AS,exp,32,←,left,←,0.4671885999850929,True,22,1,0,6
Y2-S2-280M21,8,726,AS,exp,33,→,right,→,0.4670260999700986,True,22,1,0,6
Y2-S2-280M21,8,727,AS,exp,37,←,left,←,0.7867342999670655,True,21,1,0,6
Y2-S2-280M21,8,728,AS,exp,48,→,right,→,0.46719180000945926,True,21,1,0,6
Y2-S2-280M21,8,729,AS,exp,40,←,left,←,0.6713885999633931,True,21,1,0,6
Y2-S2-280M21,8,730,AS,exp,47,→,right,→,0.691778400039766,True,20,1,0,6
Y2-S2-280M21,8,731,AS,exp,32,↓,down,↓,0.5795327999512665,True,20,1,0,6
Y2-S2-280M21,8,732,AS,exp,30,→,right,→,0.4503534000250511,True,20,1,0,6
Y2-S2-280M21,8,733,AS,exp,39,←,left,←,0.8151366999954917,True,19,1,0,6
Y2-S2-280M21,8,734,AS,exp,25,↑,up,↑,0.45084320002933964,True,19,1,0,6
Y2-S2-280M21,8,735,AS,exp,50,→,right,→,0.6613366000237875,True,19,1,0,6
Y2-S2-280M21,8,736,AS,exp,32,↑,left,←,0.8056617000256665,False,18,-1,1,7
Y2-S2-280M21,8,737,AS,exp,27,←,left,←,0.5270072999992408,True,19,-1,0,7
Y2-S2-280M21,8,738,AS,exp,35,↑,up,↑,0.6934734999667853,True,19,-1,0,7
Y2-S2-280M21,8,739,AS,exp,45,↓,down,↓,1.140526700008195,True,19,1,1,8
Y2-S2-280M21,8,740,AS,exp,48,→,left,←,0.5860356999910437,False,18,-1,1,9
Y2-S2-280M21,8,741,AS,exp,31,↓,down,↓,0.6901845000102185,True,19,-1,0,9
Y2-S2-280M21,8,742,AS,exp,47,↑,up,↑,0.5818521000328474,True,19,-1,0,9
Y2-S2-280M21,8,743,AS,exp,34,←,left,←,0.6121898000128567,True,19,1,1,10
Y2-S2-280M21,8,744,AS,exp,49,↑,left,←,0.8047348000109196,False,18,-1,1,11
Y2-S2-280M21,8,745,AS,exp,46,→,left,←,0.7621613999945112,False,19,-1,0,11
Y2-S2-280M21,8,746,AS,exp,46,↑,up,↑,0.45023089996539056,True,20,-1,0,11
Y2-S2-280M21,8,747,AS,exp,25,↓,down,↓,0.6352048999979161,True,20,-1,0,11
Y2-S2-280M21,8,748,AS,exp,47,→,right,→,0.6776597999851219,True,20,1,1,12
Y2-S2-280M21,8,749,AS,exp,40,←,left,←,0.41716330003691837,True,19,1,0,12
Y2-S2-280M21,8,750,AS,exp,44,↑,up,↑,0.7820744999917224,True,19,1,0,12
Y2-S2-280M21,8,751,AS,exp,42,→,right,→,0.4338660000357777,True,19,1,0,12
Y2-S2-280M21,8,752,AS,exp,31,←,left,←,0.6404146000277251,True,18,1,0,12
Y2-S2-280M21,8,753,AS,exp,44,↓,down,↓,0.4174788999953307,True,18,1,0,12
Y2-S2-280M21,8,754,AS,exp,38,→,right,→,1.1839602999971248,True,18,1,0,12
Y2-S2-280M21,8,755,AS,exp,47,↓,down,↓,0.6669778000214137,True,17,1,0,12
Y2-S2-280M21,8,756,AS,exp,29,←,right,→,0.569153800024651,False,17,-1,1,13
Y2-S2-280M21,8,757,AS,exp,42,↑,right,→,0.6221159999840893,False,18,-1,0,13
Y2-S2-280M21,8,758,AS,exp,40,←,right,→,0.5925947999930941,False,19,-1,0,13
Y2-S2-280M21,8,759,AS,exp,36,↑,up,↑,0.4340021999669261,True,20,-1,0,13
Y2-S2-280M21,8,760,AS,exp,28,←,right,→,0.5892310999915935,False,20,-1,0,13
Y2-S2-280M21,8,761,AS,exp,29,↑,up,↑,0.4505525999702513,True,21,-1,0,13
Y2-S2-280M21,8,762,AS,exp,45,→,down,↓,0.8039744999841787,False,21,-1,0,13
Y2-S2-280M21,8,763,AS,exp,39,←,left,←,0.450253100018017,True,22,-1,0,13
Y2-S2-280M21,8,764,AS,exp,26,↑,up,↑,0.45092819997807965,True,22,-1,0,13
Y2-S2-280M21,8,765,AS,exp,30,→,right,→,0.4004803000134416,True,22,1,1,14
Y2-S2-280M21,8,766,AS,exp,36,↓,left,←,0.7586787000182085,False,21,-1,1,15
Y2-S2-280M21,8,767,AS,exp,44,↑,up,↑,0.4006461999961175,True,22,-1,0,15
Y2-S2-280M21,8,768,AS,exp,50,→,right,→,0.40112980001140386,True,22,-1,0,15
Y2-S2-280M21,8,769,AS,exp,44,↓,left,←,0.6324427999788895,False,22,-1,0,15
Y2-S2-280M21,8,770,AS,exp,32,→,down,↓,0.603276600013487,False,23,-1,0,15
Y2-S2-280M21,8,771,AS,exp,38,↑,up,↑,0.4005403000046499,True,24,-1,0,15
Y2-S2-280M21,8,772,AS,exp,34,←,left,←,0.7837606999673881,True,24,-1,0,15
Y2-S2-280M21,8,773,AS,exp,31,↑,up,↑,0.4169401000253856,True,24,1,1,16
