PART_ID,Block_no,Trial_no,Block_type,Trial_type,CSI,Stim_letter,Key_pressed,letter_choose,Rt,Corr,Stimulus Time,Level,Reversal,Revs_count
Y2-S2-171K21,1,1,PS,train,37,←,left,←,1.167537200031802,True,30,-,-,-
Y2-S2-171K21,1,2,PS,train,43,→,right,→,0.6924837999977171,True,30,-,-,-
Y2-S2-171K21,1,3,PS,train,45,↑,up,↑,0.9735568000469357,True,30,-,-,-
Y2-S2-171K21,1,4,PS,train,34,←,left,←,0.6760470001026988,True,30,-,-,-
Y2-S2-171K21,1,5,PS,train,32,↓,down,↓,0.894483899930492,True,30,-,-,-
Y2-S2-171K21,1,6,PS,train,41,←,left,←,0.5673944000154734,True,30,-,-,-
Y2-S2-171K21,1,7,PS,train,28,↑,up,↑,0.7855863999575377,True,30,-,-,-
Y2-S2-171K21,1,8,PS,train,32,←,left,←,0.5007113001774997,True,30,-,-,-
Y2-S2-171K21,1,9,PS,train,41,↓,down,↓,0.7599615999497473,True,30,-,-,-
Y2-S2-171K21,1,10,PS,train,46,←,left,←,0.46776379994116724,True,30,-,-,-
Y2-S2-171K21,2,11,AS,train,47,↑,up,↑,0.8506676000542939,True,45,-,-,-
Y2-S2-171K21,2,12,AS,train,26,↓,down,↓,0.6513913001399487,True,45,-,-,-
Y2-S2-171K21,2,13,AS,train,29,←,left,←,0.5346850999630988,True,45,-,-,-
Y2-S2-171K21,2,14,AS,train,33,↑,up,↑,0.6848179998341948,True,45,-,-,-
Y2-S2-171K21,2,15,AS,train,42,↓,down,↓,0.8839658000506461,True,45,-,-,-
Y2-S2-171K21,2,16,AS,train,32,↑,up,↑,0.9730984000489116,True,45,-,-,-
Y2-S2-171K21,2,17,AS,train,33,←,left,←,0.7837910000234842,True,45,-,-,-
Y2-S2-171K21,2,18,AS,train,48,→,right,→,0.7839964998420328,True,45,-,-,-
Y2-S2-171K21,2,19,AS,train,27,←,left,←,0.7506498999428004,True,45,-,-,-
Y2-S2-171K21,2,20,AS,train,33,↓,down,↓,0.7010913998819888,True,45,-,-,-
Y2-S2-171K21,-,21,PS,adaptive,30,←,left,←,0.5070784001145512,True,10,0,0,0
Y2-S2-171K21,-,22,PS,adaptive,26,↑,up,↑,0.7911976000759751,True,10,0,0,0
Y2-S2-171K21,-,23,PS,adaptive,37,→,down,↓,1.6347302999347448,False,10,-1,0,0
Y2-S2-171K21,-,24,PS,adaptive,38,↑,left,←,1.654371100012213,False,11,-1,0,0
Y2-S2-171K21,-,25,PS,adaptive,33,↓,down,↓,0.6378606001380831,True,12,-1,0,0
Y2-S2-171K21,-,26,PS,adaptive,46,→,right,→,0.8358825999312103,True,12,-1,0,0
Y2-S2-171K21,-,27,PS,adaptive,43,↑,up,↑,0.5728545999154449,True,12,1,1,1
Y2-S2-171K21,-,28,PS,adaptive,35,→,up,↑,1.0103578998241574,False,11,-1,1,2
Y2-S2-171K21,-,29,PS,adaptive,43,↑,up,↑,0.6365586000028998,True,12,-1,0,2
Y2-S2-171K21,-,30,PS,adaptive,40,←,left,←,0.9595499001443386,True,12,-1,0,2
Y2-S2-171K21,-,31,PS,adaptive,25,↑,up,↑,0.8449256999883801,True,12,1,1,3
Y2-S2-171K21,-,32,PS,adaptive,29,→,right,→,0.8494514999911189,True,11,1,0,3
Y2-S2-171K21,-,33,PS,adaptive,42,↑,left,←,0.7001698999665678,False,11,-1,1,4
Y2-S2-171K21,-,34,AS,adaptive,25,→,right,→,0.7152233999222517,True,20,0,0,0
Y2-S2-171K21,-,35,AS,adaptive,48,←,left,←,0.46726419986225665,True,20,0,0,0
Y2-S2-171K21,-,36,AS,adaptive,31,↑,up,↑,0.906834099907428,True,20,1,0,0
Y2-S2-171K21,-,37,AS,adaptive,32,↓,down,↓,0.6903123999945819,True,19,1,0,0
Y2-S2-171K21,-,38,AS,adaptive,25,←,up,↑,0.8836337998509407,False,19,-1,1,1
Y2-S2-171K21,-,39,AS,adaptive,42,↓,down,↓,0.7371141000185162,True,20,-1,0,1
Y2-S2-171K21,-,40,AS,adaptive,44,←,left,←,0.45052809990011156,True,20,-1,0,1
Y2-S2-171K21,-,41,AS,adaptive,39,→,right,→,0.6655834000557661,True,20,1,1,2
Y2-S2-171K21,-,42,AS,adaptive,25,←,left,←,0.45057640015147626,True,19,1,0,2
Y2-S2-171K21,-,43,AS,adaptive,50,→,right,→,0.6116384000051767,True,19,1,0,2
Y2-S2-171K21,-,44,AS,adaptive,33,↑,down,↓,1.0274813999421895,False,19,-1,1,3
Y2-S2-171K21,-,45,AS,adaptive,44,←,left,←,1.3902859999798238,True,20,-1,0,3
Y2-S2-171K21,-,46,AS,adaptive,47,→,right,→,0.8548006999772042,True,20,-1,0,3
Y2-S2-171K21,-,47,AS,adaptive,45,↓,down,↓,0.6401959999930114,True,20,1,1,4
Y2-S2-171K21,1,48,PS,intra_train,41,↑,up,↑,1.1913547001313418,True,18,-,-,-
Y2-S2-171K21,1,49,PS,intra_train,33,↓,down,↓,1.3044104999862611,True,18,-,-,-
Y2-S2-171K21,1,50,PS,intra_train,47,→,right,→,0.7247268999926746,True,18,-,-,-
Y2-S2-171K21,1,51,PS,intra_train,44,↓,down,↓,1.0177869000472128,True,18,-,-,-
Y2-S2-171K21,1,52,PS,intra_train,50,→,right,→,0.5082757999189198,True,18,-,-,-
Y2-S2-171K21,1,53,PS,exp,37,↓,down,↓,0.5145543001126498,True,12,0,0,0
Y2-S2-171K21,1,54,PS,exp,36,→,right,→,0.9587311001960188,True,12,0,0,0
Y2-S2-171K21,1,55,PS,exp,33,↓,right,→,0.8453524000942707,False,12,-1,0,0
Y2-S2-171K21,1,56,PS,exp,33,↑,up,↑,0.8314787999261171,True,13,-1,0,0
Y2-S2-171K21,1,57,PS,exp,49,→,right,→,0.5306822001002729,True,13,-1,0,0
Y2-S2-171K21,1,58,PS,exp,45,↓,down,↓,0.5707376999780536,True,13,1,1,1
Y2-S2-171K21,1,59,PS,exp,32,←,left,←,0.7272838000208139,True,12,1,0,1
Y2-S2-171K21,1,60,PS,exp,36,→,right,→,0.49265390005894005,True,12,1,0,1
Y2-S2-171K21,1,61,PS,exp,48,↑,up,↑,0.6738279000855982,True,12,1,0,1
Y2-S2-171K21,1,62,PS,exp,36,→,right,→,0.6030307000037283,True,11,1,0,1
Y2-S2-171K21,1,63,PS,exp,28,↑,up,↑,0.59669110015966,True,11,1,0,1
Y2-S2-171K21,1,64,PS,exp,37,↓,down,↓,0.5014843000099063,True,11,1,0,1
Y2-S2-171K21,1,65,PS,exp,42,→,right,→,0.4919608999043703,True,10,1,0,1
Y2-S2-171K21,1,66,PS,exp,25,↑,up,↑,0.9331985001917928,True,10,1,0,1
Y2-S2-171K21,1,67,PS,exp,39,→,up,↑,0.8529856998939067,False,10,-1,1,2
Y2-S2-171K21,1,68,PS,exp,37,←,left,←,0.5292690000496805,True,11,-1,0,2
Y2-S2-171K21,1,69,PS,exp,39,↑,up,↑,0.642422900069505,True,11,-1,0,2
Y2-S2-171K21,1,70,PS,exp,44,←,left,←,0.6118890000507236,True,11,1,1,3
Y2-S2-171K21,1,71,PS,exp,47,↑,up,↑,0.7622980000451207,True,10,1,0,3
Y2-S2-171K21,1,72,PS,exp,35,↓,up,↑,0.6955258999951184,False,10,-1,1,4
Y2-S2-171K21,1,73,PS,exp,27,→,right,→,0.5306516999844462,True,11,-1,0,4
Y2-S2-171K21,1,74,PS,exp,25,←,left,←,0.4425042001530528,True,11,-1,0,4
Y2-S2-171K21,1,75,PS,exp,30,→,right,→,0.8101643999107182,True,11,1,1,5
Y2-S2-171K21,1,76,PS,exp,44,↑,up,↑,0.5634497001301497,True,10,1,0,5
Y2-S2-171K21,1,77,PS,exp,39,→,down,↓,0.8916434000711888,False,10,-1,1,6
Y2-S2-171K21,1,78,PS,exp,29,↓,down,↓,0.6361791999079287,True,11,-1,0,6
Y2-S2-171K21,1,79,PS,exp,37,↑,up,↑,0.6813954000826925,True,11,-1,0,6
Y2-S2-171K21,1,80,PS,exp,43,←,left,←,0.5205907998606563,True,11,1,1,7
Y2-S2-171K21,1,81,PS,exp,34,↓,down,↓,0.5550881999079138,True,10,1,0,7
Y2-S2-171K21,1,82,PS,exp,32,←,left,←,0.5893166000023484,True,10,1,0,7
Y2-S2-171K21,1,83,PS,exp,45,↓,down,↓,0.7260112001094967,True,10,1,0,7
Y2-S2-171K21,1,84,PS,exp,27,←,left,←,0.584282899973914,True,9,1,0,7
Y2-S2-171K21,1,85,PS,exp,26,↑,up,↑,0.6901963998097926,True,9,1,0,7
Y2-S2-171K21,1,86,PS,exp,30,→,right,→,0.5703350999392569,True,9,1,0,7
Y2-S2-171K21,1,87,PS,exp,28,←,left,←,0.717087300028652,True,8,1,0,7
Y2-S2-171K21,1,88,PS,exp,25,↑,down,↓,0.6735785999335349,False,8,-1,1,8
Y2-S2-171K21,1,89,PS,exp,49,↓,down,↓,0.6252311000134796,True,9,-1,0,8
Y2-S2-171K21,1,90,PS,exp,41,→,right,→,0.6626263000071049,True,9,-1,0,8
Y2-S2-171K21,1,91,PS,exp,36,←,left,←,0.6875409998465329,True,9,1,1,9
Y2-S2-171K21,1,92,PS,exp,25,↓,down,↓,0.6149112000130117,True,8,1,0,9
Y2-S2-171K21,1,93,PS,exp,27,↑,up,↑,1.2337456999812275,True,8,1,0,9
Y2-S2-171K21,1,94,PS,exp,34,←,down,↓,0.7007838999852538,False,8,-1,1,10
Y2-S2-171K21,1,95,PS,exp,49,↓,left,←,1.0237499000504613,False,9,-1,0,10
Y2-S2-171K21,1,96,PS,exp,32,↑,left,←,0.9773450999055058,False,10,-1,0,10
Y2-S2-171K21,1,97,PS,exp,38,↓,down,↓,0.571308400016278,True,11,-1,0,10
Y2-S2-171K21,1,98,PS,exp,34,↑,down,↓,0.9863291000947356,False,11,-1,0,10
Y2-S2-171K21,1,99,PS,exp,49,↓,down,↓,0.6001416998915374,True,12,-1,0,10
Y2-S2-171K21,1,100,PS,exp,30,→,right,→,0.68168959999457,True,12,-1,0,10
Y2-S2-171K21,1,101,PS,exp,26,↓,down,↓,0.6424390999600291,True,12,1,1,11
Y2-S2-171K21,1,102,PS,exp,38,←,left,←,0.5151050998829305,True,11,1,0,11
Y2-S2-171K21,1,103,PS,exp,49,↑,up,↑,1.3228730000555515,True,11,1,0,11
Y2-S2-171K21,1,104,PS,exp,35,←,left,←,0.7333078999072313,True,11,1,0,11
Y2-S2-171K21,1,105,PS,exp,33,↑,left,←,0.9293907999526709,False,10,-1,1,12
Y2-S2-171K21,1,106,PS,exp,32,→,right,→,0.7151429001241922,True,11,-1,0,12
Y2-S2-171K21,1,107,PS,exp,40,←,left,←,0.7568904000800103,True,11,-1,0,12
Y2-S2-171K21,1,108,PS,exp,44,↓,down,↓,0.592639499809593,True,11,1,1,13
Y2-S2-171K21,1,109,PS,exp,25,←,left,←,0.49978809989988804,True,10,1,0,13
Y2-S2-171K21,1,110,PS,exp,47,↑,up,↑,0.6966538999695331,True,10,1,0,13
Y2-S2-171K21,1,111,PS,exp,29,↓,down,↓,0.6442263000644743,True,10,1,0,13
Y2-S2-171K21,1,112,PS,exp,44,←,left,←,0.5309339999221265,True,9,1,0,13
Y2-S2-171K21,1,113,PS,exp,34,↓,down,↓,0.5962059998419136,True,9,1,0,13
Y2-S2-171K21,1,114,PS,exp,29,←,right,→,0.6779507000464946,False,9,-1,1,14
Y2-S2-171K21,1,115,PS,exp,39,↑,up,↑,1.2469885998871177,True,10,-1,0,14
Y2-S2-171K21,1,116,PS,exp,26,←,left,←,0.5542896999977529,True,10,-1,0,14
Y2-S2-171K21,1,117,PS,exp,33,→,right,→,0.5388449998572469,True,10,1,1,15
Y2-S2-171K21,1,118,PS,exp,47,↓,down,↓,0.6593574001453817,True,9,1,0,15
Y2-S2-171K21,1,119,PS,exp,44,→,right,→,0.6012856001034379,True,9,1,0,15
Y2-S2-171K21,1,120,PS,exp,34,↑,up,↑,0.7252306998707354,True,9,1,0,15
Y2-S2-171K21,1,121,PS,exp,49,→,left,←,0.6551727999467403,False,8,-1,1,16
Y2-S2-171K21,2,122,AS,intra_train,26,↓,down,↓,0.96904919994995,True,28,-,-,-
Y2-S2-171K21,2,123,AS,intra_train,43,←,left,←,0.5839674999006093,True,28,-,-,-
Y2-S2-171K21,2,124,AS,intra_train,29,↑,up,↑,0.7977503000292927,True,28,-,-,-
Y2-S2-171K21,2,125,AS,intra_train,26,←,left,←,1.405456499895081,True,28,-,-,-
Y2-S2-171K21,2,126,AS,intra_train,31,↑,up,↑,0.7532279000151902,True,28,-,-,-
Y2-S2-171K21,2,127,AS,exp,35,↓,up,↑,0.9886900000274181,False,19,-1,0,0
Y2-S2-171K21,2,128,AS,exp,33,↑,up,↑,0.7568169999867678,True,20,-1,0,0
Y2-S2-171K21,2,129,AS,exp,40,↓,down,↓,0.9830104000866413,True,20,-1,0,0
Y2-S2-171K21,2,130,AS,exp,44,→,right,→,0.6853308000136167,True,20,1,1,1
Y2-S2-171K21,2,131,AS,exp,36,↓,down,↓,0.7474209999199957,True,19,1,0,1
Y2-S2-171K21,2,132,AS,exp,27,↑,up,↑,0.9292931000236422,True,19,1,0,1
Y2-S2-171K21,2,133,AS,exp,46,←,left,←,0.6010658999439329,True,19,1,0,1
Y2-S2-171K21,2,134,AS,exp,31,↓,down,↓,0.7195011000148952,True,18,1,0,1
Y2-S2-171K21,2,135,AS,exp,34,←,no_key,no_letter,-1.0,False,18,-1,1,2
Y2-S2-171K21,2,136,AS,exp,40,↓,down,↓,0.8003083998337388,True,19,-1,0,2
Y2-S2-171K21,2,137,AS,exp,39,↑,up,↑,0.7046597998123616,True,19,-1,0,2
Y2-S2-171K21,2,138,AS,exp,27,←,left,←,0.8066082000732422,True,19,1,1,3
Y2-S2-171K21,2,139,AS,exp,25,↓,down,↓,0.70294119999744,True,18,1,0,3
Y2-S2-171K21,2,140,AS,exp,35,→,right,→,1.2955793000292033,True,18,1,0,3
Y2-S2-171K21,2,141,AS,exp,35,↑,up,↑,0.7102856000419706,True,18,1,0,3
Y2-S2-171K21,2,142,AS,exp,28,→,left,←,0.9144948001485318,False,17,-1,1,4
Y2-S2-171K21,2,143,AS,exp,38,←,left,←,0.5577725002076477,True,18,-1,0,4
Y2-S2-171K21,2,144,AS,exp,47,↑,up,↑,0.8008572000544518,True,18,-1,0,4
Y2-S2-171K21,2,145,AS,exp,27,→,right,→,0.6141333000268787,True,18,1,1,5
Y2-S2-171K21,2,146,AS,exp,43,↑,up,↑,0.7288812999613583,True,17,1,0,5
Y2-S2-171K21,2,147,AS,exp,44,←,left,←,0.5945731999818236,True,17,1,0,5
Y2-S2-171K21,2,148,AS,exp,38,→,right,→,0.6772938000503927,True,17,1,0,5
Y2-S2-171K21,2,149,AS,exp,29,↑,down,↓,0.7907927001360804,False,16,-1,1,6
Y2-S2-171K21,2,150,AS,exp,50,←,left,←,0.6544570999685675,True,17,-1,0,6
Y2-S2-171K21,2,151,AS,exp,28,↑,up,↑,0.6655348998028785,True,17,-1,0,6
Y2-S2-171K21,2,152,AS,exp,34,←,left,←,0.5235997000709176,True,17,1,1,7
Y2-S2-171K21,2,153,AS,exp,46,↓,down,↓,0.6910109999589622,True,16,1,0,7
Y2-S2-171K21,2,154,AS,exp,27,↑,up,↑,0.6316129001788795,True,16,1,0,7
Y2-S2-171K21,2,155,AS,exp,34,→,right,→,0.6614266000688076,True,16,1,0,7
Y2-S2-171K21,2,156,AS,exp,42,↑,up,↑,0.624044300056994,True,15,1,0,7
Y2-S2-171K21,2,157,AS,exp,33,→,right,→,0.5706837999168783,True,15,1,0,7
Y2-S2-171K21,2,158,AS,exp,48,←,left,←,0.6333831001538783,True,15,1,0,7
Y2-S2-171K21,2,159,AS,exp,37,↓,down,↓,0.7774066000711173,True,14,1,0,7
Y2-S2-171K21,2,160,AS,exp,34,→,up,↑,1.4992941999807954,False,14,-1,1,8
Y2-S2-171K21,2,161,AS,exp,25,↑,up,↑,0.9100081999786198,True,15,-1,0,8
Y2-S2-171K21,2,162,AS,exp,48,→,right,→,0.611239799996838,True,15,-1,0,8
Y2-S2-171K21,2,163,AS,exp,40,↓,down,↓,0.6191758001223207,True,15,1,1,9
Y2-S2-171K21,2,164,AS,exp,40,→,up,↑,0.9330074000172317,False,14,-1,1,10
Y2-S2-171K21,2,165,AS,exp,30,↑,up,↑,0.6589271000120789,True,15,-1,0,10
Y2-S2-171K21,2,166,AS,exp,31,←,left,←,0.7433503998909146,True,15,-1,0,10
Y2-S2-171K21,2,167,AS,exp,45,↑,up,↑,0.8783082999289036,True,15,1,1,11
Y2-S2-171K21,2,168,AS,exp,35,↓,down,↓,0.6543457999359816,True,14,1,0,11
Y2-S2-171K21,2,169,AS,exp,38,→,up,↑,0.8436234998516738,False,14,-1,1,12
Y2-S2-171K21,2,170,AS,exp,49,↑,up,↑,0.5550700000021607,True,15,-1,0,12
Y2-S2-171K21,2,171,AS,exp,33,←,left,←,0.5322054999414831,True,15,-1,0,12
Y2-S2-171K21,2,172,AS,exp,43,↑,up,↑,0.6557126000989228,True,15,1,1,13
Y2-S2-171K21,2,173,AS,exp,41,→,right,→,0.535917199915275,True,14,1,0,13
Y2-S2-171K21,2,174,AS,exp,39,↓,down,↓,0.7157619998324662,True,14,1,0,13
Y2-S2-171K21,2,175,AS,exp,31,↑,up,↑,0.8597899000160396,True,14,1,0,13
Y2-S2-171K21,2,176,AS,exp,41,↓,down,↓,0.5501292999833822,True,13,1,0,13
Y2-S2-171K21,2,177,AS,exp,38,←,left,←,0.6352162999100983,True,13,1,0,13
Y2-S2-171K21,2,178,AS,exp,28,→,right,→,0.5570269001182169,True,13,1,0,13
Y2-S2-171K21,2,179,AS,exp,50,↓,down,↓,0.5730310000944883,True,12,1,0,13
Y2-S2-171K21,2,180,AS,exp,32,→,right,→,0.6019380998332053,True,12,1,0,13
Y2-S2-171K21,2,181,AS,exp,42,↓,left,←,0.7327958999667317,False,12,-1,1,14
Y2-S2-171K21,2,182,AS,exp,40,→,right,→,0.5332585000433028,True,13,-1,0,14
Y2-S2-171K21,2,183,AS,exp,39,←,left,←,0.45801610010676086,True,13,-1,0,14
Y2-S2-171K21,2,184,AS,exp,36,↓,up,↑,0.967667100019753,False,13,-1,0,14
Y2-S2-171K21,2,185,AS,exp,34,←,up,↑,0.8260694998316467,False,14,-1,0,14
Y2-S2-171K21,2,186,AS,exp,30,↓,down,↓,0.6161293999757618,True,15,-1,0,14
Y2-S2-171K21,2,187,AS,exp,30,→,right,→,0.6205391001421958,True,15,-1,0,14
Y2-S2-171K21,2,188,AS,exp,30,↑,up,↑,0.6832294999621809,True,15,1,1,15
Y2-S2-171K21,2,189,AS,exp,47,←,left,←,0.7683313000015914,True,14,1,0,15
Y2-S2-171K21,2,190,AS,exp,38,↑,up,↑,0.986544799990952,True,14,1,0,15
Y2-S2-171K21,2,191,AS,exp,27,→,right,→,0.694201499922201,True,14,1,0,15
Y2-S2-171K21,2,192,AS,exp,31,↓,up,↑,0.9693314000032842,False,13,-1,1,16
Y2-S2-171K21,3,193,AS,intra_train,44,→,right,→,0.5837371998932213,True,28,-,-,-
Y2-S2-171K21,3,194,AS,intra_train,30,↑,up,↑,0.5502981999889016,True,28,-,-,-
Y2-S2-171K21,3,195,AS,intra_train,35,→,right,→,0.5507016000337899,True,28,-,-,-
Y2-S2-171K21,3,196,AS,intra_train,41,↑,up,↑,0.6007446998264641,True,28,-,-,-
Y2-S2-171K21,3,197,AS,intra_train,33,←,right,→,0.53396139992401,False,28,-,-,-
Y2-S2-171K21,3,198,AS,exp,39,→,right,→,0.6651281998492777,True,19,0,0,0
Y2-S2-171K21,3,199,AS,exp,36,↑,right,→,1.3074575001373887,False,19,-1,0,0
Y2-S2-171K21,3,200,AS,exp,42,→,right,→,0.5788753000088036,True,20,-1,0,0
Y2-S2-171K21,3,201,AS,exp,31,←,left,←,0.566462199902162,True,20,-1,0,0
Y2-S2-171K21,3,202,AS,exp,27,→,right,→,0.5790828999597579,True,20,1,1,1
Y2-S2-171K21,3,203,AS,exp,47,↓,down,↓,1.0719951000064611,True,19,1,0,1
Y2-S2-171K21,3,204,AS,exp,34,→,left,←,0.926970899803564,False,19,-1,1,2
Y2-S2-171K21,3,205,AS,exp,47,↓,down,↓,0.7984382999129593,True,20,-1,0,2
Y2-S2-171K21,3,206,AS,exp,50,→,right,→,0.6027776999399066,True,20,-1,0,2
Y2-S2-171K21,3,207,AS,exp,31,↓,down,↓,0.8020003999117762,True,20,1,1,3
Y2-S2-171K21,3,208,AS,exp,31,→,right,→,0.8274568000342697,True,19,1,0,3
Y2-S2-171K21,3,209,AS,exp,26,↑,up,↑,0.9649636000394821,True,19,1,0,3
Y2-S2-171K21,3,210,AS,exp,46,↓,down,↓,0.7117089000530541,True,19,1,0,3
Y2-S2-171K21,3,211,AS,exp,29,←,left,←,0.6199664999730885,True,18,1,0,3
Y2-S2-171K21,3,212,AS,exp,40,→,right,→,0.7496863999404013,True,18,1,0,3
Y2-S2-171K21,3,213,AS,exp,35,↓,down,↓,0.6547097000293434,True,18,1,0,3
Y2-S2-171K21,3,214,AS,exp,29,→,right,→,0.5177951999939978,True,17,1,0,3
Y2-S2-171K21,3,215,AS,exp,32,↑,up,↑,0.9462214999366552,True,17,1,0,3
Y2-S2-171K21,3,216,AS,exp,42,↓,down,↓,0.6996946998406202,True,17,1,0,3
Y2-S2-171K21,3,217,AS,exp,49,→,left,←,1.0610650000162423,False,16,-1,1,4
Y2-S2-171K21,3,218,AS,exp,26,←,left,←,0.5985622000880539,True,17,-1,0,4
Y2-S2-171K21,3,219,AS,exp,31,↑,up,↑,0.6947620999999344,True,17,-1,0,4
Y2-S2-171K21,3,220,AS,exp,35,←,left,←,0.7221398998517543,True,17,1,1,5
Y2-S2-171K21,3,221,AS,exp,46,→,left,←,0.8413705001585186,False,16,-1,1,6
Y2-S2-171K21,3,222,AS,exp,32,↑,up,↑,0.7332410998642445,True,17,-1,0,6
Y2-S2-171K21,3,223,AS,exp,44,←,left,←,0.6199506998527795,True,17,-1,0,6
Y2-S2-171K21,3,224,AS,exp,39,→,right,→,0.5323315998539329,True,17,1,1,7
Y2-S2-171K21,3,225,AS,exp,45,↓,down,↓,0.7130340000148863,True,16,1,0,7
Y2-S2-171K21,3,226,AS,exp,27,←,left,←,0.7168300999328494,True,16,1,0,7
Y2-S2-171K21,3,227,AS,exp,34,→,left,←,0.9763588001951575,False,16,-1,1,8
Y2-S2-171K21,3,228,AS,exp,43,↓,down,↓,0.7051756998989731,True,17,-1,0,8
Y2-S2-171K21,3,229,AS,exp,43,←,left,←,0.6607278001029044,True,17,-1,0,8
Y2-S2-171K21,3,230,AS,exp,31,↓,down,↓,0.6587553999852389,True,17,1,1,9
Y2-S2-171K21,3,231,AS,exp,42,→,up,↑,1.0493621998466551,False,16,-1,1,10
Y2-S2-171K21,3,232,AS,exp,43,↑,up,↑,0.617171399993822,True,17,-1,0,10
Y2-S2-171K21,3,233,AS,exp,48,→,right,→,0.5882468000054359,True,17,-1,0,10
Y2-S2-171K21,3,234,AS,exp,41,↑,up,↑,0.7014325000345707,True,17,1,1,11
Y2-S2-171K21,3,235,AS,exp,33,←,left,←,0.579719000030309,True,16,1,0,11
Y2-S2-171K21,3,236,AS,exp,46,↓,down,↓,0.7049724999815226,True,16,1,0,11
Y2-S2-171K21,3,237,AS,exp,29,↑,up,↑,0.6870299000293016,True,16,1,0,11
Y2-S2-171K21,3,238,AS,exp,40,→,left,←,0.7399499998427927,False,15,-1,1,12
Y2-S2-171K21,3,239,AS,exp,29,↓,down,↓,0.7132665000390261,True,16,-1,0,12
Y2-S2-171K21,3,240,AS,exp,33,↑,up,↑,0.7256251000799239,True,16,-1,0,12
Y2-S2-171K21,3,241,AS,exp,40,→,right,→,0.47012769989669323,True,16,1,1,13
Y2-S2-171K21,3,242,AS,exp,43,↑,up,↑,0.9008826999925077,True,15,1,0,13
Y2-S2-171K21,3,243,AS,exp,47,←,left,←,0.5997679000720382,True,15,1,0,13
Y2-S2-171K21,3,244,AS,exp,41,→,left,←,0.8376482999883592,False,15,-1,1,14
Y2-S2-171K21,3,245,AS,exp,27,↑,up,↑,0.5980630998965353,True,16,-1,0,14
Y2-S2-171K21,3,246,AS,exp,44,↓,down,↓,0.7683815001510084,True,16,-1,0,14
Y2-S2-171K21,3,247,AS,exp,28,↑,up,↑,0.7054119000677019,True,16,1,1,15
Y2-S2-171K21,3,248,AS,exp,36,←,up,↑,1.0049818998668343,False,15,-1,1,16
Y2-S2-171K21,4,249,PS,intra_train,31,→,right,→,0.6015018001198769,True,18,-,-,-
Y2-S2-171K21,4,250,PS,intra_train,39,↑,up,↑,0.5274467000272125,True,18,-,-,-
Y2-S2-171K21,4,251,PS,intra_train,38,←,left,←,0.6016895999200642,True,18,-,-,-
Y2-S2-171K21,4,252,PS,intra_train,29,→,right,→,0.6607576999813318,True,18,-,-,-
Y2-S2-171K21,4,253,PS,intra_train,38,↑,up,↑,0.6353428999427706,True,18,-,-,-
Y2-S2-171K21,4,254,PS,exp,37,→,right,→,0.841203800169751,True,12,0,0,0
Y2-S2-171K21,4,255,PS,exp,28,↓,down,↓,1.278243799926713,True,12,0,0,0
Y2-S2-171K21,4,256,PS,exp,27,→,right,→,0.8706187999341637,True,12,1,0,0
Y2-S2-171K21,4,257,PS,exp,46,←,left,←,0.4683538000099361,True,11,1,0,0
Y2-S2-171K21,4,258,PS,exp,45,↑,up,↑,0.9997046999633312,True,11,1,0,0
Y2-S2-171K21,4,259,PS,exp,42,↓,down,↓,1.382939200149849,True,11,1,0,0
Y2-S2-171K21,4,260,PS,exp,49,←,left,←,0.4468388999812305,True,10,1,0,0
Y2-S2-171K21,4,261,PS,exp,25,↓,down,↓,0.6503942999988794,True,10,1,0,0
Y2-S2-171K21,4,262,PS,exp,50,←,left,←,0.49443419999442995,True,10,1,0,0
Y2-S2-171K21,4,263,PS,exp,40,→,right,→,0.5029004998505116,True,9,1,0,0
Y2-S2-171K21,4,264,PS,exp,37,↓,left,←,1.0750132000539452,False,9,-1,1,1
Y2-S2-171K21,4,265,PS,exp,50,→,right,→,0.6006982999388129,True,10,-1,0,1
Y2-S2-171K21,4,266,PS,exp,32,↓,down,↓,0.6458815999794751,True,10,-1,0,1
Y2-S2-171K21,4,267,PS,exp,26,↑,up,↑,0.9474936001934111,True,10,1,1,2
Y2-S2-171K21,4,268,PS,exp,30,→,right,→,0.6499407000374049,True,9,1,0,2
Y2-S2-171K21,4,269,PS,exp,28,←,left,←,0.45379420020617545,True,9,1,0,2
Y2-S2-171K21,4,270,PS,exp,31,↑,right,→,1.0883653999771923,False,9,-1,1,3
Y2-S2-171K21,4,271,PS,exp,50,→,right,→,0.5409604997839779,True,10,-1,0,3
Y2-S2-171K21,4,272,PS,exp,33,↑,up,↑,0.7370549999177456,True,10,-1,0,3
Y2-S2-171K21,4,273,PS,exp,26,↓,up,↑,1.2094395000021905,False,10,-1,0,3
Y2-S2-171K21,4,274,PS,exp,33,→,right,→,0.514075999846682,True,11,-1,0,3
Y2-S2-171K21,4,275,PS,exp,26,←,left,←,0.49683770001865923,True,11,-1,0,3
Y2-S2-171K21,4,276,PS,exp,50,↑,up,↑,0.6699767000973225,True,11,1,1,4
Y2-S2-171K21,4,277,PS,exp,25,↓,down,↓,0.6689049999695271,True,10,1,0,4
Y2-S2-171K21,4,278,PS,exp,48,←,left,←,1.0807727000210434,True,10,1,0,4
Y2-S2-171K21,4,279,PS,exp,31,↑,up,↑,0.6343212998472154,True,10,1,0,4
Y2-S2-171K21,4,280,PS,exp,42,↓,left,←,0.9688945999369025,False,9,-1,1,5
Y2-S2-171K21,4,281,PS,exp,26,↑,left,←,0.7449211000930518,False,10,-1,0,5
Y2-S2-171K21,4,282,PS,exp,46,↓,down,↓,0.7641966000664979,True,11,-1,0,5
Y2-S2-171K21,4,283,PS,exp,33,→,right,→,0.5516592999920249,True,11,-1,0,5
Y2-S2-171K21,4,284,PS,exp,47,↓,up,↑,1.293557500001043,False,11,-1,0,5
Y2-S2-171K21,4,285,PS,exp,38,→,right,→,0.5271509001031518,True,12,-1,0,5
Y2-S2-171K21,4,286,PS,exp,50,←,left,←,0.4802840000484139,True,12,-1,0,5
Y2-S2-171K21,4,287,PS,exp,39,↓,down,↓,0.7757655999157578,True,12,1,1,6
Y2-S2-171K21,4,288,PS,exp,29,←,left,←,0.5442852999549359,True,11,1,0,6
Y2-S2-171K21,4,289,PS,exp,36,→,right,→,0.6295847001019865,True,11,1,0,6
Y2-S2-171K21,4,290,PS,exp,43,↓,down,↓,0.646610600175336,True,11,1,0,6
Y2-S2-171K21,4,291,PS,exp,28,→,right,→,0.8012739000841975,True,10,1,0,6
Y2-S2-171K21,4,292,PS,exp,49,↓,down,↓,0.6504228000994772,True,10,1,0,6
Y2-S2-171K21,4,293,PS,exp,32,↑,no_key,no_letter,-1.0,False,10,-1,1,7
Y2-S2-171K21,4,294,PS,exp,32,→,left,←,0.8092511999420822,False,11,-1,0,7
Y2-S2-171K21,4,295,PS,exp,27,↑,up,↑,0.8701136000454426,True,12,-1,0,7
Y2-S2-171K21,4,296,PS,exp,34,→,right,→,0.6907281000167131,True,12,-1,0,7
Y2-S2-171K21,4,297,PS,exp,31,↑,up,↑,0.9326770999468863,True,12,1,1,8
Y2-S2-171K21,4,298,PS,exp,25,←,left,←,0.5443643999751657,True,11,1,0,8
Y2-S2-171K21,4,299,PS,exp,39,→,right,→,0.49972509988583624,True,11,1,0,8
Y2-S2-171K21,4,300,PS,exp,29,↑,up,↑,0.7853979000356048,True,11,1,0,8
Y2-S2-171K21,4,301,PS,exp,48,↓,down,↓,0.5938830999657512,True,10,1,0,8
Y2-S2-171K21,4,302,PS,exp,43,←,left,←,0.3859526999294758,True,10,1,0,8
Y2-S2-171K21,4,303,PS,exp,44,→,right,→,0.44197280006483197,True,10,1,0,8
Y2-S2-171K21,4,304,PS,exp,39,↓,down,↓,0.6395219000987709,True,9,1,0,8
Y2-S2-171K21,4,305,PS,exp,32,↑,up,↑,0.7614946998655796,True,9,1,0,8
Y2-S2-171K21,4,306,PS,exp,40,→,right,→,0.8519414002075791,True,9,1,0,8
Y2-S2-171K21,4,307,PS,exp,45,↓,down,↓,0.6511253998614848,True,8,1,0,8
Y2-S2-171K21,4,308,PS,exp,27,←,left,←,0.5080597000196576,True,8,1,0,8
Y2-S2-171K21,4,309,PS,exp,33,↑,up,↑,0.7341329001355916,True,8,1,0,8
Y2-S2-171K21,4,310,PS,exp,32,←,left,←,0.4508442000951618,True,7,1,0,8
Y2-S2-171K21,4,311,PS,exp,49,↓,down,↓,0.5689509999938309,True,7,1,0,8
Y2-S2-171K21,4,312,PS,exp,45,←,left,←,0.5361693999730051,True,7,1,0,8
Y2-S2-171K21,4,313,PS,exp,45,↓,down,↓,0.5607495999429375,True,6,1,0,8
Y2-S2-171K21,4,314,PS,exp,48,↑,up,↑,0.8657282998319715,True,6,1,0,8
Y2-S2-171K21,4,315,PS,exp,35,←,left,←,0.523694499861449,True,6,1,0,8
Y2-S2-171K21,4,316,PS,exp,49,↑,down,↓,0.6156524999532849,False,5,-1,1,9
Y2-S2-171K21,4,317,PS,exp,47,→,right,→,0.6534094999078661,True,6,-1,0,9
Y2-S2-171K21,4,318,PS,exp,44,↑,up,↑,1.0459519000723958,True,6,-1,0,9
Y2-S2-171K21,4,319,PS,exp,27,→,right,→,0.5428659999743104,True,6,1,1,10
Y2-S2-171K21,4,320,PS,exp,47,↑,up,↑,0.6308822000864893,True,5,1,0,10
Y2-S2-171K21,4,321,PS,exp,48,→,right,→,0.8123455999884754,True,5,1,0,10
Y2-S2-171K21,4,322,PS,exp,26,←,left,←,0.7151349000632763,True,5,1,0,10
Y2-S2-171K21,4,323,PS,exp,50,↑,down,↓,1.3375005000270903,False,4,-1,1,11
Y2-S2-171K21,4,324,PS,exp,32,←,left,←,0.5243859000038356,True,5,-1,0,11
Y2-S2-171K21,4,325,PS,exp,28,↓,down,↓,0.6499250000342727,True,5,-1,0,11
Y2-S2-171K21,4,326,PS,exp,43,↑,up,↑,0.8909813999198377,True,5,1,1,12
Y2-S2-171K21,4,327,PS,exp,50,←,right,→,0.7487115999683738,False,4,-1,1,13
Y2-S2-171K21,4,328,PS,exp,46,↑,left,←,0.6872497999574989,False,5,-1,0,13
Y2-S2-171K21,4,329,PS,exp,40,←,left,←,0.49951569992117584,True,6,-1,0,13
Y2-S2-171K21,4,330,PS,exp,26,↑,up,↑,0.6557738999836147,True,6,-1,0,13
Y2-S2-171K21,4,331,PS,exp,50,→,left,←,0.602441499941051,False,6,-1,0,13
Y2-S2-171K21,4,332,PS,exp,29,↓,left,←,0.5945310001261532,False,7,-1,0,13
Y2-S2-171K21,4,333,PS,exp,43,→,right,→,0.5282211999874562,True,8,-1,0,13
Y2-S2-171K21,4,334,PS,exp,48,↓,right,→,1.003230500034988,False,8,-1,0,13
Y2-S2-171K21,4,335,PS,exp,29,→,left,←,0.8383480000775307,False,9,-1,0,13
Y2-S2-171K21,4,336,PS,exp,29,↑,left,←,0.6747115000616759,False,10,-1,0,13
Y2-S2-171K21,4,337,PS,exp,36,↓,down,↓,0.7878377998713404,True,11,-1,0,13
Y2-S2-171K21,4,338,PS,exp,27,→,right,→,0.4990350999869406,True,11,-1,0,13
Y2-S2-171K21,4,339,PS,exp,33,↓,down,↓,0.622298700036481,True,11,1,1,14
Y2-S2-171K21,4,340,PS,exp,36,←,left,←,0.509067399892956,True,10,1,0,14
Y2-S2-171K21,4,341,PS,exp,38,→,right,→,0.4773800999391824,True,10,1,0,14
Y2-S2-171K21,4,342,PS,exp,42,←,right,→,0.7738599998410791,False,10,-1,1,15
Y2-S2-171K21,4,343,PS,exp,44,↑,up,↑,1.1196525997947901,True,11,-1,0,15
Y2-S2-171K21,4,344,PS,exp,36,↓,down,↓,0.7789547999855131,True,11,-1,0,15
Y2-S2-171K21,4,345,PS,exp,28,→,right,→,0.46878509991802275,True,11,1,1,16
Y2-S2-171K21,5,346,PS,intra_train,25,↓,down,↓,1.34239810006693,True,18,-,-,-
Y2-S2-171K21,5,347,PS,intra_train,42,←,left,←,0.6641889999154955,True,18,-,-,-
Y2-S2-171K21,5,348,PS,intra_train,30,↓,down,↓,0.5745391000527889,True,18,-,-,-
Y2-S2-171K21,5,349,PS,intra_train,45,←,left,←,0.5465148999355733,True,18,-,-,-
Y2-S2-171K21,5,350,PS,intra_train,29,↑,up,↑,0.950934800086543,True,18,-,-,-
Y2-S2-171K21,5,351,PS,exp,41,←,left,←,0.5189928999170661,True,12,0,0,0
Y2-S2-171K21,5,352,PS,exp,35,→,right,→,0.547972199972719,True,12,0,0,0
Y2-S2-171K21,5,353,PS,exp,36,←,left,←,0.500545300077647,True,12,1,0,0
Y2-S2-171K21,5,354,PS,exp,36,→,right,→,0.7342000000644475,True,11,1,0,0
Y2-S2-171K21,5,355,PS,exp,44,↑,up,↑,0.6346823000349104,True,11,1,0,0
Y2-S2-171K21,5,356,PS,exp,35,←,left,←,0.542117000091821,True,11,1,0,0
Y2-S2-171K21,5,357,PS,exp,33,→,right,→,0.5678552999161184,True,10,1,0,0
Y2-S2-171K21,5,358,PS,exp,50,↓,up,↑,0.8567044001538306,False,10,-1,1,1
Y2-S2-171K21,5,359,PS,exp,26,↑,up,↑,0.6259314999915659,True,11,-1,0,1
Y2-S2-171K21,5,360,PS,exp,44,→,right,→,0.5159551000688225,True,11,-1,0,1
Y2-S2-171K21,5,361,PS,exp,41,←,left,←,0.43559010000899434,True,11,1,1,2
Y2-S2-171K21,5,362,PS,exp,42,↓,down,↓,0.6158445999026299,True,10,1,0,2
Y2-S2-171K21,5,363,PS,exp,46,↑,up,↑,0.807501700008288,True,10,1,0,2
Y2-S2-171K21,5,364,PS,exp,39,←,left,←,0.599893500097096,True,10,1,0,2
Y2-S2-171K21,5,365,PS,exp,26,→,left,←,0.9524646000936627,False,9,-1,1,3
Y2-S2-171K21,5,366,PS,exp,47,↓,down,↓,0.5506490999832749,True,10,-1,0,3
Y2-S2-171K21,5,367,PS,exp,25,→,left,←,0.8705212001223117,False,10,-1,0,3
Y2-S2-171K21,5,368,PS,exp,47,↑,up,↑,0.5812926001381129,True,11,-1,0,3
Y2-S2-171K21,5,369,PS,exp,37,←,left,←,0.5582270000595599,True,11,-1,0,3
Y2-S2-171K21,5,370,PS,exp,42,↑,up,↑,0.737542700022459,True,11,1,1,4
Y2-S2-171K21,5,371,PS,exp,37,→,right,→,0.6674456999171525,True,10,1,0,4
Y2-S2-171K21,5,372,PS,exp,32,←,left,←,0.44088970008306205,True,10,1,0,4
Y2-S2-171K21,5,373,PS,exp,46,↓,down,↓,0.4573224999476224,True,10,1,0,4
Y2-S2-171K21,5,374,PS,exp,36,←,left,←,0.4192864000797272,True,9,1,0,4
Y2-S2-171K21,5,375,PS,exp,40,→,right,→,0.6312818001024425,True,9,1,0,4
Y2-S2-171K21,5,376,PS,exp,38,↓,down,↓,0.45430670003406703,True,9,1,0,4
Y2-S2-171K21,5,377,PS,exp,36,←,right,→,0.8582118998747319,False,8,-1,1,5
Y2-S2-171K21,5,378,PS,exp,29,↑,up,↑,0.8611004999838769,True,9,-1,0,5
Y2-S2-171K21,5,379,PS,exp,27,→,right,→,0.45948130008764565,True,9,-1,0,5
Y2-S2-171K21,5,380,PS,exp,48,↓,down,↓,0.5085044999141246,True,9,1,1,6
Y2-S2-171K21,5,381,PS,exp,48,→,right,→,0.47937089996412396,True,8,1,0,6
Y2-S2-171K21,5,382,PS,exp,50,↓,down,↓,0.947409899905324,True,8,1,0,6
Y2-S2-171K21,5,383,PS,exp,26,←,left,←,0.5051178000867367,True,8,1,0,6
Y2-S2-171K21,5,384,PS,exp,38,↓,down,↓,0.4692905000410974,True,7,1,0,6
Y2-S2-171K21,5,385,PS,exp,32,↑,up,↑,0.8014200001489371,True,7,1,0,6
Y2-S2-171K21,5,386,PS,exp,47,→,right,→,0.45167370000854135,True,7,1,0,6
Y2-S2-171K21,5,387,PS,exp,28,↓,left,←,0.8441959000192583,False,6,-1,1,7
Y2-S2-171K21,5,388,PS,exp,43,↑,right,→,0.576692400034517,False,7,-1,0,7
Y2-S2-171K21,5,389,PS,exp,30,↓,right,→,1.0542057999409735,False,8,-1,0,7
Y2-S2-171K21,5,390,PS,exp,44,←,left,←,0.4188451999798417,True,9,-1,0,7
Y2-S2-171K21,5,391,PS,exp,33,→,right,→,0.4860626000445336,True,9,-1,0,7
Y2-S2-171K21,5,392,PS,exp,25,↓,down,↓,0.42364139994606376,True,9,1,1,8
Y2-S2-171K21,5,393,PS,exp,27,←,down,↓,0.9423400999512523,False,8,-1,1,9
Y2-S2-171K21,5,394,PS,exp,31,↑,left,←,0.6053255000151694,False,9,-1,0,9
Y2-S2-171K21,5,395,PS,exp,46,→,right,→,0.42258109990507364,True,10,-1,0,9
Y2-S2-171K21,5,396,PS,exp,33,↓,down,↓,0.41033979994244874,True,10,-1,0,9
Y2-S2-171K21,5,397,PS,exp,31,↑,left,←,0.701868100091815,False,10,-1,0,9
Y2-S2-171K21,5,398,PS,exp,49,→,left,←,0.6909829000942409,False,11,-1,0,9
Y2-S2-171K21,5,399,PS,exp,37,↑,down,↓,0.5808307998813689,False,12,-1,0,9
Y2-S2-171K21,5,400,PS,exp,32,↓,down,↓,0.6239690000656992,True,13,-1,0,9
Y2-S2-171K21,5,401,PS,exp,41,→,right,→,0.5754597999621183,True,13,-1,0,9
Y2-S2-171K21,5,402,PS,exp,29,←,left,←,0.5901792000513524,True,13,1,1,10
Y2-S2-171K21,5,403,PS,exp,49,↑,up,↑,0.9625520999543369,True,12,1,0,10
Y2-S2-171K21,5,404,PS,exp,30,←,left,←,0.4360805999021977,True,12,1,0,10
Y2-S2-171K21,5,405,PS,exp,42,↓,down,↓,0.6389665000606328,True,12,1,0,10
Y2-S2-171K21,5,406,PS,exp,28,↑,up,↑,0.9370793998241425,True,11,1,0,10
Y2-S2-171K21,5,407,PS,exp,30,→,right,→,0.5066333999857306,True,11,1,0,10
Y2-S2-171K21,5,408,PS,exp,43,↓,down,↓,0.5487132999114692,True,11,1,0,10
Y2-S2-171K21,5,409,PS,exp,28,←,left,←,0.4258415000513196,True,10,1,0,10
Y2-S2-171K21,5,410,PS,exp,37,↓,down,↓,0.5183250999543816,True,10,1,0,10
Y2-S2-171K21,5,411,PS,exp,45,→,right,→,0.4649367998354137,True,10,1,0,10
Y2-S2-171K21,5,412,PS,exp,25,↓,down,↓,0.4820092001464218,True,9,1,0,10
Y2-S2-171K21,5,413,PS,exp,36,←,left,←,0.37397820013575256,True,9,1,0,10
Y2-S2-171K21,5,414,PS,exp,35,→,right,→,0.4117888999171555,True,9,1,0,10
Y2-S2-171K21,5,415,PS,exp,39,↑,up,↑,0.7125884999986738,True,8,1,0,10
Y2-S2-171K21,5,416,PS,exp,46,←,left,←,0.47861530003137887,True,8,1,0,10
Y2-S2-171K21,5,417,PS,exp,49,→,right,→,0.4458773999940604,True,8,1,0,10
Y2-S2-171K21,5,418,PS,exp,26,←,left,←,0.4969707999844104,True,7,1,0,10
Y2-S2-171K21,5,419,PS,exp,46,↓,down,↓,0.5408093999139965,True,7,1,0,10
Y2-S2-171K21,5,420,PS,exp,28,→,left,←,0.5925667998380959,False,7,-1,1,11
Y2-S2-171K21,5,421,PS,exp,50,↓,down,↓,0.5190749000757933,True,8,-1,0,11
Y2-S2-171K21,5,422,PS,exp,43,←,left,←,0.41754739987663925,True,8,-1,0,11
Y2-S2-171K21,5,423,PS,exp,47,→,right,→,0.6539556998759508,True,8,1,1,12
Y2-S2-171K21,5,424,PS,exp,26,↑,up,↑,1.3305588001385331,True,7,1,0,12
Y2-S2-171K21,5,425,PS,exp,34,→,right,→,0.47891899989917874,True,7,1,0,12
Y2-S2-171K21,5,426,PS,exp,30,↑,right,→,0.6082864000927657,False,7,-1,1,13
Y2-S2-171K21,5,427,PS,exp,26,↓,down,↓,0.5564433999825269,True,8,-1,0,13
Y2-S2-171K21,5,428,PS,exp,42,→,right,→,0.5828207999002188,True,8,-1,0,13
Y2-S2-171K21,5,429,PS,exp,44,↓,down,↓,0.4640987999737263,True,8,1,1,14
Y2-S2-171K21,5,430,PS,exp,34,→,right,→,0.5047723001334816,True,7,1,0,14
Y2-S2-171K21,5,431,PS,exp,34,←,left,←,0.9676425000652671,True,7,1,0,14
Y2-S2-171K21,5,432,PS,exp,49,↓,left,←,0.6003632000647485,False,7,-1,1,15
Y2-S2-171K21,5,433,PS,exp,41,→,left,←,0.924776499858126,False,8,-1,0,15
Y2-S2-171K21,5,434,PS,exp,45,←,left,←,0.5884777000173926,True,9,-1,0,15
Y2-S2-171K21,5,435,PS,exp,28,↑,left,←,0.6792448998894542,False,9,-1,0,15
Y2-S2-171K21,5,436,PS,exp,36,↓,down,↓,1.0623674001544714,True,10,-1,0,15
Y2-S2-171K21,5,437,PS,exp,41,←,left,←,0.43733219988644123,True,10,-1,0,15
Y2-S2-171K21,5,438,PS,exp,40,→,right,→,0.48013230017386377,True,10,1,1,16
Y2-S2-171K21,6,439,AS,intra_train,26,↑,up,↑,0.7913480999413878,True,28,-,-,-
Y2-S2-171K21,6,440,AS,intra_train,25,←,left,←,1.2914956000167876,True,28,-,-,-
Y2-S2-171K21,6,441,AS,intra_train,30,↑,up,↑,0.7561917998827994,True,28,-,-,-
Y2-S2-171K21,6,442,AS,intra_train,39,↓,down,↓,0.6696919999085367,True,28,-,-,-
Y2-S2-171K21,6,443,AS,intra_train,34,←,left,←,0.5840020999312401,True,28,-,-,-
Y2-S2-171K21,6,444,AS,exp,49,→,right,→,0.710210399935022,True,19,0,0,0
Y2-S2-171K21,6,445,AS,exp,45,↑,up,↑,0.8019172998610884,True,19,0,0,0
Y2-S2-171K21,6,446,AS,exp,47,←,left,←,0.8905718999449164,True,19,1,0,0
Y2-S2-171K21,6,447,AS,exp,34,↑,up,↑,0.7670575000811368,True,18,1,0,0
Y2-S2-171K21,6,448,AS,exp,28,←,left,←,1.376205800101161,True,18,1,0,0
Y2-S2-171K21,6,449,AS,exp,42,↓,down,↓,0.6433635000139475,True,18,1,0,0
Y2-S2-171K21,6,450,AS,exp,43,→,right,→,0.5875142000149935,True,17,1,0,0
Y2-S2-171K21,6,451,AS,exp,28,↓,down,↓,0.6036584000103176,True,17,1,0,0
Y2-S2-171K21,6,452,AS,exp,46,→,right,→,0.47222610004246235,True,17,1,0,0
Y2-S2-171K21,6,453,AS,exp,37,←,left,←,0.6251479000784457,True,16,1,0,0
Y2-S2-171K21,6,454,AS,exp,34,→,right,→,0.5730196998920292,True,16,1,0,0
Y2-S2-171K21,6,455,AS,exp,39,←,left,←,0.5467516998760402,True,16,1,0,0
Y2-S2-171K21,6,456,AS,exp,40,→,right,→,0.5601996998302639,True,15,1,0,0
Y2-S2-171K21,6,457,AS,exp,46,↑,up,↑,0.7704207000788301,True,15,1,0,0
Y2-S2-171K21,6,458,AS,exp,45,↓,down,↓,0.6013429998420179,True,15,1,0,0
Y2-S2-171K21,6,459,AS,exp,25,←,left,←,0.6655590999871492,True,14,1,0,0
Y2-S2-171K21,6,460,AS,exp,26,↑,up,↑,0.6600278001278639,True,14,1,0,0
Y2-S2-171K21,6,461,AS,exp,41,↓,down,↓,0.5263560998719186,True,14,1,0,0
Y2-S2-171K21,6,462,AS,exp,27,←,left,←,0.5396868998650461,True,13,1,0,0
Y2-S2-171K21,6,463,AS,exp,36,↓,down,↓,0.6384548998903483,True,13,1,0,0
Y2-S2-171K21,6,464,AS,exp,44,←,left,←,0.5310609999578446,True,13,1,0,0
Y2-S2-171K21,6,465,AS,exp,28,↑,down,↓,0.8594301000703126,False,12,-1,1,1
Y2-S2-171K21,6,466,AS,exp,45,↓,down,↓,0.5852978001348674,True,13,-1,0,1
Y2-S2-171K21,6,467,AS,exp,36,↑,up,↑,1.07910929992795,True,13,-1,0,1
Y2-S2-171K21,6,468,AS,exp,25,←,left,←,0.46997099998407066,True,13,1,1,2
Y2-S2-171K21,6,469,AS,exp,48,→,right,→,0.50623709987849,True,12,1,0,2
Y2-S2-171K21,6,470,AS,exp,44,←,left,←,0.5434120001737028,True,12,1,0,2
Y2-S2-171K21,6,471,AS,exp,45,→,down,↓,0.7861194999422878,False,12,-1,1,3
Y2-S2-171K21,6,472,AS,exp,28,←,left,←,0.7324426998384297,True,13,-1,0,3
Y2-S2-171K21,6,473,AS,exp,35,→,right,→,0.7520826000254601,True,13,-1,0,3
Y2-S2-171K21,6,474,AS,exp,43,←,left,←,0.4240594001021236,True,13,1,1,4
Y2-S2-171K21,6,475,AS,exp,27,→,right,→,0.7461924001108855,True,12,1,0,4
Y2-S2-171K21,6,476,AS,exp,42,↑,up,↑,0.6645015999674797,True,12,1,0,4
Y2-S2-171K21,6,477,AS,exp,50,→,right,→,0.5821699998341501,True,12,1,0,4
Y2-S2-171K21,6,478,AS,exp,27,←,left,←,0.4432008999865502,True,11,1,0,4
Y2-S2-171K21,6,479,AS,exp,42,↓,right,→,0.7441016000229865,False,11,-1,1,5
Y2-S2-171K21,6,480,AS,exp,44,→,right,→,0.9505739999003708,True,12,-1,0,5
Y2-S2-171K21,6,481,AS,exp,44,↓,up,↑,0.8493335000239313,False,12,-1,0,5
Y2-S2-171K21,6,482,AS,exp,36,←,left,←,0.6770212999545038,True,13,-1,0,5
Y2-S2-171K21,6,483,AS,exp,25,↑,up,↑,0.8369161000009626,True,13,-1,0,5
Y2-S2-171K21,6,484,AS,exp,44,→,up,↑,0.9179972999263555,False,13,-1,0,5
Y2-S2-171K21,6,485,AS,exp,28,↑,up,↑,0.5473153998609632,True,14,-1,0,5
Y2-S2-171K21,6,486,AS,exp,32,←,left,←,0.6379229000303894,True,14,-1,0,5
Y2-S2-171K21,6,487,AS,exp,41,↓,down,↓,0.6264287999365479,True,14,1,1,6
Y2-S2-171K21,6,488,AS,exp,29,←,left,←,0.4824312999844551,True,13,1,0,6
Y2-S2-171K21,6,489,AS,exp,37,↑,up,↑,0.7594310999847949,True,13,1,0,6
Y2-S2-171K21,6,490,AS,exp,42,↓,down,↓,0.6371337999589741,True,13,1,0,6
Y2-S2-171K21,6,491,AS,exp,39,↑,up,↑,0.6234827002044767,True,12,1,0,6
Y2-S2-171K21,6,492,AS,exp,34,↓,down,↓,0.45218089991249144,True,12,1,0,6
Y2-S2-171K21,6,493,AS,exp,33,←,left,←,0.4442288000136614,True,12,1,0,6
Y2-S2-171K21,6,494,AS,exp,37,→,right,→,0.6715106999035925,True,11,1,0,6
Y2-S2-171K21,6,495,AS,exp,35,←,left,←,0.4576135000679642,True,11,1,0,6
Y2-S2-171K21,6,496,AS,exp,40,↓,up,↑,0.9475438999943435,False,11,-1,1,7
Y2-S2-171K21,6,497,AS,exp,25,↑,up,↑,0.6148022001143545,True,12,-1,0,7
Y2-S2-171K21,6,498,AS,exp,34,←,left,←,0.47933979984372854,True,12,-1,0,7
Y2-S2-171K21,6,499,AS,exp,33,↓,down,↓,0.548189900116995,True,12,1,1,8
Y2-S2-171K21,6,500,AS,exp,49,→,left,←,0.645045000128448,False,11,-1,1,9
Y2-S2-171K21,6,501,AS,exp,46,↓,down,↓,0.7248469998594373,True,12,-1,0,9
Y2-S2-171K21,6,502,AS,exp,36,←,left,←,0.585878900019452,True,12,-1,0,9
Y2-S2-171K21,6,503,AS,exp,50,↓,down,↓,0.5476212000939995,True,12,1,1,10
Y2-S2-171K21,6,504,AS,exp,38,→,left,←,0.4916498998645693,False,11,-1,1,11
Y2-S2-171K21,6,505,AS,exp,49,←,left,←,0.8286637000273913,True,12,-1,0,11
Y2-S2-171K21,6,506,AS,exp,44,→,left,←,0.6404304001480341,False,12,-1,0,11
Y2-S2-171K21,6,507,AS,exp,34,↑,up,↑,0.7560004000551999,True,13,-1,0,11
Y2-S2-171K21,6,508,AS,exp,50,←,left,←,0.4825755001511425,True,13,-1,0,11
Y2-S2-171K21,6,509,AS,exp,35,↑,up,↑,0.6003942000679672,True,13,1,1,12
Y2-S2-171K21,6,510,AS,exp,29,→,right,→,0.679925600066781,True,12,1,0,12
Y2-S2-171K21,6,511,AS,exp,34,←,left,←,0.611587299965322,True,12,1,0,12
Y2-S2-171K21,6,512,AS,exp,43,→,right,→,0.5072144998703152,True,12,1,0,12
Y2-S2-171K21,6,513,AS,exp,41,↑,up,↑,1.052335700020194,True,11,1,0,12
Y2-S2-171K21,6,514,AS,exp,42,↓,down,↓,0.4845151000190526,True,11,1,0,12
Y2-S2-171K21,6,515,AS,exp,45,←,left,←,0.44465620000846684,True,11,1,0,12
Y2-S2-171K21,6,516,AS,exp,35,↓,down,↓,0.4864694999996573,True,10,1,0,12
Y2-S2-171K21,6,517,AS,exp,30,↑,up,↑,0.8987998999655247,True,10,1,0,12
Y2-S2-171K21,6,518,AS,exp,50,→,up,↑,1.117016099859029,False,10,-1,1,13
Y2-S2-171K21,6,519,AS,exp,39,←,left,←,0.4440957000479102,True,11,-1,0,13
Y2-S2-171K21,6,520,AS,exp,48,↓,down,↓,0.5659859001170844,True,11,-1,0,13
Y2-S2-171K21,6,521,AS,exp,39,←,left,←,0.47063260013237596,True,11,1,1,14
Y2-S2-171K21,6,522,AS,exp,45,↑,down,↓,0.7749308000784367,False,10,-1,1,15
Y2-S2-171K21,6,523,AS,exp,36,↓,down,↓,1.2726539999712259,True,11,-1,0,15
Y2-S2-171K21,6,524,AS,exp,43,→,right,→,0.49648689990863204,True,11,-1,0,15
Y2-S2-171K21,6,525,AS,exp,26,↑,up,↑,1.009687399957329,True,11,1,1,16
Y2-S2-171K21,7,526,AS,intra_train,36,↓,down,↓,0.5507129000034183,True,28,-,-,-
Y2-S2-171K21,7,527,AS,intra_train,27,←,left,←,0.6695467999670655,True,28,-,-,-
Y2-S2-171K21,7,528,AS,intra_train,39,↑,up,↑,0.835169899975881,True,28,-,-,-
Y2-S2-171K21,7,529,AS,intra_train,40,↓,down,↓,0.7412666999734938,True,28,-,-,-
Y2-S2-171K21,7,530,AS,intra_train,39,→,right,→,0.600824800087139,True,28,-,-,-
Y2-S2-171K21,7,531,AS,exp,36,←,left,←,0.7300880998373032,True,19,0,0,0
Y2-S2-171K21,7,532,AS,exp,44,↑,up,↑,0.6442201000172645,True,19,0,0,0
Y2-S2-171K21,7,533,AS,exp,43,→,right,→,0.8561480001080781,True,19,1,0,0
Y2-S2-171K21,7,534,AS,exp,33,←,left,←,0.6414785999804735,True,18,1,0,0
Y2-S2-171K21,7,535,AS,exp,38,↑,left,←,0.4339402001351118,False,18,-1,1,1
Y2-S2-171K21,7,536,AS,exp,34,→,right,→,0.4503905999008566,True,19,-1,0,1
Y2-S2-171K21,7,537,AS,exp,39,↓,down,↓,0.6794830998405814,True,19,-1,0,1
Y2-S2-171K21,7,538,AS,exp,50,→,right,→,0.5868907000403851,True,19,1,1,2
Y2-S2-171K21,7,539,AS,exp,44,←,left,←,0.40050570014864206,True,18,1,0,2
Y2-S2-171K21,7,540,AS,exp,44,↑,up,↑,0.9424028000794351,True,18,1,0,2
Y2-S2-171K21,7,541,AS,exp,45,↓,down,↓,0.6288401999045163,True,18,1,0,2
Y2-S2-171K21,7,542,AS,exp,47,↑,up,↑,0.8106949999928474,True,17,1,0,2
Y2-S2-171K21,7,543,AS,exp,37,↓,down,↓,1.0973644000478089,True,17,1,0,2
Y2-S2-171K21,7,544,AS,exp,47,↑,up,↑,0.7446301998570561,True,17,1,0,2
Y2-S2-171K21,7,545,AS,exp,42,↓,up,↑,0.8085301998071373,False,16,-1,1,3
Y2-S2-171K21,7,546,AS,exp,35,←,left,←,0.5960078998468816,True,17,-1,0,3
Y2-S2-171K21,7,547,AS,exp,36,↓,up,↑,0.9391783000901341,False,17,-1,0,3
Y2-S2-171K21,7,548,AS,exp,38,→,right,→,0.5947410999797285,True,18,-1,0,3
Y2-S2-171K21,7,549,AS,exp,40,↑,up,↑,0.6285482000093907,True,18,-1,0,3
Y2-S2-171K21,7,550,AS,exp,31,↓,up,↑,1.0331476998981088,False,18,-1,0,3
Y2-S2-171K21,7,551,AS,exp,49,↑,up,↑,0.7529132999479771,True,19,-1,0,3
Y2-S2-171K21,7,552,AS,exp,39,←,left,←,0.5027276000473648,True,19,-1,0,3
Y2-S2-171K21,7,553,AS,exp,37,→,right,→,0.5963290999643505,True,19,1,1,4
Y2-S2-171K21,7,554,AS,exp,42,↑,up,↑,0.6191681998316199,True,18,1,0,4
Y2-S2-171K21,7,555,AS,exp,37,←,left,←,1.1486412999220192,True,18,1,0,4
Y2-S2-171K21,7,556,AS,exp,27,↓,down,↓,0.6739510002080351,True,18,1,0,4
Y2-S2-171K21,7,557,AS,exp,37,←,left,←,0.5158216999843717,True,17,1,0,4
Y2-S2-171K21,7,558,AS,exp,28,→,right,→,0.4641954000107944,True,17,1,0,4
Y2-S2-171K21,7,559,AS,exp,25,↓,down,↓,0.5285730001050979,True,17,1,0,4
Y2-S2-171K21,7,560,AS,exp,43,←,left,←,1.0816822999622673,True,16,1,0,4
Y2-S2-171K21,7,561,AS,exp,39,↑,up,↑,0.6769649998750538,True,16,1,0,4
Y2-S2-171K21,7,562,AS,exp,25,→,right,→,0.4797034999355674,True,16,1,0,4
Y2-S2-171K21,7,563,AS,exp,41,↑,down,↓,0.9697900000028312,False,15,-1,1,5
Y2-S2-171K21,7,564,AS,exp,36,←,left,←,0.6683545000851154,True,16,-1,0,5
Y2-S2-171K21,7,565,AS,exp,50,→,right,→,0.5039373999461532,True,16,-1,0,5
Y2-S2-171K21,7,566,AS,exp,39,↓,down,↓,0.6501284998375922,True,16,1,1,6
Y2-S2-171K21,7,567,AS,exp,49,←,left,←,0.7128341998904943,True,15,1,0,6
Y2-S2-171K21,7,568,AS,exp,38,↑,up,↑,0.8092503000516444,True,15,1,0,6
Y2-S2-171K21,7,569,AS,exp,37,←,left,←,0.6322133000940084,True,15,1,0,6
Y2-S2-171K21,7,570,AS,exp,49,↓,up,↑,1.1964666000567377,False,14,-1,1,7
Y2-S2-171K21,7,571,AS,exp,33,←,left,←,0.5190638999920338,True,15,-1,0,7
Y2-S2-171K21,7,572,AS,exp,34,↑,up,↑,0.5375423999503255,True,15,-1,0,7
Y2-S2-171K21,7,573,AS,exp,26,→,right,→,0.5115288000088185,True,15,1,1,8
Y2-S2-171K21,7,574,AS,exp,45,↑,up,↑,0.5050578999798745,True,14,1,0,8
Y2-S2-171K21,7,575,AS,exp,37,←,up,↑,0.7148704999126494,False,14,-1,1,9
Y2-S2-171K21,7,576,AS,exp,30,→,right,→,0.5181851999368519,True,15,-1,0,9
Y2-S2-171K21,7,577,AS,exp,50,←,left,←,0.5289807000663131,True,15,-1,0,9
Y2-S2-171K21,7,578,AS,exp,38,↑,up,↑,0.629250800004229,True,15,1,1,10
Y2-S2-171K21,7,579,AS,exp,38,←,left,←,0.4567305000964552,True,14,1,0,10
Y2-S2-171K21,7,580,AS,exp,38,→,right,→,0.6589590001385659,True,14,1,0,10
Y2-S2-171K21,7,581,AS,exp,25,←,left,←,0.70828070002608,True,14,1,0,10
Y2-S2-171K21,7,582,AS,exp,39,→,right,→,0.6056596001144499,True,13,1,0,10
Y2-S2-171K21,7,583,AS,exp,36,←,left,←,0.49749760003760457,True,13,1,0,10
Y2-S2-171K21,7,584,AS,exp,30,↑,up,↑,0.6197685999795794,True,13,1,0,10
Y2-S2-171K21,7,585,AS,exp,34,←,left,←,0.4912664000876248,True,12,1,0,10
Y2-S2-171K21,7,586,AS,exp,45,↓,down,↓,0.52066700020805,True,12,1,0,10
Y2-S2-171K21,7,587,AS,exp,33,←,left,←,0.46841980004683137,True,12,1,0,10
Y2-S2-171K21,7,588,AS,exp,46,↑,up,↑,0.5615006999578327,True,11,1,0,10
Y2-S2-171K21,7,589,AS,exp,36,→,right,→,0.46972619998268783,True,11,1,0,10
Y2-S2-171K21,7,590,AS,exp,39,←,left,←,0.7659776001237333,True,11,1,0,10
Y2-S2-171K21,7,591,AS,exp,39,↓,down,↓,0.5053075000178069,True,10,1,0,10
Y2-S2-171K21,7,592,AS,exp,44,↑,up,↑,0.6397841998841614,True,10,1,0,10
Y2-S2-171K21,7,593,AS,exp,29,→,right,→,0.4489639999810606,True,10,1,0,10
Y2-S2-171K21,7,594,AS,exp,28,↓,down,↓,0.48133340012282133,True,9,1,0,10
Y2-S2-171K21,7,595,AS,exp,49,→,right,→,0.7701187001075596,True,9,1,0,10
Y2-S2-171K21,7,596,AS,exp,33,←,left,←,0.4764831999782473,True,9,1,0,10
Y2-S2-171K21,7,597,AS,exp,50,→,left,←,0.7848064999561757,False,8,-1,1,11
Y2-S2-171K21,7,598,AS,exp,26,←,right,→,0.6677933000028133,False,9,-1,0,11
Y2-S2-171K21,7,599,AS,exp,34,↑,up,↑,0.9724630999844521,True,10,-1,0,11
Y2-S2-171K21,7,600,AS,exp,42,↓,left,←,0.8383802999742329,False,10,-1,0,11
Y2-S2-171K21,7,601,AS,exp,32,←,left,←,0.4933235999196768,True,11,-1,0,11
Y2-S2-171K21,7,602,AS,exp,47,↑,up,↑,0.6241353000514209,True,11,-1,0,11
Y2-S2-171K21,7,603,AS,exp,26,↓,down,↓,0.9295900000724941,True,11,1,1,12
Y2-S2-171K21,7,604,AS,exp,39,→,right,→,0.40294059994630516,True,10,1,0,12
Y2-S2-171K21,7,605,AS,exp,42,↑,up,↑,0.5846772999502718,True,10,1,0,12
Y2-S2-171K21,7,606,AS,exp,33,←,left,←,0.4492852999828756,True,10,1,0,12
Y2-S2-171K21,7,607,AS,exp,42,→,right,→,0.47331649996340275,True,9,1,0,12
Y2-S2-171K21,7,608,AS,exp,27,←,left,←,0.4819658000487834,True,9,1,0,12
Y2-S2-171K21,7,609,AS,exp,25,↓,left,←,0.8936487000901252,False,9,-1,1,13
Y2-S2-171K21,7,610,AS,exp,45,←,left,←,0.6797128999605775,True,10,-1,0,13
Y2-S2-171K21,7,611,AS,exp,48,→,right,→,0.4464791000355035,True,10,-1,0,13
Y2-S2-171K21,7,612,AS,exp,41,↓,down,↓,0.46914800000377,True,10,1,1,14
Y2-S2-171K21,7,613,AS,exp,41,→,right,→,0.4234640998765826,True,9,1,0,14
Y2-S2-171K21,7,614,AS,exp,30,↓,down,↓,0.46708120009861887,True,9,1,0,14
Y2-S2-171K21,7,615,AS,exp,38,↑,down,↓,0.6384912999346852,False,9,-1,1,15
Y2-S2-171K21,7,616,AS,exp,31,→,right,→,0.5631851002108306,True,10,-1,0,15
Y2-S2-171K21,7,617,AS,exp,44,↑,left,←,0.6329914999660105,False,10,-1,0,15
Y2-S2-171K21,7,618,AS,exp,47,→,right,→,0.6232447000220418,True,11,-1,0,15
Y2-S2-171K21,7,619,AS,exp,35,↑,up,↑,0.9241033999715,True,11,-1,0,15
Y2-S2-171K21,7,620,AS,exp,37,←,left,←,0.5517756999470294,True,11,1,1,16
Y2-S2-171K21,8,621,PS,intra_train,33,↓,down,↓,0.8888491000980139,True,18,-,-,-
Y2-S2-171K21,8,622,PS,intra_train,32,←,left,←,1.0561934001743793,True,18,-,-,-
Y2-S2-171K21,8,623,PS,intra_train,45,→,right,→,0.43370110006071627,True,18,-,-,-
Y2-S2-171K21,8,624,PS,intra_train,43,↓,down,↓,0.5916050998494029,True,18,-,-,-
Y2-S2-171K21,8,625,PS,intra_train,43,←,left,←,1.2247429999988526,True,18,-,-,-
Y2-S2-171K21,8,626,PS,exp,40,→,right,→,0.4684232999570668,True,12,0,0,0
Y2-S2-171K21,8,627,PS,exp,27,←,left,←,0.5987726000603288,True,12,0,0,0
Y2-S2-171K21,8,628,PS,exp,45,↑,up,↑,0.8111000000499189,True,12,1,0,0
Y2-S2-171K21,8,629,PS,exp,38,↓,down,↓,0.5498800999484956,True,11,1,0,0
Y2-S2-171K21,8,630,PS,exp,38,→,right,→,0.45487479981966317,True,11,1,0,0
Y2-S2-171K21,8,631,PS,exp,48,↓,down,↓,0.5290259998291731,True,11,1,0,0
Y2-S2-171K21,8,632,PS,exp,41,←,down,↓,0.633335700025782,False,10,-1,1,1
Y2-S2-171K21,8,633,PS,exp,31,→,right,→,0.4429723001085222,True,11,-1,0,1
Y2-S2-171K21,8,634,PS,exp,29,↓,down,↓,0.5043268001172692,True,11,-1,0,1
Y2-S2-171K21,8,635,PS,exp,32,←,left,←,0.5150268999859691,True,11,1,1,2
Y2-S2-171K21,8,636,PS,exp,33,→,right,→,0.47063930006697774,True,10,1,0,2
Y2-S2-171K21,8,637,PS,exp,26,↑,up,↑,0.8987724999897182,True,10,1,0,2
Y2-S2-171K21,8,638,PS,exp,48,↓,down,↓,0.4939976998139173,True,10,1,0,2
Y2-S2-171K21,8,639,PS,exp,35,→,right,→,0.5247885999269783,True,9,1,0,2
Y2-S2-171K21,8,640,PS,exp,26,↑,up,↑,0.6813085998874158,True,9,1,0,2
Y2-S2-171K21,8,641,PS,exp,33,→,right,→,0.41900929994881153,True,9,1,0,2
Y2-S2-171K21,8,642,PS,exp,47,←,left,←,0.5991776001174003,True,8,1,0,2
Y2-S2-171K21,8,643,PS,exp,35,↑,right,→,0.9986731000244617,False,8,-1,1,3
Y2-S2-171K21,8,644,PS,exp,25,→,right,→,0.43259760015644133,True,9,-1,0,3
Y2-S2-171K21,8,645,PS,exp,40,←,left,←,0.4444853998720646,True,9,-1,0,3
Y2-S2-171K21,8,646,PS,exp,38,↑,up,↑,1.0303160999901593,True,9,1,1,4
Y2-S2-171K21,8,647,PS,exp,29,←,up,↑,1.0375763000920415,False,8,-1,1,5
Y2-S2-171K21,8,648,PS,exp,43,↓,right,→,0.800972199998796,False,9,-1,0,5
Y2-S2-171K21,8,649,PS,exp,32,↑,left,←,1.0449272999539971,False,10,-1,0,5
Y2-S2-171K21,8,650,PS,exp,35,↓,down,↓,0.52023969986476,True,11,-1,0,5
Y2-S2-171K21,8,651,PS,exp,43,→,right,→,0.5342904001008719,True,11,-1,0,5
Y2-S2-171K21,8,652,PS,exp,32,←,left,←,0.5821279999800026,True,11,1,1,6
Y2-S2-171K21,8,653,PS,exp,38,↓,down,↓,0.5354023000691086,True,10,1,0,6
Y2-S2-171K21,8,654,PS,exp,38,→,right,→,0.41560589987784624,True,10,1,0,6
Y2-S2-171K21,8,655,PS,exp,38,↑,up,↑,0.678855000063777,True,10,1,0,6
Y2-S2-171K21,8,656,PS,exp,36,→,right,→,0.4457783999387175,True,9,1,0,6
Y2-S2-171K21,8,657,PS,exp,49,↑,left,←,0.7935550000984222,False,9,-1,1,7
Y2-S2-171K21,8,658,PS,exp,29,←,left,←,0.482574500143528,True,10,-1,0,7
Y2-S2-171K21,8,659,PS,exp,37,↑,up,↑,0.6757386999670416,True,10,-1,0,7
Y2-S2-171K21,8,660,PS,exp,50,↓,down,↓,0.6046185998711735,True,10,1,1,8
Y2-S2-171K21,8,661,PS,exp,42,↑,up,↑,0.7045295001007617,True,9,1,0,8
Y2-S2-171K21,8,662,PS,exp,26,→,left,←,0.705036100000143,False,9,-1,1,9
Y2-S2-171K21,8,663,PS,exp,27,←,left,←,0.6372616998851299,True,10,-1,0,9
Y2-S2-171K21,8,664,PS,exp,31,↑,up,↑,0.6935038999654353,True,10,-1,0,9
Y2-S2-171K21,8,665,PS,exp,39,↓,down,↓,0.5524903000332415,True,10,1,1,10
Y2-S2-171K21,8,666,PS,exp,34,→,left,←,0.6050966000184417,False,9,-1,1,11
Y2-S2-171K21,8,667,PS,exp,41,←,left,←,0.48196609993465245,True,10,-1,0,11
Y2-S2-171K21,8,668,PS,exp,27,↓,left,←,0.622569200117141,False,10,-1,0,11
Y2-S2-171K21,8,669,PS,exp,31,↑,left,←,0.6939054999966174,False,11,-1,0,11
Y2-S2-171K21,8,670,PS,exp,50,↓,down,↓,0.6314904000610113,True,12,-1,0,11
Y2-S2-171K21,8,671,PS,exp,49,←,left,←,0.545887399930507,True,12,-1,0,11
Y2-S2-171K21,8,672,PS,exp,49,↑,down,↓,0.715133500052616,False,12,-1,0,11
Y2-S2-171K21,8,673,PS,exp,50,→,right,→,0.639544399920851,True,13,-1,0,11
Y2-S2-171K21,8,674,PS,exp,29,↑,up,↑,0.6939238999038935,True,13,-1,0,11
Y2-S2-171K21,8,675,PS,exp,32,→,right,→,0.72993030003272,True,13,1,1,12
Y2-S2-171K21,8,676,PS,exp,37,←,left,←,0.5004054999444634,True,12,1,0,12
Y2-S2-171K21,8,677,PS,exp,32,→,right,→,0.7198596999514848,True,12,1,0,12
Y2-S2-171K21,8,678,PS,exp,30,←,left,←,0.4231823000591248,True,12,1,0,12
Y2-S2-171K21,8,679,PS,exp,50,↓,down,↓,0.5148517999332398,True,11,1,0,12
Y2-S2-171K21,8,680,PS,exp,25,→,right,→,0.5863155000843108,True,11,1,0,12
Y2-S2-171K21,8,681,PS,exp,46,↓,down,↓,0.48254989995621145,True,11,1,0,12
Y2-S2-171K21,8,682,PS,exp,25,←,left,←,0.4754953000228852,True,10,1,0,12
Y2-S2-171K21,8,683,PS,exp,48,↑,up,↑,0.9933310998603702,True,10,1,0,12
Y2-S2-171K21,8,684,PS,exp,28,↓,down,↓,0.5934349000453949,True,10,1,0,12
Y2-S2-171K21,8,685,PS,exp,35,←,left,←,0.5310297000687569,True,9,1,0,12
Y2-S2-171K21,8,686,PS,exp,33,↓,down,↓,0.5368747999891639,True,9,1,0,12
Y2-S2-171K21,8,687,PS,exp,39,←,right,→,0.8933840999379754,False,9,-1,1,13
Y2-S2-171K21,8,688,PS,exp,50,↓,left,←,0.6945261999499053,False,10,-1,0,13
Y2-S2-171K21,8,689,PS,exp,41,→,right,→,0.6723065001424402,True,11,-1,0,13
Y2-S2-171K21,8,690,PS,exp,34,↓,down,↓,0.4833789998665452,True,11,-1,0,13
Y2-S2-171K21,8,691,PS,exp,30,→,right,→,0.47801720001734793,True,11,1,1,14
Y2-S2-171K21,8,692,PS,exp,29,←,left,←,0.563886099960655,True,10,1,0,14
Y2-S2-171K21,8,693,PS,exp,39,→,right,→,0.42357710003852844,True,10,1,0,14
Y2-S2-171K21,8,694,PS,exp,48,↑,down,↓,0.5548866000026464,False,10,-1,1,15
Y2-S2-171K21,8,695,PS,exp,31,→,right,→,0.43864900013431907,True,11,-1,0,15
Y2-S2-171K21,8,696,PS,exp,38,←,left,←,0.5750621000770479,True,11,-1,0,15
Y2-S2-171K21,8,697,PS,exp,34,↑,up,↑,0.6542194001376629,True,11,1,1,16
