PART_ID,Block_no,Trial_no,Block_type,Trial_type,CSI,Stim_letter,Key_pressed,letter_choose,Rt,Corr,Stimulus Time,Level,Reversal,Revs_count
Y2-S2-009K22,1,1,PS,train,33,↑,up,↑,0.6171758000273257,True,30,-,-,-
Y2-S2-009K22,1,2,PS,train,29,→,right,→,0.48413640004582703,True,30,-,-,-
Y2-S2-009K22,1,3,PS,train,37,←,left,←,0.5675955999176949,True,30,-,-,-
Y2-S2-009K22,1,4,PS,train,43,↓,right,→,0.26770130009390414,False,30,-,-,-
Y2-S2-009K22,1,5,PS,train,33,↑,up,↑,1.400339299812913,True,30,-,-,-
Y2-S2-009K22,1,6,PS,train,33,←,left,←,0.46787740010768175,True,30,-,-,-
Y2-S2-009K22,1,7,PS,train,37,→,right,→,0.3677173999603838,True,30,-,-,-
Y2-S2-009K22,1,8,PS,train,48,←,left,←,0.5504622999578714,True,30,-,-,-
Y2-S2-009K22,1,9,PS,train,40,↓,down,↓,0.7608568000141531,True,30,-,-,-
Y2-S2-009K22,1,10,PS,train,34,↑,up,↑,0.5005702001508325,True,30,-,-,-
Y2-S2-009K22,2,11,AS,train,44,←,left,←,0.452446699840948,True,45,-,-,-
Y2-S2-009K22,2,12,AS,train,37,↑,up,↑,0.5511740001384169,True,45,-,-,-
Y2-S2-009K22,2,13,AS,train,41,←,left,←,0.36780080012977123,True,45,-,-,-
Y2-S2-009K22,2,14,AS,train,42,→,right,→,0.48432080005295575,True,45,-,-,-
Y2-S2-009K22,2,15,AS,train,36,↑,up,↑,0.3842582998331636,True,45,-,-,-
Y2-S2-009K22,2,16,AS,train,25,↓,down,↓,0.616789799882099,True,45,-,-,-
Y2-S2-009K22,2,17,AS,train,42,↑,up,↑,0.4342447000090033,True,45,-,-,-
Y2-S2-009K22,2,18,AS,train,50,←,left,←,0.8675728000234812,True,45,-,-,-
Y2-S2-009K22,2,19,AS,train,33,↑,up,↑,0.6681570999789983,True,45,-,-,-
Y2-S2-009K22,2,20,AS,train,41,→,up,↑,0.2835737999994308,False,45,-,-,-
Y2-S2-009K22,-,21,PS,adaptive,40,↓,left,←,0.8720569999422878,False,10,-1,0,0
Y2-S2-009K22,-,22,PS,adaptive,45,←,left,←,0.7735862999688834,True,11,-1,0,0
Y2-S2-009K22,-,23,PS,adaptive,46,→,right,→,0.6031271000392735,True,11,-1,0,0
Y2-S2-009K22,-,24,PS,adaptive,29,↓,left,←,0.9225963000208139,False,11,-1,0,0
Y2-S2-009K22,-,25,PS,adaptive,33,→,right,→,0.4727028999477625,True,12,-1,0,0
Y2-S2-009K22,-,26,PS,adaptive,31,←,right,→,0.8569177999161184,False,12,-1,0,0
Y2-S2-009K22,-,27,PS,adaptive,36,↓,left,←,1.0758675001561642,False,13,-1,0,0
Y2-S2-009K22,-,28,PS,adaptive,43,←,right,→,0.8822576999664307,False,14,-1,0,0
Y2-S2-009K22,-,29,PS,adaptive,27,↑,up,↑,0.5291939000599086,True,15,-1,0,0
Y2-S2-009K22,-,30,PS,adaptive,39,←,left,←,0.4328991000074893,True,15,-1,0,0
Y2-S2-009K22,-,31,PS,adaptive,30,→,right,→,0.4502610999625176,True,15,1,1,1
Y2-S2-009K22,-,32,PS,adaptive,28,←,left,←,0.4314472998958081,True,14,1,0,1
Y2-S2-009K22,-,33,PS,adaptive,50,↓,up,↑,0.9100254999939352,False,14,-1,1,2
Y2-S2-009K22,-,34,PS,adaptive,33,↑,up,↑,0.42790999985300004,True,15,-1,0,2
Y2-S2-009K22,-,35,PS,adaptive,41,←,left,←,0.4801722001284361,True,15,-1,0,2
Y2-S2-009K22,-,36,PS,adaptive,36,→,up,↑,0.8439208001364022,False,15,-1,0,2
Y2-S2-009K22,-,37,PS,adaptive,29,↑,up,↑,0.5720015000551939,True,16,-1,0,2
Y2-S2-009K22,-,38,PS,adaptive,26,→,left,←,0.8674655999056995,False,16,-1,0,2
Y2-S2-009K22,-,39,PS,adaptive,36,↑,up,↑,0.8084279000759125,True,17,-1,0,2
Y2-S2-009K22,-,40,PS,adaptive,32,↓,down,↓,1.0434254999272525,True,17,-1,0,2
Y2-S2-009K22,-,41,PS,adaptive,42,→,right,→,0.5122683001682162,True,17,1,1,3
Y2-S2-009K22,-,42,PS,adaptive,27,←,left,←,0.38437149999663234,True,16,1,0,3
Y2-S2-009K22,-,43,PS,adaptive,34,↑,right,→,0.2008444000966847,False,16,-1,1,4
Y2-S2-009K22,-,44,AS,adaptive,36,←,left,←,1.0621519999112934,True,20,0,0,0
Y2-S2-009K22,-,45,AS,adaptive,42,→,right,→,0.6994233999866992,True,20,0,0,0
Y2-S2-009K22,-,46,AS,adaptive,49,←,left,←,0.6030316001269966,True,20,1,0,0
Y2-S2-009K22,-,47,AS,adaptive,36,↑,up,↑,0.5948162998538464,True,19,1,0,0
Y2-S2-009K22,-,48,AS,adaptive,29,↓,down,↓,0.7223513000644743,True,19,1,0,0
Y2-S2-009K22,-,49,AS,adaptive,41,↑,up,↑,0.568177199922502,True,19,1,0,0
Y2-S2-009K22,-,50,AS,adaptive,31,↓,up,↑,0.6797219000291079,False,18,-1,1,1
Y2-S2-009K22,-,51,AS,adaptive,41,←,left,←,0.5018170999828726,True,19,-1,0,1
Y2-S2-009K22,-,52,AS,adaptive,47,↑,up,↑,0.5639933000784367,True,19,-1,0,1
Y2-S2-009K22,-,53,AS,adaptive,27,↓,up,↑,0.6180682999547571,False,19,-1,0,1
Y2-S2-009K22,-,54,AS,adaptive,43,↑,up,↑,0.5994023000821471,True,20,-1,0,1
Y2-S2-009K22,-,55,AS,adaptive,25,↓,up,↑,0.36701969988644123,False,20,-1,0,1
Y2-S2-009K22,-,56,AS,adaptive,28,→,left,←,0.5895090999547392,False,21,-1,0,1
Y2-S2-009K22,-,57,AS,adaptive,35,↑,up,↑,0.4674791998695582,True,22,-1,0,1
Y2-S2-009K22,-,58,AS,adaptive,35,→,left,←,0.5915728998370469,False,22,-1,0,1
Y2-S2-009K22,-,59,AS,adaptive,25,↑,up,↑,0.8976588000077754,True,23,-1,0,1
Y2-S2-009K22,-,60,AS,adaptive,46,↓,down,↓,0.8015048000961542,True,23,-1,0,1
Y2-S2-009K22,-,61,AS,adaptive,35,↑,down,↓,0.5174706000834703,False,23,-1,0,1
Y2-S2-009K22,-,62,AS,adaptive,46,↓,down,↓,1.3950141000095755,True,24,-1,0,1
Y2-S2-009K22,-,63,AS,adaptive,37,←,left,←,1.0157576000783592,True,24,-1,0,1
Y2-S2-009K22,-,64,AS,adaptive,36,→,right,→,0.6097339000552893,True,24,1,1,2
Y2-S2-009K22,-,65,AS,adaptive,34,↓,down,↓,0.9201020000036806,True,23,1,0,2
Y2-S2-009K22,-,66,AS,adaptive,48,←,left,←,0.7289973997976631,True,23,1,0,2
Y2-S2-009K22,-,67,AS,adaptive,31,→,right,→,0.4336420998442918,True,23,1,0,2
Y2-S2-009K22,-,68,AS,adaptive,48,↓,down,↓,0.5498519998509437,True,22,1,0,2
Y2-S2-009K22,-,69,AS,adaptive,31,→,left,←,0.7533347001299262,False,22,-1,1,3
Y2-S2-009K22,-,70,AS,adaptive,43,←,left,←,0.6065012998878956,True,23,-1,0,3
Y2-S2-009K22,-,71,AS,adaptive,37,→,right,→,0.5006424998864532,True,23,-1,0,3
Y2-S2-009K22,-,72,AS,adaptive,41,←,left,←,0.5732133002020419,True,23,1,1,4
Y2-S2-009K22,1,73,AS,intra_train,45,↑,up,↑,0.5008287001401186,True,33,-,-,-
Y2-S2-009K22,1,74,AS,intra_train,36,→,right,→,0.6338233000133187,True,33,-,-,-
Y2-S2-009K22,1,75,AS,intra_train,25,↓,right,→,0.08440789999440312,False,33,-,-,-
Y2-S2-009K22,1,76,AS,intra_train,34,←,left,←,0.45104459999129176,True,33,-,-,-
Y2-S2-009K22,1,77,AS,intra_train,42,↑,down,↓,0.4843107999768108,False,33,-,-,-
Y2-S2-009K22,1,78,AS,exp,43,←,left,←,0.6475547000300139,True,22,0,0,0
Y2-S2-009K22,1,79,AS,exp,34,→,right,→,0.3841242000926286,True,22,0,0,0
Y2-S2-009K22,1,80,AS,exp,36,↑,up,↑,0.5428089001215994,True,22,1,0,0
Y2-S2-009K22,1,81,AS,exp,44,→,left,←,0.4176376999821514,False,21,-1,1,1
Y2-S2-009K22,1,82,AS,exp,31,↑,up,↑,1.3911827001720667,True,22,-1,0,1
Y2-S2-009K22,1,83,AS,exp,44,→,right,→,0.317633300088346,True,22,-1,0,1
Y2-S2-009K22,1,84,AS,exp,33,←,left,←,0.48392449994571507,True,22,1,1,2
Y2-S2-009K22,1,85,AS,exp,43,→,right,→,0.25079109985381365,True,21,1,0,2
Y2-S2-009K22,1,86,AS,exp,39,←,left,←,0.6043334999121726,True,21,1,0,2
Y2-S2-009K22,1,87,AS,exp,39,↑,up,↑,0.4843193998094648,True,21,1,0,2
Y2-S2-009K22,1,88,AS,exp,40,→,right,→,0.7086940999142826,True,20,1,0,2
Y2-S2-009K22,1,89,AS,exp,49,←,left,←,0.4506840000394732,True,20,1,0,2
Y2-S2-009K22,1,90,AS,exp,33,↓,up,↑,0.5139436000026762,False,20,-1,1,3
Y2-S2-009K22,1,91,AS,exp,31,→,down,↓,0.45047969999723136,False,21,-1,0,3
Y2-S2-009K22,1,92,AS,exp,35,←,left,←,0.30086860014125705,True,22,-1,0,3
Y2-S2-009K22,1,93,AS,exp,45,↓,down,↓,0.43412140011787415,True,22,-1,0,3
Y2-S2-009K22,1,94,AS,exp,36,→,right,→,0.484010900137946,True,22,1,1,4
Y2-S2-009K22,1,95,AS,exp,29,↓,down,↓,0.6600497998297215,True,21,1,0,4
Y2-S2-009K22,1,96,AS,exp,27,←,left,←,0.665935100056231,True,21,1,0,4
Y2-S2-009K22,1,97,AS,exp,45,↓,down,↓,1.1424205000512302,True,21,1,0,4
Y2-S2-009K22,1,98,AS,exp,41,↑,right,→,0.46718830009922385,False,20,-1,1,5
Y2-S2-009K22,1,99,AS,exp,46,→,down,↓,0.2842552999500185,False,21,-1,0,5
Y2-S2-009K22,1,100,AS,exp,50,↑,down,↓,0.2511068999301642,False,22,-1,0,5
Y2-S2-009K22,1,101,AS,exp,36,→,left,←,0.5173889000434428,False,23,-1,0,5
Y2-S2-009K22,1,102,AS,exp,35,↓,down,↓,0.5172653999179602,True,24,-1,0,5
Y2-S2-009K22,1,103,AS,exp,44,←,left,←,0.48408460011705756,True,24,-1,0,5
Y2-S2-009K22,1,104,AS,exp,28,→,right,→,0.9116055001504719,True,24,1,1,6
Y2-S2-009K22,1,105,AS,exp,38,←,left,←,0.4672844000160694,True,23,1,0,6
Y2-S2-009K22,1,106,AS,exp,48,→,down,↓,1.5010192999616265,False,23,-1,1,7
Y2-S2-009K22,1,107,AS,exp,35,↑,up,↑,0.36769720003940165,True,24,-1,0,7
Y2-S2-009K22,1,108,AS,exp,41,←,up,↑,0.3511405000463128,False,24,-1,0,7
Y2-S2-009K22,1,109,AS,exp,47,→,up,↑,0.6973260000813752,False,25,-1,0,7
Y2-S2-009K22,1,110,AS,exp,41,↓,down,↓,0.7222874998115003,True,26,-1,0,7
Y2-S2-009K22,1,111,AS,exp,33,↑,down,↓,0.43363910005427897,False,26,-1,0,7
Y2-S2-009K22,1,112,AS,exp,50,←,left,←,0.46768049988895655,True,27,-1,0,7
Y2-S2-009K22,1,113,AS,exp,42,↓,down,↓,0.9417711000423878,True,27,-1,0,7
Y2-S2-009K22,1,114,AS,exp,50,→,down,↓,0.9293476999737322,False,27,-1,0,7
Y2-S2-009K22,1,115,AS,exp,37,↑,up,↑,1.0734612999949604,True,28,-1,0,7
Y2-S2-009K22,1,116,AS,exp,50,←,left,←,0.5841934999916703,True,28,-1,0,7
Y2-S2-009K22,1,117,AS,exp,28,↓,down,↓,0.6003568000160158,True,28,1,1,8
Y2-S2-009K22,1,118,AS,exp,41,→,right,→,0.7593711998779327,True,27,1,0,8
Y2-S2-009K22,1,119,AS,exp,34,↑,up,↑,0.5506357999984175,True,27,1,0,8
Y2-S2-009K22,1,120,AS,exp,41,↓,down,↓,0.8899993000086397,True,27,1,0,8
Y2-S2-009K22,1,121,AS,exp,32,→,right,→,0.5172628001309931,True,26,1,0,8
Y2-S2-009K22,1,122,AS,exp,50,↑,up,↑,0.8599557999987155,True,26,1,0,8
Y2-S2-009K22,1,123,AS,exp,31,↓,down,↓,0.5506204999983311,True,26,1,0,8
Y2-S2-009K22,1,124,AS,exp,34,→,right,→,0.5341848998796195,True,25,1,0,8
Y2-S2-009K22,1,125,AS,exp,38,↓,down,↓,0.8408753001131117,True,25,1,0,8
Y2-S2-009K22,1,126,AS,exp,50,↑,down,↓,1.0563832998741418,False,25,-1,1,9
Y2-S2-009K22,1,127,AS,exp,31,←,left,←,0.4172462001442909,True,26,-1,0,9
Y2-S2-009K22,1,128,AS,exp,34,→,left,←,0.45057980017736554,False,26,-1,0,9
Y2-S2-009K22,1,129,AS,exp,44,↓,down,↓,0.6360526001080871,True,27,-1,0,9
Y2-S2-009K22,1,130,AS,exp,30,←,left,←,0.5849194000475109,True,27,-1,0,9
Y2-S2-009K22,1,131,AS,exp,44,↓,down,↓,0.7679512999020517,True,27,1,1,10
Y2-S2-009K22,1,132,AS,exp,40,↑,up,↑,0.5510555000510067,True,26,1,0,10
Y2-S2-009K22,1,133,AS,exp,50,←,left,←,0.4175425998400897,True,26,1,0,10
Y2-S2-009K22,1,134,AS,exp,49,→,right,→,1.069243700010702,True,26,1,0,10
Y2-S2-009K22,1,135,AS,exp,43,↑,up,↑,0.7933945001568645,True,25,1,0,10
Y2-S2-009K22,1,136,AS,exp,44,→,right,→,0.6794333001598716,True,25,1,0,10
Y2-S2-009K22,1,137,AS,exp,32,↓,down,↓,0.5173327999655157,True,25,1,0,10
Y2-S2-009K22,1,138,AS,exp,31,↑,up,↑,0.6963839000090957,True,24,1,0,10
Y2-S2-009K22,1,139,AS,exp,32,→,right,→,0.41746500018052757,True,24,1,0,10
Y2-S2-009K22,1,140,AS,exp,32,↑,up,↑,1.0228039000649005,True,24,1,0,10
Y2-S2-009K22,1,141,AS,exp,30,→,up,↑,0.9673228999599814,False,23,-1,1,11
Y2-S2-009K22,1,142,AS,exp,44,←,left,←,1.0266583999618888,True,24,-1,0,11
Y2-S2-009K22,1,143,AS,exp,44,↑,up,↑,0.5004446001257747,True,24,-1,0,11
Y2-S2-009K22,1,144,AS,exp,43,←,left,←,0.5961889999452978,True,24,1,1,12
Y2-S2-009K22,1,145,AS,exp,44,↓,down,↓,0.8447816001717001,True,23,1,0,12
Y2-S2-009K22,1,146,AS,exp,45,←,left,←,0.41691879997961223,True,23,1,0,12
Y2-S2-009K22,1,147,AS,exp,34,→,right,→,0.7047770000062883,True,23,1,0,12
Y2-S2-009K22,1,148,AS,exp,33,←,left,←,0.754467099905014,True,22,1,0,12
Y2-S2-009K22,1,149,AS,exp,25,→,right,→,0.5674550998955965,True,22,1,0,12
Y2-S2-009K22,1,150,AS,exp,37,↑,up,↑,1.1501566001679748,True,22,1,0,12
Y2-S2-009K22,1,151,AS,exp,31,←,left,←,0.4002541999798268,True,21,1,0,12
Y2-S2-009K22,1,152,AS,exp,43,↑,up,↑,0.6432489000726491,True,21,1,0,12
Y2-S2-009K22,1,153,AS,exp,28,↓,up,↑,0.6556251998990774,False,21,-1,1,13
Y2-S2-009K22,1,154,AS,exp,40,←,left,←,0.5002728998661041,True,22,-1,0,13
Y2-S2-009K22,1,155,AS,exp,40,↑,up,↑,0.8890994000248611,True,22,-1,0,13
Y2-S2-009K22,1,156,AS,exp,26,↓,down,↓,0.6804641999769956,True,22,1,1,14
Y2-S2-009K22,1,157,AS,exp,40,↑,up,↑,1.1360398998949677,True,21,1,0,14
Y2-S2-009K22,1,158,AS,exp,41,↓,down,↓,0.645221299957484,True,21,1,0,14
Y2-S2-009K22,1,159,AS,exp,50,→,right,→,0.807156499940902,True,21,1,0,14
Y2-S2-009K22,1,160,AS,exp,35,←,left,←,0.6706296999473125,True,20,1,0,14
Y2-S2-009K22,1,161,AS,exp,48,↓,down,↓,0.4506661999039352,True,20,1,0,14
Y2-S2-009K22,1,162,AS,exp,48,←,left,←,0.6190857000183314,True,20,1,0,14
Y2-S2-009K22,1,163,AS,exp,40,→,right,→,0.41751220007427037,True,19,1,0,14
Y2-S2-009K22,1,164,AS,exp,25,↑,up,↑,0.7335983000230044,True,19,1,0,14
Y2-S2-009K22,1,165,AS,exp,39,←,left,←,0.4170721999835223,True,19,1,0,14
Y2-S2-009K22,1,166,AS,exp,30,→,right,→,0.5760156000033021,True,18,1,0,14
Y2-S2-009K22,1,167,AS,exp,29,↑,up,↑,0.6568550998345017,True,18,1,0,14
Y2-S2-009K22,1,168,AS,exp,37,←,left,←,0.7697348000947386,True,18,1,0,14
Y2-S2-009K22,1,169,AS,exp,34,↑,up,↑,0.7606145001482219,True,17,1,0,14
Y2-S2-009K22,1,170,AS,exp,30,→,right,→,0.7221737999934703,True,17,1,0,14
Y2-S2-009K22,1,171,AS,exp,26,↓,down,↓,0.864773300010711,True,17,1,0,14
Y2-S2-009K22,1,172,AS,exp,40,←,left,←,0.5520544000901282,True,16,1,0,14
Y2-S2-009K22,1,173,AS,exp,48,↑,no_key,no_letter,-1.0,False,16,-1,1,15
Y2-S2-009K22,1,174,AS,exp,32,←,right,→,1.0851902000140399,False,17,-1,0,15
Y2-S2-009K22,1,175,AS,exp,38,↓,left,←,0.8409366998821497,False,18,-1,0,15
Y2-S2-009K22,1,176,AS,exp,29,←,right,→,1.111114599974826,False,19,-1,0,15
Y2-S2-009K22,1,177,AS,exp,32,↓,down,↓,0.8798352000303566,True,20,-1,0,15
Y2-S2-009K22,1,178,AS,exp,45,←,left,←,0.2677421001717448,True,20,-1,0,15
Y2-S2-009K22,1,179,AS,exp,45,→,right,→,0.9457924000453204,True,20,1,1,16
Y2-S2-009K22,2,180,PS,intra_train,47,↑,up,↑,1.2121761001180857,True,25,-,-,-
Y2-S2-009K22,2,181,PS,intra_train,32,↓,down,↓,1.0816945999395102,True,25,-,-,-
Y2-S2-009K22,2,182,PS,intra_train,38,→,right,→,0.5974830999039114,True,25,-,-,-
Y2-S2-009K22,2,183,PS,intra_train,25,↑,right,→,0.9195761999581009,False,25,-,-,-
Y2-S2-009K22,2,184,PS,intra_train,45,↓,down,↓,0.41730650002136827,True,25,-,-,-
Y2-S2-009K22,2,185,PS,exp,27,←,left,←,0.7305833999998868,True,17,0,0,0
Y2-S2-009K22,2,186,PS,exp,47,↑,up,↑,0.7446379000321031,True,17,0,0,0
Y2-S2-009K22,2,187,PS,exp,50,←,right,→,0.9401459998916835,False,17,-1,0,0
Y2-S2-009K22,2,188,PS,exp,35,↑,right,→,0.38414509990252554,False,18,-1,0,0
Y2-S2-009K22,2,189,PS,exp,27,↓,up,↑,0.40035369992256165,False,19,-1,0,0
Y2-S2-009K22,2,190,PS,exp,38,←,down,↓,0.26765840011648834,False,20,-1,0,0
Y2-S2-009K22,2,191,PS,exp,39,↑,up,↑,0.4509133000392467,True,21,-1,0,0
Y2-S2-009K22,2,192,PS,exp,31,←,left,←,0.5765788999851793,True,21,-1,0,0
Y2-S2-009K22,2,193,PS,exp,32,↑,left,←,0.26790179987438023,False,21,-1,0,0
Y2-S2-009K22,2,194,PS,exp,28,←,left,←,0.43391779996454716,True,22,-1,0,0
Y2-S2-009K22,2,195,PS,exp,49,↑,up,↑,0.3670386001467705,True,22,-1,0,0
Y2-S2-009K22,2,196,PS,exp,43,→,right,→,0.5410591000691056,True,22,1,1,1
Y2-S2-009K22,2,197,PS,exp,43,←,left,←,0.7090598000213504,True,21,1,0,1
Y2-S2-009K22,2,198,PS,exp,31,↓,up,↑,0.591297399951145,False,21,-1,1,2
Y2-S2-009K22,2,199,PS,exp,43,↑,up,↑,0.46779310004785657,True,22,-1,0,2
Y2-S2-009K22,2,200,PS,exp,45,←,left,←,0.5584961001295596,True,22,-1,0,2
Y2-S2-009K22,2,201,PS,exp,26,↓,left,←,0.25101819983683527,False,22,-1,0,2
Y2-S2-009K22,2,202,PS,exp,45,→,right,→,0.5508453000802547,True,23,-1,0,2
Y2-S2-009K22,2,203,PS,exp,27,↓,down,↓,0.40087489993311465,True,23,-1,0,2
Y2-S2-009K22,2,204,PS,exp,47,←,left,←,0.6248423999641091,True,23,1,1,3
Y2-S2-009K22,2,205,PS,exp,47,↑,up,↑,1.2420485999900848,True,22,1,0,3
Y2-S2-009K22,2,206,PS,exp,33,←,left,←,0.46723629999905825,True,22,1,0,3
Y2-S2-009K22,2,207,PS,exp,32,→,right,→,1.101416400168091,True,22,1,0,3
Y2-S2-009K22,2,208,PS,exp,50,←,left,←,0.7045352000277489,True,21,1,0,3
Y2-S2-009K22,2,209,PS,exp,28,↑,up,↑,0.6904875000473112,True,21,1,0,3
Y2-S2-009K22,2,210,PS,exp,46,→,right,→,0.46798030007630587,True,21,1,0,3
Y2-S2-009K22,2,211,PS,exp,27,←,left,←,0.671664800029248,True,20,1,0,3
Y2-S2-009K22,2,212,PS,exp,38,→,left,←,0.5953025000635535,False,20,-1,1,4
Y2-S2-009K22,2,213,PS,exp,27,←,left,←,0.33422680012881756,True,21,-1,0,4
Y2-S2-009K22,2,214,PS,exp,50,→,right,→,0.3672228998038918,True,21,-1,0,4
Y2-S2-009K22,2,215,PS,exp,41,↑,up,↑,0.5592264998704195,True,21,1,1,5
Y2-S2-009K22,2,216,PS,exp,41,→,right,→,0.700023400131613,True,20,1,0,5
Y2-S2-009K22,2,217,PS,exp,31,↑,up,↑,1.4801182001829147,True,20,1,0,5
Y2-S2-009K22,2,218,PS,exp,36,←,up,↑,1.094364000018686,False,20,-1,1,6
Y2-S2-009K22,2,219,PS,exp,46,→,left,←,0.6667621999513358,False,21,-1,0,6
Y2-S2-009K22,2,220,PS,exp,33,↓,up,↑,0.7064213000703603,False,22,-1,0,6
Y2-S2-009K22,2,221,PS,exp,47,↑,up,↑,0.45025240001268685,True,23,-1,0,6
Y2-S2-009K22,2,222,PS,exp,33,←,left,←,0.5008539999835193,True,23,-1,0,6
Y2-S2-009K22,2,223,PS,exp,47,↓,down,↓,0.697439800016582,True,23,1,1,7
Y2-S2-009K22,2,224,PS,exp,27,→,left,←,0.45076910010538995,False,22,-1,1,8
Y2-S2-009K22,2,225,PS,exp,44,↑,up,↑,0.5172580999787897,True,23,-1,0,8
Y2-S2-009K22,2,226,PS,exp,42,←,left,←,0.5752669998910278,True,23,-1,0,8
Y2-S2-009K22,2,227,PS,exp,44,→,right,→,0.6281679000239819,True,23,1,1,9
Y2-S2-009K22,2,228,PS,exp,32,↓,up,↑,0.40040959999896586,False,22,-1,1,10
Y2-S2-009K22,2,229,PS,exp,30,↑,up,↑,0.7134100999683142,True,23,-1,0,10
Y2-S2-009K22,2,230,PS,exp,44,←,left,←,0.31808290001936257,True,23,-1,0,10
Y2-S2-009K22,2,231,PS,exp,44,→,up,↑,1.3910203000996262,False,23,-1,0,10
Y2-S2-009K22,2,232,PS,exp,27,←,up,↑,0.4504318998660892,False,24,-1,0,10
Y2-S2-009K22,2,233,PS,exp,43,↑,up,↑,0.5174622000195086,True,25,-1,0,10
Y2-S2-009K22,2,234,PS,exp,48,→,right,→,0.35112840007059276,True,25,-1,0,10
Y2-S2-009K22,2,235,PS,exp,28,←,left,←,0.5508987999055535,True,25,1,1,11
Y2-S2-009K22,2,236,PS,exp,29,→,right,→,0.48412469984032214,True,24,1,0,11
Y2-S2-009K22,2,237,PS,exp,46,↓,down,↓,1.403502699919045,True,24,1,0,11
Y2-S2-009K22,2,238,PS,exp,47,→,right,→,0.5751503999345005,True,24,1,0,11
Y2-S2-009K22,2,239,PS,exp,34,←,right,→,0.7103188000619411,False,23,-1,1,12
Y2-S2-009K22,2,240,PS,exp,32,↑,up,↑,1.049366099992767,True,24,-1,0,12
Y2-S2-009K22,2,241,PS,exp,46,→,right,→,0.6224815000314265,True,24,-1,0,12
Y2-S2-009K22,2,242,PS,exp,25,↓,down,↓,0.9853980001062155,True,24,1,1,13
Y2-S2-009K22,2,243,PS,exp,41,→,right,→,0.4340528999455273,True,23,1,0,13
Y2-S2-009K22,2,244,PS,exp,40,↑,up,↑,0.7992352999281138,True,23,1,0,13
Y2-S2-009K22,2,245,PS,exp,27,↓,down,↓,0.5746327000670135,True,23,1,0,13
Y2-S2-009K22,2,246,PS,exp,30,↑,no_key,no_letter,-1.0,False,22,-1,1,14
Y2-S2-009K22,2,247,PS,exp,25,←,up,↑,0.1180253999773413,False,23,-1,0,14
Y2-S2-009K22,2,248,PS,exp,47,↑,up,↑,1.6162252000067383,True,24,-1,0,14
Y2-S2-009K22,2,249,PS,exp,26,→,right,→,0.6416170001029968,True,24,-1,0,14
Y2-S2-009K22,2,250,PS,exp,43,↓,down,↓,0.7173280999995768,True,24,1,1,15
Y2-S2-009K22,2,251,PS,exp,41,↑,up,↑,0.7033971999771893,True,23,1,0,15
Y2-S2-009K22,2,252,PS,exp,42,←,up,↑,0.8709086999297142,False,23,-1,1,16
Y2-S2-009K22,3,253,PS,intra_train,46,↑,up,↑,1.899650099920109,True,25,-,-,-
Y2-S2-009K22,3,254,PS,intra_train,42,←,left,←,0.48378270003013313,True,25,-,-,-
Y2-S2-009K22,3,255,PS,intra_train,27,↓,down,↓,0.6331363001372665,True,25,-,-,-
Y2-S2-009K22,3,256,PS,intra_train,27,↑,up,↑,0.6526929000392556,True,25,-,-,-
Y2-S2-009K22,3,257,PS,intra_train,34,→,left,←,0.3673430001363158,False,25,-,-,-
Y2-S2-009K22,3,258,PS,exp,50,↑,up,↑,0.38422699994407594,True,17,0,0,0
Y2-S2-009K22,3,259,PS,exp,25,→,left,←,0.4174246999900788,False,17,-1,0,0
Y2-S2-009K22,3,260,PS,exp,28,↑,up,↑,0.40091759990900755,True,18,-1,0,0
Y2-S2-009K22,3,261,PS,exp,32,↓,up,↑,0.4339491999708116,False,18,-1,0,0
Y2-S2-009K22,3,262,PS,exp,30,↑,right,→,0.38430949999019504,False,19,-1,0,0
Y2-S2-009K22,3,263,PS,exp,34,←,left,←,0.564756799954921,True,20,-1,0,0
Y2-S2-009K22,3,264,PS,exp,29,→,no_key,no_letter,-1.0,False,20,-1,0,0
Y2-S2-009K22,3,265,PS,exp,34,←,left,←,0.8823352002073079,True,21,-1,0,0
Y2-S2-009K22,3,266,PS,exp,36,↓,down,↓,0.6106418000999838,True,21,-1,0,0
Y2-S2-009K22,3,267,PS,exp,28,←,left,←,0.48386389994993806,True,21,1,1,1
Y2-S2-009K22,3,268,PS,exp,45,↓,down,↓,0.5208354000933468,True,20,1,0,1
Y2-S2-009K22,3,269,PS,exp,44,↑,down,↓,0.5748055998701602,False,20,-1,1,2
Y2-S2-009K22,3,270,PS,exp,43,←,left,←,0.4681726999115199,True,21,-1,0,2
Y2-S2-009K22,3,271,PS,exp,26,→,right,→,0.5701961999293417,True,21,-1,0,2
Y2-S2-009K22,3,272,PS,exp,44,↑,up,↑,0.6341174999251962,True,21,1,1,3
Y2-S2-009K22,3,273,PS,exp,48,↓,up,↑,0.8612893000245094,False,20,-1,1,4
Y2-S2-009K22,3,274,PS,exp,33,→,right,→,0.5360420001670718,True,21,-1,0,4
Y2-S2-009K22,3,275,PS,exp,25,↑,up,↑,0.7414417001418769,True,21,-1,0,4
Y2-S2-009K22,3,276,PS,exp,30,←,left,←,0.6396790000144392,True,21,1,1,5
Y2-S2-009K22,3,277,PS,exp,50,↑,left,←,1.6174398001749068,False,20,-1,1,6
Y2-S2-009K22,3,278,PS,exp,28,←,no_key,no_letter,-1.0,False,21,-1,0,6
Y2-S2-009K22,3,279,PS,exp,35,↑,up,↑,0.7987359000835568,True,22,-1,0,6
Y2-S2-009K22,3,280,PS,exp,49,←,left,←,0.4173071999102831,True,22,-1,0,6
Y2-S2-009K22,3,281,PS,exp,32,↓,down,↓,0.6896392998751253,True,22,1,1,7
Y2-S2-009K22,3,282,PS,exp,44,↑,up,↑,0.5403675001580268,True,21,1,0,7
Y2-S2-009K22,3,283,PS,exp,26,←,left,←,0.5662086000666022,True,21,1,0,7
Y2-S2-009K22,3,284,PS,exp,39,↓,down,↓,0.4349050000309944,True,21,1,0,7
Y2-S2-009K22,3,285,PS,exp,48,→,right,→,0.558752799872309,True,20,1,0,7
Y2-S2-009K22,3,286,PS,exp,41,↑,up,↑,1.1483612000010908,True,20,1,0,7
Y2-S2-009K22,3,287,PS,exp,45,↓,up,↑,0.4172551999799907,False,20,-1,1,8
Y2-S2-009K22,3,288,PS,exp,49,↑,up,↑,0.807788799982518,True,21,-1,0,8
Y2-S2-009K22,3,289,PS,exp,50,↓,down,↓,0.5808637000154704,True,21,-1,0,8
Y2-S2-009K22,3,290,PS,exp,38,←,right,→,0.5564829998183995,False,21,-1,0,8
Y2-S2-009K22,3,291,PS,exp,36,↑,up,↑,0.8591777998954058,True,22,-1,0,8
Y2-S2-009K22,3,292,PS,exp,25,↓,down,↓,0.5381952000316232,True,22,-1,0,8
Y2-S2-009K22,3,293,PS,exp,42,↑,up,↑,0.5522611001506448,True,22,1,1,9
Y2-S2-009K22,3,294,PS,exp,25,→,right,→,1.058186300098896,True,21,1,0,9
Y2-S2-009K22,3,295,PS,exp,33,←,up,↑,0.8090862000826746,False,21,-1,1,10
Y2-S2-009K22,3,296,PS,exp,33,↑,up,↑,0.6993820001371205,True,22,-1,0,10
Y2-S2-009K22,3,297,PS,exp,33,←,up,↑,1.1758556000422686,False,22,-1,0,10
Y2-S2-009K22,3,298,PS,exp,36,↑,up,↑,0.5648634999524802,True,23,-1,0,10
Y2-S2-009K22,3,299,PS,exp,45,←,up,↑,0.18448129994794726,False,23,-1,0,10
Y2-S2-009K22,3,300,PS,exp,33,↑,up,↑,0.4675549000967294,True,24,-1,0,10
Y2-S2-009K22,3,301,PS,exp,42,↓,up,↑,0.31780860014259815,False,24,-1,0,10
Y2-S2-009K22,3,302,PS,exp,39,←,down,↓,0.33365569985471666,False,25,-1,0,10
Y2-S2-009K22,3,303,PS,exp,36,↓,down,↓,0.533795699942857,True,26,-1,0,10
Y2-S2-009K22,3,304,PS,exp,28,←,right,→,0.6244384001474828,False,26,-1,0,10
Y2-S2-009K22,3,305,PS,exp,41,→,down,↓,0.7364715998992324,False,27,-1,0,10
Y2-S2-009K22,3,306,PS,exp,48,←,down,↓,0.4176936000585556,False,28,-1,0,10
Y2-S2-009K22,3,307,PS,exp,31,→,right,→,0.550717200152576,True,29,-1,0,10
Y2-S2-009K22,3,308,PS,exp,33,↓,down,↓,0.5175606000702828,True,29,-1,0,10
Y2-S2-009K22,3,309,PS,exp,31,↑,up,↑,0.6006552998442203,True,29,1,1,11
Y2-S2-009K22,3,310,PS,exp,32,←,left,←,0.5005439999513328,True,28,1,0,11
Y2-S2-009K22,3,311,PS,exp,39,→,right,→,0.3678713000845164,True,28,1,0,11
Y2-S2-009K22,3,312,PS,exp,40,←,left,←,0.711068700067699,True,28,1,0,11
Y2-S2-009K22,3,313,PS,exp,48,↑,left,←,0.3343326000031084,False,27,-1,1,12
Y2-S2-009K22,3,314,PS,exp,43,→,right,→,0.5172924001235515,True,28,-1,0,12
Y2-S2-009K22,3,315,PS,exp,39,←,left,←,0.40141110005788505,True,28,-1,0,12
Y2-S2-009K22,3,316,PS,exp,47,→,right,→,0.3676301999948919,True,28,1,1,13
Y2-S2-009K22,3,317,PS,exp,41,↑,right,→,0.2842999000567943,False,27,-1,1,14
Y2-S2-009K22,3,318,PS,exp,29,↓,down,↓,0.6794257001020014,True,28,-1,0,14
Y2-S2-009K22,3,319,PS,exp,26,←,left,←,0.4508497999049723,True,28,-1,0,14
Y2-S2-009K22,3,320,PS,exp,44,↑,up,↑,0.7096468999516219,True,28,1,1,15
Y2-S2-009K22,3,321,PS,exp,27,←,right,→,0.36774239991791546,False,27,-1,1,16
Y2-S2-009K22,4,322,AS,intra_train,33,↑,up,↑,0.8855487999971956,True,33,-,-,-
Y2-S2-009K22,4,323,AS,intra_train,42,→,right,→,1.7070908001624048,True,33,-,-,-
Y2-S2-009K22,4,324,AS,intra_train,26,↑,up,↑,1.7340605999343097,True,33,-,-,-
Y2-S2-009K22,4,325,AS,intra_train,33,←,left,←,0.43440289981663227,True,33,-,-,-
Y2-S2-009K22,4,326,AS,intra_train,35,↑,up,↑,0.4011154000181705,True,33,-,-,-
Y2-S2-009K22,4,327,AS,exp,31,→,right,→,0.46725520002655685,True,22,0,0,0
Y2-S2-009K22,4,328,AS,exp,32,↓,down,↓,0.8584950999356806,True,22,0,0,0
Y2-S2-009K22,4,329,AS,exp,31,→,right,→,0.7347701999824494,True,22,1,0,0
Y2-S2-009K22,4,330,AS,exp,48,←,left,←,1.0433912000153214,True,21,1,0,0
Y2-S2-009K22,4,331,AS,exp,37,→,right,→,1.1420339001342654,True,21,1,0,0
Y2-S2-009K22,4,332,AS,exp,31,↑,up,↑,0.8094475998077542,True,21,1,0,0
Y2-S2-009K22,4,333,AS,exp,26,←,left,←,0.4005625999998301,True,20,1,0,0
Y2-S2-009K22,4,334,AS,exp,40,→,left,←,0.2843448999337852,False,20,-1,1,1
Y2-S2-009K22,4,335,AS,exp,38,↓,down,↓,0.5504642000887543,True,21,-1,0,1
Y2-S2-009K22,4,336,AS,exp,48,→,left,←,0.5778536000289023,False,21,-1,0,1
Y2-S2-009K22,4,337,AS,exp,35,↑,right,→,0.4506397999357432,False,22,-1,0,1
Y2-S2-009K22,4,338,AS,exp,49,→,up,↑,0.16751669999212027,False,23,-1,0,1
Y2-S2-009K22,4,339,AS,exp,49,↓,down,↓,0.8329322999343276,True,24,-1,0,1
Y2-S2-009K22,4,340,AS,exp,43,↑,down,↓,0.5172272999770939,False,24,-1,0,1
Y2-S2-009K22,4,341,AS,exp,29,←,left,←,0.5005870999302715,True,25,-1,0,1
Y2-S2-009K22,4,342,AS,exp,33,↑,up,↑,0.7613715999759734,True,25,-1,0,1
Y2-S2-009K22,4,343,AS,exp,36,←,up,↑,0.2507695001550019,False,25,-1,0,1
Y2-S2-009K22,4,344,AS,exp,44,→,left,←,0.33429899998009205,False,26,-1,0,1
Y2-S2-009K22,4,345,AS,exp,28,↓,up,↑,0.5841665000189096,False,27,-1,0,1
Y2-S2-009K22,4,346,AS,exp,35,↑,up,↑,0.8182868000585586,True,28,-1,0,1
Y2-S2-009K22,4,347,AS,exp,29,←,left,←,0.6006484001409262,True,28,-1,0,1
Y2-S2-009K22,4,348,AS,exp,41,→,right,→,0.4178003000561148,True,28,1,1,2
Y2-S2-009K22,4,349,AS,exp,34,←,left,←,0.76369300018996,True,27,1,0,2
Y2-S2-009K22,4,350,AS,exp,36,↓,down,↓,1.0674642000813037,True,27,1,0,2
Y2-S2-009K22,4,351,AS,exp,46,→,right,→,0.5841667000204325,True,27,1,0,2
Y2-S2-009K22,4,352,AS,exp,35,↑,up,↑,0.6384308999404311,True,26,1,0,2
Y2-S2-009K22,4,353,AS,exp,35,↓,down,↓,0.6042316998355091,True,26,1,0,2
Y2-S2-009K22,4,354,AS,exp,36,←,up,↑,0.417351100128144,False,26,-1,1,3
Y2-S2-009K22,4,355,AS,exp,31,↓,right,→,0.21785979997366667,False,27,-1,0,3
Y2-S2-009K22,4,356,AS,exp,45,←,left,←,0.4178247000090778,True,28,-1,0,3
Y2-S2-009K22,4,357,AS,exp,31,↑,down,↓,0.5840838002040982,False,28,-1,0,3
Y2-S2-009K22,4,358,AS,exp,35,→,up,↑,0.43480329983867705,False,29,-1,0,3
Y2-S2-009K22,4,359,AS,exp,37,↓,right,→,0.18474910012446344,False,30,-1,0,3
Y2-S2-009K22,4,360,AS,exp,48,→,down,↓,0.4008162000682205,False,31,-1,0,3
Y2-S2-009K22,4,361,AS,exp,29,↑,up,↑,0.6343910000286996,True,32,-1,0,3
Y2-S2-009K22,4,362,AS,exp,27,←,right,→,0.5008963998407125,False,32,-1,0,3
Y2-S2-009K22,4,363,AS,exp,31,→,right,→,0.6009532001335174,True,33,-1,0,3
Y2-S2-009K22,4,364,AS,exp,36,↑,right,→,0.33420019992627203,False,33,-1,0,3
Y2-S2-009K22,4,365,AS,exp,40,→,right,→,0.7912010001018643,True,34,-1,0,3
Y2-S2-009K22,4,366,AS,exp,41,↓,down,↓,0.8497367999516428,True,34,-1,0,3
Y2-S2-009K22,4,367,AS,exp,50,←,right,→,0.4509727000258863,False,34,-1,0,3
Y2-S2-009K22,4,368,AS,exp,49,↑,right,→,0.40122639993205667,False,35,-1,0,3
Y2-S2-009K22,4,369,AS,exp,30,↓,up,↑,0.5839669001288712,False,36,-1,0,3
Y2-S2-009K22,4,370,AS,exp,27,←,left,←,0.7892267999704927,True,37,-1,0,3
Y2-S2-009K22,4,371,AS,exp,35,→,right,→,0.7344434999395162,True,37,-1,0,3
Y2-S2-009K22,4,372,AS,exp,36,↑,up,↑,1.4747393000870943,True,37,1,1,4
Y2-S2-009K22,4,373,AS,exp,32,→,right,→,0.6344067000318319,True,36,1,0,4
Y2-S2-009K22,4,374,AS,exp,41,←,left,←,0.8584265001118183,True,36,1,0,4
Y2-S2-009K22,4,375,AS,exp,42,↑,left,←,0.617246099980548,False,36,-1,1,5
Y2-S2-009K22,4,376,AS,exp,25,←,up,↑,0.334197900025174,False,37,-1,0,5
Y2-S2-009K22,4,377,AS,exp,40,↓,up,↑,0.5841214000247419,False,38,-1,0,5
Y2-S2-009K22,4,378,AS,exp,39,↑,up,↑,0.5510788999963552,True,39,-1,0,5
Y2-S2-009K22,4,379,AS,exp,47,↓,up,↑,0.5009014999959618,False,39,-1,0,5
Y2-S2-009K22,4,380,AS,exp,28,↑,up,↑,0.7841582000255585,True,40,-1,0,5
Y2-S2-009K22,4,381,AS,exp,38,←,left,←,0.5341789000667632,True,40,-1,0,5
Y2-S2-009K22,4,382,AS,exp,45,→,right,→,1.4625763001386076,True,40,1,1,6
Y2-S2-009K22,4,383,AS,exp,31,↓,down,↓,0.8722818999085575,True,39,1,0,6
Y2-S2-009K22,4,384,AS,exp,40,→,left,←,0.6337870000861585,False,39,-1,1,7
Y2-S2-009K22,4,385,AS,exp,44,↑,up,↑,0.6345170999411494,True,40,-1,0,7
Y2-S2-009K22,4,386,AS,exp,42,←,left,←,0.6673179999925196,True,40,-1,0,7
Y2-S2-009K22,4,387,AS,exp,31,→,up,↑,0.20111859985627234,False,40,-1,0,7
Y2-S2-009K22,4,388,AS,exp,39,↓,right,→,0.3178662001155317,False,41,-1,0,7
Y2-S2-009K22,4,389,AS,exp,26,←,up,↑,0.5681013998109847,False,42,-1,0,7
Y2-S2-009K22,4,390,AS,exp,47,↓,right,→,0.4670457998290658,False,43,-1,0,7
Y2-S2-009K22,4,391,AS,exp,47,→,right,→,0.5676438000518829,True,44,-1,0,7
Y2-S2-009K22,4,392,AS,exp,41,↑,left,←,0.41791630000807345,False,44,-1,0,7
Y2-S2-009K22,4,393,AS,exp,29,←,up,↑,0.4676354001276195,False,45,-1,0,7
Y2-S2-009K22,4,394,AS,exp,50,→,right,→,0.6677870999556035,True,46,-1,0,7
Y2-S2-009K22,4,395,AS,exp,35,↑,right,→,0.7509576000738889,False,46,-1,0,7
Y2-S2-009K22,4,396,AS,exp,26,→,right,→,0.7010773001238704,True,47,-1,0,7
Y2-S2-009K22,4,397,AS,exp,42,←,left,←,0.6178586999885738,True,47,-1,0,7
Y2-S2-009K22,4,398,AS,exp,42,↓,down,↓,0.783912800019607,True,47,1,1,8
Y2-S2-009K22,4,399,AS,exp,30,→,right,→,0.75052549992688,True,46,1,0,8
Y2-S2-009K22,4,400,AS,exp,37,↓,down,↓,0.7014515998307616,True,46,1,0,8
Y2-S2-009K22,4,401,AS,exp,26,←,left,←,0.45144230010919273,True,46,1,0,8
Y2-S2-009K22,4,402,AS,exp,42,→,down,↓,0.6675358000211418,False,45,-1,1,9
Y2-S2-009K22,4,403,AS,exp,39,↓,right,→,0.7343176999129355,False,46,-1,0,9
Y2-S2-009K22,4,404,AS,exp,34,↑,up,↑,0.8675277999136597,True,47,-1,0,9
Y2-S2-009K22,4,405,AS,exp,50,←,left,←,0.567667500115931,True,47,-1,0,9
Y2-S2-009K22,4,406,AS,exp,38,↓,down,↓,0.5177799998782575,True,47,1,1,10
Y2-S2-009K22,4,407,AS,exp,46,→,right,→,0.5010133998002857,True,46,1,0,10
Y2-S2-009K22,4,408,AS,exp,39,←,left,←,0.6177680999971926,True,46,1,0,10
Y2-S2-009K22,4,409,AS,exp,27,↑,up,↑,1.4361887001432478,True,46,1,0,10
Y2-S2-009K22,4,410,AS,exp,31,→,right,→,0.500888800015673,True,45,1,0,10
Y2-S2-009K22,4,411,AS,exp,49,←,left,←,0.3677493999712169,True,45,1,0,10
Y2-S2-009K22,4,412,AS,exp,26,↓,down,↓,1.1403051000088453,True,45,1,0,10
Y2-S2-009K22,4,413,AS,exp,31,←,left,←,1.5868249998893589,True,44,1,0,10
Y2-S2-009K22,4,414,AS,exp,27,↓,down,↓,0.7671143999323249,True,44,1,0,10
Y2-S2-009K22,4,415,AS,exp,35,→,right,→,0.6680981998797506,True,44,1,0,10
Y2-S2-009K22,4,416,AS,exp,38,↓,down,↓,0.48440969991497695,True,43,1,0,10
Y2-S2-009K22,4,417,AS,exp,46,→,left,←,0.5675017999019474,False,43,-1,1,11
Y2-S2-009K22,4,418,AS,exp,37,↑,down,↓,0.6176152001135051,False,44,-1,0,11
Y2-S2-009K22,4,419,AS,exp,33,←,left,←,0.551301599945873,True,45,-1,0,11
Y2-S2-009K22,4,420,AS,exp,39,→,right,→,0.7679632001090795,True,45,-1,0,11
Y2-S2-009K22,4,421,AS,exp,46,←,left,←,0.883604499977082,True,45,1,1,12
Y2-S2-009K22,4,422,AS,exp,48,↓,down,↓,0.8005623000208288,True,44,1,0,12
Y2-S2-009K22,4,423,AS,exp,45,→,right,→,0.733997899806127,True,44,1,0,12
Y2-S2-009K22,4,424,AS,exp,47,↑,up,↑,0.7507750000804663,True,44,1,0,12
Y2-S2-009K22,4,425,AS,exp,41,→,right,→,0.7838969000149518,True,43,1,0,12
Y2-S2-009K22,4,426,AS,exp,36,↓,down,↓,0.6343012999277562,True,43,1,0,12
Y2-S2-009K22,4,427,AS,exp,29,↑,up,↑,0.6011172998696566,True,43,1,0,12
Y2-S2-009K22,4,428,AS,exp,35,←,left,←,0.5676758999470621,True,42,1,0,12
Y2-S2-009K22,4,429,AS,exp,35,↓,down,↓,0.7348563000559807,True,42,1,0,12
Y2-S2-009K22,4,430,AS,exp,42,→,left,←,0.13449510000646114,False,42,-1,1,13
Y2-S2-009K22,4,431,AS,exp,27,←,left,←,0.584701299900189,True,43,-1,0,13
Y2-S2-009K22,4,432,AS,exp,45,↓,down,↓,0.6010184998158365,True,43,-1,0,13
Y2-S2-009K22,4,433,AS,exp,36,→,down,↓,0.4678970000240952,False,43,-1,0,13
Y2-S2-009K22,4,434,AS,exp,50,↓,down,↓,0.7845163000747561,True,44,-1,0,13
Y2-S2-009K22,4,435,AS,exp,37,←,left,←,0.7839649000670761,True,44,-1,0,13
Y2-S2-009K22,4,436,AS,exp,36,→,right,→,0.6010934999212623,True,44,1,1,14
Y2-S2-009K22,4,437,AS,exp,48,←,left,←,0.6843918999657035,True,43,1,0,14
Y2-S2-009K22,4,438,AS,exp,41,→,right,→,0.7011040998622775,True,43,1,0,14
Y2-S2-009K22,4,439,AS,exp,41,↑,up,↑,1.377036300022155,True,43,1,0,14
Y2-S2-009K22,4,440,AS,exp,46,←,down,↓,0.871372900204733,False,42,-1,1,15
Y2-S2-009K22,4,441,AS,exp,46,↑,down,↓,1.0634457999840379,False,43,-1,0,15
Y2-S2-009K22,4,442,AS,exp,49,←,right,→,0.334224000107497,False,44,-1,0,15
Y2-S2-009K22,4,443,AS,exp,38,↓,down,↓,0.8839669001754373,True,45,-1,0,15
Y2-S2-009K22,4,444,AS,exp,41,→,right,→,0.45088680018670857,True,45,-1,0,15
Y2-S2-009K22,4,445,AS,exp,44,←,left,←,0.7507415001746267,True,45,1,1,16
Y2-S2-009K22,5,446,AS,intra_train,39,↓,down,↓,1.0348632000386715,True,33,-,-,-
Y2-S2-009K22,5,447,AS,intra_train,40,→,right,→,0.650367199908942,True,33,-,-,-
Y2-S2-009K22,5,448,AS,intra_train,38,↓,down,↓,0.5175695999059826,True,33,-,-,-
Y2-S2-009K22,5,449,AS,intra_train,46,→,right,→,0.6512551999185234,True,33,-,-,-
Y2-S2-009K22,5,450,AS,intra_train,48,←,left,←,0.5503859999589622,True,33,-,-,-
Y2-S2-009K22,5,451,AS,exp,45,↓,down,↓,0.6886642000172287,True,22,0,0,0
Y2-S2-009K22,5,452,AS,exp,26,→,right,→,0.5004821000620723,True,22,0,0,0
Y2-S2-009K22,5,453,AS,exp,36,↑,down,↓,0.5740504001732916,False,22,-1,0,0
Y2-S2-009K22,5,454,AS,exp,32,↓,no_key,no_letter,-1.0,False,23,-1,0,0
Y2-S2-009K22,5,455,AS,exp,42,←,no_key,no_letter,-1.0,False,24,-1,0,0
Y2-S2-009K22,5,456,AS,exp,48,↓,down,↓,0.38426829990930855,True,25,-1,0,0
Y2-S2-009K22,5,457,AS,exp,43,←,left,←,1.3595867999829352,True,25,-1,0,0
Y2-S2-009K22,5,458,AS,exp,32,→,down,↓,0.3678717000875622,False,25,-1,0,0
Y2-S2-009K22,5,459,AS,exp,36,←,down,↓,0.6573758001904935,False,26,-1,0,0
Y2-S2-009K22,5,460,AS,exp,44,↑,left,←,0.30082169990055263,False,27,-1,0,0
Y2-S2-009K22,5,461,AS,exp,47,←,up,↑,0.11787309986539185,False,28,-1,0,0
Y2-S2-009K22,5,462,AS,exp,43,↑,up,↑,0.5671248999424279,True,29,-1,0,0
Y2-S2-009K22,5,463,AS,exp,49,↓,down,↓,0.5336852998007089,True,29,-1,0,0
Y2-S2-009K22,5,464,AS,exp,43,←,left,←,0.6005337000824511,True,29,1,1,1
Y2-S2-009K22,5,465,AS,exp,26,→,left,←,0.5170685998164117,False,28,-1,1,2
Y2-S2-009K22,5,466,AS,exp,38,↑,left,←,0.28452220000326633,False,29,-1,0,2
Y2-S2-009K22,5,467,AS,exp,26,↓,down,↓,0.7921104999259114,True,30,-1,0,2
Y2-S2-009K22,5,468,AS,exp,44,→,right,→,1.7506750000175089,True,30,-1,0,2
Y2-S2-009K22,5,469,AS,exp,37,←,left,←,0.5504966999869794,True,30,1,1,3
Y2-S2-009K22,5,470,AS,exp,28,↑,up,↑,0.534039800055325,True,29,1,0,3
Y2-S2-009K22,5,471,AS,exp,32,↓,down,↓,0.6610822000075132,True,29,1,0,3
Y2-S2-009K22,5,472,AS,exp,35,←,left,←,1.2107784000691026,True,29,1,0,3
Y2-S2-009K22,5,473,AS,exp,30,↓,down,↓,0.7558444000314921,True,28,1,0,3
Y2-S2-009K22,5,474,AS,exp,36,↑,up,↑,0.6549501998815686,True,28,1,0,3
Y2-S2-009K22,5,475,AS,exp,45,←,left,←,0.41767359990626574,True,28,1,0,3
Y2-S2-009K22,5,476,AS,exp,36,↓,down,↓,0.5671408001799136,True,27,1,0,3
Y2-S2-009K22,5,477,AS,exp,32,←,left,←,0.6263641000259668,True,27,1,0,3
Y2-S2-009K22,5,478,AS,exp,38,↑,up,↑,0.5505571998655796,True,27,1,0,3
Y2-S2-009K22,5,479,AS,exp,44,→,right,→,0.5007425998337567,True,26,1,0,3
Y2-S2-009K22,5,480,AS,exp,45,↓,down,↓,0.5677805999293923,True,26,1,0,3
Y2-S2-009K22,5,481,AS,exp,36,→,right,→,0.6699085999280214,True,26,1,0,3
Y2-S2-009K22,5,482,AS,exp,28,←,left,←,0.43374929996207356,True,25,1,0,3
Y2-S2-009K22,5,483,AS,exp,34,↓,right,→,0.3675569000188261,False,25,-1,1,4
Y2-S2-009K22,5,484,AS,exp,48,↑,down,↓,0.5341217999812216,False,26,-1,0,4
Y2-S2-009K22,5,485,AS,exp,40,←,left,←,0.4840186999645084,True,27,-1,0,4
Y2-S2-009K22,5,486,AS,exp,50,↑,up,↑,0.4675173000432551,True,27,-1,0,4
Y2-S2-009K22,5,487,AS,exp,39,←,left,←,0.3843346000649035,True,27,1,1,5
Y2-S2-009K22,5,488,AS,exp,34,→,right,→,0.5172695000655949,True,26,1,0,5
Y2-S2-009K22,5,489,AS,exp,39,↓,down,↓,0.9316930999048054,True,26,1,0,5
Y2-S2-009K22,5,490,AS,exp,44,↑,no_key,no_letter,-1.0,False,26,-1,1,6
Y2-S2-009K22,5,491,AS,exp,28,→,no_key,no_letter,-1.0,False,27,-1,0,6
Y2-S2-009K22,5,492,AS,exp,28,↓,down,↓,0.5179167001042515,True,28,-1,0,6
Y2-S2-009K22,5,493,AS,exp,25,←,left,←,0.36758990003727376,True,28,-1,0,6
Y2-S2-009K22,5,494,AS,exp,45,↑,up,↑,0.5841475001070648,True,28,1,1,7
Y2-S2-009K22,5,495,AS,exp,28,↓,left,←,0.3511256000492722,False,27,-1,1,8
Y2-S2-009K22,5,496,AS,exp,39,→,right,→,0.5509497001767159,True,28,-1,0,8
Y2-S2-009K22,5,497,AS,exp,25,↑,down,↓,0.56751439999789,False,28,-1,0,8
Y2-S2-009K22,5,498,AS,exp,31,↓,down,↓,0.5503000998869538,True,29,-1,0,8
Y2-S2-009K22,5,499,AS,exp,35,→,right,→,0.7667127999011427,True,29,-1,0,8
Y2-S2-009K22,5,500,AS,exp,27,↓,up,↑,0.5007463998626918,False,29,-1,0,8
Y2-S2-009K22,5,501,AS,exp,42,←,left,←,0.6176778001245111,True,30,-1,0,8
Y2-S2-009K22,5,502,AS,exp,32,↓,down,↓,0.7708076001144946,True,30,-1,0,8
Y2-S2-009K22,5,503,AS,exp,36,→,right,→,0.7817737001460046,True,30,1,1,9
Y2-S2-009K22,5,504,AS,exp,30,←,no_key,no_letter,-1.0,False,29,-1,1,10
Y2-S2-009K22,5,505,AS,exp,38,→,right,→,0.720665100030601,True,30,-1,0,10
Y2-S2-009K22,5,506,AS,exp,45,↓,down,↓,0.7309251001570374,True,30,-1,0,10
Y2-S2-009K22,5,507,AS,exp,50,↑,up,↑,0.8315600000787526,True,30,1,1,11
Y2-S2-009K22,5,508,AS,exp,37,↓,down,↓,0.8970690998248756,True,29,1,0,11
Y2-S2-009K22,5,509,AS,exp,37,→,no_key,no_letter,-1.0,False,29,-1,1,12
Y2-S2-009K22,5,510,AS,exp,41,↓,down,↓,0.6005957999732345,True,30,-1,0,12
Y2-S2-009K22,5,511,AS,exp,39,↑,up,↑,0.8192261999938637,True,30,-1,0,12
Y2-S2-009K22,5,512,AS,exp,28,↓,down,↓,1.1095805999357253,True,30,1,1,13
Y2-S2-009K22,5,513,AS,exp,49,→,down,↓,0.7597707000095397,False,29,-1,1,14
Y2-S2-009K22,5,514,AS,exp,48,←,no_key,no_letter,-1.0,False,30,-1,0,14
Y2-S2-009K22,5,515,AS,exp,43,↓,down,↓,0.4677482999395579,True,31,-1,0,14
Y2-S2-009K22,5,516,AS,exp,38,↑,up,↑,1.2332544000819325,True,31,-1,0,14
Y2-S2-009K22,5,517,AS,exp,38,←,up,↑,1.8429161000531167,False,31,-1,0,14
Y2-S2-009K22,5,518,AS,exp,37,↓,up,↑,0.10136019997298717,False,32,-1,0,14
Y2-S2-009K22,5,519,AS,exp,35,↑,up,↑,0.4177009998820722,True,33,-1,0,14
Y2-S2-009K22,5,520,AS,exp,31,→,left,←,0.5339059999678284,False,33,-1,0,14
Y2-S2-009K22,5,521,AS,exp,43,↓,down,↓,0.7455561999231577,True,34,-1,0,14
Y2-S2-009K22,5,522,AS,exp,26,↑,up,↑,0.5340653001330793,True,34,-1,0,14
Y2-S2-009K22,5,523,AS,exp,35,→,right,→,0.9068072999361902,True,34,1,1,15
Y2-S2-009K22,5,524,AS,exp,50,↑,up,↑,0.4512084999587387,True,33,1,0,15
Y2-S2-009K22,5,525,AS,exp,48,↓,up,↑,0.6673061999026686,False,33,-1,1,16
Y2-S2-009K22,6,526,PS,intra_train,35,↑,up,↑,0.6501269000582397,True,25,-,-,-
Y2-S2-009K22,6,527,PS,intra_train,46,↓,up,↑,0.6946634999476373,False,25,-,-,-
Y2-S2-009K22,6,528,PS,intra_train,34,←,left,←,0.4672986001241952,True,25,-,-,-
Y2-S2-009K22,6,529,PS,intra_train,39,↓,down,↓,0.6788231998216361,True,25,-,-,-
Y2-S2-009K22,6,530,PS,intra_train,47,→,no_key,no_letter,-1.0,False,25,-,-,-
Y2-S2-009K22,6,531,PS,exp,37,↓,down,↓,0.602079699980095,True,17,0,0,0
Y2-S2-009K22,6,532,PS,exp,25,←,down,↓,0.9273687999229878,False,17,-1,0,0
Y2-S2-009K22,6,533,PS,exp,46,↑,no_key,no_letter,-1.0,False,18,-1,0,0
Y2-S2-009K22,6,534,PS,exp,31,→,down,↓,0.6854004999622703,False,19,-1,0,0
Y2-S2-009K22,6,535,PS,exp,32,↑,up,↑,0.6465560998767614,True,20,-1,0,0
Y2-S2-009K22,6,536,PS,exp,38,↓,down,↓,0.6983010000549257,True,20,-1,0,0
Y2-S2-009K22,6,537,PS,exp,42,↑,up,↑,0.6650543001014739,True,20,1,1,1
Y2-S2-009K22,6,538,PS,exp,40,←,no_key,no_letter,-1.0,False,19,-1,1,2
Y2-S2-009K22,6,539,PS,exp,33,↓,down,↓,0.6337168000172824,True,20,-1,0,2
Y2-S2-009K22,6,540,PS,exp,25,→,right,→,0.5115358999464661,True,20,-1,0,2
Y2-S2-009K22,6,541,PS,exp,40,←,no_key,no_letter,-1.0,False,20,-1,0,2
Y2-S2-009K22,6,542,PS,exp,49,↓,down,↓,0.5368679999373853,True,21,-1,0,2
Y2-S2-009K22,6,543,PS,exp,27,←,left,←,0.9158195001073182,True,21,-1,0,2
Y2-S2-009K22,6,544,PS,exp,41,↓,down,↓,0.8949142000637949,True,21,1,1,3
Y2-S2-009K22,6,545,PS,exp,36,↑,up,↑,0.7785865999758244,True,20,1,0,3
Y2-S2-009K22,6,546,PS,exp,34,←,left,←,0.45050999987870455,True,20,1,0,3
Y2-S2-009K22,6,547,PS,exp,35,↓,down,↓,0.6986945001408458,True,20,1,0,3
Y2-S2-009K22,6,548,PS,exp,48,↑,up,↑,0.5884507999289781,True,19,1,0,3
Y2-S2-009K22,6,549,PS,exp,43,↓,down,↓,0.5560156998690218,True,19,1,0,3
Y2-S2-009K22,6,550,PS,exp,47,→,right,→,0.5717398000415415,True,19,1,0,3
Y2-S2-009K22,6,551,PS,exp,38,←,left,←,0.5704216999001801,True,18,1,0,3
Y2-S2-009K22,6,552,PS,exp,25,↑,left,←,0.8556893998757005,False,18,-1,1,4
Y2-S2-009K22,6,553,PS,exp,47,↓,left,←,1.8763179001398385,False,19,-1,0,4
Y2-S2-009K22,6,554,PS,exp,38,→,right,→,0.8070495000574738,True,20,-1,0,4
Y2-S2-009K22,6,555,PS,exp,27,↓,down,↓,0.8251893001142889,True,20,-1,0,4
Y2-S2-009K22,6,556,PS,exp,26,→,down,↓,0.9623271999880672,False,20,-1,0,4
Y2-S2-009K22,6,557,PS,exp,37,←,left,←,0.629846400115639,True,21,-1,0,4
Y2-S2-009K22,6,558,PS,exp,36,→,right,→,1.1140998001210392,True,21,-1,0,4
Y2-S2-009K22,6,559,PS,exp,26,↓,left,←,1.6042476000729948,False,21,-1,0,4
Y2-S2-009K22,6,560,PS,exp,28,↑,up,↑,0.6210153000429273,True,22,-1,0,4
Y2-S2-009K22,6,561,PS,exp,47,↓,down,↓,0.5763490002136678,True,22,-1,0,4
Y2-S2-009K22,6,562,PS,exp,25,←,up,↑,0.9507118999026716,False,22,-1,0,4
Y2-S2-009K22,6,563,PS,exp,33,↑,down,↓,0.7810066000092775,False,23,-1,0,4
Y2-S2-009K22,6,564,PS,exp,33,←,down,↓,0.41724850004538894,False,24,-1,0,4
Y2-S2-009K22,6,565,PS,exp,50,→,left,←,0.5005834000185132,False,25,-1,0,4
Y2-S2-009K22,6,566,PS,exp,46,↑,up,↑,0.45034710015170276,True,26,-1,0,4
Y2-S2-009K22,6,567,PS,exp,31,↓,down,↓,0.5170698999427259,True,26,-1,0,4
Y2-S2-009K22,6,568,PS,exp,38,↑,up,↑,0.4837654000148177,True,26,1,1,5
Y2-S2-009K22,6,569,PS,exp,39,→,right,→,0.534051800146699,True,25,1,0,5
Y2-S2-009K22,6,570,PS,exp,47,↓,right,→,0.3676819000393152,False,25,-1,1,6
Y2-S2-009K22,6,571,PS,exp,37,←,left,←,0.6658299001865089,True,26,-1,0,6
Y2-S2-009K22,6,572,PS,exp,38,↓,down,↓,0.46719749993644655,True,26,-1,0,6
Y2-S2-009K22,6,573,PS,exp,44,←,left,←,1.1663178000599146,True,26,1,1,7
Y2-S2-009K22,6,574,PS,exp,32,↓,down,↓,0.4338485000189394,True,25,1,0,7
Y2-S2-009K22,6,575,PS,exp,42,↑,up,↑,0.778283900115639,True,25,1,0,7
Y2-S2-009K22,6,576,PS,exp,41,→,right,→,0.5339422000106424,True,25,1,0,7
Y2-S2-009K22,6,577,PS,exp,40,↓,down,↓,0.822684699902311,True,24,1,0,7
Y2-S2-009K22,6,578,PS,exp,26,←,right,→,0.6754501000978053,False,24,-1,1,8
Y2-S2-009K22,6,579,PS,exp,29,↑,up,↑,0.8429543999955058,True,25,-1,0,8
Y2-S2-009K22,6,580,PS,exp,27,↓,down,↓,0.8814156998414546,True,25,-1,0,8
Y2-S2-009K22,6,581,PS,exp,48,→,right,→,0.747545599937439,True,25,1,1,9
Y2-S2-009K22,6,582,PS,exp,28,←,left,←,0.927592899883166,True,24,1,0,9
Y2-S2-009K22,6,583,PS,exp,39,↑,no_key,no_letter,-1.0,False,24,-1,1,10
Y2-S2-009K22,6,584,PS,exp,50,→,right,→,0.6401599000673741,True,25,-1,0,10
Y2-S2-009K22,6,585,PS,exp,28,↓,down,↓,0.8388727998826653,True,25,-1,0,10
Y2-S2-009K22,6,586,PS,exp,25,↑,up,↑,0.4676642999984324,True,25,1,1,11
Y2-S2-009K22,6,587,PS,exp,35,→,right,→,0.534082799917087,True,24,1,0,11
Y2-S2-009K22,6,588,PS,exp,28,↓,down,↓,0.7642614000942558,True,24,1,0,11
Y2-S2-009K22,6,589,PS,exp,48,→,right,→,1.114631799980998,True,24,1,0,11
Y2-S2-009K22,6,590,PS,exp,29,↑,up,↑,0.7332446998916566,True,23,1,0,11
Y2-S2-009K22,6,591,PS,exp,28,↓,up,↑,0.5005145999602973,False,23,-1,1,12
Y2-S2-009K22,6,592,PS,exp,43,→,up,↑,0.678414799971506,False,24,-1,0,12
Y2-S2-009K22,6,593,PS,exp,45,↓,up,↑,0.6010598000138998,False,25,-1,0,12
Y2-S2-009K22,6,594,PS,exp,41,←,no_key,no_letter,-1.0,False,26,-1,0,12
Y2-S2-009K22,6,595,PS,exp,29,→,up,↑,0.7252466999925673,False,27,-1,0,12
Y2-S2-009K22,6,596,PS,exp,42,↓,no_key,no_letter,-1.0,False,28,-1,0,12
Y2-S2-009K22,6,597,PS,exp,29,→,up,↑,0.23422019998542964,False,29,-1,0,12
Y2-S2-009K22,6,598,PS,exp,33,↓,left,←,2.1477228000294417,False,30,-1,0,12
Y2-S2-009K22,6,599,PS,exp,43,←,no_key,no_letter,-1.0,False,31,-1,0,12
Y2-S2-009K22,6,600,PS,exp,47,↑,down,↓,1.117209899937734,False,32,-1,0,12
Y2-S2-009K22,6,601,PS,exp,49,→,right,→,0.5671934999991208,True,33,-1,0,12
Y2-S2-009K22,6,602,PS,exp,27,↓,down,↓,0.5505631999112666,True,33,-1,0,12
Y2-S2-009K22,6,603,PS,exp,27,→,right,→,0.7240385001059622,True,33,1,1,13
Y2-S2-009K22,6,604,PS,exp,39,↓,down,↓,0.417612100020051,True,32,1,0,13
Y2-S2-009K22,6,605,PS,exp,25,→,right,→,0.567158600082621,True,32,1,0,13
Y2-S2-009K22,6,606,PS,exp,38,↓,down,↓,0.5008216998539865,True,32,1,0,13
Y2-S2-009K22,6,607,PS,exp,29,→,right,→,0.5016046001110226,True,31,1,0,13
Y2-S2-009K22,6,608,PS,exp,45,↓,down,↓,0.46746319998055696,True,31,1,0,13
Y2-S2-009K22,6,609,PS,exp,29,→,right,→,0.6505146999843419,True,31,1,0,13
Y2-S2-009K22,6,610,PS,exp,25,↓,right,→,1.3024788000620902,False,30,-1,1,14
Y2-S2-009K22,6,611,PS,exp,38,↑,no_key,no_letter,-1.0,False,31,-1,0,14
Y2-S2-009K22,6,612,PS,exp,29,↓,down,↓,0.7498129999730736,True,32,-1,0,14
Y2-S2-009K22,6,613,PS,exp,36,→,right,→,0.6341009000316262,True,32,-1,0,14
Y2-S2-009K22,6,614,PS,exp,26,↑,left,←,0.36761810001917183,False,32,-1,0,14
Y2-S2-009K22,6,615,PS,exp,33,←,left,←,0.4336790998931974,True,33,-1,0,14
Y2-S2-009K22,6,616,PS,exp,48,↓,down,↓,0.5175474998541176,True,33,-1,0,14
Y2-S2-009K22,6,617,PS,exp,35,←,left,←,0.4007399999536574,True,33,1,1,15
Y2-S2-009K22,6,618,PS,exp,44,↑,up,↑,0.48461939999833703,True,32,1,0,15
Y2-S2-009K22,6,619,PS,exp,50,←,left,←,0.43446310004219413,True,32,1,0,15
Y2-S2-009K22,6,620,PS,exp,49,↑,up,↑,0.6174151999875903,True,32,1,0,15
Y2-S2-009K22,6,621,PS,exp,42,↓,down,↓,0.5840888998936862,True,31,1,0,15
Y2-S2-009K22,6,622,PS,exp,44,→,left,←,0.5172254000790417,False,31,-1,1,16
Y2-S2-009K22,7,623,PS,intra_train,30,↑,up,↑,0.48402019985951483,True,25,-,-,-
Y2-S2-009K22,7,624,PS,intra_train,47,→,right,→,0.4837586001958698,True,25,-,-,-
Y2-S2-009K22,7,625,PS,intra_train,40,←,left,←,0.6250253999605775,True,25,-,-,-
Y2-S2-009K22,7,626,PS,intra_train,25,→,right,→,0.7753466998692602,True,25,-,-,-
Y2-S2-009K22,7,627,PS,intra_train,32,↑,up,↑,0.4838944000657648,True,25,-,-,-
Y2-S2-009K22,7,628,PS,exp,44,→,left,←,0.7003254999872297,False,17,-1,0,0
Y2-S2-009K22,7,629,PS,exp,47,↑,up,↑,0.41767019988037646,True,18,-1,0,0
Y2-S2-009K22,7,630,PS,exp,33,←,left,←,0.6638325999956578,True,18,-1,0,0
Y2-S2-009K22,7,631,PS,exp,41,↑,left,←,1.3761738000903279,False,18,-1,0,0
Y2-S2-009K22,7,632,PS,exp,40,→,no_key,no_letter,-1.0,False,19,-1,0,0
Y2-S2-009K22,7,633,PS,exp,40,↓,no_key,no_letter,-1.0,False,20,-1,0,0
Y2-S2-009K22,7,634,PS,exp,27,→,right,→,0.7801299002021551,True,21,-1,0,0
Y2-S2-009K22,7,635,PS,exp,41,↑,no_key,no_letter,-1.0,False,21,-1,0,0
Y2-S2-009K22,7,636,PS,exp,27,→,right,→,0.7247635000385344,True,22,-1,0,0
Y2-S2-009K22,7,637,PS,exp,36,←,left,←,0.5409540999680758,True,22,-1,0,0
Y2-S2-009K22,7,638,PS,exp,27,↑,down,↓,1.2180971000343561,False,22,-1,0,0
Y2-S2-009K22,7,639,PS,exp,45,→,right,→,1.2859867999795824,True,23,-1,0,0
Y2-S2-009K22,7,640,PS,exp,33,↑,right,→,0.3510541000869125,False,23,-1,0,0
Y2-S2-009K22,7,641,PS,exp,26,→,right,→,0.5173158999532461,True,24,-1,0,0
Y2-S2-009K22,7,642,PS,exp,30,↑,right,→,0.8283423001412302,False,24,-1,0,0
Y2-S2-009K22,7,643,PS,exp,26,←,left,←,0.41715279989875853,True,25,-1,0,0
Y2-S2-009K22,7,644,PS,exp,47,↑,up,↑,0.40063800010830164,True,25,-1,0,0
Y2-S2-009K22,7,645,PS,exp,29,→,left,←,0.4842729999218136,False,25,-1,0,0
Y2-S2-009K22,7,646,PS,exp,48,↑,up,↑,0.484124599955976,True,26,-1,0,0
Y2-S2-009K22,7,647,PS,exp,39,→,right,→,0.4508137002121657,True,26,-1,0,0
Y2-S2-009K22,7,648,PS,exp,25,↑,left,←,0.4010026000905782,False,26,-1,0,0
Y2-S2-009K22,7,649,PS,exp,27,←,left,←,0.48434119997546077,True,27,-1,0,0
Y2-S2-009K22,7,650,PS,exp,27,↑,up,↑,0.3677129000425339,True,27,-1,0,0
Y2-S2-009K22,7,651,PS,exp,41,→,right,→,0.41757700010202825,True,27,1,1,1
Y2-S2-009K22,7,652,PS,exp,35,↓,up,↑,0.4173626999836415,False,26,-1,1,2
Y2-S2-009K22,7,653,PS,exp,29,←,left,←,0.5838468000292778,True,27,-1,0,2
Y2-S2-009K22,7,654,PS,exp,28,→,right,→,0.45077789993956685,True,27,-1,0,2
Y2-S2-009K22,7,655,PS,exp,29,←,left,←,0.43418410001322627,True,27,1,1,3
Y2-S2-009K22,7,656,PS,exp,38,↑,up,↑,0.6422599998768419,True,26,1,0,3
Y2-S2-009K22,7,657,PS,exp,29,↓,down,↓,0.5675733999814838,True,26,1,0,3
Y2-S2-009K22,7,658,PS,exp,34,→,right,→,0.5006591998971999,True,26,1,0,3
Y2-S2-009K22,7,659,PS,exp,37,↓,down,↓,0.4343026999849826,True,25,1,0,3
Y2-S2-009K22,7,660,PS,exp,38,→,right,→,0.5964659999590367,True,25,1,0,3
Y2-S2-009K22,7,661,PS,exp,27,↑,up,↑,0.603540200041607,True,25,1,0,3
Y2-S2-009K22,7,662,PS,exp,26,←,left,←,0.5907335001975298,True,24,1,0,3
Y2-S2-009K22,7,663,PS,exp,40,→,right,→,0.586553200148046,True,24,1,0,3
Y2-S2-009K22,7,664,PS,exp,38,↓,down,↓,0.533971400000155,True,24,1,0,3
Y2-S2-009K22,7,665,PS,exp,45,→,right,→,0.46717570000328124,True,23,1,0,3
Y2-S2-009K22,7,666,PS,exp,50,↑,left,←,0.3176460999529809,False,23,-1,1,4
Y2-S2-009K22,7,667,PS,exp,47,→,right,→,1.2186439000070095,True,24,-1,0,4
Y2-S2-009K22,7,668,PS,exp,38,↑,no_key,no_letter,-1.0,False,24,-1,0,4
Y2-S2-009K22,7,669,PS,exp,49,←,no_key,no_letter,-1.0,False,25,-1,0,4
Y2-S2-009K22,7,670,PS,exp,33,↓,right,→,1.3314052000641823,False,26,-1,0,4
Y2-S2-009K22,7,671,PS,exp,47,→,no_key,no_letter,-1.0,False,27,-1,0,4
Y2-S2-009K22,7,672,PS,exp,44,↑,up,↑,1.9022109999787062,True,28,-1,0,4
Y2-S2-009K22,7,673,PS,exp,26,→,right,→,0.5004169000312686,True,28,-1,0,4
Y2-S2-009K22,7,674,PS,exp,34,↑,up,↑,0.46829560003243387,True,28,1,1,5
Y2-S2-009K22,7,675,PS,exp,35,←,left,←,0.9183825999498367,True,27,1,0,5
Y2-S2-009K22,7,676,PS,exp,40,↓,down,↓,0.709769899956882,True,27,1,0,5
Y2-S2-009K22,7,677,PS,exp,29,↑,up,↑,0.8152749999426305,True,27,1,0,5
Y2-S2-009K22,7,678,PS,exp,35,←,left,←,0.5007642998825759,True,26,1,0,5
Y2-S2-009K22,7,679,PS,exp,47,↑,up,↑,0.6389481001533568,True,26,1,0,5
Y2-S2-009K22,7,680,PS,exp,48,↓,down,↓,0.8817241999786347,True,26,1,0,5
Y2-S2-009K22,7,681,PS,exp,27,→,down,↓,1.4547455001156777,False,25,-1,1,6
Y2-S2-009K22,7,682,PS,exp,28,↓,down,↓,0.41721740015782416,True,26,-1,0,6
Y2-S2-009K22,7,683,PS,exp,32,←,left,←,0.4669859998393804,True,26,-1,0,6
Y2-S2-009K22,7,684,PS,exp,26,↓,down,↓,1.227239399915561,True,26,1,1,7
Y2-S2-009K22,7,685,PS,exp,48,←,left,←,0.4674788999836892,True,25,1,0,7
Y2-S2-009K22,7,686,PS,exp,45,→,right,→,0.8157313999254256,True,25,1,0,7
Y2-S2-009K22,7,687,PS,exp,49,↓,down,↓,0.4671707998495549,True,25,1,0,7
Y2-S2-009K22,7,688,PS,exp,32,↑,up,↑,0.824415999930352,True,24,1,0,7
Y2-S2-009K22,7,689,PS,exp,28,↓,down,↓,0.6810296000912786,True,24,1,0,7
Y2-S2-009K22,7,690,PS,exp,43,→,right,→,0.5006685999687761,True,24,1,0,7
Y2-S2-009K22,7,691,PS,exp,43,↑,up,↑,0.8172925999388099,True,23,1,0,7
Y2-S2-009K22,7,692,PS,exp,35,↓,down,↓,0.5009932001121342,True,23,1,0,7
Y2-S2-009K22,7,693,PS,exp,40,↑,up,↑,0.5766867001075298,True,23,1,0,7
Y2-S2-009K22,7,694,PS,exp,48,↓,no_key,no_letter,-1.0,False,22,-1,1,8
Y2-S2-009K22,7,695,PS,exp,46,→,right,→,0.4340329999104142,True,23,-1,0,8
Y2-S2-009K22,7,696,PS,exp,36,←,left,←,0.6245291999075562,True,23,-1,0,8
Y2-S2-009K22,7,697,PS,exp,26,→,left,←,0.7580203998368233,False,23,-1,0,8
Y2-S2-009K22,7,698,PS,exp,44,↓,down,↓,0.5342553998343647,True,24,-1,0,8
Y2-S2-009K22,7,699,PS,exp,32,←,left,←,0.4338542998302728,True,24,-1,0,8
Y2-S2-009K22,7,700,PS,exp,31,↑,up,↑,0.6172036998905241,True,24,1,1,9
Y2-S2-009K22,7,701,PS,exp,30,→,left,←,0.9534235999453813,False,23,-1,1,10
Y2-S2-009K22,7,702,PS,exp,35,←,left,←,0.7041062999051064,True,24,-1,0,10
Y2-S2-009K22,7,703,PS,exp,28,→,left,←,0.7147140998858958,False,24,-1,0,10
Y2-S2-009K22,7,704,PS,exp,33,↓,no_key,no_letter,-1.0,False,25,-1,0,10
Y2-S2-009K22,7,705,PS,exp,42,→,right,→,0.7711799999233335,True,26,-1,0,10
Y2-S2-009K22,7,706,PS,exp,36,↑,up,↑,1.009826999856159,True,26,-1,0,10
Y2-S2-009K22,7,707,PS,exp,42,↓,down,↓,1.0423784998711199,True,26,1,1,11
Y2-S2-009K22,7,708,PS,exp,28,→,right,→,1.9936939000617713,True,25,1,0,11
Y2-S2-009K22,7,709,PS,exp,29,↑,up,↑,1.4262119999621063,True,25,1,0,11
Y2-S2-009K22,7,710,PS,exp,44,←,left,←,0.8586620001588017,True,25,1,0,11
Y2-S2-009K22,7,711,PS,exp,25,↓,down,↓,0.6256118998862803,True,24,1,0,11
Y2-S2-009K22,7,712,PS,exp,49,→,right,→,0.589716199785471,True,24,1,0,11
Y2-S2-009K22,7,713,PS,exp,44,↑,up,↑,1.69069610000588,True,24,1,0,11
Y2-S2-009K22,7,714,PS,exp,29,←,no_key,no_letter,-1.0,False,23,-1,1,12
Y2-S2-009K22,7,715,PS,exp,39,→,right,→,0.483867300208658,True,24,-1,0,12
Y2-S2-009K22,7,716,PS,exp,46,←,no_key,no_letter,-1.0,False,24,-1,0,12
Y2-S2-009K22,7,717,PS,exp,43,→,right,→,0.7692813000176102,True,25,-1,0,12
Y2-S2-009K22,7,718,PS,exp,38,←,left,←,1.0121412000153214,True,25,-1,0,12
Y2-S2-009K22,7,719,PS,exp,35,→,right,→,0.5173921999521554,True,25,1,1,13
Y2-S2-009K22,7,720,PS,exp,47,↑,up,↑,0.5006891000084579,True,24,1,0,13
Y2-S2-009K22,7,721,PS,exp,36,←,left,←,1.534963499987498,True,24,1,0,13
Y2-S2-009K22,7,722,PS,exp,42,↓,down,↓,0.9136262000538409,True,24,1,0,13
Y2-S2-009K22,7,723,PS,exp,41,↑,up,↑,0.5575552999507636,True,23,1,0,13
Y2-S2-009K22,7,724,PS,exp,39,→,right,→,0.5922362999990582,True,23,1,0,13
Y2-S2-009K22,7,725,PS,exp,41,↑,up,↑,0.5008092001080513,True,23,1,0,13
Y2-S2-009K22,7,726,PS,exp,38,↓,down,↓,0.6687932999338955,True,22,1,0,13
Y2-S2-009K22,7,727,PS,exp,48,→,right,→,0.5007511000148952,True,22,1,0,13
Y2-S2-009K22,7,728,PS,exp,28,←,left,←,0.5956639000214636,True,22,1,0,13
Y2-S2-009K22,7,729,PS,exp,30,↑,up,↑,0.5892235001083463,True,21,1,0,13
Y2-S2-009K22,7,730,PS,exp,35,↓,down,↓,1.322423700010404,True,21,1,0,13
Y2-S2-009K22,7,731,PS,exp,36,↑,up,↑,0.5256495999637991,True,21,1,0,13
Y2-S2-009K22,7,732,PS,exp,50,→,right,→,1.0686039000283927,True,20,1,0,13
Y2-S2-009K22,7,733,PS,exp,48,↑,down,↓,0.5382918000686914,False,20,-1,1,14
Y2-S2-009K22,7,734,PS,exp,28,→,up,↑,0.7247053999453783,False,21,-1,0,14
Y2-S2-009K22,7,735,PS,exp,31,←,left,←,0.46760159987024963,True,22,-1,0,14
Y2-S2-009K22,7,736,PS,exp,31,↓,down,↓,0.5452519999817014,True,22,-1,0,14
Y2-S2-009K22,7,737,PS,exp,25,←,left,←,0.7419382000807673,True,22,1,1,15
Y2-S2-009K22,7,738,PS,exp,27,→,right,→,0.7457082998007536,True,21,1,0,15
Y2-S2-009K22,7,739,PS,exp,48,←,left,←,1.1441046998370439,True,21,1,0,15
Y2-S2-009K22,7,740,PS,exp,42,↓,down,↓,0.48436290002427995,True,21,1,0,15
Y2-S2-009K22,7,741,PS,exp,47,→,right,→,0.5243074002210051,True,20,1,0,15
Y2-S2-009K22,7,742,PS,exp,49,↓,down,↓,1.0990031999535859,True,20,1,0,15
Y2-S2-009K22,7,743,PS,exp,34,→,right,→,0.6748748000245541,True,20,1,0,15
Y2-S2-009K22,7,744,PS,exp,45,↑,up,↑,0.8609699001535773,True,19,1,0,15
Y2-S2-009K22,7,745,PS,exp,26,→,right,→,0.384056500159204,True,19,1,0,15
Y2-S2-009K22,7,746,PS,exp,43,↑,left,←,0.2680585999041796,False,19,-1,1,16
Y2-S2-009K22,8,747,AS,intra_train,46,↓,no_key,no_letter,-1.0,False,33,-,-,-
Y2-S2-009K22,8,748,AS,intra_train,37,↑,right,→,0.9201513999141753,False,33,-,-,-
Y2-S2-009K22,8,749,AS,intra_train,38,→,no_key,no_letter,-1.0,False,33,-,-,-
Y2-S2-009K22,8,750,AS,intra_train,26,↑,right,→,1.3697323000524193,False,33,-,-,-
Y2-S2-009K22,8,751,AS,intra_train,36,→,right,→,0.5838508999440819,True,33,-,-,-
Y2-S2-009K22,8,752,AS,exp,26,↑,no_key,no_letter,-1.0,False,22,-1,0,0
Y2-S2-009K22,8,753,AS,exp,31,→,right,→,0.7120401000138372,True,23,-1,0,0
Y2-S2-009K22,8,754,AS,exp,46,←,left,←,1.0564495997969061,True,23,-1,0,0
Y2-S2-009K22,8,755,AS,exp,49,↑,left,←,0.0010937000624835491,False,23,-1,0,0
Y2-S2-009K22,8,756,AS,exp,25,←,up,↑,0.4839306001085788,False,24,-1,0,0
Y2-S2-009K22,8,757,AS,exp,26,↓,up,↑,0.1676397998817265,False,25,-1,0,0
Y2-S2-009K22,8,758,AS,exp,34,→,right,→,0.3179689000826329,True,26,-1,0,0
Y2-S2-009K22,8,759,AS,exp,48,↓,right,→,0.432990999892354,False,26,-1,0,0
Y2-S2-009K22,8,760,AS,exp,34,↑,right,→,0.6737306001596153,False,27,-1,0,0
Y2-S2-009K22,8,761,AS,exp,28,→,down,↓,0.9098473000340164,False,28,-1,0,0
Y2-S2-009K22,8,762,AS,exp,43,←,down,↓,0.3676223000511527,False,29,-1,0,0
Y2-S2-009K22,8,763,AS,exp,45,↑,left,←,0.4344981999602169,False,30,-1,0,0
Y2-S2-009K22,8,764,AS,exp,38,↓,down,↓,1.1130884001031518,True,31,-1,0,0
Y2-S2-009K22,8,765,AS,exp,46,↑,up,↑,0.5009476998820901,True,31,-1,0,0
Y2-S2-009K22,8,766,AS,exp,32,←,no_key,no_letter,-1.0,False,31,-1,0,0
Y2-S2-009K22,8,767,AS,exp,38,↓,down,↓,0.6005532999988645,True,32,-1,0,0
Y2-S2-009K22,8,768,AS,exp,26,→,right,→,0.48431920004077256,True,32,-1,0,0
Y2-S2-009K22,8,769,AS,exp,33,↑,up,↑,0.8260431999806315,True,32,1,1,1
Y2-S2-009K22,8,770,AS,exp,32,←,left,←,0.5505293000023812,True,31,1,0,1
Y2-S2-009K22,8,771,AS,exp,44,↓,down,↓,0.5839925000909716,True,31,1,0,1
Y2-S2-009K22,8,772,AS,exp,36,↑,up,↑,0.4843507001642138,True,31,1,0,1
Y2-S2-009K22,8,773,AS,exp,39,↓,down,↓,0.45100230001844466,True,30,1,0,1
Y2-S2-009K22,8,774,AS,exp,30,→,right,→,1.115550500107929,True,30,1,0,1
Y2-S2-009K22,8,775,AS,exp,32,↑,up,↑,1.1700210999697447,True,30,1,0,1
Y2-S2-009K22,8,776,AS,exp,40,→,right,→,0.4840511998627335,True,29,1,0,1
Y2-S2-009K22,8,777,AS,exp,45,↑,right,→,0.5339686998631805,False,29,-1,1,2
Y2-S2-009K22,8,778,AS,exp,38,↓,no_key,no_letter,-1.0,False,30,-1,0,2
Y2-S2-009K22,8,779,AS,exp,31,→,right,→,0.45106370002031326,True,31,-1,0,2
Y2-S2-009K22,8,780,AS,exp,44,←,left,←,1.4165197999682277,True,31,-1,0,2
Y2-S2-009K22,8,781,AS,exp,31,→,right,→,0.8076410000212491,True,31,1,1,3
Y2-S2-009K22,8,782,AS,exp,25,←,left,←,0.4676840000320226,True,30,1,0,3
Y2-S2-009K22,8,783,AS,exp,39,↑,up,↑,0.7452534001786262,True,30,1,0,3
Y2-S2-009K22,8,784,AS,exp,29,←,left,←,0.4509977998677641,True,30,1,0,3
Y2-S2-009K22,8,785,AS,exp,45,↓,down,↓,0.1013084000442177,True,29,1,0,3
Y2-S2-009K22,8,786,AS,exp,28,←,down,↓,0.5506772000808269,False,29,-1,1,4
Y2-S2-009K22,8,787,AS,exp,46,→,down,↓,0.38453599996864796,False,30,-1,0,4
Y2-S2-009K22,8,788,AS,exp,27,↓,left,←,0.38410780020058155,False,31,-1,0,4
Y2-S2-009K22,8,789,AS,exp,44,→,right,→,1.3601373999845237,True,32,-1,0,4
Y2-S2-009K22,8,790,AS,exp,26,↑,up,↑,0.6008478000294417,True,32,-1,0,4
Y2-S2-009K22,8,791,AS,exp,28,←,left,←,0.6173912000376731,True,32,1,1,5
Y2-S2-009K22,8,792,AS,exp,37,↓,down,↓,1.5382654999848455,True,31,1,0,5
Y2-S2-009K22,8,793,AS,exp,49,→,right,→,0.46784419985488057,True,31,1,0,5
Y2-S2-009K22,8,794,AS,exp,32,←,left,←,0.4843756998889148,True,31,1,0,5
Y2-S2-009K22,8,795,AS,exp,34,↑,up,↑,0.6005691001191735,True,30,1,0,5
Y2-S2-009K22,8,796,AS,exp,43,←,left,←,0.600627199979499,True,30,1,0,5
Y2-S2-009K22,8,797,AS,exp,49,→,right,→,0.600495700025931,True,30,1,0,5
Y2-S2-009K22,8,798,AS,exp,42,←,left,←,0.45109459990635514,True,29,1,0,5
Y2-S2-009K22,8,799,AS,exp,36,→,right,→,0.7401926999446005,True,29,1,0,5
Y2-S2-009K22,8,800,AS,exp,47,↓,down,↓,0.7869663001038134,True,29,1,0,5
Y2-S2-009K22,8,801,AS,exp,49,↑,up,↑,0.5342558000702411,True,28,1,0,5
Y2-S2-009K22,8,802,AS,exp,27,→,right,→,0.7403818999882787,True,28,1,0,5
Y2-S2-009K22,8,803,AS,exp,39,↓,left,←,0.48444700008258224,False,28,-1,1,6
Y2-S2-009K22,8,804,AS,exp,40,←,up,↑,1.5635719001293182,False,29,-1,0,6
Y2-S2-009K22,8,805,AS,exp,42,↑,up,↑,0.5172113999724388,True,30,-1,0,6
Y2-S2-009K22,8,806,AS,exp,34,→,right,→,0.5841339000035077,True,30,-1,0,6
Y2-S2-009K22,8,807,AS,exp,39,←,left,←,0.6005271999165416,True,30,1,1,7
Y2-S2-009K22,8,808,AS,exp,28,↓,down,↓,0.8352650001179427,True,29,1,0,7
Y2-S2-009K22,8,809,AS,exp,37,←,left,←,0.5342222000472248,True,29,1,0,7
Y2-S2-009K22,8,810,AS,exp,50,↓,down,↓,0.48419969994574785,True,29,1,0,7
Y2-S2-009K22,8,811,AS,exp,29,↑,up,↑,1.0441825999878347,True,28,1,0,7
Y2-S2-009K22,8,812,AS,exp,26,→,right,→,0.6009689001366496,True,28,1,0,7
Y2-S2-009K22,8,813,AS,exp,25,←,right,→,1.1956321001052856,False,28,-1,1,8
Y2-S2-009K22,8,814,AS,exp,44,↓,down,↓,1.4278371999971569,True,29,-1,0,8
Y2-S2-009K22,8,815,AS,exp,25,↑,no_key,no_letter,-1.0,False,29,-1,0,8
Y2-S2-009K22,8,816,AS,exp,39,↓,down,↓,0.8502462999895215,True,30,-1,0,8
Y2-S2-009K22,8,817,AS,exp,50,←,left,←,1.056016700109467,True,30,-1,0,8
Y2-S2-009K22,8,818,AS,exp,43,→,down,↓,1.3468143998179585,False,30,-1,0,8
Y2-S2-009K22,8,819,AS,exp,26,↓,down,↓,0.5009787997696549,True,31,-1,0,8
Y2-S2-009K22,8,820,AS,exp,49,←,left,←,1.4289013999514282,True,31,-1,0,8
Y2-S2-009K22,8,821,AS,exp,38,↓,down,↓,2.1209990000352263,True,31,1,1,9
Y2-S2-009K22,8,822,AS,exp,45,→,no_key,no_letter,-1.0,False,30,-1,1,10
Y2-S2-009K22,8,823,AS,exp,39,↑,down,↓,0.6178437999915332,False,31,-1,0,10
Y2-S2-009K22,8,824,AS,exp,45,↓,down,↓,0.9213686001021415,True,32,-1,0,10
Y2-S2-009K22,8,825,AS,exp,45,←,left,←,0.9811204001307487,True,32,-1,0,10
Y2-S2-009K22,8,826,AS,exp,33,→,no_key,no_letter,-1.0,False,32,-1,0,10
Y2-S2-009K22,8,827,AS,exp,40,←,left,←,0.5838792999275029,True,33,-1,0,10
Y2-S2-009K22,8,828,AS,exp,25,→,right,→,0.43473819992505014,True,33,-1,0,10
Y2-S2-009K22,8,829,AS,exp,48,←,left,←,0.3678951000329107,True,33,1,1,11
Y2-S2-009K22,8,830,AS,exp,50,→,right,→,0.6506519000977278,True,32,1,0,11
Y2-S2-009K22,8,831,AS,exp,27,←,left,←,0.708888900000602,True,32,1,0,11
Y2-S2-009K22,8,832,AS,exp,25,↓,down,↓,0.6008637000340968,True,32,1,0,11
Y2-S2-009K22,8,833,AS,exp,32,↑,up,↑,0.4678403998259455,True,31,1,0,11
Y2-S2-009K22,8,834,AS,exp,27,→,left,←,0.5006989000830799,False,31,-1,1,12
Y2-S2-009K22,8,835,AS,exp,30,←,left,←,0.40086759999394417,True,32,-1,0,12
Y2-S2-009K22,8,836,AS,exp,42,→,right,→,0.40124680008739233,True,32,-1,0,12
Y2-S2-009K22,8,837,AS,exp,32,↑,up,↑,0.6506151999346912,True,32,1,1,13
Y2-S2-009K22,8,838,AS,exp,28,↓,down,↓,0.9451297998894006,True,31,1,0,13
Y2-S2-009K22,8,839,AS,exp,48,↑,up,↑,0.6338253999128938,True,31,1,0,13
Y2-S2-009K22,8,840,AS,exp,38,←,left,←,0.4840721997898072,True,31,1,0,13
Y2-S2-009K22,8,841,AS,exp,46,↑,up,↑,0.8818614000920206,True,30,1,0,13
Y2-S2-009K22,8,842,AS,exp,29,←,left,←,0.7053498001769185,True,30,1,0,13
Y2-S2-009K22,8,843,AS,exp,40,→,right,→,1.3129376000724733,True,30,1,0,13
Y2-S2-009K22,8,844,AS,exp,39,↓,down,↓,0.7666771998628974,True,29,1,0,13
Y2-S2-009K22,8,845,AS,exp,34,→,right,→,1.1577578000724316,True,29,1,0,13
Y2-S2-009K22,8,846,AS,exp,28,↑,up,↑,0.7755817000288516,True,29,1,0,13
Y2-S2-009K22,8,847,AS,exp,44,↓,down,↓,0.7091590000782162,True,28,1,0,13
Y2-S2-009K22,8,848,AS,exp,36,↑,down,↓,0.35084369988180697,False,28,-1,1,14
Y2-S2-009K22,8,849,AS,exp,29,←,down,↓,1.095944499829784,False,29,-1,0,14
Y2-S2-009K22,8,850,AS,exp,37,↑,up,↑,1.008620500098914,True,30,-1,0,14
Y2-S2-009K22,8,851,AS,exp,34,←,down,↓,0.8700961999129504,False,30,-1,0,14
Y2-S2-009K22,8,852,AS,exp,42,↓,down,↓,0.9629567998927087,True,31,-1,0,14
Y2-S2-009K22,8,853,AS,exp,33,↑,up,↑,0.5005795999895781,True,31,-1,0,14
Y2-S2-009K22,8,854,AS,exp,45,↓,down,↓,0.6174123999662697,True,31,1,1,15
Y2-S2-009K22,8,855,AS,exp,48,←,left,←,0.8415139000862837,True,30,1,0,15
Y2-S2-009K22,8,856,AS,exp,26,↓,down,↓,1.5489264000207186,True,30,1,0,15
Y2-S2-009K22,8,857,AS,exp,38,←,left,←,0.4010766998399049,True,30,1,0,15
Y2-S2-009K22,8,858,AS,exp,48,↓,down,↓,0.6947977000381798,True,29,1,0,15
Y2-S2-009K22,8,859,AS,exp,49,↑,up,↑,0.43462080019526184,True,29,1,0,15
Y2-S2-009K22,8,860,AS,exp,31,→,right,→,0.655062000034377,True,29,1,0,15
Y2-S2-009K22,8,861,AS,exp,35,↑,up,↑,0.7006904000882059,True,28,1,0,15
Y2-S2-009K22,8,862,AS,exp,25,↓,down,↓,0.8891575001180172,True,28,1,0,15
Y2-S2-009K22,8,863,AS,exp,37,→,right,→,0.7074460999574512,True,28,1,0,15
Y2-S2-009K22,8,864,AS,exp,50,↑,up,↑,1.2126249000430107,True,27,1,0,15
Y2-S2-009K22,8,865,AS,exp,25,←,left,←,0.7352042000275105,True,27,1,0,15
Y2-S2-009K22,8,866,AS,exp,47,↓,down,↓,0.6663977999705821,True,27,1,0,15
Y2-S2-009K22,8,867,AS,exp,34,→,right,→,0.5671021000016481,True,26,1,0,15
Y2-S2-009K22,8,868,AS,exp,44,↓,up,↑,1.364676799857989,False,26,-1,1,16
