PART_ID,Block_no,Trial_no,Block_type,Trial_type,CSI,Stim_letter,Key_pressed,letter_choose,Rt,Corr,Stimulus Time,Level,Reversal,Revs_count
Y2-S2-061K28,1,1,PS,train,31,←,left,←,1.7566447998397052,True,30,-,-,-
Y2-S2-061K28,1,2,PS,train,46,→,right,→,1.2135099000297487,True,30,-,-,-
Y2-S2-061K28,1,3,PS,train,45,↓,down,↓,0.7315425998531282,True,30,-,-,-
Y2-S2-061K28,1,4,PS,train,34,←,left,←,0.82839270029217,True,30,-,-,-
Y2-S2-061K28,1,5,PS,train,35,↑,left,←,1.736446199938655,False,30,-,-,-
Y2-S2-061K28,1,6,PS,train,43,↓,up,↑,2.141723499633372,False,30,-,-,-
Y2-S2-061K28,1,7,PS,train,36,↑,up,↑,0.6335033001378179,True,30,-,-,-
Y2-S2-061K28,1,8,PS,train,32,→,left,←,1.1392497001215816,False,30,-,-,-
Y2-S2-061K28,1,9,PS,train,35,↑,up,↑,1.1048201001249254,True,30,-,-,-
Y2-S2-061K28,1,10,PS,train,33,→,right,→,0.9810101999901235,True,30,-,-,-
Y2-S2-061K28,2,11,AS,train,41,↓,down,↓,0.7341594002209604,True,45,-,-,-
Y2-S2-061K28,2,12,AS,train,47,→,right,→,0.8177426001057029,True,45,-,-,-
Y2-S2-061K28,2,13,AS,train,44,←,left,←,0.5842396002262831,True,45,-,-,-
Y2-S2-061K28,2,14,AS,train,28,↓,down,↓,0.5010613999329507,True,45,-,-,-
Y2-S2-061K28,2,15,AS,train,38,→,right,→,0.7507069003768265,True,45,-,-,-
Y2-S2-061K28,2,16,AS,train,27,←,left,←,0.7178240003995597,True,45,-,-,-
Y2-S2-061K28,2,17,AS,train,34,↑,up,↑,0.5507666999474168,True,45,-,-,-
Y2-S2-061K28,2,18,AS,train,29,←,left,←,0.5177222001366317,True,45,-,-,-
Y2-S2-061K28,2,19,AS,train,49,↑,up,↑,0.7014958998188376,True,45,-,-,-
Y2-S2-061K28,2,20,AS,train,42,←,left,←,0.4342654002830386,True,45,-,-,-
Y2-S2-061K28,-,21,PS,adaptive,32,↓,no_key,no_letter,-1.0,False,10,-1,0,0
Y2-S2-061K28,-,22,PS,adaptive,29,→,right,→,0.4919004999101162,True,11,-1,0,0
Y2-S2-061K28,-,23,PS,adaptive,28,↑,up,↑,0.5425724997185171,True,11,-1,0,0
Y2-S2-061K28,-,24,PS,adaptive,45,→,right,→,0.48398600006476045,True,11,1,1,1
Y2-S2-061K28,-,25,PS,adaptive,44,↑,down,↓,1.059481100179255,False,10,-1,1,2
Y2-S2-061K28,-,26,PS,adaptive,30,→,down,↓,0.9134541996754706,False,11,-1,0,2
Y2-S2-061K28,-,27,PS,adaptive,37,↓,down,↓,0.5110212997533381,True,12,-1,0,2
Y2-S2-061K28,-,28,PS,adaptive,33,↑,up,↑,0.8457857999019325,True,12,-1,0,2
Y2-S2-061K28,-,29,PS,adaptive,44,→,down,↓,0.7551306001842022,False,12,-1,0,2
Y2-S2-061K28,-,30,PS,adaptive,32,↓,down,↓,0.5259961998090148,True,13,-1,0,2
Y2-S2-061K28,-,31,PS,adaptive,28,←,left,←,0.4756486997939646,True,13,-1,0,2
Y2-S2-061K28,-,32,PS,adaptive,26,→,right,→,0.6070240000262856,True,13,1,1,3
Y2-S2-061K28,-,33,PS,adaptive,45,↑,right,→,0.6215762002393603,False,12,-1,1,4
Y2-S2-061K28,-,34,AS,adaptive,28,←,left,←,0.5071855001151562,True,20,0,0,0
Y2-S2-061K28,-,35,AS,adaptive,48,→,right,→,0.5525934002362192,True,20,0,0,0
Y2-S2-061K28,-,36,AS,adaptive,40,←,left,←,0.9713445999659598,True,20,1,0,0
Y2-S2-061K28,-,37,AS,adaptive,39,→,left,←,0.35063689993694425,False,19,-1,1,1
Y2-S2-061K28,-,38,AS,adaptive,50,↓,down,↓,0.567924200091511,True,20,-1,0,1
Y2-S2-061K28,-,39,AS,adaptive,27,↑,up,↑,0.691209299955517,True,20,-1,0,1
Y2-S2-061K28,-,40,AS,adaptive,26,→,right,→,0.6963019003160298,True,20,1,1,2
Y2-S2-061K28,-,41,AS,adaptive,48,←,left,←,0.5635179998353124,True,19,1,0,2
Y2-S2-061K28,-,42,AS,adaptive,34,↓,down,↓,0.5864756996743381,True,19,1,0,2
Y2-S2-061K28,-,43,AS,adaptive,29,→,right,→,0.6278007002547383,True,19,1,0,2
Y2-S2-061K28,-,44,AS,adaptive,48,←,left,←,0.653213799931109,True,18,1,0,2
Y2-S2-061K28,-,45,AS,adaptive,25,↑,up,↑,0.49387279991060495,True,18,1,0,2
Y2-S2-061K28,-,46,AS,adaptive,33,→,right,→,0.4882288002409041,True,18,1,0,2
Y2-S2-061K28,-,47,AS,adaptive,33,↑,up,↑,0.6733941999264061,True,17,1,0,2
Y2-S2-061K28,-,48,AS,adaptive,27,←,down,↓,0.6695218002423644,False,17,-1,1,3
Y2-S2-061K28,-,49,AS,adaptive,33,↓,down,↓,0.5066351001150906,True,18,-1,0,3
Y2-S2-061K28,-,50,AS,adaptive,33,→,right,→,0.5713790999725461,True,18,-1,0,3
Y2-S2-061K28,-,51,AS,adaptive,38,↓,down,↓,0.577978199813515,True,18,1,1,4
Y2-S2-061K28,1,52,AS,intra_train,41,←,left,←,0.6848766002804041,True,25,-,-,-
Y2-S2-061K28,1,53,AS,intra_train,50,↓,down,↓,1.311819199938327,True,25,-,-,-
Y2-S2-061K28,1,54,AS,intra_train,44,←,down,↓,0.6130507001653314,False,25,-,-,-
Y2-S2-061K28,1,55,AS,intra_train,49,→,right,→,1.0113319996744394,True,25,-,-,-
Y2-S2-061K28,1,56,AS,intra_train,33,↑,up,↑,0.8457622001878917,True,25,-,-,-
Y2-S2-061K28,1,57,AS,exp,33,↓,down,↓,0.5939748999662697,True,17,0,0,0
Y2-S2-061K28,1,58,AS,exp,38,←,left,←,0.5780728999525309,True,17,0,0,0
Y2-S2-061K28,1,59,AS,exp,48,→,right,→,0.9768532998859882,True,17,1,0,0
Y2-S2-061K28,1,60,AS,exp,50,←,left,←,0.5211356999352574,True,16,1,0,0
Y2-S2-061K28,1,61,AS,exp,37,↑,down,↓,0.6538122002966702,False,16,-1,1,1
Y2-S2-061K28,1,62,AS,exp,27,↓,down,↓,0.6725873001851141,True,17,-1,0,1
Y2-S2-061K28,1,63,AS,exp,38,↑,down,↓,0.4532579001970589,False,17,-1,0,1
Y2-S2-061K28,1,64,AS,exp,37,←,left,←,0.6791356997564435,True,18,-1,0,1
Y2-S2-061K28,1,65,AS,exp,37,↓,up,↑,0.5211768001317978,False,18,-1,0,1
Y2-S2-061K28,1,66,AS,exp,36,←,left,←,0.6398018002510071,True,19,-1,0,1
Y2-S2-061K28,1,67,AS,exp,40,↑,up,↑,0.6411550999619067,True,19,-1,0,1
Y2-S2-061K28,1,68,AS,exp,29,↓,down,↓,0.7520311996340752,True,19,1,1,2
Y2-S2-061K28,1,69,AS,exp,39,→,right,→,0.9247357002459466,True,18,1,0,2
Y2-S2-061K28,1,70,AS,exp,30,←,left,←,0.5777944000437856,True,18,1,0,2
Y2-S2-061K28,1,71,AS,exp,47,↓,down,↓,0.5740157999098301,True,18,1,0,2
Y2-S2-061K28,1,72,AS,exp,48,→,right,→,0.7482051998376846,True,17,1,0,2
Y2-S2-061K28,1,73,AS,exp,46,↓,down,↓,0.48133450001478195,True,17,1,0,2
Y2-S2-061K28,1,74,AS,exp,32,←,left,←,0.6471652998588979,True,17,1,0,2
Y2-S2-061K28,1,75,AS,exp,28,→,right,→,0.6481999000534415,True,16,1,0,2
Y2-S2-061K28,1,76,AS,exp,32,↑,down,↓,0.6574808997102082,False,16,-1,1,3
Y2-S2-061K28,1,77,AS,exp,43,→,right,→,0.8261444000527263,True,17,-1,0,3
Y2-S2-061K28,1,78,AS,exp,47,↑,up,↑,0.72183070005849,True,17,-1,0,3
Y2-S2-061K28,1,79,AS,exp,34,↓,down,↓,0.588162099942565,True,17,1,1,4
Y2-S2-061K28,1,80,AS,exp,46,→,right,→,0.7495210003107786,True,16,1,0,4
Y2-S2-061K28,1,81,AS,exp,32,←,down,↓,0.6247101998887956,False,16,-1,1,5
Y2-S2-061K28,1,82,AS,exp,41,↑,up,↑,0.7214253996498883,True,17,-1,0,5
Y2-S2-061K28,1,83,AS,exp,29,→,right,→,0.6271374998614192,True,17,-1,0,5
Y2-S2-061K28,1,84,AS,exp,41,↑,up,↑,0.4605756998062134,True,17,1,1,6
Y2-S2-061K28,1,85,AS,exp,36,→,right,→,0.7533059995621443,True,16,1,0,6
Y2-S2-061K28,1,86,AS,exp,44,↓,down,↓,0.6611445001326501,True,16,1,0,6
Y2-S2-061K28,1,87,AS,exp,44,←,left,←,0.7559693995863199,True,16,1,0,6
Y2-S2-061K28,1,88,AS,exp,36,→,right,→,0.7551732999272645,True,15,1,0,6
Y2-S2-061K28,1,89,AS,exp,41,↑,up,↑,1.26497309980914,True,15,1,0,6
Y2-S2-061K28,1,90,AS,exp,30,↓,down,↓,0.6907673999667168,True,15,1,0,6
Y2-S2-061K28,1,91,AS,exp,41,←,left,←,0.7198757003061473,True,14,1,0,6
Y2-S2-061K28,1,92,AS,exp,43,→,down,↓,0.9524701000191271,False,14,-1,1,7
Y2-S2-061K28,1,93,AS,exp,37,↓,no_key,no_letter,-1.0,False,15,-1,0,7
Y2-S2-061K28,1,94,AS,exp,48,→,left,←,0.9353713998571038,False,16,-1,0,7
Y2-S2-061K28,1,95,AS,exp,32,↑,up,↑,1.8992874999530613,True,17,-1,0,7
Y2-S2-061K28,1,96,AS,exp,40,↓,down,↓,0.4595747999846935,True,17,-1,0,7
Y2-S2-061K28,1,97,AS,exp,50,↑,up,↑,0.6409160001203418,True,17,1,1,8
Y2-S2-061K28,1,98,AS,exp,34,↓,down,↓,0.643595099914819,True,16,1,0,8
Y2-S2-061K28,1,99,AS,exp,43,←,left,←,0.6352686998434365,True,16,1,0,8
Y2-S2-061K28,1,100,AS,exp,36,↑,up,↑,0.5742174996994436,True,16,1,0,8
Y2-S2-061K28,1,101,AS,exp,30,→,right,→,0.6769916000775993,True,15,1,0,8
Y2-S2-061K28,1,102,AS,exp,25,←,left,←,0.49504970014095306,True,15,1,0,8
Y2-S2-061K28,1,103,AS,exp,46,↓,down,↓,0.504345300141722,True,15,1,0,8
Y2-S2-061K28,1,104,AS,exp,45,←,down,↓,1.0787546001374722,False,14,-1,1,9
Y2-S2-061K28,1,105,AS,exp,35,↓,no_key,no_letter,-1.0,False,15,-1,0,9
Y2-S2-061K28,1,106,AS,exp,36,→,right,→,0.806551500223577,True,16,-1,0,9
Y2-S2-061K28,1,107,AS,exp,47,↑,up,↑,0.5303736999630928,True,16,-1,0,9
Y2-S2-061K28,1,108,AS,exp,45,→,left,←,1.74455549987033,False,16,-1,0,9
Y2-S2-061K28,1,109,AS,exp,46,↑,up,↑,0.5766547000966966,True,17,-1,0,9
Y2-S2-061K28,1,110,AS,exp,47,→,right,→,0.7213925002142787,True,17,-1,0,9
Y2-S2-061K28,1,111,AS,exp,32,↑,no_key,no_letter,-1.0,False,17,-1,0,9
Y2-S2-061K28,1,112,AS,exp,49,→,right,→,0.8094198000617325,True,18,-1,0,9
Y2-S2-061K28,1,113,AS,exp,41,↑,up,↑,0.6468239999376237,True,18,-1,0,9
Y2-S2-061K28,1,114,AS,exp,46,→,right,→,0.6790156001225114,True,18,1,1,10
Y2-S2-061K28,1,115,AS,exp,32,←,left,←,0.7085106000304222,True,17,1,0,10
Y2-S2-061K28,1,116,AS,exp,36,↑,down,↓,1.022916099987924,False,17,-1,1,11
Y2-S2-061K28,1,117,AS,exp,28,↓,down,↓,0.5093701002188027,True,18,-1,0,11
Y2-S2-061K28,1,118,AS,exp,37,←,left,←,0.6413161996752024,True,18,-1,0,11
Y2-S2-061K28,1,119,AS,exp,46,↑,up,↑,0.600980400107801,True,18,1,1,12
Y2-S2-061K28,1,120,AS,exp,43,←,left,←,0.7074372000060976,True,17,1,0,12
Y2-S2-061K28,1,121,AS,exp,39,→,right,→,0.703008399810642,True,17,1,0,12
Y2-S2-061K28,1,122,AS,exp,50,↓,down,↓,0.4939162000082433,True,17,1,0,12
Y2-S2-061K28,1,123,AS,exp,30,→,right,→,0.5951280002482235,True,16,1,0,12
Y2-S2-061K28,1,124,AS,exp,44,←,right,→,0.6918957000598311,False,16,-1,1,13
Y2-S2-061K28,1,125,AS,exp,34,↓,up,↑,0.5434372997842729,False,17,-1,0,13
Y2-S2-061K28,1,126,AS,exp,36,→,no_key,no_letter,-1.0,False,18,-1,0,13
Y2-S2-061K28,1,127,AS,exp,32,↑,up,↑,1.3761966000311077,True,19,-1,0,13
Y2-S2-061K28,1,128,AS,exp,48,↓,down,↓,0.6658427999354899,True,19,-1,0,13
Y2-S2-061K28,1,129,AS,exp,38,→,right,→,0.6911730002611876,True,19,1,1,14
Y2-S2-061K28,1,130,AS,exp,27,↓,down,↓,0.43436199985444546,True,18,1,0,14
Y2-S2-061K28,1,131,AS,exp,50,←,left,←,0.6361933997832239,True,18,1,0,14
Y2-S2-061K28,1,132,AS,exp,32,↓,down,↓,0.6932732998393476,True,18,1,0,14
Y2-S2-061K28,1,133,AS,exp,33,←,left,←,0.707478899974376,True,17,1,0,14
Y2-S2-061K28,1,134,AS,exp,47,→,right,→,0.7254975996911526,True,17,1,0,14
Y2-S2-061K28,1,135,AS,exp,44,↓,down,↓,0.5478716003708541,True,17,1,0,14
Y2-S2-061K28,1,136,AS,exp,31,↑,up,↑,0.6651955996640027,True,16,1,0,14
Y2-S2-061K28,1,137,AS,exp,38,←,left,←,0.48100379994139075,True,16,1,0,14
Y2-S2-061K28,1,138,AS,exp,40,↑,up,↑,0.5900250999256968,True,16,1,0,14
Y2-S2-061K28,1,139,AS,exp,27,←,up,↑,0.7737956997007132,False,15,-1,1,15
Y2-S2-061K28,1,140,AS,exp,30,↑,up,↑,0.5625783000141382,True,16,-1,0,15
Y2-S2-061K28,1,141,AS,exp,29,←,left,←,0.6084401998668909,True,16,-1,0,15
Y2-S2-061K28,1,142,AS,exp,39,↓,down,↓,0.6191221997141838,True,16,1,1,16
Y2-S2-061K28,2,143,PS,intra_train,46,←,down,↓,1.9597360999323428,False,19,-,-,-
Y2-S2-061K28,2,144,PS,intra_train,36,↑,up,↑,1.57174939988181,True,19,-,-,-
Y2-S2-061K28,2,145,PS,intra_train,26,↓,down,↓,1.1479698000475764,True,19,-,-,-
Y2-S2-061K28,2,146,PS,intra_train,49,←,left,←,0.6004091002978384,True,19,-,-,-
Y2-S2-061K28,2,147,PS,intra_train,44,↓,down,↓,0.762168699875474,True,19,-,-,-
Y2-S2-061K28,2,148,PS,exp,41,→,left,←,0.852375699672848,False,13,-1,0,0
Y2-S2-061K28,2,149,PS,exp,38,←,left,←,0.6218208000063896,True,14,-1,0,0
Y2-S2-061K28,2,150,PS,exp,38,↓,down,↓,0.895187099929899,True,14,-1,0,0
Y2-S2-061K28,2,151,PS,exp,36,→,right,→,0.527278000023216,True,14,1,1,1
Y2-S2-061K28,2,152,PS,exp,35,↓,left,←,0.8202491998672485,False,13,-1,1,2
Y2-S2-061K28,2,153,PS,exp,48,↑,up,↑,1.0123695000074804,True,14,-1,0,2
Y2-S2-061K28,2,154,PS,exp,47,←,left,←,0.7225715001113713,True,14,-1,0,2
Y2-S2-061K28,2,155,PS,exp,30,→,left,←,0.46842840034514666,False,14,-1,0,2
Y2-S2-061K28,2,156,PS,exp,49,←,no_key,no_letter,-1.0,False,15,-1,0,2
Y2-S2-061K28,2,157,PS,exp,34,→,left,←,0.9697572002187371,False,16,-1,0,2
Y2-S2-061K28,2,158,PS,exp,39,↑,up,↑,0.6861998001113534,True,17,-1,0,2
Y2-S2-061K28,2,159,PS,exp,26,←,left,←,1.0516332001425326,True,17,-1,0,2
Y2-S2-061K28,2,160,PS,exp,45,→,no_key,no_letter,-1.0,False,17,-1,0,2
Y2-S2-061K28,2,161,PS,exp,39,↑,up,↑,0.648643699940294,True,18,-1,0,2
Y2-S2-061K28,2,162,PS,exp,37,→,left,←,0.8029012000188231,False,18,-1,0,2
Y2-S2-061K28,2,163,PS,exp,37,↑,up,↑,0.6594791999086738,True,19,-1,0,2
Y2-S2-061K28,2,164,PS,exp,39,↓,left,←,0.7338538998737931,False,19,-1,0,2
Y2-S2-061K28,2,165,PS,exp,39,→,right,→,0.4671374000608921,True,20,-1,0,2
Y2-S2-061K28,2,166,PS,exp,44,←,left,←,0.5247581000439823,True,20,-1,0,2
Y2-S2-061K28,2,167,PS,exp,31,→,no_key,no_letter,-1.0,False,20,-1,0,2
Y2-S2-061K28,2,168,PS,exp,50,←,no_key,no_letter,-1.0,False,21,-1,0,2
Y2-S2-061K28,2,169,PS,exp,34,↓,down,↓,1.1000390998087823,True,22,-1,0,2
Y2-S2-061K28,2,170,PS,exp,46,→,right,→,0.45046989992260933,True,22,-1,0,2
Y2-S2-061K28,2,171,PS,exp,40,↓,down,↓,0.5586371999233961,True,22,1,1,3
Y2-S2-061K28,2,172,PS,exp,29,↑,up,↑,0.7604930996894836,True,21,1,0,3
Y2-S2-061K28,2,173,PS,exp,36,←,left,←,0.6046349997632205,True,21,1,0,3
Y2-S2-061K28,2,174,PS,exp,50,↓,down,↓,0.5382102997973561,True,21,1,0,3
Y2-S2-061K28,2,175,PS,exp,37,←,left,←,0.610637899953872,True,20,1,0,3
Y2-S2-061K28,2,176,PS,exp,27,→,right,→,0.5890927999280393,True,20,1,0,3
Y2-S2-061K28,2,177,PS,exp,29,↓,down,↓,0.6416330998763442,True,20,1,0,3
Y2-S2-061K28,2,178,PS,exp,36,→,right,→,0.48706569988280535,True,19,1,0,3
Y2-S2-061K28,2,179,PS,exp,37,↓,down,↓,0.5659001003950834,True,19,1,0,3
Y2-S2-061K28,2,180,PS,exp,47,↑,up,↑,0.5683026998303831,True,19,1,0,3
Y2-S2-061K28,2,181,PS,exp,26,→,right,→,0.5348495002835989,True,18,1,0,3
Y2-S2-061K28,2,182,PS,exp,50,↑,up,↑,0.9205518001690507,True,18,1,0,3
Y2-S2-061K28,2,183,PS,exp,50,←,left,←,0.5299635999836028,True,18,1,0,3
Y2-S2-061K28,2,184,PS,exp,28,→,right,→,0.6094729998148978,True,17,1,0,3
Y2-S2-061K28,2,185,PS,exp,29,↓,down,↓,0.898061300162226,True,17,1,0,3
Y2-S2-061K28,2,186,PS,exp,49,←,left,←,0.46286500012502074,True,17,1,0,3
Y2-S2-061K28,2,187,PS,exp,31,↓,down,↓,0.8466618000529706,True,16,1,0,3
Y2-S2-061K28,2,188,PS,exp,42,←,left,←,0.5905579002574086,True,16,1,0,3
Y2-S2-061K28,2,189,PS,exp,43,↓,down,↓,1.0577750001102686,True,16,1,0,3
Y2-S2-061K28,2,190,PS,exp,28,↑,left,←,0.9643669999204576,False,15,-1,1,4
Y2-S2-061K28,2,191,PS,exp,39,←,left,←,0.5590417999774218,True,16,-1,0,4
Y2-S2-061K28,2,192,PS,exp,34,↑,up,↑,0.7637748997658491,True,16,-1,0,4
Y2-S2-061K28,2,193,PS,exp,25,→,no_key,no_letter,-1.0,False,16,-1,0,4
Y2-S2-061K28,2,194,PS,exp,48,↑,up,↑,0.6753905001096427,True,17,-1,0,4
Y2-S2-061K28,2,195,PS,exp,28,→,right,→,0.4662791998125613,True,17,-1,0,4
Y2-S2-061K28,2,196,PS,exp,45,←,left,←,0.8357886001467705,True,17,1,1,5
Y2-S2-061K28,2,197,PS,exp,43,↑,up,↑,0.6528421002440155,True,16,1,0,5
Y2-S2-061K28,2,198,PS,exp,33,↓,left,←,0.759060800075531,False,16,-1,1,6
Y2-S2-061K28,2,199,PS,exp,39,↑,up,↑,0.6456611999310553,True,17,-1,0,6
Y2-S2-061K28,2,200,PS,exp,37,↓,down,↓,0.6881238999776542,True,17,-1,0,6
Y2-S2-061K28,2,201,PS,exp,31,←,left,←,0.6390690999105573,True,17,1,1,7
Y2-S2-061K28,2,202,PS,exp,36,→,right,→,0.6114295995794237,True,16,1,0,7
Y2-S2-061K28,2,203,PS,exp,44,←,left,←,0.46318170009180903,True,16,1,0,7
Y2-S2-061K28,2,204,PS,exp,47,↓,down,↓,0.7212203000672162,True,16,1,0,7
Y2-S2-061K28,2,205,PS,exp,27,←,no_key,no_letter,-1.0,False,15,-1,1,8
Y2-S2-061K28,2,206,PS,exp,34,↑,up,↑,0.7455939999781549,True,16,-1,0,8
Y2-S2-061K28,2,207,PS,exp,37,←,left,←,0.5016589001752436,True,16,-1,0,8
Y2-S2-061K28,2,208,PS,exp,27,↑,down,↓,1.0701592001132667,False,16,-1,0,8
Y2-S2-061K28,2,209,PS,exp,49,→,right,→,0.567461600061506,True,17,-1,0,8
Y2-S2-061K28,2,210,PS,exp,49,↓,down,↓,0.9513654001057148,True,17,-1,0,8
Y2-S2-061K28,2,211,PS,exp,42,→,right,→,0.6658896999433637,True,17,1,1,9
Y2-S2-061K28,2,212,PS,exp,30,↓,down,↓,0.7643479001708329,True,16,1,0,9
Y2-S2-061K28,2,213,PS,exp,49,←,left,←,0.5284490999765694,True,16,1,0,9
Y2-S2-061K28,2,214,PS,exp,34,↑,up,↑,1.0079423999413848,True,16,1,0,9
Y2-S2-061K28,2,215,PS,exp,50,←,left,←,0.606500499881804,True,15,1,0,9
Y2-S2-061K28,2,216,PS,exp,29,↓,down,↓,0.9585557002574205,True,15,1,0,9
Y2-S2-061K28,2,217,PS,exp,29,→,left,←,0.6711173001676798,False,15,-1,1,10
Y2-S2-061K28,2,218,PS,exp,46,↑,up,↑,0.7505365000106394,True,16,-1,0,10
Y2-S2-061K28,2,219,PS,exp,48,↓,down,↓,0.6380047998391092,True,16,-1,0,10
Y2-S2-061K28,2,220,PS,exp,49,←,left,←,0.5057338001206517,True,16,1,1,11
Y2-S2-061K28,2,221,PS,exp,37,↑,left,←,0.9457803000696003,False,15,-1,1,12
Y2-S2-061K28,2,222,PS,exp,35,↓,down,↓,1.0657592001371086,True,16,-1,0,12
Y2-S2-061K28,2,223,PS,exp,39,↑,no_key,no_letter,-1.0,False,16,-1,0,12
Y2-S2-061K28,2,224,PS,exp,36,←,no_key,no_letter,-1.0,False,17,-1,0,12
Y2-S2-061K28,2,225,PS,exp,26,↑,up,↑,0.5931788999587297,True,18,-1,0,12
Y2-S2-061K28,2,226,PS,exp,49,→,left,←,0.6972686001099646,False,18,-1,0,12
Y2-S2-061K28,2,227,PS,exp,30,←,left,←,0.6050920998677611,True,19,-1,0,12
Y2-S2-061K28,2,228,PS,exp,28,↓,left,←,1.0682735000737011,False,19,-1,0,12
Y2-S2-061K28,2,229,PS,exp,44,←,left,←,0.5327187003567815,True,20,-1,0,12
Y2-S2-061K28,2,230,PS,exp,27,→,left,←,0.7466512997634709,False,20,-1,0,12
Y2-S2-061K28,2,231,PS,exp,44,↑,up,↑,0.46707129990682006,True,21,-1,0,12
Y2-S2-061K28,2,232,PS,exp,43,↓,down,↓,0.6916190003976226,True,21,-1,0,12
Y2-S2-061K28,2,233,PS,exp,50,↑,up,↑,0.8783769998699427,True,21,1,1,13
Y2-S2-061K28,2,234,PS,exp,41,→,left,←,0.7298107002861798,False,20,-1,1,14
Y2-S2-061K28,2,235,PS,exp,39,←,left,←,0.433776100166142,True,21,-1,0,14
Y2-S2-061K28,2,236,PS,exp,47,↑,up,↑,0.8523078002035618,True,21,-1,0,14
Y2-S2-061K28,2,237,PS,exp,32,←,left,←,0.6650096997618675,True,21,1,1,15
Y2-S2-061K28,2,238,PS,exp,37,↑,left,←,0.6910814000293612,False,20,-1,1,16
Y2-S2-061K28,3,239,PS,intra_train,25,←,left,←,0.7316620997153223,True,19,-,-,-
Y2-S2-061K28,3,240,PS,intra_train,49,→,right,→,0.5563447000458837,True,19,-,-,-
Y2-S2-061K28,3,241,PS,intra_train,34,↑,right,→,1.1722758999094367,False,19,-,-,-
Y2-S2-061K28,3,242,PS,intra_train,39,→,right,→,0.5050262999720871,True,19,-,-,-
Y2-S2-061K28,3,243,PS,intra_train,29,↑,up,↑,1.1662759999744594,True,19,-,-,-
Y2-S2-061K28,3,244,PS,exp,40,←,left,←,0.6958862999454141,True,13,0,0,0
Y2-S2-061K28,3,245,PS,exp,36,↓,down,↓,1.483340899925679,True,13,0,0,0
Y2-S2-061K28,3,246,PS,exp,49,→,right,→,0.8632085998542607,True,13,1,0,0
Y2-S2-061K28,3,247,PS,exp,30,←,left,←,0.7325809998437762,True,12,1,0,0
Y2-S2-061K28,3,248,PS,exp,34,↑,right,→,1.069704500027001,False,12,-1,1,1
Y2-S2-061K28,3,249,PS,exp,36,←,left,←,0.6064960998483002,True,13,-1,0,1
Y2-S2-061K28,3,250,PS,exp,44,↓,left,←,0.7159989001229405,False,13,-1,0,1
Y2-S2-061K28,3,251,PS,exp,47,↑,right,→,1.2461635996587574,False,14,-1,0,1
Y2-S2-061K28,3,252,PS,exp,49,←,left,←,0.44350349996238947,True,15,-1,0,1
Y2-S2-061K28,3,253,PS,exp,45,↑,up,↑,0.6419001002795994,True,15,-1,0,1
Y2-S2-061K28,3,254,PS,exp,28,→,right,→,0.7610134999267757,True,15,1,1,2
Y2-S2-061K28,3,255,PS,exp,47,↑,up,↑,0.46856969967484474,True,14,1,0,2
Y2-S2-061K28,3,256,PS,exp,38,→,right,→,0.5892673996277153,True,14,1,0,2
Y2-S2-061K28,3,257,PS,exp,29,↓,down,↓,0.5923677003011107,True,14,1,0,2
Y2-S2-061K28,3,258,PS,exp,48,↑,up,↑,0.5184775996021926,True,13,1,0,2
Y2-S2-061K28,3,259,PS,exp,50,↓,down,↓,0.6199714997783303,True,13,1,0,2
Y2-S2-061K28,3,260,PS,exp,26,→,left,←,0.6802459000609815,False,13,-1,1,3
Y2-S2-061K28,3,261,PS,exp,30,↑,up,↑,0.5040485002100468,True,14,-1,0,3
Y2-S2-061K28,3,262,PS,exp,34,→,right,→,0.66284320037812,True,14,-1,0,3
Y2-S2-061K28,3,263,PS,exp,27,↑,up,↑,0.684270600322634,True,14,1,1,4
Y2-S2-061K28,3,264,PS,exp,34,↓,down,↓,0.6125765000469983,True,13,1,0,4
Y2-S2-061K28,3,265,PS,exp,49,→,right,→,0.9233891000039876,True,13,1,0,4
Y2-S2-061K28,3,266,PS,exp,42,←,left,←,0.5143148000352085,True,13,1,0,4
Y2-S2-061K28,3,267,PS,exp,36,→,down,↓,0.7734419000335038,False,12,-1,1,5
Y2-S2-061K28,3,268,PS,exp,45,↑,up,↑,0.5401957998983562,True,13,-1,0,5
Y2-S2-061K28,3,269,PS,exp,49,↓,down,↓,0.44345830008387566,True,13,-1,0,5
Y2-S2-061K28,3,270,PS,exp,34,→,right,→,0.6110837999731302,True,13,1,1,6
Y2-S2-061K28,3,271,PS,exp,29,←,down,↓,0.6678768000565469,False,12,-1,1,7
Y2-S2-061K28,3,272,PS,exp,28,→,left,←,0.7358026001602411,False,13,-1,0,7
Y2-S2-061K28,3,273,PS,exp,31,↓,left,←,0.6406920999288559,False,14,-1,0,7
Y2-S2-061K28,3,274,PS,exp,46,←,right,→,0.7260461002588272,False,15,-1,0,7
Y2-S2-061K28,3,275,PS,exp,45,↑,up,↑,0.569679900072515,True,16,-1,0,7
Y2-S2-061K28,3,276,PS,exp,39,←,left,←,0.6422234000638127,True,16,-1,0,7
Y2-S2-061K28,3,277,PS,exp,26,→,left,←,0.7500322996638715,False,16,-1,0,7
Y2-S2-061K28,3,278,PS,exp,43,↑,left,←,0.9229826000519097,False,17,-1,0,7
Y2-S2-061K28,3,279,PS,exp,47,←,left,←,0.49179970007389784,True,18,-1,0,7
Y2-S2-061K28,3,280,PS,exp,36,↑,up,↑,0.6237580999732018,True,18,-1,0,7
Y2-S2-061K28,3,281,PS,exp,46,←,left,←,0.6706139999441803,True,18,1,1,8
Y2-S2-061K28,3,282,PS,exp,47,→,right,→,0.6647203997708857,True,17,1,0,8
Y2-S2-061K28,3,283,PS,exp,43,↑,up,↑,0.6603331998921931,True,17,1,0,8
Y2-S2-061K28,3,284,PS,exp,48,↓,down,↓,0.5179777001030743,True,17,1,0,8
Y2-S2-061K28,3,285,PS,exp,26,↑,left,←,0.7206421997398138,False,16,-1,1,9
Y2-S2-061K28,3,286,PS,exp,45,←,no_key,no_letter,-1.0,False,17,-1,0,9
Y2-S2-061K28,3,287,PS,exp,45,↑,up,↑,0.6955654001794755,True,18,-1,0,9
Y2-S2-061K28,3,288,PS,exp,25,→,left,←,0.4887018003500998,False,18,-1,0,9
Y2-S2-061K28,3,289,PS,exp,50,↓,left,←,0.4504683003760874,False,19,-1,0,9
Y2-S2-061K28,3,290,PS,exp,40,↑,up,↑,0.5374457999132574,True,20,-1,0,9
Y2-S2-061K28,3,291,PS,exp,48,↓,down,↓,0.7840073001571,True,20,-1,0,9
Y2-S2-061K28,3,292,PS,exp,46,→,right,→,0.6981533002108335,True,20,1,1,10
Y2-S2-061K28,3,293,PS,exp,25,↓,left,←,0.8750308998860419,False,19,-1,1,11
Y2-S2-061K28,3,294,PS,exp,32,←,left,←,0.5048588998615742,True,20,-1,0,11
Y2-S2-061K28,3,295,PS,exp,28,↑,up,↑,0.5793876997195184,True,20,-1,0,11
Y2-S2-061K28,3,296,PS,exp,25,←,left,←,0.4679213003255427,True,20,1,1,12
Y2-S2-061K28,3,297,PS,exp,44,↓,down,↓,0.5725549999624491,True,19,1,0,12
Y2-S2-061K28,3,298,PS,exp,30,←,left,←,0.820098599884659,True,19,1,0,12
Y2-S2-061K28,3,299,PS,exp,44,↓,down,↓,0.6319431997835636,True,19,1,0,12
Y2-S2-061K28,3,300,PS,exp,34,←,left,←,0.5320374998264015,True,18,1,0,12
Y2-S2-061K28,3,301,PS,exp,41,→,right,→,0.6855848003178835,True,18,1,0,12
Y2-S2-061K28,3,302,PS,exp,39,←,left,←,0.5641962001100183,True,18,1,0,12
Y2-S2-061K28,3,303,PS,exp,44,↑,up,↑,0.5515875997953117,True,17,1,0,12
Y2-S2-061K28,3,304,PS,exp,30,→,left,←,0.45418719993904233,False,17,-1,1,13
Y2-S2-061K28,3,305,PS,exp,36,←,left,←,0.4007357996888459,True,18,-1,0,13
Y2-S2-061K28,3,306,PS,exp,36,↓,down,↓,0.6173147996887565,True,18,-1,0,13
Y2-S2-061K28,3,307,PS,exp,37,←,left,←,0.3839769000187516,True,18,1,1,14
Y2-S2-061K28,3,308,PS,exp,42,↑,up,↑,0.626734800171107,True,17,1,0,14
Y2-S2-061K28,3,309,PS,exp,25,←,left,←,1.0989605002105236,True,17,1,0,14
Y2-S2-061K28,3,310,PS,exp,33,↓,down,↓,0.7174143996089697,True,17,1,0,14
Y2-S2-061K28,3,311,PS,exp,26,↑,up,↑,1.0947213000617921,True,16,1,0,14
Y2-S2-061K28,3,312,PS,exp,45,↓,down,↓,0.6472390000708401,True,16,1,0,14
Y2-S2-061K28,3,313,PS,exp,43,←,up,↑,1.3000365998595953,False,16,-1,1,15
Y2-S2-061K28,3,314,PS,exp,31,↑,up,↑,0.5289264000020921,True,17,-1,0,15
Y2-S2-061K28,3,315,PS,exp,27,←,left,←,0.8799552000127733,True,17,-1,0,15
Y2-S2-061K28,3,316,PS,exp,25,→,left,←,0.8157878997735679,False,17,-1,0,15
Y2-S2-061K28,3,317,PS,exp,37,↓,down,↓,0.7651550001464784,True,18,-1,0,15
Y2-S2-061K28,3,318,PS,exp,35,↑,up,↑,0.7951966999098659,True,18,-1,0,15
Y2-S2-061K28,3,319,PS,exp,50,↓,down,↓,0.7377174999564886,True,18,1,1,16
Y2-S2-061K28,4,320,AS,intra_train,49,↑,up,↑,1.5751348999328911,True,25,-,-,-
Y2-S2-061K28,4,321,AS,intra_train,28,↓,down,↓,0.7283851997926831,True,25,-,-,-
Y2-S2-061K28,4,322,AS,intra_train,32,←,left,←,0.8682451001368463,True,25,-,-,-
Y2-S2-061K28,4,323,AS,intra_train,36,→,right,→,0.816342799924314,True,25,-,-,-
Y2-S2-061K28,4,324,AS,intra_train,31,↓,down,↓,0.5988144003786147,True,25,-,-,-
Y2-S2-061K28,4,325,AS,exp,42,↑,up,↑,1.587662999983877,True,17,0,0,0
Y2-S2-061K28,4,326,AS,exp,33,→,right,→,0.6391358003020287,True,17,0,0,0
Y2-S2-061K28,4,327,AS,exp,48,←,left,←,0.9549585999920964,True,17,1,0,0
Y2-S2-061K28,4,328,AS,exp,39,↑,up,↑,0.6468088999390602,True,16,1,0,0
Y2-S2-061K28,4,329,AS,exp,27,→,right,→,0.5528803998604417,True,16,1,0,0
Y2-S2-061K28,4,330,AS,exp,25,↓,down,↓,0.5781425000168383,True,16,1,0,0
Y2-S2-061K28,4,331,AS,exp,39,←,down,↓,1.195738600101322,False,15,-1,1,1
Y2-S2-061K28,4,332,AS,exp,35,↑,up,↑,0.581750700250268,True,16,-1,0,1
Y2-S2-061K28,4,333,AS,exp,38,→,right,→,0.6617768998257816,True,16,-1,0,1
Y2-S2-061K28,4,334,AS,exp,44,←,left,←,0.6183286001905799,True,16,1,1,2
Y2-S2-061K28,4,335,AS,exp,25,↓,down,↓,0.6672368999570608,True,15,1,0,2
Y2-S2-061K28,4,336,AS,exp,34,→,right,→,0.5661451001651585,True,15,1,0,2
Y2-S2-061K28,4,337,AS,exp,27,↑,up,↑,0.8064564997330308,True,15,1,0,2
Y2-S2-061K28,4,338,AS,exp,30,→,right,→,0.652222600299865,True,14,1,0,2
Y2-S2-061K28,4,339,AS,exp,27,↑,up,↑,0.6544027999043465,True,14,1,0,2
Y2-S2-061K28,4,340,AS,exp,37,←,no_key,no_letter,-1.0,False,14,-1,1,3
Y2-S2-061K28,4,341,AS,exp,30,↓,down,↓,0.5686196996830404,True,15,-1,0,3
Y2-S2-061K28,4,342,AS,exp,32,→,right,→,0.6680108001455665,True,15,-1,0,3
Y2-S2-061K28,4,343,AS,exp,43,↓,down,↓,0.49443170009180903,True,15,1,1,4
Y2-S2-061K28,4,344,AS,exp,48,←,down,↓,0.6832611998543143,False,14,-1,1,5
Y2-S2-061K28,4,345,AS,exp,42,→,right,→,0.6681367997080088,True,15,-1,0,5
Y2-S2-061K28,4,346,AS,exp,28,↓,down,↓,0.50262980023399,True,15,-1,0,5
Y2-S2-061K28,4,347,AS,exp,47,↑,up,↑,0.7338963001966476,True,15,1,1,6
Y2-S2-061K28,4,348,AS,exp,48,←,left,←,1.1288920999504626,True,14,1,0,6
Y2-S2-061K28,4,349,AS,exp,26,↑,up,↑,0.6291315001435578,True,14,1,0,6
Y2-S2-061K28,4,350,AS,exp,31,→,right,→,0.6705805999226868,True,14,1,0,6
Y2-S2-061K28,4,351,AS,exp,50,←,left,←,0.9132232996635139,True,13,1,0,6
Y2-S2-061K28,4,352,AS,exp,41,↓,down,↓,0.8083304003812373,True,13,1,0,6
Y2-S2-061K28,4,353,AS,exp,30,↑,down,↓,0.7110834000632167,False,13,-1,1,7
Y2-S2-061K28,4,354,AS,exp,36,←,left,←,0.8020501998253167,True,14,-1,0,7
Y2-S2-061K28,4,355,AS,exp,29,↓,down,↓,0.9385910001583397,True,14,-1,0,7
Y2-S2-061K28,4,356,AS,exp,37,↑,up,↑,0.41583169996738434,True,14,1,1,8
Y2-S2-061K28,4,357,AS,exp,44,←,left,←,0.664000699762255,True,13,1,0,8
Y2-S2-061K28,4,358,AS,exp,36,↑,up,↑,0.6221226998604834,True,13,1,0,8
Y2-S2-061K28,4,359,AS,exp,37,↓,up,↑,0.77849439997226,False,13,-1,1,9
Y2-S2-061K28,4,360,AS,exp,29,→,up,↑,0.7975951000116765,False,14,-1,0,9
Y2-S2-061K28,4,361,AS,exp,50,←,no_key,no_letter,-1.0,False,15,-1,0,9
Y2-S2-061K28,4,362,AS,exp,30,↑,up,↑,1.0490370001643896,True,16,-1,0,9
Y2-S2-061K28,4,363,AS,exp,39,↓,down,↓,0.7059352002106607,True,16,-1,0,9
Y2-S2-061K28,4,364,AS,exp,27,↑,up,↑,0.6151986001059413,True,16,1,1,10
Y2-S2-061K28,4,365,AS,exp,30,←,left,←,0.7495396002195776,True,15,1,0,10
Y2-S2-061K28,4,366,AS,exp,31,↑,up,↑,0.907563999760896,True,15,1,0,10
Y2-S2-061K28,4,367,AS,exp,46,↓,down,↓,0.7423693998716772,True,15,1,0,10
Y2-S2-061K28,4,368,AS,exp,39,←,left,←,0.7826449000276625,True,14,1,0,10
Y2-S2-061K28,4,369,AS,exp,42,↓,down,↓,0.8995204996317625,True,14,1,0,10
Y2-S2-061K28,4,370,AS,exp,36,→,right,→,0.7786702001467347,True,14,1,0,10
Y2-S2-061K28,4,371,AS,exp,35,↓,down,↓,0.5660811997950077,True,13,1,0,10
Y2-S2-061K28,4,372,AS,exp,38,→,right,→,0.6000566999427974,True,13,1,0,10
Y2-S2-061K28,4,373,AS,exp,50,↓,down,↓,0.5962504004128277,True,13,1,0,10
Y2-S2-061K28,4,374,AS,exp,48,↑,up,↑,0.8448279001750052,True,12,1,0,10
Y2-S2-061K28,4,375,AS,exp,30,←,left,←,0.6700969999656081,True,12,1,0,10
Y2-S2-061K28,4,376,AS,exp,44,→,right,→,0.5807539001107216,True,12,1,0,10
Y2-S2-061K28,4,377,AS,exp,27,←,right,→,0.6205592001788318,False,11,-1,1,11
Y2-S2-061K28,4,378,AS,exp,43,↑,up,↑,0.6042945999652147,True,12,-1,0,11
Y2-S2-061K28,4,379,AS,exp,41,←,up,↑,0.6113674002699554,False,12,-1,0,11
Y2-S2-061K28,4,380,AS,exp,49,→,right,→,0.8675888003781438,True,13,-1,0,11
Y2-S2-061K28,4,381,AS,exp,37,↓,down,↓,1.517282399814576,True,13,-1,0,11
Y2-S2-061K28,4,382,AS,exp,47,←,left,←,0.731005999725312,True,13,1,1,12
Y2-S2-061K28,4,383,AS,exp,47,→,right,→,0.6346027995459735,True,12,1,0,12
Y2-S2-061K28,4,384,AS,exp,47,←,right,→,0.7510436000302434,False,12,-1,1,13
Y2-S2-061K28,4,385,AS,exp,44,↓,right,→,0.9475517002865672,False,13,-1,0,13
Y2-S2-061K28,4,386,AS,exp,25,→,down,↓,0.6749030998907983,False,14,-1,0,13
Y2-S2-061K28,4,387,AS,exp,27,←,left,←,0.7010437999852002,True,15,-1,0,13
Y2-S2-061K28,4,388,AS,exp,33,↑,up,↑,0.5448579997755587,True,15,-1,0,13
Y2-S2-061K28,4,389,AS,exp,42,←,left,←,0.6108957002870739,True,15,1,1,14
Y2-S2-061K28,4,390,AS,exp,32,→,right,→,0.6436862000264227,True,14,1,0,14
Y2-S2-061K28,4,391,AS,exp,42,↑,up,↑,0.8419404001906514,True,14,1,0,14
Y2-S2-061K28,4,392,AS,exp,32,←,up,↑,0.5787697997875512,False,14,-1,1,15
Y2-S2-061K28,4,393,AS,exp,44,↓,down,↓,0.6407226999290287,True,15,-1,0,15
Y2-S2-061K28,4,394,AS,exp,46,←,left,←,0.5927245998755097,True,15,-1,0,15
Y2-S2-061K28,4,395,AS,exp,34,↓,down,↓,0.9050468001514673,True,15,1,1,16
Y2-S2-061K28,5,396,AS,intra_train,37,→,right,→,1.5465865996666253,True,25,-,-,-
Y2-S2-061K28,5,397,AS,intra_train,35,←,left,←,0.3844163999892771,True,25,-,-,-
Y2-S2-061K28,5,398,AS,intra_train,29,↑,right,→,0.5172541001811624,False,25,-,-,-
Y2-S2-061K28,5,399,AS,intra_train,34,→,right,→,0.6835731002502143,True,25,-,-,-
Y2-S2-061K28,5,400,AS,intra_train,50,↑,up,↑,1.459904100280255,True,25,-,-,-
Y2-S2-061K28,5,401,AS,exp,45,←,left,←,1.1371610998176038,True,17,0,0,0
Y2-S2-061K28,5,402,AS,exp,43,↓,down,↓,0.9119740002788603,True,17,0,0,0
Y2-S2-061K28,5,403,AS,exp,33,←,left,←,0.756311499979347,True,17,1,0,0
Y2-S2-061K28,5,404,AS,exp,35,→,right,→,0.654989399947226,True,16,1,0,0
Y2-S2-061K28,5,405,AS,exp,47,↑,up,↑,0.5278540998697281,True,16,1,0,0
Y2-S2-061K28,5,406,AS,exp,37,→,right,→,0.9358244999311864,True,16,1,0,0
Y2-S2-061K28,5,407,AS,exp,38,↑,up,↑,1.3980026999488473,True,15,1,0,0
Y2-S2-061K28,5,408,AS,exp,39,←,left,←,0.7453308999538422,True,15,1,0,0
Y2-S2-061K28,5,409,AS,exp,44,↓,down,↓,0.6398469000123441,True,15,1,0,0
Y2-S2-061K28,5,410,AS,exp,30,←,right,→,0.772378500085324,False,14,-1,1,1
Y2-S2-061K28,5,411,AS,exp,43,↓,down,↓,0.7317927000112832,True,15,-1,0,1
Y2-S2-061K28,5,412,AS,exp,47,→,down,↓,1.0420977999456227,False,15,-1,0,1
Y2-S2-061K28,5,413,AS,exp,44,←,left,←,0.6733768000267446,True,16,-1,0,1
Y2-S2-061K28,5,414,AS,exp,43,↓,down,↓,0.7232135999947786,True,16,-1,0,1
Y2-S2-061K28,5,415,AS,exp,50,↑,up,↑,0.6947298999875784,True,16,1,1,2
Y2-S2-061K28,5,416,AS,exp,37,↓,down,↓,0.6715351999737322,True,15,1,0,2
Y2-S2-061K28,5,417,AS,exp,37,↑,up,↑,0.4974696999415755,True,15,1,0,2
Y2-S2-061K28,5,418,AS,exp,26,→,right,→,0.5601304001174867,True,15,1,0,2
Y2-S2-061K28,5,419,AS,exp,35,↑,up,↑,0.6698242002166808,True,14,1,0,2
Y2-S2-061K28,5,420,AS,exp,46,→,up,↑,0.7142713000066578,False,14,-1,1,3
Y2-S2-061K28,5,421,AS,exp,40,↓,down,↓,0.7457156996242702,True,15,-1,0,3
Y2-S2-061K28,5,422,AS,exp,35,←,left,←,0.5381753998808563,True,15,-1,0,3
Y2-S2-061K28,5,423,AS,exp,46,↓,down,↓,0.7403156002983451,True,15,1,1,4
Y2-S2-061K28,5,424,AS,exp,36,→,right,→,1.6980310999788344,True,14,1,0,4
Y2-S2-061K28,5,425,AS,exp,30,↓,down,↓,0.5355420997366309,True,14,1,0,4
Y2-S2-061K28,5,426,AS,exp,42,↑,down,↓,0.648974800016731,False,14,-1,1,5
Y2-S2-061K28,5,427,AS,exp,40,→,right,→,0.7870744001120329,True,15,-1,0,5
Y2-S2-061K28,5,428,AS,exp,43,↓,down,↓,0.5016153999604285,True,15,-1,0,5
Y2-S2-061K28,5,429,AS,exp,41,↑,up,↑,0.7518051997758448,True,15,1,1,6
Y2-S2-061K28,5,430,AS,exp,31,→,right,→,0.7116224998608232,True,14,1,0,6
Y2-S2-061K28,5,431,AS,exp,33,↑,up,↑,0.4280413999222219,True,14,1,0,6
Y2-S2-061K28,5,432,AS,exp,47,↓,down,↓,0.5957054002210498,True,14,1,0,6
Y2-S2-061K28,5,433,AS,exp,37,→,right,→,1.161559899803251,True,13,1,0,6
Y2-S2-061K28,5,434,AS,exp,27,↓,down,↓,0.48328120028600097,True,13,1,0,6
Y2-S2-061K28,5,435,AS,exp,44,↑,up,↑,0.4184443997219205,True,13,1,0,6
Y2-S2-061K28,5,436,AS,exp,25,→,right,→,0.5651647998020053,True,12,1,0,6
Y2-S2-061K28,5,437,AS,exp,33,↓,down,↓,0.512485499959439,True,12,1,0,6
Y2-S2-061K28,5,438,AS,exp,28,←,left,←,0.6834233999252319,True,12,1,0,6
Y2-S2-061K28,5,439,AS,exp,25,↑,up,↑,0.43406839994713664,True,11,1,0,6
Y2-S2-061K28,5,440,AS,exp,43,↓,down,↓,0.44992570020258427,True,11,1,0,6
Y2-S2-061K28,5,441,AS,exp,47,→,left,←,0.7809526002965868,False,11,-1,1,7
Y2-S2-061K28,5,442,AS,exp,35,←,right,→,0.6550693004392087,False,12,-1,0,7
Y2-S2-061K28,5,443,AS,exp,32,↓,down,↓,0.5245499997399747,True,13,-1,0,7
Y2-S2-061K28,5,444,AS,exp,31,↑,up,↑,0.570478499867022,True,13,-1,0,7
Y2-S2-061K28,5,445,AS,exp,41,→,right,→,0.6149980002082884,True,13,1,1,8
Y2-S2-061K28,5,446,AS,exp,39,↓,down,↓,0.7256834995932877,True,12,1,0,8
Y2-S2-061K28,5,447,AS,exp,40,↑,up,↑,0.4319633999839425,True,12,1,0,8
Y2-S2-061K28,5,448,AS,exp,45,↓,down,↓,0.5763181000947952,True,12,1,0,8
Y2-S2-061K28,5,449,AS,exp,43,←,left,←,0.7369869998656213,True,11,1,0,8
Y2-S2-061K28,5,450,AS,exp,41,↑,up,↑,0.7897344999946654,True,11,1,0,8
Y2-S2-061K28,5,451,AS,exp,26,←,down,↓,0.8089687000028789,False,11,-1,1,9
Y2-S2-061K28,5,452,AS,exp,34,↓,up,↑,1.121488300152123,False,12,-1,0,9
Y2-S2-061K28,5,453,AS,exp,28,←,left,←,0.6014254000037909,True,13,-1,0,9
Y2-S2-061K28,5,454,AS,exp,32,→,right,→,0.8210032996721566,True,13,-1,0,9
Y2-S2-061K28,5,455,AS,exp,49,←,left,←,0.5352934999391437,True,13,1,1,10
Y2-S2-061K28,5,456,AS,exp,36,→,right,→,0.6401634998619556,True,12,1,0,10
Y2-S2-061K28,5,457,AS,exp,49,←,left,←,0.6169635998085141,True,12,1,0,10
Y2-S2-061K28,5,458,AS,exp,49,→,right,→,0.44597639981657267,True,12,1,0,10
Y2-S2-061K28,5,459,AS,exp,30,←,left,←,0.5500771999359131,True,11,1,0,10
Y2-S2-061K28,5,460,AS,exp,39,→,left,←,0.9344915999099612,False,11,-1,1,11
Y2-S2-061K28,5,461,AS,exp,42,←,left,←,0.6126096001826227,True,12,-1,0,11
Y2-S2-061K28,5,462,AS,exp,28,↓,down,↓,0.5147384000010788,True,12,-1,0,11
Y2-S2-061K28,5,463,AS,exp,26,↑,up,↑,0.39743420016020536,True,12,1,1,12
Y2-S2-061K28,5,464,AS,exp,41,←,left,←,0.6304754000157118,True,11,1,0,12
Y2-S2-061K28,5,465,AS,exp,41,↑,down,↓,0.7751263999380171,False,11,-1,1,13
Y2-S2-061K28,5,466,AS,exp,29,↓,down,↓,0.5245532002300024,True,12,-1,0,13
Y2-S2-061K28,5,467,AS,exp,40,→,down,↓,0.6863020001910627,False,12,-1,0,13
Y2-S2-061K28,5,468,AS,exp,47,←,left,←,0.5149437999352813,True,13,-1,0,13
Y2-S2-061K28,5,469,AS,exp,32,↑,up,↑,0.5385722001083195,True,13,-1,0,13
Y2-S2-061K28,5,470,AS,exp,40,←,down,↓,0.7070381999947131,False,13,-1,0,13
Y2-S2-061K28,5,471,AS,exp,42,↑,up,↑,0.36668810015544295,True,14,-1,0,13
Y2-S2-061K28,5,472,AS,exp,36,↓,down,↓,0.5400871001183987,True,14,-1,0,13
Y2-S2-061K28,5,473,AS,exp,49,↑,up,↑,0.7116474001668394,True,14,1,1,14
Y2-S2-061K28,5,474,AS,exp,43,→,down,↓,1.0150852999649942,False,13,-1,1,15
Y2-S2-061K28,5,475,AS,exp,28,↓,up,↑,0.8297906001098454,False,14,-1,0,15
Y2-S2-061K28,5,476,AS,exp,47,→,right,→,0.766588999889791,True,15,-1,0,15
Y2-S2-061K28,5,477,AS,exp,27,←,left,←,0.6222872999496758,True,15,-1,0,15
Y2-S2-061K28,5,478,AS,exp,32,↓,down,↓,0.633068900089711,True,15,1,1,16
Y2-S2-061K28,6,479,PS,intra_train,45,↑,no_key,no_letter,-1.0,False,19,-,-,-
Y2-S2-061K28,6,480,PS,intra_train,43,←,right,→,1.64722969988361,False,19,-,-,-
Y2-S2-061K28,6,481,PS,intra_train,28,↓,down,↓,0.5947293001227081,True,19,-,-,-
Y2-S2-061K28,6,482,PS,intra_train,41,←,left,←,0.8149418998509645,True,19,-,-,-
Y2-S2-061K28,6,483,PS,intra_train,28,→,right,→,0.5505337002687156,True,19,-,-,-
Y2-S2-061K28,6,484,PS,exp,32,↑,up,↑,0.4602351998910308,True,13,0,0,0
Y2-S2-061K28,6,485,PS,exp,44,←,left,←,0.7308056000620127,True,13,0,0,0
Y2-S2-061K28,6,486,PS,exp,44,→,left,←,0.7009339001961052,False,13,-1,0,0
Y2-S2-061K28,6,487,PS,exp,36,↑,up,↑,0.7428462998941541,True,14,-1,0,0
Y2-S2-061K28,6,488,PS,exp,47,←,left,←,0.6992056001909077,True,14,-1,0,0
Y2-S2-061K28,6,489,PS,exp,27,↑,left,←,0.7203788002952933,False,14,-1,0,0
Y2-S2-061K28,6,490,PS,exp,47,↓,down,↓,0.7325905999168754,True,15,-1,0,0
Y2-S2-061K28,6,491,PS,exp,34,↑,up,↑,0.6085624997504056,True,15,-1,0,0
Y2-S2-061K28,6,492,PS,exp,44,→,left,←,0.5641155997291207,False,15,-1,0,0
Y2-S2-061K28,6,493,PS,exp,47,↓,down,↓,0.582821000367403,True,16,-1,0,0
Y2-S2-061K28,6,494,PS,exp,36,←,left,←,0.5548264998942614,True,16,-1,0,0
Y2-S2-061K28,6,495,PS,exp,50,↑,no_key,no_letter,-1.0,False,16,-1,0,0
Y2-S2-061K28,6,496,PS,exp,39,←,left,←,0.6733631999231875,True,17,-1,0,0
Y2-S2-061K28,6,497,PS,exp,48,→,right,→,0.6601693001575768,True,17,-1,0,0
Y2-S2-061K28,6,498,PS,exp,30,←,left,←,0.6903796000406146,True,17,1,1,1
Y2-S2-061K28,6,499,PS,exp,41,↓,down,↓,0.6334069999866188,True,16,1,0,1
Y2-S2-061K28,6,500,PS,exp,43,→,right,→,0.7677390999160707,True,16,1,0,1
Y2-S2-061K28,6,501,PS,exp,49,↑,up,↑,0.7978970999829471,True,16,1,0,1
Y2-S2-061K28,6,502,PS,exp,35,←,left,←,0.7305934000760317,True,15,1,0,1
Y2-S2-061K28,6,503,PS,exp,34,→,right,→,0.5566172003746033,True,15,1,0,1
Y2-S2-061K28,6,504,PS,exp,36,↑,up,↑,0.5849202997051179,True,15,1,0,1
Y2-S2-061K28,6,505,PS,exp,39,→,right,→,0.5131530999206007,True,14,1,0,1
Y2-S2-061K28,6,506,PS,exp,44,↑,up,↑,0.5348538001999259,True,14,1,0,1
Y2-S2-061K28,6,507,PS,exp,47,↓,down,↓,0.7695939997211099,True,14,1,0,1
Y2-S2-061K28,6,508,PS,exp,27,↑,up,↑,0.4404694000259042,True,13,1,0,1
Y2-S2-061K28,6,509,PS,exp,42,→,right,→,0.5299883997067809,True,13,1,0,1
Y2-S2-061K28,6,510,PS,exp,38,←,left,←,0.48221389995887876,True,13,1,0,1
Y2-S2-061K28,6,511,PS,exp,41,↑,up,↑,1.7293635001406074,True,12,1,0,1
Y2-S2-061K28,6,512,PS,exp,48,↓,up,↑,0.7745964997448027,False,12,-1,1,2
Y2-S2-061K28,6,513,PS,exp,50,↑,up,↑,0.7781458999961615,True,13,-1,0,2
Y2-S2-061K28,6,514,PS,exp,43,→,right,→,0.5338414995931089,True,13,-1,0,2
Y2-S2-061K28,6,515,PS,exp,39,↑,up,↑,0.7543656998313963,True,13,1,1,3
Y2-S2-061K28,6,516,PS,exp,25,↓,down,↓,0.5099995001219213,True,12,1,0,3
Y2-S2-061K28,6,517,PS,exp,32,↑,left,←,1.1032248996198177,False,12,-1,1,4
Y2-S2-061K28,6,518,PS,exp,34,↓,down,↓,0.613489099778235,True,13,-1,0,4
Y2-S2-061K28,6,519,PS,exp,41,←,left,←,0.7549014003016055,True,13,-1,0,4
Y2-S2-061K28,6,520,PS,exp,37,↑,left,←,0.8408587002195418,False,13,-1,0,4
Y2-S2-061K28,6,521,PS,exp,47,→,left,←,0.8583888001739979,False,14,-1,0,4
Y2-S2-061K28,6,522,PS,exp,30,←,left,←,0.8130132001824677,True,15,-1,0,4
Y2-S2-061K28,6,523,PS,exp,37,↑,up,↑,0.6287390002980828,True,15,-1,0,4
Y2-S2-061K28,6,524,PS,exp,26,↓,left,←,1.1147377002052963,False,15,-1,0,4
Y2-S2-061K28,6,525,PS,exp,38,←,left,←,0.6931551997549832,True,16,-1,0,4
Y2-S2-061K28,6,526,PS,exp,33,→,right,→,0.5022113998420537,True,16,-1,0,4
Y2-S2-061K28,6,527,PS,exp,45,↓,down,↓,0.6139027001336217,True,16,1,1,5
Y2-S2-061K28,6,528,PS,exp,29,↑,up,↑,0.44219479989260435,True,15,1,0,5
Y2-S2-061K28,6,529,PS,exp,25,←,left,←,0.5509326001629233,True,15,1,0,5
Y2-S2-061K28,6,530,PS,exp,48,→,right,→,0.5096420999616385,True,15,1,0,5
Y2-S2-061K28,6,531,PS,exp,37,↑,right,→,0.7476091999560595,False,14,-1,1,6
Y2-S2-061K28,6,532,PS,exp,25,←,left,←,0.49927569972351193,True,15,-1,0,6
Y2-S2-061K28,6,533,PS,exp,38,↑,no_key,no_letter,-1.0,False,15,-1,0,6
Y2-S2-061K28,6,534,PS,exp,50,→,right,→,0.5926974001340568,True,16,-1,0,6
Y2-S2-061K28,6,535,PS,exp,35,↑,up,↑,0.4552430999465287,True,16,-1,0,6
Y2-S2-061K28,6,536,PS,exp,28,↓,down,↓,0.7772127003408968,True,16,1,1,7
Y2-S2-061K28,6,537,PS,exp,42,→,right,→,0.5698871999047697,True,15,1,0,7
Y2-S2-061K28,6,538,PS,exp,29,↑,up,↑,0.464117499999702,True,15,1,0,7
Y2-S2-061K28,6,539,PS,exp,42,←,left,←,0.6965316999703646,True,15,1,0,7
Y2-S2-061K28,6,540,PS,exp,35,↑,up,↑,0.4229822000488639,True,14,1,0,7
Y2-S2-061K28,6,541,PS,exp,44,←,left,←,0.5148009001277387,True,14,1,0,7
Y2-S2-061K28,6,542,PS,exp,32,↑,left,←,0.6974723003804684,False,14,-1,1,8
Y2-S2-061K28,6,543,PS,exp,47,↓,down,↓,0.7192947003059089,True,15,-1,0,8
Y2-S2-061K28,6,544,PS,exp,40,←,left,←,0.42527859983965755,True,15,-1,0,8
Y2-S2-061K28,6,545,PS,exp,47,→,right,→,0.8064871998503804,True,15,1,1,9
Y2-S2-061K28,6,546,PS,exp,25,←,left,←,0.412903199903667,True,14,1,0,9
Y2-S2-061K28,6,547,PS,exp,38,↓,left,←,0.6685498999431729,False,14,-1,1,10
Y2-S2-061K28,6,548,PS,exp,25,↑,left,←,0.6739673004485667,False,15,-1,0,10
Y2-S2-061K28,6,549,PS,exp,41,→,right,→,0.4785290998406708,True,16,-1,0,10
Y2-S2-061K28,6,550,PS,exp,30,↓,right,→,1.6830829996615648,False,16,-1,0,10
Y2-S2-061K28,6,551,PS,exp,49,↑,up,↑,1.5687675001099706,True,17,-1,0,10
Y2-S2-061K28,6,552,PS,exp,41,→,up,↑,1.0947479996830225,False,17,-1,0,10
Y2-S2-061K28,6,553,PS,exp,38,↑,right,→,0.75197619991377,False,18,-1,0,10
Y2-S2-061K28,6,554,PS,exp,44,→,right,→,0.5150282001122832,True,19,-1,0,10
Y2-S2-061K28,6,555,PS,exp,30,←,left,←,0.5797288003377616,True,19,-1,0,10
Y2-S2-061K28,6,556,PS,exp,31,→,left,←,0.6094262003898621,False,19,-1,0,10
Y2-S2-061K28,6,557,PS,exp,26,↑,left,←,0.5999532998539507,False,20,-1,0,10
Y2-S2-061K28,6,558,PS,exp,44,←,left,←,0.712464100215584,True,21,-1,0,10
Y2-S2-061K28,6,559,PS,exp,45,→,right,→,0.48402190022170544,True,21,-1,0,10
Y2-S2-061K28,6,560,PS,exp,25,↓,down,↓,0.550772899761796,True,21,1,1,11
Y2-S2-061K28,6,561,PS,exp,25,→,right,→,0.5136230001226068,True,20,1,0,11
Y2-S2-061K28,6,562,PS,exp,42,←,left,←,0.434073300100863,True,20,1,0,11
Y2-S2-061K28,6,563,PS,exp,41,→,left,←,0.6981969000771642,False,20,-1,1,12
Y2-S2-061K28,6,564,PS,exp,47,↑,up,↑,0.694450399838388,True,21,-1,0,12
Y2-S2-061K28,6,565,PS,exp,40,↓,down,↓,0.7704472998157144,True,21,-1,0,12
Y2-S2-061K28,6,566,PS,exp,44,↑,up,↑,0.5211136001162231,True,21,1,1,13
Y2-S2-061K28,6,567,PS,exp,37,←,left,←,0.6599127002991736,True,20,1,0,13
Y2-S2-061K28,6,568,PS,exp,47,↓,down,↓,0.8435254995711148,True,20,1,0,13
Y2-S2-061K28,6,569,PS,exp,28,↑,up,↑,0.4508303999900818,True,20,1,0,13
Y2-S2-061K28,6,570,PS,exp,39,↓,down,↓,0.6484727999195457,True,19,1,0,13
Y2-S2-061K28,6,571,PS,exp,48,→,right,→,0.5571361002512276,True,19,1,0,13
Y2-S2-061K28,6,572,PS,exp,36,↑,no_key,no_letter,-1.0,False,19,-1,1,14
Y2-S2-061K28,6,573,PS,exp,30,←,left,←,0.5943438000977039,True,20,-1,0,14
Y2-S2-061K28,6,574,PS,exp,48,→,right,→,0.7406200999394059,True,20,-1,0,14
Y2-S2-061K28,6,575,PS,exp,42,↑,up,↑,0.4006423996761441,True,20,1,1,15
Y2-S2-061K28,6,576,PS,exp,34,←,left,←,0.8895677998661995,True,19,1,0,15
Y2-S2-061K28,6,577,PS,exp,34,→,right,→,0.7005014000460505,True,19,1,0,15
Y2-S2-061K28,6,578,PS,exp,43,↓,down,↓,0.6851432998664677,True,19,1,0,15
Y2-S2-061K28,6,579,PS,exp,42,→,right,→,0.6666095000691712,True,18,1,0,15
Y2-S2-061K28,6,580,PS,exp,33,↑,up,↑,0.41689740028232336,True,18,1,0,15
Y2-S2-061K28,6,581,PS,exp,41,←,left,←,0.5071196001954377,True,18,1,0,15
Y2-S2-061K28,6,582,PS,exp,45,↑,up,↑,0.830598400440067,True,17,1,0,15
Y2-S2-061K28,6,583,PS,exp,37,↓,down,↓,0.5272447997704148,True,17,1,0,15
Y2-S2-061K28,6,584,PS,exp,28,↑,up,↑,0.8833665000274777,True,17,1,0,15
Y2-S2-061K28,6,585,PS,exp,49,→,right,→,0.5395407001487911,True,16,1,0,15
Y2-S2-061K28,6,586,PS,exp,39,↓,down,↓,0.6138686002232134,True,16,1,0,15
Y2-S2-061K28,6,587,PS,exp,31,←,left,←,0.5661332001909614,True,16,1,0,15
Y2-S2-061K28,6,588,PS,exp,41,↑,up,↑,0.5222308998927474,True,15,1,0,15
Y2-S2-061K28,6,589,PS,exp,27,→,left,←,0.7835690998472273,False,15,-1,1,16
Y2-S2-061K28,7,590,PS,intra_train,33,↑,no_key,no_letter,-1.0,False,19,-,-,-
Y2-S2-061K28,7,591,PS,intra_train,42,→,right,→,0.5585044999606907,True,19,-,-,-
Y2-S2-061K28,7,592,PS,intra_train,31,↓,left,←,0.8711093999445438,False,19,-,-,-
Y2-S2-061K28,7,593,PS,intra_train,42,→,right,→,0.51291189994663,True,19,-,-,-
Y2-S2-061K28,7,594,PS,intra_train,50,←,left,←,0.5051190000958741,True,19,-,-,-
Y2-S2-061K28,7,595,PS,exp,37,↓,down,↓,0.7679902999661863,True,13,0,0,0
Y2-S2-061K28,7,596,PS,exp,33,→,left,←,0.663614499848336,False,13,-1,0,0
Y2-S2-061K28,7,597,PS,exp,37,↑,up,↑,0.8228377001360059,True,14,-1,0,0
Y2-S2-061K28,7,598,PS,exp,30,→,right,→,0.4093172997236252,True,14,-1,0,0
Y2-S2-061K28,7,599,PS,exp,49,↓,up,↑,0.8256433000788093,False,14,-1,0,0
Y2-S2-061K28,7,600,PS,exp,34,↑,up,↑,0.5001535997726023,True,15,-1,0,0
Y2-S2-061K28,7,601,PS,exp,25,↓,down,↓,0.753494800068438,True,15,-1,0,0
Y2-S2-061K28,7,602,PS,exp,25,↑,up,↑,0.6159860999323428,True,15,1,1,1
Y2-S2-061K28,7,603,PS,exp,42,↓,left,←,0.8104301001876593,False,14,-1,1,2
Y2-S2-061K28,7,604,PS,exp,30,←,left,←,0.4749714997597039,True,15,-1,0,2
Y2-S2-061K28,7,605,PS,exp,33,→,left,←,0.6938998997211456,False,15,-1,0,2
Y2-S2-061K28,7,606,PS,exp,26,↓,down,↓,0.8686791998334229,True,16,-1,0,2
Y2-S2-061K28,7,607,PS,exp,43,↑,up,↑,0.9944111001677811,True,16,-1,0,2
Y2-S2-061K28,7,608,PS,exp,43,→,right,→,0.8465654999017715,True,16,1,1,3
Y2-S2-061K28,7,609,PS,exp,50,↑,up,↑,0.8923872001469135,True,15,1,0,3
Y2-S2-061K28,7,610,PS,exp,36,→,left,←,0.6963738002814353,False,15,-1,1,4
Y2-S2-061K28,7,611,PS,exp,34,↑,up,↑,0.5474895001389086,True,16,-1,0,4
Y2-S2-061K28,7,612,PS,exp,43,←,left,←,0.5850026998668909,True,16,-1,0,4
Y2-S2-061K28,7,613,PS,exp,48,→,right,→,0.5643580001778901,True,16,1,1,5
Y2-S2-061K28,7,614,PS,exp,46,↑,up,↑,0.5549697000533342,True,15,1,0,5
Y2-S2-061K28,7,615,PS,exp,40,→,right,→,0.7729009999893606,True,15,1,0,5
Y2-S2-061K28,7,616,PS,exp,41,↓,left,←,0.7474238001741469,False,15,-1,1,6
Y2-S2-061K28,7,617,PS,exp,34,←,left,←,0.5190376001410186,True,16,-1,0,6
Y2-S2-061K28,7,618,PS,exp,27,↓,down,↓,0.7299867998808622,True,16,-1,0,6
Y2-S2-061K28,7,619,PS,exp,38,→,right,→,0.5199001999571919,True,16,1,1,7
Y2-S2-061K28,7,620,PS,exp,42,←,left,←,0.4993616999126971,True,15,1,0,7
Y2-S2-061K28,7,621,PS,exp,33,↓,down,↓,0.6978665003553033,True,15,1,0,7
Y2-S2-061K28,7,622,PS,exp,32,←,left,←,0.45110780000686646,True,15,1,0,7
Y2-S2-061K28,7,623,PS,exp,28,→,right,→,0.4458997999317944,True,14,1,0,7
Y2-S2-061K28,7,624,PS,exp,31,↓,down,↓,0.5418687998317182,True,14,1,0,7
Y2-S2-061K28,7,625,PS,exp,35,↑,left,←,0.7905982998199761,False,14,-1,1,8
Y2-S2-061K28,7,626,PS,exp,40,→,right,→,0.4976491997949779,True,15,-1,0,8
Y2-S2-061K28,7,627,PS,exp,38,↑,up,↑,0.4404430999420583,True,15,-1,0,8
Y2-S2-061K28,7,628,PS,exp,33,←,left,←,0.4615599997341633,True,15,1,1,9
Y2-S2-061K28,7,629,PS,exp,42,↓,down,↓,0.5019628000445664,True,14,1,0,9
Y2-S2-061K28,7,630,PS,exp,49,←,left,←,0.5103410999290645,True,14,1,0,9
Y2-S2-061K28,7,631,PS,exp,42,↓,left,←,0.33386650029569864,False,14,-1,1,10
Y2-S2-061K28,7,632,PS,exp,39,←,left,←,0.5346739999949932,True,15,-1,0,10
Y2-S2-061K28,7,633,PS,exp,26,→,right,→,0.4699062001891434,True,15,-1,0,10
Y2-S2-061K28,7,634,PS,exp,37,↓,down,↓,0.4852660996839404,True,15,1,1,11
Y2-S2-061K28,7,635,PS,exp,37,←,left,←,1.2791766999289393,True,14,1,0,11
Y2-S2-061K28,7,636,PS,exp,25,↓,down,↓,0.5457633999176323,True,14,1,0,11
Y2-S2-061K28,7,637,PS,exp,27,←,left,←,0.4471142999827862,True,14,1,0,11
Y2-S2-061K28,7,638,PS,exp,43,→,right,→,0.5197443999350071,True,13,1,0,11
Y2-S2-061K28,7,639,PS,exp,28,↑,up,↑,0.7268632999621332,True,13,1,0,11
Y2-S2-061K28,7,640,PS,exp,30,→,right,→,0.5114520001225173,True,13,1,0,11
Y2-S2-061K28,7,641,PS,exp,29,↑,left,←,0.8542769998311996,False,12,-1,1,12
Y2-S2-061K28,7,642,PS,exp,27,↓,down,↓,0.5120782000012696,True,13,-1,0,12
Y2-S2-061K28,7,643,PS,exp,44,↑,left,←,0.8476728997193277,False,13,-1,0,12
Y2-S2-061K28,7,644,PS,exp,38,←,left,←,0.6220311000943184,True,14,-1,0,12
Y2-S2-061K28,7,645,PS,exp,31,↓,down,↓,0.5821827002801001,True,14,-1,0,12
Y2-S2-061K28,7,646,PS,exp,40,→,right,→,0.6557239000685513,True,14,1,1,13
Y2-S2-061K28,7,647,PS,exp,42,↓,down,↓,0.5736952000297606,True,13,1,0,13
Y2-S2-061K28,7,648,PS,exp,36,→,right,→,0.5161972995847464,True,13,1,0,13
Y2-S2-061K28,7,649,PS,exp,40,←,left,←,0.712438799906522,True,13,1,0,13
Y2-S2-061K28,7,650,PS,exp,49,↑,right,→,0.5409089000895619,False,12,-1,1,14
Y2-S2-061K28,7,651,PS,exp,46,↓,left,←,1.0562787000089884,False,13,-1,0,14
Y2-S2-061K28,7,652,PS,exp,30,→,left,←,0.48600810021162033,False,14,-1,0,14
Y2-S2-061K28,7,653,PS,exp,45,←,down,↓,0.42432660004124045,False,15,-1,0,14
Y2-S2-061K28,7,654,PS,exp,38,↑,up,↑,0.5363198001869023,True,16,-1,0,14
Y2-S2-061K28,7,655,PS,exp,40,←,left,←,0.38386530010029674,True,16,-1,0,14
Y2-S2-061K28,7,656,PS,exp,25,↑,left,←,0.8444111999124289,False,16,-1,0,14
Y2-S2-061K28,7,657,PS,exp,42,→,right,→,0.4742837999947369,True,17,-1,0,14
Y2-S2-061K28,7,658,PS,exp,29,↓,left,←,0.6752851000055671,False,17,-1,0,14
Y2-S2-061K28,7,659,PS,exp,40,↑,up,↑,0.8200757000595331,True,18,-1,0,14
Y2-S2-061K28,7,660,PS,exp,40,←,left,←,1.379894900135696,True,18,-1,0,14
Y2-S2-061K28,7,661,PS,exp,33,↓,down,↓,0.4951357999816537,True,18,1,1,15
Y2-S2-061K28,7,662,PS,exp,36,←,left,←,0.4173340001143515,True,17,1,0,15
Y2-S2-061K28,7,663,PS,exp,28,↓,down,↓,0.5418755998834968,True,17,1,0,15
Y2-S2-061K28,7,664,PS,exp,35,↑,up,↑,0.6746797002851963,True,17,1,0,15
Y2-S2-061K28,7,665,PS,exp,50,→,right,→,0.4731209999881685,True,16,1,0,15
Y2-S2-061K28,7,666,PS,exp,34,↑,left,←,0.6818599998950958,False,16,-1,1,16
Y2-S2-061K28,8,667,AS,intra_train,46,→,left,←,0.9339266000315547,False,25,-,-,-
Y2-S2-061K28,8,668,AS,intra_train,45,↑,left,←,1.0881690997630358,False,25,-,-,-
Y2-S2-061K28,8,669,AS,intra_train,40,→,right,→,0.46713649993762374,True,25,-,-,-
Y2-S2-061K28,8,670,AS,intra_train,33,↓,down,↓,1.9141213996335864,True,25,-,-,-
Y2-S2-061K28,8,671,AS,intra_train,37,↑,up,↑,1.2258045002818108,True,25,-,-,-
Y2-S2-061K28,8,672,AS,exp,37,→,right,→,1.0411376999691129,True,17,0,0,0
Y2-S2-061K28,8,673,AS,exp,37,↓,down,↓,0.564384900033474,True,17,0,0,0
Y2-S2-061K28,8,674,AS,exp,39,→,right,→,0.5613898998126388,True,17,1,0,0
Y2-S2-061K28,8,675,AS,exp,30,←,left,←,0.679116899613291,True,16,1,0,0
Y2-S2-061K28,8,676,AS,exp,43,↑,no_key,no_letter,-1.0,False,16,-1,1,1
Y2-S2-061K28,8,677,AS,exp,48,→,right,→,0.5003645000979304,True,17,-1,0,1
Y2-S2-061K28,8,678,AS,exp,45,↓,down,↓,0.400942400097847,True,17,-1,0,1
Y2-S2-061K28,8,679,AS,exp,49,↑,up,↑,1.676230300217867,True,17,1,1,2
Y2-S2-061K28,8,680,AS,exp,30,↓,down,↓,0.9932666998356581,True,16,1,0,2
Y2-S2-061K28,8,681,AS,exp,31,←,left,←,0.44309400022029877,True,16,1,0,2
Y2-S2-061K28,8,682,AS,exp,33,↓,down,↓,0.633496300317347,True,16,1,0,2
Y2-S2-061K28,8,683,AS,exp,32,←,right,→,0.79630590043962,False,15,-1,1,3
Y2-S2-061K28,8,684,AS,exp,47,↓,down,↓,0.655523999594152,True,16,-1,0,3
Y2-S2-061K28,8,685,AS,exp,26,↑,up,↑,1.0347881000488997,True,16,-1,0,3
Y2-S2-061K28,8,686,AS,exp,29,←,left,←,0.4750520996749401,True,16,1,1,4
Y2-S2-061K28,8,687,AS,exp,48,→,right,→,0.4818210997618735,True,15,1,0,4
Y2-S2-061K28,8,688,AS,exp,33,↓,down,↓,0.6115095997229218,True,15,1,0,4
Y2-S2-061K28,8,689,AS,exp,31,←,left,←,0.6251946999691427,True,15,1,0,4
Y2-S2-061K28,8,690,AS,exp,30,↓,down,↓,0.5256993998773396,True,14,1,0,4
Y2-S2-061K28,8,691,AS,exp,32,→,right,→,0.6586775998584926,True,14,1,0,4
Y2-S2-061K28,8,692,AS,exp,39,←,left,←,0.5329741002060473,True,14,1,0,4
Y2-S2-061K28,8,693,AS,exp,46,↓,down,↓,0.5333769000135362,True,13,1,0,4
Y2-S2-061K28,8,694,AS,exp,50,↑,up,↑,0.4194574998691678,True,13,1,0,4
Y2-S2-061K28,8,695,AS,exp,43,↓,down,↓,0.444828599691391,True,13,1,0,4
Y2-S2-061K28,8,696,AS,exp,43,↑,left,←,0.9536913000047207,False,12,-1,1,5
Y2-S2-061K28,8,697,AS,exp,27,←,right,→,0.6762023000046611,False,13,-1,0,5
Y2-S2-061K28,8,698,AS,exp,34,→,right,→,0.6448005000129342,True,14,-1,0,5
Y2-S2-061K28,8,699,AS,exp,29,←,left,←,0.5345518002286553,True,14,-1,0,5
Y2-S2-061K28,8,700,AS,exp,42,↑,down,↓,0.48440330009907484,False,14,-1,0,5
Y2-S2-061K28,8,701,AS,exp,43,↓,up,↑,0.6621936000883579,False,15,-1,0,5
Y2-S2-061K28,8,702,AS,exp,29,↑,up,↑,0.4924967996776104,True,16,-1,0,5
Y2-S2-061K28,8,703,AS,exp,31,←,no_key,no_letter,-1.0,False,16,-1,0,5
Y2-S2-061K28,8,704,AS,exp,36,↑,up,↑,0.5530138998292387,True,17,-1,0,5
Y2-S2-061K28,8,705,AS,exp,37,↓,down,↓,0.7937006000429392,True,17,-1,0,5
Y2-S2-061K28,8,706,AS,exp,35,→,down,↓,0.7216532002203166,False,17,-1,0,5
Y2-S2-061K28,8,707,AS,exp,39,←,left,←,0.6602080999873579,True,18,-1,0,5
Y2-S2-061K28,8,708,AS,exp,35,→,right,→,0.6402213000692427,True,18,-1,0,5
Y2-S2-061K28,8,709,AS,exp,40,↓,down,↓,0.41733660036697984,True,18,1,1,6
Y2-S2-061K28,8,710,AS,exp,30,←,left,←,0.6838710000738502,True,17,1,0,6
Y2-S2-061K28,8,711,AS,exp,35,↑,up,↑,0.48476119991391897,True,17,1,0,6
Y2-S2-061K28,8,712,AS,exp,25,↓,down,↓,0.5806521000340581,True,17,1,0,6
Y2-S2-061K28,8,713,AS,exp,41,↑,down,↓,0.9270855998620391,False,16,-1,1,7
Y2-S2-061K28,8,714,AS,exp,49,←,left,←,0.45885560009628534,True,17,-1,0,7
Y2-S2-061K28,8,715,AS,exp,32,↑,up,↑,0.5340299997478724,True,17,-1,0,7
Y2-S2-061K28,8,716,AS,exp,35,↓,down,↓,0.3838263996876776,True,17,1,1,8
Y2-S2-061K28,8,717,AS,exp,25,→,right,→,0.8166518998332322,True,16,1,0,8
Y2-S2-061K28,8,718,AS,exp,30,↑,up,↑,0.6235846001654863,True,16,1,0,8
Y2-S2-061K28,8,719,AS,exp,38,↓,down,↓,0.6001318995840847,True,16,1,0,8
Y2-S2-061K28,8,720,AS,exp,47,←,left,←,0.4434815999120474,True,15,1,0,8
Y2-S2-061K28,8,721,AS,exp,31,→,right,→,0.5340130999684334,True,15,1,0,8
Y2-S2-061K28,8,722,AS,exp,50,←,left,←,0.509992599952966,True,15,1,0,8
Y2-S2-061K28,8,723,AS,exp,36,↓,up,↑,0.7259085001423955,False,14,-1,1,9
Y2-S2-061K28,8,724,AS,exp,30,↑,up,↑,1.554764799773693,True,15,-1,0,9
Y2-S2-061K28,8,725,AS,exp,42,→,right,→,0.6669554999098182,True,15,-1,0,9
Y2-S2-061K28,8,726,AS,exp,37,↑,up,↑,0.6044768998399377,True,15,1,1,10
Y2-S2-061K28,8,727,AS,exp,39,←,left,←,0.6540520000271499,True,14,1,0,10
Y2-S2-061K28,8,728,AS,exp,47,→,right,→,0.6310964999720454,True,14,1,0,10
Y2-S2-061K28,8,729,AS,exp,25,↑,up,↑,0.40592920035123825,True,14,1,0,10
Y2-S2-061K28,8,730,AS,exp,39,↓,down,↓,1.6577608999796212,True,13,1,0,10
Y2-S2-061K28,8,731,AS,exp,28,←,up,↑,0.6307421000674367,False,13,-1,1,11
Y2-S2-061K28,8,732,AS,exp,50,↓,down,↓,0.6113844998180866,True,14,-1,0,11
Y2-S2-061K28,8,733,AS,exp,48,→,right,→,0.6896116998977959,True,14,-1,0,11
Y2-S2-061K28,8,734,AS,exp,31,↓,down,↓,0.6277032000944018,True,14,1,1,12
Y2-S2-061K28,8,735,AS,exp,45,←,left,←,0.9191506998613477,True,13,1,0,12
Y2-S2-061K28,8,736,AS,exp,48,→,left,←,0.6764827999286354,False,13,-1,1,13
Y2-S2-061K28,8,737,AS,exp,46,←,right,→,0.6055028000846505,False,14,-1,0,13
Y2-S2-061K28,8,738,AS,exp,48,↑,up,↑,0.5739678000099957,True,15,-1,0,13
Y2-S2-061K28,8,739,AS,exp,28,←,left,←,0.44544029980897903,True,15,-1,0,13
Y2-S2-061K28,8,740,AS,exp,49,↑,up,↑,0.4986748998053372,True,15,1,1,14
Y2-S2-061K28,8,741,AS,exp,44,←,left,←,0.45925650000572205,True,14,1,0,14
Y2-S2-061K28,8,742,AS,exp,31,↑,up,↑,0.48497539991512895,True,14,1,0,14
Y2-S2-061K28,8,743,AS,exp,27,↓,down,↓,0.5812806999310851,True,14,1,0,14
Y2-S2-061K28,8,744,AS,exp,48,→,right,→,0.7219095001928508,True,13,1,0,14
Y2-S2-061K28,8,745,AS,exp,33,←,left,←,0.42880519991740584,True,13,1,0,14
Y2-S2-061K28,8,746,AS,exp,29,↑,up,↑,0.49398279981687665,True,13,1,0,14
Y2-S2-061K28,8,747,AS,exp,27,↓,up,↑,0.6069803000427783,False,12,-1,1,15
Y2-S2-061K28,8,748,AS,exp,39,←,no_key,no_letter,-1.0,False,13,-1,0,15
Y2-S2-061K28,8,749,AS,exp,47,→,down,↓,0.6260199998505414,False,14,-1,0,15
Y2-S2-061K28,8,750,AS,exp,28,←,left,←,0.6210035001859069,True,15,-1,0,15
Y2-S2-061K28,8,751,AS,exp,25,↓,down,↓,0.4273916003294289,True,15,-1,0,15
Y2-S2-061K28,8,752,AS,exp,45,→,right,→,0.6903614001348615,True,15,1,1,16
