PART_ID,Block_no,Trial_no,Block_type,Trial_type,CSI,Stim_letter,Key_pressed,letter_choose,Rt,Corr,Stimulus Time,Level,Reversal,Revs_count
Y2-S2-260K19,1,1,PS,train,47,→,right,→,1.181600899901241,True,30,-,-,-
Y2-S2-260K19,1,2,PS,train,29,↑,up,↑,1.0298812999390066,True,30,-,-,-
Y2-S2-260K19,1,3,PS,train,45,↓,down,↓,1.0223024999722838,True,30,-,-,-
Y2-S2-260K19,1,4,PS,train,28,↑,up,↑,0.919183200225234,True,30,-,-,-
Y2-S2-260K19,1,5,PS,train,41,←,left,←,0.8533263998106122,True,30,-,-,-
Y2-S2-260K19,1,6,PS,train,36,→,right,→,1.0348213003017008,True,30,-,-,-
Y2-S2-260K19,1,7,PS,train,38,↑,up,↑,1.004884900059551,True,30,-,-,-
Y2-S2-260K19,1,8,PS,train,32,→,right,→,0.7617208999581635,True,30,-,-,-
Y2-S2-260K19,1,9,PS,train,25,↑,up,↑,0.8143356000073254,True,30,-,-,-
Y2-S2-260K19,1,10,PS,train,34,←,left,←,0.7344244001433253,True,30,-,-,-
Y2-S2-260K19,2,11,AS,train,33,↓,down,↓,1.0657501998357475,True,45,-,-,-
Y2-S2-260K19,2,12,AS,train,32,↑,up,↑,0.867361799813807,True,45,-,-,-
Y2-S2-260K19,2,13,AS,train,46,→,right,→,1.048482900019735,True,45,-,-,-
Y2-S2-260K19,2,14,AS,train,27,↑,up,↑,1.0302237002179027,True,45,-,-,-
Y2-S2-260K19,2,15,AS,train,47,→,right,→,1.0514358999207616,True,45,-,-,-
Y2-S2-260K19,2,16,AS,train,47,←,left,←,1.0890786000527442,True,45,-,-,-
Y2-S2-260K19,2,17,AS,train,37,↑,up,↑,1.0494424998760223,True,45,-,-,-
Y2-S2-260K19,2,18,AS,train,45,→,right,→,0.9454224999062717,True,45,-,-,-
Y2-S2-260K19,2,19,AS,train,50,↑,up,↑,2.0996499001048505,True,45,-,-,-
Y2-S2-260K19,2,20,AS,train,38,→,right,→,0.7176560000516474,True,45,-,-,-
Y2-S2-260K19,-,21,PS,adaptive,48,←,left,←,0.8188085998408496,True,10,0,0,0
Y2-S2-260K19,-,22,PS,adaptive,32,↓,up,↑,1.1882521999068558,False,10,-1,0,0
Y2-S2-260K19,-,23,PS,adaptive,42,→,right,→,0.6396218999288976,True,11,-1,0,0
Y2-S2-260K19,-,24,PS,adaptive,29,↓,down,↓,0.8212497998028994,True,11,-1,0,0
Y2-S2-260K19,-,25,PS,adaptive,39,←,left,←,0.7522571999579668,True,11,1,1,1
Y2-S2-260K19,-,26,PS,adaptive,34,→,right,→,0.7447925000451505,True,10,1,0,1
Y2-S2-260K19,-,27,PS,adaptive,47,↑,up,↑,0.7713604001328349,True,10,1,0,1
Y2-S2-260K19,-,28,PS,adaptive,36,→,right,→,0.7399871000088751,True,10,1,0,1
Y2-S2-260K19,-,29,PS,adaptive,32,←,down,↓,1.5735573000274599,False,9,-1,1,2
Y2-S2-260K19,-,30,PS,adaptive,42,→,right,→,0.6631618998944759,True,10,-1,0,2
Y2-S2-260K19,-,31,PS,adaptive,37,←,left,←,0.6722122998908162,True,10,-1,0,2
Y2-S2-260K19,-,32,PS,adaptive,36,→,right,→,0.6088407002389431,True,10,1,1,3
Y2-S2-260K19,-,33,PS,adaptive,26,↓,down,↓,0.8370385002344847,True,9,1,0,3
Y2-S2-260K19,-,34,PS,adaptive,38,↑,up,↑,0.8044257001020014,True,9,1,0,3
Y2-S2-260K19,-,35,PS,adaptive,40,←,left,←,0.9644013000652194,True,9,1,0,3
Y2-S2-260K19,-,36,PS,adaptive,34,→,right,→,0.6356974001973867,True,8,1,0,3
Y2-S2-260K19,-,37,PS,adaptive,32,↑,up,↑,0.7375987996347249,True,8,1,0,3
Y2-S2-260K19,-,38,PS,adaptive,28,↓,left,←,1.0733642000705004,False,8,-1,1,4
Y2-S2-260K19,-,39,AS,adaptive,30,→,right,→,0.7494275998324156,True,20,0,0,0
Y2-S2-260K19,-,40,AS,adaptive,49,↓,down,↓,0.8664651000872254,True,20,0,0,0
Y2-S2-260K19,-,41,AS,adaptive,36,←,left,←,0.7756183003075421,True,20,1,0,0
Y2-S2-260K19,-,42,AS,adaptive,33,↑,up,↑,0.6919189998880029,True,19,1,0,0
Y2-S2-260K19,-,43,AS,adaptive,50,↓,left,←,0.9418405997566879,False,19,-1,1,1
Y2-S2-260K19,-,44,AS,adaptive,42,→,right,→,0.600040300283581,True,20,-1,0,1
Y2-S2-260K19,-,45,AS,adaptive,45,↓,down,↓,0.9096431001089513,True,20,-1,0,1
Y2-S2-260K19,-,46,AS,adaptive,26,←,left,←,0.7315366002731025,True,20,1,1,2
Y2-S2-260K19,-,47,AS,adaptive,49,↑,up,↑,0.837625399697572,True,19,1,0,2
Y2-S2-260K19,-,48,AS,adaptive,29,←,left,←,0.7054706001654267,True,19,1,0,2
Y2-S2-260K19,-,49,AS,adaptive,50,↓,down,↓,0.7511416999623179,True,19,1,0,2
Y2-S2-260K19,-,50,AS,adaptive,30,←,left,←,0.7250581998378038,True,18,1,0,2
Y2-S2-260K19,-,51,AS,adaptive,43,↓,down,↓,0.6811488997191191,True,18,1,0,2
Y2-S2-260K19,-,52,AS,adaptive,27,↑,up,↑,0.7454458000138402,True,18,1,0,2
Y2-S2-260K19,-,53,AS,adaptive,49,↓,down,↓,1.1518202000297606,True,17,1,0,2
Y2-S2-260K19,-,54,AS,adaptive,29,↑,up,↑,0.6702868998982012,True,17,1,0,2
Y2-S2-260K19,-,55,AS,adaptive,48,←,left,←,0.712990399915725,True,17,1,0,2
Y2-S2-260K19,-,56,AS,adaptive,43,↓,right,→,0.9286711998283863,False,16,-1,1,3
Y2-S2-260K19,-,57,AS,adaptive,32,↑,down,↓,0.8352994997985661,False,17,-1,0,3
Y2-S2-260K19,-,58,AS,adaptive,44,↓,down,↓,0.6938648000359535,True,18,-1,0,3
Y2-S2-260K19,-,59,AS,adaptive,36,↑,up,↑,0.7397704999893904,True,18,-1,0,3
Y2-S2-260K19,-,60,AS,adaptive,34,→,right,→,0.7870885003358126,True,18,1,1,4
Y2-S2-260K19,1,61,PS,intra_train,27,←,left,←,0.6994974999688566,True,13,-,-,-
Y2-S2-260K19,1,62,PS,intra_train,39,↑,up,↑,0.6774249998852611,True,13,-,-,-
Y2-S2-260K19,1,63,PS,intra_train,43,→,left,←,0.9756892002187669,False,13,-,-,-
Y2-S2-260K19,1,64,PS,intra_train,32,←,left,←,0.5685614999383688,True,13,-,-,-
Y2-S2-260K19,1,65,PS,intra_train,39,↑,up,↑,0.7689136997796595,True,13,-,-,-
Y2-S2-260K19,1,66,PS,exp,31,→,up,↑,0.8417035997845232,False,9,-1,0,0
Y2-S2-260K19,1,67,PS,exp,41,←,left,←,0.6695396001450717,True,10,-1,0,0
Y2-S2-260K19,1,68,PS,exp,36,→,right,→,0.6198018998838961,True,10,-1,0,0
Y2-S2-260K19,1,69,PS,exp,28,←,left,←,0.7171061998233199,True,10,1,1,1
Y2-S2-260K19,1,70,PS,exp,39,→,right,→,0.522267600055784,True,9,1,0,1
Y2-S2-260K19,1,71,PS,exp,39,←,left,←,0.8910509999841452,True,9,1,0,1
Y2-S2-260K19,1,72,PS,exp,36,↑,up,↑,0.651144300121814,True,9,1,0,1
Y2-S2-260K19,1,73,PS,exp,41,↓,down,↓,1.017506199888885,True,8,1,0,1
Y2-S2-260K19,1,74,PS,exp,31,↑,up,↑,0.969940900336951,True,8,1,0,1
Y2-S2-260K19,1,75,PS,exp,45,→,right,→,0.511735999956727,True,8,1,0,1
Y2-S2-260K19,1,76,PS,exp,30,↓,up,↑,0.8719478002749383,False,7,-1,1,2
Y2-S2-260K19,1,77,PS,exp,45,←,left,←,0.6032012002542615,True,8,-1,0,2
Y2-S2-260K19,1,78,PS,exp,33,↓,down,↓,0.6338013997301459,True,8,-1,0,2
Y2-S2-260K19,1,79,PS,exp,39,→,right,→,0.567588500212878,True,8,1,1,3
Y2-S2-260K19,1,80,PS,exp,26,↓,up,↑,0.945747900288552,False,7,-1,1,4
Y2-S2-260K19,1,81,PS,exp,35,←,left,←,0.8298410000279546,True,8,-1,0,4
Y2-S2-260K19,1,82,PS,exp,28,↑,up,↑,0.802171700168401,True,8,-1,0,4
Y2-S2-260K19,1,83,PS,exp,50,←,left,←,0.5199385997839272,True,8,1,1,5
Y2-S2-260K19,1,84,PS,exp,30,↑,up,↑,0.8486810997128487,True,7,1,0,5
Y2-S2-260K19,1,85,PS,exp,37,→,right,→,0.8396920999512076,True,7,1,0,5
Y2-S2-260K19,1,86,PS,exp,38,↑,up,↑,0.7350333002395928,True,7,1,0,5
Y2-S2-260K19,1,87,PS,exp,45,←,left,←,0.8299913997761905,True,6,1,0,5
Y2-S2-260K19,1,88,PS,exp,34,→,right,→,0.5937719000503421,True,6,1,0,5
Y2-S2-260K19,1,89,PS,exp,30,↑,left,←,0.651897500269115,False,6,-1,1,6
Y2-S2-260K19,1,90,PS,exp,48,→,up,↑,1.0487625999376178,False,7,-1,0,6
Y2-S2-260K19,1,91,PS,exp,27,↑,up,↑,0.8012915998697281,True,8,-1,0,6
Y2-S2-260K19,1,92,PS,exp,33,→,up,↑,0.7556107002310455,False,8,-1,0,6
Y2-S2-260K19,1,93,PS,exp,45,↓,up,↑,0.8134701000526547,False,9,-1,0,6
Y2-S2-260K19,1,94,PS,exp,28,↑,up,↑,1.1884718001820147,True,10,-1,0,6
Y2-S2-260K19,1,95,PS,exp,40,←,left,←,0.5453732004389167,True,10,-1,0,6
Y2-S2-260K19,1,96,PS,exp,38,↓,down,↓,0.7720202999189496,True,10,1,1,7
Y2-S2-260K19,1,97,PS,exp,30,↑,up,↑,0.837395700160414,True,9,1,0,7
Y2-S2-260K19,1,98,PS,exp,33,←,left,←,0.7040840997360647,True,9,1,0,7
Y2-S2-260K19,1,99,PS,exp,43,↑,up,↑,0.8012426998466253,True,9,1,0,7
Y2-S2-260K19,1,100,PS,exp,40,↓,down,↓,0.8097492000088096,True,8,1,0,7
Y2-S2-260K19,1,101,PS,exp,28,↑,down,↓,0.9468133002519608,False,8,-1,1,8
Y2-S2-260K19,1,102,PS,exp,41,→,right,→,0.6229727999307215,True,9,-1,0,8
Y2-S2-260K19,1,103,PS,exp,41,↓,down,↓,0.6901922998949885,True,9,-1,0,8
Y2-S2-260K19,1,104,PS,exp,35,←,left,←,0.5832324996590614,True,9,1,1,9
Y2-S2-260K19,1,105,PS,exp,31,↓,right,→,1.0976223000325263,False,8,-1,1,10
Y2-S2-260K19,1,106,PS,exp,31,→,left,←,0.764448800124228,False,9,-1,0,10
Y2-S2-260K19,1,107,PS,exp,33,↓,down,↓,0.7695826999843121,True,10,-1,0,10
Y2-S2-260K19,1,108,PS,exp,43,←,left,←,0.5860619000159204,True,10,-1,0,10
Y2-S2-260K19,1,109,PS,exp,45,↓,down,↓,0.734808299690485,True,10,1,1,11
Y2-S2-260K19,1,110,PS,exp,48,↑,up,↑,0.6962398001924157,True,9,1,0,11
Y2-S2-260K19,1,111,PS,exp,46,→,left,←,0.5890758000314236,False,9,-1,1,12
Y2-S2-260K19,1,112,PS,exp,45,↓,down,↓,0.6910060998052359,True,10,-1,0,12
Y2-S2-260K19,1,113,PS,exp,40,←,left,←,0.5528146000579,True,10,-1,0,12
Y2-S2-260K19,1,114,PS,exp,29,↑,down,↓,0.7789106997661293,False,10,-1,0,12
Y2-S2-260K19,1,115,PS,exp,47,↓,down,↓,0.6939314999617636,True,11,-1,0,12
Y2-S2-260K19,1,116,PS,exp,38,→,right,→,0.5243338001891971,True,11,-1,0,12
Y2-S2-260K19,1,117,PS,exp,40,←,down,↓,0.7530355001799762,False,11,-1,0,12
Y2-S2-260K19,1,118,PS,exp,46,→,right,→,0.5601355000399053,True,12,-1,0,12
Y2-S2-260K19,1,119,PS,exp,49,↓,down,↓,0.7717495998367667,True,12,-1,0,12
Y2-S2-260K19,1,120,PS,exp,41,←,left,←,0.66139019979164,True,12,1,1,13
Y2-S2-260K19,1,121,PS,exp,49,→,right,→,0.6468655997887254,True,11,1,0,13
Y2-S2-260K19,1,122,PS,exp,40,↑,up,↑,0.9315137001685798,True,11,1,0,13
Y2-S2-260K19,1,123,PS,exp,42,←,left,←,0.522305800113827,True,11,1,0,13
Y2-S2-260K19,1,124,PS,exp,49,↑,down,↓,0.8452812000177801,False,10,-1,1,14
Y2-S2-260K19,1,125,PS,exp,46,→,right,→,0.6223430996760726,True,11,-1,0,14
Y2-S2-260K19,1,126,PS,exp,36,↑,up,↑,0.7050291001796722,True,11,-1,0,14
Y2-S2-260K19,1,127,PS,exp,37,→,left,←,0.6855603000149131,False,11,-1,0,14
Y2-S2-260K19,1,128,PS,exp,42,↑,left,←,1.0227711996994913,False,12,-1,0,14
Y2-S2-260K19,1,129,PS,exp,29,↓,down,↓,0.761523200199008,True,13,-1,0,14
Y2-S2-260K19,1,130,PS,exp,35,←,left,←,0.5889568999409676,True,13,-1,0,14
Y2-S2-260K19,1,131,PS,exp,26,↑,up,↑,0.8494380000047386,True,13,1,1,15
Y2-S2-260K19,1,132,PS,exp,29,←,left,←,0.7210353999398649,True,12,1,0,15
Y2-S2-260K19,1,133,PS,exp,39,↑,up,↑,0.8055263999849558,True,12,1,0,15
Y2-S2-260K19,1,134,PS,exp,42,↓,down,↓,0.761481000110507,True,12,1,0,15
Y2-S2-260K19,1,135,PS,exp,41,↑,up,↑,1.0783079997636378,True,11,1,0,15
Y2-S2-260K19,1,136,PS,exp,40,←,left,←,0.5212204996496439,True,11,1,0,15
Y2-S2-260K19,1,137,PS,exp,28,↑,up,↑,0.7426050999201834,True,11,1,0,15
Y2-S2-260K19,1,138,PS,exp,26,→,left,←,0.5873690000735223,False,10,-1,1,16
Y2-S2-260K19,2,139,AS,intra_train,33,↓,down,↓,1.0414610002189875,True,25,-,-,-
Y2-S2-260K19,2,140,AS,intra_train,41,↑,up,↑,1.5286971000023186,True,25,-,-,-
Y2-S2-260K19,2,141,AS,intra_train,40,←,left,←,0.7831919002346694,True,25,-,-,-
Y2-S2-260K19,2,142,AS,intra_train,36,↑,up,↑,1.0163989998400211,True,25,-,-,-
Y2-S2-260K19,2,143,AS,intra_train,43,→,right,→,0.8917950000613928,True,25,-,-,-
Y2-S2-260K19,2,144,AS,exp,49,↑,up,↑,0.9817214999347925,True,17,0,0,0
Y2-S2-260K19,2,145,AS,exp,45,←,left,←,1.1024213000200689,True,17,0,0,0
Y2-S2-260K19,2,146,AS,exp,47,↓,up,↑,1.0602307999506593,False,17,-1,0,0
Y2-S2-260K19,2,147,AS,exp,33,←,left,←,0.610862999688834,True,18,-1,0,0
Y2-S2-260K19,2,148,AS,exp,39,↑,up,↑,0.7529778000898659,True,18,-1,0,0
Y2-S2-260K19,2,149,AS,exp,34,↓,left,←,0.9060443001799285,False,18,-1,0,0
Y2-S2-260K19,2,150,AS,exp,42,→,right,→,0.6764977998100221,True,19,-1,0,0
Y2-S2-260K19,2,151,AS,exp,41,↓,down,↓,0.8723792000673711,True,19,-1,0,0
Y2-S2-260K19,2,152,AS,exp,39,←,left,←,0.9704424999654293,True,19,1,1,1
Y2-S2-260K19,2,153,AS,exp,27,↓,down,↓,0.8370914999395609,True,18,1,0,1
Y2-S2-260K19,2,154,AS,exp,25,↑,up,↑,0.7303126999177039,True,18,1,0,1
Y2-S2-260K19,2,155,AS,exp,37,→,right,→,0.6658005001954734,True,18,1,0,1
Y2-S2-260K19,2,156,AS,exp,30,←,left,←,0.7772387997247279,True,17,1,0,1
Y2-S2-260K19,2,157,AS,exp,40,↑,up,↑,0.6845197002403438,True,17,1,0,1
Y2-S2-260K19,2,158,AS,exp,30,→,left,←,0.8067445000633597,False,17,-1,1,2
Y2-S2-260K19,2,159,AS,exp,35,↑,up,↑,0.9547870000824332,True,18,-1,0,2
Y2-S2-260K19,2,160,AS,exp,44,↓,down,↓,0.7673654002137482,True,18,-1,0,2
Y2-S2-260K19,2,161,AS,exp,39,↑,up,↑,0.7742138002067804,True,18,1,1,3
Y2-S2-260K19,2,162,AS,exp,39,←,left,←,0.6378200999461114,True,17,1,0,3
Y2-S2-260K19,2,163,AS,exp,31,↑,up,↑,1.0748083000071347,True,17,1,0,3
Y2-S2-260K19,2,164,AS,exp,31,←,left,←,0.6633461001329124,True,17,1,0,3
Y2-S2-260K19,2,165,AS,exp,43,→,right,→,0.6793060000054538,True,16,1,0,3
Y2-S2-260K19,2,166,AS,exp,32,←,left,←,0.7020558998920023,True,16,1,0,3
Y2-S2-260K19,2,167,AS,exp,46,↑,up,↑,1.0820491001941264,True,16,1,0,3
Y2-S2-260K19,2,168,AS,exp,25,→,left,←,0.7711882996372879,False,15,-1,1,4
Y2-S2-260K19,2,169,AS,exp,48,↑,up,↑,0.899328799918294,True,16,-1,0,4
Y2-S2-260K19,2,170,AS,exp,27,←,left,←,0.6649377001449466,True,16,-1,0,4
Y2-S2-260K19,2,171,AS,exp,48,↑,up,↑,0.8816860001534224,True,16,1,1,5
Y2-S2-260K19,2,172,AS,exp,25,←,up,↑,0.9063701997511089,False,15,-1,1,6
Y2-S2-260K19,2,173,AS,exp,45,↑,up,↑,0.7981302002444863,True,16,-1,0,6
Y2-S2-260K19,2,174,AS,exp,37,↓,left,←,0.9105289001017809,False,16,-1,0,6
Y2-S2-260K19,2,175,AS,exp,37,→,up,↑,0.8573225000873208,False,17,-1,0,6
Y2-S2-260K19,2,176,AS,exp,31,↓,down,↓,0.9448585999198258,True,18,-1,0,6
Y2-S2-260K19,2,177,AS,exp,34,↑,up,↑,0.9829939999617636,True,18,-1,0,6
Y2-S2-260K19,2,178,AS,exp,37,←,left,←,0.7626233999617398,True,18,1,1,7
Y2-S2-260K19,2,179,AS,exp,37,→,right,→,0.7299335999414325,True,17,1,0,7
Y2-S2-260K19,2,180,AS,exp,27,↑,up,↑,1.1314403996802866,True,17,1,0,7
Y2-S2-260K19,2,181,AS,exp,27,←,left,←,0.7675407002680004,True,17,1,0,7
Y2-S2-260K19,2,182,AS,exp,45,↓,up,↑,1.2296188999898732,False,16,-1,1,8
Y2-S2-260K19,2,183,AS,exp,32,→,right,→,0.7650000001303852,True,17,-1,0,8
Y2-S2-260K19,2,184,AS,exp,34,←,left,←,0.7940110000781715,True,17,-1,0,8
Y2-S2-260K19,2,185,AS,exp,35,→,left,←,0.9120667995885015,False,17,-1,0,8
Y2-S2-260K19,2,186,AS,exp,29,↑,up,↑,0.7095512999221683,True,18,-1,0,8
Y2-S2-260K19,2,187,AS,exp,47,↓,down,↓,0.7689999002031982,True,18,-1,0,8
Y2-S2-260K19,2,188,AS,exp,43,←,left,←,0.7656924999319017,True,18,1,1,9
Y2-S2-260K19,2,189,AS,exp,31,→,right,→,0.6153694000095129,True,17,1,0,9
Y2-S2-260K19,2,190,AS,exp,44,↓,left,←,1.053668599575758,False,17,-1,1,10
Y2-S2-260K19,2,191,AS,exp,31,←,left,←,0.6611197995953262,True,18,-1,0,10
Y2-S2-260K19,2,192,AS,exp,37,↑,up,↑,0.8962838998995721,True,18,-1,0,10
Y2-S2-260K19,2,193,AS,exp,50,↓,down,↓,0.9678543996997178,True,18,1,1,11
Y2-S2-260K19,2,194,AS,exp,45,→,right,→,0.7819513999857008,True,17,1,0,11
Y2-S2-260K19,2,195,AS,exp,27,←,left,←,0.8442433001473546,True,17,1,0,11
Y2-S2-260K19,2,196,AS,exp,30,↑,right,→,0.936445300001651,False,17,-1,1,12
Y2-S2-260K19,2,197,AS,exp,35,↓,down,↓,0.7216331996023655,True,18,-1,0,12
Y2-S2-260K19,2,198,AS,exp,49,←,left,←,0.6480653001926839,True,18,-1,0,12
Y2-S2-260K19,2,199,AS,exp,34,↓,down,↓,0.8331583002582192,True,18,1,1,13
Y2-S2-260K19,2,200,AS,exp,33,↑,left,←,0.7978787999600172,False,17,-1,1,14
Y2-S2-260K19,2,201,AS,exp,32,→,right,→,0.7503260001540184,True,18,-1,0,14
Y2-S2-260K19,2,202,AS,exp,46,↓,down,↓,0.7230114000849426,True,18,-1,0,14
Y2-S2-260K19,2,203,AS,exp,41,→,right,→,0.6164448000490665,True,18,1,1,15
Y2-S2-260K19,2,204,AS,exp,32,↑,left,←,0.7524610999971628,False,17,-1,1,16
Y2-S2-260K19,3,205,AS,intra_train,50,↓,down,↓,0.8705603000707924,True,25,-,-,-
Y2-S2-260K19,3,206,AS,intra_train,41,←,left,←,0.6603319002315402,True,25,-,-,-
Y2-S2-260K19,3,207,AS,intra_train,33,↑,up,↑,1.0778022003360093,True,25,-,-,-
Y2-S2-260K19,3,208,AS,intra_train,40,→,right,→,0.6687334002926946,True,25,-,-,-
Y2-S2-260K19,3,209,AS,intra_train,44,↓,down,↓,0.6950206002220511,True,25,-,-,-
Y2-S2-260K19,3,210,AS,exp,25,↑,left,←,0.8506871000863612,False,17,-1,0,0
Y2-S2-260K19,3,211,AS,exp,45,→,up,↑,1.3750994000583887,False,18,-1,0,0
Y2-S2-260K19,3,212,AS,exp,41,↑,left,←,0.7708057998679578,False,19,-1,0,0
Y2-S2-260K19,3,213,AS,exp,39,→,left,←,0.7813189998269081,False,20,-1,0,0
Y2-S2-260K19,3,214,AS,exp,31,↑,right,→,0.7225322001613677,False,21,-1,0,0
Y2-S2-260K19,3,215,AS,exp,26,↓,down,↓,0.6925927000120282,True,22,-1,0,0
Y2-S2-260K19,3,216,AS,exp,37,→,right,→,0.635693000163883,True,22,-1,0,0
Y2-S2-260K19,3,217,AS,exp,40,↓,down,↓,0.5795881999656558,True,22,1,1,1
Y2-S2-260K19,3,218,AS,exp,30,↑,up,↑,0.6814613998867571,True,21,1,0,1
Y2-S2-260K19,3,219,AS,exp,44,→,right,→,0.5555427996441722,True,21,1,0,1
Y2-S2-260K19,3,220,AS,exp,33,↓,left,←,0.722149099688977,False,21,-1,1,2
Y2-S2-260K19,3,221,AS,exp,35,←,left,←,0.787465900182724,True,22,-1,0,2
Y2-S2-260K19,3,222,AS,exp,50,↓,left,←,1.1107355998829007,False,22,-1,0,2
Y2-S2-260K19,3,223,AS,exp,48,←,left,←,0.6270881998352706,True,23,-1,0,2
Y2-S2-260K19,3,224,AS,exp,39,↓,down,↓,0.7623061002232134,True,23,-1,0,2
Y2-S2-260K19,3,225,AS,exp,50,→,left,←,0.7979086004197598,False,23,-1,0,2
Y2-S2-260K19,3,226,AS,exp,28,↓,down,↓,1.0402609999291599,True,24,-1,0,2
Y2-S2-260K19,3,227,AS,exp,48,←,left,←,0.6241442998871207,True,24,-1,0,2
Y2-S2-260K19,3,228,AS,exp,43,→,left,←,0.8119576000608504,False,24,-1,0,2
Y2-S2-260K19,3,229,AS,exp,30,←,left,←,0.8626457001082599,True,25,-1,0,2
Y2-S2-260K19,3,230,AS,exp,32,↑,up,↑,1.1881125001236796,True,25,-1,0,2
Y2-S2-260K19,3,231,AS,exp,31,↓,down,↓,0.7206493001431227,True,25,1,1,3
Y2-S2-260K19,3,232,AS,exp,38,→,right,→,0.850282299797982,True,24,1,0,3
Y2-S2-260K19,3,233,AS,exp,25,←,left,←,0.6157275000587106,True,24,1,0,3
Y2-S2-260K19,3,234,AS,exp,32,↑,up,↑,0.7925015999935567,True,24,1,0,3
Y2-S2-260K19,3,235,AS,exp,46,→,right,→,0.7213368997909129,True,23,1,0,3
Y2-S2-260K19,3,236,AS,exp,29,↑,up,↑,1.0854686996899545,True,23,1,0,3
Y2-S2-260K19,3,237,AS,exp,41,↓,down,↓,0.750464600045234,True,23,1,0,3
Y2-S2-260K19,3,238,AS,exp,38,→,right,→,0.602770600002259,True,22,1,0,3
Y2-S2-260K19,3,239,AS,exp,42,↑,up,↑,0.990506200119853,True,22,1,0,3
Y2-S2-260K19,3,240,AS,exp,40,↓,down,↓,0.898227000143379,True,22,1,0,3
Y2-S2-260K19,3,241,AS,exp,44,→,right,→,0.5355736003257334,True,21,1,0,3
Y2-S2-260K19,3,242,AS,exp,27,↓,down,↓,0.8745762999169528,True,21,1,0,3
Y2-S2-260K19,3,243,AS,exp,46,→,right,→,0.5779110002331436,True,21,1,0,3
Y2-S2-260K19,3,244,AS,exp,31,↑,up,↑,0.7336141001433134,True,20,1,0,3
Y2-S2-260K19,3,245,AS,exp,40,↓,down,↓,0.6706418003886938,True,20,1,0,3
Y2-S2-260K19,3,246,AS,exp,42,↑,up,↑,0.8013654998503625,True,20,1,0,3
Y2-S2-260K19,3,247,AS,exp,29,←,left,←,0.8234688001684844,True,19,1,0,3
Y2-S2-260K19,3,248,AS,exp,31,↑,up,↑,0.9978613997809589,True,19,1,0,3
Y2-S2-260K19,3,249,AS,exp,35,↓,down,↓,0.6852576001547277,True,19,1,0,3
Y2-S2-260K19,3,250,AS,exp,30,→,right,→,0.5312896003015339,True,18,1,0,3
Y2-S2-260K19,3,251,AS,exp,36,↓,down,↓,0.6687071998603642,True,18,1,0,3
Y2-S2-260K19,3,252,AS,exp,49,→,right,→,0.5556851997971535,True,18,1,0,3
Y2-S2-260K19,3,253,AS,exp,43,↓,down,↓,0.7105743000283837,True,17,1,0,3
Y2-S2-260K19,3,254,AS,exp,48,←,left,←,0.5785739002749324,True,17,1,0,3
Y2-S2-260K19,3,255,AS,exp,39,↓,left,←,0.8653074000030756,False,17,-1,1,4
Y2-S2-260K19,3,256,AS,exp,36,↑,up,↑,1.001803600229323,True,18,-1,0,4
Y2-S2-260K19,3,257,AS,exp,47,←,left,←,0.7316001001745462,True,18,-1,0,4
Y2-S2-260K19,3,258,AS,exp,32,↓,down,↓,1.001195500139147,True,18,1,1,5
Y2-S2-260K19,3,259,AS,exp,29,↑,up,↑,0.7320940997451544,True,17,1,0,5
Y2-S2-260K19,3,260,AS,exp,27,↓,down,↓,0.8331840997561812,True,17,1,0,5
Y2-S2-260K19,3,261,AS,exp,50,↑,up,↑,0.7179876998998225,True,17,1,0,5
Y2-S2-260K19,3,262,AS,exp,45,→,left,←,0.8405098002403975,False,16,-1,1,6
Y2-S2-260K19,3,263,AS,exp,43,↓,up,↑,1.2337034000083804,False,17,-1,0,6
Y2-S2-260K19,3,264,AS,exp,36,↑,up,↑,1.0155794997699559,True,18,-1,0,6
Y2-S2-260K19,3,265,AS,exp,42,→,right,→,0.7522899997420609,True,18,-1,0,6
Y2-S2-260K19,3,266,AS,exp,44,←,left,←,0.633893399965018,True,18,1,1,7
Y2-S2-260K19,3,267,AS,exp,26,↑,up,↑,0.7858996000140905,True,17,1,0,7
Y2-S2-260K19,3,268,AS,exp,26,→,left,←,0.9096162999048829,False,17,-1,1,8
Y2-S2-260K19,3,269,AS,exp,43,↓,up,↑,1.461989900097251,False,18,-1,0,8
Y2-S2-260K19,3,270,AS,exp,27,↑,left,←,1.1322837001644075,False,19,-1,0,8
Y2-S2-260K19,3,271,AS,exp,50,↓,down,↓,0.8209890001453459,True,20,-1,0,8
Y2-S2-260K19,3,272,AS,exp,25,→,right,→,0.6374053000472486,True,20,-1,0,8
Y2-S2-260K19,3,273,AS,exp,28,↑,left,←,0.7135354001075029,False,20,-1,0,8
Y2-S2-260K19,3,274,AS,exp,48,↓,down,↓,0.7204178003594279,True,21,-1,0,8
Y2-S2-260K19,3,275,AS,exp,31,↑,up,↑,1.3819745001383126,True,21,-1,0,8
Y2-S2-260K19,3,276,AS,exp,33,→,down,↓,0.8458443996496499,False,21,-1,0,8
Y2-S2-260K19,3,277,AS,exp,42,←,left,←,0.6612589000724256,True,22,-1,0,8
Y2-S2-260K19,3,278,AS,exp,46,↓,down,↓,0.7688428000546992,True,22,-1,0,8
Y2-S2-260K19,3,279,AS,exp,32,→,right,→,0.6624358999542892,True,22,1,1,9
Y2-S2-260K19,3,280,AS,exp,44,←,left,←,0.6301772999577224,True,21,1,0,9
Y2-S2-260K19,3,281,AS,exp,50,→,left,←,0.8982573999091983,False,21,-1,1,10
Y2-S2-260K19,3,282,AS,exp,42,↓,down,↓,1.1745027001015842,True,22,-1,0,10
Y2-S2-260K19,3,283,AS,exp,48,←,left,←,0.6375198001042008,True,22,-1,0,10
Y2-S2-260K19,3,284,AS,exp,29,→,right,→,0.9310750998556614,True,22,1,1,11
Y2-S2-260K19,3,285,AS,exp,31,↓,down,↓,0.819022299721837,True,21,1,0,11
Y2-S2-260K19,3,286,AS,exp,33,←,left,←,0.7485306998714805,True,21,1,0,11
Y2-S2-260K19,3,287,AS,exp,34,↓,down,↓,1.0303452997468412,True,21,1,0,11
Y2-S2-260K19,3,288,AS,exp,36,←,left,←,0.7542411000467837,True,20,1,0,11
Y2-S2-260K19,3,289,AS,exp,25,↓,left,←,0.8672978999093175,False,20,-1,1,12
Y2-S2-260K19,3,290,AS,exp,27,↑,up,↑,0.9226102000102401,True,21,-1,0,12
Y2-S2-260K19,3,291,AS,exp,45,↓,down,↓,1.0184173001907766,True,21,-1,0,12
Y2-S2-260K19,3,292,AS,exp,41,↑,up,↑,1.110120499972254,True,21,1,1,13
Y2-S2-260K19,3,293,AS,exp,35,↓,up,↑,1.2647253000177443,False,20,-1,1,14
Y2-S2-260K19,3,294,AS,exp,46,→,right,→,0.7107433998025954,True,21,-1,0,14
Y2-S2-260K19,3,295,AS,exp,31,↑,up,↑,0.9845198001712561,True,21,-1,0,14
Y2-S2-260K19,3,296,AS,exp,45,→,right,→,0.6272007999941707,True,21,1,1,15
Y2-S2-260K19,3,297,AS,exp,44,↓,down,↓,0.866100599989295,True,20,1,0,15
Y2-S2-260K19,3,298,AS,exp,29,←,left,←,0.838292000349611,True,20,1,0,15
Y2-S2-260K19,3,299,AS,exp,32,↓,down,↓,0.8327411999925971,True,20,1,0,15
Y2-S2-260K19,3,300,AS,exp,48,↑,up,↑,0.7875410998240113,True,19,1,0,15
Y2-S2-260K19,3,301,AS,exp,38,↓,down,↓,0.6922181001864374,True,19,1,0,15
Y2-S2-260K19,3,302,AS,exp,32,←,left,←,0.575074200052768,True,19,1,0,15
Y2-S2-260K19,3,303,AS,exp,27,→,right,→,0.7072917995974422,True,18,1,0,15
Y2-S2-260K19,3,304,AS,exp,49,↑,up,↑,0.9845231999643147,True,18,1,0,15
Y2-S2-260K19,3,305,AS,exp,48,↓,down,↓,0.7792405998334289,True,18,1,0,15
Y2-S2-260K19,3,306,AS,exp,48,↑,up,↑,0.8215650003403425,True,17,1,0,15
Y2-S2-260K19,3,307,AS,exp,39,↓,up,↑,0.8803456998430192,False,17,-1,1,16
Y2-S2-260K19,4,308,PS,intra_train,40,←,down,↓,1.0058411001227796,False,13,-,-,-
Y2-S2-260K19,4,309,PS,intra_train,35,→,right,→,0.6120605003088713,True,13,-,-,-
Y2-S2-260K19,4,310,PS,intra_train,31,←,left,←,0.6351685002446175,True,13,-,-,-
Y2-S2-260K19,4,311,PS,intra_train,35,↓,down,↓,0.7147276997566223,True,13,-,-,-
Y2-S2-260K19,4,312,PS,intra_train,45,↑,up,↑,0.7788404002785683,True,13,-,-,-
Y2-S2-260K19,4,313,PS,exp,50,←,left,←,0.8015951998531818,True,9,0,0,0
Y2-S2-260K19,4,314,PS,exp,37,↑,right,→,0.7971773999743164,False,9,-1,0,0
Y2-S2-260K19,4,315,PS,exp,43,↓,down,↓,0.6699067996814847,True,10,-1,0,0
Y2-S2-260K19,4,316,PS,exp,44,↑,left,←,0.7576449001207948,False,10,-1,0,0
Y2-S2-260K19,4,317,PS,exp,47,↓,down,↓,0.6726864003576338,True,11,-1,0,0
Y2-S2-260K19,4,318,PS,exp,25,→,right,→,0.6512980000115931,True,11,-1,0,0
Y2-S2-260K19,4,319,PS,exp,41,←,left,←,0.7535147001035511,True,11,1,1,1
Y2-S2-260K19,4,320,PS,exp,40,↓,down,↓,0.6240201001055539,True,10,1,0,1
Y2-S2-260K19,4,321,PS,exp,39,→,right,→,0.5645826002582908,True,10,1,0,1
Y2-S2-260K19,4,322,PS,exp,28,←,left,←,0.57568349968642,True,10,1,0,1
Y2-S2-260K19,4,323,PS,exp,28,→,left,←,0.6640347000211477,False,9,-1,1,2
Y2-S2-260K19,4,324,PS,exp,49,↓,left,←,0.7993161999620497,False,10,-1,0,2
Y2-S2-260K19,4,325,PS,exp,48,→,right,→,0.5831794003024697,True,11,-1,0,2
Y2-S2-260K19,4,326,PS,exp,45,↓,down,↓,0.7728749997913837,True,11,-1,0,2
Y2-S2-260K19,4,327,PS,exp,46,→,right,→,0.5397709999233484,True,11,1,1,3
Y2-S2-260K19,4,328,PS,exp,45,↑,up,↑,0.7937298999167979,True,10,1,0,3
Y2-S2-260K19,4,329,PS,exp,30,→,right,→,0.6500003999099135,True,10,1,0,3
Y2-S2-260K19,4,330,PS,exp,29,↑,left,←,0.8553049000911415,False,10,-1,1,4
Y2-S2-260K19,4,331,PS,exp,50,←,left,←,0.5921362997032702,True,11,-1,0,4
Y2-S2-260K19,4,332,PS,exp,31,↓,down,↓,0.7281281999312341,True,11,-1,0,4
Y2-S2-260K19,4,333,PS,exp,39,↑,up,↑,0.7233003000728786,True,11,1,1,5
Y2-S2-260K19,4,334,PS,exp,26,↓,down,↓,0.7329265000298619,True,10,1,0,5
Y2-S2-260K19,4,335,PS,exp,45,←,left,←,0.5190554996952415,True,10,1,0,5
Y2-S2-260K19,4,336,PS,exp,30,→,left,←,0.7702562999911606,False,10,-1,1,6
Y2-S2-260K19,4,337,PS,exp,45,←,left,←,0.5921287001110613,True,11,-1,0,6
Y2-S2-260K19,4,338,PS,exp,41,→,right,→,0.6921152002178133,True,11,-1,0,6
Y2-S2-260K19,4,339,PS,exp,28,←,left,←,0.5463082999922335,True,11,1,1,7
Y2-S2-260K19,4,340,PS,exp,43,→,right,→,0.6669180002063513,True,10,1,0,7
Y2-S2-260K19,4,341,PS,exp,27,↑,right,→,0.8139278003945947,False,10,-1,1,8
Y2-S2-260K19,4,342,PS,exp,32,→,right,→,0.5078591001220047,True,11,-1,0,8
Y2-S2-260K19,4,343,PS,exp,26,↓,down,↓,0.7698329999111593,True,11,-1,0,8
Y2-S2-260K19,4,344,PS,exp,38,←,right,→,0.6516308998689055,False,11,-1,0,8
Y2-S2-260K19,4,345,PS,exp,41,↑,up,↑,0.7863294002600014,True,12,-1,0,8
Y2-S2-260K19,4,346,PS,exp,47,←,right,→,0.8588239997625351,False,12,-1,0,8
Y2-S2-260K19,4,347,PS,exp,47,↑,up,↑,0.8113254001364112,True,13,-1,0,8
Y2-S2-260K19,4,348,PS,exp,33,↓,down,↓,0.722121600061655,True,13,-1,0,8
Y2-S2-260K19,4,349,PS,exp,41,→,right,→,0.5458649997599423,True,13,1,1,9
Y2-S2-260K19,4,350,PS,exp,26,↑,up,↑,0.7959853000938892,True,12,1,0,9
Y2-S2-260K19,4,351,PS,exp,31,←,left,←,0.5195531002245843,True,12,1,0,9
Y2-S2-260K19,4,352,PS,exp,29,↑,up,↑,0.8688489003106952,True,12,1,0,9
Y2-S2-260K19,4,353,PS,exp,46,↓,down,↓,0.771624700166285,True,11,1,0,9
Y2-S2-260K19,4,354,PS,exp,27,←,left,←,0.5050995000638068,True,11,1,0,9
Y2-S2-260K19,4,355,PS,exp,26,↓,down,↓,0.6494743996299803,True,11,1,0,9
Y2-S2-260K19,4,356,PS,exp,28,↑,up,↑,0.7113335002213717,True,10,1,0,9
Y2-S2-260K19,4,357,PS,exp,40,←,left,←,0.7246651002205908,True,10,1,0,9
Y2-S2-260K19,4,358,PS,exp,41,↑,up,↑,0.7755674999207258,True,10,1,0,9
Y2-S2-260K19,4,359,PS,exp,32,←,left,←,0.7704008999280632,True,9,1,0,9
Y2-S2-260K19,4,360,PS,exp,29,↓,left,←,0.7035204996354878,False,9,-1,1,10
Y2-S2-260K19,4,361,PS,exp,27,←,left,←,0.5118502001278102,True,10,-1,0,10
Y2-S2-260K19,4,362,PS,exp,40,→,right,→,0.5955559997819364,True,10,-1,0,10
Y2-S2-260K19,4,363,PS,exp,40,↓,down,↓,0.7765652001835406,True,10,1,1,11
Y2-S2-260K19,4,364,PS,exp,41,←,left,←,0.6513439998961985,True,9,1,0,11
Y2-S2-260K19,4,365,PS,exp,32,→,right,→,0.6184070003218949,True,9,1,0,11
Y2-S2-260K19,4,366,PS,exp,46,↓,down,↓,0.7302254000678658,True,9,1,0,11
Y2-S2-260K19,4,367,PS,exp,31,←,left,←,0.6308051003143191,True,8,1,0,11
Y2-S2-260K19,4,368,PS,exp,31,→,left,←,0.5884171999059618,False,8,-1,1,12
Y2-S2-260K19,4,369,PS,exp,29,↓,down,↓,0.6285365000367165,True,9,-1,0,12
Y2-S2-260K19,4,370,PS,exp,46,←,left,←,0.5844858000054955,True,9,-1,0,12
Y2-S2-260K19,4,371,PS,exp,28,→,right,→,0.5813458999618888,True,9,1,1,13
Y2-S2-260K19,4,372,PS,exp,26,↑,up,↑,0.7030532001517713,True,8,1,0,13
Y2-S2-260K19,4,373,PS,exp,39,→,right,→,0.6137053002603352,True,8,1,0,13
Y2-S2-260K19,4,374,PS,exp,50,←,down,↓,0.8768294998444617,False,8,-1,1,14
Y2-S2-260K19,4,375,PS,exp,35,↑,right,→,0.7898784000426531,False,9,-1,0,14
Y2-S2-260K19,4,376,PS,exp,25,→,right,→,0.5244648000225425,True,10,-1,0,14
Y2-S2-260K19,4,377,PS,exp,47,↓,down,↓,0.6811174997128546,True,10,-1,0,14
Y2-S2-260K19,4,378,PS,exp,35,←,left,←,0.506967700086534,True,10,1,1,15
Y2-S2-260K19,4,379,PS,exp,27,→,right,→,0.5274283001199365,True,9,1,0,15
Y2-S2-260K19,4,380,PS,exp,25,←,left,←,0.5492072002962232,True,9,1,0,15
Y2-S2-260K19,4,381,PS,exp,41,↑,right,→,0.7665161998011172,False,9,-1,1,16
Y2-S2-260K19,5,382,PS,intra_train,27,←,left,←,0.7537156003527343,True,13,-,-,-
Y2-S2-260K19,5,383,PS,intra_train,31,→,right,→,0.5357911000028253,True,13,-,-,-
Y2-S2-260K19,5,384,PS,intra_train,25,←,left,←,0.6194074000231922,True,13,-,-,-
Y2-S2-260K19,5,385,PS,intra_train,45,↓,right,→,0.7545634997077286,False,13,-,-,-
Y2-S2-260K19,5,386,PS,intra_train,38,→,right,→,0.7392986998893321,True,13,-,-,-
Y2-S2-260K19,5,387,PS,exp,27,←,left,←,0.6862490996718407,True,9,0,0,0
Y2-S2-260K19,5,388,PS,exp,28,↑,left,←,0.6960644000209868,False,9,-1,0,0
Y2-S2-260K19,5,389,PS,exp,31,←,left,←,0.5685684001073241,True,10,-1,0,0
Y2-S2-260K19,5,390,PS,exp,41,→,right,→,0.5491937999613583,True,10,-1,0,0
Y2-S2-260K19,5,391,PS,exp,44,↑,up,↑,0.8486880999989808,True,10,1,1,1
Y2-S2-260K19,5,392,PS,exp,46,↓,down,↓,0.9088022001087666,True,9,1,0,1
Y2-S2-260K19,5,393,PS,exp,32,←,right,→,0.9756334000267088,False,9,-1,1,2
Y2-S2-260K19,5,394,PS,exp,41,→,right,→,0.5455670999363065,True,10,-1,0,2
Y2-S2-260K19,5,395,PS,exp,37,↑,left,←,0.6256051999516785,False,10,-1,0,2
Y2-S2-260K19,5,396,PS,exp,47,↓,down,↓,0.6965395002625883,True,11,-1,0,2
Y2-S2-260K19,5,397,PS,exp,30,←,left,←,0.6216229000128806,True,11,-1,0,2
Y2-S2-260K19,5,398,PS,exp,46,↑,up,↑,0.7486570999026299,True,11,1,1,3
Y2-S2-260K19,5,399,PS,exp,43,↓,left,←,0.46065420005470514,False,10,-1,1,4
Y2-S2-260K19,5,400,PS,exp,40,←,left,←,0.6720400000922382,True,11,-1,0,4
Y2-S2-260K19,5,401,PS,exp,38,→,right,→,0.6098374002613127,True,11,-1,0,4
Y2-S2-260K19,5,402,PS,exp,29,←,left,←,0.6168452999554574,True,11,1,1,5
Y2-S2-260K19,5,403,PS,exp,49,↑,left,←,0.5131055000238121,False,10,-1,1,6
Y2-S2-260K19,5,404,PS,exp,44,↓,down,↓,0.729135500267148,True,11,-1,0,6
Y2-S2-260K19,5,405,PS,exp,25,←,left,←,0.5535130999051034,True,11,-1,0,6
Y2-S2-260K19,5,406,PS,exp,45,↓,left,←,0.6224279999732971,False,11,-1,0,6
Y2-S2-260K19,5,407,PS,exp,48,→,right,→,0.6001694998703897,True,12,-1,0,6
Y2-S2-260K19,5,408,PS,exp,36,↓,down,↓,0.6772049996070564,True,12,-1,0,6
Y2-S2-260K19,5,409,PS,exp,34,↑,up,↑,0.8997574998065829,True,12,1,1,7
Y2-S2-260K19,5,410,PS,exp,29,↓,left,←,0.8463347000069916,False,11,-1,1,8
Y2-S2-260K19,5,411,PS,exp,27,→,left,←,0.6971475998871028,False,12,-1,0,8
Y2-S2-260K19,5,412,PS,exp,27,←,left,←,0.6013841000385582,True,13,-1,0,8
Y2-S2-260K19,5,413,PS,exp,33,↓,left,←,0.517253499943763,False,13,-1,0,8
Y2-S2-260K19,5,414,PS,exp,48,←,left,←,0.6233944999985397,True,14,-1,0,8
Y2-S2-260K19,5,415,PS,exp,50,↓,down,↓,0.8719676001928747,True,14,-1,0,8
Y2-S2-260K19,5,416,PS,exp,26,←,left,←,0.5867268997244537,True,14,1,1,9
Y2-S2-260K19,5,417,PS,exp,40,→,right,→,0.7591714998707175,True,13,1,0,9
Y2-S2-260K19,5,418,PS,exp,41,←,left,←,0.5638510999269783,True,13,1,0,9
Y2-S2-260K19,5,419,PS,exp,47,↑,up,↑,0.7763044000603259,True,13,1,0,9
Y2-S2-260K19,5,420,PS,exp,39,↓,up,↑,0.9953548996709287,False,12,-1,1,10
Y2-S2-260K19,5,421,PS,exp,28,↑,up,↑,0.8247687998227775,True,13,-1,0,10
Y2-S2-260K19,5,422,PS,exp,49,←,left,←,0.5927292997948825,True,13,-1,0,10
Y2-S2-260K19,5,423,PS,exp,40,→,right,→,0.7159695001319051,True,13,1,1,11
Y2-S2-260K19,5,424,PS,exp,42,↓,right,→,0.9366290001198649,False,12,-1,1,12
Y2-S2-260K19,5,425,PS,exp,45,←,up,↑,0.9753616000525653,False,13,-1,0,12
Y2-S2-260K19,5,426,PS,exp,29,→,right,→,0.5667591001838446,True,14,-1,0,12
Y2-S2-260K19,5,427,PS,exp,28,↑,up,↑,0.9215382002294064,True,14,-1,0,12
Y2-S2-260K19,5,428,PS,exp,37,←,left,←,0.6150271003134549,True,14,1,1,13
Y2-S2-260K19,5,429,PS,exp,39,→,right,→,0.5627759001217782,True,13,1,0,13
Y2-S2-260K19,5,430,PS,exp,30,↓,down,↓,0.7749601001851261,True,13,1,0,13
Y2-S2-260K19,5,431,PS,exp,35,←,left,←,0.5075544002465904,True,13,1,0,13
Y2-S2-260K19,5,432,PS,exp,27,↑,left,←,0.637128499802202,False,12,-1,1,14
Y2-S2-260K19,5,433,PS,exp,25,→,right,→,0.6120850997976959,True,13,-1,0,14
Y2-S2-260K19,5,434,PS,exp,25,←,left,←,0.46630859980359674,True,13,-1,0,14
Y2-S2-260K19,5,435,PS,exp,28,→,right,→,0.5077907997183502,True,13,1,1,15
Y2-S2-260K19,5,436,PS,exp,43,←,left,←,0.6974736996926367,True,12,1,0,15
Y2-S2-260K19,5,437,PS,exp,33,↑,up,↑,1.0477026998996735,True,12,1,0,15
Y2-S2-260K19,5,438,PS,exp,47,←,left,←,0.5670651001855731,True,12,1,0,15
Y2-S2-260K19,5,439,PS,exp,43,↓,up,↑,0.9039234002120793,False,11,-1,1,16
Y2-S2-260K19,6,440,AS,intra_train,31,↑,up,↑,1.042456400115043,True,25,-,-,-
Y2-S2-260K19,6,441,AS,intra_train,46,←,left,←,0.808320099953562,True,25,-,-,-
Y2-S2-260K19,6,442,AS,intra_train,50,↓,down,↓,0.764119999948889,True,25,-,-,-
Y2-S2-260K19,6,443,AS,intra_train,37,↑,up,↑,0.7724009002558887,True,25,-,-,-
Y2-S2-260K19,6,444,AS,intra_train,34,↓,down,↓,0.900386800058186,True,25,-,-,-
Y2-S2-260K19,6,445,AS,exp,36,←,down,↓,0.9727459000423551,False,17,-1,0,0
Y2-S2-260K19,6,446,AS,exp,34,→,left,←,0.9219793998636305,False,18,-1,0,0
Y2-S2-260K19,6,447,AS,exp,48,↑,up,↑,0.8054893002845347,True,19,-1,0,0
Y2-S2-260K19,6,448,AS,exp,30,↓,up,↑,0.9644074998795986,False,19,-1,0,0
Y2-S2-260K19,6,449,AS,exp,35,←,left,←,0.6730633000843227,True,20,-1,0,0
Y2-S2-260K19,6,450,AS,exp,49,→,right,→,0.7584931999444962,True,20,-1,0,0
Y2-S2-260K19,6,451,AS,exp,49,↓,up,↑,0.8533859001472592,False,20,-1,0,0
Y2-S2-260K19,6,452,AS,exp,44,←,left,←,0.6987844002433121,True,21,-1,0,0
Y2-S2-260K19,6,453,AS,exp,50,↓,down,↓,0.9517377000302076,True,21,-1,0,0
Y2-S2-260K19,6,454,AS,exp,46,↑,up,↑,0.9669952001422644,True,21,1,1,1
Y2-S2-260K19,6,455,AS,exp,43,↓,left,←,1.054834199603647,False,20,-1,1,2
Y2-S2-260K19,6,456,AS,exp,26,↑,right,→,1.1250964002683759,False,21,-1,0,2
Y2-S2-260K19,6,457,AS,exp,25,→,right,→,0.5908889002166688,True,22,-1,0,2
Y2-S2-260K19,6,458,AS,exp,43,←,left,←,0.6650446997955441,True,22,-1,0,2
Y2-S2-260K19,6,459,AS,exp,29,↑,up,↑,1.0952669000253081,True,22,1,1,3
Y2-S2-260K19,6,460,AS,exp,50,←,left,←,0.6308252001181245,True,21,1,0,3
Y2-S2-260K19,6,461,AS,exp,39,↑,up,↑,1.020225299987942,True,21,1,0,3
Y2-S2-260K19,6,462,AS,exp,39,→,right,→,0.7850438999012113,True,21,1,0,3
Y2-S2-260K19,6,463,AS,exp,39,←,left,←,0.614136400166899,True,20,1,0,3
Y2-S2-260K19,6,464,AS,exp,26,↑,up,↑,0.7287002997472882,True,20,1,0,3
Y2-S2-260K19,6,465,AS,exp,26,←,left,←,0.6203314000740647,True,20,1,0,3
Y2-S2-260K19,6,466,AS,exp,26,↑,left,←,0.804024700075388,False,19,-1,1,4
Y2-S2-260K19,6,467,AS,exp,38,↓,down,↓,0.7029684004373848,True,20,-1,0,4
Y2-S2-260K19,6,468,AS,exp,50,↑,up,↑,0.7450232999399304,True,20,-1,0,4
Y2-S2-260K19,6,469,AS,exp,42,←,left,←,0.685062600299716,True,20,1,1,5
Y2-S2-260K19,6,470,AS,exp,34,→,right,→,0.8589453999884427,True,19,1,0,5
Y2-S2-260K19,6,471,AS,exp,46,↑,up,↑,0.9307512999512255,True,19,1,0,5
Y2-S2-260K19,6,472,AS,exp,42,←,left,←,0.7792412000708282,True,19,1,0,5
Y2-S2-260K19,6,473,AS,exp,26,→,right,→,0.6355739999562502,True,18,1,0,5
Y2-S2-260K19,6,474,AS,exp,46,↑,up,↑,1.0681050000712276,True,18,1,0,5
Y2-S2-260K19,6,475,AS,exp,26,↓,up,↑,0.9921050001867115,False,18,-1,1,6
Y2-S2-260K19,6,476,AS,exp,46,←,left,←,0.7330740001052618,True,19,-1,0,6
Y2-S2-260K19,6,477,AS,exp,47,→,right,→,0.6282780999317765,True,19,-1,0,6
Y2-S2-260K19,6,478,AS,exp,43,←,left,←,0.6925467001274228,True,19,1,1,7
Y2-S2-260K19,6,479,AS,exp,33,→,right,→,0.5410708002746105,True,18,1,0,7
Y2-S2-260K19,6,480,AS,exp,49,↓,down,↓,0.7131312997080386,True,18,1,0,7
Y2-S2-260K19,6,481,AS,exp,46,↑,left,←,0.9145449004136026,False,18,-1,1,8
Y2-S2-260K19,6,482,AS,exp,31,→,right,→,1.0042996001429856,True,19,-1,0,8
Y2-S2-260K19,6,483,AS,exp,34,↓,down,↓,1.0617947997525334,True,19,-1,0,8
Y2-S2-260K19,6,484,AS,exp,42,→,right,→,0.6799658997915685,True,19,1,1,9
Y2-S2-260K19,6,485,AS,exp,33,↓,right,→,0.924693999812007,False,18,-1,1,10
Y2-S2-260K19,6,486,AS,exp,29,→,right,→,0.7946377000771463,True,19,-1,0,10
Y2-S2-260K19,6,487,AS,exp,32,↓,down,↓,0.9809655998833477,True,19,-1,0,10
Y2-S2-260K19,6,488,AS,exp,28,→,right,→,0.8134356001392007,True,19,1,1,11
Y2-S2-260K19,6,489,AS,exp,43,←,left,←,0.832561600022018,True,18,1,0,11
Y2-S2-260K19,6,490,AS,exp,48,↑,up,↑,0.8739479002542794,True,18,1,0,11
Y2-S2-260K19,6,491,AS,exp,27,↓,down,↓,0.6829761997796595,True,18,1,0,11
Y2-S2-260K19,6,492,AS,exp,34,→,right,→,0.6084218001924455,True,17,1,0,11
Y2-S2-260K19,6,493,AS,exp,41,↓,down,↓,0.6938396999612451,True,17,1,0,11
Y2-S2-260K19,6,494,AS,exp,40,←,down,↓,0.880483299959451,False,17,-1,1,12
Y2-S2-260K19,6,495,AS,exp,34,↓,down,↓,0.6785774002783,True,18,-1,0,12
Y2-S2-260K19,6,496,AS,exp,49,→,right,→,0.9872829997912049,True,18,-1,0,12
Y2-S2-260K19,6,497,AS,exp,29,↑,up,↑,0.8531563999131322,True,18,1,1,13
Y2-S2-260K19,6,498,AS,exp,25,→,right,→,0.6729931002482772,True,17,1,0,13
Y2-S2-260K19,6,499,AS,exp,37,↓,up,↑,0.8703437000513077,False,17,-1,1,14
Y2-S2-260K19,6,500,AS,exp,25,→,right,→,0.5539673999883235,True,18,-1,0,14
Y2-S2-260K19,6,501,AS,exp,33,↓,left,←,0.5333785996772349,False,18,-1,0,14
Y2-S2-260K19,6,502,AS,exp,31,↑,up,↑,0.7786920000799,True,19,-1,0,14
Y2-S2-260K19,6,503,AS,exp,29,←,right,→,0.7785967998206615,False,19,-1,0,14
Y2-S2-260K19,6,504,AS,exp,39,↑,left,←,0.849611499812454,False,20,-1,0,14
Y2-S2-260K19,6,505,AS,exp,37,←,left,←,0.6175882997922599,True,21,-1,0,14
Y2-S2-260K19,6,506,AS,exp,48,→,left,←,0.7331015998497605,False,21,-1,0,14
Y2-S2-260K19,6,507,AS,exp,48,↓,down,↓,0.8880817000754178,True,22,-1,0,14
Y2-S2-260K19,6,508,AS,exp,48,↑,up,↑,0.8963576997630298,True,22,-1,0,14
Y2-S2-260K19,6,509,AS,exp,31,→,right,→,0.7556105996482074,True,22,1,1,15
Y2-S2-260K19,6,510,AS,exp,46,←,left,←,0.7963584996759892,True,21,1,0,15
Y2-S2-260K19,6,511,AS,exp,47,→,right,→,0.5868714000098407,True,21,1,0,15
Y2-S2-260K19,6,512,AS,exp,36,↑,up,↑,1.0133229000493884,True,21,1,0,15
Y2-S2-260K19,6,513,AS,exp,47,↓,down,↓,0.7162687997333705,True,20,1,0,15
Y2-S2-260K19,6,514,AS,exp,43,←,left,←,0.5750779998488724,True,20,1,0,15
Y2-S2-260K19,6,515,AS,exp,48,↓,down,↓,0.6986992000602186,True,20,1,0,15
Y2-S2-260K19,6,516,AS,exp,27,→,right,→,0.6156036001630127,True,19,1,0,15
Y2-S2-260K19,6,517,AS,exp,34,←,left,←,0.557160799857229,True,19,1,0,15
Y2-S2-260K19,6,518,AS,exp,34,↑,up,↑,0.8389204996638,True,19,1,0,15
Y2-S2-260K19,6,519,AS,exp,43,↓,up,↑,1.057931900024414,False,18,-1,1,16
Y2-S2-260K19,7,520,AS,intra_train,39,←,left,←,0.8234278997406363,True,25,-,-,-
Y2-S2-260K19,7,521,AS,intra_train,42,↑,up,↑,0.6868708999827504,True,25,-,-,-
Y2-S2-260K19,7,522,AS,intra_train,33,↓,down,↓,0.8269432000815868,True,25,-,-,-
Y2-S2-260K19,7,523,AS,intra_train,46,←,left,←,0.715850000269711,True,25,-,-,-
Y2-S2-260K19,7,524,AS,intra_train,28,↑,up,↑,0.7501097000204027,True,25,-,-,-
Y2-S2-260K19,7,525,AS,exp,47,↓,down,↓,0.7747411001473665,True,17,0,0,0
Y2-S2-260K19,7,526,AS,exp,34,←,right,→,0.6041129999794066,False,17,-1,0,0
Y2-S2-260K19,7,527,AS,exp,28,→,left,←,0.8655431000515819,False,18,-1,0,0
Y2-S2-260K19,7,528,AS,exp,46,↓,down,↓,0.7975401999428868,True,19,-1,0,0
Y2-S2-260K19,7,529,AS,exp,30,→,right,→,0.6936111999675632,True,19,-1,0,0
Y2-S2-260K19,7,530,AS,exp,38,↓,left,←,0.8420278001576662,False,19,-1,0,0
Y2-S2-260K19,7,531,AS,exp,26,↑,up,↑,0.9542549001052976,True,20,-1,0,0
Y2-S2-260K19,7,532,AS,exp,27,→,right,→,0.7864736001938581,True,20,-1,0,0
Y2-S2-260K19,7,533,AS,exp,34,↑,up,↑,0.9296034001745284,True,20,1,1,1
Y2-S2-260K19,7,534,AS,exp,25,←,left,←,0.6343485997058451,True,19,1,0,1
Y2-S2-260K19,7,535,AS,exp,36,→,left,←,0.7812728001736104,False,19,-1,1,2
Y2-S2-260K19,7,536,AS,exp,28,↓,left,←,0.9631158001720905,False,20,-1,0,2
Y2-S2-260K19,7,537,AS,exp,28,↑,left,←,0.7524602003395557,False,21,-1,0,2
Y2-S2-260K19,7,538,AS,exp,41,↓,down,↓,0.9801330999471247,True,22,-1,0,2
Y2-S2-260K19,7,539,AS,exp,44,↑,up,↑,0.8142904001288116,True,22,-1,0,2
Y2-S2-260K19,7,540,AS,exp,43,→,right,→,0.5487129003740847,True,22,1,1,3
Y2-S2-260K19,7,541,AS,exp,26,←,left,←,0.751452500000596,True,21,1,0,3
Y2-S2-260K19,7,542,AS,exp,27,↑,up,↑,0.80313970008865,True,21,1,0,3
Y2-S2-260K19,7,543,AS,exp,29,←,left,←,0.6120306001976132,True,21,1,0,3
Y2-S2-260K19,7,544,AS,exp,36,→,right,→,0.573450299911201,True,20,1,0,3
Y2-S2-260K19,7,545,AS,exp,39,↑,up,↑,1.1776992999948561,True,20,1,0,3
Y2-S2-260K19,7,546,AS,exp,38,←,left,←,0.6054179999046028,True,20,1,0,3
Y2-S2-260K19,7,547,AS,exp,35,→,right,→,0.7870736001059413,True,19,1,0,3
Y2-S2-260K19,7,548,AS,exp,40,←,left,←,0.659383499994874,True,19,1,0,3
Y2-S2-260K19,7,549,AS,exp,27,→,right,→,1.6901908996514976,True,19,1,0,3
Y2-S2-260K19,7,550,AS,exp,38,↓,left,←,0.6331933001056314,False,18,-1,1,4
Y2-S2-260K19,7,551,AS,exp,45,→,right,→,0.7470562001690269,True,19,-1,0,4
Y2-S2-260K19,7,552,AS,exp,38,←,right,→,0.8265533000230789,False,19,-1,0,4
Y2-S2-260K19,7,553,AS,exp,40,→,right,→,0.7689152997918427,True,20,-1,0,4
Y2-S2-260K19,7,554,AS,exp,33,↑,up,↑,1.0531178996898234,True,20,-1,0,4
Y2-S2-260K19,7,555,AS,exp,37,←,up,↑,1.0543120000511408,False,20,-1,0,4
Y2-S2-260K19,7,556,AS,exp,27,↑,up,↑,0.8715003998950124,True,21,-1,0,4
Y2-S2-260K19,7,557,AS,exp,45,→,right,→,0.7817735001444817,True,21,-1,0,4
Y2-S2-260K19,7,558,AS,exp,36,↓,up,↑,1.1331809996627271,False,21,-1,0,4
Y2-S2-260K19,7,559,AS,exp,37,←,left,←,0.7178636002354324,True,22,-1,0,4
Y2-S2-260K19,7,560,AS,exp,43,↑,up,↑,0.7529811998829246,True,22,-1,0,4
Y2-S2-260K19,7,561,AS,exp,34,←,left,←,0.6948989001102746,True,22,1,1,5
Y2-S2-260K19,7,562,AS,exp,44,↓,down,↓,0.7304191999137402,True,21,1,0,5
Y2-S2-260K19,7,563,AS,exp,36,→,right,→,0.9337591999210417,True,21,1,0,5
Y2-S2-260K19,7,564,AS,exp,42,↑,up,↑,0.7492909003049135,True,21,1,0,5
Y2-S2-260K19,7,565,AS,exp,35,←,left,←,0.6056550000794232,True,20,1,0,5
Y2-S2-260K19,7,566,AS,exp,27,↓,left,←,0.6426283996552229,False,20,-1,1,6
Y2-S2-260K19,7,567,AS,exp,30,←,left,←,0.6860039997845888,True,21,-1,0,6
Y2-S2-260K19,7,568,AS,exp,38,↓,left,←,0.9401448001153767,False,21,-1,0,6
Y2-S2-260K19,7,569,AS,exp,34,↑,up,↑,0.8050672002136707,True,22,-1,0,6
Y2-S2-260K19,7,570,AS,exp,48,←,left,←,0.8207418001256883,True,22,-1,0,6
Y2-S2-260K19,7,571,AS,exp,31,↑,up,↑,0.7820735997520387,True,22,1,1,7
Y2-S2-260K19,7,572,AS,exp,41,↓,down,↓,0.8711325000040233,True,21,1,0,7
Y2-S2-260K19,7,573,AS,exp,46,→,right,→,0.7874759002588689,True,21,1,0,7
Y2-S2-260K19,7,574,AS,exp,26,↑,up,↑,0.7001346000470221,True,21,1,0,7
Y2-S2-260K19,7,575,AS,exp,38,→,right,→,0.5452561997808516,True,20,1,0,7
Y2-S2-260K19,7,576,AS,exp,49,←,left,←,0.7721258997917175,True,20,1,0,7
Y2-S2-260K19,7,577,AS,exp,26,↓,down,↓,1.1476003001444042,True,20,1,0,7
Y2-S2-260K19,7,578,AS,exp,45,→,right,→,0.6878982000052929,True,19,1,0,7
Y2-S2-260K19,7,579,AS,exp,36,←,left,←,0.6648901998996735,True,19,1,0,7
Y2-S2-260K19,7,580,AS,exp,39,→,right,→,0.5774473999626935,True,19,1,0,7
Y2-S2-260K19,7,581,AS,exp,46,←,left,←,0.6221815999597311,True,18,1,0,7
Y2-S2-260K19,7,582,AS,exp,41,↑,left,←,0.9145884998142719,False,18,-1,1,8
Y2-S2-260K19,7,583,AS,exp,27,←,left,←,0.8093402003869414,True,19,-1,0,8
Y2-S2-260K19,7,584,AS,exp,49,↓,down,↓,0.7132071000523865,True,19,-1,0,8
Y2-S2-260K19,7,585,AS,exp,32,←,left,←,0.8304844000376761,True,19,1,1,9
Y2-S2-260K19,7,586,AS,exp,45,↑,left,←,0.9657668001018465,False,18,-1,1,10
Y2-S2-260K19,7,587,AS,exp,34,←,left,←,0.662016499787569,True,19,-1,0,10
Y2-S2-260K19,7,588,AS,exp,34,↓,down,↓,0.7615538998506963,True,19,-1,0,10
Y2-S2-260K19,7,589,AS,exp,33,←,left,←,0.9020728999748826,True,19,1,1,11
Y2-S2-260K19,7,590,AS,exp,43,→,left,←,0.6325242002494633,False,18,-1,1,12
Y2-S2-260K19,7,591,AS,exp,25,↑,up,↑,0.6610385999083519,True,19,-1,0,12
Y2-S2-260K19,7,592,AS,exp,41,↓,left,←,1.1513509000651538,False,19,-1,0,12
Y2-S2-260K19,7,593,AS,exp,41,→,right,→,0.5646783001720905,True,20,-1,0,12
Y2-S2-260K19,7,594,AS,exp,26,←,left,←,0.6581953000277281,True,20,-1,0,12
Y2-S2-260K19,7,595,AS,exp,48,↓,down,↓,0.834992399904877,True,20,1,1,13
Y2-S2-260K19,7,596,AS,exp,50,↑,down,↓,0.7695331000722945,False,19,-1,1,14
Y2-S2-260K19,7,597,AS,exp,32,←,left,←,0.6477335002273321,True,20,-1,0,14
Y2-S2-260K19,7,598,AS,exp,37,→,right,→,0.7294373996555805,True,20,-1,0,14
Y2-S2-260K19,7,599,AS,exp,45,↑,up,↑,0.8975776000879705,True,20,1,1,15
Y2-S2-260K19,7,600,AS,exp,25,↓,down,↓,0.7146256002597511,True,19,1,0,15
Y2-S2-260K19,7,601,AS,exp,41,←,left,←,0.7827051999047399,True,19,1,0,15
Y2-S2-260K19,7,602,AS,exp,25,→,right,→,0.5386108001694083,True,19,1,0,15
Y2-S2-260K19,7,603,AS,exp,29,↑,up,↑,0.8117606001906097,True,18,1,0,15
Y2-S2-260K19,7,604,AS,exp,35,→,right,→,0.7097841999493539,True,18,1,0,15
Y2-S2-260K19,7,605,AS,exp,33,↑,up,↑,0.5285804998129606,True,18,1,0,15
Y2-S2-260K19,7,606,AS,exp,25,↓,down,↓,0.675836100243032,True,17,1,0,15
Y2-S2-260K19,7,607,AS,exp,28,→,right,→,0.7049421002157032,True,17,1,0,15
Y2-S2-260K19,7,608,AS,exp,34,↑,up,↑,0.6596093000844121,True,17,1,0,15
Y2-S2-260K19,7,609,AS,exp,38,←,right,→,1.0852175997570157,False,16,-1,1,16
Y2-S2-260K19,8,610,PS,intra_train,44,↑,up,↑,0.9274805998429656,True,13,-,-,-
Y2-S2-260K19,8,611,PS,intra_train,35,→,right,→,0.5962751000188291,True,13,-,-,-
Y2-S2-260K19,8,612,PS,intra_train,46,↑,up,↑,0.6735221003182232,True,13,-,-,-
Y2-S2-260K19,8,613,PS,intra_train,28,↓,down,↓,0.7266509002074599,True,13,-,-,-
Y2-S2-260K19,8,614,PS,intra_train,29,←,down,↓,0.9006352000869811,False,13,-,-,-
Y2-S2-260K19,8,615,PS,exp,39,↑,up,↑,0.7792679998092353,True,9,0,0,0
Y2-S2-260K19,8,616,PS,exp,27,→,right,→,0.5443486999720335,True,9,0,0,0
Y2-S2-260K19,8,617,PS,exp,26,↓,down,↓,0.6802635998465121,True,9,1,0,0
Y2-S2-260K19,8,618,PS,exp,27,↑,up,↑,0.6644167001359165,True,8,1,0,0
Y2-S2-260K19,8,619,PS,exp,34,↓,down,↓,0.7032053000293672,True,8,1,0,0
Y2-S2-260K19,8,620,PS,exp,41,←,up,↑,0.8441452002152801,False,8,-1,1,1
Y2-S2-260K19,8,621,PS,exp,26,↑,up,↑,0.6121958000585437,True,9,-1,0,1
Y2-S2-260K19,8,622,PS,exp,30,↓,up,↑,0.7420739000663161,False,9,-1,0,1
Y2-S2-260K19,8,623,PS,exp,49,→,right,→,0.6113526001572609,True,10,-1,0,1
Y2-S2-260K19,8,624,PS,exp,43,←,left,←,0.564850099850446,True,10,-1,0,1
Y2-S2-260K19,8,625,PS,exp,39,↑,up,↑,0.742399400100112,True,10,1,1,2
Y2-S2-260K19,8,626,PS,exp,44,→,up,↑,0.6679384000599384,False,9,-1,1,3
Y2-S2-260K19,8,627,PS,exp,34,←,up,↑,0.6420839997008443,False,10,-1,0,3
Y2-S2-260K19,8,628,PS,exp,33,↑,up,↑,0.6081091999076307,True,11,-1,0,3
Y2-S2-260K19,8,629,PS,exp,31,↓,up,↑,0.8306374000385404,False,11,-1,0,3
Y2-S2-260K19,8,630,PS,exp,40,↑,up,↑,0.592780000064522,True,12,-1,0,3
Y2-S2-260K19,8,631,PS,exp,49,↓,down,↓,0.7168874000199139,True,12,-1,0,3
Y2-S2-260K19,8,632,PS,exp,36,→,right,→,0.6748518999665976,True,12,1,1,4
Y2-S2-260K19,8,633,PS,exp,44,↓,down,↓,0.7489299001172185,True,11,1,0,4
Y2-S2-260K19,8,634,PS,exp,47,↑,up,↑,0.7232776000164449,True,11,1,0,4
Y2-S2-260K19,8,635,PS,exp,39,→,left,←,0.89142100000754,False,11,-1,1,5
Y2-S2-260K19,8,636,PS,exp,26,←,left,←,0.6027445998042822,True,12,-1,0,5
Y2-S2-260K19,8,637,PS,exp,27,↑,left,←,0.7408706001006067,False,12,-1,0,5
Y2-S2-260K19,8,638,PS,exp,46,←,right,→,0.7375965001992881,False,13,-1,0,5
Y2-S2-260K19,8,639,PS,exp,31,↓,down,↓,0.6819625999778509,True,14,-1,0,5
Y2-S2-260K19,8,640,PS,exp,36,←,left,←,0.6337214997038245,True,14,-1,0,5
Y2-S2-260K19,8,641,PS,exp,46,↓,down,↓,0.5828400999307632,True,14,1,1,6
Y2-S2-260K19,8,642,PS,exp,32,↑,up,↑,0.697567599825561,True,13,1,0,6
Y2-S2-260K19,8,643,PS,exp,34,←,left,←,0.6324633001349866,True,13,1,0,6
Y2-S2-260K19,8,644,PS,exp,47,→,left,←,0.8613693001680076,False,13,-1,1,7
Y2-S2-260K19,8,645,PS,exp,42,←,left,←,0.5723995002917945,True,14,-1,0,7
Y2-S2-260K19,8,646,PS,exp,44,↓,down,↓,0.7457890999503434,True,14,-1,0,7
Y2-S2-260K19,8,647,PS,exp,41,→,right,→,0.6132610999047756,True,14,1,1,8
Y2-S2-260K19,8,648,PS,exp,28,↑,up,↑,0.6956688002683222,True,13,1,0,8
Y2-S2-260K19,8,649,PS,exp,31,←,down,↓,0.8961380999535322,False,13,-1,1,9
Y2-S2-260K19,8,650,PS,exp,46,↑,down,↓,0.6863023000769317,False,14,-1,0,9
Y2-S2-260K19,8,651,PS,exp,45,→,right,→,0.6702050003223121,True,15,-1,0,9
Y2-S2-260K19,8,652,PS,exp,31,↑,up,↑,0.733776300214231,True,15,-1,0,9
Y2-S2-260K19,8,653,PS,exp,47,↓,down,↓,0.8440954000689089,True,15,1,1,10
Y2-S2-260K19,8,654,PS,exp,42,↑,up,↑,0.6283972999081016,True,14,1,0,10
Y2-S2-260K19,8,655,PS,exp,40,→,right,→,0.5534743000753224,True,14,1,0,10
Y2-S2-260K19,8,656,PS,exp,49,←,left,←,0.6453296998515725,True,14,1,0,10
Y2-S2-260K19,8,657,PS,exp,43,↓,down,↓,0.6277133002877235,True,13,1,0,10
Y2-S2-260K19,8,658,PS,exp,34,→,right,→,0.629929100163281,True,13,1,0,10
Y2-S2-260K19,8,659,PS,exp,40,↓,down,↓,0.6836374998092651,True,13,1,0,10
Y2-S2-260K19,8,660,PS,exp,37,↑,up,↑,0.6317588002420962,True,12,1,0,10
Y2-S2-260K19,8,661,PS,exp,27,↓,left,←,0.8464489998295903,False,12,-1,1,11
Y2-S2-260K19,8,662,PS,exp,49,←,left,←,0.6445936998352408,True,13,-1,0,11
Y2-S2-260K19,8,663,PS,exp,42,→,right,→,0.4443934001028538,True,13,-1,0,11
Y2-S2-260K19,8,664,PS,exp,27,↑,left,←,0.8616383001208305,False,13,-1,0,11
Y2-S2-260K19,8,665,PS,exp,44,↓,down,↓,0.6035197996534407,True,14,-1,0,11
Y2-S2-260K19,8,666,PS,exp,46,←,left,←,0.5768496003001928,True,14,-1,0,11
Y2-S2-260K19,8,667,PS,exp,28,↓,down,↓,0.6105806999839842,True,14,1,1,12
Y2-S2-260K19,8,668,PS,exp,31,↑,up,↑,0.7857199003919959,True,13,1,0,12
Y2-S2-260K19,8,669,PS,exp,38,→,right,→,0.7210248000919819,True,13,1,0,12
Y2-S2-260K19,8,670,PS,exp,43,←,left,←,0.6419998998753726,True,13,1,0,12
Y2-S2-260K19,8,671,PS,exp,36,↑,up,↑,0.6212247000075877,True,12,1,0,12
Y2-S2-260K19,8,672,PS,exp,25,←,left,←,0.5779548999853432,True,12,1,0,12
Y2-S2-260K19,8,673,PS,exp,34,↑,up,↑,0.6665110001340508,True,12,1,0,12
Y2-S2-260K19,8,674,PS,exp,43,←,left,←,0.4762734002433717,True,11,1,0,12
Y2-S2-260K19,8,675,PS,exp,27,→,left,←,0.6513441000133753,False,11,-1,1,13
Y2-S2-260K19,8,676,PS,exp,46,↓,down,↓,0.7286791000515223,True,12,-1,0,13
Y2-S2-260K19,8,677,PS,exp,35,←,left,←,0.5248229997232556,True,12,-1,0,13
Y2-S2-260K19,8,678,PS,exp,43,↓,down,↓,0.5985703999176621,True,12,1,1,14
Y2-S2-260K19,8,679,PS,exp,31,→,right,→,0.7261053998954594,True,11,1,0,14
Y2-S2-260K19,8,680,PS,exp,38,←,left,←,0.6580370999872684,True,11,1,0,14
Y2-S2-260K19,8,681,PS,exp,40,↑,up,↑,0.7009305995889008,True,11,1,0,14
Y2-S2-260K19,8,682,PS,exp,43,←,left,←,0.6609642002731562,True,10,1,0,14
Y2-S2-260K19,8,683,PS,exp,38,↓,down,↓,0.5960210999473929,True,10,1,0,14
Y2-S2-260K19,8,684,PS,exp,37,↑,up,↑,0.7629729998297989,True,10,1,0,14
Y2-S2-260K19,8,685,PS,exp,30,←,left,←,0.5075126998126507,True,9,1,0,14
Y2-S2-260K19,8,686,PS,exp,27,→,right,→,0.5160101000219584,True,9,1,0,14
Y2-S2-260K19,8,687,PS,exp,31,↓,left,←,0.7764868000522256,False,9,-1,1,15
Y2-S2-260K19,8,688,PS,exp,41,→,right,→,0.49297240003943443,True,10,-1,0,15
Y2-S2-260K19,8,689,PS,exp,27,←,left,←,0.5027103000320494,True,10,-1,0,15
Y2-S2-260K19,8,690,PS,exp,32,↓,up,↑,0.842784599866718,False,10,-1,0,15
Y2-S2-260K19,8,691,PS,exp,36,←,left,←,0.5546528003178537,True,11,-1,0,15
Y2-S2-260K19,8,692,PS,exp,34,→,left,←,0.6676695998758078,False,11,-1,0,15
Y2-S2-260K19,8,693,PS,exp,35,←,left,←,0.6352197001688182,True,12,-1,0,15
Y2-S2-260K19,8,694,PS,exp,29,↑,up,↑,0.6116332001984119,True,12,-1,0,15
Y2-S2-260K19,8,695,PS,exp,33,←,left,←,0.6620420999825001,True,12,1,1,16
