PART_ID,Block_no,Trial_no,Block_type,Trial_type,CSI,Stim_letter,Key_pressed,letter_choose,Rt,Corr,Stimulus Time,Level,Reversal,Revs_count
Y2-S2-186K19,1,1,PS,train,36,↑,up,↑,0.6982370999176055,True,30,-,-,-
Y2-S2-186K19,1,2,PS,train,50,←,left,←,0.7798454000148922,True,30,-,-,-
Y2-S2-186K19,1,3,PS,train,50,→,right,→,0.8365511998999864,True,30,-,-,-
Y2-S2-186K19,1,4,PS,train,43,↑,up,↑,0.5335836000740528,True,30,-,-,-
Y2-S2-186K19,1,5,PS,train,25,→,right,→,0.8762441999278963,True,30,-,-,-
Y2-S2-186K19,1,6,PS,train,49,↑,up,↑,1.0495613999664783,True,30,-,-,-
Y2-S2-186K19,1,7,PS,train,34,←,left,←,0.7521244001109153,True,30,-,-,-
Y2-S2-186K19,1,8,PS,train,32,→,right,→,0.5337916000280529,True,30,-,-,-
Y2-S2-186K19,1,9,PS,train,44,←,left,←,0.5671522000338882,True,30,-,-,-
Y2-S2-186K19,1,10,PS,train,48,↓,down,↓,0.952348800143227,True,30,-,-,-
Y2-S2-186K19,2,11,AS,train,42,↑,up,↑,0.7340004001744092,True,45,-,-,-
Y2-S2-186K19,2,12,AS,train,43,↓,down,↓,0.7502335000317544,True,45,-,-,-
Y2-S2-186K19,2,13,AS,train,45,←,left,←,0.6179766999557614,True,45,-,-,-
Y2-S2-186K19,2,14,AS,train,43,↓,down,↓,0.7339182000141591,True,45,-,-,-
Y2-S2-186K19,2,15,AS,train,41,→,right,→,0.6843818000052124,True,45,-,-,-
Y2-S2-186K19,2,16,AS,train,43,↓,down,↓,0.8338675000704825,True,45,-,-,-
Y2-S2-186K19,2,17,AS,train,47,→,right,→,0.8343328998889774,True,45,-,-,-
Y2-S2-186K19,2,18,AS,train,36,↓,down,↓,0.9689565999433398,True,45,-,-,-
Y2-S2-186K19,2,19,AS,train,27,↑,up,↑,0.8180291000753641,True,45,-,-,-
Y2-S2-186K19,2,20,AS,train,36,↓,down,↓,0.6510830000042915,True,45,-,-,-
Y2-S2-186K19,-,21,PS,adaptive,25,←,left,←,0.4586847999598831,True,10,0,0,0
Y2-S2-186K19,-,22,PS,adaptive,48,↓,down,↓,0.6188350000884384,True,10,0,0,0
Y2-S2-186K19,-,23,PS,adaptive,25,→,right,→,0.6945293999742717,True,10,1,0,0
Y2-S2-186K19,-,24,PS,adaptive,42,←,left,←,0.561362799955532,True,9,1,0,0
Y2-S2-186K19,-,25,PS,adaptive,30,→,right,→,0.6988197001628578,True,9,1,0,0
Y2-S2-186K19,-,26,PS,adaptive,41,←,right,→,0.4438239000737667,False,9,-1,1,1
Y2-S2-186K19,-,27,PS,adaptive,36,↑,right,→,0.7989533001091331,False,10,-1,0,1
Y2-S2-186K19,-,28,PS,adaptive,49,→,left,←,0.7340051999781281,False,11,-1,0,1
Y2-S2-186K19,-,29,PS,adaptive,41,↑,left,←,0.8311413999181241,False,12,-1,0,1
Y2-S2-186K19,-,30,PS,adaptive,40,←,left,←,0.560202700085938,True,13,-1,0,1
Y2-S2-186K19,-,31,PS,adaptive,30,↑,up,↑,0.514097600011155,True,13,-1,0,1
Y2-S2-186K19,-,32,PS,adaptive,34,→,right,→,1.3775543000083417,True,13,1,1,2
Y2-S2-186K19,-,33,PS,adaptive,44,←,right,→,0.6480928999371827,False,12,-1,1,3
Y2-S2-186K19,-,34,PS,adaptive,33,→,right,→,0.5512735999654979,True,13,-1,0,3
Y2-S2-186K19,-,35,PS,adaptive,35,↑,up,↑,0.593741999939084,True,13,-1,0,3
Y2-S2-186K19,-,36,PS,adaptive,38,↓,down,↓,0.6444245998281986,True,13,1,1,4
Y2-S2-186K19,-,37,AS,adaptive,49,←,left,←,0.5458707998041064,True,20,0,0,0
Y2-S2-186K19,-,38,AS,adaptive,33,↑,up,↑,0.6370973000302911,True,20,0,0,0
Y2-S2-186K19,-,39,AS,adaptive,26,←,left,←,0.6558530000038445,True,20,1,0,0
Y2-S2-186K19,-,40,AS,adaptive,27,↓,up,↑,0.890354200033471,False,19,-1,1,1
Y2-S2-186K19,-,41,AS,adaptive,46,→,right,→,0.6768689001910388,True,20,-1,0,1
Y2-S2-186K19,-,42,AS,adaptive,33,←,left,←,0.5676185998599976,True,20,-1,0,1
Y2-S2-186K19,-,43,AS,adaptive,38,↓,down,↓,0.738878000061959,True,20,1,1,2
Y2-S2-186K19,-,44,AS,adaptive,31,←,left,←,0.5899425998795778,True,19,1,0,2
Y2-S2-186K19,-,45,AS,adaptive,50,→,right,→,0.782027600100264,True,19,1,0,2
Y2-S2-186K19,-,46,AS,adaptive,48,←,left,←,0.5456561001483351,True,19,1,0,2
Y2-S2-186K19,-,47,AS,adaptive,28,↓,right,→,1.0557823998387903,False,18,-1,1,3
Y2-S2-186K19,-,48,AS,adaptive,41,→,down,↓,1.3394480000715703,False,19,-1,0,3
Y2-S2-186K19,-,49,AS,adaptive,40,↑,right,→,0.8172941999509931,False,20,-1,0,3
Y2-S2-186K19,-,50,AS,adaptive,41,↓,down,↓,0.7342689000070095,True,21,-1,0,3
Y2-S2-186K19,-,51,AS,adaptive,29,↑,up,↑,0.7348674999084324,True,21,-1,0,3
Y2-S2-186K19,-,52,AS,adaptive,38,↓,down,↓,0.6980260000564158,True,21,1,1,4
Y2-S2-186K19,1,53,AS,intra_train,47,→,right,→,0.7829029997810721,True,30,-,-,-
Y2-S2-186K19,1,54,AS,intra_train,38,↑,up,↑,0.6873312001116574,True,30,-,-,-
Y2-S2-186K19,1,55,AS,intra_train,30,→,right,→,0.7410089999902993,True,30,-,-,-
Y2-S2-186K19,1,56,AS,intra_train,27,↑,up,↑,0.8193564000539482,True,30,-,-,-
Y2-S2-186K19,1,57,AS,intra_train,30,↓,down,↓,0.8409331999719143,True,30,-,-,-
Y2-S2-186K19,1,58,AS,exp,28,↑,up,↑,0.8931294998619705,True,20,0,0,0
Y2-S2-186K19,1,59,AS,exp,25,↓,down,↓,0.6840687999501824,True,20,0,0,0
Y2-S2-186K19,1,60,AS,exp,48,←,left,←,0.5303263999521732,True,20,1,0,0
Y2-S2-186K19,1,61,AS,exp,50,↓,up,↑,0.9396615999285132,False,19,-1,1,1
Y2-S2-186K19,1,62,AS,exp,33,↑,up,↑,0.7376485001295805,True,20,-1,0,1
Y2-S2-186K19,1,63,AS,exp,50,↓,down,↓,0.7315481000114232,True,20,-1,0,1
Y2-S2-186K19,1,64,AS,exp,48,→,right,→,0.8719058998394758,True,20,1,1,2
Y2-S2-186K19,1,65,AS,exp,37,↑,right,→,1.0576055999845266,False,19,-1,1,3
Y2-S2-186K19,1,66,AS,exp,41,↓,down,↓,0.6735962999518961,True,20,-1,0,3
Y2-S2-186K19,1,67,AS,exp,50,↑,up,↑,0.6406481000594795,True,20,-1,0,3
Y2-S2-186K19,1,68,AS,exp,39,↓,down,↓,0.7566008998546749,True,20,1,1,4
Y2-S2-186K19,1,69,AS,exp,50,→,right,→,0.6580199999734759,True,19,1,0,4
Y2-S2-186K19,1,70,AS,exp,33,↓,down,↓,0.959703000029549,True,19,1,0,4
Y2-S2-186K19,1,71,AS,exp,27,↑,down,↓,0.7847822001203895,False,19,-1,1,5
Y2-S2-186K19,1,72,AS,exp,25,↓,down,↓,0.7028551998082548,True,20,-1,0,5
Y2-S2-186K19,1,73,AS,exp,30,→,right,→,0.7657672001514584,True,20,-1,0,5
Y2-S2-186K19,1,74,AS,exp,45,↑,up,↑,0.7751269999425858,True,20,1,1,6
Y2-S2-186K19,1,75,AS,exp,26,←,left,←,0.6173272000160068,True,19,1,0,6
Y2-S2-186K19,1,76,AS,exp,43,↑,up,↑,0.7595982998609543,True,19,1,0,6
Y2-S2-186K19,1,77,AS,exp,35,←,left,←,0.5271743999328464,True,19,1,0,6
Y2-S2-186K19,1,78,AS,exp,44,→,right,→,0.575746500166133,True,18,1,0,6
Y2-S2-186K19,1,79,AS,exp,31,←,left,←,0.6057610001880676,True,18,1,0,6
Y2-S2-186K19,1,80,AS,exp,28,↑,up,↑,0.787264599930495,True,18,1,0,6
Y2-S2-186K19,1,81,AS,exp,37,↓,up,↑,0.7072751000523567,False,17,-1,1,7
Y2-S2-186K19,1,82,AS,exp,46,↑,up,↑,0.5429695998318493,True,18,-1,0,7
Y2-S2-186K19,1,83,AS,exp,32,←,right,→,0.8016303000040352,False,18,-1,0,7
Y2-S2-186K19,1,84,AS,exp,28,↓,down,↓,0.8165764000732452,True,19,-1,0,7
Y2-S2-186K19,1,85,AS,exp,40,↑,up,↑,0.8082810998894274,True,19,-1,0,7
Y2-S2-186K19,1,86,AS,exp,27,→,right,→,0.5648026999551803,True,19,1,1,8
Y2-S2-186K19,1,87,AS,exp,26,↓,up,↑,1.2478549000807106,False,18,-1,1,9
Y2-S2-186K19,1,88,AS,exp,37,→,right,→,0.7631212999112904,True,19,-1,0,9
Y2-S2-186K19,1,89,AS,exp,36,←,left,←,0.5034101000055671,True,19,-1,0,9
Y2-S2-186K19,1,90,AS,exp,38,→,right,→,0.5984891999978572,True,19,1,1,10
Y2-S2-186K19,1,91,AS,exp,33,↑,up,↑,0.5802863000426441,True,18,1,0,10
Y2-S2-186K19,1,92,AS,exp,27,→,right,→,0.48747769999317825,True,18,1,0,10
Y2-S2-186K19,1,93,AS,exp,27,↑,up,↑,0.8092233999632299,True,18,1,0,10
Y2-S2-186K19,1,94,AS,exp,47,↓,up,↑,0.8556609998922795,False,17,-1,1,11
Y2-S2-186K19,1,95,AS,exp,49,↑,up,↑,0.5285790001507849,True,18,-1,0,11
Y2-S2-186K19,1,96,AS,exp,35,←,right,→,1.4487095000222325,False,18,-1,0,11
Y2-S2-186K19,1,97,AS,exp,43,→,right,→,0.620943000074476,True,19,-1,0,11
Y2-S2-186K19,1,98,AS,exp,25,↓,down,↓,0.7318099997937679,True,19,-1,0,11
Y2-S2-186K19,1,99,AS,exp,33,→,right,→,0.959707299945876,True,19,1,1,12
Y2-S2-186K19,1,100,AS,exp,30,↑,right,→,1.5007553999312222,False,18,-1,1,13
Y2-S2-186K19,1,101,AS,exp,49,→,up,↑,1.2811922000255436,False,19,-1,0,13
Y2-S2-186K19,1,102,AS,exp,26,↑,up,↑,0.5734403999522328,True,20,-1,0,13
Y2-S2-186K19,1,103,AS,exp,30,↓,no_key,no_letter,-1.0,False,20,-1,0,13
Y2-S2-186K19,1,104,AS,exp,47,↑,no_key,no_letter,-1.0,False,21,-1,0,13
Y2-S2-186K19,1,105,AS,exp,44,←,no_key,no_letter,-1.0,False,22,-1,0,13
Y2-S2-186K19,1,106,AS,exp,36,↓,down,↓,0.6178164999000728,True,23,-1,0,13
Y2-S2-186K19,1,107,AS,exp,40,↑,up,↑,0.8965524998493493,True,23,-1,0,13
Y2-S2-186K19,1,108,AS,exp,26,↓,up,↑,0.7774164001457393,False,23,-1,0,13
Y2-S2-186K19,1,109,AS,exp,30,↑,up,↑,0.5005902000702918,True,24,-1,0,13
Y2-S2-186K19,1,110,AS,exp,40,→,right,→,0.5962161000352353,True,24,-1,0,13
Y2-S2-186K19,1,111,AS,exp,26,←,right,→,0.6318783999886364,False,24,-1,0,13
Y2-S2-186K19,1,112,AS,exp,27,→,right,→,0.5013300001155585,True,25,-1,0,13
Y2-S2-186K19,1,113,AS,exp,30,↓,down,↓,0.9080236000008881,True,25,-1,0,13
Y2-S2-186K19,1,114,AS,exp,35,←,no_key,no_letter,-1.0,False,25,-1,0,13
Y2-S2-186K19,1,115,AS,exp,38,↑,down,↓,0.996612099930644,False,26,-1,0,13
Y2-S2-186K19,1,116,AS,exp,27,→,right,→,0.5173040998633951,True,27,-1,0,13
Y2-S2-186K19,1,117,AS,exp,29,↓,down,↓,0.7841859997715801,True,27,-1,0,13
Y2-S2-186K19,1,118,AS,exp,48,↑,up,↑,0.6490050998982042,True,27,1,1,14
Y2-S2-186K19,1,119,AS,exp,37,→,right,→,1.7907080000732094,True,26,1,0,14
Y2-S2-186K19,1,120,AS,exp,33,←,left,←,0.6915965999942273,True,26,1,0,14
Y2-S2-186K19,1,121,AS,exp,37,→,right,→,1.1113747998606414,True,26,1,0,14
Y2-S2-186K19,1,122,AS,exp,35,↑,up,↑,0.9956748001277447,True,25,1,0,14
Y2-S2-186K19,1,123,AS,exp,29,→,right,→,0.765148299979046,True,25,1,0,14
Y2-S2-186K19,1,124,AS,exp,43,↑,up,↑,0.790992199908942,True,25,1,0,14
Y2-S2-186K19,1,125,AS,exp,46,↓,down,↓,0.7962778001092374,True,24,1,0,14
Y2-S2-186K19,1,126,AS,exp,34,←,left,←,0.6440443999599665,True,24,1,0,14
Y2-S2-186K19,1,127,AS,exp,43,↓,down,↓,1.1419599999208003,True,24,1,0,14
Y2-S2-186K19,1,128,AS,exp,47,←,left,←,0.7201318999286741,True,23,1,0,14
Y2-S2-186K19,1,129,AS,exp,46,↑,up,↑,0.7612808998674154,True,23,1,0,14
Y2-S2-186K19,1,130,AS,exp,28,→,right,→,1.0605772999115288,True,23,1,0,14
Y2-S2-186K19,1,131,AS,exp,33,←,left,←,0.5543255000375211,True,22,1,0,14
Y2-S2-186K19,1,132,AS,exp,41,↓,right,→,1.1978830001316965,False,22,-1,1,15
Y2-S2-186K19,1,133,AS,exp,41,←,left,←,1.627264600014314,True,23,-1,0,15
Y2-S2-186K19,1,134,AS,exp,30,→,right,→,0.641877599991858,True,23,-1,0,15
Y2-S2-186K19,1,135,AS,exp,34,↓,down,↓,0.7340172999538481,True,23,1,1,16
Y2-S2-186K19,2,136,PS,intra_train,28,↑,up,↑,0.5596334999427199,True,18,-,-,-
Y2-S2-186K19,2,137,PS,intra_train,27,←,left,←,0.5732704000547528,True,18,-,-,-
Y2-S2-186K19,2,138,PS,intra_train,27,↑,up,↑,0.7182986999396235,True,18,-,-,-
Y2-S2-186K19,2,139,PS,intra_train,31,←,left,←,0.5573851000517607,True,18,-,-,-
Y2-S2-186K19,2,140,PS,intra_train,41,↑,left,←,1.5622268000151962,False,18,-,-,-
Y2-S2-186K19,2,141,PS,exp,38,←,left,←,0.5678124998230487,True,12,0,0,0
Y2-S2-186K19,2,142,PS,exp,42,↑,up,↑,0.5127294999547303,True,12,0,0,0
Y2-S2-186K19,2,143,PS,exp,36,→,right,→,0.4843323000241071,True,12,1,0,0
Y2-S2-186K19,2,144,PS,exp,36,↑,up,↑,0.8199714999645948,True,11,1,0,0
Y2-S2-186K19,2,145,PS,exp,39,→,left,←,0.6419194999616593,False,11,-1,1,1
Y2-S2-186K19,2,146,PS,exp,35,↑,right,→,0.7847855999134481,False,12,-1,0,1
Y2-S2-186K19,2,147,PS,exp,47,→,right,→,0.5348100999835879,True,13,-1,0,1
Y2-S2-186K19,2,148,PS,exp,38,←,left,←,0.8342114000115544,True,13,-1,0,1
Y2-S2-186K19,2,149,PS,exp,30,↑,up,↑,0.5779291999060661,True,13,1,1,2
Y2-S2-186K19,2,150,PS,exp,40,→,right,→,0.5558764000888914,True,12,1,0,2
Y2-S2-186K19,2,151,PS,exp,38,←,left,←,0.5608542000409216,True,12,1,0,2
Y2-S2-186K19,2,152,PS,exp,38,→,right,→,0.4962160000577569,True,12,1,0,2
Y2-S2-186K19,2,153,PS,exp,39,↑,up,↑,0.5574527999851853,True,11,1,0,2
Y2-S2-186K19,2,154,PS,exp,35,→,right,→,0.5158224999904633,True,11,1,0,2
Y2-S2-186K19,2,155,PS,exp,36,←,left,←,0.4495774998795241,True,11,1,0,2
Y2-S2-186K19,2,156,PS,exp,37,→,left,←,0.5762228998355567,False,10,-1,1,3
Y2-S2-186K19,2,157,PS,exp,28,↑,up,↑,0.6763454999309033,True,11,-1,0,3
Y2-S2-186K19,2,158,PS,exp,49,→,right,→,0.576749200001359,True,11,-1,0,3
Y2-S2-186K19,2,159,PS,exp,42,←,up,↑,0.6873794998973608,False,11,-1,0,3
Y2-S2-186K19,2,160,PS,exp,32,↑,up,↑,1.2072552000172436,True,12,-1,0,3
Y2-S2-186K19,2,161,PS,exp,33,←,left,←,0.6130029000341892,True,12,-1,0,3
Y2-S2-186K19,2,162,PS,exp,44,↓,up,↑,0.6783339001704007,False,12,-1,0,3
Y2-S2-186K19,2,163,PS,exp,26,↑,up,↑,0.49382920004427433,True,13,-1,0,3
Y2-S2-186K19,2,164,PS,exp,27,→,right,→,0.5927025000564754,True,13,-1,0,3
Y2-S2-186K19,2,165,PS,exp,41,↓,down,↓,0.7071747002191842,True,13,1,1,4
Y2-S2-186K19,2,166,PS,exp,41,↑,down,↓,1.1889669999945909,False,12,-1,1,5
Y2-S2-186K19,2,167,PS,exp,34,↓,down,↓,0.7028860999271274,True,13,-1,0,5
Y2-S2-186K19,2,168,PS,exp,49,←,left,←,0.5997830999549478,True,13,-1,0,5
Y2-S2-186K19,2,169,PS,exp,43,↓,down,↓,0.5333944000303745,True,13,1,1,6
Y2-S2-186K19,2,170,PS,exp,42,↑,up,↑,0.5831555998884141,True,12,1,0,6
Y2-S2-186K19,2,171,PS,exp,41,↓,up,↑,0.6815757998265326,False,12,-1,1,7
Y2-S2-186K19,2,172,PS,exp,44,←,right,→,0.9827743999194354,False,13,-1,0,7
Y2-S2-186K19,2,173,PS,exp,29,↓,down,↓,0.7380280001088977,True,14,-1,0,7
Y2-S2-186K19,2,174,PS,exp,42,↑,up,↑,0.8259040999691933,True,14,-1,0,7
Y2-S2-186K19,2,175,PS,exp,49,←,left,←,0.6266252000350505,True,14,1,1,8
Y2-S2-186K19,2,176,PS,exp,26,↑,left,←,0.9803395001217723,False,13,-1,1,9
Y2-S2-186K19,2,177,PS,exp,32,→,left,←,0.8092300000134856,False,14,-1,0,9
Y2-S2-186K19,2,178,PS,exp,35,←,right,→,0.7084468000102788,False,15,-1,0,9
Y2-S2-186K19,2,179,PS,exp,40,↑,up,↑,0.5958402000833303,True,16,-1,0,9
Y2-S2-186K19,2,180,PS,exp,40,↓,down,↓,0.749013900058344,True,16,-1,0,9
Y2-S2-186K19,2,181,PS,exp,35,↑,up,↑,0.5244531000498682,True,16,1,1,10
Y2-S2-186K19,2,182,PS,exp,36,↓,down,↓,0.5860220000613481,True,15,1,0,10
Y2-S2-186K19,2,183,PS,exp,44,→,right,→,0.5262220001313835,True,15,1,0,10
Y2-S2-186K19,2,184,PS,exp,38,←,left,←,1.1959590998012573,True,15,1,0,10
Y2-S2-186K19,2,185,PS,exp,40,↑,up,↑,0.7295613000169396,True,14,1,0,10
Y2-S2-186K19,2,186,PS,exp,32,→,right,→,0.8172542999964207,True,14,1,0,10
Y2-S2-186K19,2,187,PS,exp,28,←,up,↑,0.9483803000766784,False,14,-1,1,11
Y2-S2-186K19,2,188,PS,exp,25,↑,up,↑,1.291816100012511,True,15,-1,0,11
Y2-S2-186K19,2,189,PS,exp,46,↓,down,↓,0.727528200019151,True,15,-1,0,11
Y2-S2-186K19,2,190,PS,exp,37,↑,up,↑,0.48635459993965924,True,15,1,1,12
Y2-S2-186K19,2,191,PS,exp,40,→,right,→,0.6525119999423623,True,14,1,0,12
Y2-S2-186K19,2,192,PS,exp,26,↓,down,↓,0.5917165998835117,True,14,1,0,12
Y2-S2-186K19,2,193,PS,exp,41,↑,up,↑,0.6006677001714706,True,14,1,0,12
Y2-S2-186K19,2,194,PS,exp,31,→,right,→,0.7389227000530809,True,13,1,0,12
Y2-S2-186K19,2,195,PS,exp,33,↑,up,↑,0.7887021000497043,True,13,1,0,12
Y2-S2-186K19,2,196,PS,exp,50,↓,down,↓,0.9358689999207854,True,13,1,0,12
Y2-S2-186K19,2,197,PS,exp,32,↑,up,↑,0.7432973000686616,True,12,1,0,12
Y2-S2-186K19,2,198,PS,exp,27,↓,up,↑,0.8805631999857724,False,12,-1,1,13
Y2-S2-186K19,2,199,PS,exp,42,←,left,←,0.5005008999723941,True,13,-1,0,13
Y2-S2-186K19,2,200,PS,exp,37,↓,down,↓,0.940932200057432,True,13,-1,0,13
Y2-S2-186K19,2,201,PS,exp,49,→,right,→,0.6819044000003487,True,13,1,1,14
Y2-S2-186K19,2,202,PS,exp,48,↓,down,↓,0.6817588000558317,True,12,1,0,14
Y2-S2-186K19,2,203,PS,exp,36,→,right,→,0.6523158000782132,True,12,1,0,14
Y2-S2-186K19,2,204,PS,exp,50,↑,up,↑,0.729791299905628,True,12,1,0,14
Y2-S2-186K19,2,205,PS,exp,35,↓,down,↓,0.6774230001028627,True,11,1,0,14
Y2-S2-186K19,2,206,PS,exp,25,↑,up,↑,0.7244393001310527,True,11,1,0,14
Y2-S2-186K19,2,207,PS,exp,40,←,left,←,0.49786200001835823,True,11,1,0,14
Y2-S2-186K19,2,208,PS,exp,50,↓,down,↓,0.5880352999083698,True,10,1,0,14
Y2-S2-186K19,2,209,PS,exp,26,→,right,→,0.5488634998910129,True,10,1,0,14
Y2-S2-186K19,2,210,PS,exp,26,↑,up,↑,0.6288038999773562,True,10,1,0,14
Y2-S2-186K19,2,211,PS,exp,47,↓,down,↓,0.784712600056082,True,9,1,0,14
Y2-S2-186K19,2,212,PS,exp,37,→,right,→,0.4290284998714924,True,9,1,0,14
Y2-S2-186K19,2,213,PS,exp,35,←,left,←,0.5137064000591636,True,9,1,0,14
Y2-S2-186K19,2,214,PS,exp,34,↓,up,↑,0.9693960000295192,False,8,-1,1,15
Y2-S2-186K19,2,215,PS,exp,29,→,right,→,0.6132836998440325,True,9,-1,0,15
Y2-S2-186K19,2,216,PS,exp,49,↓,down,↓,0.912520500132814,True,9,-1,0,15
Y2-S2-186K19,2,217,PS,exp,29,↑,up,↑,1.0220361000392586,True,9,1,1,16
Y2-S2-186K19,3,218,PS,intra_train,35,↓,down,↓,0.5319628999568522,True,18,-,-,-
Y2-S2-186K19,3,219,PS,intra_train,49,→,right,→,0.5420744000002742,True,18,-,-,-
Y2-S2-186K19,3,220,PS,intra_train,41,←,left,←,0.6188304000534117,True,18,-,-,-
Y2-S2-186K19,3,221,PS,intra_train,28,↑,up,↑,0.5639654998667538,True,18,-,-,-
Y2-S2-186K19,3,222,PS,intra_train,25,→,right,→,0.4891764000058174,True,18,-,-,-
Y2-S2-186K19,3,223,PS,exp,36,↑,up,↑,0.6919519000221044,True,12,0,0,0
Y2-S2-186K19,3,224,PS,exp,44,↓,up,↑,0.6725773999933153,False,12,-1,0,0
Y2-S2-186K19,3,225,PS,exp,35,→,right,→,0.4811714000534266,True,13,-1,0,0
Y2-S2-186K19,3,226,PS,exp,36,←,left,←,0.5547209000214934,True,13,-1,0,0
Y2-S2-186K19,3,227,PS,exp,50,↓,down,↓,0.697157199960202,True,13,1,1,1
Y2-S2-186K19,3,228,PS,exp,41,↑,up,↑,0.49938199995085597,True,12,1,0,1
Y2-S2-186K19,3,229,PS,exp,32,←,right,→,0.7775015998631716,False,12,-1,1,2
Y2-S2-186K19,3,230,PS,exp,34,↑,right,→,1.1739469000604004,False,13,-1,0,2
Y2-S2-186K19,3,231,PS,exp,29,↓,up,↑,0.7801224999129772,False,14,-1,0,2
Y2-S2-186K19,3,232,PS,exp,40,↑,down,↓,1.0223604999482632,False,15,-1,0,2
Y2-S2-186K19,3,233,PS,exp,45,←,left,←,0.714576099999249,True,16,-1,0,2
Y2-S2-186K19,3,234,PS,exp,42,↑,up,↑,0.6898002999369055,True,16,-1,0,2
Y2-S2-186K19,3,235,PS,exp,41,↓,down,↓,1.0028558000922203,True,16,1,1,3
Y2-S2-186K19,3,236,PS,exp,34,↑,up,↑,0.747363300062716,True,15,1,0,3
Y2-S2-186K19,3,237,PS,exp,41,↓,down,↓,0.8123738002032042,True,15,1,0,3
Y2-S2-186K19,3,238,PS,exp,26,←,left,←,0.6017360000405461,True,15,1,0,3
Y2-S2-186K19,3,239,PS,exp,41,↓,right,→,1.1862988001666963,False,14,-1,1,4
Y2-S2-186K19,3,240,PS,exp,41,←,left,←,0.6992464000359178,True,15,-1,0,4
Y2-S2-186K19,3,241,PS,exp,33,→,right,→,0.5195818000938743,True,15,-1,0,4
Y2-S2-186K19,3,242,PS,exp,37,↑,up,↑,0.5093702001031488,True,15,1,1,5
Y2-S2-186K19,3,243,PS,exp,29,↓,down,↓,0.6902395999059081,True,14,1,0,5
Y2-S2-186K19,3,244,PS,exp,26,↑,up,↑,0.5947490998078138,True,14,1,0,5
Y2-S2-186K19,3,245,PS,exp,32,↓,down,↓,0.687968899961561,True,14,1,0,5
Y2-S2-186K19,3,246,PS,exp,34,→,left,←,0.5841573998332024,False,13,-1,1,6
Y2-S2-186K19,3,247,PS,exp,36,↓,down,↓,0.8044666000641882,True,14,-1,0,6
Y2-S2-186K19,3,248,PS,exp,40,←,left,←,0.5550637999549508,True,14,-1,0,6
Y2-S2-186K19,3,249,PS,exp,44,↓,down,↓,1.0239581998903304,True,14,1,1,7
Y2-S2-186K19,3,250,PS,exp,31,←,left,←,0.551977900089696,True,13,1,0,7
Y2-S2-186K19,3,251,PS,exp,42,→,right,→,0.6114872000180185,True,13,1,0,7
Y2-S2-186K19,3,252,PS,exp,27,↓,no_key,no_letter,-1.0,False,13,-1,1,8
Y2-S2-186K19,3,253,PS,exp,28,←,right,→,0.628624300006777,False,14,-1,0,8
Y2-S2-186K19,3,254,PS,exp,25,→,right,→,0.4979149999562651,True,15,-1,0,8
Y2-S2-186K19,3,255,PS,exp,46,↑,up,↑,0.574898699996993,True,15,-1,0,8
Y2-S2-186K19,3,256,PS,exp,41,→,no_key,no_letter,-1.0,False,15,-1,0,8
Y2-S2-186K19,3,257,PS,exp,45,↓,no_key,no_letter,-1.0,False,16,-1,0,8
Y2-S2-186K19,3,258,PS,exp,42,→,right,→,0.5286646999884397,True,17,-1,0,8
Y2-S2-186K19,3,259,PS,exp,48,↑,up,↑,0.5216729999519885,True,17,-1,0,8
Y2-S2-186K19,3,260,PS,exp,45,↓,down,↓,0.6788959000259638,True,17,1,1,9
Y2-S2-186K19,3,261,PS,exp,42,→,right,→,0.637853299966082,True,16,1,0,9
Y2-S2-186K19,3,262,PS,exp,33,←,left,←,0.802945900009945,True,16,1,0,9
Y2-S2-186K19,3,263,PS,exp,35,↓,down,↓,0.6523543000221252,True,16,1,0,9
Y2-S2-186K19,3,264,PS,exp,45,←,left,←,0.7407855000346899,True,15,1,0,9
Y2-S2-186K19,3,265,PS,exp,39,↑,up,↑,0.5177498999983072,True,15,1,0,9
Y2-S2-186K19,3,266,PS,exp,45,↓,up,↑,0.8072081999853253,False,15,-1,1,10
Y2-S2-186K19,3,267,PS,exp,35,←,left,←,0.5910656999330968,True,16,-1,0,10
Y2-S2-186K19,3,268,PS,exp,38,→,right,→,0.7258357999380678,True,16,-1,0,10
Y2-S2-186K19,3,269,PS,exp,35,←,left,←,0.48996439995244145,True,16,1,1,11
Y2-S2-186K19,3,270,PS,exp,50,↓,down,↓,0.6757690000813454,True,15,1,0,11
Y2-S2-186K19,3,271,PS,exp,32,↑,up,↑,0.667943200096488,True,15,1,0,11
Y2-S2-186K19,3,272,PS,exp,39,→,right,→,0.6638597999699414,True,15,1,0,11
Y2-S2-186K19,3,273,PS,exp,48,←,left,←,0.6215917998924851,True,14,1,0,11
Y2-S2-186K19,3,274,PS,exp,50,↑,up,↑,0.5526231001131237,True,14,1,0,11
Y2-S2-186K19,3,275,PS,exp,33,←,left,←,0.6407602000981569,True,14,1,0,11
Y2-S2-186K19,3,276,PS,exp,40,↑,up,↑,0.4595037999097258,True,13,1,0,11
Y2-S2-186K19,3,277,PS,exp,33,↓,up,↑,0.7005960000678897,False,13,-1,1,12
Y2-S2-186K19,3,278,PS,exp,33,←,left,←,0.5838518999516964,True,14,-1,0,12
Y2-S2-186K19,3,279,PS,exp,39,↑,up,↑,0.6382393999956548,True,14,-1,0,12
Y2-S2-186K19,3,280,PS,exp,47,↓,up,↑,0.7745960999745876,False,14,-1,0,12
Y2-S2-186K19,3,281,PS,exp,39,→,right,→,0.6610419999342412,True,15,-1,0,12
Y2-S2-186K19,3,282,PS,exp,36,↑,up,↑,0.6044854000210762,True,15,-1,0,12
Y2-S2-186K19,3,283,PS,exp,36,→,right,→,0.5545357000082731,True,15,1,1,13
Y2-S2-186K19,3,284,PS,exp,28,↑,up,↑,0.5681394999846816,True,14,1,0,13
Y2-S2-186K19,3,285,PS,exp,27,↓,up,↑,0.729041000129655,False,14,-1,1,14
Y2-S2-186K19,3,286,PS,exp,26,→,up,↑,0.7359673997852951,False,15,-1,0,14
Y2-S2-186K19,3,287,PS,exp,33,↑,up,↑,0.5810638999100775,True,16,-1,0,14
Y2-S2-186K19,3,288,PS,exp,37,↓,up,↑,1.077038099989295,False,16,-1,0,14
Y2-S2-186K19,3,289,PS,exp,50,→,right,→,0.6910256000701338,True,17,-1,0,14
Y2-S2-186K19,3,290,PS,exp,50,↓,down,↓,0.7960473999846727,True,17,-1,0,14
Y2-S2-186K19,3,291,PS,exp,44,←,right,→,0.607229599962011,False,17,-1,0,14
Y2-S2-186K19,3,292,PS,exp,25,→,right,→,1.226796600036323,True,18,-1,0,14
Y2-S2-186K19,3,293,PS,exp,32,←,left,←,0.5789101999253035,True,18,-1,0,14
Y2-S2-186K19,3,294,PS,exp,45,→,left,←,1.1411357999313623,False,18,-1,0,14
Y2-S2-186K19,3,295,PS,exp,37,↑,up,↑,0.7821494000963867,True,19,-1,0,14
Y2-S2-186K19,3,296,PS,exp,33,↓,down,↓,1.4021696001291275,True,19,-1,0,14
Y2-S2-186K19,3,297,PS,exp,29,←,left,←,0.5883362998720258,True,19,1,1,15
Y2-S2-186K19,3,298,PS,exp,42,↑,up,↑,0.5784314000047743,True,18,1,0,15
Y2-S2-186K19,3,299,PS,exp,32,→,down,↓,0.9088063000235707,False,18,-1,1,16
Y2-S2-186K19,4,300,AS,intra_train,26,↑,right,→,0.6339777000248432,False,30,-,-,-
Y2-S2-186K19,4,301,AS,intra_train,35,↓,down,↓,0.7894217001739889,True,30,-,-,-
Y2-S2-186K19,4,302,AS,intra_train,39,↑,up,↑,0.5006639999337494,True,30,-,-,-
Y2-S2-186K19,4,303,AS,intra_train,37,←,left,←,1.4108227000106126,True,30,-,-,-
Y2-S2-186K19,4,304,AS,intra_train,44,↓,down,↓,1.2212982999626547,True,30,-,-,-
Y2-S2-186K19,4,305,AS,exp,28,→,right,→,0.6532856000121683,True,20,0,0,0
Y2-S2-186K19,4,306,AS,exp,48,↑,up,↑,0.9451698998454958,True,20,0,0,0
Y2-S2-186K19,4,307,AS,exp,46,↓,down,↓,0.7424606999848038,True,20,1,0,0
Y2-S2-186K19,4,308,AS,exp,42,→,right,→,0.6997193999122828,True,19,1,0,0
Y2-S2-186K19,4,309,AS,exp,46,↑,up,↑,0.4506332001183182,True,19,1,0,0
Y2-S2-186K19,4,310,AS,exp,41,←,left,←,0.45102120004594326,True,19,1,0,0
Y2-S2-186K19,4,311,AS,exp,29,↑,up,↑,0.589897199999541,True,18,1,0,0
Y2-S2-186K19,4,312,AS,exp,43,→,right,→,0.756137500051409,True,18,1,0,0
Y2-S2-186K19,4,313,AS,exp,50,↑,up,↑,0.6477777999825776,True,18,1,0,0
Y2-S2-186K19,4,314,AS,exp,49,↓,down,↓,0.6874315999448299,True,17,1,0,0
Y2-S2-186K19,4,315,AS,exp,26,→,right,→,1.1352429001126438,True,17,1,0,0
Y2-S2-186K19,4,316,AS,exp,41,↑,up,↑,0.6508186999708414,True,17,1,0,0
Y2-S2-186K19,4,317,AS,exp,29,→,right,→,0.7332141997758299,True,16,1,0,0
Y2-S2-186K19,4,318,AS,exp,40,↓,up,↑,0.8003916000016034,False,16,-1,1,1
Y2-S2-186K19,4,319,AS,exp,31,←,left,←,0.47285360004752874,True,17,-1,0,1
Y2-S2-186K19,4,320,AS,exp,48,↑,up,↑,0.5919121000915766,True,17,-1,0,1
Y2-S2-186K19,4,321,AS,exp,25,←,left,←,0.7834564000368118,True,17,1,1,2
Y2-S2-186K19,4,322,AS,exp,30,→,right,→,0.5135437999852002,True,16,1,0,2
Y2-S2-186K19,4,323,AS,exp,28,↑,up,↑,0.5426354000810534,True,16,1,0,2
Y2-S2-186K19,4,324,AS,exp,50,→,left,←,0.5646249998826534,False,16,-1,1,3
Y2-S2-186K19,4,325,AS,exp,37,←,left,←,0.4756833999417722,True,17,-1,0,3
Y2-S2-186K19,4,326,AS,exp,31,↑,up,↑,0.4867128001060337,True,17,-1,0,3
Y2-S2-186K19,4,327,AS,exp,34,↓,down,↓,0.6841677001211792,True,17,1,1,4
Y2-S2-186K19,4,328,AS,exp,32,↑,up,↑,0.46594349993392825,True,16,1,0,4
Y2-S2-186K19,4,329,AS,exp,43,←,left,←,0.45281380019150674,True,16,1,0,4
Y2-S2-186K19,4,330,AS,exp,39,↑,up,↑,0.5576801998540759,True,16,1,0,4
Y2-S2-186K19,4,331,AS,exp,37,↓,up,↑,0.6880573001690209,False,15,-1,1,5
Y2-S2-186K19,4,332,AS,exp,40,→,right,→,0.5309076001867652,True,16,-1,0,5
Y2-S2-186K19,4,333,AS,exp,25,↓,down,↓,0.6375295000616461,True,16,-1,0,5
Y2-S2-186K19,4,334,AS,exp,38,→,right,→,0.4999052998609841,True,16,1,1,6
Y2-S2-186K19,4,335,AS,exp,25,↑,up,↑,0.6045561998616904,True,15,1,0,6
Y2-S2-186K19,4,336,AS,exp,25,→,up,↑,0.8439978000242263,False,15,-1,1,7
Y2-S2-186K19,4,337,AS,exp,30,↓,down,↓,0.733825400006026,True,16,-1,0,7
Y2-S2-186K19,4,338,AS,exp,33,→,right,→,0.6669496998656541,True,16,-1,0,7
Y2-S2-186K19,4,339,AS,exp,32,←,left,←,0.5839679001364857,True,16,1,1,8
Y2-S2-186K19,4,340,AS,exp,38,→,right,→,0.5890560999978334,True,15,1,0,8
Y2-S2-186K19,4,341,AS,exp,32,↑,up,↑,0.7094940000679344,True,15,1,0,8
Y2-S2-186K19,4,342,AS,exp,37,→,left,←,0.6884216999169439,False,15,-1,1,9
Y2-S2-186K19,4,343,AS,exp,30,↓,up,↑,0.6116486999671906,False,16,-1,0,9
Y2-S2-186K19,4,344,AS,exp,26,↑,up,↑,0.4920163999777287,True,17,-1,0,9
Y2-S2-186K19,4,345,AS,exp,32,↓,up,↑,0.6805489000398666,False,17,-1,0,9
Y2-S2-186K19,4,346,AS,exp,47,↑,up,↑,0.4772916999645531,True,18,-1,0,9
Y2-S2-186K19,4,347,AS,exp,37,→,right,→,0.7606776000466198,True,18,-1,0,9
Y2-S2-186K19,4,348,AS,exp,33,↓,up,↑,0.7060108999721706,False,18,-1,0,9
Y2-S2-186K19,4,349,AS,exp,48,↑,up,↑,0.6056349000427872,True,19,-1,0,9
Y2-S2-186K19,4,350,AS,exp,26,→,left,←,0.6417761999182403,False,19,-1,0,9
Y2-S2-186K19,4,351,AS,exp,44,↑,up,↑,0.5845059999264777,True,20,-1,0,9
Y2-S2-186K19,4,352,AS,exp,49,↓,down,↓,0.6782892001792789,True,20,-1,0,9
Y2-S2-186K19,4,353,AS,exp,50,←,left,←,0.6993623001035303,True,20,1,1,10
Y2-S2-186K19,4,354,AS,exp,34,↑,up,↑,0.8446180999744684,True,19,1,0,10
Y2-S2-186K19,4,355,AS,exp,33,↓,down,↓,0.8182755000889301,True,19,1,0,10
Y2-S2-186K19,4,356,AS,exp,38,→,right,→,0.5585652000736445,True,19,1,0,10
Y2-S2-186K19,4,357,AS,exp,25,↓,down,↓,0.6255494998767972,True,18,1,0,10
Y2-S2-186K19,4,358,AS,exp,34,←,left,←,0.8106668000109494,True,18,1,0,10
Y2-S2-186K19,4,359,AS,exp,46,↓,down,↓,0.7403291000518948,True,18,1,0,10
Y2-S2-186K19,4,360,AS,exp,46,↑,up,↑,0.581387700047344,True,17,1,0,10
Y2-S2-186K19,4,361,AS,exp,28,←,up,↑,0.7622579999733716,False,17,-1,1,11
Y2-S2-186K19,4,362,AS,exp,30,↓,down,↓,0.6298289000988007,True,18,-1,0,11
Y2-S2-186K19,4,363,AS,exp,28,←,left,←,1.7798707999754697,True,18,-1,0,11
Y2-S2-186K19,4,364,AS,exp,30,↓,right,→,0.9857316000852734,False,18,-1,0,11
Y2-S2-186K19,4,365,AS,exp,27,←,left,←,0.43395880004391074,True,19,-1,0,11
Y2-S2-186K19,4,366,AS,exp,47,↑,up,↑,0.5479844000656158,True,19,-1,0,11
Y2-S2-186K19,4,367,AS,exp,41,→,right,→,0.5093666999600828,True,19,1,1,12
Y2-S2-186K19,4,368,AS,exp,35,←,left,←,0.6398765000049025,True,18,1,0,12
Y2-S2-186K19,4,369,AS,exp,50,→,right,→,0.4707746999338269,True,18,1,0,12
Y2-S2-186K19,4,370,AS,exp,27,↓,down,↓,0.7212151000276208,True,18,1,0,12
Y2-S2-186K19,4,371,AS,exp,35,↑,up,↑,0.6659518999513239,True,17,1,0,12
Y2-S2-186K19,4,372,AS,exp,43,↓,up,↑,0.7430217999499291,False,17,-1,1,13
Y2-S2-186K19,4,373,AS,exp,35,←,left,←,0.9487500998657197,True,18,-1,0,13
Y2-S2-186K19,4,374,AS,exp,50,→,right,→,0.4984085001051426,True,18,-1,0,13
Y2-S2-186K19,4,375,AS,exp,37,←,right,→,0.6580794998444617,False,18,-1,0,13
Y2-S2-186K19,4,376,AS,exp,49,↓,right,→,0.8911168999038637,False,19,-1,0,13
Y2-S2-186K19,4,377,AS,exp,41,←,right,→,1.0712210000492632,False,20,-1,0,13
Y2-S2-186K19,4,378,AS,exp,39,↓,up,↑,0.9997707998845726,False,21,-1,0,13
Y2-S2-186K19,4,379,AS,exp,45,↑,up,↑,0.6701944000087678,True,22,-1,0,13
Y2-S2-186K19,4,380,AS,exp,46,↓,down,↓,0.8113923000637442,True,22,-1,0,13
Y2-S2-186K19,4,381,AS,exp,49,↑,up,↑,0.963370299898088,True,22,1,1,14
Y2-S2-186K19,4,382,AS,exp,48,→,right,→,0.6724400999955833,True,21,1,0,14
Y2-S2-186K19,4,383,AS,exp,46,↑,down,↓,0.9074335999321193,False,21,-1,1,15
Y2-S2-186K19,4,384,AS,exp,44,←,left,←,0.696055400185287,True,22,-1,0,15
Y2-S2-186K19,4,385,AS,exp,50,→,right,→,0.4839060998056084,True,22,-1,0,15
Y2-S2-186K19,4,386,AS,exp,46,←,right,→,0.7016791999340057,False,22,-1,0,15
Y2-S2-186K19,4,387,AS,exp,37,↓,down,↓,0.7377158999443054,True,23,-1,0,15
Y2-S2-186K19,4,388,AS,exp,34,←,left,←,0.4342685001902282,True,23,-1,0,15
Y2-S2-186K19,4,389,AS,exp,30,→,right,→,0.5602459998335689,True,23,1,1,16
Y2-S2-186K19,5,390,AS,intra_train,40,↓,up,↑,0.5006757001392543,False,30,-,-,-
Y2-S2-186K19,5,391,AS,intra_train,46,↑,up,↑,0.7778744001407176,True,30,-,-,-
Y2-S2-186K19,5,392,AS,intra_train,42,←,left,←,0.5173468999564648,True,30,-,-,-
Y2-S2-186K19,5,393,AS,intra_train,25,↑,up,↑,0.4510659999214113,True,30,-,-,-
Y2-S2-186K19,5,394,AS,intra_train,27,→,right,→,0.5340311001054943,True,30,-,-,-
Y2-S2-186K19,5,395,AS,exp,34,←,left,←,1.2313788998872042,True,20,0,0,0
Y2-S2-186K19,5,396,AS,exp,38,↑,up,↑,0.5475423000752926,True,20,0,0,0
Y2-S2-186K19,5,397,AS,exp,31,↓,up,↑,0.45070430007763207,False,20,-1,0,0
Y2-S2-186K19,5,398,AS,exp,27,↑,up,↑,0.6090325999539346,True,21,-1,0,0
Y2-S2-186K19,5,399,AS,exp,44,←,left,←,0.5510400000493973,True,21,-1,0,0
Y2-S2-186K19,5,400,AS,exp,46,↓,down,↓,0.8040712000802159,True,21,1,1,1
Y2-S2-186K19,5,401,AS,exp,30,→,right,→,0.602065899875015,True,20,1,0,1
Y2-S2-186K19,5,402,AS,exp,39,↑,up,↑,0.5687255999073386,True,20,1,0,1
Y2-S2-186K19,5,403,AS,exp,37,→,right,→,0.5685134998057038,True,20,1,0,1
Y2-S2-186K19,5,404,AS,exp,47,↓,down,↓,0.6567585000302643,True,19,1,0,1
Y2-S2-186K19,5,405,AS,exp,32,←,right,→,0.7102883998304605,False,19,-1,1,2
Y2-S2-186K19,5,406,AS,exp,48,↓,down,↓,0.7030347001273185,True,20,-1,0,2
Y2-S2-186K19,5,407,AS,exp,32,↑,up,↑,0.7764414998237044,True,20,-1,0,2
Y2-S2-186K19,5,408,AS,exp,45,←,no_key,no_letter,-1.0,False,20,-1,0,2
Y2-S2-186K19,5,409,AS,exp,36,→,right,→,0.6992504999507219,True,21,-1,0,2
Y2-S2-186K19,5,410,AS,exp,27,↑,up,↑,0.7622597999870777,True,21,-1,0,2
Y2-S2-186K19,5,411,AS,exp,31,←,left,←,0.5640555999707431,True,21,1,1,3
Y2-S2-186K19,5,412,AS,exp,41,↓,down,↓,0.5856632001232356,True,20,1,0,3
Y2-S2-186K19,5,413,AS,exp,38,→,right,→,0.4671434999909252,True,20,1,0,3
Y2-S2-186K19,5,414,AS,exp,36,↑,up,↑,0.8811127999797463,True,20,1,0,3
Y2-S2-186K19,5,415,AS,exp,29,↓,down,↓,0.7276200000196695,True,19,1,0,3
Y2-S2-186K19,5,416,AS,exp,28,↑,up,↑,0.7097384999506176,True,19,1,0,3
Y2-S2-186K19,5,417,AS,exp,41,↓,down,↓,0.628276800038293,True,19,1,0,3
Y2-S2-186K19,5,418,AS,exp,25,←,up,↑,0.809576699975878,False,18,-1,1,4
Y2-S2-186K19,5,419,AS,exp,39,↑,up,↑,0.4504683001432568,True,19,-1,0,4
Y2-S2-186K19,5,420,AS,exp,47,→,right,→,0.5638102998491377,True,19,-1,0,4
Y2-S2-186K19,5,421,AS,exp,32,←,left,←,0.7201495999470353,True,19,1,1,5
Y2-S2-186K19,5,422,AS,exp,38,↓,down,↓,0.6405969001352787,True,18,1,0,5
Y2-S2-186K19,5,423,AS,exp,33,→,left,←,0.7412480001803488,False,18,-1,1,6
Y2-S2-186K19,5,424,AS,exp,46,↑,right,→,0.4340144000016153,False,19,-1,0,6
Y2-S2-186K19,5,425,AS,exp,50,→,right,→,0.6272266998421401,True,20,-1,0,6
Y2-S2-186K19,5,426,AS,exp,32,↓,up,↑,0.7852618000470102,False,20,-1,0,6
Y2-S2-186K19,5,427,AS,exp,40,↑,up,↑,0.5932360000442713,True,21,-1,0,6
Y2-S2-186K19,5,428,AS,exp,43,→,right,→,0.6804738000500947,True,21,-1,0,6
Y2-S2-186K19,5,429,AS,exp,29,↓,up,↑,0.5831557000055909,False,21,-1,0,6
Y2-S2-186K19,5,430,AS,exp,32,↑,up,↑,0.4003173999954015,True,22,-1,0,6
Y2-S2-186K19,5,431,AS,exp,47,↓,down,↓,0.500509399920702,True,22,-1,0,6
Y2-S2-186K19,5,432,AS,exp,36,←,left,←,0.6192239997908473,True,22,1,1,7
Y2-S2-186K19,5,433,AS,exp,35,↓,down,↓,0.6662065000273287,True,21,1,0,7
Y2-S2-186K19,5,434,AS,exp,49,←,left,←,0.48388459999114275,True,21,1,0,7
Y2-S2-186K19,5,435,AS,exp,49,↑,up,↑,0.8826324001420289,True,21,1,0,7
Y2-S2-186K19,5,436,AS,exp,30,↓,down,↓,0.7315964999143034,True,20,1,0,7
Y2-S2-186K19,5,437,AS,exp,41,→,down,↓,1.2831297998782247,False,20,-1,1,8
Y2-S2-186K19,5,438,AS,exp,36,←,left,←,0.8161232999991626,True,21,-1,0,8
Y2-S2-186K19,5,439,AS,exp,38,→,right,→,0.6619356998708099,True,21,-1,0,8
Y2-S2-186K19,5,440,AS,exp,27,↑,up,↑,0.8667469001375139,True,21,1,1,9
Y2-S2-186K19,5,441,AS,exp,36,→,right,→,1.022520599886775,True,20,1,0,9
Y2-S2-186K19,5,442,AS,exp,33,↓,down,↓,0.684735800139606,True,20,1,0,9
Y2-S2-186K19,5,443,AS,exp,43,←,left,←,0.7199942998122424,True,20,1,0,9
Y2-S2-186K19,5,444,AS,exp,41,→,right,→,0.49849669984541833,True,19,1,0,9
Y2-S2-186K19,5,445,AS,exp,46,←,left,←,0.6230597000103444,True,19,1,0,9
Y2-S2-186K19,5,446,AS,exp,36,↓,up,↑,0.7355889000464231,False,19,-1,1,10
Y2-S2-186K19,5,447,AS,exp,48,↑,up,↑,0.615217600017786,True,20,-1,0,10
Y2-S2-186K19,5,448,AS,exp,32,↓,up,↑,0.613277800148353,False,20,-1,0,10
Y2-S2-186K19,5,449,AS,exp,27,→,left,←,0.5735959999728948,False,21,-1,0,10
Y2-S2-186K19,5,450,AS,exp,34,↑,up,↑,0.45102689997293055,True,22,-1,0,10
Y2-S2-186K19,5,451,AS,exp,40,↓,down,↓,0.6370376001577824,True,22,-1,0,10
Y2-S2-186K19,5,452,AS,exp,44,→,right,→,1.4109530001878738,True,22,1,1,11
Y2-S2-186K19,5,453,AS,exp,32,←,left,←,0.6690048000309616,True,21,1,0,11
Y2-S2-186K19,5,454,AS,exp,25,↑,up,↑,1.262271299958229,True,21,1,0,11
Y2-S2-186K19,5,455,AS,exp,26,←,down,↓,1.2174462999682873,False,21,-1,1,12
Y2-S2-186K19,5,456,AS,exp,28,→,right,→,0.4172382999677211,True,22,-1,0,12
Y2-S2-186K19,5,457,AS,exp,39,↑,right,→,1.079272300004959,False,22,-1,0,12
Y2-S2-186K19,5,458,AS,exp,39,→,right,→,0.46735500008799136,True,23,-1,0,12
Y2-S2-186K19,5,459,AS,exp,25,↓,down,↓,0.6010403998661786,True,23,-1,0,12
Y2-S2-186K19,5,460,AS,exp,45,→,left,←,0.5580724999308586,False,23,-1,0,12
Y2-S2-186K19,5,461,AS,exp,36,↓,down,↓,0.9268275999929756,True,24,-1,0,12
Y2-S2-186K19,5,462,AS,exp,50,↑,up,↑,0.5737330999691039,True,24,-1,0,12
Y2-S2-186K19,5,463,AS,exp,42,→,right,→,0.6714278999716043,True,24,1,1,13
Y2-S2-186K19,5,464,AS,exp,30,↑,up,↑,0.5750734999310225,True,23,1,0,13
Y2-S2-186K19,5,465,AS,exp,32,→,right,→,0.863377699861303,True,23,1,0,13
Y2-S2-186K19,5,466,AS,exp,26,←,left,←,0.5174173999112099,True,23,1,0,13
Y2-S2-186K19,5,467,AS,exp,35,→,right,→,0.8662852998822927,True,22,1,0,13
Y2-S2-186K19,5,468,AS,exp,45,←,left,←,0.4670013999566436,True,22,1,0,13
Y2-S2-186K19,5,469,AS,exp,34,↓,up,↑,1.0789890000596642,False,22,-1,1,14
Y2-S2-186K19,5,470,AS,exp,36,←,left,←,0.6366330999881029,True,23,-1,0,14
Y2-S2-186K19,5,471,AS,exp,33,↓,right,→,0.5652892000507563,False,23,-1,0,14
Y2-S2-186K19,5,472,AS,exp,29,↑,up,↑,0.45087810000404716,True,24,-1,0,14
Y2-S2-186K19,5,473,AS,exp,49,←,left,←,0.5170197000261396,True,24,-1,0,14
Y2-S2-186K19,5,474,AS,exp,35,↓,up,↑,0.6264259000308812,False,24,-1,0,14
Y2-S2-186K19,5,475,AS,exp,34,→,right,→,0.7962493000086397,True,25,-1,0,14
Y2-S2-186K19,5,476,AS,exp,49,↓,down,↓,0.761925800004974,True,25,-1,0,14
Y2-S2-186K19,5,477,AS,exp,49,→,right,→,0.6358130001462996,True,25,1,1,15
Y2-S2-186K19,5,478,AS,exp,39,↓,up,↑,1.2688315999694169,False,24,-1,1,16
Y2-S2-186K19,6,479,PS,intra_train,25,←,up,↑,0.8984924999531358,False,18,-,-,-
Y2-S2-186K19,6,480,PS,intra_train,45,→,right,→,0.6032620000187308,True,18,-,-,-
Y2-S2-186K19,6,481,PS,intra_train,39,↑,up,↑,0.4780537998303771,True,18,-,-,-
Y2-S2-186K19,6,482,PS,intra_train,49,←,left,←,0.5328445001505315,True,18,-,-,-
Y2-S2-186K19,6,483,PS,intra_train,30,→,right,→,0.4962676998693496,True,18,-,-,-
Y2-S2-186K19,6,484,PS,exp,29,↓,down,↓,0.6209529999177903,True,12,0,0,0
Y2-S2-186K19,6,485,PS,exp,25,↑,up,↑,0.7194630999583751,True,12,0,0,0
Y2-S2-186K19,6,486,PS,exp,26,←,down,↓,0.5392947001382709,False,12,-1,0,0
Y2-S2-186K19,6,487,PS,exp,35,→,right,→,0.4806979999411851,True,13,-1,0,0
Y2-S2-186K19,6,488,PS,exp,40,↑,up,↑,0.5752630999777466,True,13,-1,0,0
Y2-S2-186K19,6,489,PS,exp,32,→,right,→,0.6636954999994487,True,13,1,1,1
Y2-S2-186K19,6,490,PS,exp,33,↓,down,↓,0.4912475000601262,True,12,1,0,1
Y2-S2-186K19,6,491,PS,exp,46,↑,right,→,0.589250999968499,False,12,-1,1,2
Y2-S2-186K19,6,492,PS,exp,47,↓,down,↓,0.6395152001641691,True,13,-1,0,2
Y2-S2-186K19,6,493,PS,exp,48,↑,up,↑,0.4289210999850184,True,13,-1,0,2
Y2-S2-186K19,6,494,PS,exp,32,↓,down,↓,0.5170070000458509,True,13,1,1,3
Y2-S2-186K19,6,495,PS,exp,34,→,right,→,0.4719166001304984,True,12,1,0,3
Y2-S2-186K19,6,496,PS,exp,30,↓,down,↓,0.6598185999318957,True,12,1,0,3
Y2-S2-186K19,6,497,PS,exp,36,←,left,←,0.5050151001196355,True,12,1,0,3
Y2-S2-186K19,6,498,PS,exp,34,→,right,→,0.5773660000413656,True,11,1,0,3
Y2-S2-186K19,6,499,PS,exp,39,←,right,→,0.8110271000768989,False,11,-1,1,4
Y2-S2-186K19,6,500,PS,exp,38,↓,down,↓,0.5323677998967469,True,12,-1,0,4
Y2-S2-186K19,6,501,PS,exp,35,→,left,←,0.7034611999988556,False,12,-1,0,4
Y2-S2-186K19,6,502,PS,exp,50,←,left,←,0.4094147998839617,True,13,-1,0,4
Y2-S2-186K19,6,503,PS,exp,41,→,right,→,0.49742729985155165,True,13,-1,0,4
Y2-S2-186K19,6,504,PS,exp,35,↓,right,→,1.0042817001231015,False,13,-1,0,4
Y2-S2-186K19,6,505,PS,exp,26,→,down,↓,0.7342505000997335,False,14,-1,0,4
Y2-S2-186K19,6,506,PS,exp,41,←,left,←,0.5562760999891907,True,15,-1,0,4
Y2-S2-186K19,6,507,PS,exp,45,→,right,→,0.717012400040403,True,15,-1,0,4
Y2-S2-186K19,6,508,PS,exp,32,↑,up,↑,0.5891507999040186,True,15,1,1,5
Y2-S2-186K19,6,509,PS,exp,33,↓,down,↓,0.550323500065133,True,14,1,0,5
Y2-S2-186K19,6,510,PS,exp,28,↑,up,↑,0.5729161000344902,True,14,1,0,5
Y2-S2-186K19,6,511,PS,exp,34,→,right,→,0.423422500025481,True,14,1,0,5
Y2-S2-186K19,6,512,PS,exp,32,↑,up,↑,0.47644160012714565,True,13,1,0,5
Y2-S2-186K19,6,513,PS,exp,41,↓,down,↓,0.7157000999432057,True,13,1,0,5
Y2-S2-186K19,6,514,PS,exp,27,→,right,→,0.48741380008868873,True,13,1,0,5
Y2-S2-186K19,6,515,PS,exp,45,↓,up,↑,0.7404156001284719,False,12,-1,1,6
Y2-S2-186K19,6,516,PS,exp,47,↑,up,↑,0.4522348998580128,True,13,-1,0,6
Y2-S2-186K19,6,517,PS,exp,49,←,up,↑,0.7030865999404341,False,13,-1,0,6
Y2-S2-186K19,6,518,PS,exp,47,→,up,↑,0.63602519989945,False,14,-1,0,6
Y2-S2-186K19,6,519,PS,exp,49,↑,up,↑,0.5641532000154257,True,15,-1,0,6
Y2-S2-186K19,6,520,PS,exp,35,←,left,←,0.48407229990698397,True,15,-1,0,6
Y2-S2-186K19,6,521,PS,exp,28,→,left,←,0.7872888999991119,False,15,-1,0,6
Y2-S2-186K19,6,522,PS,exp,45,←,left,←,0.5394404001999646,True,16,-1,0,6
Y2-S2-186K19,6,523,PS,exp,35,↓,up,↑,0.7549588000401855,False,16,-1,0,6
Y2-S2-186K19,6,524,PS,exp,40,→,right,→,0.5652208998799324,True,17,-1,0,6
Y2-S2-186K19,6,525,PS,exp,30,←,right,→,0.46132409991696477,False,17,-1,0,6
Y2-S2-186K19,6,526,PS,exp,46,↓,down,↓,0.6215212000533938,True,18,-1,0,6
Y2-S2-186K19,6,527,PS,exp,45,↑,no_key,no_letter,-1.0,False,18,-1,0,6
Y2-S2-186K19,6,528,PS,exp,42,←,left,←,1.1268720000516623,True,19,-1,0,6
Y2-S2-186K19,6,529,PS,exp,44,↓,down,↓,0.6958423999603838,True,19,-1,0,6
Y2-S2-186K19,6,530,PS,exp,30,↑,down,↓,0.7324562999419868,False,19,-1,0,6
Y2-S2-186K19,6,531,PS,exp,28,←,left,←,0.46738469996489584,True,20,-1,0,6
Y2-S2-186K19,6,532,PS,exp,25,→,right,→,0.5987440999597311,True,20,-1,0,6
Y2-S2-186K19,6,533,PS,exp,34,↑,no_key,no_letter,-1.0,False,20,-1,0,6
Y2-S2-186K19,6,534,PS,exp,26,←,left,←,0.5804564000573009,True,21,-1,0,6
Y2-S2-186K19,6,535,PS,exp,27,↑,up,↑,0.5368788000196218,True,21,-1,0,6
Y2-S2-186K19,6,536,PS,exp,28,↓,down,↓,0.540318800136447,True,21,1,1,7
Y2-S2-186K19,6,537,PS,exp,43,↑,up,↑,0.5392763998825103,True,20,1,0,7
Y2-S2-186K19,6,538,PS,exp,37,←,up,↑,0.9083889001049101,False,20,-1,1,8
Y2-S2-186K19,6,539,PS,exp,44,→,right,→,0.43380399979650974,True,21,-1,0,8
Y2-S2-186K19,6,540,PS,exp,42,↓,down,↓,0.7524503001477569,True,21,-1,0,8
Y2-S2-186K19,6,541,PS,exp,27,→,down,↓,0.8753772999625653,False,21,-1,0,8
Y2-S2-186K19,6,542,PS,exp,50,↓,up,↑,0.8171075999271125,False,22,-1,0,8
Y2-S2-186K19,6,543,PS,exp,39,→,right,→,1.3213814001064748,True,23,-1,0,8
Y2-S2-186K19,6,544,PS,exp,35,↑,up,↑,0.8066004000138491,True,23,-1,0,8
Y2-S2-186K19,6,545,PS,exp,50,→,right,→,0.7229031999595463,True,23,1,1,9
Y2-S2-186K19,6,546,PS,exp,47,↑,down,↓,0.7574322000145912,False,22,-1,1,10
Y2-S2-186K19,6,547,PS,exp,47,↓,down,↓,1.8338072001934052,True,23,-1,0,10
Y2-S2-186K19,6,548,PS,exp,43,↑,up,↑,0.8965798998251557,True,23,-1,0,10
Y2-S2-186K19,6,549,PS,exp,36,←,left,←,0.6159546999260783,True,23,1,1,11
Y2-S2-186K19,6,550,PS,exp,45,→,right,→,0.58891940000467,True,22,1,0,11
Y2-S2-186K19,6,551,PS,exp,32,↑,right,→,1.8376844997983426,False,22,-1,1,12
Y2-S2-186K19,6,552,PS,exp,39,→,right,→,0.46725300000980496,True,23,-1,0,12
Y2-S2-186K19,6,553,PS,exp,45,↑,up,↑,0.6118570000398904,True,23,-1,0,12
Y2-S2-186K19,6,554,PS,exp,33,→,right,→,1.6062630999367684,True,23,1,1,13
Y2-S2-186K19,6,555,PS,exp,41,↓,down,↓,0.6157521000131965,True,22,1,0,13
Y2-S2-186K19,6,556,PS,exp,33,↑,up,↑,0.661367499968037,True,22,1,0,13
Y2-S2-186K19,6,557,PS,exp,30,←,no_key,no_letter,-1.0,False,22,-1,1,14
Y2-S2-186K19,6,558,PS,exp,38,↑,up,↑,0.7133400999009609,True,23,-1,0,14
Y2-S2-186K19,6,559,PS,exp,37,←,left,←,0.5946639999747276,True,23,-1,0,14
Y2-S2-186K19,6,560,PS,exp,35,↑,up,↑,0.46690230001695454,True,23,1,1,15
Y2-S2-186K19,6,561,PS,exp,41,→,right,→,1.1238049999810755,True,22,1,0,15
Y2-S2-186K19,6,562,PS,exp,25,↓,down,↓,0.5794072998687625,True,22,1,0,15
Y2-S2-186K19,6,563,PS,exp,27,↑,up,↑,0.5348390000872314,True,22,1,0,15
Y2-S2-186K19,6,564,PS,exp,28,↓,right,→,1.1002451998647302,False,21,-1,1,16
Y2-S2-186K19,7,565,PS,intra_train,38,←,up,↑,0.6100111999548972,False,18,-,-,-
Y2-S2-186K19,7,566,PS,intra_train,35,→,right,→,0.5208131999243051,True,18,-,-,-
Y2-S2-186K19,7,567,PS,intra_train,41,↑,up,↑,0.5898948998656124,True,18,-,-,-
Y2-S2-186K19,7,568,PS,intra_train,35,←,left,←,0.5831835998687893,True,18,-,-,-
Y2-S2-186K19,7,569,PS,intra_train,41,↑,up,↑,0.5226990000810474,True,18,-,-,-
Y2-S2-186K19,7,570,PS,exp,40,↓,up,↑,0.7909949999302626,False,12,-1,0,0
Y2-S2-186K19,7,571,PS,exp,39,→,left,←,0.6500585998874158,False,13,-1,0,0
Y2-S2-186K19,7,572,PS,exp,42,↓,up,↑,0.7597811999730766,False,14,-1,0,0
Y2-S2-186K19,7,573,PS,exp,49,↑,up,↑,0.6973602001089603,True,15,-1,0,0
Y2-S2-186K19,7,574,PS,exp,25,←,left,←,0.6680972001049668,True,15,-1,0,0
Y2-S2-186K19,7,575,PS,exp,48,↑,up,↑,0.5670932000502944,True,15,1,1,1
Y2-S2-186K19,7,576,PS,exp,36,←,up,↑,1.1618257998488843,False,14,-1,1,2
Y2-S2-186K19,7,577,PS,exp,45,↓,up,↑,1.1306237999815494,False,15,-1,0,2
Y2-S2-186K19,7,578,PS,exp,48,←,left,←,0.5575480998959392,True,16,-1,0,2
Y2-S2-186K19,7,579,PS,exp,32,↑,up,↑,1.0682579001877457,True,16,-1,0,2
Y2-S2-186K19,7,580,PS,exp,39,←,left,←,0.5511195999570191,True,16,1,1,3
Y2-S2-186K19,7,581,PS,exp,39,→,right,→,0.6441144999116659,True,15,1,0,3
Y2-S2-186K19,7,582,PS,exp,25,↓,right,→,0.46011339989490807,False,15,-1,1,4
Y2-S2-186K19,7,583,PS,exp,42,←,left,←,0.5986565002240241,True,16,-1,0,4
Y2-S2-186K19,7,584,PS,exp,41,↑,up,↑,0.5697113999631256,True,16,-1,0,4
Y2-S2-186K19,7,585,PS,exp,35,←,left,←,1.212207700125873,True,16,1,1,5
Y2-S2-186K19,7,586,PS,exp,46,↓,down,↓,0.5971496999263763,True,15,1,0,5
Y2-S2-186K19,7,587,PS,exp,25,→,right,→,0.8254966998938471,True,15,1,0,5
Y2-S2-186K19,7,588,PS,exp,45,←,left,←,0.9538068999536335,True,15,1,0,5
Y2-S2-186K19,7,589,PS,exp,32,↑,up,↑,0.8199638000223786,True,14,1,0,5
Y2-S2-186K19,7,590,PS,exp,29,←,left,←,0.6277904999442399,True,14,1,0,5
Y2-S2-186K19,7,591,PS,exp,33,→,right,→,0.5799239999614656,True,14,1,0,5
Y2-S2-186K19,7,592,PS,exp,46,↑,up,↑,0.6053422000259161,True,13,1,0,5
Y2-S2-186K19,7,593,PS,exp,46,→,right,→,0.5150656001642346,True,13,1,0,5
Y2-S2-186K19,7,594,PS,exp,30,↓,right,→,0.8560581000056118,False,13,-1,1,6
Y2-S2-186K19,7,595,PS,exp,32,←,left,←,0.45530760008841753,True,14,-1,0,6
Y2-S2-186K19,7,596,PS,exp,38,→,right,→,1.0427469999995083,True,14,-1,0,6
Y2-S2-186K19,7,597,PS,exp,45,↑,up,↑,0.7951650000177324,True,14,1,1,7
Y2-S2-186K19,7,598,PS,exp,27,→,left,←,0.9715210001450032,False,13,-1,1,8
Y2-S2-186K19,7,599,PS,exp,32,←,left,←,0.6561058999504894,True,14,-1,0,8
Y2-S2-186K19,7,600,PS,exp,42,↓,down,↓,1.0543515998870134,True,14,-1,0,8
Y2-S2-186K19,7,601,PS,exp,41,↑,up,↑,0.7886022001039237,True,14,1,1,9
Y2-S2-186K19,7,602,PS,exp,33,→,right,→,0.5737956000957638,True,13,1,0,9
Y2-S2-186K19,7,603,PS,exp,46,↑,up,↑,0.5496900998987257,True,13,1,0,9
Y2-S2-186K19,7,604,PS,exp,39,→,right,→,0.5754362000152469,True,13,1,0,9
Y2-S2-186K19,7,605,PS,exp,43,←,left,←,0.5583742999006063,True,12,1,0,9
Y2-S2-186K19,7,606,PS,exp,33,↑,up,↑,0.5221084000077099,True,12,1,0,9
Y2-S2-186K19,7,607,PS,exp,32,←,left,←,0.3848418998531997,True,12,1,0,9
Y2-S2-186K19,7,608,PS,exp,41,↑,up,↑,0.5198837998323143,True,11,1,0,9
Y2-S2-186K19,7,609,PS,exp,26,←,left,←,0.40523190004751086,True,11,1,0,9
Y2-S2-186K19,7,610,PS,exp,38,↓,down,↓,0.6431677001528442,True,11,1,0,9
Y2-S2-186K19,7,611,PS,exp,36,↑,up,↑,0.7134845000691712,True,10,1,0,9
Y2-S2-186K19,7,612,PS,exp,33,→,right,→,0.5000660999212414,True,10,1,0,9
Y2-S2-186K19,7,613,PS,exp,48,←,up,↑,0.6197363999672234,False,10,-1,1,10
Y2-S2-186K19,7,614,PS,exp,47,↓,down,↓,0.8684680999722332,True,11,-1,0,10
Y2-S2-186K19,7,615,PS,exp,47,→,right,→,0.5876686000265181,True,11,-1,0,10
Y2-S2-186K19,7,616,PS,exp,32,←,right,→,0.8719135001301765,False,11,-1,0,10
Y2-S2-186K19,7,617,PS,exp,42,→,right,→,0.41926589980721474,True,12,-1,0,10
Y2-S2-186K19,7,618,PS,exp,40,←,right,→,0.6423180000856519,False,12,-1,0,10
Y2-S2-186K19,7,619,PS,exp,26,↓,down,↓,0.8448040999937803,True,13,-1,0,10
Y2-S2-186K19,7,620,PS,exp,49,→,right,→,0.4673276001121849,True,13,-1,0,10
Y2-S2-186K19,7,621,PS,exp,41,←,left,←,0.9738457999192178,True,13,1,1,11
Y2-S2-186K19,7,622,PS,exp,44,↓,down,↓,0.6810457999818027,True,12,1,0,11
Y2-S2-186K19,7,623,PS,exp,47,↑,right,→,1.0377000998705626,False,12,-1,1,12
Y2-S2-186K19,7,624,PS,exp,27,→,right,→,0.9172971998341382,True,13,-1,0,12
Y2-S2-186K19,7,625,PS,exp,38,↑,down,↓,0.43818049994297326,False,13,-1,0,12
Y2-S2-186K19,7,626,PS,exp,30,↓,down,↓,0.8707115999422967,True,14,-1,0,12
Y2-S2-186K19,7,627,PS,exp,25,→,right,→,0.6144256999250501,True,14,-1,0,12
Y2-S2-186K19,7,628,PS,exp,49,↓,down,↓,0.6684869001619518,True,14,1,1,13
Y2-S2-186K19,7,629,PS,exp,28,↑,down,↓,0.6095654000528157,False,13,-1,1,14
Y2-S2-186K19,7,630,PS,exp,48,←,left,←,0.5264161999803036,True,14,-1,0,14
Y2-S2-186K19,7,631,PS,exp,50,↑,up,↑,0.8758463999256492,True,14,-1,0,14
Y2-S2-186K19,7,632,PS,exp,40,↓,up,↑,0.6683398999739438,False,14,-1,0,14
Y2-S2-186K19,7,633,PS,exp,39,↑,up,↑,0.6516457998659462,True,15,-1,0,14
Y2-S2-186K19,7,634,PS,exp,36,↓,down,↓,0.6126572999637574,True,15,-1,0,14
Y2-S2-186K19,7,635,PS,exp,46,→,no_key,no_letter,-1.0,False,15,-1,0,14
Y2-S2-186K19,7,636,PS,exp,48,←,left,←,0.5053773999679834,True,16,-1,0,14
Y2-S2-186K19,7,637,PS,exp,31,↓,right,→,0.6836207001470029,False,16,-1,0,14
Y2-S2-186K19,7,638,PS,exp,38,→,right,→,0.5917875000741333,True,17,-1,0,14
Y2-S2-186K19,7,639,PS,exp,45,←,left,←,0.5337800998240709,True,17,-1,0,14
Y2-S2-186K19,7,640,PS,exp,37,→,right,→,0.696656099986285,True,17,1,1,15
Y2-S2-186K19,7,641,PS,exp,37,←,left,←,0.4770160000771284,True,16,1,0,15
Y2-S2-186K19,7,642,PS,exp,29,↑,left,←,0.7184474999085069,False,16,-1,1,16
Y2-S2-186K19,8,643,AS,intra_train,34,→,right,→,0.7787440000101924,True,30,-,-,-
Y2-S2-186K19,8,644,AS,intra_train,32,↑,up,↑,0.6339330000337213,True,30,-,-,-
Y2-S2-186K19,8,645,AS,intra_train,27,←,left,←,0.7007946998346597,True,30,-,-,-
Y2-S2-186K19,8,646,AS,intra_train,34,↓,down,↓,0.8108103000558913,True,30,-,-,-
Y2-S2-186K19,8,647,AS,intra_train,40,→,right,→,0.8269305001012981,True,30,-,-,-
Y2-S2-186K19,8,648,AS,exp,44,↓,down,↓,1.4401459000073373,True,20,0,0,0
Y2-S2-186K19,8,649,AS,exp,40,→,right,→,0.6757654999382794,True,20,0,0,0
Y2-S2-186K19,8,650,AS,exp,38,↓,down,↓,1.0065186999272555,True,20,1,0,0
Y2-S2-186K19,8,651,AS,exp,33,→,right,→,0.6792943000327796,True,19,1,0,0
Y2-S2-186K19,8,652,AS,exp,30,↓,down,↓,0.9925317000597715,True,19,1,0,0
Y2-S2-186K19,8,653,AS,exp,48,→,right,→,0.6261402999516577,True,19,1,0,0
Y2-S2-186K19,8,654,AS,exp,34,↑,up,↑,0.7883260999806225,True,18,1,0,0
Y2-S2-186K19,8,655,AS,exp,42,→,right,→,1.6358712001238018,True,18,1,0,0
Y2-S2-186K19,8,656,AS,exp,29,↑,up,↑,0.6887974999845028,True,18,1,0,0
Y2-S2-186K19,8,657,AS,exp,39,←,left,←,0.6552315999288112,True,17,1,0,0
Y2-S2-186K19,8,658,AS,exp,48,→,right,→,0.7543057999573648,True,17,1,0,0
Y2-S2-186K19,8,659,AS,exp,35,↓,down,↓,0.9353668999392539,True,17,1,0,0
Y2-S2-186K19,8,660,AS,exp,40,→,up,↑,1.0995353998150676,False,16,-1,1,1
Y2-S2-186K19,8,661,AS,exp,50,↑,up,↑,0.9285548999905586,True,17,-1,0,1
Y2-S2-186K19,8,662,AS,exp,30,←,up,↑,1.032007799949497,False,17,-1,0,1
Y2-S2-186K19,8,663,AS,exp,47,↑,up,↑,1.144122599856928,True,18,-1,0,1
Y2-S2-186K19,8,664,AS,exp,25,↓,up,↑,1.5020872000604868,False,18,-1,0,1
Y2-S2-186K19,8,665,AS,exp,36,→,right,→,0.9158555001486093,True,19,-1,0,1
Y2-S2-186K19,8,666,AS,exp,31,↑,up,↑,0.631666700122878,True,19,-1,0,1
Y2-S2-186K19,8,667,AS,exp,31,→,right,→,0.7831639999058098,True,19,1,1,2
Y2-S2-186K19,8,668,AS,exp,29,←,left,←,0.4861945998854935,True,18,1,0,2
Y2-S2-186K19,8,669,AS,exp,37,↓,down,↓,0.5878214000258595,True,18,1,0,2
Y2-S2-186K19,8,670,AS,exp,44,→,right,→,0.5430340000893921,True,18,1,0,2
Y2-S2-186K19,8,671,AS,exp,32,↑,up,↑,0.48320950008928776,True,17,1,0,2
Y2-S2-186K19,8,672,AS,exp,38,←,right,→,0.5145351998507977,False,17,-1,1,3
Y2-S2-186K19,8,673,AS,exp,35,↓,up,↑,1.0943610998801887,False,18,-1,0,3
Y2-S2-186K19,8,674,AS,exp,33,→,right,→,0.5618360000662506,True,19,-1,0,3
Y2-S2-186K19,8,675,AS,exp,33,↑,up,↑,0.8895816002041101,True,19,-1,0,3
Y2-S2-186K19,8,676,AS,exp,50,↓,down,↓,0.8198766000568867,True,19,1,1,4
Y2-S2-186K19,8,677,AS,exp,41,→,right,→,0.6582677999977022,True,18,1,0,4
Y2-S2-186K19,8,678,AS,exp,47,↑,up,↑,0.9073625998571515,True,18,1,0,4
Y2-S2-186K19,8,679,AS,exp,30,↓,no_key,no_letter,-1.0,False,18,-1,1,5
Y2-S2-186K19,8,680,AS,exp,37,↑,no_key,no_letter,-1.0,False,19,-1,0,5
Y2-S2-186K19,8,681,AS,exp,45,←,no_key,no_letter,-1.0,False,20,-1,0,5
Y2-S2-186K19,8,682,AS,exp,48,→,right,→,0.6898998999968171,True,21,-1,0,5
Y2-S2-186K19,8,683,AS,exp,40,←,left,←,0.5447767002042383,True,21,-1,0,5
Y2-S2-186K19,8,684,AS,exp,43,↓,down,↓,0.7971310000866652,True,21,1,1,6
Y2-S2-186K19,8,685,AS,exp,49,↑,down,↓,1.0828945999965072,False,20,-1,1,7
Y2-S2-186K19,8,686,AS,exp,41,←,down,↓,1.654894799925387,False,21,-1,0,7
Y2-S2-186K19,8,687,AS,exp,30,→,right,→,0.6918528000824153,True,22,-1,0,7
Y2-S2-186K19,8,688,AS,exp,43,↑,right,→,1.2630535000935197,False,22,-1,0,7
Y2-S2-186K19,8,689,AS,exp,31,↓,down,↓,0.8450304002035409,True,23,-1,0,7
Y2-S2-186K19,8,690,AS,exp,34,←,left,←,0.6857205999549478,True,23,-1,0,7
Y2-S2-186K19,8,691,AS,exp,39,↑,up,↑,0.8700721000786871,True,23,1,1,8
Y2-S2-186K19,8,692,AS,exp,40,←,left,←,1.822280199965462,True,22,1,0,8
Y2-S2-186K19,8,693,AS,exp,39,→,right,→,0.7063086999114603,True,22,1,0,8
Y2-S2-186K19,8,694,AS,exp,49,↓,no_key,no_letter,-1.0,False,22,-1,1,9
Y2-S2-186K19,8,695,AS,exp,26,←,left,←,0.6893747001886368,True,23,-1,0,9
Y2-S2-186K19,8,696,AS,exp,36,↑,up,↑,1.4367128999438137,True,23,-1,0,9
Y2-S2-186K19,8,697,AS,exp,50,↓,down,↓,0.8477709998842329,True,23,1,1,10
Y2-S2-186K19,8,698,AS,exp,28,↑,up,↑,0.8163201999850571,True,22,1,0,10
Y2-S2-186K19,8,699,AS,exp,28,↓,down,↓,0.6109990999102592,True,22,1,0,10
Y2-S2-186K19,8,700,AS,exp,39,←,left,←,0.7204064000397921,True,22,1,0,10
Y2-S2-186K19,8,701,AS,exp,40,→,right,→,0.6189031000249088,True,21,1,0,10
Y2-S2-186K19,8,702,AS,exp,43,↓,down,↓,0.7747865000274032,True,21,1,0,10
Y2-S2-186K19,8,703,AS,exp,37,←,down,↓,1.150419999845326,False,21,-1,1,11
Y2-S2-186K19,8,704,AS,exp,33,↓,down,↓,0.5429611001163721,True,22,-1,0,11
Y2-S2-186K19,8,705,AS,exp,46,→,down,↓,1.3022696999832988,False,22,-1,0,11
Y2-S2-186K19,8,706,AS,exp,33,←,left,←,0.6718448000028729,True,23,-1,0,11
Y2-S2-186K19,8,707,AS,exp,32,↑,left,←,1.0802388999145478,False,23,-1,0,11
Y2-S2-186K19,8,708,AS,exp,34,→,right,→,0.8203324000351131,True,24,-1,0,11
Y2-S2-186K19,8,709,AS,exp,49,←,right,→,1.2278851000592113,False,24,-1,0,11
Y2-S2-186K19,8,710,AS,exp,33,↓,down,↓,0.95433109998703,True,25,-1,0,11
Y2-S2-186K19,8,711,AS,exp,34,→,right,→,1.2401445000432432,True,25,-1,0,11
Y2-S2-186K19,8,712,AS,exp,45,↓,down,↓,0.6225793999619782,True,25,1,1,12
Y2-S2-186K19,8,713,AS,exp,35,→,right,→,0.8300936999730766,True,24,1,0,12
Y2-S2-186K19,8,714,AS,exp,34,↑,left,←,1.3263882000464946,False,24,-1,1,13
Y2-S2-186K19,8,715,AS,exp,48,↓,down,↓,1.0551153998821974,True,25,-1,0,13
Y2-S2-186K19,8,716,AS,exp,26,↑,no_key,no_letter,-1.0,False,25,-1,0,13
Y2-S2-186K19,8,717,AS,exp,34,→,right,→,0.7122260998003185,True,26,-1,0,13
Y2-S2-186K19,8,718,AS,exp,50,←,left,←,0.6696246999781579,True,26,-1,0,13
Y2-S2-186K19,8,719,AS,exp,47,→,right,→,0.7484026998281479,True,26,1,1,14
Y2-S2-186K19,8,720,AS,exp,30,↑,up,↑,0.8574916999787092,True,25,1,0,14
Y2-S2-186K19,8,721,AS,exp,46,→,no_key,no_letter,-1.0,False,25,-1,1,15
Y2-S2-186K19,8,722,AS,exp,50,↑,no_key,no_letter,-1.0,False,26,-1,0,15
Y2-S2-186K19,8,723,AS,exp,26,↓,no_key,no_letter,-1.0,False,27,-1,0,15
Y2-S2-186K19,8,724,AS,exp,46,↑,up,↑,0.7286107998806983,True,28,-1,0,15
Y2-S2-186K19,8,725,AS,exp,30,←,left,←,0.654993100091815,True,28,-1,0,15
Y2-S2-186K19,8,726,AS,exp,42,→,right,→,0.550735600059852,True,28,1,1,16
