PART_ID,Block_no,Trial_no,Block_type,Trial_type,CSI,Stim_letter,Key_pressed,letter_choose,Rt,Corr,Stimulus Time,Level,Reversal,Revs_count
Y2-S2-206K20,1,1,PS,train,33,←,left,←,0.6338887000456452,True,30,-,-,-
Y2-S2-206K20,1,2,PS,train,45,→,right,→,0.6173561001196504,True,30,-,-,-
Y2-S2-206K20,1,3,PS,train,37,↓,down,↓,0.7195036001503468,True,30,-,-,-
Y2-S2-206K20,1,4,PS,train,34,←,left,←,0.6858020005747676,True,30,-,-,-
Y2-S2-206K20,1,5,PS,train,35,↑,up,↑,0.9123411001637578,True,30,-,-,-
Y2-S2-206K20,1,6,PS,train,47,←,left,←,0.6738472003489733,True,30,-,-,-
Y2-S2-206K20,1,7,PS,train,33,→,right,→,1.788196699693799,True,30,-,-,-
Y2-S2-206K20,1,8,PS,train,41,←,down,↓,0.9134972002357244,False,30,-,-,-
Y2-S2-206K20,1,9,PS,train,49,↓,down,↓,0.8913930002599955,True,30,-,-,-
Y2-S2-206K20,1,10,PS,train,33,←,left,←,0.5505760004743934,True,30,-,-,-
Y2-S2-206K20,2,11,AS,train,49,↓,down,↓,0.8172383001074195,True,45,-,-,-
Y2-S2-206K20,2,12,AS,train,45,→,right,→,0.7172282999381423,True,45,-,-,-
Y2-S2-206K20,2,13,AS,train,27,↓,down,↓,0.5345323998481035,True,45,-,-,-
Y2-S2-206K20,2,14,AS,train,37,←,left,←,0.6176836006343365,True,45,-,-,-
Y2-S2-206K20,2,15,AS,train,33,↓,down,↓,0.5846436005085707,True,45,-,-,-
Y2-S2-206K20,2,16,AS,train,40,←,left,←,0.5676986994221807,True,45,-,-,-
Y2-S2-206K20,2,17,AS,train,39,↑,up,↑,0.7344828005880117,True,45,-,-,-
Y2-S2-206K20,2,18,AS,train,29,→,right,→,0.7339631002396345,True,45,-,-,-
Y2-S2-206K20,2,19,AS,train,50,↑,down,↓,0.7177935997024179,False,45,-,-,-
Y2-S2-206K20,2,20,AS,train,36,→,right,→,0.7837586998939514,True,45,-,-,-
Y2-S2-206K20,-,21,PS,adaptive,42,↓,down,↓,0.4193370994180441,True,10,0,0,0
Y2-S2-206K20,-,22,PS,adaptive,34,→,up,↑,0.6182945994660258,False,10,-1,0,0
Y2-S2-206K20,-,23,PS,adaptive,35,↑,up,↑,0.57257129997015,True,11,-1,0,0
Y2-S2-206K20,-,24,PS,adaptive,40,→,right,→,0.5254325000569224,True,11,-1,0,0
Y2-S2-206K20,-,25,PS,adaptive,29,↓,down,↓,0.43305359967052937,True,11,1,1,1
Y2-S2-206K20,-,26,PS,adaptive,40,←,left,←,1.0220528999343514,True,10,1,0,1
Y2-S2-206K20,-,27,PS,adaptive,30,↓,down,↓,0.5916173001751304,True,10,1,0,1
Y2-S2-206K20,-,28,PS,adaptive,45,↑,up,↑,0.6775522995740175,True,10,1,0,1
Y2-S2-206K20,-,29,PS,adaptive,49,←,left,←,0.6012022001668811,True,9,1,0,1
Y2-S2-206K20,-,30,PS,adaptive,30,↓,down,↓,0.7279615998268127,True,9,1,0,1
Y2-S2-206K20,-,31,PS,adaptive,38,↑,up,↑,0.5918701002374291,True,9,1,0,1
Y2-S2-206K20,-,32,PS,adaptive,35,→,left,←,0.7831169003620744,False,8,-1,1,2
Y2-S2-206K20,-,33,PS,adaptive,42,↑,up,↑,0.5627241991460323,True,9,-1,0,2
Y2-S2-206K20,-,34,PS,adaptive,35,←,left,←,0.5893454002216458,True,9,-1,0,2
Y2-S2-206K20,-,35,PS,adaptive,29,→,up,↑,1.4819279992952943,False,9,-1,0,2
Y2-S2-206K20,-,36,PS,adaptive,48,↑,up,↑,0.7712815999984741,True,10,-1,0,2
Y2-S2-206K20,-,37,PS,adaptive,31,↓,down,↓,0.7500529000535607,True,10,-1,0,2
Y2-S2-206K20,-,38,PS,adaptive,43,←,left,←,0.8156055994331837,True,10,1,1,3
Y2-S2-206K20,-,39,PS,adaptive,43,↓,down,↓,0.5061416001990438,True,9,1,0,3
Y2-S2-206K20,-,40,PS,adaptive,50,←,down,↓,0.737292299978435,False,9,-1,1,4
Y2-S2-206K20,-,41,AS,adaptive,48,↑,right,→,0.8958934992551804,False,20,-1,0,0
Y2-S2-206K20,-,42,AS,adaptive,43,↓,down,↓,0.6170838000252843,True,21,-1,0,0
Y2-S2-206K20,-,43,AS,adaptive,37,←,left,←,0.7383243003860116,True,21,-1,0,0
Y2-S2-206K20,-,44,AS,adaptive,33,↓,down,↓,0.7717870995402336,True,21,1,1,1
Y2-S2-206K20,-,45,AS,adaptive,36,↑,up,↑,0.8123642997816205,True,20,1,0,1
Y2-S2-206K20,-,46,AS,adaptive,41,←,left,←,0.572291899472475,True,20,1,0,1
Y2-S2-206K20,-,47,AS,adaptive,25,↑,up,↑,0.6284124003723264,True,20,1,0,1
Y2-S2-206K20,-,48,AS,adaptive,39,↓,down,↓,0.9833108996972442,True,19,1,0,1
Y2-S2-206K20,-,49,AS,adaptive,41,→,right,→,0.7512261997908354,True,19,1,0,1
Y2-S2-206K20,-,50,AS,adaptive,34,↓,down,↓,0.6818845998495817,True,19,1,0,1
Y2-S2-206K20,-,51,AS,adaptive,25,↑,up,↑,0.7501098001375794,True,18,1,0,1
Y2-S2-206K20,-,52,AS,adaptive,25,←,left,←,0.6621657991781831,True,18,1,0,1
Y2-S2-206K20,-,53,AS,adaptive,49,↑,right,→,1.1081058997660875,False,18,-1,1,2
Y2-S2-206K20,-,54,AS,adaptive,49,→,right,→,0.5369378998875618,True,19,-1,0,2
Y2-S2-206K20,-,55,AS,adaptive,27,↓,down,↓,0.6698927003890276,True,19,-1,0,2
Y2-S2-206K20,-,56,AS,adaptive,48,↑,up,↑,0.738561300560832,True,19,1,1,3
Y2-S2-206K20,-,57,AS,adaptive,43,↓,down,↓,0.7204517005011439,True,18,1,0,3
Y2-S2-206K20,-,58,AS,adaptive,40,←,left,←,0.5595772992819548,True,18,1,0,3
Y2-S2-206K20,-,59,AS,adaptive,45,↓,down,↓,0.6732123997062445,True,18,1,0,3
Y2-S2-206K20,-,60,AS,adaptive,35,←,left,←,0.7684342991560698,True,17,1,0,3
Y2-S2-206K20,-,61,AS,adaptive,35,↑,up,↑,0.5641801003366709,True,17,1,0,3
Y2-S2-206K20,-,62,AS,adaptive,33,↓,left,←,1.03713390044868,False,17,-1,1,4
Y2-S2-206K20,1,63,AS,intra_train,33,→,right,→,0.6572914998978376,True,27,-,-,-
Y2-S2-206K20,1,64,AS,intra_train,34,↓,down,↓,0.6288711000233889,True,27,-,-,-
Y2-S2-206K20,1,65,AS,intra_train,27,→,right,→,0.7294514002278447,True,27,-,-,-
Y2-S2-206K20,1,66,AS,intra_train,33,←,left,←,0.5840007001534104,True,27,-,-,-
Y2-S2-206K20,1,67,AS,intra_train,27,↓,down,↓,0.5506080994382501,True,27,-,-,-
Y2-S2-206K20,1,68,AS,exp,41,→,right,→,0.4338068002834916,True,18,0,0,0
Y2-S2-206K20,1,69,AS,exp,25,↑,up,↑,0.6349135991185904,True,18,0,0,0
Y2-S2-206K20,1,70,AS,exp,50,←,left,←,0.6050209999084473,True,18,1,0,0
Y2-S2-206K20,1,71,AS,exp,29,↓,right,→,0.7484101001173258,False,17,-1,1,1
Y2-S2-206K20,1,72,AS,exp,43,←,right,→,0.9424648005515337,False,18,-1,0,1
Y2-S2-206K20,1,73,AS,exp,49,↓,down,↓,0.6382390996441245,True,19,-1,0,1
Y2-S2-206K20,1,74,AS,exp,40,↑,up,↑,0.863761099986732,True,19,-1,0,1
Y2-S2-206K20,1,75,AS,exp,25,←,left,←,0.8307541003450751,True,19,1,1,2
Y2-S2-206K20,1,76,AS,exp,47,→,no_key,no_letter,-1.0,False,18,-1,1,3
Y2-S2-206K20,1,77,AS,exp,49,←,left,←,1.049028399400413,True,19,-1,0,3
Y2-S2-206K20,1,78,AS,exp,32,↑,up,↑,0.5313929999247193,True,19,-1,0,3
Y2-S2-206K20,1,79,AS,exp,47,→,right,→,0.78927499987185,True,19,1,1,4
Y2-S2-206K20,1,80,AS,exp,38,↓,down,↓,0.5003722999244928,True,18,1,0,4
Y2-S2-206K20,1,81,AS,exp,31,←,left,←,0.4883508002385497,True,18,1,0,4
Y2-S2-206K20,1,82,AS,exp,43,↑,up,↑,1.233911500312388,True,18,1,0,4
Y2-S2-206K20,1,83,AS,exp,46,→,right,→,0.5354580003768206,True,17,1,0,4
Y2-S2-206K20,1,84,AS,exp,40,↑,up,↑,0.6091871000826359,True,17,1,0,4
Y2-S2-206K20,1,85,AS,exp,35,↓,down,↓,0.8130130004137754,True,17,1,0,4
Y2-S2-206K20,1,86,AS,exp,45,→,right,→,0.720762200653553,True,16,1,0,4
Y2-S2-206K20,1,87,AS,exp,44,↑,left,←,1.4217092003673315,False,16,-1,1,5
Y2-S2-206K20,1,88,AS,exp,32,→,right,→,0.49855699948966503,True,17,-1,0,5
Y2-S2-206K20,1,89,AS,exp,48,↑,up,↑,0.48063339944928885,True,17,-1,0,5
Y2-S2-206K20,1,90,AS,exp,35,↓,down,↓,0.6114921001717448,True,17,1,1,6
Y2-S2-206K20,1,91,AS,exp,35,←,left,←,0.6941131995990872,True,16,1,0,6
Y2-S2-206K20,1,92,AS,exp,45,↓,up,↑,0.9225427005439997,False,16,-1,1,7
Y2-S2-206K20,1,93,AS,exp,50,↑,no_key,no_letter,-1.0,False,17,-1,0,7
Y2-S2-206K20,1,94,AS,exp,28,↓,down,↓,0.9724928997457027,True,18,-1,0,7
Y2-S2-206K20,1,95,AS,exp,25,→,right,→,0.8386392006650567,True,18,-1,0,7
Y2-S2-206K20,1,96,AS,exp,47,↓,left,←,1.785895800217986,False,18,-1,0,7
Y2-S2-206K20,1,97,AS,exp,48,↑,up,↑,0.5287156002596021,True,19,-1,0,7
Y2-S2-206K20,1,98,AS,exp,28,↓,down,↓,0.7501573003828526,True,19,-1,0,7
Y2-S2-206K20,1,99,AS,exp,25,↑,down,↓,1.4150294000282884,False,19,-1,0,7
Y2-S2-206K20,1,100,AS,exp,39,→,right,→,0.6052299002185464,True,20,-1,0,7
Y2-S2-206K20,1,101,AS,exp,25,←,left,←,0.5598889999091625,True,20,-1,0,7
Y2-S2-206K20,1,102,AS,exp,43,→,right,→,0.4671601001173258,True,20,1,1,8
Y2-S2-206K20,1,103,AS,exp,41,←,left,←,1.4870764994993806,True,19,1,0,8
Y2-S2-206K20,1,104,AS,exp,48,→,right,→,0.8460503993555903,True,19,1,0,8
Y2-S2-206K20,1,105,AS,exp,41,↑,up,↑,1.4904452003538609,True,19,1,0,8
Y2-S2-206K20,1,106,AS,exp,42,→,left,←,0.8642712002620101,False,18,-1,1,9
Y2-S2-206K20,1,107,AS,exp,28,←,left,←,0.7290716003626585,True,19,-1,0,9
Y2-S2-206K20,1,108,AS,exp,32,→,right,→,1.0879106996580958,True,19,-1,0,9
Y2-S2-206K20,1,109,AS,exp,42,↑,up,↑,1.374701900407672,True,19,1,1,10
Y2-S2-206K20,1,110,AS,exp,40,↓,down,↓,1.0239587994292378,True,18,1,0,10
Y2-S2-206K20,1,111,AS,exp,31,→,left,←,0.9206892997026443,False,18,-1,1,11
Y2-S2-206K20,1,112,AS,exp,26,←,left,←,0.5349578000605106,True,19,-1,0,11
Y2-S2-206K20,1,113,AS,exp,47,→,right,→,1.211132500320673,True,19,-1,0,11
Y2-S2-206K20,1,114,AS,exp,40,←,left,←,0.5306652998551726,True,19,1,1,12
Y2-S2-206K20,1,115,AS,exp,30,↓,right,→,0.9674388999119401,False,18,-1,1,13
Y2-S2-206K20,1,116,AS,exp,46,←,left,←,0.7522042999044061,True,19,-1,0,13
Y2-S2-206K20,1,117,AS,exp,45,↓,down,↓,0.7518975995481014,True,19,-1,0,13
Y2-S2-206K20,1,118,AS,exp,27,→,right,→,0.7655408997088671,True,19,1,1,14
Y2-S2-206K20,1,119,AS,exp,36,↓,down,↓,0.61167629994452,True,18,1,0,14
Y2-S2-206K20,1,120,AS,exp,33,↑,up,↑,0.6467163991183043,True,18,1,0,14
Y2-S2-206K20,1,121,AS,exp,43,→,right,→,0.583390399813652,True,18,1,0,14
Y2-S2-206K20,1,122,AS,exp,42,↑,up,↑,0.46464299969375134,True,17,1,0,14
Y2-S2-206K20,1,123,AS,exp,30,←,down,↓,0.881109400652349,False,17,-1,1,15
Y2-S2-206K20,1,124,AS,exp,34,↑,up,↑,0.5765153001993895,True,18,-1,0,15
Y2-S2-206K20,1,125,AS,exp,25,←,left,←,0.617284600622952,True,18,-1,0,15
Y2-S2-206K20,1,126,AS,exp,47,→,right,→,1.2511382000520825,True,18,1,1,16
Y2-S2-206K20,2,127,PS,intra_train,37,↓,down,↓,0.5843639997765422,True,15,-,-,-
Y2-S2-206K20,2,128,PS,intra_train,26,←,left,←,0.4818802997469902,True,15,-,-,-
Y2-S2-206K20,2,129,PS,intra_train,40,↓,down,↓,0.47205410059541464,True,15,-,-,-
Y2-S2-206K20,2,130,PS,intra_train,32,←,left,←,1.1417695004492998,True,15,-,-,-
Y2-S2-206K20,2,131,PS,intra_train,28,↑,up,↑,0.7724051997065544,True,15,-,-,-
Y2-S2-206K20,2,132,PS,exp,29,→,left,←,1.5286836000159383,False,10,-1,0,0
Y2-S2-206K20,2,133,PS,exp,33,↑,up,↑,0.5642662001773715,True,11,-1,0,0
Y2-S2-206K20,2,134,PS,exp,46,→,right,→,0.5860983999446034,True,11,-1,0,0
Y2-S2-206K20,2,135,PS,exp,26,←,left,←,0.6549276001751423,True,11,1,1,1
Y2-S2-206K20,2,136,PS,exp,49,↑,down,↓,1.369930999353528,False,10,-1,1,2
Y2-S2-206K20,2,137,PS,exp,32,←,left,←,0.8091886006295681,True,11,-1,0,2
Y2-S2-206K20,2,138,PS,exp,25,↑,up,↑,0.5075987996533513,True,11,-1,0,2
Y2-S2-206K20,2,139,PS,exp,50,→,right,→,0.6575138000771403,True,11,1,1,3
Y2-S2-206K20,2,140,PS,exp,37,←,left,←,0.555829000659287,True,10,1,0,3
Y2-S2-206K20,2,141,PS,exp,46,↑,right,→,0.5468848999589682,False,10,-1,1,4
Y2-S2-206K20,2,142,PS,exp,45,→,right,→,0.47638790030032396,True,11,-1,0,4
Y2-S2-206K20,2,143,PS,exp,36,←,left,←,0.4029198996722698,True,11,-1,0,4
Y2-S2-206K20,2,144,PS,exp,45,↑,up,↑,1.416172300465405,True,11,1,1,5
Y2-S2-206K20,2,145,PS,exp,50,→,right,→,0.47806719969958067,True,10,1,0,5
Y2-S2-206K20,2,146,PS,exp,38,↑,left,←,0.6943138996139169,False,10,-1,1,6
Y2-S2-206K20,2,147,PS,exp,47,↓,down,↓,0.680345400236547,True,11,-1,0,6
Y2-S2-206K20,2,148,PS,exp,36,→,left,←,1.060767499729991,False,11,-1,0,6
Y2-S2-206K20,2,149,PS,exp,50,←,left,←,0.5595311000943184,True,12,-1,0,6
Y2-S2-206K20,2,150,PS,exp,44,→,left,←,0.982545199804008,False,12,-1,0,6
Y2-S2-206K20,2,151,PS,exp,29,↑,up,↑,0.47211659979075193,True,13,-1,0,6
Y2-S2-206K20,2,152,PS,exp,49,←,left,←,0.4803071999922395,True,13,-1,0,6
Y2-S2-206K20,2,153,PS,exp,32,↓,down,↓,0.5095671005547047,True,13,1,1,7
Y2-S2-206K20,2,154,PS,exp,46,←,left,←,0.4654184002429247,True,12,1,0,7
Y2-S2-206K20,2,155,PS,exp,46,→,left,←,0.5787056004628539,False,12,-1,1,8
Y2-S2-206K20,2,156,PS,exp,25,↑,up,↑,0.5400753999128938,True,13,-1,0,8
Y2-S2-206K20,2,157,PS,exp,47,↓,down,↓,0.642718099988997,True,13,-1,0,8
Y2-S2-206K20,2,158,PS,exp,47,←,left,←,0.6903091007843614,True,13,1,1,9
Y2-S2-206K20,2,159,PS,exp,26,↑,up,↑,0.8950987998396158,True,12,1,0,9
Y2-S2-206K20,2,160,PS,exp,26,→,right,→,0.6338400999084115,True,12,1,0,9
Y2-S2-206K20,2,161,PS,exp,28,↑,left,←,0.6736086001619697,False,12,-1,1,10
Y2-S2-206K20,2,162,PS,exp,29,→,right,→,0.6343699004501104,True,13,-1,0,10
Y2-S2-206K20,2,163,PS,exp,32,↓,down,↓,0.6529470002278686,True,13,-1,0,10
Y2-S2-206K20,2,164,PS,exp,34,←,left,←,0.5268890997394919,True,13,1,1,11
Y2-S2-206K20,2,165,PS,exp,39,↑,up,↑,0.4600069997832179,True,12,1,0,11
Y2-S2-206K20,2,166,PS,exp,29,←,left,←,0.48642659932374954,True,12,1,0,11
Y2-S2-206K20,2,167,PS,exp,46,↓,left,←,1.1282970001921058,False,12,-1,1,12
Y2-S2-206K20,2,168,PS,exp,50,←,left,←,0.4571757996454835,True,13,-1,0,12
Y2-S2-206K20,2,169,PS,exp,35,→,right,→,0.5383986001834273,True,13,-1,0,12
Y2-S2-206K20,2,170,PS,exp,37,↑,up,↑,0.44521330017596483,True,13,1,1,13
Y2-S2-206K20,2,171,PS,exp,34,↓,down,↓,0.599273500032723,True,12,1,0,13
Y2-S2-206K20,2,172,PS,exp,39,↑,up,↑,0.49850269965827465,True,12,1,0,13
Y2-S2-206K20,2,173,PS,exp,36,↓,down,↓,0.6655711000785232,True,12,1,0,13
Y2-S2-206K20,2,174,PS,exp,35,←,left,←,0.5014720996841788,True,11,1,0,13
Y2-S2-206K20,2,175,PS,exp,43,→,left,←,0.5694649005308747,False,11,-1,1,14
Y2-S2-206K20,2,176,PS,exp,27,↑,up,↑,0.44827259983867407,True,12,-1,0,14
Y2-S2-206K20,2,177,PS,exp,26,↓,right,→,1.289920900017023,False,12,-1,0,14
Y2-S2-206K20,2,178,PS,exp,47,←,left,←,0.6861637998372316,True,13,-1,0,14
Y2-S2-206K20,2,179,PS,exp,33,→,right,→,0.5764899998903275,True,13,-1,0,14
Y2-S2-206K20,2,180,PS,exp,43,←,left,←,0.5645690001547337,True,13,1,1,15
Y2-S2-206K20,2,181,PS,exp,41,↓,down,↓,0.5765090007334948,True,12,1,0,15
Y2-S2-206K20,2,182,PS,exp,26,←,left,←,0.45565380062907934,True,12,1,0,15
Y2-S2-206K20,2,183,PS,exp,25,↓,down,↓,0.6069626994431019,True,12,1,0,15
Y2-S2-206K20,2,184,PS,exp,36,→,left,←,0.6410859003663063,False,11,-1,1,16
Y2-S2-206K20,3,185,PS,intra_train,48,←,left,←,0.44142260029911995,True,15,-,-,-
Y2-S2-206K20,3,186,PS,intra_train,28,↓,down,↓,0.5932515999302268,True,15,-,-,-
Y2-S2-206K20,3,187,PS,intra_train,44,→,right,→,0.5960852997377515,True,15,-,-,-
Y2-S2-206K20,3,188,PS,intra_train,41,↓,down,↓,0.5445004999637604,True,15,-,-,-
Y2-S2-206K20,3,189,PS,intra_train,49,→,right,→,0.5652574999257922,True,15,-,-,-
Y2-S2-206K20,3,190,PS,exp,49,←,left,←,0.9004298001527786,True,10,0,0,0
Y2-S2-206K20,3,191,PS,exp,28,→,down,↓,1.1005148002877831,False,10,-1,0,0
Y2-S2-206K20,3,192,PS,exp,36,↑,up,↑,0.451829900033772,True,11,-1,0,0
Y2-S2-206K20,3,193,PS,exp,46,←,left,←,0.6487881001085043,True,11,-1,0,0
Y2-S2-206K20,3,194,PS,exp,28,→,left,←,0.7866152003407478,False,11,-1,0,0
Y2-S2-206K20,3,195,PS,exp,43,↓,down,↓,0.49321609921753407,True,12,-1,0,0
Y2-S2-206K20,3,196,PS,exp,43,→,right,→,0.6034926008433104,True,12,-1,0,0
Y2-S2-206K20,3,197,PS,exp,29,←,left,←,0.5105522004887462,True,12,1,1,1
Y2-S2-206K20,3,198,PS,exp,29,↓,down,↓,0.5871955994516611,True,11,1,0,1
Y2-S2-206K20,3,199,PS,exp,25,←,left,←,0.4339960003271699,True,11,1,0,1
Y2-S2-206K20,3,200,PS,exp,49,→,right,→,0.5664025004953146,True,11,1,0,1
Y2-S2-206K20,3,201,PS,exp,34,↓,down,↓,0.5529694994911551,True,10,1,0,1
Y2-S2-206K20,3,202,PS,exp,25,→,right,→,0.7777126003056765,True,10,1,0,1
Y2-S2-206K20,3,203,PS,exp,37,←,left,←,0.5952544994652271,True,10,1,0,1
Y2-S2-206K20,3,204,PS,exp,42,↓,right,→,0.6530365999788046,False,9,-1,1,2
Y2-S2-206K20,3,205,PS,exp,25,←,left,←,0.453036000020802,True,10,-1,0,2
Y2-S2-206K20,3,206,PS,exp,45,→,right,→,0.5605557998642325,True,10,-1,0,2
Y2-S2-206K20,3,207,PS,exp,29,↓,left,←,0.7656613998115063,False,10,-1,0,2
Y2-S2-206K20,3,208,PS,exp,38,↑,up,↑,0.5491901999339461,True,11,-1,0,2
Y2-S2-206K20,3,209,PS,exp,39,←,right,→,1.1428014999255538,False,11,-1,0,2
Y2-S2-206K20,3,210,PS,exp,27,↑,up,↑,1.2794829001650214,True,12,-1,0,2
Y2-S2-206K20,3,211,PS,exp,43,←,right,→,0.7739903004840016,False,12,-1,0,2
Y2-S2-206K20,3,212,PS,exp,44,→,right,→,0.9791880007833242,True,13,-1,0,2
Y2-S2-206K20,3,213,PS,exp,26,↑,up,↑,0.7685772990807891,True,13,-1,0,2
Y2-S2-206K20,3,214,PS,exp,31,→,right,→,0.6873204000294209,True,13,1,1,3
Y2-S2-206K20,3,215,PS,exp,50,↓,up,↑,0.6736100995913148,False,12,-1,1,4
Y2-S2-206K20,3,216,PS,exp,40,→,right,→,0.954925799742341,True,13,-1,0,4
Y2-S2-206K20,3,217,PS,exp,50,↓,down,↓,1.2944004004821181,True,13,-1,0,4
Y2-S2-206K20,3,218,PS,exp,45,↑,up,↑,0.8301783995702863,True,13,1,1,5
Y2-S2-206K20,3,219,PS,exp,43,↓,down,↓,0.7988210003823042,True,12,1,0,5
Y2-S2-206K20,3,220,PS,exp,38,→,right,→,0.7871930003166199,True,12,1,0,5
Y2-S2-206K20,3,221,PS,exp,50,↑,up,↑,0.7839720994234085,True,12,1,0,5
Y2-S2-206K20,3,222,PS,exp,25,↓,down,↓,0.7896875003352761,True,11,1,0,5
Y2-S2-206K20,3,223,PS,exp,44,↑,up,↑,0.887121600098908,True,11,1,0,5
Y2-S2-206K20,3,224,PS,exp,41,↓,down,↓,1.0251409001648426,True,11,1,0,5
Y2-S2-206K20,3,225,PS,exp,26,←,left,←,0.6890531005337834,True,10,1,0,5
Y2-S2-206K20,3,226,PS,exp,44,→,right,→,0.7401230996474624,True,10,1,0,5
Y2-S2-206K20,3,227,PS,exp,46,←,left,←,0.6347837001085281,True,10,1,0,5
Y2-S2-206K20,3,228,PS,exp,38,↑,up,↑,0.8934059999883175,True,9,1,0,5
Y2-S2-206K20,3,229,PS,exp,39,←,left,←,0.6374393003061414,True,9,1,0,5
Y2-S2-206K20,3,230,PS,exp,40,→,right,→,0.8882137993350625,True,9,1,0,5
Y2-S2-206K20,3,231,PS,exp,42,←,left,←,0.4621553998440504,True,8,1,0,5
Y2-S2-206K20,3,232,PS,exp,40,↑,up,↑,0.6483330000191927,True,8,1,0,5
Y2-S2-206K20,3,233,PS,exp,41,↓,right,→,0.9334909003227949,False,8,-1,1,6
Y2-S2-206K20,3,234,PS,exp,41,←,left,←,0.4427916994318366,True,9,-1,0,6
Y2-S2-206K20,3,235,PS,exp,45,↑,left,←,0.8331837998703122,False,9,-1,0,6
Y2-S2-206K20,3,236,PS,exp,50,→,right,→,0.7789190001785755,True,10,-1,0,6
Y2-S2-206K20,3,237,PS,exp,35,↑,up,↑,0.5980794997885823,True,10,-1,0,6
Y2-S2-206K20,3,238,PS,exp,31,←,left,←,0.7705358993262053,True,10,1,1,7
Y2-S2-206K20,3,239,PS,exp,40,↑,up,↑,0.5982713997364044,True,9,1,0,7
Y2-S2-206K20,3,240,PS,exp,36,←,left,←,0.5767421005293727,True,9,1,0,7
Y2-S2-206K20,3,241,PS,exp,42,→,right,→,0.7940333997830749,True,9,1,0,7
Y2-S2-206K20,3,242,PS,exp,40,↑,up,↑,0.5424138000234962,True,8,1,0,7
Y2-S2-206K20,3,243,PS,exp,42,↓,down,↓,0.6022279998287559,True,8,1,0,7
Y2-S2-206K20,3,244,PS,exp,27,←,left,←,0.5796858994290233,True,8,1,0,7
Y2-S2-206K20,3,245,PS,exp,27,↓,down,↓,0.9864702001214027,True,7,1,0,7
Y2-S2-206K20,3,246,PS,exp,49,↑,right,→,0.8222122993320227,False,7,-1,1,8
Y2-S2-206K20,3,247,PS,exp,38,↓,down,↓,0.6254444997757673,True,8,-1,0,8
Y2-S2-206K20,3,248,PS,exp,32,→,right,→,0.5442388001829386,True,8,-1,0,8
Y2-S2-206K20,3,249,PS,exp,26,↑,up,↑,0.5314149996265769,True,8,1,1,9
Y2-S2-206K20,3,250,PS,exp,41,→,right,→,0.8340956000611186,True,7,1,0,9
Y2-S2-206K20,3,251,PS,exp,48,↑,up,↑,0.49280809983611107,True,7,1,0,9
Y2-S2-206K20,3,252,PS,exp,40,→,right,→,0.7199226999655366,True,7,1,0,9
Y2-S2-206K20,3,253,PS,exp,40,↓,no_key,no_letter,-1.0,False,6,-1,1,10
Y2-S2-206K20,3,254,PS,exp,28,←,left,←,0.5172717003151774,True,7,-1,0,10
Y2-S2-206K20,3,255,PS,exp,50,↑,up,↑,0.48821100033819675,True,7,-1,0,10
Y2-S2-206K20,3,256,PS,exp,49,↓,down,↓,0.6805825000628829,True,7,1,1,11
Y2-S2-206K20,3,257,PS,exp,49,↑,up,↑,0.8437270997092128,True,6,1,0,11
Y2-S2-206K20,3,258,PS,exp,46,←,left,←,0.7368932999670506,True,6,1,0,11
Y2-S2-206K20,3,259,PS,exp,31,↓,left,←,0.6340788993984461,False,6,-1,1,12
Y2-S2-206K20,3,260,PS,exp,48,←,left,←,0.4318223996087909,True,7,-1,0,12
Y2-S2-206K20,3,261,PS,exp,27,↑,left,←,0.6302938004955649,False,7,-1,0,12
Y2-S2-206K20,3,262,PS,exp,25,→,left,←,0.865756900049746,False,8,-1,0,12
Y2-S2-206K20,3,263,PS,exp,34,↓,down,↓,0.5641680993139744,True,9,-1,0,12
Y2-S2-206K20,3,264,PS,exp,45,→,right,→,1.135002600029111,True,9,-1,0,12
Y2-S2-206K20,3,265,PS,exp,49,↑,down,↓,1.2861428000032902,False,9,-1,0,12
Y2-S2-206K20,3,266,PS,exp,26,←,left,←,0.7124798996374011,True,10,-1,0,12
Y2-S2-206K20,3,267,PS,exp,29,↓,down,↓,0.5494406009092927,True,10,-1,0,12
Y2-S2-206K20,3,268,PS,exp,35,↑,up,↑,0.5704251993447542,True,10,1,1,13
Y2-S2-206K20,3,269,PS,exp,39,↓,left,←,0.8379299994558096,False,9,-1,1,14
Y2-S2-206K20,3,270,PS,exp,28,↑,up,↑,0.44441929925233126,True,10,-1,0,14
Y2-S2-206K20,3,271,PS,exp,42,→,right,→,0.5483531001955271,True,10,-1,0,14
Y2-S2-206K20,3,272,PS,exp,45,←,left,←,0.4914119001477957,True,10,1,1,15
Y2-S2-206K20,3,273,PS,exp,26,↓,left,←,0.8278557993471622,False,9,-1,1,16
Y2-S2-206K20,4,274,AS,intra_train,39,→,right,→,0.6902263006195426,True,27,-,-,-
Y2-S2-206K20,4,275,AS,intra_train,27,←,left,←,1.2031362000852823,True,27,-,-,-
Y2-S2-206K20,4,276,AS,intra_train,46,↓,down,↓,0.8151826001703739,True,27,-,-,-
Y2-S2-206K20,4,277,AS,intra_train,41,→,right,→,0.638909799978137,True,27,-,-,-
Y2-S2-206K20,4,278,AS,intra_train,37,↑,up,↑,1.0006562005728483,True,27,-,-,-
Y2-S2-206K20,4,279,AS,exp,31,←,left,←,0.7720846999436617,True,18,0,0,0
Y2-S2-206K20,4,280,AS,exp,50,↑,up,↑,0.9186875997111201,True,18,0,0,0
Y2-S2-206K20,4,281,AS,exp,49,←,right,→,0.8602122003212571,False,18,-1,0,0
Y2-S2-206K20,4,282,AS,exp,32,↑,up,↑,0.8163741994649172,True,19,-1,0,0
Y2-S2-206K20,4,283,AS,exp,34,→,right,→,0.5305172000080347,True,19,-1,0,0
Y2-S2-206K20,4,284,AS,exp,49,←,left,←,0.7252228995785117,True,19,1,1,1
Y2-S2-206K20,4,285,AS,exp,45,→,right,→,0.6787656992673874,True,18,1,0,1
Y2-S2-206K20,4,286,AS,exp,46,↓,down,↓,0.48226069938391447,True,18,1,0,1
Y2-S2-206K20,4,287,AS,exp,46,←,left,←,0.6130228005349636,True,18,1,0,1
Y2-S2-206K20,4,288,AS,exp,30,↓,left,←,0.9457427999004722,False,17,-1,1,2
Y2-S2-206K20,4,289,AS,exp,36,↑,up,↑,0.6333461999893188,True,18,-1,0,2
Y2-S2-206K20,4,290,AS,exp,25,→,right,→,0.4768195003271103,True,18,-1,0,2
Y2-S2-206K20,4,291,AS,exp,38,↓,up,↑,0.7141784997656941,False,18,-1,0,2
Y2-S2-206K20,4,292,AS,exp,36,→,right,→,0.7117365999147296,True,19,-1,0,2
Y2-S2-206K20,4,293,AS,exp,49,↑,up,↑,0.8549868995323777,True,19,-1,0,2
Y2-S2-206K20,4,294,AS,exp,47,←,left,←,0.6581089999526739,True,19,1,1,3
Y2-S2-206K20,4,295,AS,exp,37,↓,down,↓,0.7449972992762923,True,18,1,0,3
Y2-S2-206K20,4,296,AS,exp,48,→,right,→,0.7338502006605268,True,18,1,0,3
Y2-S2-206K20,4,297,AS,exp,36,↑,up,↑,0.5259977001696825,True,18,1,0,3
Y2-S2-206K20,4,298,AS,exp,44,→,right,→,0.8507209001109004,True,17,1,0,3
Y2-S2-206K20,4,299,AS,exp,27,↓,down,↓,0.5514684002846479,True,17,1,0,3
Y2-S2-206K20,4,300,AS,exp,48,←,left,←,0.5830338997766376,True,17,1,0,3
Y2-S2-206K20,4,301,AS,exp,30,↓,down,↓,0.5698245000094175,True,16,1,0,3
Y2-S2-206K20,4,302,AS,exp,26,←,left,←,0.45866410061717033,True,16,1,0,3
Y2-S2-206K20,4,303,AS,exp,47,→,right,→,0.7422909000888467,True,16,1,0,3
Y2-S2-206K20,4,304,AS,exp,34,←,left,←,0.4540097005665302,True,15,1,0,3
Y2-S2-206K20,4,305,AS,exp,42,→,right,→,1.6559088993817568,True,15,1,0,3
Y2-S2-206K20,4,306,AS,exp,47,←,left,←,0.3505306001752615,True,15,1,0,3
Y2-S2-206K20,4,307,AS,exp,40,→,left,←,0.765039099380374,False,14,-1,1,4
Y2-S2-206K20,4,308,AS,exp,48,↓,down,↓,0.5756216999143362,True,15,-1,0,4
Y2-S2-206K20,4,309,AS,exp,43,←,right,→,1.2870185002684593,False,15,-1,0,4
Y2-S2-206K20,4,310,AS,exp,30,→,right,→,0.40037669986486435,True,16,-1,0,4
Y2-S2-206K20,4,311,AS,exp,45,↑,up,↑,0.43619799986481667,True,16,-1,0,4
Y2-S2-206K20,4,312,AS,exp,31,↓,down,↓,0.8302639992907643,True,16,1,1,5
Y2-S2-206K20,4,313,AS,exp,38,→,right,→,0.44316690042614937,True,15,1,0,5
Y2-S2-206K20,4,314,AS,exp,41,↓,right,→,1.1596133997663856,False,15,-1,1,6
Y2-S2-206K20,4,315,AS,exp,44,←,left,←,0.6327871000394225,True,16,-1,0,6
Y2-S2-206K20,4,316,AS,exp,34,↑,up,↑,0.8417145004495978,True,16,-1,0,6
Y2-S2-206K20,4,317,AS,exp,41,↓,down,↓,0.7163368007168174,True,16,1,1,7
Y2-S2-206K20,4,318,AS,exp,47,↑,up,↑,0.610733799636364,True,15,1,0,7
Y2-S2-206K20,4,319,AS,exp,40,→,left,←,0.67985749989748,False,15,-1,1,8
Y2-S2-206K20,4,320,AS,exp,26,↓,down,↓,0.8022216996178031,True,16,-1,0,8
Y2-S2-206K20,4,321,AS,exp,46,→,right,→,0.48685190081596375,True,16,-1,0,8
Y2-S2-206K20,4,322,AS,exp,36,←,left,←,0.474957600235939,True,16,1,1,9
Y2-S2-206K20,4,323,AS,exp,41,→,right,→,0.3839130001142621,True,15,1,0,9
Y2-S2-206K20,4,324,AS,exp,33,↑,up,↑,0.7038051998242736,True,15,1,0,9
Y2-S2-206K20,4,325,AS,exp,27,←,left,←,0.724524000659585,True,15,1,0,9
Y2-S2-206K20,4,326,AS,exp,45,↓,down,↓,0.6782833999022841,True,14,1,0,9
Y2-S2-206K20,4,327,AS,exp,50,→,right,→,0.7975491005927324,True,14,1,0,9
Y2-S2-206K20,4,328,AS,exp,30,↓,down,↓,0.8855309998616576,True,14,1,0,9
Y2-S2-206K20,4,329,AS,exp,32,→,right,→,0.8287129001691937,True,13,1,0,9
Y2-S2-206K20,4,330,AS,exp,27,↓,down,↓,0.7984170997515321,True,13,1,0,9
Y2-S2-206K20,4,331,AS,exp,47,→,right,→,0.4931331994011998,True,13,1,0,9
Y2-S2-206K20,4,332,AS,exp,40,←,left,←,0.668440300039947,True,12,1,0,9
Y2-S2-206K20,4,333,AS,exp,27,→,right,→,0.4199199005961418,True,12,1,0,9
Y2-S2-206K20,4,334,AS,exp,30,←,right,→,0.4511149004101753,False,12,-1,1,10
Y2-S2-206K20,4,335,AS,exp,38,↑,left,←,0.8597340993583202,False,13,-1,0,10
Y2-S2-206K20,4,336,AS,exp,28,→,left,←,1.3564421003684402,False,14,-1,0,10
Y2-S2-206K20,4,337,AS,exp,49,←,left,←,0.83603909984231,True,15,-1,0,10
Y2-S2-206K20,4,338,AS,exp,42,↓,down,↓,0.7827907996252179,True,15,-1,0,10
Y2-S2-206K20,4,339,AS,exp,39,→,no_key,no_letter,-1.0,False,15,-1,0,10
Y2-S2-206K20,4,340,AS,exp,31,↑,up,↑,0.8805390996858478,True,16,-1,0,10
Y2-S2-206K20,4,341,AS,exp,32,↓,right,→,1.4985528998076916,False,16,-1,0,10
Y2-S2-206K20,4,342,AS,exp,36,↑,up,↑,0.6251898994669318,True,17,-1,0,10
Y2-S2-206K20,4,343,AS,exp,39,→,right,→,1.2217227006331086,True,17,-1,0,10
Y2-S2-206K20,4,344,AS,exp,33,←,left,←,0.4530509999021888,True,17,1,1,11
Y2-S2-206K20,4,345,AS,exp,40,↓,down,↓,1.1417816998437047,True,16,1,0,11
Y2-S2-206K20,4,346,AS,exp,34,→,right,→,0.7433398999273777,True,16,1,0,11
Y2-S2-206K20,4,347,AS,exp,50,←,left,←,0.9172188993543386,True,16,1,0,11
Y2-S2-206K20,4,348,AS,exp,45,↓,up,↑,1.1070936992764473,False,15,-1,1,12
Y2-S2-206K20,4,349,AS,exp,32,→,right,→,0.6239059995859861,True,16,-1,0,12
Y2-S2-206K20,4,350,AS,exp,31,↓,down,↓,0.8806225005537271,True,16,-1,0,12
Y2-S2-206K20,4,351,AS,exp,28,↑,up,↑,0.8579506995156407,True,16,1,1,13
Y2-S2-206K20,4,352,AS,exp,36,→,down,↓,0.828634100034833,False,15,-1,1,14
Y2-S2-206K20,4,353,AS,exp,27,←,left,←,0.7767781000584364,True,16,-1,0,14
Y2-S2-206K20,4,354,AS,exp,32,↓,down,↓,0.6524582002311945,True,16,-1,0,14
Y2-S2-206K20,4,355,AS,exp,27,↑,down,↓,1.3569682007655501,False,16,-1,0,14
Y2-S2-206K20,4,356,AS,exp,25,←,left,←,1.8857434000819921,True,17,-1,0,14
Y2-S2-206K20,4,357,AS,exp,49,↓,down,↓,0.5623014997690916,True,17,-1,0,14
Y2-S2-206K20,4,358,AS,exp,49,↑,right,→,0.6753482995554805,False,17,-1,0,14
Y2-S2-206K20,4,359,AS,exp,42,↓,down,↓,0.5406839000061154,True,18,-1,0,14
Y2-S2-206K20,4,360,AS,exp,45,↑,up,↑,1.3108067996799946,True,18,-1,0,14
Y2-S2-206K20,4,361,AS,exp,32,↓,down,↓,0.9231583001092076,True,18,1,1,15
Y2-S2-206K20,4,362,AS,exp,43,←,left,←,0.9176241001114249,True,17,1,0,15
Y2-S2-206K20,4,363,AS,exp,40,↑,up,↑,0.6633454998955131,True,17,1,0,15
Y2-S2-206K20,4,364,AS,exp,42,←,left,←,0.5005150996148586,True,17,1,0,15
Y2-S2-206K20,4,365,AS,exp,46,→,left,←,0.8241836000233889,False,16,-1,1,16
Y2-S2-206K20,5,366,AS,intra_train,31,↓,down,↓,0.5005354005843401,True,27,-,-,-
Y2-S2-206K20,5,367,AS,intra_train,31,←,left,←,0.4839276997372508,True,27,-,-,-
Y2-S2-206K20,5,368,AS,intra_train,50,↑,up,↑,0.6542913997545838,True,27,-,-,-
Y2-S2-206K20,5,369,AS,intra_train,44,↓,down,↓,0.7797079998999834,True,27,-,-,-
Y2-S2-206K20,5,370,AS,intra_train,30,→,right,→,0.5672841006889939,True,27,-,-,-
Y2-S2-206K20,5,371,AS,exp,50,↓,down,↓,0.8438665997236967,True,18,0,0,0
Y2-S2-206K20,5,372,AS,exp,39,↑,up,↑,0.5268372995778918,True,18,0,0,0
Y2-S2-206K20,5,373,AS,exp,44,←,right,→,0.5518792001530528,False,18,-1,0,0
Y2-S2-206K20,5,374,AS,exp,34,↑,up,↑,0.38407470006495714,True,19,-1,0,0
Y2-S2-206K20,5,375,AS,exp,26,←,left,←,0.5417168000712991,True,19,-1,0,0
Y2-S2-206K20,5,376,AS,exp,31,↓,down,↓,0.6718721007928252,True,19,1,1,1
Y2-S2-206K20,5,377,AS,exp,37,←,left,←,0.662406999617815,True,18,1,0,1
Y2-S2-206K20,5,378,AS,exp,46,↓,down,↓,0.5439376998692751,True,18,1,0,1
Y2-S2-206K20,5,379,AS,exp,39,→,right,→,1.8040948994457722,True,18,1,0,1
Y2-S2-206K20,5,380,AS,exp,32,↑,up,↑,0.6734397998079658,True,17,1,0,1
Y2-S2-206K20,5,381,AS,exp,48,↓,down,↓,0.8037438997998834,True,17,1,0,1
Y2-S2-206K20,5,382,AS,exp,36,→,right,→,0.459926700219512,True,17,1,0,1
Y2-S2-206K20,5,383,AS,exp,36,↓,down,↓,0.6805312996730208,True,16,1,0,1
Y2-S2-206K20,5,384,AS,exp,44,←,left,←,0.6731727002188563,True,16,1,0,1
Y2-S2-206K20,5,385,AS,exp,30,→,right,→,0.46115639992058277,True,16,1,0,1
Y2-S2-206K20,5,386,AS,exp,29,↓,right,→,0.804649100638926,False,15,-1,1,2
Y2-S2-206K20,5,387,AS,exp,25,←,left,←,0.4346511997282505,True,16,-1,0,2
Y2-S2-206K20,5,388,AS,exp,47,→,right,→,0.3506479002535343,True,16,-1,0,2
Y2-S2-206K20,5,389,AS,exp,48,↑,up,↑,0.4379765000194311,True,16,1,1,3
Y2-S2-206K20,5,390,AS,exp,47,←,right,→,0.8517424995079637,False,15,-1,1,4
Y2-S2-206K20,5,391,AS,exp,36,↓,left,←,0.7383133005350828,False,16,-1,0,4
Y2-S2-206K20,5,392,AS,exp,34,↑,up,↑,1.014046000316739,True,17,-1,0,4
Y2-S2-206K20,5,393,AS,exp,31,↓,left,←,0.5346263004466891,False,17,-1,0,4
Y2-S2-206K20,5,394,AS,exp,30,↑,up,↑,0.5061675999313593,True,18,-1,0,4
Y2-S2-206K20,5,395,AS,exp,45,→,right,→,0.6725933002308011,True,18,-1,0,4
Y2-S2-206K20,5,396,AS,exp,42,↑,up,↑,0.8180435001850128,True,18,1,1,5
Y2-S2-206K20,5,397,AS,exp,48,→,right,→,1.3556753993034363,True,17,1,0,5
Y2-S2-206K20,5,398,AS,exp,27,↑,up,↑,0.6071744998916984,True,17,1,0,5
Y2-S2-206K20,5,399,AS,exp,45,→,right,→,0.5234830006957054,True,17,1,0,5
Y2-S2-206K20,5,400,AS,exp,27,↓,left,←,0.7707153996452689,False,16,-1,1,6
Y2-S2-206K20,5,401,AS,exp,40,→,right,→,0.7384989000856876,True,17,-1,0,6
Y2-S2-206K20,5,402,AS,exp,41,↓,down,↓,0.8588288994506001,True,17,-1,0,6
Y2-S2-206K20,5,403,AS,exp,29,←,left,←,0.515158100053668,True,17,1,1,7
Y2-S2-206K20,5,404,AS,exp,27,↓,right,→,0.6886812997981906,False,16,-1,1,8
Y2-S2-206K20,5,405,AS,exp,38,↑,up,↑,0.4849646994844079,True,17,-1,0,8
Y2-S2-206K20,5,406,AS,exp,32,←,left,←,0.6789199998602271,True,17,-1,0,8
Y2-S2-206K20,5,407,AS,exp,49,→,right,→,0.6467452999204397,True,17,1,1,9
Y2-S2-206K20,5,408,AS,exp,39,↑,down,↓,0.8353451006114483,False,16,-1,1,10
Y2-S2-206K20,5,409,AS,exp,44,↓,down,↓,0.7050673002377152,True,17,-1,0,10
Y2-S2-206K20,5,410,AS,exp,32,↑,up,↑,0.7294347006827593,True,17,-1,0,10
Y2-S2-206K20,5,411,AS,exp,43,↓,down,↓,0.6668980997055769,True,17,1,1,11
Y2-S2-206K20,5,412,AS,exp,41,←,left,←,0.4826776999980211,True,16,1,0,11
Y2-S2-206K20,5,413,AS,exp,30,↑,up,↑,1.1629955992102623,True,16,1,0,11
Y2-S2-206K20,5,414,AS,exp,45,←,left,←,0.48845910001546144,True,16,1,0,11
Y2-S2-206K20,5,415,AS,exp,43,↓,down,↓,0.8998742997646332,True,15,1,0,11
Y2-S2-206K20,5,416,AS,exp,48,→,right,→,0.7106206994503736,True,15,1,0,11
Y2-S2-206K20,5,417,AS,exp,44,↓,down,↓,0.7428894992917776,True,15,1,0,11
Y2-S2-206K20,5,418,AS,exp,25,→,right,→,0.4634879995137453,True,14,1,0,11
Y2-S2-206K20,5,419,AS,exp,30,←,left,←,0.4441296998411417,True,14,1,0,11
Y2-S2-206K20,5,420,AS,exp,41,↓,left,←,1.0380245996639132,False,14,-1,1,12
Y2-S2-206K20,5,421,AS,exp,32,←,left,←,0.6762292003259063,True,15,-1,0,12
Y2-S2-206K20,5,422,AS,exp,46,↑,up,↑,0.49670330062508583,True,15,-1,0,12
Y2-S2-206K20,5,423,AS,exp,42,←,right,→,0.8212104998528957,False,15,-1,0,12
Y2-S2-206K20,5,424,AS,exp,47,↑,up,↑,1.025081499479711,True,16,-1,0,12
Y2-S2-206K20,5,425,AS,exp,42,←,left,←,0.8981451001018286,True,16,-1,0,12
Y2-S2-206K20,5,426,AS,exp,46,→,right,→,0.5748076997697353,True,16,1,1,13
Y2-S2-206K20,5,427,AS,exp,26,←,left,←,0.5317956004291773,True,15,1,0,13
Y2-S2-206K20,5,428,AS,exp,47,↓,down,↓,0.5371524002403021,True,15,1,0,13
Y2-S2-206K20,5,429,AS,exp,27,←,left,←,0.5731274001300335,True,15,1,0,13
Y2-S2-206K20,5,430,AS,exp,33,→,left,←,0.5088901994749904,False,14,-1,1,14
Y2-S2-206K20,5,431,AS,exp,30,←,right,→,0.6802233997732401,False,15,-1,0,14
Y2-S2-206K20,5,432,AS,exp,38,→,right,→,0.5609820997342467,True,16,-1,0,14
Y2-S2-206K20,5,433,AS,exp,28,↑,left,←,0.7815412003546953,False,16,-1,0,14
Y2-S2-206K20,5,434,AS,exp,31,↓,right,→,0.832353699952364,False,17,-1,0,14
Y2-S2-206K20,5,435,AS,exp,41,→,left,←,0.5129587994888425,False,18,-1,0,14
Y2-S2-206K20,5,436,AS,exp,31,↓,no_key,no_letter,-1.0,False,19,-1,0,14
Y2-S2-206K20,5,437,AS,exp,41,→,right,→,0.8890858003869653,True,20,-1,0,14
Y2-S2-206K20,5,438,AS,exp,28,↓,down,↓,0.5727902995422482,True,20,-1,0,14
Y2-S2-206K20,5,439,AS,exp,27,→,right,→,0.4672632999718189,True,20,1,1,15
Y2-S2-206K20,5,440,AS,exp,49,↓,down,↓,0.7125450000166893,True,19,1,0,15
Y2-S2-206K20,5,441,AS,exp,27,↑,up,↑,0.48533849976956844,True,19,1,0,15
Y2-S2-206K20,5,442,AS,exp,40,→,right,→,0.7437200993299484,True,19,1,0,15
Y2-S2-206K20,5,443,AS,exp,36,←,left,←,0.4953494993969798,True,18,1,0,15
Y2-S2-206K20,5,444,AS,exp,47,↑,up,↑,0.6482001999393106,True,18,1,0,15
Y2-S2-206K20,5,445,AS,exp,31,↓,left,←,1.2298485999926925,False,18,-1,1,16
Y2-S2-206K20,6,446,PS,intra_train,46,→,right,→,0.49317780043929815,True,15,-,-,-
Y2-S2-206K20,6,447,PS,intra_train,45,←,left,←,0.5021068006753922,True,15,-,-,-
Y2-S2-206K20,6,448,PS,intra_train,50,↓,down,↓,0.6168448999524117,True,15,-,-,-
Y2-S2-206K20,6,449,PS,intra_train,34,→,right,→,0.4617930995300412,True,15,-,-,-
Y2-S2-206K20,6,450,PS,intra_train,32,←,left,←,0.6351204998791218,True,15,-,-,-
Y2-S2-206K20,6,451,PS,exp,46,→,right,→,0.388501500710845,True,10,0,0,0
Y2-S2-206K20,6,452,PS,exp,49,↓,left,←,0.8160720998421311,False,10,-1,0,0
Y2-S2-206K20,6,453,PS,exp,37,↑,up,↑,0.49228259921073914,True,11,-1,0,0
Y2-S2-206K20,6,454,PS,exp,45,→,right,→,0.436561799608171,True,11,-1,0,0
Y2-S2-206K20,6,455,PS,exp,44,↑,up,↑,0.4884502002969384,True,11,1,1,1
Y2-S2-206K20,6,456,PS,exp,38,→,up,↑,0.7965930998325348,False,10,-1,1,2
Y2-S2-206K20,6,457,PS,exp,45,←,left,←,0.5740433996543288,True,11,-1,0,2
Y2-S2-206K20,6,458,PS,exp,30,↑,up,↑,0.6068179998546839,True,11,-1,0,2
Y2-S2-206K20,6,459,PS,exp,39,↓,down,↓,0.5368408001959324,True,11,1,1,3
Y2-S2-206K20,6,460,PS,exp,49,→,down,↓,1.2932839002460241,False,10,-1,1,4
Y2-S2-206K20,6,461,PS,exp,25,↑,up,↑,0.464266000315547,True,11,-1,0,4
Y2-S2-206K20,6,462,PS,exp,48,↓,down,↓,0.5426745004951954,True,11,-1,0,4
Y2-S2-206K20,6,463,PS,exp,28,→,right,→,0.599291899241507,True,11,1,1,5
Y2-S2-206K20,6,464,PS,exp,39,↑,up,↑,0.5336539000272751,True,10,1,0,5
Y2-S2-206K20,6,465,PS,exp,39,↓,down,↓,0.4619740005582571,True,10,1,0,5
Y2-S2-206K20,6,466,PS,exp,39,←,left,←,0.6129757007583976,True,10,1,0,5
Y2-S2-206K20,6,467,PS,exp,35,↑,up,↑,0.5960829006507993,True,9,1,0,5
Y2-S2-206K20,6,468,PS,exp,49,←,left,←,0.49779470078647137,True,9,1,0,5
Y2-S2-206K20,6,469,PS,exp,33,↑,down,↓,0.9263869002461433,False,9,-1,1,6
Y2-S2-206K20,6,470,PS,exp,44,←,left,←,0.5960448002442718,True,10,-1,0,6
Y2-S2-206K20,6,471,PS,exp,26,↑,up,↑,0.460377000272274,True,10,-1,0,6
Y2-S2-206K20,6,472,PS,exp,29,→,right,→,0.9108890993520617,True,10,1,1,7
Y2-S2-206K20,6,473,PS,exp,32,↑,up,↑,0.5733283003792167,True,9,1,0,7
Y2-S2-206K20,6,474,PS,exp,46,←,left,←,0.5751846004277468,True,9,1,0,7
Y2-S2-206K20,6,475,PS,exp,48,↓,right,→,0.8102022996172309,False,9,-1,1,8
Y2-S2-206K20,6,476,PS,exp,46,↑,down,↓,1.499175800010562,False,10,-1,0,8
Y2-S2-206K20,6,477,PS,exp,37,↓,down,↓,0.39838390052318573,True,11,-1,0,8
Y2-S2-206K20,6,478,PS,exp,33,→,down,↓,0.8472950998693705,False,11,-1,0,8
Y2-S2-206K20,6,479,PS,exp,28,←,left,←,0.8148870998993516,True,12,-1,0,8
Y2-S2-206K20,6,480,PS,exp,29,↓,down,↓,0.4790284000337124,True,12,-1,0,8
Y2-S2-206K20,6,481,PS,exp,39,↑,up,↑,0.5917392000555992,True,12,1,1,9
Y2-S2-206K20,6,482,PS,exp,48,↓,down,↓,0.39799739979207516,True,11,1,0,9
Y2-S2-206K20,6,483,PS,exp,29,↑,right,→,1.4398170998319983,False,11,-1,1,10
Y2-S2-206K20,6,484,PS,exp,37,↓,down,↓,0.4999092994257808,True,12,-1,0,10
Y2-S2-206K20,6,485,PS,exp,29,↑,right,→,0.8966867998242378,False,12,-1,0,10
Y2-S2-206K20,6,486,PS,exp,42,←,down,↓,0.7149118995293975,False,13,-1,0,10
Y2-S2-206K20,6,487,PS,exp,36,↓,down,↓,0.714576699770987,True,14,-1,0,10
Y2-S2-206K20,6,488,PS,exp,45,→,right,→,0.4832529006525874,True,14,-1,0,10
Y2-S2-206K20,6,489,PS,exp,45,←,left,←,0.7971123997122049,True,14,1,1,11
Y2-S2-206K20,6,490,PS,exp,42,↑,up,↑,0.6450471999123693,True,13,1,0,11
Y2-S2-206K20,6,491,PS,exp,32,→,left,←,0.9662371994927526,False,13,-1,1,12
Y2-S2-206K20,6,492,PS,exp,43,↑,up,↑,0.6189473001286387,True,14,-1,0,12
Y2-S2-206K20,6,493,PS,exp,35,→,left,←,0.7244772994890809,False,14,-1,0,12
Y2-S2-206K20,6,494,PS,exp,44,←,right,→,0.6012325994670391,False,15,-1,0,12
Y2-S2-206K20,6,495,PS,exp,36,↑,right,→,0.9516773000359535,False,16,-1,0,12
Y2-S2-206K20,6,496,PS,exp,45,→,right,→,1.4566355999559164,True,17,-1,0,12
Y2-S2-206K20,6,497,PS,exp,37,↓,down,↓,0.8393623996526003,True,17,-1,0,12
Y2-S2-206K20,6,498,PS,exp,39,←,left,←,1.0951925003901124,True,17,1,1,13
Y2-S2-206K20,6,499,PS,exp,49,↓,down,↓,0.9443892007693648,True,16,1,0,13
Y2-S2-206K20,6,500,PS,exp,41,↑,right,→,0.9589656004682183,False,16,-1,1,14
Y2-S2-206K20,6,501,PS,exp,39,←,left,←,0.45825549960136414,True,17,-1,0,14
Y2-S2-206K20,6,502,PS,exp,46,→,right,→,0.5270899999886751,True,17,-1,0,14
Y2-S2-206K20,6,503,PS,exp,25,↑,up,↑,0.5561159998178482,True,17,1,1,15
Y2-S2-206K20,6,504,PS,exp,34,↓,down,↓,0.7939192997291684,True,16,1,0,15
Y2-S2-206K20,6,505,PS,exp,28,→,right,→,0.46811800077557564,True,16,1,0,15
Y2-S2-206K20,6,506,PS,exp,29,↓,down,↓,0.7131391000002623,True,16,1,0,15
Y2-S2-206K20,6,507,PS,exp,35,←,left,←,0.4950711000710726,True,15,1,0,15
Y2-S2-206K20,6,508,PS,exp,29,→,right,→,0.48522720020264387,True,15,1,0,15
Y2-S2-206K20,6,509,PS,exp,40,↓,down,↓,0.48456280026584864,True,15,1,0,15
Y2-S2-206K20,6,510,PS,exp,27,→,no_key,no_letter,-1.0,False,14,-1,1,16
Y2-S2-206K20,7,511,PS,intra_train,28,←,down,↓,0.6537889996543527,False,15,-,-,-
Y2-S2-206K20,7,512,PS,intra_train,25,↓,down,↓,0.6376745998859406,True,15,-,-,-
Y2-S2-206K20,7,513,PS,intra_train,36,→,right,→,0.5594383999705315,True,15,-,-,-
Y2-S2-206K20,7,514,PS,intra_train,45,↓,down,↓,0.658276199363172,True,15,-,-,-
Y2-S2-206K20,7,515,PS,intra_train,38,→,right,→,0.506156500428915,True,15,-,-,-
Y2-S2-206K20,7,516,PS,exp,48,↑,up,↑,0.4737332994118333,True,10,0,0,0
Y2-S2-206K20,7,517,PS,exp,27,↓,down,↓,0.5909116994589567,True,10,0,0,0
Y2-S2-206K20,7,518,PS,exp,46,↑,up,↑,0.48263460025191307,True,10,1,0,0
Y2-S2-206K20,7,519,PS,exp,43,↓,down,↓,1.0015300996601582,True,9,1,0,0
Y2-S2-206K20,7,520,PS,exp,38,↑,up,↑,0.42487960029393435,True,9,1,0,0
Y2-S2-206K20,7,521,PS,exp,46,→,right,→,0.707396300509572,True,9,1,0,0
Y2-S2-206K20,7,522,PS,exp,40,↑,left,←,0.5127555998042226,False,8,-1,1,1
Y2-S2-206K20,7,523,PS,exp,29,←,left,←,0.5785266002640128,True,9,-1,0,1
Y2-S2-206K20,7,524,PS,exp,42,↑,up,↑,0.47934489976614714,True,9,-1,0,1
Y2-S2-206K20,7,525,PS,exp,40,←,left,←,0.6038194997236133,True,9,1,1,2
Y2-S2-206K20,7,526,PS,exp,48,↓,down,↓,0.5572402998805046,True,8,1,0,2
Y2-S2-206K20,7,527,PS,exp,32,←,left,←,0.6701001999899745,True,8,1,0,2
Y2-S2-206K20,7,528,PS,exp,35,↑,left,←,0.6074016001075506,False,8,-1,1,3
Y2-S2-206K20,7,529,PS,exp,32,→,right,→,0.4525033002719283,True,9,-1,0,3
Y2-S2-206K20,7,530,PS,exp,37,←,left,←,0.5900397999212146,True,9,-1,0,3
Y2-S2-206K20,7,531,PS,exp,44,↑,up,↑,0.5446633994579315,True,9,1,1,4
Y2-S2-206K20,7,532,PS,exp,46,←,left,←,0.5405641999095678,True,8,1,0,4
Y2-S2-206K20,7,533,PS,exp,49,→,right,→,0.45536569971591234,True,8,1,0,4
Y2-S2-206K20,7,534,PS,exp,34,←,left,←,0.5339703997597098,True,8,1,0,4
Y2-S2-206K20,7,535,PS,exp,25,↓,down,↓,0.578010399825871,True,7,1,0,4
Y2-S2-206K20,7,536,PS,exp,36,↑,up,↑,0.5115756997838616,True,7,1,0,4
Y2-S2-206K20,7,537,PS,exp,50,←,left,←,0.4107737997546792,True,7,1,0,4
Y2-S2-206K20,7,538,PS,exp,39,↑,right,→,0.8357267007231712,False,6,-1,1,5
Y2-S2-206K20,7,539,PS,exp,39,↓,down,↓,0.5403755996376276,True,7,-1,0,5
Y2-S2-206K20,7,540,PS,exp,27,←,left,←,0.5997393997386098,True,7,-1,0,5
Y2-S2-206K20,7,541,PS,exp,33,↓,down,↓,0.49815130047500134,True,7,1,1,6
Y2-S2-206K20,7,542,PS,exp,28,↑,up,↑,0.5002795998007059,True,6,1,0,6
Y2-S2-206K20,7,543,PS,exp,44,↓,down,↓,0.4392779003828764,True,6,1,0,6
Y2-S2-206K20,7,544,PS,exp,32,↑,down,↓,0.7246279995888472,False,6,-1,1,7
Y2-S2-206K20,7,545,PS,exp,35,→,right,→,0.515570399351418,True,7,-1,0,7
Y2-S2-206K20,7,546,PS,exp,33,↑,up,↑,0.47701629996299744,True,7,-1,0,7
Y2-S2-206K20,7,547,PS,exp,34,←,left,←,0.7616837993264198,True,7,1,1,8
Y2-S2-206K20,7,548,PS,exp,26,→,right,→,0.8263044003397226,True,6,1,0,8
Y2-S2-206K20,7,549,PS,exp,47,←,down,↓,1.6747054997831583,False,6,-1,1,9
Y2-S2-206K20,7,550,PS,exp,48,↑,right,→,0.8354303995147347,False,7,-1,0,9
Y2-S2-206K20,7,551,PS,exp,37,→,right,→,0.4520811000838876,True,8,-1,0,9
Y2-S2-206K20,7,552,PS,exp,47,←,left,←,0.4353421004489064,True,8,-1,0,9
Y2-S2-206K20,7,553,PS,exp,40,→,right,→,0.4865378001704812,True,8,1,1,10
Y2-S2-206K20,7,554,PS,exp,30,←,left,←,0.48839280009269714,True,7,1,0,10
Y2-S2-206K20,7,555,PS,exp,32,↑,right,→,0.5840602004900575,False,7,-1,1,11
Y2-S2-206K20,7,556,PS,exp,45,↓,down,↓,0.6597619000822306,True,8,-1,0,11
Y2-S2-206K20,7,557,PS,exp,48,→,right,→,0.5021560005843639,True,8,-1,0,11
Y2-S2-206K20,7,558,PS,exp,39,←,left,←,0.4648661995306611,True,8,1,1,12
Y2-S2-206K20,7,559,PS,exp,29,→,left,←,0.47141840029507875,False,7,-1,1,13
Y2-S2-206K20,7,560,PS,exp,26,↓,down,↓,0.691715900786221,True,8,-1,0,13
Y2-S2-206K20,7,561,PS,exp,42,→,right,→,0.6383380005136132,True,8,-1,0,13
Y2-S2-206K20,7,562,PS,exp,45,↑,left,←,1.0546380002051592,False,8,-1,0,13
Y2-S2-206K20,7,563,PS,exp,47,←,left,←,0.4599145008251071,True,9,-1,0,13
Y2-S2-206K20,7,564,PS,exp,44,↓,down,↓,0.6757490001618862,True,9,-1,0,13
Y2-S2-206K20,7,565,PS,exp,45,↑,up,↑,0.5461822003126144,True,9,1,1,14
Y2-S2-206K20,7,566,PS,exp,33,←,left,←,0.490217799320817,True,8,1,0,14
Y2-S2-206K20,7,567,PS,exp,44,↑,left,←,0.4583807000890374,False,8,-1,1,15
Y2-S2-206K20,7,568,PS,exp,35,↓,down,↓,0.7605019006878138,True,9,-1,0,15
Y2-S2-206K20,7,569,PS,exp,31,→,left,←,0.547244600020349,False,9,-1,0,15
Y2-S2-206K20,7,570,PS,exp,33,↓,left,←,0.4911548001691699,False,10,-1,0,15
Y2-S2-206K20,7,571,PS,exp,38,↑,up,↑,0.5465896995738149,True,11,-1,0,15
Y2-S2-206K20,7,572,PS,exp,41,→,left,←,0.9974256996065378,False,11,-1,0,15
Y2-S2-206K20,7,573,PS,exp,36,←,left,←,0.7207100000232458,True,12,-1,0,15
Y2-S2-206K20,7,574,PS,exp,30,→,left,←,0.784969000145793,False,12,-1,0,15
Y2-S2-206K20,7,575,PS,exp,40,↑,right,→,1.0697320997714996,False,13,-1,0,15
Y2-S2-206K20,7,576,PS,exp,33,↓,down,↓,1.0979522997513413,True,14,-1,0,15
Y2-S2-206K20,7,577,PS,exp,34,↑,up,↑,0.9608399998396635,True,14,-1,0,15
Y2-S2-206K20,7,578,PS,exp,30,←,left,←,0.7400187999010086,True,14,1,1,16
Y2-S2-206K20,8,579,AS,intra_train,32,→,left,←,0.5338621996343136,False,27,-,-,-
Y2-S2-206K20,8,580,AS,intra_train,50,↓,down,↓,0.7889190996065736,True,27,-,-,-
Y2-S2-206K20,8,581,AS,intra_train,48,↑,up,↑,1.2672006003558636,True,27,-,-,-
Y2-S2-206K20,8,582,AS,intra_train,39,←,left,←,1.0306286998093128,True,27,-,-,-
Y2-S2-206K20,8,583,AS,intra_train,43,→,right,→,1.2448972007259727,True,27,-,-,-
Y2-S2-206K20,8,584,AS,exp,25,↓,left,←,1.3541858000680804,False,18,-1,0,0
Y2-S2-206K20,8,585,AS,exp,42,←,left,←,0.41709990054368973,True,19,-1,0,0
Y2-S2-206K20,8,586,AS,exp,42,↑,up,↑,1.4051759000867605,True,19,-1,0,0
Y2-S2-206K20,8,587,AS,exp,41,→,right,→,0.5698173996061087,True,19,1,1,1
Y2-S2-206K20,8,588,AS,exp,47,←,left,←,0.400547300465405,True,18,1,0,1
Y2-S2-206K20,8,589,AS,exp,47,→,right,→,0.7019211007282138,True,18,1,0,1
Y2-S2-206K20,8,590,AS,exp,27,←,left,←,0.5851077996194363,True,18,1,0,1
Y2-S2-206K20,8,591,AS,exp,42,↑,right,→,0.6794090997427702,False,17,-1,1,2
Y2-S2-206K20,8,592,AS,exp,47,←,left,←,0.433776100166142,True,18,-1,0,2
Y2-S2-206K20,8,593,AS,exp,37,↑,left,←,0.7991546001285315,False,18,-1,0,2
Y2-S2-206K20,8,594,AS,exp,28,←,left,←,0.5669320998713374,True,19,-1,0,2
Y2-S2-206K20,8,595,AS,exp,49,↓,down,↓,0.6384148998185992,True,19,-1,0,2
Y2-S2-206K20,8,596,AS,exp,31,→,right,→,0.6595117002725601,True,19,1,1,3
Y2-S2-206K20,8,597,AS,exp,38,↑,left,←,0.8706419002264738,False,18,-1,1,4
Y2-S2-206K20,8,598,AS,exp,33,←,left,←,0.5604146998375654,True,19,-1,0,4
Y2-S2-206K20,8,599,AS,exp,49,→,right,→,0.7113305004313588,True,19,-1,0,4
Y2-S2-206K20,8,600,AS,exp,44,←,left,←,1.27132279984653,True,19,1,1,5
Y2-S2-206K20,8,601,AS,exp,26,→,right,→,1.1106430003419518,True,18,1,0,5
Y2-S2-206K20,8,602,AS,exp,32,↑,left,←,1.03072340041399,False,18,-1,1,6
Y2-S2-206K20,8,603,AS,exp,36,→,right,→,1.1660659993067384,True,19,-1,0,6
Y2-S2-206K20,8,604,AS,exp,25,↓,up,↑,1.1542853005230427,False,19,-1,0,6
Y2-S2-206K20,8,605,AS,exp,33,↑,right,→,0.8774324003607035,False,20,-1,0,6
Y2-S2-206K20,8,606,AS,exp,29,↓,down,↓,0.5878509003669024,True,21,-1,0,6
Y2-S2-206K20,8,607,AS,exp,46,→,right,→,0.607014499604702,True,21,-1,0,6
Y2-S2-206K20,8,608,AS,exp,38,←,left,←,0.5403057001531124,True,21,1,1,7
Y2-S2-206K20,8,609,AS,exp,43,↑,up,↑,0.9751201998442411,True,20,1,0,7
Y2-S2-206K20,8,610,AS,exp,34,←,left,←,0.5037431996315718,True,20,1,0,7
Y2-S2-206K20,8,611,AS,exp,40,↑,right,→,0.6495484001934528,False,20,-1,1,8
Y2-S2-206K20,8,612,AS,exp,47,↓,down,↓,1.5569191994145513,True,21,-1,0,8
Y2-S2-206K20,8,613,AS,exp,31,↑,right,→,0.907430499792099,False,21,-1,0,8
Y2-S2-206K20,8,614,AS,exp,46,→,right,→,0.6459705997258425,True,22,-1,0,8
Y2-S2-206K20,8,615,AS,exp,38,↑,up,↑,0.4839218994602561,True,22,-1,0,8
Y2-S2-206K20,8,616,AS,exp,42,↓,down,↓,0.6376288998872042,True,22,1,1,9
Y2-S2-206K20,8,617,AS,exp,37,→,right,→,0.4504844006150961,True,21,1,0,9
Y2-S2-206K20,8,618,AS,exp,38,↑,up,↑,0.8917861003428698,True,21,1,0,9
Y2-S2-206K20,8,619,AS,exp,35,↓,down,↓,0.802148399874568,True,21,1,0,9
Y2-S2-206K20,8,620,AS,exp,25,↑,down,↓,0.8202579999342561,False,20,-1,1,10
Y2-S2-206K20,8,621,AS,exp,46,←,left,←,0.6413730001077056,True,21,-1,0,10
Y2-S2-206K20,8,622,AS,exp,46,→,right,→,0.6065967995673418,True,21,-1,0,10
Y2-S2-206K20,8,623,AS,exp,48,↑,up,↑,1.0876540001481771,True,21,1,1,11
Y2-S2-206K20,8,624,AS,exp,48,←,left,←,0.7845892002806067,True,20,1,0,11
Y2-S2-206K20,8,625,AS,exp,36,→,right,→,0.7274558003991842,True,20,1,0,11
Y2-S2-206K20,8,626,AS,exp,42,↑,up,↑,0.6273989006876945,True,20,1,0,11
Y2-S2-206K20,8,627,AS,exp,46,→,right,→,0.5893522994592786,True,19,1,0,11
Y2-S2-206K20,8,628,AS,exp,35,←,left,←,0.8845310993492603,True,19,1,0,11
Y2-S2-206K20,8,629,AS,exp,45,→,right,→,0.43387960083782673,True,19,1,0,11
Y2-S2-206K20,8,630,AS,exp,27,↑,up,↑,0.7734601004049182,True,18,1,0,11
Y2-S2-206K20,8,631,AS,exp,48,←,left,←,0.7185627995058894,True,18,1,0,11
Y2-S2-206K20,8,632,AS,exp,35,↓,down,↓,0.59546949993819,True,18,1,0,11
Y2-S2-206K20,8,633,AS,exp,45,→,right,→,0.6548990998417139,True,17,1,0,11
Y2-S2-206K20,8,634,AS,exp,45,←,left,←,0.6868519000709057,True,17,1,0,11
Y2-S2-206K20,8,635,AS,exp,46,↓,left,←,0.7272015996277332,False,17,-1,1,12
Y2-S2-206K20,8,636,AS,exp,32,←,left,←,0.6273988001048565,True,18,-1,0,12
Y2-S2-206K20,8,637,AS,exp,37,→,right,→,0.47398990020155907,True,18,-1,0,12
Y2-S2-206K20,8,638,AS,exp,40,←,left,←,0.5792463002726436,True,18,1,1,13
Y2-S2-206K20,8,639,AS,exp,36,↑,up,↑,0.6799710998311639,True,17,1,0,13
Y2-S2-206K20,8,640,AS,exp,38,←,left,←,0.6390130994841456,True,17,1,0,13
Y2-S2-206K20,8,641,AS,exp,38,→,right,→,0.7017302000895143,True,17,1,0,13
Y2-S2-206K20,8,642,AS,exp,37,←,left,←,0.5858220001682639,True,16,1,0,13
Y2-S2-206K20,8,643,AS,exp,49,→,right,→,1.130995500832796,True,16,1,0,13
Y2-S2-206K20,8,644,AS,exp,38,←,left,←,1.129599000327289,True,16,1,0,13
Y2-S2-206K20,8,645,AS,exp,39,→,right,→,0.8930644998326898,True,15,1,0,13
Y2-S2-206K20,8,646,AS,exp,42,↑,up,↑,1.0218089995905757,True,15,1,0,13
Y2-S2-206K20,8,647,AS,exp,35,←,left,←,0.8109992993995547,True,15,1,0,13
Y2-S2-206K20,8,648,AS,exp,39,↓,down,↓,0.7914721006527543,True,14,1,0,13
Y2-S2-206K20,8,649,AS,exp,35,→,left,←,0.7962867999449372,False,14,-1,1,14
Y2-S2-206K20,8,650,AS,exp,40,↑,right,→,0.860181599855423,False,15,-1,0,14
Y2-S2-206K20,8,651,AS,exp,39,→,right,→,0.8525817999616265,True,16,-1,0,14
Y2-S2-206K20,8,652,AS,exp,25,←,left,←,0.9678525999188423,True,16,-1,0,14
Y2-S2-206K20,8,653,AS,exp,38,↑,up,↑,0.4866960998624563,True,16,1,1,15
Y2-S2-206K20,8,654,AS,exp,41,→,right,→,1.0087852999567986,True,15,1,0,15
Y2-S2-206K20,8,655,AS,exp,34,↑,up,↑,1.129891499876976,True,15,1,0,15
Y2-S2-206K20,8,656,AS,exp,47,↓,down,↓,0.5801630998030305,True,15,1,0,15
Y2-S2-206K20,8,657,AS,exp,33,↑,down,↓,0.9007991999387741,False,14,-1,1,16
