PART_ID,Block_no,Trial_no,Block_type,Trial_type,CSI,Stim_letter,Key_pressed,letter_choose,Rt,Corr,Stimulus Time,Level,Reversal,Revs_count
Y2-S2-202K23,1,1,PS,train,42,↓,down,↓,1.1998453000560403,True,30,-,-,-
Y2-S2-202K23,1,2,PS,train,39,←,left,←,1.0879015000537038,True,30,-,-,-
Y2-S2-202K23,1,3,PS,train,43,↑,up,↑,1.0230883000185713,True,30,-,-,-
Y2-S2-202K23,1,4,PS,train,34,←,left,←,0.7366633000783622,True,30,-,-,-
Y2-S2-202K23,1,5,PS,train,34,→,right,→,0.9489142000675201,True,30,-,-,-
Y2-S2-202K23,1,6,PS,train,47,←,left,←,0.7132068999344483,True,30,-,-,-
Y2-S2-202K23,1,7,PS,train,29,→,right,→,0.9633336999686435,True,30,-,-,-
Y2-S2-202K23,1,8,PS,train,45,↓,down,↓,0.8896044000284746,True,30,-,-,-
Y2-S2-202K23,1,9,PS,train,43,←,left,←,0.8392575000179932,True,30,-,-,-
Y2-S2-202K23,1,10,PS,train,29,↓,down,↓,0.8404060999164358,True,30,-,-,-
Y2-S2-202K23,2,11,AS,train,27,↑,up,↑,1.2022973999846727,True,45,-,-,-
Y2-S2-202K23,2,12,AS,train,48,↓,down,↓,1.1934419999597594,True,45,-,-,-
Y2-S2-202K23,2,13,AS,train,27,←,left,←,0.990504699992016,True,45,-,-,-
Y2-S2-202K23,2,14,AS,train,36,→,right,→,1.102946300059557,True,45,-,-,-
Y2-S2-202K23,2,15,AS,train,27,↓,down,↓,0.9202694001141936,True,45,-,-,-
Y2-S2-202K23,2,16,AS,train,46,↑,up,↑,0.9953025999711826,True,45,-,-,-
Y2-S2-202K23,2,17,AS,train,47,→,right,→,0.8673204000806436,True,45,-,-,-
Y2-S2-202K23,2,18,AS,train,45,←,left,←,0.7505297000752762,True,45,-,-,-
Y2-S2-202K23,2,19,AS,train,28,↑,up,↑,1.298609200050123,True,45,-,-,-
Y2-S2-202K23,2,20,AS,train,38,←,left,←,0.7009321000659838,True,45,-,-,-
Y2-S2-202K23,-,21,PS,adaptive,42,↑,up,↑,1.359748400049284,True,10,0,0,0
Y2-S2-202K23,-,22,PS,adaptive,39,↓,down,↓,0.8045883000595495,True,10,0,0,0
Y2-S2-202K23,-,23,PS,adaptive,38,←,left,←,1.2616432999493554,True,10,1,0,0
Y2-S2-202K23,-,24,PS,adaptive,45,→,right,→,0.8023192000109702,True,9,1,0,0
Y2-S2-202K23,-,25,PS,adaptive,37,←,left,←,0.8426920999772847,True,9,1,0,0
Y2-S2-202K23,-,26,PS,adaptive,28,→,right,→,0.9408604999771342,True,9,1,0,0
Y2-S2-202K23,-,27,PS,adaptive,43,↑,up,↑,1.0841546999290586,True,8,1,0,0
Y2-S2-202K23,-,28,PS,adaptive,27,←,left,←,0.9377035999204963,True,8,1,0,0
Y2-S2-202K23,-,29,PS,adaptive,30,↓,right,→,1.2756401000078768,False,8,-1,1,1
Y2-S2-202K23,-,30,PS,adaptive,45,←,down,↓,0.93426140001975,False,9,-1,0,1
Y2-S2-202K23,-,31,PS,adaptive,34,↓,down,↓,0.925535700051114,True,10,-1,0,1
Y2-S2-202K23,-,32,PS,adaptive,34,←,left,←,0.8292297000298277,True,10,-1,0,1
Y2-S2-202K23,-,33,PS,adaptive,26,↑,up,↑,0.9200594000285491,True,10,1,1,2
Y2-S2-202K23,-,34,PS,adaptive,47,→,right,→,0.8364163000369444,True,9,1,0,2
Y2-S2-202K23,-,35,PS,adaptive,38,↓,down,↓,1.1937271999195218,True,9,1,0,2
Y2-S2-202K23,-,36,PS,adaptive,38,↑,down,↓,1.376183700049296,False,9,-1,1,3
Y2-S2-202K23,-,37,PS,adaptive,47,→,right,→,0.8069170999806374,True,10,-1,0,3
Y2-S2-202K23,-,38,PS,adaptive,45,↓,up,↑,1.1818590000038967,False,10,-1,0,3
Y2-S2-202K23,-,39,PS,adaptive,31,↑,up,↑,1.595506599987857,True,11,-1,0,3
Y2-S2-202K23,-,40,PS,adaptive,36,↓,down,↓,1.2502874999772757,True,11,-1,0,3
Y2-S2-202K23,-,41,PS,adaptive,32,→,right,→,0.8617380999494344,True,11,1,1,4
Y2-S2-202K23,-,42,AS,adaptive,34,↑,up,↑,0.8314107999904081,True,20,0,0,0
Y2-S2-202K23,-,43,AS,adaptive,46,←,left,←,0.9173079999163747,True,20,0,0,0
Y2-S2-202K23,-,44,AS,adaptive,28,↑,up,↑,0.9432898999657482,True,20,1,0,0
Y2-S2-202K23,-,45,AS,adaptive,43,←,right,→,0.7872544000856578,False,19,-1,1,1
Y2-S2-202K23,-,46,AS,adaptive,33,↓,up,↑,1.2671506999759004,False,20,-1,0,1
Y2-S2-202K23,-,47,AS,adaptive,43,→,right,→,0.8644468999700621,True,21,-1,0,1
Y2-S2-202K23,-,48,AS,adaptive,47,↑,down,↓,0.9212410000618547,False,21,-1,0,1
Y2-S2-202K23,-,49,AS,adaptive,43,→,right,→,0.7519541999790817,True,22,-1,0,1
Y2-S2-202K23,-,50,AS,adaptive,47,↓,down,↓,0.7418745999457315,True,22,-1,0,1
Y2-S2-202K23,-,51,AS,adaptive,30,←,right,→,1.0053610999602824,False,22,-1,0,1
Y2-S2-202K23,-,52,AS,adaptive,47,↓,down,↓,0.7029562999960035,True,23,-1,0,1
Y2-S2-202K23,-,53,AS,adaptive,44,→,right,→,0.9359807000728324,True,23,-1,0,1
Y2-S2-202K23,-,54,AS,adaptive,42,←,left,←,1.032452000072226,True,23,1,1,2
Y2-S2-202K23,-,55,AS,adaptive,47,↑,up,↑,0.8584756000200287,True,22,1,0,2
Y2-S2-202K23,-,56,AS,adaptive,33,↓,down,↓,0.5929952000733465,True,22,1,0,2
Y2-S2-202K23,-,57,AS,adaptive,42,←,left,←,1.190999299986288,True,22,1,0,2
Y2-S2-202K23,-,58,AS,adaptive,30,↓,down,↓,0.8180082999169827,True,21,1,0,2
Y2-S2-202K23,-,59,AS,adaptive,46,→,right,→,0.7668506000190973,True,21,1,0,2
Y2-S2-202K23,-,60,AS,adaptive,40,←,left,←,1.270671600010246,True,21,1,0,2
Y2-S2-202K23,-,61,AS,adaptive,42,→,right,→,0.7807435999857262,True,20,1,0,2
Y2-S2-202K23,-,62,AS,adaptive,34,←,right,→,1.229673800058663,False,20,-1,1,3
Y2-S2-202K23,-,63,AS,adaptive,26,→,no_key,no_letter,-1.0,False,21,-1,0,3
Y2-S2-202K23,-,64,AS,adaptive,26,←,left,←,1.0219289000378922,True,22,-1,0,3
Y2-S2-202K23,-,65,AS,adaptive,36,↓,no_key,no_letter,-1.0,False,22,-1,0,3
Y2-S2-202K23,-,66,AS,adaptive,29,→,no_key,no_letter,-1.0,False,23,-1,0,3
Y2-S2-202K23,-,67,AS,adaptive,42,↑,up,↑,0.9235628000460565,True,24,-1,0,3
Y2-S2-202K23,-,68,AS,adaptive,36,←,left,←,0.5827303000260144,True,24,-1,0,3
Y2-S2-202K23,-,69,AS,adaptive,50,↑,up,↑,0.6291361999465153,True,24,1,1,4
Y2-S2-202K23,1,70,AS,intra_train,29,↓,down,↓,1.1149755999213085,True,34,-,-,-
Y2-S2-202K23,1,71,AS,intra_train,44,↑,up,↑,0.8332694999407977,True,34,-,-,-
Y2-S2-202K23,1,72,AS,intra_train,47,↓,down,↓,0.9906527999555692,True,34,-,-,-
Y2-S2-202K23,1,73,AS,intra_train,31,→,right,→,0.700655399938114,True,34,-,-,-
Y2-S2-202K23,1,74,AS,intra_train,42,←,no_key,no_letter,-1.0,False,34,-,-,-
Y2-S2-202K23,1,75,AS,exp,30,→,right,→,1.223973499960266,True,23,0,0,0
Y2-S2-202K23,1,76,AS,exp,41,↓,down,↓,1.0216327999951318,True,23,0,0,0
Y2-S2-202K23,1,77,AS,exp,25,→,down,↓,1.005870099994354,False,23,-1,0,0
Y2-S2-202K23,1,78,AS,exp,40,↓,down,↓,0.7418814999982715,True,24,-1,0,0
Y2-S2-202K23,1,79,AS,exp,49,↑,no_key,no_letter,-1.0,False,24,-1,0,0
Y2-S2-202K23,1,80,AS,exp,44,→,right,→,0.6210929000517353,True,25,-1,0,0
Y2-S2-202K23,1,81,AS,exp,45,↑,up,↑,0.9158429999370128,True,25,-1,0,0
Y2-S2-202K23,1,82,AS,exp,32,↓,down,↓,0.6982207000255585,True,25,1,1,1
Y2-S2-202K23,1,83,AS,exp,33,→,right,→,0.7586480000754818,True,24,1,0,1
Y2-S2-202K23,1,84,AS,exp,43,↑,down,↓,0.8499810999492183,False,24,-1,1,2
Y2-S2-202K23,1,85,AS,exp,28,←,left,←,1.2771598999388516,True,25,-1,0,2
Y2-S2-202K23,1,86,AS,exp,37,↑,up,↑,0.6838222000515088,True,25,-1,0,2
Y2-S2-202K23,1,87,AS,exp,43,→,right,→,0.6269613999174908,True,25,1,1,3
Y2-S2-202K23,1,88,AS,exp,46,↓,down,↓,0.7888448999729007,True,24,1,0,3
Y2-S2-202K23,1,89,AS,exp,34,→,right,→,0.7350922001060098,True,24,1,0,3
Y2-S2-202K23,1,90,AS,exp,40,↓,right,→,1.2777045000111684,False,24,-1,1,4
Y2-S2-202K23,1,91,AS,exp,30,↑,up,↑,0.6941429999424145,True,25,-1,0,4
Y2-S2-202K23,1,92,AS,exp,45,→,right,→,0.7457670000148937,True,25,-1,0,4
Y2-S2-202K23,1,93,AS,exp,49,↓,down,↓,1.111985499970615,True,25,1,1,5
Y2-S2-202K23,1,94,AS,exp,42,←,left,←,0.7571324000600725,True,24,1,0,5
Y2-S2-202K23,1,95,AS,exp,46,→,right,→,0.767564499983564,True,24,1,0,5
Y2-S2-202K23,1,96,AS,exp,31,↑,up,↑,0.7720190000254661,True,24,1,0,5
Y2-S2-202K23,1,97,AS,exp,37,→,right,→,0.7386617000447586,True,23,1,0,5
Y2-S2-202K23,1,98,AS,exp,46,↓,down,↓,0.5718757000286132,True,23,1,0,5
Y2-S2-202K23,1,99,AS,exp,32,←,left,←,0.9659575999248773,True,23,1,0,5
Y2-S2-202K23,1,100,AS,exp,47,↑,up,↑,0.7064562999876216,True,22,1,0,5
Y2-S2-202K23,1,101,AS,exp,32,→,right,→,0.9996915999799967,True,22,1,0,5
Y2-S2-202K23,1,102,AS,exp,44,↑,down,↓,1.3629779000766575,False,22,-1,1,6
Y2-S2-202K23,1,103,AS,exp,37,←,left,←,0.7835890999995172,True,23,-1,0,6
Y2-S2-202K23,1,104,AS,exp,36,→,right,→,1.0490531999384984,True,23,-1,0,6
Y2-S2-202K23,1,105,AS,exp,49,↑,up,↑,0.8407375999959186,True,23,1,1,7
Y2-S2-202K23,1,106,AS,exp,28,←,left,←,1.114628600073047,True,22,1,0,7
Y2-S2-202K23,1,107,AS,exp,49,↑,up,↑,0.9712660000659525,True,22,1,0,7
Y2-S2-202K23,1,108,AS,exp,30,↓,down,↓,0.7723128000507131,True,22,1,0,7
Y2-S2-202K23,1,109,AS,exp,41,→,right,→,0.8824049000395462,True,21,1,0,7
Y2-S2-202K23,1,110,AS,exp,48,↑,up,↑,1.1767483999719843,True,21,1,0,7
Y2-S2-202K23,1,111,AS,exp,46,↓,down,↓,1.1193306000204757,True,21,1,0,7
Y2-S2-202K23,1,112,AS,exp,41,↑,up,↑,0.8942239000461996,True,20,1,0,7
Y2-S2-202K23,1,113,AS,exp,44,↓,down,↓,1.0945393000729382,True,20,1,0,7
Y2-S2-202K23,1,114,AS,exp,35,↑,up,↑,0.7827505000168458,True,20,1,0,7
Y2-S2-202K23,1,115,AS,exp,41,←,left,←,0.9140297999838367,True,19,1,0,7
Y2-S2-202K23,1,116,AS,exp,37,↓,up,↑,1.3777063000015914,False,19,-1,1,8
Y2-S2-202K23,1,117,AS,exp,36,←,left,←,1.1356334000593051,True,20,-1,0,8
Y2-S2-202K23,1,118,AS,exp,28,→,right,→,0.9419960000086576,True,20,-1,0,8
Y2-S2-202K23,1,119,AS,exp,37,←,right,→,1.9316463000141084,False,20,-1,0,8
Y2-S2-202K23,1,120,AS,exp,38,→,right,→,1.027959099970758,True,21,-1,0,8
Y2-S2-202K23,1,121,AS,exp,45,↑,up,↑,1.0477886999724433,True,21,-1,0,8
Y2-S2-202K23,1,122,AS,exp,33,←,left,←,0.9357447000220418,True,21,1,1,9
Y2-S2-202K23,1,123,AS,exp,37,↓,down,↓,0.9971349000697955,True,20,1,0,9
Y2-S2-202K23,1,124,AS,exp,49,→,right,→,0.8773115000221878,True,20,1,0,9
Y2-S2-202K23,1,125,AS,exp,31,←,left,←,1.2739291000179946,True,20,1,0,9
Y2-S2-202K23,1,126,AS,exp,28,↓,right,→,1.3524688000325114,False,19,-1,1,10
Y2-S2-202K23,1,127,AS,exp,49,←,left,←,1.231647300068289,True,20,-1,0,10
Y2-S2-202K23,1,128,AS,exp,39,↑,up,↑,0.9742915999377146,True,20,-1,0,10
Y2-S2-202K23,1,129,AS,exp,33,↓,up,↑,1.0012107000220567,False,20,-1,0,10
Y2-S2-202K23,1,130,AS,exp,44,←,down,↓,1.428705899976194,False,21,-1,0,10
Y2-S2-202K23,1,131,AS,exp,35,↓,down,↓,0.9159684999613091,True,22,-1,0,10
Y2-S2-202K23,1,132,AS,exp,28,↑,up,↑,1.016093600075692,True,22,-1,0,10
Y2-S2-202K23,1,133,AS,exp,42,↓,up,↑,1.5057899999665096,False,22,-1,0,10
Y2-S2-202K23,1,134,AS,exp,41,←,left,←,1.1247925000498071,True,23,-1,0,10
Y2-S2-202K23,1,135,AS,exp,26,↓,right,→,1.4305242000846192,False,23,-1,0,10
Y2-S2-202K23,1,136,AS,exp,40,→,right,→,1.5278992999810725,True,24,-1,0,10
Y2-S2-202K23,1,137,AS,exp,40,↓,down,↓,1.8098146999254823,True,24,-1,0,10
Y2-S2-202K23,1,138,AS,exp,49,→,right,→,0.7829894999740645,True,24,1,1,11
Y2-S2-202K23,1,139,AS,exp,25,←,left,←,0.7745506999781355,True,23,1,0,11
Y2-S2-202K23,1,140,AS,exp,38,→,right,→,0.9431972000747919,True,23,1,0,11
Y2-S2-202K23,1,141,AS,exp,29,←,right,→,1.1711896000197157,False,23,-1,1,12
Y2-S2-202K23,1,142,AS,exp,37,→,right,→,0.9585864000255242,True,24,-1,0,12
Y2-S2-202K23,1,143,AS,exp,43,↓,down,↓,1.2372517000185326,True,24,-1,0,12
Y2-S2-202K23,1,144,AS,exp,45,←,left,←,1.109231899958104,True,24,1,1,13
Y2-S2-202K23,1,145,AS,exp,34,↓,up,↑,1.395182800013572,False,23,-1,1,14
Y2-S2-202K23,1,146,AS,exp,50,→,right,→,0.7263621999882162,True,24,-1,0,14
Y2-S2-202K23,1,147,AS,exp,41,←,left,←,0.8207796999486163,True,24,-1,0,14
Y2-S2-202K23,1,148,AS,exp,47,→,right,→,0.8677097000181675,True,24,1,1,15
Y2-S2-202K23,1,149,AS,exp,44,↓,down,↓,0.9037049000617117,True,23,1,0,15
Y2-S2-202K23,1,150,AS,exp,40,→,right,→,0.7414692000020295,True,23,1,0,15
Y2-S2-202K23,1,151,AS,exp,31,↓,down,↓,0.9850010999944061,True,23,1,0,15
Y2-S2-202K23,1,152,AS,exp,45,←,left,←,1.0343169999541715,True,22,1,0,15
Y2-S2-202K23,1,153,AS,exp,40,↓,down,↓,0.8189328999724239,True,22,1,0,15
Y2-S2-202K23,1,154,AS,exp,34,↑,up,↑,0.7701455999631435,True,22,1,0,15
Y2-S2-202K23,1,155,AS,exp,43,→,no_key,no_letter,-1.0,False,21,-1,1,16
Y2-S2-202K23,2,156,PS,intra_train,26,↓,down,↓,0.9860248999902979,True,15,-,-,-
Y2-S2-202K23,2,157,PS,intra_train,35,→,down,↓,0.9912361999740824,False,15,-,-,-
Y2-S2-202K23,2,158,PS,intra_train,31,↑,up,↑,1.4224459999240935,True,15,-,-,-
Y2-S2-202K23,2,159,PS,intra_train,40,←,left,←,0.9693171000108123,True,15,-,-,-
Y2-S2-202K23,2,160,PS,intra_train,30,↑,up,↑,0.96801999991294,True,15,-,-,-
Y2-S2-202K23,2,161,PS,exp,31,→,right,→,0.8462640000507236,True,10,0,0,0
Y2-S2-202K23,2,162,PS,exp,44,←,left,←,1.2649167000781745,True,10,0,0,0
Y2-S2-202K23,2,163,PS,exp,30,↓,down,↓,1.5617807999951765,True,10,1,0,0
Y2-S2-202K23,2,164,PS,exp,36,↑,up,↑,0.7582522999728099,True,9,1,0,0
Y2-S2-202K23,2,165,PS,exp,41,↓,down,↓,0.7659249999560416,True,9,1,0,0
Y2-S2-202K23,2,166,PS,exp,48,↑,down,↓,1.0074543000664562,False,9,-1,1,1
Y2-S2-202K23,2,167,PS,exp,43,→,down,↓,0.758678000071086,False,10,-1,0,1
Y2-S2-202K23,2,168,PS,exp,32,↑,down,↓,1.0933472999604419,False,11,-1,0,1
Y2-S2-202K23,2,169,PS,exp,49,↓,down,↓,0.5141354999504983,True,12,-1,0,1
Y2-S2-202K23,2,170,PS,exp,40,→,up,↑,1.0485077999765053,False,12,-1,0,1
Y2-S2-202K23,2,171,PS,exp,47,←,left,←,0.8159197000786662,True,13,-1,0,1
Y2-S2-202K23,2,172,PS,exp,40,↑,up,↑,1.133073000004515,True,13,-1,0,1
Y2-S2-202K23,2,173,PS,exp,38,→,right,→,0.9809007999720052,True,13,1,1,2
Y2-S2-202K23,2,174,PS,exp,29,↓,down,↓,0.8517616000026464,True,12,1,0,2
Y2-S2-202K23,2,175,PS,exp,34,→,right,→,0.7102260999381542,True,12,1,0,2
Y2-S2-202K23,2,176,PS,exp,46,↑,up,↑,0.8658261999953538,True,12,1,0,2
Y2-S2-202K23,2,177,PS,exp,32,←,down,↓,1.4068489999044687,False,11,-1,1,3
Y2-S2-202K23,2,178,PS,exp,42,↓,down,↓,0.6973860999569297,True,12,-1,0,3
Y2-S2-202K23,2,179,PS,exp,32,↑,up,↑,0.7489329000236467,True,12,-1,0,3
Y2-S2-202K23,2,180,PS,exp,39,←,right,→,1.0008642000611871,False,12,-1,0,3
Y2-S2-202K23,2,181,PS,exp,46,→,right,→,0.6192865000339225,True,13,-1,0,3
Y2-S2-202K23,2,182,PS,exp,47,↓,down,↓,1.2713176000397652,True,13,-1,0,3
Y2-S2-202K23,2,183,PS,exp,28,↑,up,↑,0.8300198999932036,True,13,1,1,4
Y2-S2-202K23,2,184,PS,exp,44,↓,down,↓,0.7639177000382915,True,12,1,0,4
Y2-S2-202K23,2,185,PS,exp,30,→,down,↓,1.4459099000087008,False,12,-1,1,5
Y2-S2-202K23,2,186,PS,exp,34,↓,down,↓,1.2592050000093877,True,13,-1,0,5
Y2-S2-202K23,2,187,PS,exp,33,→,right,→,0.7975019998848438,True,13,-1,0,5
Y2-S2-202K23,2,188,PS,exp,35,↓,up,↑,1.2747514999937266,False,13,-1,0,5
Y2-S2-202K23,2,189,PS,exp,50,←,down,↓,1.0835443999385461,False,14,-1,0,5
Y2-S2-202K23,2,190,PS,exp,28,↓,down,↓,0.6620246999664232,True,15,-1,0,5
Y2-S2-202K23,2,191,PS,exp,29,→,right,→,0.8497843999648467,True,15,-1,0,5
Y2-S2-202K23,2,192,PS,exp,46,←,down,↓,0.8112087999470532,False,15,-1,0,5
Y2-S2-202K23,2,193,PS,exp,41,↓,down,↓,0.5634952000109479,True,16,-1,0,5
Y2-S2-202K23,2,194,PS,exp,25,→,up,↑,0.9991120001068339,False,16,-1,0,5
Y2-S2-202K23,2,195,PS,exp,43,←,left,←,1.1131739999400452,True,17,-1,0,5
Y2-S2-202K23,2,196,PS,exp,49,→,right,→,1.0944067999953404,True,17,-1,0,5
Y2-S2-202K23,2,197,PS,exp,35,←,left,←,0.9277164000086486,True,17,1,1,6
Y2-S2-202K23,2,198,PS,exp,41,↓,down,↓,1.2065747999586165,True,16,1,0,6
Y2-S2-202K23,2,199,PS,exp,39,↑,up,↑,1.1890670000575483,True,16,1,0,6
Y2-S2-202K23,2,200,PS,exp,49,→,right,→,0.807388300076127,True,16,1,0,6
Y2-S2-202K23,2,201,PS,exp,44,↑,up,↑,1.186732399975881,True,15,1,0,6
Y2-S2-202K23,2,202,PS,exp,27,←,right,→,1.2590448000701144,False,15,-1,1,7
Y2-S2-202K23,2,203,PS,exp,25,↓,down,↓,0.8794350000098348,True,16,-1,0,7
Y2-S2-202K23,2,204,PS,exp,35,↑,up,↑,0.8711902000941336,True,16,-1,0,7
Y2-S2-202K23,2,205,PS,exp,35,→,right,→,0.873960500000976,True,16,1,1,8
Y2-S2-202K23,2,206,PS,exp,50,↑,up,↑,1.194498599972576,True,15,1,0,8
Y2-S2-202K23,2,207,PS,exp,46,→,up,↑,1.1213490000227466,False,15,-1,1,9
Y2-S2-202K23,2,208,PS,exp,44,↑,up,↑,0.9498775999527425,True,16,-1,0,9
Y2-S2-202K23,2,209,PS,exp,41,←,right,→,1.0099453000584617,False,16,-1,0,9
Y2-S2-202K23,2,210,PS,exp,40,→,right,→,0.7268009999534115,True,17,-1,0,9
Y2-S2-202K23,2,211,PS,exp,35,↓,left,←,0.9984552999958396,False,17,-1,0,9
Y2-S2-202K23,2,212,PS,exp,47,↑,up,↑,0.835724699893035,True,18,-1,0,9
Y2-S2-202K23,2,213,PS,exp,26,→,right,→,0.6531133999815211,True,18,-1,0,9
Y2-S2-202K23,2,214,PS,exp,44,↓,down,↓,0.7386731000151485,True,18,1,1,10
Y2-S2-202K23,2,215,PS,exp,35,↑,up,↑,1.273333500023,True,17,1,0,10
Y2-S2-202K23,2,216,PS,exp,42,→,right,→,0.6759181000525132,True,17,1,0,10
Y2-S2-202K23,2,217,PS,exp,34,↑,up,↑,1.0828937999904156,True,17,1,0,10
Y2-S2-202K23,2,218,PS,exp,31,↓,no_key,no_letter,-1.0,False,16,-1,1,11
Y2-S2-202K23,2,219,PS,exp,47,↑,up,↑,1.4249291999731213,True,17,-1,0,11
Y2-S2-202K23,2,220,PS,exp,48,↓,down,↓,0.6782706000376493,True,17,-1,0,11
Y2-S2-202K23,2,221,PS,exp,47,↑,up,↑,0.7921212000073865,True,17,1,1,12
Y2-S2-202K23,2,222,PS,exp,27,←,left,←,0.992678500013426,True,16,1,0,12
Y2-S2-202K23,2,223,PS,exp,48,→,right,→,0.6289724999805912,True,16,1,0,12
Y2-S2-202K23,2,224,PS,exp,50,←,right,→,1.0887916999636218,False,16,-1,1,13
Y2-S2-202K23,2,225,PS,exp,48,→,left,←,1.29869329999201,False,17,-1,0,13
Y2-S2-202K23,2,226,PS,exp,45,↓,down,↓,0.9680239000590518,True,18,-1,0,13
Y2-S2-202K23,2,227,PS,exp,25,→,right,→,0.8179751000134274,True,18,-1,0,13
Y2-S2-202K23,2,228,PS,exp,50,←,left,←,0.7294851000187919,True,18,1,1,14
Y2-S2-202K23,2,229,PS,exp,35,↑,up,↑,0.8634932999266312,True,17,1,0,14
Y2-S2-202K23,2,230,PS,exp,48,↓,down,↓,0.8656175999203697,True,17,1,0,14
Y2-S2-202K23,2,231,PS,exp,39,↑,down,↓,1.4873412000015378,False,17,-1,1,15
Y2-S2-202K23,2,232,PS,exp,43,↓,down,↓,0.8806212999625131,True,18,-1,0,15
Y2-S2-202K23,2,233,PS,exp,26,↑,up,↑,0.81557380000595,True,18,-1,0,15
Y2-S2-202K23,2,234,PS,exp,35,→,right,→,0.6768919000169262,True,18,1,1,16
Y2-S2-202K23,3,235,PS,intra_train,49,←,left,←,0.8739113000920042,True,15,-,-,-
Y2-S2-202K23,3,236,PS,intra_train,43,↓,down,↓,0.793582999962382,True,15,-,-,-
Y2-S2-202K23,3,237,PS,intra_train,44,→,right,→,0.7930099000222981,True,15,-,-,-
Y2-S2-202K23,3,238,PS,intra_train,47,↑,up,↑,0.8583573000505567,True,15,-,-,-
Y2-S2-202K23,3,239,PS,intra_train,30,←,left,←,0.8040517000481486,True,15,-,-,-
Y2-S2-202K23,3,240,PS,exp,35,↓,down,↓,0.8814532000105828,True,10,0,0,0
Y2-S2-202K23,3,241,PS,exp,43,→,right,→,0.7435738999629393,True,10,0,0,0
Y2-S2-202K23,3,242,PS,exp,28,↑,down,↓,1.0986958999419585,False,10,-1,0,0
Y2-S2-202K23,3,243,PS,exp,48,→,right,→,0.9094884999794886,True,11,-1,0,0
Y2-S2-202K23,3,244,PS,exp,28,↑,up,↑,0.798510399996303,True,11,-1,0,0
Y2-S2-202K23,3,245,PS,exp,43,↓,down,↓,0.6282250999938697,True,11,1,1,1
Y2-S2-202K23,3,246,PS,exp,50,↑,down,↓,1.4778698000591248,False,10,-1,1,2
Y2-S2-202K23,3,247,PS,exp,30,→,right,→,0.7661686999490485,True,11,-1,0,2
Y2-S2-202K23,3,248,PS,exp,50,←,left,←,1.1832166000967845,True,11,-1,0,2
Y2-S2-202K23,3,249,PS,exp,48,↑,up,↑,0.8153581999940798,True,11,1,1,3
Y2-S2-202K23,3,250,PS,exp,40,←,down,↓,1.5362034999998286,False,10,-1,1,4
Y2-S2-202K23,3,251,PS,exp,29,→,right,→,0.7619944999460131,True,11,-1,0,4
Y2-S2-202K23,3,252,PS,exp,36,↓,down,↓,1.2008843999356031,True,11,-1,0,4
Y2-S2-202K23,3,253,PS,exp,29,←,left,←,0.8146308000432327,True,11,1,1,5
Y2-S2-202K23,3,254,PS,exp,41,↓,down,↓,1.2120393000077456,True,10,1,0,5
Y2-S2-202K23,3,255,PS,exp,35,→,right,→,0.7971119000576437,True,10,1,0,5
Y2-S2-202K23,3,256,PS,exp,30,↑,left,←,1.1932924999855459,False,10,-1,1,6
Y2-S2-202K23,3,257,PS,exp,34,↓,down,↓,1.0555677999509498,True,11,-1,0,6
Y2-S2-202K23,3,258,PS,exp,46,→,right,→,0.7555521000176668,True,11,-1,0,6
Y2-S2-202K23,3,259,PS,exp,28,↓,no_key,no_letter,-1.0,False,11,-1,0,6
Y2-S2-202K23,3,260,PS,exp,40,→,right,→,0.6317909000208601,True,12,-1,0,6
Y2-S2-202K23,3,261,PS,exp,33,↑,down,↓,1.3129076000768691,False,12,-1,0,6
Y2-S2-202K23,3,262,PS,exp,41,←,up,↑,1.1567469000583515,False,13,-1,0,6
Y2-S2-202K23,3,263,PS,exp,25,↑,up,↑,0.9355041000526398,True,14,-1,0,6
Y2-S2-202K23,3,264,PS,exp,40,←,right,→,0.8242876000003889,False,14,-1,0,6
Y2-S2-202K23,3,265,PS,exp,36,↓,down,↓,1.2403471999568865,True,15,-1,0,6
Y2-S2-202K23,3,266,PS,exp,29,←,right,→,0.6877055999357253,False,15,-1,0,6
Y2-S2-202K23,3,267,PS,exp,48,↑,up,↑,0.9423162000020966,True,16,-1,0,6
Y2-S2-202K23,3,268,PS,exp,33,↓,down,↓,1.7460084999911487,True,16,-1,0,6
Y2-S2-202K23,3,269,PS,exp,43,↑,up,↑,1.3240274999989197,True,16,1,1,7
Y2-S2-202K23,3,270,PS,exp,48,↓,up,↑,1.2388465000549331,False,15,-1,1,8
Y2-S2-202K23,3,271,PS,exp,31,↑,up,↑,1.0788847000803798,True,16,-1,0,8
Y2-S2-202K23,3,272,PS,exp,50,→,right,→,0.6897164999973029,True,16,-1,0,8
Y2-S2-202K23,3,273,PS,exp,38,↑,up,↑,0.8809692999348044,True,16,1,1,9
Y2-S2-202K23,3,274,PS,exp,40,→,right,→,0.794200100004673,True,15,1,0,9
Y2-S2-202K23,3,275,PS,exp,46,↑,down,↓,0.8436919000232592,False,15,-1,1,10
Y2-S2-202K23,3,276,PS,exp,45,↓,no_key,no_letter,-1.0,False,16,-1,0,10
Y2-S2-202K23,3,277,PS,exp,36,→,right,→,0.7170017999596894,True,17,-1,0,10
Y2-S2-202K23,3,278,PS,exp,31,↑,up,↑,0.8964296999620274,True,17,-1,0,10
Y2-S2-202K23,3,279,PS,exp,25,→,right,→,0.5709419000195339,True,17,1,1,11
Y2-S2-202K23,3,280,PS,exp,46,←,left,←,1.1450221000704914,True,16,1,0,11
Y2-S2-202K23,3,281,PS,exp,39,→,right,→,0.6497703000204638,True,16,1,0,11
Y2-S2-202K23,3,282,PS,exp,34,↑,up,↑,1.2735478000249714,True,16,1,0,11
Y2-S2-202K23,3,283,PS,exp,44,↓,down,↓,0.7292320999549702,True,15,1,0,11
Y2-S2-202K23,3,284,PS,exp,27,↑,up,↑,1.1822328000562266,True,15,1,0,11
Y2-S2-202K23,3,285,PS,exp,43,→,right,→,0.6395687999902293,True,15,1,0,11
Y2-S2-202K23,3,286,PS,exp,27,↓,down,↓,0.8923529000021517,True,14,1,0,11
Y2-S2-202K23,3,287,PS,exp,45,↑,up,↑,0.5841969000175595,True,14,1,0,11
Y2-S2-202K23,3,288,PS,exp,27,→,right,→,0.6889553000219166,True,14,1,0,11
Y2-S2-202K23,3,289,PS,exp,41,↓,down,↓,0.9148928000358865,True,13,1,0,11
Y2-S2-202K23,3,290,PS,exp,49,←,down,↓,1.7537712000776082,False,13,-1,1,12
Y2-S2-202K23,3,291,PS,exp,48,→,down,↓,1.4453231999650598,False,14,-1,0,12
Y2-S2-202K23,3,292,PS,exp,41,↓,down,↓,0.7715902000200003,True,15,-1,0,12
Y2-S2-202K23,3,293,PS,exp,47,←,left,←,1.0334847000194713,True,15,-1,0,12
Y2-S2-202K23,3,294,PS,exp,37,↑,up,↑,0.9549418999813497,True,15,1,1,13
Y2-S2-202K23,3,295,PS,exp,30,←,left,←,0.7600183999165893,True,14,1,0,13
Y2-S2-202K23,3,296,PS,exp,34,→,left,←,1.273132300004363,False,14,-1,1,14
Y2-S2-202K23,3,297,PS,exp,34,←,left,←,0.9553250999888405,True,15,-1,0,14
Y2-S2-202K23,3,298,PS,exp,28,↑,down,↓,1.067021399969235,False,15,-1,0,14
Y2-S2-202K23,3,299,PS,exp,45,→,right,→,1.1096945999888703,True,16,-1,0,14
Y2-S2-202K23,3,300,PS,exp,33,↓,up,↑,1.3624577999580652,False,16,-1,0,14
Y2-S2-202K23,3,301,PS,exp,45,↑,up,↑,1.0371419999282807,True,17,-1,0,14
Y2-S2-202K23,3,302,PS,exp,35,←,left,←,0.7070424999110401,True,17,-1,0,14
Y2-S2-202K23,3,303,PS,exp,31,↓,up,↑,0.8212655000388622,False,17,-1,0,14
Y2-S2-202K23,3,304,PS,exp,25,←,left,←,0.7891016999492422,True,18,-1,0,14
Y2-S2-202K23,3,305,PS,exp,28,↑,up,↑,1.5141465000342578,True,18,-1,0,14
Y2-S2-202K23,3,306,PS,exp,25,←,left,←,0.6700634999433532,True,18,1,1,15
Y2-S2-202K23,3,307,PS,exp,39,→,right,→,1.0232556000119075,True,17,1,0,15
Y2-S2-202K23,3,308,PS,exp,41,↑,up,↑,0.7778219999745488,True,17,1,0,15
Y2-S2-202K23,3,309,PS,exp,49,←,left,←,0.808490899973549,True,17,1,0,15
Y2-S2-202K23,3,310,PS,exp,27,↑,up,↑,0.8493868000805378,True,16,1,0,15
Y2-S2-202K23,3,311,PS,exp,50,↓,down,↓,0.8540543999988586,True,16,1,0,15
Y2-S2-202K23,3,312,PS,exp,46,→,right,→,0.7651669000042602,True,16,1,0,15
Y2-S2-202K23,3,313,PS,exp,31,←,left,←,1.172688900027424,True,15,1,0,15
Y2-S2-202K23,3,314,PS,exp,41,→,right,→,0.704989799996838,True,15,1,0,15
Y2-S2-202K23,3,315,PS,exp,49,←,left,←,1.1186877000145614,True,15,1,0,15
Y2-S2-202K23,3,316,PS,exp,43,→,right,→,0.7045204000314698,True,14,1,0,15
Y2-S2-202K23,3,317,PS,exp,33,↓,down,↓,1.0920173999620602,True,14,1,0,15
Y2-S2-202K23,3,318,PS,exp,38,→,right,→,0.8815563000971451,True,14,1,0,15
Y2-S2-202K23,3,319,PS,exp,43,↓,down,↓,0.8500671000219882,True,13,1,0,15
Y2-S2-202K23,3,320,PS,exp,27,→,right,→,0.833811099990271,True,13,1,0,15
Y2-S2-202K23,3,321,PS,exp,28,↑,up,↑,1.1586781000951305,True,13,1,0,15
Y2-S2-202K23,3,322,PS,exp,35,↓,down,↓,0.9900436999741942,True,12,1,0,15
Y2-S2-202K23,3,323,PS,exp,34,↑,down,↓,1.0528771000681445,False,12,-1,1,16
Y2-S2-202K23,4,324,AS,intra_train,32,→,right,→,0.7958944999845698,True,34,-,-,-
Y2-S2-202K23,4,325,AS,intra_train,32,←,left,←,1.0730239999247715,True,34,-,-,-
Y2-S2-202K23,4,326,AS,intra_train,30,→,right,→,0.6340888999402523,True,34,-,-,-
Y2-S2-202K23,4,327,AS,intra_train,43,↓,down,↓,0.8081682999618351,True,34,-,-,-
Y2-S2-202K23,4,328,AS,intra_train,32,↑,up,↑,0.8152602999471128,True,34,-,-,-
Y2-S2-202K23,4,329,AS,exp,37,←,left,←,0.9018646000185981,True,23,0,0,0
Y2-S2-202K23,4,330,AS,exp,25,↓,down,↓,0.8911541000707075,True,23,0,0,0
Y2-S2-202K23,4,331,AS,exp,49,←,left,←,0.5785528999986127,True,23,1,0,0
Y2-S2-202K23,4,332,AS,exp,38,↓,down,↓,0.8732316000387073,True,22,1,0,0
Y2-S2-202K23,4,333,AS,exp,50,↑,up,↑,0.9759618999669328,True,22,1,0,0
Y2-S2-202K23,4,334,AS,exp,32,←,left,←,0.7209838000126183,True,22,1,0,0
Y2-S2-202K23,4,335,AS,exp,47,↓,down,↓,0.8034819999011233,True,21,1,0,0
Y2-S2-202K23,4,336,AS,exp,39,←,left,←,0.9285645000636578,True,21,1,0,0
Y2-S2-202K23,4,337,AS,exp,40,↓,down,↓,1.183710900018923,True,21,1,0,0
Y2-S2-202K23,4,338,AS,exp,29,←,left,←,0.7859740999992937,True,20,1,0,0
Y2-S2-202K23,4,339,AS,exp,50,→,right,→,0.6746594000142068,True,20,1,0,0
Y2-S2-202K23,4,340,AS,exp,44,↓,down,↓,0.6609085000818595,True,20,1,0,0
Y2-S2-202K23,4,341,AS,exp,27,→,right,→,0.7056082999333739,True,19,1,0,0
Y2-S2-202K23,4,342,AS,exp,43,↑,down,↓,1.2177350000711158,False,19,-1,1,1
Y2-S2-202K23,4,343,AS,exp,36,←,right,→,0.6381118999561295,False,20,-1,0,1
Y2-S2-202K23,4,344,AS,exp,43,↓,down,↓,1.1642680999357253,True,21,-1,0,1
Y2-S2-202K23,4,345,AS,exp,31,↑,down,↓,0.6434082000050694,False,21,-1,0,1
Y2-S2-202K23,4,346,AS,exp,38,←,right,→,0.7100415999302641,False,22,-1,0,1
Y2-S2-202K23,4,347,AS,exp,47,↓,right,→,0.8400715000461787,False,23,-1,0,1
Y2-S2-202K23,4,348,AS,exp,38,↑,up,↑,0.8474933999823406,True,24,-1,0,1
Y2-S2-202K23,4,349,AS,exp,31,→,right,→,0.7253422999056056,True,24,-1,0,1
Y2-S2-202K23,4,350,AS,exp,29,↑,up,↑,0.986063199932687,True,24,1,1,2
Y2-S2-202K23,4,351,AS,exp,43,←,right,→,0.6113789000082761,False,23,-1,1,3
Y2-S2-202K23,4,352,AS,exp,27,↓,no_key,no_letter,-1.0,False,24,-1,0,3
Y2-S2-202K23,4,353,AS,exp,35,→,down,↓,1.0898625999689102,False,25,-1,0,3
Y2-S2-202K23,4,354,AS,exp,30,←,left,←,0.7089959000004455,True,26,-1,0,3
Y2-S2-202K23,4,355,AS,exp,39,↑,up,↑,1.188856799970381,True,26,-1,0,3
Y2-S2-202K23,4,356,AS,exp,26,→,right,→,0.7586875000270084,True,26,1,1,4
Y2-S2-202K23,4,357,AS,exp,46,←,left,←,1.183806600049138,True,25,1,0,4
Y2-S2-202K23,4,358,AS,exp,38,↓,down,↓,0.7906447999412194,True,25,1,0,4
Y2-S2-202K23,4,359,AS,exp,44,→,right,→,1.1119180999230593,True,25,1,0,4
Y2-S2-202K23,4,360,AS,exp,38,↓,up,↑,1.464230600045994,False,24,-1,1,5
Y2-S2-202K23,4,361,AS,exp,29,→,left,←,1.3720086999237537,False,25,-1,0,5
Y2-S2-202K23,4,362,AS,exp,29,↓,no_key,no_letter,-1.0,False,26,-1,0,5
Y2-S2-202K23,4,363,AS,exp,45,→,down,↓,0.9889729999704286,False,27,-1,0,5
Y2-S2-202K23,4,364,AS,exp,30,↑,down,↓,0.9853212999878451,False,28,-1,0,5
Y2-S2-202K23,4,365,AS,exp,34,→,right,→,1.0813733999384567,True,29,-1,0,5
Y2-S2-202K23,4,366,AS,exp,39,←,left,←,0.6858933999901637,True,29,-1,0,5
Y2-S2-202K23,4,367,AS,exp,41,→,right,→,0.6568558000726625,True,29,1,1,6
Y2-S2-202K23,4,368,AS,exp,25,←,right,→,1.1903939999174327,False,28,-1,1,7
Y2-S2-202K23,4,369,AS,exp,32,↓,down,↓,0.896182700060308,True,29,-1,0,7
Y2-S2-202K23,4,370,AS,exp,48,→,right,→,0.7298629999859259,True,29,-1,0,7
Y2-S2-202K23,4,371,AS,exp,30,↑,down,↓,0.9819058000575751,False,29,-1,0,7
Y2-S2-202K23,4,372,AS,exp,46,←,right,→,0.6689912000438198,False,30,-1,0,7
Y2-S2-202K23,4,373,AS,exp,27,→,right,→,0.7106372999260202,True,31,-1,0,7
Y2-S2-202K23,4,374,AS,exp,35,↑,up,↑,0.84480960003566,True,31,-1,0,7
Y2-S2-202K23,4,375,AS,exp,39,←,left,←,0.7803830000339076,True,31,1,1,8
Y2-S2-202K23,4,376,AS,exp,43,↓,down,↓,0.60052639991045,True,30,1,0,8
Y2-S2-202K23,4,377,AS,exp,35,↑,down,↓,0.15106169995851815,False,30,-1,1,9
Y2-S2-202K23,4,378,AS,exp,29,←,left,←,0.8743601000169292,True,31,-1,0,9
Y2-S2-202K23,4,379,AS,exp,43,↓,down,↓,0.7164286999031901,True,31,-1,0,9
Y2-S2-202K23,4,380,AS,exp,48,←,left,←,0.8382517999270931,True,31,1,1,10
Y2-S2-202K23,4,381,AS,exp,25,↑,no_key,no_letter,-1.0,False,30,-1,1,11
Y2-S2-202K23,4,382,AS,exp,31,↓,no_key,no_letter,-1.0,False,31,-1,0,11
Y2-S2-202K23,4,383,AS,exp,49,→,right,→,0.8407916999422014,True,32,-1,0,11
Y2-S2-202K23,4,384,AS,exp,43,↑,up,↑,1.0682460999814793,True,32,-1,0,11
Y2-S2-202K23,4,385,AS,exp,37,↓,down,↓,0.550616699969396,True,32,1,1,12
Y2-S2-202K23,4,386,AS,exp,33,←,left,←,1.1559310000156984,True,31,1,0,12
Y2-S2-202K23,4,387,AS,exp,36,→,right,→,0.734203900094144,True,31,1,0,12
Y2-S2-202K23,4,388,AS,exp,46,↑,up,↑,0.9103046000236645,True,31,1,0,12
Y2-S2-202K23,4,389,AS,exp,49,→,right,→,0.944225599989295,True,30,1,0,12
Y2-S2-202K23,4,390,AS,exp,46,↓,down,↓,1.1102545000612736,True,30,1,0,12
Y2-S2-202K23,4,391,AS,exp,41,↑,up,↑,0.7637639000313357,True,30,1,0,12
Y2-S2-202K23,4,392,AS,exp,32,→,right,→,1.47195059992373,True,29,1,0,12
Y2-S2-202K23,4,393,AS,exp,46,↑,up,↑,0.9508194999070838,True,29,1,0,12
Y2-S2-202K23,4,394,AS,exp,38,↓,down,↓,1.037250499939546,True,29,1,0,12
Y2-S2-202K23,4,395,AS,exp,28,↑,up,↑,0.5504206999903545,True,28,1,0,12
Y2-S2-202K23,4,396,AS,exp,48,→,right,→,0.9232044999953359,True,28,1,0,12
Y2-S2-202K23,4,397,AS,exp,48,↑,up,↑,0.9089190999511629,True,28,1,0,12
Y2-S2-202K23,4,398,AS,exp,50,→,right,→,0.9048858000896871,True,27,1,0,12
Y2-S2-202K23,4,399,AS,exp,50,↓,up,↑,1.3382819999242201,False,27,-1,1,13
Y2-S2-202K23,4,400,AS,exp,44,→,right,→,0.6820904000196606,True,28,-1,0,13
Y2-S2-202K23,4,401,AS,exp,47,↑,up,↑,0.822879399987869,True,28,-1,0,13
Y2-S2-202K23,4,402,AS,exp,48,←,right,→,1.1055815999861807,False,28,-1,0,13
Y2-S2-202K23,4,403,AS,exp,32,↑,up,↑,0.6007922999560833,True,29,-1,0,13
Y2-S2-202K23,4,404,AS,exp,25,←,right,→,1.1766845000674948,False,29,-1,0,13
Y2-S2-202K23,4,405,AS,exp,34,→,no_key,no_letter,-1.0,False,30,-1,0,13
Y2-S2-202K23,4,406,AS,exp,49,↑,up,↑,0.8688059999840334,True,31,-1,0,13
Y2-S2-202K23,4,407,AS,exp,41,→,right,→,0.6969606999773532,True,31,-1,0,13
Y2-S2-202K23,4,408,AS,exp,38,↑,no_key,no_letter,-1.0,False,31,-1,0,13
Y2-S2-202K23,4,409,AS,exp,26,←,right,→,1.7000153000699356,False,32,-1,0,13
Y2-S2-202K23,4,410,AS,exp,36,↓,down,↓,0.8347874000901356,True,33,-1,0,13
Y2-S2-202K23,4,411,AS,exp,45,←,left,←,1.49535940005444,True,33,-1,0,13
Y2-S2-202K23,4,412,AS,exp,39,↑,up,↑,0.9392428999999538,True,33,1,1,14
Y2-S2-202K23,4,413,AS,exp,36,→,no_key,no_letter,-1.0,False,32,-1,1,15
Y2-S2-202K23,4,414,AS,exp,26,↑,up,↑,0.7644039000151679,True,33,-1,0,15
Y2-S2-202K23,4,415,AS,exp,26,→,right,→,0.8161628999514505,True,33,-1,0,15
Y2-S2-202K23,4,416,AS,exp,38,↓,down,↓,1.0990114000160247,True,33,1,1,16
Y2-S2-202K23,5,417,AS,intra_train,48,→,right,→,1.3369278000900522,True,34,-,-,-
Y2-S2-202K23,5,418,AS,intra_train,32,↓,down,↓,0.914401099900715,True,34,-,-,-
Y2-S2-202K23,5,419,AS,intra_train,32,→,right,→,1.0800073000136763,True,34,-,-,-
Y2-S2-202K23,5,420,AS,intra_train,29,←,left,←,1.236137600033544,True,34,-,-,-
Y2-S2-202K23,5,421,AS,intra_train,36,↑,up,↑,1.2159920999547467,True,34,-,-,-
Y2-S2-202K23,5,422,AS,exp,25,←,left,←,1.1105995998950675,True,23,0,0,0
Y2-S2-202K23,5,423,AS,exp,41,↓,up,↑,1.3804599000141025,False,23,-1,0,0
Y2-S2-202K23,5,424,AS,exp,50,←,left,←,0.9346753000281751,True,24,-1,0,0
Y2-S2-202K23,5,425,AS,exp,48,→,right,→,0.7022714999038726,True,24,-1,0,0
Y2-S2-202K23,5,426,AS,exp,26,↑,left,←,1.0198607000056654,False,24,-1,0,0
Y2-S2-202K23,5,427,AS,exp,29,←,left,←,0.602652599918656,True,25,-1,0,0
Y2-S2-202K23,5,428,AS,exp,40,→,right,→,0.8129911000141874,True,25,-1,0,0
Y2-S2-202K23,5,429,AS,exp,27,↓,down,↓,1.1451885000569746,True,25,1,1,1
Y2-S2-202K23,5,430,AS,exp,46,↑,up,↑,0.6825715999584645,True,24,1,0,1
Y2-S2-202K23,5,431,AS,exp,25,↓,down,↓,0.989462099969387,True,24,1,0,1
Y2-S2-202K23,5,432,AS,exp,27,→,right,→,0.6990224000765011,True,24,1,0,1
Y2-S2-202K23,5,433,AS,exp,42,↑,up,↑,0.6218846999108791,True,23,1,0,1
Y2-S2-202K23,5,434,AS,exp,50,←,left,←,0.6445253000129014,True,23,1,0,1
Y2-S2-202K23,5,435,AS,exp,41,→,right,→,0.655040500103496,True,23,1,0,1
Y2-S2-202K23,5,436,AS,exp,36,↓,down,↓,0.7518645999953151,True,22,1,0,1
Y2-S2-202K23,5,437,AS,exp,36,←,no_key,no_letter,-1.0,False,22,-1,1,2
Y2-S2-202K23,5,438,AS,exp,27,↓,down,↓,0.6905771000310779,True,23,-1,0,2
Y2-S2-202K23,5,439,AS,exp,37,↑,up,↑,0.9507306000450626,True,23,-1,0,2
Y2-S2-202K23,5,440,AS,exp,39,←,left,←,0.7259855999145657,True,23,1,1,3
Y2-S2-202K23,5,441,AS,exp,38,→,right,→,0.7716307999799028,True,22,1,0,3
Y2-S2-202K23,5,442,AS,exp,28,↑,up,↑,1.2641506000654772,True,22,1,0,3
Y2-S2-202K23,5,443,AS,exp,36,↓,down,↓,0.7322551000397652,True,22,1,0,3
Y2-S2-202K23,5,444,AS,exp,45,←,right,→,0.8428508000215515,False,21,-1,1,4
Y2-S2-202K23,5,445,AS,exp,50,→,right,→,0.923518400057219,True,22,-1,0,4
Y2-S2-202K23,5,446,AS,exp,26,↑,down,↓,0.9961758999852464,False,22,-1,0,4
Y2-S2-202K23,5,447,AS,exp,38,←,left,←,0.9087089999811724,True,23,-1,0,4
Y2-S2-202K23,5,448,AS,exp,35,↓,down,↓,0.8444056999869645,True,23,-1,0,4
Y2-S2-202K23,5,449,AS,exp,28,→,right,→,0.6008973999414593,True,23,1,1,5
Y2-S2-202K23,5,450,AS,exp,47,←,right,→,1.4611260999226943,False,22,-1,1,6
Y2-S2-202K23,5,451,AS,exp,26,↓,down,↓,0.6707357000559568,True,23,-1,0,6
Y2-S2-202K23,5,452,AS,exp,25,←,left,←,0.8472255000378937,True,23,-1,0,6
Y2-S2-202K23,5,453,AS,exp,37,↓,down,↓,1.545256899902597,True,23,1,1,7
Y2-S2-202K23,5,454,AS,exp,29,←,left,←,0.8729848000220954,True,22,1,0,7
Y2-S2-202K23,5,455,AS,exp,33,→,right,→,0.5431065000593662,True,22,1,0,7
Y2-S2-202K23,5,456,AS,exp,33,←,down,↓,1.11393509991467,False,22,-1,1,8
Y2-S2-202K23,5,457,AS,exp,34,↓,down,↓,0.6893456000834703,True,23,-1,0,8
Y2-S2-202K23,5,458,AS,exp,48,↑,down,↓,1.1686512999003753,False,23,-1,0,8
Y2-S2-202K23,5,459,AS,exp,27,↓,down,↓,0.5338618000969291,True,24,-1,0,8
Y2-S2-202K23,5,460,AS,exp,40,→,right,→,0.9442739000078291,True,24,-1,0,8
Y2-S2-202K23,5,461,AS,exp,28,↑,up,↑,1.553963299957104,True,24,1,1,9
Y2-S2-202K23,5,462,AS,exp,32,→,right,→,0.7075381999602541,True,23,1,0,9
Y2-S2-202K23,5,463,AS,exp,41,←,left,←,0.8696874999441206,True,23,1,0,9
Y2-S2-202K23,5,464,AS,exp,28,↑,up,↑,1.0228021000511944,True,23,1,0,9
Y2-S2-202K23,5,465,AS,exp,32,→,right,→,0.5572601000312716,True,22,1,0,9
Y2-S2-202K23,5,466,AS,exp,41,↑,up,↑,0.7224139999598265,True,22,1,0,9
Y2-S2-202K23,5,467,AS,exp,46,→,right,→,0.6236283000325784,True,22,1,0,9
Y2-S2-202K23,5,468,AS,exp,31,↓,right,→,0.9737961000064388,False,21,-1,1,10
Y2-S2-202K23,5,469,AS,exp,33,→,right,→,0.7192946000723168,True,22,-1,0,10
Y2-S2-202K23,5,470,AS,exp,39,←,right,→,1.009856600081548,False,22,-1,0,10
Y2-S2-202K23,5,471,AS,exp,46,→,right,→,1.4808307000203058,True,23,-1,0,10
Y2-S2-202K23,5,472,AS,exp,41,↑,up,↑,0.9060305999591947,True,23,-1,0,10
Y2-S2-202K23,5,473,AS,exp,31,↓,up,↑,0.960011399933137,False,23,-1,0,10
Y2-S2-202K23,5,474,AS,exp,27,→,right,→,0.701979500008747,True,24,-1,0,10
Y2-S2-202K23,5,475,AS,exp,36,←,left,←,1.0564137999899685,True,24,-1,0,10
Y2-S2-202K23,5,476,AS,exp,25,→,right,→,0.6337037000339478,True,24,1,1,11
Y2-S2-202K23,5,477,AS,exp,46,←,right,→,0.7430223000701517,False,23,-1,1,12
Y2-S2-202K23,5,478,AS,exp,39,↓,down,↓,0.8703736999304965,True,24,-1,0,12
Y2-S2-202K23,5,479,AS,exp,25,→,no_key,no_letter,-1.0,False,24,-1,0,12
Y2-S2-202K23,5,480,AS,exp,45,↑,down,↓,0.4341073000105098,False,25,-1,0,12
Y2-S2-202K23,5,481,AS,exp,27,↓,down,↓,0.8405146000441164,True,26,-1,0,12
Y2-S2-202K23,5,482,AS,exp,49,↑,down,↓,0.8716515999985859,False,26,-1,0,12
Y2-S2-202K23,5,483,AS,exp,46,←,no_key,no_letter,-1.0,False,27,-1,0,12
Y2-S2-202K23,5,484,AS,exp,33,↑,up,↑,0.8376440000720322,True,28,-1,0,12
Y2-S2-202K23,5,485,AS,exp,27,→,right,→,0.6768445000052452,True,28,-1,0,12
Y2-S2-202K23,5,486,AS,exp,30,←,left,←,1.055140999960713,True,28,1,1,13
Y2-S2-202K23,5,487,AS,exp,49,↑,up,↑,1.3170574000105262,True,27,1,0,13
Y2-S2-202K23,5,488,AS,exp,25,←,left,←,1.018145199981518,True,27,1,0,13
Y2-S2-202K23,5,489,AS,exp,44,→,right,→,1.167560699977912,True,27,1,0,13
Y2-S2-202K23,5,490,AS,exp,50,←,left,←,1.033126600086689,True,26,1,0,13
Y2-S2-202K23,5,491,AS,exp,37,↓,down,↓,1.044840499991551,True,26,1,0,13
Y2-S2-202K23,5,492,AS,exp,29,→,right,→,1.1401396000292152,True,26,1,0,13
Y2-S2-202K23,5,493,AS,exp,37,↓,down,↓,1.050872000050731,True,25,1,0,13
Y2-S2-202K23,5,494,AS,exp,26,←,left,←,0.8533024999778718,True,25,1,0,13
Y2-S2-202K23,5,495,AS,exp,50,↓,down,↓,1.2481849000323564,True,25,1,0,13
Y2-S2-202K23,5,496,AS,exp,48,↑,up,↑,1.2277443000348285,True,24,1,0,13
Y2-S2-202K23,5,497,AS,exp,39,↓,down,↓,1.239048899966292,True,24,1,0,13
Y2-S2-202K23,5,498,AS,exp,34,↑,up,↑,0.9372080999892205,True,24,1,0,13
Y2-S2-202K23,5,499,AS,exp,41,→,right,→,0.8445141999982297,True,23,1,0,13
Y2-S2-202K23,5,500,AS,exp,35,↓,down,↓,1.0382871000329033,True,23,1,0,13
Y2-S2-202K23,5,501,AS,exp,42,↑,up,↑,1.088132799952291,True,23,1,0,13
Y2-S2-202K23,5,502,AS,exp,45,→,right,→,0.6613671999657527,True,22,1,0,13
Y2-S2-202K23,5,503,AS,exp,38,↓,down,↓,1.2777649000054225,True,22,1,0,13
Y2-S2-202K23,5,504,AS,exp,30,→,right,→,0.7177700999891385,True,22,1,0,13
Y2-S2-202K23,5,505,AS,exp,32,↑,up,↑,0.8295153999933973,True,21,1,0,13
Y2-S2-202K23,5,506,AS,exp,28,↓,down,↓,1.1563774000387639,True,21,1,0,13
Y2-S2-202K23,5,507,AS,exp,26,↑,up,↑,1.0245289000449702,True,21,1,0,13
Y2-S2-202K23,5,508,AS,exp,34,→,right,→,0.6461994999554008,True,20,1,0,13
Y2-S2-202K23,5,509,AS,exp,30,←,left,←,1.073284399928525,True,20,1,0,13
Y2-S2-202K23,5,510,AS,exp,39,↑,up,↑,0.8926162000279874,True,20,1,0,13
Y2-S2-202K23,5,511,AS,exp,50,↓,up,↑,1.388928800006397,False,19,-1,1,14
Y2-S2-202K23,5,512,AS,exp,41,→,right,→,0.6874891999177635,True,20,-1,0,14
Y2-S2-202K23,5,513,AS,exp,35,←,right,→,1.1131519998889416,False,20,-1,0,14
Y2-S2-202K23,5,514,AS,exp,30,↓,up,↑,1.325442000059411,False,21,-1,0,14
Y2-S2-202K23,5,515,AS,exp,47,→,right,→,0.7951712000649422,True,22,-1,0,14
Y2-S2-202K23,5,516,AS,exp,46,←,left,←,1.6819156999699771,True,22,-1,0,14
Y2-S2-202K23,5,517,AS,exp,47,↓,up,↑,1.234389999997802,False,22,-1,0,14
Y2-S2-202K23,5,518,AS,exp,31,↑,up,↑,1.467404600000009,True,23,-1,0,14
Y2-S2-202K23,5,519,AS,exp,48,←,left,←,1.120479500037618,True,23,-1,0,14
Y2-S2-202K23,5,520,AS,exp,44,→,no_key,no_letter,-1.0,False,23,-1,0,14
Y2-S2-202K23,5,521,AS,exp,27,↓,down,↓,0.7828933000564575,True,24,-1,0,14
Y2-S2-202K23,5,522,AS,exp,37,←,right,→,0.9506659000180662,False,24,-1,0,14
Y2-S2-202K23,5,523,AS,exp,35,↑,up,↑,0.7289158999919891,True,25,-1,0,14
Y2-S2-202K23,5,524,AS,exp,32,→,right,→,1.0205057000275701,True,25,-1,0,14
Y2-S2-202K23,5,525,AS,exp,49,←,left,←,1.1519157000584528,True,25,1,1,15
Y2-S2-202K23,5,526,AS,exp,35,↑,up,↑,1.1091517999302596,True,24,1,0,15
Y2-S2-202K23,5,527,AS,exp,26,↓,no_key,no_letter,-1.0,False,24,-1,1,16
Y2-S2-202K23,6,528,PS,intra_train,49,←,left,←,1.0679809999419376,True,15,-,-,-
Y2-S2-202K23,6,529,PS,intra_train,31,→,right,→,0.8382476000115275,True,15,-,-,-
Y2-S2-202K23,6,530,PS,intra_train,49,↓,down,↓,1.4856344000436366,True,15,-,-,-
Y2-S2-202K23,6,531,PS,intra_train,45,↑,up,↑,1.1194901999551803,True,15,-,-,-
Y2-S2-202K23,6,532,PS,intra_train,49,→,no_key,no_letter,-1.0,False,15,-,-,-
Y2-S2-202K23,6,533,PS,exp,49,←,left,←,1.5060817999765277,True,10,0,0,0
Y2-S2-202K23,6,534,PS,exp,31,→,right,→,1.0170697999419644,True,10,0,0,0
Y2-S2-202K23,6,535,PS,exp,34,←,left,←,0.8756081000901759,True,10,1,0,0
Y2-S2-202K23,6,536,PS,exp,27,→,left,←,0.9885572000639513,False,9,-1,1,1
Y2-S2-202K23,6,537,PS,exp,46,↓,left,←,0.9183979999506846,False,10,-1,0,1
Y2-S2-202K23,6,538,PS,exp,34,↑,left,←,0.6683885001111776,False,11,-1,0,1
Y2-S2-202K23,6,539,PS,exp,25,↓,down,↓,0.9072650000452995,True,12,-1,0,1
Y2-S2-202K23,6,540,PS,exp,35,↑,down,↓,1.031767399981618,False,12,-1,0,1
Y2-S2-202K23,6,541,PS,exp,47,←,no_key,no_letter,-1.0,False,13,-1,0,1
Y2-S2-202K23,6,542,PS,exp,30,↓,down,↓,1.006357999984175,True,14,-1,0,1
Y2-S2-202K23,6,543,PS,exp,40,←,left,←,1.0002006000140682,True,14,-1,0,1
Y2-S2-202K23,6,544,PS,exp,46,↓,right,→,1.2231149999424815,False,14,-1,0,1
Y2-S2-202K23,6,545,PS,exp,36,←,right,→,1.0676664999919012,False,15,-1,0,1
Y2-S2-202K23,6,546,PS,exp,45,↓,down,↓,0.9260825000237674,True,16,-1,0,1
Y2-S2-202K23,6,547,PS,exp,50,→,right,→,0.9430715999333188,True,16,-1,0,1
Y2-S2-202K23,6,548,PS,exp,50,←,left,←,1.3918191000120714,True,16,1,1,2
Y2-S2-202K23,6,549,PS,exp,45,↑,up,↑,0.8391812000190839,True,15,1,0,2
Y2-S2-202K23,6,550,PS,exp,46,→,right,→,0.7063559000380337,True,15,1,0,2
Y2-S2-202K23,6,551,PS,exp,41,↑,up,↑,1.181631200015545,True,15,1,0,2
Y2-S2-202K23,6,552,PS,exp,49,←,left,←,0.9115846999920905,True,14,1,0,2
Y2-S2-202K23,6,553,PS,exp,26,↓,up,↑,1.098667399957776,False,14,-1,1,3
Y2-S2-202K23,6,554,PS,exp,32,→,right,→,0.7461889999685809,True,15,-1,0,3
Y2-S2-202K23,6,555,PS,exp,50,↓,down,↓,0.7496498000109568,True,15,-1,0,3
Y2-S2-202K23,6,556,PS,exp,47,→,right,→,0.8662740000290796,True,15,1,1,4
Y2-S2-202K23,6,557,PS,exp,38,←,down,↓,1.2198978000087664,False,14,-1,1,5
Y2-S2-202K23,6,558,PS,exp,41,→,right,→,1.1403733999468386,True,15,-1,0,5
Y2-S2-202K23,6,559,PS,exp,38,↑,up,↑,0.8289043999975547,True,15,-1,0,5
Y2-S2-202K23,6,560,PS,exp,49,→,down,↓,1.698653700063005,False,15,-1,0,5
Y2-S2-202K23,6,561,PS,exp,36,↓,down,↓,0.7452157000079751,True,16,-1,0,5
Y2-S2-202K23,6,562,PS,exp,43,↑,up,↑,0.6508541000075638,True,16,-1,0,5
Y2-S2-202K23,6,563,PS,exp,33,←,right,→,0.7927124000852928,False,16,-1,0,5
Y2-S2-202K23,6,564,PS,exp,47,↑,up,↑,0.6352169999154285,True,17,-1,0,5
Y2-S2-202K23,6,565,PS,exp,45,→,right,→,0.7945480000926182,True,17,-1,0,5
Y2-S2-202K23,6,566,PS,exp,43,←,left,←,1.2464178999653086,True,17,1,1,6
Y2-S2-202K23,6,567,PS,exp,28,↓,down,↓,0.5430853000143543,True,16,1,0,6
Y2-S2-202K23,6,568,PS,exp,25,↑,down,↓,0.6870621000416577,False,16,-1,1,7
Y2-S2-202K23,6,569,PS,exp,49,→,right,→,0.8813037999207154,True,17,-1,0,7
Y2-S2-202K23,6,570,PS,exp,28,↑,up,↑,1.8509898000629619,True,17,-1,0,7
Y2-S2-202K23,6,571,PS,exp,48,↓,down,↓,1.2706984999822453,True,17,1,1,8
Y2-S2-202K23,6,572,PS,exp,43,←,left,←,0.7369472999125719,True,16,1,0,8
Y2-S2-202K23,6,573,PS,exp,35,→,left,←,1.1182759999064729,False,16,-1,1,9
Y2-S2-202K23,6,574,PS,exp,49,←,left,←,0.7877812000224367,True,17,-1,0,9
Y2-S2-202K23,6,575,PS,exp,29,↓,down,↓,0.7356545999646187,True,17,-1,0,9
Y2-S2-202K23,6,576,PS,exp,44,→,right,→,0.6940900000045076,True,17,1,1,10
Y2-S2-202K23,6,577,PS,exp,44,↓,down,↓,0.8128585000522435,True,16,1,0,10
Y2-S2-202K23,6,578,PS,exp,40,←,left,←,1.121373499976471,True,16,1,0,10
Y2-S2-202K23,6,579,PS,exp,46,↓,right,→,1.3357745000394061,False,16,-1,1,11
Y2-S2-202K23,6,580,PS,exp,43,←,down,↓,1.2444915999658406,False,17,-1,0,11
Y2-S2-202K23,6,581,PS,exp,42,↓,down,↓,0.525363500113599,True,18,-1,0,11
Y2-S2-202K23,6,582,PS,exp,41,←,down,↓,0.3837273999815807,False,18,-1,0,11
Y2-S2-202K23,6,583,PS,exp,33,↑,up,↑,0.6058899000054225,True,19,-1,0,11
Y2-S2-202K23,6,584,PS,exp,46,↓,down,↓,0.6405144999735057,True,19,-1,0,11
Y2-S2-202K23,6,585,PS,exp,49,↑,up,↑,0.5149153000675142,True,19,1,1,12
Y2-S2-202K23,6,586,PS,exp,33,←,no_key,no_letter,-1.0,False,18,-1,1,13
Y2-S2-202K23,6,587,PS,exp,38,↓,down,↓,0.6897824000334367,True,19,-1,0,13
Y2-S2-202K23,6,588,PS,exp,38,←,left,←,1.840667299926281,True,19,-1,0,13
Y2-S2-202K23,6,589,PS,exp,40,↑,up,↑,0.743407899979502,True,19,1,1,14
Y2-S2-202K23,6,590,PS,exp,44,↓,down,↓,0.7778646999504417,True,18,1,0,14
Y2-S2-202K23,6,591,PS,exp,44,→,right,→,0.6845398999284953,True,18,1,0,14
Y2-S2-202K23,6,592,PS,exp,45,←,left,←,0.9959824999095872,True,18,1,0,14
Y2-S2-202K23,6,593,PS,exp,38,↓,down,↓,0.7042055999627337,True,17,1,0,14
Y2-S2-202K23,6,594,PS,exp,28,↑,up,↑,0.691437799949199,True,17,1,0,14
Y2-S2-202K23,6,595,PS,exp,35,↓,down,↓,1.2416565000312403,True,17,1,0,14
Y2-S2-202K23,6,596,PS,exp,26,→,left,←,1.2387641998939216,False,16,-1,1,15
Y2-S2-202K23,6,597,PS,exp,27,←,left,←,0.6637288000201806,True,17,-1,0,15
Y2-S2-202K23,6,598,PS,exp,35,↓,down,↓,0.758779399911873,True,17,-1,0,15
Y2-S2-202K23,6,599,PS,exp,50,←,right,→,0.8222422999097034,False,17,-1,0,15
Y2-S2-202K23,6,600,PS,exp,42,↓,down,↓,0.6340231999056414,True,18,-1,0,15
Y2-S2-202K23,6,601,PS,exp,38,←,left,←,1.4530608999775723,True,18,-1,0,15
Y2-S2-202K23,6,602,PS,exp,43,↑,up,↑,0.8487645999994129,True,18,1,1,16
Y2-S2-202K23,7,603,PS,intra_train,29,→,right,→,0.7089064000174403,True,15,-,-,-
Y2-S2-202K23,7,604,PS,intra_train,39,↑,up,↑,1.0172933000139892,True,15,-,-,-
Y2-S2-202K23,7,605,PS,intra_train,27,→,right,→,0.7312732000136748,True,15,-,-,-
Y2-S2-202K23,7,606,PS,intra_train,47,←,left,←,0.7140335000585765,True,15,-,-,-
Y2-S2-202K23,7,607,PS,intra_train,32,↓,down,↓,0.9489869000390172,True,15,-,-,-
Y2-S2-202K23,7,608,PS,exp,49,→,right,→,0.5641755999531597,True,10,0,0,0
Y2-S2-202K23,7,609,PS,exp,45,←,down,↓,0.8919689999893308,False,10,-1,0,0
Y2-S2-202K23,7,610,PS,exp,50,→,right,→,0.638955399976112,True,11,-1,0,0
Y2-S2-202K23,7,611,PS,exp,34,←,left,←,0.7691983999684453,True,11,-1,0,0
Y2-S2-202K23,7,612,PS,exp,34,↓,down,↓,0.7957785999169573,True,11,1,1,1
Y2-S2-202K23,7,613,PS,exp,36,↑,up,↑,0.767361499951221,True,10,1,0,1
Y2-S2-202K23,7,614,PS,exp,42,→,right,→,0.7580523000797257,True,10,1,0,1
Y2-S2-202K23,7,615,PS,exp,47,←,down,↓,1.5594775000354275,False,10,-1,1,2
Y2-S2-202K23,7,616,PS,exp,32,↑,up,↑,0.8716449000639841,True,11,-1,0,2
Y2-S2-202K23,7,617,PS,exp,35,←,right,→,1.034312800038606,False,11,-1,0,2
Y2-S2-202K23,7,618,PS,exp,46,↓,up,↑,1.0170064999256283,False,12,-1,0,2
Y2-S2-202K23,7,619,PS,exp,30,↑,down,↓,1.095943000051193,False,13,-1,0,2
Y2-S2-202K23,7,620,PS,exp,29,↓,down,↓,1.2378975000465289,True,14,-1,0,2
Y2-S2-202K23,7,621,PS,exp,36,←,left,←,1.0320517000509426,True,14,-1,0,2
Y2-S2-202K23,7,622,PS,exp,25,↓,down,↓,1.0532778000924736,True,14,1,1,3
Y2-S2-202K23,7,623,PS,exp,48,↑,down,↓,1.1096353000029922,False,13,-1,1,4
Y2-S2-202K23,7,624,PS,exp,26,↓,down,↓,0.7003402999835089,True,14,-1,0,4
Y2-S2-202K23,7,625,PS,exp,45,↑,up,↑,1.4362042000284418,True,14,-1,0,4
Y2-S2-202K23,7,626,PS,exp,48,←,right,→,0.45092299999669194,False,14,-1,0,4
Y2-S2-202K23,7,627,PS,exp,31,→,right,→,0.5778625999810174,True,15,-1,0,4
Y2-S2-202K23,7,628,PS,exp,34,←,no_key,no_letter,-1.0,False,15,-1,0,4
Y2-S2-202K23,7,629,PS,exp,28,→,right,→,0.6478515999624506,True,16,-1,0,4
Y2-S2-202K23,7,630,PS,exp,49,↓,down,↓,0.9937627000035718,True,16,-1,0,4
Y2-S2-202K23,7,631,PS,exp,28,→,right,→,0.5981899000471458,True,16,1,1,5
Y2-S2-202K23,7,632,PS,exp,36,↓,down,↓,0.6085527000250295,True,15,1,0,5
Y2-S2-202K23,7,633,PS,exp,30,→,right,→,0.5355170000111684,True,15,1,0,5
Y2-S2-202K23,7,634,PS,exp,36,↓,down,↓,0.4720895999344066,True,15,1,0,5
Y2-S2-202K23,7,635,PS,exp,47,→,right,→,0.49674219998996705,True,14,1,0,5
Y2-S2-202K23,7,636,PS,exp,50,←,left,←,0.8027557999594137,True,14,1,0,5
Y2-S2-202K23,7,637,PS,exp,43,↑,down,↓,0.9080083000008017,False,14,-1,1,6
Y2-S2-202K23,7,638,PS,exp,28,←,right,→,0.7736211000010371,False,15,-1,0,6
Y2-S2-202K23,7,639,PS,exp,50,→,left,←,1.0890926000429317,False,16,-1,0,6
Y2-S2-202K23,7,640,PS,exp,29,↓,down,↓,0.7311452000867575,True,17,-1,0,6
Y2-S2-202K23,7,641,PS,exp,26,←,down,↓,0.998613900039345,False,17,-1,0,6
Y2-S2-202K23,7,642,PS,exp,47,↓,down,↓,0.49535990005824715,True,18,-1,0,6
Y2-S2-202K23,7,643,PS,exp,41,←,right,→,1.2328268000856042,False,18,-1,0,6
Y2-S2-202K23,7,644,PS,exp,45,↓,left,←,0.6103392000077292,False,19,-1,0,6
Y2-S2-202K23,7,645,PS,exp,25,→,right,→,0.9910754999145865,True,20,-1,0,6
Y2-S2-202K23,7,646,PS,exp,49,←,right,→,0.9555516999680549,False,20,-1,0,6
Y2-S2-202K23,7,647,PS,exp,35,↑,down,↓,1.0716703000944108,False,21,-1,0,6
Y2-S2-202K23,7,648,PS,exp,47,←,no_key,no_letter,-1.0,False,22,-1,0,6
Y2-S2-202K23,7,649,PS,exp,42,→,right,→,0.5626456999452785,True,23,-1,0,6
Y2-S2-202K23,7,650,PS,exp,47,↑,up,↑,0.9877544000046328,True,23,-1,0,6
Y2-S2-202K23,7,651,PS,exp,50,↓,down,↓,0.7056025000056252,True,23,1,1,7
Y2-S2-202K23,7,652,PS,exp,38,↑,up,↑,0.6059785999823362,True,22,1,0,7
Y2-S2-202K23,7,653,PS,exp,46,→,right,→,0.7012661999324337,True,22,1,0,7
Y2-S2-202K23,7,654,PS,exp,30,←,right,→,0.7003970999503508,False,22,-1,1,8
Y2-S2-202K23,7,655,PS,exp,32,↓,right,→,0.698495400021784,False,23,-1,0,8
Y2-S2-202K23,7,656,PS,exp,34,←,left,←,1.1659638000419363,True,24,-1,0,8
Y2-S2-202K23,7,657,PS,exp,37,↑,down,↓,1.0788901000050828,False,24,-1,0,8
Y2-S2-202K23,7,658,PS,exp,26,→,right,→,0.6266762999584898,True,25,-1,0,8
Y2-S2-202K23,7,659,PS,exp,42,←,right,→,0.9719873000867665,False,25,-1,0,8
Y2-S2-202K23,7,660,PS,exp,28,→,left,←,1.3527697999961674,False,26,-1,0,8
Y2-S2-202K23,7,661,PS,exp,27,↑,up,↑,1.0985376000171527,True,27,-1,0,8
Y2-S2-202K23,7,662,PS,exp,34,←,left,←,0.9514827000675723,True,27,-1,0,8
Y2-S2-202K23,7,663,PS,exp,28,→,right,→,0.6294450000859797,True,27,1,1,9
Y2-S2-202K23,7,664,PS,exp,29,↑,up,↑,0.8934971999842674,True,26,1,0,9
Y2-S2-202K23,7,665,PS,exp,50,↓,down,↓,1.2675721000414342,True,26,1,0,9
Y2-S2-202K23,7,666,PS,exp,46,→,right,→,0.9512388000730425,True,26,1,0,9
Y2-S2-202K23,7,667,PS,exp,49,←,left,←,1.2043581999605522,True,25,1,0,9
Y2-S2-202K23,7,668,PS,exp,47,↓,down,↓,1.1946225999854505,True,25,1,0,9
Y2-S2-202K23,7,669,PS,exp,43,←,left,←,1.131668399902992,True,25,1,0,9
Y2-S2-202K23,7,670,PS,exp,26,→,right,→,0.8771451999200508,True,24,1,0,9
Y2-S2-202K23,7,671,PS,exp,39,←,left,←,0.9076621000422165,True,24,1,0,9
Y2-S2-202K23,7,672,PS,exp,49,↓,down,↓,0.9107933000195771,True,24,1,0,9
Y2-S2-202K23,7,673,PS,exp,48,↑,up,↑,0.8855101999361068,True,23,1,0,9
Y2-S2-202K23,7,674,PS,exp,37,→,right,→,0.6378959999419749,True,23,1,0,9
Y2-S2-202K23,7,675,PS,exp,48,↓,up,↑,1.2103347000665963,False,23,-1,1,10
Y2-S2-202K23,7,676,PS,exp,43,↑,up,↑,1.3187018999597058,True,24,-1,0,10
Y2-S2-202K23,7,677,PS,exp,40,→,right,→,0.9661795999854803,True,24,-1,0,10
Y2-S2-202K23,7,678,PS,exp,29,↑,up,↑,0.9956751998979598,True,24,1,1,11
Y2-S2-202K23,7,679,PS,exp,28,→,right,→,0.7982062000082806,True,23,1,0,11
Y2-S2-202K23,7,680,PS,exp,35,↓,down,↓,0.8272935999557376,True,23,1,0,11
Y2-S2-202K23,7,681,PS,exp,36,↑,up,↑,0.9661420000484213,True,23,1,0,11
Y2-S2-202K23,7,682,PS,exp,31,→,up,↑,1.041066600009799,False,22,-1,1,12
Y2-S2-202K23,7,683,PS,exp,41,↑,up,↑,0.7728671999648213,True,23,-1,0,12
Y2-S2-202K23,7,684,PS,exp,44,↓,down,↓,1.414766400004737,True,23,-1,0,12
Y2-S2-202K23,7,685,PS,exp,34,↑,up,↑,1.0296431999886408,True,23,1,1,13
Y2-S2-202K23,7,686,PS,exp,49,→,right,→,0.8419585000956431,True,22,1,0,13
Y2-S2-202K23,7,687,PS,exp,25,↑,down,↓,1.2895671000005677,False,22,-1,1,14
Y2-S2-202K23,7,688,PS,exp,30,↓,down,↓,0.9499672000529245,True,23,-1,0,14
Y2-S2-202K23,7,689,PS,exp,45,←,left,←,0.7026573000475764,True,23,-1,0,14
Y2-S2-202K23,7,690,PS,exp,41,↓,down,↓,1.315910100005567,True,23,1,1,15
Y2-S2-202K23,7,691,PS,exp,25,↑,down,↓,1.1906443999614567,False,22,-1,1,16
Y2-S2-202K23,8,692,AS,intra_train,26,→,right,→,1.0581095999805257,True,34,-,-,-
Y2-S2-202K23,8,693,AS,intra_train,28,↓,down,↓,0.7777958000078797,True,34,-,-,-
Y2-S2-202K23,8,694,AS,intra_train,32,↑,up,↑,1.033592600026168,True,34,-,-,-
Y2-S2-202K23,8,695,AS,intra_train,26,←,left,←,0.8864224000135437,True,34,-,-,-
Y2-S2-202K23,8,696,AS,intra_train,35,↓,down,↓,0.9948622999945655,True,34,-,-,-
Y2-S2-202K23,8,697,AS,exp,32,→,right,→,1.0032230999786407,True,23,0,0,0
Y2-S2-202K23,8,698,AS,exp,48,↓,down,↓,1.0275157999712974,True,23,0,0,0
Y2-S2-202K23,8,699,AS,exp,42,→,right,→,0.6805914998985827,True,23,1,0,0
Y2-S2-202K23,8,700,AS,exp,46,↑,up,↑,0.673034799983725,True,22,1,0,0
Y2-S2-202K23,8,701,AS,exp,46,←,right,→,0.5477778000058606,False,22,-1,1,1
Y2-S2-202K23,8,702,AS,exp,29,↑,up,↑,0.9262732999632135,True,23,-1,0,1
Y2-S2-202K23,8,703,AS,exp,38,↓,down,↓,1.2987390001071617,True,23,-1,0,1
Y2-S2-202K23,8,704,AS,exp,30,←,right,→,1.23706980003044,False,23,-1,0,1
Y2-S2-202K23,8,705,AS,exp,49,↑,up,↑,1.0739375000121072,True,24,-1,0,1
Y2-S2-202K23,8,706,AS,exp,29,↓,down,↓,0.9943670999491587,True,24,-1,0,1
Y2-S2-202K23,8,707,AS,exp,39,↑,up,↑,0.7567090000957251,True,24,1,1,2
Y2-S2-202K23,8,708,AS,exp,50,↓,down,↓,0.9934432000154629,True,23,1,0,2
Y2-S2-202K23,8,709,AS,exp,47,←,left,←,1.134743900038302,True,23,1,0,2
Y2-S2-202K23,8,710,AS,exp,25,↓,down,↓,1.1082817999413237,True,23,1,0,2
Y2-S2-202K23,8,711,AS,exp,26,↑,up,↑,0.9095460999524221,True,22,1,0,2
Y2-S2-202K23,8,712,AS,exp,46,→,left,←,1.04480690008495,False,22,-1,1,3
Y2-S2-202K23,8,713,AS,exp,34,↓,down,↓,1.2010038000298664,True,23,-1,0,3
Y2-S2-202K23,8,714,AS,exp,33,→,right,→,0.7177178000565618,True,23,-1,0,3
Y2-S2-202K23,8,715,AS,exp,27,↓,down,↓,1.410626900033094,True,23,1,1,4
Y2-S2-202K23,8,716,AS,exp,31,↑,down,↓,0.9584264999721199,False,22,-1,1,5
Y2-S2-202K23,8,717,AS,exp,48,←,left,←,0.9000095999799669,True,23,-1,0,5
Y2-S2-202K23,8,718,AS,exp,31,↓,down,↓,1.3206819999031723,True,23,-1,0,5
Y2-S2-202K23,8,719,AS,exp,34,→,right,→,1.0196968999225646,True,23,1,1,6
Y2-S2-202K23,8,720,AS,exp,49,↓,down,↓,1.1468713999493048,True,22,1,0,6
Y2-S2-202K23,8,721,AS,exp,42,→,right,→,0.6267068000743166,True,22,1,0,6
Y2-S2-202K23,8,722,AS,exp,32,↓,down,↓,1.2249799000564963,True,22,1,0,6
Y2-S2-202K23,8,723,AS,exp,28,↑,up,↑,1.1289493999211118,True,21,1,0,6
Y2-S2-202K23,8,724,AS,exp,40,←,right,→,1.2753068000311032,False,21,-1,1,7
Y2-S2-202K23,8,725,AS,exp,36,↓,down,↓,1.1217125999974087,True,22,-1,0,7
Y2-S2-202K23,8,726,AS,exp,28,←,left,←,0.8605220000026748,True,22,-1,0,7
Y2-S2-202K23,8,727,AS,exp,31,↑,up,↑,1.3159701999975368,True,22,1,1,8
Y2-S2-202K23,8,728,AS,exp,26,→,left,←,1.079290600027889,False,21,-1,1,9
Y2-S2-202K23,8,729,AS,exp,28,↓,down,↓,1.0578530000057071,True,22,-1,0,9
Y2-S2-202K23,8,730,AS,exp,47,←,left,←,1.1673139999620616,True,22,-1,0,9
Y2-S2-202K23,8,731,AS,exp,44,↑,up,↑,1.1983812999678776,True,22,1,1,10
Y2-S2-202K23,8,732,AS,exp,38,↓,down,↓,0.8972520000534132,True,21,1,0,10
Y2-S2-202K23,8,733,AS,exp,39,←,left,←,0.7472439000848681,True,21,1,0,10
Y2-S2-202K23,8,734,AS,exp,31,↓,down,↓,0.7550462000072002,True,21,1,0,10
Y2-S2-202K23,8,735,AS,exp,45,←,left,←,0.6684796999907121,True,20,1,0,10
Y2-S2-202K23,8,736,AS,exp,27,→,right,→,0.8843366999644786,True,20,1,0,10
Y2-S2-202K23,8,737,AS,exp,36,←,left,←,0.6894806999480352,True,20,1,0,10
Y2-S2-202K23,8,738,AS,exp,50,→,right,→,1.0039634999120608,True,19,1,0,10
Y2-S2-202K23,8,739,AS,exp,28,↑,up,↑,0.8540414000162855,True,19,1,0,10
Y2-S2-202K23,8,740,AS,exp,48,←,left,←,0.9850581999635324,True,19,1,0,10
Y2-S2-202K23,8,741,AS,exp,30,↓,right,→,0.9940103000262752,False,18,-1,1,11
Y2-S2-202K23,8,742,AS,exp,47,←,right,→,1.0305234999395907,False,19,-1,0,11
Y2-S2-202K23,8,743,AS,exp,48,↑,up,↑,1.003728299983777,True,20,-1,0,11
Y2-S2-202K23,8,744,AS,exp,47,→,right,→,0.6064670999767259,True,20,-1,0,11
Y2-S2-202K23,8,745,AS,exp,43,↓,down,↓,0.589311599964276,True,20,1,1,12
Y2-S2-202K23,8,746,AS,exp,39,←,right,→,0.6328446998959407,False,19,-1,1,13
Y2-S2-202K23,8,747,AS,exp,37,→,right,→,0.8708637000527233,True,20,-1,0,13
Y2-S2-202K23,8,748,AS,exp,44,←,right,→,0.8341460999799892,False,20,-1,0,13
Y2-S2-202K23,8,749,AS,exp,39,↓,up,↑,1.040290299919434,False,21,-1,0,13
Y2-S2-202K23,8,750,AS,exp,32,→,down,↓,0.8077121999813244,False,22,-1,0,13
Y2-S2-202K23,8,751,AS,exp,26,←,left,←,1.1158703999826685,True,23,-1,0,13
Y2-S2-202K23,8,752,AS,exp,34,↑,right,→,1.9124244999838993,False,23,-1,0,13
Y2-S2-202K23,8,753,AS,exp,44,←,left,←,1.0330613000551239,True,24,-1,0,13
Y2-S2-202K23,8,754,AS,exp,44,↓,down,↓,0.6912697000661865,True,24,-1,0,13
Y2-S2-202K23,8,755,AS,exp,48,←,left,←,0.7396989000262693,True,24,1,1,14
Y2-S2-202K23,8,756,AS,exp,28,↓,down,↓,0.6233025999972597,True,23,1,0,14
Y2-S2-202K23,8,757,AS,exp,25,←,left,←,0.8991985999746248,True,23,1,0,14
Y2-S2-202K23,8,758,AS,exp,28,↓,left,←,1.208407000056468,False,23,-1,1,15
Y2-S2-202K23,8,759,AS,exp,41,←,left,←,0.8688021000707522,True,24,-1,0,15
Y2-S2-202K23,8,760,AS,exp,41,→,right,→,1.006048999959603,True,24,-1,0,15
Y2-S2-202K23,8,761,AS,exp,42,←,left,←,0.6287976999301463,True,24,1,1,16
