PART_ID,Block_no,Trial_no,Block_type,Trial_type,CSI,Stim_letter,Key_pressed,letter_choose,Rt,Corr,Stimulus Time,Level,Reversal,Revs_count
Y2-S2-076K22,1,1,PS,train,28,←,left,←,1.6317202998325229,True,30,-,-,-
Y2-S2-076K22,1,2,PS,train,43,↓,down,↓,0.9625404998660088,True,30,-,-,-
Y2-S2-076K22,1,3,PS,train,35,→,right,→,0.6009000996127725,True,30,-,-,-
Y2-S2-076K22,1,4,PS,train,32,↓,down,↓,0.55090850032866,True,30,-,-,-
Y2-S2-076K22,1,5,PS,train,43,←,left,←,0.6338108000345528,True,30,-,-,-
Y2-S2-076K22,1,6,PS,train,48,↑,up,↑,0.45106759993359447,True,30,-,-,-
Y2-S2-076K22,1,7,PS,train,50,←,left,←,0.6175607000477612,True,30,-,-,-
Y2-S2-076K22,1,8,PS,train,49,↓,down,↓,0.6339549999684095,True,30,-,-,-
Y2-S2-076K22,1,9,PS,train,26,→,right,→,0.43436230020597577,True,30,-,-,-
Y2-S2-076K22,1,10,PS,train,38,↑,up,↑,0.6711378996260464,True,30,-,-,-
Y2-S2-076K22,2,11,AS,train,27,↓,down,↓,0.5345915998332202,True,45,-,-,-
Y2-S2-076K22,2,12,AS,train,32,↑,up,↑,0.7508033001795411,True,45,-,-,-
Y2-S2-076K22,2,13,AS,train,36,→,right,→,0.4844714002683759,True,45,-,-,-
Y2-S2-076K22,2,14,AS,train,50,←,left,←,0.7177273002453148,True,45,-,-,-
Y2-S2-076K22,2,15,AS,train,39,↓,down,↓,0.6677310997620225,True,45,-,-,-
Y2-S2-076K22,2,16,AS,train,27,←,left,←,0.46793239982798696,True,45,-,-,-
Y2-S2-076K22,2,17,AS,train,48,↑,up,↑,0.36766499979421496,True,45,-,-,-
Y2-S2-076K22,2,18,AS,train,34,→,left,←,0.5508524999022484,False,45,-,-,-
Y2-S2-076K22,2,19,AS,train,38,←,up,↑,0.5678325002081692,False,45,-,-,-
Y2-S2-076K22,2,20,AS,train,31,↑,up,↑,0.6347034000791609,True,45,-,-,-
Y2-S2-076K22,-,21,PS,adaptive,47,↓,down,↓,0.5693013002164662,True,10,0,0,0
Y2-S2-076K22,-,22,PS,adaptive,48,←,left,←,0.40743230003863573,True,10,0,0,0
Y2-S2-076K22,-,23,PS,adaptive,33,→,right,→,0.4215930998325348,True,10,1,0,0
Y2-S2-076K22,-,24,PS,adaptive,39,↓,down,↓,0.9187582000158727,True,9,1,0,0
Y2-S2-076K22,-,25,PS,adaptive,41,↑,right,→,0.74475650023669,False,9,-1,1,1
Y2-S2-076K22,-,26,PS,adaptive,32,→,up,↑,0.4373817997984588,False,10,-1,0,1
Y2-S2-076K22,-,27,PS,adaptive,29,←,left,←,0.48891999991610646,True,11,-1,0,1
Y2-S2-076K22,-,28,PS,adaptive,47,→,right,→,0.4463487002067268,True,11,-1,0,1
Y2-S2-076K22,-,29,PS,adaptive,26,←,left,←,0.4618530999869108,True,11,1,1,2
Y2-S2-076K22,-,30,PS,adaptive,39,→,right,→,0.40914339991286397,True,10,1,0,2
Y2-S2-076K22,-,31,PS,adaptive,26,←,right,→,0.5038193999789655,False,10,-1,1,3
Y2-S2-076K22,-,32,PS,adaptive,25,→,right,→,0.7743755001574755,True,11,-1,0,3
Y2-S2-076K22,-,33,PS,adaptive,28,↓,down,↓,0.6188691998831928,True,11,-1,0,3
Y2-S2-076K22,-,34,PS,adaptive,27,←,left,←,0.6989366002380848,True,11,1,1,4
Y2-S2-076K22,-,35,AS,adaptive,47,↑,up,↑,0.4172463999129832,True,20,0,0,0
Y2-S2-076K22,-,36,AS,adaptive,40,→,right,→,0.4170778002589941,True,20,0,0,0
Y2-S2-076K22,-,37,AS,adaptive,33,←,left,←,0.383814699947834,True,20,1,0,0
Y2-S2-076K22,-,38,AS,adaptive,34,↑,up,↑,0.7015562001615763,True,19,1,0,0
Y2-S2-076K22,-,39,AS,adaptive,28,↓,right,→,0.6143670999445021,False,19,-1,1,1
Y2-S2-076K22,-,40,AS,adaptive,43,←,right,→,0.5835658996365964,False,20,-1,0,1
Y2-S2-076K22,-,41,AS,adaptive,36,↓,down,↓,0.6238579000346363,True,21,-1,0,1
Y2-S2-076K22,-,42,AS,adaptive,34,←,left,←,0.9165097996592522,True,21,-1,0,1
Y2-S2-076K22,-,43,AS,adaptive,42,→,right,→,0.7834294000640512,True,21,1,1,2
Y2-S2-076K22,-,44,AS,adaptive,42,↓,down,↓,0.7801880999468267,True,20,1,0,2
Y2-S2-076K22,-,45,AS,adaptive,47,←,left,←,0.6987742003984749,True,20,1,0,2
Y2-S2-076K22,-,46,AS,adaptive,29,↑,right,→,0.7983327996917069,False,20,-1,1,3
Y2-S2-076K22,-,47,AS,adaptive,41,→,up,↑,0.983269200194627,False,21,-1,0,3
Y2-S2-076K22,-,48,AS,adaptive,47,↑,up,↑,1.1139294002205133,True,22,-1,0,3
Y2-S2-076K22,-,49,AS,adaptive,43,↓,down,↓,0.7946929996833205,True,22,-1,0,3
Y2-S2-076K22,-,50,AS,adaptive,46,↑,up,↑,0.7984140999615192,True,22,1,1,4
Y2-S2-076K22,1,51,PS,intra_train,42,←,left,←,0.6877410002052784,True,15,-,-,-
Y2-S2-076K22,1,52,PS,intra_train,29,↓,down,↓,0.7214718000032008,True,15,-,-,-
Y2-S2-076K22,1,53,PS,intra_train,49,→,down,↓,0.9460539002902806,False,15,-,-,-
Y2-S2-076K22,1,54,PS,intra_train,38,←,left,←,0.4917955999262631,True,15,-,-,-
Y2-S2-076K22,1,55,PS,intra_train,40,↑,right,→,0.9076769002713263,False,15,-,-,-
Y2-S2-076K22,1,56,PS,exp,41,←,down,↓,0.7829343997873366,False,10,-1,0,0
Y2-S2-076K22,1,57,PS,exp,40,→,right,→,0.5314778997562826,True,11,-1,0,0
Y2-S2-076K22,1,58,PS,exp,35,↑,up,↑,0.570726899895817,True,11,-1,0,0
Y2-S2-076K22,1,59,PS,exp,35,←,left,←,0.5278378999792039,True,11,1,1,1
Y2-S2-076K22,1,60,PS,exp,38,↑,up,↑,0.40397580014541745,True,10,1,0,1
Y2-S2-076K22,1,61,PS,exp,43,←,left,←,0.766802900005132,True,10,1,0,1
Y2-S2-076K22,1,62,PS,exp,50,↑,up,↑,0.38215829990804195,True,10,1,0,1
Y2-S2-076K22,1,63,PS,exp,32,←,left,←,0.8158132997341454,True,9,1,0,1
Y2-S2-076K22,1,64,PS,exp,32,↓,down,↓,0.5977855999954045,True,9,1,0,1
Y2-S2-076K22,1,65,PS,exp,28,→,left,←,0.7031451002694666,False,9,-1,1,2
Y2-S2-076K22,1,66,PS,exp,37,↑,left,←,0.9152398002333939,False,10,-1,0,2
Y2-S2-076K22,1,67,PS,exp,26,→,right,→,0.5984020000323653,True,11,-1,0,2
Y2-S2-076K22,1,68,PS,exp,39,↑,up,↑,1.0407340000383556,True,11,-1,0,2
Y2-S2-076K22,1,69,PS,exp,46,↓,down,↓,0.8788116998039186,True,11,1,1,3
Y2-S2-076K22,1,70,PS,exp,26,→,right,→,0.513621499761939,True,10,1,0,3
Y2-S2-076K22,1,71,PS,exp,40,←,left,←,0.5830979999154806,True,10,1,0,3
Y2-S2-076K22,1,72,PS,exp,34,↓,down,↓,0.6743921996094286,True,10,1,0,3
Y2-S2-076K22,1,73,PS,exp,43,→,down,↓,0.7258287002332509,False,9,-1,1,4
Y2-S2-076K22,1,74,PS,exp,41,↑,up,↑,0.40426869969815016,True,10,-1,0,4
Y2-S2-076K22,1,75,PS,exp,26,↓,up,↑,0.48851529974490404,False,10,-1,0,4
Y2-S2-076K22,1,76,PS,exp,40,↑,up,↑,0.7318993001244962,True,11,-1,0,4
Y2-S2-076K22,1,77,PS,exp,39,↓,down,↓,0.9193331999704242,True,11,-1,0,4
Y2-S2-076K22,1,78,PS,exp,34,↑,up,↑,0.43732619984075427,True,11,1,1,5
Y2-S2-076K22,1,79,PS,exp,25,→,right,→,0.4381462996825576,True,10,1,0,5
Y2-S2-076K22,1,80,PS,exp,37,←,left,←,0.4943928001448512,True,10,1,0,5
Y2-S2-076K22,1,81,PS,exp,36,→,left,←,0.6168972998857498,False,10,-1,1,6
Y2-S2-076K22,1,82,PS,exp,50,←,left,←,0.3892683000303805,True,11,-1,0,6
Y2-S2-076K22,1,83,PS,exp,35,↓,down,↓,0.6811144999228418,True,11,-1,0,6
Y2-S2-076K22,1,84,PS,exp,42,←,left,←,0.4430742999538779,True,11,1,1,7
Y2-S2-076K22,1,85,PS,exp,27,↓,right,→,0.9136730004101992,False,10,-1,1,8
Y2-S2-076K22,1,86,PS,exp,47,←,left,←,0.48341930005699396,True,11,-1,0,8
Y2-S2-076K22,1,87,PS,exp,26,→,right,→,0.543783700093627,True,11,-1,0,8
Y2-S2-076K22,1,88,PS,exp,28,↓,down,↓,0.502265399787575,True,11,1,1,9
Y2-S2-076K22,1,89,PS,exp,33,↑,down,↓,0.6521739000454545,False,10,-1,1,10
Y2-S2-076K22,1,90,PS,exp,26,←,right,→,0.6664212001487613,False,11,-1,0,10
Y2-S2-076K22,1,91,PS,exp,48,↑,up,↑,0.5225208001211286,True,12,-1,0,10
Y2-S2-076K22,1,92,PS,exp,27,↓,down,↓,0.676413799636066,True,12,-1,0,10
Y2-S2-076K22,1,93,PS,exp,49,↑,right,→,1.096469100099057,False,12,-1,0,10
Y2-S2-076K22,1,94,PS,exp,48,↓,left,←,0.961062999907881,False,13,-1,0,10
Y2-S2-076K22,1,95,PS,exp,32,←,down,↓,0.7290388001129031,False,14,-1,0,10
Y2-S2-076K22,1,96,PS,exp,26,↑,no_key,no_letter,-1.0,False,15,-1,0,10
Y2-S2-076K22,1,97,PS,exp,46,→,right,→,0.6077781999483705,True,16,-1,0,10
Y2-S2-076K22,1,98,PS,exp,46,↑,down,↓,0.7634080001153052,False,16,-1,0,10
Y2-S2-076K22,1,99,PS,exp,29,→,right,→,0.5249417000450194,True,17,-1,0,10
Y2-S2-076K22,1,100,PS,exp,27,↑,up,↑,0.6297538997605443,True,17,-1,0,10
Y2-S2-076K22,1,101,PS,exp,50,←,right,→,0.8847217001020908,False,17,-1,0,10
Y2-S2-076K22,1,102,PS,exp,42,↓,down,↓,0.7576080001890659,True,18,-1,0,10
Y2-S2-076K22,1,103,PS,exp,33,↑,up,↑,0.4335657996125519,True,18,-1,0,10
Y2-S2-076K22,1,104,PS,exp,26,←,left,←,0.4338720999658108,True,18,1,1,11
Y2-S2-076K22,1,105,PS,exp,38,↓,right,→,0.61464269971475,False,17,-1,1,12
Y2-S2-076K22,1,106,PS,exp,49,←,no_key,no_letter,-1.0,False,18,-1,0,12
Y2-S2-076K22,1,107,PS,exp,44,↓,down,↓,0.5964488000608981,True,19,-1,0,12
Y2-S2-076K22,1,108,PS,exp,41,→,no_key,no_letter,-1.0,False,19,-1,0,12
Y2-S2-076K22,1,109,PS,exp,30,↓,up,↑,0.852501000277698,False,20,-1,0,12
Y2-S2-076K22,1,110,PS,exp,43,→,right,→,0.4507161998189986,True,21,-1,0,12
Y2-S2-076K22,1,111,PS,exp,35,↓,right,→,0.8180035999976099,False,21,-1,0,12
Y2-S2-076K22,1,112,PS,exp,46,↑,up,↑,0.45054859993979335,True,22,-1,0,12
Y2-S2-076K22,1,113,PS,exp,37,↓,down,↓,0.4844268998131156,True,22,-1,0,12
Y2-S2-076K22,1,114,PS,exp,36,←,right,→,0.8284964999184012,False,22,-1,0,12
Y2-S2-076K22,1,115,PS,exp,50,↑,up,↑,0.5808613998815417,True,23,-1,0,12
Y2-S2-076K22,1,116,PS,exp,25,←,left,←,0.5172103997319937,True,23,-1,0,12
Y2-S2-076K22,1,117,PS,exp,39,↓,down,↓,0.5910522998310626,True,23,1,1,13
Y2-S2-076K22,1,118,PS,exp,32,←,up,↑,1.0310299997217953,False,22,-1,1,14
Y2-S2-076K22,1,119,PS,exp,27,↑,up,↑,0.6737939999438822,True,23,-1,0,14
Y2-S2-076K22,1,120,PS,exp,34,→,right,→,0.4672104003839195,True,23,-1,0,14
Y2-S2-076K22,1,121,PS,exp,33,↑,up,↑,0.5004541999660432,True,23,1,1,15
Y2-S2-076K22,1,122,PS,exp,46,→,right,→,0.5491200997494161,True,22,1,0,15
Y2-S2-076K22,1,123,PS,exp,34,↑,up,↑,0.3839790001511574,True,22,1,0,15
Y2-S2-076K22,1,124,PS,exp,37,←,left,←,0.5927897999063134,True,22,1,0,15
Y2-S2-076K22,1,125,PS,exp,41,↓,right,→,0.28450269997119904,False,21,-1,1,16
Y2-S2-076K22,2,126,AS,intra_train,34,→,right,→,0.5171597003936768,True,31,-,-,-
Y2-S2-076K22,2,127,AS,intra_train,34,↑,up,↑,0.7673169001936913,True,31,-,-,-
Y2-S2-076K22,2,128,AS,intra_train,45,←,left,←,1.5116420998238027,True,31,-,-,-
Y2-S2-076K22,2,129,AS,intra_train,48,↓,down,↓,0.8767424998804927,True,31,-,-,-
Y2-S2-076K22,2,130,AS,intra_train,37,↑,left,←,0.41737470030784607,False,31,-,-,-
Y2-S2-076K22,2,131,AS,exp,29,↓,down,↓,0.7504658000543714,True,21,0,0,0
Y2-S2-076K22,2,132,AS,exp,42,↑,up,↑,0.5887728999368846,True,21,0,0,0
Y2-S2-076K22,2,133,AS,exp,41,←,left,←,0.5475983000360429,True,21,1,0,0
Y2-S2-076K22,2,134,AS,exp,33,↓,down,↓,0.7905016001313925,True,20,1,0,0
Y2-S2-076K22,2,135,AS,exp,29,→,right,→,0.814176700077951,True,20,1,0,0
Y2-S2-076K22,2,136,AS,exp,30,←,left,←,0.4670649999752641,True,20,1,0,0
Y2-S2-076K22,2,137,AS,exp,37,↑,right,→,0.7850430998951197,False,19,-1,1,1
Y2-S2-076K22,2,138,AS,exp,49,→,right,→,0.5787876001559198,True,20,-1,0,1
Y2-S2-076K22,2,139,AS,exp,30,↑,down,↓,0.7593033998273313,False,20,-1,0,1
Y2-S2-076K22,2,140,AS,exp,35,↓,up,↑,0.7976291999220848,False,21,-1,0,1
Y2-S2-076K22,2,141,AS,exp,41,→,right,→,0.5975771001540124,True,22,-1,0,1
Y2-S2-076K22,2,142,AS,exp,44,↓,down,↓,0.773603199981153,True,22,-1,0,1
Y2-S2-076K22,2,143,AS,exp,30,↑,up,↑,0.7116712997667491,True,22,1,1,2
Y2-S2-076K22,2,144,AS,exp,26,←,left,←,0.7852756003849208,True,21,1,0,2
Y2-S2-076K22,2,145,AS,exp,48,↑,down,↓,0.9190164003521204,False,21,-1,1,3
Y2-S2-076K22,2,146,AS,exp,31,→,right,→,0.6592250997200608,True,22,-1,0,3
Y2-S2-076K22,2,147,AS,exp,45,↑,up,↑,0.7724309996701777,True,22,-1,0,3
Y2-S2-076K22,2,148,AS,exp,44,↓,down,↓,1.757351199630648,True,22,1,1,4
Y2-S2-076K22,2,149,AS,exp,37,→,right,→,0.7947384002618492,True,21,1,0,4
Y2-S2-076K22,2,150,AS,exp,33,↓,no_key,no_letter,-1.0,False,21,-1,1,5
Y2-S2-076K22,2,151,AS,exp,35,←,left,←,0.7106624003499746,True,22,-1,0,5
Y2-S2-076K22,2,152,AS,exp,33,↓,down,↓,0.6396277002058923,True,22,-1,0,5
Y2-S2-076K22,2,153,AS,exp,34,←,left,←,0.7958359997719526,True,22,1,1,6
Y2-S2-076K22,2,154,AS,exp,46,↓,down,↓,0.7777018998749554,True,21,1,0,6
Y2-S2-076K22,2,155,AS,exp,25,←,left,←,0.6234889002516866,True,21,1,0,6
Y2-S2-076K22,2,156,AS,exp,50,→,right,→,0.754347300156951,True,21,1,0,6
Y2-S2-076K22,2,157,AS,exp,40,←,left,←,0.6382210999727249,True,20,1,0,6
Y2-S2-076K22,2,158,AS,exp,32,↓,down,↓,0.5723983999341726,True,20,1,0,6
Y2-S2-076K22,2,159,AS,exp,46,←,left,←,0.8132770000956953,True,20,1,0,6
Y2-S2-076K22,2,160,AS,exp,40,→,down,↓,0.8718550000339746,False,19,-1,1,7
Y2-S2-076K22,2,161,AS,exp,29,↑,up,↑,0.985958400182426,True,20,-1,0,7
Y2-S2-076K22,2,162,AS,exp,38,↓,right,→,0.68012909963727,False,20,-1,0,7
Y2-S2-076K22,2,163,AS,exp,25,→,right,→,0.6560261999256909,True,21,-1,0,7
Y2-S2-076K22,2,164,AS,exp,27,←,left,←,0.7565603000111878,True,21,-1,0,7
Y2-S2-076K22,2,165,AS,exp,46,→,right,→,0.5933753000572324,True,21,1,1,8
Y2-S2-076K22,2,166,AS,exp,43,←,left,←,0.6823046002537012,True,20,1,0,8
Y2-S2-076K22,2,167,AS,exp,47,→,right,→,0.5817844001576304,True,20,1,0,8
Y2-S2-076K22,2,168,AS,exp,44,←,left,←,0.6300439997576177,True,20,1,0,8
Y2-S2-076K22,2,169,AS,exp,44,→,right,→,0.8280064999125898,True,19,1,0,8
Y2-S2-076K22,2,170,AS,exp,32,↑,left,←,0.7704974003136158,False,19,-1,1,9
Y2-S2-076K22,2,171,AS,exp,33,→,right,→,0.4672529995441437,True,20,-1,0,9
Y2-S2-076K22,2,172,AS,exp,25,↓,left,←,0.8103250996209681,False,20,-1,0,9
Y2-S2-076K22,2,173,AS,exp,29,↑,up,↑,0.7743945000693202,True,21,-1,0,9
Y2-S2-076K22,2,174,AS,exp,35,↓,down,↓,0.9190365001559258,True,21,-1,0,9
Y2-S2-076K22,2,175,AS,exp,39,↑,up,↑,0.6841219002380967,True,21,1,1,10
Y2-S2-076K22,2,176,AS,exp,35,↓,up,↑,0.8053353000432253,False,20,-1,1,11
Y2-S2-076K22,2,177,AS,exp,34,←,left,←,0.6269507999531925,True,21,-1,0,11
Y2-S2-076K22,2,178,AS,exp,36,→,left,←,0.6876375996507704,False,21,-1,0,11
Y2-S2-076K22,2,179,AS,exp,28,←,left,←,0.48406430007889867,True,22,-1,0,11
Y2-S2-076K22,2,180,AS,exp,31,→,right,→,0.5772557999007404,True,22,-1,0,11
Y2-S2-076K22,2,181,AS,exp,26,←,left,←,0.41688730008900166,True,22,1,1,12
Y2-S2-076K22,2,182,AS,exp,40,→,right,→,0.6723548001609743,True,21,1,0,12
Y2-S2-076K22,2,183,AS,exp,44,↓,down,↓,0.8576736999675632,True,21,1,0,12
Y2-S2-076K22,2,184,AS,exp,32,→,right,→,0.4337491001933813,True,21,1,0,12
Y2-S2-076K22,2,185,AS,exp,28,←,left,←,1.5336680999025702,True,20,1,0,12
Y2-S2-076K22,2,186,AS,exp,27,↓,right,→,0.7223914000205696,False,20,-1,1,13
Y2-S2-076K22,2,187,AS,exp,27,↑,up,↑,0.5681396001018584,True,21,-1,0,13
Y2-S2-076K22,2,188,AS,exp,36,↓,down,↓,0.8993790000677109,True,21,-1,0,13
Y2-S2-076K22,2,189,AS,exp,41,←,left,←,0.7191564999520779,True,21,1,1,14
Y2-S2-076K22,2,190,AS,exp,42,↑,up,↑,1.4136875998228788,True,20,1,0,14
Y2-S2-076K22,2,191,AS,exp,26,→,left,←,0.7560796998441219,False,20,-1,1,15
Y2-S2-076K22,2,192,AS,exp,40,↓,down,↓,0.8862384003587067,True,21,-1,0,15
Y2-S2-076K22,2,193,AS,exp,37,↑,up,↑,1.2083061002194881,True,21,-1,0,15
Y2-S2-076K22,2,194,AS,exp,34,↓,down,↓,0.5850466997362673,True,21,1,1,16
Y2-S2-076K22,3,195,AS,intra_train,43,→,right,→,0.7383861998096108,True,31,-,-,-
Y2-S2-076K22,3,196,AS,intra_train,44,←,left,←,0.7432561996392906,True,31,-,-,-
Y2-S2-076K22,3,197,AS,intra_train,28,→,right,→,0.976005700416863,True,31,-,-,-
Y2-S2-076K22,3,198,AS,intra_train,28,↑,up,↑,0.4178356002084911,True,31,-,-,-
Y2-S2-076K22,3,199,AS,intra_train,50,↓,down,↓,0.6174323000013828,True,31,-,-,-
Y2-S2-076K22,3,200,AS,exp,26,→,right,→,0.528759399894625,True,21,0,0,0
Y2-S2-076K22,3,201,AS,exp,27,↓,down,↓,0.8350229002535343,True,21,0,0,0
Y2-S2-076K22,3,202,AS,exp,37,→,up,↑,0.4005503999069333,False,21,-1,0,0
Y2-S2-076K22,3,203,AS,exp,32,↓,right,→,0.8932324000634253,False,22,-1,0,0
Y2-S2-076K22,3,204,AS,exp,26,↑,up,↑,0.45064210006967187,True,23,-1,0,0
Y2-S2-076K22,3,205,AS,exp,49,↓,down,↓,0.7416381002403796,True,23,-1,0,0
Y2-S2-076K22,3,206,AS,exp,50,→,right,→,0.5983875999227166,True,23,1,1,1
Y2-S2-076K22,3,207,AS,exp,30,←,left,←,0.5747834998182952,True,22,1,0,1
Y2-S2-076K22,3,208,AS,exp,30,↑,right,→,0.5730849001556635,False,22,-1,1,2
Y2-S2-076K22,3,209,AS,exp,43,←,left,←,0.6354938000440598,True,23,-1,0,2
Y2-S2-076K22,3,210,AS,exp,27,→,right,→,0.517166200093925,True,23,-1,0,2
Y2-S2-076K22,3,211,AS,exp,44,↓,up,↑,0.7386221997439861,False,23,-1,0,2
Y2-S2-076K22,3,212,AS,exp,35,↑,up,↑,0.6339026996865869,True,24,-1,0,2
Y2-S2-076K22,3,213,AS,exp,27,→,right,→,0.5679747997783124,True,24,-1,0,2
Y2-S2-076K22,3,214,AS,exp,43,↑,up,↑,0.367773599922657,True,24,1,1,3
Y2-S2-076K22,3,215,AS,exp,28,↓,down,↓,1.3803773000836372,True,23,1,0,3
Y2-S2-076K22,3,216,AS,exp,27,←,left,←,0.46732510020956397,True,23,1,0,3
Y2-S2-076K22,3,217,AS,exp,27,↑,up,↑,0.3838525996543467,True,23,1,0,3
Y2-S2-076K22,3,218,AS,exp,36,→,right,→,0.48398050013929605,True,22,1,0,3
Y2-S2-076K22,3,219,AS,exp,31,↓,down,↓,1.2167734000831842,True,22,1,0,3
Y2-S2-076K22,3,220,AS,exp,50,←,up,↑,0.9031930002383888,False,22,-1,1,4
Y2-S2-076K22,3,221,AS,exp,42,↓,down,↓,0.7866058996878564,True,23,-1,0,4
Y2-S2-076K22,3,222,AS,exp,43,↑,up,↑,0.7328935000114143,True,23,-1,0,4
Y2-S2-076K22,3,223,AS,exp,44,←,left,←,0.648944899905473,True,23,1,1,5
Y2-S2-076K22,3,224,AS,exp,30,↑,up,↑,0.5983934001997113,True,22,1,0,5
Y2-S2-076K22,3,225,AS,exp,37,↓,down,↓,0.6037948997691274,True,22,1,0,5
Y2-S2-076K22,3,226,AS,exp,50,→,right,→,0.45077400002628565,True,22,1,0,5
Y2-S2-076K22,3,227,AS,exp,47,↑,up,↑,0.4506350001320243,True,21,1,0,5
Y2-S2-076K22,3,228,AS,exp,31,→,right,→,0.6576912002637982,True,21,1,0,5
Y2-S2-076K22,3,229,AS,exp,28,↓,down,↓,0.5586389000527561,True,21,1,0,5
Y2-S2-076K22,3,230,AS,exp,40,→,right,→,1.2431093999184668,True,20,1,0,5
Y2-S2-076K22,3,231,AS,exp,34,↑,up,↑,0.6049103997647762,True,20,1,0,5
Y2-S2-076K22,3,232,AS,exp,28,↓,down,↓,0.9071007003076375,True,20,1,0,5
Y2-S2-076K22,3,233,AS,exp,32,←,left,←,0.7604060000739992,True,19,1,0,5
Y2-S2-076K22,3,234,AS,exp,38,↑,up,↑,0.5954900998622179,True,19,1,0,5
Y2-S2-076K22,3,235,AS,exp,42,→,right,→,0.7491816999390721,True,19,1,0,5
Y2-S2-076K22,3,236,AS,exp,34,←,left,←,0.495811500120908,True,18,1,0,5
Y2-S2-076K22,3,237,AS,exp,43,↓,up,↑,0.7969468999654055,False,18,-1,1,6
Y2-S2-076K22,3,238,AS,exp,30,→,right,→,0.48820829996839166,True,19,-1,0,6
Y2-S2-076K22,3,239,AS,exp,40,←,left,←,0.7585458001121879,True,19,-1,0,6
Y2-S2-076K22,3,240,AS,exp,27,↓,down,↓,0.6463176999241114,True,19,1,1,7
Y2-S2-076K22,3,241,AS,exp,47,→,right,→,0.4712665998376906,True,18,1,0,7
Y2-S2-076K22,3,242,AS,exp,36,↓,left,←,0.9004079001024365,False,18,-1,1,8
Y2-S2-076K22,3,243,AS,exp,30,←,left,←,0.4339258000254631,True,19,-1,0,8
Y2-S2-076K22,3,244,AS,exp,49,↑,up,↑,0.7497092997655272,True,19,-1,0,8
Y2-S2-076K22,3,245,AS,exp,48,←,left,←,0.4005032000131905,True,19,1,1,9
Y2-S2-076K22,3,246,AS,exp,33,→,right,→,0.6876516998745501,True,18,1,0,9
Y2-S2-076K22,3,247,AS,exp,36,←,left,←,1.1199340000748634,True,18,1,0,9
Y2-S2-076K22,3,248,AS,exp,48,↓,right,→,0.7756253001280129,False,18,-1,1,10
Y2-S2-076K22,3,249,AS,exp,39,→,right,→,0.6594916000030935,True,19,-1,0,10
Y2-S2-076K22,3,250,AS,exp,38,↓,up,↑,0.6915017003193498,False,19,-1,0,10
Y2-S2-076K22,3,251,AS,exp,40,↑,right,→,1.0425748997367918,False,20,-1,0,10
Y2-S2-076K22,3,252,AS,exp,45,←,left,←,0.8429733999073505,True,21,-1,0,10
Y2-S2-076K22,3,253,AS,exp,47,↓,down,↓,1.1447862000204623,True,21,-1,0,10
Y2-S2-076K22,3,254,AS,exp,44,↑,up,↑,0.6008619000203907,True,21,1,1,11
Y2-S2-076K22,3,255,AS,exp,35,↓,down,↓,0.5215630000457168,True,20,1,0,11
Y2-S2-076K22,3,256,AS,exp,25,→,right,→,0.5254830000922084,True,20,1,0,11
Y2-S2-076K22,3,257,AS,exp,36,↓,down,↓,0.529795499984175,True,20,1,0,11
Y2-S2-076K22,3,258,AS,exp,44,←,right,→,0.7342241001315415,False,19,-1,1,12
Y2-S2-076K22,3,259,AS,exp,43,→,right,→,0.7398088998161256,True,20,-1,0,12
Y2-S2-076K22,3,260,AS,exp,43,←,left,←,0.5061594997532666,True,20,-1,0,12
Y2-S2-076K22,3,261,AS,exp,27,↓,right,→,0.7609735000878572,False,20,-1,0,12
Y2-S2-076K22,3,262,AS,exp,50,↑,up,↑,1.2295145001262426,True,21,-1,0,12
Y2-S2-076K22,3,263,AS,exp,28,←,left,←,0.4671378000639379,True,21,-1,0,12
Y2-S2-076K22,3,264,AS,exp,25,↓,down,↓,0.6978706996887922,True,21,1,1,13
Y2-S2-076K22,3,265,AS,exp,34,→,right,→,0.41737839998677373,True,20,1,0,13
Y2-S2-076K22,3,266,AS,exp,37,←,left,←,0.8426574999466538,True,20,1,0,13
Y2-S2-076K22,3,267,AS,exp,37,↓,down,↓,0.558144100010395,True,20,1,0,13
Y2-S2-076K22,3,268,AS,exp,47,←,down,↓,0.8482038001529872,False,19,-1,1,14
Y2-S2-076K22,3,269,AS,exp,28,→,right,→,0.5387709001079202,True,20,-1,0,14
Y2-S2-076K22,3,270,AS,exp,41,↓,down,↓,0.7622638000175357,True,20,-1,0,14
Y2-S2-076K22,3,271,AS,exp,43,↑,up,↑,0.7031836002133787,True,20,1,1,15
Y2-S2-076K22,3,272,AS,exp,25,→,right,→,0.41731989989057183,True,19,1,0,15
Y2-S2-076K22,3,273,AS,exp,39,↓,right,→,0.8823796003125608,False,19,-1,1,16
Y2-S2-076K22,4,274,PS,intra_train,33,→,right,→,0.47649100003764033,True,15,-,-,-
Y2-S2-076K22,4,275,PS,intra_train,44,←,left,←,0.6168186999857426,True,15,-,-,-
Y2-S2-076K22,4,276,PS,intra_train,38,→,right,→,0.8117911000736058,True,15,-,-,-
Y2-S2-076K22,4,277,PS,intra_train,27,↓,down,↓,0.5583108998835087,True,15,-,-,-
Y2-S2-076K22,4,278,PS,intra_train,49,←,right,→,0.7388835996389389,False,15,-,-,-
Y2-S2-076K22,4,279,PS,exp,28,↑,up,↑,1.2151289000175893,True,10,0,0,0
Y2-S2-076K22,4,280,PS,exp,41,→,right,→,0.6190488999709487,True,10,0,0,0
Y2-S2-076K22,4,281,PS,exp,39,↑,up,↑,0.46326120011508465,True,10,1,0,0
Y2-S2-076K22,4,282,PS,exp,27,←,left,←,0.5861752000637352,True,9,1,0,0
Y2-S2-076K22,4,283,PS,exp,40,→,up,↑,0.5352778001688421,False,9,-1,1,1
Y2-S2-076K22,4,284,PS,exp,26,↓,right,→,1.4961902000941336,False,10,-1,0,1
Y2-S2-076K22,4,285,PS,exp,32,→,right,→,0.46583899995312095,True,11,-1,0,1
Y2-S2-076K22,4,286,PS,exp,37,←,left,←,0.5295270001515746,True,11,-1,0,1
Y2-S2-076K22,4,287,PS,exp,34,→,right,→,0.8795664003118873,True,11,1,1,2
Y2-S2-076K22,4,288,PS,exp,39,↓,left,←,1.0593258002772927,False,10,-1,1,3
Y2-S2-076K22,4,289,PS,exp,41,↑,up,↑,0.5627618003636599,True,11,-1,0,3
Y2-S2-076K22,4,290,PS,exp,39,↓,down,↓,0.6499442998319864,True,11,-1,0,3
Y2-S2-076K22,4,291,PS,exp,37,→,down,↓,0.5859444998204708,False,11,-1,0,3
Y2-S2-076K22,4,292,PS,exp,41,↓,down,↓,0.6565044997259974,True,12,-1,0,3
Y2-S2-076K22,4,293,PS,exp,49,↑,up,↑,0.6641672002151608,True,12,-1,0,3
Y2-S2-076K22,4,294,PS,exp,42,→,right,→,0.49742549983784556,True,12,1,1,4
Y2-S2-076K22,4,295,PS,exp,29,↑,up,↑,0.4805501000955701,True,11,1,0,4
Y2-S2-076K22,4,296,PS,exp,48,→,right,→,0.5513502000831068,True,11,1,0,4
Y2-S2-076K22,4,297,PS,exp,27,←,left,←,0.45890119997784495,True,11,1,0,4
Y2-S2-076K22,4,298,PS,exp,42,↑,right,→,0.6025245999917388,False,10,-1,1,5
Y2-S2-076K22,4,299,PS,exp,36,←,left,←,0.4434483000077307,True,11,-1,0,5
Y2-S2-076K22,4,300,PS,exp,33,→,right,→,0.5115047004073858,True,11,-1,0,5
Y2-S2-076K22,4,301,PS,exp,33,↑,up,↑,0.570159399881959,True,11,1,1,6
Y2-S2-076K22,4,302,PS,exp,33,→,right,→,0.4282980002462864,True,10,1,0,6
Y2-S2-076K22,4,303,PS,exp,34,↓,up,↑,0.5798837002366781,False,10,-1,1,7
Y2-S2-076K22,4,304,PS,exp,38,↑,right,→,0.7158006001263857,False,11,-1,0,7
Y2-S2-076K22,4,305,PS,exp,29,←,left,←,0.7372250999324024,True,12,-1,0,7
Y2-S2-076K22,4,306,PS,exp,48,↑,up,↑,0.4505199999548495,True,12,-1,0,7
Y2-S2-076K22,4,307,PS,exp,36,→,right,→,0.4913162998855114,True,12,1,1,8
Y2-S2-076K22,4,308,PS,exp,49,←,left,←,0.4251512000337243,True,11,1,0,8
Y2-S2-076K22,4,309,PS,exp,42,↓,down,↓,0.7220247997902334,True,11,1,0,8
Y2-S2-076K22,4,310,PS,exp,47,→,down,↓,0.6866724998690188,False,11,-1,1,9
Y2-S2-076K22,4,311,PS,exp,29,↑,up,↑,0.5059085004031658,True,12,-1,0,9
Y2-S2-076K22,4,312,PS,exp,40,↓,down,↓,0.5640238998457789,True,12,-1,0,9
Y2-S2-076K22,4,313,PS,exp,37,→,right,→,0.620789899956435,True,12,1,1,10
Y2-S2-076K22,4,314,PS,exp,43,←,left,←,0.5498053999617696,True,11,1,0,10
Y2-S2-076K22,4,315,PS,exp,43,→,right,→,0.41885200003162026,True,11,1,0,10
Y2-S2-076K22,4,316,PS,exp,48,←,left,←,1.2205587001517415,True,11,1,0,10
Y2-S2-076K22,4,317,PS,exp,30,→,right,→,0.431086499709636,True,10,1,0,10
Y2-S2-076K22,4,318,PS,exp,33,←,right,→,0.737160500138998,False,10,-1,1,11
Y2-S2-076K22,4,319,PS,exp,37,→,right,→,0.5761819998733699,True,11,-1,0,11
Y2-S2-076K22,4,320,PS,exp,41,↓,down,↓,0.519677400123328,True,11,-1,0,11
Y2-S2-076K22,4,321,PS,exp,27,→,right,→,0.5313456999137998,True,11,1,1,12
Y2-S2-076K22,4,322,PS,exp,49,←,left,←,0.5167328999377787,True,10,1,0,12
Y2-S2-076K22,4,323,PS,exp,44,↓,down,↓,0.5825950000435114,True,10,1,0,12
Y2-S2-076K22,4,324,PS,exp,43,→,right,→,0.6202024999074638,True,10,1,0,12
Y2-S2-076K22,4,325,PS,exp,33,↓,down,↓,0.5447351997718215,True,9,1,0,12
Y2-S2-076K22,4,326,PS,exp,31,↑,left,←,0.4199175997637212,False,9,-1,1,13
Y2-S2-076K22,4,327,PS,exp,28,←,right,→,0.7139493003487587,False,10,-1,0,13
Y2-S2-076K22,4,328,PS,exp,39,→,right,→,0.5053829997777939,True,11,-1,0,13
Y2-S2-076K22,4,329,PS,exp,43,←,up,↑,1.056912399828434,False,11,-1,0,13
Y2-S2-076K22,4,330,PS,exp,37,↓,down,↓,0.4863817999139428,True,12,-1,0,13
Y2-S2-076K22,4,331,PS,exp,45,→,right,→,0.5076620001345873,True,12,-1,0,13
Y2-S2-076K22,4,332,PS,exp,30,←,left,←,0.38400059984996915,True,12,1,1,14
Y2-S2-076K22,4,333,PS,exp,48,↑,up,↑,0.4688081000931561,True,11,1,0,14
Y2-S2-076K22,4,334,PS,exp,39,→,right,→,0.43818530021235347,True,11,1,0,14
Y2-S2-076K22,4,335,PS,exp,39,↓,up,↑,0.7283375998958945,False,11,-1,1,15
Y2-S2-076K22,4,336,PS,exp,39,←,right,→,0.7148753004148602,False,12,-1,0,15
Y2-S2-076K22,4,337,PS,exp,40,→,right,→,0.5366805996745825,True,13,-1,0,15
Y2-S2-076K22,4,338,PS,exp,36,↓,down,↓,0.5421688002534211,True,13,-1,0,15
Y2-S2-076K22,4,339,PS,exp,33,→,right,→,0.450562400277704,True,13,1,1,16
Y2-S2-076K22,5,340,PS,intra_train,31,←,left,←,0.553547800052911,True,15,-,-,-
Y2-S2-076K22,5,341,PS,intra_train,32,↓,down,↓,0.8230929002165794,True,15,-,-,-
Y2-S2-076K22,5,342,PS,intra_train,30,←,left,←,0.4420233001001179,True,15,-,-,-
Y2-S2-076K22,5,343,PS,intra_train,40,↑,up,↑,0.4294039998203516,True,15,-,-,-
Y2-S2-076K22,5,344,PS,intra_train,27,↓,down,↓,0.5972467996180058,True,15,-,-,-
Y2-S2-076K22,5,345,PS,exp,49,←,left,←,0.48814249970018864,True,10,0,0,0
Y2-S2-076K22,5,346,PS,exp,36,↑,up,↑,0.5724258995614946,True,10,0,0,0
Y2-S2-076K22,5,347,PS,exp,33,←,right,→,0.43822820018976927,False,10,-1,0,0
Y2-S2-076K22,5,348,PS,exp,28,↑,up,↑,0.4333751001395285,True,11,-1,0,0
Y2-S2-076K22,5,349,PS,exp,42,←,right,→,0.43289449997246265,False,11,-1,0,0
Y2-S2-076K22,5,350,PS,exp,37,↑,up,↑,0.381642899941653,True,12,-1,0,0
Y2-S2-076K22,5,351,PS,exp,48,→,right,→,0.6459317998960614,True,12,-1,0,0
Y2-S2-076K22,5,352,PS,exp,31,←,left,←,0.5743253999389708,True,12,1,1,1
Y2-S2-076K22,5,353,PS,exp,28,→,right,→,0.5595890996046364,True,11,1,0,1
Y2-S2-076K22,5,354,PS,exp,39,←,left,←,0.5747332996688783,True,11,1,0,1
Y2-S2-076K22,5,355,PS,exp,39,↓,down,↓,0.4865155001170933,True,11,1,0,1
Y2-S2-076K22,5,356,PS,exp,49,←,left,←,0.5194161999970675,True,10,1,0,1
Y2-S2-076K22,5,357,PS,exp,45,→,right,→,0.4225063999183476,True,10,1,0,1
Y2-S2-076K22,5,358,PS,exp,31,↑,down,↓,0.8012811001390219,False,10,-1,1,2
Y2-S2-076K22,5,359,PS,exp,49,←,left,←,0.4690990000963211,True,11,-1,0,2
Y2-S2-076K22,5,360,PS,exp,47,↑,up,↑,0.5741433999501169,True,11,-1,0,2
Y2-S2-076K22,5,361,PS,exp,44,←,left,←,0.5210426999256015,True,11,1,1,3
Y2-S2-076K22,5,362,PS,exp,49,→,left,←,0.4849829003214836,False,10,-1,1,4
Y2-S2-076K22,5,363,PS,exp,32,↑,right,→,0.9722078000195324,False,11,-1,0,4
Y2-S2-076K22,5,364,PS,exp,42,↓,left,←,0.6199042000807822,False,12,-1,0,4
Y2-S2-076K22,5,365,PS,exp,50,↑,up,↑,0.47394010005518794,True,13,-1,0,4
Y2-S2-076K22,5,366,PS,exp,29,↓,down,↓,0.5737879001535475,True,13,-1,0,4
Y2-S2-076K22,5,367,PS,exp,29,↑,up,↑,0.5826586000621319,True,13,1,1,5
Y2-S2-076K22,5,368,PS,exp,48,←,down,↓,0.6621329002082348,False,12,-1,1,6
Y2-S2-076K22,5,369,PS,exp,32,↑,left,←,0.7250188998878002,False,13,-1,0,6
Y2-S2-076K22,5,370,PS,exp,45,↓,down,↓,0.5686444998718798,True,14,-1,0,6
Y2-S2-076K22,5,371,PS,exp,44,←,left,←,0.6789967003278434,True,14,-1,0,6
Y2-S2-076K22,5,372,PS,exp,26,↓,right,→,0.7464884002692997,False,14,-1,0,6
Y2-S2-076K22,5,373,PS,exp,37,→,right,→,0.45792659977450967,True,15,-1,0,6
Y2-S2-076K22,5,374,PS,exp,40,←,left,←,0.4479586002416909,True,15,-1,0,6
Y2-S2-076K22,5,375,PS,exp,38,↓,down,↓,0.5792474001646042,True,15,1,1,7
Y2-S2-076K22,5,376,PS,exp,28,←,left,←,0.5128390998579562,True,14,1,0,7
Y2-S2-076K22,5,377,PS,exp,47,→,right,→,0.4814633997157216,True,14,1,0,7
Y2-S2-076K22,5,378,PS,exp,27,↓,down,↓,0.5634917998686433,True,14,1,0,7
Y2-S2-076K22,5,379,PS,exp,41,→,right,→,0.5612761001102626,True,13,1,0,7
Y2-S2-076K22,5,380,PS,exp,40,↑,up,↑,0.4914055000990629,True,13,1,0,7
Y2-S2-076K22,5,381,PS,exp,45,←,left,←,0.46069240011274815,True,13,1,0,7
Y2-S2-076K22,5,382,PS,exp,46,↑,up,↑,0.44003359973430634,True,12,1,0,7
Y2-S2-076K22,5,383,PS,exp,26,←,left,←,0.5055764000862837,True,12,1,0,7
Y2-S2-076K22,5,384,PS,exp,47,↓,down,↓,0.6802897001616657,True,12,1,0,7
Y2-S2-076K22,5,385,PS,exp,26,←,left,←,0.6834970000199974,True,11,1,0,7
Y2-S2-076K22,5,386,PS,exp,46,→,right,→,0.48260620003566146,True,11,1,0,7
Y2-S2-076K22,5,387,PS,exp,39,↓,down,↓,0.9391442998312414,True,11,1,0,7
Y2-S2-076K22,5,388,PS,exp,39,↑,up,↑,0.5402418999001384,True,10,1,0,7
Y2-S2-076K22,5,389,PS,exp,39,↓,down,↓,0.6021846998482943,True,10,1,0,7
Y2-S2-076K22,5,390,PS,exp,38,→,right,→,1.7772444002330303,True,10,1,0,7
Y2-S2-076K22,5,391,PS,exp,33,←,right,→,0.6779601001180708,False,9,-1,1,8
Y2-S2-076K22,5,392,PS,exp,42,↑,up,↑,0.6363419997505844,True,10,-1,0,8
Y2-S2-076K22,5,393,PS,exp,28,↓,down,↓,0.38371940003708005,True,10,-1,0,8
Y2-S2-076K22,5,394,PS,exp,50,↑,up,↑,0.42765580024570227,True,10,1,1,9
Y2-S2-076K22,5,395,PS,exp,30,←,left,←,0.4117432003840804,True,9,1,0,9
Y2-S2-076K22,5,396,PS,exp,43,→,right,→,0.4133723000995815,True,9,1,0,9
Y2-S2-076K22,5,397,PS,exp,45,↑,up,↑,0.42795650009065866,True,9,1,0,9
Y2-S2-076K22,5,398,PS,exp,28,↓,up,↑,0.4359452002681792,False,8,-1,1,10
Y2-S2-076K22,5,399,PS,exp,43,↑,no_key,no_letter,-1.0,False,9,-1,0,10
Y2-S2-076K22,5,400,PS,exp,28,←,left,←,0.552248400170356,True,10,-1,0,10
Y2-S2-076K22,5,401,PS,exp,25,↓,up,↑,0.7541109998710454,False,10,-1,0,10
Y2-S2-076K22,5,402,PS,exp,29,→,right,→,0.5880737998522818,True,11,-1,0,10
Y2-S2-076K22,5,403,PS,exp,35,↓,down,↓,0.5217586001381278,True,11,-1,0,10
Y2-S2-076K22,5,404,PS,exp,31,←,left,←,0.5462198001332581,True,11,1,1,11
Y2-S2-076K22,5,405,PS,exp,29,↑,up,↑,0.404496300034225,True,10,1,0,11
Y2-S2-076K22,5,406,PS,exp,49,←,left,←,0.4458484002389014,True,10,1,0,11
Y2-S2-076K22,5,407,PS,exp,31,↑,up,↑,0.41533559979870915,True,10,1,0,11
Y2-S2-076K22,5,408,PS,exp,40,→,right,→,0.4172478001564741,True,9,1,0,11
Y2-S2-076K22,5,409,PS,exp,43,↓,left,←,0.7292681997641921,False,9,-1,1,12
Y2-S2-076K22,5,410,PS,exp,25,→,right,→,0.49682149989530444,True,10,-1,0,12
Y2-S2-076K22,5,411,PS,exp,28,←,left,←,0.43922819988802075,True,10,-1,0,12
Y2-S2-076K22,5,412,PS,exp,45,↑,up,↑,0.5032910997979343,True,10,1,1,13
Y2-S2-076K22,5,413,PS,exp,28,↓,down,↓,0.653212399687618,True,9,1,0,13
Y2-S2-076K22,5,414,PS,exp,46,←,right,→,0.5647912002168596,False,9,-1,1,14
Y2-S2-076K22,5,415,PS,exp,33,→,right,→,0.5754108000546694,True,10,-1,0,14
Y2-S2-076K22,5,416,PS,exp,30,←,left,←,0.6308489996008575,True,10,-1,0,14
Y2-S2-076K22,5,417,PS,exp,50,↓,down,↓,0.5595412002876401,True,10,1,1,15
Y2-S2-076K22,5,418,PS,exp,47,↑,up,↑,0.4004700998775661,True,9,1,0,15
Y2-S2-076K22,5,419,PS,exp,41,→,right,→,0.4024503002874553,True,9,1,0,15
Y2-S2-076K22,5,420,PS,exp,49,←,right,→,0.5397067000158131,False,9,-1,1,16
Y2-S2-076K22,6,421,AS,intra_train,44,↓,down,↓,0.7691967999562621,True,31,-,-,-
Y2-S2-076K22,6,422,AS,intra_train,48,←,left,←,0.718839599750936,True,31,-,-,-
Y2-S2-076K22,6,423,AS,intra_train,25,↓,down,↓,0.8630861002020538,True,31,-,-,-
Y2-S2-076K22,6,424,AS,intra_train,49,→,right,→,0.45102989999577403,True,31,-,-,-
Y2-S2-076K22,6,425,AS,intra_train,25,↑,up,↑,0.6172338998876512,True,31,-,-,-
Y2-S2-076K22,6,426,AS,exp,41,→,left,←,0.5889349998906255,False,21,-1,0,0
Y2-S2-076K22,6,427,AS,exp,50,↑,up,↑,0.5689047002233565,True,22,-1,0,0
Y2-S2-076K22,6,428,AS,exp,35,←,left,←,0.7014792999252677,True,22,-1,0,0
Y2-S2-076K22,6,429,AS,exp,38,→,right,→,0.5006602997891605,True,22,1,1,1
Y2-S2-076K22,6,430,AS,exp,49,←,left,←,0.5638625998981297,True,21,1,0,1
Y2-S2-076K22,6,431,AS,exp,45,↓,down,↓,0.7350623998790979,True,21,1,0,1
Y2-S2-076K22,6,432,AS,exp,48,↑,up,↑,0.6920253997668624,True,21,1,0,1
Y2-S2-076K22,6,433,AS,exp,30,→,right,→,0.6556243998929858,True,20,1,0,1
Y2-S2-076K22,6,434,AS,exp,34,↓,down,↓,0.8164636003784835,True,20,1,0,1
Y2-S2-076K22,6,435,AS,exp,26,→,right,→,0.5320986001752317,True,20,1,0,1
Y2-S2-076K22,6,436,AS,exp,34,↑,up,↑,0.6631111004389822,True,19,1,0,1
Y2-S2-076K22,6,437,AS,exp,34,→,down,↓,0.7923924000933766,False,19,-1,1,2
Y2-S2-076K22,6,438,AS,exp,30,←,left,←,0.46716029988601804,True,20,-1,0,2
Y2-S2-076K22,6,439,AS,exp,30,→,right,→,1.2255998998880386,True,20,-1,0,2
Y2-S2-076K22,6,440,AS,exp,37,↑,up,↑,0.7388351000845432,True,20,1,1,3
Y2-S2-076K22,6,441,AS,exp,42,←,left,←,0.6462477999739349,True,19,1,0,3
Y2-S2-076K22,6,442,AS,exp,28,→,left,←,0.8658782001584768,False,19,-1,1,4
Y2-S2-076K22,6,443,AS,exp,38,↓,up,↑,0.7347669000737369,False,20,-1,0,4
Y2-S2-076K22,6,444,AS,exp,32,←,left,←,0.7062813998199999,True,21,-1,0,4
Y2-S2-076K22,6,445,AS,exp,27,→,no_key,no_letter,-1.0,False,21,-1,0,4
Y2-S2-076K22,6,446,AS,exp,37,↓,down,↓,1.0618428997695446,True,22,-1,0,4
Y2-S2-076K22,6,447,AS,exp,32,→,right,→,0.4335026000626385,True,22,-1,0,4
Y2-S2-076K22,6,448,AS,exp,48,←,left,←,0.4505386999808252,True,22,1,1,5
Y2-S2-076K22,6,449,AS,exp,33,↑,up,↑,0.43394090002402663,True,21,1,0,5
Y2-S2-076K22,6,450,AS,exp,27,↓,down,↓,0.7574226004071534,True,21,1,0,5
Y2-S2-076K22,6,451,AS,exp,30,→,right,→,0.4840342001989484,True,21,1,0,5
Y2-S2-076K22,6,452,AS,exp,41,↑,up,↑,0.592913799919188,True,20,1,0,5
Y2-S2-076K22,6,453,AS,exp,45,←,left,←,0.7429169998504221,True,20,1,0,5
Y2-S2-076K22,6,454,AS,exp,44,↑,up,↑,0.43400820018723607,True,20,1,0,5
Y2-S2-076K22,6,455,AS,exp,47,→,right,→,0.6928427000530064,True,19,1,0,5
Y2-S2-076K22,6,456,AS,exp,26,←,left,←,0.6883565001189709,True,19,1,0,5
Y2-S2-076K22,6,457,AS,exp,29,↑,up,↑,0.6491360999643803,True,19,1,0,5
Y2-S2-076K22,6,458,AS,exp,41,→,up,↑,0.8469541999511421,False,18,-1,1,6
Y2-S2-076K22,6,459,AS,exp,29,↑,left,←,0.9093848997727036,False,19,-1,0,6
Y2-S2-076K22,6,460,AS,exp,42,→,right,→,0.6860442999750376,True,20,-1,0,6
Y2-S2-076K22,6,461,AS,exp,38,↓,down,↓,0.7744263000786304,True,20,-1,0,6
Y2-S2-076K22,6,462,AS,exp,27,←,left,←,0.6941939000971615,True,20,1,1,7
Y2-S2-076K22,6,463,AS,exp,30,↑,right,→,0.7130163004621863,False,19,-1,1,8
Y2-S2-076K22,6,464,AS,exp,29,↓,down,↓,0.7074895002879202,True,20,-1,0,8
Y2-S2-076K22,6,465,AS,exp,43,←,up,↑,1.0691905999556184,False,20,-1,0,8
Y2-S2-076K22,6,466,AS,exp,47,↓,down,↓,1.3374226996675134,True,21,-1,0,8
Y2-S2-076K22,6,467,AS,exp,35,↑,up,↑,0.6096521997824311,True,21,-1,0,8
Y2-S2-076K22,6,468,AS,exp,47,↓,up,↑,1.0064014000818133,False,21,-1,0,8
Y2-S2-076K22,6,469,AS,exp,33,→,right,→,0.46744289994239807,True,22,-1,0,8
Y2-S2-076K22,6,470,AS,exp,28,←,left,←,0.6895137000828981,True,22,-1,0,8
Y2-S2-076K22,6,471,AS,exp,34,↑,up,↑,0.6694364002905786,True,22,1,1,9
Y2-S2-076K22,6,472,AS,exp,40,↓,up,↑,0.5964716002345085,False,21,-1,1,10
Y2-S2-076K22,6,473,AS,exp,31,←,left,←,0.467115200124681,True,22,-1,0,10
Y2-S2-076K22,6,474,AS,exp,43,↑,up,↑,0.6503401999361813,True,22,-1,0,10
Y2-S2-076K22,6,475,AS,exp,36,→,right,→,0.7629482997581363,True,22,1,1,11
Y2-S2-076K22,6,476,AS,exp,25,←,left,←,0.7851756000891328,True,21,1,0,11
Y2-S2-076K22,6,477,AS,exp,42,↓,up,↑,0.483869899995625,False,21,-1,1,12
Y2-S2-076K22,6,478,AS,exp,36,←,left,←,0.8018394997343421,True,22,-1,0,12
Y2-S2-076K22,6,479,AS,exp,37,↑,up,↑,0.38418930023908615,True,22,-1,0,12
Y2-S2-076K22,6,480,AS,exp,32,←,left,←,0.6620942996814847,True,22,1,1,13
Y2-S2-076K22,6,481,AS,exp,36,↓,down,↓,1.6732657002285123,True,21,1,0,13
Y2-S2-076K22,6,482,AS,exp,29,←,left,←,0.7266168999485672,True,21,1,0,13
Y2-S2-076K22,6,483,AS,exp,34,↓,down,↓,0.5997808999381959,True,21,1,0,13
Y2-S2-076K22,6,484,AS,exp,40,→,right,→,0.7807088000699878,True,20,1,0,13
Y2-S2-076K22,6,485,AS,exp,31,↑,up,↑,0.5315759996883571,True,20,1,0,13
Y2-S2-076K22,6,486,AS,exp,39,↓,down,↓,1.7893321998417377,True,20,1,0,13
Y2-S2-076K22,6,487,AS,exp,31,←,left,←,0.5072759003378451,True,19,1,0,13
Y2-S2-076K22,6,488,AS,exp,27,→,right,→,0.521855799946934,True,19,1,0,13
Y2-S2-076K22,6,489,AS,exp,33,←,left,←,0.48614849988371134,True,19,1,0,13
Y2-S2-076K22,6,490,AS,exp,33,↓,down,↓,0.7903040000237525,True,18,1,0,13
Y2-S2-076K22,6,491,AS,exp,45,←,left,←,0.6333635998889804,True,18,1,0,13
Y2-S2-076K22,6,492,AS,exp,41,↑,up,↑,0.6560499002225697,True,18,1,0,13
Y2-S2-076K22,6,493,AS,exp,50,→,left,←,0.6476692999713123,False,17,-1,1,14
Y2-S2-076K22,6,494,AS,exp,39,↓,down,↓,0.782997400034219,True,18,-1,0,14
Y2-S2-076K22,6,495,AS,exp,32,↑,up,↑,0.6196612999774516,True,18,-1,0,14
Y2-S2-076K22,6,496,AS,exp,33,←,left,←,0.43367639975622296,True,18,1,1,15
Y2-S2-076K22,6,497,AS,exp,45,↑,right,→,0.8823957000859082,False,17,-1,1,16
Y2-S2-076K22,7,498,AS,intra_train,29,←,left,←,0.600755300372839,True,31,-,-,-
Y2-S2-076K22,7,499,AS,intra_train,26,→,right,→,0.5341460998170078,True,31,-,-,-
Y2-S2-076K22,7,500,AS,intra_train,49,↑,up,↑,0.6501329001039267,True,31,-,-,-
Y2-S2-076K22,7,501,AS,intra_train,48,←,left,←,0.78924520034343,True,31,-,-,-
Y2-S2-076K22,7,502,AS,intra_train,26,→,right,→,1.3231870997697115,True,31,-,-,-
Y2-S2-076K22,7,503,AS,exp,39,↑,up,↑,0.7545910999178886,True,21,0,0,0
Y2-S2-076K22,7,504,AS,exp,25,→,up,↑,0.9630840001627803,False,21,-1,0,0
Y2-S2-076K22,7,505,AS,exp,46,↑,up,↑,0.6484338003210723,True,22,-1,0,0
Y2-S2-076K22,7,506,AS,exp,25,↓,down,↓,0.6905020996928215,True,22,-1,0,0
Y2-S2-076K22,7,507,AS,exp,41,↑,no_key,no_letter,-1.0,False,22,-1,0,0
Y2-S2-076K22,7,508,AS,exp,38,↓,down,↓,0.6204369002953172,True,23,-1,0,0
Y2-S2-076K22,7,509,AS,exp,38,←,left,←,0.7289749002084136,True,23,-1,0,0
Y2-S2-076K22,7,510,AS,exp,48,↑,up,↑,0.5869368999265134,True,23,1,1,1
Y2-S2-076K22,7,511,AS,exp,43,→,right,→,1.0697237001731992,True,22,1,0,1
Y2-S2-076K22,7,512,AS,exp,26,↓,down,↓,0.836703599896282,True,22,1,0,1
Y2-S2-076K22,7,513,AS,exp,38,→,right,→,0.625496500171721,True,22,1,0,1
Y2-S2-076K22,7,514,AS,exp,28,↓,up,↑,1.0855454001575708,False,21,-1,1,2
Y2-S2-076K22,7,515,AS,exp,39,←,left,←,0.7807269999757409,True,22,-1,0,2
Y2-S2-076K22,7,516,AS,exp,29,→,right,→,0.8287870003841817,True,22,-1,0,2
Y2-S2-076K22,7,517,AS,exp,47,↓,down,↓,0.7880655000917614,True,22,1,1,3
Y2-S2-076K22,7,518,AS,exp,28,↑,right,→,1.365565000101924,False,21,-1,1,4
Y2-S2-076K22,7,519,AS,exp,31,→,right,→,0.7304565999656916,True,22,-1,0,4
Y2-S2-076K22,7,520,AS,exp,49,←,left,←,0.6579455998726189,True,22,-1,0,4
Y2-S2-076K22,7,521,AS,exp,35,→,right,→,0.6055006999522448,True,22,1,1,5
Y2-S2-076K22,7,522,AS,exp,27,←,left,←,0.6902212998829782,True,21,1,0,5
Y2-S2-076K22,7,523,AS,exp,31,→,right,→,0.5803863001056015,True,21,1,0,5
Y2-S2-076K22,7,524,AS,exp,27,↑,left,←,0.5792613998055458,False,21,-1,1,6
Y2-S2-076K22,7,525,AS,exp,31,→,right,→,0.6297295996919274,True,22,-1,0,6
Y2-S2-076K22,7,526,AS,exp,40,←,left,←,0.6666876999661326,True,22,-1,0,6
Y2-S2-076K22,7,527,AS,exp,31,↑,left,←,0.6334188999608159,False,22,-1,0,6
Y2-S2-076K22,7,528,AS,exp,32,→,right,→,0.6738547999411821,True,23,-1,0,6
Y2-S2-076K22,7,529,AS,exp,38,↑,up,↑,0.7366968998685479,True,23,-1,0,6
Y2-S2-076K22,7,530,AS,exp,49,↓,up,↑,1.5789342001080513,False,23,-1,0,6
Y2-S2-076K22,7,531,AS,exp,46,↑,up,↑,0.517497600056231,True,24,-1,0,6
Y2-S2-076K22,7,532,AS,exp,27,→,right,→,0.6725559001788497,True,24,-1,0,6
Y2-S2-076K22,7,533,AS,exp,48,↓,down,↓,0.9113529999740422,True,24,1,1,7
Y2-S2-076K22,7,534,AS,exp,35,↑,up,↑,0.4172743000090122,True,23,1,0,7
Y2-S2-076K22,7,535,AS,exp,33,←,left,←,0.41721880016848445,True,23,1,0,7
Y2-S2-076K22,7,536,AS,exp,37,→,right,→,0.4508472001180053,True,23,1,0,7
Y2-S2-076K22,7,537,AS,exp,37,↓,down,↓,0.9627757002599537,True,22,1,0,7
Y2-S2-076K22,7,538,AS,exp,37,←,left,←,0.7229891996830702,True,22,1,0,7
Y2-S2-076K22,7,539,AS,exp,30,↑,up,↑,0.3840270000509918,True,22,1,0,7
Y2-S2-076K22,7,540,AS,exp,34,↓,down,↓,0.9599855002015829,True,21,1,0,7
Y2-S2-076K22,7,541,AS,exp,35,→,right,→,0.46744569996371865,True,21,1,0,7
Y2-S2-076K22,7,542,AS,exp,48,↑,up,↑,0.6411268003284931,True,21,1,0,7
Y2-S2-076K22,7,543,AS,exp,26,→,right,→,1.0884050000458956,True,20,1,0,7
Y2-S2-076K22,7,544,AS,exp,50,↓,right,→,0.9524379996582866,False,20,-1,1,8
Y2-S2-076K22,7,545,AS,exp,41,↑,up,↑,0.6095435000024736,True,21,-1,0,8
Y2-S2-076K22,7,546,AS,exp,27,→,right,→,0.4838215000927448,True,21,-1,0,8
Y2-S2-076K22,7,547,AS,exp,39,↑,up,↑,0.5716367000713944,True,21,1,1,9
Y2-S2-076K22,7,548,AS,exp,26,←,left,←,0.8571367003023624,True,20,1,0,9
Y2-S2-076K22,7,549,AS,exp,50,↑,up,↑,0.5736552001908422,True,20,1,0,9
Y2-S2-076K22,7,550,AS,exp,26,←,left,←,0.5891650002449751,True,20,1,0,9
Y2-S2-076K22,7,551,AS,exp,26,→,right,→,0.40061300015076995,True,19,1,0,9
Y2-S2-076K22,7,552,AS,exp,37,↑,up,↑,0.5948532000184059,True,19,1,0,9
Y2-S2-076K22,7,553,AS,exp,39,↓,down,↓,0.8383192997425795,True,19,1,0,9
Y2-S2-076K22,7,554,AS,exp,28,←,left,←,0.4183133002370596,True,18,1,0,9
Y2-S2-076K22,7,555,AS,exp,44,↑,up,↑,0.40078620007261634,True,18,1,0,9
Y2-S2-076K22,7,556,AS,exp,39,↓,down,↓,0.7920193001627922,True,18,1,0,9
Y2-S2-076K22,7,557,AS,exp,30,↑,up,↑,0.651318000163883,True,17,1,0,9
Y2-S2-076K22,7,558,AS,exp,48,←,left,←,0.7780057997442782,True,17,1,0,9
Y2-S2-076K22,7,559,AS,exp,35,↑,up,↑,0.512582799885422,True,17,1,0,9
Y2-S2-076K22,7,560,AS,exp,44,↓,down,↓,0.8094546999782324,True,16,1,0,9
Y2-S2-076K22,7,561,AS,exp,46,↑,up,↑,0.8318866998888552,True,16,1,0,9
Y2-S2-076K22,7,562,AS,exp,33,→,right,→,0.5782528002746403,True,16,1,0,9
Y2-S2-076K22,7,563,AS,exp,49,↓,up,↑,1.0877284999005497,False,15,-1,1,10
Y2-S2-076K22,7,564,AS,exp,47,↑,right,→,0.8043728000484407,False,16,-1,0,10
Y2-S2-076K22,7,565,AS,exp,39,←,down,↓,0.7897511003538966,False,17,-1,0,10
Y2-S2-076K22,7,566,AS,exp,27,→,right,→,0.5442005000077188,True,18,-1,0,10
Y2-S2-076K22,7,567,AS,exp,45,←,no_key,no_letter,-1.0,False,18,-1,0,10
Y2-S2-076K22,7,568,AS,exp,49,→,right,→,0.6252617998979986,True,19,-1,0,10
Y2-S2-076K22,7,569,AS,exp,41,↑,up,↑,0.40066170040518045,True,19,-1,0,10
Y2-S2-076K22,7,570,AS,exp,46,↓,down,↓,0.6771601000800729,True,19,1,1,11
Y2-S2-076K22,7,571,AS,exp,31,↑,up,↑,0.40065079974010587,True,18,1,0,11
Y2-S2-076K22,7,572,AS,exp,38,↓,right,→,0.7008718000724912,False,18,-1,1,12
Y2-S2-076K22,7,573,AS,exp,39,↑,up,↑,0.7378934002481401,True,19,-1,0,12
Y2-S2-076K22,7,574,AS,exp,50,←,left,←,0.601468900218606,True,19,-1,0,12
Y2-S2-076K22,7,575,AS,exp,50,↑,down,↓,0.8019364001229405,False,19,-1,0,12
Y2-S2-076K22,7,576,AS,exp,43,→,right,→,0.6693321000784636,True,20,-1,0,12
Y2-S2-076K22,7,577,AS,exp,33,↓,down,↓,0.7884694999083877,True,20,-1,0,12
Y2-S2-076K22,7,578,AS,exp,45,←,left,←,0.637792999856174,True,20,1,1,13
Y2-S2-076K22,7,579,AS,exp,45,↓,down,↓,0.5847092000767589,True,19,1,0,13
Y2-S2-076K22,7,580,AS,exp,37,↑,up,↑,0.41705270018428564,True,19,1,0,13
Y2-S2-076K22,7,581,AS,exp,47,←,left,←,0.624279800336808,True,19,1,0,13
Y2-S2-076K22,7,582,AS,exp,44,→,right,→,0.41629849979653955,True,18,1,0,13
Y2-S2-076K22,7,583,AS,exp,39,←,left,←,0.6909290002658963,True,18,1,0,13
Y2-S2-076K22,7,584,AS,exp,25,→,right,→,0.4775164998136461,True,18,1,0,13
Y2-S2-076K22,7,585,AS,exp,28,↑,up,↑,0.6883528004400432,True,17,1,0,13
Y2-S2-076K22,7,586,AS,exp,39,←,right,→,0.7633932000026107,False,17,-1,1,14
Y2-S2-076K22,7,587,AS,exp,33,↓,down,↓,0.6034748000092804,True,18,-1,0,14
Y2-S2-076K22,7,588,AS,exp,28,→,left,←,0.7297316999174654,False,18,-1,0,14
Y2-S2-076K22,7,589,AS,exp,49,↓,down,↓,0.5639877999201417,True,19,-1,0,14
Y2-S2-076K22,7,590,AS,exp,34,←,right,→,0.9072751998901367,False,19,-1,0,14
Y2-S2-076K22,7,591,AS,exp,44,↑,up,↑,0.7114180000498891,True,20,-1,0,14
Y2-S2-076K22,7,592,AS,exp,49,→,right,→,0.41712250001728535,True,20,-1,0,14
Y2-S2-076K22,7,593,AS,exp,40,←,left,←,0.5976248001679778,True,20,1,1,15
Y2-S2-076K22,7,594,AS,exp,45,→,right,→,0.7085019000805914,True,19,1,0,15
Y2-S2-076K22,7,595,AS,exp,35,↑,up,↑,0.43378830002620816,True,19,1,0,15
Y2-S2-076K22,7,596,AS,exp,36,←,left,←,0.6047804998233914,True,19,1,0,15
Y2-S2-076K22,7,597,AS,exp,39,↓,down,↓,0.5498652001842856,True,18,1,0,15
Y2-S2-076K22,7,598,AS,exp,50,←,left,←,0.8005045000463724,True,18,1,0,15
Y2-S2-076K22,7,599,AS,exp,37,→,right,→,1.0980316000059247,True,18,1,0,15
Y2-S2-076K22,7,600,AS,exp,29,↓,down,↓,0.6187466997653246,True,17,1,0,15
Y2-S2-076K22,7,601,AS,exp,50,→,right,→,0.4171203002333641,True,17,1,0,15
Y2-S2-076K22,7,602,AS,exp,32,↑,up,↑,0.5609308001585305,True,17,1,0,15
Y2-S2-076K22,7,603,AS,exp,48,↓,right,→,0.5911318999715149,False,16,-1,1,16
Y2-S2-076K22,8,604,PS,intra_train,26,←,left,←,0.4826817000284791,True,15,-,-,-
Y2-S2-076K22,8,605,PS,intra_train,42,→,right,→,0.4177648997865617,True,15,-,-,-
Y2-S2-076K22,8,606,PS,intra_train,38,←,left,←,0.49520809995010495,True,15,-,-,-
Y2-S2-076K22,8,607,PS,intra_train,50,→,right,→,0.47289450000971556,True,15,-,-,-
Y2-S2-076K22,8,608,PS,intra_train,45,↑,up,↑,0.5983834001235664,True,15,-,-,-
Y2-S2-076K22,8,609,PS,exp,39,↓,down,↓,0.6315683000721037,True,10,0,0,0
Y2-S2-076K22,8,610,PS,exp,48,↑,up,↑,0.4392975000664592,True,10,0,0,0
Y2-S2-076K22,8,611,PS,exp,25,↓,down,↓,0.5784542001783848,True,10,1,0,0
Y2-S2-076K22,8,612,PS,exp,29,↑,up,↑,0.43524640006944537,True,9,1,0,0
Y2-S2-076K22,8,613,PS,exp,29,→,right,→,0.39361169980838895,True,9,1,0,0
Y2-S2-076K22,8,614,PS,exp,38,←,left,←,0.3450541999191046,True,9,1,0,0
Y2-S2-076K22,8,615,PS,exp,25,↑,left,←,0.4584495001472533,False,8,-1,1,1
Y2-S2-076K22,8,616,PS,exp,32,←,left,←,0.3764026998542249,True,9,-1,0,1
Y2-S2-076K22,8,617,PS,exp,34,↓,down,↓,0.6061287000775337,True,9,-1,0,1
Y2-S2-076K22,8,618,PS,exp,28,→,right,→,0.5046637998893857,True,9,1,1,2
Y2-S2-076K22,8,619,PS,exp,41,↓,down,↓,0.5828649001196027,True,8,1,0,2
Y2-S2-076K22,8,620,PS,exp,27,←,left,←,0.6109470999799669,True,8,1,0,2
Y2-S2-076K22,8,621,PS,exp,28,→,right,→,0.44776410004124045,True,8,1,0,2
Y2-S2-076K22,8,622,PS,exp,40,↑,left,←,0.6111225001513958,False,7,-1,1,3
Y2-S2-076K22,8,623,PS,exp,45,→,right,→,0.620145000051707,True,8,-1,0,3
Y2-S2-076K22,8,624,PS,exp,39,↓,down,↓,0.8189954999834299,True,8,-1,0,3
Y2-S2-076K22,8,625,PS,exp,42,←,up,↑,0.5680773998610675,False,8,-1,0,3
Y2-S2-076K22,8,626,PS,exp,39,↓,down,↓,0.5017461003735662,True,9,-1,0,3
Y2-S2-076K22,8,627,PS,exp,42,→,right,→,0.4627625001594424,True,9,-1,0,3
Y2-S2-076K22,8,628,PS,exp,31,↑,up,↑,0.5891025001183152,True,9,1,1,4
Y2-S2-076K22,8,629,PS,exp,36,←,left,←,0.604661799967289,True,8,1,0,4
Y2-S2-076K22,8,630,PS,exp,43,→,left,←,0.4405608996748924,False,8,-1,1,5
Y2-S2-076K22,8,631,PS,exp,38,←,left,←,0.45581609988585114,True,9,-1,0,5
Y2-S2-076K22,8,632,PS,exp,38,↓,down,↓,0.8311495999805629,True,9,-1,0,5
Y2-S2-076K22,8,633,PS,exp,39,←,right,→,0.7258576997555792,False,9,-1,0,5
Y2-S2-076K22,8,634,PS,exp,42,↓,down,↓,0.6478451997973025,True,10,-1,0,5
Y2-S2-076K22,8,635,PS,exp,25,←,left,←,0.5028118998743594,True,10,-1,0,5
Y2-S2-076K22,8,636,PS,exp,46,↑,up,↑,0.40806979965418577,True,10,1,1,6
Y2-S2-076K22,8,637,PS,exp,43,↓,right,→,0.5439108996652067,False,9,-1,1,7
Y2-S2-076K22,8,638,PS,exp,45,→,right,→,0.551683200057596,True,10,-1,0,7
Y2-S2-076K22,8,639,PS,exp,45,↓,down,↓,0.5380299999378622,True,10,-1,0,7
Y2-S2-076K22,8,640,PS,exp,42,←,left,←,0.5537095000036061,True,10,1,1,8
Y2-S2-076K22,8,641,PS,exp,37,↓,down,↓,0.5272482996806502,True,9,1,0,8
Y2-S2-076K22,8,642,PS,exp,31,↑,up,↑,0.47520209988579154,True,9,1,0,8
Y2-S2-076K22,8,643,PS,exp,44,←,right,→,0.6095191999338567,False,9,-1,1,9
Y2-S2-076K22,8,644,PS,exp,47,↑,up,↑,0.6048817997798324,True,10,-1,0,9
Y2-S2-076K22,8,645,PS,exp,35,→,right,→,0.5369505002163351,True,10,-1,0,9
Y2-S2-076K22,8,646,PS,exp,26,←,left,←,0.5381728997454047,True,10,1,1,10
Y2-S2-076K22,8,647,PS,exp,37,↑,up,↑,0.391546499915421,True,9,1,0,10
Y2-S2-076K22,8,648,PS,exp,33,↓,left,←,0.3700827998109162,False,9,-1,1,11
Y2-S2-076K22,8,649,PS,exp,47,↑,up,↑,0.5421901997178793,True,10,-1,0,11
Y2-S2-076K22,8,650,PS,exp,48,→,right,→,0.5055947997607291,True,10,-1,0,11
Y2-S2-076K22,8,651,PS,exp,37,←,left,←,0.4640768999233842,True,10,1,1,12
Y2-S2-076K22,8,652,PS,exp,49,↑,left,←,0.5596464001573622,False,9,-1,1,13
Y2-S2-076K22,8,653,PS,exp,32,→,right,→,0.5884612002409995,True,10,-1,0,13
Y2-S2-076K22,8,654,PS,exp,48,↑,right,→,0.3460264001041651,False,10,-1,0,13
Y2-S2-076K22,8,655,PS,exp,34,←,down,↓,0.6932554999366403,False,11,-1,0,13
Y2-S2-076K22,8,656,PS,exp,28,→,right,→,0.5403721001930535,True,12,-1,0,13
Y2-S2-076K22,8,657,PS,exp,42,↓,down,↓,1.2702796999365091,True,12,-1,0,13
Y2-S2-076K22,8,658,PS,exp,44,←,left,←,0.5392555999569595,True,12,1,1,14
Y2-S2-076K22,8,659,PS,exp,25,↑,down,↓,0.5898405001498759,False,11,-1,1,15
Y2-S2-076K22,8,660,PS,exp,44,↓,down,↓,0.49284359999001026,True,12,-1,0,15
Y2-S2-076K22,8,661,PS,exp,49,↑,up,↑,0.5429082000628114,True,12,-1,0,15
Y2-S2-076K22,8,662,PS,exp,50,←,right,→,0.41680540004745126,False,12,-1,0,15
Y2-S2-076K22,8,663,PS,exp,40,↑,up,↑,0.5995454997755587,True,13,-1,0,15
Y2-S2-076K22,8,664,PS,exp,39,→,down,↓,0.6586575000546873,False,13,-1,0,15
Y2-S2-076K22,8,665,PS,exp,33,↑,right,→,0.47481990000233054,False,14,-1,0,15
Y2-S2-076K22,8,666,PS,exp,35,→,right,→,0.5340951001271605,True,15,-1,0,15
Y2-S2-076K22,8,667,PS,exp,30,←,left,←,0.7964481003582478,True,15,-1,0,15
Y2-S2-076K22,8,668,PS,exp,33,→,right,→,1.3244364997372031,True,15,1,1,16
