PART_ID,Block_no,Trial_no,Block_type,Trial_type,CSI,Stim_letter,Key_pressed,letter_choose,Rt,Corr,Stimulus Time,Level,Reversal,Revs_count
Y2-S2-176M26,1,1,PS,train,30,↑,up,↑,0.83218550006859,True,30,-,-,-
Y2-S2-176M26,1,2,PS,train,39,↓,down,↓,0.9473190000280738,True,30,-,-,-
Y2-S2-176M26,1,3,PS,train,47,→,right,→,0.9533466000575572,True,30,-,-,-
Y2-S2-176M26,1,4,PS,train,29,↑,up,↑,0.808891500113532,True,30,-,-,-
Y2-S2-176M26,1,5,PS,train,44,←,left,←,0.6005714000202715,True,30,-,-,-
Y2-S2-176M26,1,6,PS,train,29,↑,up,↑,0.7501759000588208,True,30,-,-,-
Y2-S2-176M26,1,7,PS,train,40,←,left,←,0.8166781000327319,True,30,-,-,-
Y2-S2-176M26,1,8,PS,train,29,↓,down,↓,0.8117787998635322,True,30,-,-,-
Y2-S2-176M26,1,9,PS,train,28,→,right,→,0.6003634999506176,True,30,-,-,-
Y2-S2-176M26,1,10,PS,train,25,↓,down,↓,0.9729013999458402,True,30,-,-,-
Y2-S2-176M26,2,11,AS,train,33,←,left,←,0.884135999949649,True,45,-,-,-
Y2-S2-176M26,2,12,AS,train,42,↓,down,↓,0.6678047000896186,True,45,-,-,-
Y2-S2-176M26,2,13,AS,train,40,←,left,←,0.6679462001193315,True,45,-,-,-
Y2-S2-176M26,2,14,AS,train,36,→,right,→,1.0140339999925345,True,45,-,-,-
Y2-S2-176M26,2,15,AS,train,28,↓,down,↓,0.5842977999709547,True,45,-,-,-
Y2-S2-176M26,2,16,AS,train,48,↑,up,↑,0.7342852998990566,True,45,-,-,-
Y2-S2-176M26,2,17,AS,train,32,→,right,→,0.5676147998310626,True,45,-,-,-
Y2-S2-176M26,2,18,AS,train,43,↑,up,↑,1.0815803001169115,True,45,-,-,-
Y2-S2-176M26,2,19,AS,train,39,→,right,→,0.6180261999834329,True,45,-,-,-
Y2-S2-176M26,2,20,AS,train,29,↓,down,↓,0.7338918999303132,True,45,-,-,-
Y2-S2-176M26,-,21,PS,adaptive,34,←,no_key,no_letter,-1.0,False,10,-1,0,0
Y2-S2-176M26,-,22,PS,adaptive,31,↑,up,↑,0.5228281999006867,True,11,-1,0,0
Y2-S2-176M26,-,23,PS,adaptive,31,←,left,←,0.5136467998381704,True,11,-1,0,0
Y2-S2-176M26,-,24,PS,adaptive,38,↑,up,↑,0.543123499955982,True,11,1,1,1
Y2-S2-176M26,-,25,PS,adaptive,46,→,right,→,0.5910503999330103,True,10,1,0,1
Y2-S2-176M26,-,26,PS,adaptive,41,↑,up,↑,0.8733127000741661,True,10,1,0,1
Y2-S2-176M26,-,27,PS,adaptive,35,→,right,→,0.7558951999526471,True,10,1,0,1
Y2-S2-176M26,-,28,PS,adaptive,49,↑,up,↑,0.5673488997854292,True,9,1,0,1
Y2-S2-176M26,-,29,PS,adaptive,39,↓,up,↑,0.5868380998726934,False,9,-1,1,2
Y2-S2-176M26,-,30,PS,adaptive,31,↑,up,↑,0.5888674000743777,True,10,-1,0,2
Y2-S2-176M26,-,31,PS,adaptive,27,↓,down,↓,0.6003235999960452,True,10,-1,0,2
Y2-S2-176M26,-,32,PS,adaptive,26,→,right,→,0.603682299843058,True,10,1,1,3
Y2-S2-176M26,-,33,PS,adaptive,29,↑,right,→,0.8520840001292527,False,9,-1,1,4
Y2-S2-176M26,-,34,AS,adaptive,41,↓,down,↓,0.7734830998815596,True,20,0,0,0
Y2-S2-176M26,-,35,AS,adaptive,29,→,right,→,0.5772418999113142,True,20,0,0,0
Y2-S2-176M26,-,36,AS,adaptive,40,↓,down,↓,0.6757008000276983,True,20,1,0,0
Y2-S2-176M26,-,37,AS,adaptive,47,→,right,→,0.5162525998894125,True,19,1,0,0
Y2-S2-176M26,-,38,AS,adaptive,41,↓,down,↓,0.7211054998915642,True,19,1,0,0
Y2-S2-176M26,-,39,AS,adaptive,37,↑,up,↑,0.6277696001343429,True,19,1,0,0
Y2-S2-176M26,-,40,AS,adaptive,41,←,left,←,0.5871931998990476,True,18,1,0,0
Y2-S2-176M26,-,41,AS,adaptive,46,→,right,→,0.5140039999969304,True,18,1,0,0
Y2-S2-176M26,-,42,AS,adaptive,26,←,left,←,0.6355198998935521,True,18,1,0,0
Y2-S2-176M26,-,43,AS,adaptive,42,↓,up,↑,0.7997400001622736,False,17,-1,1,1
Y2-S2-176M26,-,44,AS,adaptive,48,↑,up,↑,0.6186472000554204,True,18,-1,0,1
Y2-S2-176M26,-,45,AS,adaptive,37,←,left,←,0.6029701998922974,True,18,-1,0,1
Y2-S2-176M26,-,46,AS,adaptive,29,↓,down,↓,0.5570481999311596,True,18,1,1,2
Y2-S2-176M26,-,47,AS,adaptive,46,←,left,←,0.5564897998701781,True,17,1,0,2
Y2-S2-176M26,-,48,AS,adaptive,45,→,up,↑,1.0403745998628438,False,17,-1,1,3
Y2-S2-176M26,-,49,AS,adaptive,26,↓,down,↓,0.6739936000667512,True,18,-1,0,3
Y2-S2-176M26,-,50,AS,adaptive,35,→,left,←,0.5176746000070125,False,18,-1,0,3
Y2-S2-176M26,-,51,AS,adaptive,31,←,left,←,0.6004559998400509,True,19,-1,0,3
Y2-S2-176M26,-,52,AS,adaptive,50,↑,up,↑,0.579224499873817,True,19,-1,0,3
Y2-S2-176M26,-,53,AS,adaptive,37,↓,down,↓,0.6739070999901742,True,19,1,1,4
Y2-S2-176M26,1,54,PS,intra_train,46,→,right,→,0.6121718001086265,True,15,-,-,-
Y2-S2-176M26,1,55,PS,intra_train,38,↓,down,↓,0.6405019999947399,True,15,-,-,-
Y2-S2-176M26,1,56,PS,intra_train,36,→,right,→,0.5638621998950839,True,15,-,-,-
Y2-S2-176M26,1,57,PS,intra_train,27,↑,up,↑,0.5682244000490755,True,15,-,-,-
Y2-S2-176M26,1,58,PS,intra_train,38,→,right,→,0.6059388001449406,True,15,-,-,-
Y2-S2-176M26,1,59,PS,exp,34,←,left,←,0.5921573999803513,True,10,0,0,0
Y2-S2-176M26,1,60,PS,exp,35,↓,up,↑,0.651172999991104,False,10,-1,0,0
Y2-S2-176M26,1,61,PS,exp,42,→,right,→,0.562588999979198,True,11,-1,0,0
Y2-S2-176M26,1,62,PS,exp,48,↑,up,↑,0.5293796001933515,True,11,-1,0,0
Y2-S2-176M26,1,63,PS,exp,42,→,right,→,0.580991700058803,True,11,1,1,1
Y2-S2-176M26,1,64,PS,exp,43,←,left,←,0.5229991001542658,True,10,1,0,1
Y2-S2-176M26,1,65,PS,exp,27,→,right,→,0.6680540998931974,True,10,1,0,1
Y2-S2-176M26,1,66,PS,exp,33,↓,right,→,0.6911515998654068,False,10,-1,1,2
Y2-S2-176M26,1,67,PS,exp,40,↑,right,→,0.8984542000107467,False,11,-1,0,2
Y2-S2-176M26,1,68,PS,exp,43,→,right,→,0.7110156998969615,True,12,-1,0,2
Y2-S2-176M26,1,69,PS,exp,39,←,left,←,0.5419175000861287,True,12,-1,0,2
Y2-S2-176M26,1,70,PS,exp,33,↓,down,↓,0.6438168999738991,True,12,1,1,3
Y2-S2-176M26,1,71,PS,exp,31,←,left,←,0.5329190001357347,True,11,1,0,3
Y2-S2-176M26,1,72,PS,exp,50,→,right,→,0.49574300018139184,True,11,1,0,3
Y2-S2-176M26,1,73,PS,exp,48,↓,down,↓,0.5767355000134557,True,11,1,0,3
Y2-S2-176M26,1,74,PS,exp,40,→,right,→,0.5723972998093814,True,10,1,0,3
Y2-S2-176M26,1,75,PS,exp,38,↓,right,→,0.5971890001092106,False,10,-1,1,4
Y2-S2-176M26,1,76,PS,exp,44,←,left,←,0.6347992001101375,True,11,-1,0,4
Y2-S2-176M26,1,77,PS,exp,42,→,left,←,0.7269762998912483,False,11,-1,0,4
Y2-S2-176M26,1,78,PS,exp,26,↑,up,↑,0.9391181000974029,True,12,-1,0,4
Y2-S2-176M26,1,79,PS,exp,38,→,right,→,0.527108000125736,True,12,-1,0,4
Y2-S2-176M26,1,80,PS,exp,29,↓,down,↓,0.5954197000246495,True,12,1,1,5
Y2-S2-176M26,1,81,PS,exp,50,←,right,→,0.654484499944374,False,11,-1,1,6
Y2-S2-176M26,1,82,PS,exp,32,↓,down,↓,0.6419303000438958,True,12,-1,0,6
Y2-S2-176M26,1,83,PS,exp,26,↑,up,↑,0.556035100016743,True,12,-1,0,6
Y2-S2-176M26,1,84,PS,exp,47,←,left,←,0.5100344999227673,True,12,1,1,7
Y2-S2-176M26,1,85,PS,exp,42,↑,up,↑,0.47576559986919165,True,11,1,0,7
Y2-S2-176M26,1,86,PS,exp,28,→,right,→,0.5424395999871194,True,11,1,0,7
Y2-S2-176M26,1,87,PS,exp,44,↑,up,↑,0.4534362000413239,True,11,1,0,7
Y2-S2-176M26,1,88,PS,exp,37,↓,down,↓,0.5216816000174731,True,10,1,0,7
Y2-S2-176M26,1,89,PS,exp,50,←,left,←,0.5388271000701934,True,10,1,0,7
Y2-S2-176M26,1,90,PS,exp,36,↓,down,↓,0.7078823000192642,True,10,1,0,7
Y2-S2-176M26,1,91,PS,exp,32,→,right,→,1.034571100026369,True,9,1,0,7
Y2-S2-176M26,1,92,PS,exp,30,←,up,↑,0.5407652999274433,False,9,-1,1,8
Y2-S2-176M26,1,93,PS,exp,45,↓,up,↑,0.601376400096342,False,10,-1,0,8
Y2-S2-176M26,1,94,PS,exp,30,→,right,→,0.5614736001007259,True,11,-1,0,8
Y2-S2-176M26,1,95,PS,exp,33,↓,up,↑,0.7330854998435825,False,11,-1,0,8
Y2-S2-176M26,1,96,PS,exp,39,→,right,→,0.4795252000913024,True,12,-1,0,8
Y2-S2-176M26,1,97,PS,exp,35,↓,down,↓,0.591430600034073,True,12,-1,0,8
Y2-S2-176M26,1,98,PS,exp,47,→,right,→,0.46151939989067614,True,12,1,1,9
Y2-S2-176M26,1,99,PS,exp,49,↓,right,→,0.6998596999328583,False,11,-1,1,10
Y2-S2-176M26,1,100,PS,exp,28,→,left,←,0.8690808999817818,False,12,-1,0,10
Y2-S2-176M26,1,101,PS,exp,27,←,left,←,0.5299387001432478,True,13,-1,0,10
Y2-S2-176M26,1,102,PS,exp,36,↓,down,↓,0.6454153000377119,True,13,-1,0,10
Y2-S2-176M26,1,103,PS,exp,44,↑,up,↑,0.5920765998307616,True,13,1,1,11
Y2-S2-176M26,1,104,PS,exp,46,→,right,→,0.4612367998342961,True,12,1,0,11
Y2-S2-176M26,1,105,PS,exp,39,↑,up,↑,0.5844074999913573,True,12,1,0,11
Y2-S2-176M26,1,106,PS,exp,29,↓,down,↓,0.6474637999199331,True,12,1,0,11
Y2-S2-176M26,1,107,PS,exp,39,←,left,←,0.4444587000180036,True,11,1,0,11
Y2-S2-176M26,1,108,PS,exp,49,↑,up,↑,0.5935248001478612,True,11,1,0,11
Y2-S2-176M26,1,109,PS,exp,28,←,left,←,0.6403196000028402,True,11,1,0,11
Y2-S2-176M26,1,110,PS,exp,35,→,right,→,0.5157492000143975,True,10,1,0,11
Y2-S2-176M26,1,111,PS,exp,40,↓,down,↓,0.5916319999378175,True,10,1,0,11
Y2-S2-176M26,1,112,PS,exp,48,←,left,←,0.5505576999858022,True,10,1,0,11
Y2-S2-176M26,1,113,PS,exp,26,↓,up,↑,1.7260152001399547,False,9,-1,1,12
Y2-S2-176M26,1,114,PS,exp,30,→,right,→,0.49879839993081987,True,10,-1,0,12
Y2-S2-176M26,1,115,PS,exp,37,↓,down,↓,0.612958500161767,True,10,-1,0,12
Y2-S2-176M26,1,116,PS,exp,40,→,right,→,0.5425722999498248,True,10,1,1,13
Y2-S2-176M26,1,117,PS,exp,41,←,left,←,0.522154999896884,True,9,1,0,13
Y2-S2-176M26,1,118,PS,exp,30,↓,down,↓,0.7152135998476297,True,9,1,0,13
Y2-S2-176M26,1,119,PS,exp,49,↑,up,↑,0.4666035999543965,True,9,1,0,13
Y2-S2-176M26,1,120,PS,exp,41,↓,down,↓,0.5166011999826878,True,8,1,0,13
Y2-S2-176M26,1,121,PS,exp,25,↑,up,↑,0.5321758999489248,True,8,1,0,13
Y2-S2-176M26,1,122,PS,exp,33,↓,down,↓,0.6160764000378549,True,8,1,0,13
Y2-S2-176M26,1,123,PS,exp,40,←,left,←,0.5766173000447452,True,7,1,0,13
Y2-S2-176M26,1,124,PS,exp,28,↑,up,↑,0.48742629983462393,True,7,1,0,13
Y2-S2-176M26,1,125,PS,exp,36,→,right,→,0.5088391001336277,True,7,1,0,13
Y2-S2-176M26,1,126,PS,exp,41,↑,up,↑,0.5934114998672158,True,6,1,0,13
Y2-S2-176M26,1,127,PS,exp,28,↓,up,↑,0.8373368999455124,False,6,-1,1,14
Y2-S2-176M26,1,128,PS,exp,49,↑,up,↑,0.49685729993507266,True,7,-1,0,14
Y2-S2-176M26,1,129,PS,exp,40,↓,down,↓,0.5272093000821769,True,7,-1,0,14
Y2-S2-176M26,1,130,PS,exp,27,↑,up,↑,0.47190900007262826,True,7,1,1,15
Y2-S2-176M26,1,131,PS,exp,38,↓,up,↑,0.82669260003604,False,6,-1,1,16
Y2-S2-176M26,2,132,AS,intra_train,29,←,left,←,1.6338627999648452,True,27,-,-,-
Y2-S2-176M26,2,133,AS,intra_train,38,↓,down,↓,0.8997955000959337,True,27,-,-,-
Y2-S2-176M26,2,134,AS,intra_train,40,←,left,←,0.5342961000278592,True,27,-,-,-
Y2-S2-176M26,2,135,AS,intra_train,35,↓,down,↓,0.8884620000608265,True,27,-,-,-
Y2-S2-176M26,2,136,AS,intra_train,32,→,right,→,0.5839501998852938,True,27,-,-,-
Y2-S2-176M26,2,137,AS,exp,30,↓,down,↓,1.155755199957639,True,18,0,0,0
Y2-S2-176M26,2,138,AS,exp,35,↑,up,↑,0.5746637000702322,True,18,0,0,0
Y2-S2-176M26,2,139,AS,exp,28,←,left,←,0.49071340006776154,True,18,1,0,0
Y2-S2-176M26,2,140,AS,exp,34,↑,up,↑,0.5058783998247236,True,17,1,0,0
Y2-S2-176M26,2,141,AS,exp,35,→,right,→,0.4919827999547124,True,17,1,0,0
Y2-S2-176M26,2,142,AS,exp,36,↑,up,↑,0.516715900041163,True,17,1,0,0
Y2-S2-176M26,2,143,AS,exp,46,→,down,↓,0.9700996000319719,False,16,-1,1,1
Y2-S2-176M26,2,144,AS,exp,37,←,left,←,0.6678003000561148,True,17,-1,0,1
Y2-S2-176M26,2,145,AS,exp,25,↑,up,↑,0.545725499978289,True,17,-1,0,1
Y2-S2-176M26,2,146,AS,exp,42,↓,up,↑,0.8651332999579608,False,17,-1,0,1
Y2-S2-176M26,2,147,AS,exp,35,←,left,←,0.6229815001133829,True,18,-1,0,1
Y2-S2-176M26,2,148,AS,exp,47,↑,up,↑,0.4962347000837326,True,18,-1,0,1
Y2-S2-176M26,2,149,AS,exp,35,→,right,→,0.6908692000433803,True,18,1,1,2
Y2-S2-176M26,2,150,AS,exp,47,←,right,→,1.3804590001236647,False,17,-1,1,3
Y2-S2-176M26,2,151,AS,exp,25,→,right,→,0.6376277999952435,True,18,-1,0,3
Y2-S2-176M26,2,152,AS,exp,33,↓,down,↓,0.6849714000709355,True,18,-1,0,3
Y2-S2-176M26,2,153,AS,exp,38,←,right,→,0.9556171998847276,False,18,-1,0,3
Y2-S2-176M26,2,154,AS,exp,31,↓,down,↓,0.9421656997874379,True,19,-1,0,3
Y2-S2-176M26,2,155,AS,exp,29,←,left,←,0.5866483000572771,True,19,-1,0,3
Y2-S2-176M26,2,156,AS,exp,35,↑,up,↑,0.5191766999196261,True,19,1,1,4
Y2-S2-176M26,2,157,AS,exp,39,←,left,←,0.6594068999402225,True,18,1,0,4
Y2-S2-176M26,2,158,AS,exp,45,↓,down,↓,0.669491000007838,True,18,1,0,4
Y2-S2-176M26,2,159,AS,exp,33,↑,up,↑,0.5866185000631958,True,18,1,0,4
Y2-S2-176M26,2,160,AS,exp,38,→,right,→,0.5752576999366283,True,17,1,0,4
Y2-S2-176M26,2,161,AS,exp,33,↓,up,↑,0.7727073000278324,False,17,-1,1,5
Y2-S2-176M26,2,162,AS,exp,48,←,left,←,1.2414897999260575,True,18,-1,0,5
Y2-S2-176M26,2,163,AS,exp,35,↑,up,↑,1.4853931998368353,True,18,-1,0,5
Y2-S2-176M26,2,164,AS,exp,36,→,right,→,0.5522740001324564,True,18,1,1,6
Y2-S2-176M26,2,165,AS,exp,33,↑,up,↑,0.5216222000308335,True,17,1,0,6
Y2-S2-176M26,2,166,AS,exp,50,←,left,←,0.547068600077182,True,17,1,0,6
Y2-S2-176M26,2,167,AS,exp,44,↓,down,↓,0.6488596999552101,True,17,1,0,6
Y2-S2-176M26,2,168,AS,exp,35,→,right,→,0.5188493002206087,True,16,1,0,6
Y2-S2-176M26,2,169,AS,exp,34,↓,down,↓,0.6206042999401689,True,16,1,0,6
Y2-S2-176M26,2,170,AS,exp,42,→,left,←,1.0373661001212895,False,16,-1,1,7
Y2-S2-176M26,2,171,AS,exp,47,↓,down,↓,0.7469227002002299,True,17,-1,0,7
Y2-S2-176M26,2,172,AS,exp,37,→,right,→,0.5857325000688434,True,17,-1,0,7
Y2-S2-176M26,2,173,AS,exp,30,↑,up,↑,1.9367615000810474,True,17,1,1,8
Y2-S2-176M26,2,174,AS,exp,46,↓,down,↓,0.5314543000422418,True,16,1,0,8
Y2-S2-176M26,2,175,AS,exp,47,→,right,→,0.6248667000327259,True,16,1,0,8
Y2-S2-176M26,2,176,AS,exp,48,↑,up,↑,0.6869707000441849,True,16,1,0,8
Y2-S2-176M26,2,177,AS,exp,39,→,right,→,0.8125360999256372,True,15,1,0,8
Y2-S2-176M26,2,178,AS,exp,37,↓,down,↓,0.6041746998671442,True,15,1,0,8
Y2-S2-176M26,2,179,AS,exp,45,↑,up,↑,0.6022562000434846,True,15,1,0,8
Y2-S2-176M26,2,180,AS,exp,32,→,right,→,0.6599165999796242,True,14,1,0,8
Y2-S2-176M26,2,181,AS,exp,28,←,left,←,0.6504089999943972,True,14,1,0,8
Y2-S2-176M26,2,182,AS,exp,33,→,right,→,0.648330399999395,True,14,1,0,8
Y2-S2-176M26,2,183,AS,exp,34,↓,up,↑,0.7341716000810266,False,13,-1,1,9
Y2-S2-176M26,2,184,AS,exp,45,←,left,←,0.6735757000278682,True,14,-1,0,9
Y2-S2-176M26,2,185,AS,exp,29,↓,left,←,1.2337422999553382,False,14,-1,0,9
Y2-S2-176M26,2,186,AS,exp,33,→,right,→,0.5554802999831736,True,15,-1,0,9
Y2-S2-176M26,2,187,AS,exp,26,←,left,←,0.5161387999542058,True,15,-1,0,9
Y2-S2-176M26,2,188,AS,exp,43,↓,up,↑,0.6586410999298096,False,15,-1,0,9
Y2-S2-176M26,2,189,AS,exp,47,↑,up,↑,0.5734967000316828,True,16,-1,0,9
Y2-S2-176M26,2,190,AS,exp,37,↓,up,↑,1.3490808999631554,False,16,-1,0,9
Y2-S2-176M26,2,191,AS,exp,44,→,left,←,0.8331266001332551,False,17,-1,0,9
Y2-S2-176M26,2,192,AS,exp,30,↑,up,↑,0.5362205000128597,True,18,-1,0,9
Y2-S2-176M26,2,193,AS,exp,50,↓,down,↓,0.6343069998547435,True,18,-1,0,9
Y2-S2-176M26,2,194,AS,exp,41,↑,up,↑,1.3010767998639494,True,18,1,1,10
Y2-S2-176M26,2,195,AS,exp,34,↓,down,↓,0.7288174000568688,True,17,1,0,10
Y2-S2-176M26,2,196,AS,exp,36,↑,left,←,0.7697823999915272,False,17,-1,1,11
Y2-S2-176M26,2,197,AS,exp,27,↓,down,↓,0.789128800155595,True,18,-1,0,11
Y2-S2-176M26,2,198,AS,exp,44,←,right,→,0.8907778998836875,False,18,-1,0,11
Y2-S2-176M26,2,199,AS,exp,27,→,right,→,0.6793913999572396,True,19,-1,0,11
Y2-S2-176M26,2,200,AS,exp,34,←,left,←,0.5306859000120312,True,19,-1,0,11
Y2-S2-176M26,2,201,AS,exp,48,→,right,→,0.7778560998849571,True,19,1,1,12
Y2-S2-176M26,2,202,AS,exp,49,↑,up,↑,0.5115874002221972,True,18,1,0,12
Y2-S2-176M26,2,203,AS,exp,49,↓,down,↓,0.5988453000318259,True,18,1,0,12
Y2-S2-176M26,2,204,AS,exp,39,←,left,←,0.5783069999888539,True,18,1,0,12
Y2-S2-176M26,2,205,AS,exp,42,↓,down,↓,0.6008370998315513,True,17,1,0,12
Y2-S2-176M26,2,206,AS,exp,26,→,right,→,0.6944307000376284,True,17,1,0,12
Y2-S2-176M26,2,207,AS,exp,49,↓,down,↓,0.5844403000082821,True,17,1,0,12
Y2-S2-176M26,2,208,AS,exp,44,→,right,→,0.7667012000456452,True,16,1,0,12
Y2-S2-176M26,2,209,AS,exp,43,←,left,←,1.7809643000364304,True,16,1,0,12
Y2-S2-176M26,2,210,AS,exp,39,→,right,→,0.5791471998672932,True,16,1,0,12
Y2-S2-176M26,2,211,AS,exp,44,↓,down,↓,0.5991211000364274,True,15,1,0,12
Y2-S2-176M26,2,212,AS,exp,43,↑,up,↑,0.5773104000836611,True,15,1,0,12
Y2-S2-176M26,2,213,AS,exp,49,↓,up,↑,0.8173760999925435,False,15,-1,1,13
Y2-S2-176M26,2,214,AS,exp,38,↑,up,↑,0.5985769000835717,True,16,-1,0,13
Y2-S2-176M26,2,215,AS,exp,50,↓,left,←,0.7109544000122696,False,16,-1,0,13
Y2-S2-176M26,2,216,AS,exp,34,←,right,→,0.8163541001267731,False,17,-1,0,13
Y2-S2-176M26,2,217,AS,exp,27,↑,up,↑,0.5240334998816252,True,18,-1,0,13
Y2-S2-176M26,2,218,AS,exp,36,←,left,←,0.6209474999923259,True,18,-1,0,13
Y2-S2-176M26,2,219,AS,exp,41,→,right,→,0.4884311000350863,True,18,1,1,14
Y2-S2-176M26,2,220,AS,exp,49,←,left,←,0.7071888998616487,True,17,1,0,14
Y2-S2-176M26,2,221,AS,exp,34,↓,down,↓,0.5955970000941306,True,17,1,0,14
Y2-S2-176M26,2,222,AS,exp,35,←,left,←,0.5695923999883235,True,17,1,0,14
Y2-S2-176M26,2,223,AS,exp,47,→,right,→,0.7516524000093341,True,16,1,0,14
Y2-S2-176M26,2,224,AS,exp,35,↓,down,↓,0.6612768000923097,True,16,1,0,14
Y2-S2-176M26,2,225,AS,exp,42,←,left,←,0.6179922001902014,True,16,1,0,14
Y2-S2-176M26,2,226,AS,exp,33,→,left,←,0.7169081999454647,False,15,-1,1,15
Y2-S2-176M26,2,227,AS,exp,36,↑,up,↑,0.6189251998439431,True,16,-1,0,15
Y2-S2-176M26,2,228,AS,exp,50,↓,down,↓,0.6480900999158621,True,16,-1,0,15
Y2-S2-176M26,2,229,AS,exp,49,↑,right,→,1.0150415999814868,False,16,-1,0,15
Y2-S2-176M26,2,230,AS,exp,31,→,right,→,0.8871782999485731,True,17,-1,0,15
Y2-S2-176M26,2,231,AS,exp,33,↓,down,↓,0.6563658001832664,True,17,-1,0,15
Y2-S2-176M26,2,232,AS,exp,26,↑,up,↑,0.6052561001852155,True,17,1,1,16
Y2-S2-176M26,3,233,AS,intra_train,46,←,left,←,0.6486206999979913,True,27,-,-,-
Y2-S2-176M26,3,234,AS,intra_train,39,↓,down,↓,0.7528760000132024,True,27,-,-,-
Y2-S2-176M26,3,235,AS,intra_train,45,→,right,→,0.5505566000938416,True,27,-,-,-
Y2-S2-176M26,3,236,AS,intra_train,49,←,left,←,0.5840280998963863,True,27,-,-,-
Y2-S2-176M26,3,237,AS,intra_train,45,↑,up,↑,0.6337377999443561,True,27,-,-,-
Y2-S2-176M26,3,238,AS,exp,34,→,right,→,0.634695400018245,True,18,0,0,0
Y2-S2-176M26,3,239,AS,exp,37,↑,up,↑,0.7582032000645995,True,18,0,0,0
Y2-S2-176M26,3,240,AS,exp,48,←,left,←,0.5789053000044078,True,18,1,0,0
Y2-S2-176M26,3,241,AS,exp,36,↓,up,↑,0.7637804001569748,False,17,-1,1,1
Y2-S2-176M26,3,242,AS,exp,37,←,left,←,0.5885344999842346,True,18,-1,0,1
Y2-S2-176M26,3,243,AS,exp,33,↓,down,↓,0.8565839999355376,True,18,-1,0,1
Y2-S2-176M26,3,244,AS,exp,36,→,right,→,0.5361081000883132,True,18,1,1,2
Y2-S2-176M26,3,245,AS,exp,25,←,left,←,0.5565999001264572,True,17,1,0,2
Y2-S2-176M26,3,246,AS,exp,33,↑,up,↑,0.5256631001830101,True,17,1,0,2
Y2-S2-176M26,3,247,AS,exp,33,→,right,→,0.48814569995738566,True,17,1,0,2
Y2-S2-176M26,3,248,AS,exp,39,↑,up,↑,0.5885410001501441,True,16,1,0,2
Y2-S2-176M26,3,249,AS,exp,48,→,left,←,0.8549977999646217,False,16,-1,1,3
Y2-S2-176M26,3,250,AS,exp,27,↑,up,↑,0.6805910998955369,True,17,-1,0,3
Y2-S2-176M26,3,251,AS,exp,32,↓,down,↓,1.1986324000172317,True,17,-1,0,3
Y2-S2-176M26,3,252,AS,exp,37,←,left,←,1.1777526999358088,True,17,1,1,4
Y2-S2-176M26,3,253,AS,exp,50,↑,left,←,0.6133946999907494,False,16,-1,1,5
Y2-S2-176M26,3,254,AS,exp,25,←,left,←,0.5234755999408662,True,17,-1,0,5
Y2-S2-176M26,3,255,AS,exp,32,↓,down,↓,0.9924959000200033,True,17,-1,0,5
Y2-S2-176M26,3,256,AS,exp,36,←,left,←,0.5473553000483662,True,17,1,1,6
Y2-S2-176M26,3,257,AS,exp,46,↓,down,↓,0.652152800001204,True,16,1,0,6
Y2-S2-176M26,3,258,AS,exp,43,←,left,←,0.46363560017198324,True,16,1,0,6
Y2-S2-176M26,3,259,AS,exp,33,↑,up,↑,0.5623033000156283,True,16,1,0,6
Y2-S2-176M26,3,260,AS,exp,28,↓,right,→,0.9473113999702036,False,15,-1,1,7
Y2-S2-176M26,3,261,AS,exp,46,→,down,↓,0.8028720999136567,False,16,-1,0,7
Y2-S2-176M26,3,262,AS,exp,30,↑,up,↑,0.5008086999878287,True,17,-1,0,7
Y2-S2-176M26,3,263,AS,exp,32,↓,down,↓,0.6279153001960367,True,17,-1,0,7
Y2-S2-176M26,3,264,AS,exp,41,←,left,←,1.4981142000760883,True,17,1,1,8
Y2-S2-176M26,3,265,AS,exp,46,↑,up,↑,0.5771878999657929,True,16,1,0,8
Y2-S2-176M26,3,266,AS,exp,42,←,right,→,0.5273826001212001,False,16,-1,1,9
Y2-S2-176M26,3,267,AS,exp,37,↑,down,↓,1.0150425999891013,False,17,-1,0,9
Y2-S2-176M26,3,268,AS,exp,31,↓,down,↓,0.7766690000426024,True,18,-1,0,9
Y2-S2-176M26,3,269,AS,exp,26,↑,up,↑,0.5354158000554889,True,18,-1,0,9
Y2-S2-176M26,3,270,AS,exp,30,→,right,→,0.7317291998770088,True,18,1,1,10
Y2-S2-176M26,3,271,AS,exp,39,↑,up,↑,0.7922667998354882,True,17,1,0,10
Y2-S2-176M26,3,272,AS,exp,31,→,right,→,0.5736855000723153,True,17,1,0,10
Y2-S2-176M26,3,273,AS,exp,28,↑,right,→,1.062286000000313,False,17,-1,1,11
Y2-S2-176M26,3,274,AS,exp,44,→,right,→,0.5360803999938071,True,18,-1,0,11
Y2-S2-176M26,3,275,AS,exp,37,↑,up,↑,1.009965700097382,True,18,-1,0,11
Y2-S2-176M26,3,276,AS,exp,36,→,right,→,0.7117510999087244,True,18,1,1,12
Y2-S2-176M26,3,277,AS,exp,45,↑,up,↑,0.5396099998615682,True,17,1,0,12
Y2-S2-176M26,3,278,AS,exp,44,←,left,←,0.5082608999218792,True,17,1,0,12
Y2-S2-176M26,3,279,AS,exp,37,↓,right,→,0.8738460999447852,False,17,-1,1,13
Y2-S2-176M26,3,280,AS,exp,39,←,left,←,0.593909899936989,True,18,-1,0,13
Y2-S2-176M26,3,281,AS,exp,27,↑,up,↑,0.4974193999078125,True,18,-1,0,13
Y2-S2-176M26,3,282,AS,exp,44,↓,up,↑,1.0103613999672234,False,18,-1,0,13
Y2-S2-176M26,3,283,AS,exp,36,↑,up,↑,1.2433877000585198,True,19,-1,0,13
Y2-S2-176M26,3,284,AS,exp,33,→,right,→,0.6341758999042213,True,19,-1,0,13
Y2-S2-176M26,3,285,AS,exp,35,↑,up,↑,0.6834100000560284,True,19,1,1,14
Y2-S2-176M26,3,286,AS,exp,36,↓,down,↓,0.7651064000092447,True,18,1,0,14
Y2-S2-176M26,3,287,AS,exp,45,→,right,→,0.7167205000296235,True,18,1,0,14
Y2-S2-176M26,3,288,AS,exp,48,↑,up,↑,0.5431391999591142,True,18,1,0,14
Y2-S2-176M26,3,289,AS,exp,38,←,left,←,0.5775005000177771,True,17,1,0,14
Y2-S2-176M26,3,290,AS,exp,50,→,right,→,0.5232333999592811,True,17,1,0,14
Y2-S2-176M26,3,291,AS,exp,36,↑,up,↑,0.59171920013614,True,17,1,0,14
Y2-S2-176M26,3,292,AS,exp,40,←,left,←,0.6058277999982238,True,16,1,0,14
Y2-S2-176M26,3,293,AS,exp,47,↑,up,↑,0.6453919000923634,True,16,1,0,14
Y2-S2-176M26,3,294,AS,exp,36,→,right,→,0.5380599000491202,True,16,1,0,14
Y2-S2-176M26,3,295,AS,exp,50,↓,left,←,0.46677669999189675,False,15,-1,1,15
Y2-S2-176M26,3,296,AS,exp,36,→,right,→,0.45714739989489317,True,16,-1,0,15
Y2-S2-176M26,3,297,AS,exp,30,↓,down,↓,0.6183291000779718,True,16,-1,0,15
Y2-S2-176M26,3,298,AS,exp,46,↑,down,↓,1.2000700999051332,False,16,-1,0,15
Y2-S2-176M26,3,299,AS,exp,45,↓,left,←,0.9969035000540316,False,17,-1,0,15
Y2-S2-176M26,3,300,AS,exp,28,←,left,←,0.5209089000709355,True,18,-1,0,15
Y2-S2-176M26,3,301,AS,exp,48,↑,up,↑,0.7318329000845551,True,18,-1,0,15
Y2-S2-176M26,3,302,AS,exp,46,←,left,←,0.5857243998907506,True,18,1,1,16
Y2-S2-176M26,4,303,PS,intra_train,26,↑,left,←,0.9962209998629987,False,15,-,-,-
Y2-S2-176M26,4,304,PS,intra_train,35,→,right,→,0.4573547998443246,True,15,-,-,-
Y2-S2-176M26,4,305,PS,intra_train,40,↑,up,↑,0.494551399955526,True,15,-,-,-
Y2-S2-176M26,4,306,PS,intra_train,35,←,left,←,0.4888400000054389,True,15,-,-,-
Y2-S2-176M26,4,307,PS,intra_train,45,→,right,→,0.5013766000047326,True,15,-,-,-
Y2-S2-176M26,4,308,PS,exp,45,↓,up,↑,0.8373208998236805,False,10,-1,0,0
Y2-S2-176M26,4,309,PS,exp,28,↑,left,←,0.7381517000030726,False,11,-1,0,0
Y2-S2-176M26,4,310,PS,exp,47,↓,down,↓,0.6090474999509752,True,12,-1,0,0
Y2-S2-176M26,4,311,PS,exp,47,→,right,→,0.49846030003391206,True,12,-1,0,0
Y2-S2-176M26,4,312,PS,exp,27,↑,up,↑,0.6464349001180381,True,12,1,1,1
Y2-S2-176M26,4,313,PS,exp,33,↓,down,↓,0.5492075001820922,True,11,1,0,1
Y2-S2-176M26,4,314,PS,exp,27,←,left,←,0.4553484001662582,True,11,1,0,1
Y2-S2-176M26,4,315,PS,exp,28,↑,up,↑,0.5253522000275552,True,11,1,0,1
Y2-S2-176M26,4,316,PS,exp,38,→,left,←,0.6920025998260826,False,10,-1,1,2
Y2-S2-176M26,4,317,PS,exp,46,↓,down,↓,0.6106499000452459,True,11,-1,0,2
Y2-S2-176M26,4,318,PS,exp,40,→,down,↓,0.7137485998682678,False,11,-1,0,2
Y2-S2-176M26,4,319,PS,exp,30,←,left,←,0.6073753000237048,True,12,-1,0,2
Y2-S2-176M26,4,320,PS,exp,39,↑,up,↑,0.5012197999749333,True,12,-1,0,2
Y2-S2-176M26,4,321,PS,exp,29,→,right,→,0.5099826999939978,True,12,1,1,3
Y2-S2-176M26,4,322,PS,exp,39,←,down,↓,0.7717967999633402,False,11,-1,1,4
Y2-S2-176M26,4,323,PS,exp,40,↑,up,↑,0.6265181999187917,True,12,-1,0,4
Y2-S2-176M26,4,324,PS,exp,32,←,left,←,0.7799285999499261,True,12,-1,0,4
Y2-S2-176M26,4,325,PS,exp,27,↓,down,↓,0.6108079999685287,True,12,1,1,5
Y2-S2-176M26,4,326,PS,exp,44,↑,up,↑,0.5584470999892801,True,11,1,0,5
Y2-S2-176M26,4,327,PS,exp,42,←,left,←,0.48405080009251833,True,11,1,0,5
Y2-S2-176M26,4,328,PS,exp,43,↓,up,↑,0.6870885000098497,False,11,-1,1,6
Y2-S2-176M26,4,329,PS,exp,25,↑,up,↑,0.46675759996287525,True,12,-1,0,6
Y2-S2-176M26,4,330,PS,exp,27,←,left,←,0.4601261999923736,True,12,-1,0,6
Y2-S2-176M26,4,331,PS,exp,30,↑,up,↑,0.4601507999468595,True,12,1,1,7
Y2-S2-176M26,4,332,PS,exp,47,→,right,→,0.5691387001425028,True,11,1,0,7
Y2-S2-176M26,4,333,PS,exp,45,←,left,←,0.6091694000642747,True,11,1,0,7
Y2-S2-176M26,4,334,PS,exp,37,↑,up,↑,0.4924518000334501,True,11,1,0,7
Y2-S2-176M26,4,335,PS,exp,48,↓,down,↓,0.6857515000738204,True,10,1,0,7
Y2-S2-176M26,4,336,PS,exp,36,↑,up,↑,0.5879977000877261,True,10,1,0,7
Y2-S2-176M26,4,337,PS,exp,44,←,right,→,0.8180263000540435,False,10,-1,1,8
Y2-S2-176M26,4,338,PS,exp,49,→,right,→,0.8719687999691814,True,11,-1,0,8
Y2-S2-176M26,4,339,PS,exp,41,↓,up,↑,0.6715611999388784,False,11,-1,0,8
Y2-S2-176M26,4,340,PS,exp,35,←,left,←,0.5703938999213278,True,12,-1,0,8
Y2-S2-176M26,4,341,PS,exp,46,↓,down,↓,0.6526784000452608,True,12,-1,0,8
Y2-S2-176M26,4,342,PS,exp,43,←,up,↑,0.7263160001020879,False,12,-1,0,8
Y2-S2-176M26,4,343,PS,exp,25,→,right,→,0.5064495000988245,True,13,-1,0,8
Y2-S2-176M26,4,344,PS,exp,33,←,left,←,0.5910815000534058,True,13,-1,0,8
Y2-S2-176M26,4,345,PS,exp,41,→,right,→,0.4555621000472456,True,13,1,1,9
Y2-S2-176M26,4,346,PS,exp,44,↓,down,↓,0.6770476000383496,True,12,1,0,9
Y2-S2-176M26,4,347,PS,exp,32,→,right,→,0.5143057000823319,True,12,1,0,9
Y2-S2-176M26,4,348,PS,exp,29,←,left,←,0.4719591001048684,True,12,1,0,9
Y2-S2-176M26,4,349,PS,exp,39,↓,down,↓,0.4750906000845134,True,11,1,0,9
Y2-S2-176M26,4,350,PS,exp,48,→,right,→,0.436113600153476,True,11,1,0,9
Y2-S2-176M26,4,351,PS,exp,39,↓,right,→,0.8474457000847906,False,11,-1,1,10
Y2-S2-176M26,4,352,PS,exp,25,↑,up,↑,0.42943229991942644,True,12,-1,0,10
Y2-S2-176M26,4,353,PS,exp,28,↓,down,↓,0.5937329998705536,True,12,-1,0,10
Y2-S2-176M26,4,354,PS,exp,40,→,left,←,0.7511098000686616,False,12,-1,0,10
Y2-S2-176M26,4,355,PS,exp,25,←,left,←,0.5309695000760257,True,13,-1,0,10
Y2-S2-176M26,4,356,PS,exp,32,↓,down,↓,0.5838150000199676,True,13,-1,0,10
Y2-S2-176M26,4,357,PS,exp,42,↑,up,↑,0.39420500001870096,True,13,1,1,11
Y2-S2-176M26,4,358,PS,exp,37,↓,left,←,0.6347292000427842,False,12,-1,1,12
Y2-S2-176M26,4,359,PS,exp,35,→,right,→,0.559828600147739,True,13,-1,0,12
Y2-S2-176M26,4,360,PS,exp,37,↓,down,↓,0.9635342000983655,True,13,-1,0,12
Y2-S2-176M26,4,361,PS,exp,49,←,left,←,0.41897109989076853,True,13,1,1,13
Y2-S2-176M26,4,362,PS,exp,38,↓,down,↓,0.6247768001630902,True,12,1,0,13
Y2-S2-176M26,4,363,PS,exp,37,↑,up,↑,0.47206719988025725,True,12,1,0,13
Y2-S2-176M26,4,364,PS,exp,26,←,left,←,0.5315203999634832,True,12,1,0,13
Y2-S2-176M26,4,365,PS,exp,28,↓,down,↓,1.380392000079155,True,11,1,0,13
Y2-S2-176M26,4,366,PS,exp,49,→,right,→,0.5481541000772268,True,11,1,0,13
Y2-S2-176M26,4,367,PS,exp,29,↓,up,↑,0.5802845999132842,False,11,-1,1,14
Y2-S2-176M26,4,368,PS,exp,49,→,right,→,0.5679499001707882,True,12,-1,0,14
Y2-S2-176M26,4,369,PS,exp,32,↓,down,↓,0.6711732998955995,True,12,-1,0,14
Y2-S2-176M26,4,370,PS,exp,35,↑,up,↑,0.5321798999793828,True,12,1,1,15
Y2-S2-176M26,4,371,PS,exp,45,←,left,←,0.5777054999489337,True,11,1,0,15
Y2-S2-176M26,4,372,PS,exp,41,↓,down,↓,0.6034505001734942,True,11,1,0,15
Y2-S2-176M26,4,373,PS,exp,46,←,left,←,0.46197060006670654,True,11,1,0,15
Y2-S2-176M26,4,374,PS,exp,40,↑,up,↑,0.5045207000803202,True,10,1,0,15
Y2-S2-176M26,4,375,PS,exp,42,←,left,←,0.4319140000734478,True,10,1,0,15
Y2-S2-176M26,4,376,PS,exp,27,↓,right,→,0.9561400001402944,False,10,-1,1,16
Y2-S2-176M26,5,377,PS,intra_train,29,←,left,←,0.6789102000184357,True,15,-,-,-
Y2-S2-176M26,5,378,PS,intra_train,40,↓,down,↓,0.6003753999248147,True,15,-,-,-
Y2-S2-176M26,5,379,PS,intra_train,26,↑,up,↑,0.5351378000341356,True,15,-,-,-
Y2-S2-176M26,5,380,PS,intra_train,36,→,right,→,0.5202868999913335,True,15,-,-,-
Y2-S2-176M26,5,381,PS,intra_train,48,↓,down,↓,0.7027259001042694,True,15,-,-,-
Y2-S2-176M26,5,382,PS,exp,43,↑,up,↑,0.6040856000036001,True,10,0,0,0
Y2-S2-176M26,5,383,PS,exp,27,→,right,→,0.5511915001552552,True,10,0,0,0
Y2-S2-176M26,5,384,PS,exp,41,←,left,←,0.4958035999443382,True,10,1,0,0
Y2-S2-176M26,5,385,PS,exp,35,↑,up,↑,0.4283212998416275,True,9,1,0,0
Y2-S2-176M26,5,386,PS,exp,27,→,right,→,0.5177235000301152,True,9,1,0,0
Y2-S2-176M26,5,387,PS,exp,25,↑,down,↓,0.9564435000065714,False,9,-1,1,1
Y2-S2-176M26,5,388,PS,exp,46,←,left,←,0.6117742001079023,True,10,-1,0,1
Y2-S2-176M26,5,389,PS,exp,49,↑,up,↑,0.4486559999641031,True,10,-1,0,1
Y2-S2-176M26,5,390,PS,exp,29,→,right,→,0.5823760000057518,True,10,1,1,2
Y2-S2-176M26,5,391,PS,exp,29,↓,up,↑,0.694627100136131,False,9,-1,1,3
Y2-S2-176M26,5,392,PS,exp,28,←,right,→,0.8715022997930646,False,10,-1,0,3
Y2-S2-176M26,5,393,PS,exp,38,↓,down,↓,0.45156889990903437,True,11,-1,0,3
Y2-S2-176M26,5,394,PS,exp,43,→,right,→,0.5430885998066515,True,11,-1,0,3
Y2-S2-176M26,5,395,PS,exp,44,←,left,←,0.541726800147444,True,11,1,1,4
Y2-S2-176M26,5,396,PS,exp,44,↓,down,↓,0.746282699983567,True,10,1,0,4
Y2-S2-176M26,5,397,PS,exp,30,←,right,→,0.6350572998635471,False,10,-1,1,5
Y2-S2-176M26,5,398,PS,exp,38,↓,down,↓,0.654045500094071,True,11,-1,0,5
Y2-S2-176M26,5,399,PS,exp,38,←,left,←,0.4776435000821948,True,11,-1,0,5
Y2-S2-176M26,5,400,PS,exp,33,→,right,→,0.5094220000319183,True,11,1,1,6
Y2-S2-176M26,5,401,PS,exp,50,↑,up,↑,0.49375360016711056,True,10,1,0,6
Y2-S2-176M26,5,402,PS,exp,43,↓,left,←,0.7798907000105828,False,10,-1,1,7
Y2-S2-176M26,5,403,PS,exp,47,←,left,←,0.5166366000194103,True,11,-1,0,7
Y2-S2-176M26,5,404,PS,exp,28,↑,left,←,0.47859430010430515,False,11,-1,0,7
Y2-S2-176M26,5,405,PS,exp,42,←,left,←,0.44437320018187165,True,12,-1,0,7
Y2-S2-176M26,5,406,PS,exp,41,→,right,→,0.4738849999848753,True,12,-1,0,7
Y2-S2-176M26,5,407,PS,exp,34,←,left,←,0.4865648001432419,True,12,1,1,8
Y2-S2-176M26,5,408,PS,exp,42,↑,up,↑,0.4288929000031203,True,11,1,0,8
Y2-S2-176M26,5,409,PS,exp,47,→,left,←,1.0469372000079602,False,11,-1,1,9
Y2-S2-176M26,5,410,PS,exp,29,←,left,←,0.5564797997940332,True,12,-1,0,9
Y2-S2-176M26,5,411,PS,exp,48,→,right,→,0.6021223999559879,True,12,-1,0,9
Y2-S2-176M26,5,412,PS,exp,25,↑,up,↑,0.49678660021163523,True,12,1,1,10
Y2-S2-176M26,5,413,PS,exp,25,↓,down,↓,0.5171781000681221,True,11,1,0,10
Y2-S2-176M26,5,414,PS,exp,43,↑,up,↑,0.49287179997190833,True,11,1,0,10
Y2-S2-176M26,5,415,PS,exp,41,↓,down,↓,0.6512702000327408,True,11,1,0,10
Y2-S2-176M26,5,416,PS,exp,49,↑,up,↑,0.48148120008409023,True,10,1,0,10
Y2-S2-176M26,5,417,PS,exp,31,↓,down,↓,0.5665426999330521,True,10,1,0,10
Y2-S2-176M26,5,418,PS,exp,38,←,left,←,0.7047089000698179,True,10,1,0,10
Y2-S2-176M26,5,419,PS,exp,37,↑,up,↑,0.4320920000318438,True,9,1,0,10
Y2-S2-176M26,5,420,PS,exp,41,→,down,↓,0.5733676000963897,False,9,-1,1,11
Y2-S2-176M26,5,421,PS,exp,45,←,left,←,0.4461581001523882,True,10,-1,0,11
Y2-S2-176M26,5,422,PS,exp,27,↑,up,↑,0.4638359001837671,True,10,-1,0,11
Y2-S2-176M26,5,423,PS,exp,27,→,right,→,0.43985259998589754,True,10,1,1,12
Y2-S2-176M26,5,424,PS,exp,35,↓,down,↓,0.5203571000602096,True,9,1,0,12
Y2-S2-176M26,5,425,PS,exp,29,→,right,→,0.41182799986563623,True,9,1,0,12
Y2-S2-176M26,5,426,PS,exp,25,↓,down,↓,0.6307962001301348,True,9,1,0,12
Y2-S2-176M26,5,427,PS,exp,35,←,left,←,0.5208300999365747,True,8,1,0,12
Y2-S2-176M26,5,428,PS,exp,30,↓,down,↓,0.5134242998901755,True,8,1,0,12
Y2-S2-176M26,5,429,PS,exp,30,→,right,→,0.4655359999742359,True,8,1,0,12
Y2-S2-176M26,5,430,PS,exp,27,↓,down,↓,0.684099999954924,True,7,1,0,12
Y2-S2-176M26,5,431,PS,exp,43,←,left,←,0.5461744999047369,True,7,1,0,12
Y2-S2-176M26,5,432,PS,exp,38,↑,up,↑,0.5100763000082225,True,7,1,0,12
Y2-S2-176M26,5,433,PS,exp,26,→,down,↓,0.6551314999815077,False,6,-1,1,13
Y2-S2-176M26,5,434,PS,exp,46,↓,down,↓,0.7923075000289828,True,7,-1,0,13
Y2-S2-176M26,5,435,PS,exp,31,→,right,→,0.4727929001674056,True,7,-1,0,13
Y2-S2-176M26,5,436,PS,exp,41,↓,down,↓,0.5765810001175851,True,7,1,1,14
Y2-S2-176M26,5,437,PS,exp,30,↑,up,↑,0.447904400061816,True,6,1,0,14
Y2-S2-176M26,5,438,PS,exp,36,↓,down,↓,0.7069335000123829,True,6,1,0,14
Y2-S2-176M26,5,439,PS,exp,49,↑,up,↑,0.4449235999491066,True,6,1,0,14
Y2-S2-176M26,5,440,PS,exp,47,←,right,→,0.7134565999731421,False,5,-1,1,15
Y2-S2-176M26,5,441,PS,exp,36,↓,down,↓,0.530169399920851,True,6,-1,0,15
Y2-S2-176M26,5,442,PS,exp,29,←,left,←,0.6744276001118124,True,6,-1,0,15
Y2-S2-176M26,5,443,PS,exp,31,↑,up,↑,0.5463159000501037,True,6,1,1,16
Y2-S2-176M26,6,444,AS,intra_train,30,↓,down,↓,0.6227319999597967,True,27,-,-,-
Y2-S2-176M26,6,445,AS,intra_train,43,←,left,←,0.5174173000268638,True,27,-,-,-
Y2-S2-176M26,6,446,AS,intra_train,43,→,right,→,0.4675720001105219,True,27,-,-,-
Y2-S2-176M26,6,447,AS,intra_train,49,←,left,←,0.9794327998533845,True,27,-,-,-
Y2-S2-176M26,6,448,AS,intra_train,39,↓,down,↓,0.6901849999558181,True,27,-,-,-
Y2-S2-176M26,6,449,AS,exp,34,→,right,→,1.1570479001384228,True,18,0,0,0
Y2-S2-176M26,6,450,AS,exp,44,↓,down,↓,0.7084816000424325,True,18,0,0,0
Y2-S2-176M26,6,451,AS,exp,37,←,up,↑,0.9091610999312252,False,18,-1,0,0
Y2-S2-176M26,6,452,AS,exp,32,↓,down,↓,0.7295814000535756,True,19,-1,0,0
Y2-S2-176M26,6,453,AS,exp,45,→,right,→,0.514954200014472,True,19,-1,0,0
Y2-S2-176M26,6,454,AS,exp,46,↓,left,←,0.7129482000600547,False,19,-1,0,0
Y2-S2-176M26,6,455,AS,exp,49,↑,right,→,0.6874444999266416,False,20,-1,0,0
Y2-S2-176M26,6,456,AS,exp,38,←,left,←,0.7385891999583691,True,21,-1,0,0
Y2-S2-176M26,6,457,AS,exp,25,↓,down,↓,0.9360114999581128,True,21,-1,0,0
Y2-S2-176M26,6,458,AS,exp,33,→,right,→,0.7052513998933136,True,21,1,1,1
Y2-S2-176M26,6,459,AS,exp,37,←,left,←,0.6252321999054402,True,20,1,0,1
Y2-S2-176M26,6,460,AS,exp,41,↓,down,↓,0.5999863999895751,True,20,1,0,1
Y2-S2-176M26,6,461,AS,exp,48,↑,right,→,0.780682299984619,False,20,-1,1,2
Y2-S2-176M26,6,462,AS,exp,34,←,left,←,0.7357327002100646,True,21,-1,0,2
Y2-S2-176M26,6,463,AS,exp,50,↑,up,↑,0.8929435999598354,True,21,-1,0,2
Y2-S2-176M26,6,464,AS,exp,39,←,left,←,1.4820872000418603,True,21,1,1,3
Y2-S2-176M26,6,465,AS,exp,26,↓,down,↓,0.6446346000302583,True,20,1,0,3
Y2-S2-176M26,6,466,AS,exp,30,→,right,→,0.5203672000207007,True,20,1,0,3
Y2-S2-176M26,6,467,AS,exp,39,←,left,←,0.632929699961096,True,20,1,0,3
Y2-S2-176M26,6,468,AS,exp,42,↑,up,↑,0.5983301000669599,True,19,1,0,3
Y2-S2-176M26,6,469,AS,exp,27,↓,down,↓,0.7688619999680668,True,19,1,0,3
Y2-S2-176M26,6,470,AS,exp,49,←,left,←,1.205086800036952,True,19,1,0,3
Y2-S2-176M26,6,471,AS,exp,40,↑,left,←,0.762195099843666,False,18,-1,1,4
Y2-S2-176M26,6,472,AS,exp,42,→,right,→,0.6143942000344396,True,19,-1,0,4
Y2-S2-176M26,6,473,AS,exp,38,↓,down,↓,0.847869300050661,True,19,-1,0,4
Y2-S2-176M26,6,474,AS,exp,37,→,up,↑,1.0647508001420647,False,19,-1,0,4
Y2-S2-176M26,6,475,AS,exp,43,↑,right,→,0.5067001001443714,False,20,-1,0,4
Y2-S2-176M26,6,476,AS,exp,27,→,right,→,0.4676451999694109,True,21,-1,0,4
Y2-S2-176M26,6,477,AS,exp,28,↓,down,↓,0.799269299954176,True,21,-1,0,4
Y2-S2-176M26,6,478,AS,exp,31,↑,up,↑,0.45047989999875426,True,21,1,1,5
Y2-S2-176M26,6,479,AS,exp,31,→,right,→,0.636744000017643,True,20,1,0,5
Y2-S2-176M26,6,480,AS,exp,27,↑,up,↑,0.4674849999137223,True,20,1,0,5
Y2-S2-176M26,6,481,AS,exp,30,←,left,←,0.6006763000041246,True,20,1,0,5
Y2-S2-176M26,6,482,AS,exp,35,↑,up,↑,1.0078223999589682,True,19,1,0,5
Y2-S2-176M26,6,483,AS,exp,33,↓,left,←,0.522239200072363,False,19,-1,1,6
Y2-S2-176M26,6,484,AS,exp,46,←,left,←,0.7033609000500292,True,20,-1,0,6
Y2-S2-176M26,6,485,AS,exp,37,→,right,→,0.6192016999702901,True,20,-1,0,6
Y2-S2-176M26,6,486,AS,exp,35,↑,up,↑,0.744096300099045,True,20,1,1,7
Y2-S2-176M26,6,487,AS,exp,39,→,up,↑,0.7636885000392795,False,19,-1,1,8
Y2-S2-176M26,6,488,AS,exp,47,↓,down,↓,0.6148804998956621,True,20,-1,0,8
Y2-S2-176M26,6,489,AS,exp,26,→,right,→,0.7030222001485527,True,20,-1,0,8
Y2-S2-176M26,6,490,AS,exp,41,↓,down,↓,1.2040666998364031,True,20,1,1,9
Y2-S2-176M26,6,491,AS,exp,40,→,right,→,0.5192800001241267,True,19,1,0,9
Y2-S2-176M26,6,492,AS,exp,34,↓,down,↓,0.5905777001753449,True,19,1,0,9
Y2-S2-176M26,6,493,AS,exp,39,→,right,→,0.48866969998925924,True,19,1,0,9
Y2-S2-176M26,6,494,AS,exp,43,↓,down,↓,0.5244730999693274,True,18,1,0,9
Y2-S2-176M26,6,495,AS,exp,50,→,right,→,0.4340570999775082,True,18,1,0,9
Y2-S2-176M26,6,496,AS,exp,26,←,left,←,1.5293598999269307,True,18,1,0,9
Y2-S2-176M26,6,497,AS,exp,37,↑,up,↑,0.5130787000525743,True,17,1,0,9
Y2-S2-176M26,6,498,AS,exp,25,↓,down,↓,0.7033458000514656,True,17,1,0,9
Y2-S2-176M26,6,499,AS,exp,31,←,left,←,0.9465669998899102,True,17,1,0,9
Y2-S2-176M26,6,500,AS,exp,47,↓,down,↓,0.5478493999689817,True,16,1,0,9
Y2-S2-176M26,6,501,AS,exp,42,↑,up,↑,0.367288300069049,True,16,1,0,9
Y2-S2-176M26,6,502,AS,exp,47,↓,left,←,0.9836949000600725,False,16,-1,1,10
Y2-S2-176M26,6,503,AS,exp,46,→,right,→,0.5695892998483032,True,17,-1,0,10
Y2-S2-176M26,6,504,AS,exp,25,↓,down,↓,0.6619637000840157,True,17,-1,0,10
Y2-S2-176M26,6,505,AS,exp,48,→,right,→,0.9119986000005156,True,17,1,1,11
Y2-S2-176M26,6,506,AS,exp,33,↓,down,↓,0.869013600051403,True,16,1,0,11
Y2-S2-176M26,6,507,AS,exp,28,→,right,→,0.8658408999908715,True,16,1,0,11
Y2-S2-176M26,6,508,AS,exp,43,↓,down,↓,1.2183237001299858,True,16,1,0,11
Y2-S2-176M26,6,509,AS,exp,40,←,left,←,0.43124770000576973,True,15,1,0,11
Y2-S2-176M26,6,510,AS,exp,33,→,right,→,0.5554766999557614,True,15,1,0,11
Y2-S2-176M26,6,511,AS,exp,42,←,right,→,0.6753907999955118,False,15,-1,1,12
Y2-S2-176M26,6,512,AS,exp,30,→,right,→,0.8963260999880731,True,16,-1,0,12
Y2-S2-176M26,6,513,AS,exp,30,↓,down,↓,0.6656148999463767,True,16,-1,0,12
Y2-S2-176M26,6,514,AS,exp,39,↑,up,↑,0.4713159999810159,True,16,1,1,13
Y2-S2-176M26,6,515,AS,exp,46,↓,up,↑,0.7508292999118567,False,15,-1,1,14
Y2-S2-176M26,6,516,AS,exp,30,↑,right,→,0.7677086000330746,False,16,-1,0,14
Y2-S2-176M26,6,517,AS,exp,43,→,left,←,0.7250016001053154,False,17,-1,0,14
Y2-S2-176M26,6,518,AS,exp,32,←,left,←,0.7252160999923944,True,18,-1,0,14
Y2-S2-176M26,6,519,AS,exp,37,↑,up,↑,0.5894150999374688,True,18,-1,0,14
Y2-S2-176M26,6,520,AS,exp,34,←,right,→,0.9534122999757528,False,18,-1,0,14
Y2-S2-176M26,6,521,AS,exp,34,→,right,→,0.8176584001630545,True,19,-1,0,14
Y2-S2-176M26,6,522,AS,exp,33,←,left,←,0.5221726999152452,True,19,-1,0,14
Y2-S2-176M26,6,523,AS,exp,36,→,right,→,0.5083427000790834,True,19,1,1,15
Y2-S2-176M26,6,524,AS,exp,38,↓,down,↓,0.6009009999688715,True,18,1,0,15
Y2-S2-176M26,6,525,AS,exp,34,→,right,→,0.5791605999693274,True,18,1,0,15
Y2-S2-176M26,6,526,AS,exp,31,←,left,←,1.451803799951449,True,18,1,0,15
Y2-S2-176M26,6,527,AS,exp,48,↑,up,↑,0.5260054001118988,True,17,1,0,15
Y2-S2-176M26,6,528,AS,exp,47,→,right,→,0.6018464998342097,True,17,1,0,15
Y2-S2-176M26,6,529,AS,exp,35,←,left,←,0.5837190998718143,True,17,1,0,15
Y2-S2-176M26,6,530,AS,exp,34,↓,down,↓,0.5699549000710249,True,16,1,0,15
Y2-S2-176M26,6,531,AS,exp,49,←,left,←,0.5087192999199033,True,16,1,0,15
Y2-S2-176M26,6,532,AS,exp,31,↓,up,↑,0.7223056999500841,False,16,-1,1,16
Y2-S2-176M26,7,533,AS,intra_train,34,←,left,←,0.6678576997946948,True,27,-,-,-
Y2-S2-176M26,7,534,AS,intra_train,45,↑,up,↑,0.518345900112763,True,27,-,-,-
Y2-S2-176M26,7,535,AS,intra_train,50,↓,down,↓,0.5341284999158233,True,27,-,-,-
Y2-S2-176M26,7,536,AS,intra_train,45,→,right,→,0.652556800050661,True,27,-,-,-
Y2-S2-176M26,7,537,AS,intra_train,28,↓,down,↓,0.583867099834606,True,27,-,-,-
Y2-S2-176M26,7,538,AS,exp,44,←,left,←,0.5268456998746842,True,18,0,0,0
Y2-S2-176M26,7,539,AS,exp,25,↓,down,↓,0.6806705000344664,True,18,0,0,0
Y2-S2-176M26,7,540,AS,exp,36,↑,up,↑,0.558130000019446,True,18,1,0,0
Y2-S2-176M26,7,541,AS,exp,40,↓,up,↑,1.0783278001472354,False,17,-1,1,1
Y2-S2-176M26,7,542,AS,exp,43,→,right,→,0.5411096001043916,True,18,-1,0,1
Y2-S2-176M26,7,543,AS,exp,26,←,left,←,0.7093365998007357,True,18,-1,0,1
Y2-S2-176M26,7,544,AS,exp,25,↑,up,↑,0.49835560005158186,True,18,1,1,2
Y2-S2-176M26,7,545,AS,exp,46,↓,down,↓,0.5140095001552254,True,17,1,0,2
Y2-S2-176M26,7,546,AS,exp,35,→,right,→,0.4701392001006752,True,17,1,0,2
Y2-S2-176M26,7,547,AS,exp,32,←,left,←,0.4797072000801563,True,17,1,0,2
Y2-S2-176M26,7,548,AS,exp,49,→,right,→,0.5390884999651462,True,16,1,0,2
Y2-S2-176M26,7,549,AS,exp,41,↑,up,↑,0.6510954999830574,True,16,1,0,2
Y2-S2-176M26,7,550,AS,exp,39,←,left,←,0.5156465000472963,True,16,1,0,2
Y2-S2-176M26,7,551,AS,exp,40,→,right,→,0.5628384998999536,True,15,1,0,2
Y2-S2-176M26,7,552,AS,exp,31,←,left,←,0.634101799922064,True,15,1,0,2
Y2-S2-176M26,7,553,AS,exp,30,→,right,→,0.5288324002176523,True,15,1,0,2
Y2-S2-176M26,7,554,AS,exp,40,↓,up,↑,0.7683550999499857,False,14,-1,1,3
Y2-S2-176M26,7,555,AS,exp,34,←,left,←,0.5035024001263082,True,15,-1,0,3
Y2-S2-176M26,7,556,AS,exp,26,↓,down,↓,0.6089099999517202,True,15,-1,0,3
Y2-S2-176M26,7,557,AS,exp,40,↑,up,↑,0.7109587998129427,True,15,1,1,4
Y2-S2-176M26,7,558,AS,exp,44,←,up,↑,1.0068725000601262,False,14,-1,1,5
Y2-S2-176M26,7,559,AS,exp,41,↑,up,↑,0.4847983999643475,True,15,-1,0,5
Y2-S2-176M26,7,560,AS,exp,30,→,right,→,0.5822904000524431,True,15,-1,0,5
Y2-S2-176M26,7,561,AS,exp,39,←,left,←,0.5885242000222206,True,15,1,1,6
Y2-S2-176M26,7,562,AS,exp,47,↑,up,↑,0.4742640999611467,True,14,1,0,6
Y2-S2-176M26,7,563,AS,exp,26,↓,down,↓,0.6784648001194,True,14,1,0,6
Y2-S2-176M26,7,564,AS,exp,40,←,left,←,0.7492316998541355,True,14,1,0,6
Y2-S2-176M26,7,565,AS,exp,39,↓,up,↑,0.9050648000556976,False,13,-1,1,7
Y2-S2-176M26,7,566,AS,exp,42,↑,up,↑,0.5437366999685764,True,14,-1,0,7
Y2-S2-176M26,7,567,AS,exp,38,←,right,→,0.624929599929601,False,14,-1,0,7
Y2-S2-176M26,7,568,AS,exp,27,↓,down,↓,0.7508972999639809,True,15,-1,0,7
Y2-S2-176M26,7,569,AS,exp,47,→,right,→,0.7037126999348402,True,15,-1,0,7
Y2-S2-176M26,7,570,AS,exp,40,←,left,←,0.48344040010124445,True,15,1,1,8
Y2-S2-176M26,7,571,AS,exp,43,↑,up,↑,0.5085668000392616,True,14,1,0,8
Y2-S2-176M26,7,572,AS,exp,50,↓,down,↓,0.5409222999587655,True,14,1,0,8
Y2-S2-176M26,7,573,AS,exp,50,←,left,←,0.6205187998712063,True,14,1,0,8
Y2-S2-176M26,7,574,AS,exp,34,→,right,→,0.5089307001326233,True,13,1,0,8
Y2-S2-176M26,7,575,AS,exp,30,↑,up,↑,0.8577524998690933,True,13,1,0,8
Y2-S2-176M26,7,576,AS,exp,40,→,right,→,0.5640375998336822,True,13,1,0,8
Y2-S2-176M26,7,577,AS,exp,25,↑,up,↑,0.8330793001223356,True,12,1,0,8
Y2-S2-176M26,7,578,AS,exp,50,→,right,→,0.5302350001875311,True,12,1,0,8
Y2-S2-176M26,7,579,AS,exp,36,↑,up,↑,0.6155352999921888,True,12,1,0,8
Y2-S2-176M26,7,580,AS,exp,43,←,left,←,0.5697421000804752,True,11,1,0,8
Y2-S2-176M26,7,581,AS,exp,44,↓,down,↓,0.5360620999708772,True,11,1,0,8
Y2-S2-176M26,7,582,AS,exp,26,→,right,→,0.5785447000525892,True,11,1,0,8
Y2-S2-176M26,7,583,AS,exp,38,↑,up,↑,0.7254604999907315,True,10,1,0,8
Y2-S2-176M26,7,584,AS,exp,29,←,left,←,0.48096369998529553,True,10,1,0,8
Y2-S2-176M26,7,585,AS,exp,40,↑,up,↑,0.8317032000049949,True,10,1,0,8
Y2-S2-176M26,7,586,AS,exp,46,→,right,→,0.6616661001462489,True,9,1,0,8
Y2-S2-176M26,7,587,AS,exp,34,↓,down,↓,0.7349294000305235,True,9,1,0,8
Y2-S2-176M26,7,588,AS,exp,38,↑,up,↑,0.738993400009349,True,9,1,0,8
Y2-S2-176M26,7,589,AS,exp,49,→,right,→,0.4686805000528693,True,8,1,0,8
Y2-S2-176M26,7,590,AS,exp,28,←,left,←,0.8774442998692393,True,8,1,0,8
Y2-S2-176M26,7,591,AS,exp,39,↑,up,↑,0.44635900016874075,True,8,1,0,8
Y2-S2-176M26,7,592,AS,exp,33,→,right,→,0.5895867999643087,True,7,1,0,8
Y2-S2-176M26,7,593,AS,exp,40,←,right,→,0.8215161999687552,False,7,-1,1,9
Y2-S2-176M26,7,594,AS,exp,47,↓,down,↓,0.5536588001996279,True,8,-1,0,9
Y2-S2-176M26,7,595,AS,exp,36,↑,up,↑,0.5603783000260592,True,8,-1,0,9
Y2-S2-176M26,7,596,AS,exp,27,↓,down,↓,0.6281407000496984,True,8,1,1,10
Y2-S2-176M26,7,597,AS,exp,26,↑,left,←,0.8623933999333531,False,7,-1,1,11
Y2-S2-176M26,7,598,AS,exp,27,↓,right,→,0.5109867001883686,False,8,-1,0,11
Y2-S2-176M26,7,599,AS,exp,29,↑,up,↑,0.6147606999147683,True,9,-1,0,11
Y2-S2-176M26,7,600,AS,exp,38,→,right,→,0.5042680001351982,True,9,-1,0,11
Y2-S2-176M26,7,601,AS,exp,25,↓,down,↓,0.7189144999720156,True,9,1,1,12
Y2-S2-176M26,7,602,AS,exp,25,←,left,←,0.5125641000922769,True,8,1,0,12
Y2-S2-176M26,7,603,AS,exp,28,→,right,→,0.7337428999599069,True,8,1,0,12
Y2-S2-176M26,7,604,AS,exp,29,←,left,←,0.5162333999760449,True,8,1,0,12
Y2-S2-176M26,7,605,AS,exp,31,↑,left,←,0.5682220999151468,False,7,-1,1,13
Y2-S2-176M26,7,606,AS,exp,25,←,right,→,1.412032000022009,False,8,-1,0,13
Y2-S2-176M26,7,607,AS,exp,31,↓,down,↓,0.873646599939093,True,9,-1,0,13
Y2-S2-176M26,7,608,AS,exp,42,→,left,←,0.8394283999223262,False,9,-1,0,13
Y2-S2-176M26,7,609,AS,exp,25,↓,up,↑,0.518255400005728,False,10,-1,0,13
Y2-S2-176M26,7,610,AS,exp,43,←,left,←,0.5995731998700649,True,11,-1,0,13
Y2-S2-176M26,7,611,AS,exp,44,↓,right,→,0.5256174001842737,False,11,-1,0,13
Y2-S2-176M26,7,612,AS,exp,44,←,left,←,0.6217509000562131,True,12,-1,0,13
Y2-S2-176M26,7,613,AS,exp,30,→,right,→,0.6148916999809444,True,12,-1,0,13
Y2-S2-176M26,7,614,AS,exp,47,←,up,↑,0.9033150998875499,False,12,-1,0,13
Y2-S2-176M26,7,615,AS,exp,42,↓,up,↑,0.8315935998689383,False,13,-1,0,13
Y2-S2-176M26,7,616,AS,exp,42,→,left,←,0.44480050005950034,False,14,-1,0,13
Y2-S2-176M26,7,617,AS,exp,25,↑,left,←,0.6058846001978964,False,15,-1,0,13
Y2-S2-176M26,7,618,AS,exp,43,↓,down,↓,0.6545863999053836,True,16,-1,0,13
Y2-S2-176M26,7,619,AS,exp,40,↑,up,↑,0.5272272999864072,True,16,-1,0,13
Y2-S2-176M26,7,620,AS,exp,33,←,left,←,0.4802917998749763,True,16,1,1,14
Y2-S2-176M26,7,621,AS,exp,39,↓,up,↑,0.7679961000103503,False,15,-1,1,15
Y2-S2-176M26,7,622,AS,exp,39,→,left,←,0.5413520999718457,False,16,-1,0,15
Y2-S2-176M26,7,623,AS,exp,26,↓,right,→,0.6155727000441402,False,17,-1,0,15
Y2-S2-176M26,7,624,AS,exp,28,←,left,←,0.5104263999965042,True,18,-1,0,15
Y2-S2-176M26,7,625,AS,exp,36,↓,down,↓,0.8335921000689268,True,18,-1,0,15
Y2-S2-176M26,7,626,AS,exp,34,→,right,→,0.662191100185737,True,18,1,1,16
Y2-S2-176M26,8,627,PS,intra_train,43,←,up,↑,0.9424745000433177,False,15,-,-,-
Y2-S2-176M26,8,628,PS,intra_train,25,↑,up,↑,0.5265194000676274,True,15,-,-,-
Y2-S2-176M26,8,629,PS,intra_train,44,←,right,→,1.083390099927783,False,15,-,-,-
Y2-S2-176M26,8,630,PS,intra_train,47,↓,up,↑,0.7587615998927504,False,15,-,-,-
Y2-S2-176M26,8,631,PS,intra_train,38,→,right,→,0.5912187998183072,True,15,-,-,-
Y2-S2-176M26,8,632,PS,exp,47,↑,up,↑,0.6085939002223313,True,10,0,0,0
Y2-S2-176M26,8,633,PS,exp,50,↓,down,↓,0.5951105998829007,True,10,0,0,0
Y2-S2-176M26,8,634,PS,exp,47,↑,down,↓,0.6061777998693287,False,10,-1,0,0
Y2-S2-176M26,8,635,PS,exp,36,↓,down,↓,0.9526893000584096,True,11,-1,0,0
Y2-S2-176M26,8,636,PS,exp,31,↑,down,↓,1.0018188999965787,False,11,-1,0,0
Y2-S2-176M26,8,637,PS,exp,37,↓,up,↑,0.6639225999824703,False,12,-1,0,0
Y2-S2-176M26,8,638,PS,exp,29,←,up,↑,1.1384129000362009,False,13,-1,0,0
Y2-S2-176M26,8,639,PS,exp,26,↑,up,↑,0.5903368000872433,True,14,-1,0,0
Y2-S2-176M26,8,640,PS,exp,46,→,right,→,0.5598500999622047,True,14,-1,0,0
Y2-S2-176M26,8,641,PS,exp,44,←,left,←,0.5304306999314576,True,14,1,1,1
Y2-S2-176M26,8,642,PS,exp,28,↑,up,↑,0.44191290019080043,True,13,1,0,1
Y2-S2-176M26,8,643,PS,exp,48,→,right,→,0.4448608998209238,True,13,1,0,1
Y2-S2-176M26,8,644,PS,exp,38,↓,left,←,0.7300241000484675,False,13,-1,1,2
Y2-S2-176M26,8,645,PS,exp,29,←,right,→,0.4899144000373781,False,14,-1,0,2
Y2-S2-176M26,8,646,PS,exp,25,↑,left,←,0.888325700070709,False,15,-1,0,2
Y2-S2-176M26,8,647,PS,exp,48,↓,right,→,0.5494395999703556,False,16,-1,0,2
Y2-S2-176M26,8,648,PS,exp,49,↑,up,↑,0.5322732999920845,True,17,-1,0,2
Y2-S2-176M26,8,649,PS,exp,33,←,left,←,0.5552117999177426,True,17,-1,0,2
Y2-S2-176M26,8,650,PS,exp,29,↓,left,←,1.0154826000798494,False,17,-1,0,2
Y2-S2-176M26,8,651,PS,exp,29,↑,up,↑,0.43412270001135767,True,18,-1,0,2
Y2-S2-176M26,8,652,PS,exp,43,↓,down,↓,0.480267999926582,True,18,-1,0,2
Y2-S2-176M26,8,653,PS,exp,43,←,left,←,0.5391673999838531,True,18,1,1,3
Y2-S2-176M26,8,654,PS,exp,38,→,right,→,0.47463949979282916,True,17,1,0,3
Y2-S2-176M26,8,655,PS,exp,37,↓,down,↓,0.577173100085929,True,17,1,0,3
Y2-S2-176M26,8,656,PS,exp,26,←,left,←,0.4827252998948097,True,17,1,0,3
Y2-S2-176M26,8,657,PS,exp,38,→,left,←,1.143499500118196,False,16,-1,1,4
Y2-S2-176M26,8,658,PS,exp,29,↑,up,↑,0.4726937001105398,True,17,-1,0,4
Y2-S2-176M26,8,659,PS,exp,48,→,right,→,0.41739349998533726,True,17,-1,0,4
Y2-S2-176M26,8,660,PS,exp,35,←,left,←,0.5359682000707835,True,17,1,1,5
Y2-S2-176M26,8,661,PS,exp,42,→,right,→,0.49161699996329844,True,16,1,0,5
Y2-S2-176M26,8,662,PS,exp,42,↑,up,↑,0.5295517998747528,True,16,1,0,5
Y2-S2-176M26,8,663,PS,exp,47,←,left,←,0.5058362998533994,True,16,1,0,5
Y2-S2-176M26,8,664,PS,exp,29,↑,up,↑,0.38401499995961785,True,15,1,0,5
Y2-S2-176M26,8,665,PS,exp,35,→,right,→,0.45627279998734593,True,15,1,0,5
Y2-S2-176M26,8,666,PS,exp,40,↓,down,↓,0.4852301999926567,True,15,1,0,5
Y2-S2-176M26,8,667,PS,exp,35,←,left,←,0.42265220009721816,True,14,1,0,5
Y2-S2-176M26,8,668,PS,exp,47,→,right,→,0.4618404000066221,True,14,1,0,5
Y2-S2-176M26,8,669,PS,exp,45,↑,up,↑,0.5556272000540048,True,14,1,0,5
Y2-S2-176M26,8,670,PS,exp,35,←,right,→,0.8939771000295877,False,13,-1,1,6
Y2-S2-176M26,8,671,PS,exp,25,↑,up,↑,0.41805510013364255,True,14,-1,0,6
Y2-S2-176M26,8,672,PS,exp,40,→,right,→,1.387265299912542,True,14,-1,0,6
Y2-S2-176M26,8,673,PS,exp,42,←,left,←,0.49742599995806813,True,14,1,1,7
Y2-S2-176M26,8,674,PS,exp,29,↓,down,↓,0.6513398999813944,True,13,1,0,7
Y2-S2-176M26,8,675,PS,exp,45,↑,up,↑,0.487013699952513,True,13,1,0,7
Y2-S2-176M26,8,676,PS,exp,47,←,left,←,0.47358749993145466,True,13,1,0,7
Y2-S2-176M26,8,677,PS,exp,38,→,right,→,0.48784880014136434,True,12,1,0,7
Y2-S2-176M26,8,678,PS,exp,40,↑,up,↑,0.4099121999461204,True,12,1,0,7
Y2-S2-176M26,8,679,PS,exp,36,↓,down,↓,0.6345993001013994,True,12,1,0,7
Y2-S2-176M26,8,680,PS,exp,50,←,left,←,0.4613085000310093,True,11,1,0,7
Y2-S2-176M26,8,681,PS,exp,39,↑,up,↑,0.4965024997945875,True,11,1,0,7
Y2-S2-176M26,8,682,PS,exp,45,←,right,→,0.6878032998647541,False,11,-1,1,8
Y2-S2-176M26,8,683,PS,exp,27,↓,down,↓,0.5577972000464797,True,12,-1,0,8
Y2-S2-176M26,8,684,PS,exp,36,→,right,→,0.5745490998961031,True,12,-1,0,8
Y2-S2-176M26,8,685,PS,exp,27,↓,down,↓,0.5151919999625534,True,12,1,1,9
Y2-S2-176M26,8,686,PS,exp,38,↑,up,↑,0.4031664999201894,True,11,1,0,9
Y2-S2-176M26,8,687,PS,exp,47,→,down,↓,1.3554915999993682,False,11,-1,1,10
Y2-S2-176M26,8,688,PS,exp,29,←,left,←,0.5660081999376416,True,12,-1,0,10
Y2-S2-176M26,8,689,PS,exp,30,↑,up,↑,0.5113077000714839,True,12,-1,0,10
Y2-S2-176M26,8,690,PS,exp,48,→,right,→,0.4219762999564409,True,12,1,1,11
Y2-S2-176M26,8,691,PS,exp,44,↑,up,↑,0.4067527998704463,True,11,1,0,11
Y2-S2-176M26,8,692,PS,exp,37,↓,up,↑,0.8353551998734474,False,11,-1,1,12
Y2-S2-176M26,8,693,PS,exp,49,→,right,→,0.4694374999962747,True,12,-1,0,12
Y2-S2-176M26,8,694,PS,exp,46,←,left,←,0.7504734999965876,True,12,-1,0,12
Y2-S2-176M26,8,695,PS,exp,49,↑,up,↑,0.43512070016004145,True,12,1,1,13
Y2-S2-176M26,8,696,PS,exp,33,↓,down,↓,0.6963014998473227,True,11,1,0,13
Y2-S2-176M26,8,697,PS,exp,46,↑,left,←,0.4885905999690294,False,11,-1,1,14
Y2-S2-176M26,8,698,PS,exp,43,←,left,←,0.5352637998294085,True,12,-1,0,14
Y2-S2-176M26,8,699,PS,exp,26,↓,down,↓,0.6245385999791324,True,12,-1,0,14
Y2-S2-176M26,8,700,PS,exp,29,↑,up,↑,0.48970800009556115,True,12,1,1,15
Y2-S2-176M26,8,701,PS,exp,45,→,right,→,0.44946719985455275,True,11,1,0,15
Y2-S2-176M26,8,702,PS,exp,30,↑,up,↑,0.4855635999701917,True,11,1,0,15
Y2-S2-176M26,8,703,PS,exp,45,←,down,↓,0.3709293999709189,False,11,-1,1,16
