PART_ID,Block_no,Trial_no,Block_type,Trial_type,CSI,Stim_letter,Key_pressed,letter_choose,Rt,Corr,Stimulus Time,Level,Reversal,Revs_count
Y2-S2-037K20,1,1,PS,train,48,↑,up,↑,0.7989785999525338,True,30,-,-,-
Y2-S2-037K20,1,2,PS,train,39,←,left,←,0.7495291999075562,True,30,-,-,-
Y2-S2-037K20,1,3,PS,train,42,↓,down,↓,0.5839680000208318,True,30,-,-,-
Y2-S2-037K20,1,4,PS,train,28,←,left,←,0.60045349993743,True,30,-,-,-
Y2-S2-037K20,1,5,PS,train,29,↑,up,↑,0.6008640001527965,True,30,-,-,-
Y2-S2-037K20,1,6,PS,train,44,→,right,→,1.7150659998878837,True,30,-,-,-
Y2-S2-037K20,1,7,PS,train,37,←,left,←,0.7691032998263836,True,30,-,-,-
Y2-S2-037K20,1,8,PS,train,49,↑,up,↑,0.5338536000344902,True,30,-,-,-
Y2-S2-037K20,1,9,PS,train,33,←,left,←,0.4337120000272989,True,30,-,-,-
Y2-S2-037K20,1,10,PS,train,35,↑,up,↑,0.4674718000460416,True,30,-,-,-
Y2-S2-037K20,2,11,AS,train,41,←,right,→,0.5509754000231624,False,45,-,-,-
Y2-S2-037K20,2,12,AS,train,38,↓,down,↓,0.8506946999114007,True,45,-,-,-
Y2-S2-037K20,2,13,AS,train,32,↑,up,↑,0.7506895000115037,True,45,-,-,-
Y2-S2-037K20,2,14,AS,train,29,←,left,←,0.6015035999007523,True,45,-,-,-
Y2-S2-037K20,2,15,AS,train,48,↑,up,↑,0.7840587000828236,True,45,-,-,-
Y2-S2-037K20,2,16,AS,train,39,→,right,→,0.6009186999872327,True,45,-,-,-
Y2-S2-037K20,2,17,AS,train,42,↓,up,↑,0.6510002999566495,False,45,-,-,-
Y2-S2-037K20,2,18,AS,train,40,→,right,→,0.717481300001964,True,45,-,-,-
Y2-S2-037K20,2,19,AS,train,50,↑,up,↑,0.75076560000889,True,45,-,-,-
Y2-S2-037K20,2,20,AS,train,46,←,left,←,0.7340996998827904,True,45,-,-,-
Y2-S2-037K20,-,21,PS,adaptive,29,↓,down,↓,0.6778200999833643,True,10,0,0,0
Y2-S2-037K20,-,22,PS,adaptive,34,↑,up,↑,0.462236599996686,True,10,0,0,0
Y2-S2-037K20,-,23,PS,adaptive,33,↓,up,↑,1.6840121999848634,False,10,-1,0,0
Y2-S2-037K20,-,24,PS,adaptive,32,←,left,←,0.5085775000043213,True,11,-1,0,0
Y2-S2-037K20,-,25,PS,adaptive,44,→,right,→,0.5445551001466811,True,11,-1,0,0
Y2-S2-037K20,-,26,PS,adaptive,47,←,left,←,0.4419315999839455,True,11,1,1,1
Y2-S2-037K20,-,27,PS,adaptive,38,↓,down,↓,0.4724274999462068,True,10,1,0,1
Y2-S2-037K20,-,28,PS,adaptive,30,→,up,↑,1.1810875001829118,False,10,-1,1,2
Y2-S2-037K20,-,29,PS,adaptive,47,←,left,←,0.43886240012943745,True,11,-1,0,2
Y2-S2-037K20,-,30,PS,adaptive,45,↓,down,↓,0.4711921999696642,True,11,-1,0,2
Y2-S2-037K20,-,31,PS,adaptive,47,↑,up,↑,0.5733285001479089,True,11,1,1,3
Y2-S2-037K20,-,32,PS,adaptive,35,←,left,←,0.4481077999807894,True,10,1,0,3
Y2-S2-037K20,-,33,PS,adaptive,30,↑,up,↑,0.49620069982483983,True,10,1,0,3
Y2-S2-037K20,-,34,PS,adaptive,46,←,right,→,0.9322842999827117,False,10,-1,1,4
Y2-S2-037K20,-,35,AS,adaptive,30,→,right,→,0.6148838000372052,True,20,0,0,0
Y2-S2-037K20,-,36,AS,adaptive,39,↓,left,←,1.0959882999304682,False,20,-1,0,0
Y2-S2-037K20,-,37,AS,adaptive,50,↑,up,↑,0.6713765000458807,True,21,-1,0,0
Y2-S2-037K20,-,38,AS,adaptive,45,→,right,→,0.7499772000592202,True,21,-1,0,0
Y2-S2-037K20,-,39,AS,adaptive,41,↑,up,↑,0.8589638001285493,True,21,1,1,1
Y2-S2-037K20,-,40,AS,adaptive,29,↓,down,↓,0.7454647999256849,True,20,1,0,1
Y2-S2-037K20,-,41,AS,adaptive,33,←,left,←,0.6874893999192864,True,20,1,0,1
Y2-S2-037K20,-,42,AS,adaptive,45,→,right,→,0.527142200153321,True,20,1,0,1
Y2-S2-037K20,-,43,AS,adaptive,27,↓,down,↓,0.6427896001841873,True,19,1,0,1
Y2-S2-037K20,-,44,AS,adaptive,25,→,right,→,1.110370800131932,True,19,1,0,1
Y2-S2-037K20,-,45,AS,adaptive,49,↓,down,↓,0.7726873999927193,True,19,1,0,1
Y2-S2-037K20,-,46,AS,adaptive,29,←,no_key,no_letter,-1.0,False,18,-1,1,2
Y2-S2-037K20,-,47,AS,adaptive,43,↓,down,↓,0.5665675001218915,True,19,-1,0,2
Y2-S2-037K20,-,48,AS,adaptive,49,→,right,→,0.695973000023514,True,19,-1,0,2
Y2-S2-037K20,-,49,AS,adaptive,27,↓,down,↓,0.7358818999491632,True,19,1,1,3
Y2-S2-037K20,-,50,AS,adaptive,25,↑,up,↑,0.5832926000002772,True,18,1,0,3
Y2-S2-037K20,-,51,AS,adaptive,35,↓,down,↓,0.6325391000136733,True,18,1,0,3
Y2-S2-037K20,-,52,AS,adaptive,26,←,left,←,0.43379339994862676,True,18,1,0,3
Y2-S2-037K20,-,53,AS,adaptive,46,↓,down,↓,0.5725845999550074,True,17,1,0,3
Y2-S2-037K20,-,54,AS,adaptive,28,←,left,←,0.7983185001648962,True,17,1,0,3
Y2-S2-037K20,-,55,AS,adaptive,44,↓,right,→,0.5861390000209212,False,17,-1,1,4
Y2-S2-037K20,1,56,AS,intra_train,39,→,right,→,0.5838088998571038,True,27,-,-,-
Y2-S2-037K20,1,57,AS,intra_train,34,←,left,←,0.6503051000181586,True,27,-,-,-
Y2-S2-037K20,1,58,AS,intra_train,35,→,left,←,0.5338324001058936,False,27,-,-,-
Y2-S2-037K20,1,59,AS,intra_train,49,↑,up,↑,0.7055039000697434,True,27,-,-,-
Y2-S2-037K20,1,60,AS,intra_train,36,→,right,→,1.1903941000346094,True,27,-,-,-
Y2-S2-037K20,1,61,AS,exp,38,↓,down,↓,0.728227699873969,True,18,0,0,0
Y2-S2-037K20,1,62,AS,exp,25,←,left,←,1.2092148999217898,True,18,0,0,0
Y2-S2-037K20,1,63,AS,exp,26,→,right,→,0.8381257997825742,True,18,1,0,0
Y2-S2-037K20,1,64,AS,exp,32,↑,right,→,0.9188107000663877,False,17,-1,1,1
Y2-S2-037K20,1,65,AS,exp,41,←,left,←,0.7367152001243085,True,18,-1,0,1
Y2-S2-037K20,1,66,AS,exp,47,↓,down,↓,0.8289952001068741,True,18,-1,0,1
Y2-S2-037K20,1,67,AS,exp,46,←,left,←,0.6347555997781456,True,18,1,1,2
Y2-S2-037K20,1,68,AS,exp,36,↓,down,↓,0.8681526998989284,True,17,1,0,2
Y2-S2-037K20,1,69,AS,exp,35,←,left,←,0.741389499977231,True,17,1,0,2
Y2-S2-037K20,1,70,AS,exp,47,↓,up,↑,0.8670364001300186,False,17,-1,1,3
Y2-S2-037K20,1,71,AS,exp,33,→,right,→,0.6377952999901026,True,18,-1,0,3
Y2-S2-037K20,1,72,AS,exp,31,↓,down,↓,0.5480688000097871,True,18,-1,0,3
Y2-S2-037K20,1,73,AS,exp,42,←,left,←,0.670884900027886,True,18,1,1,4
Y2-S2-037K20,1,74,AS,exp,30,↑,up,↑,0.6597094000317156,True,17,1,0,4
Y2-S2-037K20,1,75,AS,exp,42,↓,down,↓,0.9187636999413371,True,17,1,0,4
Y2-S2-037K20,1,76,AS,exp,47,←,left,←,0.6947160998824984,True,17,1,0,4
Y2-S2-037K20,1,77,AS,exp,50,↓,down,↓,0.7211955999955535,True,16,1,0,4
Y2-S2-037K20,1,78,AS,exp,33,→,right,→,0.4644885999150574,True,16,1,0,4
Y2-S2-037K20,1,79,AS,exp,45,←,left,←,0.8431519998703152,True,16,1,0,4
Y2-S2-037K20,1,80,AS,exp,33,↓,down,↓,0.5443126000463963,True,15,1,0,4
Y2-S2-037K20,1,81,AS,exp,49,→,right,→,0.6673235001508147,True,15,1,0,4
Y2-S2-037K20,1,82,AS,exp,33,↓,down,↓,0.49977939995005727,True,15,1,0,4
Y2-S2-037K20,1,83,AS,exp,44,→,left,←,0.8129153000190854,False,14,-1,1,5
Y2-S2-037K20,1,84,AS,exp,29,←,right,→,0.5735740999225527,False,15,-1,0,5
Y2-S2-037K20,1,85,AS,exp,38,↑,up,↑,0.8185798998456448,True,16,-1,0,5
Y2-S2-037K20,1,86,AS,exp,37,↓,down,↓,0.45717339986003935,True,16,-1,0,5
Y2-S2-037K20,1,87,AS,exp,42,←,left,←,0.7483274999540299,True,16,1,1,6
Y2-S2-037K20,1,88,AS,exp,35,→,right,→,0.9778459998778999,True,15,1,0,6
Y2-S2-037K20,1,89,AS,exp,29,↓,down,↓,0.706543100066483,True,15,1,0,6
Y2-S2-037K20,1,90,AS,exp,26,←,left,←,0.6030311998911202,True,15,1,0,6
Y2-S2-037K20,1,91,AS,exp,27,↓,left,←,1.025320400018245,False,14,-1,1,7
Y2-S2-037K20,1,92,AS,exp,40,←,left,←,0.7770062000490725,True,15,-1,0,7
Y2-S2-037K20,1,93,AS,exp,45,↑,up,↑,0.6359306001104414,True,15,-1,0,7
Y2-S2-037K20,1,94,AS,exp,26,↓,down,↓,0.4930843999609351,True,15,1,1,8
Y2-S2-037K20,1,95,AS,exp,25,→,right,→,0.5868442999199033,True,14,1,0,8
Y2-S2-037K20,1,96,AS,exp,39,↓,up,↑,0.7770078999456018,False,14,-1,1,9
Y2-S2-037K20,1,97,AS,exp,35,←,left,←,0.6641440000385046,True,15,-1,0,9
Y2-S2-037K20,1,98,AS,exp,43,→,right,→,0.6199628999456763,True,15,-1,0,9
Y2-S2-037K20,1,99,AS,exp,45,↑,up,↑,0.6588208000175655,True,15,1,1,10
Y2-S2-037K20,1,100,AS,exp,41,→,right,→,0.5722093998920172,True,14,1,0,10
Y2-S2-037K20,1,101,AS,exp,35,↑,up,↑,0.8107704999856651,True,14,1,0,10
Y2-S2-037K20,1,102,AS,exp,30,←,left,←,0.4899548999965191,True,14,1,0,10
Y2-S2-037K20,1,103,AS,exp,26,↑,up,↑,0.7975457001011819,True,13,1,0,10
Y2-S2-037K20,1,104,AS,exp,28,←,left,←,0.46426240005530417,True,13,1,0,10
Y2-S2-037K20,1,105,AS,exp,47,↑,up,↑,0.7368915998376906,True,13,1,0,10
Y2-S2-037K20,1,106,AS,exp,31,←,left,←,0.629978199955076,True,12,1,0,10
Y2-S2-037K20,1,107,AS,exp,38,↑,up,↑,0.5525497999042273,True,12,1,0,10
Y2-S2-037K20,1,108,AS,exp,45,→,right,→,0.48491459991782904,True,12,1,0,10
Y2-S2-037K20,1,109,AS,exp,37,←,left,←,0.4833130999468267,True,11,1,0,10
Y2-S2-037K20,1,110,AS,exp,42,↓,right,→,1.1173795000649989,False,11,-1,1,11
Y2-S2-037K20,1,111,AS,exp,26,→,right,→,0.6562298000790179,True,12,-1,0,11
Y2-S2-037K20,1,112,AS,exp,42,←,left,←,0.36880369996652007,True,12,-1,0,11
Y2-S2-037K20,1,113,AS,exp,48,↑,up,↑,0.428110099863261,True,12,1,1,12
Y2-S2-037K20,1,114,AS,exp,34,←,right,→,0.6063532000407577,False,11,-1,1,13
Y2-S2-037K20,1,115,AS,exp,25,↓,down,↓,0.5346266999840736,True,12,-1,0,13
Y2-S2-037K20,1,116,AS,exp,30,←,right,→,0.6398245000746101,False,12,-1,0,13
Y2-S2-037K20,1,117,AS,exp,38,→,right,→,0.6980073000304401,True,13,-1,0,13
Y2-S2-037K20,1,118,AS,exp,36,↑,up,↑,0.6911442000418901,True,13,-1,0,13
Y2-S2-037K20,1,119,AS,exp,49,→,right,→,0.6555202000308782,True,13,1,1,14
Y2-S2-037K20,1,120,AS,exp,34,↑,up,↑,0.5132189998403192,True,12,1,0,14
Y2-S2-037K20,1,121,AS,exp,45,↓,up,↑,0.6702167000621557,False,12,-1,1,15
Y2-S2-037K20,1,122,AS,exp,26,→,left,←,0.48298400011844933,False,13,-1,0,15
Y2-S2-037K20,1,123,AS,exp,32,↓,right,→,1.1156891998834908,False,14,-1,0,15
Y2-S2-037K20,1,124,AS,exp,28,→,right,→,0.48668430000543594,True,15,-1,0,15
Y2-S2-037K20,1,125,AS,exp,45,↓,down,↓,0.6402543000876904,True,15,-1,0,15
Y2-S2-037K20,1,126,AS,exp,35,←,left,←,0.7263703998178244,True,15,1,1,16
Y2-S2-037K20,2,127,PS,intra_train,50,→,right,→,1.3004973998758942,True,16,-,-,-
Y2-S2-037K20,2,128,PS,intra_train,46,←,left,←,0.4758404998574406,True,16,-,-,-
Y2-S2-037K20,2,129,PS,intra_train,37,↓,down,↓,0.9516151999123394,True,16,-,-,-
Y2-S2-037K20,2,130,PS,intra_train,49,→,right,→,0.734665900003165,True,16,-,-,-
Y2-S2-037K20,2,131,PS,intra_train,27,↓,down,↓,0.5619150998536497,True,16,-,-,-
Y2-S2-037K20,2,132,PS,exp,38,↑,up,↑,0.5308509999886155,True,11,0,0,0
Y2-S2-037K20,2,133,PS,exp,27,↓,down,↓,0.5677350000478327,True,11,0,0,0
Y2-S2-037K20,2,134,PS,exp,37,←,left,←,0.39451530016958714,True,11,1,0,0
Y2-S2-037K20,2,135,PS,exp,35,↑,up,↑,0.7793899001553655,True,10,1,0,0
Y2-S2-037K20,2,136,PS,exp,48,↓,up,↑,0.9337078002281487,False,10,-1,1,1
Y2-S2-037K20,2,137,PS,exp,38,↑,up,↑,0.5215823999606073,True,11,-1,0,1
Y2-S2-037K20,2,138,PS,exp,42,←,left,←,0.509732199832797,True,11,-1,0,1
Y2-S2-037K20,2,139,PS,exp,37,→,right,→,0.4964308999478817,True,11,1,1,2
Y2-S2-037K20,2,140,PS,exp,25,↓,down,↓,0.4854997999500483,True,10,1,0,2
Y2-S2-037K20,2,141,PS,exp,28,↑,right,→,0.750331399962306,False,10,-1,1,3
Y2-S2-037K20,2,142,PS,exp,35,→,right,→,0.44429460004903376,True,11,-1,0,3
Y2-S2-037K20,2,143,PS,exp,33,↑,down,↓,0.8472641000989825,False,11,-1,0,3
Y2-S2-037K20,2,144,PS,exp,44,↓,down,↓,0.6187285999767482,True,12,-1,0,3
Y2-S2-037K20,2,145,PS,exp,31,↑,right,→,0.5457438000012189,False,12,-1,0,3
Y2-S2-037K20,2,146,PS,exp,38,↓,down,↓,0.681538000004366,True,13,-1,0,3
Y2-S2-037K20,2,147,PS,exp,43,↑,up,↑,0.4625035000499338,True,13,-1,0,3
Y2-S2-037K20,2,148,PS,exp,45,→,right,→,0.4555458000395447,True,13,1,1,4
Y2-S2-037K20,2,149,PS,exp,31,↑,up,↑,0.4485055000986904,True,12,1,0,4
Y2-S2-037K20,2,150,PS,exp,25,→,right,→,0.4201595999766141,True,12,1,0,4
Y2-S2-037K20,2,151,PS,exp,49,↑,right,→,0.7110631000250578,False,12,-1,1,5
Y2-S2-037K20,2,152,PS,exp,29,←,left,←,0.5002424998674542,True,13,-1,0,5
Y2-S2-037K20,2,153,PS,exp,36,→,right,→,0.46697960002347827,True,13,-1,0,5
Y2-S2-037K20,2,154,PS,exp,42,←,left,←,0.4838984999805689,True,13,1,1,6
Y2-S2-037K20,2,155,PS,exp,47,↓,down,↓,0.6443662000820041,True,12,1,0,6
Y2-S2-037K20,2,156,PS,exp,37,←,left,←,0.39452329999767244,True,12,1,0,6
Y2-S2-037K20,2,157,PS,exp,34,→,right,→,0.5697134002111852,True,12,1,0,6
Y2-S2-037K20,2,158,PS,exp,38,↓,down,↓,0.5378721000161022,True,11,1,0,6
Y2-S2-037K20,2,159,PS,exp,41,←,right,→,0.5686271998565644,False,11,-1,1,7
Y2-S2-037K20,2,160,PS,exp,28,↓,right,→,0.6953231000807136,False,12,-1,0,7
Y2-S2-037K20,2,161,PS,exp,26,→,right,→,0.6101291000377387,True,13,-1,0,7
Y2-S2-037K20,2,162,PS,exp,30,↓,down,↓,0.5750539998989552,True,13,-1,0,7
Y2-S2-037K20,2,163,PS,exp,48,↑,up,↑,0.4628858999349177,True,13,1,1,8
Y2-S2-037K20,2,164,PS,exp,40,→,right,→,0.4658948997966945,True,12,1,0,8
Y2-S2-037K20,2,165,PS,exp,40,↓,down,↓,0.4939456998836249,True,12,1,0,8
Y2-S2-037K20,2,166,PS,exp,49,↑,up,↑,0.3946535000577569,True,12,1,0,8
Y2-S2-037K20,2,167,PS,exp,35,↓,right,→,0.6688417999539524,False,11,-1,1,9
Y2-S2-037K20,2,168,PS,exp,25,→,up,↑,0.6980976001359522,False,12,-1,0,9
Y2-S2-037K20,2,169,PS,exp,35,↓,down,↓,0.5928970000240952,True,13,-1,0,9
Y2-S2-037K20,2,170,PS,exp,40,←,left,←,0.44002930005081,True,13,-1,0,9
Y2-S2-037K20,2,171,PS,exp,29,→,right,→,0.5228815001901239,True,13,1,1,10
Y2-S2-037K20,2,172,PS,exp,42,↓,right,→,0.7822701002005488,False,12,-1,1,11
Y2-S2-037K20,2,173,PS,exp,40,→,right,→,0.495874100131914,True,13,-1,0,11
Y2-S2-037K20,2,174,PS,exp,34,↑,right,→,0.7298799999989569,False,13,-1,0,11
Y2-S2-037K20,2,175,PS,exp,41,←,left,←,0.45903710019774735,True,14,-1,0,11
Y2-S2-037K20,2,176,PS,exp,37,↑,up,↑,0.5141612000297755,True,14,-1,0,11
Y2-S2-037K20,2,177,PS,exp,28,←,left,←,0.5134519999846816,True,14,1,1,12
Y2-S2-037K20,2,178,PS,exp,31,→,right,→,0.5733698001131415,True,13,1,0,12
Y2-S2-037K20,2,179,PS,exp,48,↓,down,↓,0.573015799978748,True,13,1,0,12
Y2-S2-037K20,2,180,PS,exp,26,←,left,←,0.46338179986923933,True,13,1,0,12
Y2-S2-037K20,2,181,PS,exp,45,↑,up,↑,0.42773009999655187,True,12,1,0,12
Y2-S2-037K20,2,182,PS,exp,27,←,left,←,0.3943896999116987,True,12,1,0,12
Y2-S2-037K20,2,183,PS,exp,29,↑,up,↑,0.5157850999385118,True,12,1,0,12
Y2-S2-037K20,2,184,PS,exp,35,→,right,→,0.47824470000341535,True,11,1,0,12
Y2-S2-037K20,2,185,PS,exp,33,←,left,←,0.5903086999896914,True,11,1,0,12
Y2-S2-037K20,2,186,PS,exp,26,→,left,←,0.7732857000082731,False,11,-1,1,13
Y2-S2-037K20,2,187,PS,exp,26,↑,up,↑,0.42187920003198087,True,12,-1,0,13
Y2-S2-037K20,2,188,PS,exp,43,↓,down,↓,0.4394340000580996,True,12,-1,0,13
Y2-S2-037K20,2,189,PS,exp,50,→,right,→,0.6675648998934776,True,12,1,1,14
Y2-S2-037K20,2,190,PS,exp,41,↓,down,↓,0.5302353999577463,True,11,1,0,14
Y2-S2-037K20,2,191,PS,exp,44,←,left,←,0.43183150002732873,True,11,1,0,14
Y2-S2-037K20,2,192,PS,exp,43,↓,right,→,0.8038022997789085,False,11,-1,1,15
Y2-S2-037K20,2,193,PS,exp,32,←,right,→,0.813358600018546,False,12,-1,0,15
Y2-S2-037K20,2,194,PS,exp,25,→,right,→,0.5045237999875098,True,13,-1,0,15
Y2-S2-037K20,2,195,PS,exp,29,←,left,←,0.44986189994961023,True,13,-1,0,15
Y2-S2-037K20,2,196,PS,exp,31,↓,down,↓,0.5619683000259101,True,13,1,1,16
Y2-S2-037K20,3,197,PS,intra_train,38,↑,up,↑,0.5426453999243677,True,16,-,-,-
Y2-S2-037K20,3,198,PS,intra_train,41,→,right,→,0.5341942000668496,True,16,-,-,-
Y2-S2-037K20,3,199,PS,intra_train,26,↑,up,↑,0.6084079998545349,True,16,-,-,-
Y2-S2-037K20,3,200,PS,intra_train,38,→,right,→,0.4851536999922246,True,16,-,-,-
Y2-S2-037K20,3,201,PS,intra_train,49,↑,up,↑,0.48140399996191263,True,16,-,-,-
Y2-S2-037K20,3,202,PS,exp,33,←,left,←,0.7550206000450999,True,11,0,0,0
Y2-S2-037K20,3,203,PS,exp,45,↓,no_key,no_letter,-1.0,False,11,-1,0,0
Y2-S2-037K20,3,204,PS,exp,46,→,right,→,0.5331946997903287,True,12,-1,0,0
Y2-S2-037K20,3,205,PS,exp,46,↑,up,↑,0.5095191998407245,True,12,-1,0,0
Y2-S2-037K20,3,206,PS,exp,25,→,right,→,0.4493682000320405,True,12,1,1,1
Y2-S2-037K20,3,207,PS,exp,28,←,left,←,0.42746330006048083,True,11,1,0,1
Y2-S2-037K20,3,208,PS,exp,34,↑,left,←,0.7995532001368701,False,11,-1,1,2
Y2-S2-037K20,3,209,PS,exp,47,→,right,→,0.42340560001321137,True,12,-1,0,2
Y2-S2-037K20,3,210,PS,exp,32,↑,up,↑,0.41243459982797503,True,12,-1,0,2
Y2-S2-037K20,3,211,PS,exp,32,↓,down,↓,0.4861922999843955,True,12,1,1,3
Y2-S2-037K20,3,212,PS,exp,50,←,left,←,0.382846400141716,True,11,1,0,3
Y2-S2-037K20,3,213,PS,exp,50,↓,right,→,0.9146348000504076,False,11,-1,1,4
Y2-S2-037K20,3,214,PS,exp,28,←,left,←,0.41364650009199977,True,12,-1,0,4
Y2-S2-037K20,3,215,PS,exp,46,↓,down,↓,0.4489120999351144,True,12,-1,0,4
Y2-S2-037K20,3,216,PS,exp,46,→,right,→,0.3861495000310242,True,12,1,1,5
Y2-S2-037K20,3,217,PS,exp,28,←,left,←,0.35525619983673096,True,11,1,0,5
Y2-S2-037K20,3,218,PS,exp,32,→,right,→,0.38479630020447075,True,11,1,0,5
Y2-S2-037K20,3,219,PS,exp,50,↑,up,↑,0.5056370000820607,True,11,1,0,5
Y2-S2-037K20,3,220,PS,exp,43,→,right,→,0.39900009986013174,True,10,1,0,5
Y2-S2-037K20,3,221,PS,exp,41,←,left,←,0.8388628999236971,True,10,1,0,5
Y2-S2-037K20,3,222,PS,exp,35,↑,up,↑,0.4451354001648724,True,10,1,0,5
Y2-S2-037K20,3,223,PS,exp,46,→,right,→,0.41279010009020567,True,9,1,0,5
Y2-S2-037K20,3,224,PS,exp,34,↓,down,↓,0.4111426998861134,True,9,1,0,5
Y2-S2-037K20,3,225,PS,exp,42,↑,up,↑,0.5738372001796961,True,9,1,0,5
Y2-S2-037K20,3,226,PS,exp,41,←,left,←,0.5703412001021206,True,8,1,0,5
Y2-S2-037K20,3,227,PS,exp,48,→,right,→,0.40180750004947186,True,8,1,0,5
Y2-S2-037K20,3,228,PS,exp,38,←,right,→,0.8791071998421103,False,8,-1,1,6
Y2-S2-037K20,3,229,PS,exp,40,↓,down,↓,0.48555080010555685,True,9,-1,0,6
Y2-S2-037K20,3,230,PS,exp,32,←,left,←,0.42914489982649684,True,9,-1,0,6
Y2-S2-037K20,3,231,PS,exp,27,↓,down,↓,0.5628679001238197,True,9,1,1,7
Y2-S2-037K20,3,232,PS,exp,35,↑,up,↑,0.3697835998609662,True,8,1,0,7
Y2-S2-037K20,3,233,PS,exp,36,↓,down,↓,0.5450530999805778,True,8,1,0,7
Y2-S2-037K20,3,234,PS,exp,44,←,left,←,0.4175124999601394,True,8,1,0,7
Y2-S2-037K20,3,235,PS,exp,26,→,right,→,0.3994697998277843,True,7,1,0,7
Y2-S2-037K20,3,236,PS,exp,33,↓,down,↓,0.5051446999423206,True,7,1,0,7
Y2-S2-037K20,3,237,PS,exp,35,↑,left,←,0.7551082998979837,False,7,-1,1,8
Y2-S2-037K20,3,238,PS,exp,30,→,left,←,0.7691615000367165,False,8,-1,0,8
Y2-S2-037K20,3,239,PS,exp,28,↑,left,←,0.8293984001502395,False,9,-1,0,8
Y2-S2-037K20,3,240,PS,exp,32,←,left,←,0.41747340001165867,True,10,-1,0,8
Y2-S2-037K20,3,241,PS,exp,41,↑,up,↑,0.45862879999913275,True,10,-1,0,8
Y2-S2-037K20,3,242,PS,exp,37,→,left,←,0.6638940998818725,False,10,-1,0,8
Y2-S2-037K20,3,243,PS,exp,34,↑,up,↑,0.47030989988707006,True,11,-1,0,8
Y2-S2-037K20,3,244,PS,exp,26,←,left,←,0.4108303999528289,True,11,-1,0,8
Y2-S2-037K20,3,245,PS,exp,26,↓,down,↓,0.4790095000062138,True,11,1,1,9
Y2-S2-037K20,3,246,PS,exp,41,→,right,→,0.853599000023678,True,10,1,0,9
Y2-S2-037K20,3,247,PS,exp,39,↑,up,↑,0.499510700115934,True,10,1,0,9
Y2-S2-037K20,3,248,PS,exp,29,←,left,←,0.4079264998435974,True,10,1,0,9
Y2-S2-037K20,3,249,PS,exp,45,↓,down,↓,0.5235393999610096,True,9,1,0,9
Y2-S2-037K20,3,250,PS,exp,36,→,down,↓,0.7135843001306057,False,9,-1,1,10
Y2-S2-037K20,3,251,PS,exp,37,↑,left,←,0.3636634999420494,False,10,-1,0,10
Y2-S2-037K20,3,252,PS,exp,38,←,left,←,0.6941502999980003,True,11,-1,0,10
Y2-S2-037K20,3,253,PS,exp,42,→,right,→,0.3574250000528991,True,11,-1,0,10
Y2-S2-037K20,3,254,PS,exp,30,↓,down,↓,0.5041426999960095,True,11,1,1,11
Y2-S2-037K20,3,255,PS,exp,30,↑,up,↑,0.4509062001015991,True,10,1,0,11
Y2-S2-037K20,3,256,PS,exp,35,↓,down,↓,0.4182737001683563,True,10,1,0,11
Y2-S2-037K20,3,257,PS,exp,41,↑,right,→,0.6540016001090407,False,10,-1,1,12
Y2-S2-037K20,3,258,PS,exp,26,↓,down,↓,0.5518436999991536,True,11,-1,0,12
Y2-S2-037K20,3,259,PS,exp,39,↑,left,←,0.5372254000976682,False,11,-1,0,12
Y2-S2-037K20,3,260,PS,exp,45,→,right,→,0.5909280001651496,True,12,-1,0,12
Y2-S2-037K20,3,261,PS,exp,50,↑,up,↑,0.9995446999091655,True,12,-1,0,12
Y2-S2-037K20,3,262,PS,exp,33,←,left,←,0.44253239990212023,True,12,1,1,13
Y2-S2-037K20,3,263,PS,exp,40,↑,up,↑,0.4363453001715243,True,11,1,0,13
Y2-S2-037K20,3,264,PS,exp,32,↓,down,↓,0.4988086000084877,True,11,1,0,13
Y2-S2-037K20,3,265,PS,exp,43,→,right,→,0.4492140000220388,True,11,1,0,13
Y2-S2-037K20,3,266,PS,exp,27,↑,left,←,0.7855759998783469,False,10,-1,1,14
Y2-S2-037K20,3,267,PS,exp,34,→,right,→,0.6908086999319494,True,11,-1,0,14
Y2-S2-037K20,3,268,PS,exp,28,↑,up,↑,1.0250484000425786,True,11,-1,0,14
Y2-S2-037K20,3,269,PS,exp,35,→,right,→,0.5465164000634104,True,11,1,1,15
Y2-S2-037K20,3,270,PS,exp,37,←,left,←,0.47904050000943244,True,10,1,0,15
Y2-S2-037K20,3,271,PS,exp,27,→,right,→,0.4473145001102239,True,10,1,0,15
Y2-S2-037K20,3,272,PS,exp,35,↓,left,←,1.3544107999186963,False,10,-1,1,16
Y2-S2-037K20,4,273,AS,intra_train,31,↑,up,↑,0.7458776000421494,True,27,-,-,-
Y2-S2-037K20,4,274,AS,intra_train,37,↓,down,↓,0.789721000008285,True,27,-,-,-
Y2-S2-037K20,4,275,AS,intra_train,27,←,left,←,0.4345301000867039,True,27,-,-,-
Y2-S2-037K20,4,276,AS,intra_train,48,↑,up,↑,1.2679347000084817,True,27,-,-,-
Y2-S2-037K20,4,277,AS,intra_train,26,→,right,→,0.5172407000791281,True,27,-,-,-
Y2-S2-037K20,4,278,AS,exp,31,←,right,→,0.5524654998444021,False,18,-1,0,0
Y2-S2-037K20,4,279,AS,exp,30,↑,up,↑,0.43395500001497567,True,19,-1,0,0
Y2-S2-037K20,4,280,AS,exp,38,→,right,→,0.6719324002042413,True,19,-1,0,0
Y2-S2-037K20,4,281,AS,exp,45,↓,down,↓,0.5194440998602659,True,19,1,1,1
Y2-S2-037K20,4,282,AS,exp,25,→,right,→,0.5562146999873221,True,18,1,0,1
Y2-S2-037K20,4,283,AS,exp,49,↑,up,↑,0.7967802998609841,True,18,1,0,1
Y2-S2-037K20,4,284,AS,exp,33,→,right,→,0.4340453001204878,True,18,1,0,1
Y2-S2-037K20,4,285,AS,exp,33,←,left,←,0.36717050010338426,True,17,1,0,1
Y2-S2-037K20,4,286,AS,exp,46,→,right,→,0.3678981000557542,True,17,1,0,1
Y2-S2-037K20,4,287,AS,exp,47,←,right,→,0.5368089000694454,False,17,-1,1,2
Y2-S2-037K20,4,288,AS,exp,35,→,right,→,0.43427999992854893,True,18,-1,0,2
Y2-S2-037K20,4,289,AS,exp,27,↑,up,↑,1.3551019998267293,True,18,-1,0,2
Y2-S2-037K20,4,290,AS,exp,30,→,right,→,0.4931902000680566,True,18,1,1,3
Y2-S2-037K20,4,291,AS,exp,48,←,left,←,0.4175068000331521,True,17,1,0,3
Y2-S2-037K20,4,292,AS,exp,48,↓,left,←,0.9361062999814749,False,17,-1,1,4
Y2-S2-037K20,4,293,AS,exp,42,↑,up,↑,0.41743759997189045,True,18,-1,0,4
Y2-S2-037K20,4,294,AS,exp,33,←,right,→,0.5841508000157773,False,18,-1,0,4
Y2-S2-037K20,4,295,AS,exp,44,↓,down,↓,0.5445010000839829,True,19,-1,0,4
Y2-S2-037K20,4,296,AS,exp,43,←,left,←,0.49472590000368655,True,19,-1,0,4
Y2-S2-037K20,4,297,AS,exp,31,↓,down,↓,0.6908590998500586,True,19,1,1,5
Y2-S2-037K20,4,298,AS,exp,41,↑,up,↑,1.4209324999246746,True,18,1,0,5
Y2-S2-037K20,4,299,AS,exp,27,←,left,←,0.7533780999947339,True,18,1,0,5
Y2-S2-037K20,4,300,AS,exp,45,→,right,→,0.4174530999734998,True,18,1,0,5
Y2-S2-037K20,4,301,AS,exp,27,↑,right,→,0.6016647999640554,False,17,-1,1,6
Y2-S2-037K20,4,302,AS,exp,33,↓,up,↑,0.5970258000306785,False,18,-1,0,6
Y2-S2-037K20,4,303,AS,exp,40,→,right,→,0.5602460999507457,True,19,-1,0,6
Y2-S2-037K20,4,304,AS,exp,49,↑,up,↑,0.41697499994188547,True,19,-1,0,6
Y2-S2-037K20,4,305,AS,exp,28,←,left,←,0.450779200065881,True,19,1,1,7
Y2-S2-037K20,4,306,AS,exp,41,↑,up,↑,0.36703189997933805,True,18,1,0,7
Y2-S2-037K20,4,307,AS,exp,30,←,left,←,0.39968629996292293,True,18,1,0,7
Y2-S2-037K20,4,308,AS,exp,47,→,right,→,0.35060439980588853,True,18,1,0,7
Y2-S2-037K20,4,309,AS,exp,46,←,right,→,1.1661889001261443,False,17,-1,1,8
Y2-S2-037K20,4,310,AS,exp,35,↑,up,↑,0.4874869000632316,True,18,-1,0,8
Y2-S2-037K20,4,311,AS,exp,28,→,right,→,0.5111471000127494,True,18,-1,0,8
Y2-S2-037K20,4,312,AS,exp,41,←,left,←,1.4783138998318464,True,18,1,1,9
Y2-S2-037K20,4,313,AS,exp,43,↑,up,↑,0.5845906001050025,True,17,1,0,9
Y2-S2-037K20,4,314,AS,exp,36,↓,down,↓,0.7432042001746595,True,17,1,0,9
Y2-S2-037K20,4,315,AS,exp,43,→,right,→,0.4006511999759823,True,17,1,0,9
Y2-S2-037K20,4,316,AS,exp,38,↓,down,↓,0.48326580016873777,True,16,1,0,9
Y2-S2-037K20,4,317,AS,exp,25,↑,up,↑,1.0098894000984728,True,16,1,0,9
Y2-S2-037K20,4,318,AS,exp,37,←,right,→,0.4843754000030458,False,16,-1,1,10
Y2-S2-037K20,4,319,AS,exp,43,↑,up,↑,0.5303599000908434,True,17,-1,0,10
Y2-S2-037K20,4,320,AS,exp,41,→,right,→,0.40055650006979704,True,17,-1,0,10
Y2-S2-037K20,4,321,AS,exp,46,↑,up,↑,0.5322978999465704,True,17,1,1,11
Y2-S2-037K20,4,322,AS,exp,27,←,right,→,0.6722618001513183,False,16,-1,1,12
Y2-S2-037K20,4,323,AS,exp,34,→,right,→,0.38428110000677407,True,17,-1,0,12
Y2-S2-037K20,4,324,AS,exp,32,←,left,←,0.6941080000251532,True,17,-1,0,12
Y2-S2-037K20,4,325,AS,exp,32,→,right,→,0.9078086998779327,True,17,1,1,13
Y2-S2-037K20,4,326,AS,exp,42,←,left,←,0.6149724000133574,True,16,1,0,13
Y2-S2-037K20,4,327,AS,exp,44,→,right,→,0.4006546000018716,True,16,1,0,13
Y2-S2-037K20,4,328,AS,exp,39,↑,up,↑,0.4583916000556201,True,16,1,0,13
Y2-S2-037K20,4,329,AS,exp,47,↓,down,↓,0.4621697999536991,True,15,1,0,13
Y2-S2-037K20,4,330,AS,exp,39,←,right,→,0.5992091000080109,False,15,-1,1,14
Y2-S2-037K20,4,331,AS,exp,34,↑,up,↑,0.3838750999420881,True,16,-1,0,14
Y2-S2-037K20,4,332,AS,exp,32,↓,down,↓,0.7136140998918563,True,16,-1,0,14
Y2-S2-037K20,4,333,AS,exp,41,→,right,→,0.489906599977985,True,16,1,1,15
Y2-S2-037K20,4,334,AS,exp,47,←,left,←,0.8072812999598682,True,15,1,0,15
Y2-S2-037K20,4,335,AS,exp,46,↑,up,↑,0.5957661001011729,True,15,1,0,15
Y2-S2-037K20,4,336,AS,exp,48,←,left,←,0.8971152000594884,True,15,1,0,15
Y2-S2-037K20,4,337,AS,exp,35,↓,up,↑,1.0713590998202562,False,14,-1,1,16
Y2-S2-037K20,5,338,AS,intra_train,34,→,right,→,0.7001642999239266,True,27,-,-,-
Y2-S2-037K20,5,339,AS,intra_train,49,←,left,←,0.40124360006302595,True,27,-,-,-
Y2-S2-037K20,5,340,AS,intra_train,29,↓,down,↓,0.5671934999991208,True,27,-,-,-
Y2-S2-037K20,5,341,AS,intra_train,34,→,right,→,0.4176372999791056,True,27,-,-,-
Y2-S2-037K20,5,342,AS,intra_train,50,↓,down,↓,0.5334065000060946,True,27,-,-,-
Y2-S2-037K20,5,343,AS,exp,35,→,right,→,0.50696190004237,True,18,0,0,0
Y2-S2-037K20,5,344,AS,exp,35,↑,up,↑,0.6749727001879364,True,18,0,0,0
Y2-S2-037K20,5,345,AS,exp,34,→,right,→,0.5218852998223156,True,18,1,0,0
Y2-S2-037K20,5,346,AS,exp,34,↑,up,↑,0.5096404000651091,True,17,1,0,0
Y2-S2-037K20,5,347,AS,exp,47,↓,up,↑,0.5776629999745637,False,17,-1,1,1
Y2-S2-037K20,5,348,AS,exp,48,↑,up,↑,0.6206761000212282,True,18,-1,0,1
Y2-S2-037K20,5,349,AS,exp,46,←,left,←,0.7002795999869704,True,18,-1,0,1
Y2-S2-037K20,5,350,AS,exp,42,→,right,→,0.6918885000050068,True,18,1,1,2
Y2-S2-037K20,5,351,AS,exp,25,↑,up,↑,0.568563099950552,True,17,1,0,2
Y2-S2-037K20,5,352,AS,exp,50,←,left,←,0.5629336000420153,True,17,1,0,2
Y2-S2-037K20,5,353,AS,exp,33,→,right,→,0.3836790998466313,True,17,1,0,2
Y2-S2-037K20,5,354,AS,exp,37,←,left,←,1.390968699939549,True,16,1,0,2
Y2-S2-037K20,5,355,AS,exp,28,↑,up,↑,0.3673994999844581,True,16,1,0,2
Y2-S2-037K20,5,356,AS,exp,40,←,left,←,0.46503910003229976,True,16,1,0,2
Y2-S2-037K20,5,357,AS,exp,50,→,right,→,0.48551080003380775,True,15,1,0,2
Y2-S2-037K20,5,358,AS,exp,41,↑,up,↑,0.3508383999578655,True,15,1,0,2
Y2-S2-037K20,5,359,AS,exp,48,←,left,←,0.3843799000605941,True,15,1,0,2
Y2-S2-037K20,5,360,AS,exp,41,↑,up,↑,0.4131455000024289,True,14,1,0,2
Y2-S2-037K20,5,361,AS,exp,45,↓,right,→,0.7784716999158263,False,14,-1,1,3
Y2-S2-037K20,5,362,AS,exp,26,←,left,←,1.0438878000713885,True,15,-1,0,3
Y2-S2-037K20,5,363,AS,exp,49,↑,up,↑,0.43897749995812774,True,15,-1,0,3
Y2-S2-037K20,5,364,AS,exp,31,←,left,←,0.5828798001166433,True,15,1,1,4
Y2-S2-037K20,5,365,AS,exp,35,→,right,→,0.3501389001030475,True,14,1,0,4
Y2-S2-037K20,5,366,AS,exp,41,↓,up,↑,0.6189413999672979,False,14,-1,1,5
Y2-S2-037K20,5,367,AS,exp,46,←,left,←,0.3674539001658559,True,15,-1,0,5
Y2-S2-037K20,5,368,AS,exp,41,↑,up,↑,0.3672810001298785,True,15,-1,0,5
Y2-S2-037K20,5,369,AS,exp,37,↓,down,↓,0.5672645999584347,True,15,1,1,6
Y2-S2-037K20,5,370,AS,exp,50,←,left,←,1.0643501000013202,True,14,1,0,6
Y2-S2-037K20,5,371,AS,exp,40,→,right,→,1.2981183999218047,True,14,1,0,6
Y2-S2-037K20,5,372,AS,exp,37,↑,up,↑,0.40192089998163283,True,14,1,0,6
Y2-S2-037K20,5,373,AS,exp,40,←,left,←,0.6814005000051111,True,13,1,0,6
Y2-S2-037K20,5,374,AS,exp,31,↓,down,↓,0.4077377999201417,True,13,1,0,6
Y2-S2-037K20,5,375,AS,exp,42,→,right,→,0.6970313000492752,True,13,1,0,6
Y2-S2-037K20,5,376,AS,exp,41,↓,down,↓,0.5954525000415742,True,12,1,0,6
Y2-S2-037K20,5,377,AS,exp,49,→,right,→,0.7198336999863386,True,12,1,0,6
Y2-S2-037K20,5,378,AS,exp,38,↓,right,→,1.026847899891436,False,12,-1,1,7
Y2-S2-037K20,5,379,AS,exp,39,→,right,→,0.5820844999980181,True,13,-1,0,7
Y2-S2-037K20,5,380,AS,exp,36,←,left,←,1.056843699887395,True,13,-1,0,7
Y2-S2-037K20,5,381,AS,exp,36,↓,down,↓,0.5522990999743342,True,13,1,1,8
Y2-S2-037K20,5,382,AS,exp,35,←,right,→,0.7343121999874711,False,12,-1,1,9
Y2-S2-037K20,5,383,AS,exp,45,→,right,→,0.7078442999627441,True,13,-1,0,9
Y2-S2-037K20,5,384,AS,exp,44,←,right,→,0.586131300078705,False,13,-1,0,9
Y2-S2-037K20,5,385,AS,exp,38,→,right,→,0.5283691000659019,True,14,-1,0,9
Y2-S2-037K20,5,386,AS,exp,32,↓,up,↑,0.7095816999208182,False,14,-1,0,9
Y2-S2-037K20,5,387,AS,exp,49,←,left,←,0.4197534001432359,True,15,-1,0,9
Y2-S2-037K20,5,388,AS,exp,32,→,right,→,0.48934860015287995,True,15,-1,0,9
Y2-S2-037K20,5,389,AS,exp,34,←,right,→,0.564413100015372,False,15,-1,0,9
Y2-S2-037K20,5,390,AS,exp,41,↓,down,↓,0.7069898000918329,True,16,-1,0,9
Y2-S2-037K20,5,391,AS,exp,33,←,left,←,0.6435860998462886,True,16,-1,0,9
Y2-S2-037K20,5,392,AS,exp,47,↑,up,↑,0.5803446001373231,True,16,1,1,10
Y2-S2-037K20,5,393,AS,exp,42,→,right,→,0.603306100005284,True,15,1,0,10
Y2-S2-037K20,5,394,AS,exp,27,←,left,←,0.9093962998595089,True,15,1,0,10
Y2-S2-037K20,5,395,AS,exp,46,→,left,←,0.7830032000783831,False,15,-1,1,11
Y2-S2-037K20,5,396,AS,exp,43,↑,up,↑,0.38442869996652007,True,16,-1,0,11
Y2-S2-037K20,5,397,AS,exp,50,←,left,←,0.6987014999613166,True,16,-1,0,11
Y2-S2-037K20,5,398,AS,exp,49,↑,up,↑,0.974250900093466,True,16,1,1,12
Y2-S2-037K20,5,399,AS,exp,28,→,right,→,0.6992987999692559,True,15,1,0,12
Y2-S2-037K20,5,400,AS,exp,30,↑,up,↑,0.5658158001024276,True,15,1,0,12
Y2-S2-037K20,5,401,AS,exp,50,←,right,→,0.8382211001589894,False,15,-1,1,13
Y2-S2-037K20,5,402,AS,exp,25,↑,up,↑,0.546020400011912,True,16,-1,0,13
Y2-S2-037K20,5,403,AS,exp,33,←,left,←,0.40106809977442026,True,16,-1,0,13
Y2-S2-037K20,5,404,AS,exp,29,↓,up,↑,0.514699500054121,False,16,-1,0,13
Y2-S2-037K20,5,405,AS,exp,48,↑,up,↑,1.1398260998539627,True,17,-1,0,13
Y2-S2-037K20,5,406,AS,exp,43,↓,down,↓,0.5231496999040246,True,17,-1,0,13
Y2-S2-037K20,5,407,AS,exp,39,↑,up,↑,0.612544700037688,True,17,1,1,14
Y2-S2-037K20,5,408,AS,exp,31,←,left,←,0.6718345999252051,True,16,1,0,14
Y2-S2-037K20,5,409,AS,exp,36,→,right,→,0.5463751000352204,True,16,1,0,14
Y2-S2-037K20,5,410,AS,exp,32,↓,up,↑,0.7631580999586731,False,16,-1,1,15
Y2-S2-037K20,5,411,AS,exp,47,→,right,→,0.4963893999811262,True,17,-1,0,15
Y2-S2-037K20,5,412,AS,exp,25,←,left,←,1.027383399894461,True,17,-1,0,15
Y2-S2-037K20,5,413,AS,exp,26,→,right,→,0.4173444998450577,True,17,1,1,16
Y2-S2-037K20,6,414,PS,intra_train,28,←,left,←,0.46597330016084015,True,16,-,-,-
Y2-S2-037K20,6,415,PS,intra_train,49,→,right,→,0.9457619001623243,True,16,-,-,-
Y2-S2-037K20,6,416,PS,intra_train,30,↓,down,↓,0.5030757000204176,True,16,-,-,-
Y2-S2-037K20,6,417,PS,intra_train,28,←,right,→,0.6955188999418169,False,16,-,-,-
Y2-S2-037K20,6,418,PS,intra_train,29,↓,down,↓,0.45755790011025965,True,16,-,-,-
Y2-S2-037K20,6,419,PS,exp,32,↑,right,→,0.7132813001517206,False,11,-1,0,0
Y2-S2-037K20,6,420,PS,exp,48,→,right,→,0.48829189990647137,True,12,-1,0,0
Y2-S2-037K20,6,421,PS,exp,30,←,left,←,0.7190535000991076,True,12,-1,0,0
Y2-S2-037K20,6,422,PS,exp,40,↑,up,↑,0.44604930002242327,True,12,1,1,1
Y2-S2-037K20,6,423,PS,exp,49,→,right,→,0.5028536999598145,True,11,1,0,1
Y2-S2-037K20,6,424,PS,exp,44,↓,down,↓,0.6303773999679834,True,11,1,0,1
Y2-S2-037K20,6,425,PS,exp,49,→,right,→,0.4255539998412132,True,11,1,0,1
Y2-S2-037K20,6,426,PS,exp,47,↑,left,←,0.713075099978596,False,10,-1,1,2
Y2-S2-037K20,6,427,PS,exp,26,→,right,→,0.44632149999961257,True,11,-1,0,2
Y2-S2-037K20,6,428,PS,exp,41,↑,up,↑,0.4008808999788016,True,11,-1,0,2
Y2-S2-037K20,6,429,PS,exp,35,→,right,→,0.4309742001350969,True,11,1,1,3
Y2-S2-037K20,6,430,PS,exp,28,↓,down,↓,0.5305938001256436,True,10,1,0,3
Y2-S2-037K20,6,431,PS,exp,31,←,left,←,0.7237648000009358,True,10,1,0,3
Y2-S2-037K20,6,432,PS,exp,25,↑,up,↑,0.4273957998957485,True,10,1,0,3
Y2-S2-037K20,6,433,PS,exp,34,→,right,→,0.6020541999023408,True,9,1,0,3
Y2-S2-037K20,6,434,PS,exp,44,↑,right,→,0.8340928999241441,False,9,-1,1,4
Y2-S2-037K20,6,435,PS,exp,49,→,right,→,0.6278369000647217,True,10,-1,0,4
Y2-S2-037K20,6,436,PS,exp,33,↑,up,↑,0.4608487000223249,True,10,-1,0,4
Y2-S2-037K20,6,437,PS,exp,40,→,right,→,0.4356904998421669,True,10,1,1,5
Y2-S2-037K20,6,438,PS,exp,42,↑,left,←,0.7542938999831676,False,9,-1,1,6
Y2-S2-037K20,6,439,PS,exp,31,→,right,→,0.4159517998341471,True,10,-1,0,6
Y2-S2-037K20,6,440,PS,exp,37,←,right,→,0.863601699937135,False,10,-1,0,6
Y2-S2-037K20,6,441,PS,exp,37,→,left,←,0.560211599804461,False,11,-1,0,6
Y2-S2-037K20,6,442,PS,exp,25,↓,down,↓,0.5889821001328528,True,12,-1,0,6
Y2-S2-037K20,6,443,PS,exp,29,→,right,→,0.5215723000001162,True,12,-1,0,6
Y2-S2-037K20,6,444,PS,exp,35,↓,down,↓,0.5929509000852704,True,12,1,1,7
Y2-S2-037K20,6,445,PS,exp,27,↑,up,↑,0.4300718999002129,True,11,1,0,7
Y2-S2-037K20,6,446,PS,exp,49,→,right,→,0.38713649986311793,True,11,1,0,7
Y2-S2-037K20,6,447,PS,exp,45,↑,right,→,0.6159138001967221,False,11,-1,1,8
Y2-S2-037K20,6,448,PS,exp,28,↓,down,↓,0.5417296001687646,True,12,-1,0,8
Y2-S2-037K20,6,449,PS,exp,44,→,right,→,0.39544989983551204,True,12,-1,0,8
Y2-S2-037K20,6,450,PS,exp,32,←,right,→,0.7531653998885304,False,12,-1,0,8
Y2-S2-037K20,6,451,PS,exp,40,↑,left,←,0.5959754001814872,False,13,-1,0,8
Y2-S2-037K20,6,452,PS,exp,44,↓,down,↓,0.45710899983532727,True,14,-1,0,8
Y2-S2-037K20,6,453,PS,exp,25,→,right,→,0.4877744000405073,True,14,-1,0,8
Y2-S2-037K20,6,454,PS,exp,33,←,right,→,0.46041889977641404,False,14,-1,0,8
Y2-S2-037K20,6,455,PS,exp,36,↑,up,↑,0.4580019998829812,True,15,-1,0,8
Y2-S2-037K20,6,456,PS,exp,32,←,left,←,0.9511204001028091,True,15,-1,0,8
Y2-S2-037K20,6,457,PS,exp,36,↑,up,↑,0.4180538998916745,True,15,1,1,9
Y2-S2-037K20,6,458,PS,exp,40,←,left,←,0.4942375998944044,True,14,1,0,9
Y2-S2-037K20,6,459,PS,exp,40,↓,down,↓,0.61437730002217,True,14,1,0,9
Y2-S2-037K20,6,460,PS,exp,48,←,left,←,0.415442300029099,True,14,1,0,9
Y2-S2-037K20,6,461,PS,exp,39,↓,down,↓,0.5749007998965681,True,13,1,0,9
Y2-S2-037K20,6,462,PS,exp,37,→,right,→,0.4290593999903649,True,13,1,0,9
Y2-S2-037K20,6,463,PS,exp,34,↑,left,←,0.42222149996086955,False,13,-1,1,10
Y2-S2-037K20,6,464,PS,exp,39,↓,down,↓,0.6198708000592887,True,14,-1,0,10
Y2-S2-037K20,6,465,PS,exp,45,←,left,←,0.40550330001860857,True,14,-1,0,10
Y2-S2-037K20,6,466,PS,exp,38,↑,up,↑,0.6192173000890762,True,14,1,1,11
Y2-S2-037K20,6,467,PS,exp,42,↓,left,←,0.705111299874261,False,13,-1,1,12
Y2-S2-037K20,6,468,PS,exp,30,↑,up,↑,0.47039179992862046,True,14,-1,0,12
Y2-S2-037K20,6,469,PS,exp,45,←,left,←,0.44947249977849424,True,14,-1,0,12
Y2-S2-037K20,6,470,PS,exp,25,↑,up,↑,0.4034195998683572,True,14,1,1,13
Y2-S2-037K20,6,471,PS,exp,42,↓,down,↓,0.5171900000423193,True,13,1,0,13
Y2-S2-037K20,6,472,PS,exp,41,→,right,→,1.6732175999786705,True,13,1,0,13
Y2-S2-037K20,6,473,PS,exp,42,↑,up,↑,0.5734198000282049,True,13,1,0,13
Y2-S2-037K20,6,474,PS,exp,43,↓,down,↓,0.6291315997950733,True,12,1,0,13
Y2-S2-037K20,6,475,PS,exp,31,→,right,→,0.5302509998437017,True,12,1,0,13
Y2-S2-037K20,6,476,PS,exp,26,↑,up,↑,0.4468012999277562,True,12,1,0,13
Y2-S2-037K20,6,477,PS,exp,47,↓,down,↓,0.4402344000991434,True,11,1,0,13
Y2-S2-037K20,6,478,PS,exp,44,←,left,←,0.4498451000545174,True,11,1,0,13
Y2-S2-037K20,6,479,PS,exp,49,↓,down,↓,0.6244305998552591,True,11,1,0,13
Y2-S2-037K20,6,480,PS,exp,49,↑,up,↑,0.5377240998204798,True,10,1,0,13
Y2-S2-037K20,6,481,PS,exp,26,←,left,←,0.4540588001254946,True,10,1,0,13
Y2-S2-037K20,6,482,PS,exp,33,↑,up,↑,0.4347133000846952,True,10,1,0,13
Y2-S2-037K20,6,483,PS,exp,36,↓,down,↓,0.4941765000112355,True,9,1,0,13
Y2-S2-037K20,6,484,PS,exp,27,←,left,←,0.7606957999523729,True,9,1,0,13
Y2-S2-037K20,6,485,PS,exp,36,↓,down,↓,0.5263173999264836,True,9,1,0,13
Y2-S2-037K20,6,486,PS,exp,39,↑,up,↑,0.4396484000608325,True,8,1,0,13
Y2-S2-037K20,6,487,PS,exp,47,←,left,←,0.4554159000981599,True,8,1,0,13
Y2-S2-037K20,6,488,PS,exp,44,↑,left,←,0.7157205999828875,False,8,-1,1,14
Y2-S2-037K20,6,489,PS,exp,30,↓,down,↓,0.603511500172317,True,9,-1,0,14
Y2-S2-037K20,6,490,PS,exp,46,←,left,←,0.6182155001442879,True,9,-1,0,14
Y2-S2-037K20,6,491,PS,exp,32,→,right,→,0.9215529998764396,True,9,1,1,15
Y2-S2-037K20,6,492,PS,exp,50,↓,down,↓,0.6317643998190761,True,8,1,0,15
Y2-S2-037K20,6,493,PS,exp,35,↑,up,↑,0.41837020008824766,True,8,1,0,15
Y2-S2-037K20,6,494,PS,exp,47,←,left,←,0.3513094999361783,True,8,1,0,15
Y2-S2-037K20,6,495,PS,exp,37,→,right,→,0.38808010006323457,True,7,1,0,15
Y2-S2-037K20,6,496,PS,exp,48,←,left,←,0.5930152998771518,True,7,1,0,15
Y2-S2-037K20,6,497,PS,exp,49,↓,right,→,0.5089877999853343,False,7,-1,1,16
Y2-S2-037K20,7,498,PS,intra_train,30,→,right,→,0.4752070000395179,True,16,-,-,-
Y2-S2-037K20,7,499,PS,intra_train,40,↑,up,↑,1.0445872000418603,True,16,-,-,-
Y2-S2-037K20,7,500,PS,intra_train,37,→,right,→,0.47959890007041395,True,16,-,-,-
Y2-S2-037K20,7,501,PS,intra_train,44,↓,down,↓,0.6056433001067489,True,16,-,-,-
Y2-S2-037K20,7,502,PS,intra_train,49,←,left,←,0.44112229999154806,True,16,-,-,-
Y2-S2-037K20,7,503,PS,exp,36,→,right,→,0.4259683999698609,True,11,0,0,0
Y2-S2-037K20,7,504,PS,exp,38,↓,down,↓,0.5919846000615507,True,11,0,0,0
Y2-S2-037K20,7,505,PS,exp,27,→,right,→,0.41026640008203685,True,11,1,0,0
Y2-S2-037K20,7,506,PS,exp,32,←,left,←,0.4866468000691384,True,10,1,0,0
Y2-S2-037K20,7,507,PS,exp,34,↓,down,↓,0.4210824000183493,True,10,1,0,0
Y2-S2-037K20,7,508,PS,exp,36,↑,up,↑,0.40409249998629093,True,10,1,0,0
Y2-S2-037K20,7,509,PS,exp,29,↓,down,↓,0.5075038000941277,True,9,1,0,0
Y2-S2-037K20,7,510,PS,exp,34,←,left,←,0.3722455999813974,True,9,1,0,0
Y2-S2-037K20,7,511,PS,exp,47,↓,left,←,0.6844646001700312,False,9,-1,1,1
Y2-S2-037K20,7,512,PS,exp,47,↑,up,↑,0.41081569995731115,True,10,-1,0,1
Y2-S2-037K20,7,513,PS,exp,43,→,right,→,0.44701150013133883,True,10,-1,0,1
Y2-S2-037K20,7,514,PS,exp,40,↓,right,→,0.7790268999524415,False,10,-1,0,1
Y2-S2-037K20,7,515,PS,exp,36,↑,up,↑,0.41824820009060204,True,11,-1,0,1
Y2-S2-037K20,7,516,PS,exp,38,→,right,→,0.4351158000063151,True,11,-1,0,1
Y2-S2-037K20,7,517,PS,exp,28,←,left,←,0.46493889996781945,True,11,1,1,2
Y2-S2-037K20,7,518,PS,exp,35,↑,up,↑,0.45120750018395483,True,10,1,0,2
Y2-S2-037K20,7,519,PS,exp,48,←,left,←,0.676570100011304,True,10,1,0,2
Y2-S2-037K20,7,520,PS,exp,48,→,right,→,0.5192767998669297,True,10,1,0,2
Y2-S2-037K20,7,521,PS,exp,38,←,left,←,0.4090848998166621,True,9,1,0,2
Y2-S2-037K20,7,522,PS,exp,25,↑,right,→,0.8375077000819147,False,9,-1,1,3
Y2-S2-037K20,7,523,PS,exp,41,←,left,←,0.5131237001623958,True,10,-1,0,3
Y2-S2-037K20,7,524,PS,exp,25,↑,right,→,0.5297012999653816,False,10,-1,0,3
Y2-S2-037K20,7,525,PS,exp,44,↓,down,↓,0.503173700068146,True,11,-1,0,3
Y2-S2-037K20,7,526,PS,exp,35,→,right,→,0.454565400024876,True,11,-1,0,3
Y2-S2-037K20,7,527,PS,exp,33,↑,left,←,0.7693245999980718,False,11,-1,0,3
Y2-S2-037K20,7,528,PS,exp,37,→,right,→,0.41079310001805425,True,12,-1,0,3
Y2-S2-037K20,7,529,PS,exp,30,←,left,←,0.382234999909997,True,12,-1,0,3
Y2-S2-037K20,7,530,PS,exp,25,↑,up,↑,0.4862824999727309,True,12,1,1,4
Y2-S2-037K20,7,531,PS,exp,42,←,left,←,0.6028605001047254,True,11,1,0,4
Y2-S2-037K20,7,532,PS,exp,48,↓,down,↓,0.5918221001047641,True,11,1,0,4
Y2-S2-037K20,7,533,PS,exp,34,←,left,←,0.8756953999400139,True,11,1,0,4
Y2-S2-037K20,7,534,PS,exp,43,↑,up,↑,0.41401070007123053,True,10,1,0,4
Y2-S2-037K20,7,535,PS,exp,48,↓,down,↓,0.48296799999661744,True,10,1,0,4
Y2-S2-037K20,7,536,PS,exp,34,↑,up,↑,0.43297969992272556,True,10,1,0,4
Y2-S2-037K20,7,537,PS,exp,48,←,left,←,0.45778970001265407,True,9,1,0,4
Y2-S2-037K20,7,538,PS,exp,30,↑,up,↑,0.42520900000818074,True,9,1,0,4
Y2-S2-037K20,7,539,PS,exp,45,↓,down,↓,0.5641739999409765,True,9,1,0,4
Y2-S2-037K20,7,540,PS,exp,49,←,left,←,0.6181090997997671,True,8,1,0,4
Y2-S2-037K20,7,541,PS,exp,28,↓,down,↓,0.5549655000213534,True,8,1,0,4
Y2-S2-037K20,7,542,PS,exp,39,↑,up,↑,0.8294389001093805,True,8,1,0,4
Y2-S2-037K20,7,543,PS,exp,29,←,right,→,0.6441365999635309,False,7,-1,1,5
Y2-S2-037K20,7,544,PS,exp,33,↓,down,↓,0.5523763000965118,True,8,-1,0,5
Y2-S2-037K20,7,545,PS,exp,32,→,right,→,0.7413282999768853,True,8,-1,0,5
Y2-S2-037K20,7,546,PS,exp,50,←,left,←,0.40647309995256364,True,8,1,1,6
Y2-S2-037K20,7,547,PS,exp,36,→,right,→,0.5699638999067247,True,7,1,0,6
Y2-S2-037K20,7,548,PS,exp,27,↓,left,←,0.5559415000025183,False,7,-1,1,7
Y2-S2-037K20,7,549,PS,exp,31,↑,right,→,0.5122092000674456,False,8,-1,0,7
Y2-S2-037K20,7,550,PS,exp,32,↓,down,↓,0.5695517999120057,True,9,-1,0,7
Y2-S2-037K20,7,551,PS,exp,38,↑,up,↑,0.4356540001463145,True,9,-1,0,7
Y2-S2-037K20,7,552,PS,exp,49,←,left,←,0.49656050000339746,True,9,1,1,8
Y2-S2-037K20,7,553,PS,exp,46,→,right,→,0.6054828001651913,True,8,1,0,8
Y2-S2-037K20,7,554,PS,exp,34,←,left,←,0.5394973000511527,True,8,1,0,8
Y2-S2-037K20,7,555,PS,exp,40,↑,up,↑,0.43268610001541674,True,8,1,0,8
Y2-S2-037K20,7,556,PS,exp,34,←,right,→,0.42772660008631647,False,7,-1,1,9
Y2-S2-037K20,7,557,PS,exp,42,↑,up,↑,0.4804632000159472,True,8,-1,0,9
Y2-S2-037K20,7,558,PS,exp,30,→,right,→,0.6127816999796778,True,8,-1,0,9
Y2-S2-037K20,7,559,PS,exp,25,←,left,←,0.43803160008974373,True,8,1,1,10
Y2-S2-037K20,7,560,PS,exp,49,↑,up,↑,0.4032801000867039,True,7,1,0,10
Y2-S2-037K20,7,561,PS,exp,41,→,right,→,0.9078049999661744,True,7,1,0,10
Y2-S2-037K20,7,562,PS,exp,45,↑,left,←,0.866783699952066,False,7,-1,1,11
Y2-S2-037K20,7,563,PS,exp,29,↓,up,↑,0.7409955998882651,False,8,-1,0,11
Y2-S2-037K20,7,564,PS,exp,46,←,left,←,0.5139195998199284,True,9,-1,0,11
Y2-S2-037K20,7,565,PS,exp,37,↑,up,↑,0.5625722000841051,True,9,-1,0,11
Y2-S2-037K20,7,566,PS,exp,32,←,left,←,0.8231532000936568,True,9,1,1,12
Y2-S2-037K20,7,567,PS,exp,36,→,right,→,0.9567050999030471,True,8,1,0,12
Y2-S2-037K20,7,568,PS,exp,43,↑,up,↑,0.4601664999499917,True,8,1,0,12
Y2-S2-037K20,7,569,PS,exp,35,←,left,←,0.4203407000750303,True,8,1,0,12
Y2-S2-037K20,7,570,PS,exp,47,↑,up,↑,0.5399420999456197,True,7,1,0,12
Y2-S2-037K20,7,571,PS,exp,42,←,left,←,0.4773928001523018,True,7,1,0,12
Y2-S2-037K20,7,572,PS,exp,36,↓,left,←,0.7369868000969291,False,7,-1,1,13
Y2-S2-037K20,7,573,PS,exp,48,←,left,←,0.43139249994419515,True,8,-1,0,13
Y2-S2-037K20,7,574,PS,exp,36,↑,up,↑,0.36710019991733134,True,8,-1,0,13
Y2-S2-037K20,7,575,PS,exp,50,→,right,→,0.41829099995084107,True,8,1,1,14
Y2-S2-037K20,7,576,PS,exp,38,↑,up,↑,0.36147559992969036,True,7,1,0,14
Y2-S2-037K20,7,577,PS,exp,38,↓,left,←,0.4860316999256611,False,7,-1,1,15
Y2-S2-037K20,7,578,PS,exp,45,→,left,←,0.5827482999302447,False,8,-1,0,15
Y2-S2-037K20,7,579,PS,exp,39,↑,up,↑,0.4001027001067996,True,9,-1,0,15
Y2-S2-037K20,7,580,PS,exp,44,→,left,←,0.44085889984853566,False,9,-1,0,15
Y2-S2-037K20,7,581,PS,exp,33,↓,down,↓,0.46280260011553764,True,10,-1,0,15
Y2-S2-037K20,7,582,PS,exp,40,→,right,→,0.44350460008718073,True,10,-1,0,15
Y2-S2-037K20,7,583,PS,exp,36,←,left,←,0.6609259999822825,True,10,1,1,16
Y2-S2-037K20,8,584,AS,intra_train,47,→,right,→,0.6563661999534816,True,27,-,-,-
Y2-S2-037K20,8,585,AS,intra_train,27,↓,down,↓,0.5169777001719922,True,27,-,-,-
Y2-S2-037K20,8,586,AS,intra_train,34,↑,up,↑,0.6808336998801678,True,27,-,-,-
Y2-S2-037K20,8,587,AS,intra_train,34,↓,down,↓,0.5671236000489444,True,27,-,-,-
Y2-S2-037K20,8,588,AS,intra_train,27,←,right,→,0.5341700999997556,False,27,-,-,-
Y2-S2-037K20,8,589,AS,exp,38,→,right,→,0.5239246999844909,True,18,0,0,0
Y2-S2-037K20,8,590,AS,exp,36,↓,down,↓,0.7769941000733525,True,18,0,0,0
Y2-S2-037K20,8,591,AS,exp,43,←,left,←,0.5721327001228929,True,18,1,0,0
Y2-S2-037K20,8,592,AS,exp,36,↑,left,←,0.8954139000270516,False,17,-1,1,1
Y2-S2-037K20,8,593,AS,exp,49,←,left,←,0.48121379991061985,True,18,-1,0,1
Y2-S2-037K20,8,594,AS,exp,33,↓,down,↓,0.7379941002000123,True,18,-1,0,1
Y2-S2-037K20,8,595,AS,exp,26,←,left,←,0.4782074000686407,True,18,1,1,2
Y2-S2-037K20,8,596,AS,exp,47,↓,down,↓,0.6262550998944789,True,17,1,0,2
Y2-S2-037K20,8,597,AS,exp,37,↑,up,↑,0.982267800020054,True,17,1,0,2
Y2-S2-037K20,8,598,AS,exp,32,→,right,→,0.4721467001363635,True,17,1,0,2
Y2-S2-037K20,8,599,AS,exp,37,↓,down,↓,1.2907184001524001,True,16,1,0,2
Y2-S2-037K20,8,600,AS,exp,33,↑,up,↑,0.8898569999728352,True,16,1,0,2
Y2-S2-037K20,8,601,AS,exp,36,←,left,←,0.5255189000163227,True,16,1,0,2
Y2-S2-037K20,8,602,AS,exp,32,↓,left,←,1.020538100041449,False,15,-1,1,3
Y2-S2-037K20,8,603,AS,exp,39,→,right,→,0.5818485000636429,True,16,-1,0,3
Y2-S2-037K20,8,604,AS,exp,35,↓,down,↓,0.6377666001208127,True,16,-1,0,3
Y2-S2-037K20,8,605,AS,exp,48,←,left,←,0.6160012001637369,True,16,1,1,4
Y2-S2-037K20,8,606,AS,exp,42,→,left,←,0.8544216998852789,False,15,-1,1,5
Y2-S2-037K20,8,607,AS,exp,27,←,left,←,0.5287328001577407,True,16,-1,0,5
Y2-S2-037K20,8,608,AS,exp,33,→,right,→,0.5264649000018835,True,16,-1,0,5
Y2-S2-037K20,8,609,AS,exp,50,↑,down,↓,0.8488791999407113,False,16,-1,0,5
Y2-S2-037K20,8,610,AS,exp,41,↓,up,↑,0.9167161998338997,False,17,-1,0,5
Y2-S2-037K20,8,611,AS,exp,36,→,right,→,0.6319240999873728,True,18,-1,0,5
Y2-S2-037K20,8,612,AS,exp,44,↓,down,↓,0.6900855998974293,True,18,-1,0,5
Y2-S2-037K20,8,613,AS,exp,28,←,left,←,0.7432436998933554,True,18,1,1,6
Y2-S2-037K20,8,614,AS,exp,30,↓,up,↑,0.8974210999440402,False,17,-1,1,7
Y2-S2-037K20,8,615,AS,exp,38,→,right,→,0.5466756999958307,True,18,-1,0,7
Y2-S2-037K20,8,616,AS,exp,27,←,left,←,0.673325999872759,True,18,-1,0,7
Y2-S2-037K20,8,617,AS,exp,29,→,right,→,0.8890349001158029,True,18,1,1,8
Y2-S2-037K20,8,618,AS,exp,41,↓,down,↓,0.6662462998647243,True,17,1,0,8
Y2-S2-037K20,8,619,AS,exp,49,↑,up,↑,0.8378557998221368,True,17,1,0,8
Y2-S2-037K20,8,620,AS,exp,33,→,right,→,0.6227738000452518,True,17,1,0,8
Y2-S2-037K20,8,621,AS,exp,48,↓,down,↓,0.6402411998715252,True,16,1,0,8
Y2-S2-037K20,8,622,AS,exp,48,←,left,←,1.443887900095433,True,16,1,0,8
Y2-S2-037K20,8,623,AS,exp,49,→,right,→,0.5383458998985589,True,16,1,0,8
Y2-S2-037K20,8,624,AS,exp,42,↓,right,→,0.8803387999068946,False,15,-1,1,9
Y2-S2-037K20,8,625,AS,exp,50,↑,up,↑,0.7662806999869645,True,16,-1,0,9
Y2-S2-037K20,8,626,AS,exp,33,→,right,→,0.54825450014323,True,16,-1,0,9
Y2-S2-037K20,8,627,AS,exp,34,←,left,←,0.606122300028801,True,16,1,1,10
Y2-S2-037K20,8,628,AS,exp,50,↑,up,↑,0.9643642001319677,True,15,1,0,10
Y2-S2-037K20,8,629,AS,exp,31,→,right,→,0.49927219981327653,True,15,1,0,10
Y2-S2-037K20,8,630,AS,exp,32,←,left,←,0.6682602998334914,True,15,1,0,10
Y2-S2-037K20,8,631,AS,exp,40,→,right,→,0.6368130999617279,True,14,1,0,10
Y2-S2-037K20,8,632,AS,exp,48,↓,down,↓,0.5696546998806298,True,14,1,0,10
Y2-S2-037K20,8,633,AS,exp,30,←,left,←,0.43928400008007884,True,14,1,0,10
Y2-S2-037K20,8,634,AS,exp,27,↓,left,←,0.6420082999393344,False,13,-1,1,11
Y2-S2-037K20,8,635,AS,exp,25,←,left,←,0.46479539992287755,True,14,-1,0,11
Y2-S2-037K20,8,636,AS,exp,32,↓,down,↓,0.6246327999979258,True,14,-1,0,11
Y2-S2-037K20,8,637,AS,exp,42,←,left,←,0.6153434000443667,True,14,1,1,12
Y2-S2-037K20,8,638,AS,exp,30,→,right,→,0.9290680000558496,True,13,1,0,12
Y2-S2-037K20,8,639,AS,exp,49,↓,down,↓,0.5735420000273734,True,13,1,0,12
Y2-S2-037K20,8,640,AS,exp,25,↑,up,↑,0.47728460002690554,True,13,1,0,12
Y2-S2-037K20,8,641,AS,exp,45,↓,down,↓,0.5053102001547813,True,12,1,0,12
Y2-S2-037K20,8,642,AS,exp,25,↑,up,↑,0.8423464999068528,True,12,1,0,12
Y2-S2-037K20,8,643,AS,exp,38,→,right,→,0.5274303001351655,True,12,1,0,12
Y2-S2-037K20,8,644,AS,exp,33,↓,right,→,0.5977810998447239,False,11,-1,1,13
Y2-S2-037K20,8,645,AS,exp,49,↑,up,↑,0.5582463999744505,True,12,-1,0,13
Y2-S2-037K20,8,646,AS,exp,46,←,left,←,0.3894799000117928,True,12,-1,0,13
Y2-S2-037K20,8,647,AS,exp,39,↑,left,←,0.8384420999791473,False,12,-1,0,13
Y2-S2-037K20,8,648,AS,exp,34,↓,down,↓,0.49365810002200305,True,13,-1,0,13
Y2-S2-037K20,8,649,AS,exp,44,↑,up,↑,0.6767220001202077,True,13,-1,0,13
Y2-S2-037K20,8,650,AS,exp,40,↓,down,↓,0.7188407999929041,True,13,1,1,14
Y2-S2-037K20,8,651,AS,exp,31,←,right,→,0.49098700005561113,False,12,-1,1,15
Y2-S2-037K20,8,652,AS,exp,47,↓,up,↑,0.6420482001267374,False,13,-1,0,15
Y2-S2-037K20,8,653,AS,exp,34,→,up,↑,0.922202100045979,False,14,-1,0,15
Y2-S2-037K20,8,654,AS,exp,27,↓,down,↓,0.4959797998890281,True,15,-1,0,15
Y2-S2-037K20,8,655,AS,exp,33,↑,up,↑,0.9298141999170184,True,15,-1,0,15
Y2-S2-037K20,8,656,AS,exp,37,→,right,→,0.8855538000352681,True,15,1,1,16
