PART_ID,Block_no,Trial_no,Block_type,Trial_type,CSI,Stim_letter,Key_pressed,letter_choose,Rt,Corr,Stimulus Time,Level,Reversal,Revs_count
Y2-S2-114K19,1,1,PS,train,39,↑,left,←,1.3318008999340236,False,30,-,-,-
Y2-S2-114K19,1,2,PS,train,27,→,right,→,0.600433699786663,True,30,-,-,-
Y2-S2-114K19,1,3,PS,train,33,←,left,←,0.4841588996350765,True,30,-,-,-
Y2-S2-114K19,1,4,PS,train,26,↓,down,↓,0.6340502998791635,True,30,-,-,-
Y2-S2-114K19,1,5,PS,train,29,↑,up,↑,0.6172571997158229,True,30,-,-,-
Y2-S2-114K19,1,6,PS,train,27,←,left,←,1.3371056001633406,True,30,-,-,-
Y2-S2-114K19,1,7,PS,train,31,↑,up,↑,0.5836872002109885,True,30,-,-,-
Y2-S2-114K19,1,8,PS,train,26,→,left,←,0.41777530033141375,False,30,-,-,-
Y2-S2-114K19,1,9,PS,train,26,↓,down,↓,0.7202471001073718,True,30,-,-,-
Y2-S2-114K19,1,10,PS,train,36,←,left,←,0.6002750997431576,True,30,-,-,-
Y2-S2-114K19,2,11,AS,train,36,→,right,→,0.5343688996508718,True,45,-,-,-
Y2-S2-114K19,2,12,AS,train,32,←,left,←,0.8674315996468067,True,45,-,-,-
Y2-S2-114K19,2,13,AS,train,48,→,right,→,0.45113159995526075,True,45,-,-,-
Y2-S2-114K19,2,14,AS,train,44,↑,up,↑,1.4874618002213538,True,45,-,-,-
Y2-S2-114K19,2,15,AS,train,40,←,left,←,0.5845117000862956,True,45,-,-,-
Y2-S2-114K19,2,16,AS,train,38,→,right,→,0.6341619002632797,True,45,-,-,-
Y2-S2-114K19,2,17,AS,train,46,↑,up,↑,0.6848443001508713,True,45,-,-,-
Y2-S2-114K19,2,18,AS,train,38,←,left,←,0.6841204999946058,True,45,-,-,-
Y2-S2-114K19,2,19,AS,train,29,↓,down,↓,0.8008520002476871,True,45,-,-,-
Y2-S2-114K19,2,20,AS,train,44,↑,up,↑,0.8006223998963833,True,45,-,-,-
Y2-S2-114K19,-,21,PS,adaptive,46,↓,down,↓,0.5757999997586012,True,10,0,0,0
Y2-S2-114K19,-,22,PS,adaptive,46,→,right,→,0.5735971997492015,True,10,0,0,0
Y2-S2-114K19,-,23,PS,adaptive,42,↑,up,↑,0.6534597999416292,True,10,1,0,0
Y2-S2-114K19,-,24,PS,adaptive,41,←,down,↓,0.762051799800247,False,9,-1,1,1
Y2-S2-114K19,-,25,PS,adaptive,28,↓,down,↓,0.6513728997670114,True,10,-1,0,1
Y2-S2-114K19,-,26,PS,adaptive,46,←,right,→,0.7256467998959124,False,10,-1,0,1
Y2-S2-114K19,-,27,PS,adaptive,29,↓,down,↓,0.5661591999232769,True,11,-1,0,1
Y2-S2-114K19,-,28,PS,adaptive,36,↑,up,↑,0.4710146998986602,True,11,-1,0,1
Y2-S2-114K19,-,29,PS,adaptive,34,↓,down,↓,0.6808459996245801,True,11,1,1,2
Y2-S2-114K19,-,30,PS,adaptive,34,←,left,←,0.7055537002161145,True,10,1,0,2
Y2-S2-114K19,-,31,PS,adaptive,34,↓,right,→,0.7319311001338065,False,10,-1,1,3
Y2-S2-114K19,-,32,PS,adaptive,47,↑,up,↑,0.5829037996008992,True,11,-1,0,3
Y2-S2-114K19,-,33,PS,adaptive,29,←,left,←,0.6117802001535892,True,11,-1,0,3
Y2-S2-114K19,-,34,PS,adaptive,46,↑,up,↑,0.7988022998906672,True,11,1,1,4
Y2-S2-114K19,-,35,AS,adaptive,37,↓,down,↓,0.5218166001141071,True,20,0,0,0
Y2-S2-114K19,-,36,AS,adaptive,37,←,right,→,0.7254868000745773,False,20,-1,0,0
Y2-S2-114K19,-,37,AS,adaptive,45,↓,down,↓,1.033157399855554,True,21,-1,0,0
Y2-S2-114K19,-,38,AS,adaptive,48,←,left,←,0.5838917000219226,True,21,-1,0,0
Y2-S2-114K19,-,39,AS,adaptive,29,↑,up,↑,0.5446738000027835,True,21,1,1,1
Y2-S2-114K19,-,40,AS,adaptive,26,←,left,←,0.5294929998926818,True,20,1,0,1
Y2-S2-114K19,-,41,AS,adaptive,38,→,left,←,0.5251289000734687,False,20,-1,1,2
Y2-S2-114K19,-,42,AS,adaptive,47,←,left,←,0.5182663002051413,True,21,-1,0,2
Y2-S2-114K19,-,43,AS,adaptive,44,↓,down,↓,0.8770949998870492,True,21,-1,0,2
Y2-S2-114K19,-,44,AS,adaptive,30,←,left,←,0.6924261003732681,True,21,1,1,3
Y2-S2-114K19,-,45,AS,adaptive,43,↑,up,↑,0.5078467996791005,True,20,1,0,3
Y2-S2-114K19,-,46,AS,adaptive,45,→,right,→,0.6014196998439729,True,20,1,0,3
Y2-S2-114K19,-,47,AS,adaptive,33,←,left,←,0.5181974996812642,True,20,1,0,3
Y2-S2-114K19,-,48,AS,adaptive,46,→,right,→,0.6452502999454737,True,19,1,0,3
Y2-S2-114K19,-,49,AS,adaptive,44,←,left,←,0.5832797000184655,True,19,1,0,3
Y2-S2-114K19,-,50,AS,adaptive,35,→,right,→,0.622707299888134,True,19,1,0,3
Y2-S2-114K19,-,51,AS,adaptive,47,↓,down,↓,0.8516278001479805,True,18,1,0,3
Y2-S2-114K19,-,52,AS,adaptive,35,→,right,→,0.535674000158906,True,18,1,0,3
Y2-S2-114K19,-,53,AS,adaptive,31,↓,down,↓,0.5381800001487136,True,18,1,0,3
Y2-S2-114K19,-,54,AS,adaptive,40,↑,right,→,0.4006767999380827,False,17,-1,1,4
Y2-S2-114K19,1,55,AS,intra_train,49,↓,down,↓,0.6258400999940932,True,27,-,-,-
Y2-S2-114K19,1,56,AS,intra_train,38,→,right,→,0.45076189981773496,True,27,-,-,-
Y2-S2-114K19,1,57,AS,intra_train,32,↓,down,↓,1.3308590999804437,True,27,-,-,-
Y2-S2-114K19,1,58,AS,intra_train,40,↑,up,↑,0.8271416998468339,True,27,-,-,-
Y2-S2-114K19,1,59,AS,intra_train,43,←,left,←,0.711189900059253,True,27,-,-,-
Y2-S2-114K19,1,60,AS,exp,27,→,right,→,0.5057931998744607,True,18,0,0,0
Y2-S2-114K19,1,61,AS,exp,40,↑,up,↑,0.7059987997636199,True,18,0,0,0
Y2-S2-114K19,1,62,AS,exp,25,→,right,→,0.6576802995987236,True,18,1,0,0
Y2-S2-114K19,1,63,AS,exp,38,←,right,→,0.8553121001459658,False,17,-1,1,1
Y2-S2-114K19,1,64,AS,exp,46,↓,down,↓,0.5897371000610292,True,18,-1,0,1
Y2-S2-114K19,1,65,AS,exp,49,↑,up,↑,0.5829989002086222,True,18,-1,0,1
Y2-S2-114K19,1,66,AS,exp,34,↓,down,↓,0.6592049999162555,True,18,1,1,2
Y2-S2-114K19,1,67,AS,exp,35,←,left,←,0.5904586999677122,True,17,1,0,2
Y2-S2-114K19,1,68,AS,exp,39,↓,left,←,1.2753818999044597,False,17,-1,1,3
Y2-S2-114K19,1,69,AS,exp,30,↑,up,↑,0.6207866999320686,True,18,-1,0,3
Y2-S2-114K19,1,70,AS,exp,29,←,up,↑,1.0444660997018218,False,18,-1,0,3
Y2-S2-114K19,1,71,AS,exp,28,↑,up,↑,0.5416910001076758,True,19,-1,0,3
Y2-S2-114K19,1,72,AS,exp,28,→,right,→,0.6243823999539018,True,19,-1,0,3
Y2-S2-114K19,1,73,AS,exp,50,←,left,←,0.6046190001070499,True,19,1,1,4
Y2-S2-114K19,1,74,AS,exp,28,→,right,→,0.7441627997905016,True,18,1,0,4
Y2-S2-114K19,1,75,AS,exp,30,↑,down,↓,0.9220501999370754,False,18,-1,1,5
Y2-S2-114K19,1,76,AS,exp,31,→,right,→,0.49888750026002526,True,19,-1,0,5
Y2-S2-114K19,1,77,AS,exp,41,←,left,←,0.9792475001886487,True,19,-1,0,5
Y2-S2-114K19,1,78,AS,exp,42,→,right,→,0.59596629999578,True,19,1,1,6
Y2-S2-114K19,1,79,AS,exp,43,↑,up,↑,0.5678368001244962,True,18,1,0,6
Y2-S2-114K19,1,80,AS,exp,39,↓,down,↓,0.655110300052911,True,18,1,0,6
Y2-S2-114K19,1,81,AS,exp,48,↑,up,↑,0.5857267999090254,True,18,1,0,6
Y2-S2-114K19,1,82,AS,exp,40,→,right,→,0.5071224998682737,True,17,1,0,6
Y2-S2-114K19,1,83,AS,exp,47,←,left,←,0.7199270999990404,True,17,1,0,6
Y2-S2-114K19,1,84,AS,exp,40,→,right,→,0.48674320010468364,True,17,1,0,6
Y2-S2-114K19,1,85,AS,exp,27,↑,left,←,1.0117778000421822,False,16,-1,1,7
Y2-S2-114K19,1,86,AS,exp,25,→,right,→,0.540431400295347,True,17,-1,0,7
Y2-S2-114K19,1,87,AS,exp,27,↓,right,→,0.8881042003631592,False,17,-1,0,7
Y2-S2-114K19,1,88,AS,exp,33,←,right,→,0.4758932003751397,False,18,-1,0,7
Y2-S2-114K19,1,89,AS,exp,26,↓,down,↓,0.6507412004284561,True,19,-1,0,7
Y2-S2-114K19,1,90,AS,exp,44,→,right,→,0.5804628999903798,True,19,-1,0,7
Y2-S2-114K19,1,91,AS,exp,48,↑,up,↑,0.7633913001045585,True,19,1,1,8
Y2-S2-114K19,1,92,AS,exp,45,↓,down,↓,0.692998600192368,True,18,1,0,8
Y2-S2-114K19,1,93,AS,exp,41,←,left,←,0.6082371999509633,True,18,1,0,8
Y2-S2-114K19,1,94,AS,exp,42,→,left,←,0.6133208000101149,False,18,-1,1,9
Y2-S2-114K19,1,95,AS,exp,25,↑,up,↑,0.813263799995184,True,19,-1,0,9
Y2-S2-114K19,1,96,AS,exp,29,↓,down,↓,0.6612726002931595,True,19,-1,0,9
Y2-S2-114K19,1,97,AS,exp,37,→,right,→,0.5954497000202537,True,19,1,1,10
Y2-S2-114K19,1,98,AS,exp,42,↑,up,↑,0.5269144000485539,True,18,1,0,10
Y2-S2-114K19,1,99,AS,exp,36,←,left,←,0.6318822000175714,True,18,1,0,10
Y2-S2-114K19,1,100,AS,exp,49,↓,down,↓,0.6668734000995755,True,18,1,0,10
Y2-S2-114K19,1,101,AS,exp,36,←,right,→,0.7813436998985708,False,17,-1,1,11
Y2-S2-114K19,1,102,AS,exp,31,→,right,→,0.5171495997346938,True,18,-1,0,11
Y2-S2-114K19,1,103,AS,exp,47,←,left,←,0.5564527004025877,True,18,-1,0,11
Y2-S2-114K19,1,104,AS,exp,35,↓,up,↑,0.7098527997732162,False,18,-1,0,11
Y2-S2-114K19,1,105,AS,exp,45,←,left,←,0.6979656000621617,True,19,-1,0,11
Y2-S2-114K19,1,106,AS,exp,50,↑,up,↑,0.5986059000715613,True,19,-1,0,11
Y2-S2-114K19,1,107,AS,exp,27,↓,right,→,1.0487331999465823,False,19,-1,0,11
Y2-S2-114K19,1,108,AS,exp,43,←,left,←,0.5031093000434339,True,20,-1,0,11
Y2-S2-114K19,1,109,AS,exp,46,→,right,→,0.6023579998873174,True,20,-1,0,11
Y2-S2-114K19,1,110,AS,exp,30,↑,up,↑,0.5619879001751542,True,20,1,1,12
Y2-S2-114K19,1,111,AS,exp,37,←,left,←,0.8272975999861956,True,19,1,0,12
Y2-S2-114K19,1,112,AS,exp,34,↓,down,↓,0.7632884001359344,True,19,1,0,12
Y2-S2-114K19,1,113,AS,exp,44,↑,up,↑,0.6660925000905991,True,19,1,0,12
Y2-S2-114K19,1,114,AS,exp,42,→,right,→,0.6624936000443995,True,18,1,0,12
Y2-S2-114K19,1,115,AS,exp,36,←,left,←,0.8839715998619795,True,18,1,0,12
Y2-S2-114K19,1,116,AS,exp,30,↑,up,↑,0.5694935000501573,True,18,1,0,12
Y2-S2-114K19,1,117,AS,exp,45,←,left,←,0.6527356002479792,True,17,1,0,12
Y2-S2-114K19,1,118,AS,exp,32,↓,down,↓,0.6239297003485262,True,17,1,0,12
Y2-S2-114K19,1,119,AS,exp,46,←,left,←,0.48489119997248054,True,17,1,0,12
Y2-S2-114K19,1,120,AS,exp,41,↑,left,←,0.7683212999254465,False,16,-1,1,13
Y2-S2-114K19,1,121,AS,exp,32,→,right,→,0.5097347996197641,True,17,-1,0,13
Y2-S2-114K19,1,122,AS,exp,29,↓,down,↓,0.5530149000696838,True,17,-1,0,13
Y2-S2-114K19,1,123,AS,exp,36,→,left,←,0.5911793000996113,False,17,-1,0,13
Y2-S2-114K19,1,124,AS,exp,32,↑,down,↓,0.7045847000554204,False,18,-1,0,13
Y2-S2-114K19,1,125,AS,exp,26,→,right,→,0.5221139998175204,True,19,-1,0,13
Y2-S2-114K19,1,126,AS,exp,45,↓,down,↓,0.7348254998214543,True,19,-1,0,13
Y2-S2-114K19,1,127,AS,exp,42,→,right,→,0.5400724997743964,True,19,1,1,14
Y2-S2-114K19,1,128,AS,exp,50,↓,down,↓,0.969378300011158,True,18,1,0,14
Y2-S2-114K19,1,129,AS,exp,38,→,no_key,no_letter,-1.0,False,18,-1,1,15
Y2-S2-114K19,1,130,AS,exp,41,↓,down,↓,0.5885168998502195,True,19,-1,0,15
Y2-S2-114K19,1,131,AS,exp,43,↑,down,↓,0.7112610996700823,False,19,-1,0,15
Y2-S2-114K19,1,132,AS,exp,40,↓,right,→,0.5916615999303758,False,20,-1,0,15
Y2-S2-114K19,1,133,AS,exp,29,←,left,←,0.8275393000803888,True,21,-1,0,15
Y2-S2-114K19,1,134,AS,exp,44,↑,up,↑,0.8015486001968384,True,21,-1,0,15
Y2-S2-114K19,1,135,AS,exp,37,→,right,→,0.6424887999892235,True,21,1,1,16
Y2-S2-114K19,2,136,PS,intra_train,40,←,left,←,0.689538300037384,True,15,-,-,-
Y2-S2-114K19,2,137,PS,intra_train,44,↓,down,↓,0.6074303002096713,True,15,-,-,-
Y2-S2-114K19,2,138,PS,intra_train,43,←,left,←,0.5121941999532282,True,15,-,-,-
Y2-S2-114K19,2,139,PS,intra_train,38,→,right,→,0.5609070998616517,True,15,-,-,-
Y2-S2-114K19,2,140,PS,intra_train,44,↓,down,↓,0.7480263998731971,True,15,-,-,-
Y2-S2-114K19,2,141,PS,exp,48,←,right,→,0.5698807998560369,False,10,-1,0,0
Y2-S2-114K19,2,142,PS,exp,37,↑,up,↑,0.7621717001311481,True,11,-1,0,0
Y2-S2-114K19,2,143,PS,exp,31,→,right,→,0.5762795996852219,True,11,-1,0,0
Y2-S2-114K19,2,144,PS,exp,42,↑,up,↑,0.6349125001579523,True,11,1,1,1
Y2-S2-114K19,2,145,PS,exp,50,→,right,→,0.4426138997077942,True,10,1,0,1
Y2-S2-114K19,2,146,PS,exp,50,↑,up,↑,0.4781622001901269,True,10,1,0,1
Y2-S2-114K19,2,147,PS,exp,31,↓,up,↑,0.6695072003640234,False,10,-1,1,2
Y2-S2-114K19,2,148,PS,exp,44,←,right,→,0.6127296998165548,False,11,-1,0,2
Y2-S2-114K19,2,149,PS,exp,49,→,right,→,0.45449399994686246,True,12,-1,0,2
Y2-S2-114K19,2,150,PS,exp,27,←,right,→,0.48730430006980896,False,12,-1,0,2
Y2-S2-114K19,2,151,PS,exp,33,→,right,→,0.4383080000989139,True,13,-1,0,2
Y2-S2-114K19,2,152,PS,exp,40,←,right,→,0.5653273998759687,False,13,-1,0,2
Y2-S2-114K19,2,153,PS,exp,27,↓,down,↓,0.6190227000042796,True,14,-1,0,2
Y2-S2-114K19,2,154,PS,exp,44,↑,up,↑,0.5397975998930633,True,14,-1,0,2
Y2-S2-114K19,2,155,PS,exp,31,→,right,→,0.5256231999956071,True,14,1,1,3
Y2-S2-114K19,2,156,PS,exp,44,←,left,←,0.7319765002466738,True,13,1,0,3
Y2-S2-114K19,2,157,PS,exp,28,↓,down,↓,0.6351268999278545,True,13,1,0,3
Y2-S2-114K19,2,158,PS,exp,30,←,left,←,0.5714124999940395,True,13,1,0,3
Y2-S2-114K19,2,159,PS,exp,37,↓,down,↓,0.5600517997518182,True,12,1,0,3
Y2-S2-114K19,2,160,PS,exp,44,←,right,→,0.3894775998778641,False,12,-1,1,4
Y2-S2-114K19,2,161,PS,exp,43,→,right,→,0.6074696001596749,True,13,-1,0,4
Y2-S2-114K19,2,162,PS,exp,46,↓,down,↓,0.6473403996787965,True,13,-1,0,4
Y2-S2-114K19,2,163,PS,exp,35,←,left,←,0.8949977001175284,True,13,1,1,5
Y2-S2-114K19,2,164,PS,exp,34,↓,down,↓,0.5331158000044525,True,12,1,0,5
Y2-S2-114K19,2,165,PS,exp,40,↑,right,→,0.6002438999712467,False,12,-1,1,6
Y2-S2-114K19,2,166,PS,exp,31,↓,up,↑,0.740667600184679,False,13,-1,0,6
Y2-S2-114K19,2,167,PS,exp,34,→,right,→,0.6655686995945871,True,14,-1,0,6
Y2-S2-114K19,2,168,PS,exp,38,↑,up,↑,0.48650910006836057,True,14,-1,0,6
Y2-S2-114K19,2,169,PS,exp,34,↓,down,↓,0.6312252003699541,True,14,1,1,7
Y2-S2-114K19,2,170,PS,exp,48,→,right,→,0.5177519000135362,True,13,1,0,7
Y2-S2-114K19,2,171,PS,exp,37,↑,up,↑,0.5644102999940515,True,13,1,0,7
Y2-S2-114K19,2,172,PS,exp,28,→,right,→,0.5899672000668943,True,13,1,0,7
Y2-S2-114K19,2,173,PS,exp,41,↓,down,↓,0.578090799972415,True,12,1,0,7
Y2-S2-114K19,2,174,PS,exp,27,→,right,→,0.506098700221628,True,12,1,0,7
Y2-S2-114K19,2,175,PS,exp,27,↑,up,↑,0.523033999837935,True,12,1,0,7
Y2-S2-114K19,2,176,PS,exp,33,→,right,→,0.5340611999854445,True,11,1,0,7
Y2-S2-114K19,2,177,PS,exp,29,↑,up,↑,0.7998526999726892,True,11,1,0,7
Y2-S2-114K19,2,178,PS,exp,49,↓,down,↓,0.5819366998039186,True,11,1,0,7
Y2-S2-114K19,2,179,PS,exp,26,←,left,←,0.5883674998767674,True,10,1,0,7
Y2-S2-114K19,2,180,PS,exp,30,↑,up,↑,0.4228995000012219,True,10,1,0,7
Y2-S2-114K19,2,181,PS,exp,30,←,left,←,0.5728695997968316,True,10,1,0,7
Y2-S2-114K19,2,182,PS,exp,30,→,right,→,0.47202320024371147,True,9,1,0,7
Y2-S2-114K19,2,183,PS,exp,40,↑,up,↑,0.5105070997960865,True,9,1,0,7
Y2-S2-114K19,2,184,PS,exp,40,←,left,←,0.7152489996515214,True,9,1,0,7
Y2-S2-114K19,2,185,PS,exp,28,→,right,→,0.5424258997663856,True,8,1,0,7
Y2-S2-114K19,2,186,PS,exp,42,↓,down,↓,0.5856706998310983,True,8,1,0,7
Y2-S2-114K19,2,187,PS,exp,43,→,up,↑,0.5829261001199484,False,8,-1,1,8
Y2-S2-114K19,2,188,PS,exp,31,↓,left,←,0.7776357000693679,False,9,-1,0,8
Y2-S2-114K19,2,189,PS,exp,39,→,right,→,0.433001599740237,True,10,-1,0,8
Y2-S2-114K19,2,190,PS,exp,31,↑,left,←,0.5097040999680758,False,10,-1,0,8
Y2-S2-114K19,2,191,PS,exp,28,↓,left,←,0.5364033998921514,False,11,-1,0,8
Y2-S2-114K19,2,192,PS,exp,32,↑,left,←,0.5743579999543726,False,12,-1,0,8
Y2-S2-114K19,2,193,PS,exp,49,←,left,←,0.5252089998684824,True,13,-1,0,8
Y2-S2-114K19,2,194,PS,exp,38,↑,left,←,0.4292920003645122,False,13,-1,0,8
Y2-S2-114K19,2,195,PS,exp,44,→,right,→,0.46146539971232414,True,14,-1,0,8
Y2-S2-114K19,2,196,PS,exp,49,↑,up,↑,0.4859996000304818,True,14,-1,0,8
Y2-S2-114K19,2,197,PS,exp,34,←,left,←,0.4692350998520851,True,14,1,1,9
Y2-S2-114K19,2,198,PS,exp,28,→,right,→,0.7940588002093136,True,13,1,0,9
Y2-S2-114K19,2,199,PS,exp,47,←,left,←,0.43505349988117814,True,13,1,0,9
Y2-S2-114K19,2,200,PS,exp,47,→,right,→,0.4644301999360323,True,13,1,0,9
Y2-S2-114K19,2,201,PS,exp,43,↑,up,↑,0.489310699980706,True,12,1,0,9
Y2-S2-114K19,2,202,PS,exp,34,→,right,→,0.6241022003814578,True,12,1,0,9
Y2-S2-114K19,2,203,PS,exp,43,↑,up,↑,0.5627403999678791,True,12,1,0,9
Y2-S2-114K19,2,204,PS,exp,43,→,right,→,0.4703138000331819,True,11,1,0,9
Y2-S2-114K19,2,205,PS,exp,42,↓,down,↓,0.6335900002159178,True,11,1,0,9
Y2-S2-114K19,2,206,PS,exp,39,←,left,←,0.5173851996660233,True,11,1,0,9
Y2-S2-114K19,2,207,PS,exp,43,↓,down,↓,0.5730757000856102,True,10,1,0,9
Y2-S2-114K19,2,208,PS,exp,40,→,right,→,0.7631443999707699,True,10,1,0,9
Y2-S2-114K19,2,209,PS,exp,37,←,left,←,0.8598787998780608,True,10,1,0,9
Y2-S2-114K19,2,210,PS,exp,49,↓,left,←,0.7029256001114845,False,9,-1,1,10
Y2-S2-114K19,2,211,PS,exp,31,→,right,→,0.4559690998867154,True,10,-1,0,10
Y2-S2-114K19,2,212,PS,exp,27,↑,up,↑,0.5798030998557806,True,10,-1,0,10
Y2-S2-114K19,2,213,PS,exp,36,→,right,→,0.48851530021056533,True,10,1,1,11
Y2-S2-114K19,2,214,PS,exp,38,↓,down,↓,0.9327418999746442,True,9,1,0,11
Y2-S2-114K19,2,215,PS,exp,48,←,up,↑,0.6578367999754846,False,9,-1,1,12
Y2-S2-114K19,2,216,PS,exp,34,→,right,→,0.4683225997723639,True,10,-1,0,12
Y2-S2-114K19,2,217,PS,exp,30,↓,left,←,0.8606050000526011,False,10,-1,0,12
Y2-S2-114K19,2,218,PS,exp,30,↑,up,↑,0.5148311001248658,True,11,-1,0,12
Y2-S2-114K19,2,219,PS,exp,33,↓,down,↓,0.6391819999553263,True,11,-1,0,12
Y2-S2-114K19,2,220,PS,exp,49,→,right,→,0.5312113999389112,True,11,1,1,13
Y2-S2-114K19,2,221,PS,exp,45,←,right,→,0.5974491001106799,False,10,-1,1,14
Y2-S2-114K19,2,222,PS,exp,40,→,right,→,0.49060510005801916,True,11,-1,0,14
Y2-S2-114K19,2,223,PS,exp,27,↑,right,→,0.5083368998020887,False,11,-1,0,14
Y2-S2-114K19,2,224,PS,exp,48,↓,down,↓,0.6743425996974111,True,12,-1,0,14
Y2-S2-114K19,2,225,PS,exp,28,↑,up,↑,0.5140968998894095,True,12,-1,0,14
Y2-S2-114K19,2,226,PS,exp,29,←,right,→,0.6292944997549057,False,12,-1,0,14
Y2-S2-114K19,2,227,PS,exp,43,→,right,→,0.48287099972367287,True,13,-1,0,14
Y2-S2-114K19,2,228,PS,exp,45,↑,up,↑,0.45966010028496385,True,13,-1,0,14
Y2-S2-114K19,2,229,PS,exp,44,→,right,→,0.6470041000284255,True,13,1,1,15
Y2-S2-114K19,2,230,PS,exp,41,↑,up,↑,0.4790135999210179,True,12,1,0,15
Y2-S2-114K19,2,231,PS,exp,37,↓,down,↓,0.6198474997654557,True,12,1,0,15
Y2-S2-114K19,2,232,PS,exp,47,→,down,↓,0.7029027999378741,False,12,-1,1,16
Y2-S2-114K19,3,233,PS,intra_train,26,←,left,←,0.9184011002071202,True,15,-,-,-
Y2-S2-114K19,3,234,PS,intra_train,30,↓,down,↓,0.6229075998999178,True,15,-,-,-
Y2-S2-114K19,3,235,PS,intra_train,30,←,left,←,0.5059825000353158,True,15,-,-,-
Y2-S2-114K19,3,236,PS,intra_train,46,→,right,→,0.496231600176543,True,15,-,-,-
Y2-S2-114K19,3,237,PS,intra_train,34,↓,down,↓,0.6708221998997033,True,15,-,-,-
Y2-S2-114K19,3,238,PS,exp,40,→,right,→,0.5279278000816703,True,10,0,0,0
Y2-S2-114K19,3,239,PS,exp,29,↓,down,↓,0.5347795002162457,True,10,0,0,0
Y2-S2-114K19,3,240,PS,exp,36,→,right,→,0.5048341997899115,True,10,1,0,0
Y2-S2-114K19,3,241,PS,exp,35,↓,down,↓,0.5369408000260592,True,9,1,0,0
Y2-S2-114K19,3,242,PS,exp,30,←,down,↓,0.6265954999253154,False,9,-1,1,1
Y2-S2-114K19,3,243,PS,exp,50,→,right,→,0.5194453001022339,True,10,-1,0,1
Y2-S2-114K19,3,244,PS,exp,25,←,down,↓,0.7254497003741562,False,10,-1,0,1
Y2-S2-114K19,3,245,PS,exp,43,↓,left,←,0.7546688001602888,False,11,-1,0,1
Y2-S2-114K19,3,246,PS,exp,41,↑,down,↓,0.7829208998009562,False,12,-1,0,1
Y2-S2-114K19,3,247,PS,exp,30,←,left,←,0.6131555996835232,True,13,-1,0,1
Y2-S2-114K19,3,248,PS,exp,29,→,right,→,0.540399800054729,True,13,-1,0,1
Y2-S2-114K19,3,249,PS,exp,45,←,right,→,0.6709390999749303,False,13,-1,0,1
Y2-S2-114K19,3,250,PS,exp,33,↓,down,↓,0.8446912998333573,True,14,-1,0,1
Y2-S2-114K19,3,251,PS,exp,28,←,left,←,0.5192432003095746,True,14,-1,0,1
Y2-S2-114K19,3,252,PS,exp,27,↓,down,↓,0.587582599837333,True,14,1,1,2
Y2-S2-114K19,3,253,PS,exp,42,→,right,→,0.5300284996628761,True,13,1,0,2
Y2-S2-114K19,3,254,PS,exp,39,↑,up,↑,0.6973296999931335,True,13,1,0,2
Y2-S2-114K19,3,255,PS,exp,36,↓,left,←,0.8365664002485573,False,13,-1,1,3
Y2-S2-114K19,3,256,PS,exp,44,←,left,←,0.5841532000340521,True,14,-1,0,3
Y2-S2-114K19,3,257,PS,exp,36,↓,down,↓,0.5857907999306917,True,14,-1,0,3
Y2-S2-114K19,3,258,PS,exp,32,→,right,→,0.4805548000149429,True,14,1,1,4
Y2-S2-114K19,3,259,PS,exp,33,↓,down,↓,0.58135150000453,True,13,1,0,4
Y2-S2-114K19,3,260,PS,exp,49,↑,up,↑,0.5640561999753118,True,13,1,0,4
Y2-S2-114K19,3,261,PS,exp,29,↓,down,↓,0.5784822995774448,True,13,1,0,4
Y2-S2-114K19,3,262,PS,exp,35,←,left,←,0.6271498999558389,True,12,1,0,4
Y2-S2-114K19,3,263,PS,exp,32,↑,up,↑,0.6663858001120389,True,12,1,0,4
Y2-S2-114K19,3,264,PS,exp,47,→,right,→,0.4465652001090348,True,12,1,0,4
Y2-S2-114K19,3,265,PS,exp,35,←,left,←,0.834179200232029,True,11,1,0,4
Y2-S2-114K19,3,266,PS,exp,26,↑,left,←,0.8354902002029121,False,11,-1,1,5
Y2-S2-114K19,3,267,PS,exp,37,→,right,→,0.7577900998294353,True,12,-1,0,5
Y2-S2-114K19,3,268,PS,exp,50,↓,down,↓,0.6479978002607822,True,12,-1,0,5
Y2-S2-114K19,3,269,PS,exp,36,←,left,←,0.4974179002456367,True,12,1,1,6
Y2-S2-114K19,3,270,PS,exp,48,↑,up,↑,0.5598011999391019,True,11,1,0,6
Y2-S2-114K19,3,271,PS,exp,36,←,left,←,0.6585011999122798,True,11,1,0,6
Y2-S2-114K19,3,272,PS,exp,43,→,right,→,0.5280475001782179,True,11,1,0,6
Y2-S2-114K19,3,273,PS,exp,40,↑,left,←,0.8612346998415887,False,10,-1,1,7
Y2-S2-114K19,3,274,PS,exp,32,↓,down,↓,0.5922181000933051,True,11,-1,0,7
Y2-S2-114K19,3,275,PS,exp,29,↑,up,↑,0.43871690006926656,True,11,-1,0,7
Y2-S2-114K19,3,276,PS,exp,42,←,left,←,0.5585052999667823,True,11,1,1,8
Y2-S2-114K19,3,277,PS,exp,39,↓,left,←,0.7305451002903283,False,10,-1,1,9
Y2-S2-114K19,3,278,PS,exp,46,←,left,←,0.5490922997705638,True,11,-1,0,9
Y2-S2-114K19,3,279,PS,exp,38,↓,left,←,0.6602397998794913,False,11,-1,0,9
Y2-S2-114K19,3,280,PS,exp,33,→,right,→,0.5175175000913441,True,12,-1,0,9
Y2-S2-114K19,3,281,PS,exp,25,↑,up,↑,0.5605015000328422,True,12,-1,0,9
Y2-S2-114K19,3,282,PS,exp,25,→,right,→,0.6819894998334348,True,12,1,1,10
Y2-S2-114K19,3,283,PS,exp,30,↑,right,→,0.5531799998134375,False,11,-1,1,11
Y2-S2-114K19,3,284,PS,exp,32,←,left,←,0.6697557000443339,True,12,-1,0,11
Y2-S2-114K19,3,285,PS,exp,35,↓,down,↓,0.6505184001289308,True,12,-1,0,11
Y2-S2-114K19,3,286,PS,exp,44,←,right,→,0.500235500279814,False,12,-1,0,11
Y2-S2-114K19,3,287,PS,exp,50,→,right,→,0.47238800022751093,True,13,-1,0,11
Y2-S2-114K19,3,288,PS,exp,37,←,left,←,0.5560129000805318,True,13,-1,0,11
Y2-S2-114K19,3,289,PS,exp,49,↓,down,↓,0.6378809004090726,True,13,1,1,12
Y2-S2-114K19,3,290,PS,exp,48,←,left,←,0.49770089983940125,True,12,1,0,12
Y2-S2-114K19,3,291,PS,exp,34,→,right,→,0.5259423996321857,True,12,1,0,12
Y2-S2-114K19,3,292,PS,exp,42,←,left,←,0.5567769999615848,True,12,1,0,12
Y2-S2-114K19,3,293,PS,exp,37,↑,up,↑,0.5989079000428319,True,11,1,0,12
Y2-S2-114K19,3,294,PS,exp,45,→,right,→,0.5206838003359735,True,11,1,0,12
Y2-S2-114K19,3,295,PS,exp,25,↓,down,↓,0.6994639001786709,True,11,1,0,12
Y2-S2-114K19,3,296,PS,exp,25,←,down,↓,0.662098300177604,False,10,-1,1,13
Y2-S2-114K19,3,297,PS,exp,49,→,right,→,0.5052560004405677,True,11,-1,0,13
Y2-S2-114K19,3,298,PS,exp,42,←,left,←,0.5363651001825929,True,11,-1,0,13
Y2-S2-114K19,3,299,PS,exp,49,↓,down,↓,0.6401265999302268,True,11,1,1,14
Y2-S2-114K19,3,300,PS,exp,49,←,right,→,0.7066421997733414,False,10,-1,1,15
Y2-S2-114K19,3,301,PS,exp,32,↑,right,→,0.7023726999759674,False,11,-1,0,15
Y2-S2-114K19,3,302,PS,exp,27,→,right,→,0.5032999003306031,True,12,-1,0,15
Y2-S2-114K19,3,303,PS,exp,45,↑,up,↑,0.6109567997045815,True,12,-1,0,15
Y2-S2-114K19,3,304,PS,exp,28,←,left,←,0.8722192998975515,True,12,1,1,16
Y2-S2-114K19,4,305,AS,intra_train,45,↓,down,↓,1.6901445998810232,True,27,-,-,-
Y2-S2-114K19,4,306,AS,intra_train,36,←,left,←,0.5339171998202801,True,27,-,-,-
Y2-S2-114K19,4,307,AS,intra_train,47,↓,down,↓,0.6974630998447537,True,27,-,-,-
Y2-S2-114K19,4,308,AS,intra_train,25,→,right,→,0.6981911999173462,True,27,-,-,-
Y2-S2-114K19,4,309,AS,intra_train,41,↓,down,↓,0.6818556999787688,True,27,-,-,-
Y2-S2-114K19,4,310,AS,exp,41,↑,right,→,0.9731495999731123,False,18,-1,0,0
Y2-S2-114K19,4,311,AS,exp,26,→,right,→,0.6691351002082229,True,19,-1,0,0
Y2-S2-114K19,4,312,AS,exp,35,←,left,←,0.520524499937892,True,19,-1,0,0
Y2-S2-114K19,4,313,AS,exp,36,↑,left,←,0.9822781002148986,False,19,-1,0,0
Y2-S2-114K19,4,314,AS,exp,50,↓,down,↓,0.6171069000847638,True,20,-1,0,0
Y2-S2-114K19,4,315,AS,exp,39,←,left,←,0.5299132997170091,True,20,-1,0,0
Y2-S2-114K19,4,316,AS,exp,25,↑,left,←,0.6414731000550091,False,20,-1,0,0
Y2-S2-114K19,4,317,AS,exp,35,→,right,→,0.5350658996030688,True,21,-1,0,0
Y2-S2-114K19,4,318,AS,exp,44,↑,up,↑,0.623996399808675,True,21,-1,0,0
Y2-S2-114K19,4,319,AS,exp,41,→,right,→,0.5255982996895909,True,21,1,1,1
Y2-S2-114K19,4,320,AS,exp,38,↑,right,→,0.43365229992195964,False,20,-1,1,2
Y2-S2-114K19,4,321,AS,exp,33,↓,down,↓,0.5934216002933681,True,21,-1,0,2
Y2-S2-114K19,4,322,AS,exp,30,→,right,→,0.6141163003630936,True,21,-1,0,2
Y2-S2-114K19,4,323,AS,exp,48,←,right,→,0.877885099966079,False,21,-1,0,2
Y2-S2-114K19,4,324,AS,exp,30,→,right,→,0.574320400133729,True,22,-1,0,2
Y2-S2-114K19,4,325,AS,exp,27,←,left,←,0.6809376999735832,True,22,-1,0,2
Y2-S2-114K19,4,326,AS,exp,35,↑,up,↑,0.6532207997515798,True,22,1,1,3
Y2-S2-114K19,4,327,AS,exp,42,←,left,←,0.5724444999359548,True,21,1,0,3
Y2-S2-114K19,4,328,AS,exp,28,↑,up,↑,0.5413008998148143,True,21,1,0,3
Y2-S2-114K19,4,329,AS,exp,37,↓,left,←,0.48387019988149405,False,21,-1,1,4
Y2-S2-114K19,4,330,AS,exp,39,↑,up,↑,0.5006701000966132,True,22,-1,0,4
Y2-S2-114K19,4,331,AS,exp,25,↓,down,↓,1.3409549002535641,True,22,-1,0,4
Y2-S2-114K19,4,332,AS,exp,42,→,right,→,1.0965001001022756,True,22,1,1,5
Y2-S2-114K19,4,333,AS,exp,48,↑,up,↑,0.7484116996638477,True,21,1,0,5
Y2-S2-114K19,4,334,AS,exp,39,←,right,→,0.684897099621594,False,21,-1,1,6
Y2-S2-114K19,4,335,AS,exp,43,↑,up,↑,0.5007229000329971,True,22,-1,0,6
Y2-S2-114K19,4,336,AS,exp,38,←,left,←,0.7205980001017451,True,22,-1,0,6
Y2-S2-114K19,4,337,AS,exp,41,↓,down,↓,0.48463259963318706,True,22,1,1,7
Y2-S2-114K19,4,338,AS,exp,50,←,right,→,0.5591538003645837,False,21,-1,1,8
Y2-S2-114K19,4,339,AS,exp,44,→,right,→,0.5004211999475956,True,22,-1,0,8
Y2-S2-114K19,4,340,AS,exp,49,←,left,←,0.46730919973924756,True,22,-1,0,8
Y2-S2-114K19,4,341,AS,exp,36,↑,up,↑,0.5834881998598576,True,22,1,1,9
Y2-S2-114K19,4,342,AS,exp,32,↓,down,↓,0.6644155001267791,True,21,1,0,9
Y2-S2-114K19,4,343,AS,exp,28,↑,down,↓,0.6159826996736228,False,21,-1,1,10
Y2-S2-114K19,4,344,AS,exp,48,→,right,→,0.5009522000327706,True,22,-1,0,10
Y2-S2-114K19,4,345,AS,exp,36,←,left,←,0.5894158999435604,True,22,-1,0,10
Y2-S2-114K19,4,346,AS,exp,39,→,right,→,0.38401190005242825,True,22,1,1,11
Y2-S2-114K19,4,347,AS,exp,35,↑,left,←,0.6478277998976409,False,21,-1,1,12
Y2-S2-114K19,4,348,AS,exp,46,→,right,→,0.3840890000574291,True,22,-1,0,12
Y2-S2-114K19,4,349,AS,exp,41,↓,left,←,0.6893464997410774,False,22,-1,0,12
Y2-S2-114K19,4,350,AS,exp,29,↑,up,↑,0.5569275002926588,True,23,-1,0,12
Y2-S2-114K19,4,351,AS,exp,32,→,right,→,0.5715133999474347,True,23,-1,0,12
Y2-S2-114K19,4,352,AS,exp,45,↓,left,←,1.1592997997067869,False,23,-1,0,12
Y2-S2-114K19,4,353,AS,exp,46,←,left,←,0.8473530998453498,True,24,-1,0,12
Y2-S2-114K19,4,354,AS,exp,37,↑,up,↑,0.6479635001160204,True,24,-1,0,12
Y2-S2-114K19,4,355,AS,exp,46,↓,up,↑,0.6303856000304222,False,24,-1,0,12
Y2-S2-114K19,4,356,AS,exp,27,→,right,→,0.725184400100261,True,25,-1,0,12
Y2-S2-114K19,4,357,AS,exp,43,↑,up,↑,0.586608599871397,True,25,-1,0,12
Y2-S2-114K19,4,358,AS,exp,34,↓,down,↓,0.6778067997656763,True,25,1,1,13
Y2-S2-114K19,4,359,AS,exp,39,←,left,←,0.671531000174582,True,24,1,0,13
Y2-S2-114K19,4,360,AS,exp,47,↓,up,↑,0.5966106001287699,False,24,-1,1,14
Y2-S2-114K19,4,361,AS,exp,50,←,left,←,1.2935452000238001,True,25,-1,0,14
Y2-S2-114K19,4,362,AS,exp,44,→,right,→,0.5861701001413167,True,25,-1,0,14
Y2-S2-114K19,4,363,AS,exp,49,↑,up,↑,0.5000044996850193,True,25,1,1,15
Y2-S2-114K19,4,364,AS,exp,46,↓,down,↓,0.6223939000628889,True,24,1,0,15
Y2-S2-114K19,4,365,AS,exp,29,↑,up,↑,0.5177032998763025,True,24,1,0,15
Y2-S2-114K19,4,366,AS,exp,34,↓,left,←,1.0864444999024272,False,24,-1,1,16
Y2-S2-114K19,5,367,AS,intra_train,41,←,left,←,1.6597629999741912,True,27,-,-,-
Y2-S2-114K19,5,368,AS,intra_train,45,↑,up,↑,1.2726841997355223,True,27,-,-,-
Y2-S2-114K19,5,369,AS,intra_train,37,←,left,←,0.5674576000310481,True,27,-,-,-
Y2-S2-114K19,5,370,AS,intra_train,38,↑,up,↑,0.4504006002098322,True,27,-,-,-
Y2-S2-114K19,5,371,AS,intra_train,34,→,right,→,0.45054710004478693,True,27,-,-,-
Y2-S2-114K19,5,372,AS,exp,27,↑,up,↑,0.5157237001694739,True,18,0,0,0
Y2-S2-114K19,5,373,AS,exp,43,↓,left,←,0.8702241997234523,False,18,-1,0,0
Y2-S2-114K19,5,374,AS,exp,45,←,left,←,0.487219600006938,True,19,-1,0,0
Y2-S2-114K19,5,375,AS,exp,40,→,left,←,0.5534554002806544,False,19,-1,0,0
Y2-S2-114K19,5,376,AS,exp,50,←,left,←,0.5278286999091506,True,20,-1,0,0
Y2-S2-114K19,5,377,AS,exp,42,→,right,→,0.5145099000073969,True,20,-1,0,0
Y2-S2-114K19,5,378,AS,exp,44,←,left,←,0.5679753003641963,True,20,1,1,1
Y2-S2-114K19,5,379,AS,exp,50,→,right,→,1.2530953004024923,True,19,1,0,1
Y2-S2-114K19,5,380,AS,exp,28,↓,down,↓,0.7020092997699976,True,19,1,0,1
Y2-S2-114K19,5,381,AS,exp,47,←,left,←,0.6955562001094222,True,19,1,0,1
Y2-S2-114K19,5,382,AS,exp,40,↑,left,←,0.7912635998800397,False,18,-1,1,2
Y2-S2-114K19,5,383,AS,exp,34,↓,right,→,0.929636999964714,False,19,-1,0,2
Y2-S2-114K19,5,384,AS,exp,25,→,right,→,0.5626364001072943,True,20,-1,0,2
Y2-S2-114K19,5,385,AS,exp,36,↑,up,↑,0.867958199698478,True,20,-1,0,2
Y2-S2-114K19,5,386,AS,exp,40,←,left,←,0.5247076000086963,True,20,1,1,3
Y2-S2-114K19,5,387,AS,exp,48,→,no_key,no_letter,-1.0,False,19,-1,1,4
Y2-S2-114K19,5,388,AS,exp,28,←,left,←,0.5582320997491479,True,20,-1,0,4
Y2-S2-114K19,5,389,AS,exp,36,↓,down,↓,0.6463812002912164,True,20,-1,0,4
Y2-S2-114K19,5,390,AS,exp,49,↑,up,↑,0.4668772001750767,True,20,1,1,5
Y2-S2-114K19,5,391,AS,exp,46,←,left,←,0.5196031997911632,True,19,1,0,5
Y2-S2-114K19,5,392,AS,exp,42,↓,left,←,0.9455190002918243,False,19,-1,1,6
Y2-S2-114K19,5,393,AS,exp,48,↑,up,↑,0.5780286998488009,True,20,-1,0,6
Y2-S2-114K19,5,394,AS,exp,35,↓,down,↓,0.5699383998289704,True,20,-1,0,6
Y2-S2-114K19,5,395,AS,exp,39,←,left,←,0.45051820017397404,True,20,1,1,7
Y2-S2-114K19,5,396,AS,exp,40,↓,down,↓,0.5594766000285745,True,19,1,0,7
Y2-S2-114K19,5,397,AS,exp,43,←,left,←,0.5024736002087593,True,19,1,0,7
Y2-S2-114K19,5,398,AS,exp,34,↑,up,↑,1.720800899900496,True,19,1,0,7
Y2-S2-114K19,5,399,AS,exp,43,←,left,←,0.4974374999292195,True,18,1,0,7
Y2-S2-114K19,5,400,AS,exp,30,→,left,←,0.5601106001995504,False,18,-1,1,8
Y2-S2-114K19,5,401,AS,exp,35,↓,up,↑,1.4975992003455758,False,19,-1,0,8
Y2-S2-114K19,5,402,AS,exp,50,→,right,→,0.7484995000995696,True,20,-1,0,8
Y2-S2-114K19,5,403,AS,exp,33,←,left,←,0.6427539996802807,True,20,-1,0,8
Y2-S2-114K19,5,404,AS,exp,45,↓,down,↓,0.8682562001049519,True,20,1,1,9
Y2-S2-114K19,5,405,AS,exp,42,↑,up,↑,0.7187814996577799,True,19,1,0,9
Y2-S2-114K19,5,406,AS,exp,41,↓,left,←,0.759880299679935,False,19,-1,1,10
Y2-S2-114K19,5,407,AS,exp,33,→,left,←,0.5956407999619842,False,20,-1,0,10
Y2-S2-114K19,5,408,AS,exp,36,↓,down,↓,0.6094657001085579,True,21,-1,0,10
Y2-S2-114K19,5,409,AS,exp,41,→,right,→,0.4672169997356832,True,21,-1,0,10
Y2-S2-114K19,5,410,AS,exp,41,←,left,←,0.6753311003558338,True,21,1,1,11
Y2-S2-114K19,5,411,AS,exp,30,↓,up,↑,0.7504793996922672,False,20,-1,1,12
Y2-S2-114K19,5,412,AS,exp,31,↑,up,↑,0.530676799826324,True,21,-1,0,12
Y2-S2-114K19,5,413,AS,exp,33,←,left,←,0.533559599891305,True,21,-1,0,12
Y2-S2-114K19,5,414,AS,exp,28,↓,left,←,0.5778163000941277,False,21,-1,0,12
Y2-S2-114K19,5,415,AS,exp,33,←,left,←,0.4672677996568382,True,22,-1,0,12
Y2-S2-114K19,5,416,AS,exp,44,→,left,←,0.46672069979831576,False,22,-1,0,12
Y2-S2-114K19,5,417,AS,exp,34,↑,up,↑,0.735090000089258,True,23,-1,0,12
Y2-S2-114K19,5,418,AS,exp,44,→,right,→,0.4008339000865817,True,23,-1,0,12
Y2-S2-114K19,5,419,AS,exp,30,↑,up,↑,0.6218618000857532,True,23,1,1,13
Y2-S2-114K19,5,420,AS,exp,30,↓,down,↓,0.5963567001745105,True,22,1,0,13
Y2-S2-114K19,5,421,AS,exp,49,←,left,←,0.6287293001078069,True,22,1,0,13
Y2-S2-114K19,5,422,AS,exp,26,→,right,→,0.7121461001224816,True,22,1,0,13
Y2-S2-114K19,5,423,AS,exp,41,↓,down,↓,0.7900725998915732,True,21,1,0,13
Y2-S2-114K19,5,424,AS,exp,33,↑,up,↑,0.7000045999884605,True,21,1,0,13
Y2-S2-114K19,5,425,AS,exp,25,←,left,←,0.8896858999505639,True,21,1,0,13
Y2-S2-114K19,5,426,AS,exp,41,↑,up,↑,0.851160999853164,True,20,1,0,13
Y2-S2-114K19,5,427,AS,exp,46,←,left,←,1.3095182999968529,True,20,1,0,13
Y2-S2-114K19,5,428,AS,exp,42,→,right,→,0.4176316000521183,True,20,1,0,13
Y2-S2-114K19,5,429,AS,exp,32,↓,up,↑,0.5761835998855531,False,19,-1,1,14
Y2-S2-114K19,5,430,AS,exp,47,↑,up,↑,0.5519394995644689,True,20,-1,0,14
Y2-S2-114K19,5,431,AS,exp,45,←,left,←,0.6001492999494076,True,20,-1,0,14
Y2-S2-114K19,5,432,AS,exp,34,→,right,→,0.7465099999681115,True,20,1,1,15
Y2-S2-114K19,5,433,AS,exp,40,←,left,←,0.6513815000653267,True,19,1,0,15
Y2-S2-114K19,5,434,AS,exp,39,→,right,→,0.7133712000213563,True,19,1,0,15
Y2-S2-114K19,5,435,AS,exp,36,←,left,←,0.5843708999454975,True,19,1,0,15
Y2-S2-114K19,5,436,AS,exp,31,→,left,←,0.6967595000751317,False,18,-1,1,16
Y2-S2-114K19,6,437,PS,intra_train,27,←,left,←,1.0823371997103095,True,15,-,-,-
Y2-S2-114K19,6,438,PS,intra_train,39,↓,down,↓,0.611432199832052,True,15,-,-,-
Y2-S2-114K19,6,439,PS,intra_train,28,→,left,←,0.6006156001240015,False,15,-,-,-
Y2-S2-114K19,6,440,PS,intra_train,44,←,left,←,0.49097490031272173,True,15,-,-,-
Y2-S2-114K19,6,441,PS,intra_train,31,↓,down,↓,0.5990402000024915,True,15,-,-,-
Y2-S2-114K19,6,442,PS,exp,39,←,left,←,0.7364225001074374,True,10,0,0,0
Y2-S2-114K19,6,443,PS,exp,48,↑,up,↑,0.5782546000555158,True,10,0,0,0
Y2-S2-114K19,6,444,PS,exp,41,→,right,→,0.554814400151372,True,10,1,0,0
Y2-S2-114K19,6,445,PS,exp,29,↓,left,←,0.7669354001991451,False,9,-1,1,1
Y2-S2-114K19,6,446,PS,exp,30,↑,up,↑,0.5881755002774298,True,10,-1,0,1
Y2-S2-114K19,6,447,PS,exp,40,←,left,←,0.40822200011461973,True,10,-1,0,1
Y2-S2-114K19,6,448,PS,exp,33,→,right,→,0.5181857002899051,True,10,1,1,2
Y2-S2-114K19,6,449,PS,exp,31,↓,down,↓,0.7366008996032178,True,9,1,0,2
Y2-S2-114K19,6,450,PS,exp,37,←,left,←,0.5762752997688949,True,9,1,0,2
Y2-S2-114K19,6,451,PS,exp,31,↓,down,↓,0.6021318999119103,True,9,1,0,2
Y2-S2-114K19,6,452,PS,exp,46,→,right,→,0.5461547998711467,True,8,1,0,2
Y2-S2-114K19,6,453,PS,exp,43,↓,down,↓,0.674509100150317,True,8,1,0,2
Y2-S2-114K19,6,454,PS,exp,37,←,right,→,0.8595918999053538,False,8,-1,1,3
Y2-S2-114K19,6,455,PS,exp,36,↑,right,→,0.48439970007166266,False,9,-1,0,3
Y2-S2-114K19,6,456,PS,exp,46,↓,down,↓,0.5410054000094533,True,10,-1,0,3
Y2-S2-114K19,6,457,PS,exp,40,←,left,←,0.5550934001803398,True,10,-1,0,3
Y2-S2-114K19,6,458,PS,exp,28,↑,up,↑,0.5793892997317016,True,10,1,1,4
Y2-S2-114K19,6,459,PS,exp,41,↓,up,↑,0.8274405999109149,False,9,-1,1,5
Y2-S2-114K19,6,460,PS,exp,31,←,left,←,0.5603265999816358,True,10,-1,0,5
Y2-S2-114K19,6,461,PS,exp,49,↓,right,→,0.38525159982964396,False,10,-1,0,5
Y2-S2-114K19,6,462,PS,exp,49,↑,left,←,0.44361270032823086,False,11,-1,0,5
Y2-S2-114K19,6,463,PS,exp,26,↓,left,←,0.47185160033404827,False,12,-1,0,5
Y2-S2-114K19,6,464,PS,exp,50,←,left,←,0.4786719996482134,True,13,-1,0,5
Y2-S2-114K19,6,465,PS,exp,38,→,right,→,0.4867683001793921,True,13,-1,0,5
Y2-S2-114K19,6,466,PS,exp,44,↓,down,↓,0.6945846998132765,True,13,1,1,6
Y2-S2-114K19,6,467,PS,exp,42,←,left,←,0.5327120004221797,True,12,1,0,6
Y2-S2-114K19,6,468,PS,exp,32,↑,up,↑,0.523923700209707,True,12,1,0,6
Y2-S2-114K19,6,469,PS,exp,42,↓,left,←,0.4004588001407683,False,12,-1,1,7
Y2-S2-114K19,6,470,PS,exp,49,↑,left,←,0.4093734002672136,False,13,-1,0,7
Y2-S2-114K19,6,471,PS,exp,32,←,left,←,0.5013672998175025,True,14,-1,0,7
Y2-S2-114K19,6,472,PS,exp,42,↓,down,↓,0.6777932001277804,True,14,-1,0,7
Y2-S2-114K19,6,473,PS,exp,36,←,left,←,0.4536925000138581,True,14,1,1,8
Y2-S2-114K19,6,474,PS,exp,28,↓,down,↓,0.6281082001514733,True,13,1,0,8
Y2-S2-114K19,6,475,PS,exp,41,↑,up,↑,0.474689899943769,True,13,1,0,8
Y2-S2-114K19,6,476,PS,exp,46,←,left,←,0.4262108998373151,True,13,1,0,8
Y2-S2-114K19,6,477,PS,exp,33,↓,down,↓,0.395501600112766,True,12,1,0,8
Y2-S2-114K19,6,478,PS,exp,43,←,left,←,0.45157539984211326,True,12,1,0,8
Y2-S2-114K19,6,479,PS,exp,29,↓,down,↓,0.4746461999602616,True,12,1,0,8
Y2-S2-114K19,6,480,PS,exp,32,↑,up,↑,0.531254599802196,True,11,1,0,8
Y2-S2-114K19,6,481,PS,exp,38,←,left,←,0.43224589992314577,True,11,1,0,8
Y2-S2-114K19,6,482,PS,exp,38,↓,down,↓,0.6979082999750972,True,11,1,0,8
Y2-S2-114K19,6,483,PS,exp,27,↑,left,←,0.6427607000805438,False,10,-1,1,9
Y2-S2-114K19,6,484,PS,exp,32,↓,down,↓,0.5941624999977648,True,11,-1,0,9
Y2-S2-114K19,6,485,PS,exp,46,↑,up,↑,0.4359587002545595,True,11,-1,0,9
Y2-S2-114K19,6,486,PS,exp,29,←,right,→,0.8018527003005147,False,11,-1,0,9
Y2-S2-114K19,6,487,PS,exp,32,↑,up,↑,0.4177403999492526,True,12,-1,0,9
Y2-S2-114K19,6,488,PS,exp,37,→,right,→,0.40875660022720695,True,12,-1,0,9
Y2-S2-114K19,6,489,PS,exp,41,←,left,←,0.487726999912411,True,12,1,1,10
Y2-S2-114K19,6,490,PS,exp,40,↑,up,↑,0.46786680025979877,True,11,1,0,10
Y2-S2-114K19,6,491,PS,exp,48,↓,down,↓,0.6392430001869798,True,11,1,0,10
Y2-S2-114K19,6,492,PS,exp,41,←,left,←,0.4100366001948714,True,11,1,0,10
Y2-S2-114K19,6,493,PS,exp,48,↓,down,↓,0.7142346003092825,True,10,1,0,10
Y2-S2-114K19,6,494,PS,exp,50,↑,down,↓,0.8170216996222734,False,10,-1,1,11
Y2-S2-114K19,6,495,PS,exp,37,↓,down,↓,0.5767164002172649,True,11,-1,0,11
Y2-S2-114K19,6,496,PS,exp,38,←,left,←,0.5092605003155768,True,11,-1,0,11
Y2-S2-114K19,6,497,PS,exp,31,↑,right,→,0.665829099714756,False,11,-1,0,11
Y2-S2-114K19,6,498,PS,exp,37,←,left,←,0.5853352998383343,True,12,-1,0,11
Y2-S2-114K19,6,499,PS,exp,40,→,right,→,0.46736039966344833,True,12,-1,0,11
Y2-S2-114K19,6,500,PS,exp,37,↑,left,←,0.6910489997826517,False,12,-1,0,11
Y2-S2-114K19,6,501,PS,exp,45,←,left,←,0.533725599758327,True,13,-1,0,11
Y2-S2-114K19,6,502,PS,exp,28,↑,up,↑,0.7199817998334765,True,13,-1,0,11
Y2-S2-114K19,6,503,PS,exp,42,←,left,←,0.48677980015054345,True,13,1,1,12
Y2-S2-114K19,6,504,PS,exp,36,→,right,→,0.6594639997929335,True,12,1,0,12
Y2-S2-114K19,6,505,PS,exp,28,←,left,←,0.5168976001441479,True,12,1,0,12
Y2-S2-114K19,6,506,PS,exp,48,↑,up,↑,0.47460030019283295,True,12,1,0,12
Y2-S2-114K19,6,507,PS,exp,46,←,left,←,0.5601561996154487,True,11,1,0,12
Y2-S2-114K19,6,508,PS,exp,40,↑,up,↑,0.7714300001971424,True,11,1,0,12
Y2-S2-114K19,6,509,PS,exp,50,↓,down,↓,0.6045288001187146,True,11,1,0,12
Y2-S2-114K19,6,510,PS,exp,33,→,right,→,0.5342461001127958,True,10,1,0,12
Y2-S2-114K19,6,511,PS,exp,47,↑,up,↑,0.6464712000451982,True,10,1,0,12
Y2-S2-114K19,6,512,PS,exp,33,→,right,→,0.5224319999106228,True,10,1,0,12
Y2-S2-114K19,6,513,PS,exp,46,↑,up,↑,0.4747268999926746,True,9,1,0,12
Y2-S2-114K19,6,514,PS,exp,30,←,left,←,0.46438089990988374,True,9,1,0,12
Y2-S2-114K19,6,515,PS,exp,47,↓,down,↓,0.5876605999656022,True,9,1,0,12
Y2-S2-114K19,6,516,PS,exp,49,←,left,←,0.4399047000333667,True,8,1,0,12
Y2-S2-114K19,6,517,PS,exp,28,↑,left,←,0.6129847997799516,False,8,-1,1,13
Y2-S2-114K19,6,518,PS,exp,29,→,left,←,0.49231400014832616,False,9,-1,0,13
Y2-S2-114K19,6,519,PS,exp,46,←,left,←,0.45013799984008074,True,10,-1,0,13
Y2-S2-114K19,6,520,PS,exp,30,→,right,→,0.6358106001280248,True,10,-1,0,13
Y2-S2-114K19,6,521,PS,exp,38,←,left,←,0.4657755000516772,True,10,1,1,14
Y2-S2-114K19,6,522,PS,exp,50,↓,left,←,0.656814799644053,False,9,-1,1,15
Y2-S2-114K19,6,523,PS,exp,49,→,right,→,0.45173260010778904,True,10,-1,0,15
Y2-S2-114K19,6,524,PS,exp,45,←,left,←,0.48655669996514916,True,10,-1,0,15
Y2-S2-114K19,6,525,PS,exp,37,↑,up,↑,0.6105198003351688,True,10,1,1,16
Y2-S2-114K19,7,526,PS,intra_train,49,↓,down,↓,0.6033154996111989,True,15,-,-,-
Y2-S2-114K19,7,527,PS,intra_train,39,←,left,←,0.4896619999781251,True,15,-,-,-
Y2-S2-114K19,7,528,PS,intra_train,39,↑,up,↑,0.5258711995556951,True,15,-,-,-
Y2-S2-114K19,7,529,PS,intra_train,33,↓,down,↓,0.6445937999524176,True,15,-,-,-
Y2-S2-114K19,7,530,PS,intra_train,33,↑,left,←,0.536841900087893,False,15,-,-,-
Y2-S2-114K19,7,531,PS,exp,27,←,left,←,0.5894941999576986,True,10,0,0,0
Y2-S2-114K19,7,532,PS,exp,42,↑,up,↑,0.4453937001526356,True,10,0,0,0
Y2-S2-114K19,7,533,PS,exp,37,→,right,→,0.531345700379461,True,10,1,0,0
Y2-S2-114K19,7,534,PS,exp,38,←,up,↑,0.5085995001718402,False,9,-1,1,1
Y2-S2-114K19,7,535,PS,exp,44,↓,up,↑,0.41740950010716915,False,10,-1,0,1
Y2-S2-114K19,7,536,PS,exp,34,↑,down,↓,0.6234880997799337,False,11,-1,0,1
Y2-S2-114K19,7,537,PS,exp,44,↓,down,↓,0.48051629960536957,True,12,-1,0,1
Y2-S2-114K19,7,538,PS,exp,33,↑,up,↑,0.48886629985645413,True,12,-1,0,1
Y2-S2-114K19,7,539,PS,exp,35,→,right,→,0.6383309997618198,True,12,1,1,2
Y2-S2-114K19,7,540,PS,exp,34,←,left,←,0.5097097000107169,True,11,1,0,2
Y2-S2-114K19,7,541,PS,exp,45,→,right,→,0.4886153000406921,True,11,1,0,2
Y2-S2-114K19,7,542,PS,exp,29,←,left,←,0.6874477001838386,True,11,1,0,2
Y2-S2-114K19,7,543,PS,exp,47,→,right,→,0.6752903000451624,True,10,1,0,2
Y2-S2-114K19,7,544,PS,exp,31,↓,left,←,0.7127260998822749,False,10,-1,1,3
Y2-S2-114K19,7,545,PS,exp,40,→,right,→,0.6848229998722672,True,11,-1,0,3
Y2-S2-114K19,7,546,PS,exp,46,↓,down,↓,0.812617199961096,True,11,-1,0,3
Y2-S2-114K19,7,547,PS,exp,50,←,left,←,0.9269973002374172,True,11,1,1,4
Y2-S2-114K19,7,548,PS,exp,43,↑,down,↓,0.7174216997809708,False,10,-1,1,5
Y2-S2-114K19,7,549,PS,exp,38,→,left,←,0.6780196996405721,False,11,-1,0,5
Y2-S2-114K19,7,550,PS,exp,49,↓,down,↓,0.5347922001965344,True,12,-1,0,5
Y2-S2-114K19,7,551,PS,exp,39,←,left,←,0.45541980024427176,True,12,-1,0,5
Y2-S2-114K19,7,552,PS,exp,39,↓,left,←,0.61052759969607,False,12,-1,0,5
Y2-S2-114K19,7,553,PS,exp,45,←,left,←,0.8880353001877666,True,13,-1,0,5
Y2-S2-114K19,7,554,PS,exp,45,↑,up,↑,0.6211911998689175,True,13,-1,0,5
Y2-S2-114K19,7,555,PS,exp,38,←,left,←,0.5293916999362409,True,13,1,1,6
Y2-S2-114K19,7,556,PS,exp,46,↓,down,↓,0.5404969998635352,True,12,1,0,6
Y2-S2-114K19,7,557,PS,exp,37,→,right,→,0.4792736996896565,True,12,1,0,6
Y2-S2-114K19,7,558,PS,exp,27,↑,up,↑,0.494537599850446,True,12,1,0,6
Y2-S2-114K19,7,559,PS,exp,25,→,right,→,0.4836063999682665,True,11,1,0,6
Y2-S2-114K19,7,560,PS,exp,50,↑,up,↑,0.3993188999593258,True,11,1,0,6
Y2-S2-114K19,7,561,PS,exp,28,↓,down,↓,0.6966106002219021,True,11,1,0,6
Y2-S2-114K19,7,562,PS,exp,29,←,left,←,0.41929040011018515,True,10,1,0,6
Y2-S2-114K19,7,563,PS,exp,25,↑,left,←,0.5860204002819955,False,10,-1,1,7
Y2-S2-114K19,7,564,PS,exp,37,↓,right,→,0.4164320002309978,False,11,-1,0,7
Y2-S2-114K19,7,565,PS,exp,28,↑,left,←,1.0266911997459829,False,12,-1,0,7
Y2-S2-114K19,7,566,PS,exp,37,←,left,←,0.4563209000043571,True,13,-1,0,7
Y2-S2-114K19,7,567,PS,exp,30,→,right,→,0.580759999807924,True,13,-1,0,7
Y2-S2-114K19,7,568,PS,exp,39,↓,down,↓,0.7044105003587902,True,13,1,1,8
Y2-S2-114K19,7,569,PS,exp,45,↑,left,←,0.7730776001699269,False,12,-1,1,9
Y2-S2-114K19,7,570,PS,exp,39,↓,down,↓,0.4726764000952244,True,13,-1,0,9
Y2-S2-114K19,7,571,PS,exp,33,↑,up,↑,0.4629146000370383,True,13,-1,0,9
Y2-S2-114K19,7,572,PS,exp,49,←,left,←,0.5516437999904156,True,13,1,1,10
Y2-S2-114K19,7,573,PS,exp,49,→,right,→,0.37098419992253184,True,12,1,0,10
Y2-S2-114K19,7,574,PS,exp,25,↓,left,←,0.5709613999351859,False,12,-1,1,11
Y2-S2-114K19,7,575,PS,exp,26,→,left,←,0.7417898997664452,False,13,-1,0,11
Y2-S2-114K19,7,576,PS,exp,37,←,left,←,0.6259641000069678,True,14,-1,0,11
Y2-S2-114K19,7,577,PS,exp,39,↑,up,↑,0.5263665001839399,True,14,-1,0,11
Y2-S2-114K19,7,578,PS,exp,40,→,left,←,0.454717599786818,False,14,-1,0,11
Y2-S2-114K19,7,579,PS,exp,30,←,right,→,0.6129898000508547,False,15,-1,0,11
Y2-S2-114K19,7,580,PS,exp,40,↑,up,↑,0.8990362999029458,True,16,-1,0,11
Y2-S2-114K19,7,581,PS,exp,25,←,up,↑,1.6330721001140773,False,16,-1,0,11
Y2-S2-114K19,7,582,PS,exp,47,↑,up,↑,0.45136289997026324,True,17,-1,0,11
Y2-S2-114K19,7,583,PS,exp,42,→,right,→,0.6289622001349926,True,17,-1,0,11
Y2-S2-114K19,7,584,PS,exp,35,↓,down,↓,0.7034080000594258,True,17,1,1,12
Y2-S2-114K19,7,585,PS,exp,45,→,down,↓,1.615961799863726,False,16,-1,1,13
Y2-S2-114K19,7,586,PS,exp,25,←,left,←,0.7015371001325548,True,17,-1,0,13
Y2-S2-114K19,7,587,PS,exp,41,→,right,→,0.4172567999921739,True,17,-1,0,13
Y2-S2-114K19,7,588,PS,exp,31,←,left,←,0.5718410001136363,True,17,1,1,14
Y2-S2-114K19,7,589,PS,exp,26,↑,up,↑,0.4905542000196874,True,16,1,0,14
Y2-S2-114K19,7,590,PS,exp,28,←,left,←,0.5183983999304473,True,16,1,0,14
Y2-S2-114K19,7,591,PS,exp,26,→,right,→,0.7659322000108659,True,16,1,0,14
Y2-S2-114K19,7,592,PS,exp,49,↑,up,↑,0.4709679000079632,True,15,1,0,14
Y2-S2-114K19,7,593,PS,exp,50,→,right,→,0.4896862003952265,True,15,1,0,14
Y2-S2-114K19,7,594,PS,exp,43,↓,down,↓,0.7501746001653373,True,15,1,0,14
Y2-S2-114K19,7,595,PS,exp,49,←,left,←,0.6188187999650836,True,14,1,0,14
Y2-S2-114K19,7,596,PS,exp,32,↓,down,↓,0.6102923997677863,True,14,1,0,14
Y2-S2-114K19,7,597,PS,exp,48,←,left,←,0.5972143998369575,True,14,1,0,14
Y2-S2-114K19,7,598,PS,exp,44,↑,up,↑,0.556564399972558,True,13,1,0,14
Y2-S2-114K19,7,599,PS,exp,44,→,right,→,0.5630848002620041,True,13,1,0,14
Y2-S2-114K19,7,600,PS,exp,27,↓,down,↓,0.8272508000954986,True,13,1,0,14
Y2-S2-114K19,7,601,PS,exp,48,→,right,→,0.5614624000154436,True,12,1,0,14
Y2-S2-114K19,7,602,PS,exp,33,↓,down,↓,0.5548224002122879,True,12,1,0,14
Y2-S2-114K19,7,603,PS,exp,44,→,right,→,0.4584832997061312,True,12,1,0,14
Y2-S2-114K19,7,604,PS,exp,28,↓,no_key,no_letter,-1.0,False,11,-1,1,15
Y2-S2-114K19,7,605,PS,exp,33,→,left,←,0.5206102998927236,False,12,-1,0,15
Y2-S2-114K19,7,606,PS,exp,26,↑,left,←,0.45534500014036894,False,13,-1,0,15
Y2-S2-114K19,7,607,PS,exp,37,←,left,←,0.478668499737978,True,14,-1,0,15
Y2-S2-114K19,7,608,PS,exp,42,↓,down,↓,0.5624326998367906,True,14,-1,0,15
Y2-S2-114K19,7,609,PS,exp,44,↑,up,↑,0.5504876002669334,True,14,1,1,16
Y2-S2-114K19,8,610,AS,intra_train,34,→,right,→,0.584474999923259,True,27,-,-,-
Y2-S2-114K19,8,611,AS,intra_train,38,↑,left,←,0.739966900087893,False,27,-,-,-
Y2-S2-114K19,8,612,AS,intra_train,43,↓,down,↓,0.5340627999976277,True,27,-,-,-
Y2-S2-114K19,8,613,AS,intra_train,37,→,right,→,0.4179446999914944,True,27,-,-,-
Y2-S2-114K19,8,614,AS,intra_train,33,↑,left,←,0.4337199996225536,False,27,-,-,-
Y2-S2-114K19,8,615,AS,exp,29,→,right,→,1.2636764999479055,True,18,0,0,0
Y2-S2-114K19,8,616,AS,exp,35,↑,up,↑,0.7717584003694355,True,18,0,0,0
Y2-S2-114K19,8,617,AS,exp,48,→,no_key,no_letter,-1.0,False,18,-1,0,0
Y2-S2-114K19,8,618,AS,exp,26,↑,up,↑,0.5400868998840451,True,19,-1,0,0
Y2-S2-114K19,8,619,AS,exp,36,←,left,←,1.0495631000958383,True,19,-1,0,0
Y2-S2-114K19,8,620,AS,exp,47,↑,up,↑,0.6173776001669466,True,19,1,1,1
Y2-S2-114K19,8,621,AS,exp,42,→,right,→,1.0076997997239232,True,18,1,0,1
Y2-S2-114K19,8,622,AS,exp,28,↑,up,↑,0.5847960002720356,True,18,1,0,1
Y2-S2-114K19,8,623,AS,exp,33,←,right,→,0.6238984996452928,False,18,-1,1,2
Y2-S2-114K19,8,624,AS,exp,40,↑,up,↑,0.5249512996524572,True,19,-1,0,2
Y2-S2-114K19,8,625,AS,exp,38,↓,down,↓,0.905260399915278,True,19,-1,0,2
Y2-S2-114K19,8,626,AS,exp,35,↑,up,↑,0.5127345998771489,True,19,1,1,3
Y2-S2-114K19,8,627,AS,exp,36,→,left,←,0.5859647002071142,False,18,-1,1,4
Y2-S2-114K19,8,628,AS,exp,33,↑,left,←,0.7589127998799086,False,19,-1,0,4
Y2-S2-114K19,8,629,AS,exp,26,↓,left,←,0.8457733998075128,False,20,-1,0,4
Y2-S2-114K19,8,630,AS,exp,41,↑,up,↑,0.5774103999137878,True,21,-1,0,4
Y2-S2-114K19,8,631,AS,exp,50,→,right,→,0.6388129000551999,True,21,-1,0,4
Y2-S2-114K19,8,632,AS,exp,47,↓,down,↓,0.6428543999791145,True,21,1,1,5
Y2-S2-114K19,8,633,AS,exp,39,←,left,←,0.569401899818331,True,20,1,0,5
Y2-S2-114K19,8,634,AS,exp,30,↑,down,↓,0.868826899677515,False,20,-1,1,6
Y2-S2-114K19,8,635,AS,exp,37,↓,down,↓,0.6066665998660028,True,21,-1,0,6
Y2-S2-114K19,8,636,AS,exp,36,←,left,←,0.5618499000556767,True,21,-1,0,6
Y2-S2-114K19,8,637,AS,exp,45,↓,down,↓,0.7430263999849558,True,21,1,1,7
Y2-S2-114K19,8,638,AS,exp,27,↑,left,←,0.9130684998817742,False,20,-1,1,8
Y2-S2-114K19,8,639,AS,exp,31,←,left,←,1.0734783001244068,True,21,-1,0,8
Y2-S2-114K19,8,640,AS,exp,35,↓,down,↓,0.5531771997921169,True,21,-1,0,8
Y2-S2-114K19,8,641,AS,exp,43,←,left,←,0.5268250000663102,True,21,1,1,9
Y2-S2-114K19,8,642,AS,exp,28,→,right,→,0.6273296000435948,True,20,1,0,9
Y2-S2-114K19,8,643,AS,exp,46,←,right,→,0.8420905000530183,False,20,-1,1,10
Y2-S2-114K19,8,644,AS,exp,46,→,left,←,0.9657848998904228,False,21,-1,0,10
Y2-S2-114K19,8,645,AS,exp,27,↓,right,→,1.3410209999419749,False,22,-1,0,10
Y2-S2-114K19,8,646,AS,exp,35,→,right,→,0.6478296997956932,True,23,-1,0,10
Y2-S2-114K19,8,647,AS,exp,47,←,left,←,0.6273674997501075,True,23,-1,0,10
Y2-S2-114K19,8,648,AS,exp,46,↑,up,↑,0.5592276998795569,True,23,1,1,11
Y2-S2-114K19,8,649,AS,exp,28,←,left,←,1.1658761999569833,True,22,1,0,11
Y2-S2-114K19,8,650,AS,exp,26,↑,up,↑,0.4506049999035895,True,22,1,0,11
Y2-S2-114K19,8,651,AS,exp,36,←,left,←,1.1330699999816716,True,22,1,0,11
Y2-S2-114K19,8,652,AS,exp,36,↑,left,←,0.8749563000164926,False,21,-1,1,12
Y2-S2-114K19,8,653,AS,exp,50,→,right,→,0.4172782003879547,True,22,-1,0,12
Y2-S2-114K19,8,654,AS,exp,46,←,left,←,0.647478099912405,True,22,-1,0,12
Y2-S2-114K19,8,655,AS,exp,45,↑,up,↑,0.4505030997097492,True,22,1,1,13
Y2-S2-114K19,8,656,AS,exp,46,→,left,←,0.4840625999495387,False,21,-1,1,14
Y2-S2-114K19,8,657,AS,exp,33,↓,right,→,0.40044960007071495,False,22,-1,0,14
Y2-S2-114K19,8,658,AS,exp,47,→,right,→,0.6344375000335276,True,23,-1,0,14
Y2-S2-114K19,8,659,AS,exp,49,↓,down,↓,0.8108479003421962,True,23,-1,0,14
Y2-S2-114K19,8,660,AS,exp,26,↑,up,↑,0.6174008999951184,True,23,1,1,15
Y2-S2-114K19,8,661,AS,exp,43,↓,down,↓,0.7637085998430848,True,22,1,0,15
Y2-S2-114K19,8,662,AS,exp,46,→,right,→,0.41734210029244423,True,22,1,0,15
Y2-S2-114K19,8,663,AS,exp,33,↓,down,↓,0.6844621999189258,True,22,1,0,15
Y2-S2-114K19,8,664,AS,exp,25,↑,up,↑,1.1853016996756196,True,21,1,0,15
Y2-S2-114K19,8,665,AS,exp,41,←,left,←,1.181423299945891,True,21,1,0,15
Y2-S2-114K19,8,666,AS,exp,47,↓,up,↑,0.4506844999268651,False,21,-1,1,16
