PART_ID,Block_no,Trial_no,Block_type,Trial_type,CSI,Stim_letter,Key_pressed,letter_choose,Rt,Corr,Stimulus Time,Level,Reversal,Revs_count
Y2-S2-010K21,1,1,PS,train,32,←,left,←,1.5650035999715328,True,30,-,-,-
Y2-S2-010K21,1,2,PS,train,37,↑,up,↑,1.1341763000236824,True,30,-,-,-
Y2-S2-010K21,1,3,PS,train,32,↓,down,↓,0.8137442000443116,True,30,-,-,-
Y2-S2-010K21,1,4,PS,train,41,←,left,←,1.3342968999641016,True,30,-,-,-
Y2-S2-010K21,1,5,PS,train,43,↑,up,↑,1.5701038000406697,True,30,-,-,-
Y2-S2-010K21,1,6,PS,train,40,↓,down,↓,0.6338282000506297,True,30,-,-,-
Y2-S2-010K21,1,7,PS,train,28,←,left,←,0.6006802999181673,True,30,-,-,-
Y2-S2-010K21,1,8,PS,train,37,↑,up,↑,0.8365934999892488,True,30,-,-,-
Y2-S2-010K21,1,9,PS,train,50,↓,down,↓,1.2889549999963492,True,30,-,-,-
Y2-S2-010K21,1,10,PS,train,26,←,left,←,0.5842543999897316,True,30,-,-,-
Y2-S2-010K21,2,11,AS,train,47,↑,up,↑,1.1264930999604985,True,45,-,-,-
Y2-S2-010K21,2,12,AS,train,35,↓,down,↓,0.8340785000473261,True,45,-,-,-
Y2-S2-010K21,2,13,AS,train,31,↑,up,↑,0.6507637000177056,True,45,-,-,-
Y2-S2-010K21,2,14,AS,train,33,→,right,→,0.6509768000105396,True,45,-,-,-
Y2-S2-010K21,2,15,AS,train,30,↓,down,↓,0.5344374000560492,True,45,-,-,-
Y2-S2-010K21,2,16,AS,train,40,→,right,→,0.6677660000277683,True,45,-,-,-
Y2-S2-010K21,2,17,AS,train,42,↑,up,↑,0.9449414999689907,True,45,-,-,-
Y2-S2-010K21,2,18,AS,train,41,→,right,→,0.48430430004373193,True,45,-,-,-
Y2-S2-010K21,2,19,AS,train,41,←,left,←,0.7835664000594988,True,45,-,-,-
Y2-S2-010K21,2,20,AS,train,48,→,right,→,0.850967500009574,True,45,-,-,-
Y2-S2-010K21,-,21,PS,adaptive,34,↓,right,→,0.9666591000277549,False,10,-1,0,0
Y2-S2-010K21,-,22,PS,adaptive,47,←,right,→,0.9785404000431299,False,11,-1,0,0
Y2-S2-010K21,-,23,PS,adaptive,45,↑,up,↑,0.636999599984847,True,12,-1,0,0
Y2-S2-010K21,-,24,PS,adaptive,44,←,left,←,1.1621034999843687,True,12,-1,0,0
Y2-S2-010K21,-,25,PS,adaptive,49,↑,up,↑,0.5471651999978349,True,12,1,1,1
Y2-S2-010K21,-,26,PS,adaptive,31,←,right,→,0.8155896998941898,False,11,-1,1,2
Y2-S2-010K21,-,27,PS,adaptive,25,→,up,↑,0.720682599931024,False,12,-1,0,2
Y2-S2-010K21,-,28,PS,adaptive,40,↑,up,↑,0.45491349999792874,True,13,-1,0,2
Y2-S2-010K21,-,29,PS,adaptive,42,→,up,↑,0.6850431999191642,False,13,-1,0,2
Y2-S2-010K21,-,30,PS,adaptive,40,↓,down,↓,0.849932900047861,True,14,-1,0,2
Y2-S2-010K21,-,31,PS,adaptive,34,←,left,←,0.6228477000258863,True,14,-1,0,2
Y2-S2-010K21,-,32,PS,adaptive,41,→,right,→,0.5829668999649584,True,14,1,1,3
Y2-S2-010K21,-,33,PS,adaptive,25,↓,up,↑,0.8549516000784934,False,13,-1,1,4
Y2-S2-010K21,-,34,AS,adaptive,26,↑,up,↑,0.5283383999485523,True,20,0,0,0
Y2-S2-010K21,-,35,AS,adaptive,41,↓,down,↓,0.6951397999655455,True,20,0,0,0
Y2-S2-010K21,-,36,AS,adaptive,38,↑,up,↑,0.6542514999164268,True,20,1,0,0
Y2-S2-010K21,-,37,AS,adaptive,50,↓,down,↓,0.5235568999778479,True,19,1,0,0
Y2-S2-010K21,-,38,AS,adaptive,25,←,up,↑,0.9994094999274239,False,19,-1,1,1
Y2-S2-010K21,-,39,AS,adaptive,43,↑,down,↓,0.8283495999639854,False,20,-1,0,1
Y2-S2-010K21,-,40,AS,adaptive,45,←,left,←,0.5429359999252483,True,21,-1,0,1
Y2-S2-010K21,-,41,AS,adaptive,45,↓,down,↓,0.6950595999369398,True,21,-1,0,1
Y2-S2-010K21,-,42,AS,adaptive,31,↑,down,↓,0.8750678000506014,False,21,-1,0,1
Y2-S2-010K21,-,43,AS,adaptive,40,→,right,→,0.48389470006804913,True,22,-1,0,1
Y2-S2-010K21,-,44,AS,adaptive,28,↓,down,↓,0.6726586000295356,True,22,-1,0,1
Y2-S2-010K21,-,45,AS,adaptive,42,→,right,→,0.7143559000687674,True,22,1,1,2
Y2-S2-010K21,-,46,AS,adaptive,42,←,right,→,0.5860769998980686,False,21,-1,1,3
Y2-S2-010K21,-,47,AS,adaptive,32,↑,up,↑,0.5673269999679178,True,22,-1,0,3
Y2-S2-010K21,-,48,AS,adaptive,49,←,left,←,0.5399833000265062,True,22,-1,0,3
Y2-S2-010K21,-,49,AS,adaptive,45,↑,up,↑,0.6168009000830352,True,22,1,1,4
Y2-S2-010K21,1,50,AS,intra_train,35,↓,down,↓,0.9977227998897433,True,31,-,-,-
Y2-S2-010K21,1,51,AS,intra_train,36,↑,up,↑,1.1065922999987379,True,31,-,-,-
Y2-S2-010K21,1,52,AS,intra_train,26,→,right,→,0.9452104000374675,True,31,-,-,-
Y2-S2-010K21,1,53,AS,intra_train,45,←,left,←,0.5674268000293523,True,31,-,-,-
Y2-S2-010K21,1,54,AS,intra_train,39,→,right,→,1.3730501999380067,True,31,-,-,-
Y2-S2-010K21,1,55,AS,exp,25,↓,down,↓,0.7330485000275075,True,21,0,0,0
Y2-S2-010K21,1,56,AS,exp,46,←,left,←,0.6459442999912426,True,21,0,0,0
Y2-S2-010K21,1,57,AS,exp,35,↓,right,→,0.921011499944143,False,21,-1,0,0
Y2-S2-010K21,1,58,AS,exp,50,↑,down,↓,0.8830042999470606,False,22,-1,0,0
Y2-S2-010K21,1,59,AS,exp,48,←,left,←,1.2488586000399664,True,23,-1,0,0
Y2-S2-010K21,1,60,AS,exp,36,→,left,←,0.7222938999766484,False,23,-1,0,0
Y2-S2-010K21,1,61,AS,exp,32,←,left,←,1.021995099959895,True,24,-1,0,0
Y2-S2-010K21,1,62,AS,exp,38,↑,up,↑,0.6206538999686018,True,24,-1,0,0
Y2-S2-010K21,1,63,AS,exp,28,↓,down,↓,1.010512400069274,True,24,1,1,1
Y2-S2-010K21,1,64,AS,exp,40,↑,up,↑,0.5611214999807999,True,23,1,0,1
Y2-S2-010K21,1,65,AS,exp,42,→,right,→,0.5172790000215173,True,23,1,0,1
Y2-S2-010K21,1,66,AS,exp,39,↑,up,↑,0.7240114000160247,True,23,1,0,1
Y2-S2-010K21,1,67,AS,exp,37,←,up,↑,0.8658429000061005,False,22,-1,1,2
Y2-S2-010K21,1,68,AS,exp,44,↓,down,↓,0.6788209000369534,True,23,-1,0,2
Y2-S2-010K21,1,69,AS,exp,27,↑,up,↑,0.7698043000418693,True,23,-1,0,2
Y2-S2-010K21,1,70,AS,exp,32,↓,down,↓,0.8502578999614343,True,23,1,1,3
Y2-S2-010K21,1,71,AS,exp,45,↑,up,↑,0.79648909997195,True,22,1,0,3
Y2-S2-010K21,1,72,AS,exp,49,↓,down,↓,0.8763151000021026,True,22,1,0,3
Y2-S2-010K21,1,73,AS,exp,41,←,left,←,0.6418286999687552,True,22,1,0,3
Y2-S2-010K21,1,74,AS,exp,38,↓,down,↓,0.4338845000602305,True,21,1,0,3
Y2-S2-010K21,1,75,AS,exp,49,→,right,→,0.7855977999279276,True,21,1,0,3
Y2-S2-010K21,1,76,AS,exp,28,↓,right,→,0.6215540999546647,False,21,-1,1,4
Y2-S2-010K21,1,77,AS,exp,50,→,right,→,0.5603155998978764,True,22,-1,0,4
Y2-S2-010K21,1,78,AS,exp,37,↑,up,↑,0.5004828999517485,True,22,-1,0,4
Y2-S2-010K21,1,79,AS,exp,46,←,left,←,0.4839277999708429,True,22,1,1,5
Y2-S2-010K21,1,80,AS,exp,50,→,right,→,0.43427610001526773,True,21,1,0,5
Y2-S2-010K21,1,81,AS,exp,25,↑,up,↑,0.4170219999505207,True,21,1,0,5
Y2-S2-010K21,1,82,AS,exp,32,→,right,→,0.4173717999365181,True,21,1,0,5
Y2-S2-010K21,1,83,AS,exp,25,←,left,←,0.6270732000702992,True,20,1,0,5
Y2-S2-010K21,1,84,AS,exp,47,↓,down,↓,0.7229557000100613,True,20,1,0,5
Y2-S2-010K21,1,85,AS,exp,41,←,left,←,0.5372437000041828,True,20,1,0,5
Y2-S2-010K21,1,86,AS,exp,34,↓,down,↓,0.5188973000040278,True,19,1,0,5
Y2-S2-010K21,1,87,AS,exp,29,←,right,→,0.6850708000129089,False,19,-1,1,6
Y2-S2-010K21,1,88,AS,exp,47,↓,down,↓,0.6836420999607071,True,20,-1,0,6
Y2-S2-010K21,1,89,AS,exp,47,→,right,→,0.681167499977164,True,20,-1,0,6
Y2-S2-010K21,1,90,AS,exp,44,↑,up,↑,0.7466282999375835,True,20,1,1,7
Y2-S2-010K21,1,91,AS,exp,40,→,right,→,0.6437655000481755,True,19,1,0,7
Y2-S2-010K21,1,92,AS,exp,27,←,left,←,0.7366661999840289,True,19,1,0,7
Y2-S2-010K21,1,93,AS,exp,35,↓,up,↑,0.7338445000350475,False,19,-1,1,8
Y2-S2-010K21,1,94,AS,exp,44,↑,up,↑,0.5888568999944255,True,20,-1,0,8
Y2-S2-010K21,1,95,AS,exp,36,→,right,→,0.467191300005652,True,20,-1,0,8
Y2-S2-010K21,1,96,AS,exp,39,↑,up,↑,1.108297200058587,True,20,1,1,9
Y2-S2-010K21,1,97,AS,exp,29,↓,up,↑,0.6138281999155879,False,19,-1,1,10
Y2-S2-010K21,1,98,AS,exp,34,←,left,←,0.5051201999885961,True,20,-1,0,10
Y2-S2-010K21,1,99,AS,exp,25,→,right,→,0.7086034999229014,True,20,-1,0,10
Y2-S2-010K21,1,100,AS,exp,39,↑,right,→,0.8077198000391945,False,20,-1,0,10
Y2-S2-010K21,1,101,AS,exp,37,↓,up,↑,0.6039206000277773,False,21,-1,0,10
Y2-S2-010K21,1,102,AS,exp,50,↑,up,↑,0.7306916000088677,True,22,-1,0,10
Y2-S2-010K21,1,103,AS,exp,27,→,right,→,0.7397245999891311,True,22,-1,0,10
Y2-S2-010K21,1,104,AS,exp,42,↓,down,↓,0.4839462999952957,True,22,1,1,11
Y2-S2-010K21,1,105,AS,exp,39,→,right,→,0.537670100107789,True,21,1,0,11
Y2-S2-010K21,1,106,AS,exp,46,↓,down,↓,0.5920021999627352,True,21,1,0,11
Y2-S2-010K21,1,107,AS,exp,38,→,down,↓,0.8926555999787524,False,21,-1,1,12
Y2-S2-010K21,1,108,AS,exp,29,↓,down,↓,0.7937052000779659,True,22,-1,0,12
Y2-S2-010K21,1,109,AS,exp,49,←,left,←,0.5550009999424219,True,22,-1,0,12
Y2-S2-010K21,1,110,AS,exp,26,↑,up,↑,0.8727117999223992,True,22,1,1,13
Y2-S2-010K21,1,111,AS,exp,40,→,left,←,0.7131671999813989,False,21,-1,1,14
Y2-S2-010K21,1,112,AS,exp,49,↓,down,↓,0.7760135000571609,True,22,-1,0,14
Y2-S2-010K21,1,113,AS,exp,50,←,left,←,0.5005094000371173,True,22,-1,0,14
Y2-S2-010K21,1,114,AS,exp,29,↓,down,↓,0.7015852000331506,True,22,1,1,15
Y2-S2-010K21,1,115,AS,exp,42,→,left,←,0.5906098999548703,False,21,-1,1,16
Y2-S2-010K21,2,116,PS,intra_train,39,←,left,←,0.6625121999531984,True,21,-,-,-
Y2-S2-010K21,2,117,PS,intra_train,48,↑,up,↑,1.016401799977757,True,21,-,-,-
Y2-S2-010K21,2,118,PS,intra_train,48,→,right,→,0.5368193000322208,True,21,-,-,-
Y2-S2-010K21,2,119,PS,intra_train,32,←,left,←,1.123735100030899,True,21,-,-,-
Y2-S2-010K21,2,120,PS,intra_train,31,↓,down,↓,0.7869908000575379,True,21,-,-,-
Y2-S2-010K21,2,121,PS,exp,46,←,left,←,0.5360651999944821,True,14,0,0,0
Y2-S2-010K21,2,122,PS,exp,48,→,right,→,0.7165928999893367,True,14,0,0,0
Y2-S2-010K21,2,123,PS,exp,40,←,left,←,0.4783458000747487,True,14,1,0,0
Y2-S2-010K21,2,124,PS,exp,38,↑,right,→,1.1739380999933928,False,13,-1,1,1
Y2-S2-010K21,2,125,PS,exp,34,→,right,→,0.5371611999580637,True,14,-1,0,1
Y2-S2-010K21,2,126,PS,exp,26,↑,right,→,0.9310268999543041,False,14,-1,0,1
Y2-S2-010K21,2,127,PS,exp,32,←,left,←,0.3836101000197232,True,15,-1,0,1
Y2-S2-010K21,2,128,PS,exp,47,↓,right,→,0.6245687999762595,False,15,-1,0,1
Y2-S2-010K21,2,129,PS,exp,45,→,right,→,0.5016849000239745,True,16,-1,0,1
Y2-S2-010K21,2,130,PS,exp,27,↑,up,↑,0.5234872000291944,True,16,-1,0,1
Y2-S2-010K21,2,131,PS,exp,36,→,right,→,0.5154631000477821,True,16,1,1,2
Y2-S2-010K21,2,132,PS,exp,26,↑,up,↑,0.8988735999446362,True,15,1,0,2
Y2-S2-010K21,2,133,PS,exp,47,→,right,→,0.44034269999247044,True,15,1,0,2
Y2-S2-010K21,2,134,PS,exp,36,↑,right,→,0.9788492999505252,False,15,-1,1,3
Y2-S2-010K21,2,135,PS,exp,47,←,left,←,0.47922710003331304,True,16,-1,0,3
Y2-S2-010K21,2,136,PS,exp,46,↓,right,→,0.46513099991716444,False,16,-1,0,3
Y2-S2-010K21,2,137,PS,exp,40,←,left,←,0.5801392000867054,True,17,-1,0,3
Y2-S2-010K21,2,138,PS,exp,28,↓,down,↓,0.7889563000062481,True,17,-1,0,3
Y2-S2-010K21,2,139,PS,exp,46,←,left,←,0.4972982000326738,True,17,1,1,4
Y2-S2-010K21,2,140,PS,exp,29,↑,right,→,0.7229141999268904,False,16,-1,1,5
Y2-S2-010K21,2,141,PS,exp,32,↓,down,↓,0.5414942000061274,True,17,-1,0,5
Y2-S2-010K21,2,142,PS,exp,42,→,right,→,0.7100643999874592,True,17,-1,0,5
Y2-S2-010K21,2,143,PS,exp,38,↑,up,↑,0.6308068999787793,True,17,1,1,6
Y2-S2-010K21,2,144,PS,exp,40,↓,down,↓,0.5625367999309674,True,16,1,0,6
Y2-S2-010K21,2,145,PS,exp,29,↑,up,↑,0.45669540006201714,True,16,1,0,6
Y2-S2-010K21,2,146,PS,exp,40,←,left,←,0.5797766000032425,True,16,1,0,6
Y2-S2-010K21,2,147,PS,exp,35,↓,down,↓,0.4757258000317961,True,15,1,0,6
Y2-S2-010K21,2,148,PS,exp,46,→,down,↓,0.6805020999163389,False,15,-1,1,7
Y2-S2-010K21,2,149,PS,exp,50,↓,down,↓,0.5384897999465466,True,16,-1,0,7
Y2-S2-010K21,2,150,PS,exp,34,→,right,→,0.6542889999691397,True,16,-1,0,7
Y2-S2-010K21,2,151,PS,exp,50,←,left,←,0.656362299923785,True,16,1,1,8
Y2-S2-010K21,2,152,PS,exp,31,↑,up,↑,0.6059269000543281,True,15,1,0,8
Y2-S2-010K21,2,153,PS,exp,48,→,right,→,0.49655110004823655,True,15,1,0,8
Y2-S2-010K21,2,154,PS,exp,37,←,left,←,0.6748929000459611,True,15,1,0,8
Y2-S2-010K21,2,155,PS,exp,42,↑,up,↑,0.7225393999833614,True,14,1,0,8
Y2-S2-010K21,2,156,PS,exp,33,↓,right,→,0.817649899981916,False,14,-1,1,9
Y2-S2-010K21,2,157,PS,exp,31,←,right,→,0.6508018999593332,False,15,-1,0,9
Y2-S2-010K21,2,158,PS,exp,38,→,right,→,0.46422010008245707,True,16,-1,0,9
Y2-S2-010K21,2,159,PS,exp,28,←,left,←,0.6743140000617132,True,16,-1,0,9
Y2-S2-010K21,2,160,PS,exp,26,↑,up,↑,1.0959576000459492,True,16,1,1,10
Y2-S2-010K21,2,161,PS,exp,30,←,left,←,0.7015841999091208,True,15,1,0,10
Y2-S2-010K21,2,162,PS,exp,26,→,right,→,0.5463121000211686,True,15,1,0,10
Y2-S2-010K21,2,163,PS,exp,46,↓,down,↓,0.6300967999268323,True,15,1,0,10
Y2-S2-010K21,2,164,PS,exp,37,←,left,←,0.6234244999941438,True,14,1,0,10
Y2-S2-010K21,2,165,PS,exp,31,↓,down,↓,0.4450790999690071,True,14,1,0,10
Y2-S2-010K21,2,166,PS,exp,34,→,right,→,0.5328093999996781,True,14,1,0,10
Y2-S2-010K21,2,167,PS,exp,50,↑,up,↑,0.4274907000362873,True,13,1,0,10
Y2-S2-010K21,2,168,PS,exp,29,←,left,←,0.5612357000354677,True,13,1,0,10
Y2-S2-010K21,2,169,PS,exp,32,↓,right,→,1.49616820004303,False,13,-1,1,11
Y2-S2-010K21,2,170,PS,exp,35,↑,right,→,0.9912563000107184,False,14,-1,0,11
Y2-S2-010K21,2,171,PS,exp,31,→,up,↑,1.129846900003031,False,15,-1,0,11
Y2-S2-010K21,2,172,PS,exp,34,↑,up,↑,0.5937683000229299,True,16,-1,0,11
Y2-S2-010K21,2,173,PS,exp,40,←,left,←,0.5673079000553116,True,16,-1,0,11
Y2-S2-010K21,2,174,PS,exp,50,↑,up,↑,0.4722924999659881,True,16,1,1,12
Y2-S2-010K21,2,175,PS,exp,42,↓,down,↓,0.6415664000669494,True,15,1,0,12
Y2-S2-010K21,2,176,PS,exp,35,↑,up,↑,0.5345507999882102,True,15,1,0,12
Y2-S2-010K21,2,177,PS,exp,27,→,right,→,0.5960207999451086,True,15,1,0,12
Y2-S2-010K21,2,178,PS,exp,27,↑,up,↑,0.4313332000747323,True,14,1,0,12
Y2-S2-010K21,2,179,PS,exp,41,←,left,←,0.47687969997059554,True,14,1,0,12
Y2-S2-010K21,2,180,PS,exp,41,→,right,→,0.5249339999863878,True,14,1,0,12
Y2-S2-010K21,2,181,PS,exp,30,↑,up,↑,0.5023898999206722,True,13,1,0,12
Y2-S2-010K21,2,182,PS,exp,35,→,right,→,0.7285424000583589,True,13,1,0,12
Y2-S2-010K21,2,183,PS,exp,27,↑,up,↑,0.4403448000084609,True,13,1,0,12
Y2-S2-010K21,2,184,PS,exp,39,↓,down,↓,0.6599881000583991,True,12,1,0,12
Y2-S2-010K21,2,185,PS,exp,41,↑,up,↑,0.5659815999679267,True,12,1,0,12
Y2-S2-010K21,2,186,PS,exp,44,→,right,→,0.6275596000486985,True,12,1,0,12
Y2-S2-010K21,2,187,PS,exp,34,↓,down,↓,0.6286388000007719,True,11,1,0,12
Y2-S2-010K21,2,188,PS,exp,35,←,up,↑,0.5767258999403566,False,11,-1,1,13
Y2-S2-010K21,2,189,PS,exp,44,↑,up,↑,0.5227322999853641,True,12,-1,0,13
Y2-S2-010K21,2,190,PS,exp,34,→,right,→,0.43882769998162985,True,12,-1,0,13
Y2-S2-010K21,2,191,PS,exp,26,←,left,←,0.4888562000123784,True,12,1,1,14
Y2-S2-010K21,2,192,PS,exp,28,↓,down,↓,0.6543796999612823,True,11,1,0,14
Y2-S2-010K21,2,193,PS,exp,33,↑,up,↑,0.6899893999798223,True,11,1,0,14
Y2-S2-010K21,2,194,PS,exp,35,←,left,←,0.5687570000300184,True,11,1,0,14
Y2-S2-010K21,2,195,PS,exp,35,↓,down,↓,0.5455941000254825,True,10,1,0,14
Y2-S2-010K21,2,196,PS,exp,34,←,left,←,0.537998600048013,True,10,1,0,14
Y2-S2-010K21,2,197,PS,exp,32,→,right,→,0.6391557999886572,True,10,1,0,14
Y2-S2-010K21,2,198,PS,exp,48,↑,up,↑,0.5478130000410601,True,9,1,0,14
Y2-S2-010K21,2,199,PS,exp,30,↓,down,↓,0.547387000056915,True,9,1,0,14
Y2-S2-010K21,2,200,PS,exp,44,←,left,←,0.586753899930045,True,9,1,0,14
Y2-S2-010K21,2,201,PS,exp,37,↑,left,←,0.6551670999033377,False,8,-1,1,15
Y2-S2-010K21,2,202,PS,exp,49,→,right,→,0.4028634999413043,True,9,-1,0,15
Y2-S2-010K21,2,203,PS,exp,48,↑,up,↑,0.4760568999918178,True,9,-1,0,15
Y2-S2-010K21,2,204,PS,exp,37,↓,down,↓,0.596006799954921,True,9,1,1,16
Y2-S2-010K21,3,205,PS,intra_train,36,←,left,←,0.9789681000402197,True,21,-,-,-
Y2-S2-010K21,3,206,PS,intra_train,34,↑,up,↑,0.46730700007174164,True,21,-,-,-
Y2-S2-010K21,3,207,PS,intra_train,32,←,left,←,0.519186899997294,True,21,-,-,-
Y2-S2-010K21,3,208,PS,intra_train,44,↑,up,↑,1.0725804000394419,True,21,-,-,-
Y2-S2-010K21,3,209,PS,intra_train,49,→,right,→,0.5680816000094637,True,21,-,-,-
Y2-S2-010K21,3,210,PS,exp,43,↑,up,↑,0.6071639999281615,True,14,0,0,0
Y2-S2-010K21,3,211,PS,exp,32,←,left,←,0.5299391000298783,True,14,0,0,0
Y2-S2-010K21,3,212,PS,exp,40,↓,down,↓,0.6345946000656113,True,14,1,0,0
Y2-S2-010K21,3,213,PS,exp,41,↑,up,↑,0.41076200001407415,True,13,1,0,0
Y2-S2-010K21,3,214,PS,exp,33,←,left,←,0.5610865999478847,True,13,1,0,0
Y2-S2-010K21,3,215,PS,exp,46,→,right,→,0.4438108999747783,True,13,1,0,0
Y2-S2-010K21,3,216,PS,exp,37,↑,right,→,0.7658473999472335,False,12,-1,1,1
Y2-S2-010K21,3,217,PS,exp,43,↓,up,↑,0.6194368000142276,False,13,-1,0,1
Y2-S2-010K21,3,218,PS,exp,29,↑,up,↑,0.5463337999535725,True,14,-1,0,1
Y2-S2-010K21,3,219,PS,exp,32,↓,down,↓,0.5949314999161288,True,14,-1,0,1
Y2-S2-010K21,3,220,PS,exp,49,↑,down,↓,0.779545099940151,False,14,-1,0,1
Y2-S2-010K21,3,221,PS,exp,28,→,right,→,0.8854831999633461,True,15,-1,0,1
Y2-S2-010K21,3,222,PS,exp,35,↑,up,↑,0.64863510010764,True,15,-1,0,1
Y2-S2-010K21,3,223,PS,exp,46,→,right,→,0.5090208000037819,True,15,1,1,2
Y2-S2-010K21,3,224,PS,exp,36,↑,up,↑,0.5502353999763727,True,14,1,0,2
Y2-S2-010K21,3,225,PS,exp,47,↓,down,↓,0.5824064000044018,True,14,1,0,2
Y2-S2-010K21,3,226,PS,exp,25,←,left,←,0.6183512000134215,True,14,1,0,2
Y2-S2-010K21,3,227,PS,exp,37,→,right,→,0.6427700000349432,True,13,1,0,2
Y2-S2-010K21,3,228,PS,exp,44,←,left,←,0.5927160000428557,True,13,1,0,2
Y2-S2-010K21,3,229,PS,exp,43,↑,up,↑,0.4671083999564871,True,13,1,0,2
Y2-S2-010K21,3,230,PS,exp,43,←,left,←,0.5241050999611616,True,12,1,0,2
Y2-S2-010K21,3,231,PS,exp,26,↓,down,↓,0.5152277000015602,True,12,1,0,2
Y2-S2-010K21,3,232,PS,exp,28,→,right,→,0.5742456000298262,True,12,1,0,2
Y2-S2-010K21,3,233,PS,exp,32,↓,up,↑,0.7794616000028327,False,11,-1,1,3
Y2-S2-010K21,3,234,PS,exp,38,→,right,→,0.5870971999829635,True,12,-1,0,3
Y2-S2-010K21,3,235,PS,exp,34,←,left,←,0.5536355000222102,True,12,-1,0,3
Y2-S2-010K21,3,236,PS,exp,30,→,right,→,0.7523396000033244,True,12,1,1,4
Y2-S2-010K21,3,237,PS,exp,36,←,left,←,0.4613462999695912,True,11,1,0,4
Y2-S2-010K21,3,238,PS,exp,31,↑,right,→,0.9143234000075608,False,11,-1,1,5
Y2-S2-010K21,3,239,PS,exp,30,←,left,←,0.6085465999785811,True,12,-1,0,5
Y2-S2-010K21,3,240,PS,exp,47,↑,up,↑,0.48073199996724725,True,12,-1,0,5
Y2-S2-010K21,3,241,PS,exp,28,←,left,←,0.78219249995891,True,12,1,1,6
Y2-S2-010K21,3,242,PS,exp,38,→,right,→,0.48058909992687404,True,11,1,0,6
Y2-S2-010K21,3,243,PS,exp,37,↑,up,↑,0.422270999988541,True,11,1,0,6
Y2-S2-010K21,3,244,PS,exp,50,←,right,→,0.5947432999964803,False,11,-1,1,7
Y2-S2-010K21,3,245,PS,exp,33,↓,down,↓,0.7662633000873029,True,12,-1,0,7
Y2-S2-010K21,3,246,PS,exp,50,→,right,→,0.7321429000003263,True,12,-1,0,7
Y2-S2-010K21,3,247,PS,exp,34,←,left,←,0.5776589000597596,True,12,1,1,8
Y2-S2-010K21,3,248,PS,exp,44,→,right,→,0.6167760000098497,True,11,1,0,8
Y2-S2-010K21,3,249,PS,exp,26,↓,down,↓,0.48841399990487844,True,11,1,0,8
Y2-S2-010K21,3,250,PS,exp,43,→,right,→,0.5782332000089809,True,11,1,0,8
Y2-S2-010K21,3,251,PS,exp,35,←,left,←,0.5576674999902025,True,10,1,0,8
Y2-S2-010K21,3,252,PS,exp,31,→,right,→,0.4634610000066459,True,10,1,0,8
Y2-S2-010K21,3,253,PS,exp,46,↓,down,↓,0.5588252999586985,True,10,1,0,8
Y2-S2-010K21,3,254,PS,exp,35,↑,up,↑,0.9352779999608174,True,9,1,0,8
Y2-S2-010K21,3,255,PS,exp,50,→,right,→,0.5227432999527082,True,9,1,0,8
Y2-S2-010K21,3,256,PS,exp,33,↓,left,←,0.7675816001137719,False,9,-1,1,9
Y2-S2-010K21,3,257,PS,exp,35,→,right,→,0.4790357999736443,True,10,-1,0,9
Y2-S2-010K21,3,258,PS,exp,34,←,right,→,0.502421300043352,False,10,-1,0,9
Y2-S2-010K21,3,259,PS,exp,46,↓,down,↓,0.6596080999588594,True,11,-1,0,9
Y2-S2-010K21,3,260,PS,exp,49,→,right,→,0.6694391999626532,True,11,-1,0,9
Y2-S2-010K21,3,261,PS,exp,29,↓,down,↓,0.5993307000026107,True,11,1,1,10
Y2-S2-010K21,3,262,PS,exp,45,→,down,↓,0.7562384998891503,False,10,-1,1,11
Y2-S2-010K21,3,263,PS,exp,38,↑,up,↑,0.641221099998802,True,11,-1,0,11
Y2-S2-010K21,3,264,PS,exp,32,←,left,←,0.6032095000846311,True,11,-1,0,11
Y2-S2-010K21,3,265,PS,exp,25,↑,up,↑,0.5938879000023007,True,11,1,1,12
Y2-S2-010K21,3,266,PS,exp,40,→,right,→,0.7096275999210775,True,10,1,0,12
Y2-S2-010K21,3,267,PS,exp,28,←,left,←,0.5310643000993878,True,10,1,0,12
Y2-S2-010K21,3,268,PS,exp,40,→,right,→,0.3462976000737399,True,10,1,0,12
Y2-S2-010K21,3,269,PS,exp,46,←,left,←,0.5739136000629514,True,9,1,0,12
Y2-S2-010K21,3,270,PS,exp,42,↓,down,↓,0.6265842999564484,True,9,1,0,12
Y2-S2-010K21,3,271,PS,exp,43,↑,up,↑,0.6375200999900699,True,9,1,0,12
Y2-S2-010K21,3,272,PS,exp,25,→,left,←,0.5095785000594333,False,8,-1,1,13
Y2-S2-010K21,3,273,PS,exp,43,↓,left,←,0.538529000012204,False,9,-1,0,13
Y2-S2-010K21,3,274,PS,exp,40,→,down,↓,0.5117327999323606,False,10,-1,0,13
Y2-S2-010K21,3,275,PS,exp,47,←,left,←,0.5350707999896258,True,11,-1,0,13
Y2-S2-010K21,3,276,PS,exp,43,↑,up,↑,0.6287695000646636,True,11,-1,0,13
Y2-S2-010K21,3,277,PS,exp,39,→,right,→,0.6280960000585765,True,11,1,1,14
Y2-S2-010K21,3,278,PS,exp,50,↓,down,↓,1.0606195000000298,True,10,1,0,14
Y2-S2-010K21,3,279,PS,exp,37,→,left,←,0.5363236999837682,False,10,-1,1,15
Y2-S2-010K21,3,280,PS,exp,28,↑,up,↑,0.5324380999663845,True,11,-1,0,15
Y2-S2-010K21,3,281,PS,exp,31,→,right,→,0.5226299999048933,True,11,-1,0,15
Y2-S2-010K21,3,282,PS,exp,45,↑,right,→,0.5553177000256255,False,11,-1,0,15
Y2-S2-010K21,3,283,PS,exp,45,→,right,→,0.4933661000104621,True,12,-1,0,15
Y2-S2-010K21,3,284,PS,exp,42,←,right,→,0.5586623001145199,False,12,-1,0,15
Y2-S2-010K21,3,285,PS,exp,45,↑,up,↑,0.5181252000620589,True,13,-1,0,15
Y2-S2-010K21,3,286,PS,exp,25,↓,down,↓,0.7327141999267042,True,13,-1,0,15
Y2-S2-010K21,3,287,PS,exp,29,←,left,←,0.5173897999338806,True,13,1,1,16
Y2-S2-010K21,4,288,AS,intra_train,41,↓,down,↓,0.7559276000829414,True,31,-,-,-
Y2-S2-010K21,4,289,AS,intra_train,38,→,right,→,0.6933343999553472,True,31,-,-,-
Y2-S2-010K21,4,290,AS,intra_train,38,↓,down,↓,0.5839843999128789,True,31,-,-,-
Y2-S2-010K21,4,291,AS,intra_train,29,←,left,←,0.5504137000534683,True,31,-,-,-
Y2-S2-010K21,4,292,AS,intra_train,37,↓,down,↓,0.8989413999952376,True,31,-,-,-
Y2-S2-010K21,4,293,AS,exp,41,→,right,→,0.7399901999160647,True,21,0,0,0
Y2-S2-010K21,4,294,AS,exp,45,↓,down,↓,1.1667288000462577,True,21,0,0,0
Y2-S2-010K21,4,295,AS,exp,38,→,right,→,0.4836641000583768,True,21,1,0,0
Y2-S2-010K21,4,296,AS,exp,40,↓,up,↑,1.1020739000523463,False,20,-1,1,1
Y2-S2-010K21,4,297,AS,exp,28,→,right,→,0.5265510999597609,True,21,-1,0,1
Y2-S2-010K21,4,298,AS,exp,32,↑,up,↑,1.288898600032553,True,21,-1,0,1
Y2-S2-010K21,4,299,AS,exp,31,↓,up,↑,0.7169168000109494,False,21,-1,0,1
Y2-S2-010K21,4,300,AS,exp,29,→,right,→,0.600652499939315,True,22,-1,0,1
Y2-S2-010K21,4,301,AS,exp,30,↓,down,↓,0.8725069999927655,True,22,-1,0,1
Y2-S2-010K21,4,302,AS,exp,43,↑,up,↑,0.41718129999935627,True,22,1,1,2
Y2-S2-010K21,4,303,AS,exp,43,→,right,→,0.48431780003011227,True,21,1,0,2
Y2-S2-010K21,4,304,AS,exp,35,↑,up,↑,0.7324735999573022,True,21,1,0,2
Y2-S2-010K21,4,305,AS,exp,25,↓,down,↓,0.6672678000759333,True,21,1,0,2
Y2-S2-010K21,4,306,AS,exp,34,←,left,←,0.5510750999674201,True,20,1,0,2
Y2-S2-010K21,4,307,AS,exp,37,↓,down,↓,0.8578630000120029,True,20,1,0,2
Y2-S2-010K21,4,308,AS,exp,37,↑,left,←,0.9905760999536142,False,20,-1,1,3
Y2-S2-010K21,4,309,AS,exp,37,→,right,→,1.3102689000079408,True,21,-1,0,3
Y2-S2-010K21,4,310,AS,exp,32,↑,up,↑,0.5721872000722215,True,21,-1,0,3
Y2-S2-010K21,4,311,AS,exp,42,↓,down,↓,0.7268576000351459,True,21,1,1,4
Y2-S2-010K21,4,312,AS,exp,47,↑,down,↓,0.6716604999965057,False,20,-1,1,5
Y2-S2-010K21,4,313,AS,exp,38,←,right,→,0.6822714000009,False,21,-1,0,5
Y2-S2-010K21,4,314,AS,exp,28,→,right,→,0.5416844000574201,True,22,-1,0,5
Y2-S2-010K21,4,315,AS,exp,30,↑,up,↑,1.2712834000121802,True,22,-1,0,5
Y2-S2-010K21,4,316,AS,exp,41,←,left,←,0.6446183999069035,True,22,1,1,6
Y2-S2-010K21,4,317,AS,exp,32,↓,up,↑,0.533486400032416,False,21,-1,1,7
Y2-S2-010K21,4,318,AS,exp,47,←,right,→,0.6326642000349239,False,22,-1,0,7
Y2-S2-010K21,4,319,AS,exp,46,↑,up,↑,0.5174402999691665,True,23,-1,0,7
Y2-S2-010K21,4,320,AS,exp,28,→,left,←,0.8842906999634579,False,23,-1,0,7
Y2-S2-010K21,4,321,AS,exp,27,←,left,←,0.6795575999421999,True,24,-1,0,7
Y2-S2-010K21,4,322,AS,exp,28,↑,left,←,1.054260200005956,False,24,-1,0,7
Y2-S2-010K21,4,323,AS,exp,33,↓,down,↓,0.9410219000419602,True,25,-1,0,7
Y2-S2-010K21,4,324,AS,exp,50,→,right,→,0.8993169000605121,True,25,-1,0,7
Y2-S2-010K21,4,325,AS,exp,45,↑,up,↑,0.8757821000181139,True,25,1,1,8
Y2-S2-010K21,4,326,AS,exp,38,←,left,←,0.6385342000285164,True,24,1,0,8
Y2-S2-010K21,4,327,AS,exp,36,↓,up,↑,0.9271171999862418,False,24,-1,1,9
Y2-S2-010K21,4,328,AS,exp,35,↑,up,↑,0.6554189000744373,True,25,-1,0,9
Y2-S2-010K21,4,329,AS,exp,32,↓,up,↑,0.7746157000074163,False,25,-1,0,9
Y2-S2-010K21,4,330,AS,exp,34,→,right,→,0.6461682999506593,True,26,-1,0,9
Y2-S2-010K21,4,331,AS,exp,27,←,left,←,0.7348412000574172,True,26,-1,0,9
Y2-S2-010K21,4,332,AS,exp,29,→,right,→,0.6639441999141127,True,26,1,1,10
Y2-S2-010K21,4,333,AS,exp,46,↓,down,↓,0.6016741999192163,True,25,1,0,10
Y2-S2-010K21,4,334,AS,exp,36,←,left,←,0.45095309999305755,True,25,1,0,10
Y2-S2-010K21,4,335,AS,exp,47,↓,down,↓,0.7796335999155417,True,25,1,0,10
Y2-S2-010K21,4,336,AS,exp,41,←,left,←,0.6129786999663338,True,24,1,0,10
Y2-S2-010K21,4,337,AS,exp,35,→,right,→,0.7029628000454977,True,24,1,0,10
Y2-S2-010K21,4,338,AS,exp,48,←,left,←,0.5339007000438869,True,24,1,0,10
Y2-S2-010K21,4,339,AS,exp,26,→,left,←,0.5803997999755666,False,23,-1,1,11
Y2-S2-010K21,4,340,AS,exp,46,←,left,←,0.5960928000276908,True,24,-1,0,11
Y2-S2-010K21,4,341,AS,exp,48,↓,down,↓,0.9169069000054151,True,24,-1,0,11
Y2-S2-010K21,4,342,AS,exp,34,→,right,→,0.7027236999711022,True,24,1,1,12
Y2-S2-010K21,4,343,AS,exp,39,←,left,←,0.7426530999364331,True,23,1,0,12
Y2-S2-010K21,4,344,AS,exp,41,↓,down,↓,0.6779213000554591,True,23,1,0,12
Y2-S2-010K21,4,345,AS,exp,48,↑,up,↑,0.5007986000273377,True,23,1,0,12
Y2-S2-010K21,4,346,AS,exp,28,←,left,←,0.9224213999696076,True,22,1,0,12
Y2-S2-010K21,4,347,AS,exp,31,↓,down,↓,0.48357769998256117,True,22,1,0,12
Y2-S2-010K21,4,348,AS,exp,44,↑,left,←,1.0976414999458939,False,22,-1,1,13
Y2-S2-010K21,4,349,AS,exp,40,←,right,→,0.8251424999907613,False,23,-1,0,13
Y2-S2-010K21,4,350,AS,exp,30,↓,down,↓,1.2100187999894843,True,24,-1,0,13
Y2-S2-010K21,4,351,AS,exp,34,→,right,→,0.5001675999956205,True,24,-1,0,13
Y2-S2-010K21,4,352,AS,exp,46,↓,down,↓,1.0136045999825,True,24,1,1,14
Y2-S2-010K21,4,353,AS,exp,28,→,right,→,0.5008299000328407,True,23,1,0,14
Y2-S2-010K21,4,354,AS,exp,50,←,left,←,0.8998460000148043,True,23,1,0,14
Y2-S2-010K21,4,355,AS,exp,48,↑,up,↑,0.8316417000023648,True,23,1,0,14
Y2-S2-010K21,4,356,AS,exp,38,←,left,←,0.5711394000099972,True,22,1,0,14
Y2-S2-010K21,4,357,AS,exp,44,↓,down,↓,0.7359779999824241,True,22,1,0,14
Y2-S2-010K21,4,358,AS,exp,33,←,left,←,0.7347440000157803,True,22,1,0,14
Y2-S2-010K21,4,359,AS,exp,28,↑,down,↓,1.0774400000227615,False,21,-1,1,15
Y2-S2-010K21,4,360,AS,exp,50,←,left,←,0.6344468999886885,True,22,-1,0,15
Y2-S2-010K21,4,361,AS,exp,28,→,right,→,0.5633897000225261,True,22,-1,0,15
Y2-S2-010K21,4,362,AS,exp,47,←,left,←,0.5004255999810994,True,22,1,1,16
Y2-S2-010K21,5,363,AS,intra_train,42,↑,up,↑,0.5509262999985367,True,31,-,-,-
Y2-S2-010K21,5,364,AS,intra_train,47,↓,down,↓,0.6343468999257311,True,31,-,-,-
Y2-S2-010K21,5,365,AS,intra_train,28,→,right,→,0.5173074000049382,True,31,-,-,-
Y2-S2-010K21,5,366,AS,intra_train,30,↑,up,↑,0.48451290000230074,True,31,-,-,-
Y2-S2-010K21,5,367,AS,intra_train,32,→,right,→,0.5340239000506699,True,31,-,-,-
Y2-S2-010K21,5,368,AS,exp,26,↑,up,↑,1.3595009999116883,True,21,0,0,0
Y2-S2-010K21,5,369,AS,exp,38,→,up,↑,0.794209000072442,False,21,-1,0,0
Y2-S2-010K21,5,370,AS,exp,44,↑,up,↑,0.4674673000117764,True,22,-1,0,0
Y2-S2-010K21,5,371,AS,exp,32,→,right,→,0.5399155000923201,True,22,-1,0,0
Y2-S2-010K21,5,372,AS,exp,48,↓,down,↓,1.7412297999253497,True,22,1,1,1
Y2-S2-010K21,5,373,AS,exp,43,←,right,→,0.7632804000750184,False,21,-1,1,2
Y2-S2-010K21,5,374,AS,exp,30,→,down,↓,0.6529433000832796,False,22,-1,0,2
Y2-S2-010K21,5,375,AS,exp,36,←,left,←,0.766867300029844,True,23,-1,0,2
Y2-S2-010K21,5,376,AS,exp,40,→,right,→,0.7434554999927059,True,23,-1,0,2
Y2-S2-010K21,5,377,AS,exp,46,↓,down,↓,0.937385700060986,True,23,1,1,3
Y2-S2-010K21,5,378,AS,exp,45,→,right,→,0.8279419998871163,True,22,1,0,3
Y2-S2-010K21,5,379,AS,exp,39,←,left,←,0.6853251999709755,True,22,1,0,3
Y2-S2-010K21,5,380,AS,exp,45,↓,down,↓,0.7952441000379622,True,22,1,0,3
Y2-S2-010K21,5,381,AS,exp,43,←,left,←,0.7059883999172598,True,21,1,0,3
Y2-S2-010K21,5,382,AS,exp,42,↓,down,↓,0.5342934000073001,True,21,1,0,3
Y2-S2-010K21,5,383,AS,exp,28,↑,up,↑,0.7552893999963999,True,21,1,0,3
Y2-S2-010K21,5,384,AS,exp,43,←,right,→,0.6984645999036729,False,20,-1,1,4
Y2-S2-010K21,5,385,AS,exp,45,↑,up,↑,1.6096572000533342,True,21,-1,0,4
Y2-S2-010K21,5,386,AS,exp,43,↓,down,↓,0.5198288999963552,True,21,-1,0,4
Y2-S2-010K21,5,387,AS,exp,34,←,left,←,0.5971277999924496,True,21,1,1,5
Y2-S2-010K21,5,388,AS,exp,27,↑,up,↑,0.7578848999692127,True,20,1,0,5
Y2-S2-010K21,5,389,AS,exp,32,←,left,←,0.6309214000357315,True,20,1,0,5
Y2-S2-010K21,5,390,AS,exp,31,↓,down,↓,0.4339894000440836,True,20,1,0,5
Y2-S2-010K21,5,391,AS,exp,43,↑,up,↑,0.45074760005809367,True,19,1,0,5
Y2-S2-010K21,5,392,AS,exp,25,→,right,→,0.6926265999209136,True,19,1,0,5
Y2-S2-010K21,5,393,AS,exp,46,↑,up,↑,0.5072889999719337,True,19,1,0,5
Y2-S2-010K21,5,394,AS,exp,45,→,right,→,0.6212910000467673,True,18,1,0,5
Y2-S2-010K21,5,395,AS,exp,29,↑,up,↑,0.63390769995749,True,18,1,0,5
Y2-S2-010K21,5,396,AS,exp,39,→,right,→,0.5737870000302792,True,18,1,0,5
Y2-S2-010K21,5,397,AS,exp,47,↑,up,↑,0.6090965000912547,True,17,1,0,5
Y2-S2-010K21,5,398,AS,exp,34,↓,up,↑,0.9195791999809444,False,17,-1,1,6
Y2-S2-010K21,5,399,AS,exp,35,←,left,←,0.726040199981071,True,18,-1,0,6
Y2-S2-010K21,5,400,AS,exp,28,↓,up,↑,0.74387140001636,False,18,-1,0,6
Y2-S2-010K21,5,401,AS,exp,30,↑,up,↑,0.7689801999367774,True,19,-1,0,6
Y2-S2-010K21,5,402,AS,exp,40,←,left,←,0.8353328999364749,True,19,-1,0,6
Y2-S2-010K21,5,403,AS,exp,45,↓,up,↑,0.9944173999829218,False,19,-1,0,6
Y2-S2-010K21,5,404,AS,exp,33,↑,up,↑,0.5389474999392405,True,20,-1,0,6
Y2-S2-010K21,5,405,AS,exp,34,←,left,←,0.6285814000293612,True,20,-1,0,6
Y2-S2-010K21,5,406,AS,exp,43,→,left,←,0.6604995999950916,False,20,-1,0,6
Y2-S2-010K21,5,407,AS,exp,29,↑,up,↑,0.5337547999806702,True,21,-1,0,6
Y2-S2-010K21,5,408,AS,exp,47,↓,down,↓,0.9628385999239981,True,21,-1,0,6
Y2-S2-010K21,5,409,AS,exp,41,↑,up,↑,1.41181060008239,True,21,1,1,7
Y2-S2-010K21,5,410,AS,exp,37,→,right,→,0.5349504000041634,True,20,1,0,7
Y2-S2-010K21,5,411,AS,exp,30,←,left,←,0.4671504000434652,True,20,1,0,7
Y2-S2-010K21,5,412,AS,exp,27,→,right,→,0.5991683000465855,True,20,1,0,7
Y2-S2-010K21,5,413,AS,exp,29,←,right,→,0.7393797999247909,False,19,-1,1,8
Y2-S2-010K21,5,414,AS,exp,48,↑,up,↑,0.7560785999521613,True,20,-1,0,8
Y2-S2-010K21,5,415,AS,exp,25,↓,down,↓,0.804370200028643,True,20,-1,0,8
Y2-S2-010K21,5,416,AS,exp,35,↑,up,↑,0.6034140000119805,True,20,1,1,9
Y2-S2-010K21,5,417,AS,exp,39,↓,down,↓,0.7218493000837043,True,19,1,0,9
Y2-S2-010K21,5,418,AS,exp,48,←,left,←,0.6954381000250578,True,19,1,0,9
Y2-S2-010K21,5,419,AS,exp,50,↑,up,↑,0.6711144000291824,True,19,1,0,9
Y2-S2-010K21,5,420,AS,exp,26,↓,down,↓,0.586792099988088,True,18,1,0,9
Y2-S2-010K21,5,421,AS,exp,41,↑,left,←,0.7943347999826074,False,18,-1,1,10
Y2-S2-010K21,5,422,AS,exp,43,←,left,←,0.5162825000006706,True,19,-1,0,10
Y2-S2-010K21,5,423,AS,exp,31,↓,up,↑,0.7456400999799371,False,19,-1,0,10
Y2-S2-010K21,5,424,AS,exp,45,→,right,→,1.320146600017324,True,20,-1,0,10
Y2-S2-010K21,5,425,AS,exp,28,↑,up,↑,0.6471249000169337,True,20,-1,0,10
Y2-S2-010K21,5,426,AS,exp,32,→,left,←,1.0716098999837413,False,20,-1,0,10
Y2-S2-010K21,5,427,AS,exp,42,←,right,→,0.5763089000247419,False,21,-1,0,10
Y2-S2-010K21,5,428,AS,exp,33,→,right,→,0.5544219000730664,True,22,-1,0,10
Y2-S2-010K21,5,429,AS,exp,39,↑,up,↑,1.2383690000278875,True,22,-1,0,10
Y2-S2-010K21,5,430,AS,exp,47,←,left,←,0.6066806999733672,True,22,1,1,11
Y2-S2-010K21,5,431,AS,exp,38,↓,down,↓,0.46732469997368753,True,21,1,0,11
Y2-S2-010K21,5,432,AS,exp,34,→,right,→,0.6893886000616476,True,21,1,0,11
Y2-S2-010K21,5,433,AS,exp,45,↑,up,↑,0.6511798999272287,True,21,1,0,11
Y2-S2-010K21,5,434,AS,exp,33,↓,down,↓,0.8889959000516683,True,20,1,0,11
Y2-S2-010K21,5,435,AS,exp,50,←,down,↓,0.7454507000511512,False,20,-1,1,12
Y2-S2-010K21,5,436,AS,exp,45,↓,up,↑,0.6494580999715254,False,21,-1,0,12
Y2-S2-010K21,5,437,AS,exp,35,←,left,←,0.6031376000028104,True,22,-1,0,12
Y2-S2-010K21,5,438,AS,exp,31,↑,up,↑,0.8099361000349745,True,22,-1,0,12
Y2-S2-010K21,5,439,AS,exp,43,↓,down,↓,0.5657061000820249,True,22,1,1,13
Y2-S2-010K21,5,440,AS,exp,36,→,right,→,0.5217634999426082,True,21,1,0,13
Y2-S2-010K21,5,441,AS,exp,46,↑,up,↑,0.46717939991503954,True,21,1,0,13
Y2-S2-010K21,5,442,AS,exp,37,←,right,→,0.6275489999679849,False,21,-1,1,14
Y2-S2-010K21,5,443,AS,exp,31,→,right,→,0.6692841000622138,True,22,-1,0,14
Y2-S2-010K21,5,444,AS,exp,30,↑,up,↑,0.48413889994844794,True,22,-1,0,14
Y2-S2-010K21,5,445,AS,exp,26,←,left,←,0.9516629000427201,True,22,1,1,15
Y2-S2-010K21,5,446,AS,exp,26,↓,down,↓,0.7339254999533296,True,21,1,0,15
Y2-S2-010K21,5,447,AS,exp,37,→,right,→,0.8289000000804663,True,21,1,0,15
Y2-S2-010K21,5,448,AS,exp,35,↓,down,↓,0.754843300092034,True,21,1,0,15
Y2-S2-010K21,5,449,AS,exp,40,↑,up,↑,0.5203750000800937,True,20,1,0,15
Y2-S2-010K21,5,450,AS,exp,47,←,left,←,0.5550867000129074,True,20,1,0,15
Y2-S2-010K21,5,451,AS,exp,32,↓,down,↓,0.7330049000447616,True,20,1,0,15
Y2-S2-010K21,5,452,AS,exp,34,→,right,→,0.608493100036867,True,19,1,0,15
Y2-S2-010K21,5,453,AS,exp,50,←,left,←,0.5240499000065029,True,19,1,0,15
Y2-S2-010K21,5,454,AS,exp,37,→,right,→,0.7005234999815002,True,19,1,0,15
Y2-S2-010K21,5,455,AS,exp,33,↑,up,↑,0.5526071999920532,True,18,1,0,15
Y2-S2-010K21,5,456,AS,exp,33,→,right,→,0.7445128000108525,True,18,1,0,15
Y2-S2-010K21,5,457,AS,exp,34,↑,up,↑,0.5846162000671029,True,18,1,0,15
Y2-S2-010K21,5,458,AS,exp,50,→,right,→,0.5212288999464363,True,17,1,0,15
Y2-S2-010K21,5,459,AS,exp,31,↑,up,↑,0.5513432000298053,True,17,1,0,15
Y2-S2-010K21,5,460,AS,exp,33,→,left,←,0.6588134999619797,False,17,-1,1,16
Y2-S2-010K21,6,461,PS,intra_train,41,↓,down,↓,0.7549625999527052,True,21,-,-,-
Y2-S2-010K21,6,462,PS,intra_train,27,↑,up,↑,0.9886233999859542,True,21,-,-,-
Y2-S2-010K21,6,463,PS,intra_train,43,→,right,→,0.5313678999664262,True,21,-,-,-
Y2-S2-010K21,6,464,PS,intra_train,39,↓,down,↓,0.5582921999739483,True,21,-,-,-
Y2-S2-010K21,6,465,PS,intra_train,35,↑,up,↑,0.5189912000205368,True,21,-,-,-
Y2-S2-010K21,6,466,PS,exp,44,↓,down,↓,0.6152347000315785,True,14,0,0,0
Y2-S2-010K21,6,467,PS,exp,30,→,up,↑,0.6694087999640033,False,14,-1,0,0
Y2-S2-010K21,6,468,PS,exp,26,←,left,←,0.5472529999678954,True,15,-1,0,0
Y2-S2-010K21,6,469,PS,exp,42,→,left,←,0.6650529999751598,False,15,-1,0,0
Y2-S2-010K21,6,470,PS,exp,38,←,left,←,0.6075398999964818,True,16,-1,0,0
Y2-S2-010K21,6,471,PS,exp,44,↑,up,↑,0.6292366998968646,True,16,-1,0,0
Y2-S2-010K21,6,472,PS,exp,29,↓,down,↓,0.6549916999647394,True,16,1,1,1
Y2-S2-010K21,6,473,PS,exp,29,↑,up,↑,0.8183740000240505,True,15,1,0,1
Y2-S2-010K21,6,474,PS,exp,46,↓,down,↓,0.5732256000628695,True,15,1,0,1
Y2-S2-010K21,6,475,PS,exp,47,↑,up,↑,0.5140307999681681,True,15,1,0,1
Y2-S2-010K21,6,476,PS,exp,29,↓,down,↓,0.48296250007115304,True,14,1,0,1
Y2-S2-010K21,6,477,PS,exp,39,→,right,→,0.5597065000329167,True,14,1,0,1
Y2-S2-010K21,6,478,PS,exp,48,↑,up,↑,0.5449067000299692,True,14,1,0,1
Y2-S2-010K21,6,479,PS,exp,30,↓,down,↓,0.578545399941504,True,13,1,0,1
Y2-S2-010K21,6,480,PS,exp,43,←,right,→,0.7042232999810949,False,13,-1,1,2
Y2-S2-010K21,6,481,PS,exp,27,↓,down,↓,0.6799711999483407,True,14,-1,0,2
Y2-S2-010K21,6,482,PS,exp,34,←,left,←,0.5978872999548912,True,14,-1,0,2
Y2-S2-010K21,6,483,PS,exp,36,→,right,→,0.5290978000266477,True,14,1,1,3
Y2-S2-010K21,6,484,PS,exp,50,↑,up,↑,0.47708139999303967,True,13,1,0,3
Y2-S2-010K21,6,485,PS,exp,25,←,left,←,0.576418700045906,True,13,1,0,3
Y2-S2-010K21,6,486,PS,exp,48,→,right,→,0.4922726999502629,True,13,1,0,3
Y2-S2-010K21,6,487,PS,exp,47,↑,up,↑,0.5215361000737175,True,12,1,0,3
Y2-S2-010K21,6,488,PS,exp,49,↓,down,↓,0.5936031999299303,True,12,1,0,3
Y2-S2-010K21,6,489,PS,exp,33,↑,right,→,0.8116491999244317,False,12,-1,1,4
Y2-S2-010K21,6,490,PS,exp,43,←,right,→,0.6657322000246495,False,13,-1,0,4
Y2-S2-010K21,6,491,PS,exp,28,↑,left,←,0.8292944999411702,False,14,-1,0,4
Y2-S2-010K21,6,492,PS,exp,42,↓,down,↓,0.5782181000104174,True,15,-1,0,4
Y2-S2-010K21,6,493,PS,exp,48,↑,right,→,0.5252394999843091,False,15,-1,0,4
Y2-S2-010K21,6,494,PS,exp,50,→,right,→,0.5927232999820262,True,16,-1,0,4
Y2-S2-010K21,6,495,PS,exp,47,←,left,←,0.5660001001087949,True,16,-1,0,4
Y2-S2-010K21,6,496,PS,exp,40,↑,up,↑,0.4699735000031069,True,16,1,1,5
Y2-S2-010K21,6,497,PS,exp,38,→,right,→,0.6254327999195084,True,15,1,0,5
Y2-S2-010K21,6,498,PS,exp,25,←,right,→,0.7566078999079764,False,15,-1,1,6
Y2-S2-010K21,6,499,PS,exp,32,↓,right,→,0.4593309999909252,False,16,-1,0,6
Y2-S2-010K21,6,500,PS,exp,30,←,left,←,1.099812899949029,True,17,-1,0,6
Y2-S2-010K21,6,501,PS,exp,26,↑,up,↑,0.5368394999532029,True,17,-1,0,6
Y2-S2-010K21,6,502,PS,exp,35,↓,down,↓,0.9914593000430614,True,17,1,1,7
Y2-S2-010K21,6,503,PS,exp,44,↑,down,↓,0.8115320999640971,False,16,-1,1,8
Y2-S2-010K21,6,504,PS,exp,32,↓,down,↓,0.656821999931708,True,17,-1,0,8
Y2-S2-010K21,6,505,PS,exp,34,↑,up,↑,0.6821661000140011,True,17,-1,0,8
Y2-S2-010K21,6,506,PS,exp,33,↓,right,→,0.4645527999382466,False,17,-1,0,8
Y2-S2-010K21,6,507,PS,exp,25,→,right,→,0.6627750999759883,True,18,-1,0,8
Y2-S2-010K21,6,508,PS,exp,44,←,right,→,0.8161054999800399,False,18,-1,0,8
Y2-S2-010K21,6,509,PS,exp,32,→,right,→,0.5761163000715896,True,19,-1,0,8
Y2-S2-010K21,6,510,PS,exp,31,←,left,←,0.7260549999773502,True,19,-1,0,8
Y2-S2-010K21,6,511,PS,exp,30,↓,down,↓,0.5745714000659063,True,19,1,1,9
Y2-S2-010K21,6,512,PS,exp,27,→,right,→,0.6606982999946922,True,18,1,0,9
Y2-S2-010K21,6,513,PS,exp,35,↓,down,↓,0.48849669995252043,True,18,1,0,9
Y2-S2-010K21,6,514,PS,exp,48,→,right,→,0.6474125999957323,True,18,1,0,9
Y2-S2-010K21,6,515,PS,exp,49,↑,up,↑,0.6348467998905107,True,17,1,0,9
Y2-S2-010K21,6,516,PS,exp,38,↓,down,↓,0.5851186000509188,True,17,1,0,9
Y2-S2-010K21,6,517,PS,exp,36,↑,up,↑,0.5527465000050142,True,17,1,0,9
Y2-S2-010K21,6,518,PS,exp,40,←,left,←,0.6583647999214008,True,16,1,0,9
Y2-S2-010K21,6,519,PS,exp,31,→,right,→,0.5375640999991447,True,16,1,0,9
Y2-S2-010K21,6,520,PS,exp,26,↓,down,↓,0.5992017999524251,True,16,1,0,9
Y2-S2-010K21,6,521,PS,exp,45,→,right,→,0.5721886999672279,True,15,1,0,9
Y2-S2-010K21,6,522,PS,exp,43,↓,down,↓,0.6309766999911517,True,15,1,0,9
Y2-S2-010K21,6,523,PS,exp,49,→,right,→,0.6112539999885485,True,15,1,0,9
Y2-S2-010K21,6,524,PS,exp,35,←,left,←,0.6769447000697255,True,14,1,0,9
Y2-S2-010K21,6,525,PS,exp,41,↓,down,↓,0.6690612999955192,True,14,1,0,9
Y2-S2-010K21,6,526,PS,exp,39,→,right,→,0.8164111999794841,True,14,1,0,9
Y2-S2-010K21,6,527,PS,exp,42,↑,up,↑,0.5918757000472397,True,13,1,0,9
Y2-S2-010K21,6,528,PS,exp,26,→,right,→,0.5299381000222638,True,13,1,0,9
Y2-S2-010K21,6,529,PS,exp,41,↑,up,↑,0.4984973999671638,True,13,1,0,9
Y2-S2-010K21,6,530,PS,exp,45,←,left,←,0.5345964999869466,True,12,1,0,9
Y2-S2-010K21,6,531,PS,exp,34,↓,right,→,0.6939404000295326,False,12,-1,1,10
Y2-S2-010K21,6,532,PS,exp,47,→,right,→,0.5444502000464126,True,13,-1,0,10
Y2-S2-010K21,6,533,PS,exp,48,←,right,→,0.5429703999543563,False,13,-1,0,10
Y2-S2-010K21,6,534,PS,exp,31,↓,down,↓,0.8976260999916121,True,14,-1,0,10
Y2-S2-010K21,6,535,PS,exp,43,←,left,←,0.5463238001102582,True,14,-1,0,10
Y2-S2-010K21,6,536,PS,exp,48,→,right,→,0.6051055999705568,True,14,1,1,11
Y2-S2-010K21,6,537,PS,exp,37,↑,down,↓,0.9225233999313787,False,13,-1,1,12
Y2-S2-010K21,6,538,PS,exp,36,←,left,←,0.5385706999804825,True,14,-1,0,12
Y2-S2-010K21,6,539,PS,exp,45,↓,down,↓,0.5450597999151796,True,14,-1,0,12
Y2-S2-010K21,6,540,PS,exp,26,→,right,→,0.5244287000969052,True,14,1,1,13
Y2-S2-010K21,6,541,PS,exp,34,↓,down,↓,0.43522730004042387,True,13,1,0,13
Y2-S2-010K21,6,542,PS,exp,32,↑,down,↓,0.7141449999762699,False,13,-1,1,14
Y2-S2-010K21,6,543,PS,exp,38,→,right,→,0.43659649998880923,True,14,-1,0,14
Y2-S2-010K21,6,544,PS,exp,41,↓,down,↓,0.6142443999415264,True,14,-1,0,14
Y2-S2-010K21,6,545,PS,exp,38,→,right,→,0.5105279000708833,True,14,1,1,15
Y2-S2-010K21,6,546,PS,exp,49,←,down,↓,0.49064960004761815,False,13,-1,1,16
Y2-S2-010K21,7,547,PS,intra_train,33,→,right,→,0.48400980001315475,True,21,-,-,-
Y2-S2-010K21,7,548,PS,intra_train,30,↑,up,↑,0.7817895000334829,True,21,-,-,-
Y2-S2-010K21,7,549,PS,intra_train,44,→,right,→,0.5453589999815449,True,21,-,-,-
Y2-S2-010K21,7,550,PS,intra_train,33,←,left,←,1.1851598999928683,True,21,-,-,-
Y2-S2-010K21,7,551,PS,intra_train,50,→,right,→,0.5823903999989852,True,21,-,-,-
Y2-S2-010K21,7,552,PS,exp,29,↓,down,↓,0.6773007001029328,True,14,0,0,0
Y2-S2-010K21,7,553,PS,exp,39,↑,up,↑,0.4760829999577254,True,14,0,0,0
Y2-S2-010K21,7,554,PS,exp,32,←,left,←,0.5473254000535235,True,14,1,0,0
Y2-S2-010K21,7,555,PS,exp,30,↑,up,↑,0.8170933000510558,True,13,1,0,0
Y2-S2-010K21,7,556,PS,exp,48,←,up,↑,0.4999627999495715,False,13,-1,1,1
Y2-S2-010K21,7,557,PS,exp,25,↓,down,↓,0.6638864000560716,True,14,-1,0,1
Y2-S2-010K21,7,558,PS,exp,35,←,left,←,0.4534486000193283,True,14,-1,0,1
Y2-S2-010K21,7,559,PS,exp,38,→,right,→,0.55867269996088,True,14,1,1,2
Y2-S2-010K21,7,560,PS,exp,28,←,up,↑,0.8276001999620348,False,13,-1,1,3
Y2-S2-010K21,7,561,PS,exp,45,↓,down,↓,0.5555235999636352,True,14,-1,0,3
Y2-S2-010K21,7,562,PS,exp,49,←,left,←,0.6313653000397608,True,14,-1,0,3
Y2-S2-010K21,7,563,PS,exp,38,→,right,→,0.5905850999988616,True,14,1,1,4
Y2-S2-010K21,7,564,PS,exp,35,←,left,←,0.502250999910757,True,13,1,0,4
Y2-S2-010K21,7,565,PS,exp,37,↓,down,↓,0.6098536000354216,True,13,1,0,4
Y2-S2-010K21,7,566,PS,exp,28,←,left,←,0.6387992000672966,True,13,1,0,4
Y2-S2-010K21,7,567,PS,exp,47,↓,down,↓,0.43156339996494353,True,12,1,0,4
Y2-S2-010K21,7,568,PS,exp,41,↑,up,↑,0.84544599999208,True,12,1,0,4
Y2-S2-010K21,7,569,PS,exp,50,↓,down,↓,0.5554081000154838,True,12,1,0,4
Y2-S2-010K21,7,570,PS,exp,36,→,down,↓,0.4768893000436947,False,11,-1,1,5
Y2-S2-010K21,7,571,PS,exp,49,↑,down,↓,0.6755573000991717,False,12,-1,0,5
Y2-S2-010K21,7,572,PS,exp,36,←,down,↓,0.44853349996265024,False,13,-1,0,5
Y2-S2-010K21,7,573,PS,exp,36,↑,up,↑,0.7280975000467151,True,14,-1,0,5
Y2-S2-010K21,7,574,PS,exp,31,↓,down,↓,0.5431264999788254,True,14,-1,0,5
Y2-S2-010K21,7,575,PS,exp,29,↑,up,↑,0.6197918999241665,True,14,1,1,6
Y2-S2-010K21,7,576,PS,exp,43,←,left,←,0.8719223999651149,True,13,1,0,6
Y2-S2-010K21,7,577,PS,exp,38,→,right,→,0.649898000061512,True,13,1,0,6
Y2-S2-010K21,7,578,PS,exp,37,←,left,←,0.5133765999926254,True,13,1,0,6
Y2-S2-010K21,7,579,PS,exp,32,↓,down,↓,0.6139339000219479,True,12,1,0,6
Y2-S2-010K21,7,580,PS,exp,40,→,right,→,0.5343776000663638,True,12,1,0,6
Y2-S2-010K21,7,581,PS,exp,42,↓,down,↓,0.5656740999547765,True,12,1,0,6
Y2-S2-010K21,7,582,PS,exp,47,→,right,→,0.5496210999554023,True,11,1,0,6
Y2-S2-010K21,7,583,PS,exp,43,↑,right,→,0.6315534000750631,False,11,-1,1,7
Y2-S2-010K21,7,584,PS,exp,25,→,right,→,0.6390934000955895,True,12,-1,0,7
Y2-S2-010K21,7,585,PS,exp,28,←,right,→,0.837095299968496,False,12,-1,0,7
Y2-S2-010K21,7,586,PS,exp,35,↓,right,→,0.6463873999891803,False,13,-1,0,7
Y2-S2-010K21,7,587,PS,exp,25,→,right,→,0.5952411000616848,True,14,-1,0,7
Y2-S2-010K21,7,588,PS,exp,28,↓,down,↓,0.926509500015527,True,14,-1,0,7
Y2-S2-010K21,7,589,PS,exp,37,↑,up,↑,0.5608915999764577,True,14,1,1,8
Y2-S2-010K21,7,590,PS,exp,32,↓,down,↓,0.5670882000122219,True,13,1,0,8
Y2-S2-010K21,7,591,PS,exp,32,→,right,→,0.6005982999922708,True,13,1,0,8
Y2-S2-010K21,7,592,PS,exp,42,↑,up,↑,0.5056247001048177,True,13,1,0,8
Y2-S2-010K21,7,593,PS,exp,47,←,left,←,0.6947616999968886,True,12,1,0,8
Y2-S2-010K21,7,594,PS,exp,45,↓,down,↓,0.6285474000032991,True,12,1,0,8
Y2-S2-010K21,7,595,PS,exp,34,→,right,→,0.558473699958995,True,12,1,0,8
Y2-S2-010K21,7,596,PS,exp,29,←,left,←,0.5102783000329509,True,11,1,0,8
Y2-S2-010K21,7,597,PS,exp,27,↓,down,↓,0.6726496999617666,True,11,1,0,8
Y2-S2-010K21,7,598,PS,exp,30,↑,up,↑,0.5405996999470517,True,11,1,0,8
Y2-S2-010K21,7,599,PS,exp,50,←,right,→,0.5479191000340506,False,10,-1,1,9
Y2-S2-010K21,7,600,PS,exp,42,↓,down,↓,0.6279310999670997,True,11,-1,0,9
Y2-S2-010K21,7,601,PS,exp,29,→,up,↑,0.619504600064829,False,11,-1,0,9
Y2-S2-010K21,7,602,PS,exp,43,↑,up,↑,0.5628616999601945,True,12,-1,0,9
Y2-S2-010K21,7,603,PS,exp,36,←,left,←,0.5562640000134706,True,12,-1,0,9
Y2-S2-010K21,7,604,PS,exp,33,→,right,→,0.45166390005033463,True,12,1,1,10
Y2-S2-010K21,7,605,PS,exp,35,←,left,←,0.4724685000255704,True,11,1,0,10
Y2-S2-010K21,7,606,PS,exp,35,↑,up,↑,0.6006276999833062,True,11,1,0,10
Y2-S2-010K21,7,607,PS,exp,32,←,left,←,0.6472433999879286,True,11,1,0,10
Y2-S2-010K21,7,608,PS,exp,32,↓,right,→,0.686890900018625,False,10,-1,1,11
Y2-S2-010K21,7,609,PS,exp,30,↑,right,→,0.45269780000671744,False,11,-1,0,11
Y2-S2-010K21,7,610,PS,exp,44,↓,down,↓,0.5923472000285983,True,12,-1,0,11
Y2-S2-010K21,7,611,PS,exp,49,→,right,→,0.5278935000533238,True,12,-1,0,11
Y2-S2-010K21,7,612,PS,exp,29,↓,down,↓,0.6728788000764325,True,12,1,1,12
Y2-S2-010K21,7,613,PS,exp,27,↑,up,↑,0.5937597000738606,True,11,1,0,12
Y2-S2-010K21,7,614,PS,exp,29,↓,down,↓,0.5625797000247985,True,11,1,0,12
Y2-S2-010K21,7,615,PS,exp,36,←,left,←,0.45761220005806535,True,11,1,0,12
Y2-S2-010K21,7,616,PS,exp,46,↓,down,↓,0.5439604000421241,True,10,1,0,12
Y2-S2-010K21,7,617,PS,exp,27,←,left,←,0.708925100043416,True,10,1,0,12
Y2-S2-010K21,7,618,PS,exp,27,↑,up,↑,0.48588500008918345,True,10,1,0,12
Y2-S2-010K21,7,619,PS,exp,42,→,right,→,0.4989517000503838,True,9,1,0,12
Y2-S2-010K21,7,620,PS,exp,38,↓,right,→,0.6810362000251189,False,9,-1,1,13
Y2-S2-010K21,7,621,PS,exp,50,↑,up,↑,0.48545879998710006,True,10,-1,0,13
Y2-S2-010K21,7,622,PS,exp,39,↓,down,↓,0.6973256999626756,True,10,-1,0,13
Y2-S2-010K21,7,623,PS,exp,43,↑,up,↑,0.4852054000366479,True,10,1,1,14
Y2-S2-010K21,7,624,PS,exp,48,↓,down,↓,0.5831124000251293,True,9,1,0,14
Y2-S2-010K21,7,625,PS,exp,41,↑,up,↑,0.4812187000643462,True,9,1,0,14
Y2-S2-010K21,7,626,PS,exp,33,↓,down,↓,0.5821377000538632,True,9,1,0,14
Y2-S2-010K21,7,627,PS,exp,42,↑,up,↑,0.44986170006450266,True,8,1,0,14
Y2-S2-010K21,7,628,PS,exp,37,←,left,←,0.5349311999743804,True,8,1,0,14
Y2-S2-010K21,7,629,PS,exp,27,↓,down,↓,0.6188825001008809,True,8,1,0,14
Y2-S2-010K21,7,630,PS,exp,44,→,right,→,0.5240816998993978,True,7,1,0,14
Y2-S2-010K21,7,631,PS,exp,46,↓,left,←,0.5966436999151483,False,7,-1,1,15
Y2-S2-010K21,7,632,PS,exp,50,←,left,←,0.5450338000664487,True,8,-1,0,15
Y2-S2-010K21,7,633,PS,exp,30,↓,down,↓,0.6560780999716371,True,8,-1,0,15
Y2-S2-010K21,7,634,PS,exp,32,↑,right,→,0.6052863999502733,False,8,-1,0,15
Y2-S2-010K21,7,635,PS,exp,39,←,left,←,0.5005572999361902,True,9,-1,0,15
Y2-S2-010K21,7,636,PS,exp,46,↓,right,→,0.5384288999484852,False,9,-1,0,15
Y2-S2-010K21,7,637,PS,exp,47,↑,right,→,0.5699597999919206,False,10,-1,0,15
Y2-S2-010K21,7,638,PS,exp,28,←,left,←,0.5055238000350073,True,11,-1,0,15
Y2-S2-010K21,7,639,PS,exp,37,↑,left,←,0.300809400039725,False,11,-1,0,15
Y2-S2-010K21,7,640,PS,exp,39,←,left,←,0.47613610001280904,True,12,-1,0,15
Y2-S2-010K21,7,641,PS,exp,33,→,up,↑,0.5953803999582306,False,12,-1,0,15
Y2-S2-010K21,7,642,PS,exp,34,↑,up,↑,0.7321363999508321,True,13,-1,0,15
Y2-S2-010K21,7,643,PS,exp,46,←,left,←,0.492126900004223,True,13,-1,0,15
Y2-S2-010K21,7,644,PS,exp,42,→,right,→,0.5351557999383658,True,13,1,1,16
Y2-S2-010K21,8,645,AS,intra_train,37,←,left,←,0.4511414999142289,True,31,-,-,-
Y2-S2-010K21,8,646,AS,intra_train,44,↑,up,↑,1.0211185000371188,True,31,-,-,-
Y2-S2-010K21,8,647,AS,intra_train,36,←,left,←,0.9190987000474706,True,31,-,-,-
Y2-S2-010K21,8,648,AS,intra_train,27,→,right,→,0.5170974999200553,True,31,-,-,-
Y2-S2-010K21,8,649,AS,intra_train,32,↓,down,↓,0.9732351000420749,True,31,-,-,-
Y2-S2-010K21,8,650,AS,exp,26,↑,right,→,1.2275866999989375,False,21,-1,0,0
Y2-S2-010K21,8,651,AS,exp,34,←,left,←,0.6331962000112981,True,22,-1,0,0
Y2-S2-010K21,8,652,AS,exp,38,→,left,←,0.6825451999902725,False,22,-1,0,0
Y2-S2-010K21,8,653,AS,exp,47,↑,up,↑,0.6140593000454828,True,23,-1,0,0
Y2-S2-010K21,8,654,AS,exp,44,↓,no_key,no_letter,-1.0,False,23,-1,0,0
Y2-S2-010K21,8,655,AS,exp,37,↑,up,↑,0.6624497999437153,True,24,-1,0,0
Y2-S2-010K21,8,656,AS,exp,40,→,right,→,1.0573894999688491,True,24,-1,0,0
Y2-S2-010K21,8,657,AS,exp,36,↑,up,↑,1.0388188000069931,True,24,1,1,1
Y2-S2-010K21,8,658,AS,exp,49,↓,down,↓,0.9070069000590593,True,23,1,0,1
Y2-S2-010K21,8,659,AS,exp,25,←,left,←,0.6036744000157341,True,23,1,0,1
Y2-S2-010K21,8,660,AS,exp,42,↓,down,↓,0.7114625999238342,True,23,1,0,1
Y2-S2-010K21,8,661,AS,exp,36,→,left,←,0.7943576999241486,False,22,-1,1,2
Y2-S2-010K21,8,662,AS,exp,45,←,left,←,0.7080040000146255,True,23,-1,0,2
Y2-S2-010K21,8,663,AS,exp,47,→,right,→,0.500708100036718,True,23,-1,0,2
Y2-S2-010K21,8,664,AS,exp,28,↓,down,↓,0.6743260000366718,True,23,1,1,3
Y2-S2-010K21,8,665,AS,exp,26,↑,down,↓,1.0223543000174686,False,22,-1,1,4
Y2-S2-010K21,8,666,AS,exp,39,↓,down,↓,0.4338843999430537,True,23,-1,0,4
Y2-S2-010K21,8,667,AS,exp,29,→,right,→,0.7919721000362188,True,23,-1,0,4
Y2-S2-010K21,8,668,AS,exp,33,↓,down,↓,0.5661756000481546,True,23,1,1,5
Y2-S2-010K21,8,669,AS,exp,37,↑,down,↓,0.5779812000691891,False,22,-1,1,6
Y2-S2-010K21,8,670,AS,exp,32,→,right,→,1.1180293000070378,True,23,-1,0,6
Y2-S2-010K21,8,671,AS,exp,41,←,left,←,0.7751752999611199,True,23,-1,0,6
Y2-S2-010K21,8,672,AS,exp,27,→,right,→,0.7514034999767318,True,23,1,1,7
Y2-S2-010K21,8,673,AS,exp,49,↓,right,→,1.1949059000471607,False,22,-1,1,8
Y2-S2-010K21,8,674,AS,exp,26,→,right,→,0.769994999980554,True,23,-1,0,8
Y2-S2-010K21,8,675,AS,exp,32,←,left,←,0.6281792999943718,True,23,-1,0,8
Y2-S2-010K21,8,676,AS,exp,34,↓,down,↓,0.6712152000982314,True,23,1,1,9
Y2-S2-010K21,8,677,AS,exp,29,←,left,←,0.6420912999892607,True,22,1,0,9
Y2-S2-010K21,8,678,AS,exp,27,↓,down,↓,0.6830524000106379,True,22,1,0,9
Y2-S2-010K21,8,679,AS,exp,47,←,right,→,0.8134086000500247,False,22,-1,1,10
Y2-S2-010K21,8,680,AS,exp,45,↑,up,↑,0.5662117999745533,True,23,-1,0,10
Y2-S2-010K21,8,681,AS,exp,49,→,right,→,0.8612510999664664,True,23,-1,0,10
Y2-S2-010K21,8,682,AS,exp,34,↓,down,↓,0.6402101999847218,True,23,1,1,11
Y2-S2-010K21,8,683,AS,exp,32,→,no_key,no_letter,-1.0,False,22,-1,1,12
Y2-S2-010K21,8,684,AS,exp,47,←,left,←,0.758948199916631,True,23,-1,0,12
Y2-S2-010K21,8,685,AS,exp,29,↑,down,↓,0.9434266000753269,False,23,-1,0,12
Y2-S2-010K21,8,686,AS,exp,41,←,up,↑,0.6002717999508604,False,24,-1,0,12
Y2-S2-010K21,8,687,AS,exp,27,↑,up,↑,0.8515369000378996,True,25,-1,0,12
Y2-S2-010K21,8,688,AS,exp,44,←,left,←,0.7602901000063866,True,25,-1,0,12
Y2-S2-010K21,8,689,AS,exp,31,→,right,→,0.7812889000633731,True,25,1,1,13
Y2-S2-010K21,8,690,AS,exp,30,↓,down,↓,0.814614399918355,True,24,1,0,13
Y2-S2-010K21,8,691,AS,exp,34,←,left,←,1.3472458000760525,True,24,1,0,13
Y2-S2-010K21,8,692,AS,exp,39,↓,down,↓,0.9380931999767199,True,24,1,0,13
Y2-S2-010K21,8,693,AS,exp,40,←,left,←,0.7150032999925315,True,23,1,0,13
Y2-S2-010K21,8,694,AS,exp,42,→,right,→,0.6183121000649408,True,23,1,0,13
Y2-S2-010K21,8,695,AS,exp,46,↓,down,↓,0.738740099943243,True,23,1,0,13
Y2-S2-010K21,8,696,AS,exp,39,←,right,→,0.7611336000263691,False,22,-1,1,14
Y2-S2-010K21,8,697,AS,exp,47,↑,up,↑,0.8492622999474406,True,23,-1,0,14
Y2-S2-010K21,8,698,AS,exp,44,←,right,→,0.8237469000741839,False,23,-1,0,14
Y2-S2-010K21,8,699,AS,exp,33,↓,down,↓,0.8003044000361115,True,24,-1,0,14
Y2-S2-010K21,8,700,AS,exp,27,←,left,←,0.5340616999892518,True,24,-1,0,14
Y2-S2-010K21,8,701,AS,exp,28,↑,up,↑,1.0540468000108376,True,24,1,1,15
Y2-S2-010K21,8,702,AS,exp,32,←,left,←,0.4675693999743089,True,23,1,0,15
Y2-S2-010K21,8,703,AS,exp,45,↓,down,↓,0.8306991999270394,True,23,1,0,15
Y2-S2-010K21,8,704,AS,exp,50,←,left,←,0.664327299920842,True,23,1,0,15
Y2-S2-010K21,8,705,AS,exp,41,↑,up,↑,0.6550518999574706,True,22,1,0,15
Y2-S2-010K21,8,706,AS,exp,27,↓,up,↑,0.6066577000310645,False,22,-1,1,16
