PART_ID,Block_no,Trial_no,Block_type,Trial_type,CSI,Stim_letter,Key_pressed,letter_choose,Rt,Corr,Stimulus Time,Level,Reversal,Revs_count
Y2-S2-283K20,1,1,PS,train,31,↓,down,↓,0.9781251000240445,True,30,-,-,-
Y2-S2-283K20,1,2,PS,train,46,↑,up,↑,0.6699108998291194,True,30,-,-,-
Y2-S2-283K20,1,3,PS,train,37,→,right,→,0.775906200055033,True,30,-,-,-
Y2-S2-283K20,1,4,PS,train,38,←,left,←,0.9327265000902116,True,30,-,-,-
Y2-S2-283K20,1,5,PS,train,37,↓,down,↓,0.7682624999433756,True,30,-,-,-
Y2-S2-283K20,1,6,PS,train,25,→,right,→,0.8185446998104453,True,30,-,-,-
Y2-S2-283K20,1,7,PS,train,33,↑,up,↑,0.8185364999808371,True,30,-,-,-
Y2-S2-283K20,1,8,PS,train,50,←,left,←,0.947254799772054,True,30,-,-,-
Y2-S2-283K20,1,9,PS,train,37,↓,down,↓,0.8617451996542513,True,30,-,-,-
Y2-S2-283K20,1,10,PS,train,49,→,right,→,0.4681327003054321,True,30,-,-,-
Y2-S2-283K20,2,11,AS,train,31,←,left,←,0.8838557000271976,True,45,-,-,-
Y2-S2-283K20,2,12,AS,train,33,↑,up,↑,0.7504539000801742,True,45,-,-,-
Y2-S2-283K20,2,13,AS,train,38,←,left,←,0.8170949001796544,True,45,-,-,-
Y2-S2-283K20,2,14,AS,train,41,↓,down,↓,0.7339359996840358,True,45,-,-,-
Y2-S2-283K20,2,15,AS,train,33,←,left,←,1.8001343999058008,True,45,-,-,-
Y2-S2-283K20,2,16,AS,train,39,↑,up,↑,0.800441600382328,True,45,-,-,-
Y2-S2-283K20,2,17,AS,train,32,→,right,→,0.618225899990648,True,45,-,-,-
Y2-S2-283K20,2,18,AS,train,29,↑,up,↑,0.7178056002594531,True,45,-,-,-
Y2-S2-283K20,2,19,AS,train,25,→,right,→,0.6342521999031305,True,45,-,-,-
Y2-S2-283K20,2,20,AS,train,41,←,left,←,0.7350495001301169,True,45,-,-,-
Y2-S2-283K20,-,21,PS,adaptive,50,↑,up,↑,0.5250976998358965,True,10,0,0,0
Y2-S2-283K20,-,22,PS,adaptive,49,←,left,←,0.5238617998547852,True,10,0,0,0
Y2-S2-283K20,-,23,PS,adaptive,30,↑,up,↑,0.4598213001154363,True,10,1,0,0
Y2-S2-283K20,-,24,PS,adaptive,45,↓,down,↓,0.5278673996217549,True,9,1,0,0
Y2-S2-283K20,-,25,PS,adaptive,26,→,left,←,0.8082479001022875,False,9,-1,1,1
Y2-S2-283K20,-,26,PS,adaptive,29,↓,left,←,0.7987919999286532,False,10,-1,0,1
Y2-S2-283K20,-,27,PS,adaptive,41,↑,up,↑,0.7050747000612319,True,11,-1,0,1
Y2-S2-283K20,-,28,PS,adaptive,38,↓,up,↑,0.9367215000092983,False,11,-1,0,1
Y2-S2-283K20,-,29,PS,adaptive,26,←,right,→,0.946416299790144,False,12,-1,0,1
Y2-S2-283K20,-,30,PS,adaptive,44,→,right,→,0.575903800316155,True,13,-1,0,1
Y2-S2-283K20,-,31,PS,adaptive,46,↑,up,↑,0.8625266999006271,True,13,-1,0,1
Y2-S2-283K20,-,32,PS,adaptive,47,↓,down,↓,0.5232732999138534,True,13,1,1,2
Y2-S2-283K20,-,33,PS,adaptive,37,↑,right,→,0.9729979997500777,False,12,-1,1,3
Y2-S2-283K20,-,34,PS,adaptive,39,→,right,→,0.5838668001815677,True,13,-1,0,3
Y2-S2-283K20,-,35,PS,adaptive,45,↓,down,↓,0.5261130998842418,True,13,-1,0,3
Y2-S2-283K20,-,36,PS,adaptive,46,↑,up,↑,0.7386517003178596,True,13,1,1,4
Y2-S2-283K20,-,37,AS,adaptive,41,↓,down,↓,0.7376059000380337,True,20,0,0,0
Y2-S2-283K20,-,38,AS,adaptive,27,→,right,→,0.5101640000939369,True,20,0,0,0
Y2-S2-283K20,-,39,AS,adaptive,42,↓,down,↓,0.7542423997074366,True,20,1,0,0
Y2-S2-283K20,-,40,AS,adaptive,27,↑,up,↑,0.7133014998398721,True,19,1,0,0
Y2-S2-283K20,-,41,AS,adaptive,26,→,right,→,0.5574186001904309,True,19,1,0,0
Y2-S2-283K20,-,42,AS,adaptive,26,↑,up,↑,0.7838881001807749,True,19,1,0,0
Y2-S2-283K20,-,43,AS,adaptive,28,→,right,→,0.5835106000304222,True,18,1,0,0
Y2-S2-283K20,-,44,AS,adaptive,28,←,left,←,1.0596994999796152,True,18,1,0,0
Y2-S2-283K20,-,45,AS,adaptive,36,→,right,→,0.6043400997295976,True,18,1,0,0
Y2-S2-283K20,-,46,AS,adaptive,46,↑,up,↑,0.573831900022924,True,17,1,0,0
Y2-S2-283K20,-,47,AS,adaptive,25,→,left,←,0.9421167997643352,False,17,-1,1,1
Y2-S2-283K20,-,48,AS,adaptive,43,↑,down,↓,0.9076938000507653,False,18,-1,0,1
Y2-S2-283K20,-,49,AS,adaptive,25,↓,down,↓,0.6201626998372376,True,19,-1,0,1
Y2-S2-283K20,-,50,AS,adaptive,48,→,right,→,0.702579699922353,True,19,-1,0,1
Y2-S2-283K20,-,51,AS,adaptive,40,↑,up,↑,0.5596352000720799,True,19,1,1,2
Y2-S2-283K20,-,52,AS,adaptive,33,→,right,→,0.4802748002111912,True,18,1,0,2
Y2-S2-283K20,-,53,AS,adaptive,43,↑,up,↑,0.7900300999172032,True,18,1,0,2
Y2-S2-283K20,-,54,AS,adaptive,35,→,left,←,0.5542121999897063,False,18,-1,1,3
Y2-S2-283K20,-,55,AS,adaptive,32,↑,up,↑,0.6552279996685684,True,19,-1,0,3
Y2-S2-283K20,-,56,AS,adaptive,41,←,left,←,0.6191081996075809,True,19,-1,0,3
Y2-S2-283K20,-,57,AS,adaptive,48,→,right,→,0.417183400131762,True,19,1,1,4
Y2-S2-283K20,1,58,AS,intra_train,26,↑,up,↑,0.7079798998311162,True,27,-,-,-
Y2-S2-283K20,1,59,AS,intra_train,26,→,right,→,1.5156996003352106,True,27,-,-,-
Y2-S2-283K20,1,60,AS,intra_train,37,↓,down,↓,0.8491155002266169,True,27,-,-,-
Y2-S2-283K20,1,61,AS,intra_train,26,→,right,→,0.6384290000423789,True,27,-,-,-
Y2-S2-283K20,1,62,AS,intra_train,34,↓,down,↓,1.6577749997377396,True,27,-,-,-
Y2-S2-283K20,1,63,AS,exp,36,↑,down,↓,0.8681628000922501,False,18,-1,0,0
Y2-S2-283K20,1,64,AS,exp,44,←,left,←,0.952918500173837,True,19,-1,0,0
Y2-S2-283K20,1,65,AS,exp,36,↓,down,↓,0.7322953999973834,True,19,-1,0,0
Y2-S2-283K20,1,66,AS,exp,37,←,left,←,0.839362199883908,True,19,1,1,1
Y2-S2-283K20,1,67,AS,exp,27,→,left,←,1.0214180001057684,False,18,-1,1,2
Y2-S2-283K20,1,68,AS,exp,34,←,left,←,0.6076810997910798,True,19,-1,0,2
Y2-S2-283K20,1,69,AS,exp,50,↓,down,↓,0.6466745003126562,True,19,-1,0,2
Y2-S2-283K20,1,70,AS,exp,25,→,left,←,0.7057219999842346,False,19,-1,0,2
Y2-S2-283K20,1,71,AS,exp,50,←,left,←,0.9264249997213483,True,20,-1,0,2
Y2-S2-283K20,1,72,AS,exp,40,→,right,→,0.5635548001155257,True,20,-1,0,2
Y2-S2-283K20,1,73,AS,exp,28,↑,up,↑,0.6856798999942839,True,20,1,1,3
Y2-S2-283K20,1,74,AS,exp,35,↓,down,↓,0.6884612003341317,True,19,1,0,3
Y2-S2-283K20,1,75,AS,exp,29,→,right,→,0.5449033998884261,True,19,1,0,3
Y2-S2-283K20,1,76,AS,exp,31,←,left,←,0.6407270999625325,True,19,1,0,3
Y2-S2-283K20,1,77,AS,exp,43,↑,up,↑,0.747183000203222,True,18,1,0,3
Y2-S2-283K20,1,78,AS,exp,34,↓,down,↓,0.8263476998545229,True,18,1,0,3
Y2-S2-283K20,1,79,AS,exp,39,↑,up,↑,0.7432217998430133,True,18,1,0,3
Y2-S2-283K20,1,80,AS,exp,44,→,left,←,0.8892749999649823,False,17,-1,1,4
Y2-S2-283K20,1,81,AS,exp,30,↑,up,↑,0.6940382998436689,True,18,-1,0,4
Y2-S2-283K20,1,82,AS,exp,28,→,right,→,0.6217019003815949,True,18,-1,0,4
Y2-S2-283K20,1,83,AS,exp,38,↑,left,←,1.1003626002930105,False,18,-1,0,4
Y2-S2-283K20,1,84,AS,exp,29,→,right,→,0.4970825999043882,True,19,-1,0,4
Y2-S2-283K20,1,85,AS,exp,29,↑,up,↑,0.6711538997478783,True,19,-1,0,4
Y2-S2-283K20,1,86,AS,exp,39,←,left,←,0.6974309999495745,True,19,1,1,5
Y2-S2-283K20,1,87,AS,exp,46,↑,up,↑,0.560236300341785,True,18,1,0,5
Y2-S2-283K20,1,88,AS,exp,30,→,right,→,0.6979030002839863,True,18,1,0,5
Y2-S2-283K20,1,89,AS,exp,37,←,left,←,0.7416686997748911,True,18,1,0,5
Y2-S2-283K20,1,90,AS,exp,28,↑,up,↑,0.6429711999371648,True,17,1,0,5
Y2-S2-283K20,1,91,AS,exp,40,→,right,→,0.5494984001852572,True,17,1,0,5
Y2-S2-283K20,1,92,AS,exp,38,←,left,←,0.8934157001785934,True,17,1,0,5
Y2-S2-283K20,1,93,AS,exp,41,→,left,←,1.0966684999875724,False,16,-1,1,6
Y2-S2-283K20,1,94,AS,exp,31,↓,down,↓,0.7181440996937454,True,17,-1,0,6
Y2-S2-283K20,1,95,AS,exp,28,←,left,←,0.6905189999379218,True,17,-1,0,6
Y2-S2-283K20,1,96,AS,exp,40,↑,up,↑,0.729660099837929,True,17,1,1,7
Y2-S2-283K20,1,97,AS,exp,46,←,left,←,0.45593659998849034,True,16,1,0,7
Y2-S2-283K20,1,98,AS,exp,32,↑,up,↑,0.7730800001882017,True,16,1,0,7
Y2-S2-283K20,1,99,AS,exp,35,↓,down,↓,0.7230403004214168,True,16,1,0,7
Y2-S2-283K20,1,100,AS,exp,26,←,left,←,0.6918006003834307,True,15,1,0,7
Y2-S2-283K20,1,101,AS,exp,38,↑,up,↑,0.6955276001244783,True,15,1,0,7
Y2-S2-283K20,1,102,AS,exp,37,→,left,←,0.7065051002427936,False,15,-1,1,8
Y2-S2-283K20,1,103,AS,exp,31,←,left,←,0.6210878002457321,True,16,-1,0,8
Y2-S2-283K20,1,104,AS,exp,33,→,right,→,0.5959724001586437,True,16,-1,0,8
Y2-S2-283K20,1,105,AS,exp,43,←,left,←,0.6142838001251221,True,16,1,1,9
Y2-S2-283K20,1,106,AS,exp,28,↑,up,↑,0.9865604997612536,True,15,1,0,9
Y2-S2-283K20,1,107,AS,exp,48,↓,down,↓,0.699664699845016,True,15,1,0,9
Y2-S2-283K20,1,108,AS,exp,26,←,left,←,0.6659284001216292,True,15,1,0,9
Y2-S2-283K20,1,109,AS,exp,47,→,right,→,0.5657580001279712,True,14,1,0,9
Y2-S2-283K20,1,110,AS,exp,31,↓,down,↓,0.6014890000224113,True,14,1,0,9
Y2-S2-283K20,1,111,AS,exp,45,←,left,←,0.6639256998896599,True,14,1,0,9
Y2-S2-283K20,1,112,AS,exp,41,↓,down,↓,0.9985555000603199,True,13,1,0,9
Y2-S2-283K20,1,113,AS,exp,41,↑,down,↓,0.953158600255847,False,13,-1,1,10
Y2-S2-283K20,1,114,AS,exp,34,→,right,→,0.7289617997594178,True,14,-1,0,10
Y2-S2-283K20,1,115,AS,exp,46,↑,up,↑,0.6810880997218192,True,14,-1,0,10
Y2-S2-283K20,1,116,AS,exp,37,→,left,←,0.8857597000896931,False,14,-1,0,10
Y2-S2-283K20,1,117,AS,exp,38,↓,down,↓,0.7789080999791622,True,15,-1,0,10
Y2-S2-283K20,1,118,AS,exp,49,←,right,→,0.6780918003059924,False,15,-1,0,10
Y2-S2-283K20,1,119,AS,exp,43,↑,up,↑,0.7412720997817814,True,16,-1,0,10
Y2-S2-283K20,1,120,AS,exp,49,←,down,↓,0.7749720998108387,False,16,-1,0,10
Y2-S2-283K20,1,121,AS,exp,42,↑,down,↓,0.7437276998534799,False,17,-1,0,10
Y2-S2-283K20,1,122,AS,exp,26,→,right,→,0.5729510001838207,True,18,-1,0,10
Y2-S2-283K20,1,123,AS,exp,31,↑,up,↑,0.7002981998957694,True,18,-1,0,10
Y2-S2-283K20,1,124,AS,exp,36,↓,down,↓,0.6949689001776278,True,18,1,1,11
Y2-S2-283K20,1,125,AS,exp,47,→,right,→,0.5685827000997961,True,17,1,0,11
Y2-S2-283K20,1,126,AS,exp,44,↓,down,↓,0.8966384003870189,True,17,1,0,11
Y2-S2-283K20,1,127,AS,exp,29,←,right,→,0.6101500000804663,False,17,-1,1,12
Y2-S2-283K20,1,128,AS,exp,26,↑,up,↑,0.6999099999666214,True,18,-1,0,12
Y2-S2-283K20,1,129,AS,exp,48,→,right,→,0.5181652000173926,True,18,-1,0,12
Y2-S2-283K20,1,130,AS,exp,37,←,left,←,0.8367452998645604,True,18,1,1,13
Y2-S2-283K20,1,131,AS,exp,31,↓,down,↓,0.8286502999253571,True,17,1,0,13
Y2-S2-283K20,1,132,AS,exp,25,←,right,→,0.7604772998020053,False,17,-1,1,14
Y2-S2-283K20,1,133,AS,exp,32,→,left,←,1.0128410998731852,False,18,-1,0,14
Y2-S2-283K20,1,134,AS,exp,47,←,left,←,0.6156975999474525,True,19,-1,0,14
Y2-S2-283K20,1,135,AS,exp,46,→,right,→,1.4016197999008,True,19,-1,0,14
Y2-S2-283K20,1,136,AS,exp,42,←,left,←,0.681269200053066,True,19,1,1,15
Y2-S2-283K20,1,137,AS,exp,34,↓,down,↓,0.7639670995995402,True,18,1,0,15
Y2-S2-283K20,1,138,AS,exp,30,↑,up,↑,0.5806625997647643,True,18,1,0,15
Y2-S2-283K20,1,139,AS,exp,48,←,right,→,0.6000584997236729,False,18,-1,1,16
Y2-S2-283K20,2,140,PS,intra_train,50,→,right,→,0.5443869000300765,True,18,-,-,-
Y2-S2-283K20,2,141,PS,intra_train,48,↑,up,↑,0.6266482998616993,True,18,-,-,-
Y2-S2-283K20,2,142,PS,intra_train,28,↓,down,↓,0.6947078998200595,True,18,-,-,-
Y2-S2-283K20,2,143,PS,intra_train,44,→,right,→,0.5249790996313095,True,18,-,-,-
Y2-S2-283K20,2,144,PS,intra_train,40,↑,up,↑,0.5135154002346098,True,18,-,-,-
Y2-S2-283K20,2,145,PS,exp,28,→,right,→,0.47034529969096184,True,12,0,0,0
Y2-S2-283K20,2,146,PS,exp,39,↑,up,↑,0.6543124997988343,True,12,0,0,0
Y2-S2-283K20,2,147,PS,exp,34,↓,right,→,1.6976770996116102,False,12,-1,0,0
Y2-S2-283K20,2,148,PS,exp,48,↑,up,↑,1.130427399650216,True,13,-1,0,0
Y2-S2-283K20,2,149,PS,exp,35,←,left,←,0.7686220002360642,True,13,-1,0,0
Y2-S2-283K20,2,150,PS,exp,35,↓,down,↓,0.7744129002094269,True,13,1,1,1
Y2-S2-283K20,2,151,PS,exp,38,↑,up,↑,0.6747656003572047,True,12,1,0,1
Y2-S2-283K20,2,152,PS,exp,47,←,left,←,0.5785102997906506,True,12,1,0,1
Y2-S2-283K20,2,153,PS,exp,33,↑,no_key,no_letter,-1.0,False,12,-1,1,2
Y2-S2-283K20,2,154,PS,exp,38,←,right,→,0.7071972000412643,False,13,-1,0,2
Y2-S2-283K20,2,155,PS,exp,40,↓,down,↓,0.5964095001108944,True,14,-1,0,2
Y2-S2-283K20,2,156,PS,exp,30,→,right,→,0.48278489988297224,True,14,-1,0,2
Y2-S2-283K20,2,157,PS,exp,47,↓,down,↓,0.6743573998101056,True,14,1,1,3
Y2-S2-283K20,2,158,PS,exp,33,→,right,→,0.7696436000987887,True,13,1,0,3
Y2-S2-283K20,2,159,PS,exp,27,↓,down,↓,0.6548805995844305,True,13,1,0,3
Y2-S2-283K20,2,160,PS,exp,30,↑,up,↑,0.8591999998316169,True,13,1,0,3
Y2-S2-283K20,2,161,PS,exp,33,←,left,←,0.6732943998649716,True,12,1,0,3
Y2-S2-283K20,2,162,PS,exp,43,↓,down,↓,0.6017697001807392,True,12,1,0,3
Y2-S2-283K20,2,163,PS,exp,37,↑,up,↑,0.6347153997048736,True,12,1,0,3
Y2-S2-283K20,2,164,PS,exp,46,←,left,←,0.7415221999399364,True,11,1,0,3
Y2-S2-283K20,2,165,PS,exp,27,↓,down,↓,0.555556199979037,True,11,1,0,3
Y2-S2-283K20,2,166,PS,exp,44,→,right,→,0.4966441001743078,True,11,1,0,3
Y2-S2-283K20,2,167,PS,exp,30,←,left,←,0.5995841999538243,True,10,1,0,3
Y2-S2-283K20,2,168,PS,exp,37,→,left,←,1.2594627002254128,False,10,-1,1,4
Y2-S2-283K20,2,169,PS,exp,44,↑,up,↑,0.812905500177294,True,11,-1,0,4
Y2-S2-283K20,2,170,PS,exp,28,↓,down,↓,0.6912956000305712,True,11,-1,0,4
Y2-S2-283K20,2,171,PS,exp,35,←,left,←,0.5691539002582431,True,11,1,1,5
Y2-S2-283K20,2,172,PS,exp,28,↑,up,↑,0.5623083999380469,True,10,1,0,5
Y2-S2-283K20,2,173,PS,exp,35,→,left,←,1.4080892000347376,False,10,-1,1,6
Y2-S2-283K20,2,174,PS,exp,44,←,left,←,0.5966333001852036,True,11,-1,0,6
Y2-S2-283K20,2,175,PS,exp,30,→,right,→,0.506521699950099,True,11,-1,0,6
Y2-S2-283K20,2,176,PS,exp,44,←,left,←,0.5433284002356231,True,11,1,1,7
Y2-S2-283K20,2,177,PS,exp,33,→,right,→,0.4753168998286128,True,10,1,0,7
Y2-S2-283K20,2,178,PS,exp,50,←,left,←,0.6242662002332509,True,10,1,0,7
Y2-S2-283K20,2,179,PS,exp,43,→,right,→,0.8642152999527752,True,10,1,0,7
Y2-S2-283K20,2,180,PS,exp,35,↓,right,→,1.3360041002742946,False,9,-1,1,8
Y2-S2-283K20,2,181,PS,exp,46,←,left,←,0.562754699960351,True,10,-1,0,8
Y2-S2-283K20,2,182,PS,exp,45,↑,left,←,0.9648665003478527,False,10,-1,0,8
Y2-S2-283K20,2,183,PS,exp,48,←,left,←,1.1527479998767376,True,11,-1,0,8
Y2-S2-283K20,2,184,PS,exp,48,↑,left,←,0.8750684000551701,False,11,-1,0,8
Y2-S2-283K20,2,185,PS,exp,28,←,right,→,0.630840600002557,False,12,-1,0,8
Y2-S2-283K20,2,186,PS,exp,43,→,right,→,0.5156435999087989,True,13,-1,0,8
Y2-S2-283K20,2,187,PS,exp,34,↑,up,↑,0.7472420996055007,True,13,-1,0,8
Y2-S2-283K20,2,188,PS,exp,37,↓,down,↓,0.8157795001752675,True,13,1,1,9
Y2-S2-283K20,2,189,PS,exp,34,↑,up,↑,0.58055549999699,True,12,1,0,9
Y2-S2-283K20,2,190,PS,exp,30,→,right,→,0.6166465999558568,True,12,1,0,9
Y2-S2-283K20,2,191,PS,exp,49,↑,up,↑,0.5029951999895275,True,12,1,0,9
Y2-S2-283K20,2,192,PS,exp,41,←,left,←,0.5554611999541521,True,11,1,0,9
Y2-S2-283K20,2,193,PS,exp,40,↓,down,↓,0.6464600996114314,True,11,1,0,9
Y2-S2-283K20,2,194,PS,exp,32,→,right,→,0.4518317999318242,True,11,1,0,9
Y2-S2-283K20,2,195,PS,exp,37,←,left,←,0.5910573001019657,True,10,1,0,9
Y2-S2-283K20,2,196,PS,exp,42,↑,up,↑,0.5233787996694446,True,10,1,0,9
Y2-S2-283K20,2,197,PS,exp,31,↓,down,↓,0.6313189002685249,True,10,1,0,9
Y2-S2-283K20,2,198,PS,exp,32,→,right,→,0.6274696998298168,True,9,1,0,9
Y2-S2-283K20,2,199,PS,exp,38,↓,down,↓,0.5669747996143997,True,9,1,0,9
Y2-S2-283K20,2,200,PS,exp,42,↑,up,↑,0.6007952997460961,True,9,1,0,9
Y2-S2-283K20,2,201,PS,exp,41,↓,down,↓,0.5375966001302004,True,8,1,0,9
Y2-S2-283K20,2,202,PS,exp,44,↑,up,↑,0.6577775003388524,True,8,1,0,9
Y2-S2-283K20,2,203,PS,exp,28,↓,down,↓,0.7318434002809227,True,8,1,0,9
Y2-S2-283K20,2,204,PS,exp,50,←,down,↓,0.5672121997922659,False,7,-1,1,10
Y2-S2-283K20,2,205,PS,exp,50,↓,down,↓,0.5894985999912024,True,8,-1,0,10
Y2-S2-283K20,2,206,PS,exp,46,↑,down,↓,1.1549741998314857,False,8,-1,0,10
Y2-S2-283K20,2,207,PS,exp,40,↓,left,←,1.0501319002360106,False,9,-1,0,10
Y2-S2-283K20,2,208,PS,exp,39,→,right,→,0.5017817998304963,True,10,-1,0,10
Y2-S2-283K20,2,209,PS,exp,29,←,left,←,0.688220199663192,True,10,-1,0,10
Y2-S2-283K20,2,210,PS,exp,48,↑,up,↑,0.6873339996673167,True,10,1,1,11
Y2-S2-283K20,2,211,PS,exp,41,→,right,→,0.7980967001058161,True,9,1,0,11
Y2-S2-283K20,2,212,PS,exp,35,↓,down,↓,0.6182713001035154,True,9,1,0,11
Y2-S2-283K20,2,213,PS,exp,31,↑,up,↑,0.7786300997249782,True,9,1,0,11
Y2-S2-283K20,2,214,PS,exp,25,↓,right,→,0.9180947002023458,False,8,-1,1,12
Y2-S2-283K20,2,215,PS,exp,31,←,left,←,0.7493302002549171,True,9,-1,0,12
Y2-S2-283K20,2,216,PS,exp,46,↑,up,↑,0.7880060002207756,True,9,-1,0,12
Y2-S2-283K20,2,217,PS,exp,39,←,left,←,0.6459190002642572,True,9,1,1,13
Y2-S2-283K20,2,218,PS,exp,27,↓,left,←,0.809695300180465,False,8,-1,1,14
Y2-S2-283K20,2,219,PS,exp,37,←,right,→,0.7355375001206994,False,9,-1,0,14
Y2-S2-283K20,2,220,PS,exp,36,↑,up,↑,0.8253684001974761,True,10,-1,0,14
Y2-S2-283K20,2,221,PS,exp,46,→,right,→,0.1502115000039339,True,10,-1,0,14
Y2-S2-283K20,2,222,PS,exp,42,↑,up,↑,1.026765199843794,True,10,1,1,15
Y2-S2-283K20,2,223,PS,exp,31,→,left,←,1.0447620996274054,False,9,-1,1,16
Y2-S2-283K20,3,224,PS,intra_train,27,↓,down,↓,0.7026053001172841,True,18,-,-,-
Y2-S2-283K20,3,225,PS,intra_train,42,→,right,→,0.5656892000697553,True,18,-,-,-
Y2-S2-283K20,3,226,PS,intra_train,43,↓,down,↓,0.6660818997770548,True,18,-,-,-
Y2-S2-283K20,3,227,PS,intra_train,43,↑,up,↑,0.5316421999596059,True,18,-,-,-
Y2-S2-283K20,3,228,PS,intra_train,36,→,right,→,1.504126800224185,True,18,-,-,-
Y2-S2-283K20,3,229,PS,exp,30,↑,up,↑,0.49932700023055077,True,12,0,0,0
Y2-S2-283K20,3,230,PS,exp,50,↓,down,↓,0.7349736001342535,True,12,0,0,0
Y2-S2-283K20,3,231,PS,exp,35,←,left,←,0.6003680001012981,True,12,1,0,0
Y2-S2-283K20,3,232,PS,exp,49,↓,down,↓,0.5545866996981204,True,11,1,0,0
Y2-S2-283K20,3,233,PS,exp,34,→,down,↓,1.0659625004045665,False,11,-1,1,1
Y2-S2-283K20,3,234,PS,exp,28,↓,down,↓,0.6803581998683512,True,12,-1,0,1
Y2-S2-283K20,3,235,PS,exp,38,↑,down,↓,1.2532017999328673,False,12,-1,0,1
Y2-S2-283K20,3,236,PS,exp,25,↓,down,↓,0.8887066999450326,True,13,-1,0,1
Y2-S2-283K20,3,237,PS,exp,43,→,right,→,0.8761451002210379,True,13,-1,0,1
Y2-S2-283K20,3,238,PS,exp,39,↑,up,↑,0.651632800232619,True,13,1,1,2
Y2-S2-283K20,3,239,PS,exp,37,←,left,←,0.7734151999466121,True,12,1,0,2
Y2-S2-283K20,3,240,PS,exp,26,↓,down,↓,0.54913209984079,True,12,1,0,2
Y2-S2-283K20,3,241,PS,exp,30,→,right,→,0.5545679000206292,True,12,1,0,2
Y2-S2-283K20,3,242,PS,exp,36,↓,down,↓,0.4600358000025153,True,11,1,0,2
Y2-S2-283K20,3,243,PS,exp,46,←,left,←,1.3926178999245167,True,11,1,0,2
Y2-S2-283K20,3,244,PS,exp,39,↓,down,↓,0.7294851001352072,True,11,1,0,2
Y2-S2-283K20,3,245,PS,exp,35,←,left,←,0.943552500102669,True,10,1,0,2
Y2-S2-283K20,3,246,PS,exp,39,↑,up,↑,0.8189273998141289,True,10,1,0,2
Y2-S2-283K20,3,247,PS,exp,30,←,left,←,0.5422200001776218,True,10,1,0,2
Y2-S2-283K20,3,248,PS,exp,28,→,right,→,0.4600414000451565,True,9,1,0,2
Y2-S2-283K20,3,249,PS,exp,42,↓,down,↓,0.6125956000760198,True,9,1,0,2
Y2-S2-283K20,3,250,PS,exp,50,→,right,→,0.43689659982919693,True,9,1,0,2
Y2-S2-283K20,3,251,PS,exp,47,←,left,←,0.802630000282079,True,8,1,0,2
Y2-S2-283K20,3,252,PS,exp,25,→,right,→,0.8647565999999642,True,8,1,0,2
Y2-S2-283K20,3,253,PS,exp,47,↑,down,↓,0.6593680996447802,False,8,-1,1,3
Y2-S2-283K20,3,254,PS,exp,33,←,left,←,0.5784819000400603,True,9,-1,0,3
Y2-S2-283K20,3,255,PS,exp,45,↓,down,↓,0.5462497998960316,True,9,-1,0,3
Y2-S2-283K20,3,256,PS,exp,31,→,right,→,0.47108149994164705,True,9,1,1,4
Y2-S2-283K20,3,257,PS,exp,43,←,left,←,0.6097532999701798,True,8,1,0,4
Y2-S2-283K20,3,258,PS,exp,50,↑,down,↓,0.960725300014019,False,8,-1,1,5
Y2-S2-283K20,3,259,PS,exp,39,←,left,←,0.9480650001205504,True,9,-1,0,5
Y2-S2-283K20,3,260,PS,exp,26,↑,up,↑,0.5405896003358066,True,9,-1,0,5
Y2-S2-283K20,3,261,PS,exp,47,↓,down,↓,0.5843559997156262,True,9,1,1,6
Y2-S2-283K20,3,262,PS,exp,31,↑,up,↑,0.4908210998401046,True,8,1,0,6
Y2-S2-283K20,3,263,PS,exp,47,→,right,→,0.5273990998975933,True,8,1,0,6
Y2-S2-283K20,3,264,PS,exp,38,↓,down,↓,0.6071629002690315,True,8,1,0,6
Y2-S2-283K20,3,265,PS,exp,39,→,right,→,0.47202050033956766,True,7,1,0,6
Y2-S2-283K20,3,266,PS,exp,33,↓,right,→,0.6769690997898579,False,7,-1,1,7
Y2-S2-283K20,3,267,PS,exp,42,↑,up,↑,0.5642246999777853,True,8,-1,0,7
Y2-S2-283K20,3,268,PS,exp,37,←,left,←,0.5380426002666354,True,8,-1,0,7
Y2-S2-283K20,3,269,PS,exp,33,↓,down,↓,0.6923585999757051,True,8,1,1,8
Y2-S2-283K20,3,270,PS,exp,46,←,right,→,0.6332430001348257,False,7,-1,1,9
Y2-S2-283K20,3,271,PS,exp,25,↑,up,↑,0.5373802003450692,True,8,-1,0,9
Y2-S2-283K20,3,272,PS,exp,39,→,right,→,0.5533511997200549,True,8,-1,0,9
Y2-S2-283K20,3,273,PS,exp,35,↑,up,↑,0.7488953000865877,True,8,1,1,10
Y2-S2-283K20,3,274,PS,exp,41,↓,no_key,no_letter,-1.0,False,7,-1,1,11
Y2-S2-283K20,3,275,PS,exp,29,←,left,←,0.7859813999384642,True,8,-1,0,11
Y2-S2-283K20,3,276,PS,exp,31,↑,up,↑,0.6959374002180994,True,8,-1,0,11
Y2-S2-283K20,3,277,PS,exp,43,↓,down,↓,0.5224112998694181,True,8,1,1,12
Y2-S2-283K20,3,278,PS,exp,35,←,down,↓,0.9526412999257445,False,7,-1,1,13
Y2-S2-283K20,3,279,PS,exp,32,↓,down,↓,0.6375565999187529,True,8,-1,0,13
Y2-S2-283K20,3,280,PS,exp,30,←,left,←,1.3031031996943057,True,8,-1,0,13
Y2-S2-283K20,3,281,PS,exp,49,↓,down,↓,0.6518973000347614,True,8,1,1,14
Y2-S2-283K20,3,282,PS,exp,28,↑,up,↑,0.6792092998512089,True,7,1,0,14
Y2-S2-283K20,3,283,PS,exp,41,↓,down,↓,0.6919436999596655,True,7,1,0,14
Y2-S2-283K20,3,284,PS,exp,39,→,right,→,0.508311599958688,True,7,1,0,14
Y2-S2-283K20,3,285,PS,exp,38,↓,right,→,0.7356287003494799,False,6,-1,1,15
Y2-S2-283K20,3,286,PS,exp,30,←,left,←,0.864051700104028,True,7,-1,0,15
Y2-S2-283K20,3,287,PS,exp,35,↑,right,→,0.7665865998715162,False,7,-1,0,15
Y2-S2-283K20,3,288,PS,exp,39,↓,right,→,0.4949868000112474,False,8,-1,0,15
Y2-S2-283K20,3,289,PS,exp,26,↑,up,↑,0.5995192001573741,True,9,-1,0,15
Y2-S2-283K20,3,290,PS,exp,37,→,right,→,0.5631185001693666,True,9,-1,0,15
Y2-S2-283K20,3,291,PS,exp,39,←,left,←,0.6254644999280572,True,9,1,1,16
Y2-S2-283K20,4,292,AS,intra_train,43,↑,up,↑,0.9902265002019703,True,27,-,-,-
Y2-S2-283K20,4,293,AS,intra_train,45,→,right,→,0.826001700013876,True,27,-,-,-
Y2-S2-283K20,4,294,AS,intra_train,40,←,right,→,0.6602369002066553,False,27,-,-,-
Y2-S2-283K20,4,295,AS,intra_train,35,↑,up,↑,0.5338345998898149,True,27,-,-,-
Y2-S2-283K20,4,296,AS,intra_train,40,←,left,←,0.5002027996815741,True,27,-,-,-
Y2-S2-283K20,4,297,AS,exp,42,→,right,→,0.5423325002193451,True,18,0,0,0
Y2-S2-283K20,4,298,AS,exp,49,↑,up,↑,0.7663585999980569,True,18,0,0,0
Y2-S2-283K20,4,299,AS,exp,34,←,down,↓,1.0010667997412384,False,18,-1,0,0
Y2-S2-283K20,4,300,AS,exp,38,→,left,←,0.8283740999177098,False,19,-1,0,0
Y2-S2-283K20,4,301,AS,exp,46,↓,up,↑,1.0518384999595582,False,20,-1,0,0
Y2-S2-283K20,4,302,AS,exp,31,→,no_key,no_letter,-1.0,False,21,-1,0,0
Y2-S2-283K20,4,303,AS,exp,28,←,right,→,0.6394452000968158,False,22,-1,0,0
Y2-S2-283K20,4,304,AS,exp,31,↑,up,↑,0.7385952998884022,True,23,-1,0,0
Y2-S2-283K20,4,305,AS,exp,29,→,right,→,0.8068095003254712,True,23,-1,0,0
Y2-S2-283K20,4,306,AS,exp,47,←,left,←,0.559487999882549,True,23,1,1,1
Y2-S2-283K20,4,307,AS,exp,26,↓,down,↓,0.7945010000839829,True,22,1,0,1
Y2-S2-283K20,4,308,AS,exp,49,←,left,←,0.8266743002459407,True,22,1,0,1
Y2-S2-283K20,4,309,AS,exp,33,↓,no_key,no_letter,-1.0,False,22,-1,1,2
Y2-S2-283K20,4,310,AS,exp,48,←,left,←,0.8019978003576398,True,23,-1,0,2
Y2-S2-283K20,4,311,AS,exp,27,→,right,→,0.7741112001240253,True,23,-1,0,2
Y2-S2-283K20,4,312,AS,exp,45,↑,down,↓,0.739788900129497,False,23,-1,0,2
Y2-S2-283K20,4,313,AS,exp,29,→,right,→,0.691792800091207,True,24,-1,0,2
Y2-S2-283K20,4,314,AS,exp,31,←,left,←,0.533511399757117,True,24,-1,0,2
Y2-S2-283K20,4,315,AS,exp,32,→,left,←,0.7729964000172913,False,24,-1,0,2
Y2-S2-283K20,4,316,AS,exp,34,←,left,←,1.66532599972561,True,25,-1,0,2
Y2-S2-283K20,4,317,AS,exp,26,↓,down,↓,0.9066901002079248,True,25,-1,0,2
Y2-S2-283K20,4,318,AS,exp,25,↑,up,↑,0.5867222002707422,True,25,1,1,3
Y2-S2-283K20,4,319,AS,exp,50,↓,down,↓,0.991259700153023,True,24,1,0,3
Y2-S2-283K20,4,320,AS,exp,42,←,left,←,0.8711867998354137,True,24,1,0,3
Y2-S2-283K20,4,321,AS,exp,30,↓,down,↓,0.6259224000386894,True,24,1,0,3
Y2-S2-283K20,4,322,AS,exp,35,↑,up,↑,0.7942499001510441,True,23,1,0,3
Y2-S2-283K20,4,323,AS,exp,31,←,left,←,0.7282827002927661,True,23,1,0,3
Y2-S2-283K20,4,324,AS,exp,45,→,right,→,0.5978929996490479,True,23,1,0,3
Y2-S2-283K20,4,325,AS,exp,45,←,left,←,0.45069989981129766,True,22,1,0,3
Y2-S2-283K20,4,326,AS,exp,49,↑,up,↑,0.5625578998588026,True,22,1,0,3
Y2-S2-283K20,4,327,AS,exp,32,↓,down,↓,0.634617299772799,True,22,1,0,3
Y2-S2-283K20,4,328,AS,exp,29,←,left,←,0.790629199706018,True,21,1,0,3
Y2-S2-283K20,4,329,AS,exp,42,↓,down,↓,0.7332868003286421,True,21,1,0,3
Y2-S2-283K20,4,330,AS,exp,40,←,left,←,0.6142637999728322,True,21,1,0,3
Y2-S2-283K20,4,331,AS,exp,45,↓,down,↓,0.6547938999719918,True,20,1,0,3
Y2-S2-283K20,4,332,AS,exp,40,→,right,→,0.6071842000819743,True,20,1,0,3
Y2-S2-283K20,4,333,AS,exp,45,↓,down,↓,0.6879869997501373,True,20,1,0,3
Y2-S2-283K20,4,334,AS,exp,25,←,left,←,0.784198799636215,True,19,1,0,3
Y2-S2-283K20,4,335,AS,exp,37,→,right,→,0.7676213998347521,True,19,1,0,3
Y2-S2-283K20,4,336,AS,exp,34,←,left,←,0.9894770001992583,True,19,1,0,3
Y2-S2-283K20,4,337,AS,exp,48,→,right,→,0.7412299001589417,True,18,1,0,3
Y2-S2-283K20,4,338,AS,exp,31,↓,down,↓,0.868951799813658,True,18,1,0,3
Y2-S2-283K20,4,339,AS,exp,30,↑,up,↑,0.5986290001310408,True,18,1,0,3
Y2-S2-283K20,4,340,AS,exp,46,←,left,←,0.4911989001557231,True,17,1,0,3
Y2-S2-283K20,4,341,AS,exp,43,→,down,↓,0.8772427001968026,False,17,-1,1,4
Y2-S2-283K20,4,342,AS,exp,25,↓,right,→,0.8154883999377489,False,18,-1,0,4
Y2-S2-283K20,4,343,AS,exp,27,←,left,←,0.6897121001966298,True,19,-1,0,4
Y2-S2-283K20,4,344,AS,exp,41,→,right,→,0.5271629998460412,True,19,-1,0,4
Y2-S2-283K20,4,345,AS,exp,45,↓,down,↓,0.7085883999243379,True,19,1,1,5
Y2-S2-283K20,4,346,AS,exp,41,→,right,→,0.6545706000179052,True,18,1,0,5
Y2-S2-283K20,4,347,AS,exp,25,↑,up,↑,0.8051677998155355,True,18,1,0,5
Y2-S2-283K20,4,348,AS,exp,38,↓,down,↓,0.8413304998539388,True,18,1,0,5
Y2-S2-283K20,4,349,AS,exp,30,←,left,←,0.49926359998062253,True,17,1,0,5
Y2-S2-283K20,4,350,AS,exp,44,→,right,→,0.9194638999179006,True,17,1,0,5
Y2-S2-283K20,4,351,AS,exp,38,←,left,←,0.5966745000332594,True,17,1,0,5
Y2-S2-283K20,4,352,AS,exp,49,→,right,→,1.1392782996408641,True,16,1,0,5
Y2-S2-283K20,4,353,AS,exp,27,←,left,←,0.6921950001269579,True,16,1,0,5
Y2-S2-283K20,4,354,AS,exp,48,↑,up,↑,0.7866421998478472,True,16,1,0,5
Y2-S2-283K20,4,355,AS,exp,37,←,right,→,0.6745368000119925,False,15,-1,1,6
Y2-S2-283K20,4,356,AS,exp,43,→,right,→,0.7607302996329963,True,16,-1,0,6
Y2-S2-283K20,4,357,AS,exp,31,←,right,→,0.6702127996832132,False,16,-1,0,6
Y2-S2-283K20,4,358,AS,exp,49,↑,up,↑,0.7472350997850299,True,17,-1,0,6
Y2-S2-283K20,4,359,AS,exp,48,↓,down,↓,0.8471479997970164,True,17,-1,0,6
Y2-S2-283K20,4,360,AS,exp,48,↑,up,↑,0.7088933000341058,True,17,1,1,7
Y2-S2-283K20,4,361,AS,exp,29,↓,down,↓,0.7279938003048301,True,16,1,0,7
Y2-S2-283K20,4,362,AS,exp,37,→,right,→,0.6141523001715541,True,16,1,0,7
Y2-S2-283K20,4,363,AS,exp,40,↑,up,↑,0.7971303998492658,True,16,1,0,7
Y2-S2-283K20,4,364,AS,exp,35,→,right,→,0.555352299939841,True,15,1,0,7
Y2-S2-283K20,4,365,AS,exp,43,←,left,←,0.8127172002568841,True,15,1,0,7
Y2-S2-283K20,4,366,AS,exp,27,↓,down,↓,0.8063789997249842,True,15,1,0,7
Y2-S2-283K20,4,367,AS,exp,34,↑,up,↑,0.6282926998101175,True,14,1,0,7
Y2-S2-283K20,4,368,AS,exp,44,←,down,↓,0.8795619998127222,False,14,-1,1,8
Y2-S2-283K20,4,369,AS,exp,36,↑,left,←,1.1132116001099348,False,15,-1,0,8
Y2-S2-283K20,4,370,AS,exp,43,←,left,←,0.4750961996614933,True,16,-1,0,8
Y2-S2-283K20,4,371,AS,exp,48,↓,down,↓,0.7843849002383649,True,16,-1,0,8
Y2-S2-283K20,4,372,AS,exp,43,↑,up,↑,1.0604436001740396,True,16,1,1,9
Y2-S2-283K20,4,373,AS,exp,48,←,right,→,0.9760956997051835,False,15,-1,1,10
Y2-S2-283K20,4,374,AS,exp,42,↓,down,↓,0.6836036997847259,True,16,-1,0,10
Y2-S2-283K20,4,375,AS,exp,39,↑,up,↑,0.5843000998720527,True,16,-1,0,10
Y2-S2-283K20,4,376,AS,exp,47,↓,down,↓,0.68775669997558,True,16,1,1,11
Y2-S2-283K20,4,377,AS,exp,46,←,left,←,0.7067515999078751,True,15,1,0,11
Y2-S2-283K20,4,378,AS,exp,31,↓,down,↓,0.6105481996200979,True,15,1,0,11
Y2-S2-283K20,4,379,AS,exp,50,←,right,→,0.7223741998896003,False,15,-1,1,12
Y2-S2-283K20,4,380,AS,exp,48,→,right,→,0.6305145001970232,True,16,-1,0,12
Y2-S2-283K20,4,381,AS,exp,42,↓,down,↓,0.7133181001991034,True,16,-1,0,12
Y2-S2-283K20,4,382,AS,exp,40,→,right,→,0.6777755999937654,True,16,1,1,13
Y2-S2-283K20,4,383,AS,exp,49,←,left,←,0.6314010000787675,True,15,1,0,13
Y2-S2-283K20,4,384,AS,exp,43,→,right,→,0.6066100001335144,True,15,1,0,13
Y2-S2-283K20,4,385,AS,exp,35,↑,down,↓,1.1083022998645902,False,15,-1,1,14
Y2-S2-283K20,4,386,AS,exp,28,→,right,→,0.7794634001329541,True,16,-1,0,14
Y2-S2-283K20,4,387,AS,exp,32,↓,down,↓,0.9100613999180496,True,16,-1,0,14
Y2-S2-283K20,4,388,AS,exp,30,←,left,←,0.5488657001405954,True,16,1,1,15
Y2-S2-283K20,4,389,AS,exp,28,↓,down,↓,0.7575320000760257,True,15,1,0,15
Y2-S2-283K20,4,390,AS,exp,45,↑,up,↑,0.861293500289321,True,15,1,0,15
Y2-S2-283K20,4,391,AS,exp,29,←,left,←,0.6699622999876738,True,15,1,0,15
Y2-S2-283K20,4,392,AS,exp,50,↑,up,↑,0.5021321000531316,True,14,1,0,15
Y2-S2-283K20,4,393,AS,exp,30,←,left,←,0.5558138000778854,True,14,1,0,15
Y2-S2-283K20,4,394,AS,exp,44,→,right,→,0.597214300185442,True,14,1,0,15
Y2-S2-283K20,4,395,AS,exp,25,↑,up,↑,0.676428799983114,True,13,1,0,15
Y2-S2-283K20,4,396,AS,exp,43,↓,down,↓,0.6341283000074327,True,13,1,0,15
Y2-S2-283K20,4,397,AS,exp,37,↑,up,↑,0.7271829000674188,True,13,1,0,15
Y2-S2-283K20,4,398,AS,exp,44,→,right,→,0.5838115997612476,True,12,1,0,15
Y2-S2-283K20,4,399,AS,exp,39,↓,up,↑,0.7797417002730072,False,12,-1,1,16
Y2-S2-283K20,5,400,AS,intra_train,31,↑,up,↑,1.4109163000248373,True,27,-,-,-
Y2-S2-283K20,5,401,AS,intra_train,28,↓,down,↓,0.8157875998876989,True,27,-,-,-
Y2-S2-283K20,5,402,AS,intra_train,35,↑,up,↑,0.8180558001622558,True,27,-,-,-
Y2-S2-283K20,5,403,AS,intra_train,28,↓,down,↓,0.634370299987495,True,27,-,-,-
Y2-S2-283K20,5,404,AS,intra_train,46,←,left,←,0.7236216999590397,True,27,-,-,-
Y2-S2-283K20,5,405,AS,exp,28,↑,up,↑,0.6563046998344362,True,18,0,0,0
Y2-S2-283K20,5,406,AS,exp,28,→,left,←,0.5196420000866055,False,18,-1,0,0
Y2-S2-283K20,5,407,AS,exp,32,↓,down,↓,0.6024410999380052,True,19,-1,0,0
Y2-S2-283K20,5,408,AS,exp,44,→,right,→,0.7618137998506427,True,19,-1,0,0
Y2-S2-283K20,5,409,AS,exp,42,←,left,←,0.5448199003003538,True,19,1,1,1
Y2-S2-283K20,5,410,AS,exp,43,↑,up,↑,0.5694507001899183,True,18,1,0,1
Y2-S2-283K20,5,411,AS,exp,41,←,left,←,0.754880900029093,True,18,1,0,1
Y2-S2-283K20,5,412,AS,exp,38,↑,up,↑,1.194050199817866,True,18,1,0,1
Y2-S2-283K20,5,413,AS,exp,43,↓,down,↓,0.8079640995711088,True,17,1,0,1
Y2-S2-283K20,5,414,AS,exp,30,↑,right,→,0.7773095001466572,False,17,-1,1,2
Y2-S2-283K20,5,415,AS,exp,50,↓,down,↓,0.614287500269711,True,18,-1,0,2
Y2-S2-283K20,5,416,AS,exp,32,←,left,←,0.7610360998660326,True,18,-1,0,2
Y2-S2-283K20,5,417,AS,exp,40,↓,down,↓,0.6284179999493062,True,18,1,1,3
Y2-S2-283K20,5,418,AS,exp,43,↑,up,↑,0.5164816998876631,True,17,1,0,3
Y2-S2-283K20,5,419,AS,exp,48,→,left,←,0.8225492001511157,False,17,-1,1,4
Y2-S2-283K20,5,420,AS,exp,48,←,left,←,0.9140078001655638,True,18,-1,0,4
Y2-S2-283K20,5,421,AS,exp,44,↑,down,↓,0.9600889002904296,False,18,-1,0,4
Y2-S2-283K20,5,422,AS,exp,36,→,right,→,0.6242160000838339,True,19,-1,0,4
Y2-S2-283K20,5,423,AS,exp,45,↑,up,↑,1.11400349996984,True,19,-1,0,4
Y2-S2-283K20,5,424,AS,exp,29,↓,down,↓,0.7196237999014556,True,19,1,1,5
Y2-S2-283K20,5,425,AS,exp,50,←,left,←,0.8749552997760475,True,18,1,0,5
Y2-S2-283K20,5,426,AS,exp,35,↑,up,↑,0.5679974001832306,True,18,1,0,5
Y2-S2-283K20,5,427,AS,exp,45,↓,down,↓,0.7258208002895117,True,18,1,0,5
Y2-S2-283K20,5,428,AS,exp,41,↑,down,↓,0.9024971001781523,False,17,-1,1,6
Y2-S2-283K20,5,429,AS,exp,35,←,up,↑,0.8199404999613762,False,18,-1,0,6
Y2-S2-283K20,5,430,AS,exp,37,↓,down,↓,1.0737487003207207,True,19,-1,0,6
Y2-S2-283K20,5,431,AS,exp,47,→,left,←,0.9133767997846007,False,19,-1,0,6
Y2-S2-283K20,5,432,AS,exp,50,↑,up,↑,0.7515573999844491,True,20,-1,0,6
Y2-S2-283K20,5,433,AS,exp,32,↓,down,↓,0.6530474000610411,True,20,-1,0,6
Y2-S2-283K20,5,434,AS,exp,50,←,left,←,0.83170250011608,True,20,1,1,7
Y2-S2-283K20,5,435,AS,exp,45,↑,up,↑,0.5466905999928713,True,19,1,0,7
Y2-S2-283K20,5,436,AS,exp,37,→,right,→,0.6588662997819483,True,19,1,0,7
Y2-S2-283K20,5,437,AS,exp,29,←,right,→,0.7851865002885461,False,19,-1,1,8
Y2-S2-283K20,5,438,AS,exp,49,↓,down,↓,0.6779115996323526,True,20,-1,0,8
Y2-S2-283K20,5,439,AS,exp,42,↑,up,↑,0.6154712997376919,True,20,-1,0,8
Y2-S2-283K20,5,440,AS,exp,35,←,left,←,1.6489552999846637,True,20,1,1,9
Y2-S2-283K20,5,441,AS,exp,28,→,right,→,0.5270654000341892,True,19,1,0,9
Y2-S2-283K20,5,442,AS,exp,30,↑,up,↑,0.8343877997249365,True,19,1,0,9
Y2-S2-283K20,5,443,AS,exp,37,↓,down,↓,0.7591578001156449,True,19,1,0,9
Y2-S2-283K20,5,444,AS,exp,31,→,right,→,0.5703150001354516,True,18,1,0,9
Y2-S2-283K20,5,445,AS,exp,25,←,left,←,0.7123856996186078,True,18,1,0,9
Y2-S2-283K20,5,446,AS,exp,49,↑,up,↑,0.5882999999448657,True,18,1,0,9
Y2-S2-283K20,5,447,AS,exp,31,←,up,↑,1.0017018001526594,False,17,-1,1,10
Y2-S2-283K20,5,448,AS,exp,25,↑,up,↑,0.7590528000146151,True,18,-1,0,10
Y2-S2-283K20,5,449,AS,exp,29,↓,down,↓,0.7267537000589073,True,18,-1,0,10
Y2-S2-283K20,5,450,AS,exp,50,→,right,→,0.6789222001098096,True,18,1,1,11
Y2-S2-283K20,5,451,AS,exp,27,↓,down,↓,0.5537675996311009,True,17,1,0,11
Y2-S2-283K20,5,452,AS,exp,44,←,left,←,0.6102986996993423,True,17,1,0,11
Y2-S2-283K20,5,453,AS,exp,49,↑,up,↑,0.7085365001112223,True,17,1,0,11
Y2-S2-283K20,5,454,AS,exp,25,←,left,←,0.7370993997901678,True,16,1,0,11
Y2-S2-283K20,5,455,AS,exp,27,→,right,→,0.4731517001055181,True,16,1,0,11
Y2-S2-283K20,5,456,AS,exp,27,↑,up,↑,0.5432662996463478,True,16,1,0,11
Y2-S2-283K20,5,457,AS,exp,39,→,right,→,0.5624960996210575,True,15,1,0,11
Y2-S2-283K20,5,458,AS,exp,46,↓,down,↓,0.6451350999996066,True,15,1,0,11
Y2-S2-283K20,5,459,AS,exp,48,←,left,←,0.5783644001930952,True,15,1,0,11
Y2-S2-283K20,5,460,AS,exp,46,→,left,←,0.8650321001186967,False,14,-1,1,12
Y2-S2-283K20,5,461,AS,exp,29,←,left,←,0.5460796998813748,True,15,-1,0,12
Y2-S2-283K20,5,462,AS,exp,46,→,right,→,0.46270749997347593,True,15,-1,0,12
Y2-S2-283K20,5,463,AS,exp,40,←,left,←,0.5895862998440862,True,15,1,1,13
Y2-S2-283K20,5,464,AS,exp,41,→,right,→,0.5897909002378583,True,14,1,0,13
Y2-S2-283K20,5,465,AS,exp,34,↓,down,↓,0.9865311002358794,True,14,1,0,13
Y2-S2-283K20,5,466,AS,exp,49,←,left,←,0.7439971999265254,True,14,1,0,13
Y2-S2-283K20,5,467,AS,exp,45,↓,right,→,0.7047917996533215,False,13,-1,1,14
Y2-S2-283K20,5,468,AS,exp,43,↑,up,↑,0.9408257999457419,True,14,-1,0,14
Y2-S2-283K20,5,469,AS,exp,45,↓,down,↓,0.5628196001052856,True,14,-1,0,14
Y2-S2-283K20,5,470,AS,exp,25,→,left,←,0.9636570001021028,False,14,-1,0,14
Y2-S2-283K20,5,471,AS,exp,44,↓,down,↓,1.086137699894607,True,15,-1,0,14
Y2-S2-283K20,5,472,AS,exp,42,←,left,←,0.8173110000789165,True,15,-1,0,14
Y2-S2-283K20,5,473,AS,exp,40,↑,up,↑,1.1369123999029398,True,15,1,1,15
Y2-S2-283K20,5,474,AS,exp,40,→,left,←,0.7825615997426212,False,14,-1,1,16
Y2-S2-283K20,6,475,PS,intra_train,33,←,left,←,0.895409899763763,True,18,-,-,-
Y2-S2-283K20,6,476,PS,intra_train,46,↑,up,↑,0.7231627004221082,True,18,-,-,-
Y2-S2-283K20,6,477,PS,intra_train,42,←,right,→,0.6225552000105381,False,18,-,-,-
Y2-S2-283K20,6,478,PS,intra_train,42,↓,up,↑,0.7746640001423657,False,18,-,-,-
Y2-S2-283K20,6,479,PS,intra_train,31,←,left,←,0.7222501998767257,True,18,-,-,-
Y2-S2-283K20,6,480,PS,exp,46,→,right,→,0.5579582997597754,True,12,0,0,0
Y2-S2-283K20,6,481,PS,exp,25,↓,left,←,0.6631825999356806,False,12,-1,0,0
Y2-S2-283K20,6,482,PS,exp,29,←,left,←,0.4616028000600636,True,13,-1,0,0
Y2-S2-283K20,6,483,PS,exp,46,→,right,→,0.5194345000199974,True,13,-1,0,0
Y2-S2-283K20,6,484,PS,exp,49,↓,right,→,0.5186386997811496,False,13,-1,0,0
Y2-S2-283K20,6,485,PS,exp,42,→,left,←,0.6623109001666307,False,14,-1,0,0
Y2-S2-283K20,6,486,PS,exp,46,←,no_key,no_letter,-1.0,False,15,-1,0,0
Y2-S2-283K20,6,487,PS,exp,45,↓,down,↓,0.943671400193125,True,16,-1,0,0
Y2-S2-283K20,6,488,PS,exp,46,←,right,→,0.7675413000397384,False,16,-1,0,0
Y2-S2-283K20,6,489,PS,exp,31,→,right,→,0.7236572997644544,True,17,-1,0,0
Y2-S2-283K20,6,490,PS,exp,37,↑,up,↑,0.5802422999404371,True,17,-1,0,0
Y2-S2-283K20,6,491,PS,exp,40,↓,down,↓,0.7464697998948395,True,17,1,1,1
Y2-S2-283K20,6,492,PS,exp,38,→,right,→,0.4921482000499964,True,16,1,0,1
Y2-S2-283K20,6,493,PS,exp,49,←,left,←,0.6684260000474751,True,16,1,0,1
Y2-S2-283K20,6,494,PS,exp,46,↓,down,↓,0.7377472002990544,True,16,1,0,1
Y2-S2-283K20,6,495,PS,exp,38,→,right,→,0.4672945998609066,True,15,1,0,1
Y2-S2-283K20,6,496,PS,exp,41,←,left,←,0.7475411999039352,True,15,1,0,1
Y2-S2-283K20,6,497,PS,exp,32,↑,up,↑,0.5350990002043545,True,15,1,0,1
Y2-S2-283K20,6,498,PS,exp,40,↓,right,→,0.7918392000719905,False,14,-1,1,2
Y2-S2-283K20,6,499,PS,exp,36,→,right,→,0.5225785998627543,True,15,-1,0,2
Y2-S2-283K20,6,500,PS,exp,48,↓,down,↓,0.6847673999145627,True,15,-1,0,2
Y2-S2-283K20,6,501,PS,exp,49,↑,up,↑,0.6462419000454247,True,15,1,1,3
Y2-S2-283K20,6,502,PS,exp,25,↓,left,←,0.7279151999391615,False,14,-1,1,4
Y2-S2-283K20,6,503,PS,exp,26,↑,up,↑,0.6590904002077878,True,15,-1,0,4
Y2-S2-283K20,6,504,PS,exp,38,↓,down,↓,0.5449744998477399,True,15,-1,0,4
Y2-S2-283K20,6,505,PS,exp,44,→,right,→,0.43942549964413047,True,15,1,1,5
Y2-S2-283K20,6,506,PS,exp,42,↑,up,↑,0.5695907999761403,True,14,1,0,5
Y2-S2-283K20,6,507,PS,exp,36,↓,down,↓,0.5993170002475381,True,14,1,0,5
Y2-S2-283K20,6,508,PS,exp,44,↑,up,↑,0.7343142000027001,True,14,1,0,5
Y2-S2-283K20,6,509,PS,exp,39,←,left,←,0.8261810997501016,True,13,1,0,5
Y2-S2-283K20,6,510,PS,exp,47,→,right,→,0.5476919999346137,True,13,1,0,5
Y2-S2-283K20,6,511,PS,exp,40,←,left,←,0.8344401000067592,True,13,1,0,5
Y2-S2-283K20,6,512,PS,exp,46,→,right,→,0.4496345999650657,True,12,1,0,5
Y2-S2-283K20,6,513,PS,exp,46,↓,left,←,0.9454438001848757,False,12,-1,1,6
Y2-S2-283K20,6,514,PS,exp,38,←,left,←,0.6963760000653565,True,13,-1,0,6
Y2-S2-283K20,6,515,PS,exp,43,↑,up,↑,0.6100214999169111,True,13,-1,0,6
Y2-S2-283K20,6,516,PS,exp,34,→,right,→,0.40770479990169406,True,13,1,1,7
Y2-S2-283K20,6,517,PS,exp,30,↑,up,↑,0.7609286000952125,True,12,1,0,7
Y2-S2-283K20,6,518,PS,exp,25,←,left,←,0.7550902999937534,True,12,1,0,7
Y2-S2-283K20,6,519,PS,exp,44,→,right,→,0.41867890022695065,True,12,1,0,7
Y2-S2-283K20,6,520,PS,exp,45,↓,down,↓,0.7287452998571098,True,11,1,0,7
Y2-S2-283K20,6,521,PS,exp,30,←,left,←,0.618523099925369,True,11,1,0,7
Y2-S2-283K20,6,522,PS,exp,39,↑,up,↑,0.6823575999587774,True,11,1,0,7
Y2-S2-283K20,6,523,PS,exp,29,↓,down,↓,0.5288811000064015,True,10,1,0,7
Y2-S2-283K20,6,524,PS,exp,36,↑,up,↑,0.5399743001908064,True,10,1,0,7
Y2-S2-283K20,6,525,PS,exp,48,←,left,←,0.635869599878788,True,10,1,0,7
Y2-S2-283K20,6,526,PS,exp,41,→,left,←,0.7838421002961695,False,9,-1,1,8
Y2-S2-283K20,6,527,PS,exp,27,↓,down,↓,0.5858871000818908,True,10,-1,0,8
Y2-S2-283K20,6,528,PS,exp,25,→,right,→,0.6237603998742998,True,10,-1,0,8
Y2-S2-283K20,6,529,PS,exp,34,↑,up,↑,0.8016924001276493,True,10,1,1,9
Y2-S2-283K20,6,530,PS,exp,50,←,left,←,0.5818181000649929,True,9,1,0,9
Y2-S2-283K20,6,531,PS,exp,44,↓,down,↓,0.63023960031569,True,9,1,0,9
Y2-S2-283K20,6,532,PS,exp,40,→,up,↑,0.5080849002115428,False,9,-1,1,10
Y2-S2-283K20,6,533,PS,exp,28,↓,down,↓,0.5312063000164926,True,10,-1,0,10
Y2-S2-283K20,6,534,PS,exp,29,↑,up,↑,0.8737726002000272,True,10,-1,0,10
Y2-S2-283K20,6,535,PS,exp,50,↓,down,↓,0.5788660999387503,True,10,1,1,11
Y2-S2-283K20,6,536,PS,exp,28,↑,up,↑,0.3921186998486519,True,9,1,0,11
Y2-S2-283K20,6,537,PS,exp,29,←,left,←,0.7240119003690779,True,9,1,0,11
Y2-S2-283K20,6,538,PS,exp,42,→,right,→,0.7494696998037398,True,9,1,0,11
Y2-S2-283K20,6,539,PS,exp,46,←,left,←,0.6671585999429226,True,8,1,0,11
Y2-S2-283K20,6,540,PS,exp,43,↑,up,↑,0.5512881996110082,True,8,1,0,11
Y2-S2-283K20,6,541,PS,exp,47,→,right,→,0.46988039975985885,True,8,1,0,11
Y2-S2-283K20,6,542,PS,exp,49,←,right,→,0.712069199886173,False,7,-1,1,12
Y2-S2-283K20,6,543,PS,exp,39,→,right,→,0.4602896999567747,True,8,-1,0,12
Y2-S2-283K20,6,544,PS,exp,49,↓,down,↓,0.6122497003525496,True,8,-1,0,12
Y2-S2-283K20,6,545,PS,exp,34,↑,left,←,0.8406974002718925,False,8,-1,0,12
Y2-S2-283K20,6,546,PS,exp,48,←,left,←,0.5573851997032762,True,9,-1,0,12
Y2-S2-283K20,6,547,PS,exp,44,→,right,→,0.8270435002632439,True,9,-1,0,12
Y2-S2-283K20,6,548,PS,exp,38,↓,right,→,0.26705140015110373,False,9,-1,0,12
Y2-S2-283K20,6,549,PS,exp,28,↑,down,↓,0.7866373998112977,False,10,-1,0,12
Y2-S2-283K20,6,550,PS,exp,38,←,left,←,0.7139866999350488,True,11,-1,0,12
Y2-S2-283K20,6,551,PS,exp,49,↑,up,↑,0.5339973997324705,True,11,-1,0,12
Y2-S2-283K20,6,552,PS,exp,41,↓,up,↑,0.6332764998078346,False,11,-1,0,12
Y2-S2-283K20,6,553,PS,exp,33,→,right,→,0.4764888999052346,True,12,-1,0,12
Y2-S2-283K20,6,554,PS,exp,25,↓,down,↓,0.556443199981004,True,12,-1,0,12
Y2-S2-283K20,6,555,PS,exp,41,←,left,←,0.5667166002094746,True,12,1,1,13
Y2-S2-283K20,6,556,PS,exp,42,↑,up,↑,0.52319739991799,True,11,1,0,13
Y2-S2-283K20,6,557,PS,exp,38,←,left,←,0.5566283999942243,True,11,1,0,13
Y2-S2-283K20,6,558,PS,exp,32,↑,right,→,0.9717109999619424,False,11,-1,1,14
Y2-S2-283K20,6,559,PS,exp,30,←,left,←,0.5759622999466956,True,12,-1,0,14
Y2-S2-283K20,6,560,PS,exp,29,↑,up,↑,0.441043300088495,True,12,-1,0,14
Y2-S2-283K20,6,561,PS,exp,25,←,left,←,0.579626299906522,True,12,1,1,15
Y2-S2-283K20,6,562,PS,exp,46,→,left,←,1.2614943999797106,False,11,-1,1,16
Y2-S2-283K20,7,563,PS,intra_train,35,↑,up,↑,0.5767803001217544,True,18,-,-,-
Y2-S2-283K20,7,564,PS,intra_train,48,→,right,→,1.1733738998882473,True,18,-,-,-
Y2-S2-283K20,7,565,PS,intra_train,46,↓,down,↓,0.606252099853009,True,18,-,-,-
Y2-S2-283K20,7,566,PS,intra_train,26,→,right,→,0.5110733001492918,True,18,-,-,-
Y2-S2-283K20,7,567,PS,intra_train,30,↑,up,↑,0.9588045999407768,True,18,-,-,-
Y2-S2-283K20,7,568,PS,exp,43,→,right,→,0.49835339980199933,True,12,0,0,0
Y2-S2-283K20,7,569,PS,exp,50,↓,down,↓,0.782638099975884,True,12,0,0,0
Y2-S2-283K20,7,570,PS,exp,41,→,right,→,0.5357761001214385,True,12,1,0,0
Y2-S2-283K20,7,571,PS,exp,50,↑,up,↑,0.715760899707675,True,11,1,0,0
Y2-S2-283K20,7,572,PS,exp,26,↓,down,↓,1.341986000072211,True,11,1,0,0
Y2-S2-283K20,7,573,PS,exp,32,↑,up,↑,0.6742938999086618,True,11,1,0,0
Y2-S2-283K20,7,574,PS,exp,34,←,left,←,0.9474005000665784,True,10,1,0,0
Y2-S2-283K20,7,575,PS,exp,25,↓,down,↓,0.5548764001578093,True,10,1,0,0
Y2-S2-283K20,7,576,PS,exp,31,←,right,→,0.9459278001450002,False,10,-1,1,1
Y2-S2-283K20,7,577,PS,exp,45,↓,down,↓,0.5285426001064479,True,11,-1,0,1
Y2-S2-283K20,7,578,PS,exp,27,→,left,←,1.0069927000440657,False,11,-1,0,1
Y2-S2-283K20,7,579,PS,exp,49,↓,left,←,1.244877299759537,False,12,-1,0,1
Y2-S2-283K20,7,580,PS,exp,33,↑,up,↑,0.7452925001271069,True,13,-1,0,1
Y2-S2-283K20,7,581,PS,exp,29,→,right,→,0.4764539999887347,True,13,-1,0,1
Y2-S2-283K20,7,582,PS,exp,32,←,left,←,0.47621880006045103,True,13,1,1,2
Y2-S2-283K20,7,583,PS,exp,29,↑,up,↑,0.5159579003229737,True,12,1,0,2
Y2-S2-283K20,7,584,PS,exp,32,↓,down,↓,0.9757459000684321,True,12,1,0,2
Y2-S2-283K20,7,585,PS,exp,28,←,left,←,0.6540363002568483,True,12,1,0,2
Y2-S2-283K20,7,586,PS,exp,44,→,right,→,0.6938985995948315,True,11,1,0,2
Y2-S2-283K20,7,587,PS,exp,38,↑,up,↑,0.7376672998070717,True,11,1,0,2
Y2-S2-283K20,7,588,PS,exp,44,←,left,←,0.5776999997906387,True,11,1,0,2
Y2-S2-283K20,7,589,PS,exp,38,↑,right,→,0.7177679999731481,False,10,-1,1,3
Y2-S2-283K20,7,590,PS,exp,31,↓,left,←,0.7881092000752687,False,11,-1,0,3
Y2-S2-283K20,7,591,PS,exp,35,↑,up,↑,0.7821734002791345,True,12,-1,0,3
Y2-S2-283K20,7,592,PS,exp,36,→,right,→,0.5682381000369787,True,12,-1,0,3
Y2-S2-283K20,7,593,PS,exp,39,←,left,←,0.6613560002297163,True,12,1,1,4
Y2-S2-283K20,7,594,PS,exp,48,↓,down,↓,1.36262740008533,True,11,1,0,4
Y2-S2-283K20,7,595,PS,exp,45,↑,up,↑,1.2087707999162376,True,11,1,0,4
Y2-S2-283K20,7,596,PS,exp,42,↓,down,↓,0.5104701998643577,True,11,1,0,4
Y2-S2-283K20,7,597,PS,exp,30,←,right,→,0.900182300247252,False,10,-1,1,5
Y2-S2-283K20,7,598,PS,exp,29,↑,up,↑,0.7066188999451697,True,11,-1,0,5
Y2-S2-283K20,7,599,PS,exp,25,←,left,←,0.8608392998576164,True,11,-1,0,5
Y2-S2-283K20,7,600,PS,exp,41,↑,left,←,0.9471022002398968,False,11,-1,0,5
Y2-S2-283K20,7,601,PS,exp,41,←,left,←,0.4590846998617053,True,12,-1,0,5
Y2-S2-283K20,7,602,PS,exp,35,→,right,→,0.5963793001137674,True,12,-1,0,5
Y2-S2-283K20,7,603,PS,exp,45,↓,down,↓,0.5815439000725746,True,12,1,1,6
Y2-S2-283K20,7,604,PS,exp,32,→,right,→,0.7143208002671599,True,11,1,0,6
Y2-S2-283K20,7,605,PS,exp,42,↑,up,↑,0.5115503999404609,True,11,1,0,6
Y2-S2-283K20,7,606,PS,exp,43,→,right,→,0.4300385997630656,True,11,1,0,6
Y2-S2-283K20,7,607,PS,exp,48,←,left,←,0.39341509994119406,True,10,1,0,6
Y2-S2-283K20,7,608,PS,exp,40,↓,left,←,0.6419822997413576,False,10,-1,1,7
Y2-S2-283K20,7,609,PS,exp,45,←,left,←,0.5717230001464486,True,11,-1,0,7
Y2-S2-283K20,7,610,PS,exp,32,↓,down,↓,0.609668199904263,True,11,-1,0,7
Y2-S2-283K20,7,611,PS,exp,48,→,right,→,0.48376360023394227,True,11,1,1,8
Y2-S2-283K20,7,612,PS,exp,26,↓,left,←,1.1574343000538647,False,10,-1,1,9
Y2-S2-283K20,7,613,PS,exp,30,←,left,←,0.5915724001824856,True,11,-1,0,9
Y2-S2-283K20,7,614,PS,exp,32,→,right,→,0.6395950997248292,True,11,-1,0,9
Y2-S2-283K20,7,615,PS,exp,37,↑,up,↑,0.7648779000155628,True,11,1,1,10
Y2-S2-283K20,7,616,PS,exp,35,→,right,→,0.44694519974291325,True,10,1,0,10
Y2-S2-283K20,7,617,PS,exp,47,↑,down,↓,0.9968512998893857,False,10,-1,1,11
Y2-S2-283K20,7,618,PS,exp,36,↓,right,→,0.7609441000968218,False,11,-1,0,11
Y2-S2-283K20,7,619,PS,exp,37,↑,up,↑,0.5691900998353958,True,12,-1,0,11
Y2-S2-283K20,7,620,PS,exp,38,↓,down,↓,0.8186178999021649,True,12,-1,0,11
Y2-S2-283K20,7,621,PS,exp,33,→,right,→,0.5698445998132229,True,12,1,1,12
Y2-S2-283K20,7,622,PS,exp,28,↑,up,↑,0.5289174001663923,True,11,1,0,12
Y2-S2-283K20,7,623,PS,exp,48,↓,down,↓,0.6761940997093916,True,11,1,0,12
Y2-S2-283K20,7,624,PS,exp,49,↑,up,↑,0.5118705001659691,True,11,1,0,12
Y2-S2-283K20,7,625,PS,exp,39,→,right,→,0.5113380998373032,True,10,1,0,12
Y2-S2-283K20,7,626,PS,exp,40,↑,right,→,0.6906186998821795,False,10,-1,1,13
Y2-S2-283K20,7,627,PS,exp,48,↓,down,↓,0.5564993997104466,True,11,-1,0,13
Y2-S2-283K20,7,628,PS,exp,47,↑,up,↑,0.7469160999171436,True,11,-1,0,13
Y2-S2-283K20,7,629,PS,exp,35,←,left,←,1.0042325998656452,True,11,1,1,14
Y2-S2-283K20,7,630,PS,exp,28,→,left,←,1.2404029997996986,False,10,-1,1,15
Y2-S2-283K20,7,631,PS,exp,42,↓,down,↓,0.5647795000113547,True,11,-1,0,15
Y2-S2-283K20,7,632,PS,exp,36,↑,down,↓,0.9146945001557469,False,11,-1,0,15
Y2-S2-283K20,7,633,PS,exp,33,→,right,→,0.5968125001527369,True,12,-1,0,15
Y2-S2-283K20,7,634,PS,exp,32,←,left,←,0.5540260002017021,True,12,-1,0,15
Y2-S2-283K20,7,635,PS,exp,38,↑,up,↑,0.597433699760586,True,12,1,1,16
Y2-S2-283K20,8,636,AS,intra_train,49,←,left,←,0.7460791999474168,True,27,-,-,-
Y2-S2-283K20,8,637,AS,intra_train,45,↑,right,→,1.5349603998474777,False,27,-,-,-
Y2-S2-283K20,8,638,AS,intra_train,40,←,left,←,0.6887126001529396,True,27,-,-,-
Y2-S2-283K20,8,639,AS,intra_train,26,→,right,→,0.5172189003787935,True,27,-,-,-
Y2-S2-283K20,8,640,AS,intra_train,38,↑,up,↑,1.1175684998743236,True,27,-,-,-
Y2-S2-283K20,8,641,AS,exp,37,↓,up,↑,1.2682396001182497,False,18,-1,0,0
Y2-S2-283K20,8,642,AS,exp,40,←,left,←,0.5335989003069699,True,19,-1,0,0
Y2-S2-283K20,8,643,AS,exp,47,↓,down,↓,0.780588099732995,True,19,-1,0,0
Y2-S2-283K20,8,644,AS,exp,39,↑,up,↑,0.6380310002714396,True,19,1,1,1
Y2-S2-283K20,8,645,AS,exp,46,←,down,↓,0.9041206003166735,False,18,-1,1,2
Y2-S2-283K20,8,646,AS,exp,25,→,right,→,0.780020700301975,True,19,-1,0,2
Y2-S2-283K20,8,647,AS,exp,38,↓,down,↓,0.7590112001635134,True,19,-1,0,2
Y2-S2-283K20,8,648,AS,exp,40,→,right,→,0.5206108000129461,True,19,1,1,3
Y2-S2-283K20,8,649,AS,exp,38,↓,down,↓,0.5771194002591074,True,18,1,0,3
Y2-S2-283K20,8,650,AS,exp,37,→,right,→,0.4174214000813663,True,18,1,0,3
Y2-S2-283K20,8,651,AS,exp,50,↑,up,↑,0.5367168998345733,True,18,1,0,3
Y2-S2-283K20,8,652,AS,exp,35,→,left,←,0.8950479999184608,False,17,-1,1,4
Y2-S2-283K20,8,653,AS,exp,40,←,left,←,0.542073399759829,True,18,-1,0,4
Y2-S2-283K20,8,654,AS,exp,34,→,right,→,0.5512196002528071,True,18,-1,0,4
Y2-S2-283K20,8,655,AS,exp,45,↑,up,↑,0.5725920000113547,True,18,1,1,5
Y2-S2-283K20,8,656,AS,exp,36,↓,down,↓,0.9822965003550053,True,17,1,0,5
Y2-S2-283K20,8,657,AS,exp,42,→,right,→,0.48241369985044,True,17,1,0,5
Y2-S2-283K20,8,658,AS,exp,42,↓,down,↓,0.7642601998522878,True,17,1,0,5
Y2-S2-283K20,8,659,AS,exp,49,→,right,→,0.7696568998508155,True,16,1,0,5
Y2-S2-283K20,8,660,AS,exp,27,←,left,←,0.6295126001350582,True,16,1,0,5
Y2-S2-283K20,8,661,AS,exp,39,→,right,→,0.5145927001722157,True,16,1,0,5
Y2-S2-283K20,8,662,AS,exp,40,↓,down,↓,0.8276528003625572,True,15,1,0,5
Y2-S2-283K20,8,663,AS,exp,43,←,left,←,0.5285713998600841,True,15,1,0,5
Y2-S2-283K20,8,664,AS,exp,28,→,right,→,0.5749967000447214,True,15,1,0,5
Y2-S2-283K20,8,665,AS,exp,35,↑,down,↓,0.8303129998967052,False,14,-1,1,6
Y2-S2-283K20,8,666,AS,exp,42,→,right,→,0.5363444001413882,True,15,-1,0,6
Y2-S2-283K20,8,667,AS,exp,33,↓,down,↓,0.7247935002669692,True,15,-1,0,6
Y2-S2-283K20,8,668,AS,exp,42,→,left,←,0.9702721000649035,False,15,-1,0,6
Y2-S2-283K20,8,669,AS,exp,49,↑,up,↑,1.470204200129956,True,16,-1,0,6
Y2-S2-283K20,8,670,AS,exp,47,→,left,←,0.9858243996277452,False,16,-1,0,6
Y2-S2-283K20,8,671,AS,exp,25,↑,down,↓,0.8595775002613664,False,17,-1,0,6
Y2-S2-283K20,8,672,AS,exp,31,→,right,→,0.6815956998616457,True,18,-1,0,6
Y2-S2-283K20,8,673,AS,exp,28,←,left,←,0.9309936999343336,True,18,-1,0,6
Y2-S2-283K20,8,674,AS,exp,48,↓,down,↓,0.7083564000204206,True,18,1,1,7
Y2-S2-283K20,8,675,AS,exp,39,↑,up,↑,0.6107184002175927,True,17,1,0,7
Y2-S2-283K20,8,676,AS,exp,46,←,right,→,0.47822130005806684,False,17,-1,1,8
Y2-S2-283K20,8,677,AS,exp,25,↑,up,↑,0.6596992998383939,True,18,-1,0,8
Y2-S2-283K20,8,678,AS,exp,37,→,right,→,0.6704659997485578,True,18,-1,0,8
Y2-S2-283K20,8,679,AS,exp,44,↓,down,↓,0.7055850001052022,True,18,1,1,9
Y2-S2-283K20,8,680,AS,exp,30,↑,up,↑,1.0639047999866307,True,17,1,0,9
Y2-S2-283K20,8,681,AS,exp,43,↓,down,↓,0.8148213000968099,True,17,1,0,9
Y2-S2-283K20,8,682,AS,exp,45,↑,up,↑,0.8861297997646034,True,17,1,0,9
Y2-S2-283K20,8,683,AS,exp,33,←,left,←,0.8267204002477229,True,16,1,0,9
Y2-S2-283K20,8,684,AS,exp,31,↓,down,↓,0.8475426998920739,True,16,1,0,9
Y2-S2-283K20,8,685,AS,exp,45,→,right,→,0.5106187998317182,True,16,1,0,9
Y2-S2-283K20,8,686,AS,exp,43,↑,up,↑,0.9959142003208399,True,15,1,0,9
Y2-S2-283K20,8,687,AS,exp,44,→,left,←,0.6186911002732813,False,15,-1,1,10
Y2-S2-283K20,8,688,AS,exp,42,↓,up,↑,0.6958351000212133,False,16,-1,0,10
Y2-S2-283K20,8,689,AS,exp,45,→,right,→,0.7732982002198696,True,17,-1,0,10
Y2-S2-283K20,8,690,AS,exp,37,↑,up,↑,0.49483449989929795,True,17,-1,0,10
Y2-S2-283K20,8,691,AS,exp,40,←,left,←,0.49735339963808656,True,17,1,1,11
Y2-S2-283K20,8,692,AS,exp,31,↑,left,←,1.0320098996162415,False,16,-1,1,12
Y2-S2-283K20,8,693,AS,exp,47,→,right,→,0.45916489977389574,True,17,-1,0,12
Y2-S2-283K20,8,694,AS,exp,46,↓,up,↑,0.7700681001879275,False,17,-1,0,12
Y2-S2-283K20,8,695,AS,exp,27,→,right,→,0.6395486001856625,True,18,-1,0,12
Y2-S2-283K20,8,696,AS,exp,50,←,left,←,0.601823499891907,True,18,-1,0,12
Y2-S2-283K20,8,697,AS,exp,45,→,right,→,0.4763402999378741,True,18,1,1,13
Y2-S2-283K20,8,698,AS,exp,30,←,left,←,0.40076790004968643,True,17,1,0,13
Y2-S2-283K20,8,699,AS,exp,42,↑,left,←,0.7700179000385106,False,17,-1,1,14
Y2-S2-283K20,8,700,AS,exp,40,↓,down,↓,0.7403625999577343,True,18,-1,0,14
Y2-S2-283K20,8,701,AS,exp,34,←,left,←,0.47586639970541,True,18,-1,0,14
Y2-S2-283K20,8,702,AS,exp,40,↑,up,↑,0.696607599966228,True,18,1,1,15
Y2-S2-283K20,8,703,AS,exp,34,↓,down,↓,0.577369499951601,True,17,1,0,15
Y2-S2-283K20,8,704,AS,exp,35,→,right,→,0.5930991997011006,True,17,1,0,15
Y2-S2-283K20,8,705,AS,exp,29,↑,up,↑,0.7778537999838591,True,17,1,0,15
Y2-S2-283K20,8,706,AS,exp,44,→,down,↓,0.8457106999121606,False,16,-1,1,16
