PART_ID,Block_no,Trial_no,Block_type,Trial_type,CSI,Stim_letter,Key_pressed,letter_choose,Rt,Corr,Stimulus Time,Level,Reversal,Revs_count
Y2-S2-047M32,1,1,PS,train,26,↑,up,↑,0.7095041000284255,True,30,-,-,-
Y2-S2-047M32,1,2,PS,train,34,←,left,←,0.7304277999792248,True,30,-,-,-
Y2-S2-047M32,1,3,PS,train,43,→,right,→,0.9063576001208276,True,30,-,-,-
Y2-S2-047M32,1,4,PS,train,50,←,left,←,0.8658066999632865,True,30,-,-,-
Y2-S2-047M32,1,5,PS,train,26,→,right,→,0.6865127000492066,True,30,-,-,-
Y2-S2-047M32,1,6,PS,train,45,←,left,←,0.7131831001024693,True,30,-,-,-
Y2-S2-047M32,1,7,PS,train,28,↓,down,↓,0.9218829001765698,True,30,-,-,-
Y2-S2-047M32,1,8,PS,train,26,↑,up,↑,0.826133499853313,True,30,-,-,-
Y2-S2-047M32,1,9,PS,train,49,↓,down,↓,0.7489205000456423,True,30,-,-,-
Y2-S2-047M32,1,10,PS,train,42,←,left,←,0.854566799942404,True,30,-,-,-
Y2-S2-047M32,2,11,AS,train,44,↑,up,↑,0.8337027998641133,True,45,-,-,-
Y2-S2-047M32,2,12,AS,train,36,↓,down,↓,0.7672965000383556,True,45,-,-,-
Y2-S2-047M32,2,13,AS,train,47,←,left,←,0.8007797999307513,True,45,-,-,-
Y2-S2-047M32,2,14,AS,train,26,↓,down,↓,0.8167330001015216,True,45,-,-,-
Y2-S2-047M32,2,15,AS,train,47,→,right,→,0.6677896999754012,True,45,-,-,-
Y2-S2-047M32,2,16,AS,train,41,←,left,←,0.6178058001678437,True,45,-,-,-
Y2-S2-047M32,2,17,AS,train,30,→,right,→,0.7340276001486927,True,45,-,-,-
Y2-S2-047M32,2,18,AS,train,46,←,left,←,0.6679547000676394,True,45,-,-,-
Y2-S2-047M32,2,19,AS,train,39,↓,down,↓,1.0982882999815047,True,45,-,-,-
Y2-S2-047M32,2,20,AS,train,28,→,right,→,0.6844482000451535,True,45,-,-,-
Y2-S2-047M32,-,21,PS,adaptive,25,↑,up,↑,0.7547884001396596,True,10,0,0,0
Y2-S2-047M32,-,22,PS,adaptive,43,←,right,→,1.0417553998995572,False,10,-1,0,0
Y2-S2-047M32,-,23,PS,adaptive,30,↑,down,↓,0.758577800123021,False,11,-1,0,0
Y2-S2-047M32,-,24,PS,adaptive,31,→,right,→,0.5369804000947624,True,12,-1,0,0
Y2-S2-047M32,-,25,PS,adaptive,25,↓,right,→,0.8359434001613408,False,12,-1,0,0
Y2-S2-047M32,-,26,PS,adaptive,29,→,down,↓,0.8063527001067996,False,13,-1,0,0
Y2-S2-047M32,-,27,PS,adaptive,46,↑,up,↑,0.6363506999332458,True,14,-1,0,0
Y2-S2-047M32,-,28,PS,adaptive,32,→,right,→,0.5607951998244971,True,14,-1,0,0
Y2-S2-047M32,-,29,PS,adaptive,29,←,left,←,0.5824125001672655,True,14,1,1,1
Y2-S2-047M32,-,30,PS,adaptive,47,↑,up,↑,0.6038208000827581,True,13,1,0,1
Y2-S2-047M32,-,31,PS,adaptive,28,←,right,→,0.6584060001187027,False,13,-1,1,2
Y2-S2-047M32,-,32,PS,adaptive,43,↑,up,↑,0.5882972001563758,True,14,-1,0,2
Y2-S2-047M32,-,33,PS,adaptive,48,→,right,→,0.6118304000701755,True,14,-1,0,2
Y2-S2-047M32,-,34,PS,adaptive,44,←,left,←,0.5506474000867456,True,14,1,1,3
Y2-S2-047M32,-,35,PS,adaptive,38,↑,up,↑,0.6192377998959273,True,13,1,0,3
Y2-S2-047M32,-,36,PS,adaptive,44,↓,down,↓,0.663933799834922,True,13,1,0,3
Y2-S2-047M32,-,37,PS,adaptive,25,→,right,→,0.5817181000020355,True,13,1,0,3
Y2-S2-047M32,-,38,PS,adaptive,31,↑,up,↑,0.6697544001508504,True,12,1,0,3
Y2-S2-047M32,-,39,PS,adaptive,31,→,right,→,0.5751557999756187,True,12,1,0,3
Y2-S2-047M32,-,40,PS,adaptive,41,←,left,←,0.5353584000840783,True,12,1,0,3
Y2-S2-047M32,-,41,PS,adaptive,50,→,right,→,0.6131017000880092,True,11,1,0,3
Y2-S2-047M32,-,42,PS,adaptive,25,↑,right,→,0.8210488001350313,False,11,-1,1,4
Y2-S2-047M32,-,43,AS,adaptive,25,→,right,→,0.551314199808985,True,20,0,0,0
Y2-S2-047M32,-,44,AS,adaptive,25,↑,up,↑,0.6180336999241263,True,20,0,0,0
Y2-S2-047M32,-,45,AS,adaptive,26,↓,down,↓,0.866508899955079,True,20,1,0,0
Y2-S2-047M32,-,46,AS,adaptive,47,←,left,←,0.6054972999263555,True,19,1,0,0
Y2-S2-047M32,-,47,AS,adaptive,39,↓,down,↓,0.6535128999967128,True,19,1,0,0
Y2-S2-047M32,-,48,AS,adaptive,32,↑,up,↑,0.5677829999476671,True,19,1,0,0
Y2-S2-047M32,-,49,AS,adaptive,26,↓,down,↓,0.6599088001530617,True,18,1,0,0
Y2-S2-047M32,-,50,AS,adaptive,44,→,right,→,0.6832821001298726,True,18,1,0,0
Y2-S2-047M32,-,51,AS,adaptive,29,↓,down,↓,0.6739213999826461,True,18,1,0,0
Y2-S2-047M32,-,52,AS,adaptive,35,←,left,←,0.6486359001137316,True,17,1,0,0
Y2-S2-047M32,-,53,AS,adaptive,28,↑,up,↑,0.7009533999953419,True,17,1,0,0
Y2-S2-047M32,-,54,AS,adaptive,32,↓,down,↓,0.591323799919337,True,17,1,0,0
Y2-S2-047M32,-,55,AS,adaptive,36,→,right,→,0.6715555000118911,True,16,1,0,0
Y2-S2-047M32,-,56,AS,adaptive,38,↑,up,↑,0.6007062999997288,True,16,1,0,0
Y2-S2-047M32,-,57,AS,adaptive,46,↓,down,↓,0.662482500076294,True,16,1,0,0
Y2-S2-047M32,-,58,AS,adaptive,25,→,left,←,0.9206278000492603,False,15,-1,1,1
Y2-S2-047M32,-,59,AS,adaptive,29,↑,up,↑,0.6627193000167608,True,16,-1,0,1
Y2-S2-047M32,-,60,AS,adaptive,36,→,right,→,0.6176112000830472,True,16,-1,0,1
Y2-S2-047M32,-,61,AS,adaptive,26,↓,down,↓,0.7056919999886304,True,16,1,1,2
Y2-S2-047M32,-,62,AS,adaptive,25,←,left,←,0.6023110998794436,True,15,1,0,2
Y2-S2-047M32,-,63,AS,adaptive,45,↑,up,↑,0.5051003000698984,True,15,1,0,2
Y2-S2-047M32,-,64,AS,adaptive,35,←,left,←,0.4869370001833886,True,15,1,0,2
Y2-S2-047M32,-,65,AS,adaptive,28,↑,up,↑,0.051164699951186776,True,14,1,0,2
Y2-S2-047M32,-,66,AS,adaptive,43,↓,down,↓,0.6196598999667913,True,14,1,0,2
Y2-S2-047M32,-,67,AS,adaptive,37,→,left,←,1.4822331999894232,False,14,-1,1,3
Y2-S2-047M32,-,68,AS,adaptive,26,↑,up,↑,0.6195883001200855,True,15,-1,0,3
Y2-S2-047M32,-,69,AS,adaptive,29,↓,down,↓,0.6316576001700014,True,15,-1,0,3
Y2-S2-047M32,-,70,AS,adaptive,43,→,right,→,0.5456793000921607,True,15,1,1,4
Y2-S2-047M32,1,71,PS,intra_train,46,↓,down,↓,0.7857598999980837,True,18,-,-,-
Y2-S2-047M32,1,72,PS,intra_train,25,→,right,→,0.5428313000593334,True,18,-,-,-
Y2-S2-047M32,1,73,PS,intra_train,33,←,left,←,0.6226031999103725,True,18,-,-,-
Y2-S2-047M32,1,74,PS,intra_train,32,↓,down,↓,0.6787221999838948,True,18,-,-,-
Y2-S2-047M32,1,75,PS,intra_train,28,→,right,→,0.5249423999339342,True,18,-,-,-
Y2-S2-047M32,1,76,PS,exp,48,←,left,←,0.5414267999585718,True,12,0,0,0
Y2-S2-047M32,1,77,PS,exp,43,↑,up,↑,0.8529795999638736,True,12,0,0,0
Y2-S2-047M32,1,78,PS,exp,44,↓,down,↓,0.6185248999390751,True,12,1,0,0
Y2-S2-047M32,1,79,PS,exp,25,↑,down,↓,0.8001727000810206,False,11,-1,1,1
Y2-S2-047M32,1,80,PS,exp,44,←,left,←,0.6696895000059158,True,12,-1,0,1
Y2-S2-047M32,1,81,PS,exp,41,→,left,←,0.634369800100103,False,12,-1,0,1
Y2-S2-047M32,1,82,PS,exp,33,↓,down,↓,0.6802656999789178,True,13,-1,0,1
Y2-S2-047M32,1,83,PS,exp,33,←,left,←,0.5210751001723111,True,13,-1,0,1
Y2-S2-047M32,1,84,PS,exp,42,↓,down,↓,0.6766131001058966,True,13,1,1,2
Y2-S2-047M32,1,85,PS,exp,41,→,right,→,0.5459457000251859,True,12,1,0,2
Y2-S2-047M32,1,86,PS,exp,40,←,left,←,0.6054805999156088,True,12,1,0,2
Y2-S2-047M32,1,87,PS,exp,30,↑,up,↑,0.5887531999032944,True,12,1,0,2
Y2-S2-047M32,1,88,PS,exp,28,←,left,←,0.9383237999863923,True,11,1,0,2
Y2-S2-047M32,1,89,PS,exp,27,↓,down,↓,0.6202788001392037,True,11,1,0,2
Y2-S2-047M32,1,90,PS,exp,44,←,left,←,0.551298099802807,True,11,1,0,2
Y2-S2-047M32,1,91,PS,exp,39,↑,up,↑,0.626396199921146,True,10,1,0,2
Y2-S2-047M32,1,92,PS,exp,28,↓,down,↓,0.5677807999309152,True,10,1,0,2
Y2-S2-047M32,1,93,PS,exp,44,→,right,→,0.5130253999959677,True,10,1,0,2
Y2-S2-047M32,1,94,PS,exp,48,↓,down,↓,0.5992537001147866,True,9,1,0,2
Y2-S2-047M32,1,95,PS,exp,33,↑,up,↑,0.5049857001286,True,9,1,0,2
Y2-S2-047M32,1,96,PS,exp,30,↓,down,↓,0.6298110999632627,True,9,1,0,2
Y2-S2-047M32,1,97,PS,exp,33,←,left,←,0.5544634000398219,True,8,1,0,2
Y2-S2-047M32,1,98,PS,exp,49,→,right,→,0.5792855001054704,True,8,1,0,2
Y2-S2-047M32,1,99,PS,exp,47,↑,up,↑,0.5168494000099599,True,8,1,0,2
Y2-S2-047M32,1,100,PS,exp,49,↓,down,↓,0.5650756000541151,True,7,1,0,2
Y2-S2-047M32,1,101,PS,exp,42,→,right,→,0.7152925000991672,True,7,1,0,2
Y2-S2-047M32,1,102,PS,exp,41,←,left,←,0.5510231999214739,True,7,1,0,2
Y2-S2-047M32,1,103,PS,exp,41,→,right,→,0.5199591000564396,True,6,1,0,2
Y2-S2-047M32,1,104,PS,exp,46,↓,right,→,0.6677947000134736,False,6,-1,1,3
Y2-S2-047M32,1,105,PS,exp,38,→,right,→,0.5304746001493186,True,7,-1,0,3
Y2-S2-047M32,1,106,PS,exp,41,↑,up,↑,0.5397944001015276,True,7,-1,0,3
Y2-S2-047M32,1,107,PS,exp,30,←,left,←,0.573035900015384,True,7,1,1,4
Y2-S2-047M32,1,108,PS,exp,48,↓,down,↓,0.6212257000152022,True,6,1,0,4
Y2-S2-047M32,1,109,PS,exp,44,→,up,↑,0.7707034000195563,False,6,-1,1,5
Y2-S2-047M32,1,110,PS,exp,46,↓,down,↓,0.5894657999742776,True,7,-1,0,5
Y2-S2-047M32,1,111,PS,exp,25,↑,up,↑,0.7603613000828773,True,7,-1,0,5
Y2-S2-047M32,1,112,PS,exp,48,→,right,→,0.5222425998654217,True,7,1,1,6
Y2-S2-047M32,1,113,PS,exp,39,↓,down,↓,0.7270191998686641,True,6,1,0,6
Y2-S2-047M32,1,114,PS,exp,41,↑,up,↑,0.5793073000386357,True,6,1,0,6
Y2-S2-047M32,1,115,PS,exp,25,←,left,←,0.5901204999536276,True,6,1,0,6
Y2-S2-047M32,1,116,PS,exp,42,↑,up,↑,0.5683275000192225,True,5,1,0,6
Y2-S2-047M32,1,117,PS,exp,29,→,right,→,0.5796230998821557,True,5,1,0,6
Y2-S2-047M32,1,118,PS,exp,35,↓,right,→,0.8489335000049323,False,5,-1,1,7
Y2-S2-047M32,1,119,PS,exp,27,↑,up,↑,0.6363685000687838,True,6,-1,0,7
Y2-S2-047M32,1,120,PS,exp,35,→,right,→,0.5638867001980543,True,6,-1,0,7
Y2-S2-047M32,1,121,PS,exp,33,←,left,←,0.5960941999219358,True,6,1,1,8
Y2-S2-047M32,1,122,PS,exp,44,↓,up,↑,0.5575993000529706,False,5,-1,1,9
Y2-S2-047M32,1,123,PS,exp,48,→,right,→,0.5596839999780059,True,6,-1,0,9
Y2-S2-047M32,1,124,PS,exp,39,←,up,↑,0.8155001001432538,False,6,-1,0,9
Y2-S2-047M32,1,125,PS,exp,44,→,right,→,0.5035037999041378,True,7,-1,0,9
Y2-S2-047M32,1,126,PS,exp,35,↓,down,↓,0.716083699837327,True,7,-1,0,9
Y2-S2-047M32,1,127,PS,exp,31,←,left,←,0.5812333000358194,True,7,1,1,10
Y2-S2-047M32,1,128,PS,exp,49,→,right,→,0.553974499925971,True,6,1,0,10
Y2-S2-047M32,1,129,PS,exp,45,↑,up,↑,0.6393783001694828,True,6,1,0,10
Y2-S2-047M32,1,130,PS,exp,28,←,right,→,0.5080157001502812,False,6,-1,1,11
Y2-S2-047M32,1,131,PS,exp,26,↓,up,↑,0.6672183000482619,False,7,-1,0,11
Y2-S2-047M32,1,132,PS,exp,27,←,left,←,0.544004499912262,True,8,-1,0,11
Y2-S2-047M32,1,133,PS,exp,25,↑,up,↑,0.5352674999739975,True,8,-1,0,11
Y2-S2-047M32,1,134,PS,exp,49,→,right,→,0.5126964000519365,True,8,1,1,12
Y2-S2-047M32,1,135,PS,exp,45,←,left,←,0.6093225998338312,True,7,1,0,12
Y2-S2-047M32,1,136,PS,exp,29,↑,left,←,0.6250760999973863,False,7,-1,1,13
Y2-S2-047M32,1,137,PS,exp,28,→,right,→,0.5474217000883073,True,8,-1,0,13
Y2-S2-047M32,1,138,PS,exp,30,↑,up,↑,0.5312214000150561,True,8,-1,0,13
Y2-S2-047M32,1,139,PS,exp,31,←,left,←,0.4893241000827402,True,8,1,1,14
Y2-S2-047M32,1,140,PS,exp,29,↑,right,→,0.4208963999990374,False,7,-1,1,15
Y2-S2-047M32,1,141,PS,exp,34,→,right,→,0.528884100029245,True,8,-1,0,15
Y2-S2-047M32,1,142,PS,exp,44,↑,up,↑,0.5976009001024067,True,8,-1,0,15
Y2-S2-047M32,1,143,PS,exp,37,↓,down,↓,0.6590253999456763,True,8,1,1,16
Y2-S2-047M32,2,144,AS,intra_train,32,→,right,→,0.5586678001563996,True,21,-,-,-
Y2-S2-047M32,2,145,AS,intra_train,35,←,left,←,0.591651099966839,True,21,-,-,-
Y2-S2-047M32,2,146,AS,intra_train,34,→,right,→,0.6453799000009894,True,21,-,-,-
Y2-S2-047M32,2,147,AS,intra_train,31,←,left,←,0.6604234999977052,True,21,-,-,-
Y2-S2-047M32,2,148,AS,intra_train,39,→,no_key,no_letter,-1.0,False,21,-,-,-
Y2-S2-047M32,2,149,AS,exp,37,←,left,←,0.6207236000336707,True,14,0,0,0
Y2-S2-047M32,2,150,AS,exp,37,→,right,→,0.683356799883768,True,14,0,0,0
Y2-S2-047M32,2,151,AS,exp,32,↑,up,↑,0.798561500152573,True,14,1,0,0
Y2-S2-047M32,2,152,AS,exp,46,←,left,←,0.6651703999377787,True,13,1,0,0
Y2-S2-047M32,2,153,AS,exp,29,↓,down,↓,0.7196154000703245,True,13,1,0,0
Y2-S2-047M32,2,154,AS,exp,42,↑,up,↑,0.5871678998228163,True,13,1,0,0
Y2-S2-047M32,2,155,AS,exp,45,←,left,←,0.6325573998037726,True,12,1,0,0
Y2-S2-047M32,2,156,AS,exp,40,↓,right,→,0.9059886001050472,False,12,-1,1,1
Y2-S2-047M32,2,157,AS,exp,41,↑,up,↑,0.943284299923107,True,13,-1,0,1
Y2-S2-047M32,2,158,AS,exp,42,←,left,←,0.903607799904421,True,13,-1,0,1
Y2-S2-047M32,2,159,AS,exp,48,↑,up,↑,0.6600144000258297,True,13,1,1,2
Y2-S2-047M32,2,160,AS,exp,31,↓,up,↑,0.5962545999791473,False,12,-1,1,3
Y2-S2-047M32,2,161,AS,exp,46,←,left,←,0.600952599896118,True,13,-1,0,3
Y2-S2-047M32,2,162,AS,exp,31,↑,up,↑,0.6685002001468092,True,13,-1,0,3
Y2-S2-047M32,2,163,AS,exp,28,↓,down,↓,0.6950737999286503,True,13,1,1,4
Y2-S2-047M32,2,164,AS,exp,46,←,left,←,0.7892273999750614,True,12,1,0,4
Y2-S2-047M32,2,165,AS,exp,37,→,right,→,0.5208320999518037,True,12,1,0,4
Y2-S2-047M32,2,166,AS,exp,48,↓,down,↓,0.6791621001902968,True,12,1,0,4
Y2-S2-047M32,2,167,AS,exp,29,←,left,←,0.5601518000476062,True,11,1,0,4
Y2-S2-047M32,2,168,AS,exp,27,↑,right,→,0.7571823000907898,False,11,-1,1,5
Y2-S2-047M32,2,169,AS,exp,25,↓,right,→,0.8575806000735611,False,12,-1,0,5
Y2-S2-047M32,2,170,AS,exp,29,←,left,←,0.55352389998734,True,13,-1,0,5
Y2-S2-047M32,2,171,AS,exp,48,↑,up,↑,0.6215661999303848,True,13,-1,0,5
Y2-S2-047M32,2,172,AS,exp,47,↓,down,↓,0.6308836999814957,True,13,1,1,6
Y2-S2-047M32,2,173,AS,exp,35,→,right,→,0.5869550998322666,True,12,1,0,6
Y2-S2-047M32,2,174,AS,exp,27,↓,down,↓,0.6179095001425594,True,12,1,0,6
Y2-S2-047M32,2,175,AS,exp,42,←,right,→,0.8285337998531759,False,12,-1,1,7
Y2-S2-047M32,2,176,AS,exp,41,→,right,→,0.5775953000411391,True,13,-1,0,7
Y2-S2-047M32,2,177,AS,exp,49,←,left,←,0.6513517000712454,True,13,-1,0,7
Y2-S2-047M32,2,178,AS,exp,37,↓,down,↓,0.8496984001249075,True,13,1,1,8
Y2-S2-047M32,2,179,AS,exp,41,→,right,→,0.7877829000353813,True,12,1,0,8
Y2-S2-047M32,2,180,AS,exp,27,↓,down,↓,0.6098292001988739,True,12,1,0,8
Y2-S2-047M32,2,181,AS,exp,43,↑,up,↑,0.563427499961108,True,12,1,0,8
Y2-S2-047M32,2,182,AS,exp,44,→,right,→,0.6472610000055283,True,11,1,0,8
Y2-S2-047M32,2,183,AS,exp,25,↓,down,↓,0.6732281998265535,True,11,1,0,8
Y2-S2-047M32,2,184,AS,exp,43,↑,up,↑,0.628965700045228,True,11,1,0,8
Y2-S2-047M32,2,185,AS,exp,29,↓,up,↑,0.7631224999204278,False,10,-1,1,9
Y2-S2-047M32,2,186,AS,exp,32,←,left,←,0.6097671999596059,True,11,-1,0,9
Y2-S2-047M32,2,187,AS,exp,44,↓,up,↑,0.6929804000537843,False,11,-1,0,9
Y2-S2-047M32,2,188,AS,exp,42,↑,up,↑,0.6923696000594646,True,12,-1,0,9
Y2-S2-047M32,2,189,AS,exp,37,↓,up,↑,0.604954699985683,False,12,-1,0,9
Y2-S2-047M32,2,190,AS,exp,39,←,left,←,0.5563734001480043,True,13,-1,0,9
Y2-S2-047M32,2,191,AS,exp,46,↑,up,↑,0.5564598999917507,True,13,-1,0,9
Y2-S2-047M32,2,192,AS,exp,47,→,right,→,0.7883343000430614,True,13,1,1,10
Y2-S2-047M32,2,193,AS,exp,28,↑,up,↑,0.5382364999968559,True,12,1,0,10
Y2-S2-047M32,2,194,AS,exp,36,←,right,→,0.6099266998935491,False,12,-1,1,11
Y2-S2-047M32,2,195,AS,exp,36,→,right,→,0.6290482000913471,True,13,-1,0,11
Y2-S2-047M32,2,196,AS,exp,31,↓,down,↓,0.7501142001710832,True,13,-1,0,11
Y2-S2-047M32,2,197,AS,exp,50,↑,up,↑,0.6062437000218779,True,13,1,1,12
Y2-S2-047M32,2,198,AS,exp,27,↓,down,↓,0.660944800125435,True,12,1,0,12
Y2-S2-047M32,2,199,AS,exp,41,→,right,→,0.5107382000423968,True,12,1,0,12
Y2-S2-047M32,2,200,AS,exp,26,←,left,←,0.8115558000281453,True,12,1,0,12
Y2-S2-047M32,2,201,AS,exp,37,↓,down,↓,0.609383299946785,True,11,1,0,12
Y2-S2-047M32,2,202,AS,exp,32,→,left,←,0.7121157001238316,False,11,-1,1,13
Y2-S2-047M32,2,203,AS,exp,34,↓,down,↓,0.5818303001578897,True,12,-1,0,13
Y2-S2-047M32,2,204,AS,exp,35,↑,up,↑,0.4818356998730451,True,12,-1,0,13
Y2-S2-047M32,2,205,AS,exp,38,→,right,→,0.48197720013558865,True,12,1,1,14
Y2-S2-047M32,2,206,AS,exp,41,↑,up,↑,0.6779696999583393,True,11,1,0,14
Y2-S2-047M32,2,207,AS,exp,33,↓,up,↑,0.580139699857682,False,11,-1,1,15
Y2-S2-047M32,2,208,AS,exp,39,↑,up,↑,0.7079545999877155,True,12,-1,0,15
Y2-S2-047M32,2,209,AS,exp,25,→,right,→,0.4756650000344962,True,12,-1,0,15
Y2-S2-047M32,2,210,AS,exp,26,↑,up,↑,0.5469206999987364,True,12,1,1,16
Y2-S2-047M32,3,211,AS,intra_train,38,←,left,←,0.5824146999511868,True,21,-,-,-
Y2-S2-047M32,3,212,AS,intra_train,36,↓,down,↓,0.7111378000117838,True,21,-,-,-
Y2-S2-047M32,3,213,AS,intra_train,45,→,right,→,0.568132699932903,True,21,-,-,-
Y2-S2-047M32,3,214,AS,intra_train,37,↑,up,↑,0.6381020999979228,True,21,-,-,-
Y2-S2-047M32,3,215,AS,intra_train,33,←,left,←,0.6457102000713348,True,21,-,-,-
Y2-S2-047M32,3,216,AS,exp,26,↑,up,↑,0.6583020000252873,True,14,0,0,0
Y2-S2-047M32,3,217,AS,exp,48,→,right,→,0.6064915999304503,True,14,0,0,0
Y2-S2-047M32,3,218,AS,exp,39,←,left,←,0.6109931999817491,True,14,1,0,0
Y2-S2-047M32,3,219,AS,exp,25,→,right,→,0.676842899993062,True,13,1,0,0
Y2-S2-047M32,3,220,AS,exp,34,←,left,←,0.6608732000458986,True,13,1,0,0
Y2-S2-047M32,3,221,AS,exp,31,↑,up,↑,0.5579553998541087,True,13,1,0,0
Y2-S2-047M32,3,222,AS,exp,40,←,left,←,0.6333575998432934,True,12,1,0,0
Y2-S2-047M32,3,223,AS,exp,43,↑,up,↑,0.5534213001374155,True,12,1,0,0
Y2-S2-047M32,3,224,AS,exp,36,→,right,→,0.5173317000735551,True,12,1,0,0
Y2-S2-047M32,3,225,AS,exp,25,↑,up,↑,0.56487419991754,True,11,1,0,0
Y2-S2-047M32,3,226,AS,exp,28,←,left,←,0.7453740001656115,True,11,1,0,0
Y2-S2-047M32,3,227,AS,exp,45,↑,up,↑,0.6044844998978078,True,11,1,0,0
Y2-S2-047M32,3,228,AS,exp,26,↓,up,↑,0.5363578000105917,False,10,-1,1,1
Y2-S2-047M32,3,229,AS,exp,41,←,right,→,0.9815617001149803,False,11,-1,0,1
Y2-S2-047M32,3,230,AS,exp,30,↓,down,↓,0.7534896000288427,True,12,-1,0,1
Y2-S2-047M32,3,231,AS,exp,29,→,right,→,0.590917999856174,True,12,-1,0,1
Y2-S2-047M32,3,232,AS,exp,25,←,left,←,0.589208000106737,True,12,1,1,2
Y2-S2-047M32,3,233,AS,exp,45,→,right,→,0.8025946000125259,True,11,1,0,2
Y2-S2-047M32,3,234,AS,exp,37,↑,up,↑,0.6365919001400471,True,11,1,0,2
Y2-S2-047M32,3,235,AS,exp,31,→,right,→,0.6669888000469655,True,11,1,0,2
Y2-S2-047M32,3,236,AS,exp,43,←,left,←,0.544232300017029,True,10,1,0,2
Y2-S2-047M32,3,237,AS,exp,38,↑,up,↑,0.6491652999538928,True,10,1,0,2
Y2-S2-047M32,3,238,AS,exp,41,→,right,→,0.7908594999462366,True,10,1,0,2
Y2-S2-047M32,3,239,AS,exp,28,↓,down,↓,0.6451395000331104,True,9,1,0,2
Y2-S2-047M32,3,240,AS,exp,43,→,right,→,0.5415093000046909,True,9,1,0,2
Y2-S2-047M32,3,241,AS,exp,35,←,right,→,0.5615391999017447,False,9,-1,1,3
Y2-S2-047M32,3,242,AS,exp,47,↑,left,←,0.8407423000317067,False,10,-1,0,3
Y2-S2-047M32,3,243,AS,exp,26,→,right,→,0.6220853999257088,True,11,-1,0,3
Y2-S2-047M32,3,244,AS,exp,45,↓,up,↑,0.7381341999862343,False,11,-1,0,3
Y2-S2-047M32,3,245,AS,exp,29,→,right,→,0.6066958999726921,True,12,-1,0,3
Y2-S2-047M32,3,246,AS,exp,36,←,left,←,0.5563578999135643,True,12,-1,0,3
Y2-S2-047M32,3,247,AS,exp,47,→,right,→,0.5978172000031918,True,12,1,1,4
Y2-S2-047M32,3,248,AS,exp,38,↓,down,↓,0.6575579999480397,True,11,1,0,4
Y2-S2-047M32,3,249,AS,exp,32,→,right,→,0.6085125000681728,True,11,1,0,4
Y2-S2-047M32,3,250,AS,exp,27,↑,up,↑,0.6567500999663025,True,11,1,0,4
Y2-S2-047M32,3,251,AS,exp,26,↓,down,↓,0.700798099860549,True,10,1,0,4
Y2-S2-047M32,3,252,AS,exp,29,→,right,→,0.6185363999102265,True,10,1,0,4
Y2-S2-047M32,3,253,AS,exp,39,←,right,→,0.5350468999240547,False,10,-1,1,5
Y2-S2-047M32,3,254,AS,exp,47,→,right,→,0.5856602999847382,True,11,-1,0,5
Y2-S2-047M32,3,255,AS,exp,36,↓,down,↓,0.6856363001279533,True,11,-1,0,5
Y2-S2-047M32,3,256,AS,exp,36,↑,up,↑,0.6153720000293106,True,11,1,1,6
Y2-S2-047M32,3,257,AS,exp,45,←,left,←,0.5473327001091093,True,10,1,0,6
Y2-S2-047M32,3,258,AS,exp,44,→,right,→,0.5422032999340445,True,10,1,0,6
Y2-S2-047M32,3,259,AS,exp,27,↑,down,↓,0.6320938998833299,False,10,-1,1,7
Y2-S2-047M32,3,260,AS,exp,37,↓,down,↓,0.5445121000520885,True,11,-1,0,7
Y2-S2-047M32,3,261,AS,exp,27,→,right,→,0.48593500000424683,True,11,-1,0,7
Y2-S2-047M32,3,262,AS,exp,31,↑,up,↑,0.5854177000001073,True,11,1,1,8
Y2-S2-047M32,3,263,AS,exp,47,←,right,→,0.685744599904865,False,10,-1,1,9
Y2-S2-047M32,3,264,AS,exp,29,→,right,→,0.6332415000069886,True,11,-1,0,9
Y2-S2-047M32,3,265,AS,exp,47,←,left,←,0.6665008999407291,True,11,-1,0,9
Y2-S2-047M32,3,266,AS,exp,39,↑,up,↑,0.6329838999081403,True,11,1,1,10
Y2-S2-047M32,3,267,AS,exp,32,←,left,←,0.6207754998467863,True,10,1,0,10
Y2-S2-047M32,3,268,AS,exp,31,→,left,←,0.65853470005095,False,10,-1,1,11
Y2-S2-047M32,3,269,AS,exp,35,←,left,←,0.6282480999361724,True,11,-1,0,11
Y2-S2-047M32,3,270,AS,exp,38,↑,up,↑,0.5475333000067621,True,11,-1,0,11
Y2-S2-047M32,3,271,AS,exp,37,↓,down,↓,0.7027836001943797,True,11,1,1,12
Y2-S2-047M32,3,272,AS,exp,31,→,left,←,0.8469350000377744,False,10,-1,1,13
Y2-S2-047M32,3,273,AS,exp,26,↓,down,↓,0.6586080000270158,True,11,-1,0,13
Y2-S2-047M32,3,274,AS,exp,37,←,right,→,0.6641257000155747,False,11,-1,0,13
Y2-S2-047M32,3,275,AS,exp,30,→,right,→,0.5882036001421511,True,12,-1,0,13
Y2-S2-047M32,3,276,AS,exp,44,↓,down,↓,0.898148600012064,True,12,-1,0,13
Y2-S2-047M32,3,277,AS,exp,40,→,right,→,0.5293596000410616,True,12,1,1,14
Y2-S2-047M32,3,278,AS,exp,29,↑,down,↓,0.7292244001291692,False,11,-1,1,15
Y2-S2-047M32,3,279,AS,exp,30,←,left,←,0.6120170000940561,True,12,-1,0,15
Y2-S2-047M32,3,280,AS,exp,39,↓,down,↓,0.6042469998355955,True,12,-1,0,15
Y2-S2-047M32,3,281,AS,exp,33,→,right,→,0.581765600014478,True,12,1,1,16
Y2-S2-047M32,4,282,PS,intra_train,38,↑,up,↑,0.5861970998812467,True,18,-,-,-
Y2-S2-047M32,4,283,PS,intra_train,27,→,right,→,0.6446668000426143,True,18,-,-,-
Y2-S2-047M32,4,284,PS,intra_train,27,←,left,←,0.51376420003362,True,18,-,-,-
Y2-S2-047M32,4,285,PS,intra_train,37,↓,down,↓,0.620471800211817,True,18,-,-,-
Y2-S2-047M32,4,286,PS,intra_train,40,↑,up,↑,0.6060581000056118,True,18,-,-,-
Y2-S2-047M32,4,287,PS,exp,47,↓,down,↓,0.5441507999785244,True,12,0,0,0
Y2-S2-047M32,4,288,PS,exp,25,→,left,←,0.6948575000278652,False,12,-1,0,0
Y2-S2-047M32,4,289,PS,exp,49,↑,up,↑,0.6389268999919295,True,13,-1,0,0
Y2-S2-047M32,4,290,PS,exp,35,←,left,←,0.46694419998675585,True,13,-1,0,0
Y2-S2-047M32,4,291,PS,exp,44,→,right,→,0.48232079995796084,True,13,1,1,1
Y2-S2-047M32,4,292,PS,exp,40,←,left,←,0.5342826000414789,True,12,1,0,1
Y2-S2-047M32,4,293,PS,exp,34,→,right,→,0.6051696999929845,True,12,1,0,1
Y2-S2-047M32,4,294,PS,exp,36,↓,down,↓,0.6093293000012636,True,12,1,0,1
Y2-S2-047M32,4,295,PS,exp,25,←,left,←,0.5536067001521587,True,11,1,0,1
Y2-S2-047M32,4,296,PS,exp,32,↑,up,↑,0.7509603998623788,True,11,1,0,1
Y2-S2-047M32,4,297,PS,exp,30,↓,down,↓,0.6077860998921096,True,11,1,0,1
Y2-S2-047M32,4,298,PS,exp,50,→,right,→,0.5471133999526501,True,10,1,0,1
Y2-S2-047M32,4,299,PS,exp,40,↓,up,↑,0.808742499910295,False,10,-1,1,2
Y2-S2-047M32,4,300,PS,exp,39,↑,up,↑,0.4772743000648916,True,11,-1,0,2
Y2-S2-047M32,4,301,PS,exp,49,→,right,→,0.7651068000122905,True,11,-1,0,2
Y2-S2-047M32,4,302,PS,exp,34,←,up,↑,0.834876999957487,False,11,-1,0,2
Y2-S2-047M32,4,303,PS,exp,47,→,right,→,0.5077923000790179,True,12,-1,0,2
Y2-S2-047M32,4,304,PS,exp,45,↓,down,↓,0.6249528999906033,True,12,-1,0,2
Y2-S2-047M32,4,305,PS,exp,29,←,left,←,0.5763399999123067,True,12,1,1,3
Y2-S2-047M32,4,306,PS,exp,32,↓,down,↓,0.5694992998614907,True,11,1,0,3
Y2-S2-047M32,4,307,PS,exp,47,←,left,←,0.5552421999163926,True,11,1,0,3
Y2-S2-047M32,4,308,PS,exp,33,↓,down,↓,0.6282122998964041,True,11,1,0,3
Y2-S2-047M32,4,309,PS,exp,31,→,right,→,0.5281291999854147,True,10,1,0,3
Y2-S2-047M32,4,310,PS,exp,41,←,left,←,0.5195565999019891,True,10,1,0,3
Y2-S2-047M32,4,311,PS,exp,25,↓,down,↓,0.657383699901402,True,10,1,0,3
Y2-S2-047M32,4,312,PS,exp,27,↑,up,↑,0.5869189000222832,True,9,1,0,3
Y2-S2-047M32,4,313,PS,exp,27,↓,down,↓,0.6027104000095278,True,9,1,0,3
Y2-S2-047M32,4,314,PS,exp,37,←,right,→,0.5608477001078427,False,9,-1,1,4
Y2-S2-047M32,4,315,PS,exp,35,↑,up,↑,0.609934400068596,True,10,-1,0,4
Y2-S2-047M32,4,316,PS,exp,46,↓,down,↓,0.5475169001147151,True,10,-1,0,4
Y2-S2-047M32,4,317,PS,exp,40,→,right,→,0.7087457999587059,True,10,1,1,5
Y2-S2-047M32,4,318,PS,exp,25,↓,down,↓,0.5259271999821067,True,9,1,0,5
Y2-S2-047M32,4,319,PS,exp,49,→,right,→,0.5442760998848826,True,9,1,0,5
Y2-S2-047M32,4,320,PS,exp,42,↑,up,↑,0.5663731000386178,True,9,1,0,5
Y2-S2-047M32,4,321,PS,exp,38,←,left,←,0.5729863999877125,True,8,1,0,5
Y2-S2-047M32,4,322,PS,exp,46,↓,down,↓,0.9311140000354499,True,8,1,0,5
Y2-S2-047M32,4,323,PS,exp,31,←,right,→,0.6386494000907987,False,8,-1,1,6
Y2-S2-047M32,4,324,PS,exp,33,↓,down,↓,0.5948622999712825,True,9,-1,0,6
Y2-S2-047M32,4,325,PS,exp,50,→,right,→,0.5399927000980824,True,9,-1,0,6
Y2-S2-047M32,4,326,PS,exp,39,↓,down,↓,0.5624067999888211,True,9,1,1,7
Y2-S2-047M32,4,327,PS,exp,34,←,left,←,0.6187201999127865,True,8,1,0,7
Y2-S2-047M32,4,328,PS,exp,27,→,right,→,0.4880890999920666,True,8,1,0,7
Y2-S2-047M32,4,329,PS,exp,48,↑,up,↑,0.5434866999275982,True,8,1,0,7
Y2-S2-047M32,4,330,PS,exp,41,→,right,→,0.535478999838233,True,7,1,0,7
Y2-S2-047M32,4,331,PS,exp,26,↓,down,↓,0.6671305999625474,True,7,1,0,7
Y2-S2-047M32,4,332,PS,exp,25,↑,up,↑,0.6117110999766737,True,7,1,0,7
Y2-S2-047M32,4,333,PS,exp,27,←,up,↑,0.6436558999121189,False,6,-1,1,8
Y2-S2-047M32,4,334,PS,exp,47,↓,down,↓,0.5789737000595778,True,7,-1,0,8
Y2-S2-047M32,4,335,PS,exp,49,→,right,→,0.5451144999824464,True,7,-1,0,8
Y2-S2-047M32,4,336,PS,exp,47,←,up,↑,0.7374007999897003,False,7,-1,0,8
Y2-S2-047M32,4,337,PS,exp,50,↑,up,↑,0.5963607998564839,True,8,-1,0,8
Y2-S2-047M32,4,338,PS,exp,50,←,left,←,0.6367982998490334,True,8,-1,0,8
Y2-S2-047M32,4,339,PS,exp,48,↓,down,↓,0.5516365000512451,True,8,1,1,9
Y2-S2-047M32,4,340,PS,exp,27,↑,up,↑,0.5729453000240028,True,7,1,0,9
Y2-S2-047M32,4,341,PS,exp,28,↓,up,↑,0.563829799881205,False,7,-1,1,10
Y2-S2-047M32,4,342,PS,exp,35,→,right,→,0.49335090001113713,True,8,-1,0,10
Y2-S2-047M32,4,343,PS,exp,31,↓,down,↓,0.6175098000094295,True,8,-1,0,10
Y2-S2-047M32,4,344,PS,exp,33,→,right,→,0.5420105000957847,True,8,1,1,11
Y2-S2-047M32,4,345,PS,exp,32,←,left,←,0.5990076998714358,True,7,1,0,11
Y2-S2-047M32,4,346,PS,exp,34,↓,down,↓,0.5502097001299262,True,7,1,0,11
Y2-S2-047M32,4,347,PS,exp,36,←,left,←,0.6173525999765843,True,7,1,0,11
Y2-S2-047M32,4,348,PS,exp,50,↓,down,↓,0.6509591001085937,True,6,1,0,11
Y2-S2-047M32,4,349,PS,exp,38,↑,down,↓,0.7050344001036137,False,6,-1,1,12
Y2-S2-047M32,4,350,PS,exp,49,→,left,←,0.6607836000621319,False,7,-1,0,12
Y2-S2-047M32,4,351,PS,exp,40,↑,up,↑,0.609778800047934,True,8,-1,0,12
Y2-S2-047M32,4,352,PS,exp,44,↓,down,↓,0.6369135999120772,True,8,-1,0,12
Y2-S2-047M32,4,353,PS,exp,25,→,up,↑,0.8197085000574589,False,8,-1,0,12
Y2-S2-047M32,4,354,PS,exp,37,↓,down,↓,0.6223025000654161,True,9,-1,0,12
Y2-S2-047M32,4,355,PS,exp,49,←,left,←,0.6171740000136197,True,9,-1,0,12
Y2-S2-047M32,4,356,PS,exp,35,→,right,→,0.6383857999462634,True,9,1,1,13
Y2-S2-047M32,4,357,PS,exp,49,←,left,←,0.6445106000173837,True,8,1,0,13
Y2-S2-047M32,4,358,PS,exp,45,↑,up,↑,0.6094430000521243,True,8,1,0,13
Y2-S2-047M32,4,359,PS,exp,30,↓,up,↑,0.6033538999035954,False,8,-1,1,14
Y2-S2-047M32,4,360,PS,exp,27,←,left,←,0.6130933999083936,True,9,-1,0,14
Y2-S2-047M32,4,361,PS,exp,33,↓,down,↓,0.6094627999700606,True,9,-1,0,14
Y2-S2-047M32,4,362,PS,exp,29,→,right,→,0.6069009001366794,True,9,1,1,15
Y2-S2-047M32,4,363,PS,exp,39,↓,down,↓,0.5751088000833988,True,8,1,0,15
Y2-S2-047M32,4,364,PS,exp,42,→,right,→,0.5821813000366092,True,8,1,0,15
Y2-S2-047M32,4,365,PS,exp,46,↑,right,→,0.6263437999878079,False,8,-1,1,16
Y2-S2-047M32,5,366,PS,intra_train,42,←,left,←,0.5669459998607635,True,18,-,-,-
Y2-S2-047M32,5,367,PS,intra_train,39,↓,down,↓,0.5719396998174489,True,18,-,-,-
Y2-S2-047M32,5,368,PS,intra_train,47,↑,up,↑,0.6163112998474389,True,18,-,-,-
Y2-S2-047M32,5,369,PS,intra_train,27,→,right,→,0.6604305999353528,True,18,-,-,-
Y2-S2-047M32,5,370,PS,intra_train,47,←,left,←,0.5056525999680161,True,18,-,-,-
Y2-S2-047M32,5,371,PS,exp,50,↓,down,↓,0.6324529000557959,True,12,0,0,0
Y2-S2-047M32,5,372,PS,exp,40,→,right,→,0.5482208000030369,True,12,0,0,0
Y2-S2-047M32,5,373,PS,exp,33,↑,right,→,0.9143534998875111,False,12,-1,0,0
Y2-S2-047M32,5,374,PS,exp,37,←,left,←,0.6101820000912994,True,13,-1,0,0
Y2-S2-047M32,5,375,PS,exp,39,↓,down,↓,0.5328857998829335,True,13,-1,0,0
Y2-S2-047M32,5,376,PS,exp,37,←,left,←,0.5217186999507248,True,13,1,1,1
Y2-S2-047M32,5,377,PS,exp,50,↑,up,↑,0.5706088000442833,True,12,1,0,1
Y2-S2-047M32,5,378,PS,exp,41,↓,down,↓,0.589909499976784,True,12,1,0,1
Y2-S2-047M32,5,379,PS,exp,27,→,right,→,0.4962126000318676,True,12,1,0,1
Y2-S2-047M32,5,380,PS,exp,33,←,left,←,0.5250487998127937,True,11,1,0,1
Y2-S2-047M32,5,381,PS,exp,36,↑,up,↑,0.5025261999107897,True,11,1,0,1
Y2-S2-047M32,5,382,PS,exp,41,→,right,→,0.5395383001305163,True,11,1,0,1
Y2-S2-047M32,5,383,PS,exp,26,↓,down,↓,0.7380494999233633,True,10,1,0,1
Y2-S2-047M32,5,384,PS,exp,28,←,left,←,0.5598605999257416,True,10,1,0,1
Y2-S2-047M32,5,385,PS,exp,28,→,right,→,0.49278609990142286,True,10,1,0,1
Y2-S2-047M32,5,386,PS,exp,41,↓,down,↓,0.5726132998242974,True,9,1,0,1
Y2-S2-047M32,5,387,PS,exp,26,→,right,→,0.44269219995476305,True,9,1,0,1
Y2-S2-047M32,5,388,PS,exp,39,↓,down,↓,0.6479652000125498,True,9,1,0,1
Y2-S2-047M32,5,389,PS,exp,40,→,right,→,0.5394270999822766,True,8,1,0,1
Y2-S2-047M32,5,390,PS,exp,41,↑,up,↑,0.5117097001057118,True,8,1,0,1
Y2-S2-047M32,5,391,PS,exp,28,←,left,←,0.5428280998021364,True,8,1,0,1
Y2-S2-047M32,5,392,PS,exp,25,→,right,→,0.5653116998728365,True,7,1,0,1
Y2-S2-047M32,5,393,PS,exp,41,↓,down,↓,0.6655637000221759,True,7,1,0,1
Y2-S2-047M32,5,394,PS,exp,49,←,left,←,0.5881103998981416,True,7,1,0,1
Y2-S2-047M32,5,395,PS,exp,32,↓,down,↓,0.6249503998551518,True,6,1,0,1
Y2-S2-047M32,5,396,PS,exp,35,→,right,→,0.5247142999432981,True,6,1,0,1
Y2-S2-047M32,5,397,PS,exp,28,↑,down,↓,0.7010113000869751,False,6,-1,1,2
Y2-S2-047M32,5,398,PS,exp,32,←,right,→,0.7352642000187188,False,7,-1,0,2
Y2-S2-047M32,5,399,PS,exp,26,→,right,→,0.5425644000060856,True,8,-1,0,2
Y2-S2-047M32,5,400,PS,exp,37,↓,down,↓,0.5844922000542283,True,8,-1,0,2
Y2-S2-047M32,5,401,PS,exp,49,→,right,→,0.5805924001615494,True,8,1,1,3
Y2-S2-047M32,5,402,PS,exp,32,↓,down,↓,0.5148107002023607,True,7,1,0,3
Y2-S2-047M32,5,403,PS,exp,27,→,right,→,0.45352129987441003,True,7,1,0,3
Y2-S2-047M32,5,404,PS,exp,29,←,left,←,0.7484190999530256,True,7,1,0,3
Y2-S2-047M32,5,405,PS,exp,31,↓,right,→,0.6166004999540746,False,6,-1,1,4
Y2-S2-047M32,5,406,PS,exp,27,↑,down,↓,0.5678296000696719,False,7,-1,0,4
Y2-S2-047M32,5,407,PS,exp,37,↓,down,↓,0.5024491001386195,True,8,-1,0,4
Y2-S2-047M32,5,408,PS,exp,33,←,left,←,0.6092622999567538,True,8,-1,0,4
Y2-S2-047M32,5,409,PS,exp,42,↑,up,↑,0.5126172001473606,True,8,1,1,5
Y2-S2-047M32,5,410,PS,exp,49,←,left,←,0.5855064000934362,True,7,1,0,5
Y2-S2-047M32,5,411,PS,exp,42,↓,down,↓,0.5073390000034124,True,7,1,0,5
Y2-S2-047M32,5,412,PS,exp,40,←,left,←,0.5675840000621974,True,7,1,0,5
Y2-S2-047M32,5,413,PS,exp,25,↓,down,↓,0.4979781999718398,True,6,1,0,5
Y2-S2-047M32,5,414,PS,exp,38,←,left,←,0.7349054999649525,True,6,1,0,5
Y2-S2-047M32,5,415,PS,exp,45,↑,down,↓,0.7426480001304299,False,6,-1,1,6
Y2-S2-047M32,5,416,PS,exp,46,←,left,←,0.5553015999030322,True,7,-1,0,6
Y2-S2-047M32,5,417,PS,exp,48,↓,down,↓,0.5048551999498159,True,7,-1,0,6
Y2-S2-047M32,5,418,PS,exp,47,→,right,→,0.4958842999767512,True,7,1,1,7
Y2-S2-047M32,5,419,PS,exp,49,↑,up,↑,0.5580114999320358,True,6,1,0,7
Y2-S2-047M32,5,420,PS,exp,25,←,up,↑,0.5713446999434382,False,6,-1,1,8
Y2-S2-047M32,5,421,PS,exp,40,↑,up,↑,0.5024691000580788,True,7,-1,0,8
Y2-S2-047M32,5,422,PS,exp,35,↓,down,↓,0.5684644000139087,True,7,-1,0,8
Y2-S2-047M32,5,423,PS,exp,29,←,left,←,0.7438516998663545,True,7,1,1,9
Y2-S2-047M32,5,424,PS,exp,40,→,up,↑,0.6029957998543978,False,6,-1,1,10
Y2-S2-047M32,5,425,PS,exp,34,↑,up,↑,0.5544167999178171,True,7,-1,0,10
Y2-S2-047M32,5,426,PS,exp,40,→,up,↑,0.5161488000303507,False,7,-1,0,10
Y2-S2-047M32,5,427,PS,exp,27,←,left,←,0.7202543001621962,True,8,-1,0,10
Y2-S2-047M32,5,428,PS,exp,36,↑,up,↑,0.5425954998936504,True,8,-1,0,10
Y2-S2-047M32,5,429,PS,exp,49,←,left,←,0.6192522998899221,True,8,1,1,11
Y2-S2-047M32,5,430,PS,exp,48,↓,up,↑,0.5927732000127435,False,7,-1,1,12
Y2-S2-047M32,5,431,PS,exp,48,→,right,→,0.49935400020331144,True,8,-1,0,12
Y2-S2-047M32,5,432,PS,exp,25,↑,up,↑,0.5415845001116395,True,8,-1,0,12
Y2-S2-047M32,5,433,PS,exp,48,→,up,↑,0.6073259999975562,False,8,-1,0,12
Y2-S2-047M32,5,434,PS,exp,50,↑,up,↑,0.5586576999630779,True,9,-1,0,12
Y2-S2-047M32,5,435,PS,exp,40,→,right,→,0.5602120000403374,True,9,-1,0,12
Y2-S2-047M32,5,436,PS,exp,45,↓,down,↓,0.6741625000722706,True,9,1,1,13
Y2-S2-047M32,5,437,PS,exp,41,→,right,→,0.6207121000625193,True,8,1,0,13
Y2-S2-047M32,5,438,PS,exp,36,←,left,←,0.6877669000532478,True,8,1,0,13
Y2-S2-047M32,5,439,PS,exp,26,↓,down,↓,0.6243041001725942,True,8,1,0,13
Y2-S2-047M32,5,440,PS,exp,31,→,right,→,0.4734962999355048,True,7,1,0,13
Y2-S2-047M32,5,441,PS,exp,36,↓,down,↓,0.5640066000632942,True,7,1,0,13
Y2-S2-047M32,5,442,PS,exp,31,↑,down,↓,0.49240999994799495,False,7,-1,1,14
Y2-S2-047M32,5,443,PS,exp,41,←,left,←,0.6088702999986708,True,8,-1,0,14
Y2-S2-047M32,5,444,PS,exp,50,→,right,→,0.4788420998957008,True,8,-1,0,14
Y2-S2-047M32,5,445,PS,exp,36,↓,down,↓,0.5328403001185507,True,8,1,1,15
Y2-S2-047M32,5,446,PS,exp,38,←,left,←,0.5424973000772297,True,7,1,0,15
Y2-S2-047M32,5,447,PS,exp,34,↑,right,→,0.5346190000418574,False,7,-1,1,16
Y2-S2-047M32,6,448,AS,intra_train,46,←,left,←,0.6312084998935461,True,21,-,-,-
Y2-S2-047M32,6,449,AS,intra_train,34,↑,up,↑,0.6351317998487502,True,21,-,-,-
Y2-S2-047M32,6,450,AS,intra_train,44,←,left,←,0.6209120999556035,True,21,-,-,-
Y2-S2-047M32,6,451,AS,intra_train,46,↑,up,↑,0.6608464999590069,True,21,-,-,-
Y2-S2-047M32,6,452,AS,intra_train,46,→,right,→,1.5170760999899358,True,21,-,-,-
Y2-S2-047M32,6,453,AS,exp,48,↑,right,→,0.7167412999551743,False,14,-1,0,0
Y2-S2-047M32,6,454,AS,exp,40,↓,down,↓,0.6630063999909908,True,15,-1,0,0
Y2-S2-047M32,6,455,AS,exp,35,↑,up,↑,0.5943495999090374,True,15,-1,0,0
Y2-S2-047M32,6,456,AS,exp,27,→,right,→,0.6014403998851776,True,15,1,1,1
Y2-S2-047M32,6,457,AS,exp,25,↓,down,↓,0.6942350000608712,True,14,1,0,1
Y2-S2-047M32,6,458,AS,exp,29,←,left,←,0.6091153998859227,True,14,1,0,1
Y2-S2-047M32,6,459,AS,exp,47,↓,down,↓,0.6848934001754969,True,14,1,0,1
Y2-S2-047M32,6,460,AS,exp,45,←,right,→,1.0311535000801086,False,13,-1,1,2
Y2-S2-047M32,6,461,AS,exp,27,↓,down,↓,0.6966260999906808,True,14,-1,0,2
Y2-S2-047M32,6,462,AS,exp,31,→,right,→,0.724879999877885,True,14,-1,0,2
Y2-S2-047M32,6,463,AS,exp,25,↑,up,↑,0.5965505000203848,True,14,1,1,3
Y2-S2-047M32,6,464,AS,exp,33,→,up,↑,0.701918600127101,False,13,-1,1,4
Y2-S2-047M32,6,465,AS,exp,45,↑,up,↑,0.5415493999607861,True,14,-1,0,4
Y2-S2-047M32,6,466,AS,exp,47,↓,down,↓,0.6679442999884486,True,14,-1,0,4
Y2-S2-047M32,6,467,AS,exp,32,←,right,→,0.8695338000543416,False,14,-1,0,4
Y2-S2-047M32,6,468,AS,exp,31,↓,down,↓,0.6682510001119226,True,15,-1,0,4
Y2-S2-047M32,6,469,AS,exp,27,→,right,→,0.6432030000723898,True,15,-1,0,4
Y2-S2-047M32,6,470,AS,exp,26,↓,down,↓,0.7412356999702752,True,15,1,1,5
Y2-S2-047M32,6,471,AS,exp,48,→,right,→,0.6307927998714149,True,14,1,0,5
Y2-S2-047M32,6,472,AS,exp,44,←,left,←,0.5773418999742717,True,14,1,0,5
Y2-S2-047M32,6,473,AS,exp,39,↑,up,↑,0.6549092999193817,True,14,1,0,5
Y2-S2-047M32,6,474,AS,exp,35,→,left,←,0.8854497000575066,False,13,-1,1,6
Y2-S2-047M32,6,475,AS,exp,25,↓,down,↓,0.6060959999449551,True,14,-1,0,6
Y2-S2-047M32,6,476,AS,exp,47,↑,up,↑,0.6278953000437468,True,14,-1,0,6
Y2-S2-047M32,6,477,AS,exp,47,→,right,→,0.6238120999187231,True,14,1,1,7
Y2-S2-047M32,6,478,AS,exp,44,←,left,←,0.5759996001143008,True,13,1,0,7
Y2-S2-047M32,6,479,AS,exp,29,→,right,→,0.5297166998498142,True,13,1,0,7
Y2-S2-047M32,6,480,AS,exp,29,←,left,←,0.7294027998577803,True,13,1,0,7
Y2-S2-047M32,6,481,AS,exp,33,→,right,→,0.4661072001326829,True,12,1,0,7
Y2-S2-047M32,6,482,AS,exp,50,↑,up,↑,0.6112102998886257,True,12,1,0,7
Y2-S2-047M32,6,483,AS,exp,30,←,left,←,0.6039285999722779,True,12,1,0,7
Y2-S2-047M32,6,484,AS,exp,33,↑,up,↑,0.5742846999783069,True,11,1,0,7
Y2-S2-047M32,6,485,AS,exp,42,←,left,←,0.6067916001193225,True,11,1,0,7
Y2-S2-047M32,6,486,AS,exp,28,→,right,→,0.6316591999493539,True,11,1,0,7
Y2-S2-047M32,6,487,AS,exp,30,←,up,↑,0.6567253998946398,False,10,-1,1,8
Y2-S2-047M32,6,488,AS,exp,27,↑,up,↑,0.5110657999757677,True,11,-1,0,8
Y2-S2-047M32,6,489,AS,exp,35,←,left,←,0.6707127999980003,True,11,-1,0,8
Y2-S2-047M32,6,490,AS,exp,31,→,left,←,0.668064899975434,False,11,-1,0,8
Y2-S2-047M32,6,491,AS,exp,43,↑,up,↑,0.5649470000062138,True,12,-1,0,8
Y2-S2-047M32,6,492,AS,exp,27,↓,down,↓,0.6821373000275344,True,12,-1,0,8
Y2-S2-047M32,6,493,AS,exp,35,→,down,↓,0.7986649998929352,False,12,-1,0,8
Y2-S2-047M32,6,494,AS,exp,47,↑,up,↑,0.7879732998553663,True,13,-1,0,8
Y2-S2-047M32,6,495,AS,exp,40,↓,down,↓,0.5481398000847548,True,13,-1,0,8
Y2-S2-047M32,6,496,AS,exp,35,↑,up,↑,0.5202466000337154,True,13,1,1,9
Y2-S2-047M32,6,497,AS,exp,41,→,right,→,0.5557214000727981,True,12,1,0,9
Y2-S2-047M32,6,498,AS,exp,28,↑,up,↑,0.5722514998633415,True,12,1,0,9
Y2-S2-047M32,6,499,AS,exp,31,←,left,←,0.6790990999434143,True,12,1,0,9
Y2-S2-047M32,6,500,AS,exp,40,↓,down,↓,0.5715451000723988,True,11,1,0,9
Y2-S2-047M32,6,501,AS,exp,32,←,left,←,0.6283001000992954,True,11,1,0,9
Y2-S2-047M32,6,502,AS,exp,50,→,right,→,0.5225001000799239,True,11,1,0,9
Y2-S2-047M32,6,503,AS,exp,50,↑,up,↑,0.623842200031504,True,10,1,0,9
Y2-S2-047M32,6,504,AS,exp,32,→,left,←,0.6276374000590295,False,10,-1,1,10
Y2-S2-047M32,6,505,AS,exp,31,↓,down,↓,0.6488594999536872,True,11,-1,0,10
Y2-S2-047M32,6,506,AS,exp,41,←,left,←,0.5518246998544782,True,11,-1,0,10
Y2-S2-047M32,6,507,AS,exp,31,↑,down,↓,0.7956319998484105,False,11,-1,0,10
Y2-S2-047M32,6,508,AS,exp,46,→,right,→,0.4727526002097875,True,12,-1,0,10
Y2-S2-047M32,6,509,AS,exp,31,←,left,←,0.5725542998407036,True,12,-1,0,10
Y2-S2-047M32,6,510,AS,exp,32,↓,down,↓,0.5818089998792857,True,12,1,1,11
Y2-S2-047M32,6,511,AS,exp,40,↑,down,↓,0.6574263998772949,False,11,-1,1,12
Y2-S2-047M32,6,512,AS,exp,49,→,right,→,0.5673040000256151,True,12,-1,0,12
Y2-S2-047M32,6,513,AS,exp,39,↑,up,↑,0.6118789999745786,True,12,-1,0,12
Y2-S2-047M32,6,514,AS,exp,48,↓,down,↓,0.66324059991166,True,12,1,1,13
Y2-S2-047M32,6,515,AS,exp,40,→,right,→,0.5540339001454413,True,11,1,0,13
Y2-S2-047M32,6,516,AS,exp,30,←,left,←,0.6674689000938088,True,11,1,0,13
Y2-S2-047M32,6,517,AS,exp,42,↑,up,↑,0.6146052000112832,True,11,1,0,13
Y2-S2-047M32,6,518,AS,exp,45,→,right,→,0.6591975002083927,True,10,1,0,13
Y2-S2-047M32,6,519,AS,exp,48,↓,down,↓,0.7835142000112683,True,10,1,0,13
Y2-S2-047M32,6,520,AS,exp,35,←,left,←,0.8313731998205185,True,10,1,0,13
Y2-S2-047M32,6,521,AS,exp,28,↓,down,↓,0.6555398998316377,True,9,1,0,13
Y2-S2-047M32,6,522,AS,exp,45,↑,right,→,0.6343030999414623,False,9,-1,1,14
Y2-S2-047M32,6,523,AS,exp,40,→,right,→,0.5025952002033591,True,10,-1,0,14
Y2-S2-047M32,6,524,AS,exp,31,↓,down,↓,0.5979476000647992,True,10,-1,0,14
Y2-S2-047M32,6,525,AS,exp,36,←,right,→,0.6054363001603633,False,10,-1,0,14
Y2-S2-047M32,6,526,AS,exp,29,→,right,→,0.5345175999682397,True,11,-1,0,14
Y2-S2-047M32,6,527,AS,exp,37,↓,down,↓,0.680269599892199,True,11,-1,0,14
Y2-S2-047M32,6,528,AS,exp,32,→,right,→,0.6321022999472916,True,11,1,1,15
Y2-S2-047M32,6,529,AS,exp,27,↑,up,↑,0.5678455999586731,True,10,1,0,15
Y2-S2-047M32,6,530,AS,exp,31,←,up,↑,0.6657767000142485,False,10,-1,1,16
Y2-S2-047M32,7,531,AS,intra_train,42,→,right,→,0.5700753999408334,True,21,-,-,-
Y2-S2-047M32,7,532,AS,intra_train,41,↓,down,↓,0.5571642001159489,True,21,-,-,-
Y2-S2-047M32,7,533,AS,intra_train,28,↑,up,↑,0.5660520000383258,True,21,-,-,-
Y2-S2-047M32,7,534,AS,intra_train,29,↓,down,↓,0.5289358000736684,True,21,-,-,-
Y2-S2-047M32,7,535,AS,intra_train,37,←,left,←,0.5473629001062363,True,21,-,-,-
Y2-S2-047M32,7,536,AS,exp,38,↓,down,↓,0.71586519991979,True,14,0,0,0
Y2-S2-047M32,7,537,AS,exp,32,←,left,←,0.7277287999168038,True,14,0,0,0
Y2-S2-047M32,7,538,AS,exp,44,↑,up,↑,0.5455070999450982,True,14,1,0,0
Y2-S2-047M32,7,539,AS,exp,28,→,left,←,1.0443460000678897,False,13,-1,1,1
Y2-S2-047M32,7,540,AS,exp,31,↑,up,↑,0.6726317999418825,True,14,-1,0,1
Y2-S2-047M32,7,541,AS,exp,44,↓,down,↓,0.7056072000414133,True,14,-1,0,1
Y2-S2-047M32,7,542,AS,exp,49,↑,up,↑,0.5474310000427067,True,14,1,1,2
Y2-S2-047M32,7,543,AS,exp,46,←,left,←,0.6149675000924617,True,13,1,0,2
Y2-S2-047M32,7,544,AS,exp,29,↓,down,↓,0.6061318998690695,True,13,1,0,2
Y2-S2-047M32,7,545,AS,exp,35,→,right,→,0.6426567998714745,True,13,1,0,2
Y2-S2-047M32,7,546,AS,exp,26,←,left,←,0.6904405001550913,True,12,1,0,2
Y2-S2-047M32,7,547,AS,exp,37,↓,down,↓,0.6021715998649597,True,12,1,0,2
Y2-S2-047M32,7,548,AS,exp,40,←,left,←,0.6585532000754029,True,12,1,0,2
Y2-S2-047M32,7,549,AS,exp,35,↑,up,↑,0.6141725999768823,True,11,1,0,2
Y2-S2-047M32,7,550,AS,exp,25,→,right,→,0.5539238001219928,True,11,1,0,2
Y2-S2-047M32,7,551,AS,exp,25,↑,up,↑,0.5489008000586182,True,11,1,0,2
Y2-S2-047M32,7,552,AS,exp,45,↓,down,↓,0.5976740000769496,True,10,1,0,2
Y2-S2-047M32,7,553,AS,exp,26,→,right,→,0.7216367998626083,True,10,1,0,2
Y2-S2-047M32,7,554,AS,exp,50,↓,down,↓,0.5931291000451893,True,10,1,0,2
Y2-S2-047M32,7,555,AS,exp,38,↑,up,↑,0.5620119001250714,True,9,1,0,2
Y2-S2-047M32,7,556,AS,exp,37,↓,down,↓,0.6110576000064611,True,9,1,0,2
Y2-S2-047M32,7,557,AS,exp,36,←,left,←,0.5097403000108898,True,9,1,0,2
Y2-S2-047M32,7,558,AS,exp,35,↓,down,↓,0.6683470997959375,True,8,1,0,2
Y2-S2-047M32,7,559,AS,exp,30,→,right,→,0.49997750017791986,True,8,1,0,2
Y2-S2-047M32,7,560,AS,exp,46,↑,up,↑,0.6530673000961542,True,8,1,0,2
Y2-S2-047M32,7,561,AS,exp,45,→,right,→,0.49607660016044974,True,7,1,0,2
Y2-S2-047M32,7,562,AS,exp,36,↓,down,↓,0.709289499791339,True,7,1,0,2
Y2-S2-047M32,7,563,AS,exp,40,→,right,→,0.6446718000806868,True,7,1,0,2
Y2-S2-047M32,7,564,AS,exp,36,←,right,→,0.5719667999073863,False,6,-1,1,3
Y2-S2-047M32,7,565,AS,exp,46,→,right,→,0.5201659998856485,True,7,-1,0,3
Y2-S2-047M32,7,566,AS,exp,31,←,left,←,0.7168280000332743,True,7,-1,0,3
Y2-S2-047M32,7,567,AS,exp,30,→,right,→,0.5210984998848289,True,7,1,1,4
Y2-S2-047M32,7,568,AS,exp,26,↓,up,↑,0.6200854000635445,False,6,-1,1,5
Y2-S2-047M32,7,569,AS,exp,29,←,left,←,0.6981366998516023,True,7,-1,0,5
Y2-S2-047M32,7,570,AS,exp,44,↑,up,↑,0.5770006999373436,True,7,-1,0,5
Y2-S2-047M32,7,571,AS,exp,39,←,right,→,0.9105366999283433,False,7,-1,0,5
Y2-S2-047M32,7,572,AS,exp,40,→,right,→,0.4845211000647396,True,8,-1,0,5
Y2-S2-047M32,7,573,AS,exp,27,↑,up,↑,0.5725239999592304,True,8,-1,0,5
Y2-S2-047M32,7,574,AS,exp,36,↓,up,↑,0.5933793000876904,False,8,-1,0,5
Y2-S2-047M32,7,575,AS,exp,33,←,right,→,0.5788365001790226,False,9,-1,0,5
Y2-S2-047M32,7,576,AS,exp,29,↑,up,↑,0.5837308000773191,True,10,-1,0,5
Y2-S2-047M32,7,577,AS,exp,27,↓,up,↑,0.5946037999819964,False,10,-1,0,5
Y2-S2-047M32,7,578,AS,exp,44,←,left,←,0.643699900014326,True,11,-1,0,5
Y2-S2-047M32,7,579,AS,exp,45,↓,down,↓,0.6685280001256615,True,11,-1,0,5
Y2-S2-047M32,7,580,AS,exp,33,↑,down,↓,0.6012603999115527,False,11,-1,0,5
Y2-S2-047M32,7,581,AS,exp,31,↓,down,↓,0.6611003000289202,True,12,-1,0,5
Y2-S2-047M32,7,582,AS,exp,48,←,left,←,0.6783549000974745,True,12,-1,0,5
Y2-S2-047M32,7,583,AS,exp,40,↓,down,↓,0.5826185001060367,True,12,1,1,6
Y2-S2-047M32,7,584,AS,exp,49,←,left,←,0.5478797999676317,True,11,1,0,6
Y2-S2-047M32,7,585,AS,exp,50,↓,right,→,0.00110809993930161,False,11,-1,1,7
Y2-S2-047M32,7,586,AS,exp,39,←,left,←,0.7851841000374407,True,12,-1,0,7
Y2-S2-047M32,7,587,AS,exp,29,↑,up,↑,0.5695911000948399,True,12,-1,0,7
Y2-S2-047M32,7,588,AS,exp,29,←,left,←,0.5673465998843312,True,12,1,1,8
Y2-S2-047M32,7,589,AS,exp,36,↓,down,↓,0.66295349993743,True,11,1,0,8
Y2-S2-047M32,7,590,AS,exp,31,→,right,→,0.6092457000631839,True,11,1,0,8
Y2-S2-047M32,7,591,AS,exp,31,←,left,←,0.5823089999612421,True,11,1,0,8
Y2-S2-047M32,7,592,AS,exp,43,→,right,→,0.48473460017703474,True,10,1,0,8
Y2-S2-047M32,7,593,AS,exp,47,←,left,←,0.6117950000334531,True,10,1,0,8
Y2-S2-047M32,7,594,AS,exp,39,↓,down,↓,0.899175199912861,True,10,1,0,8
Y2-S2-047M32,7,595,AS,exp,44,←,left,←,0.5495678998995572,True,9,1,0,8
Y2-S2-047M32,7,596,AS,exp,44,↑,up,↑,0.5865986000280827,True,9,1,0,8
Y2-S2-047M32,7,597,AS,exp,26,↓,up,↑,0.5562334998976439,False,9,-1,1,9
Y2-S2-047M32,7,598,AS,exp,35,→,right,→,0.6065682000480592,True,10,-1,0,9
Y2-S2-047M32,7,599,AS,exp,25,←,left,←,0.723325900034979,True,10,-1,0,9
Y2-S2-047M32,7,600,AS,exp,35,→,right,→,0.4877587000373751,True,10,1,1,10
Y2-S2-047M32,7,601,AS,exp,43,↑,up,↑,0.5774213999975473,True,9,1,0,10
Y2-S2-047M32,7,602,AS,exp,31,→,right,→,0.4924163999967277,True,9,1,0,10
Y2-S2-047M32,7,603,AS,exp,49,↓,up,↑,0.6647902999538928,False,9,-1,1,11
Y2-S2-047M32,7,604,AS,exp,44,→,right,→,0.6342670999001712,True,10,-1,0,11
Y2-S2-047M32,7,605,AS,exp,34,↓,down,↓,0.6193929000291973,True,10,-1,0,11
Y2-S2-047M32,7,606,AS,exp,43,←,left,←,0.5614807000383735,True,10,1,1,12
Y2-S2-047M32,7,607,AS,exp,48,↓,up,↑,0.7269274999853224,False,9,-1,1,13
Y2-S2-047M32,7,608,AS,exp,45,→,right,→,0.4551819001790136,True,10,-1,0,13
Y2-S2-047M32,7,609,AS,exp,29,↑,up,↑,0.542913599871099,True,10,-1,0,13
Y2-S2-047M32,7,610,AS,exp,26,→,right,→,0.5662823999300599,True,10,1,1,14
Y2-S2-047M32,7,611,AS,exp,50,↑,up,↑,0.4757044999860227,True,9,1,0,14
Y2-S2-047M32,7,612,AS,exp,41,←,left,←,0.5803521000780165,True,9,1,0,14
Y2-S2-047M32,7,613,AS,exp,41,→,right,→,0.4244663000572473,True,9,1,0,14
Y2-S2-047M32,7,614,AS,exp,43,↑,up,↑,0.5663790998514742,True,8,1,0,14
Y2-S2-047M32,7,615,AS,exp,33,←,left,←,0.47060579992830753,True,8,1,0,14
Y2-S2-047M32,7,616,AS,exp,50,↓,up,↑,0.5641050999984145,False,8,-1,1,15
Y2-S2-047M32,7,617,AS,exp,41,←,left,←,0.5586179001256824,True,9,-1,0,15
Y2-S2-047M32,7,618,AS,exp,41,↓,up,↑,0.5555630000308156,False,9,-1,0,15
Y2-S2-047M32,7,619,AS,exp,29,←,up,↑,0.46555720013566315,False,10,-1,0,15
Y2-S2-047M32,7,620,AS,exp,26,↓,up,↑,0.4857979998923838,False,11,-1,0,15
Y2-S2-047M32,7,621,AS,exp,39,↑,up,↑,0.5496137000154704,True,12,-1,0,15
Y2-S2-047M32,7,622,AS,exp,33,→,right,→,0.6009734999388456,True,12,-1,0,15
Y2-S2-047M32,7,623,AS,exp,31,↑,up,↑,0.53314119996503,True,12,1,1,16
Y2-S2-047M32,8,624,PS,intra_train,43,←,left,←,0.6444349999073893,True,18,-,-,-
Y2-S2-047M32,8,625,PS,intra_train,49,→,right,→,1.013424800010398,True,18,-,-,-
Y2-S2-047M32,8,626,PS,intra_train,25,←,left,←,0.7652665001805872,True,18,-,-,-
Y2-S2-047M32,8,627,PS,intra_train,48,→,right,→,0.5422620999161154,True,18,-,-,-
Y2-S2-047M32,8,628,PS,intra_train,41,←,right,→,0.5208117000292987,False,18,-,-,-
Y2-S2-047M32,8,629,PS,exp,26,↓,up,↑,0.8503164001740515,False,12,-1,0,0
Y2-S2-047M32,8,630,PS,exp,26,↑,up,↑,0.6577777001075447,True,13,-1,0,0
Y2-S2-047M32,8,631,PS,exp,48,↓,down,↓,0.6443030000664294,True,13,-1,0,0
Y2-S2-047M32,8,632,PS,exp,49,→,right,→,0.9536814999300987,True,13,1,1,1
Y2-S2-047M32,8,633,PS,exp,38,↑,up,↑,0.7855823000427336,True,12,1,0,1
Y2-S2-047M32,8,634,PS,exp,42,←,left,←,0.7135660001076758,True,12,1,0,1
Y2-S2-047M32,8,635,PS,exp,35,↑,up,↑,0.5409973000641912,True,12,1,0,1
Y2-S2-047M32,8,636,PS,exp,25,→,right,→,0.4997469000518322,True,11,1,0,1
Y2-S2-047M32,8,637,PS,exp,46,↓,down,↓,0.6132759000174701,True,11,1,0,1
Y2-S2-047M32,8,638,PS,exp,41,↑,up,↑,0.5608510000165552,True,11,1,0,1
Y2-S2-047M32,8,639,PS,exp,42,←,left,←,0.46570310019887984,True,10,1,0,1
Y2-S2-047M32,8,640,PS,exp,37,↑,up,↑,0.48677419987507164,True,10,1,0,1
Y2-S2-047M32,8,641,PS,exp,41,↓,right,→,0.6855869998689741,False,10,-1,1,2
Y2-S2-047M32,8,642,PS,exp,31,↑,up,↑,0.521173199871555,True,11,-1,0,2
Y2-S2-047M32,8,643,PS,exp,42,←,left,←,0.6954217001330107,True,11,-1,0,2
Y2-S2-047M32,8,644,PS,exp,27,↑,up,↑,0.5277986000292003,True,11,1,1,3
Y2-S2-047M32,8,645,PS,exp,48,→,right,→,0.5714707998558879,True,10,1,0,3
Y2-S2-047M32,8,646,PS,exp,29,↑,up,↑,0.5013711999636143,True,10,1,0,3
Y2-S2-047M32,8,647,PS,exp,35,→,right,→,0.5524963000789285,True,10,1,0,3
Y2-S2-047M32,8,648,PS,exp,33,↓,down,↓,0.693966899998486,True,9,1,0,3
Y2-S2-047M32,8,649,PS,exp,37,→,right,→,0.5280846999958158,True,9,1,0,3
Y2-S2-047M32,8,650,PS,exp,43,↓,down,↓,0.6739107999019325,True,9,1,0,3
Y2-S2-047M32,8,651,PS,exp,26,↑,down,↓,0.7137020002119243,False,8,-1,1,4
Y2-S2-047M32,8,652,PS,exp,27,↓,down,↓,0.5771223998162895,True,9,-1,0,4
Y2-S2-047M32,8,653,PS,exp,30,←,left,←,0.570057800039649,True,9,-1,0,4
Y2-S2-047M32,8,654,PS,exp,34,↓,down,↓,0.612895900150761,True,9,1,1,5
Y2-S2-047M32,8,655,PS,exp,33,←,left,←,0.5809309999458492,True,8,1,0,5
Y2-S2-047M32,8,656,PS,exp,27,↑,up,↑,0.5620363999623805,True,8,1,0,5
Y2-S2-047M32,8,657,PS,exp,37,↓,down,↓,0.6216089001391083,True,8,1,0,5
Y2-S2-047M32,8,658,PS,exp,29,→,right,→,0.5528869000263512,True,7,1,0,5
Y2-S2-047M32,8,659,PS,exp,50,←,left,←,0.5797256999649107,True,7,1,0,5
Y2-S2-047M32,8,660,PS,exp,35,↑,up,↑,0.532511199824512,True,7,1,0,5
Y2-S2-047M32,8,661,PS,exp,33,↓,up,↑,0.65833709994331,False,6,-1,1,6
Y2-S2-047M32,8,662,PS,exp,34,↑,up,↑,0.49861849984154105,True,7,-1,0,6
Y2-S2-047M32,8,663,PS,exp,36,↓,down,↓,0.6394358999095857,True,7,-1,0,6
Y2-S2-047M32,8,664,PS,exp,43,↑,up,↑,0.589479599846527,True,7,1,1,7
Y2-S2-047M32,8,665,PS,exp,26,→,right,→,0.5287978001870215,True,6,1,0,7
Y2-S2-047M32,8,666,PS,exp,33,↓,down,↓,0.6442611000966281,True,6,1,0,7
Y2-S2-047M32,8,667,PS,exp,26,→,right,→,0.517752599902451,True,6,1,0,7
Y2-S2-047M32,8,668,PS,exp,34,←,left,←,0.5920280001591891,True,5,1,0,7
Y2-S2-047M32,8,669,PS,exp,49,↓,down,↓,0.6019774000160396,True,5,1,0,7
Y2-S2-047M32,8,670,PS,exp,42,→,right,→,0.467091100057587,True,5,1,0,7
Y2-S2-047M32,8,671,PS,exp,49,←,down,↓,0.6506850000005215,False,4,-1,1,8
Y2-S2-047M32,8,672,PS,exp,33,↑,down,↓,0.7237897000741214,False,5,-1,0,8
Y2-S2-047M32,8,673,PS,exp,26,←,left,←,0.6150429998524487,True,6,-1,0,8
Y2-S2-047M32,8,674,PS,exp,29,→,right,→,0.5622485000640154,True,6,-1,0,8
Y2-S2-047M32,8,675,PS,exp,39,←,left,←,0.6173984999768436,True,6,1,1,9
Y2-S2-047M32,8,676,PS,exp,35,↓,down,↓,0.6455028001219034,True,5,1,0,9
Y2-S2-047M32,8,677,PS,exp,48,←,left,←,0.6358924999367446,True,5,1,0,9
Y2-S2-047M32,8,678,PS,exp,39,↑,down,↓,0.5104072999674827,False,5,-1,1,10
Y2-S2-047M32,8,679,PS,exp,40,↓,down,↓,0.6201549000106752,True,6,-1,0,10
Y2-S2-047M32,8,680,PS,exp,38,↑,down,↓,0.6628426001407206,False,6,-1,0,10
Y2-S2-047M32,8,681,PS,exp,36,→,right,→,0.5043945999350399,True,7,-1,0,10
Y2-S2-047M32,8,682,PS,exp,30,↓,down,↓,0.5432386000175029,True,7,-1,0,10
Y2-S2-047M32,8,683,PS,exp,29,↑,down,↓,0.8090780000202358,False,7,-1,0,10
Y2-S2-047M32,8,684,PS,exp,27,←,left,←,0.5483093000948429,True,8,-1,0,10
Y2-S2-047M32,8,685,PS,exp,48,↑,up,↑,0.5663519999943674,True,8,-1,0,10
Y2-S2-047M32,8,686,PS,exp,46,←,up,↑,0.7264960999600589,False,8,-1,0,10
Y2-S2-047M32,8,687,PS,exp,44,↑,up,↑,0.5339073999784887,True,9,-1,0,10
Y2-S2-047M32,8,688,PS,exp,48,→,right,→,0.5006864999886602,True,9,-1,0,10
Y2-S2-047M32,8,689,PS,exp,34,←,left,←,0.6540574000682682,True,9,1,1,11
Y2-S2-047M32,8,690,PS,exp,27,→,right,→,0.5174233999568969,True,8,1,0,11
Y2-S2-047M32,8,691,PS,exp,47,←,left,←,0.6520241000689566,True,8,1,0,11
Y2-S2-047M32,8,692,PS,exp,46,↓,up,↑,0.5543267999310046,False,8,-1,1,12
Y2-S2-047M32,8,693,PS,exp,27,→,right,→,0.5396070000715554,True,9,-1,0,12
Y2-S2-047M32,8,694,PS,exp,28,←,left,←,0.5689278000500053,True,9,-1,0,12
Y2-S2-047M32,8,695,PS,exp,43,→,right,→,0.48480059998109937,True,9,1,1,13
Y2-S2-047M32,8,696,PS,exp,42,←,up,↑,0.5847453000023961,False,8,-1,1,14
Y2-S2-047M32,8,697,PS,exp,44,↓,down,↓,0.6331293000839651,True,9,-1,0,14
Y2-S2-047M32,8,698,PS,exp,44,←,left,←,0.6431287000887096,True,9,-1,0,14
Y2-S2-047M32,8,699,PS,exp,27,↑,up,↑,0.5698636998422444,True,9,1,1,15
Y2-S2-047M32,8,700,PS,exp,25,↓,down,↓,0.7174542001448572,True,8,1,0,15
Y2-S2-047M32,8,701,PS,exp,33,↑,up,↑,0.4617324999999255,True,8,1,0,15
Y2-S2-047M32,8,702,PS,exp,33,↓,down,↓,0.696089600212872,True,8,1,0,15
Y2-S2-047M32,8,703,PS,exp,39,↑,up,↑,0.592653299914673,True,7,1,0,15
Y2-S2-047M32,8,704,PS,exp,26,↓,down,↓,0.6022708001546562,True,7,1,0,15
Y2-S2-047M32,8,705,PS,exp,28,↑,up,↑,0.5118136000819504,True,7,1,0,15
Y2-S2-047M32,8,706,PS,exp,41,←,left,←,0.5320528999436647,True,6,1,0,15
Y2-S2-047M32,8,707,PS,exp,49,↓,down,↓,0.6025630999356508,True,6,1,0,15
Y2-S2-047M32,8,708,PS,exp,26,←,up,↑,0.5462184001225978,False,6,-1,1,16
