PART_ID,Block_no,Trial_no,Block_type,Trial_type,CSI,Stim_letter,Key_pressed,letter_choose,Rt,Corr,Stimulus Time,Level,Reversal,Revs_count
Y2-S2-158K20,1,1,PS,train,41,←,left,←,0.8969799997285008,True,30,-,-,-
Y2-S2-158K20,1,2,PS,train,41,↑,up,↑,0.6690230001695454,True,30,-,-,-
Y2-S2-158K20,1,3,PS,train,30,←,left,←,0.5670400997623801,True,30,-,-,-
Y2-S2-158K20,1,4,PS,train,28,↓,down,↓,0.5672195004299283,True,30,-,-,-
Y2-S2-158K20,1,5,PS,train,27,→,right,→,0.5175211997702718,True,30,-,-,-
Y2-S2-158K20,1,6,PS,train,29,↓,down,↓,0.46768630016595125,True,30,-,-,-
Y2-S2-158K20,1,7,PS,train,45,↑,up,↑,0.5673603001050651,True,30,-,-,-
Y2-S2-158K20,1,8,PS,train,36,←,left,←,0.48389470018446445,True,30,-,-,-
Y2-S2-158K20,1,9,PS,train,42,↑,up,↑,0.4343195999972522,True,30,-,-,-
Y2-S2-158K20,1,10,PS,train,47,←,left,←,0.4182988000102341,True,30,-,-,-
Y2-S2-158K20,2,11,AS,train,50,→,right,→,0.5341518996283412,True,45,-,-,-
Y2-S2-158K20,2,12,AS,train,42,↑,up,↑,0.5009265998378396,True,45,-,-,-
Y2-S2-158K20,2,13,AS,train,33,→,right,→,0.7174113998189569,True,45,-,-,-
Y2-S2-158K20,2,14,AS,train,45,↓,down,↓,0.6012710002250969,True,45,-,-,-
Y2-S2-158K20,2,15,AS,train,31,←,left,←,0.6509479996748269,True,45,-,-,-
Y2-S2-158K20,2,16,AS,train,50,↑,up,↑,0.6355683002620935,True,45,-,-,-
Y2-S2-158K20,2,17,AS,train,42,←,left,←,0.5508162998594344,True,45,-,-,-
Y2-S2-158K20,2,18,AS,train,43,↓,down,↓,0.7505060001276433,True,45,-,-,-
Y2-S2-158K20,2,19,AS,train,47,←,left,←,0.5010939999483526,True,45,-,-,-
Y2-S2-158K20,2,20,AS,train,28,↓,down,↓,0.5847665001638234,True,45,-,-,-
Y2-S2-158K20,-,21,PS,adaptive,42,←,no_key,no_letter,-1.0,False,10,-1,0,0
Y2-S2-158K20,-,22,PS,adaptive,25,↑,up,↑,0.7394992997869849,True,11,-1,0,0
Y2-S2-158K20,-,23,PS,adaptive,46,↓,down,↓,0.7494568000547588,True,11,-1,0,0
Y2-S2-158K20,-,24,PS,adaptive,50,↑,down,↓,0.7241549002937973,False,11,-1,0,0
Y2-S2-158K20,-,25,PS,adaptive,36,→,right,→,0.48738189972937107,True,12,-1,0,0
Y2-S2-158K20,-,26,PS,adaptive,47,↓,down,↓,0.4924288000911474,True,12,-1,0,0
Y2-S2-158K20,-,27,PS,adaptive,33,↑,up,↑,0.598516299854964,True,12,1,1,1
Y2-S2-158K20,-,28,PS,adaptive,49,→,left,←,0.6728187999688089,False,11,-1,1,2
Y2-S2-158K20,-,29,PS,adaptive,37,↓,down,↓,0.6051382999867201,True,12,-1,0,2
Y2-S2-158K20,-,30,PS,adaptive,43,↑,up,↑,1.0144474999979138,True,12,-1,0,2
Y2-S2-158K20,-,31,PS,adaptive,40,→,right,→,0.5744755999185145,True,12,1,1,3
Y2-S2-158K20,-,32,PS,adaptive,26,↑,up,↑,0.46807789988815784,True,11,1,0,3
Y2-S2-158K20,-,33,PS,adaptive,28,←,left,←,0.47321010008454323,True,11,1,0,3
Y2-S2-158K20,-,34,PS,adaptive,41,↑,up,↑,0.4535189000889659,True,11,1,0,3
Y2-S2-158K20,-,35,PS,adaptive,41,←,left,←,0.4827674003317952,True,10,1,0,3
Y2-S2-158K20,-,36,PS,adaptive,29,↑,up,↑,0.38718799967318773,True,10,1,0,3
Y2-S2-158K20,-,37,PS,adaptive,43,←,left,←,1.0050387000665069,True,10,1,0,3
Y2-S2-158K20,-,38,PS,adaptive,44,↓,down,↓,0.5161035000346601,True,9,1,0,3
Y2-S2-158K20,-,39,PS,adaptive,28,→,left,←,0.5650375001132488,False,9,-1,1,4
Y2-S2-158K20,-,40,AS,adaptive,43,↓,down,↓,0.5537205999717116,True,20,0,0,0
Y2-S2-158K20,-,41,AS,adaptive,26,↑,up,↑,0.525787599850446,True,20,0,0,0
Y2-S2-158K20,-,42,AS,adaptive,41,←,left,←,1.641170599963516,True,20,1,0,0
Y2-S2-158K20,-,43,AS,adaptive,28,↑,up,↑,0.5104322000406682,True,19,1,0,0
Y2-S2-158K20,-,44,AS,adaptive,46,→,left,←,0.621707399841398,False,19,-1,1,1
Y2-S2-158K20,-,45,AS,adaptive,25,↑,up,↑,0.679020999930799,True,20,-1,0,1
Y2-S2-158K20,-,46,AS,adaptive,26,→,right,→,1.2989809000864625,True,20,-1,0,1
Y2-S2-158K20,-,47,AS,adaptive,42,↑,right,→,1.1455479003489017,False,20,-1,0,1
Y2-S2-158K20,-,48,AS,adaptive,38,↓,down,↓,0.7772327000275254,True,21,-1,0,1
Y2-S2-158K20,-,49,AS,adaptive,28,←,left,←,0.5965924998745322,True,21,-1,0,1
Y2-S2-158K20,-,50,AS,adaptive,41,↑,up,↑,1.2861506999470294,True,21,1,1,2
Y2-S2-158K20,-,51,AS,adaptive,39,↓,up,↑,0.9977640998549759,False,20,-1,1,3
Y2-S2-158K20,-,52,AS,adaptive,46,↑,up,↑,0.821044699754566,True,21,-1,0,3
Y2-S2-158K20,-,53,AS,adaptive,30,↓,down,↓,0.5977177997119725,True,21,-1,0,3
Y2-S2-158K20,-,54,AS,adaptive,50,←,no_key,no_letter,-1.0,False,21,-1,0,3
Y2-S2-158K20,-,55,AS,adaptive,26,→,right,→,0.7899063001386821,True,22,-1,0,3
Y2-S2-158K20,-,56,AS,adaptive,49,↑,up,↑,0.4504875997081399,True,22,-1,0,3
Y2-S2-158K20,-,57,AS,adaptive,31,→,right,→,0.5753863998688757,True,22,1,1,4
Y2-S2-158K20,1,58,AS,intra_train,36,↓,down,↓,0.5840435000136495,True,31,-,-,-
Y2-S2-158K20,1,59,AS,intra_train,48,→,right,→,0.48445199988782406,True,31,-,-,-
Y2-S2-158K20,1,60,AS,intra_train,33,↑,up,↑,0.5341445002704859,True,31,-,-,-
Y2-S2-158K20,1,61,AS,intra_train,46,←,left,←,0.4177139000967145,True,31,-,-,-
Y2-S2-158K20,1,62,AS,intra_train,36,↓,down,↓,0.5673372000455856,True,31,-,-,-
Y2-S2-158K20,1,63,AS,exp,27,↑,up,↑,0.46623080037534237,True,21,0,0,0
Y2-S2-158K20,1,64,AS,exp,41,←,left,←,0.5563425999134779,True,21,0,0,0
Y2-S2-158K20,1,65,AS,exp,30,↑,up,↑,0.41724450001493096,True,21,1,0,0
Y2-S2-158K20,1,66,AS,exp,26,←,left,←,0.4175516003742814,True,20,1,0,0
Y2-S2-158K20,1,67,AS,exp,31,↓,down,↓,0.7092782999388874,True,20,1,0,0
Y2-S2-158K20,1,68,AS,exp,29,→,left,←,0.4507344998419285,False,20,-1,1,1
Y2-S2-158K20,1,69,AS,exp,31,←,no_key,no_letter,-1.0,False,21,-1,0,1
Y2-S2-158K20,1,70,AS,exp,31,↑,up,↑,0.6275244997814298,True,22,-1,0,1
Y2-S2-158K20,1,71,AS,exp,31,→,no_key,no_letter,-1.0,False,22,-1,0,1
Y2-S2-158K20,1,72,AS,exp,30,↑,up,↑,0.5598384998738766,True,23,-1,0,1
Y2-S2-158K20,1,73,AS,exp,48,→,right,→,0.46711739990860224,True,23,-1,0,1
Y2-S2-158K20,1,74,AS,exp,37,←,left,←,0.6090763001702726,True,23,1,1,2
Y2-S2-158K20,1,75,AS,exp,46,↓,down,↓,0.7664353000000119,True,22,1,0,2
Y2-S2-158K20,1,76,AS,exp,48,↑,up,↑,0.5010878001339734,True,22,1,0,2
Y2-S2-158K20,1,77,AS,exp,31,↓,down,↓,0.5958052999339998,True,22,1,0,2
Y2-S2-158K20,1,78,AS,exp,36,←,left,←,0.46730019990354776,True,21,1,0,2
Y2-S2-158K20,1,79,AS,exp,35,→,right,→,0.5664238999597728,True,21,1,0,2
Y2-S2-158K20,1,80,AS,exp,33,←,up,↑,1.77510890038684,False,21,-1,1,3
Y2-S2-158K20,1,81,AS,exp,45,↓,down,↓,0.7211007000878453,True,22,-1,0,3
Y2-S2-158K20,1,82,AS,exp,44,↑,up,↑,0.44968160009011626,True,22,-1,0,3
Y2-S2-158K20,1,83,AS,exp,25,↓,down,↓,0.6188431000337005,True,22,1,1,4
Y2-S2-158K20,1,84,AS,exp,42,←,left,←,0.4673807001672685,True,21,1,0,4
Y2-S2-158K20,1,85,AS,exp,26,↑,no_key,no_letter,-1.0,False,21,-1,1,5
Y2-S2-158K20,1,86,AS,exp,46,↓,down,↓,0.6355416001752019,True,22,-1,0,5
Y2-S2-158K20,1,87,AS,exp,42,→,right,→,0.4675125000067055,True,22,-1,0,5
Y2-S2-158K20,1,88,AS,exp,40,←,left,←,0.46712009981274605,True,22,1,1,6
Y2-S2-158K20,1,89,AS,exp,49,↓,down,↓,0.7583775999955833,True,21,1,0,6
Y2-S2-158K20,1,90,AS,exp,49,→,right,→,0.9200868001207709,True,21,1,0,6
Y2-S2-158K20,1,91,AS,exp,34,↓,down,↓,0.5501617998816073,True,21,1,0,6
Y2-S2-158K20,1,92,AS,exp,29,←,left,←,0.5673630000092089,True,20,1,0,6
Y2-S2-158K20,1,93,AS,exp,32,↓,down,↓,0.5244053001515567,True,20,1,0,6
Y2-S2-158K20,1,94,AS,exp,27,→,right,→,0.7928531998768449,True,20,1,0,6
Y2-S2-158K20,1,95,AS,exp,49,↓,down,↓,0.9724734998308122,True,19,1,0,6
Y2-S2-158K20,1,96,AS,exp,27,→,right,→,0.6368089001625776,True,19,1,0,6
Y2-S2-158K20,1,97,AS,exp,27,←,left,←,0.6239099996164441,True,19,1,0,6
Y2-S2-158K20,1,98,AS,exp,41,↑,up,↑,0.6083973003551364,True,18,1,0,6
Y2-S2-158K20,1,99,AS,exp,47,→,right,→,0.5004131998866796,True,18,1,0,6
Y2-S2-158K20,1,100,AS,exp,35,←,left,←,0.49929310008883476,True,18,1,0,6
Y2-S2-158K20,1,101,AS,exp,37,↑,up,↑,0.4590722997672856,True,17,1,0,6
Y2-S2-158K20,1,102,AS,exp,43,↓,up,↑,0.7003675997257233,False,17,-1,1,7
Y2-S2-158K20,1,103,AS,exp,42,←,left,←,0.6147930999286473,True,18,-1,0,7
Y2-S2-158K20,1,104,AS,exp,42,↓,down,↓,0.778452499769628,True,18,-1,0,7
Y2-S2-158K20,1,105,AS,exp,44,←,left,←,0.7571319998241961,True,18,1,1,8
Y2-S2-158K20,1,106,AS,exp,42,→,right,→,0.5862998003140092,True,17,1,0,8
Y2-S2-158K20,1,107,AS,exp,40,←,left,←,0.5910509000532329,True,17,1,0,8
Y2-S2-158K20,1,108,AS,exp,31,↑,up,↑,0.9028433002531528,True,17,1,0,8
Y2-S2-158K20,1,109,AS,exp,26,↓,down,↓,0.5175050999969244,True,16,1,0,8
Y2-S2-158K20,1,110,AS,exp,28,↑,up,↑,0.753345400094986,True,16,1,0,8
Y2-S2-158K20,1,111,AS,exp,41,←,right,→,0.7915610000491142,False,16,-1,1,9
Y2-S2-158K20,1,112,AS,exp,32,↑,up,↑,0.5972215998917818,True,17,-1,0,9
Y2-S2-158K20,1,113,AS,exp,33,↓,down,↓,0.7913643000647426,True,17,-1,0,9
Y2-S2-158K20,1,114,AS,exp,33,←,left,←,0.7183432001620531,True,17,1,1,10
Y2-S2-158K20,1,115,AS,exp,31,→,right,→,0.5048887003213167,True,16,1,0,10
Y2-S2-158K20,1,116,AS,exp,36,←,no_key,no_letter,-1.0,False,16,-1,1,11
Y2-S2-158K20,1,117,AS,exp,30,↓,right,→,0.7135018999688327,False,17,-1,0,11
Y2-S2-158K20,1,118,AS,exp,29,←,left,←,0.4884931999258697,True,18,-1,0,11
Y2-S2-158K20,1,119,AS,exp,47,↑,up,↑,0.49172160029411316,True,18,-1,0,11
Y2-S2-158K20,1,120,AS,exp,46,→,right,→,0.4340490000322461,True,18,1,1,12
Y2-S2-158K20,1,121,AS,exp,25,↑,up,↑,0.8294361000880599,True,17,1,0,12
Y2-S2-158K20,1,122,AS,exp,31,↓,right,→,0.7296291003003716,False,17,-1,1,13
Y2-S2-158K20,1,123,AS,exp,41,←,left,←,0.6450539999641478,True,18,-1,0,13
Y2-S2-158K20,1,124,AS,exp,26,→,right,→,0.6172845000401139,True,18,-1,0,13
Y2-S2-158K20,1,125,AS,exp,31,↓,down,↓,0.5672267000190914,True,18,1,1,14
Y2-S2-158K20,1,126,AS,exp,35,←,left,←,0.6463659997098148,True,17,1,0,14
Y2-S2-158K20,1,127,AS,exp,46,↑,up,↑,0.4870834997855127,True,17,1,0,14
Y2-S2-158K20,1,128,AS,exp,49,↓,up,↑,0.5803780998103321,False,17,-1,1,15
Y2-S2-158K20,1,129,AS,exp,31,←,no_key,no_letter,-1.0,False,18,-1,0,15
Y2-S2-158K20,1,130,AS,exp,46,↓,down,↓,0.5934971999377012,True,19,-1,0,15
Y2-S2-158K20,1,131,AS,exp,34,→,right,→,1.3440507003106177,True,19,-1,0,15
Y2-S2-158K20,1,132,AS,exp,33,↑,up,↑,0.43392320023849607,True,19,1,1,16
Y2-S2-158K20,2,133,PS,intra_train,46,→,right,→,0.4562979000620544,True,15,-,-,-
Y2-S2-158K20,2,134,PS,intra_train,27,↑,left,←,0.6424905001185834,False,15,-,-,-
Y2-S2-158K20,2,135,PS,intra_train,32,→,right,→,0.4423766997642815,True,15,-,-,-
Y2-S2-158K20,2,136,PS,intra_train,50,←,left,←,0.5171803999692202,True,15,-,-,-
Y2-S2-158K20,2,137,PS,intra_train,39,↓,down,↓,1.0992483999580145,True,15,-,-,-
Y2-S2-158K20,2,138,PS,exp,50,→,left,←,0.7209564996883273,False,10,-1,0,0
Y2-S2-158K20,2,139,PS,exp,45,↓,up,↑,0.6924244998954237,False,11,-1,0,0
Y2-S2-158K20,2,140,PS,exp,40,←,left,←,0.4710484999231994,True,12,-1,0,0
Y2-S2-158K20,2,141,PS,exp,32,→,right,→,0.4976316997781396,True,12,-1,0,0
Y2-S2-158K20,2,142,PS,exp,49,↑,up,↑,0.6994698997586966,True,12,1,1,1
Y2-S2-158K20,2,143,PS,exp,47,←,left,←,0.562830800190568,True,11,1,0,1
Y2-S2-158K20,2,144,PS,exp,38,↓,down,↓,0.5793829001486301,True,11,1,0,1
Y2-S2-158K20,2,145,PS,exp,30,←,left,←,0.5363548002205789,True,11,1,0,1
Y2-S2-158K20,2,146,PS,exp,25,→,left,←,0.6481538000516593,False,10,-1,1,2
Y2-S2-158K20,2,147,PS,exp,48,↑,up,↑,0.6757829999551177,True,11,-1,0,2
Y2-S2-158K20,2,148,PS,exp,32,↓,down,↓,0.5032167001627386,True,11,-1,0,2
Y2-S2-158K20,2,149,PS,exp,34,→,right,→,0.4557315004058182,True,11,1,1,3
Y2-S2-158K20,2,150,PS,exp,30,←,left,←,0.5323719000443816,True,10,1,0,3
Y2-S2-158K20,2,151,PS,exp,35,↑,left,←,0.6789619997143745,False,10,-1,1,4
Y2-S2-158K20,2,152,PS,exp,36,←,left,←,0.4583104997873306,True,11,-1,0,4
Y2-S2-158K20,2,153,PS,exp,47,↓,down,↓,0.5006416998803616,True,11,-1,0,4
Y2-S2-158K20,2,154,PS,exp,33,↑,left,←,0.7057928000576794,False,11,-1,0,4
Y2-S2-158K20,2,155,PS,exp,27,→,right,→,0.3923412999138236,True,12,-1,0,4
Y2-S2-158K20,2,156,PS,exp,26,↑,left,←,0.6658493001013994,False,12,-1,0,4
Y2-S2-158K20,2,157,PS,exp,33,←,left,←,0.4512952999211848,True,13,-1,0,4
Y2-S2-158K20,2,158,PS,exp,47,→,right,→,0.49286659993231297,True,13,-1,0,4
Y2-S2-158K20,2,159,PS,exp,38,↑,up,↑,0.41441839979961514,True,13,1,1,5
Y2-S2-158K20,2,160,PS,exp,40,↓,down,↓,0.5640710997395217,True,12,1,0,5
Y2-S2-158K20,2,161,PS,exp,39,←,left,←,0.4714416000060737,True,12,1,0,5
Y2-S2-158K20,2,162,PS,exp,50,→,right,→,0.38670470006763935,True,12,1,0,5
Y2-S2-158K20,2,163,PS,exp,35,↑,up,↑,0.4449764001183212,True,11,1,0,5
Y2-S2-158K20,2,164,PS,exp,31,←,left,←,0.419618499930948,True,11,1,0,5
Y2-S2-158K20,2,165,PS,exp,27,→,right,→,0.4530696999281645,True,11,1,0,5
Y2-S2-158K20,2,166,PS,exp,25,↓,down,↓,0.47048800019547343,True,10,1,0,5
Y2-S2-158K20,2,167,PS,exp,25,↑,left,←,0.6273553003557026,False,10,-1,1,6
Y2-S2-158K20,2,168,PS,exp,32,←,left,←,0.4314124002121389,True,11,-1,0,6
Y2-S2-158K20,2,169,PS,exp,34,↓,up,↑,0.6508054998703301,False,11,-1,0,6
Y2-S2-158K20,2,170,PS,exp,28,→,right,→,0.4044502000324428,True,12,-1,0,6
Y2-S2-158K20,2,171,PS,exp,41,←,left,←,0.45675320038571954,True,12,-1,0,6
Y2-S2-158K20,2,172,PS,exp,49,↓,down,↓,0.540639900136739,True,12,1,1,7
Y2-S2-158K20,2,173,PS,exp,45,→,right,→,0.397934400010854,True,11,1,0,7
Y2-S2-158K20,2,174,PS,exp,40,←,left,←,0.3790955999866128,True,11,1,0,7
Y2-S2-158K20,2,175,PS,exp,39,→,left,←,0.8593469001352787,False,11,-1,1,8
Y2-S2-158K20,2,176,PS,exp,35,←,left,←,0.3801012998446822,True,12,-1,0,8
Y2-S2-158K20,2,177,PS,exp,29,↓,down,↓,0.5868071997538209,True,12,-1,0,8
Y2-S2-158K20,2,178,PS,exp,40,←,left,←,0.374477700330317,True,12,1,1,9
Y2-S2-158K20,2,179,PS,exp,43,→,right,→,0.48440209962427616,True,11,1,0,9
Y2-S2-158K20,2,180,PS,exp,48,↓,down,↓,0.5019789999350905,True,11,1,0,9
Y2-S2-158K20,2,181,PS,exp,27,→,left,←,0.840709500014782,False,11,-1,1,10
Y2-S2-158K20,2,182,PS,exp,50,↑,up,↑,0.3723601996898651,True,12,-1,0,10
Y2-S2-158K20,2,183,PS,exp,47,→,right,→,0.3974187998101115,True,12,-1,0,10
Y2-S2-158K20,2,184,PS,exp,38,↓,down,↓,0.4483083002269268,True,12,1,1,11
Y2-S2-158K20,2,185,PS,exp,32,→,right,→,0.3612063997425139,True,11,1,0,11
Y2-S2-158K20,2,186,PS,exp,45,←,left,←,1.473404100164771,True,11,1,0,11
Y2-S2-158K20,2,187,PS,exp,27,↑,up,↑,0.3873151997104287,True,11,1,0,11
Y2-S2-158K20,2,188,PS,exp,34,↓,up,↑,0.5529674999415874,False,10,-1,1,12
Y2-S2-158K20,2,189,PS,exp,30,→,right,→,0.37804390024393797,True,11,-1,0,12
Y2-S2-158K20,2,190,PS,exp,27,↓,left,←,0.693628600332886,False,11,-1,0,12
Y2-S2-158K20,2,191,PS,exp,39,→,right,→,0.3795467000454664,True,12,-1,0,12
Y2-S2-158K20,2,192,PS,exp,48,↓,right,→,0.7902371999807656,False,12,-1,0,12
Y2-S2-158K20,2,193,PS,exp,42,↑,up,↑,0.4377479003742337,True,13,-1,0,12
Y2-S2-158K20,2,194,PS,exp,49,→,right,→,0.3979374999180436,True,13,-1,0,12
Y2-S2-158K20,2,195,PS,exp,40,←,left,←,0.4829426999203861,True,13,1,1,13
Y2-S2-158K20,2,196,PS,exp,39,↓,down,↓,0.4844819996505976,True,12,1,0,13
Y2-S2-158K20,2,197,PS,exp,34,←,up,↑,0.932780200149864,False,12,-1,1,14
Y2-S2-158K20,2,198,PS,exp,43,↓,down,↓,0.5598880001343787,True,13,-1,0,14
Y2-S2-158K20,2,199,PS,exp,26,←,left,←,0.5636898004449904,True,13,-1,0,14
Y2-S2-158K20,2,200,PS,exp,35,→,left,←,0.6859170002862811,False,13,-1,0,14
Y2-S2-158K20,2,201,PS,exp,38,↑,up,↑,0.4035968999378383,True,14,-1,0,14
Y2-S2-158K20,2,202,PS,exp,26,↓,down,↓,0.7831259998492897,True,14,-1,0,14
Y2-S2-158K20,2,203,PS,exp,42,↑,up,↑,0.4525247998535633,True,14,1,1,15
Y2-S2-158K20,2,204,PS,exp,28,→,right,→,0.7650848999619484,True,13,1,0,15
Y2-S2-158K20,2,205,PS,exp,43,↑,up,↑,0.43548159999772906,True,13,1,0,15
Y2-S2-158K20,2,206,PS,exp,43,→,right,→,0.4714494999498129,True,13,1,0,15
Y2-S2-158K20,2,207,PS,exp,45,↑,up,↑,0.4447559001855552,True,12,1,0,15
Y2-S2-158K20,2,208,PS,exp,34,→,right,→,0.4644594001583755,True,12,1,0,15
Y2-S2-158K20,2,209,PS,exp,46,↓,down,↓,0.4934791000559926,True,12,1,0,15
Y2-S2-158K20,2,210,PS,exp,27,→,right,→,0.5394793995656073,True,11,1,0,15
Y2-S2-158K20,2,211,PS,exp,41,↑,up,↑,0.514919700101018,True,11,1,0,15
Y2-S2-158K20,2,212,PS,exp,26,→,right,→,0.4442861001007259,True,11,1,0,15
Y2-S2-158K20,2,213,PS,exp,35,←,right,→,0.8413154999725521,False,10,-1,1,16
Y2-S2-158K20,3,214,PS,intra_train,46,→,right,→,0.45433919969946146,True,15,-,-,-
Y2-S2-158K20,3,215,PS,intra_train,40,↑,up,↑,0.5177229000255466,True,15,-,-,-
Y2-S2-158K20,3,216,PS,intra_train,48,→,up,↑,0.8076683999970555,False,15,-,-,-
Y2-S2-158K20,3,217,PS,intra_train,34,↑,up,↑,0.42541159968823195,True,15,-,-,-
Y2-S2-158K20,3,218,PS,intra_train,38,↓,down,↓,0.5745846000500023,True,15,-,-,-
Y2-S2-158K20,3,219,PS,exp,41,↑,up,↑,0.399078999646008,True,10,0,0,0
Y2-S2-158K20,3,220,PS,exp,26,↓,down,↓,0.5207636002451181,True,10,0,0,0
Y2-S2-158K20,3,221,PS,exp,30,↑,up,↑,0.674418400041759,True,10,1,0,0
Y2-S2-158K20,3,222,PS,exp,45,↓,down,↓,0.4606516002677381,True,9,1,0,0
Y2-S2-158K20,3,223,PS,exp,34,←,left,←,0.41669970005750656,True,9,1,0,0
Y2-S2-158K20,3,224,PS,exp,30,↑,up,↑,0.441130000166595,True,9,1,0,0
Y2-S2-158K20,3,225,PS,exp,30,←,left,←,0.5329205999150872,True,8,1,0,0
Y2-S2-158K20,3,226,PS,exp,40,→,right,→,0.43117580004036427,True,8,1,0,0
Y2-S2-158K20,3,227,PS,exp,41,↓,up,↑,0.7678553997538984,False,8,-1,1,1
Y2-S2-158K20,3,228,PS,exp,46,↑,up,↑,0.6049381997436285,True,9,-1,0,1
Y2-S2-158K20,3,229,PS,exp,38,↓,left,←,0.7767378003336489,False,9,-1,0,1
Y2-S2-158K20,3,230,PS,exp,48,←,left,←,0.6495097000151873,True,10,-1,0,1
Y2-S2-158K20,3,231,PS,exp,39,↓,down,↓,0.6337967999279499,True,10,-1,0,1
Y2-S2-158K20,3,232,PS,exp,31,→,right,→,0.5285725998692214,True,10,1,1,2
Y2-S2-158K20,3,233,PS,exp,35,←,right,→,0.7369383000768721,False,9,-1,1,3
Y2-S2-158K20,3,234,PS,exp,37,→,right,→,0.44747480005025864,True,10,-1,0,3
Y2-S2-158K20,3,235,PS,exp,49,←,right,→,0.7830868000164628,False,10,-1,0,3
Y2-S2-158K20,3,236,PS,exp,40,↑,up,↑,0.4413414001464844,True,11,-1,0,3
Y2-S2-158K20,3,237,PS,exp,38,→,right,→,0.5445596999488771,True,11,-1,0,3
Y2-S2-158K20,3,238,PS,exp,46,←,right,→,0.5096733998507261,False,11,-1,0,3
Y2-S2-158K20,3,239,PS,exp,42,↓,down,↓,0.5619918000884354,True,12,-1,0,3
Y2-S2-158K20,3,240,PS,exp,25,←,left,←,0.4754276000894606,True,12,-1,0,3
Y2-S2-158K20,3,241,PS,exp,37,↑,up,↑,0.48164959996938705,True,12,1,1,4
Y2-S2-158K20,3,242,PS,exp,50,→,right,→,0.5197481997311115,True,11,1,0,4
Y2-S2-158K20,3,243,PS,exp,49,↑,up,↑,0.4514289000071585,True,11,1,0,4
Y2-S2-158K20,3,244,PS,exp,34,↓,down,↓,0.47201049979776144,True,11,1,0,4
Y2-S2-158K20,3,245,PS,exp,33,←,left,←,0.6054676999337971,True,10,1,0,4
Y2-S2-158K20,3,246,PS,exp,31,→,right,→,0.43299989961087704,True,10,1,0,4
Y2-S2-158K20,3,247,PS,exp,41,↑,up,↑,0.42318479996174574,True,10,1,0,4
Y2-S2-158K20,3,248,PS,exp,33,→,right,→,0.41449409956112504,True,9,1,0,4
Y2-S2-158K20,3,249,PS,exp,45,↓,down,↓,0.530842799693346,True,9,1,0,4
Y2-S2-158K20,3,250,PS,exp,50,←,right,→,0.5650001000612974,False,9,-1,1,5
Y2-S2-158K20,3,251,PS,exp,45,↓,down,↓,0.5042511997744441,True,10,-1,0,5
Y2-S2-158K20,3,252,PS,exp,34,↑,up,↑,0.4043910000473261,True,10,-1,0,5
Y2-S2-158K20,3,253,PS,exp,37,←,left,←,0.4279813002794981,True,10,1,1,6
Y2-S2-158K20,3,254,PS,exp,37,↑,up,↑,0.3861775998957455,True,9,1,0,6
Y2-S2-158K20,3,255,PS,exp,39,←,left,←,0.5872451001778245,True,9,1,0,6
Y2-S2-158K20,3,256,PS,exp,46,→,right,→,0.45779059967026114,True,9,1,0,6
Y2-S2-158K20,3,257,PS,exp,25,↑,up,↑,0.44868999999016523,True,8,1,0,6
Y2-S2-158K20,3,258,PS,exp,44,→,right,→,0.4730974999256432,True,8,1,0,6
Y2-S2-158K20,3,259,PS,exp,42,↓,right,→,0.6643276000395417,False,8,-1,1,7
Y2-S2-158K20,3,260,PS,exp,44,→,left,←,0.7954251999035478,False,9,-1,0,7
Y2-S2-158K20,3,261,PS,exp,31,←,left,←,0.49674469977617264,True,10,-1,0,7
Y2-S2-158K20,3,262,PS,exp,34,↑,up,↑,0.48115439992398024,True,10,-1,0,7
Y2-S2-158K20,3,263,PS,exp,27,↓,down,↓,0.5474849999882281,True,10,1,1,8
Y2-S2-158K20,3,264,PS,exp,36,↑,left,←,0.687699300237,False,9,-1,1,9
Y2-S2-158K20,3,265,PS,exp,45,↓,down,↓,0.49886110005900264,True,10,-1,0,9
Y2-S2-158K20,3,266,PS,exp,36,↑,up,↑,0.5107578001916409,True,10,-1,0,9
Y2-S2-158K20,3,267,PS,exp,29,←,left,←,0.4798421999439597,True,10,1,1,10
Y2-S2-158K20,3,268,PS,exp,50,→,right,→,0.45729679986834526,True,9,1,0,10
Y2-S2-158K20,3,269,PS,exp,32,←,left,←,0.7621908001601696,True,9,1,0,10
Y2-S2-158K20,3,270,PS,exp,39,↑,up,↑,0.4178430000320077,True,9,1,0,10
Y2-S2-158K20,3,271,PS,exp,33,→,right,→,0.5062918998301029,True,8,1,0,10
Y2-S2-158K20,3,272,PS,exp,35,↓,left,←,0.5451901000924408,False,8,-1,1,11
Y2-S2-158K20,3,273,PS,exp,32,←,left,←,0.4308114997111261,True,9,-1,0,11
Y2-S2-158K20,3,274,PS,exp,36,↓,down,↓,0.5588601999916136,True,9,-1,0,11
Y2-S2-158K20,3,275,PS,exp,38,←,right,→,0.5688237999565899,False,9,-1,0,11
Y2-S2-158K20,3,276,PS,exp,41,→,right,→,0.47541540022939444,True,10,-1,0,11
Y2-S2-158K20,3,277,PS,exp,33,↓,down,↓,0.5094774998724461,True,10,-1,0,11
Y2-S2-158K20,3,278,PS,exp,37,→,right,→,0.4675855999812484,True,10,1,1,12
Y2-S2-158K20,3,279,PS,exp,41,↓,right,→,0.8440999002195895,False,9,-1,1,13
Y2-S2-158K20,3,280,PS,exp,48,←,down,↓,1.0620383000932634,False,10,-1,0,13
Y2-S2-158K20,3,281,PS,exp,27,→,right,→,0.446836999617517,True,11,-1,0,13
Y2-S2-158K20,3,282,PS,exp,29,↓,right,→,0.8857990000396967,False,11,-1,0,13
Y2-S2-158K20,3,283,PS,exp,39,→,right,→,0.46145560033619404,True,12,-1,0,13
Y2-S2-158K20,3,284,PS,exp,33,↓,down,↓,0.580810199957341,True,12,-1,0,13
Y2-S2-158K20,3,285,PS,exp,42,←,down,↓,0.6057366002351046,False,12,-1,0,13
Y2-S2-158K20,3,286,PS,exp,33,↑,up,↑,0.4333935999311507,True,13,-1,0,13
Y2-S2-158K20,3,287,PS,exp,39,←,left,←,0.42324749985709786,True,13,-1,0,13
Y2-S2-158K20,3,288,PS,exp,26,↑,up,↑,0.4347271998412907,True,13,1,1,14
Y2-S2-158K20,3,289,PS,exp,39,←,left,←,0.42549649998545647,True,12,1,0,14
Y2-S2-158K20,3,290,PS,exp,37,↑,right,→,0.6363884997554123,False,12,-1,1,15
Y2-S2-158K20,3,291,PS,exp,25,→,no_key,no_letter,-1.0,False,13,-1,0,15
Y2-S2-158K20,3,292,PS,exp,27,↓,down,↓,0.49743989994749427,True,14,-1,0,15
Y2-S2-158K20,3,293,PS,exp,46,←,left,←,0.4725538999773562,True,14,-1,0,15
Y2-S2-158K20,3,294,PS,exp,25,↑,up,↑,0.5061280000954866,True,14,1,1,16
Y2-S2-158K20,4,295,AS,intra_train,35,←,left,←,0.5842414000071585,True,31,-,-,-
Y2-S2-158K20,4,296,AS,intra_train,48,↓,down,↓,0.8667493998073041,True,31,-,-,-
Y2-S2-158K20,4,297,AS,intra_train,25,←,left,←,0.5173626998439431,True,31,-,-,-
Y2-S2-158K20,4,298,AS,intra_train,50,→,right,→,0.934370799921453,True,31,-,-,-
Y2-S2-158K20,4,299,AS,intra_train,37,↑,up,↑,0.7718111998401582,True,31,-,-,-
Y2-S2-158K20,4,300,AS,exp,40,↓,down,↓,0.43407189985737205,True,21,0,0,0
Y2-S2-158K20,4,301,AS,exp,48,→,down,↓,0.9512379998341203,False,21,-1,0,0
Y2-S2-158K20,4,302,AS,exp,49,↑,up,↑,0.6811632998287678,True,22,-1,0,0
Y2-S2-158K20,4,303,AS,exp,27,↓,down,↓,0.5006561004556715,True,22,-1,0,0
Y2-S2-158K20,4,304,AS,exp,41,↑,down,↓,1.1696597002446651,False,22,-1,0,0
Y2-S2-158K20,4,305,AS,exp,45,↓,down,↓,0.5172226000577211,True,23,-1,0,0
Y2-S2-158K20,4,306,AS,exp,50,←,left,←,0.4672751999460161,True,23,-1,0,0
Y2-S2-158K20,4,307,AS,exp,47,↑,up,↑,0.5003561000339687,True,23,1,1,1
Y2-S2-158K20,4,308,AS,exp,38,←,left,←,0.5007203998975456,True,22,1,0,1
Y2-S2-158K20,4,309,AS,exp,50,↓,down,↓,0.5774718001484871,True,22,1,0,1
Y2-S2-158K20,4,310,AS,exp,44,→,down,↓,0.7621126999147236,False,22,-1,1,2
Y2-S2-158K20,4,311,AS,exp,42,↓,down,↓,0.4838192998431623,True,23,-1,0,2
Y2-S2-158K20,4,312,AS,exp,30,←,left,←,0.5004849997349083,True,23,-1,0,2
Y2-S2-158K20,4,313,AS,exp,47,↓,down,↓,0.8356433999724686,True,23,1,1,3
Y2-S2-158K20,4,314,AS,exp,41,↑,down,↓,0.5425939997658134,False,22,-1,1,4
Y2-S2-158K20,4,315,AS,exp,36,→,right,→,0.5578346997499466,True,23,-1,0,4
Y2-S2-158K20,4,316,AS,exp,36,←,no_key,no_letter,-1.0,False,23,-1,0,4
Y2-S2-158K20,4,317,AS,exp,43,↑,up,↑,0.6793160997331142,True,24,-1,0,4
Y2-S2-158K20,4,318,AS,exp,29,↓,down,↓,0.7331976001150906,True,24,-1,0,4
Y2-S2-158K20,4,319,AS,exp,42,↑,up,↑,0.5950242001563311,True,24,1,1,5
Y2-S2-158K20,4,320,AS,exp,43,↓,down,↓,0.41751720011234283,True,23,1,0,5
Y2-S2-158K20,4,321,AS,exp,44,←,left,←,0.46718440018594265,True,23,1,0,5
Y2-S2-158K20,4,322,AS,exp,32,↑,up,↑,0.40050500025972724,True,23,1,0,5
Y2-S2-158K20,4,323,AS,exp,26,↓,up,↑,0.46717539988458157,False,22,-1,1,6
Y2-S2-158K20,4,324,AS,exp,39,↑,up,↑,0.802124900277704,True,23,-1,0,6
Y2-S2-158K20,4,325,AS,exp,34,→,right,→,0.6727315001189709,True,23,-1,0,6
Y2-S2-158K20,4,326,AS,exp,46,←,left,←,0.4338552001863718,True,23,1,1,7
Y2-S2-158K20,4,327,AS,exp,34,↑,up,↑,0.7271729996427894,True,22,1,0,7
Y2-S2-158K20,4,328,AS,exp,32,→,left,←,0.5363401998765767,False,22,-1,1,8
Y2-S2-158K20,4,329,AS,exp,25,↑,up,↑,0.4673811001703143,True,23,-1,0,8
Y2-S2-158K20,4,330,AS,exp,34,↓,down,↓,0.6713267997838557,True,23,-1,0,8
Y2-S2-158K20,4,331,AS,exp,40,↑,up,↑,0.6521438998170197,True,23,1,1,9
Y2-S2-158K20,4,332,AS,exp,28,→,right,→,0.6550696999765933,True,22,1,0,9
Y2-S2-158K20,4,333,AS,exp,48,↑,up,↑,0.41731199994683266,True,22,1,0,9
Y2-S2-158K20,4,334,AS,exp,25,←,left,←,1.387434700038284,True,22,1,0,9
Y2-S2-158K20,4,335,AS,exp,25,↓,down,↓,0.5346813001669943,True,21,1,0,9
Y2-S2-158K20,4,336,AS,exp,49,→,right,→,0.7048244997859001,True,21,1,0,9
Y2-S2-158K20,4,337,AS,exp,32,↓,down,↓,0.4504591003060341,True,21,1,0,9
Y2-S2-158K20,4,338,AS,exp,35,↑,up,↑,0.40084389969706535,True,20,1,0,9
Y2-S2-158K20,4,339,AS,exp,42,↓,down,↓,0.661312900017947,True,20,1,0,9
Y2-S2-158K20,4,340,AS,exp,41,←,right,→,0.5369640002027154,False,20,-1,1,10
Y2-S2-158K20,4,341,AS,exp,46,→,right,→,0.6888075000606477,True,21,-1,0,10
Y2-S2-158K20,4,342,AS,exp,40,↑,up,↑,0.5345331002026796,True,21,-1,0,10
Y2-S2-158K20,4,343,AS,exp,34,→,right,→,0.631239500362426,True,21,1,1,11
Y2-S2-158K20,4,344,AS,exp,36,←,left,←,0.6732154996134341,True,20,1,0,11
Y2-S2-158K20,4,345,AS,exp,29,↓,down,↓,0.6619690000079572,True,20,1,0,11
Y2-S2-158K20,4,346,AS,exp,27,←,left,←,0.5843588998541236,True,20,1,0,11
Y2-S2-158K20,4,347,AS,exp,47,↓,down,↓,0.5857881000265479,True,19,1,0,11
Y2-S2-158K20,4,348,AS,exp,44,→,right,→,0.956508900038898,True,19,1,0,11
Y2-S2-158K20,4,349,AS,exp,38,↑,up,↑,0.41727689979597926,True,19,1,0,11
Y2-S2-158K20,4,350,AS,exp,42,↓,down,↓,0.7382611003704369,True,18,1,0,11
Y2-S2-158K20,4,351,AS,exp,39,→,right,→,0.8429002999328077,True,18,1,0,11
Y2-S2-158K20,4,352,AS,exp,38,↓,down,↓,0.6610028999857605,True,18,1,0,11
Y2-S2-158K20,4,353,AS,exp,32,→,right,→,0.4961197003722191,True,17,1,0,11
Y2-S2-158K20,4,354,AS,exp,49,↓,down,↓,1.3985080001875758,True,17,1,0,11
Y2-S2-158K20,4,355,AS,exp,30,↑,up,↑,0.8839173000305891,True,17,1,0,11
Y2-S2-158K20,4,356,AS,exp,35,→,right,→,1.1727963001467288,True,16,1,0,11
Y2-S2-158K20,4,357,AS,exp,40,↑,up,↑,0.5195963000878692,True,16,1,0,11
Y2-S2-158K20,4,358,AS,exp,32,←,left,←,0.5686741997487843,True,16,1,0,11
Y2-S2-158K20,4,359,AS,exp,36,↑,up,↑,0.56515400018543,True,15,1,0,11
Y2-S2-158K20,4,360,AS,exp,34,→,right,→,0.8357581002637744,True,15,1,0,11
Y2-S2-158K20,4,361,AS,exp,50,↑,up,↑,1.1636442998424172,True,15,1,0,11
Y2-S2-158K20,4,362,AS,exp,31,↓,up,↑,0.6686038998886943,False,14,-1,1,12
Y2-S2-158K20,4,363,AS,exp,42,←,right,→,0.682939600199461,False,15,-1,0,12
Y2-S2-158K20,4,364,AS,exp,46,↑,up,↑,0.36737769981846213,True,16,-1,0,12
Y2-S2-158K20,4,365,AS,exp,33,↓,right,→,0.9079575003124774,False,16,-1,0,12
Y2-S2-158K20,4,366,AS,exp,38,↑,up,↑,0.8678267998620868,True,17,-1,0,12
Y2-S2-158K20,4,367,AS,exp,40,←,right,→,0.8352911002002656,False,17,-1,0,12
Y2-S2-158K20,4,368,AS,exp,30,↑,up,↑,0.41734719974920154,True,18,-1,0,12
Y2-S2-158K20,4,369,AS,exp,30,↓,down,↓,0.6486577996984124,True,18,-1,0,12
Y2-S2-158K20,4,370,AS,exp,41,→,right,→,0.7163719004020095,True,18,1,1,13
Y2-S2-158K20,4,371,AS,exp,47,←,left,←,0.5683622998185456,True,17,1,0,13
Y2-S2-158K20,4,372,AS,exp,37,→,right,→,0.5095130000263453,True,17,1,0,13
Y2-S2-158K20,4,373,AS,exp,49,↑,up,↑,0.989860899746418,True,17,1,0,13
Y2-S2-158K20,4,374,AS,exp,36,↓,up,↑,0.6258728001266718,False,16,-1,1,14
Y2-S2-158K20,4,375,AS,exp,25,←,left,←,0.5147876003757119,True,17,-1,0,14
Y2-S2-158K20,4,376,AS,exp,39,↓,down,↓,0.6971912998706102,True,17,-1,0,14
Y2-S2-158K20,4,377,AS,exp,32,→,right,→,1.2956860000267625,True,17,1,1,15
Y2-S2-158K20,4,378,AS,exp,31,←,left,←,0.9093333999626338,True,16,1,0,15
Y2-S2-158K20,4,379,AS,exp,26,↑,right,→,0.717317100148648,False,16,-1,1,16
Y2-S2-158K20,5,380,AS,intra_train,49,←,left,←,0.6171543998643756,True,31,-,-,-
Y2-S2-158K20,5,381,AS,intra_train,26,↓,down,↓,0.4842424998059869,True,31,-,-,-
Y2-S2-158K20,5,382,AS,intra_train,28,→,right,→,0.633988699875772,True,31,-,-,-
Y2-S2-158K20,5,383,AS,intra_train,25,←,left,←,0.617476100102067,True,31,-,-,-
Y2-S2-158K20,5,384,AS,intra_train,49,→,right,→,1.3471563998609781,True,31,-,-,-
Y2-S2-158K20,5,385,AS,exp,33,←,left,←,0.723501400090754,True,21,0,0,0
Y2-S2-158K20,5,386,AS,exp,42,→,right,→,0.7977900998666883,True,21,0,0,0
Y2-S2-158K20,5,387,AS,exp,29,←,left,←,0.5758062996901572,True,21,1,0,0
Y2-S2-158K20,5,388,AS,exp,25,↓,down,↓,0.5069832000881433,True,20,1,0,0
Y2-S2-158K20,5,389,AS,exp,50,↑,down,↓,0.5994104002602398,False,20,-1,1,1
Y2-S2-158K20,5,390,AS,exp,37,←,left,←,0.6885794000700116,True,21,-1,0,1
Y2-S2-158K20,5,391,AS,exp,26,↓,down,↓,0.5704088998027146,True,21,-1,0,1
Y2-S2-158K20,5,392,AS,exp,45,↑,up,↑,1.0804451000876725,True,21,1,1,2
Y2-S2-158K20,5,393,AS,exp,39,←,left,←,0.4510311000049114,True,20,1,0,2
Y2-S2-158K20,5,394,AS,exp,37,↓,down,↓,0.4342061998322606,True,20,1,0,2
Y2-S2-158K20,5,395,AS,exp,28,→,right,→,0.45069409999996424,True,20,1,0,2
Y2-S2-158K20,5,396,AS,exp,35,↑,up,↑,0.3840219001285732,True,19,1,0,2
Y2-S2-158K20,5,397,AS,exp,46,↓,down,↓,0.5368276000954211,True,19,1,0,2
Y2-S2-158K20,5,398,AS,exp,41,↑,up,↑,0.7775905998423696,True,19,1,0,2
Y2-S2-158K20,5,399,AS,exp,47,↓,left,←,0.9302256000228226,False,18,-1,1,3
Y2-S2-158K20,5,400,AS,exp,33,↑,up,↑,0.383835700340569,True,19,-1,0,3
Y2-S2-158K20,5,401,AS,exp,38,↓,up,↑,0.5365884997881949,False,19,-1,0,3
Y2-S2-158K20,5,402,AS,exp,44,←,left,←,0.43427109997719526,True,20,-1,0,3
Y2-S2-158K20,5,403,AS,exp,31,↓,down,↓,0.6937211998738348,True,20,-1,0,3
Y2-S2-158K20,5,404,AS,exp,50,→,right,→,0.40056880004704,True,20,1,1,4
Y2-S2-158K20,5,405,AS,exp,25,←,left,←,0.5033289003185928,True,19,1,0,4
Y2-S2-158K20,5,406,AS,exp,26,↑,up,↑,1.1209411001764238,True,19,1,0,4
Y2-S2-158K20,5,407,AS,exp,29,←,left,←,0.36750550009310246,True,19,1,0,4
Y2-S2-158K20,5,408,AS,exp,48,↑,up,↑,0.7627828000113368,True,18,1,0,4
Y2-S2-158K20,5,409,AS,exp,29,→,right,→,0.43386519979685545,True,18,1,0,4
Y2-S2-158K20,5,410,AS,exp,41,↓,down,↓,0.6745230997912586,True,18,1,0,4
Y2-S2-158K20,5,411,AS,exp,36,→,right,→,1.1991312000900507,True,17,1,0,4
Y2-S2-158K20,5,412,AS,exp,38,←,down,↓,0.763682299759239,False,17,-1,1,5
Y2-S2-158K20,5,413,AS,exp,30,↓,down,↓,0.48045590007677674,True,18,-1,0,5
Y2-S2-158K20,5,414,AS,exp,26,→,right,→,0.6989776999689639,True,18,-1,0,5
Y2-S2-158K20,5,415,AS,exp,43,↑,down,↓,0.7001998000778258,False,18,-1,0,5
Y2-S2-158K20,5,416,AS,exp,31,↓,down,↓,0.5196132999844849,True,19,-1,0,5
Y2-S2-158K20,5,417,AS,exp,49,↑,up,↑,0.3672647997736931,True,19,-1,0,5
Y2-S2-158K20,5,418,AS,exp,46,←,right,→,0.6145379999652505,False,19,-1,0,5
Y2-S2-158K20,5,419,AS,exp,43,↓,down,↓,0.6641723001375794,True,20,-1,0,5
Y2-S2-158K20,5,420,AS,exp,44,↑,up,↑,0.4340474000200629,True,20,-1,0,5
Y2-S2-158K20,5,421,AS,exp,43,→,right,→,0.6330097001045942,True,20,1,1,6
Y2-S2-158K20,5,422,AS,exp,34,←,left,←,0.45074049988761544,True,19,1,0,6
Y2-S2-158K20,5,423,AS,exp,26,↓,down,↓,0.6969450996257365,True,19,1,0,6
Y2-S2-158K20,5,424,AS,exp,50,←,left,←,0.5479268999770284,True,19,1,0,6
Y2-S2-158K20,5,425,AS,exp,33,↑,no_key,no_letter,-1.0,False,18,-1,1,7
Y2-S2-158K20,5,426,AS,exp,40,→,right,→,0.41712879994884133,True,19,-1,0,7
Y2-S2-158K20,5,427,AS,exp,29,↓,down,↓,0.6589096002280712,True,19,-1,0,7
Y2-S2-158K20,5,428,AS,exp,49,→,left,←,0.9743929002434015,False,19,-1,0,7
Y2-S2-158K20,5,429,AS,exp,33,↓,down,↓,0.6690216003917158,True,20,-1,0,7
Y2-S2-158K20,5,430,AS,exp,36,↑,up,↑,0.38383879978209734,True,20,-1,0,7
Y2-S2-158K20,5,431,AS,exp,33,←,left,←,0.4175048000179231,True,20,1,1,8
Y2-S2-158K20,5,432,AS,exp,38,→,right,→,0.4869594001211226,True,19,1,0,8
Y2-S2-158K20,5,433,AS,exp,38,↑,up,↑,0.6368701998144388,True,19,1,0,8
Y2-S2-158K20,5,434,AS,exp,43,↓,down,↓,0.45062509970739484,True,19,1,0,8
Y2-S2-158K20,5,435,AS,exp,26,←,left,←,1.2227189997211099,True,18,1,0,8
Y2-S2-158K20,5,436,AS,exp,32,↑,up,↑,0.36748139979317784,True,18,1,0,8
Y2-S2-158K20,5,437,AS,exp,38,→,right,→,0.8008134001865983,True,18,1,0,8
Y2-S2-158K20,5,438,AS,exp,47,←,down,↓,0.8173306998796761,False,17,-1,1,9
Y2-S2-158K20,5,439,AS,exp,32,↓,down,↓,0.8297194000333548,True,18,-1,0,9
Y2-S2-158K20,5,440,AS,exp,34,←,up,↑,0.9295124001801014,False,18,-1,0,9
Y2-S2-158K20,5,441,AS,exp,46,↑,up,↑,0.36707649985328317,True,19,-1,0,9
Y2-S2-158K20,5,442,AS,exp,44,→,right,→,0.5673139998689294,True,19,-1,0,9
Y2-S2-158K20,5,443,AS,exp,30,↑,up,↑,0.36718330020084977,True,19,1,1,10
Y2-S2-158K20,5,444,AS,exp,44,→,right,→,1.0215966003015637,True,18,1,0,10
Y2-S2-158K20,5,445,AS,exp,47,↑,up,↑,0.5946279000490904,True,18,1,0,10
Y2-S2-158K20,5,446,AS,exp,48,↓,down,↓,0.7256006998941302,True,18,1,0,10
Y2-S2-158K20,5,447,AS,exp,29,→,right,→,0.6173761999234557,True,17,1,0,10
Y2-S2-158K20,5,448,AS,exp,27,↓,down,↓,0.5022038999013603,True,17,1,0,10
Y2-S2-158K20,5,449,AS,exp,28,→,right,→,0.7787476000376046,True,17,1,0,10
Y2-S2-158K20,5,450,AS,exp,48,←,left,←,0.7776508000679314,True,16,1,0,10
Y2-S2-158K20,5,451,AS,exp,29,↑,up,↑,0.38373509980738163,True,16,1,0,10
Y2-S2-158K20,5,452,AS,exp,32,←,right,→,0.6338579999282956,False,16,-1,1,11
Y2-S2-158K20,5,453,AS,exp,35,↑,up,↑,0.3840351002290845,True,17,-1,0,11
Y2-S2-158K20,5,454,AS,exp,34,↓,down,↓,1.4871209003031254,True,17,-1,0,11
Y2-S2-158K20,5,455,AS,exp,36,←,left,←,0.5494230999611318,True,17,1,1,12
Y2-S2-158K20,5,456,AS,exp,28,→,right,→,0.7712162001989782,True,16,1,0,12
Y2-S2-158K20,5,457,AS,exp,41,←,left,←,0.7635403997264802,True,16,1,0,12
Y2-S2-158K20,5,458,AS,exp,43,→,right,→,0.367393699940294,True,16,1,0,12
Y2-S2-158K20,5,459,AS,exp,47,↑,up,↑,1.1939888997003436,True,15,1,0,12
Y2-S2-158K20,5,460,AS,exp,38,→,right,→,0.773305400274694,True,15,1,0,12
Y2-S2-158K20,5,461,AS,exp,30,↑,up,↑,0.45492460019886494,True,15,1,0,12
Y2-S2-158K20,5,462,AS,exp,46,↓,down,↓,0.770011399872601,True,14,1,0,12
Y2-S2-158K20,5,463,AS,exp,28,→,right,→,0.40568909980356693,True,14,1,0,12
Y2-S2-158K20,5,464,AS,exp,42,←,left,←,0.5993240997195244,True,14,1,0,12
Y2-S2-158K20,5,465,AS,exp,32,→,right,→,1.0319181997328997,True,13,1,0,12
Y2-S2-158K20,5,466,AS,exp,47,↓,up,↑,0.7377621000632644,False,13,-1,1,13
Y2-S2-158K20,5,467,AS,exp,35,→,right,→,0.7438142001628876,True,14,-1,0,13
Y2-S2-158K20,5,468,AS,exp,39,←,left,←,0.5101264999248087,True,14,-1,0,13
Y2-S2-158K20,5,469,AS,exp,36,↑,up,↑,0.6603268003091216,True,14,1,1,14
Y2-S2-158K20,5,470,AS,exp,26,←,right,→,0.8050154000520706,False,13,-1,1,15
Y2-S2-158K20,5,471,AS,exp,45,↓,down,↓,0.6466493997722864,True,14,-1,0,15
Y2-S2-158K20,5,472,AS,exp,35,↑,up,↑,0.5868766997009516,True,14,-1,0,15
Y2-S2-158K20,5,473,AS,exp,39,←,right,→,0.7585531999357045,False,14,-1,0,15
Y2-S2-158K20,5,474,AS,exp,28,→,right,→,0.7530638002790511,True,15,-1,0,15
Y2-S2-158K20,5,475,AS,exp,40,←,left,←,0.607048399746418,True,15,-1,0,15
Y2-S2-158K20,5,476,AS,exp,29,↓,down,↓,0.6856297999620438,True,15,1,1,16
Y2-S2-158K20,6,477,PS,intra_train,47,→,right,→,0.5992744998075068,True,15,-,-,-
Y2-S2-158K20,6,478,PS,intra_train,46,←,left,←,0.6485303002409637,True,15,-,-,-
Y2-S2-158K20,6,479,PS,intra_train,46,↓,down,↓,0.5932338000275195,True,15,-,-,-
Y2-S2-158K20,6,480,PS,intra_train,29,→,right,→,0.5719471997581422,True,15,-,-,-
Y2-S2-158K20,6,481,PS,intra_train,28,←,left,←,0.5241069998592138,True,15,-,-,-
Y2-S2-158K20,6,482,PS,exp,29,↓,down,↓,0.5119572998955846,True,10,0,0,0
Y2-S2-158K20,6,483,PS,exp,42,←,left,←,0.5581787996925414,True,10,0,0,0
Y2-S2-158K20,6,484,PS,exp,35,↑,up,↑,0.6115850997157395,True,10,1,0,0
Y2-S2-158K20,6,485,PS,exp,45,↓,down,↓,0.5727862999774516,True,9,1,0,0
Y2-S2-158K20,6,486,PS,exp,37,↑,down,↓,0.5696502001956105,False,9,-1,1,1
Y2-S2-158K20,6,487,PS,exp,26,↓,down,↓,0.4288810999132693,True,10,-1,0,1
Y2-S2-158K20,6,488,PS,exp,30,←,left,←,0.48058620002120733,True,10,-1,0,1
Y2-S2-158K20,6,489,PS,exp,32,→,left,←,0.5542824002914131,False,10,-1,0,1
Y2-S2-158K20,6,490,PS,exp,30,↑,up,↑,0.60685950005427,True,11,-1,0,1
Y2-S2-158K20,6,491,PS,exp,40,↓,down,↓,0.5962384999729693,True,11,-1,0,1
Y2-S2-158K20,6,492,PS,exp,32,←,left,←,0.5116161997430027,True,11,1,1,2
Y2-S2-158K20,6,493,PS,exp,27,↑,up,↑,1.0612202999182045,True,10,1,0,2
Y2-S2-158K20,6,494,PS,exp,43,←,left,←,0.6198363997973502,True,10,1,0,2
Y2-S2-158K20,6,495,PS,exp,40,↑,up,↑,0.5391323999501765,True,10,1,0,2
Y2-S2-158K20,6,496,PS,exp,27,→,left,←,0.7578108003363013,False,9,-1,1,3
Y2-S2-158K20,6,497,PS,exp,30,↑,right,→,0.5585786998271942,False,10,-1,0,3
Y2-S2-158K20,6,498,PS,exp,46,↓,down,↓,0.5771697000600398,True,11,-1,0,3
Y2-S2-158K20,6,499,PS,exp,42,←,right,→,0.5131691000424325,False,11,-1,0,3
Y2-S2-158K20,6,500,PS,exp,35,→,right,→,0.5367074999958277,True,12,-1,0,3
Y2-S2-158K20,6,501,PS,exp,31,↓,down,↓,0.6021963004022837,True,12,-1,0,3
Y2-S2-158K20,6,502,PS,exp,37,↑,up,↑,0.5585766998119652,True,12,1,1,4
Y2-S2-158K20,6,503,PS,exp,37,↓,down,↓,0.8025400000624359,True,11,1,0,4
Y2-S2-158K20,6,504,PS,exp,25,↑,up,↑,0.59837849996984,True,11,1,0,4
Y2-S2-158K20,6,505,PS,exp,40,←,left,←,0.43651239993050694,True,11,1,0,4
Y2-S2-158K20,6,506,PS,exp,39,→,right,→,0.3987845000810921,True,10,1,0,4
Y2-S2-158K20,6,507,PS,exp,38,↓,down,↓,0.4888063999824226,True,10,1,0,4
Y2-S2-158K20,6,508,PS,exp,33,→,right,→,0.3824114999733865,True,10,1,0,4
Y2-S2-158K20,6,509,PS,exp,27,↑,up,↑,0.4425923996604979,True,9,1,0,4
Y2-S2-158K20,6,510,PS,exp,41,↓,down,↓,0.5314611000940204,True,9,1,0,4
Y2-S2-158K20,6,511,PS,exp,40,↑,right,→,0.6692568999715149,False,9,-1,1,5
Y2-S2-158K20,6,512,PS,exp,42,→,right,→,0.3381950999610126,True,10,-1,0,5
Y2-S2-158K20,6,513,PS,exp,27,↑,up,↑,0.4548841002397239,True,10,-1,0,5
Y2-S2-158K20,6,514,PS,exp,48,↓,down,↓,0.588827199768275,True,10,1,1,6
Y2-S2-158K20,6,515,PS,exp,36,↑,up,↑,0.4610252999700606,True,9,1,0,6
Y2-S2-158K20,6,516,PS,exp,45,↓,up,↑,0.7936772000975907,False,9,-1,1,7
Y2-S2-158K20,6,517,PS,exp,50,→,right,→,0.45628789998590946,True,10,-1,0,7
Y2-S2-158K20,6,518,PS,exp,44,↓,down,↓,0.49017809983342886,True,10,-1,0,7
Y2-S2-158K20,6,519,PS,exp,42,↑,up,↑,0.42608230002224445,True,10,1,1,8
Y2-S2-158K20,6,520,PS,exp,26,→,left,←,0.8010959001258016,False,9,-1,1,9
Y2-S2-158K20,6,521,PS,exp,33,←,left,←,0.5075910999439657,True,10,-1,0,9
Y2-S2-158K20,6,522,PS,exp,31,→,right,→,0.4107220000587404,True,10,-1,0,9
Y2-S2-158K20,6,523,PS,exp,44,←,left,←,0.7579385000281036,True,10,1,1,10
Y2-S2-158K20,6,524,PS,exp,44,↑,up,↑,0.36098499968647957,True,9,1,0,10
Y2-S2-158K20,6,525,PS,exp,35,↓,up,↑,0.6633501001633704,False,9,-1,1,11
Y2-S2-158K20,6,526,PS,exp,37,↑,up,↑,0.48543019965291023,True,10,-1,0,11
Y2-S2-158K20,6,527,PS,exp,37,↓,down,↓,1.3228424997068942,True,10,-1,0,11
Y2-S2-158K20,6,528,PS,exp,39,←,left,←,0.4984650001861155,True,10,1,1,12
Y2-S2-158K20,6,529,PS,exp,49,↑,up,↑,0.6550588002428412,True,9,1,0,12
Y2-S2-158K20,6,530,PS,exp,49,↓,down,↓,0.6511594001203775,True,9,1,0,12
Y2-S2-158K20,6,531,PS,exp,26,→,left,←,0.5910155000165105,False,9,-1,1,13
Y2-S2-158K20,6,532,PS,exp,32,↓,left,←,0.5547094000503421,False,10,-1,0,13
Y2-S2-158K20,6,533,PS,exp,36,←,left,←,0.40749699994921684,True,11,-1,0,13
Y2-S2-158K20,6,534,PS,exp,31,↓,left,←,0.7351279999129474,False,11,-1,0,13
Y2-S2-158K20,6,535,PS,exp,40,←,left,←,0.4601235999725759,True,12,-1,0,13
Y2-S2-158K20,6,536,PS,exp,44,→,right,→,0.5841369996778667,True,12,-1,0,13
Y2-S2-158K20,6,537,PS,exp,30,↑,up,↑,0.43768069986253977,True,12,1,1,14
Y2-S2-158K20,6,538,PS,exp,37,←,left,←,1.1263796999119222,True,11,1,0,14
Y2-S2-158K20,6,539,PS,exp,32,→,right,→,0.41110670007765293,True,11,1,0,14
Y2-S2-158K20,6,540,PS,exp,33,↓,up,↑,0.7548351995646954,False,11,-1,1,15
Y2-S2-158K20,6,541,PS,exp,45,←,left,←,0.4834795999340713,True,12,-1,0,15
Y2-S2-158K20,6,542,PS,exp,42,↑,left,←,0.8140219999477267,False,12,-1,0,15
Y2-S2-158K20,6,543,PS,exp,26,→,right,→,0.3865157999098301,True,13,-1,0,15
Y2-S2-158K20,6,544,PS,exp,49,↓,down,↓,0.636003200430423,True,13,-1,0,15
Y2-S2-158K20,6,545,PS,exp,44,←,right,→,0.5107574998401105,False,13,-1,0,15
Y2-S2-158K20,6,546,PS,exp,29,→,right,→,0.5630344999954104,True,14,-1,0,15
Y2-S2-158K20,6,547,PS,exp,25,←,left,←,0.4628691002726555,True,14,-1,0,15
Y2-S2-158K20,6,548,PS,exp,25,→,right,→,0.47866000002250075,True,14,1,1,16
Y2-S2-158K20,7,549,PS,intra_train,50,↓,down,↓,0.5298321996815503,True,15,-,-,-
Y2-S2-158K20,7,550,PS,intra_train,45,←,left,←,0.6368493000045419,True,15,-,-,-
Y2-S2-158K20,7,551,PS,intra_train,31,→,left,←,0.6485454002395272,False,15,-,-,-
Y2-S2-158K20,7,552,PS,intra_train,29,↓,down,↓,0.5183317000046372,True,15,-,-,-
Y2-S2-158K20,7,553,PS,intra_train,41,↑,right,→,0.50839600013569,False,15,-,-,-
Y2-S2-158K20,7,554,PS,exp,41,→,right,→,0.5485574998892844,True,10,0,0,0
Y2-S2-158K20,7,555,PS,exp,32,↓,down,↓,0.6744913002476096,True,10,0,0,0
Y2-S2-158K20,7,556,PS,exp,30,←,left,←,0.4495292999781668,True,10,1,0,0
Y2-S2-158K20,7,557,PS,exp,47,→,right,→,0.47737189987674356,True,9,1,0,0
Y2-S2-158K20,7,558,PS,exp,32,↓,down,↓,0.5696268999017775,True,9,1,0,0
Y2-S2-158K20,7,559,PS,exp,39,←,left,←,0.625562499742955,True,9,1,0,0
Y2-S2-158K20,7,560,PS,exp,46,↑,up,↑,0.5710738999769092,True,8,1,0,0
Y2-S2-158K20,7,561,PS,exp,37,←,left,←,0.6096136998385191,True,8,1,0,0
Y2-S2-158K20,7,562,PS,exp,34,→,right,→,0.5834915000014007,True,8,1,0,0
Y2-S2-158K20,7,563,PS,exp,50,↑,up,↑,0.4753751000389457,True,7,1,0,0
Y2-S2-158K20,7,564,PS,exp,25,→,right,→,0.5113482000306249,True,7,1,0,0
Y2-S2-158K20,7,565,PS,exp,50,←,left,←,0.4268801002763212,True,7,1,0,0
Y2-S2-158K20,7,566,PS,exp,27,→,right,→,0.5177107998169959,True,6,1,0,0
Y2-S2-158K20,7,567,PS,exp,43,←,left,←,0.43067639973014593,True,6,1,0,0
Y2-S2-158K20,7,568,PS,exp,30,↓,right,→,0.6649496001191437,False,6,-1,1,1
Y2-S2-158K20,7,569,PS,exp,46,←,left,←,0.6500884001143277,True,7,-1,0,1
Y2-S2-158K20,7,570,PS,exp,50,↑,up,↑,0.4401733996346593,True,7,-1,0,1
Y2-S2-158K20,7,571,PS,exp,39,↓,down,↓,0.5803351001814008,True,7,1,1,2
Y2-S2-158K20,7,572,PS,exp,26,↑,up,↑,0.4445536001585424,True,6,1,0,2
Y2-S2-158K20,7,573,PS,exp,46,↓,down,↓,0.46034180000424385,True,6,1,0,2
Y2-S2-158K20,7,574,PS,exp,44,↑,up,↑,0.42692500026896596,True,6,1,0,2
Y2-S2-158K20,7,575,PS,exp,47,→,up,↑,0.730508899781853,False,5,-1,1,3
Y2-S2-158K20,7,576,PS,exp,46,↓,down,↓,0.5635650004260242,True,6,-1,0,3
Y2-S2-158K20,7,577,PS,exp,37,←,left,←,0.6332208001986146,True,6,-1,0,3
Y2-S2-158K20,7,578,PS,exp,28,↓,left,←,0.6517460998147726,False,6,-1,0,3
Y2-S2-158K20,7,579,PS,exp,31,←,left,←,0.4296957002952695,True,7,-1,0,3
Y2-S2-158K20,7,580,PS,exp,38,→,right,→,0.4715509000234306,True,7,-1,0,3
Y2-S2-158K20,7,581,PS,exp,44,↓,left,←,0.6397778000682592,False,7,-1,0,3
Y2-S2-158K20,7,582,PS,exp,38,↑,up,↑,0.45305299991741776,True,8,-1,0,3
Y2-S2-158K20,7,583,PS,exp,43,←,left,←,0.653109900187701,True,8,-1,0,3
Y2-S2-158K20,7,584,PS,exp,37,↓,down,↓,0.5103521998971701,True,8,1,1,4
Y2-S2-158K20,7,585,PS,exp,42,↑,left,←,0.8309463998302817,False,7,-1,1,5
Y2-S2-158K20,7,586,PS,exp,45,↓,down,↓,0.5731943999417126,True,8,-1,0,5
Y2-S2-158K20,7,587,PS,exp,41,→,right,→,0.6576022002846003,True,8,-1,0,5
Y2-S2-158K20,7,588,PS,exp,37,↓,up,↑,0.7629822003655136,False,8,-1,0,5
Y2-S2-158K20,7,589,PS,exp,37,←,down,↓,0.7032110001891851,False,9,-1,0,5
Y2-S2-158K20,7,590,PS,exp,31,→,right,→,0.5138137000612915,True,10,-1,0,5
Y2-S2-158K20,7,591,PS,exp,47,↑,left,←,0.8004478001967072,False,10,-1,0,5
Y2-S2-158K20,7,592,PS,exp,32,→,left,←,0.5056528998538852,False,11,-1,0,5
Y2-S2-158K20,7,593,PS,exp,36,↑,up,↑,0.5179145000874996,True,12,-1,0,5
Y2-S2-158K20,7,594,PS,exp,47,↓,up,↑,0.9232422998175025,False,12,-1,0,5
Y2-S2-158K20,7,595,PS,exp,38,↑,up,↑,0.39201420033350587,True,13,-1,0,5
Y2-S2-158K20,7,596,PS,exp,42,→,right,→,0.6182794002816081,True,13,-1,0,5
Y2-S2-158K20,7,597,PS,exp,48,←,left,←,0.4140241998247802,True,13,1,1,6
Y2-S2-158K20,7,598,PS,exp,45,↓,down,↓,0.475010400172323,True,12,1,0,6
Y2-S2-158K20,7,599,PS,exp,28,↑,up,↑,0.6287835999391973,True,12,1,0,6
Y2-S2-158K20,7,600,PS,exp,36,↓,right,→,0.7478110999800265,False,12,-1,1,7
Y2-S2-158K20,7,601,PS,exp,33,←,left,←,0.44250450003892183,True,13,-1,0,7
Y2-S2-158K20,7,602,PS,exp,45,→,right,→,0.3886641999706626,True,13,-1,0,7
Y2-S2-158K20,7,603,PS,exp,43,←,up,↑,0.7909827004186809,False,13,-1,0,7
Y2-S2-158K20,7,604,PS,exp,35,↑,no_key,no_letter,-1.0,False,14,-1,0,7
Y2-S2-158K20,7,605,PS,exp,30,→,right,→,1.1680843997746706,True,15,-1,0,7
Y2-S2-158K20,7,606,PS,exp,37,↓,down,↓,0.4650732004083693,True,15,-1,0,7
Y2-S2-158K20,7,607,PS,exp,40,→,right,→,0.3671824000775814,True,15,1,1,8
Y2-S2-158K20,7,608,PS,exp,37,↑,left,←,0.7423053998500109,False,14,-1,1,9
Y2-S2-158K20,7,609,PS,exp,36,↓,right,→,0.577335299924016,False,15,-1,0,9
Y2-S2-158K20,7,610,PS,exp,48,↑,up,↑,1.290963300038129,True,16,-1,0,9
Y2-S2-158K20,7,611,PS,exp,31,→,right,→,0.4809661000035703,True,16,-1,0,9
Y2-S2-158K20,7,612,PS,exp,49,↑,right,→,0.5197509997524321,False,16,-1,0,9
Y2-S2-158K20,7,613,PS,exp,50,←,right,→,0.6564185996539891,False,17,-1,0,9
Y2-S2-158K20,7,614,PS,exp,41,↓,right,→,0.6922017000615597,False,18,-1,0,9
Y2-S2-158K20,7,615,PS,exp,37,↑,up,↑,0.3836957002058625,True,19,-1,0,9
Y2-S2-158K20,7,616,PS,exp,47,←,left,←,0.4338166997767985,True,19,-1,0,9
Y2-S2-158K20,7,617,PS,exp,30,↓,right,→,0.499087399803102,False,19,-1,0,9
Y2-S2-158K20,7,618,PS,exp,38,←,right,→,1.5180716998875141,False,20,-1,0,9
Y2-S2-158K20,7,619,PS,exp,49,↑,up,↑,0.45051309978589416,True,21,-1,0,9
Y2-S2-158K20,7,620,PS,exp,43,→,right,→,1.4970281003043056,True,21,-1,0,9
Y2-S2-158K20,7,621,PS,exp,33,↑,left,←,0.4179759998805821,False,21,-1,0,9
Y2-S2-158K20,7,622,PS,exp,48,←,left,←,0.45056529995054007,True,22,-1,0,9
Y2-S2-158K20,7,623,PS,exp,47,↓,down,↓,0.5792753999121487,True,22,-1,0,9
Y2-S2-158K20,7,624,PS,exp,37,→,right,→,0.6649212003685534,True,22,1,1,10
Y2-S2-158K20,7,625,PS,exp,30,↑,up,↑,0.6417245003394783,True,21,1,0,10
Y2-S2-158K20,7,626,PS,exp,49,↓,down,↓,0.5233267000876367,True,21,1,0,10
Y2-S2-158K20,7,627,PS,exp,36,↑,up,↑,0.45075300009921193,True,21,1,0,10
Y2-S2-158K20,7,628,PS,exp,31,←,left,←,0.3839652999304235,True,20,1,0,10
Y2-S2-158K20,7,629,PS,exp,25,→,right,→,0.38395229959860444,True,20,1,0,10
Y2-S2-158K20,7,630,PS,exp,36,←,left,←,0.4671946996822953,True,20,1,0,10
Y2-S2-158K20,7,631,PS,exp,33,→,right,→,0.45093310019001365,True,19,1,0,10
Y2-S2-158K20,7,632,PS,exp,27,←,left,←,1.065389800351113,True,19,1,0,10
Y2-S2-158K20,7,633,PS,exp,48,↑,up,↑,0.3672857000492513,True,19,1,0,10
Y2-S2-158K20,7,634,PS,exp,26,←,left,←,0.4932572999969125,True,18,1,0,10
Y2-S2-158K20,7,635,PS,exp,44,↓,down,↓,0.5123481997288764,True,18,1,0,10
Y2-S2-158K20,7,636,PS,exp,39,←,left,←,0.36725870007649064,True,18,1,0,10
Y2-S2-158K20,7,637,PS,exp,43,↑,up,↑,1.0138086997903883,True,17,1,0,10
Y2-S2-158K20,7,638,PS,exp,25,←,left,←,0.417429500259459,True,17,1,0,10
Y2-S2-158K20,7,639,PS,exp,35,↑,up,↑,0.6161062000319362,True,17,1,0,10
Y2-S2-158K20,7,640,PS,exp,36,←,left,←,0.996837199665606,True,16,1,0,10
Y2-S2-158K20,7,641,PS,exp,32,↓,down,↓,0.46686549996957183,True,16,1,0,10
Y2-S2-158K20,7,642,PS,exp,45,→,right,→,0.462141300085932,True,16,1,0,10
Y2-S2-158K20,7,643,PS,exp,49,←,right,→,1.0022284998558462,False,15,-1,1,11
Y2-S2-158K20,7,644,PS,exp,26,↑,up,↑,0.5076276999898255,True,16,-1,0,11
Y2-S2-158K20,7,645,PS,exp,43,→,right,→,0.40053920028731227,True,16,-1,0,11
Y2-S2-158K20,7,646,PS,exp,27,↓,down,↓,0.5962980999611318,True,16,1,1,12
Y2-S2-158K20,7,647,PS,exp,33,↑,up,↑,0.43093409994617105,True,15,1,0,12
Y2-S2-158K20,7,648,PS,exp,30,↓,up,↑,0.691381299868226,False,15,-1,1,13
Y2-S2-158K20,7,649,PS,exp,49,↑,up,↑,1.257989900186658,True,16,-1,0,13
Y2-S2-158K20,7,650,PS,exp,47,→,right,→,0.40044260025024414,True,16,-1,0,13
Y2-S2-158K20,7,651,PS,exp,38,↑,right,→,0.5222876998595893,False,16,-1,0,13
Y2-S2-158K20,7,652,PS,exp,41,↓,down,↓,0.5146176000125706,True,17,-1,0,13
Y2-S2-158K20,7,653,PS,exp,48,→,right,→,0.5402478002943099,True,17,-1,0,13
Y2-S2-158K20,7,654,PS,exp,40,↑,up,↑,0.41746480017900467,True,17,1,1,14
Y2-S2-158K20,7,655,PS,exp,50,↓,down,↓,0.7593749999068677,True,16,1,0,14
Y2-S2-158K20,7,656,PS,exp,34,↑,up,↑,0.9734251000918448,True,16,1,0,14
Y2-S2-158K20,7,657,PS,exp,44,←,left,←,0.5022418000735343,True,16,1,0,14
Y2-S2-158K20,7,658,PS,exp,41,↑,up,↑,0.42771050008013844,True,15,1,0,14
Y2-S2-158K20,7,659,PS,exp,26,↓,up,↑,0.8014693004079163,False,15,-1,1,15
Y2-S2-158K20,7,660,PS,exp,30,→,right,→,0.3997516999952495,True,16,-1,0,15
Y2-S2-158K20,7,661,PS,exp,28,↓,down,↓,0.46983669977635145,True,16,-1,0,15
Y2-S2-158K20,7,662,PS,exp,26,←,left,←,0.38402950018644333,True,16,1,1,16
Y2-S2-158K20,8,663,AS,intra_train,42,↑,up,↑,0.5172546003013849,True,31,-,-,-
Y2-S2-158K20,8,664,AS,intra_train,31,↓,down,↓,0.6892483001574874,True,31,-,-,-
Y2-S2-158K20,8,665,AS,intra_train,33,↑,up,↑,0.8343889000825584,True,31,-,-,-
Y2-S2-158K20,8,666,AS,intra_train,27,↓,down,↓,0.45108749996870756,True,31,-,-,-
Y2-S2-158K20,8,667,AS,intra_train,29,←,left,←,0.4510160000063479,True,31,-,-,-
Y2-S2-158K20,8,668,AS,exp,45,→,right,→,0.6070528998970985,True,21,0,0,0
Y2-S2-158K20,8,669,AS,exp,44,↑,up,↑,0.5690831001847982,True,21,0,0,0
Y2-S2-158K20,8,670,AS,exp,40,←,left,←,0.4340627999044955,True,21,1,0,0
Y2-S2-158K20,8,671,AS,exp,48,↓,down,↓,0.7384632001630962,True,20,1,0,0
Y2-S2-158K20,8,672,AS,exp,35,→,right,→,0.46744189970195293,True,20,1,0,0
Y2-S2-158K20,8,673,AS,exp,33,↓,up,↑,0.8052875003777444,False,20,-1,1,1
Y2-S2-158K20,8,674,AS,exp,43,←,left,←,0.6404526000842452,True,21,-1,0,1
Y2-S2-158K20,8,675,AS,exp,49,↓,down,↓,0.4174536997452378,True,21,-1,0,1
Y2-S2-158K20,8,676,AS,exp,49,↑,up,↑,0.6790412999689579,True,21,1,1,2
Y2-S2-158K20,8,677,AS,exp,28,←,left,←,0.4675711002200842,True,20,1,0,2
Y2-S2-158K20,8,678,AS,exp,32,→,right,→,0.6708428002893925,True,20,1,0,2
Y2-S2-158K20,8,679,AS,exp,29,↑,up,↑,0.36730619985610247,True,20,1,0,2
Y2-S2-158K20,8,680,AS,exp,47,→,right,→,0.5664160000160336,True,19,1,0,2
Y2-S2-158K20,8,681,AS,exp,34,↓,right,→,0.8182112998329103,False,19,-1,1,3
Y2-S2-158K20,8,682,AS,exp,37,↑,up,↑,0.711763700004667,True,20,-1,0,3
Y2-S2-158K20,8,683,AS,exp,39,↓,down,↓,0.8164192996919155,True,20,-1,0,3
Y2-S2-158K20,8,684,AS,exp,38,←,left,←,0.5579177001491189,True,20,1,1,4
Y2-S2-158K20,8,685,AS,exp,37,→,right,→,0.3838128000497818,True,19,1,0,4
Y2-S2-158K20,8,686,AS,exp,44,↑,up,↑,0.5492734001018107,True,19,1,0,4
Y2-S2-158K20,8,687,AS,exp,26,→,right,→,0.5469069997780025,True,19,1,0,4
Y2-S2-158K20,8,688,AS,exp,48,←,left,←,0.4337681997567415,True,18,1,0,4
Y2-S2-158K20,8,689,AS,exp,30,→,right,→,0.5027544996701181,True,18,1,0,4
Y2-S2-158K20,8,690,AS,exp,39,←,left,←,0.5650980002246797,True,18,1,0,4
Y2-S2-158K20,8,691,AS,exp,25,→,right,→,0.7092897999100387,True,17,1,0,4
Y2-S2-158K20,8,692,AS,exp,40,←,left,←,0.911400499753654,True,17,1,0,4
Y2-S2-158K20,8,693,AS,exp,45,↓,down,↓,0.7461729003116488,True,17,1,0,4
Y2-S2-158K20,8,694,AS,exp,28,→,right,→,0.6466396995820105,True,16,1,0,4
Y2-S2-158K20,8,695,AS,exp,43,←,left,←,0.5835528001189232,True,16,1,0,4
Y2-S2-158K20,8,696,AS,exp,28,↑,down,↓,0.8748006001114845,False,16,-1,1,5
Y2-S2-158K20,8,697,AS,exp,28,←,left,←,0.6937317000702024,True,17,-1,0,5
Y2-S2-158K20,8,698,AS,exp,37,↓,down,↓,0.6095388000831008,True,17,-1,0,5
Y2-S2-158K20,8,699,AS,exp,39,→,left,←,0.6659962004050612,False,17,-1,0,5
Y2-S2-158K20,8,700,AS,exp,27,←,left,←,0.4988015000708401,True,18,-1,0,5
Y2-S2-158K20,8,701,AS,exp,45,↑,down,↓,0.944765199907124,False,18,-1,0,5
Y2-S2-158K20,8,702,AS,exp,41,↓,down,↓,1.2748852004297078,True,19,-1,0,5
Y2-S2-158K20,8,703,AS,exp,37,→,right,→,0.40073350025340915,True,19,-1,0,5
Y2-S2-158K20,8,704,AS,exp,46,↑,up,↑,0.3673735000193119,True,19,1,1,6
Y2-S2-158K20,8,705,AS,exp,42,→,left,←,0.7562374998815358,False,18,-1,1,7
Y2-S2-158K20,8,706,AS,exp,46,←,left,←,0.5512020997703075,True,19,-1,0,7
Y2-S2-158K20,8,707,AS,exp,30,↓,down,↓,0.6769512998871505,True,19,-1,0,7
Y2-S2-158K20,8,708,AS,exp,44,→,right,→,0.3672533999197185,True,19,1,1,8
Y2-S2-158K20,8,709,AS,exp,29,↑,down,↓,0.7685247003100812,False,18,-1,1,9
Y2-S2-158K20,8,710,AS,exp,29,←,left,←,0.3500357996672392,True,19,-1,0,9
Y2-S2-158K20,8,711,AS,exp,49,↑,up,↑,0.6347098001278937,True,19,-1,0,9
Y2-S2-158K20,8,712,AS,exp,46,→,right,→,0.4170407997444272,True,19,1,1,10
Y2-S2-158K20,8,713,AS,exp,40,↓,down,↓,0.6736777001060545,True,18,1,0,10
Y2-S2-158K20,8,714,AS,exp,45,→,right,→,0.3840931998565793,True,18,1,0,10
Y2-S2-158K20,8,715,AS,exp,27,↓,down,↓,0.6711070002056658,True,18,1,0,10
Y2-S2-158K20,8,716,AS,exp,46,→,right,→,0.635170899797231,True,17,1,0,10
Y2-S2-158K20,8,717,AS,exp,39,↑,down,↓,0.6504442002624273,False,17,-1,1,11
Y2-S2-158K20,8,718,AS,exp,35,←,left,←,0.4004786000587046,True,18,-1,0,11
Y2-S2-158K20,8,719,AS,exp,44,↑,up,↑,0.5215337998233736,True,18,-1,0,11
Y2-S2-158K20,8,720,AS,exp,35,←,left,←,0.5239993999712169,True,18,1,1,12
Y2-S2-158K20,8,721,AS,exp,30,→,left,←,0.6870261998847127,False,17,-1,1,13
Y2-S2-158K20,8,722,AS,exp,45,↓,down,↓,0.5636006002314389,True,18,-1,0,13
Y2-S2-158K20,8,723,AS,exp,40,↑,down,↓,0.7101301997900009,False,18,-1,0,13
Y2-S2-158K20,8,724,AS,exp,48,←,left,←,0.38419560017064214,True,19,-1,0,13
Y2-S2-158K20,8,725,AS,exp,39,→,right,→,0.686320099979639,True,19,-1,0,13
Y2-S2-158K20,8,726,AS,exp,34,←,left,←,0.3841821998357773,True,19,1,1,14
Y2-S2-158K20,8,727,AS,exp,43,→,right,→,0.6332046003080904,True,18,1,0,14
Y2-S2-158K20,8,728,AS,exp,38,←,left,←,0.3843629998154938,True,18,1,0,14
Y2-S2-158K20,8,729,AS,exp,29,↑,up,↑,0.35059709986671805,True,18,1,0,14
Y2-S2-158K20,8,730,AS,exp,44,↓,down,↓,1.0383982001803815,True,17,1,0,14
Y2-S2-158K20,8,731,AS,exp,27,←,left,←,0.40061770007014275,True,17,1,0,14
Y2-S2-158K20,8,732,AS,exp,43,↑,right,→,0.779825999867171,False,17,-1,1,15
Y2-S2-158K20,8,733,AS,exp,30,↓,right,→,0.7939287000335753,False,18,-1,0,15
Y2-S2-158K20,8,734,AS,exp,40,↑,up,↑,0.3506585001014173,True,19,-1,0,15
Y2-S2-158K20,8,735,AS,exp,27,←,left,←,0.7068211999721825,True,19,-1,0,15
Y2-S2-158K20,8,736,AS,exp,40,→,right,→,0.7067117001861334,True,19,1,1,16
