PART_ID,Block_no,Trial_no,Block_type,Trial_type,CSI,Stim_letter,Key_pressed,letter_choose,Rt,Corr,Stimulus Time,Level,Reversal,Revs_count
Y2-S2-018K21,1,1,PS,train,26,↓,down,↓,0.7710421999217942,True,30,-,-,-
Y2-S2-018K21,1,2,PS,train,47,←,left,←,1.8860687999986112,True,30,-,-,-
Y2-S2-018K21,1,3,PS,train,29,→,right,→,0.9701919999206439,True,30,-,-,-
Y2-S2-018K21,1,4,PS,train,29,↓,down,↓,0.8406099999556318,True,30,-,-,-
Y2-S2-018K21,1,5,PS,train,31,←,left,←,0.7545819999650121,True,30,-,-,-
Y2-S2-018K21,1,6,PS,train,29,→,right,→,0.7687085000798106,True,30,-,-,-
Y2-S2-018K21,1,7,PS,train,38,←,left,←,0.9533821999793872,True,30,-,-,-
Y2-S2-018K21,1,8,PS,train,28,↑,up,↑,1.3968664999119937,True,30,-,-,-
Y2-S2-018K21,1,9,PS,train,42,→,right,→,0.9183561999816447,True,30,-,-,-
Y2-S2-018K21,1,10,PS,train,36,←,left,←,0.8513567000627518,True,30,-,-,-
Y2-S2-018K21,2,11,AS,train,44,↑,up,↑,1.015420199953951,True,45,-,-,-
Y2-S2-018K21,2,12,AS,train,48,←,no_key,no_letter,-1.0,False,45,-,-,-
Y2-S2-018K21,2,13,AS,train,46,↓,down,↓,1.230739500024356,True,45,-,-,-
Y2-S2-018K21,2,14,AS,train,28,←,left,←,1.1227565000299364,True,45,-,-,-
Y2-S2-018K21,2,15,AS,train,31,↓,down,↓,1.175133900018409,True,45,-,-,-
Y2-S2-018K21,2,16,AS,train,29,←,left,←,1.1775968000292778,True,45,-,-,-
Y2-S2-018K21,2,17,AS,train,46,↑,up,↑,1.1144288999494165,True,45,-,-,-
Y2-S2-018K21,2,18,AS,train,46,→,right,→,1.0373463000869378,True,45,-,-,-
Y2-S2-018K21,2,19,AS,train,44,↑,up,↑,1.046317100059241,True,45,-,-,-
Y2-S2-018K21,2,20,AS,train,36,→,right,→,1.3209863998927176,True,45,-,-,-
Y2-S2-018K21,-,21,PS,adaptive,28,↓,down,↓,0.7662535000126809,True,10,0,0,0
Y2-S2-018K21,-,22,PS,adaptive,33,↑,up,↑,0.7520525999134406,True,10,0,0,0
Y2-S2-018K21,-,23,PS,adaptive,37,←,left,←,0.7089186999946833,True,10,1,0,0
Y2-S2-018K21,-,24,PS,adaptive,31,↓,down,↓,0.7792361999163404,True,9,1,0,0
Y2-S2-018K21,-,25,PS,adaptive,46,→,right,→,0.6453553000465035,True,9,1,0,0
Y2-S2-018K21,-,26,PS,adaptive,49,↑,up,↑,0.5713454999495298,True,9,1,0,0
Y2-S2-018K21,-,27,PS,adaptive,26,→,right,→,0.6147056000772864,True,8,1,0,0
Y2-S2-018K21,-,28,PS,adaptive,29,←,left,←,0.5733080999925733,True,8,1,0,0
Y2-S2-018K21,-,29,PS,adaptive,47,→,right,→,0.546161999925971,True,8,1,0,0
Y2-S2-018K21,-,30,PS,adaptive,32,↑,up,↑,0.5033390999305993,True,7,1,0,0
Y2-S2-018K21,-,31,PS,adaptive,32,↓,down,↓,0.6395381999900565,True,7,1,0,0
Y2-S2-018K21,-,32,PS,adaptive,40,←,right,→,0.8076985999941826,False,7,-1,1,1
Y2-S2-018K21,-,33,PS,adaptive,33,↓,down,↓,0.7767759000416845,True,8,-1,0,1
Y2-S2-018K21,-,34,PS,adaptive,36,←,left,←,0.5721309999935329,True,8,-1,0,1
Y2-S2-018K21,-,35,PS,adaptive,45,↑,up,↑,0.5111565999686718,True,8,1,1,2
Y2-S2-018K21,-,36,PS,adaptive,33,←,right,→,0.6719395999098197,False,7,-1,1,3
Y2-S2-018K21,-,37,PS,adaptive,37,↑,up,↑,0.5386335999937728,True,8,-1,0,3
Y2-S2-018K21,-,38,PS,adaptive,27,←,left,←,0.6429354000138119,True,8,-1,0,3
Y2-S2-018K21,-,39,PS,adaptive,27,↓,down,↓,0.5824487999780104,True,8,1,1,4
Y2-S2-018K21,-,40,AS,adaptive,41,→,right,→,0.5967448999872431,True,20,0,0,0
Y2-S2-018K21,-,41,AS,adaptive,29,↑,up,↑,1.1385806000325829,True,20,0,0,0
Y2-S2-018K21,-,42,AS,adaptive,31,↓,down,↓,0.6761066999752074,True,20,1,0,0
Y2-S2-018K21,-,43,AS,adaptive,48,→,right,→,0.6016914000501856,True,19,1,0,0
Y2-S2-018K21,-,44,AS,adaptive,48,←,left,←,0.8708863999927416,True,19,1,0,0
Y2-S2-018K21,-,45,AS,adaptive,25,→,right,→,0.6439262999920174,True,19,1,0,0
Y2-S2-018K21,-,46,AS,adaptive,25,↓,down,↓,0.6013972000218928,True,18,1,0,0
Y2-S2-018K21,-,47,AS,adaptive,42,→,right,→,0.837669900036417,True,18,1,0,0
Y2-S2-018K21,-,48,AS,adaptive,36,↑,up,↑,0.8288981000659987,True,18,1,0,0
Y2-S2-018K21,-,49,AS,adaptive,36,→,right,→,0.6647841999074444,True,17,1,0,0
Y2-S2-018K21,-,50,AS,adaptive,45,↓,down,↓,0.707121100043878,True,17,1,0,0
Y2-S2-018K21,-,51,AS,adaptive,50,←,left,←,0.821884399978444,True,17,1,0,0
Y2-S2-018K21,-,52,AS,adaptive,44,↓,down,↓,0.6372335999039933,True,16,1,0,0
Y2-S2-018K21,-,53,AS,adaptive,47,←,right,→,0.9090243000537157,False,16,-1,1,1
Y2-S2-018K21,-,54,AS,adaptive,34,↑,up,↑,1.4654744999716058,True,17,-1,0,1
Y2-S2-018K21,-,55,AS,adaptive,36,→,right,→,0.6238038999726996,True,17,-1,0,1
Y2-S2-018K21,-,56,AS,adaptive,30,↓,down,↓,0.563526300014928,True,17,1,1,2
Y2-S2-018K21,-,57,AS,adaptive,38,→,right,→,0.6335571999661624,True,16,1,0,2
Y2-S2-018K21,-,58,AS,adaptive,34,↑,up,↑,0.6325825999956578,True,16,1,0,2
Y2-S2-018K21,-,59,AS,adaptive,30,↓,down,↓,0.9114137999713421,True,16,1,0,2
Y2-S2-018K21,-,60,AS,adaptive,45,←,left,←,0.6706286000553519,True,15,1,0,2
Y2-S2-018K21,-,61,AS,adaptive,30,↓,down,↓,0.5777831000741571,True,15,1,0,2
Y2-S2-018K21,-,62,AS,adaptive,46,→,left,←,0.9347528000362217,False,15,-1,1,3
Y2-S2-018K21,-,63,AS,adaptive,32,←,left,←,0.6614279000787064,True,16,-1,0,3
Y2-S2-018K21,-,64,AS,adaptive,47,→,right,→,0.6157732999417931,True,16,-1,0,3
Y2-S2-018K21,-,65,AS,adaptive,46,←,left,←,0.8512306000338867,True,16,1,1,4
Y2-S2-018K21,1,66,AS,intra_train,28,↑,up,↑,0.6060550000984222,True,22,-,-,-
Y2-S2-018K21,1,67,AS,intra_train,41,←,left,←,0.5633606999181211,True,22,-,-,-
Y2-S2-018K21,1,68,AS,intra_train,27,↓,down,↓,0.8369349000276998,True,22,-,-,-
Y2-S2-018K21,1,69,AS,intra_train,34,←,left,←,0.7129888999043033,True,22,-,-,-
Y2-S2-018K21,1,70,AS,intra_train,44,→,right,→,0.6497209999943152,True,22,-,-,-
Y2-S2-018K21,1,71,AS,exp,31,↓,down,↓,0.5390664000296965,True,15,0,0,0
Y2-S2-018K21,1,72,AS,exp,44,↑,up,↑,0.6806917999638245,True,15,0,0,0
Y2-S2-018K21,1,73,AS,exp,43,→,right,→,0.6078118999721482,True,15,1,0,0
Y2-S2-018K21,1,74,AS,exp,28,↑,up,↑,0.7264820999698713,True,14,1,0,0
Y2-S2-018K21,1,75,AS,exp,42,→,right,→,0.6080161000136286,True,14,1,0,0
Y2-S2-018K21,1,76,AS,exp,26,←,left,←,0.7614301999565214,True,14,1,0,0
Y2-S2-018K21,1,77,AS,exp,29,↓,down,↓,0.6724571000086144,True,13,1,0,0
Y2-S2-018K21,1,78,AS,exp,47,←,right,→,0.5212266999296844,False,13,-1,1,1
Y2-S2-018K21,1,79,AS,exp,30,↑,up,↑,0.7096486000809819,True,14,-1,0,1
Y2-S2-018K21,1,80,AS,exp,42,→,right,→,0.5622587000252679,True,14,-1,0,1
Y2-S2-018K21,1,81,AS,exp,49,↓,down,↓,0.6110573000041768,True,14,1,1,2
Y2-S2-018K21,1,82,AS,exp,50,→,down,↓,0.5443306000670418,False,13,-1,1,3
Y2-S2-018K21,1,83,AS,exp,38,←,left,←,0.6515073999762535,True,14,-1,0,3
Y2-S2-018K21,1,84,AS,exp,35,↑,up,↑,0.7240071000996977,True,14,-1,0,3
Y2-S2-018K21,1,85,AS,exp,27,→,left,←,0.7193937000120059,False,14,-1,0,3
Y2-S2-018K21,1,86,AS,exp,26,↓,down,↓,0.7977922999998555,True,15,-1,0,3
Y2-S2-018K21,1,87,AS,exp,45,→,right,→,0.5779566999990493,True,15,-1,0,3
Y2-S2-018K21,1,88,AS,exp,38,↑,up,↑,0.6662195000099018,True,15,1,1,4
Y2-S2-018K21,1,89,AS,exp,48,←,left,←,0.6525245000375435,True,14,1,0,4
Y2-S2-018K21,1,90,AS,exp,45,→,right,→,0.6129206999903545,True,14,1,0,4
Y2-S2-018K21,1,91,AS,exp,28,←,right,→,0.5765994999092072,False,14,-1,1,5
Y2-S2-018K21,1,92,AS,exp,49,↑,up,↑,0.6163886999711394,True,15,-1,0,5
Y2-S2-018K21,1,93,AS,exp,47,←,right,→,0.45527479995507747,False,15,-1,0,5
Y2-S2-018K21,1,94,AS,exp,50,↓,down,↓,0.7348942999960855,True,16,-1,0,5
Y2-S2-018K21,1,95,AS,exp,25,↑,up,↑,0.7040979999583215,True,16,-1,0,5
Y2-S2-018K21,1,96,AS,exp,30,←,left,←,0.5791910000843927,True,16,1,1,6
Y2-S2-018K21,1,97,AS,exp,42,↓,down,↓,0.6727903999853879,True,15,1,0,6
Y2-S2-018K21,1,98,AS,exp,44,←,left,←,0.62681829999201,True,15,1,0,6
Y2-S2-018K21,1,99,AS,exp,48,↓,left,←,0.878243500017561,False,15,-1,1,7
Y2-S2-018K21,1,100,AS,exp,25,←,right,→,0.8992331000044942,False,16,-1,0,7
Y2-S2-018K21,1,101,AS,exp,26,→,right,→,0.6657908000051975,True,17,-1,0,7
Y2-S2-018K21,1,102,AS,exp,35,↓,down,↓,0.5753290000138804,True,17,-1,0,7
Y2-S2-018K21,1,103,AS,exp,31,←,left,←,0.6482733000302687,True,17,1,1,8
Y2-S2-018K21,1,104,AS,exp,40,↓,down,↓,0.6584266999270767,True,16,1,0,8
Y2-S2-018K21,1,105,AS,exp,43,→,right,→,0.5863525000168011,True,16,1,0,8
Y2-S2-018K21,1,106,AS,exp,45,←,left,←,0.6301222000038251,True,16,1,0,8
Y2-S2-018K21,1,107,AS,exp,32,↓,down,↓,0.5960117999929935,True,15,1,0,8
Y2-S2-018K21,1,108,AS,exp,42,↑,down,↓,0.5417000000597909,False,15,-1,1,9
Y2-S2-018K21,1,109,AS,exp,41,←,up,↑,0.8261354999849573,False,16,-1,0,9
Y2-S2-018K21,1,110,AS,exp,34,↓,down,↓,0.6297702000010759,True,17,-1,0,9
Y2-S2-018K21,1,111,AS,exp,45,↑,up,↑,0.6741968999849632,True,17,-1,0,9
Y2-S2-018K21,1,112,AS,exp,32,→,up,↑,0.7233910000650212,False,17,-1,0,9
Y2-S2-018K21,1,113,AS,exp,27,↓,down,↓,0.80323160008993,True,18,-1,0,9
Y2-S2-018K21,1,114,AS,exp,28,→,right,→,0.6843455999623984,True,18,-1,0,9
Y2-S2-018K21,1,115,AS,exp,28,↑,up,↑,0.699657000019215,True,18,1,1,10
Y2-S2-018K21,1,116,AS,exp,31,→,right,→,0.6187621999997646,True,17,1,0,10
Y2-S2-018K21,1,117,AS,exp,31,←,left,←,0.5541093000210822,True,17,1,0,10
Y2-S2-018K21,1,118,AS,exp,29,↓,down,↓,0.6248047000262886,True,17,1,0,10
Y2-S2-018K21,1,119,AS,exp,49,←,left,←,0.6256584000075236,True,16,1,0,10
Y2-S2-018K21,1,120,AS,exp,28,↓,up,↑,1.4754043999128044,False,16,-1,1,11
Y2-S2-018K21,1,121,AS,exp,36,←,left,←,0.6849852000596002,True,17,-1,0,11
Y2-S2-018K21,1,122,AS,exp,30,↓,down,↓,0.6761706999968737,True,17,-1,0,11
Y2-S2-018K21,1,123,AS,exp,43,→,right,→,0.6027406000066549,True,17,1,1,12
Y2-S2-018K21,1,124,AS,exp,33,←,left,←,0.5650409000227228,True,16,1,0,12
Y2-S2-018K21,1,125,AS,exp,44,↑,left,←,0.4715275999624282,False,16,-1,1,13
Y2-S2-018K21,1,126,AS,exp,38,←,left,←,0.6781068999553099,True,17,-1,0,13
Y2-S2-018K21,1,127,AS,exp,32,↓,down,↓,0.7103544999845326,True,17,-1,0,13
Y2-S2-018K21,1,128,AS,exp,36,←,left,←,0.526166999945417,True,17,1,1,14
Y2-S2-018K21,1,129,AS,exp,36,→,right,→,0.4612375000724569,True,16,1,0,14
Y2-S2-018K21,1,130,AS,exp,34,↓,down,↓,0.6053169999504462,True,16,1,0,14
Y2-S2-018K21,1,131,AS,exp,43,→,right,→,0.6628889999119565,True,16,1,0,14
Y2-S2-018K21,1,132,AS,exp,36,←,left,←,0.9302570000290871,True,15,1,0,14
Y2-S2-018K21,1,133,AS,exp,37,↓,down,↓,0.5098326000152156,True,15,1,0,14
Y2-S2-018K21,1,134,AS,exp,43,←,left,←,0.640289600007236,True,15,1,0,14
Y2-S2-018K21,1,135,AS,exp,31,↓,down,↓,0.5158366999821737,True,14,1,0,14
Y2-S2-018K21,1,136,AS,exp,46,←,left,←,0.5394017000216991,True,14,1,0,14
Y2-S2-018K21,1,137,AS,exp,41,↓,down,↓,0.4756867999676615,True,14,1,0,14
Y2-S2-018K21,1,138,AS,exp,33,←,left,←,0.5297957999864593,True,13,1,0,14
Y2-S2-018K21,1,139,AS,exp,35,↓,left,←,0.5174248000839725,False,13,-1,1,15
Y2-S2-018K21,1,140,AS,exp,36,←,up,↑,1.4408240000484511,False,14,-1,0,15
Y2-S2-018K21,1,141,AS,exp,34,→,right,→,0.8472243000287563,True,15,-1,0,15
Y2-S2-018K21,1,142,AS,exp,37,←,left,←,0.4809766999678686,True,15,-1,0,15
Y2-S2-018K21,1,143,AS,exp,41,→,right,→,0.49153240001760423,True,15,1,1,16
Y2-S2-018K21,2,144,PS,intra_train,35,←,left,←,0.6162205000873655,True,10,-,-,-
Y2-S2-018K21,2,145,PS,intra_train,27,↓,down,↓,0.5746266999049112,True,10,-,-,-
Y2-S2-018K21,2,146,PS,intra_train,40,→,right,→,0.5213756000157446,True,10,-,-,-
Y2-S2-018K21,2,147,PS,intra_train,49,←,left,←,0.5855620000511408,True,10,-,-,-
Y2-S2-018K21,2,148,PS,intra_train,40,→,left,←,0.7613719999790192,False,10,-,-,-
Y2-S2-018K21,2,149,PS,exp,38,←,left,←,0.4932502000592649,True,7,0,0,0
Y2-S2-018K21,2,150,PS,exp,46,↓,down,↓,0.6475801999913529,True,7,0,0,0
Y2-S2-018K21,2,151,PS,exp,41,↑,up,↑,1.3338595000095665,True,7,1,0,0
Y2-S2-018K21,2,152,PS,exp,48,→,left,←,0.5743499000091106,False,6,-1,1,1
Y2-S2-018K21,2,153,PS,exp,40,↑,left,←,0.4651383999735117,False,7,-1,0,1
Y2-S2-018K21,2,154,PS,exp,50,←,right,→,0.3888683000113815,False,8,-1,0,1
Y2-S2-018K21,2,155,PS,exp,43,→,right,→,0.5365089999977499,True,9,-1,0,1
Y2-S2-018K21,2,156,PS,exp,29,←,left,←,0.33018289995379746,True,9,-1,0,1
Y2-S2-018K21,2,157,PS,exp,45,↓,down,↓,0.44256230001337826,True,9,1,1,2
Y2-S2-018K21,2,158,PS,exp,37,←,right,→,0.3603442999301478,False,8,-1,1,3
Y2-S2-018K21,2,159,PS,exp,28,↑,no_key,no_letter,-1.0,False,9,-1,0,3
Y2-S2-018K21,2,160,PS,exp,39,←,left,←,0.38499399996362627,True,10,-1,0,3
Y2-S2-018K21,2,161,PS,exp,34,↓,right,→,0.36762609996367246,False,10,-1,0,3
Y2-S2-018K21,2,162,PS,exp,29,↑,left,←,0.300574199995026,False,11,-1,0,3
Y2-S2-018K21,2,163,PS,exp,47,→,down,↓,0.3337143000680953,False,12,-1,0,3
Y2-S2-018K21,2,164,PS,exp,44,↓,down,↓,0.49269169999752194,True,13,-1,0,3
Y2-S2-018K21,2,165,PS,exp,45,↑,up,↑,0.8695718999952078,True,13,-1,0,3
Y2-S2-018K21,2,166,PS,exp,25,↓,down,↓,0.46738069993443787,True,13,1,1,4
Y2-S2-018K21,2,167,PS,exp,46,↑,no_key,no_letter,-1.0,False,12,-1,1,5
Y2-S2-018K21,2,168,PS,exp,41,→,right,→,0.9330297000706196,True,13,-1,0,5
Y2-S2-018K21,2,169,PS,exp,41,↑,up,↑,0.5726698000216857,True,13,-1,0,5
Y2-S2-018K21,2,170,PS,exp,44,↓,down,↓,0.4981538000283763,True,13,1,1,6
Y2-S2-018K21,2,171,PS,exp,39,↑,up,↑,0.5152198999421671,True,12,1,0,6
Y2-S2-018K21,2,172,PS,exp,35,←,left,←,0.5771621000021696,True,12,1,0,6
Y2-S2-018K21,2,173,PS,exp,34,↑,up,↑,0.5323945999844,True,12,1,0,6
Y2-S2-018K21,2,174,PS,exp,49,←,left,←,0.8175360999302939,True,11,1,0,6
Y2-S2-018K21,2,175,PS,exp,26,↑,up,↑,1.095307799987495,True,11,1,0,6
Y2-S2-018K21,2,176,PS,exp,49,→,right,→,0.5379707999527454,True,11,1,0,6
Y2-S2-018K21,2,177,PS,exp,46,↑,up,↑,0.5030539999715984,True,10,1,0,6
Y2-S2-018K21,2,178,PS,exp,44,→,right,→,0.5812465999042615,True,10,1,0,6
Y2-S2-018K21,2,179,PS,exp,38,↓,down,↓,0.585932599962689,True,10,1,0,6
Y2-S2-018K21,2,180,PS,exp,44,←,left,←,0.5187733999919146,True,9,1,0,6
Y2-S2-018K21,2,181,PS,exp,48,↓,down,↓,0.5239888000069186,True,9,1,0,6
Y2-S2-018K21,2,182,PS,exp,41,↑,up,↑,0.7067669000243768,True,9,1,0,6
Y2-S2-018K21,2,183,PS,exp,38,←,left,←,0.5812716000946239,True,8,1,0,6
Y2-S2-018K21,2,184,PS,exp,27,→,left,←,1.0237363999476656,False,8,-1,1,7
Y2-S2-018K21,2,185,PS,exp,34,↑,up,↑,0.49765569996088743,True,9,-1,0,7
Y2-S2-018K21,2,186,PS,exp,38,→,right,→,0.47132230002898723,True,9,-1,0,7
Y2-S2-018K21,2,187,PS,exp,33,↓,up,↑,0.7436081999912858,False,9,-1,0,7
Y2-S2-018K21,2,188,PS,exp,50,←,left,←,0.5411677999654785,True,10,-1,0,7
Y2-S2-018K21,2,189,PS,exp,40,↑,left,←,0.5076800999231637,False,10,-1,0,7
Y2-S2-018K21,2,190,PS,exp,35,←,left,←,0.4571840000571683,True,11,-1,0,7
Y2-S2-018K21,2,191,PS,exp,44,→,right,→,0.4363562000216916,True,11,-1,0,7
Y2-S2-018K21,2,192,PS,exp,35,↓,down,↓,0.5228413000004366,True,11,1,1,8
Y2-S2-018K21,2,193,PS,exp,25,→,down,↓,0.838370000012219,False,10,-1,1,9
Y2-S2-018K21,2,194,PS,exp,26,←,left,←,0.42082620004657656,True,11,-1,0,9
Y2-S2-018K21,2,195,PS,exp,28,↓,right,→,0.3669924000278115,False,11,-1,0,9
Y2-S2-018K21,2,196,PS,exp,42,↑,up,↑,0.5771892999764532,True,12,-1,0,9
Y2-S2-018K21,2,197,PS,exp,39,↓,down,↓,0.4726336000021547,True,12,-1,0,9
Y2-S2-018K21,2,198,PS,exp,41,→,right,→,0.502068700036034,True,12,1,1,10
Y2-S2-018K21,2,199,PS,exp,28,←,right,→,0.5673772000009194,False,11,-1,1,11
Y2-S2-018K21,2,200,PS,exp,49,→,right,→,0.40726889995858073,True,12,-1,0,11
Y2-S2-018K21,2,201,PS,exp,48,↓,down,↓,0.43570600007660687,True,12,-1,0,11
Y2-S2-018K21,2,202,PS,exp,28,←,right,→,0.4657852000091225,False,12,-1,0,11
Y2-S2-018K21,2,203,PS,exp,30,↑,up,↑,1.008066700072959,True,13,-1,0,11
Y2-S2-018K21,2,204,PS,exp,29,←,left,←,0.5325482999905944,True,13,-1,0,11
Y2-S2-018K21,2,205,PS,exp,35,↓,down,↓,0.46436340000946075,True,13,1,1,12
Y2-S2-018K21,2,206,PS,exp,41,←,left,←,0.6760848999256268,True,12,1,0,12
Y2-S2-018K21,2,207,PS,exp,39,↓,down,↓,0.5122418999671936,True,12,1,0,12
Y2-S2-018K21,2,208,PS,exp,27,→,right,→,0.7997794999973848,True,12,1,0,12
Y2-S2-018K21,2,209,PS,exp,35,↓,down,↓,0.397945599979721,True,11,1,0,12
Y2-S2-018K21,2,210,PS,exp,37,↑,up,↑,0.5484958000015467,True,11,1,0,12
Y2-S2-018K21,2,211,PS,exp,30,←,right,→,0.7938792000059038,False,11,-1,1,13
Y2-S2-018K21,2,212,PS,exp,27,↓,down,↓,0.41542029997799546,True,12,-1,0,13
Y2-S2-018K21,2,213,PS,exp,31,←,left,←,0.48726790002547204,True,12,-1,0,13
Y2-S2-018K21,2,214,PS,exp,27,↑,up,↑,0.7376685999333858,True,12,1,1,14
Y2-S2-018K21,2,215,PS,exp,34,↓,down,↓,0.46121219999622554,True,11,1,0,14
Y2-S2-018K21,2,216,PS,exp,37,↑,up,↑,0.6071126000024378,True,11,1,0,14
Y2-S2-018K21,2,217,PS,exp,42,→,left,←,0.6016632999526337,False,11,-1,1,15
Y2-S2-018K21,2,218,PS,exp,28,←,left,←,0.37991710007190704,True,12,-1,0,15
Y2-S2-018K21,2,219,PS,exp,25,↓,down,↓,0.6792501999298111,True,12,-1,0,15
Y2-S2-018K21,2,220,PS,exp,45,←,left,←,0.5161764000076801,True,12,1,1,16
Y2-S2-018K21,3,221,PS,intra_train,36,↑,up,↑,0.8948735999874771,True,10,-,-,-
Y2-S2-018K21,3,222,PS,intra_train,50,→,right,→,0.4653782000532374,True,10,-,-,-
Y2-S2-018K21,3,223,PS,intra_train,36,↑,up,↑,0.49797040002886206,True,10,-,-,-
Y2-S2-018K21,3,224,PS,intra_train,37,→,right,→,0.43429709994234145,True,10,-,-,-
Y2-S2-018K21,3,225,PS,intra_train,50,←,left,←,0.4206370000028983,True,10,-,-,-
Y2-S2-018K21,3,226,PS,exp,27,→,left,←,0.5409804000519216,False,7,-1,0,0
Y2-S2-018K21,3,227,PS,exp,29,↑,up,↑,0.5045816999627277,True,8,-1,0,0
Y2-S2-018K21,3,228,PS,exp,32,→,left,←,0.4862320999382064,False,8,-1,0,0
Y2-S2-018K21,3,229,PS,exp,35,↑,up,↑,0.5509745000163093,True,9,-1,0,0
Y2-S2-018K21,3,230,PS,exp,33,↓,up,↑,0.5447468999773264,False,9,-1,0,0
Y2-S2-018K21,3,231,PS,exp,35,→,right,→,0.5442807000363246,True,10,-1,0,0
Y2-S2-018K21,3,232,PS,exp,45,↓,down,↓,0.4648373000090942,True,10,-1,0,0
Y2-S2-018K21,3,233,PS,exp,31,→,right,→,0.44014980003703386,True,10,1,1,1
Y2-S2-018K21,3,234,PS,exp,45,↑,up,↑,0.5270383999450132,True,9,1,0,1
Y2-S2-018K21,3,235,PS,exp,32,→,right,→,0.4927723000291735,True,9,1,0,1
Y2-S2-018K21,3,236,PS,exp,33,↓,down,↓,0.38588529999833554,True,9,1,0,1
Y2-S2-018K21,3,237,PS,exp,42,←,left,←,0.5250021999236196,True,8,1,0,1
Y2-S2-018K21,3,238,PS,exp,25,→,right,→,0.48113099997863173,True,8,1,0,1
Y2-S2-018K21,3,239,PS,exp,26,↑,right,→,0.23371810000389814,False,8,-1,1,2
Y2-S2-018K21,3,240,PS,exp,44,→,right,→,0.4925595000386238,True,9,-1,0,2
Y2-S2-018K21,3,241,PS,exp,50,↓,down,↓,0.5335168000310659,True,9,-1,0,2
Y2-S2-018K21,3,242,PS,exp,36,→,right,→,0.48121760005597025,True,9,1,1,3
Y2-S2-018K21,3,243,PS,exp,34,←,right,→,0.521564400056377,False,8,-1,1,4
Y2-S2-018K21,3,244,PS,exp,42,→,right,→,0.46491100010462105,True,9,-1,0,4
Y2-S2-018K21,3,245,PS,exp,34,↓,right,→,0.6880745000671595,False,9,-1,0,4
Y2-S2-018K21,3,246,PS,exp,35,→,right,→,0.47445139999035746,True,10,-1,0,4
Y2-S2-018K21,3,247,PS,exp,42,←,down,↓,0.6224789000116289,False,10,-1,0,4
Y2-S2-018K21,3,248,PS,exp,40,→,right,→,0.3600299000972882,True,11,-1,0,4
Y2-S2-018K21,3,249,PS,exp,36,↑,up,↑,1.386575200012885,True,11,-1,0,4
Y2-S2-018K21,3,250,PS,exp,42,←,left,←,0.6860172000015154,True,11,1,1,5
Y2-S2-018K21,3,251,PS,exp,42,↓,down,↓,0.4518241999903694,True,10,1,0,5
Y2-S2-018K21,3,252,PS,exp,27,→,right,→,0.46760460000950843,True,10,1,0,5
Y2-S2-018K21,3,253,PS,exp,41,↓,down,↓,0.48137819999828935,True,10,1,0,5
Y2-S2-018K21,3,254,PS,exp,25,←,left,←,0.4005939000053331,True,9,1,0,5
Y2-S2-018K21,3,255,PS,exp,28,↑,down,↓,0.43811320001259446,False,9,-1,1,6
Y2-S2-018K21,3,256,PS,exp,42,↓,down,↓,0.5124073999468237,True,10,-1,0,6
Y2-S2-018K21,3,257,PS,exp,35,↑,up,↑,0.5540297999978065,True,10,-1,0,6
Y2-S2-018K21,3,258,PS,exp,42,→,right,→,0.4416276999982074,True,10,1,1,7
Y2-S2-018K21,3,259,PS,exp,38,↓,down,↓,0.4803890000330284,True,9,1,0,7
Y2-S2-018K21,3,260,PS,exp,38,↑,up,↑,0.6225228999974206,True,9,1,0,7
Y2-S2-018K21,3,261,PS,exp,35,↓,down,↓,0.4388705000746995,True,9,1,0,7
Y2-S2-018K21,3,262,PS,exp,38,←,left,←,0.5227889999514446,True,8,1,0,7
Y2-S2-018K21,3,263,PS,exp,50,↑,up,↑,0.48444889998063445,True,8,1,0,7
Y2-S2-018K21,3,264,PS,exp,47,←,left,←,0.5380546000087634,True,8,1,0,7
Y2-S2-018K21,3,265,PS,exp,46,↑,up,↑,0.39454730006400496,True,7,1,0,7
Y2-S2-018K21,3,266,PS,exp,50,↓,left,←,0.25076339999213815,False,7,-1,1,8
Y2-S2-018K21,3,267,PS,exp,26,→,left,←,0.36362900002859533,False,8,-1,0,8
Y2-S2-018K21,3,268,PS,exp,43,↓,left,←,0.6048714000498876,False,9,-1,0,8
Y2-S2-018K21,3,269,PS,exp,36,↑,right,→,0.28395369998179376,False,10,-1,0,8
Y2-S2-018K21,3,270,PS,exp,42,←,left,←,0.46819519996643066,True,11,-1,0,8
Y2-S2-018K21,3,271,PS,exp,38,↑,up,↑,0.5591657999902964,True,11,-1,0,8
Y2-S2-018K21,3,272,PS,exp,39,→,right,→,0.6273195999674499,True,11,1,1,9
Y2-S2-018K21,3,273,PS,exp,29,↑,up,↑,0.6756676000077277,True,10,1,0,9
Y2-S2-018K21,3,274,PS,exp,32,←,left,←,0.44289079995360225,True,10,1,0,9
Y2-S2-018K21,3,275,PS,exp,47,↓,down,↓,0.5956978000467643,True,10,1,0,9
Y2-S2-018K21,3,276,PS,exp,50,←,down,↓,0.4471814000280574,False,9,-1,1,10
Y2-S2-018K21,3,277,PS,exp,34,↑,up,↑,0.48472429998219013,True,10,-1,0,10
Y2-S2-018K21,3,278,PS,exp,33,↓,down,↓,0.5760250000748783,True,10,-1,0,10
Y2-S2-018K21,3,279,PS,exp,43,↑,up,↑,0.5362525000236928,True,10,1,1,11
Y2-S2-018K21,3,280,PS,exp,25,←,down,↓,0.6695723000448197,False,9,-1,1,12
Y2-S2-018K21,3,281,PS,exp,50,↓,up,↑,0.5306412000209093,False,10,-1,0,12
Y2-S2-018K21,3,282,PS,exp,42,→,down,↓,0.5916203999659047,False,11,-1,0,12
Y2-S2-018K21,3,283,PS,exp,34,↓,no_key,no_letter,-1.0,False,12,-1,0,12
Y2-S2-018K21,3,284,PS,exp,31,←,left,←,0.46997950004879385,True,13,-1,0,12
Y2-S2-018K21,3,285,PS,exp,47,→,left,←,0.7043227999238297,False,13,-1,0,12
Y2-S2-018K21,3,286,PS,exp,28,←,left,←,0.6872227999847382,True,14,-1,0,12
Y2-S2-018K21,3,287,PS,exp,35,→,left,←,0.7205282000359148,False,14,-1,0,12
Y2-S2-018K21,3,288,PS,exp,31,↓,up,↑,0.8886685000034049,False,15,-1,0,12
Y2-S2-018K21,3,289,PS,exp,36,↑,up,↑,0.8844160999869928,True,16,-1,0,12
Y2-S2-018K21,3,290,PS,exp,43,→,right,→,0.8261027000844479,True,16,-1,0,12
Y2-S2-018K21,3,291,PS,exp,33,↑,down,↓,0.6618959000334144,False,16,-1,0,12
Y2-S2-018K21,3,292,PS,exp,41,←,no_key,no_letter,-1.0,False,17,-1,0,12
Y2-S2-018K21,3,293,PS,exp,42,↓,down,↓,0.5737704000202939,True,18,-1,0,12
Y2-S2-018K21,3,294,PS,exp,40,←,left,←,0.8926953000482172,True,18,-1,0,12
Y2-S2-018K21,3,295,PS,exp,41,↑,up,↑,0.7389718000777066,True,18,1,1,13
Y2-S2-018K21,3,296,PS,exp,31,→,left,←,0.9840210999827832,False,17,-1,1,14
Y2-S2-018K21,3,297,PS,exp,49,↓,down,↓,0.733176700072363,True,18,-1,0,14
Y2-S2-018K21,3,298,PS,exp,39,←,left,←,0.5073593000415713,True,18,-1,0,14
Y2-S2-018K21,3,299,PS,exp,29,→,right,→,0.616317700012587,True,18,1,1,15
Y2-S2-018K21,3,300,PS,exp,34,↓,down,↓,0.46224440005607903,True,17,1,0,15
Y2-S2-018K21,3,301,PS,exp,28,→,right,→,0.5318350000306964,True,17,1,0,15
Y2-S2-018K21,3,302,PS,exp,29,↓,no_key,no_letter,-1.0,False,17,-1,1,16
Y2-S2-018K21,4,303,AS,intra_train,44,→,right,→,0.6999981999397278,True,22,-,-,-
Y2-S2-018K21,4,304,AS,intra_train,45,↑,up,↑,0.816877199918963,True,22,-,-,-
Y2-S2-018K21,4,305,AS,intra_train,44,←,left,←,0.6055079000070691,True,22,-,-,-
Y2-S2-018K21,4,306,AS,intra_train,36,↑,up,↑,0.7409387000370771,True,22,-,-,-
Y2-S2-018K21,4,307,AS,intra_train,40,←,left,←,0.5523926999885589,True,22,-,-,-
Y2-S2-018K21,4,308,AS,exp,49,↓,down,↓,0.5811696000164375,True,15,0,0,0
Y2-S2-018K21,4,309,AS,exp,30,→,right,→,0.8936614999547601,True,15,0,0,0
Y2-S2-018K21,4,310,AS,exp,35,↓,up,↑,0.6996390999993309,False,15,-1,0,0
Y2-S2-018K21,4,311,AS,exp,43,→,right,→,0.5181577999610454,True,16,-1,0,0
Y2-S2-018K21,4,312,AS,exp,33,↑,up,↑,0.6451296999584883,True,16,-1,0,0
Y2-S2-018K21,4,313,AS,exp,26,↓,down,↓,0.6225344000849873,True,16,1,1,1
Y2-S2-018K21,4,314,AS,exp,44,←,left,←,0.5948074000189081,True,15,1,0,1
Y2-S2-018K21,4,315,AS,exp,32,↓,down,↓,0.5886151000158861,True,15,1,0,1
Y2-S2-018K21,4,316,AS,exp,32,↑,up,↑,0.5675919000059366,True,15,1,0,1
Y2-S2-018K21,4,317,AS,exp,27,←,left,←,0.553902699961327,True,14,1,0,1
Y2-S2-018K21,4,318,AS,exp,25,↑,down,↓,0.5992307000560686,False,14,-1,1,2
Y2-S2-018K21,4,319,AS,exp,28,←,left,←,0.5241707999957725,True,15,-1,0,2
Y2-S2-018K21,4,320,AS,exp,49,↑,up,↑,0.5268239000579342,True,15,-1,0,2
Y2-S2-018K21,4,321,AS,exp,40,←,left,←,0.5034600000362843,True,15,1,1,3
Y2-S2-018K21,4,322,AS,exp,50,↑,up,↑,0.5292437000898644,True,14,1,0,3
Y2-S2-018K21,4,323,AS,exp,46,→,left,←,0.41052499995566905,False,14,-1,1,4
Y2-S2-018K21,4,324,AS,exp,40,↓,down,↓,0.5855301000410691,True,15,-1,0,4
Y2-S2-018K21,4,325,AS,exp,42,↑,up,↑,0.6559889999916777,True,15,-1,0,4
Y2-S2-018K21,4,326,AS,exp,39,→,right,→,0.5432707999134436,True,15,1,1,5
Y2-S2-018K21,4,327,AS,exp,26,↓,up,↑,0.7780477000633255,False,14,-1,1,6
Y2-S2-018K21,4,328,AS,exp,44,→,right,→,0.5924818000057712,True,15,-1,0,6
Y2-S2-018K21,4,329,AS,exp,39,↑,up,↑,0.6041280999779701,True,15,-1,0,6
Y2-S2-018K21,4,330,AS,exp,47,→,right,→,0.5379189000232145,True,15,1,1,7
Y2-S2-018K21,4,331,AS,exp,46,←,left,←,0.6367479000473395,True,14,1,0,7
Y2-S2-018K21,4,332,AS,exp,46,→,right,→,0.4022132999962196,True,14,1,0,7
Y2-S2-018K21,4,333,AS,exp,30,←,no_key,no_letter,-1.0,False,14,-1,1,8
Y2-S2-018K21,4,334,AS,exp,46,↓,down,↓,0.5525398999452591,True,15,-1,0,8
Y2-S2-018K21,4,335,AS,exp,33,←,left,←,0.571865800069645,True,15,-1,0,8
Y2-S2-018K21,4,336,AS,exp,48,→,right,→,0.48300340003333986,True,15,1,1,9
Y2-S2-018K21,4,337,AS,exp,29,←,left,←,0.45884999993722886,True,14,1,0,9
Y2-S2-018K21,4,338,AS,exp,48,↑,left,←,0.7786514000035822,False,14,-1,1,10
Y2-S2-018K21,4,339,AS,exp,32,↓,down,↓,0.5848213999997824,True,15,-1,0,10
Y2-S2-018K21,4,340,AS,exp,38,↑,up,↑,0.6125807999633253,True,15,-1,0,10
Y2-S2-018K21,4,341,AS,exp,49,←,right,→,0.6217465000227094,False,15,-1,0,10
Y2-S2-018K21,4,342,AS,exp,48,→,no_key,no_letter,-1.0,False,16,-1,0,10
Y2-S2-018K21,4,343,AS,exp,27,←,left,←,0.9656795000191778,True,17,-1,0,10
Y2-S2-018K21,4,344,AS,exp,38,→,left,←,0.7145115999737754,False,17,-1,0,10
Y2-S2-018K21,4,345,AS,exp,40,↓,down,↓,0.5608886000700295,True,18,-1,0,10
Y2-S2-018K21,4,346,AS,exp,34,→,right,→,0.522242300095968,True,18,-1,0,10
Y2-S2-018K21,4,347,AS,exp,42,←,left,←,0.5381049999268726,True,18,1,1,11
Y2-S2-018K21,4,348,AS,exp,46,→,right,→,0.6417858999921009,True,17,1,0,11
Y2-S2-018K21,4,349,AS,exp,43,↑,up,↑,0.7004079000325873,True,17,1,0,11
Y2-S2-018K21,4,350,AS,exp,35,↓,left,←,0.7906356999883428,False,17,-1,1,12
Y2-S2-018K21,4,351,AS,exp,49,←,left,←,0.5760461000027135,True,18,-1,0,12
Y2-S2-018K21,4,352,AS,exp,27,↓,up,↑,0.865087200072594,False,18,-1,0,12
Y2-S2-018K21,4,353,AS,exp,37,↑,up,↑,0.41701809992082417,True,19,-1,0,12
Y2-S2-018K21,4,354,AS,exp,33,→,right,→,0.6039284000871703,True,19,-1,0,12
Y2-S2-018K21,4,355,AS,exp,41,↑,up,↑,0.5481070999521762,True,19,1,1,13
Y2-S2-018K21,4,356,AS,exp,41,↓,down,↓,0.49989300000015646,True,18,1,0,13
Y2-S2-018K21,4,357,AS,exp,26,↑,down,↓,0.6345514999702573,False,18,-1,1,14
Y2-S2-018K21,4,358,AS,exp,43,↓,down,↓,0.6724245001096278,True,19,-1,0,14
Y2-S2-018K21,4,359,AS,exp,25,↑,down,↓,0.5107961999019608,False,19,-1,0,14
Y2-S2-018K21,4,360,AS,exp,41,→,right,→,0.5760594999883324,True,20,-1,0,14
Y2-S2-018K21,4,361,AS,exp,44,←,left,←,0.6099347999552265,True,20,-1,0,14
Y2-S2-018K21,4,362,AS,exp,28,→,right,→,0.6123738999012858,True,20,1,1,15
Y2-S2-018K21,4,363,AS,exp,40,↑,up,↑,0.8714786999626085,True,19,1,0,15
Y2-S2-018K21,4,364,AS,exp,42,↓,down,↓,0.6219601999036968,True,19,1,0,15
Y2-S2-018K21,4,365,AS,exp,29,↑,up,↑,0.657070399960503,True,19,1,0,15
Y2-S2-018K21,4,366,AS,exp,39,↓,no_key,no_letter,-1.0,False,18,-1,1,16
Y2-S2-018K21,5,367,AS,intra_train,35,←,left,←,0.7058465000009164,True,22,-,-,-
Y2-S2-018K21,5,368,AS,intra_train,30,→,right,→,0.7815980999730527,True,22,-,-,-
Y2-S2-018K21,5,369,AS,intra_train,32,←,left,←,0.5528773000696674,True,22,-,-,-
Y2-S2-018K21,5,370,AS,intra_train,37,→,right,→,0.620773599948734,True,22,-,-,-
Y2-S2-018K21,5,371,AS,intra_train,41,↓,down,↓,0.9718826999887824,True,22,-,-,-
Y2-S2-018K21,5,372,AS,exp,35,↑,up,↑,0.6101876999018714,True,15,0,0,0
Y2-S2-018K21,5,373,AS,exp,37,←,left,←,0.6604444999247789,True,15,0,0,0
Y2-S2-018K21,5,374,AS,exp,28,↓,down,↓,0.5410945999901742,True,15,1,0,0
Y2-S2-018K21,5,375,AS,exp,35,→,right,→,0.6553213999141008,True,14,1,0,0
Y2-S2-018K21,5,376,AS,exp,45,↓,down,↓,0.633916600025259,True,14,1,0,0
Y2-S2-018K21,5,377,AS,exp,36,↑,down,↓,0.605075899977237,False,14,-1,1,1
Y2-S2-018K21,5,378,AS,exp,44,→,up,↑,0.6461390999611467,False,15,-1,0,1
Y2-S2-018K21,5,379,AS,exp,48,↓,down,↓,0.4004601000342518,True,16,-1,0,1
Y2-S2-018K21,5,380,AS,exp,45,→,no_key,no_letter,-1.0,False,16,-1,0,1
Y2-S2-018K21,5,381,AS,exp,28,←,left,←,0.54304079990834,True,17,-1,0,1
Y2-S2-018K21,5,382,AS,exp,40,→,left,←,0.7010882999747992,False,17,-1,0,1
Y2-S2-018K21,5,383,AS,exp,34,↑,up,↑,0.7121753999963403,True,18,-1,0,1
Y2-S2-018K21,5,384,AS,exp,39,→,right,→,0.50370500003919,True,18,-1,0,1
Y2-S2-018K21,5,385,AS,exp,29,↓,down,↓,0.6110001999186352,True,18,1,1,2
Y2-S2-018K21,5,386,AS,exp,49,→,right,→,0.755947700003162,True,17,1,0,2
Y2-S2-018K21,5,387,AS,exp,43,←,left,←,0.4739603999769315,True,17,1,0,2
Y2-S2-018K21,5,388,AS,exp,31,→,right,→,0.6646460000192747,True,17,1,0,2
Y2-S2-018K21,5,389,AS,exp,46,←,no_key,no_letter,-1.0,False,16,-1,1,3
Y2-S2-018K21,5,390,AS,exp,33,↑,down,↓,0.7051972999470308,False,17,-1,0,3
Y2-S2-018K21,5,391,AS,exp,28,↓,up,↑,0.6329951999941841,False,18,-1,0,3
Y2-S2-018K21,5,392,AS,exp,36,→,right,→,0.649890200002119,True,19,-1,0,3
Y2-S2-018K21,5,393,AS,exp,29,←,left,←,0.6255485999863595,True,19,-1,0,3
Y2-S2-018K21,5,394,AS,exp,38,↓,down,↓,0.5876038999995217,True,19,1,1,4
Y2-S2-018K21,5,395,AS,exp,42,↑,up,↑,0.6897072000429034,True,18,1,0,4
Y2-S2-018K21,5,396,AS,exp,46,↓,down,↓,0.5057011999888346,True,18,1,0,4
Y2-S2-018K21,5,397,AS,exp,25,←,left,←,0.6397155999438837,True,18,1,0,4
Y2-S2-018K21,5,398,AS,exp,47,→,right,→,0.5621752000879496,True,17,1,0,4
Y2-S2-018K21,5,399,AS,exp,46,←,left,←,0.6241873999824747,True,17,1,0,4
Y2-S2-018K21,5,400,AS,exp,26,→,right,→,0.4733085000189021,True,17,1,0,4
Y2-S2-018K21,5,401,AS,exp,33,←,left,←,0.40015200001653284,True,16,1,0,4
Y2-S2-018K21,5,402,AS,exp,29,↓,down,↓,0.6814680000534281,True,16,1,0,4
Y2-S2-018K21,5,403,AS,exp,43,→,right,→,0.846776399994269,True,16,1,0,4
Y2-S2-018K21,5,404,AS,exp,36,←,left,←,0.6822462999261916,True,15,1,0,4
Y2-S2-018K21,5,405,AS,exp,44,↑,down,↓,0.7165689000394195,False,15,-1,1,5
Y2-S2-018K21,5,406,AS,exp,46,↓,down,↓,0.47932589997071773,True,16,-1,0,5
Y2-S2-018K21,5,407,AS,exp,48,→,right,→,0.470392300048843,True,16,-1,0,5
Y2-S2-018K21,5,408,AS,exp,35,↑,down,↓,0.5894414000213146,False,16,-1,0,5
Y2-S2-018K21,5,409,AS,exp,45,→,right,→,0.7433091999264434,True,17,-1,0,5
Y2-S2-018K21,5,410,AS,exp,37,↑,down,↓,0.49771320004947484,False,17,-1,0,5
Y2-S2-018K21,5,411,AS,exp,42,→,left,←,0.6071063000708818,False,18,-1,0,5
Y2-S2-018K21,5,412,AS,exp,44,←,left,←,0.5165364999556914,True,19,-1,0,5
Y2-S2-018K21,5,413,AS,exp,46,→,right,→,0.587574000004679,True,19,-1,0,5
Y2-S2-018K21,5,414,AS,exp,44,↓,down,↓,0.5284418000373989,True,19,1,1,6
Y2-S2-018K21,5,415,AS,exp,40,→,down,↓,0.7006726999534294,False,18,-1,1,7
Y2-S2-018K21,5,416,AS,exp,35,↑,up,↑,0.6962683999445289,True,19,-1,0,7
Y2-S2-018K21,5,417,AS,exp,30,→,right,→,0.5581742000067607,True,19,-1,0,7
Y2-S2-018K21,5,418,AS,exp,37,↓,down,↓,0.48984620010014623,True,19,1,1,8
Y2-S2-018K21,5,419,AS,exp,37,←,left,←,0.773073099902831,True,18,1,0,8
Y2-S2-018K21,5,420,AS,exp,28,→,right,→,0.5592717999825254,True,18,1,0,8
Y2-S2-018K21,5,421,AS,exp,48,↑,up,↑,0.6628545999992639,True,18,1,0,8
Y2-S2-018K21,5,422,AS,exp,42,↓,up,↑,0.6105496000964195,False,17,-1,1,9
Y2-S2-018K21,5,423,AS,exp,30,↑,up,↑,0.5144118999596685,True,18,-1,0,9
Y2-S2-018K21,5,424,AS,exp,42,→,right,→,0.706435100059025,True,18,-1,0,9
Y2-S2-018K21,5,425,AS,exp,39,↑,up,↑,0.5477840999374166,True,18,1,1,10
Y2-S2-018K21,5,426,AS,exp,25,↓,down,↓,0.8926421999931335,True,17,1,0,10
Y2-S2-018K21,5,427,AS,exp,42,→,right,→,0.5291084999917075,True,17,1,0,10
Y2-S2-018K21,5,428,AS,exp,45,↑,up,↑,0.6341871001059189,True,17,1,0,10
Y2-S2-018K21,5,429,AS,exp,44,→,right,→,0.5089641999220476,True,16,1,0,10
Y2-S2-018K21,5,430,AS,exp,27,↓,down,↓,0.7838048000121489,True,16,1,0,10
Y2-S2-018K21,5,431,AS,exp,38,←,left,←,0.5335758000146598,True,16,1,0,10
Y2-S2-018K21,5,432,AS,exp,32,↑,up,↑,0.7539996999548748,True,15,1,0,10
Y2-S2-018K21,5,433,AS,exp,37,→,right,→,0.5237790000392124,True,15,1,0,10
Y2-S2-018K21,5,434,AS,exp,30,←,left,←,1.097904899972491,True,15,1,0,10
Y2-S2-018K21,5,435,AS,exp,38,↑,up,↑,0.7099841999588534,True,14,1,0,10
Y2-S2-018K21,5,436,AS,exp,33,↓,up,↑,0.9140096000628546,False,14,-1,1,11
Y2-S2-018K21,5,437,AS,exp,36,↑,up,↑,0.5573749999748543,True,15,-1,0,11
Y2-S2-018K21,5,438,AS,exp,44,↓,down,↓,0.5970473999623209,True,15,-1,0,11
Y2-S2-018K21,5,439,AS,exp,29,←,left,←,0.5568802000489086,True,15,1,1,12
Y2-S2-018K21,5,440,AS,exp,50,↑,up,↑,0.5209870000835508,True,14,1,0,12
Y2-S2-018K21,5,441,AS,exp,29,→,left,←,0.48476090002804995,False,14,-1,1,13
Y2-S2-018K21,5,442,AS,exp,36,↑,up,↑,0.6514338999986649,True,15,-1,0,13
Y2-S2-018K21,5,443,AS,exp,27,→,left,←,0.5606835000216961,False,15,-1,0,13
Y2-S2-018K21,5,444,AS,exp,46,←,right,→,0.4806857999647036,False,16,-1,0,13
Y2-S2-018K21,5,445,AS,exp,49,↑,up,↑,0.7914022000040859,True,17,-1,0,13
Y2-S2-018K21,5,446,AS,exp,34,→,right,→,0.4169084000168368,True,17,-1,0,13
Y2-S2-018K21,5,447,AS,exp,37,↓,down,↓,0.5692553000990301,True,17,1,1,14
Y2-S2-018K21,5,448,AS,exp,47,←,right,→,0.5950746999587864,False,16,-1,1,15
Y2-S2-018K21,5,449,AS,exp,35,↓,left,←,0.7022126000374556,False,17,-1,0,15
Y2-S2-018K21,5,450,AS,exp,46,←,left,←,1.0039940000278875,True,18,-1,0,15
Y2-S2-018K21,5,451,AS,exp,37,→,right,→,0.4004661999642849,True,18,-1,0,15
Y2-S2-018K21,5,452,AS,exp,42,←,no_key,no_letter,-1.0,False,18,-1,0,15
Y2-S2-018K21,5,453,AS,exp,31,→,no_key,no_letter,-1.0,False,19,-1,0,15
Y2-S2-018K21,5,454,AS,exp,45,↓,down,↓,0.6643836000002921,True,20,-1,0,15
Y2-S2-018K21,5,455,AS,exp,31,→,right,→,0.5007042998913676,True,20,-1,0,15
Y2-S2-018K21,5,456,AS,exp,36,↑,up,↑,0.6210086999926716,True,20,1,1,16
Y2-S2-018K21,6,457,PS,intra_train,40,←,right,→,0.6830563999246806,False,10,-,-,-
Y2-S2-018K21,6,458,PS,intra_train,34,↓,down,↓,0.4931256999261677,True,10,-,-,-
Y2-S2-018K21,6,459,PS,intra_train,50,←,left,←,0.5704969000071287,True,10,-,-,-
Y2-S2-018K21,6,460,PS,intra_train,42,→,right,→,0.5861367000034079,True,10,-,-,-
Y2-S2-018K21,6,461,PS,intra_train,40,↑,up,↑,0.43583199998829514,True,10,-,-,-
Y2-S2-018K21,6,462,PS,exp,31,↓,up,↑,0.4550005999626592,False,7,-1,0,0
Y2-S2-018K21,6,463,PS,exp,26,↑,up,↑,0.5268644999014214,True,8,-1,0,0
Y2-S2-018K21,6,464,PS,exp,45,↓,left,←,0.4421976999146864,False,8,-1,0,0
Y2-S2-018K21,6,465,PS,exp,46,←,left,←,0.448186399997212,True,9,-1,0,0
Y2-S2-018K21,6,466,PS,exp,30,→,right,→,0.4639892000705004,True,9,-1,0,0
Y2-S2-018K21,6,467,PS,exp,37,↑,up,↑,0.4858391999732703,True,9,1,1,1
Y2-S2-018K21,6,468,PS,exp,42,←,left,←,0.5036174000706524,True,8,1,0,1
Y2-S2-018K21,6,469,PS,exp,30,→,left,←,0.5360142999561504,False,8,-1,1,2
Y2-S2-018K21,6,470,PS,exp,29,↓,left,←,0.5656898999586701,False,9,-1,0,2
Y2-S2-018K21,6,471,PS,exp,47,→,right,→,0.45422730001155287,True,10,-1,0,2
Y2-S2-018K21,6,472,PS,exp,25,↑,up,↑,0.5104244000976905,True,10,-1,0,2
Y2-S2-018K21,6,473,PS,exp,26,←,left,←,0.3809618999948725,True,10,1,1,3
Y2-S2-018K21,6,474,PS,exp,35,↑,up,↑,0.6034072999609634,True,9,1,0,3
Y2-S2-018K21,6,475,PS,exp,50,←,left,←,0.420387199963443,True,9,1,0,3
Y2-S2-018K21,6,476,PS,exp,37,↑,up,↑,0.5397881999379024,True,9,1,0,3
Y2-S2-018K21,6,477,PS,exp,26,←,left,←,0.44413090008310974,True,8,1,0,3
Y2-S2-018K21,6,478,PS,exp,49,→,right,→,0.42564409994520247,True,8,1,0,3
Y2-S2-018K21,6,479,PS,exp,36,↓,down,↓,0.565040500019677,True,8,1,0,3
Y2-S2-018K21,6,480,PS,exp,41,↑,down,↓,0.3326284000650048,False,7,-1,1,4
Y2-S2-018K21,6,481,PS,exp,34,↓,up,↑,0.4446413000114262,False,8,-1,0,4
Y2-S2-018K21,6,482,PS,exp,49,↑,up,↑,0.5723105000797659,True,9,-1,0,4
Y2-S2-018K21,6,483,PS,exp,46,←,down,↓,0.3500973000191152,False,9,-1,0,4
Y2-S2-018K21,6,484,PS,exp,35,↓,left,←,0.5442332000238821,False,10,-1,0,4
Y2-S2-018K21,6,485,PS,exp,37,←,left,←,0.5257210999261588,True,11,-1,0,4
Y2-S2-018K21,6,486,PS,exp,41,↑,up,↑,0.5023467000573874,True,11,-1,0,4
Y2-S2-018K21,6,487,PS,exp,32,↓,down,↓,0.4809120000572875,True,11,1,1,5
Y2-S2-018K21,6,488,PS,exp,48,↑,up,↑,0.4900230000494048,True,10,1,0,5
Y2-S2-018K21,6,489,PS,exp,43,←,up,↑,0.5116643999936059,False,10,-1,1,6
Y2-S2-018K21,6,490,PS,exp,30,↑,up,↑,0.4416988999582827,True,11,-1,0,6
Y2-S2-018K21,6,491,PS,exp,33,←,left,←,0.5080306999152526,True,11,-1,0,6
Y2-S2-018K21,6,492,PS,exp,38,↑,up,↑,0.43064969999250025,True,11,1,1,7
Y2-S2-018K21,6,493,PS,exp,33,→,right,→,0.4306306999642402,True,10,1,0,7
Y2-S2-018K21,6,494,PS,exp,40,↓,down,↓,0.6320716000627726,True,10,1,0,7
Y2-S2-018K21,6,495,PS,exp,33,→,right,→,0.49022620008327067,True,10,1,0,7
Y2-S2-018K21,6,496,PS,exp,38,↑,up,↑,0.5698826999869198,True,9,1,0,7
Y2-S2-018K21,6,497,PS,exp,42,←,right,→,0.5466677999356762,False,9,-1,1,8
Y2-S2-018K21,6,498,PS,exp,49,↑,up,↑,0.49891099997330457,True,10,-1,0,8
Y2-S2-018K21,6,499,PS,exp,25,→,left,←,0.7037421999266371,False,10,-1,0,8
Y2-S2-018K21,6,500,PS,exp,44,←,left,←,0.6804797000950202,True,11,-1,0,8
Y2-S2-018K21,6,501,PS,exp,27,→,left,←,0.4503404999850318,False,11,-1,0,8
Y2-S2-018K21,6,502,PS,exp,38,↓,down,↓,0.5047935000620782,True,12,-1,0,8
Y2-S2-018K21,6,503,PS,exp,35,→,right,→,0.46377029991708696,True,12,-1,0,8
Y2-S2-018K21,6,504,PS,exp,33,↓,down,↓,0.5095941999461502,True,12,1,1,9
Y2-S2-018K21,6,505,PS,exp,48,→,right,→,0.5096461999928579,True,11,1,0,9
Y2-S2-018K21,6,506,PS,exp,50,↓,down,↓,0.4431787000503391,True,11,1,0,9
Y2-S2-018K21,6,507,PS,exp,25,→,right,→,0.4799420000053942,True,11,1,0,9
Y2-S2-018K21,6,508,PS,exp,33,←,left,←,0.4703776000533253,True,10,1,0,9
Y2-S2-018K21,6,509,PS,exp,46,↓,down,↓,0.6182660999475047,True,10,1,0,9
Y2-S2-018K21,6,510,PS,exp,27,←,left,←,0.3736551000038162,True,10,1,0,9
Y2-S2-018K21,6,511,PS,exp,47,↓,down,↓,0.6559064999455586,True,9,1,0,9
Y2-S2-018K21,6,512,PS,exp,32,→,left,←,0.6800935999490321,False,9,-1,1,10
Y2-S2-018K21,6,513,PS,exp,38,↑,up,↑,0.5023863000096753,True,10,-1,0,10
Y2-S2-018K21,6,514,PS,exp,41,←,left,←,0.5293807999696583,True,10,-1,0,10
Y2-S2-018K21,6,515,PS,exp,25,↓,down,↓,0.6688067999202758,True,10,1,1,11
Y2-S2-018K21,6,516,PS,exp,47,↑,up,↑,0.511648999992758,True,9,1,0,11
Y2-S2-018K21,6,517,PS,exp,30,←,left,←,0.4476912000682205,True,9,1,0,11
Y2-S2-018K21,6,518,PS,exp,36,→,right,→,0.5893322998890653,True,9,1,0,11
Y2-S2-018K21,6,519,PS,exp,36,←,left,←,0.41420510003808886,True,8,1,0,11
Y2-S2-018K21,6,520,PS,exp,28,↑,left,←,0.6610243000322953,False,8,-1,1,12
Y2-S2-018K21,6,521,PS,exp,27,↓,up,↑,0.6782548000337556,False,9,-1,0,12
Y2-S2-018K21,6,522,PS,exp,40,←,left,←,0.4618784000631422,True,10,-1,0,12
Y2-S2-018K21,6,523,PS,exp,37,→,down,↓,1.0551158000016585,False,10,-1,0,12
Y2-S2-018K21,6,524,PS,exp,29,←,left,←,0.5105469999834895,True,11,-1,0,12
Y2-S2-018K21,6,525,PS,exp,47,↑,left,←,0.7028854000382125,False,11,-1,0,12
Y2-S2-018K21,6,526,PS,exp,44,↓,down,↓,0.4581381999887526,True,12,-1,0,12
Y2-S2-018K21,6,527,PS,exp,43,↑,up,↑,0.5297590000554919,True,12,-1,0,12
Y2-S2-018K21,6,528,PS,exp,44,↓,down,↓,0.6659039999358356,True,12,1,1,13
Y2-S2-018K21,6,529,PS,exp,34,↑,up,↑,0.6949220000533387,True,11,1,0,13
Y2-S2-018K21,6,530,PS,exp,32,←,no_key,no_letter,-1.0,False,11,-1,1,14
Y2-S2-018K21,6,531,PS,exp,49,↑,left,←,0.9555913999211043,False,12,-1,0,14
Y2-S2-018K21,6,532,PS,exp,25,→,right,→,0.38629980001132935,True,13,-1,0,14
Y2-S2-018K21,6,533,PS,exp,27,↑,left,←,0.3505348999751732,False,13,-1,0,14
Y2-S2-018K21,6,534,PS,exp,48,←,left,←,0.4992414000444114,True,14,-1,0,14
Y2-S2-018K21,6,535,PS,exp,29,↑,up,↑,0.42838850000407547,True,14,-1,0,14
Y2-S2-018K21,6,536,PS,exp,37,←,left,←,0.42470490001142025,True,14,1,1,15
Y2-S2-018K21,6,537,PS,exp,27,↑,up,↑,0.47483600000850856,True,13,1,0,15
Y2-S2-018K21,6,538,PS,exp,36,←,no_key,no_letter,-1.0,False,13,-1,1,16
Y2-S2-018K21,7,539,PS,intra_train,26,→,right,→,0.9316193999256939,True,10,-,-,-
Y2-S2-018K21,7,540,PS,intra_train,47,↓,down,↓,0.7329094000160694,True,10,-,-,-
Y2-S2-018K21,7,541,PS,intra_train,32,→,right,→,0.43545760004781187,True,10,-,-,-
Y2-S2-018K21,7,542,PS,intra_train,43,←,left,←,0.40340589999686927,True,10,-,-,-
Y2-S2-018K21,7,543,PS,intra_train,49,↑,up,↑,0.5850154999643564,True,10,-,-,-
Y2-S2-018K21,7,544,PS,exp,28,↓,down,↓,0.5630371000152081,True,7,0,0,0
Y2-S2-018K21,7,545,PS,exp,47,←,left,←,0.678071100031957,True,7,0,0,0
Y2-S2-018K21,7,546,PS,exp,35,↓,up,↑,0.5773112999740988,False,7,-1,0,0
Y2-S2-018K21,7,547,PS,exp,43,↑,up,↑,0.6557942000217736,True,8,-1,0,0
Y2-S2-018K21,7,548,PS,exp,49,↓,down,↓,0.5505920000141487,True,8,-1,0,0
Y2-S2-018K21,7,549,PS,exp,43,←,left,←,0.5498995999805629,True,8,1,1,1
Y2-S2-018K21,7,550,PS,exp,27,↓,down,↓,0.703154299990274,True,7,1,0,1
Y2-S2-018K21,7,551,PS,exp,39,←,left,←,0.6296420000726357,True,7,1,0,1
Y2-S2-018K21,7,552,PS,exp,39,↓,left,←,0.5709208999760449,False,7,-1,1,2
Y2-S2-018K21,7,553,PS,exp,40,↑,left,←,0.5365066000958905,False,8,-1,0,2
Y2-S2-018K21,7,554,PS,exp,34,↓,down,↓,0.4875594999175519,True,9,-1,0,2
Y2-S2-018K21,7,555,PS,exp,38,↑,up,↑,0.5774471000768244,True,9,-1,0,2
Y2-S2-018K21,7,556,PS,exp,38,→,left,←,0.6073672000784427,False,9,-1,0,2
Y2-S2-018K21,7,557,PS,exp,41,↑,up,↑,0.4802256999537349,True,10,-1,0,2
Y2-S2-018K21,7,558,PS,exp,48,→,right,→,0.46789859991986305,True,10,-1,0,2
Y2-S2-018K21,7,559,PS,exp,36,↓,down,↓,0.5158485000720248,True,10,1,1,3
Y2-S2-018K21,7,560,PS,exp,41,←,left,←,0.2842415999621153,True,9,1,0,3
Y2-S2-018K21,7,561,PS,exp,50,↓,down,↓,0.517257499974221,True,9,1,0,3
Y2-S2-018K21,7,562,PS,exp,37,↑,up,↑,0.6506525999866426,True,9,1,0,3
Y2-S2-018K21,7,563,PS,exp,29,←,left,←,0.46606600005179644,True,8,1,0,3
Y2-S2-018K21,7,564,PS,exp,38,↑,up,↑,0.8229962000623345,True,8,1,0,3
Y2-S2-018K21,7,565,PS,exp,42,→,right,→,0.4944177999859676,True,8,1,0,3
Y2-S2-018K21,7,566,PS,exp,39,↑,up,↑,0.5060017000650987,True,7,1,0,3
Y2-S2-018K21,7,567,PS,exp,38,↓,down,↓,0.8073114999569952,True,7,1,0,3
Y2-S2-018K21,7,568,PS,exp,43,←,left,←,0.44214780000038445,True,7,1,0,3
Y2-S2-018K21,7,569,PS,exp,50,↑,up,↑,0.5450404000002891,True,6,1,0,3
Y2-S2-018K21,7,570,PS,exp,48,→,right,→,0.4356550999218598,True,6,1,0,3
Y2-S2-018K21,7,571,PS,exp,37,↓,down,↓,0.5771459999959916,True,6,1,0,3
Y2-S2-018K21,7,572,PS,exp,47,←,down,↓,0.754153799964115,False,5,-1,1,4
Y2-S2-018K21,7,573,PS,exp,25,→,right,→,0.7126937999855727,True,6,-1,0,4
Y2-S2-018K21,7,574,PS,exp,40,↓,left,←,0.553073100047186,False,6,-1,0,4
Y2-S2-018K21,7,575,PS,exp,28,→,up,↑,0.5138070000102744,False,7,-1,0,4
Y2-S2-018K21,7,576,PS,exp,25,↑,up,↑,0.5231181998969987,True,8,-1,0,4
Y2-S2-018K21,7,577,PS,exp,49,↓,down,↓,0.49966510001104325,True,8,-1,0,4
Y2-S2-018K21,7,578,PS,exp,27,←,left,←,0.7456220999592915,True,8,1,1,5
Y2-S2-018K21,7,579,PS,exp,49,→,right,→,0.7864225000375882,True,7,1,0,5
Y2-S2-018K21,7,580,PS,exp,43,←,left,←,0.6181993000209332,True,7,1,0,5
Y2-S2-018K21,7,581,PS,exp,45,↓,left,←,0.34493070002645254,False,7,-1,1,6
Y2-S2-018K21,7,582,PS,exp,48,←,left,←,0.49469870002940297,True,8,-1,0,6
Y2-S2-018K21,7,583,PS,exp,47,↑,up,↑,0.7280916000017896,True,8,-1,0,6
Y2-S2-018K21,7,584,PS,exp,36,↓,down,↓,0.7577818999998271,True,8,1,1,7
Y2-S2-018K21,7,585,PS,exp,43,→,right,→,0.4575914000160992,True,7,1,0,7
Y2-S2-018K21,7,586,PS,exp,50,↓,left,←,0.5263993000844494,False,7,-1,1,8
Y2-S2-018K21,7,587,PS,exp,27,←,right,→,0.5086103000212461,False,8,-1,0,8
Y2-S2-018K21,7,588,PS,exp,49,→,left,←,0.36984050006140023,False,9,-1,0,8
Y2-S2-018K21,7,589,PS,exp,26,←,left,←,0.7974098999984562,True,10,-1,0,8
Y2-S2-018K21,7,590,PS,exp,41,↑,up,↑,0.5510817000176758,True,10,-1,0,8
Y2-S2-018K21,7,591,PS,exp,43,↓,down,↓,0.7533919999841601,True,10,1,1,9
Y2-S2-018K21,7,592,PS,exp,45,←,left,←,0.4938225999940187,True,9,1,0,9
Y2-S2-018K21,7,593,PS,exp,27,↑,up,↑,0.4645641999086365,True,9,1,0,9
Y2-S2-018K21,7,594,PS,exp,31,←,left,←,0.417088899994269,True,9,1,0,9
Y2-S2-018K21,7,595,PS,exp,44,↓,down,↓,0.5661672001006082,True,8,1,0,9
Y2-S2-018K21,7,596,PS,exp,35,→,right,→,0.4534605999942869,True,8,1,0,9
Y2-S2-018K21,7,597,PS,exp,46,↑,up,↑,0.5406389000127092,True,8,1,0,9
Y2-S2-018K21,7,598,PS,exp,33,→,right,→,0.5252824000781402,True,7,1,0,9
Y2-S2-018K21,7,599,PS,exp,32,↓,down,↓,0.5699752999935299,True,7,1,0,9
Y2-S2-018K21,7,600,PS,exp,25,↑,up,↑,0.527750900015235,True,7,1,0,9
Y2-S2-018K21,7,601,PS,exp,43,↓,down,↓,0.5933229000074789,True,6,1,0,9
Y2-S2-018K21,7,602,PS,exp,49,←,left,←,0.47889480006415397,True,6,1,0,9
Y2-S2-018K21,7,603,PS,exp,28,↓,left,←,0.6157020000973716,False,6,-1,1,10
Y2-S2-018K21,7,604,PS,exp,42,→,right,→,0.46927499992307276,True,7,-1,0,10
Y2-S2-018K21,7,605,PS,exp,46,↓,up,↑,0.5724688000045717,False,7,-1,0,10
Y2-S2-018K21,7,606,PS,exp,40,↑,up,↑,0.4717698999447748,True,8,-1,0,10
Y2-S2-018K21,7,607,PS,exp,50,→,up,↑,0.5174297000048682,False,8,-1,0,10
Y2-S2-018K21,7,608,PS,exp,38,←,left,←,0.5089059000601992,True,9,-1,0,10
Y2-S2-018K21,7,609,PS,exp,26,↑,up,↑,0.49952830001711845,True,9,-1,0,10
Y2-S2-018K21,7,610,PS,exp,26,→,right,→,0.41993319999892265,True,9,1,1,11
Y2-S2-018K21,7,611,PS,exp,30,↓,down,↓,0.6219990000827238,True,8,1,0,11
Y2-S2-018K21,7,612,PS,exp,41,↑,left,←,0.647765800007619,False,8,-1,1,12
Y2-S2-018K21,7,613,PS,exp,33,↓,down,↓,0.4618070999858901,True,9,-1,0,12
Y2-S2-018K21,7,614,PS,exp,37,←,left,←,0.3309046000940725,True,9,-1,0,12
Y2-S2-018K21,7,615,PS,exp,27,↑,up,↑,0.6162883000215515,True,9,1,1,13
Y2-S2-018K21,7,616,PS,exp,30,←,left,←,0.3841774999164045,True,8,1,0,13
Y2-S2-018K21,7,617,PS,exp,31,↑,up,↑,0.592131600016728,True,8,1,0,13
Y2-S2-018K21,7,618,PS,exp,30,→,right,→,0.4502018999774009,True,8,1,0,13
Y2-S2-018K21,7,619,PS,exp,46,←,no_key,no_letter,-1.0,False,7,-1,1,14
Y2-S2-018K21,7,620,PS,exp,40,↑,up,↑,0.5515028000809252,True,8,-1,0,14
Y2-S2-018K21,7,621,PS,exp,32,↓,up,↑,0.5635631999466568,False,8,-1,0,14
Y2-S2-018K21,7,622,PS,exp,44,→,left,←,0.32569699990563095,False,9,-1,0,14
Y2-S2-018K21,7,623,PS,exp,28,←,right,→,0.6488353000022471,False,10,-1,0,14
Y2-S2-018K21,7,624,PS,exp,45,↓,down,↓,0.5846235000062734,True,11,-1,0,14
Y2-S2-018K21,7,625,PS,exp,37,←,left,←,0.5315991999814287,True,11,-1,0,14
Y2-S2-018K21,7,626,PS,exp,42,↑,up,↑,0.8698556999443099,True,11,1,1,15
Y2-S2-018K21,7,627,PS,exp,48,→,no_key,no_letter,-1.0,False,10,-1,1,16
Y2-S2-018K21,8,628,AS,intra_train,46,↓,down,↓,0.7942708999617025,True,22,-,-,-
Y2-S2-018K21,8,629,AS,intra_train,27,↑,up,↑,0.7374015999957919,True,22,-,-,-
Y2-S2-018K21,8,630,AS,intra_train,41,↓,up,↑,0.8954941000556573,False,22,-,-,-
Y2-S2-018K21,8,631,AS,intra_train,26,↑,up,↑,0.501035200082697,True,22,-,-,-
Y2-S2-018K21,8,632,AS,intra_train,49,→,right,→,0.6907664999598637,True,22,-,-,-
Y2-S2-018K21,8,633,AS,exp,46,↑,down,↓,0.6673233000328764,False,15,-1,0,0
Y2-S2-018K21,8,634,AS,exp,31,→,right,→,0.6988732001045719,True,16,-1,0,0
Y2-S2-018K21,8,635,AS,exp,33,↑,up,↑,0.6272289999760687,True,16,-1,0,0
Y2-S2-018K21,8,636,AS,exp,31,→,right,→,0.5213456000201404,True,16,1,1,1
Y2-S2-018K21,8,637,AS,exp,40,↓,up,↑,0.6091200000373647,False,15,-1,1,2
Y2-S2-018K21,8,638,AS,exp,38,←,left,←,0.5418806999223307,True,16,-1,0,2
Y2-S2-018K21,8,639,AS,exp,26,↑,up,↑,0.4870363000081852,True,16,-1,0,2
Y2-S2-018K21,8,640,AS,exp,32,↓,down,↓,0.5473240999272093,True,16,1,1,3
Y2-S2-018K21,8,641,AS,exp,45,↑,up,↑,0.47692929999902844,True,15,1,0,3
Y2-S2-018K21,8,642,AS,exp,36,←,left,←,0.6284780000569299,True,15,1,0,3
Y2-S2-018K21,8,643,AS,exp,27,→,right,→,0.5946322999661788,True,15,1,0,3
Y2-S2-018K21,8,644,AS,exp,36,←,right,→,0.6432333000702783,False,14,-1,1,4
Y2-S2-018K21,8,645,AS,exp,47,↓,up,↑,0.6747218000236899,False,15,-1,0,4
Y2-S2-018K21,8,646,AS,exp,38,←,left,←,0.6384120000293478,True,16,-1,0,4
Y2-S2-018K21,8,647,AS,exp,37,→,up,↑,0.7441433999920264,False,16,-1,0,4
Y2-S2-018K21,8,648,AS,exp,44,↑,up,↑,0.5223570999223739,True,17,-1,0,4
Y2-S2-018K21,8,649,AS,exp,44,→,right,→,0.5338387000374496,True,17,-1,0,4
Y2-S2-018K21,8,650,AS,exp,46,↑,up,↑,0.5267465999349952,True,17,1,1,5
Y2-S2-018K21,8,651,AS,exp,48,←,left,←,0.9117407000157982,True,16,1,0,5
Y2-S2-018K21,8,652,AS,exp,46,→,left,←,0.6897514000302181,False,16,-1,1,6
Y2-S2-018K21,8,653,AS,exp,39,←,left,←,0.6291473000310361,True,17,-1,0,6
Y2-S2-018K21,8,654,AS,exp,47,→,right,→,0.7320307999616489,True,17,-1,0,6
Y2-S2-018K21,8,655,AS,exp,48,←,left,←,0.7211144999600947,True,17,1,1,7
Y2-S2-018K21,8,656,AS,exp,41,↑,up,↑,0.6584167999681085,True,16,1,0,7
Y2-S2-018K21,8,657,AS,exp,30,→,up,↑,0.7106949000153691,False,16,-1,1,8
Y2-S2-018K21,8,658,AS,exp,46,↑,up,↑,0.9965325000230223,True,17,-1,0,8
Y2-S2-018K21,8,659,AS,exp,33,→,right,→,0.6470812999177724,True,17,-1,0,8
Y2-S2-018K21,8,660,AS,exp,25,←,left,←,0.6421900000423193,True,17,1,1,9
Y2-S2-018K21,8,661,AS,exp,32,↑,up,↑,0.5535229999804869,True,16,1,0,9
Y2-S2-018K21,8,662,AS,exp,42,↓,down,↓,1.0025754000525922,True,16,1,0,9
Y2-S2-018K21,8,663,AS,exp,45,↑,up,↑,0.5429868000792339,True,16,1,0,9
Y2-S2-018K21,8,664,AS,exp,47,↓,down,↓,0.6071185000473633,True,15,1,0,9
Y2-S2-018K21,8,665,AS,exp,47,↑,up,↑,0.7575387000106275,True,15,1,0,9
Y2-S2-018K21,8,666,AS,exp,33,↓,down,↓,0.6285218000411987,True,15,1,0,9
Y2-S2-018K21,8,667,AS,exp,50,↑,up,↑,0.6205365998903289,True,14,1,0,9
Y2-S2-018K21,8,668,AS,exp,50,→,right,→,0.6077310000546277,True,14,1,0,9
Y2-S2-018K21,8,669,AS,exp,49,↓,down,↓,0.7542717000469565,True,14,1,0,9
Y2-S2-018K21,8,670,AS,exp,38,↑,up,↑,0.7811105999862775,True,13,1,0,9
Y2-S2-018K21,8,671,AS,exp,44,←,left,←,0.5310055000009015,True,13,1,0,9
Y2-S2-018K21,8,672,AS,exp,25,↑,up,↑,0.49579549999907613,True,13,1,0,9
Y2-S2-018K21,8,673,AS,exp,43,→,down,↓,0.7909289998933673,False,12,-1,1,10
Y2-S2-018K21,8,674,AS,exp,41,↓,down,↓,0.5500234999926761,True,13,-1,0,10
Y2-S2-018K21,8,675,AS,exp,26,←,down,↓,1.031963099958375,False,13,-1,0,10
Y2-S2-018K21,8,676,AS,exp,42,↓,left,←,0.6721045000012964,False,14,-1,0,10
Y2-S2-018K21,8,677,AS,exp,38,↑,up,↑,0.5914794999407604,True,15,-1,0,10
Y2-S2-018K21,8,678,AS,exp,26,↓,up,↑,0.7389398999512196,False,15,-1,0,10
Y2-S2-018K21,8,679,AS,exp,42,↑,up,↑,0.5315459000412375,True,16,-1,0,10
Y2-S2-018K21,8,680,AS,exp,46,→,right,→,0.4358412000583485,True,16,-1,0,10
Y2-S2-018K21,8,681,AS,exp,29,↑,up,↑,0.577144900104031,True,16,1,1,11
Y2-S2-018K21,8,682,AS,exp,39,→,right,→,0.5944376999977976,True,15,1,0,11
Y2-S2-018K21,8,683,AS,exp,28,↑,up,↑,0.578437399934046,True,15,1,0,11
Y2-S2-018K21,8,684,AS,exp,32,←,left,←,0.4584109999705106,True,15,1,0,11
Y2-S2-018K21,8,685,AS,exp,46,↓,down,↓,0.6175245000049472,True,14,1,0,11
Y2-S2-018K21,8,686,AS,exp,35,→,left,←,0.4961932000005618,False,14,-1,1,12
Y2-S2-018K21,8,687,AS,exp,39,←,right,→,0.5369281999301165,False,15,-1,0,12
Y2-S2-018K21,8,688,AS,exp,41,↓,down,↓,0.4904732999857515,True,16,-1,0,12
Y2-S2-018K21,8,689,AS,exp,47,↑,left,←,0.578552299994044,False,16,-1,0,12
Y2-S2-018K21,8,690,AS,exp,30,→,right,→,0.538036199985072,True,17,-1,0,12
Y2-S2-018K21,8,691,AS,exp,48,↓,left,←,0.38391660002525896,False,17,-1,0,12
Y2-S2-018K21,8,692,AS,exp,50,←,left,←,0.4720028000883758,True,18,-1,0,12
Y2-S2-018K21,8,693,AS,exp,35,↑,down,↓,0.8112533999374136,False,18,-1,0,12
Y2-S2-018K21,8,694,AS,exp,26,←,left,←,0.8630874000955373,True,19,-1,0,12
Y2-S2-018K21,8,695,AS,exp,28,→,right,→,0.6488089999184012,True,19,-1,0,12
Y2-S2-018K21,8,696,AS,exp,31,←,left,←,0.6767929999623448,True,19,1,1,13
Y2-S2-018K21,8,697,AS,exp,42,↓,down,↓,0.5776105000404641,True,18,1,0,13
Y2-S2-018K21,8,698,AS,exp,41,→,right,→,0.5748878000304103,True,18,1,0,13
Y2-S2-018K21,8,699,AS,exp,38,↑,down,↓,0.5476645999588072,False,18,-1,1,14
Y2-S2-018K21,8,700,AS,exp,32,←,left,←,0.5201645999914035,True,19,-1,0,14
Y2-S2-018K21,8,701,AS,exp,41,↓,no_key,no_letter,-1.0,False,19,-1,0,14
Y2-S2-018K21,8,702,AS,exp,27,→,right,→,0.9977091000182554,True,20,-1,0,14
Y2-S2-018K21,8,703,AS,exp,34,↓,down,↓,0.7103526999708265,True,20,-1,0,14
Y2-S2-018K21,8,704,AS,exp,46,↑,up,↑,0.6485640000319108,True,20,1,1,15
Y2-S2-018K21,8,705,AS,exp,42,↓,down,↓,0.6755196000449359,True,19,1,0,15
Y2-S2-018K21,8,706,AS,exp,28,→,right,→,0.5035770999966189,True,19,1,0,15
Y2-S2-018K21,8,707,AS,exp,33,←,left,←,0.4338105999631807,True,19,1,0,15
Y2-S2-018K21,8,708,AS,exp,38,↑,up,↑,0.6514290999621153,True,18,1,0,15
Y2-S2-018K21,8,709,AS,exp,29,→,right,→,0.6265263999812305,True,18,1,0,15
Y2-S2-018K21,8,710,AS,exp,37,↑,up,↑,0.5275245999218896,True,18,1,0,15
Y2-S2-018K21,8,711,AS,exp,40,←,left,←,0.40003739995881915,True,17,1,0,15
Y2-S2-018K21,8,712,AS,exp,27,↑,up,↑,0.9259184999391437,True,17,1,0,15
Y2-S2-018K21,8,713,AS,exp,31,↓,up,↑,0.6052553000627086,False,17,-1,1,16
