PART_ID,Block_no,Trial_no,Block_type,Trial_type,CSI,Stim_letter,Key_pressed,letter_choose,Rt,Corr,Stimulus Time,Level,Reversal,Revs_count
Y2-S2-198K23,1,1,PS,train,27,→,right,→,0.9147298997268081,True,30,-,-,-
Y2-S2-198K23,1,2,PS,train,27,↑,up,↑,0.7933779000304639,True,30,-,-,-
Y2-S2-198K23,1,3,PS,train,46,←,left,←,0.5841210000216961,True,30,-,-,-
Y2-S2-198K23,1,4,PS,train,47,→,right,→,0.6338065997697413,True,30,-,-,-
Y2-S2-198K23,1,5,PS,train,42,←,left,←,0.6337650995701551,True,30,-,-,-
Y2-S2-198K23,1,6,PS,train,49,↑,up,↑,0.8932457999326289,True,30,-,-,-
Y2-S2-198K23,1,7,PS,train,44,↓,down,↓,0.6967703998088837,True,30,-,-,-
Y2-S2-198K23,1,8,PS,train,38,↑,up,↑,0.7850938001647592,True,30,-,-,-
Y2-S2-198K23,1,9,PS,train,31,↓,down,↓,0.6338965999893844,True,30,-,-,-
Y2-S2-198K23,1,10,PS,train,44,←,left,←,0.5340704000554979,True,30,-,-,-
Y2-S2-198K23,2,11,AS,train,35,↑,up,↑,1.1253571999259293,True,45,-,-,-
Y2-S2-198K23,2,12,AS,train,46,←,left,←,0.7504394999705255,True,45,-,-,-
Y2-S2-198K23,2,13,AS,train,25,↓,down,↓,0.7837203997187316,True,45,-,-,-
Y2-S2-198K23,2,14,AS,train,28,→,right,→,0.6343574998900294,True,45,-,-,-
Y2-S2-198K23,2,15,AS,train,41,↑,up,↑,1.5644325003959239,True,45,-,-,-
Y2-S2-198K23,2,16,AS,train,50,→,right,→,0.7508271001279354,True,45,-,-,-
Y2-S2-198K23,2,17,AS,train,49,↑,up,↑,1.8657264998182654,True,45,-,-,-
Y2-S2-198K23,2,18,AS,train,43,←,left,←,0.6511984001845121,True,45,-,-,-
Y2-S2-198K23,2,19,AS,train,46,↑,up,↑,1.0842975000850856,True,45,-,-,-
Y2-S2-198K23,2,20,AS,train,36,→,right,→,0.6678398000076413,True,45,-,-,-
Y2-S2-198K23,-,21,PS,adaptive,36,↓,down,↓,0.5997712998650968,True,10,0,0,0
Y2-S2-198K23,-,22,PS,adaptive,36,↑,up,↑,0.5944138998165727,True,10,0,0,0
Y2-S2-198K23,-,23,PS,adaptive,50,↓,down,↓,0.5846804003231227,True,10,1,0,0
Y2-S2-198K23,-,24,PS,adaptive,37,↑,up,↑,0.7159942998550832,True,9,1,0,0
Y2-S2-198K23,-,25,PS,adaptive,33,↓,down,↓,0.4983538999222219,True,9,1,0,0
Y2-S2-198K23,-,26,PS,adaptive,38,→,right,→,0.4877315000630915,True,9,1,0,0
Y2-S2-198K23,-,27,PS,adaptive,31,↑,up,↑,0.6248266999609768,True,8,1,0,0
Y2-S2-198K23,-,28,PS,adaptive,35,←,left,←,0.6852222997695208,True,8,1,0,0
Y2-S2-198K23,-,29,PS,adaptive,27,↓,down,↓,0.607604700140655,True,8,1,0,0
Y2-S2-198K23,-,30,PS,adaptive,30,→,right,→,0.5549289998598397,True,7,1,0,0
Y2-S2-198K23,-,31,PS,adaptive,36,↓,down,↓,0.5449744998477399,True,7,1,0,0
Y2-S2-198K23,-,32,PS,adaptive,26,←,left,←,0.8180212997831404,True,7,1,0,0
Y2-S2-198K23,-,33,PS,adaptive,27,↑,up,↑,0.9495780002325773,True,6,1,0,0
Y2-S2-198K23,-,34,PS,adaptive,49,↓,down,↓,0.5530913001857698,True,6,1,0,0
Y2-S2-198K23,-,35,PS,adaptive,33,←,left,←,0.5990631999447942,True,6,1,0,0
Y2-S2-198K23,-,36,PS,adaptive,46,↓,down,↓,0.5080504002980888,True,5,1,0,0
Y2-S2-198K23,-,37,PS,adaptive,38,↑,down,↓,0.8407596000470221,False,5,-1,1,1
Y2-S2-198K23,-,38,PS,adaptive,28,←,left,←,0.6942527997307479,True,6,-1,0,1
Y2-S2-198K23,-,39,PS,adaptive,43,→,right,→,0.5134244998916984,True,6,-1,0,1
Y2-S2-198K23,-,40,PS,adaptive,47,↑,up,↑,0.9127555000595748,True,6,1,1,2
Y2-S2-198K23,-,41,PS,adaptive,32,←,left,←,0.5955246998928487,True,5,1,0,2
Y2-S2-198K23,-,42,PS,adaptive,37,↑,left,←,0.6466024001128972,False,5,-1,1,3
Y2-S2-198K23,-,43,PS,adaptive,41,→,right,→,0.6392518999055028,True,6,-1,0,3
Y2-S2-198K23,-,44,PS,adaptive,37,↓,down,↓,0.5432000998407602,True,6,-1,0,3
Y2-S2-198K23,-,45,PS,adaptive,35,↑,right,→,0.6102558998391032,False,6,-1,0,3
Y2-S2-198K23,-,46,PS,adaptive,28,→,right,→,0.5038711000233889,True,7,-1,0,3
Y2-S2-198K23,-,47,PS,adaptive,50,↑,down,↓,0.5432993997819722,False,7,-1,0,3
Y2-S2-198K23,-,48,PS,adaptive,46,→,right,→,0.4135883003473282,True,8,-1,0,3
Y2-S2-198K23,-,49,PS,adaptive,47,↑,up,↑,0.8004910000599921,True,8,-1,0,3
Y2-S2-198K23,-,50,PS,adaptive,42,→,right,→,0.510956299956888,True,8,1,1,4
Y2-S2-198K23,-,51,AS,adaptive,34,←,left,←,0.7858299999497831,True,20,0,0,0
Y2-S2-198K23,-,52,AS,adaptive,48,↑,up,↑,0.8615232999436557,True,20,0,0,0
Y2-S2-198K23,-,53,AS,adaptive,44,←,left,←,0.7252691998146474,True,20,1,0,0
Y2-S2-198K23,-,54,AS,adaptive,43,↓,down,↓,0.6830553999170661,True,19,1,0,0
Y2-S2-198K23,-,55,AS,adaptive,37,←,left,←,0.717027900274843,True,19,1,0,0
Y2-S2-198K23,-,56,AS,adaptive,40,↑,up,↑,0.802750900387764,True,19,1,0,0
Y2-S2-198K23,-,57,AS,adaptive,47,←,left,←,0.6314805001020432,True,18,1,0,0
Y2-S2-198K23,-,58,AS,adaptive,35,↓,down,↓,0.5117874001152813,True,18,1,0,0
Y2-S2-198K23,-,59,AS,adaptive,26,←,left,←,0.5489879995584488,True,18,1,0,0
Y2-S2-198K23,-,60,AS,adaptive,42,→,left,←,0.8722389000467956,False,17,-1,1,1
Y2-S2-198K23,-,61,AS,adaptive,46,↓,down,↓,0.8593664998188615,True,18,-1,0,1
Y2-S2-198K23,-,62,AS,adaptive,26,→,right,→,0.6161642000079155,True,18,-1,0,1
Y2-S2-198K23,-,63,AS,adaptive,45,↑,up,↑,0.6404733997769654,True,18,1,1,2
Y2-S2-198K23,-,64,AS,adaptive,25,↓,down,↓,0.6219416996464133,True,17,1,0,2
Y2-S2-198K23,-,65,AS,adaptive,35,↑,up,↑,1.114717099815607,True,17,1,0,2
Y2-S2-198K23,-,66,AS,adaptive,33,←,left,←,0.7249794001691043,True,17,1,0,2
Y2-S2-198K23,-,67,AS,adaptive,30,↑,up,↑,0.9469551001675427,True,16,1,0,2
Y2-S2-198K23,-,68,AS,adaptive,28,↓,down,↓,0.5084969000890851,True,16,1,0,2
Y2-S2-198K23,-,69,AS,adaptive,37,←,left,←,0.6460082000121474,True,16,1,0,2
Y2-S2-198K23,-,70,AS,adaptive,43,→,right,→,0.6055999998934567,True,15,1,0,2
Y2-S2-198K23,-,71,AS,adaptive,26,↓,down,↓,0.8806205000728369,True,15,1,0,2
Y2-S2-198K23,-,72,AS,adaptive,42,←,left,←,0.6824056999757886,True,15,1,0,2
Y2-S2-198K23,-,73,AS,adaptive,30,→,left,←,0.6514471000991762,False,14,-1,1,3
Y2-S2-198K23,-,74,AS,adaptive,45,↓,down,↓,0.7363212998025119,True,15,-1,0,3
Y2-S2-198K23,-,75,AS,adaptive,39,←,left,←,0.6187112000770867,True,15,-1,0,3
Y2-S2-198K23,-,76,AS,adaptive,41,→,right,→,0.5957613000646234,True,15,1,1,4
Y2-S2-198K23,1,77,AS,intra_train,47,←,left,←,0.5782870999537408,True,21,-,-,-
Y2-S2-198K23,1,78,AS,intra_train,46,↑,up,↑,0.9515017997473478,True,21,-,-,-
Y2-S2-198K23,1,79,AS,intra_train,36,←,left,←,0.621318900026381,True,21,-,-,-
Y2-S2-198K23,1,80,AS,intra_train,35,↑,up,↑,0.6707276003435254,True,21,-,-,-
Y2-S2-198K23,1,81,AS,intra_train,41,↓,down,↓,0.5854624002240598,True,21,-,-,-
Y2-S2-198K23,1,82,AS,exp,28,↑,right,→,0.6785141001455486,False,14,-1,0,0
Y2-S2-198K23,1,83,AS,exp,35,↓,up,↑,1.0347817996516824,False,15,-1,0,0
Y2-S2-198K23,1,84,AS,exp,45,←,left,←,0.703787500038743,True,16,-1,0,0
Y2-S2-198K23,1,85,AS,exp,49,↑,up,↑,0.7861205996014178,True,16,-1,0,0
Y2-S2-198K23,1,86,AS,exp,43,→,right,→,0.5088800000958145,True,16,1,1,1
Y2-S2-198K23,1,87,AS,exp,40,←,left,←,0.8544020000845194,True,15,1,0,1
Y2-S2-198K23,1,88,AS,exp,32,↓,down,↓,0.7254929998889565,True,15,1,0,1
Y2-S2-198K23,1,89,AS,exp,32,→,up,↑,1.2652289997786283,False,15,-1,1,2
Y2-S2-198K23,1,90,AS,exp,32,↑,up,↑,0.6297427001409233,True,16,-1,0,2
Y2-S2-198K23,1,91,AS,exp,27,→,right,→,0.5173943000845611,True,16,-1,0,2
Y2-S2-198K23,1,92,AS,exp,49,↓,down,↓,0.513499400112778,True,16,1,1,3
Y2-S2-198K23,1,93,AS,exp,28,←,up,↑,0.8128098999150097,False,15,-1,1,4
Y2-S2-198K23,1,94,AS,exp,26,↓,down,↓,0.48203459987416863,True,16,-1,0,4
Y2-S2-198K23,1,95,AS,exp,38,←,left,←,0.6228719996288419,True,16,-1,0,4
Y2-S2-198K23,1,96,AS,exp,45,↑,up,↑,0.8375594997778535,True,16,1,1,5
Y2-S2-198K23,1,97,AS,exp,30,←,left,←,0.7282806998118758,True,15,1,0,5
Y2-S2-198K23,1,98,AS,exp,28,↓,down,↓,0.5155069003812969,True,15,1,0,5
Y2-S2-198K23,1,99,AS,exp,43,↑,left,←,0.9124817000702024,False,15,-1,1,6
Y2-S2-198K23,1,100,AS,exp,37,→,right,→,0.496881399769336,True,16,-1,0,6
Y2-S2-198K23,1,101,AS,exp,25,↓,left,←,0.6985932001844049,False,16,-1,0,6
Y2-S2-198K23,1,102,AS,exp,45,←,left,←,0.5253663002513349,True,17,-1,0,6
Y2-S2-198K23,1,103,AS,exp,36,↑,up,↑,0.6115619000047445,True,17,-1,0,6
Y2-S2-198K23,1,104,AS,exp,36,→,right,→,0.48458659974858165,True,17,1,1,7
Y2-S2-198K23,1,105,AS,exp,40,←,left,←,0.6770997000858188,True,16,1,0,7
Y2-S2-198K23,1,106,AS,exp,43,↓,down,↓,0.49469130020588636,True,16,1,0,7
Y2-S2-198K23,1,107,AS,exp,50,↑,up,↑,0.7070404998958111,True,16,1,0,7
Y2-S2-198K23,1,108,AS,exp,28,→,right,→,0.9552724999375641,True,15,1,0,7
Y2-S2-198K23,1,109,AS,exp,34,↓,down,↓,0.6232729996554554,True,15,1,0,7
Y2-S2-198K23,1,110,AS,exp,34,↑,up,↑,0.8321996997110546,True,15,1,0,7
Y2-S2-198K23,1,111,AS,exp,33,↓,right,→,0.5901373000815511,False,14,-1,1,8
Y2-S2-198K23,1,112,AS,exp,26,→,right,→,0.5343231000006199,True,15,-1,0,8
Y2-S2-198K23,1,113,AS,exp,40,←,left,←,0.5450128000229597,True,15,-1,0,8
Y2-S2-198K23,1,114,AS,exp,50,↓,down,↓,0.6263703000731766,True,15,1,1,9
Y2-S2-198K23,1,115,AS,exp,36,→,left,←,0.5682347002439201,False,14,-1,1,10
Y2-S2-198K23,1,116,AS,exp,40,↓,down,↓,0.529859600123018,True,15,-1,0,10
Y2-S2-198K23,1,117,AS,exp,31,→,left,←,0.9031626000069082,False,15,-1,0,10
Y2-S2-198K23,1,118,AS,exp,46,←,left,←,0.689352999906987,True,16,-1,0,10
Y2-S2-198K23,1,119,AS,exp,30,↑,up,↑,0.805771800223738,True,16,-1,0,10
Y2-S2-198K23,1,120,AS,exp,49,→,right,→,0.564123900141567,True,16,1,1,11
Y2-S2-198K23,1,121,AS,exp,35,↑,up,↑,0.9502285001799464,True,15,1,0,11
Y2-S2-198K23,1,122,AS,exp,25,↓,down,↓,0.6436889003962278,True,15,1,0,11
Y2-S2-198K23,1,123,AS,exp,33,↑,up,↑,0.9664457002654672,True,15,1,0,11
Y2-S2-198K23,1,124,AS,exp,33,←,up,↑,1.115109599661082,False,14,-1,1,12
Y2-S2-198K23,1,125,AS,exp,46,→,right,→,0.6407444998621941,True,15,-1,0,12
Y2-S2-198K23,1,126,AS,exp,40,↓,down,↓,0.5859960997477174,True,15,-1,0,12
Y2-S2-198K23,1,127,AS,exp,26,←,left,←,0.575770600233227,True,15,1,1,13
Y2-S2-198K23,1,128,AS,exp,48,↓,right,→,0.9230885999277234,False,14,-1,1,14
Y2-S2-198K23,1,129,AS,exp,45,↑,up,↑,0.6606495999731123,True,15,-1,0,14
Y2-S2-198K23,1,130,AS,exp,25,→,right,→,0.6471461998298764,True,15,-1,0,14
Y2-S2-198K23,1,131,AS,exp,44,↓,up,↑,0.6885057003237307,False,15,-1,0,14
Y2-S2-198K23,1,132,AS,exp,43,↑,up,↑,0.6792497998103499,True,16,-1,0,14
Y2-S2-198K23,1,133,AS,exp,36,→,right,→,0.5853440002538264,True,16,-1,0,14
Y2-S2-198K23,1,134,AS,exp,29,←,right,→,0.6311153001151979,False,16,-1,0,14
Y2-S2-198K23,1,135,AS,exp,50,↓,down,↓,0.5518740997649729,True,17,-1,0,14
Y2-S2-198K23,1,136,AS,exp,44,→,right,→,0.5442812996916473,True,17,-1,0,14
Y2-S2-198K23,1,137,AS,exp,41,←,right,→,0.6484004999510944,False,17,-1,0,14
Y2-S2-198K23,1,138,AS,exp,44,→,right,→,0.528931699693203,True,18,-1,0,14
Y2-S2-198K23,1,139,AS,exp,38,↑,up,↑,0.7570072002708912,True,18,-1,0,14
Y2-S2-198K23,1,140,AS,exp,30,←,left,←,0.6531108999624848,True,18,1,1,15
Y2-S2-198K23,1,141,AS,exp,33,→,right,→,0.6514814998954535,True,17,1,0,15
Y2-S2-198K23,1,142,AS,exp,41,←,left,←,0.5923178000375628,True,17,1,0,15
Y2-S2-198K23,1,143,AS,exp,29,↓,down,↓,0.6698449999094009,True,17,1,0,15
Y2-S2-198K23,1,144,AS,exp,34,→,right,→,0.5000586998648942,True,16,1,0,15
Y2-S2-198K23,1,145,AS,exp,26,←,left,←,0.6207833997905254,True,16,1,0,15
Y2-S2-198K23,1,146,AS,exp,50,↑,up,↑,0.6483037997968495,True,16,1,0,15
Y2-S2-198K23,1,147,AS,exp,26,→,right,→,0.6678073001094162,True,15,1,0,15
Y2-S2-198K23,1,148,AS,exp,45,↓,up,↑,0.704803999979049,False,15,-1,1,16
Y2-S2-198K23,2,149,PS,intra_train,49,←,left,←,0.5900226999074221,True,10,-,-,-
Y2-S2-198K23,2,150,PS,intra_train,48,→,right,→,0.4298829003237188,True,10,-,-,-
Y2-S2-198K23,2,151,PS,intra_train,39,←,left,←,0.575995699968189,True,10,-,-,-
Y2-S2-198K23,2,152,PS,intra_train,45,→,right,→,0.45339279994368553,True,10,-,-,-
Y2-S2-198K23,2,153,PS,intra_train,43,←,left,←,0.5229595000855625,True,10,-,-,-
Y2-S2-198K23,2,154,PS,exp,45,↓,down,↓,0.57635029964149,True,7,0,0,0
Y2-S2-198K23,2,155,PS,exp,41,↑,up,↑,0.4851105995476246,True,7,0,0,0
Y2-S2-198K23,2,156,PS,exp,28,↓,left,←,0.6933653000742197,False,7,-1,0,0
Y2-S2-198K23,2,157,PS,exp,38,→,right,→,0.4881963999941945,True,8,-1,0,0
Y2-S2-198K23,2,158,PS,exp,41,↑,up,↑,0.5405195001512766,True,8,-1,0,0
Y2-S2-198K23,2,159,PS,exp,47,→,right,→,0.4287227997556329,True,8,1,1,1
Y2-S2-198K23,2,160,PS,exp,43,←,right,→,0.5130839999765158,False,7,-1,1,2
Y2-S2-198K23,2,161,PS,exp,37,↑,up,↑,0.5376968998461962,True,8,-1,0,2
Y2-S2-198K23,2,162,PS,exp,26,←,right,→,0.5075925998389721,False,8,-1,0,2
Y2-S2-198K23,2,163,PS,exp,46,→,right,→,0.45854629995301366,True,9,-1,0,2
Y2-S2-198K23,2,164,PS,exp,43,←,left,←,0.5132071999832988,True,9,-1,0,2
Y2-S2-198K23,2,165,PS,exp,27,↑,right,→,0.5175952999852598,False,9,-1,0,2
Y2-S2-198K23,2,166,PS,exp,30,→,right,→,0.47282239980995655,True,10,-1,0,2
Y2-S2-198K23,2,167,PS,exp,32,←,left,←,0.5176559998653829,True,10,-1,0,2
Y2-S2-198K23,2,168,PS,exp,29,→,right,→,0.4175001000985503,True,10,1,1,3
Y2-S2-198K23,2,169,PS,exp,37,↓,down,↓,0.6232972000725567,True,9,1,0,3
Y2-S2-198K23,2,170,PS,exp,43,←,left,←,0.48268340015783906,True,9,1,0,3
Y2-S2-198K23,2,171,PS,exp,32,→,left,←,0.5462973997928202,False,9,-1,1,4
Y2-S2-198K23,2,172,PS,exp,25,←,left,←,0.5023623998276889,True,10,-1,0,4
Y2-S2-198K23,2,173,PS,exp,33,↓,right,→,0.43497080029919744,False,10,-1,0,4
Y2-S2-198K23,2,174,PS,exp,42,↑,left,←,0.392440099734813,False,11,-1,0,4
Y2-S2-198K23,2,175,PS,exp,39,→,right,→,0.6023915000259876,True,12,-1,0,4
Y2-S2-198K23,2,176,PS,exp,26,←,left,←,0.48707929998636246,True,12,-1,0,4
Y2-S2-198K23,2,177,PS,exp,43,↑,up,↑,0.6505379001609981,True,12,1,1,5
Y2-S2-198K23,2,178,PS,exp,48,←,left,←,0.7973462999798357,True,11,1,0,5
Y2-S2-198K23,2,179,PS,exp,27,↑,up,↑,0.5053825997747481,True,11,1,0,5
Y2-S2-198K23,2,180,PS,exp,28,←,left,←,0.5867300000973046,True,11,1,0,5
Y2-S2-198K23,2,181,PS,exp,44,↑,up,↑,0.687673999927938,True,10,1,0,5
Y2-S2-198K23,2,182,PS,exp,33,↓,down,↓,0.7188614998012781,True,10,1,0,5
Y2-S2-198K23,2,183,PS,exp,47,→,right,→,0.47209389973431826,True,10,1,0,5
Y2-S2-198K23,2,184,PS,exp,35,↓,down,↓,0.7268099999055266,True,9,1,0,5
Y2-S2-198K23,2,185,PS,exp,33,←,right,→,0.6002385001629591,False,9,-1,1,6
Y2-S2-198K23,2,186,PS,exp,38,↓,down,↓,0.5069222999736667,True,10,-1,0,6
Y2-S2-198K23,2,187,PS,exp,50,←,left,←,0.4530910002067685,True,10,-1,0,6
Y2-S2-198K23,2,188,PS,exp,26,↑,left,←,1.086190499830991,False,10,-1,0,6
Y2-S2-198K23,2,189,PS,exp,26,→,right,→,0.4664455996826291,True,11,-1,0,6
Y2-S2-198K23,2,190,PS,exp,44,↑,up,↑,0.710772099904716,True,11,-1,0,6
Y2-S2-198K23,2,191,PS,exp,47,→,right,→,0.463264100253582,True,11,1,1,7
Y2-S2-198K23,2,192,PS,exp,34,←,right,→,0.7260158001445234,False,10,-1,1,8
Y2-S2-198K23,2,193,PS,exp,32,↑,up,↑,0.5418891003355384,True,11,-1,0,8
Y2-S2-198K23,2,194,PS,exp,50,↓,down,↓,0.600856099743396,True,11,-1,0,8
Y2-S2-198K23,2,195,PS,exp,34,←,right,→,0.4703828003257513,False,11,-1,0,8
Y2-S2-198K23,2,196,PS,exp,29,↑,down,↓,0.6733230999670923,False,12,-1,0,8
Y2-S2-198K23,2,197,PS,exp,48,←,left,←,0.418826499953866,True,13,-1,0,8
Y2-S2-198K23,2,198,PS,exp,42,↑,up,↑,0.5663683000020683,True,13,-1,0,8
Y2-S2-198K23,2,199,PS,exp,28,→,right,→,0.5002834000624716,True,13,1,1,9
Y2-S2-198K23,2,200,PS,exp,46,↓,down,↓,0.5531855002045631,True,12,1,0,9
Y2-S2-198K23,2,201,PS,exp,34,←,left,←,0.5531923999078572,True,12,1,0,9
Y2-S2-198K23,2,202,PS,exp,33,↓,down,↓,0.49118509981781244,True,12,1,0,9
Y2-S2-198K23,2,203,PS,exp,47,←,left,←,0.4102644002996385,True,11,1,0,9
Y2-S2-198K23,2,204,PS,exp,49,→,right,→,0.42895760014653206,True,11,1,0,9
Y2-S2-198K23,2,205,PS,exp,31,↑,up,↑,0.6286907996982336,True,11,1,0,9
Y2-S2-198K23,2,206,PS,exp,36,←,left,←,0.3586589000187814,True,10,1,0,9
Y2-S2-198K23,2,207,PS,exp,46,→,up,↑,0.8236855999566615,False,10,-1,1,10
Y2-S2-198K23,2,208,PS,exp,29,←,left,←,0.5204209997318685,True,11,-1,0,10
Y2-S2-198K23,2,209,PS,exp,42,↓,up,↑,0.7368509997613728,False,11,-1,0,10
Y2-S2-198K23,2,210,PS,exp,34,↑,down,↓,0.7582526998594403,False,12,-1,0,10
Y2-S2-198K23,2,211,PS,exp,33,←,up,↑,0.7050558999180794,False,13,-1,0,10
Y2-S2-198K23,2,212,PS,exp,30,→,right,→,0.7991145001724362,True,14,-1,0,10
Y2-S2-198K23,2,213,PS,exp,34,↑,up,↑,0.6292384001426399,True,14,-1,0,10
Y2-S2-198K23,2,214,PS,exp,29,→,right,→,0.6256371000781655,True,14,1,1,11
Y2-S2-198K23,2,215,PS,exp,29,←,left,←,0.5153530999086797,True,13,1,0,11
Y2-S2-198K23,2,216,PS,exp,41,↓,down,↓,0.6182981999590993,True,13,1,0,11
Y2-S2-198K23,2,217,PS,exp,29,←,left,←,0.6200656997971237,True,13,1,0,11
Y2-S2-198K23,2,218,PS,exp,50,↓,down,↓,0.5426241001114249,True,12,1,0,11
Y2-S2-198K23,2,219,PS,exp,45,↑,up,↑,0.4728284999728203,True,12,1,0,11
Y2-S2-198K23,2,220,PS,exp,34,↓,down,↓,0.913476100191474,True,12,1,0,11
Y2-S2-198K23,2,221,PS,exp,49,→,right,→,0.5488521996885538,True,11,1,0,11
Y2-S2-198K23,2,222,PS,exp,46,↓,down,↓,0.6724042999558151,True,11,1,0,11
Y2-S2-198K23,2,223,PS,exp,36,←,left,←,0.5602889000438154,True,11,1,0,11
Y2-S2-198K23,2,224,PS,exp,33,↓,down,↓,0.7397406999953091,True,10,1,0,11
Y2-S2-198K23,2,225,PS,exp,26,←,left,←,0.6385383000597358,True,10,1,0,11
Y2-S2-198K23,2,226,PS,exp,42,→,right,→,0.6474207998253405,True,10,1,0,11
Y2-S2-198K23,2,227,PS,exp,36,←,left,←,0.5035304999910295,True,9,1,0,11
Y2-S2-198K23,2,228,PS,exp,39,↑,up,↑,0.5431941002607346,True,9,1,0,11
Y2-S2-198K23,2,229,PS,exp,29,←,left,←,0.6658978001214564,True,9,1,0,11
Y2-S2-198K23,2,230,PS,exp,26,↓,down,↓,0.6196790998801589,True,8,1,0,11
Y2-S2-198K23,2,231,PS,exp,43,←,left,←,0.6002579000778496,True,8,1,0,11
Y2-S2-198K23,2,232,PS,exp,48,→,right,→,0.6163944997824728,True,8,1,0,11
Y2-S2-198K23,2,233,PS,exp,43,←,left,←,0.5441686999984086,True,7,1,0,11
Y2-S2-198K23,2,234,PS,exp,27,→,right,→,0.5517191998660564,True,7,1,0,11
Y2-S2-198K23,2,235,PS,exp,44,←,left,←,0.5104348999448121,True,7,1,0,11
Y2-S2-198K23,2,236,PS,exp,35,↑,up,↑,0.542342399712652,True,6,1,0,11
Y2-S2-198K23,2,237,PS,exp,40,↓,left,←,0.8201476000249386,False,6,-1,1,12
Y2-S2-198K23,2,238,PS,exp,34,→,left,←,0.47438969975337386,False,7,-1,0,12
Y2-S2-198K23,2,239,PS,exp,40,←,left,←,0.4456377001479268,True,8,-1,0,12
Y2-S2-198K23,2,240,PS,exp,41,↑,left,←,0.6802606000564992,False,8,-1,0,12
Y2-S2-198K23,2,241,PS,exp,45,→,right,→,0.5777812995947897,True,9,-1,0,12
Y2-S2-198K23,2,242,PS,exp,47,←,left,←,0.4862301000393927,True,9,-1,0,12
Y2-S2-198K23,2,243,PS,exp,41,↑,down,↓,0.6539794998243451,False,9,-1,0,12
Y2-S2-198K23,2,244,PS,exp,25,←,left,←,0.516344899777323,True,10,-1,0,12
Y2-S2-198K23,2,245,PS,exp,36,↑,up,↑,0.6239606002345681,True,10,-1,0,12
Y2-S2-198K23,2,246,PS,exp,38,↓,down,↓,0.5840734001249075,True,10,1,1,13
Y2-S2-198K23,2,247,PS,exp,37,↑,up,↑,0.5801455997861922,True,9,1,0,13
Y2-S2-198K23,2,248,PS,exp,35,↓,down,↓,0.5737541001290083,True,9,1,0,13
Y2-S2-198K23,2,249,PS,exp,25,↑,up,↑,0.5185768003575504,True,9,1,0,13
Y2-S2-198K23,2,250,PS,exp,32,↓,up,↑,0.6112044998444617,False,8,-1,1,14
Y2-S2-198K23,2,251,PS,exp,32,↑,up,↑,0.7084964998066425,True,9,-1,0,14
Y2-S2-198K23,2,252,PS,exp,35,↓,down,↓,0.812537600286305,True,9,-1,0,14
Y2-S2-198K23,2,253,PS,exp,49,←,left,←,0.558585099875927,True,9,1,1,15
Y2-S2-198K23,2,254,PS,exp,27,→,right,→,0.5154326003976166,True,8,1,0,15
Y2-S2-198K23,2,255,PS,exp,46,←,down,↓,0.9520331001840532,False,8,-1,1,16
Y2-S2-198K23,3,256,PS,intra_train,40,↑,up,↑,0.680027199909091,True,10,-,-,-
Y2-S2-198K23,3,257,PS,intra_train,47,↓,down,↓,0.5613991999998689,True,10,-,-,-
Y2-S2-198K23,3,258,PS,intra_train,33,↑,up,↑,0.5589971002191305,True,10,-,-,-
Y2-S2-198K23,3,259,PS,intra_train,26,→,right,→,0.45887080021202564,True,10,-,-,-
Y2-S2-198K23,3,260,PS,intra_train,43,↑,up,↑,0.48374539986252785,True,10,-,-,-
Y2-S2-198K23,3,261,PS,exp,41,→,right,→,0.49521980015560985,True,7,0,0,0
Y2-S2-198K23,3,262,PS,exp,28,↑,up,↑,0.5794601999223232,True,7,0,0,0
Y2-S2-198K23,3,263,PS,exp,41,↓,down,↓,0.6032662000507116,True,7,1,0,0
Y2-S2-198K23,3,264,PS,exp,44,→,right,→,0.4933409998193383,True,6,1,0,0
Y2-S2-198K23,3,265,PS,exp,36,←,right,→,0.6078305002301931,False,6,-1,1,1
Y2-S2-198K23,3,266,PS,exp,32,→,right,→,0.4968689000234008,True,7,-1,0,1
Y2-S2-198K23,3,267,PS,exp,45,←,right,→,0.6214872002601624,False,7,-1,0,1
Y2-S2-198K23,3,268,PS,exp,36,↓,down,↓,0.5860227001830935,True,8,-1,0,1
Y2-S2-198K23,3,269,PS,exp,37,↑,up,↑,0.5304435999132693,True,8,-1,0,1
Y2-S2-198K23,3,270,PS,exp,26,↓,down,↓,0.5738295000046492,True,8,1,1,2
Y2-S2-198K23,3,271,PS,exp,45,←,left,←,0.498176300432533,True,7,1,0,2
Y2-S2-198K23,3,272,PS,exp,45,↑,up,↑,0.5169636998325586,True,7,1,0,2
Y2-S2-198K23,3,273,PS,exp,50,←,left,←,0.5350240003317595,True,7,1,0,2
Y2-S2-198K23,3,274,PS,exp,43,→,right,→,0.4350918997079134,True,6,1,0,2
Y2-S2-198K23,3,275,PS,exp,43,↑,up,↑,0.548419900238514,True,6,1,0,2
Y2-S2-198K23,3,276,PS,exp,32,←,left,←,0.5310245999135077,True,6,1,0,2
Y2-S2-198K23,3,277,PS,exp,33,↓,down,↓,0.5743128000758588,True,5,1,0,2
Y2-S2-198K23,3,278,PS,exp,50,←,down,↓,0.6584717999212444,False,5,-1,1,3
Y2-S2-198K23,3,279,PS,exp,40,↓,down,↓,0.5196910998784006,True,6,-1,0,3
Y2-S2-198K23,3,280,PS,exp,31,↑,up,↑,0.6131882001645863,True,6,-1,0,3
Y2-S2-198K23,3,281,PS,exp,44,↓,down,↓,0.5899632000364363,True,6,1,1,4
Y2-S2-198K23,3,282,PS,exp,26,←,up,↑,0.5780087001621723,False,5,-1,1,5
Y2-S2-198K23,3,283,PS,exp,25,↓,down,↓,0.8193287998437881,True,6,-1,0,5
Y2-S2-198K23,3,284,PS,exp,32,→,right,→,0.5043680998496711,True,6,-1,0,5
Y2-S2-198K23,3,285,PS,exp,42,↑,up,↑,0.5457426002249122,True,6,1,1,6
Y2-S2-198K23,3,286,PS,exp,34,←,up,↑,0.655965100042522,False,5,-1,1,7
Y2-S2-198K23,3,287,PS,exp,32,→,right,→,0.5218076999299228,True,6,-1,0,7
Y2-S2-198K23,3,288,PS,exp,28,↓,left,←,0.8391082999296486,False,6,-1,0,7
Y2-S2-198K23,3,289,PS,exp,40,→,right,→,0.46723319962620735,True,7,-1,0,7
Y2-S2-198K23,3,290,PS,exp,41,←,left,←,0.5525775998830795,True,7,-1,0,7
Y2-S2-198K23,3,291,PS,exp,29,→,left,←,0.577413400169462,False,7,-1,0,7
Y2-S2-198K23,3,292,PS,exp,49,↑,left,←,0.6063294997438788,False,8,-1,0,7
Y2-S2-198K23,3,293,PS,exp,34,↓,down,↓,0.564257699996233,True,9,-1,0,7
Y2-S2-198K23,3,294,PS,exp,27,←,left,←,0.5783232999965549,True,9,-1,0,7
Y2-S2-198K23,3,295,PS,exp,31,↓,up,↑,0.530451400205493,False,9,-1,0,7
Y2-S2-198K23,3,296,PS,exp,50,↑,up,↑,0.5237415004521608,True,10,-1,0,7
Y2-S2-198K23,3,297,PS,exp,46,←,left,←,0.5607079002074897,True,10,-1,0,7
Y2-S2-198K23,3,298,PS,exp,46,↑,up,↑,0.47604479966685176,True,10,1,1,8
Y2-S2-198K23,3,299,PS,exp,38,↓,left,←,0.44730119965970516,False,9,-1,1,9
Y2-S2-198K23,3,300,PS,exp,38,↑,up,↑,0.4838094003498554,True,10,-1,0,9
Y2-S2-198K23,3,301,PS,exp,49,↓,down,↓,0.511103400029242,True,10,-1,0,9
Y2-S2-198K23,3,302,PS,exp,50,←,left,←,0.47914640000090003,True,10,1,1,10
Y2-S2-198K23,3,303,PS,exp,35,↑,up,↑,0.5151593000628054,True,9,1,0,10
Y2-S2-198K23,3,304,PS,exp,27,←,left,←,0.47534549981355667,True,9,1,0,10
Y2-S2-198K23,3,305,PS,exp,30,↓,down,↓,0.652772200293839,True,9,1,0,10
Y2-S2-198K23,3,306,PS,exp,35,→,up,↑,0.8180023999884725,False,8,-1,1,11
Y2-S2-198K23,3,307,PS,exp,41,↓,down,↓,0.5528355999849737,True,9,-1,0,11
Y2-S2-198K23,3,308,PS,exp,26,→,right,→,0.5192522001452744,True,9,-1,0,11
Y2-S2-198K23,3,309,PS,exp,49,←,left,←,0.5907682003453374,True,9,1,1,12
Y2-S2-198K23,3,310,PS,exp,47,↑,up,↑,0.6435433998703957,True,8,1,0,12
Y2-S2-198K23,3,311,PS,exp,32,→,right,→,0.5603935997933149,True,8,1,0,12
Y2-S2-198K23,3,312,PS,exp,27,↓,down,↓,0.5676982998847961,True,8,1,0,12
Y2-S2-198K23,3,313,PS,exp,41,←,left,←,0.482311500236392,True,7,1,0,12
Y2-S2-198K23,3,314,PS,exp,46,↓,down,↓,0.5714843003079295,True,7,1,0,12
Y2-S2-198K23,3,315,PS,exp,42,←,left,←,0.4906966001726687,True,7,1,0,12
Y2-S2-198K23,3,316,PS,exp,48,↓,down,↓,0.5156489000655711,True,6,1,0,12
Y2-S2-198K23,3,317,PS,exp,44,←,right,→,0.6307826996780932,False,6,-1,1,13
Y2-S2-198K23,3,318,PS,exp,44,↓,down,↓,0.5424923999235034,True,7,-1,0,13
Y2-S2-198K23,3,319,PS,exp,44,←,left,←,0.5701007000170648,True,7,-1,0,13
Y2-S2-198K23,3,320,PS,exp,43,↑,up,↑,0.5402783998288214,True,7,1,1,14
Y2-S2-198K23,3,321,PS,exp,37,→,right,→,0.48831130005419254,True,6,1,0,14
Y2-S2-198K23,3,322,PS,exp,37,↓,down,↓,0.5385708999820054,True,6,1,0,14
Y2-S2-198K23,3,323,PS,exp,43,←,left,←,0.4104773998260498,True,6,1,0,14
Y2-S2-198K23,3,324,PS,exp,43,↑,up,↑,0.5381912998855114,True,5,1,0,14
Y2-S2-198K23,3,325,PS,exp,49,↓,up,↑,0.5565545996651053,False,5,-1,1,15
Y2-S2-198K23,3,326,PS,exp,46,→,right,→,0.5239422000013292,True,6,-1,0,15
Y2-S2-198K23,3,327,PS,exp,36,←,left,←,0.5241823000833392,True,6,-1,0,15
Y2-S2-198K23,3,328,PS,exp,49,→,up,↑,0.5441898996941745,False,6,-1,0,15
Y2-S2-198K23,3,329,PS,exp,35,↓,down,↓,0.5422942000441253,True,7,-1,0,15
Y2-S2-198K23,3,330,PS,exp,28,←,left,←,0.6698716999962926,True,7,-1,0,15
Y2-S2-198K23,3,331,PS,exp,47,↑,up,↑,0.4922706000506878,True,7,1,1,16
Y2-S2-198K23,4,332,AS,intra_train,39,→,right,→,0.7224586000666022,True,21,-,-,-
Y2-S2-198K23,4,333,AS,intra_train,33,↑,up,↑,0.7326647001318634,True,21,-,-,-
Y2-S2-198K23,4,334,AS,intra_train,46,→,right,→,0.57674890011549,True,21,-,-,-
Y2-S2-198K23,4,335,AS,intra_train,46,↓,down,↓,0.6398545000702143,True,21,-,-,-
Y2-S2-198K23,4,336,AS,intra_train,48,←,left,←,0.7663523000665009,True,21,-,-,-
Y2-S2-198K23,4,337,AS,exp,40,↑,up,↑,0.6275888998061419,True,14,0,0,0
Y2-S2-198K23,4,338,AS,exp,46,←,left,←,0.6457793996669352,True,14,0,0,0
Y2-S2-198K23,4,339,AS,exp,26,↑,right,→,0.5537231001071632,False,14,-1,0,0
Y2-S2-198K23,4,340,AS,exp,46,→,left,←,0.6155857001431286,False,15,-1,0,0
Y2-S2-198K23,4,341,AS,exp,30,↑,right,→,0.9213923001661897,False,16,-1,0,0
Y2-S2-198K23,4,342,AS,exp,38,→,right,→,0.5610998999327421,True,17,-1,0,0
Y2-S2-198K23,4,343,AS,exp,50,←,left,←,0.7121990998275578,True,17,-1,0,0
Y2-S2-198K23,4,344,AS,exp,38,↓,down,↓,0.5945878000929952,True,17,1,1,1
Y2-S2-198K23,4,345,AS,exp,36,←,right,→,0.7212473000399768,False,16,-1,1,2
Y2-S2-198K23,4,346,AS,exp,39,↓,down,↓,0.5346904001198709,True,17,-1,0,2
Y2-S2-198K23,4,347,AS,exp,46,←,left,←,0.6391364997252822,True,17,-1,0,2
Y2-S2-198K23,4,348,AS,exp,34,→,up,↑,0.6592652001418173,False,17,-1,0,2
Y2-S2-198K23,4,349,AS,exp,30,↑,up,↑,0.6686132000759244,True,18,-1,0,2
Y2-S2-198K23,4,350,AS,exp,26,↓,down,↓,0.6525832996703684,True,18,-1,0,2
Y2-S2-198K23,4,351,AS,exp,42,↑,up,↑,0.5608799001201987,True,18,1,1,3
Y2-S2-198K23,4,352,AS,exp,35,→,up,↑,0.7845312999561429,False,17,-1,1,4
Y2-S2-198K23,4,353,AS,exp,45,↑,up,↑,0.6555356001481414,True,18,-1,0,4
Y2-S2-198K23,4,354,AS,exp,37,→,right,→,0.5979402996599674,True,18,-1,0,4
Y2-S2-198K23,4,355,AS,exp,26,↓,down,↓,0.6039375001564622,True,18,1,1,5
Y2-S2-198K23,4,356,AS,exp,35,←,left,←,0.6015975000336766,True,17,1,0,5
Y2-S2-198K23,4,357,AS,exp,42,→,right,→,0.6750325001776218,True,17,1,0,5
Y2-S2-198K23,4,358,AS,exp,38,↑,up,↑,0.5865500001236796,True,17,1,0,5
Y2-S2-198K23,4,359,AS,exp,45,↓,down,↓,0.727239599917084,True,16,1,0,5
Y2-S2-198K23,4,360,AS,exp,48,→,right,→,0.6463660998269916,True,16,1,0,5
Y2-S2-198K23,4,361,AS,exp,43,←,right,→,0.6657630000263453,False,16,-1,1,6
Y2-S2-198K23,4,362,AS,exp,45,↑,up,↑,0.8395837997086346,True,17,-1,0,6
Y2-S2-198K23,4,363,AS,exp,26,←,left,←,0.628137500025332,True,17,-1,0,6
Y2-S2-198K23,4,364,AS,exp,43,↓,down,↓,0.5731391999870539,True,17,1,1,7
Y2-S2-198K23,4,365,AS,exp,37,←,left,←,0.8600343996658921,True,16,1,0,7
Y2-S2-198K23,4,366,AS,exp,32,↓,up,↑,0.7958519998937845,False,16,-1,1,8
Y2-S2-198K23,4,367,AS,exp,33,→,right,→,0.645223299972713,True,17,-1,0,8
Y2-S2-198K23,4,368,AS,exp,39,↓,up,↑,0.7222559996880591,False,17,-1,0,8
Y2-S2-198K23,4,369,AS,exp,36,←,left,←,0.792666899971664,True,18,-1,0,8
Y2-S2-198K23,4,370,AS,exp,49,→,left,←,0.8019421002827585,False,18,-1,0,8
Y2-S2-198K23,4,371,AS,exp,46,←,left,←,0.621783500071615,True,19,-1,0,8
Y2-S2-198K23,4,372,AS,exp,46,→,right,→,0.6721192002296448,True,19,-1,0,8
Y2-S2-198K23,4,373,AS,exp,49,↑,up,↑,0.7127073002047837,True,19,1,1,9
Y2-S2-198K23,4,374,AS,exp,29,→,right,→,0.6978680999018252,True,18,1,0,9
Y2-S2-198K23,4,375,AS,exp,28,↓,down,↓,0.8171210000291467,True,18,1,0,9
Y2-S2-198K23,4,376,AS,exp,25,→,right,→,0.6459651002660394,True,18,1,0,9
Y2-S2-198K23,4,377,AS,exp,36,↑,up,↑,0.7919634999707341,True,17,1,0,9
Y2-S2-198K23,4,378,AS,exp,27,←,left,←,0.7440170999616385,True,17,1,0,9
Y2-S2-198K23,4,379,AS,exp,50,↑,up,↑,0.6670083999633789,True,17,1,0,9
Y2-S2-198K23,4,380,AS,exp,39,↓,down,↓,0.7561184000223875,True,16,1,0,9
Y2-S2-198K23,4,381,AS,exp,37,←,left,←,0.6533087999559939,True,16,1,0,9
Y2-S2-198K23,4,382,AS,exp,36,↑,up,↑,0.7410322003997862,True,16,1,0,9
Y2-S2-198K23,4,383,AS,exp,40,→,right,→,0.5562598002143204,True,15,1,0,9
Y2-S2-198K23,4,384,AS,exp,43,↓,up,↑,0.6186609999276698,False,15,-1,1,10
Y2-S2-198K23,4,385,AS,exp,45,→,right,→,0.7636775998398662,True,16,-1,0,10
Y2-S2-198K23,4,386,AS,exp,42,←,left,←,0.6180296000093222,True,16,-1,0,10
Y2-S2-198K23,4,387,AS,exp,38,↑,up,↑,0.6201011999510229,True,16,1,1,11
Y2-S2-198K23,4,388,AS,exp,35,↓,down,↓,0.9584705997258425,True,15,1,0,11
Y2-S2-198K23,4,389,AS,exp,30,←,left,←,0.7540090000256896,True,15,1,0,11
Y2-S2-198K23,4,390,AS,exp,39,↓,down,↓,0.7033898001536727,True,15,1,0,11
Y2-S2-198K23,4,391,AS,exp,47,←,left,←,0.6461252002045512,True,14,1,0,11
Y2-S2-198K23,4,392,AS,exp,32,→,right,→,0.6108279000036418,True,14,1,0,11
Y2-S2-198K23,4,393,AS,exp,39,↑,down,↓,0.9441343997605145,False,14,-1,1,12
Y2-S2-198K23,4,394,AS,exp,29,↓,down,↓,0.8255286002531648,True,15,-1,0,12
Y2-S2-198K23,4,395,AS,exp,33,↑,up,↑,0.6072613997384906,True,15,-1,0,12
Y2-S2-198K23,4,396,AS,exp,47,→,left,←,0.7521587996743619,False,15,-1,0,12
Y2-S2-198K23,4,397,AS,exp,50,↓,down,↓,0.6705833999440074,True,16,-1,0,12
Y2-S2-198K23,4,398,AS,exp,43,←,left,←,0.7268775999546051,True,16,-1,0,12
Y2-S2-198K23,4,399,AS,exp,36,↑,down,↓,0.9742083000019193,False,16,-1,0,12
Y2-S2-198K23,4,400,AS,exp,40,←,down,↓,0.8484052997082472,False,17,-1,0,12
Y2-S2-198K23,4,401,AS,exp,42,→,right,→,0.5053758001886308,True,18,-1,0,12
Y2-S2-198K23,4,402,AS,exp,43,←,left,←,0.6311928001232445,True,18,-1,0,12
Y2-S2-198K23,4,403,AS,exp,40,↓,right,→,0.7385619003325701,False,18,-1,0,12
Y2-S2-198K23,4,404,AS,exp,38,↑,right,→,0.6897083995863795,False,19,-1,0,12
Y2-S2-198K23,4,405,AS,exp,29,→,right,→,0.5731775001622736,True,20,-1,0,12
Y2-S2-198K23,4,406,AS,exp,39,↑,up,↑,0.6208999999798834,True,20,-1,0,12
Y2-S2-198K23,4,407,AS,exp,31,←,left,←,0.6118644997477531,True,20,1,1,13
Y2-S2-198K23,4,408,AS,exp,44,↓,down,↓,0.7338685002177954,True,19,1,0,13
Y2-S2-198K23,4,409,AS,exp,33,→,right,→,0.5294355000369251,True,19,1,0,13
Y2-S2-198K23,4,410,AS,exp,47,↑,up,↑,0.6822530999779701,True,19,1,0,13
Y2-S2-198K23,4,411,AS,exp,44,←,left,←,0.6098158997483552,True,18,1,0,13
Y2-S2-198K23,4,412,AS,exp,43,↑,up,↑,0.5950696002691984,True,18,1,0,13
Y2-S2-198K23,4,413,AS,exp,28,←,left,←,0.5484140999615192,True,18,1,0,13
Y2-S2-198K23,4,414,AS,exp,28,→,right,→,0.5352148003876209,True,17,1,0,13
Y2-S2-198K23,4,415,AS,exp,31,↑,up,↑,0.683803599793464,True,17,1,0,13
Y2-S2-198K23,4,416,AS,exp,50,←,left,←,0.46968890028074384,True,17,1,0,13
Y2-S2-198K23,4,417,AS,exp,48,↓,down,↓,0.6730057001113892,True,16,1,0,13
Y2-S2-198K23,4,418,AS,exp,32,→,right,→,0.5940404003486037,True,16,1,0,13
Y2-S2-198K23,4,419,AS,exp,39,↑,up,↑,0.6872474998235703,True,16,1,0,13
Y2-S2-198K23,4,420,AS,exp,48,→,right,→,0.5113772000186145,True,15,1,0,13
Y2-S2-198K23,4,421,AS,exp,42,↑,up,↑,0.8058326998725533,True,15,1,0,13
Y2-S2-198K23,4,422,AS,exp,28,→,right,→,0.5196739002130926,True,15,1,0,13
Y2-S2-198K23,4,423,AS,exp,31,↑,up,↑,0.6715100002475083,True,14,1,0,13
Y2-S2-198K23,4,424,AS,exp,46,→,left,←,0.8616609000600874,False,14,-1,1,14
Y2-S2-198K23,4,425,AS,exp,37,←,left,←,0.6733255996368825,True,15,-1,0,14
Y2-S2-198K23,4,426,AS,exp,36,↓,down,↓,0.8291984000243247,True,15,-1,0,14
Y2-S2-198K23,4,427,AS,exp,39,↑,up,↑,0.5855108997784555,True,15,1,1,15
Y2-S2-198K23,4,428,AS,exp,25,→,right,→,0.5976243000477552,True,14,1,0,15
Y2-S2-198K23,4,429,AS,exp,26,←,left,←,0.5580696002580225,True,14,1,0,15
Y2-S2-198K23,4,430,AS,exp,43,→,up,↑,0.6704489998519421,False,14,-1,1,16
Y2-S2-198K23,5,431,AS,intra_train,46,←,left,←,1.367482699919492,True,21,-,-,-
Y2-S2-198K23,5,432,AS,intra_train,47,↓,down,↓,0.7328085000626743,True,21,-,-,-
Y2-S2-198K23,5,433,AS,intra_train,44,→,right,→,0.6417212001979351,True,21,-,-,-
Y2-S2-198K23,5,434,AS,intra_train,26,↑,up,↑,0.7259065001271665,True,21,-,-,-
Y2-S2-198K23,5,435,AS,intra_train,28,↓,down,↓,0.7664188998751342,True,21,-,-,-
Y2-S2-198K23,5,436,AS,exp,46,←,left,←,0.5945321000181139,True,14,0,0,0
Y2-S2-198K23,5,437,AS,exp,48,→,right,→,0.9049474997445941,True,14,0,0,0
Y2-S2-198K23,5,438,AS,exp,27,←,right,→,0.5277095003984869,False,14,-1,0,0
Y2-S2-198K23,5,439,AS,exp,25,↓,left,←,0.7577053001150489,False,15,-1,0,0
Y2-S2-198K23,5,440,AS,exp,44,↑,up,↑,0.687659400049597,True,16,-1,0,0
Y2-S2-198K23,5,441,AS,exp,30,→,right,→,0.524715599603951,True,16,-1,0,0
Y2-S2-198K23,5,442,AS,exp,40,↓,down,↓,0.6054333997890353,True,16,1,1,1
Y2-S2-198K23,5,443,AS,exp,48,↑,left,←,0.9165664999745786,False,15,-1,1,2
Y2-S2-198K23,5,444,AS,exp,33,→,right,→,0.4828361999243498,True,16,-1,0,2
Y2-S2-198K23,5,445,AS,exp,25,↑,up,↑,0.7707245000638068,True,16,-1,0,2
Y2-S2-198K23,5,446,AS,exp,35,↓,down,↓,0.5554025997407734,True,16,1,1,3
Y2-S2-198K23,5,447,AS,exp,42,→,right,→,0.53052410017699,True,15,1,0,3
Y2-S2-198K23,5,448,AS,exp,30,←,left,←,0.7523798998445272,True,15,1,0,3
Y2-S2-198K23,5,449,AS,exp,38,→,right,→,0.6612362000159919,True,15,1,0,3
Y2-S2-198K23,5,450,AS,exp,29,↓,down,↓,0.7202837998047471,True,14,1,0,3
Y2-S2-198K23,5,451,AS,exp,29,←,right,→,0.552725300192833,False,14,-1,1,4
Y2-S2-198K23,5,452,AS,exp,45,↑,up,↑,0.7071601999923587,True,15,-1,0,4
Y2-S2-198K23,5,453,AS,exp,44,←,left,←,0.6605169996619225,True,15,-1,0,4
Y2-S2-198K23,5,454,AS,exp,38,↑,down,↓,0.7270961003378034,False,15,-1,0,4
Y2-S2-198K23,5,455,AS,exp,45,→,right,→,0.5604073000140488,True,16,-1,0,4
Y2-S2-198K23,5,456,AS,exp,33,↓,down,↓,0.6692159003578126,True,16,-1,0,4
Y2-S2-198K23,5,457,AS,exp,41,↑,up,↑,0.7048812001012266,True,16,1,1,5
Y2-S2-198K23,5,458,AS,exp,47,→,up,↑,0.7415840001776814,False,15,-1,1,6
Y2-S2-198K23,5,459,AS,exp,39,←,left,←,0.6813852996565402,True,16,-1,0,6
Y2-S2-198K23,5,460,AS,exp,41,↓,down,↓,0.793898900039494,True,16,-1,0,6
Y2-S2-198K23,5,461,AS,exp,39,←,up,↑,0.6977260001003742,False,16,-1,0,6
Y2-S2-198K23,5,462,AS,exp,27,↑,up,↑,0.6885199001990259,True,17,-1,0,6
Y2-S2-198K23,5,463,AS,exp,30,→,right,→,0.6335634998977184,True,17,-1,0,6
Y2-S2-198K23,5,464,AS,exp,30,←,left,←,0.6569392001256347,True,17,1,1,7
Y2-S2-198K23,5,465,AS,exp,25,↓,down,↓,0.6903075999580324,True,16,1,0,7
Y2-S2-198K23,5,466,AS,exp,42,←,left,←,0.6305096000432968,True,16,1,0,7
Y2-S2-198K23,5,467,AS,exp,38,↑,up,↑,0.6400763001292944,True,16,1,0,7
Y2-S2-198K23,5,468,AS,exp,33,←,up,↑,0.8158718999475241,False,15,-1,1,8
Y2-S2-198K23,5,469,AS,exp,40,↑,up,↑,0.692894599866122,True,16,-1,0,8
Y2-S2-198K23,5,470,AS,exp,36,↓,down,↓,0.7606836003251374,True,16,-1,0,8
Y2-S2-198K23,5,471,AS,exp,38,→,right,→,0.5095720002427697,True,16,1,1,9
Y2-S2-198K23,5,472,AS,exp,31,←,right,→,0.7804546002298594,False,15,-1,1,10
Y2-S2-198K23,5,473,AS,exp,32,↑,up,↑,0.6812642002478242,True,16,-1,0,10
Y2-S2-198K23,5,474,AS,exp,34,←,left,←,0.6235627997666597,True,16,-1,0,10
Y2-S2-198K23,5,475,AS,exp,42,→,right,→,0.5857063001021743,True,16,1,1,11
Y2-S2-198K23,5,476,AS,exp,47,←,right,→,0.5690689999610186,False,15,-1,1,12
Y2-S2-198K23,5,477,AS,exp,37,→,right,→,0.5444829999469221,True,16,-1,0,12
Y2-S2-198K23,5,478,AS,exp,41,↓,right,→,0.674261000007391,False,16,-1,0,12
Y2-S2-198K23,5,479,AS,exp,50,→,right,→,0.6298545999452472,True,17,-1,0,12
Y2-S2-198K23,5,480,AS,exp,38,←,left,←,0.5956329996697605,True,17,-1,0,12
Y2-S2-198K23,5,481,AS,exp,45,→,right,→,0.5678242002613842,True,17,1,1,13
Y2-S2-198K23,5,482,AS,exp,38,↑,up,↑,0.5787706999108195,True,16,1,0,13
Y2-S2-198K23,5,483,AS,exp,29,↓,up,↑,0.8177359001711011,False,16,-1,1,14
Y2-S2-198K23,5,484,AS,exp,40,↑,up,↑,0.6726932004094124,True,17,-1,0,14
Y2-S2-198K23,5,485,AS,exp,37,↓,down,↓,0.8213387997820973,True,17,-1,0,14
Y2-S2-198K23,5,486,AS,exp,45,↑,up,↑,0.7454113001003861,True,17,1,1,15
Y2-S2-198K23,5,487,AS,exp,32,→,right,→,0.5933543997816741,True,16,1,0,15
Y2-S2-198K23,5,488,AS,exp,29,↓,down,↓,0.6792326001450419,True,16,1,0,15
Y2-S2-198K23,5,489,AS,exp,37,→,right,→,0.5675983000546694,True,16,1,0,15
Y2-S2-198K23,5,490,AS,exp,47,↓,down,↓,0.7206824999302626,True,15,1,0,15
Y2-S2-198K23,5,491,AS,exp,36,↑,up,↑,0.7457543998025358,True,15,1,0,15
Y2-S2-198K23,5,492,AS,exp,33,←,left,←,0.6140850000083447,True,15,1,0,15
Y2-S2-198K23,5,493,AS,exp,33,→,left,←,0.7736376998946071,False,14,-1,1,16
Y2-S2-198K23,6,494,PS,intra_train,36,←,left,←,0.5870739999227226,True,10,-,-,-
Y2-S2-198K23,6,495,PS,intra_train,34,↑,up,↑,0.47828250005841255,True,10,-,-,-
Y2-S2-198K23,6,496,PS,intra_train,27,←,left,←,0.4867016999050975,True,10,-,-,-
Y2-S2-198K23,6,497,PS,intra_train,35,→,right,→,0.4490543999709189,True,10,-,-,-
Y2-S2-198K23,6,498,PS,intra_train,50,←,left,←,0.43194720009341836,True,10,-,-,-
Y2-S2-198K23,6,499,PS,exp,41,↑,up,↑,0.670240200124681,True,7,0,0,0
Y2-S2-198K23,6,500,PS,exp,28,↓,up,↑,0.6234165001660585,False,7,-1,0,0
Y2-S2-198K23,6,501,PS,exp,46,↑,up,↑,0.5466503999195993,True,8,-1,0,0
Y2-S2-198K23,6,502,PS,exp,37,→,right,→,0.8361043999902904,True,8,-1,0,0
Y2-S2-198K23,6,503,PS,exp,30,↑,up,↑,0.6717145000584424,True,8,1,1,1
Y2-S2-198K23,6,504,PS,exp,40,↓,left,←,0.532549099996686,False,7,-1,1,2
Y2-S2-198K23,6,505,PS,exp,26,↑,up,↑,0.7278069998137653,True,8,-1,0,2
Y2-S2-198K23,6,506,PS,exp,40,←,left,←,0.6061613000929356,True,8,-1,0,2
Y2-S2-198K23,6,507,PS,exp,30,↓,down,↓,0.6361011997796595,True,8,1,1,3
Y2-S2-198K23,6,508,PS,exp,32,↑,up,↑,0.6933649997226894,True,7,1,0,3
Y2-S2-198K23,6,509,PS,exp,25,←,left,←,0.6214050999842584,True,7,1,0,3
Y2-S2-198K23,6,510,PS,exp,50,↓,down,↓,0.5776602001860738,True,7,1,0,3
Y2-S2-198K23,6,511,PS,exp,40,↑,up,↑,0.6551892999559641,True,6,1,0,3
Y2-S2-198K23,6,512,PS,exp,47,←,left,←,0.5342302001081407,True,6,1,0,3
Y2-S2-198K23,6,513,PS,exp,39,↓,left,←,0.7219734000973403,False,6,-1,1,4
Y2-S2-198K23,6,514,PS,exp,44,→,left,←,0.6024890998378396,False,7,-1,0,4
Y2-S2-198K23,6,515,PS,exp,37,↓,down,↓,0.7715336000546813,True,8,-1,0,4
Y2-S2-198K23,6,516,PS,exp,43,↑,up,↑,0.6558149000629783,True,8,-1,0,4
Y2-S2-198K23,6,517,PS,exp,27,↓,up,↑,0.8193347002379596,False,8,-1,0,4
Y2-S2-198K23,6,518,PS,exp,42,←,left,←,0.49946520011872053,True,9,-1,0,4
Y2-S2-198K23,6,519,PS,exp,30,↑,down,↓,0.7519892998971045,False,9,-1,0,4
Y2-S2-198K23,6,520,PS,exp,35,→,right,→,0.511026700027287,True,10,-1,0,4
Y2-S2-198K23,6,521,PS,exp,26,↑,up,↑,0.6031391001306474,True,10,-1,0,4
Y2-S2-198K23,6,522,PS,exp,49,↓,down,↓,0.6497858003713191,True,10,1,1,5
Y2-S2-198K23,6,523,PS,exp,48,←,left,←,0.5145176001824439,True,9,1,0,5
Y2-S2-198K23,6,524,PS,exp,34,→,right,→,0.4415321000851691,True,9,1,0,5
Y2-S2-198K23,6,525,PS,exp,30,↓,down,↓,0.6746609997935593,True,9,1,0,5
Y2-S2-198K23,6,526,PS,exp,28,↑,up,↑,0.5682424996048212,True,8,1,0,5
Y2-S2-198K23,6,527,PS,exp,45,→,right,→,0.44232420017942786,True,8,1,0,5
Y2-S2-198K23,6,528,PS,exp,32,↓,down,↓,0.574868000112474,True,8,1,0,5
Y2-S2-198K23,6,529,PS,exp,42,↑,up,↑,0.5229022996500134,True,7,1,0,5
Y2-S2-198K23,6,530,PS,exp,46,→,right,→,0.5838060998357832,True,7,1,0,5
Y2-S2-198K23,6,531,PS,exp,31,↑,up,↑,0.5296292002312839,True,7,1,0,5
Y2-S2-198K23,6,532,PS,exp,33,↓,up,↑,0.6396825998090208,False,6,-1,1,6
Y2-S2-198K23,6,533,PS,exp,36,←,left,←,0.5141863999888301,True,7,-1,0,6
Y2-S2-198K23,6,534,PS,exp,28,→,left,←,0.6071025002747774,False,7,-1,0,6
Y2-S2-198K23,6,535,PS,exp,35,↑,up,↑,0.4885927001014352,True,8,-1,0,6
Y2-S2-198K23,6,536,PS,exp,40,↓,up,↑,0.5045572998933494,False,8,-1,0,6
Y2-S2-198K23,6,537,PS,exp,33,↑,up,↑,0.4753980999812484,True,9,-1,0,6
Y2-S2-198K23,6,538,PS,exp,26,←,left,←,0.5535955997183919,True,9,-1,0,6
Y2-S2-198K23,6,539,PS,exp,30,↑,up,↑,0.4872624999843538,True,9,1,1,7
Y2-S2-198K23,6,540,PS,exp,25,↓,down,↓,0.4725171998143196,True,8,1,0,7
Y2-S2-198K23,6,541,PS,exp,41,←,right,→,0.5349381999112666,False,8,-1,1,8
Y2-S2-198K23,6,542,PS,exp,41,→,right,→,0.4722985001280904,True,9,-1,0,8
Y2-S2-198K23,6,543,PS,exp,26,↑,up,↑,0.625966299790889,True,9,-1,0,8
Y2-S2-198K23,6,544,PS,exp,34,←,left,←,0.5632762000896037,True,9,1,1,9
Y2-S2-198K23,6,545,PS,exp,32,→,right,→,0.5845984001643956,True,8,1,0,9
Y2-S2-198K23,6,546,PS,exp,35,↓,down,↓,0.5837483997456729,True,8,1,0,9
Y2-S2-198K23,6,547,PS,exp,28,→,right,→,0.53247099975124,True,8,1,0,9
Y2-S2-198K23,6,548,PS,exp,41,←,left,←,0.4210899998433888,True,7,1,0,9
Y2-S2-198K23,6,549,PS,exp,34,→,right,→,0.4551279000006616,True,7,1,0,9
Y2-S2-198K23,6,550,PS,exp,43,↑,up,↑,0.5553505001589656,True,7,1,0,9
Y2-S2-198K23,6,551,PS,exp,50,←,left,←,0.5026289001107216,True,6,1,0,9
Y2-S2-198K23,6,552,PS,exp,39,→,left,←,0.4992871996946633,False,6,-1,1,10
Y2-S2-198K23,6,553,PS,exp,47,←,left,←,0.43506080005317926,True,7,-1,0,10
Y2-S2-198K23,6,554,PS,exp,32,→,right,→,0.4657958000898361,True,7,-1,0,10
Y2-S2-198K23,6,555,PS,exp,39,↑,up,↑,0.4701009998098016,True,7,1,1,11
Y2-S2-198K23,6,556,PS,exp,38,←,left,←,0.44723459985107183,True,6,1,0,11
Y2-S2-198K23,6,557,PS,exp,47,↑,up,↑,0.5073505998589098,True,6,1,0,11
Y2-S2-198K23,6,558,PS,exp,25,→,right,→,0.5707804998382926,True,6,1,0,11
Y2-S2-198K23,6,559,PS,exp,42,↑,left,←,0.46677030017599463,False,5,-1,1,12
Y2-S2-198K23,6,560,PS,exp,46,↓,down,↓,0.539408499840647,True,6,-1,0,12
Y2-S2-198K23,6,561,PS,exp,38,←,left,←,0.5505421999841928,True,6,-1,0,12
Y2-S2-198K23,6,562,PS,exp,28,↓,left,←,0.5261073000729084,False,6,-1,0,12
Y2-S2-198K23,6,563,PS,exp,28,↑,up,↑,0.5491840997710824,True,7,-1,0,12
Y2-S2-198K23,6,564,PS,exp,25,↓,down,↓,0.6267595998942852,True,7,-1,0,12
Y2-S2-198K23,6,565,PS,exp,33,←,left,←,0.5968243000097573,True,7,1,1,13
Y2-S2-198K23,6,566,PS,exp,39,↓,up,↑,0.5188743998296559,False,6,-1,1,14
Y2-S2-198K23,6,567,PS,exp,37,→,right,→,0.551727999933064,True,7,-1,0,14
Y2-S2-198K23,6,568,PS,exp,34,↓,down,↓,0.5568727999925613,True,7,-1,0,14
Y2-S2-198K23,6,569,PS,exp,27,←,left,←,0.5169971999712288,True,7,1,1,15
Y2-S2-198K23,6,570,PS,exp,26,↑,up,↑,0.5297396997921169,True,6,1,0,15
Y2-S2-198K23,6,571,PS,exp,36,→,right,→,0.5052231000736356,True,6,1,0,15
Y2-S2-198K23,6,572,PS,exp,26,←,right,→,0.4892751001752913,False,6,-1,1,16
Y2-S2-198K23,7,573,PS,intra_train,29,→,right,→,0.5378010999411345,True,10,-,-,-
Y2-S2-198K23,7,574,PS,intra_train,27,↓,down,↓,0.6761320000514388,True,10,-,-,-
Y2-S2-198K23,7,575,PS,intra_train,41,←,left,←,0.5549845001660287,True,10,-,-,-
Y2-S2-198K23,7,576,PS,intra_train,50,→,right,→,0.47420169971883297,True,10,-,-,-
Y2-S2-198K23,7,577,PS,intra_train,34,↓,down,↓,0.5720971999689937,True,10,-,-,-
Y2-S2-198K23,7,578,PS,exp,46,←,left,←,0.5959253003820777,True,7,0,0,0
Y2-S2-198K23,7,579,PS,exp,39,→,down,↓,0.7438146001659334,False,7,-1,0,0
Y2-S2-198K23,7,580,PS,exp,30,←,left,←,0.6611723997630179,True,8,-1,0,0
Y2-S2-198K23,7,581,PS,exp,38,→,left,←,0.6013715998269618,False,8,-1,0,0
Y2-S2-198K23,7,582,PS,exp,27,↑,down,↓,0.604772699996829,False,9,-1,0,0
Y2-S2-198K23,7,583,PS,exp,39,←,left,←,0.46944240015000105,True,10,-1,0,0
Y2-S2-198K23,7,584,PS,exp,29,→,left,←,0.5746625000610948,False,10,-1,0,0
Y2-S2-198K23,7,585,PS,exp,41,↑,up,↑,0.5605258997529745,True,11,-1,0,0
Y2-S2-198K23,7,586,PS,exp,33,↓,down,↓,0.5224826000630856,True,11,-1,0,0
Y2-S2-198K23,7,587,PS,exp,28,↑,up,↑,0.5321406996808946,True,11,1,1,1
Y2-S2-198K23,7,588,PS,exp,46,→,right,→,0.5619600000791252,True,10,1,0,1
Y2-S2-198K23,7,589,PS,exp,37,↓,down,↓,0.4795995997264981,True,10,1,0,1
Y2-S2-198K23,7,590,PS,exp,49,←,left,←,0.5269590001553297,True,10,1,0,1
Y2-S2-198K23,7,591,PS,exp,30,↓,down,↓,0.5649570999667048,True,9,1,0,1
Y2-S2-198K23,7,592,PS,exp,50,→,right,→,0.4964644000865519,True,9,1,0,1
Y2-S2-198K23,7,593,PS,exp,32,↑,up,↑,0.6183567000553012,True,9,1,0,1
Y2-S2-198K23,7,594,PS,exp,33,↓,down,↓,0.6202211999334395,True,8,1,0,1
Y2-S2-198K23,7,595,PS,exp,46,↑,up,↑,0.5194561001844704,True,8,1,0,1
Y2-S2-198K23,7,596,PS,exp,50,↓,down,↓,0.5476416000165045,True,8,1,0,1
Y2-S2-198K23,7,597,PS,exp,38,↑,down,↓,0.7309703002683818,False,7,-1,1,2
Y2-S2-198K23,7,598,PS,exp,26,→,right,→,1.030007400084287,True,8,-1,0,2
Y2-S2-198K23,7,599,PS,exp,32,←,left,←,0.5373072000220418,True,8,-1,0,2
Y2-S2-198K23,7,600,PS,exp,47,→,right,→,0.43742999993264675,True,8,1,1,3
Y2-S2-198K23,7,601,PS,exp,26,↑,right,→,0.5919785001315176,False,7,-1,1,4
Y2-S2-198K23,7,602,PS,exp,26,←,left,←,0.6273765997029841,True,8,-1,0,4
Y2-S2-198K23,7,603,PS,exp,41,↑,up,↑,0.5771157001145184,True,8,-1,0,4
Y2-S2-198K23,7,604,PS,exp,37,→,right,→,0.437512899748981,True,8,1,1,5
Y2-S2-198K23,7,605,PS,exp,29,↑,up,↑,0.6309385001659393,True,7,1,0,5
Y2-S2-198K23,7,606,PS,exp,44,→,up,↑,0.8284700000658631,False,7,-1,1,6
Y2-S2-198K23,7,607,PS,exp,39,↓,right,→,0.5691613000817597,False,8,-1,0,6
Y2-S2-198K23,7,608,PS,exp,35,↑,up,↑,0.5323816002346575,True,9,-1,0,6
Y2-S2-198K23,7,609,PS,exp,49,→,right,→,0.5295393001288176,True,9,-1,0,6
Y2-S2-198K23,7,610,PS,exp,34,↓,left,←,0.5054190997034311,False,9,-1,0,6
Y2-S2-198K23,7,611,PS,exp,39,←,left,←,0.5101171997375786,True,10,-1,0,6
Y2-S2-198K23,7,612,PS,exp,47,↑,up,↑,0.5859627001918852,True,10,-1,0,6
Y2-S2-198K23,7,613,PS,exp,33,↓,down,↓,0.5204366999678314,True,10,1,1,7
Y2-S2-198K23,7,614,PS,exp,42,→,left,←,0.561251699924469,False,9,-1,1,8
Y2-S2-198K23,7,615,PS,exp,29,↓,down,↓,0.5862501999363303,True,10,-1,0,8
Y2-S2-198K23,7,616,PS,exp,50,→,right,→,0.5916223996318877,True,10,-1,0,8
Y2-S2-198K23,7,617,PS,exp,36,↑,left,←,0.6205157996155322,False,10,-1,0,8
Y2-S2-198K23,7,618,PS,exp,29,↓,down,↓,0.5324057000689209,True,11,-1,0,8
Y2-S2-198K23,7,619,PS,exp,28,←,left,←,0.5689061000011861,True,11,-1,0,8
Y2-S2-198K23,7,620,PS,exp,33,↓,down,↓,0.5677354000508785,True,11,1,1,9
Y2-S2-198K23,7,621,PS,exp,37,←,left,←,0.44614759972319007,True,10,1,0,9
Y2-S2-198K23,7,622,PS,exp,47,↓,down,↓,0.5920442999340594,True,10,1,0,9
Y2-S2-198K23,7,623,PS,exp,32,←,left,←,0.4723437000066042,True,10,1,0,9
Y2-S2-198K23,7,624,PS,exp,34,↑,down,↓,0.774189000017941,False,9,-1,1,10
Y2-S2-198K23,7,625,PS,exp,25,↓,down,↓,0.6132228001952171,True,10,-1,0,10
Y2-S2-198K23,7,626,PS,exp,25,←,left,←,0.39969959994778037,True,10,-1,0,10
Y2-S2-198K23,7,627,PS,exp,31,↓,down,↓,0.5399261000566185,True,10,1,1,11
Y2-S2-198K23,7,628,PS,exp,26,←,left,←,0.48436709959059954,True,9,1,0,11
Y2-S2-198K23,7,629,PS,exp,42,→,right,→,0.4611019999720156,True,9,1,0,11
Y2-S2-198K23,7,630,PS,exp,50,↓,down,↓,0.5428738002665341,True,9,1,0,11
Y2-S2-198K23,7,631,PS,exp,43,←,left,←,0.48375049978494644,True,8,1,0,11
Y2-S2-198K23,7,632,PS,exp,49,↑,down,↓,0.47763859992846847,False,8,-1,1,12
Y2-S2-198K23,7,633,PS,exp,41,↓,down,↓,0.5136049999855459,True,9,-1,0,12
Y2-S2-198K23,7,634,PS,exp,32,←,left,←,0.7380427997559309,True,9,-1,0,12
Y2-S2-198K23,7,635,PS,exp,48,↑,up,↑,0.6103837001137435,True,9,1,1,13
Y2-S2-198K23,7,636,PS,exp,31,→,right,→,0.6401367001235485,True,8,1,0,13
Y2-S2-198K23,7,637,PS,exp,33,←,left,←,0.8035548999905586,True,8,1,0,13
Y2-S2-198K23,7,638,PS,exp,39,↓,down,↓,0.4935777997598052,True,8,1,0,13
Y2-S2-198K23,7,639,PS,exp,26,←,down,↓,1.1409108000807464,False,7,-1,1,14
Y2-S2-198K23,7,640,PS,exp,44,↓,down,↓,0.5225837999023497,True,8,-1,0,14
Y2-S2-198K23,7,641,PS,exp,39,←,left,←,0.6250546998344362,True,8,-1,0,14
Y2-S2-198K23,7,642,PS,exp,47,↑,up,↑,0.5450071999803185,True,8,1,1,15
Y2-S2-198K23,7,643,PS,exp,32,←,left,←,0.5759210996329784,True,7,1,0,15
Y2-S2-198K23,7,644,PS,exp,35,→,left,←,0.5359718999825418,False,7,-1,1,16
Y2-S2-198K23,8,645,AS,intra_train,29,←,left,←,1.3229383998550475,True,21,-,-,-
Y2-S2-198K23,8,646,AS,intra_train,25,↓,down,↓,0.6115966001525521,True,21,-,-,-
Y2-S2-198K23,8,647,AS,intra_train,32,←,left,←,0.5896469997242093,True,21,-,-,-
Y2-S2-198K23,8,648,AS,intra_train,34,↓,left,←,1.138176300097257,False,21,-,-,-
Y2-S2-198K23,8,649,AS,intra_train,50,←,left,←,1.0787086999043822,True,21,-,-,-
Y2-S2-198K23,8,650,AS,exp,25,↓,right,→,0.9461415000259876,False,14,-1,0,0
Y2-S2-198K23,8,651,AS,exp,40,↑,down,↓,0.7154765003360808,False,15,-1,0,0
Y2-S2-198K23,8,652,AS,exp,47,↓,down,↓,0.5988404997624457,True,16,-1,0,0
Y2-S2-198K23,8,653,AS,exp,48,←,down,↓,0.7130185998976231,False,16,-1,0,0
Y2-S2-198K23,8,654,AS,exp,31,↑,left,←,0.6752430000342429,False,17,-1,0,0
Y2-S2-198K23,8,655,AS,exp,27,↓,down,↓,0.5971702998504043,True,18,-1,0,0
Y2-S2-198K23,8,656,AS,exp,37,↑,up,↑,0.6279183002188802,True,18,-1,0,0
Y2-S2-198K23,8,657,AS,exp,39,→,right,→,0.6731829000636935,True,18,1,1,1
Y2-S2-198K23,8,658,AS,exp,39,↑,left,←,0.6115575996227562,False,17,-1,1,2
Y2-S2-198K23,8,659,AS,exp,31,→,right,→,0.4855757001787424,True,18,-1,0,2
Y2-S2-198K23,8,660,AS,exp,27,←,left,←,0.7783389003016055,True,18,-1,0,2
Y2-S2-198K23,8,661,AS,exp,46,↓,right,→,0.6400373997166753,False,18,-1,0,2
Y2-S2-198K23,8,662,AS,exp,42,→,right,→,0.5896272002719343,True,19,-1,0,2
Y2-S2-198K23,8,663,AS,exp,44,←,left,←,0.5926323998719454,True,19,-1,0,2
Y2-S2-198K23,8,664,AS,exp,43,↓,down,↓,0.7960604997351766,True,19,1,1,3
Y2-S2-198K23,8,665,AS,exp,50,→,right,→,0.6136005995795131,True,18,1,0,3
Y2-S2-198K23,8,666,AS,exp,49,↑,up,↑,0.6683885999955237,True,18,1,0,3
Y2-S2-198K23,8,667,AS,exp,31,←,left,←,0.5889314999803901,True,18,1,0,3
Y2-S2-198K23,8,668,AS,exp,36,→,right,→,0.5899327001534402,True,17,1,0,3
Y2-S2-198K23,8,669,AS,exp,29,↑,up,↑,0.7173021999187768,True,17,1,0,3
Y2-S2-198K23,8,670,AS,exp,29,→,right,→,0.7099440000019968,True,17,1,0,3
Y2-S2-198K23,8,671,AS,exp,41,↑,up,↑,0.5285994000732899,True,16,1,0,3
Y2-S2-198K23,8,672,AS,exp,30,→,right,→,0.735162999946624,True,16,1,0,3
Y2-S2-198K23,8,673,AS,exp,36,↓,left,←,0.7770280004478991,False,16,-1,1,4
Y2-S2-198K23,8,674,AS,exp,40,↑,up,↑,0.6162572000175714,True,17,-1,0,4
Y2-S2-198K23,8,675,AS,exp,25,→,right,→,0.6402206998318434,True,17,-1,0,4
Y2-S2-198K23,8,676,AS,exp,28,←,left,←,0.5653194999322295,True,17,1,1,5
Y2-S2-198K23,8,677,AS,exp,32,↓,down,↓,0.5604182998649776,True,16,1,0,5
Y2-S2-198K23,8,678,AS,exp,37,↑,up,↑,0.5667236996814609,True,16,1,0,5
Y2-S2-198K23,8,679,AS,exp,40,↓,down,↓,0.6678532999940217,True,16,1,0,5
Y2-S2-198K23,8,680,AS,exp,50,→,left,←,0.5112306997179985,False,15,-1,1,6
Y2-S2-198K23,8,681,AS,exp,38,↓,down,↓,0.8168909000232816,True,16,-1,0,6
Y2-S2-198K23,8,682,AS,exp,29,↑,up,↑,0.6743375998921692,True,16,-1,0,6
Y2-S2-198K23,8,683,AS,exp,29,→,right,→,0.6264198003336787,True,16,1,1,7
Y2-S2-198K23,8,684,AS,exp,41,↓,down,↓,0.949664399959147,True,15,1,0,7
Y2-S2-198K23,8,685,AS,exp,41,→,right,→,0.6654562000185251,True,15,1,0,7
Y2-S2-198K23,8,686,AS,exp,26,↓,down,↓,0.6400878997519612,True,15,1,0,7
Y2-S2-198K23,8,687,AS,exp,38,←,left,←,0.5437892000190914,True,14,1,0,7
Y2-S2-198K23,8,688,AS,exp,46,↑,up,↑,0.6649715001694858,True,14,1,0,7
Y2-S2-198K23,8,689,AS,exp,36,→,right,→,0.5083771999925375,True,14,1,0,7
Y2-S2-198K23,8,690,AS,exp,31,↑,up,↑,0.6224786001257598,True,13,1,0,7
Y2-S2-198K23,8,691,AS,exp,44,→,left,←,0.6745394002646208,False,13,-1,1,8
Y2-S2-198K23,8,692,AS,exp,37,↓,up,↑,0.974643399938941,False,14,-1,0,8
Y2-S2-198K23,8,693,AS,exp,45,→,right,→,0.5191402998752892,True,15,-1,0,8
Y2-S2-198K23,8,694,AS,exp,37,↓,down,↓,0.7814809000119567,True,15,-1,0,8
Y2-S2-198K23,8,695,AS,exp,27,↑,up,↑,0.6228080000728369,True,15,1,1,9
Y2-S2-198K23,8,696,AS,exp,29,↓,down,↓,0.6452214997261763,True,14,1,0,9
Y2-S2-198K23,8,697,AS,exp,33,←,left,←,0.6648344998247921,True,14,1,0,9
Y2-S2-198K23,8,698,AS,exp,41,↑,right,→,0.6286082998849452,False,14,-1,1,10
Y2-S2-198K23,8,699,AS,exp,30,↓,down,↓,0.5936496001668274,True,15,-1,0,10
Y2-S2-198K23,8,700,AS,exp,40,↑,right,→,0.6257545002736151,False,15,-1,0,10
Y2-S2-198K23,8,701,AS,exp,26,←,left,←,0.6049704002216458,True,16,-1,0,10
Y2-S2-198K23,8,702,AS,exp,42,→,right,→,0.5931915999390185,True,16,-1,0,10
Y2-S2-198K23,8,703,AS,exp,49,←,right,→,0.5865623001009226,False,16,-1,0,10
Y2-S2-198K23,8,704,AS,exp,31,↑,up,↑,0.630432799924165,True,17,-1,0,10
Y2-S2-198K23,8,705,AS,exp,40,←,left,←,0.562493999954313,True,17,-1,0,10
Y2-S2-198K23,8,706,AS,exp,37,↓,down,↓,0.755441699642688,True,17,1,1,11
Y2-S2-198K23,8,707,AS,exp,26,←,right,→,0.5712053002789617,False,16,-1,1,12
Y2-S2-198K23,8,708,AS,exp,41,↑,up,↑,0.6731403996236622,True,17,-1,0,12
Y2-S2-198K23,8,709,AS,exp,46,←,left,←,0.5382783999666572,True,17,-1,0,12
Y2-S2-198K23,8,710,AS,exp,42,→,right,→,0.6503427000716329,True,17,1,1,13
Y2-S2-198K23,8,711,AS,exp,26,←,right,→,0.6011836002580822,False,16,-1,1,14
Y2-S2-198K23,8,712,AS,exp,40,→,right,→,0.5666442001238465,True,17,-1,0,14
Y2-S2-198K23,8,713,AS,exp,37,↑,up,↑,0.5951905995607376,True,17,-1,0,14
Y2-S2-198K23,8,714,AS,exp,44,←,left,←,0.5342868003062904,True,17,1,1,15
Y2-S2-198K23,8,715,AS,exp,28,↓,down,↓,0.7121121003292501,True,16,1,0,15
Y2-S2-198K23,8,716,AS,exp,34,↑,up,↑,0.5612403000704944,True,16,1,0,15
Y2-S2-198K23,8,717,AS,exp,35,→,right,→,0.6010781000368297,True,16,1,0,15
Y2-S2-198K23,8,718,AS,exp,38,←,left,←,0.5890493001788855,True,15,1,0,15
Y2-S2-198K23,8,719,AS,exp,28,↑,right,→,0.6616595000959933,False,15,-1,1,16
