PART_ID,Block_no,Trial_no,Block_type,Trial_type,CSI,Stim_letter,Key_pressed,letter_choose,Rt,Corr,Stimulus Time,Level,Reversal,Revs_count
Y2-S2-233K19,1,1,PS,train,33,↓,down,↓,0.9615687998011708,True,30,-,-,-
Y2-S2-233K19,1,2,PS,train,37,→,right,→,0.8850101998541504,True,30,-,-,-
Y2-S2-233K19,1,3,PS,train,42,↓,down,↓,0.7572649999056011,True,30,-,-,-
Y2-S2-233K19,1,4,PS,train,39,←,left,←,1.4885389998089522,True,30,-,-,-
Y2-S2-233K19,1,5,PS,train,47,↓,down,↓,0.9079477000050247,True,30,-,-,-
Y2-S2-233K19,1,6,PS,train,34,→,right,→,0.7532253998797387,True,30,-,-,-
Y2-S2-233K19,1,7,PS,train,48,↑,up,↑,0.6868304000236094,True,30,-,-,-
Y2-S2-233K19,1,8,PS,train,29,→,right,→,0.517114499816671,True,30,-,-,-
Y2-S2-233K19,1,9,PS,train,49,↓,down,↓,0.516934699844569,True,30,-,-,-
Y2-S2-233K19,1,10,PS,train,36,←,left,←,0.8281909998040646,True,30,-,-,-
Y2-S2-233K19,2,11,AS,train,36,↑,up,↑,0.834115199977532,True,45,-,-,-
Y2-S2-233K19,2,12,AS,train,45,←,left,←,0.7339878000784665,True,45,-,-,-
Y2-S2-233K19,2,13,AS,train,36,→,right,→,0.8012816000264138,True,45,-,-,-
Y2-S2-233K19,2,14,AS,train,45,←,left,←,0.7014033999294043,True,45,-,-,-
Y2-S2-233K19,2,15,AS,train,40,↑,up,↑,0.7332416002172977,True,45,-,-,-
Y2-S2-233K19,2,16,AS,train,33,←,left,←,0.6173739999067038,True,45,-,-,-
Y2-S2-233K19,2,17,AS,train,38,↑,up,↑,1.52383550000377,True,45,-,-,-
Y2-S2-233K19,2,18,AS,train,41,←,left,←,0.6011075999122113,True,45,-,-,-
Y2-S2-233K19,2,19,AS,train,33,→,right,→,0.8340563999954611,True,45,-,-,-
Y2-S2-233K19,2,20,AS,train,27,↓,down,↓,1.0603027001488954,True,45,-,-,-
Y2-S2-233K19,-,21,PS,adaptive,37,→,right,→,0.5271278000436723,True,10,0,0,0
Y2-S2-233K19,-,22,PS,adaptive,26,↓,down,↓,0.6844299999065697,True,10,0,0,0
Y2-S2-233K19,-,23,PS,adaptive,28,←,left,←,0.5157455999869853,True,10,1,0,0
Y2-S2-233K19,-,24,PS,adaptive,39,↓,down,↓,0.6849944000132382,True,9,1,0,0
Y2-S2-233K19,-,25,PS,adaptive,42,↑,up,↑,0.5784292998723686,True,9,1,0,0
Y2-S2-233K19,-,26,PS,adaptive,34,↓,up,↑,0.9748507998883724,False,9,-1,1,1
Y2-S2-233K19,-,27,PS,adaptive,34,↑,up,↑,0.587906900094822,True,10,-1,0,1
Y2-S2-233K19,-,28,PS,adaptive,34,→,right,→,0.6213686000555754,True,10,-1,0,1
Y2-S2-233K19,-,29,PS,adaptive,31,↓,down,↓,0.7375378999859095,True,10,1,1,2
Y2-S2-233K19,-,30,PS,adaptive,30,←,left,←,0.47436130000278354,True,9,1,0,2
Y2-S2-233K19,-,31,PS,adaptive,32,→,right,→,0.4521025000140071,True,9,1,0,2
Y2-S2-233K19,-,32,PS,adaptive,47,↑,up,↑,0.4627317001577467,True,9,1,0,2
Y2-S2-233K19,-,33,PS,adaptive,46,→,right,→,0.9164897000882775,True,8,1,0,2
Y2-S2-233K19,-,34,PS,adaptive,34,↓,up,↑,0.6989682000130415,False,8,-1,1,3
Y2-S2-233K19,-,35,PS,adaptive,44,↑,up,↑,0.5400775000452995,True,9,-1,0,3
Y2-S2-233K19,-,36,PS,adaptive,27,←,left,←,0.6956971001345664,True,9,-1,0,3
Y2-S2-233K19,-,37,PS,adaptive,25,↑,up,↑,0.4519158999901265,True,9,1,1,4
Y2-S2-233K19,-,38,AS,adaptive,39,→,left,←,0.8724591000936925,False,20,-1,0,0
Y2-S2-233K19,-,39,AS,adaptive,26,↓,down,↓,0.9527153000235558,True,21,-1,0,0
Y2-S2-233K19,-,40,AS,adaptive,37,↑,up,↑,0.8846382999327034,True,21,-1,0,0
Y2-S2-233K19,-,41,AS,adaptive,48,←,left,←,0.7853659000247717,True,21,1,1,1
Y2-S2-233K19,-,42,AS,adaptive,40,↑,up,↑,0.8334421999752522,True,20,1,0,1
Y2-S2-233K19,-,43,AS,adaptive,49,↓,down,↓,0.9834566998761147,True,20,1,0,1
Y2-S2-233K19,-,44,AS,adaptive,45,→,right,→,0.8260472998954356,True,20,1,0,1
Y2-S2-233K19,-,45,AS,adaptive,49,↑,up,↑,0.6385183001402766,True,19,1,0,1
Y2-S2-233K19,-,46,AS,adaptive,50,→,right,→,1.115716300206259,True,19,1,0,1
Y2-S2-233K19,-,47,AS,adaptive,29,←,left,←,0.5830313998740166,True,19,1,0,1
Y2-S2-233K19,-,48,AS,adaptive,47,↓,down,↓,0.7684947999659926,True,18,1,0,1
Y2-S2-233K19,-,49,AS,adaptive,48,→,right,→,0.7294933998491615,True,18,1,0,1
Y2-S2-233K19,-,50,AS,adaptive,34,←,left,←,0.6622832000721246,True,18,1,0,1
Y2-S2-233K19,-,51,AS,adaptive,35,↑,up,↑,0.6116852001287043,True,17,1,0,1
Y2-S2-233K19,-,52,AS,adaptive,44,→,left,←,0.6345597999170423,False,17,-1,1,2
Y2-S2-233K19,-,53,AS,adaptive,45,↓,down,↓,0.8821408001240343,True,18,-1,0,2
Y2-S2-233K19,-,54,AS,adaptive,39,←,left,←,0.6319039000663906,True,18,-1,0,2
Y2-S2-233K19,-,55,AS,adaptive,47,→,right,→,0.4769377000629902,True,18,1,1,3
Y2-S2-233K19,-,56,AS,adaptive,35,←,left,←,0.5142342001199722,True,17,1,0,3
Y2-S2-233K19,-,57,AS,adaptive,30,→,left,←,0.6544039999134839,False,17,-1,1,4
Y2-S2-233K19,1,58,AS,intra_train,44,←,left,←,0.4834541999734938,True,27,-,-,-
Y2-S2-233K19,1,59,AS,intra_train,38,↑,up,↑,0.697704000165686,True,27,-,-,-
Y2-S2-233K19,1,60,AS,intra_train,43,↓,down,↓,0.9072004999034107,True,27,-,-,-
Y2-S2-233K19,1,61,AS,intra_train,47,←,left,←,0.6303747999481857,True,27,-,-,-
Y2-S2-233K19,1,62,AS,intra_train,41,↓,down,↓,0.6927412999793887,True,27,-,-,-
Y2-S2-233K19,1,63,AS,exp,26,→,right,→,0.6970762999262661,True,18,0,0,0
Y2-S2-233K19,1,64,AS,exp,26,↑,up,↑,0.6671984000131488,True,18,0,0,0
Y2-S2-233K19,1,65,AS,exp,39,↓,down,↓,0.681382599985227,True,18,1,0,0
Y2-S2-233K19,1,66,AS,exp,39,→,right,→,0.78224639990367,True,17,1,0,0
Y2-S2-233K19,1,67,AS,exp,41,↓,down,↓,0.6083564001601189,True,17,1,0,0
Y2-S2-233K19,1,68,AS,exp,27,↑,up,↑,0.7465338001493365,True,17,1,0,0
Y2-S2-233K19,1,69,AS,exp,37,↓,down,↓,0.7055641000624746,True,16,1,0,0
Y2-S2-233K19,1,70,AS,exp,30,→,right,→,0.7374601000919938,True,16,1,0,0
Y2-S2-233K19,1,71,AS,exp,43,↓,down,↓,0.68325290014036,True,16,1,0,0
Y2-S2-233K19,1,72,AS,exp,39,↑,up,↑,0.9684059000574052,True,15,1,0,0
Y2-S2-233K19,1,73,AS,exp,46,←,left,←,0.6702749999240041,True,15,1,0,0
Y2-S2-233K19,1,74,AS,exp,40,→,right,→,0.7182740999851376,True,15,1,0,0
Y2-S2-233K19,1,75,AS,exp,40,↑,up,↑,0.6361386999487877,True,14,1,0,0
Y2-S2-233K19,1,76,AS,exp,50,→,right,→,0.6081526998896152,True,14,1,0,0
Y2-S2-233K19,1,77,AS,exp,36,↑,up,↑,0.42475610016845167,True,14,1,0,0
Y2-S2-233K19,1,78,AS,exp,41,←,left,←,0.8413080999162048,True,13,1,0,0
Y2-S2-233K19,1,79,AS,exp,47,→,right,→,0.4364211999345571,True,13,1,0,0
Y2-S2-233K19,1,80,AS,exp,47,←,left,←,0.7762138000689447,True,13,1,0,0
Y2-S2-233K19,1,81,AS,exp,37,↓,down,↓,0.8161717001348734,True,12,1,0,0
Y2-S2-233K19,1,82,AS,exp,32,→,left,←,1.0810287999920547,False,12,-1,1,1
Y2-S2-233K19,1,83,AS,exp,35,↑,up,↑,0.6019518000539392,True,13,-1,0,1
Y2-S2-233K19,1,84,AS,exp,29,←,right,→,0.738524799933657,False,13,-1,0,1
Y2-S2-233K19,1,85,AS,exp,34,→,right,→,0.7349539001006633,True,14,-1,0,1
Y2-S2-233K19,1,86,AS,exp,32,↓,down,↓,0.75906280009076,True,14,-1,0,1
Y2-S2-233K19,1,87,AS,exp,26,←,right,→,0.893825399922207,False,14,-1,0,1
Y2-S2-233K19,1,88,AS,exp,36,↑,up,↑,0.6539031998254359,True,15,-1,0,1
Y2-S2-233K19,1,89,AS,exp,38,↓,down,↓,0.580753399990499,True,15,-1,0,1
Y2-S2-233K19,1,90,AS,exp,31,→,right,→,0.7023146999999881,True,15,1,1,2
Y2-S2-233K19,1,91,AS,exp,37,←,left,←,0.5250440000090748,True,14,1,0,2
Y2-S2-233K19,1,92,AS,exp,46,→,right,→,0.4746203999966383,True,14,1,0,2
Y2-S2-233K19,1,93,AS,exp,31,↓,down,↓,0.6328342999331653,True,14,1,0,2
Y2-S2-233K19,1,94,AS,exp,43,→,right,→,0.5373936998657882,True,13,1,0,2
Y2-S2-233K19,1,95,AS,exp,28,↑,up,↑,0.5162734999321401,True,13,1,0,2
Y2-S2-233K19,1,96,AS,exp,41,→,left,←,0.8101762998849154,False,13,-1,1,3
Y2-S2-233K19,1,97,AS,exp,46,↓,down,↓,0.7431290000677109,True,14,-1,0,3
Y2-S2-233K19,1,98,AS,exp,45,↑,up,↑,0.9384808999020606,True,14,-1,0,3
Y2-S2-233K19,1,99,AS,exp,41,↓,down,↓,0.5978890999685973,True,14,1,1,4
Y2-S2-233K19,1,100,AS,exp,37,←,left,←,0.8761652000248432,True,13,1,0,4
Y2-S2-233K19,1,101,AS,exp,29,↓,down,↓,0.6320410999469459,True,13,1,0,4
Y2-S2-233K19,1,102,AS,exp,41,→,right,→,0.434637299971655,True,13,1,0,4
Y2-S2-233K19,1,103,AS,exp,28,←,left,←,0.7411606998648494,True,12,1,0,4
Y2-S2-233K19,1,104,AS,exp,41,→,right,→,0.4947542999871075,True,12,1,0,4
Y2-S2-233K19,1,105,AS,exp,26,←,left,←,0.46784080006182194,True,12,1,0,4
Y2-S2-233K19,1,106,AS,exp,34,↓,down,↓,0.6114391000010073,True,11,1,0,4
Y2-S2-233K19,1,107,AS,exp,46,↑,up,↑,0.4936083999928087,True,11,1,0,4
Y2-S2-233K19,1,108,AS,exp,26,↓,down,↓,0.8187731998041272,True,11,1,0,4
Y2-S2-233K19,1,109,AS,exp,30,←,left,←,0.5962727000005543,True,10,1,0,4
Y2-S2-233K19,1,110,AS,exp,33,↑,up,↑,0.6026709999423474,True,10,1,0,4
Y2-S2-233K19,1,111,AS,exp,44,←,left,←,0.9496997999958694,True,10,1,0,4
Y2-S2-233K19,1,112,AS,exp,45,→,right,→,0.7449715998955071,True,9,1,0,4
Y2-S2-233K19,1,113,AS,exp,34,←,left,←,0.5563296000473201,True,9,1,0,4
Y2-S2-233K19,1,114,AS,exp,44,→,right,→,0.6023834999650717,True,9,1,0,4
Y2-S2-233K19,1,115,AS,exp,39,↑,up,↑,0.6979536998551339,True,8,1,0,4
Y2-S2-233K19,1,116,AS,exp,33,←,left,←,0.883773900102824,True,8,1,0,4
Y2-S2-233K19,1,117,AS,exp,32,↑,down,↓,0.8160560000687838,False,8,-1,1,5
Y2-S2-233K19,1,118,AS,exp,42,→,left,←,0.6225029998458922,False,9,-1,0,5
Y2-S2-233K19,1,119,AS,exp,37,↑,no_key,no_letter,-1.0,False,10,-1,0,5
Y2-S2-233K19,1,120,AS,exp,30,↓,up,↑,0.8046619999222457,False,11,-1,0,5
Y2-S2-233K19,1,121,AS,exp,35,↑,up,↑,0.4894141999538988,True,12,-1,0,5
Y2-S2-233K19,1,122,AS,exp,31,→,right,→,0.5869408000726253,True,12,-1,0,5
Y2-S2-233K19,1,123,AS,exp,27,←,left,←,0.5294286999851465,True,12,1,1,6
Y2-S2-233K19,1,124,AS,exp,34,↑,up,↑,0.6392458998598158,True,11,1,0,6
Y2-S2-233K19,1,125,AS,exp,38,→,right,→,0.7443702998571098,True,11,1,0,6
Y2-S2-233K19,1,126,AS,exp,47,←,left,←,0.5503905001096427,True,11,1,0,6
Y2-S2-233K19,1,127,AS,exp,38,↑,up,↑,0.7085426999256015,True,10,1,0,6
Y2-S2-233K19,1,128,AS,exp,33,→,right,→,0.46425279998220503,True,10,1,0,6
Y2-S2-233K19,1,129,AS,exp,34,↓,up,↑,0.6654889001511037,False,10,-1,1,7
Y2-S2-233K19,1,130,AS,exp,38,→,right,→,0.5881487000733614,True,11,-1,0,7
Y2-S2-233K19,1,131,AS,exp,29,↓,down,↓,0.6282394998706877,True,11,-1,0,7
Y2-S2-233K19,1,132,AS,exp,45,↑,up,↑,0.7761652001645416,True,11,1,1,8
Y2-S2-233K19,1,133,AS,exp,25,←,up,↑,0.6385119999758899,False,10,-1,1,9
Y2-S2-233K19,1,134,AS,exp,35,↑,up,↑,0.6370234999340028,True,11,-1,0,9
Y2-S2-233K19,1,135,AS,exp,33,←,left,←,0.7352865999564528,True,11,-1,0,9
Y2-S2-233K19,1,136,AS,exp,28,→,up,↑,0.8858052999712527,False,11,-1,0,9
Y2-S2-233K19,1,137,AS,exp,43,↑,up,↑,0.48456170014105737,True,12,-1,0,9
Y2-S2-233K19,1,138,AS,exp,29,←,up,↑,0.6872386001050472,False,12,-1,0,9
Y2-S2-233K19,1,139,AS,exp,33,→,right,→,0.5366609999909997,True,13,-1,0,9
Y2-S2-233K19,1,140,AS,exp,38,↑,up,↑,0.5531431999988854,True,13,-1,0,9
Y2-S2-233K19,1,141,AS,exp,49,←,up,↑,0.619024199899286,False,13,-1,0,9
Y2-S2-233K19,1,142,AS,exp,40,↓,down,↓,0.9345561000518501,True,14,-1,0,9
Y2-S2-233K19,1,143,AS,exp,43,↑,up,↑,0.6573579001706094,True,14,-1,0,9
Y2-S2-233K19,1,144,AS,exp,27,←,left,←,0.5367484998423606,True,14,1,1,10
Y2-S2-233K19,1,145,AS,exp,33,↑,up,↑,0.9709116001613438,True,13,1,0,10
Y2-S2-233K19,1,146,AS,exp,46,→,right,→,0.7449638999532908,True,13,1,0,10
Y2-S2-233K19,1,147,AS,exp,30,↓,up,↑,0.7005139000248164,False,13,-1,1,11
Y2-S2-233K19,1,148,AS,exp,35,←,left,←,0.5627692001871765,True,14,-1,0,11
Y2-S2-233K19,1,149,AS,exp,37,↑,up,↑,0.5792761999182403,True,14,-1,0,11
Y2-S2-233K19,1,150,AS,exp,31,↓,down,↓,0.8415728998370469,True,14,1,1,12
Y2-S2-233K19,1,151,AS,exp,38,↑,down,↓,0.8847984001040459,False,13,-1,1,13
Y2-S2-233K19,1,152,AS,exp,42,↓,down,↓,0.6119721001014113,True,14,-1,0,13
Y2-S2-233K19,1,153,AS,exp,50,←,left,←,0.8072295000310987,True,14,-1,0,13
Y2-S2-233K19,1,154,AS,exp,28,↓,up,↑,0.8966837001498789,False,14,-1,0,13
Y2-S2-233K19,1,155,AS,exp,50,→,right,→,0.6136020000558347,True,15,-1,0,13
Y2-S2-233K19,1,156,AS,exp,38,←,left,←,0.6079647999722511,True,15,-1,0,13
Y2-S2-233K19,1,157,AS,exp,35,↑,up,↑,0.6745044998824596,True,15,1,1,14
Y2-S2-233K19,1,158,AS,exp,37,↓,down,↓,0.6485747001133859,True,14,1,0,14
Y2-S2-233K19,1,159,AS,exp,50,←,left,←,0.5226606999058276,True,14,1,0,14
Y2-S2-233K19,1,160,AS,exp,45,↑,up,↑,0.6145280001219362,True,14,1,0,14
Y2-S2-233K19,1,161,AS,exp,41,←,left,←,0.43415740015916526,True,13,1,0,14
Y2-S2-233K19,1,162,AS,exp,27,↓,down,↓,0.5893442998640239,True,13,1,0,14
Y2-S2-233K19,1,163,AS,exp,45,↑,up,↑,0.48220760002732277,True,13,1,0,14
Y2-S2-233K19,1,164,AS,exp,44,←,left,←,0.46640999987721443,True,12,1,0,14
Y2-S2-233K19,1,165,AS,exp,31,↑,down,↓,0.7995597999542952,False,12,-1,1,15
Y2-S2-233K19,1,166,AS,exp,48,←,left,←,0.4730161000043154,True,13,-1,0,15
Y2-S2-233K19,1,167,AS,exp,27,→,left,←,0.841180499875918,False,13,-1,0,15
Y2-S2-233K19,1,168,AS,exp,42,↓,down,↓,0.733562899986282,True,14,-1,0,15
Y2-S2-233K19,1,169,AS,exp,48,→,right,→,0.5788674000650644,True,14,-1,0,15
Y2-S2-233K19,1,170,AS,exp,41,←,left,←,0.8223870999645442,True,14,1,1,16
Y2-S2-233K19,2,171,PS,intra_train,48,↑,up,↑,0.5435345000587404,True,12,-,-,-
Y2-S2-233K19,2,172,PS,intra_train,27,←,left,←,0.4795208000577986,True,12,-,-,-
Y2-S2-233K19,2,173,PS,intra_train,45,→,right,→,0.4778517000377178,True,12,-,-,-
Y2-S2-233K19,2,174,PS,intra_train,48,↓,down,↓,0.7535307998768985,True,12,-,-,-
Y2-S2-233K19,2,175,PS,intra_train,30,←,left,←,0.5256323998328298,True,12,-,-,-
Y2-S2-233K19,2,176,PS,exp,39,→,left,←,1.0273601999506354,False,8,-1,0,0
Y2-S2-233K19,2,177,PS,exp,46,↑,up,↑,0.5161977000534534,True,9,-1,0,0
Y2-S2-233K19,2,178,PS,exp,46,←,right,→,0.6375432999338955,False,9,-1,0,0
Y2-S2-233K19,2,179,PS,exp,25,↓,down,↓,0.7441803999245167,True,10,-1,0,0
Y2-S2-233K19,2,180,PS,exp,40,←,down,↓,0.8319729999639094,False,10,-1,0,0
Y2-S2-233K19,2,181,PS,exp,38,↑,up,↑,0.4609258999116719,True,11,-1,0,0
Y2-S2-233K19,2,182,PS,exp,42,←,left,←,0.5308620000723749,True,11,-1,0,0
Y2-S2-233K19,2,183,PS,exp,25,↑,up,↑,0.8521579001098871,True,11,1,1,1
Y2-S2-233K19,2,184,PS,exp,29,←,left,←,0.49516579997725785,True,10,1,0,1
Y2-S2-233K19,2,185,PS,exp,44,↓,down,↓,0.5782901998609304,True,10,1,0,1
Y2-S2-233K19,2,186,PS,exp,32,↑,up,↑,0.5849651000462472,True,10,1,0,1
Y2-S2-233K19,2,187,PS,exp,36,↓,down,↓,0.5482083999086171,True,9,1,0,1
Y2-S2-233K19,2,188,PS,exp,39,→,right,→,0.47375399991869926,True,9,1,0,1
Y2-S2-233K19,2,189,PS,exp,40,←,left,←,0.6925850999541581,True,9,1,0,1
Y2-S2-233K19,2,190,PS,exp,46,↓,down,↓,0.5802509998902678,True,8,1,0,1
Y2-S2-233K19,2,191,PS,exp,49,←,left,←,0.4569868000689894,True,8,1,0,1
Y2-S2-233K19,2,192,PS,exp,41,↓,left,←,0.8009553998708725,False,8,-1,1,2
Y2-S2-233K19,2,193,PS,exp,47,←,right,→,0.6388779000844806,False,9,-1,0,2
Y2-S2-233K19,2,194,PS,exp,37,↓,down,↓,0.7585917999967933,True,10,-1,0,2
Y2-S2-233K19,2,195,PS,exp,35,→,right,→,1.0880921999923885,True,10,-1,0,2
Y2-S2-233K19,2,196,PS,exp,33,↓,down,↓,0.5527687999419868,True,10,1,1,3
Y2-S2-233K19,2,197,PS,exp,39,→,right,→,0.4957260999362916,True,9,1,0,3
Y2-S2-233K19,2,198,PS,exp,44,↓,down,↓,0.8454124999698251,True,9,1,0,3
Y2-S2-233K19,2,199,PS,exp,46,←,left,←,0.4178206000942737,True,9,1,0,3
Y2-S2-233K19,2,200,PS,exp,40,↓,down,↓,0.5701114998664707,True,8,1,0,3
Y2-S2-233K19,2,201,PS,exp,26,→,left,←,0.8357711001299322,False,8,-1,1,4
Y2-S2-233K19,2,202,PS,exp,49,←,left,←,0.46891949977725744,True,9,-1,0,4
Y2-S2-233K19,2,203,PS,exp,35,↑,left,←,0.798780299955979,False,9,-1,0,4
Y2-S2-233K19,2,204,PS,exp,33,←,down,↓,1.045127599965781,False,10,-1,0,4
Y2-S2-233K19,2,205,PS,exp,39,↑,up,↑,0.49891239986754954,True,11,-1,0,4
Y2-S2-233K19,2,206,PS,exp,45,←,left,←,0.48377320007421076,True,11,-1,0,4
Y2-S2-233K19,2,207,PS,exp,50,→,right,→,0.6138539998792112,True,11,1,1,5
Y2-S2-233K19,2,208,PS,exp,33,↓,down,↓,0.7760612999554724,True,10,1,0,5
Y2-S2-233K19,2,209,PS,exp,26,↑,down,↓,0.8655116001609713,False,10,-1,1,6
Y2-S2-233K19,2,210,PS,exp,31,→,right,→,0.40306519996374846,True,11,-1,0,6
Y2-S2-233K19,2,211,PS,exp,42,↑,up,↑,0.44870409998111427,True,11,-1,0,6
Y2-S2-233K19,2,212,PS,exp,33,↓,down,↓,0.7192897000350058,True,11,1,1,7
Y2-S2-233K19,2,213,PS,exp,44,→,left,←,0.9310943000018597,False,10,-1,1,8
Y2-S2-233K19,2,214,PS,exp,29,←,left,←,0.4820435999426991,True,11,-1,0,8
Y2-S2-233K19,2,215,PS,exp,27,↑,up,↑,0.4739679000340402,True,11,-1,0,8
Y2-S2-233K19,2,216,PS,exp,46,←,left,←,0.748498999979347,True,11,1,1,9
Y2-S2-233K19,2,217,PS,exp,31,→,right,→,0.7605759999714792,True,10,1,0,9
Y2-S2-233K19,2,218,PS,exp,39,↑,up,↑,0.5593904999550432,True,10,1,0,9
Y2-S2-233K19,2,219,PS,exp,48,→,right,→,0.5274032999295741,True,10,1,0,9
Y2-S2-233K19,2,220,PS,exp,44,←,left,←,0.5400497000664473,True,9,1,0,9
Y2-S2-233K19,2,221,PS,exp,37,↓,down,↓,1.1721287998370826,True,9,1,0,9
Y2-S2-233K19,2,222,PS,exp,40,→,right,→,0.543788299895823,True,9,1,0,9
Y2-S2-233K19,2,223,PS,exp,45,↓,down,↓,0.6494745998643339,True,8,1,0,9
Y2-S2-233K19,2,224,PS,exp,37,←,left,←,0.5480012998450547,True,8,1,0,9
Y2-S2-233K19,2,225,PS,exp,27,→,right,→,0.5304511000867933,True,8,1,0,9
Y2-S2-233K19,2,226,PS,exp,41,↓,down,↓,0.6203280000481755,True,7,1,0,9
Y2-S2-233K19,2,227,PS,exp,41,←,left,←,0.6104973000474274,True,7,1,0,9
Y2-S2-233K19,2,228,PS,exp,45,↑,up,↑,0.49931300012394786,True,7,1,0,9
Y2-S2-233K19,2,229,PS,exp,26,←,left,←,0.44743459997698665,True,6,1,0,9
Y2-S2-233K19,2,230,PS,exp,31,→,right,→,0.5323098001535982,True,6,1,0,9
Y2-S2-233K19,2,231,PS,exp,49,←,left,←,0.6917908999603242,True,6,1,0,9
Y2-S2-233K19,2,232,PS,exp,44,↓,down,↓,0.6126637000124902,True,5,1,0,9
Y2-S2-233K19,2,233,PS,exp,35,↑,right,→,1.052960499888286,False,5,-1,1,10
Y2-S2-233K19,2,234,PS,exp,26,←,down,↓,0.8249954998027533,False,6,-1,0,10
Y2-S2-233K19,2,235,PS,exp,38,→,right,→,0.643582200165838,True,7,-1,0,10
Y2-S2-233K19,2,236,PS,exp,43,↑,down,↓,0.9677911000326276,False,7,-1,0,10
Y2-S2-233K19,2,237,PS,exp,42,←,right,→,0.6255280999466777,False,8,-1,0,10
Y2-S2-233K19,2,238,PS,exp,35,→,right,→,0.4830738001037389,True,9,-1,0,10
Y2-S2-233K19,2,239,PS,exp,32,↓,right,→,0.616541099967435,False,9,-1,0,10
Y2-S2-233K19,2,240,PS,exp,48,→,right,→,0.48360460018739104,True,10,-1,0,10
Y2-S2-233K19,2,241,PS,exp,49,↑,up,↑,0.49612829997204244,True,10,-1,0,10
Y2-S2-233K19,2,242,PS,exp,36,↓,down,↓,0.6634706000331789,True,10,1,1,11
Y2-S2-233K19,2,243,PS,exp,34,←,down,↓,0.9718618998304009,False,9,-1,1,12
Y2-S2-233K19,2,244,PS,exp,50,→,right,→,0.7354019000194967,True,10,-1,0,12
Y2-S2-233K19,2,245,PS,exp,45,↓,down,↓,0.6523333999793977,True,10,-1,0,12
Y2-S2-233K19,2,246,PS,exp,44,→,right,→,0.5645701000466943,True,10,1,1,13
Y2-S2-233K19,2,247,PS,exp,44,↑,up,↑,0.47849969984963536,True,9,1,0,13
Y2-S2-233K19,2,248,PS,exp,33,←,left,←,0.40802039997652173,True,9,1,0,13
Y2-S2-233K19,2,249,PS,exp,39,↑,up,↑,0.42314639990217984,True,9,1,0,13
Y2-S2-233K19,2,250,PS,exp,36,→,right,→,0.4874981001485139,True,8,1,0,13
Y2-S2-233K19,2,251,PS,exp,44,↑,up,↑,0.4397740000858903,True,8,1,0,13
Y2-S2-233K19,2,252,PS,exp,27,→,left,←,0.934326299931854,False,8,-1,1,14
Y2-S2-233K19,2,253,PS,exp,36,↓,down,↓,0.6884977000299841,True,9,-1,0,14
Y2-S2-233K19,2,254,PS,exp,44,↑,up,↑,0.4615257999394089,True,9,-1,0,14
Y2-S2-233K19,2,255,PS,exp,35,←,right,→,0.5786210999358445,False,9,-1,0,14
Y2-S2-233K19,2,256,PS,exp,48,↓,down,↓,0.6580766001716256,True,10,-1,0,14
Y2-S2-233K19,2,257,PS,exp,34,←,down,↓,1.0275210000108927,False,10,-1,0,14
Y2-S2-233K19,2,258,PS,exp,43,↑,up,↑,0.4609645998571068,True,11,-1,0,14
Y2-S2-233K19,2,259,PS,exp,32,↓,down,↓,0.7814140999689698,True,11,-1,0,14
Y2-S2-233K19,2,260,PS,exp,27,←,left,←,0.38764830003492534,True,11,1,1,15
Y2-S2-233K19,2,261,PS,exp,28,↑,up,↑,0.4696921999566257,True,10,1,0,15
Y2-S2-233K19,2,262,PS,exp,28,←,left,←,0.5335864000953734,True,10,1,0,15
Y2-S2-233K19,2,263,PS,exp,32,↑,up,↑,0.46287459996528924,True,10,1,0,15
Y2-S2-233K19,2,264,PS,exp,39,↓,down,↓,0.6020935999695212,True,9,1,0,15
Y2-S2-233K19,2,265,PS,exp,36,→,down,↓,0.9285001000389457,False,9,-1,1,16
Y2-S2-233K19,3,266,PS,intra_train,29,↑,up,↑,0.4558907998725772,True,12,-,-,-
Y2-S2-233K19,3,267,PS,intra_train,45,→,right,→,0.5320216999389231,True,12,-,-,-
Y2-S2-233K19,3,268,PS,intra_train,32,↓,down,↓,0.7067529000341892,True,12,-,-,-
Y2-S2-233K19,3,269,PS,intra_train,36,←,left,←,0.4714435001369566,True,12,-,-,-
Y2-S2-233K19,3,270,PS,intra_train,26,↓,down,↓,0.4710472000297159,True,12,-,-,-
Y2-S2-233K19,3,271,PS,exp,33,←,left,←,0.6974189998582006,True,8,0,0,0
Y2-S2-233K19,3,272,PS,exp,43,→,left,←,0.7329518001060933,False,8,-1,0,0
Y2-S2-233K19,3,273,PS,exp,25,←,left,←,0.46171820000745356,True,9,-1,0,0
Y2-S2-233K19,3,274,PS,exp,36,↓,down,↓,1.1205184001009911,True,9,-1,0,0
Y2-S2-233K19,3,275,PS,exp,39,↑,right,→,1.5981902000494301,False,9,-1,0,0
Y2-S2-233K19,3,276,PS,exp,29,→,right,→,0.5341461999341846,True,10,-1,0,0
Y2-S2-233K19,3,277,PS,exp,37,←,left,←,0.47427030000835657,True,10,-1,0,0
Y2-S2-233K19,3,278,PS,exp,28,↓,left,←,0.8002600998152047,False,10,-1,0,0
Y2-S2-233K19,3,279,PS,exp,49,→,right,→,0.505931300111115,True,11,-1,0,0
Y2-S2-233K19,3,280,PS,exp,42,↑,up,↑,0.49597110017202795,True,11,-1,0,0
Y2-S2-233K19,3,281,PS,exp,50,→,right,→,0.6776699000038207,True,11,1,1,1
Y2-S2-233K19,3,282,PS,exp,40,←,left,←,0.39214339992031455,True,10,1,0,1
Y2-S2-233K19,3,283,PS,exp,25,↑,down,↓,0.8758280999027193,False,10,-1,1,2
Y2-S2-233K19,3,284,PS,exp,26,→,right,→,0.6089340001344681,True,11,-1,0,2
Y2-S2-233K19,3,285,PS,exp,28,↓,down,↓,0.6464954998809844,True,11,-1,0,2
Y2-S2-233K19,3,286,PS,exp,41,↑,down,↓,0.7129347000736743,False,11,-1,0,2
Y2-S2-233K19,3,287,PS,exp,43,←,left,←,1.5342629000078887,True,12,-1,0,2
Y2-S2-233K19,3,288,PS,exp,48,→,right,→,0.5025913000572473,True,12,-1,0,2
Y2-S2-233K19,3,289,PS,exp,27,↓,down,↓,0.7071280998643488,True,12,1,1,3
Y2-S2-233K19,3,290,PS,exp,30,→,right,→,0.9245112000498921,True,11,1,0,3
Y2-S2-233K19,3,291,PS,exp,38,↓,down,↓,0.4879169000778347,True,11,1,0,3
Y2-S2-233K19,3,292,PS,exp,34,←,left,←,0.549054800067097,True,11,1,0,3
Y2-S2-233K19,3,293,PS,exp,26,↓,down,↓,0.5293161999434233,True,10,1,0,3
Y2-S2-233K19,3,294,PS,exp,34,→,right,→,0.521217699861154,True,10,1,0,3
Y2-S2-233K19,3,295,PS,exp,39,↓,down,↓,0.5299348998814821,True,10,1,0,3
Y2-S2-233K19,3,296,PS,exp,46,↑,up,↑,0.44049740000627935,True,9,1,0,3
Y2-S2-233K19,3,297,PS,exp,47,→,down,↓,1.0098850999493152,False,9,-1,1,4
Y2-S2-233K19,3,298,PS,exp,45,↑,up,↑,0.46147990017198026,True,10,-1,0,4
Y2-S2-233K19,3,299,PS,exp,49,←,left,←,0.5057860999368131,True,10,-1,0,4
Y2-S2-233K19,3,300,PS,exp,50,↑,right,→,0.8608989999629557,False,10,-1,0,4
Y2-S2-233K19,3,301,PS,exp,50,←,left,←,0.42502279998734593,True,11,-1,0,4
Y2-S2-233K19,3,302,PS,exp,49,↑,up,↑,0.49161239992827177,True,11,-1,0,4
Y2-S2-233K19,3,303,PS,exp,40,←,left,←,0.5481306998990476,True,11,1,1,5
Y2-S2-233K19,3,304,PS,exp,45,↑,up,↑,0.43059140001423657,True,10,1,0,5
Y2-S2-233K19,3,305,PS,exp,31,↓,down,↓,0.6145785001572222,True,10,1,0,5
Y2-S2-233K19,3,306,PS,exp,35,↑,up,↑,0.4590409998781979,True,10,1,0,5
Y2-S2-233K19,3,307,PS,exp,31,←,right,→,0.9427164997905493,False,9,-1,1,6
Y2-S2-233K19,3,308,PS,exp,39,↓,right,→,0.9358051000162959,False,10,-1,0,6
Y2-S2-233K19,3,309,PS,exp,35,↑,up,↑,1.0211149998940527,True,11,-1,0,6
Y2-S2-233K19,3,310,PS,exp,28,↓,down,↓,0.9079646000172943,True,11,-1,0,6
Y2-S2-233K19,3,311,PS,exp,32,→,right,→,0.6492630001157522,True,11,1,1,7
Y2-S2-233K19,3,312,PS,exp,38,↑,up,↑,0.5723542000632733,True,10,1,0,7
Y2-S2-233K19,3,313,PS,exp,37,↓,down,↓,0.6015928001143038,True,10,1,0,7
Y2-S2-233K19,3,314,PS,exp,45,→,down,↓,0.969913300126791,False,10,-1,1,8
Y2-S2-233K19,3,315,PS,exp,48,←,right,→,0.7269307000096887,False,11,-1,0,8
Y2-S2-233K19,3,316,PS,exp,47,↓,down,↓,0.6189026001375169,True,12,-1,0,8
Y2-S2-233K19,3,317,PS,exp,29,↑,up,↑,0.5229529999196529,True,12,-1,0,8
Y2-S2-233K19,3,318,PS,exp,50,↓,up,↑,0.6841589000541717,False,12,-1,0,8
Y2-S2-233K19,3,319,PS,exp,30,→,right,→,0.556517300195992,True,13,-1,0,8
Y2-S2-233K19,3,320,PS,exp,27,↑,up,↑,0.5901651999447495,True,13,-1,0,8
Y2-S2-233K19,3,321,PS,exp,31,↓,down,↓,0.5122176001314074,True,13,1,1,9
Y2-S2-233K19,3,322,PS,exp,25,←,left,←,0.5344171000178903,True,12,1,0,9
Y2-S2-233K19,3,323,PS,exp,48,↑,up,↑,0.5739043999928981,True,12,1,0,9
Y2-S2-233K19,3,324,PS,exp,47,↓,down,↓,0.5202041999436915,True,12,1,0,9
Y2-S2-233K19,3,325,PS,exp,39,↑,up,↑,0.48513110005296767,True,11,1,0,9
Y2-S2-233K19,3,326,PS,exp,34,→,right,→,0.8028257999103516,True,11,1,0,9
Y2-S2-233K19,3,327,PS,exp,45,↑,up,↑,0.4260108999442309,True,11,1,0,9
Y2-S2-233K19,3,328,PS,exp,30,↓,up,↑,0.6785828999709338,False,10,-1,1,10
Y2-S2-233K19,3,329,PS,exp,33,↑,up,↑,0.615769200026989,True,11,-1,0,10
Y2-S2-233K19,3,330,PS,exp,32,↓,down,↓,0.5702430000528693,True,11,-1,0,10
Y2-S2-233K19,3,331,PS,exp,31,←,left,←,0.5344990999437869,True,11,1,1,11
Y2-S2-233K19,3,332,PS,exp,30,↑,up,↑,0.42482360010035336,True,10,1,0,11
Y2-S2-233K19,3,333,PS,exp,25,↓,down,↓,0.7691021000500768,True,10,1,0,11
Y2-S2-233K19,3,334,PS,exp,33,↑,down,↓,0.7652249000966549,False,10,-1,1,12
Y2-S2-233K19,3,335,PS,exp,32,←,left,←,0.5115989001933485,True,11,-1,0,12
Y2-S2-233K19,3,336,PS,exp,47,→,right,→,0.48421979998238385,True,11,-1,0,12
Y2-S2-233K19,3,337,PS,exp,26,↓,down,↓,0.6043549000751227,True,11,1,1,13
Y2-S2-233K19,3,338,PS,exp,26,→,right,→,0.5422106999903917,True,10,1,0,13
Y2-S2-233K19,3,339,PS,exp,38,↑,up,↑,0.49338739993982017,True,10,1,0,13
Y2-S2-233K19,3,340,PS,exp,27,↓,right,→,0.7719874000176787,False,10,-1,1,14
Y2-S2-233K19,3,341,PS,exp,40,→,right,→,0.487036099890247,True,11,-1,0,14
Y2-S2-233K19,3,342,PS,exp,26,↓,down,↓,0.7557089000474662,True,11,-1,0,14
Y2-S2-233K19,3,343,PS,exp,34,←,left,←,0.5348765999078751,True,11,1,1,15
Y2-S2-233K19,3,344,PS,exp,38,→,right,→,0.4522291000466794,True,10,1,0,15
Y2-S2-233K19,3,345,PS,exp,25,↓,down,↓,0.8685375000350177,True,10,1,0,15
Y2-S2-233K19,3,346,PS,exp,39,←,left,←,0.5511443000286818,True,10,1,0,15
Y2-S2-233K19,3,347,PS,exp,38,↓,down,↓,0.6702978999819607,True,9,1,0,15
Y2-S2-233K19,3,348,PS,exp,25,←,right,→,0.5563852998893708,False,9,-1,1,16
Y2-S2-233K19,4,349,AS,intra_train,31,↓,down,↓,0.6280285001266748,True,27,-,-,-
Y2-S2-233K19,4,350,AS,intra_train,29,→,right,→,0.5839535999111831,True,27,-,-,-
Y2-S2-233K19,4,351,AS,intra_train,38,↓,down,↓,0.7320739000570029,True,27,-,-,-
Y2-S2-233K19,4,352,AS,intra_train,49,→,right,→,0.7746223998256028,True,27,-,-,-
Y2-S2-233K19,4,353,AS,intra_train,50,←,left,←,0.46730079990811646,True,27,-,-,-
Y2-S2-233K19,4,354,AS,exp,40,→,right,→,1.4318506999406964,True,18,0,0,0
Y2-S2-233K19,4,355,AS,exp,29,←,left,←,0.570467900019139,True,18,0,0,0
Y2-S2-233K19,4,356,AS,exp,35,↓,down,↓,0.5574663998559117,True,18,1,0,0
Y2-S2-233K19,4,357,AS,exp,39,←,left,←,0.6337896001059562,True,17,1,0,0
Y2-S2-233K19,4,358,AS,exp,27,↓,down,↓,0.8295325001236051,True,17,1,0,0
Y2-S2-233K19,4,359,AS,exp,46,→,right,→,0.4840180999599397,True,17,1,0,0
Y2-S2-233K19,4,360,AS,exp,40,←,left,←,0.6608923999592662,True,16,1,0,0
Y2-S2-233K19,4,361,AS,exp,27,↓,down,↓,0.45180689985863864,True,16,1,0,0
Y2-S2-233K19,4,362,AS,exp,42,←,left,←,0.43797329999506474,True,16,1,0,0
Y2-S2-233K19,4,363,AS,exp,27,↓,down,↓,0.5183427999727428,True,15,1,0,0
Y2-S2-233K19,4,364,AS,exp,45,↑,up,↑,0.7093913001008332,True,15,1,0,0
Y2-S2-233K19,4,365,AS,exp,44,←,left,←,0.7080253001768142,True,15,1,0,0
Y2-S2-233K19,4,366,AS,exp,25,↑,up,↑,0.48525919998064637,True,14,1,0,0
Y2-S2-233K19,4,367,AS,exp,49,↓,down,↓,0.5292029001284391,True,14,1,0,0
Y2-S2-233K19,4,368,AS,exp,36,→,right,→,0.6253707001451403,True,14,1,0,0
Y2-S2-233K19,4,369,AS,exp,33,↑,down,↓,0.8340896998997778,False,13,-1,1,1
Y2-S2-233K19,4,370,AS,exp,28,→,left,←,0.7034316000062972,False,14,-1,0,1
Y2-S2-233K19,4,371,AS,exp,34,←,left,←,0.3836837001144886,True,15,-1,0,1
Y2-S2-233K19,4,372,AS,exp,48,↑,up,↑,0.4745275001041591,True,15,-1,0,1
Y2-S2-233K19,4,373,AS,exp,29,↓,down,↓,1.0030586998909712,True,15,1,1,2
Y2-S2-233K19,4,374,AS,exp,37,→,right,→,0.6080100999679416,True,14,1,0,2
Y2-S2-233K19,4,375,AS,exp,31,↓,down,↓,0.9855647999793291,True,14,1,0,2
Y2-S2-233K19,4,376,AS,exp,40,←,left,←,0.616555199958384,True,14,1,0,2
Y2-S2-233K19,4,377,AS,exp,50,↓,down,↓,0.8285253001376987,True,13,1,0,2
Y2-S2-233K19,4,378,AS,exp,36,↑,up,↑,0.9579813999589533,True,13,1,0,2
Y2-S2-233K19,4,379,AS,exp,34,↓,down,↓,0.6750233999919146,True,13,1,0,2
Y2-S2-233K19,4,380,AS,exp,50,←,down,↓,1.0728307999670506,False,12,-1,1,3
Y2-S2-233K19,4,381,AS,exp,43,↑,down,↓,0.842091399943456,False,13,-1,0,3
Y2-S2-233K19,4,382,AS,exp,32,→,right,→,0.6351175999734551,True,14,-1,0,3
Y2-S2-233K19,4,383,AS,exp,35,↑,up,↑,0.6092511001043022,True,14,-1,0,3
Y2-S2-233K19,4,384,AS,exp,35,→,right,→,0.6834865999408066,True,14,1,1,4
Y2-S2-233K19,4,385,AS,exp,25,↓,down,↓,0.5962259001098573,True,13,1,0,4
Y2-S2-233K19,4,386,AS,exp,36,↑,up,↑,0.7794629998970777,True,13,1,0,4
Y2-S2-233K19,4,387,AS,exp,33,↓,down,↓,0.5303318998776376,True,13,1,0,4
Y2-S2-233K19,4,388,AS,exp,33,→,right,→,0.6155234999023378,True,12,1,0,4
Y2-S2-233K19,4,389,AS,exp,32,↓,right,→,1.0579124002251774,False,12,-1,1,5
Y2-S2-233K19,4,390,AS,exp,37,→,right,→,0.7385261999443173,True,13,-1,0,5
Y2-S2-233K19,4,391,AS,exp,40,↑,up,↑,1.1353674000129104,True,13,-1,0,5
Y2-S2-233K19,4,392,AS,exp,38,→,right,→,0.5143696998711675,True,13,1,1,6
Y2-S2-233K19,4,393,AS,exp,43,↓,right,→,1.260103999869898,False,12,-1,1,7
Y2-S2-233K19,4,394,AS,exp,49,↑,up,↑,0.5427900000941008,True,13,-1,0,7
Y2-S2-233K19,4,395,AS,exp,31,←,left,←,0.6981140000279993,True,13,-1,0,7
Y2-S2-233K19,4,396,AS,exp,35,→,right,→,0.7267257999628782,True,13,1,1,8
Y2-S2-233K19,4,397,AS,exp,31,↓,up,↑,0.794210399966687,False,12,-1,1,9
Y2-S2-233K19,4,398,AS,exp,48,→,right,→,0.45207679993472993,True,13,-1,0,9
Y2-S2-233K19,4,399,AS,exp,48,←,left,←,0.426455499837175,True,13,-1,0,9
Y2-S2-233K19,4,400,AS,exp,33,↑,right,→,1.0408660001121461,False,13,-1,0,9
Y2-S2-233K19,4,401,AS,exp,35,←,left,←,0.4973818000871688,True,14,-1,0,9
Y2-S2-233K19,4,402,AS,exp,40,↑,up,↑,0.5028554000891745,True,14,-1,0,9
Y2-S2-233K19,4,403,AS,exp,49,→,right,→,0.899294399889186,True,14,1,1,10
Y2-S2-233K19,4,404,AS,exp,49,←,left,←,0.45234469999559224,True,13,1,0,10
Y2-S2-233K19,4,405,AS,exp,44,→,right,→,0.4991537001915276,True,13,1,0,10
Y2-S2-233K19,4,406,AS,exp,28,↓,up,↑,1.0338244000449777,False,13,-1,1,11
Y2-S2-233K19,4,407,AS,exp,27,→,up,↑,1.2908786998596042,False,14,-1,0,11
Y2-S2-233K19,4,408,AS,exp,32,↓,down,↓,0.7756026000715792,True,15,-1,0,11
Y2-S2-233K19,4,409,AS,exp,39,↑,up,↑,0.4758140000049025,True,15,-1,0,11
Y2-S2-233K19,4,410,AS,exp,41,↓,down,↓,0.6142478999681771,True,15,1,1,12
Y2-S2-233K19,4,411,AS,exp,40,→,right,→,0.636180599918589,True,14,1,0,12
Y2-S2-233K19,4,412,AS,exp,28,←,left,←,0.5287621999159455,True,14,1,0,12
Y2-S2-233K19,4,413,AS,exp,26,→,right,→,0.5256529999896884,True,14,1,0,12
Y2-S2-233K19,4,414,AS,exp,45,↑,right,→,0.7840485000051558,False,13,-1,1,13
Y2-S2-233K19,4,415,AS,exp,41,↓,right,→,1.1581799001432955,False,14,-1,0,13
Y2-S2-233K19,4,416,AS,exp,46,→,right,→,0.45723509998060763,True,15,-1,0,13
Y2-S2-233K19,4,417,AS,exp,25,↓,down,↓,0.6751266999635845,True,15,-1,0,13
Y2-S2-233K19,4,418,AS,exp,46,←,left,←,0.5155583000741899,True,15,1,1,14
Y2-S2-233K19,4,419,AS,exp,39,→,right,→,0.7926761999260634,True,14,1,0,14
Y2-S2-233K19,4,420,AS,exp,28,↑,down,↓,0.7784627000801265,False,14,-1,1,15
Y2-S2-233K19,4,421,AS,exp,47,↓,down,↓,0.5244309999980032,True,15,-1,0,15
Y2-S2-233K19,4,422,AS,exp,44,→,right,→,0.6058825000654906,True,15,-1,0,15
Y2-S2-233K19,4,423,AS,exp,25,←,left,←,0.491502899909392,True,15,1,1,16
Y2-S2-233K19,5,424,AS,intra_train,31,↑,up,↑,0.4340176999103278,True,27,-,-,-
Y2-S2-233K19,5,425,AS,intra_train,45,↓,down,↓,0.5839871000498533,True,27,-,-,-
Y2-S2-233K19,5,426,AS,intra_train,29,→,right,→,1.2930171000771224,True,27,-,-,-
Y2-S2-233K19,5,427,AS,intra_train,50,↓,no_key,no_letter,-1.0,False,27,-,-,-
Y2-S2-233K19,5,428,AS,intra_train,47,→,right,→,0.46731889992952347,True,27,-,-,-
Y2-S2-233K19,5,429,AS,exp,44,↓,down,↓,0.7006775001063943,True,18,0,0,0
Y2-S2-233K19,5,430,AS,exp,35,→,right,→,0.5877823999617249,True,18,0,0,0
Y2-S2-233K19,5,431,AS,exp,46,↓,down,↓,0.604360899887979,True,18,1,0,0
Y2-S2-233K19,5,432,AS,exp,34,↑,up,↑,0.7004269000608474,True,17,1,0,0
Y2-S2-233K19,5,433,AS,exp,41,←,right,→,0.8650515000335872,False,17,-1,1,1
Y2-S2-233K19,5,434,AS,exp,31,↓,down,↓,0.5398978001903743,True,18,-1,0,1
Y2-S2-233K19,5,435,AS,exp,48,↑,up,↑,0.6058036999311298,True,18,-1,0,1
Y2-S2-233K19,5,436,AS,exp,35,→,right,→,0.6950107000302523,True,18,1,1,2
Y2-S2-233K19,5,437,AS,exp,30,↓,down,↓,0.7391943000257015,True,17,1,0,2
Y2-S2-233K19,5,438,AS,exp,50,→,right,→,0.7931555998511612,True,17,1,0,2
Y2-S2-233K19,5,439,AS,exp,26,↑,up,↑,0.8676063998136669,True,17,1,0,2
Y2-S2-233K19,5,440,AS,exp,45,←,left,←,0.6917610999662429,True,16,1,0,2
Y2-S2-233K19,5,441,AS,exp,33,↑,up,↑,0.7370881999377161,True,16,1,0,2
Y2-S2-233K19,5,442,AS,exp,49,←,left,←,0.6505231999326497,True,16,1,0,2
Y2-S2-233K19,5,443,AS,exp,42,↑,up,↑,0.689108399907127,True,15,1,0,2
Y2-S2-233K19,5,444,AS,exp,25,↓,down,↓,0.8756313000340015,True,15,1,0,2
Y2-S2-233K19,5,445,AS,exp,41,↑,up,↑,0.5577135998755693,True,15,1,0,2
Y2-S2-233K19,5,446,AS,exp,36,←,left,←,1.3408914001192898,True,14,1,0,2
Y2-S2-233K19,5,447,AS,exp,34,↓,up,↑,0.7892461000010371,False,14,-1,1,3
Y2-S2-233K19,5,448,AS,exp,28,→,right,→,0.800371800083667,True,15,-1,0,3
Y2-S2-233K19,5,449,AS,exp,48,↓,down,↓,0.6618980001658201,True,15,-1,0,3
Y2-S2-233K19,5,450,AS,exp,48,←,left,←,0.6558077998925,True,15,1,1,4
Y2-S2-233K19,5,451,AS,exp,50,↓,down,↓,0.5776747998315841,True,14,1,0,4
Y2-S2-233K19,5,452,AS,exp,49,↑,up,↑,0.707852000137791,True,14,1,0,4
Y2-S2-233K19,5,453,AS,exp,28,↓,right,→,0.9886270000133663,False,14,-1,1,5
Y2-S2-233K19,5,454,AS,exp,34,↑,up,↑,0.5807239999994636,True,15,-1,0,5
Y2-S2-233K19,5,455,AS,exp,30,←,left,←,0.5826520000118762,True,15,-1,0,5
Y2-S2-233K19,5,456,AS,exp,49,↑,up,↑,0.6688216999173164,True,15,1,1,6
Y2-S2-233K19,5,457,AS,exp,37,←,left,←,0.5723726998548955,True,14,1,0,6
Y2-S2-233K19,5,458,AS,exp,30,↑,up,↑,0.7872986998409033,True,14,1,0,6
Y2-S2-233K19,5,459,AS,exp,40,↓,down,↓,0.564423399977386,True,14,1,0,6
Y2-S2-233K19,5,460,AS,exp,29,→,right,→,0.6945746999699622,True,13,1,0,6
Y2-S2-233K19,5,461,AS,exp,34,↑,up,↑,0.8805464000906795,True,13,1,0,6
Y2-S2-233K19,5,462,AS,exp,36,←,left,←,0.6632165000773966,True,13,1,0,6
Y2-S2-233K19,5,463,AS,exp,42,→,right,→,0.6171709999907762,True,12,1,0,6
Y2-S2-233K19,5,464,AS,exp,44,↑,right,→,0.9954188000410795,False,12,-1,1,7
Y2-S2-233K19,5,465,AS,exp,50,←,left,←,0.4995962001848966,True,13,-1,0,7
Y2-S2-233K19,5,466,AS,exp,33,→,right,→,0.5269726999104023,True,13,-1,0,7
Y2-S2-233K19,5,467,AS,exp,26,←,left,←,0.5182274000253528,True,13,1,1,8
Y2-S2-233K19,5,468,AS,exp,25,↑,right,→,0.8109045000746846,False,12,-1,1,9
Y2-S2-233K19,5,469,AS,exp,41,↓,down,↓,0.6632042001001537,True,13,-1,0,9
Y2-S2-233K19,5,470,AS,exp,45,←,right,→,0.7770664000418037,False,13,-1,0,9
Y2-S2-233K19,5,471,AS,exp,37,→,right,→,1.0113649999257177,True,14,-1,0,9
Y2-S2-233K19,5,472,AS,exp,49,↓,right,→,0.7731882000807673,False,14,-1,0,9
Y2-S2-233K19,5,473,AS,exp,45,←,left,←,0.4515699001494795,True,15,-1,0,9
Y2-S2-233K19,5,474,AS,exp,27,↓,down,↓,0.580153499962762,True,15,-1,0,9
Y2-S2-233K19,5,475,AS,exp,28,↑,up,↑,0.4312587999738753,True,15,1,1,10
Y2-S2-233K19,5,476,AS,exp,40,→,right,→,0.440575199900195,True,14,1,0,10
Y2-S2-233K19,5,477,AS,exp,28,←,right,→,0.6819754000753164,False,14,-1,1,11
Y2-S2-233K19,5,478,AS,exp,47,→,right,→,0.7706304001621902,True,15,-1,0,11
Y2-S2-233K19,5,479,AS,exp,46,↓,right,→,1.2859253000933677,False,15,-1,0,11
Y2-S2-233K19,5,480,AS,exp,33,↑,up,↑,0.5836817000526935,True,16,-1,0,11
Y2-S2-233K19,5,481,AS,exp,30,←,left,←,0.6055636000819504,True,16,-1,0,11
Y2-S2-233K19,5,482,AS,exp,42,↑,up,↑,1.4451498000416905,True,16,1,1,12
Y2-S2-233K19,5,483,AS,exp,34,→,right,→,0.44118830002844334,True,15,1,0,12
Y2-S2-233K19,5,484,AS,exp,37,↑,up,↑,0.547723599942401,True,15,1,0,12
Y2-S2-233K19,5,485,AS,exp,46,↓,up,↑,0.635272900108248,False,15,-1,1,13
Y2-S2-233K19,5,486,AS,exp,27,↑,right,→,1.0655401998665184,False,16,-1,0,13
Y2-S2-233K19,5,487,AS,exp,29,→,right,→,1.2523185999598354,True,17,-1,0,13
Y2-S2-233K19,5,488,AS,exp,50,↑,up,↑,0.4003190000075847,True,17,-1,0,13
Y2-S2-233K19,5,489,AS,exp,47,↓,down,↓,0.7520636999979615,True,17,1,1,14
Y2-S2-233K19,5,490,AS,exp,39,↑,up,↑,1.6201043999753892,True,16,1,0,14
Y2-S2-233K19,5,491,AS,exp,31,→,right,→,0.5723319998942316,True,16,1,0,14
Y2-S2-233K19,5,492,AS,exp,37,←,right,→,0.6647759000770748,False,16,-1,1,15
Y2-S2-233K19,5,493,AS,exp,33,↓,down,↓,0.6214707000181079,True,17,-1,0,15
Y2-S2-233K19,5,494,AS,exp,34,←,left,←,0.4765948001295328,True,17,-1,0,15
Y2-S2-233K19,5,495,AS,exp,29,↓,down,↓,0.8114112000912428,True,17,1,1,16
Y2-S2-233K19,6,496,PS,intra_train,33,←,right,→,0.8850323997903615,False,12,-,-,-
Y2-S2-233K19,6,497,PS,intra_train,50,↓,left,←,1.769106299849227,False,12,-,-,-
Y2-S2-233K19,6,498,PS,intra_train,32,↑,right,→,0.989401200087741,False,12,-,-,-
Y2-S2-233K19,6,499,PS,intra_train,34,↓,down,↓,0.6409307001158595,True,12,-,-,-
Y2-S2-233K19,6,500,PS,intra_train,32,→,right,→,0.7933692000806332,True,12,-,-,-
Y2-S2-233K19,6,501,PS,exp,26,↓,down,↓,0.49961999990046024,True,8,0,0,0
Y2-S2-233K19,6,502,PS,exp,26,←,right,→,0.8671265000011772,False,8,-1,0,0
Y2-S2-233K19,6,503,PS,exp,36,↓,left,←,1.3616241000127047,False,9,-1,0,0
Y2-S2-233K19,6,504,PS,exp,50,→,right,→,0.46615679981186986,True,10,-1,0,0
Y2-S2-233K19,6,505,PS,exp,27,←,left,←,0.5671715000644326,True,10,-1,0,0
Y2-S2-233K19,6,506,PS,exp,29,↓,down,↓,0.5373082999140024,True,10,1,1,1
Y2-S2-233K19,6,507,PS,exp,31,→,up,↑,1.7403140000533313,False,9,-1,1,2
Y2-S2-233K19,6,508,PS,exp,31,↓,down,↓,0.5374693998601288,True,10,-1,0,2
Y2-S2-233K19,6,509,PS,exp,50,→,left,←,0.7596657001413405,False,10,-1,0,2
Y2-S2-233K19,6,510,PS,exp,43,↓,down,↓,0.5384013999719173,True,11,-1,0,2
Y2-S2-233K19,6,511,PS,exp,25,↑,right,→,0.7857049000449479,False,11,-1,0,2
Y2-S2-233K19,6,512,PS,exp,31,←,left,←,1.072975599905476,True,12,-1,0,2
Y2-S2-233K19,6,513,PS,exp,42,↓,down,↓,0.69632270000875,True,12,-1,0,2
Y2-S2-233K19,6,514,PS,exp,42,←,left,←,0.5222173000220209,True,12,1,1,3
Y2-S2-233K19,6,515,PS,exp,29,↑,down,↓,1.0172780000139028,False,11,-1,1,4
Y2-S2-233K19,6,516,PS,exp,48,←,left,←,0.5924957001116127,True,12,-1,0,4
Y2-S2-233K19,6,517,PS,exp,43,→,right,→,0.47140440018847585,True,12,-1,0,4
Y2-S2-233K19,6,518,PS,exp,48,↑,up,↑,0.5393140998203307,True,12,1,1,5
Y2-S2-233K19,6,519,PS,exp,40,↓,down,↓,0.6480104001238942,True,11,1,0,5
Y2-S2-233K19,6,520,PS,exp,34,→,right,→,0.44643569993786514,True,11,1,0,5
Y2-S2-233K19,6,521,PS,exp,25,↓,down,↓,0.6768596000038087,True,11,1,0,5
Y2-S2-233K19,6,522,PS,exp,27,←,left,←,0.5826213997788727,True,10,1,0,5
Y2-S2-233K19,6,523,PS,exp,46,↓,right,→,0.7182350000366569,False,10,-1,1,6
Y2-S2-233K19,6,524,PS,exp,49,→,right,→,0.5439814000856131,True,11,-1,0,6
Y2-S2-233K19,6,525,PS,exp,29,←,left,←,0.46945429989136755,True,11,-1,0,6
Y2-S2-233K19,6,526,PS,exp,30,→,right,→,0.4740176999475807,True,11,1,1,7
Y2-S2-233K19,6,527,PS,exp,32,←,left,←,0.40365039999596775,True,10,1,0,7
Y2-S2-233K19,6,528,PS,exp,48,→,right,→,0.45367499999701977,True,10,1,0,7
Y2-S2-233K19,6,529,PS,exp,44,←,left,←,0.4929002998396754,True,10,1,0,7
Y2-S2-233K19,6,530,PS,exp,46,→,right,→,0.38721559988334775,True,9,1,0,7
Y2-S2-233K19,6,531,PS,exp,32,←,left,←,0.4277832000516355,True,9,1,0,7
Y2-S2-233K19,6,532,PS,exp,40,→,right,→,0.42180030001327395,True,9,1,0,7
Y2-S2-233K19,6,533,PS,exp,50,↑,right,→,0.6477392001543194,False,8,-1,1,8
Y2-S2-233K19,6,534,PS,exp,30,←,right,→,0.7819684001151472,False,9,-1,0,8
Y2-S2-233K19,6,535,PS,exp,34,↓,down,↓,0.663672799943015,True,10,-1,0,8
Y2-S2-233K19,6,536,PS,exp,34,↑,up,↑,0.7700211000628769,True,10,-1,0,8
Y2-S2-233K19,6,537,PS,exp,49,←,left,←,0.5228711999952793,True,10,1,1,9
Y2-S2-233K19,6,538,PS,exp,50,↓,down,↓,0.6161806001327932,True,9,1,0,9
Y2-S2-233K19,6,539,PS,exp,30,↑,up,↑,0.6568181999027729,True,9,1,0,9
Y2-S2-233K19,6,540,PS,exp,25,←,left,←,0.6035223000217229,True,9,1,0,9
Y2-S2-233K19,6,541,PS,exp,39,↑,up,↑,0.4840420000255108,True,8,1,0,9
Y2-S2-233K19,6,542,PS,exp,27,→,right,→,0.5086596999317408,True,8,1,0,9
Y2-S2-233K19,6,543,PS,exp,29,↑,up,↑,0.4019883999135345,True,8,1,0,9
Y2-S2-233K19,6,544,PS,exp,37,→,right,→,0.6658701999112964,True,7,1,0,9
Y2-S2-233K19,6,545,PS,exp,26,↑,up,↑,0.5517376998905092,True,7,1,0,9
Y2-S2-233K19,6,546,PS,exp,46,↓,down,↓,0.7082575000822544,True,7,1,0,9
Y2-S2-233K19,6,547,PS,exp,29,↑,right,→,1.692989000119269,False,6,-1,1,10
Y2-S2-233K19,6,548,PS,exp,49,←,down,↓,0.8646464999765158,False,7,-1,0,10
Y2-S2-233K19,6,549,PS,exp,27,→,down,↓,1.0979353000875562,False,8,-1,0,10
Y2-S2-233K19,6,550,PS,exp,43,←,left,←,0.49418190005235374,True,9,-1,0,10
Y2-S2-233K19,6,551,PS,exp,40,↓,right,→,0.7639813001733273,False,9,-1,0,10
Y2-S2-233K19,6,552,PS,exp,48,→,right,→,0.5546410998795182,True,10,-1,0,10
Y2-S2-233K19,6,553,PS,exp,26,↑,up,↑,0.46910440013743937,True,10,-1,0,10
Y2-S2-233K19,6,554,PS,exp,47,↓,down,↓,0.44360530003905296,True,10,1,1,11
Y2-S2-233K19,6,555,PS,exp,41,←,left,←,0.4553241999819875,True,9,1,0,11
Y2-S2-233K19,6,556,PS,exp,48,↑,right,→,0.8036483000032604,False,9,-1,1,12
Y2-S2-233K19,6,557,PS,exp,47,↓,down,↓,0.5485745000187308,True,10,-1,0,12
Y2-S2-233K19,6,558,PS,exp,44,←,right,→,0.5684991998132318,False,10,-1,0,12
Y2-S2-233K19,6,559,PS,exp,32,↓,down,↓,0.5823015000205487,True,11,-1,0,12
Y2-S2-233K19,6,560,PS,exp,50,↑,up,↑,0.5343754000496119,True,11,-1,0,12
Y2-S2-233K19,6,561,PS,exp,45,←,left,←,0.4260325999930501,True,11,1,1,13
Y2-S2-233K19,6,562,PS,exp,41,↑,right,→,0.5449186998885125,False,10,-1,1,14
Y2-S2-233K19,6,563,PS,exp,36,→,right,→,0.5075352999847382,True,11,-1,0,14
Y2-S2-233K19,6,564,PS,exp,30,←,left,←,0.5390528999269009,True,11,-1,0,14
Y2-S2-233K19,6,565,PS,exp,30,↑,up,↑,0.46205949992872775,True,11,1,1,15
Y2-S2-233K19,6,566,PS,exp,36,→,right,→,0.5214406999293715,True,10,1,0,15
Y2-S2-233K19,6,567,PS,exp,30,↓,down,↓,0.529932799981907,True,10,1,0,15
Y2-S2-233K19,6,568,PS,exp,46,↑,right,→,0.5889669999014586,False,10,-1,1,16
Y2-S2-233K19,7,569,PS,intra_train,43,↓,down,↓,0.5395212001167238,True,12,-,-,-
Y2-S2-233K19,7,570,PS,intra_train,33,↑,up,↑,0.6768083001952618,True,12,-,-,-
Y2-S2-233K19,7,571,PS,intra_train,49,→,right,→,0.5770813999697566,True,12,-,-,-
Y2-S2-233K19,7,572,PS,intra_train,43,←,left,←,0.5066721998155117,True,12,-,-,-
Y2-S2-233K19,7,573,PS,intra_train,42,↑,up,↑,0.4682982999365777,True,12,-,-,-
Y2-S2-233K19,7,574,PS,exp,37,←,left,←,0.5210100000258535,True,8,0,0,0
Y2-S2-233K19,7,575,PS,exp,43,↓,down,↓,0.605580999981612,True,8,0,0,0
Y2-S2-233K19,7,576,PS,exp,39,←,left,←,0.44511600001715124,True,8,1,0,0
Y2-S2-233K19,7,577,PS,exp,44,↑,up,↑,0.503729899879545,True,7,1,0,0
Y2-S2-233K19,7,578,PS,exp,28,←,left,←,0.5104314000345767,True,7,1,0,0
Y2-S2-233K19,7,579,PS,exp,43,↓,down,↓,0.7211974000092596,True,7,1,0,0
Y2-S2-233K19,7,580,PS,exp,29,↑,up,↑,0.5059346000198275,True,6,1,0,0
Y2-S2-233K19,7,581,PS,exp,26,↓,down,↓,0.5922944000922143,True,6,1,0,0
Y2-S2-233K19,7,582,PS,exp,46,↑,up,↑,0.6043231000658125,True,6,1,0,0
Y2-S2-233K19,7,583,PS,exp,40,→,down,↓,0.7684462000615895,False,5,-1,1,1
Y2-S2-233K19,7,584,PS,exp,33,←,down,↓,1.084554199827835,False,6,-1,0,1
Y2-S2-233K19,7,585,PS,exp,40,→,right,→,0.5508894000668079,True,7,-1,0,1
Y2-S2-233K19,7,586,PS,exp,31,↑,up,↑,0.5026871999725699,True,7,-1,0,1
Y2-S2-233K19,7,587,PS,exp,29,→,right,→,0.49953579995781183,True,7,1,1,2
Y2-S2-233K19,7,588,PS,exp,28,↓,up,↑,0.8196484001819044,False,6,-1,1,3
Y2-S2-233K19,7,589,PS,exp,37,↑,up,↑,0.40510650002397597,True,7,-1,0,3
Y2-S2-233K19,7,590,PS,exp,42,↓,up,↑,0.7047333000227809,False,7,-1,0,3
Y2-S2-233K19,7,591,PS,exp,37,→,right,→,0.49780129990540445,True,8,-1,0,3
Y2-S2-233K19,7,592,PS,exp,25,←,left,←,0.46969120018184185,True,8,-1,0,3
Y2-S2-233K19,7,593,PS,exp,26,→,right,→,0.6439386999700218,True,8,1,1,4
Y2-S2-233K19,7,594,PS,exp,32,←,left,←,0.7851798001211137,True,7,1,0,4
Y2-S2-233K19,7,595,PS,exp,48,↓,up,↑,0.5232778999488801,False,7,-1,1,5
Y2-S2-233K19,7,596,PS,exp,31,←,down,↓,0.6697577000595629,False,8,-1,0,5
Y2-S2-233K19,7,597,PS,exp,45,→,right,→,0.7049183999188244,True,9,-1,0,5
Y2-S2-233K19,7,598,PS,exp,35,←,down,↓,0.6632795999757946,False,9,-1,0,5
Y2-S2-233K19,7,599,PS,exp,34,→,right,→,0.4764283001422882,True,10,-1,0,5
Y2-S2-233K19,7,600,PS,exp,39,↑,up,↑,0.4843743001110852,True,10,-1,0,5
Y2-S2-233K19,7,601,PS,exp,42,←,left,←,0.5113202999345958,True,10,1,1,6
Y2-S2-233K19,7,602,PS,exp,36,↓,down,↓,0.6351938999723643,True,9,1,0,6
Y2-S2-233K19,7,603,PS,exp,43,→,right,→,0.46064280020073056,True,9,1,0,6
Y2-S2-233K19,7,604,PS,exp,46,←,left,←,0.4066047999076545,True,9,1,0,6
Y2-S2-233K19,7,605,PS,exp,29,↓,down,↓,0.6943315998651087,True,8,1,0,6
Y2-S2-233K19,7,606,PS,exp,36,↑,up,↑,0.4383757999166846,True,8,1,0,6
Y2-S2-233K19,7,607,PS,exp,28,←,right,→,0.6045683999545872,False,8,-1,1,7
Y2-S2-233K19,7,608,PS,exp,43,→,right,→,0.6449241999071091,True,9,-1,0,7
Y2-S2-233K19,7,609,PS,exp,38,↑,up,↑,0.7403259000275284,True,9,-1,0,7
Y2-S2-233K19,7,610,PS,exp,50,←,left,←,0.5046024001203477,True,9,1,1,8
Y2-S2-233K19,7,611,PS,exp,33,↑,left,←,0.6826382998842746,False,8,-1,1,9
Y2-S2-233K19,7,612,PS,exp,29,←,left,←,0.47682070010341704,True,9,-1,0,9
Y2-S2-233K19,7,613,PS,exp,41,→,right,→,0.43298379983752966,True,9,-1,0,9
Y2-S2-233K19,7,614,PS,exp,25,↑,up,↑,0.4777329000644386,True,9,1,1,10
Y2-S2-233K19,7,615,PS,exp,30,↓,right,→,0.9269519001245499,False,8,-1,1,11
Y2-S2-233K19,7,616,PS,exp,46,↑,up,↑,0.451530700083822,True,9,-1,0,11
Y2-S2-233K19,7,617,PS,exp,36,←,left,←,0.6813193999696523,True,9,-1,0,11
Y2-S2-233K19,7,618,PS,exp,30,→,right,→,0.5953361000865698,True,9,1,1,12
Y2-S2-233K19,7,619,PS,exp,26,←,left,←,0.49091460020281374,True,8,1,0,12
Y2-S2-233K19,7,620,PS,exp,33,↑,left,←,0.47870009997859597,False,8,-1,1,13
Y2-S2-233K19,7,621,PS,exp,47,←,left,←,1.58414339995943,True,9,-1,0,13
Y2-S2-233K19,7,622,PS,exp,48,↑,up,↑,0.46055489988066256,True,9,-1,0,13
Y2-S2-233K19,7,623,PS,exp,46,→,right,→,0.4727051998488605,True,9,1,1,14
Y2-S2-233K19,7,624,PS,exp,37,↑,up,↑,0.43633980001322925,True,8,1,0,14
Y2-S2-233K19,7,625,PS,exp,30,→,right,→,0.5502224999945611,True,8,1,0,14
Y2-S2-233K19,7,626,PS,exp,27,↓,down,↓,0.6397740000393242,True,8,1,0,14
Y2-S2-233K19,7,627,PS,exp,43,↑,right,→,0.9875713000074029,False,7,-1,1,15
Y2-S2-233K19,7,628,PS,exp,28,↓,down,↓,0.5364361999090761,True,8,-1,0,15
Y2-S2-233K19,7,629,PS,exp,39,↑,up,↑,0.7064269999973476,True,8,-1,0,15
Y2-S2-233K19,7,630,PS,exp,38,←,left,←,0.45312240021303296,True,8,1,1,16
Y2-S2-233K19,8,631,AS,intra_train,34,↓,down,↓,0.5674910000525415,True,27,-,-,-
Y2-S2-233K19,8,632,AS,intra_train,43,→,right,→,0.7645399000030011,True,27,-,-,-
Y2-S2-233K19,8,633,AS,intra_train,47,↑,up,↑,0.467083599884063,True,27,-,-,-
Y2-S2-233K19,8,634,AS,intra_train,48,←,left,←,0.4338418999686837,True,27,-,-,-
Y2-S2-233K19,8,635,AS,intra_train,28,↑,up,↑,0.41753029986284673,True,27,-,-,-
Y2-S2-233K19,8,636,AS,exp,30,↓,down,↓,0.9304453998338431,True,18,0,0,0
Y2-S2-233K19,8,637,AS,exp,27,←,left,←,0.48676390014588833,True,18,0,0,0
Y2-S2-233K19,8,638,AS,exp,46,↓,down,↓,0.5250558000989258,True,18,1,0,0
Y2-S2-233K19,8,639,AS,exp,45,→,right,→,0.4524871001485735,True,17,1,0,0
Y2-S2-233K19,8,640,AS,exp,31,↑,up,↑,1.252595700090751,True,17,1,0,0
Y2-S2-233K19,8,641,AS,exp,48,→,right,→,0.48022709996439517,True,17,1,0,0
Y2-S2-233K19,8,642,AS,exp,40,↓,up,↑,0.8133139999117702,False,16,-1,1,1
Y2-S2-233K19,8,643,AS,exp,49,→,right,→,0.5610542001668364,True,17,-1,0,1
Y2-S2-233K19,8,644,AS,exp,35,←,left,←,0.3505241998936981,True,17,-1,0,1
Y2-S2-233K19,8,645,AS,exp,27,↓,down,↓,0.5418803000357002,True,17,1,1,2
Y2-S2-233K19,8,646,AS,exp,37,←,left,←,0.3673096001148224,True,16,1,0,2
Y2-S2-233K19,8,647,AS,exp,49,↑,up,↑,0.4004419001284987,True,16,1,0,2
Y2-S2-233K19,8,648,AS,exp,44,↓,down,↓,0.658571399981156,True,16,1,0,2
Y2-S2-233K19,8,649,AS,exp,25,↑,up,↑,0.9739547001663595,True,15,1,0,2
Y2-S2-233K19,8,650,AS,exp,50,↓,up,↑,0.8814825001172721,False,15,-1,1,3
Y2-S2-233K19,8,651,AS,exp,33,↑,up,↑,0.5831182999536395,True,16,-1,0,3
Y2-S2-233K19,8,652,AS,exp,38,→,right,→,0.9484051000326872,True,16,-1,0,3
Y2-S2-233K19,8,653,AS,exp,49,←,right,→,0.731885900022462,False,16,-1,0,3
Y2-S2-233K19,8,654,AS,exp,43,→,right,→,0.6479849999304861,True,17,-1,0,3
Y2-S2-233K19,8,655,AS,exp,49,↓,down,↓,0.5364745000842959,True,17,-1,0,3
Y2-S2-233K19,8,656,AS,exp,49,→,right,→,0.9950700998306274,True,17,1,1,4
Y2-S2-233K19,8,657,AS,exp,34,↑,right,→,1.0362468000967056,False,16,-1,1,5
Y2-S2-233K19,8,658,AS,exp,38,→,right,→,0.5903874998912215,True,17,-1,0,5
Y2-S2-233K19,8,659,AS,exp,47,←,down,↓,0.9456762000918388,False,17,-1,0,5
Y2-S2-233K19,8,660,AS,exp,38,→,right,→,0.6791481000836939,True,18,-1,0,5
Y2-S2-233K19,8,661,AS,exp,47,↑,up,↑,0.5898818999994546,True,18,-1,0,5
Y2-S2-233K19,8,662,AS,exp,29,↓,down,↓,0.6747346001211554,True,18,1,1,6
Y2-S2-233K19,8,663,AS,exp,26,↑,up,↑,0.5742862999904901,True,17,1,0,6
Y2-S2-233K19,8,664,AS,exp,39,↓,down,↓,0.5698536999989301,True,17,1,0,6
Y2-S2-233K19,8,665,AS,exp,46,→,right,→,0.4896461998578161,True,17,1,0,6
Y2-S2-233K19,8,666,AS,exp,37,↓,down,↓,0.6755131999962032,True,16,1,0,6
Y2-S2-233K19,8,667,AS,exp,41,→,right,→,1.1363751001190394,True,16,1,0,6
Y2-S2-233K19,8,668,AS,exp,37,←,left,←,0.6690680000465363,True,16,1,0,6
Y2-S2-233K19,8,669,AS,exp,42,↑,down,↓,0.8985233001876622,False,15,-1,1,7
Y2-S2-233K19,8,670,AS,exp,37,↓,down,↓,0.784527599811554,True,16,-1,0,7
Y2-S2-233K19,8,671,AS,exp,37,→,right,→,1.0126706999726593,True,16,-1,0,7
Y2-S2-233K19,8,672,AS,exp,47,←,left,←,0.9379165999125689,True,16,1,1,8
Y2-S2-233K19,8,673,AS,exp,48,→,right,→,1.152659700019285,True,15,1,0,8
Y2-S2-233K19,8,674,AS,exp,34,↑,up,↑,0.6127665999811143,True,15,1,0,8
Y2-S2-233K19,8,675,AS,exp,39,←,right,→,1.0620232000946999,False,15,-1,1,9
Y2-S2-233K19,8,676,AS,exp,47,↓,down,↓,0.6594664000440389,True,16,-1,0,9
Y2-S2-233K19,8,677,AS,exp,30,→,right,→,0.6718627999071032,True,16,-1,0,9
Y2-S2-233K19,8,678,AS,exp,33,↓,down,↓,0.6906403000466526,True,16,1,1,10
Y2-S2-233K19,8,679,AS,exp,47,↑,up,↑,0.7808455999474972,True,15,1,0,10
Y2-S2-233K19,8,680,AS,exp,50,→,right,→,0.5548183999489993,True,15,1,0,10
Y2-S2-233K19,8,681,AS,exp,27,←,right,→,0.7661578999832273,False,15,-1,1,11
Y2-S2-233K19,8,682,AS,exp,33,→,right,→,0.47042699996382,True,16,-1,0,11
Y2-S2-233K19,8,683,AS,exp,49,←,left,←,0.4417081999126822,True,16,-1,0,11
Y2-S2-233K19,8,684,AS,exp,27,↑,up,↑,0.5196871000807732,True,16,1,1,12
Y2-S2-233K19,8,685,AS,exp,44,↓,down,↓,0.7206365000456572,True,15,1,0,12
Y2-S2-233K19,8,686,AS,exp,44,←,left,←,0.4426826999988407,True,15,1,0,12
Y2-S2-233K19,8,687,AS,exp,35,→,right,→,0.6254160997923464,True,15,1,0,12
Y2-S2-233K19,8,688,AS,exp,27,←,right,→,0.761172299971804,False,14,-1,1,13
Y2-S2-233K19,8,689,AS,exp,37,→,right,→,0.6200812000315636,True,15,-1,0,13
Y2-S2-233K19,8,690,AS,exp,50,←,left,←,0.6463593000080436,True,15,-1,0,13
Y2-S2-233K19,8,691,AS,exp,38,↑,up,↑,1.0408533001318574,True,15,1,1,14
Y2-S2-233K19,8,692,AS,exp,35,←,left,←,0.6661992999725044,True,14,1,0,14
Y2-S2-233K19,8,693,AS,exp,47,→,right,→,0.6610535001382232,True,14,1,0,14
Y2-S2-233K19,8,694,AS,exp,48,←,left,←,0.5869136000983417,True,14,1,0,14
Y2-S2-233K19,8,695,AS,exp,48,↑,right,→,0.6728718001395464,False,13,-1,1,15
Y2-S2-233K19,8,696,AS,exp,50,→,right,→,0.5920774000696838,True,14,-1,0,15
Y2-S2-233K19,8,697,AS,exp,50,←,left,←,0.46268659993074834,True,14,-1,0,15
Y2-S2-233K19,8,698,AS,exp,45,↑,up,↑,0.4529448999091983,True,14,1,1,16
