PART_ID,Block_no,Trial_no,Block_type,Trial_type,CSI,Stim_letter,Key_pressed,letter_choose,Rt,Corr,Stimulus Time,Level,Reversal,Revs_count
Y2-S2-159K18,1,1,PS,train,45,↓,down,↓,0.7091898000217043,True,30,-,-,-
Y2-S2-159K18,1,2,PS,train,45,→,right,→,1.325012399989646,True,30,-,-,-
Y2-S2-159K18,1,3,PS,train,25,↓,down,↓,0.6171317999833263,True,30,-,-,-
Y2-S2-159K18,1,4,PS,train,47,↑,up,↑,0.8182579999556765,True,30,-,-,-
Y2-S2-159K18,1,5,PS,train,38,←,left,←,0.5676818999927491,True,30,-,-,-
Y2-S2-159K18,1,6,PS,train,38,↑,up,↑,0.7600663999910466,True,30,-,-,-
Y2-S2-159K18,1,7,PS,train,29,←,left,←,0.6173806000151671,True,30,-,-,-
Y2-S2-159K18,1,8,PS,train,44,→,right,→,0.6339996000169776,True,30,-,-,-
Y2-S2-159K18,1,9,PS,train,43,↑,up,↑,0.7309692000271752,True,30,-,-,-
Y2-S2-159K18,1,10,PS,train,40,←,left,←,0.8615269000292756,True,30,-,-,-
Y2-S2-159K18,2,11,AS,train,32,→,right,→,0.6008363000000827,True,45,-,-,-
Y2-S2-159K18,2,12,AS,train,33,←,left,←,0.7340265999664553,True,45,-,-,-
Y2-S2-159K18,2,13,AS,train,47,→,right,→,0.7011732999817468,True,45,-,-,-
Y2-S2-159K18,2,14,AS,train,40,↑,up,↑,0.7180495000211522,True,45,-,-,-
Y2-S2-159K18,2,15,AS,train,38,←,left,←,0.6176706000114791,True,45,-,-,-
Y2-S2-159K18,2,16,AS,train,49,↓,down,↓,0.7337593999691308,True,45,-,-,-
Y2-S2-159K18,2,17,AS,train,47,↑,up,↑,0.7512984000495635,True,45,-,-,-
Y2-S2-159K18,2,18,AS,train,42,→,right,→,0.6676797000109218,True,45,-,-,-
Y2-S2-159K18,2,19,AS,train,26,↓,down,↓,1.53860369999893,True,45,-,-,-
Y2-S2-159K18,2,20,AS,train,29,→,right,→,0.767158999980893,True,45,-,-,-
Y2-S2-159K18,-,21,PS,adaptive,40,←,right,→,0.6755554000264965,False,10,-1,0,0
Y2-S2-159K18,-,22,PS,adaptive,34,↓,down,↓,0.5235609000083059,True,11,-1,0,0
Y2-S2-159K18,-,23,PS,adaptive,27,↑,down,↓,0.6955381999723613,False,11,-1,0,0
Y2-S2-159K18,-,24,PS,adaptive,38,→,right,→,0.520986899966374,True,12,-1,0,0
Y2-S2-159K18,-,25,PS,adaptive,28,↓,down,↓,0.46408360003260896,True,12,-1,0,0
Y2-S2-159K18,-,26,PS,adaptive,30,→,right,→,0.47367570002097636,True,12,1,1,1
Y2-S2-159K18,-,27,PS,adaptive,29,↑,up,↑,0.5588087000069208,True,11,1,0,1
Y2-S2-159K18,-,28,PS,adaptive,38,↓,down,↓,0.6431479000020772,True,11,1,0,1
Y2-S2-159K18,-,29,PS,adaptive,34,→,right,→,0.5287027000449598,True,11,1,0,1
Y2-S2-159K18,-,30,PS,adaptive,49,←,down,↓,0.7561486000195146,False,10,-1,1,2
Y2-S2-159K18,-,31,PS,adaptive,40,→,right,→,0.6844885000027716,True,11,-1,0,2
Y2-S2-159K18,-,32,PS,adaptive,26,↑,up,↑,0.5534378999727778,True,11,-1,0,2
Y2-S2-159K18,-,33,PS,adaptive,38,→,right,→,0.5174168000230566,True,11,1,1,3
Y2-S2-159K18,-,34,PS,adaptive,33,↑,up,↑,0.5083877999568358,True,10,1,0,3
Y2-S2-159K18,-,35,PS,adaptive,38,↓,down,↓,0.5705059999600053,True,10,1,0,3
Y2-S2-159K18,-,36,PS,adaptive,49,↑,up,↑,0.5758912999881431,True,10,1,0,3
Y2-S2-159K18,-,37,PS,adaptive,28,↓,down,↓,0.5172971999854781,True,9,1,0,3
Y2-S2-159K18,-,38,PS,adaptive,44,→,up,↑,0.7356965999933891,False,9,-1,1,4
Y2-S2-159K18,-,39,AS,adaptive,33,↓,down,↓,1.2304988999967463,True,20,0,0,0
Y2-S2-159K18,-,40,AS,adaptive,41,←,left,←,0.6361712000216357,True,20,0,0,0
Y2-S2-159K18,-,41,AS,adaptive,32,↑,up,↑,0.5687203000416048,True,20,1,0,0
Y2-S2-159K18,-,42,AS,adaptive,48,←,left,←,0.5076874000369571,True,19,1,0,0
Y2-S2-159K18,-,43,AS,adaptive,46,→,right,→,0.6493325000046752,True,19,1,0,0
Y2-S2-159K18,-,44,AS,adaptive,41,↑,up,↑,0.5250240999739617,True,19,1,0,0
Y2-S2-159K18,-,45,AS,adaptive,42,↓,down,↓,0.5186481999699026,True,18,1,0,0
Y2-S2-159K18,-,46,AS,adaptive,37,→,right,→,0.5802157000289299,True,18,1,0,0
Y2-S2-159K18,-,47,AS,adaptive,25,↑,down,↓,0.8427750999690033,False,18,-1,1,1
Y2-S2-159K18,-,48,AS,adaptive,43,→,right,→,0.5790877999970689,True,19,-1,0,1
Y2-S2-159K18,-,49,AS,adaptive,32,↑,down,↓,0.5876629000413232,False,19,-1,0,1
Y2-S2-159K18,-,50,AS,adaptive,43,←,left,←,0.8273960999795236,True,20,-1,0,1
Y2-S2-159K18,-,51,AS,adaptive,47,↑,up,↑,0.5851254999870434,True,20,-1,0,1
Y2-S2-159K18,-,52,AS,adaptive,42,↓,down,↓,0.8462720999959856,True,20,1,1,2
Y2-S2-159K18,-,53,AS,adaptive,27,→,right,→,0.5981641999678686,True,19,1,0,2
Y2-S2-159K18,-,54,AS,adaptive,50,↓,down,↓,0.7126414999947883,True,19,1,0,2
Y2-S2-159K18,-,55,AS,adaptive,49,→,right,→,0.6136223999783397,True,19,1,0,2
Y2-S2-159K18,-,56,AS,adaptive,43,←,left,←,0.6501767000299878,True,18,1,0,2
Y2-S2-159K18,-,57,AS,adaptive,42,→,right,→,0.6198588000261225,True,18,1,0,2
Y2-S2-159K18,-,58,AS,adaptive,39,←,left,←,0.6609474000288174,True,18,1,0,2
Y2-S2-159K18,-,59,AS,adaptive,31,↓,down,↓,0.7525844000047073,True,17,1,0,2
Y2-S2-159K18,-,60,AS,adaptive,46,←,left,←,0.5647517999750562,True,17,1,0,2
Y2-S2-159K18,-,61,AS,adaptive,36,↑,up,↑,0.6118470999645069,True,17,1,0,2
Y2-S2-159K18,-,62,AS,adaptive,30,←,left,←,0.5078475999762304,True,16,1,0,2
Y2-S2-159K18,-,63,AS,adaptive,32,↓,down,↓,0.6703666000394151,True,16,1,0,2
Y2-S2-159K18,-,64,AS,adaptive,35,→,left,←,0.5403445999836549,False,16,-1,1,3
Y2-S2-159K18,-,65,AS,adaptive,29,↑,up,↑,0.7238654000102542,True,17,-1,0,3
Y2-S2-159K18,-,66,AS,adaptive,36,←,left,←,0.6930906000197865,True,17,-1,0,3
Y2-S2-159K18,-,67,AS,adaptive,42,→,right,→,0.6717490000301041,True,17,1,1,4
Y2-S2-159K18,1,68,PS,intra_train,43,←,left,←,0.5695883999578655,True,15,-,-,-
Y2-S2-159K18,1,69,PS,intra_train,29,↓,down,↓,0.5475233999895863,True,15,-,-,-
Y2-S2-159K18,1,70,PS,intra_train,37,←,left,←,0.5347220000112429,True,15,-,-,-
Y2-S2-159K18,1,71,PS,intra_train,49,↑,up,↑,0.5244603999890387,True,15,-,-,-
Y2-S2-159K18,1,72,PS,intra_train,36,←,left,←,0.49441029998706654,True,15,-,-,-
Y2-S2-159K18,1,73,PS,exp,25,↑,up,↑,0.5346478000283241,True,10,0,0,0
Y2-S2-159K18,1,74,PS,exp,27,↓,down,↓,0.660230900044553,True,10,0,0,0
Y2-S2-159K18,1,75,PS,exp,31,→,right,→,0.5615277999895625,True,10,1,0,0
Y2-S2-159K18,1,76,PS,exp,47,↓,down,↓,0.49859690002631396,True,9,1,0,0
Y2-S2-159K18,1,77,PS,exp,32,→,right,→,0.810925199999474,True,9,1,0,0
Y2-S2-159K18,1,78,PS,exp,32,←,left,←,0.5590125999879092,True,9,1,0,0
Y2-S2-159K18,1,79,PS,exp,40,↑,up,↑,0.5606825000140816,True,8,1,0,0
Y2-S2-159K18,1,80,PS,exp,46,←,left,←,0.49448469997150823,True,8,1,0,0
Y2-S2-159K18,1,81,PS,exp,41,→,right,→,0.5376975999679416,True,8,1,0,0
Y2-S2-159K18,1,82,PS,exp,36,↑,up,↑,0.7078928999835625,True,7,1,0,0
Y2-S2-159K18,1,83,PS,exp,35,→,right,→,0.4882264999905601,True,7,1,0,0
Y2-S2-159K18,1,84,PS,exp,28,↓,down,↓,0.5881338000181131,True,7,1,0,0
Y2-S2-159K18,1,85,PS,exp,32,→,right,→,0.5587675000424497,True,6,1,0,0
Y2-S2-159K18,1,86,PS,exp,43,↑,left,←,0.7836680000182241,False,6,-1,1,1
Y2-S2-159K18,1,87,PS,exp,37,→,right,→,0.6059352000011131,True,7,-1,0,1
Y2-S2-159K18,1,88,PS,exp,41,↑,up,↑,0.8233331000083126,True,7,-1,0,1
Y2-S2-159K18,1,89,PS,exp,48,↓,down,↓,0.5505926999612711,True,7,1,1,2
Y2-S2-159K18,1,90,PS,exp,27,↑,up,↑,0.7223313000285998,True,6,1,0,2
Y2-S2-159K18,1,91,PS,exp,45,←,left,←,0.4930355000542477,True,6,1,0,2
Y2-S2-159K18,1,92,PS,exp,28,↑,up,↑,0.5659771999926306,True,6,1,0,2
Y2-S2-159K18,1,93,PS,exp,26,→,right,→,0.6642445000470616,True,5,1,0,2
Y2-S2-159K18,1,94,PS,exp,45,←,left,←,0.5197683000005782,True,5,1,0,2
Y2-S2-159K18,1,95,PS,exp,40,↑,up,↑,0.6388176000327803,True,5,1,0,2
Y2-S2-159K18,1,96,PS,exp,35,↓,right,→,0.7030272000120021,False,4,-1,1,3
Y2-S2-159K18,1,97,PS,exp,26,↑,up,↑,0.7245786999701522,True,5,-1,0,3
Y2-S2-159K18,1,98,PS,exp,25,→,right,→,0.6275560000212863,True,5,-1,0,3
Y2-S2-159K18,1,99,PS,exp,39,←,left,←,0.48756819998379797,True,5,1,1,4
Y2-S2-159K18,1,100,PS,exp,48,→,right,→,0.5997828000108711,True,4,1,0,4
Y2-S2-159K18,1,101,PS,exp,43,←,right,→,0.5687220999971032,False,4,-1,1,5
Y2-S2-159K18,1,102,PS,exp,43,→,right,→,0.5241983999731019,True,5,-1,0,5
Y2-S2-159K18,1,103,PS,exp,49,←,left,←,0.5570251999888569,True,5,-1,0,5
Y2-S2-159K18,1,104,PS,exp,47,→,left,←,0.7511745999800041,False,5,-1,0,5
Y2-S2-159K18,1,105,PS,exp,40,←,left,←,0.7179241999983788,True,6,-1,0,5
Y2-S2-159K18,1,106,PS,exp,39,↓,left,←,0.6459513999870978,False,6,-1,0,5
Y2-S2-159K18,1,107,PS,exp,48,→,left,←,1.4507148999837227,False,7,-1,0,5
Y2-S2-159K18,1,108,PS,exp,27,←,left,←,0.6878764000139199,True,8,-1,0,5
Y2-S2-159K18,1,109,PS,exp,25,↓,right,→,0.9071769999573007,False,8,-1,0,5
Y2-S2-159K18,1,110,PS,exp,30,→,right,→,0.6302061000023969,True,9,-1,0,5
Y2-S2-159K18,1,111,PS,exp,33,↑,up,↑,0.8053419000352733,True,9,-1,0,5
Y2-S2-159K18,1,112,PS,exp,41,←,left,←,0.525205800018739,True,9,1,1,6
Y2-S2-159K18,1,113,PS,exp,43,↓,down,↓,0.7235913000185974,True,8,1,0,6
Y2-S2-159K18,1,114,PS,exp,43,←,left,←,0.52145440003369,True,8,1,0,6
Y2-S2-159K18,1,115,PS,exp,44,↓,down,↓,0.5817120999563485,True,8,1,0,6
Y2-S2-159K18,1,116,PS,exp,48,←,left,←,0.4840577999711968,True,7,1,0,6
Y2-S2-159K18,1,117,PS,exp,27,↑,up,↑,0.5258681999985129,True,7,1,0,6
Y2-S2-159K18,1,118,PS,exp,35,↓,left,←,0.6093745999969542,False,7,-1,1,7
Y2-S2-159K18,1,119,PS,exp,34,→,right,→,0.5891246999963187,True,8,-1,0,7
Y2-S2-159K18,1,120,PS,exp,49,←,left,←,0.8729245000286028,True,8,-1,0,7
Y2-S2-159K18,1,121,PS,exp,27,↓,up,↑,0.8540630000061356,False,8,-1,0,7
Y2-S2-159K18,1,122,PS,exp,27,↑,up,↑,0.548678099992685,True,9,-1,0,7
Y2-S2-159K18,1,123,PS,exp,35,↓,down,↓,0.5519212000072002,True,9,-1,0,7
Y2-S2-159K18,1,124,PS,exp,46,←,left,←,0.5372764999628998,True,9,1,1,8
Y2-S2-159K18,1,125,PS,exp,46,↓,down,↓,0.5841089999885298,True,8,1,0,8
Y2-S2-159K18,1,126,PS,exp,49,→,left,←,0.7325098000001162,False,8,-1,1,9
Y2-S2-159K18,1,127,PS,exp,33,↑,up,↑,0.6474630000302568,True,9,-1,0,9
Y2-S2-159K18,1,128,PS,exp,41,→,right,→,0.48225050000473857,True,9,-1,0,9
Y2-S2-159K18,1,129,PS,exp,45,↓,down,↓,0.5952820999664254,True,9,1,1,10
Y2-S2-159K18,1,130,PS,exp,37,→,right,→,0.5417376999976113,True,8,1,0,10
Y2-S2-159K18,1,131,PS,exp,30,←,left,←,0.38629240001318976,True,8,1,0,10
Y2-S2-159K18,1,132,PS,exp,35,→,right,→,0.472192500019446,True,8,1,0,10
Y2-S2-159K18,1,133,PS,exp,33,↓,down,↓,0.5392191999708302,True,7,1,0,10
Y2-S2-159K18,1,134,PS,exp,40,↑,up,↑,1.0114414000418037,True,7,1,0,10
Y2-S2-159K18,1,135,PS,exp,40,←,left,←,0.4662096999818459,True,7,1,0,10
Y2-S2-159K18,1,136,PS,exp,44,→,left,←,0.6879708000342362,False,6,-1,1,11
Y2-S2-159K18,1,137,PS,exp,26,↓,up,↑,1.0796823999844491,False,7,-1,0,11
Y2-S2-159K18,1,138,PS,exp,39,←,left,←,0.45049880002625287,True,8,-1,0,11
Y2-S2-159K18,1,139,PS,exp,50,→,right,→,0.5527998000034131,True,8,-1,0,11
Y2-S2-159K18,1,140,PS,exp,27,↓,right,→,0.8713229999993928,False,8,-1,0,11
Y2-S2-159K18,1,141,PS,exp,39,↑,up,↑,0.44717559998389333,True,9,-1,0,11
Y2-S2-159K18,1,142,PS,exp,47,←,left,←,0.4744652000372298,True,9,-1,0,11
Y2-S2-159K18,1,143,PS,exp,45,→,left,←,0.6236844000522979,False,9,-1,0,11
Y2-S2-159K18,1,144,PS,exp,44,↓,down,↓,0.6129360000486486,True,10,-1,0,11
Y2-S2-159K18,1,145,PS,exp,49,←,left,←,0.44549860002007335,True,10,-1,0,11
Y2-S2-159K18,1,146,PS,exp,39,↓,down,↓,0.5261029000394046,True,10,1,1,12
Y2-S2-159K18,1,147,PS,exp,46,←,left,←,0.43271939997794107,True,9,1,0,12
Y2-S2-159K18,1,148,PS,exp,47,→,right,→,0.5041060000075959,True,9,1,0,12
Y2-S2-159K18,1,149,PS,exp,26,←,left,←,0.5132646999554709,True,9,1,0,12
Y2-S2-159K18,1,150,PS,exp,38,→,right,→,0.569548599945847,True,8,1,0,12
Y2-S2-159K18,1,151,PS,exp,42,←,left,←,0.38651280000340194,True,8,1,0,12
Y2-S2-159K18,1,152,PS,exp,26,↑,up,↑,0.6974638000247069,True,8,1,0,12
Y2-S2-159K18,1,153,PS,exp,48,↓,down,↓,0.4379306999617256,True,7,1,0,12
Y2-S2-159K18,1,154,PS,exp,50,←,right,→,0.4122292999527417,False,7,-1,1,13
Y2-S2-159K18,1,155,PS,exp,27,↓,down,↓,0.6287253000191413,True,8,-1,0,13
Y2-S2-159K18,1,156,PS,exp,47,←,left,←,0.5452609999920242,True,8,-1,0,13
Y2-S2-159K18,1,157,PS,exp,40,→,right,→,0.6045238000224344,True,8,1,1,14
Y2-S2-159K18,1,158,PS,exp,33,↑,up,↑,0.6367396999849007,True,7,1,0,14
Y2-S2-159K18,1,159,PS,exp,49,↓,left,←,0.4890422999742441,False,7,-1,1,15
Y2-S2-159K18,1,160,PS,exp,36,↑,up,↑,0.5257090999512002,True,8,-1,0,15
Y2-S2-159K18,1,161,PS,exp,48,→,right,→,0.47304089996032417,True,8,-1,0,15
Y2-S2-159K18,1,162,PS,exp,31,↑,up,↑,0.6109665000112727,True,8,1,1,16
Y2-S2-159K18,2,163,AS,intra_train,33,↓,down,↓,0.6666740999789909,True,24,-,-,-
Y2-S2-159K18,2,164,AS,intra_train,29,↑,up,↑,0.6030834999983199,True,24,-,-,-
Y2-S2-159K18,2,165,AS,intra_train,47,←,left,←,0.48402279999572784,True,24,-,-,-
Y2-S2-159K18,2,166,AS,intra_train,33,↓,right,→,0.5845912000513636,False,24,-,-,-
Y2-S2-159K18,2,167,AS,intra_train,32,←,left,←,0.6197114000096917,True,24,-,-,-
Y2-S2-159K18,2,168,AS,exp,39,↑,up,↑,0.6127894000383094,True,16,0,0,0
Y2-S2-159K18,2,169,AS,exp,50,↓,down,↓,0.5320733999833465,True,16,0,0,0
Y2-S2-159K18,2,170,AS,exp,34,←,left,←,0.6366382999694906,True,16,1,0,0
Y2-S2-159K18,2,171,AS,exp,29,→,right,→,0.5501538999960758,True,15,1,0,0
Y2-S2-159K18,2,172,AS,exp,40,↑,up,↑,0.5167538999812678,True,15,1,0,0
Y2-S2-159K18,2,173,AS,exp,46,←,left,←,0.681044299970381,True,15,1,0,0
Y2-S2-159K18,2,174,AS,exp,42,→,left,←,0.6843209999497049,False,14,-1,1,1
Y2-S2-159K18,2,175,AS,exp,48,←,left,←,0.6454745999653824,True,15,-1,0,1
Y2-S2-159K18,2,176,AS,exp,41,→,right,→,0.586527000006754,True,15,-1,0,1
Y2-S2-159K18,2,177,AS,exp,28,↑,up,↑,0.7066284000175074,True,15,1,1,2
Y2-S2-159K18,2,178,AS,exp,35,→,right,→,0.6159613000345416,True,14,1,0,2
Y2-S2-159K18,2,179,AS,exp,48,↑,up,↑,1.3624426000169478,True,14,1,0,2
Y2-S2-159K18,2,180,AS,exp,28,↓,right,→,1.0118543999851681,False,14,-1,1,3
Y2-S2-159K18,2,181,AS,exp,37,→,right,→,0.7399164999951608,True,15,-1,0,3
Y2-S2-159K18,2,182,AS,exp,41,←,left,←,0.721504199958872,True,15,-1,0,3
Y2-S2-159K18,2,183,AS,exp,37,→,right,→,0.579392799991183,True,15,1,1,4
Y2-S2-159K18,2,184,AS,exp,49,←,left,←,0.5801981000113301,True,14,1,0,4
Y2-S2-159K18,2,185,AS,exp,45,↓,down,↓,0.7495838000322692,True,14,1,0,4
Y2-S2-159K18,2,186,AS,exp,27,↑,up,↑,0.7208011000184342,True,14,1,0,4
Y2-S2-159K18,2,187,AS,exp,49,←,left,←,0.5369550000177696,True,13,1,0,4
Y2-S2-159K18,2,188,AS,exp,38,→,right,→,0.609201800019946,True,13,1,0,4
Y2-S2-159K18,2,189,AS,exp,35,←,left,←,0.5713061999995261,True,13,1,0,4
Y2-S2-159K18,2,190,AS,exp,47,↑,up,↑,0.7535691999946721,True,12,1,0,4
Y2-S2-159K18,2,191,AS,exp,40,→,right,→,0.6350750999990851,True,12,1,0,4
Y2-S2-159K18,2,192,AS,exp,50,↓,up,↑,0.8781037000007927,False,12,-1,1,5
Y2-S2-159K18,2,193,AS,exp,49,←,left,←,0.5463944000075571,True,13,-1,0,5
Y2-S2-159K18,2,194,AS,exp,37,↑,up,↑,0.7855446999892592,True,13,-1,0,5
Y2-S2-159K18,2,195,AS,exp,41,↓,down,↓,0.691279599966947,True,13,1,1,6
Y2-S2-159K18,2,196,AS,exp,47,↑,up,↑,0.6291818000026979,True,12,1,0,6
Y2-S2-159K18,2,197,AS,exp,37,↓,down,↓,0.6683337000431493,True,12,1,0,6
Y2-S2-159K18,2,198,AS,exp,30,↑,up,↑,0.597780900017824,True,12,1,0,6
Y2-S2-159K18,2,199,AS,exp,48,↓,up,↑,0.8507329000276513,False,11,-1,1,7
Y2-S2-159K18,2,200,AS,exp,49,←,right,→,0.6507243000087328,False,12,-1,0,7
Y2-S2-159K18,2,201,AS,exp,46,↓,up,↑,0.6999342999770306,False,13,-1,0,7
Y2-S2-159K18,2,202,AS,exp,45,→,right,→,0.6810705999960192,True,14,-1,0,7
Y2-S2-159K18,2,203,AS,exp,45,↑,up,↑,0.6531926000025123,True,14,-1,0,7
Y2-S2-159K18,2,204,AS,exp,44,↓,up,↑,1.065812599961646,False,14,-1,0,7
Y2-S2-159K18,2,205,AS,exp,25,→,right,→,0.9794224000070244,True,15,-1,0,7
Y2-S2-159K18,2,206,AS,exp,49,←,left,←,0.626178499951493,True,15,-1,0,7
Y2-S2-159K18,2,207,AS,exp,38,↓,down,↓,0.6133182000485249,True,15,1,1,8
Y2-S2-159K18,2,208,AS,exp,26,↑,up,↑,0.6679959999746643,True,14,1,0,8
Y2-S2-159K18,2,209,AS,exp,49,←,right,→,0.5694316999870352,False,14,-1,1,9
Y2-S2-159K18,2,210,AS,exp,25,→,left,←,0.6651562000042759,False,15,-1,0,9
Y2-S2-159K18,2,211,AS,exp,41,↑,up,↑,0.6450534000177868,True,16,-1,0,9
Y2-S2-159K18,2,212,AS,exp,49,←,left,←,0.6037775000440888,True,16,-1,0,9
Y2-S2-159K18,2,213,AS,exp,29,↓,up,↑,0.6730569000355899,False,16,-1,0,9
Y2-S2-159K18,2,214,AS,exp,50,↑,up,↑,0.5839145999634638,True,17,-1,0,9
Y2-S2-159K18,2,215,AS,exp,36,←,left,←,0.5278702999930829,True,17,-1,0,9
Y2-S2-159K18,2,216,AS,exp,36,↓,down,↓,0.6469168999465182,True,17,1,1,10
Y2-S2-159K18,2,217,AS,exp,50,↑,up,↑,0.6003349000238813,True,16,1,0,10
Y2-S2-159K18,2,218,AS,exp,40,←,left,←,0.5199860000284389,True,16,1,0,10
Y2-S2-159K18,2,219,AS,exp,50,→,right,→,0.6864157999516465,True,16,1,0,10
Y2-S2-159K18,2,220,AS,exp,49,←,left,←,0.5881194999674335,True,15,1,0,10
Y2-S2-159K18,2,221,AS,exp,32,↓,down,↓,0.6821904000244103,True,15,1,0,10
Y2-S2-159K18,2,222,AS,exp,41,→,right,→,0.714697299990803,True,15,1,0,10
Y2-S2-159K18,2,223,AS,exp,46,←,left,←,0.6843301000189967,True,14,1,0,10
Y2-S2-159K18,2,224,AS,exp,28,↑,up,↑,0.5640758000081405,True,14,1,0,10
Y2-S2-159K18,2,225,AS,exp,43,↓,up,↑,0.5101355999941006,False,14,-1,1,11
Y2-S2-159K18,2,226,AS,exp,45,→,right,→,0.6304071000195108,True,15,-1,0,11
Y2-S2-159K18,2,227,AS,exp,28,↑,up,↑,0.5797813999815844,True,15,-1,0,11
Y2-S2-159K18,2,228,AS,exp,49,→,right,→,0.7206627000123262,True,15,1,1,12
Y2-S2-159K18,2,229,AS,exp,27,←,left,←,0.7443196999956854,True,14,1,0,12
Y2-S2-159K18,2,230,AS,exp,38,→,right,→,0.5562021000077948,True,14,1,0,12
Y2-S2-159K18,2,231,AS,exp,36,↓,up,↑,0.5687258000252768,False,14,-1,1,13
Y2-S2-159K18,2,232,AS,exp,48,↑,up,↑,0.8252809000550769,True,15,-1,0,13
Y2-S2-159K18,2,233,AS,exp,44,→,right,→,0.5920405999640934,True,15,-1,0,13
Y2-S2-159K18,2,234,AS,exp,35,↑,up,↑,0.5882480000145733,True,15,1,1,14
Y2-S2-159K18,2,235,AS,exp,36,↓,up,↑,0.9305043999920599,False,14,-1,1,15
Y2-S2-159K18,2,236,AS,exp,40,→,right,→,0.7460396999958903,True,15,-1,0,15
Y2-S2-159K18,2,237,AS,exp,44,←,left,←,0.6569502999773249,True,15,-1,0,15
Y2-S2-159K18,2,238,AS,exp,43,→,right,→,0.5883817000431009,True,15,1,1,16
Y2-S2-159K18,3,239,AS,intra_train,41,↓,down,↓,0.670328599982895,True,24,-,-,-
Y2-S2-159K18,3,240,AS,intra_train,37,→,right,→,1.194306199962739,True,24,-,-,-
Y2-S2-159K18,3,241,AS,intra_train,34,↑,up,↑,0.6962965999846347,True,24,-,-,-
Y2-S2-159K18,3,242,AS,intra_train,47,←,right,→,0.5775398000259884,False,24,-,-,-
Y2-S2-159K18,3,243,AS,intra_train,38,→,right,→,1.0644177999929525,True,24,-,-,-
Y2-S2-159K18,3,244,AS,exp,29,↓,down,↓,0.5764818000025116,True,16,0,0,0
Y2-S2-159K18,3,245,AS,exp,35,←,left,←,0.6178325000219047,True,16,0,0,0
Y2-S2-159K18,3,246,AS,exp,37,↓,down,↓,0.555604699999094,True,16,1,0,0
Y2-S2-159K18,3,247,AS,exp,41,↑,up,↑,0.5092594000161625,True,15,1,0,0
Y2-S2-159K18,3,248,AS,exp,46,←,left,←,0.47799420001683757,True,15,1,0,0
Y2-S2-159K18,3,249,AS,exp,50,↑,up,↑,0.5890980000258423,True,15,1,0,0
Y2-S2-159K18,3,250,AS,exp,26,←,left,←,0.7208578999852762,True,14,1,0,0
Y2-S2-159K18,3,251,AS,exp,30,↓,up,↑,0.6784307999769226,False,14,-1,1,1
Y2-S2-159K18,3,252,AS,exp,45,↑,up,↑,0.6098186000017449,True,15,-1,0,1
Y2-S2-159K18,3,253,AS,exp,29,←,left,←,0.4935181000037119,True,15,-1,0,1
Y2-S2-159K18,3,254,AS,exp,34,→,right,→,0.6417815000168048,True,15,1,1,2
Y2-S2-159K18,3,255,AS,exp,48,←,left,←,0.6221734999562614,True,14,1,0,2
Y2-S2-159K18,3,256,AS,exp,37,↓,down,↓,0.6554894999717362,True,14,1,0,2
Y2-S2-159K18,3,257,AS,exp,42,←,left,←,0.5641693000216037,True,14,1,0,2
Y2-S2-159K18,3,258,AS,exp,27,↑,right,→,0.5882062999880873,False,13,-1,1,3
Y2-S2-159K18,3,259,AS,exp,27,↓,down,↓,0.6947632000083104,True,14,-1,0,3
Y2-S2-159K18,3,260,AS,exp,47,→,right,→,0.5978359999717213,True,14,-1,0,3
Y2-S2-159K18,3,261,AS,exp,34,←,left,←,0.5758258000132628,True,14,1,1,4
Y2-S2-159K18,3,262,AS,exp,34,↑,up,↑,0.7153597000287846,True,13,1,0,4
Y2-S2-159K18,3,263,AS,exp,39,←,right,→,0.5670081000425853,False,13,-1,1,5
Y2-S2-159K18,3,264,AS,exp,47,↓,down,↓,0.646601999993436,True,14,-1,0,5
Y2-S2-159K18,3,265,AS,exp,38,→,right,→,0.6501318999798968,True,14,-1,0,5
Y2-S2-159K18,3,266,AS,exp,48,←,left,←,0.5822464000084437,True,14,1,1,6
Y2-S2-159K18,3,267,AS,exp,47,↑,up,↑,1.087149600032717,True,13,1,0,6
Y2-S2-159K18,3,268,AS,exp,50,↓,left,←,0.7557732000132091,False,13,-1,1,7
Y2-S2-159K18,3,269,AS,exp,44,↑,left,←,0.8671029999968596,False,14,-1,0,7
Y2-S2-159K18,3,270,AS,exp,28,↓,down,↓,0.6604792999569327,True,15,-1,0,7
Y2-S2-159K18,3,271,AS,exp,28,↑,up,↑,0.7380724000395276,True,15,-1,0,7
Y2-S2-159K18,3,272,AS,exp,26,→,right,→,0.7257988000055775,True,15,1,1,8
Y2-S2-159K18,3,273,AS,exp,31,↓,down,↓,0.5208256999612786,True,14,1,0,8
Y2-S2-159K18,3,274,AS,exp,25,←,left,←,0.6232233000337146,True,14,1,0,8
Y2-S2-159K18,3,275,AS,exp,44,→,right,→,0.6304855000344105,True,14,1,0,8
Y2-S2-159K18,3,276,AS,exp,48,↓,down,↓,0.5340637000044808,True,13,1,0,8
Y2-S2-159K18,3,277,AS,exp,30,→,right,→,0.6618173000169918,True,13,1,0,8
Y2-S2-159K18,3,278,AS,exp,25,←,left,←,0.7729268999537453,True,13,1,0,8
Y2-S2-159K18,3,279,AS,exp,33,→,left,←,0.5493100000312552,False,12,-1,1,9
Y2-S2-159K18,3,280,AS,exp,50,↑,up,↑,0.7101118999999017,True,13,-1,0,9
Y2-S2-159K18,3,281,AS,exp,46,←,right,→,0.5427548000006936,False,13,-1,0,9
Y2-S2-159K18,3,282,AS,exp,41,→,right,→,0.6665483000106178,True,14,-1,0,9
Y2-S2-159K18,3,283,AS,exp,38,↓,down,↓,0.5590589000494219,True,14,-1,0,9
Y2-S2-159K18,3,284,AS,exp,48,↑,up,↑,1.0179793999996036,True,14,1,1,10
Y2-S2-159K18,3,285,AS,exp,39,←,left,←,0.7020595999783836,True,13,1,0,10
Y2-S2-159K18,3,286,AS,exp,42,↓,up,↑,0.7758161000092514,False,13,-1,1,11
Y2-S2-159K18,3,287,AS,exp,46,←,right,→,0.7648783999611624,False,14,-1,0,11
Y2-S2-159K18,3,288,AS,exp,40,→,right,→,0.6299396999529563,True,15,-1,0,11
Y2-S2-159K18,3,289,AS,exp,39,↓,down,↓,0.6792831000057049,True,15,-1,0,11
Y2-S2-159K18,3,290,AS,exp,50,←,left,←,0.6891269000479952,True,15,1,1,12
Y2-S2-159K18,3,291,AS,exp,32,↑,up,↑,0.6759911999688484,True,14,1,0,12
Y2-S2-159K18,3,292,AS,exp,39,→,right,→,0.4864201999735087,True,14,1,0,12
Y2-S2-159K18,3,293,AS,exp,37,←,left,←,0.608651100017596,True,14,1,0,12
Y2-S2-159K18,3,294,AS,exp,41,↓,up,↑,0.730312000028789,False,13,-1,1,13
Y2-S2-159K18,3,295,AS,exp,25,↑,up,↑,0.7536640000180341,True,14,-1,0,13
Y2-S2-159K18,3,296,AS,exp,43,←,left,←,0.529846599965822,True,14,-1,0,13
Y2-S2-159K18,3,297,AS,exp,46,→,right,→,0.8318189999554306,True,14,1,1,14
Y2-S2-159K18,3,298,AS,exp,46,←,right,→,0.7091524000279605,False,13,-1,1,15
Y2-S2-159K18,3,299,AS,exp,27,↓,down,↓,0.6930861999862827,True,14,-1,0,15
Y2-S2-159K18,3,300,AS,exp,30,↑,up,↑,0.8303007999784313,True,14,-1,0,15
Y2-S2-159K18,3,301,AS,exp,40,↓,down,↓,0.5085487000178546,True,14,1,1,16
Y2-S2-159K18,4,302,PS,intra_train,31,↑,up,↑,0.7493329000426456,True,15,-,-,-
Y2-S2-159K18,4,303,PS,intra_train,43,→,right,→,0.5639999000122771,True,15,-,-,-
Y2-S2-159K18,4,304,PS,intra_train,36,↑,up,↑,0.6483795000240207,True,15,-,-,-
Y2-S2-159K18,4,305,PS,intra_train,35,→,right,→,0.5467468000133522,True,15,-,-,-
Y2-S2-159K18,4,306,PS,intra_train,39,↓,left,←,0.6313496000366285,False,15,-,-,-
Y2-S2-159K18,4,307,PS,exp,45,←,right,→,0.5584401999949478,False,10,-1,0,0
Y2-S2-159K18,4,308,PS,exp,48,↓,up,↑,0.5856197000248358,False,11,-1,0,0
Y2-S2-159K18,4,309,PS,exp,40,→,right,→,0.479796500003431,True,12,-1,0,0
Y2-S2-159K18,4,310,PS,exp,43,←,left,←,0.4629263000097126,True,12,-1,0,0
Y2-S2-159K18,4,311,PS,exp,31,→,right,→,0.5010990999871865,True,12,1,1,1
Y2-S2-159K18,4,312,PS,exp,29,↑,up,↑,0.6557085000094958,True,11,1,0,1
Y2-S2-159K18,4,313,PS,exp,29,↓,down,↓,0.779266599973198,True,11,1,0,1
Y2-S2-159K18,4,314,PS,exp,39,←,left,←,0.51936559996102,True,11,1,0,1
Y2-S2-159K18,4,315,PS,exp,34,→,right,→,0.5026797999744304,True,10,1,0,1
Y2-S2-159K18,4,316,PS,exp,37,←,right,→,0.5678049999987707,False,10,-1,1,2
Y2-S2-159K18,4,317,PS,exp,47,↓,down,↓,0.555334499978926,True,11,-1,0,2
Y2-S2-159K18,4,318,PS,exp,28,→,right,→,0.4428091000299901,True,11,-1,0,2
Y2-S2-159K18,4,319,PS,exp,28,←,left,←,0.45713970001088455,True,11,1,1,3
Y2-S2-159K18,4,320,PS,exp,40,↑,right,→,0.5608912000316195,False,10,-1,1,4
Y2-S2-159K18,4,321,PS,exp,42,→,right,→,0.5907020000158809,True,11,-1,0,4
Y2-S2-159K18,4,322,PS,exp,38,↑,up,↑,0.7961541999829933,True,11,-1,0,4
Y2-S2-159K18,4,323,PS,exp,39,→,right,→,0.6151556000113487,True,11,1,1,5
Y2-S2-159K18,4,324,PS,exp,27,↓,down,↓,0.5631696000345983,True,10,1,0,5
Y2-S2-159K18,4,325,PS,exp,38,←,left,←,0.9262528999825008,True,10,1,0,5
Y2-S2-159K18,4,326,PS,exp,50,↓,down,↓,0.5434662000043318,True,10,1,0,5
Y2-S2-159K18,4,327,PS,exp,33,↑,up,↑,0.7270424999878742,True,9,1,0,5
Y2-S2-159K18,4,328,PS,exp,27,←,left,←,0.6785541000426747,True,9,1,0,5
Y2-S2-159K18,4,329,PS,exp,35,↑,up,↑,0.6769921000231989,True,9,1,0,5
Y2-S2-159K18,4,330,PS,exp,43,↓,down,↓,0.5669174999929965,True,8,1,0,5
Y2-S2-159K18,4,331,PS,exp,48,↑,left,←,0.5843402000027709,False,8,-1,1,6
Y2-S2-159K18,4,332,PS,exp,46,←,left,←,0.34993799997027963,True,9,-1,0,6
Y2-S2-159K18,4,333,PS,exp,41,↑,up,↑,0.880385699972976,True,9,-1,0,6
Y2-S2-159K18,4,334,PS,exp,28,←,left,←,0.47673969995230436,True,9,1,1,7
Y2-S2-159K18,4,335,PS,exp,39,↑,up,↑,0.7900363999651745,True,8,1,0,7
Y2-S2-159K18,4,336,PS,exp,43,←,left,←,0.5245336000225507,True,8,1,0,7
Y2-S2-159K18,4,337,PS,exp,47,↑,up,↑,0.5469740999978967,True,8,1,0,7
Y2-S2-159K18,4,338,PS,exp,41,→,left,←,0.6022350999992341,False,7,-1,1,8
Y2-S2-159K18,4,339,PS,exp,25,←,left,←,0.49960549996467307,True,8,-1,0,8
Y2-S2-159K18,4,340,PS,exp,38,→,right,→,0.5125019000261091,True,8,-1,0,8
Y2-S2-159K18,4,341,PS,exp,36,↓,down,↓,0.5117548999842256,True,8,1,1,9
Y2-S2-159K18,4,342,PS,exp,25,↑,up,↑,0.899778300023172,True,7,1,0,9
Y2-S2-159K18,4,343,PS,exp,50,→,right,→,0.43231980002019554,True,7,1,0,9
Y2-S2-159K18,4,344,PS,exp,42,←,right,→,0.6775047000264749,False,7,-1,1,10
Y2-S2-159K18,4,345,PS,exp,26,→,right,→,0.6221980999689549,True,8,-1,0,10
Y2-S2-159K18,4,346,PS,exp,25,↓,down,↓,0.5918383999960497,True,8,-1,0,10
Y2-S2-159K18,4,347,PS,exp,38,→,right,→,0.4508391000563279,True,8,1,1,11
Y2-S2-159K18,4,348,PS,exp,45,↓,right,→,0.8378069000318646,False,7,-1,1,12
Y2-S2-159K18,4,349,PS,exp,41,↑,right,→,0.5639637000276707,False,8,-1,0,12
Y2-S2-159K18,4,350,PS,exp,41,↓,down,↓,0.6043192999786697,True,9,-1,0,12
Y2-S2-159K18,4,351,PS,exp,43,←,left,←,0.45677719998639077,True,9,-1,0,12
Y2-S2-159K18,4,352,PS,exp,36,→,right,→,0.5010639000101946,True,9,1,1,13
Y2-S2-159K18,4,353,PS,exp,48,↓,down,↓,0.47579170000972226,True,8,1,0,13
Y2-S2-159K18,4,354,PS,exp,42,↑,down,↓,0.709211699955631,False,8,-1,1,14
Y2-S2-159K18,4,355,PS,exp,40,→,right,→,0.48558060004143044,True,9,-1,0,14
Y2-S2-159K18,4,356,PS,exp,44,↑,up,↑,0.9028496999526396,True,9,-1,0,14
Y2-S2-159K18,4,357,PS,exp,43,→,left,←,0.7076778000337072,False,9,-1,0,14
Y2-S2-159K18,4,358,PS,exp,26,←,left,←,0.5341567999566905,True,10,-1,0,14
Y2-S2-159K18,4,359,PS,exp,31,↓,down,↓,0.6134339999989606,True,10,-1,0,14
Y2-S2-159K18,4,360,PS,exp,45,↑,up,↑,0.729634499992244,True,10,1,1,15
Y2-S2-159K18,4,361,PS,exp,46,→,right,→,0.5144839000422508,True,9,1,0,15
Y2-S2-159K18,4,362,PS,exp,44,↑,up,↑,0.630754399986472,True,9,1,0,15
Y2-S2-159K18,4,363,PS,exp,50,↓,up,↑,0.5779541999800131,False,9,-1,1,16
Y2-S2-159K18,5,364,PS,intra_train,47,↑,up,↑,0.579299200035166,True,15,-,-,-
Y2-S2-159K18,5,365,PS,intra_train,49,↓,down,↓,0.4557037999620661,True,15,-,-,-
Y2-S2-159K18,5,366,PS,intra_train,44,←,left,←,0.5584581999573857,True,15,-,-,-
Y2-S2-159K18,5,367,PS,intra_train,46,↓,down,↓,0.4987583999754861,True,15,-,-,-
Y2-S2-159K18,5,368,PS,intra_train,44,↑,up,↑,0.5335921000223607,True,15,-,-,-
Y2-S2-159K18,5,369,PS,exp,25,↓,down,↓,0.5645611000363715,True,10,0,0,0
Y2-S2-159K18,5,370,PS,exp,32,→,right,→,0.5970341999782249,True,10,0,0,0
Y2-S2-159K18,5,371,PS,exp,25,↓,right,→,0.7246331000351347,False,10,-1,0,0
Y2-S2-159K18,5,372,PS,exp,27,→,right,→,0.6131131000001915,True,11,-1,0,0
Y2-S2-159K18,5,373,PS,exp,30,↓,down,↓,0.6109717999934219,True,11,-1,0,0
Y2-S2-159K18,5,374,PS,exp,42,←,right,→,0.5985931000323035,False,11,-1,0,0
Y2-S2-159K18,5,375,PS,exp,45,↓,left,←,0.4852978000417352,False,12,-1,0,0
Y2-S2-159K18,5,376,PS,exp,41,←,down,↓,0.45188850001432,False,13,-1,0,0
Y2-S2-159K18,5,377,PS,exp,39,↑,up,↑,0.7696049000369385,True,14,-1,0,0
Y2-S2-159K18,5,378,PS,exp,36,↓,down,↓,0.5813451999565586,True,14,-1,0,0
Y2-S2-159K18,5,379,PS,exp,27,←,left,←,0.42530770000303164,True,14,1,1,1
Y2-S2-159K18,5,380,PS,exp,33,↓,down,↓,0.48874149995390326,True,13,1,0,1
Y2-S2-159K18,5,381,PS,exp,32,→,left,←,0.549377600022126,False,13,-1,1,2
Y2-S2-159K18,5,382,PS,exp,42,↓,down,↓,0.49884160002693534,True,14,-1,0,2
Y2-S2-159K18,5,383,PS,exp,50,↑,up,↑,0.506809999991674,True,14,-1,0,2
Y2-S2-159K18,5,384,PS,exp,42,↓,down,↓,0.5046768999891356,True,14,1,1,3
Y2-S2-159K18,5,385,PS,exp,45,←,left,←,0.4931802000501193,True,13,1,0,3
Y2-S2-159K18,5,386,PS,exp,26,→,right,→,0.6625749000231735,True,13,1,0,3
Y2-S2-159K18,5,387,PS,exp,41,↓,down,↓,0.5046161999925971,True,13,1,0,3
Y2-S2-159K18,5,388,PS,exp,27,→,right,→,0.5979820999782532,True,12,1,0,3
Y2-S2-159K18,5,389,PS,exp,34,←,left,←,0.5625112999696285,True,12,1,0,3
Y2-S2-159K18,5,390,PS,exp,37,↓,down,↓,0.5644177999929525,True,12,1,0,3
Y2-S2-159K18,5,391,PS,exp,50,↑,up,↑,0.6978558000409976,True,11,1,0,3
Y2-S2-159K18,5,392,PS,exp,49,←,left,←,0.4996871000039391,True,11,1,0,3
Y2-S2-159K18,5,393,PS,exp,46,↑,up,↑,0.6937284999876283,True,11,1,0,3
Y2-S2-159K18,5,394,PS,exp,47,↓,down,↓,0.5441085000056773,True,10,1,0,3
Y2-S2-159K18,5,395,PS,exp,35,→,left,←,0.5088175000273623,False,10,-1,1,4
Y2-S2-159K18,5,396,PS,exp,46,↓,down,↓,0.5056085999822244,True,11,-1,0,4
Y2-S2-159K18,5,397,PS,exp,32,↑,up,↑,0.6966794999898411,True,11,-1,0,4
Y2-S2-159K18,5,398,PS,exp,50,↓,down,↓,0.5005460999673232,True,11,1,1,5
Y2-S2-159K18,5,399,PS,exp,46,←,left,←,0.49133819999406114,True,10,1,0,5
Y2-S2-159K18,5,400,PS,exp,46,→,right,→,0.7998667000210844,True,10,1,0,5
Y2-S2-159K18,5,401,PS,exp,46,↓,down,↓,0.5566560999723151,True,10,1,0,5
Y2-S2-159K18,5,402,PS,exp,42,↑,up,↑,0.5633283000206575,True,9,1,0,5
Y2-S2-159K18,5,403,PS,exp,50,→,right,→,0.649614299996756,True,9,1,0,5
Y2-S2-159K18,5,404,PS,exp,48,↑,left,←,0.6743798999814317,False,9,-1,1,6
Y2-S2-159K18,5,405,PS,exp,44,↓,right,→,1.0015734999906272,False,10,-1,0,6
Y2-S2-159K18,5,406,PS,exp,50,←,left,←,0.44519470003433526,True,11,-1,0,6
Y2-S2-159K18,5,407,PS,exp,37,→,right,→,0.4691533999866806,True,11,-1,0,6
Y2-S2-159K18,5,408,PS,exp,48,↑,up,↑,0.4837249999982305,True,11,1,1,7
Y2-S2-159K18,5,409,PS,exp,33,↓,down,↓,0.5005722999922,True,10,1,0,7
Y2-S2-159K18,5,410,PS,exp,42,←,left,←,0.43178689997876063,True,10,1,0,7
Y2-S2-159K18,5,411,PS,exp,43,↓,down,↓,0.5798957999795675,True,10,1,0,7
Y2-S2-159K18,5,412,PS,exp,43,↑,up,↑,0.8123341000173241,True,9,1,0,7
Y2-S2-159K18,5,413,PS,exp,27,↓,down,↓,0.4982401999877766,True,9,1,0,7
Y2-S2-159K18,5,414,PS,exp,41,→,right,→,0.786912499985192,True,9,1,0,7
Y2-S2-159K18,5,415,PS,exp,40,↓,down,↓,0.4762654000078328,True,8,1,0,7
Y2-S2-159K18,5,416,PS,exp,44,↑,up,↑,0.8188649999792688,True,8,1,0,7
Y2-S2-159K18,5,417,PS,exp,47,→,right,→,0.5468426999868825,True,8,1,0,7
Y2-S2-159K18,5,418,PS,exp,29,↓,left,←,0.5673499999684282,False,7,-1,1,8
Y2-S2-159K18,5,419,PS,exp,33,↑,up,↑,0.48562729998957366,True,8,-1,0,8
Y2-S2-159K18,5,420,PS,exp,36,←,left,←,0.47491499996976927,True,8,-1,0,8
Y2-S2-159K18,5,421,PS,exp,37,↑,up,↑,0.6149622999946587,True,8,1,1,9
Y2-S2-159K18,5,422,PS,exp,26,→,right,→,0.508438799995929,True,7,1,0,9
Y2-S2-159K18,5,423,PS,exp,49,↑,left,←,0.3664085000054911,False,7,-1,1,10
Y2-S2-159K18,5,424,PS,exp,39,↓,down,↓,0.5429961999761872,True,8,-1,0,10
Y2-S2-159K18,5,425,PS,exp,29,↑,right,→,0.7013644999824464,False,8,-1,0,10
Y2-S2-159K18,5,426,PS,exp,33,↓,down,↓,0.5386421000002883,True,9,-1,0,10
Y2-S2-159K18,5,427,PS,exp,38,→,right,→,0.6121861999854445,True,9,-1,0,10
Y2-S2-159K18,5,428,PS,exp,31,↑,up,↑,0.5572665000217967,True,9,1,1,11
Y2-S2-159K18,5,429,PS,exp,28,←,left,←,0.4708944999729283,True,8,1,0,11
Y2-S2-159K18,5,430,PS,exp,44,↓,down,↓,0.4942422000458464,True,8,1,0,11
Y2-S2-159K18,5,431,PS,exp,29,→,left,←,0.7062754000071436,False,8,-1,1,12
Y2-S2-159K18,5,432,PS,exp,28,↓,down,↓,0.5470312000252306,True,9,-1,0,12
Y2-S2-159K18,5,433,PS,exp,44,↑,up,↑,0.5601036000298336,True,9,-1,0,12
Y2-S2-159K18,5,434,PS,exp,26,←,right,→,0.6071262000477873,False,9,-1,0,12
Y2-S2-159K18,5,435,PS,exp,49,→,down,↓,0.6154030000325292,False,10,-1,0,12
Y2-S2-159K18,5,436,PS,exp,32,↓,down,↓,0.5019255999941379,True,11,-1,0,12
Y2-S2-159K18,5,437,PS,exp,32,↑,up,↑,0.6310626000049524,True,11,-1,0,12
Y2-S2-159K18,5,438,PS,exp,43,↓,down,↓,0.5875974999507889,True,11,1,1,13
Y2-S2-159K18,5,439,PS,exp,48,←,left,←,0.4256279999972321,True,10,1,0,13
Y2-S2-159K18,5,440,PS,exp,32,↓,up,↑,0.5842128999647684,False,10,-1,1,14
Y2-S2-159K18,5,441,PS,exp,36,→,right,→,0.5276915000285953,True,11,-1,0,14
Y2-S2-159K18,5,442,PS,exp,44,↓,down,↓,0.5976977000245824,True,11,-1,0,14
Y2-S2-159K18,5,443,PS,exp,29,↑,left,←,0.8508456000126898,False,11,-1,0,14
Y2-S2-159K18,5,444,PS,exp,48,←,left,←,0.43035169999348,True,12,-1,0,14
Y2-S2-159K18,5,445,PS,exp,31,→,right,→,0.6127707000123337,True,12,-1,0,14
Y2-S2-159K18,5,446,PS,exp,29,↑,up,↑,0.5474818000220694,True,12,1,1,15
Y2-S2-159K18,5,447,PS,exp,43,←,left,←,0.3813750999979675,True,11,1,0,15
Y2-S2-159K18,5,448,PS,exp,39,→,right,→,0.477340399986133,True,11,1,0,15
Y2-S2-159K18,5,449,PS,exp,35,↑,up,↑,0.46772959997178987,True,11,1,0,15
Y2-S2-159K18,5,450,PS,exp,40,→,right,→,0.6397744999849238,True,10,1,0,15
Y2-S2-159K18,5,451,PS,exp,35,↑,up,↑,0.5192349000135437,True,10,1,0,15
Y2-S2-159K18,5,452,PS,exp,29,←,right,→,0.767095800023526,False,10,-1,1,16
Y2-S2-159K18,6,453,AS,intra_train,38,→,right,→,0.5170516000362113,True,24,-,-,-
Y2-S2-159K18,6,454,AS,intra_train,40,↓,down,↓,1.3191301000188105,True,24,-,-,-
Y2-S2-159K18,6,455,AS,intra_train,45,→,right,→,0.5335391999688,True,24,-,-,-
Y2-S2-159K18,6,456,AS,intra_train,26,←,left,←,0.6745448000147007,True,24,-,-,-
Y2-S2-159K18,6,457,AS,intra_train,50,↓,down,↓,0.7570929999928921,True,24,-,-,-
Y2-S2-159K18,6,458,AS,exp,39,←,left,←,0.5089108999818563,True,16,0,0,0
Y2-S2-159K18,6,459,AS,exp,33,↓,down,↓,0.5674436999834143,True,16,0,0,0
Y2-S2-159K18,6,460,AS,exp,33,←,no_key,no_letter,-1.0,False,16,-1,0,0
Y2-S2-159K18,6,461,AS,exp,37,↓,left,←,0.8301594000076875,False,17,-1,0,0
Y2-S2-159K18,6,462,AS,exp,46,←,left,←,0.43358519999310374,True,18,-1,0,0
Y2-S2-159K18,6,463,AS,exp,31,→,left,←,0.7502525000018068,False,18,-1,0,0
Y2-S2-159K18,6,464,AS,exp,45,↑,up,↑,0.6601724000065587,True,19,-1,0,0
Y2-S2-159K18,6,465,AS,exp,39,↓,down,↓,0.7466264000395313,True,19,-1,0,0
Y2-S2-159K18,6,466,AS,exp,26,→,left,←,0.6237355000339448,False,19,-1,0,0
Y2-S2-159K18,6,467,AS,exp,38,←,left,←,0.5540126000414602,True,20,-1,0,0
Y2-S2-159K18,6,468,AS,exp,46,↓,down,↓,0.6284621999948286,True,20,-1,0,0
Y2-S2-159K18,6,469,AS,exp,28,→,right,→,0.6074576000100933,True,20,1,1,1
Y2-S2-159K18,6,470,AS,exp,48,↓,down,↓,0.4989111000322737,True,19,1,0,1
Y2-S2-159K18,6,471,AS,exp,25,→,right,→,0.6925946999690495,True,19,1,0,1
Y2-S2-159K18,6,472,AS,exp,32,←,left,←,0.48783060000278056,True,19,1,0,1
Y2-S2-159K18,6,473,AS,exp,44,↑,up,↑,0.7943992000073195,True,18,1,0,1
Y2-S2-159K18,6,474,AS,exp,30,↓,down,↓,0.7091012999881059,True,18,1,0,1
Y2-S2-159K18,6,475,AS,exp,37,→,right,→,0.5251144000212662,True,18,1,0,1
Y2-S2-159K18,6,476,AS,exp,48,←,left,←,0.6031715999706648,True,17,1,0,1
Y2-S2-159K18,6,477,AS,exp,31,↓,down,↓,0.8044692000257783,True,17,1,0,1
Y2-S2-159K18,6,478,AS,exp,26,←,left,←,0.4554358000168577,True,17,1,0,1
Y2-S2-159K18,6,479,AS,exp,48,↑,up,↑,0.6537472000345588,True,16,1,0,1
Y2-S2-159K18,6,480,AS,exp,45,→,right,→,0.554999099986162,True,16,1,0,1
Y2-S2-159K18,6,481,AS,exp,33,←,left,←,0.6309151999885216,True,16,1,0,1
Y2-S2-159K18,6,482,AS,exp,46,↓,down,↓,0.6777449999935925,True,15,1,0,1
Y2-S2-159K18,6,483,AS,exp,45,→,left,←,0.823924700031057,False,15,-1,1,2
Y2-S2-159K18,6,484,AS,exp,37,←,left,←,0.4922774000442587,True,16,-1,0,2
Y2-S2-159K18,6,485,AS,exp,27,↓,down,↓,0.6121413000510074,True,16,-1,0,2
Y2-S2-159K18,6,486,AS,exp,39,←,left,←,0.49476999999023974,True,16,1,1,3
Y2-S2-159K18,6,487,AS,exp,40,→,right,→,0.6048744000145234,True,15,1,0,3
Y2-S2-159K18,6,488,AS,exp,35,↑,up,↑,0.6367785999900661,True,15,1,0,3
Y2-S2-159K18,6,489,AS,exp,42,←,left,←,0.7482702000415884,True,15,1,0,3
Y2-S2-159K18,6,490,AS,exp,43,↓,down,↓,0.7007473999983631,True,14,1,0,3
Y2-S2-159K18,6,491,AS,exp,32,←,left,←,0.6518620999995619,True,14,1,0,3
Y2-S2-159K18,6,492,AS,exp,31,↑,up,↑,0.8450561999925412,True,14,1,0,3
Y2-S2-159K18,6,493,AS,exp,44,→,right,→,0.6131905999500304,True,13,1,0,3
Y2-S2-159K18,6,494,AS,exp,25,↑,up,↑,0.9330625999718904,True,13,1,0,3
Y2-S2-159K18,6,495,AS,exp,25,↓,down,↓,0.6109232000308111,True,13,1,0,3
Y2-S2-159K18,6,496,AS,exp,31,↑,up,↑,0.5904038000153378,True,12,1,0,3
Y2-S2-159K18,6,497,AS,exp,42,←,left,←,0.5437715000007302,True,12,1,0,3
Y2-S2-159K18,6,498,AS,exp,27,↑,up,↑,0.534447000012733,True,12,1,0,3
Y2-S2-159K18,6,499,AS,exp,31,↓,down,↓,0.586470799986273,True,11,1,0,3
Y2-S2-159K18,6,500,AS,exp,46,→,right,→,0.715076400025282,True,11,1,0,3
Y2-S2-159K18,6,501,AS,exp,25,←,right,→,0.7397673000232317,False,11,-1,1,4
Y2-S2-159K18,6,502,AS,exp,34,↑,up,↑,0.5632714999956079,True,12,-1,0,4
Y2-S2-159K18,6,503,AS,exp,46,↓,up,↑,0.6407224999857135,False,12,-1,0,4
Y2-S2-159K18,6,504,AS,exp,26,←,right,→,0.7144244999508373,False,13,-1,0,4
Y2-S2-159K18,6,505,AS,exp,45,↑,up,↑,0.5514833999914117,True,14,-1,0,4
Y2-S2-159K18,6,506,AS,exp,39,←,left,←,0.6481361000332981,True,14,-1,0,4
Y2-S2-159K18,6,507,AS,exp,46,↓,down,↓,0.6778660999843851,True,14,1,1,5
Y2-S2-159K18,6,508,AS,exp,48,→,right,→,0.6323035999666899,True,13,1,0,5
Y2-S2-159K18,6,509,AS,exp,33,←,left,←,0.5053660999983549,True,13,1,0,5
Y2-S2-159K18,6,510,AS,exp,48,↓,down,↓,0.6650651000090875,True,13,1,0,5
Y2-S2-159K18,6,511,AS,exp,43,↑,down,↓,0.5702327999752015,False,12,-1,1,6
Y2-S2-159K18,6,512,AS,exp,35,↓,up,↑,0.5619281000108458,False,13,-1,0,6
Y2-S2-159K18,6,513,AS,exp,45,→,right,→,0.4935704999952577,True,14,-1,0,6
Y2-S2-159K18,6,514,AS,exp,26,←,left,←,0.6378218999598175,True,14,-1,0,6
Y2-S2-159K18,6,515,AS,exp,33,↓,down,↓,0.6442380999797024,True,14,1,1,7
Y2-S2-159K18,6,516,AS,exp,28,↑,up,↑,0.80196920002345,True,13,1,0,7
Y2-S2-159K18,6,517,AS,exp,28,←,right,→,0.6753002000041306,False,13,-1,1,8
Y2-S2-159K18,6,518,AS,exp,36,→,right,→,0.6944037000066601,True,14,-1,0,8
Y2-S2-159K18,6,519,AS,exp,28,↑,right,→,0.9267935000243597,False,14,-1,0,8
Y2-S2-159K18,6,520,AS,exp,47,←,left,←,0.5980490999645554,True,15,-1,0,8
Y2-S2-159K18,6,521,AS,exp,42,↑,up,↑,0.7119202999747358,True,15,-1,0,8
Y2-S2-159K18,6,522,AS,exp,26,→,right,→,0.5477264999644831,True,15,1,1,9
Y2-S2-159K18,6,523,AS,exp,42,←,left,←,0.5253035999485292,True,14,1,0,9
Y2-S2-159K18,6,524,AS,exp,45,→,right,→,0.5656022999901325,True,14,1,0,9
Y2-S2-159K18,6,525,AS,exp,36,↓,up,↑,0.6938521999982186,False,14,-1,1,10
Y2-S2-159K18,6,526,AS,exp,25,→,right,→,0.6723762999754399,True,15,-1,0,10
Y2-S2-159K18,6,527,AS,exp,45,↑,right,→,1.039460700005293,False,15,-1,0,10
Y2-S2-159K18,6,528,AS,exp,27,←,left,←,0.5170661000302061,True,16,-1,0,10
Y2-S2-159K18,6,529,AS,exp,41,↑,up,↑,0.5163710999768227,True,16,-1,0,10
Y2-S2-159K18,6,530,AS,exp,27,←,left,←,0.4702129999641329,True,16,1,1,11
Y2-S2-159K18,6,531,AS,exp,47,↓,up,↑,0.7135569999809377,False,15,-1,1,12
Y2-S2-159K18,6,532,AS,exp,36,←,left,←,0.5329690999933518,True,16,-1,0,12
Y2-S2-159K18,6,533,AS,exp,31,↑,up,↑,0.6269272000063211,True,16,-1,0,12
Y2-S2-159K18,6,534,AS,exp,50,←,up,↑,0.6361509000416845,False,16,-1,0,12
Y2-S2-159K18,6,535,AS,exp,41,↓,down,↓,0.5735897999838926,True,17,-1,0,12
Y2-S2-159K18,6,536,AS,exp,48,↑,up,↑,0.6015267000184394,True,17,-1,0,12
Y2-S2-159K18,6,537,AS,exp,36,←,left,←,0.6680816999869421,True,17,1,1,13
Y2-S2-159K18,6,538,AS,exp,26,→,right,→,0.5749209999921732,True,16,1,0,13
Y2-S2-159K18,6,539,AS,exp,43,↑,up,↑,0.6250477999565192,True,16,1,0,13
Y2-S2-159K18,6,540,AS,exp,26,←,left,←,0.6072464000317268,True,16,1,0,13
Y2-S2-159K18,6,541,AS,exp,36,↑,up,↑,0.6486124999937601,True,15,1,0,13
Y2-S2-159K18,6,542,AS,exp,41,→,right,→,0.5277555000502616,True,15,1,0,13
Y2-S2-159K18,6,543,AS,exp,39,←,left,←,0.6100340000120923,True,15,1,0,13
Y2-S2-159K18,6,544,AS,exp,43,↑,right,→,0.7976199999684468,False,14,-1,1,14
Y2-S2-159K18,6,545,AS,exp,26,←,left,←,0.4416571999900043,True,15,-1,0,14
Y2-S2-159K18,6,546,AS,exp,40,↑,up,↑,0.5207124999724329,True,15,-1,0,14
Y2-S2-159K18,6,547,AS,exp,49,←,left,←,0.6028914999915287,True,15,1,1,15
Y2-S2-159K18,6,548,AS,exp,43,→,up,↑,0.6909955000155605,False,14,-1,1,16
Y2-S2-159K18,7,549,AS,intra_train,33,↑,up,↑,0.6726260000141338,True,24,-,-,-
Y2-S2-159K18,7,550,AS,intra_train,40,↓,down,↓,0.6176846000016667,True,24,-,-,-
Y2-S2-159K18,7,551,AS,intra_train,47,↑,up,↑,0.6269723000004888,True,24,-,-,-
Y2-S2-159K18,7,552,AS,intra_train,42,↓,down,↓,1.1408906999859028,True,24,-,-,-
Y2-S2-159K18,7,553,AS,intra_train,25,→,left,←,0.5175475999712944,False,24,-,-,-
Y2-S2-159K18,7,554,AS,exp,49,←,left,←,0.680445600009989,True,16,0,0,0
Y2-S2-159K18,7,555,AS,exp,40,→,left,←,0.4744662000448443,False,16,-1,0,0
Y2-S2-159K18,7,556,AS,exp,41,↓,up,↑,0.7873412000481039,False,17,-1,0,0
Y2-S2-159K18,7,557,AS,exp,35,→,right,→,0.6815958999795839,True,18,-1,0,0
Y2-S2-159K18,7,558,AS,exp,29,↓,down,↓,0.5790630999836139,True,18,-1,0,0
Y2-S2-159K18,7,559,AS,exp,27,→,right,→,0.57196600001771,True,18,1,1,1
Y2-S2-159K18,7,560,AS,exp,43,↓,down,↓,0.5213382000220008,True,17,1,0,1
Y2-S2-159K18,7,561,AS,exp,50,↑,up,↑,0.6369952000095509,True,17,1,0,1
Y2-S2-159K18,7,562,AS,exp,26,→,right,→,0.6059095999808051,True,17,1,0,1
Y2-S2-159K18,7,563,AS,exp,44,↑,up,↑,0.798220600001514,True,16,1,0,1
Y2-S2-159K18,7,564,AS,exp,31,→,right,→,0.7677242000354454,True,16,1,0,1
Y2-S2-159K18,7,565,AS,exp,48,↑,up,↑,0.6420760999899358,True,16,1,0,1
Y2-S2-159K18,7,566,AS,exp,32,←,left,←,0.5528412000276148,True,15,1,0,1
Y2-S2-159K18,7,567,AS,exp,41,↓,up,↑,0.7917211999883875,False,15,-1,1,2
Y2-S2-159K18,7,568,AS,exp,36,↑,up,↑,0.7292205999838188,True,16,-1,0,2
Y2-S2-159K18,7,569,AS,exp,43,↓,down,↓,0.9147541000274941,True,16,-1,0,2
Y2-S2-159K18,7,570,AS,exp,44,→,right,→,0.4950078999972902,True,16,1,1,3
Y2-S2-159K18,7,571,AS,exp,37,↓,down,↓,0.8737375999917276,True,15,1,0,3
Y2-S2-159K18,7,572,AS,exp,50,↑,up,↑,0.6015092000016011,True,15,1,0,3
Y2-S2-159K18,7,573,AS,exp,25,↓,up,↑,0.6410925999516621,False,15,-1,1,4
Y2-S2-159K18,7,574,AS,exp,28,↑,up,↑,0.574005100002978,True,16,-1,0,4
Y2-S2-159K18,7,575,AS,exp,30,←,left,←,0.6212861999520101,True,16,-1,0,4
Y2-S2-159K18,7,576,AS,exp,36,↓,down,↓,0.6230401000357233,True,16,1,1,5
Y2-S2-159K18,7,577,AS,exp,45,↑,up,↑,0.5722609999938868,True,15,1,0,5
Y2-S2-159K18,7,578,AS,exp,35,→,left,←,0.48651049996260554,False,15,-1,1,6
Y2-S2-159K18,7,579,AS,exp,26,←,left,←,0.7752589000156149,True,16,-1,0,6
Y2-S2-159K18,7,580,AS,exp,29,↑,up,↑,0.47566870000446215,True,16,-1,0,6
Y2-S2-159K18,7,581,AS,exp,33,→,right,→,0.5322787000332028,True,16,1,1,7
Y2-S2-159K18,7,582,AS,exp,29,↓,down,↓,0.6640475000021979,True,15,1,0,7
Y2-S2-159K18,7,583,AS,exp,31,←,right,→,0.7552495999843813,False,15,-1,1,8
Y2-S2-159K18,7,584,AS,exp,49,↑,left,←,0.6850296999909915,False,16,-1,0,8
Y2-S2-159K18,7,585,AS,exp,30,↓,down,↓,0.8066422999836504,True,17,-1,0,8
Y2-S2-159K18,7,586,AS,exp,46,→,right,→,0.4775443999678828,True,17,-1,0,8
Y2-S2-159K18,7,587,AS,exp,25,←,left,←,0.47922490001656115,True,17,1,1,9
Y2-S2-159K18,7,588,AS,exp,29,↑,up,↑,0.5723254999611527,True,16,1,0,9
Y2-S2-159K18,7,589,AS,exp,33,↓,down,↓,0.6618034000275657,True,16,1,0,9
Y2-S2-159K18,7,590,AS,exp,48,←,left,←,0.5469833999522962,True,16,1,0,9
Y2-S2-159K18,7,591,AS,exp,36,↓,up,↑,0.6568831999902613,False,15,-1,1,10
Y2-S2-159K18,7,592,AS,exp,32,→,right,→,0.6204934999695979,True,16,-1,0,10
Y2-S2-159K18,7,593,AS,exp,42,↓,down,↓,0.48583249998046085,True,16,-1,0,10
Y2-S2-159K18,7,594,AS,exp,32,↑,up,↑,0.6847294000326656,True,16,1,1,11
Y2-S2-159K18,7,595,AS,exp,40,↓,down,↓,0.6890250000287779,True,15,1,0,11
Y2-S2-159K18,7,596,AS,exp,29,←,left,←,0.44880479999119416,True,15,1,0,11
Y2-S2-159K18,7,597,AS,exp,37,↑,up,↑,0.5846102999639697,True,15,1,0,11
Y2-S2-159K18,7,598,AS,exp,27,←,left,←,0.4955297000124119,True,14,1,0,11
Y2-S2-159K18,7,599,AS,exp,39,→,right,→,0.637606899952516,True,14,1,0,11
Y2-S2-159K18,7,600,AS,exp,25,←,right,→,0.6974178999662399,False,14,-1,1,12
Y2-S2-159K18,7,601,AS,exp,25,↑,up,↑,0.631580599991139,True,15,-1,0,12
Y2-S2-159K18,7,602,AS,exp,31,←,left,←,0.6635606000199914,True,15,-1,0,12
Y2-S2-159K18,7,603,AS,exp,49,↑,up,↑,0.4754516999819316,True,15,1,1,13
Y2-S2-159K18,7,604,AS,exp,46,↓,down,↓,0.6476367000141181,True,14,1,0,13
Y2-S2-159K18,7,605,AS,exp,42,→,right,→,0.6297280000289902,True,14,1,0,13
Y2-S2-159K18,7,606,AS,exp,33,↓,up,↑,0.8877912000170909,False,14,-1,1,14
Y2-S2-159K18,7,607,AS,exp,46,→,right,→,0.5496588000096381,True,15,-1,0,14
Y2-S2-159K18,7,608,AS,exp,27,↓,up,↑,0.8314857000368647,False,15,-1,0,14
Y2-S2-159K18,7,609,AS,exp,32,→,right,→,0.6325507999863476,True,16,-1,0,14
Y2-S2-159K18,7,610,AS,exp,31,←,left,←,0.5112188999773934,True,16,-1,0,14
Y2-S2-159K18,7,611,AS,exp,30,↓,down,↓,0.627606599999126,True,16,1,1,15
Y2-S2-159K18,7,612,AS,exp,28,↑,up,↑,0.564217799983453,True,15,1,0,15
Y2-S2-159K18,7,613,AS,exp,29,←,left,←,0.7169334000209346,True,15,1,0,15
Y2-S2-159K18,7,614,AS,exp,33,↑,up,↑,0.6766340999747626,True,15,1,0,15
Y2-S2-159K18,7,615,AS,exp,28,→,left,←,0.5667156000272371,False,14,-1,1,16
Y2-S2-159K18,8,616,PS,intra_train,36,↓,down,↓,0.7585423999698833,True,15,-,-,-
Y2-S2-159K18,8,617,PS,intra_train,42,↑,up,↑,0.5507345999940298,True,15,-,-,-
Y2-S2-159K18,8,618,PS,intra_train,32,→,right,→,0.5658970999647863,True,15,-,-,-
Y2-S2-159K18,8,619,PS,intra_train,25,↑,up,↑,0.5871194000355899,True,15,-,-,-
Y2-S2-159K18,8,620,PS,intra_train,30,→,right,→,0.47306559997377917,True,15,-,-,-
Y2-S2-159K18,8,621,PS,exp,38,←,left,←,0.43722130003152415,True,10,0,0,0
Y2-S2-159K18,8,622,PS,exp,30,↑,up,↑,0.6063618999905884,True,10,0,0,0
Y2-S2-159K18,8,623,PS,exp,39,↓,down,↓,0.462925500003621,True,10,1,0,0
Y2-S2-159K18,8,624,PS,exp,32,↑,up,↑,0.572538899956271,True,9,1,0,0
Y2-S2-159K18,8,625,PS,exp,47,↓,down,↓,0.472046299953945,True,9,1,0,0
Y2-S2-159K18,8,626,PS,exp,34,←,right,→,0.6259048000210896,False,9,-1,1,1
Y2-S2-159K18,8,627,PS,exp,41,↑,up,↑,0.480494900024496,True,10,-1,0,1
Y2-S2-159K18,8,628,PS,exp,38,→,right,→,0.5845088999485597,True,10,-1,0,1
Y2-S2-159K18,8,629,PS,exp,28,←,left,←,0.4430531000252813,True,10,1,1,2
Y2-S2-159K18,8,630,PS,exp,42,↑,up,↑,0.5150646999827586,True,9,1,0,2
Y2-S2-159K18,8,631,PS,exp,49,→,left,←,0.4123371000168845,False,9,-1,1,3
Y2-S2-159K18,8,632,PS,exp,40,←,left,←,0.43352019996382296,True,10,-1,0,3
Y2-S2-159K18,8,633,PS,exp,40,↓,down,↓,0.5013510000426322,True,10,-1,0,3
Y2-S2-159K18,8,634,PS,exp,50,↑,up,↑,0.5324209000100382,True,10,1,1,4
Y2-S2-159K18,8,635,PS,exp,49,→,right,→,0.6345551999984309,True,9,1,0,4
Y2-S2-159K18,8,636,PS,exp,31,↓,right,→,0.5217124000191689,False,9,-1,1,5
Y2-S2-159K18,8,637,PS,exp,40,←,left,←,1.1871047000167891,True,10,-1,0,5
Y2-S2-159K18,8,638,PS,exp,32,↑,up,↑,0.48756360000697896,True,10,-1,0,5
Y2-S2-159K18,8,639,PS,exp,29,←,left,←,0.5090360999456607,True,10,1,1,6
Y2-S2-159K18,8,640,PS,exp,38,→,right,→,0.38516949996119365,True,9,1,0,6
Y2-S2-159K18,8,641,PS,exp,37,↑,up,↑,0.6694893999956548,True,9,1,0,6
Y2-S2-159K18,8,642,PS,exp,29,←,left,←,0.47786899999482557,True,9,1,0,6
Y2-S2-159K18,8,643,PS,exp,26,↑,up,↑,0.5510966000147164,True,8,1,0,6
Y2-S2-159K18,8,644,PS,exp,39,↓,down,↓,0.5366065999842249,True,8,1,0,6
Y2-S2-159K18,8,645,PS,exp,28,←,right,→,1.0453746000421233,False,8,-1,1,7
Y2-S2-159K18,8,646,PS,exp,40,↑,up,↑,0.45852450001984835,True,9,-1,0,7
Y2-S2-159K18,8,647,PS,exp,43,→,right,→,0.7550228000036441,True,9,-1,0,7
Y2-S2-159K18,8,648,PS,exp,27,↓,up,↑,0.968327299982775,False,9,-1,0,7
Y2-S2-159K18,8,649,PS,exp,47,→,right,→,0.5086267000297084,True,10,-1,0,7
Y2-S2-159K18,8,650,PS,exp,37,↑,up,↑,0.6343199000111781,True,10,-1,0,7
Y2-S2-159K18,8,651,PS,exp,28,→,right,→,0.6074721000040881,True,10,1,1,8
Y2-S2-159K18,8,652,PS,exp,32,↓,down,↓,0.5133018000051379,True,9,1,0,8
Y2-S2-159K18,8,653,PS,exp,31,←,left,←,0.5218750999774784,True,9,1,0,8
Y2-S2-159K18,8,654,PS,exp,28,↓,down,↓,0.5545433000079356,True,9,1,0,8
Y2-S2-159K18,8,655,PS,exp,47,←,left,←,0.3951887000002898,True,8,1,0,8
Y2-S2-159K18,8,656,PS,exp,25,↓,down,↓,0.4676556000486016,True,8,1,0,8
Y2-S2-159K18,8,657,PS,exp,35,↑,up,↑,0.530499399988912,True,8,1,0,8
Y2-S2-159K18,8,658,PS,exp,30,←,left,←,0.39789320004638284,True,7,1,0,8
Y2-S2-159K18,8,659,PS,exp,26,→,left,←,0.29902480001328513,False,7,-1,1,9
Y2-S2-159K18,8,660,PS,exp,50,↓,down,↓,0.5016670999466442,True,8,-1,0,9
Y2-S2-159K18,8,661,PS,exp,44,→,right,→,0.41138939996017143,True,8,-1,0,9
Y2-S2-159K18,8,662,PS,exp,40,←,left,←,0.4849817000213079,True,8,1,1,10
Y2-S2-159K18,8,663,PS,exp,43,↓,left,←,0.5946095999679528,False,7,-1,1,11
Y2-S2-159K18,8,664,PS,exp,36,←,left,←,0.3759396999957971,True,8,-1,0,11
Y2-S2-159K18,8,665,PS,exp,37,→,right,→,0.4548932000179775,True,8,-1,0,11
Y2-S2-159K18,8,666,PS,exp,32,↓,down,↓,0.6084445000160486,True,8,1,1,12
Y2-S2-159K18,8,667,PS,exp,25,→,right,→,0.4612448000116274,True,7,1,0,12
Y2-S2-159K18,8,668,PS,exp,32,←,left,←,0.3574171999935061,True,7,1,0,12
Y2-S2-159K18,8,669,PS,exp,32,↓,up,↑,0.5856583999702707,False,7,-1,1,13
Y2-S2-159K18,8,670,PS,exp,40,→,right,→,0.35830930003430694,True,8,-1,0,13
Y2-S2-159K18,8,671,PS,exp,27,↓,down,↓,0.5917521999799646,True,8,-1,0,13
Y2-S2-159K18,8,672,PS,exp,44,↑,up,↑,0.521810700010974,True,8,1,1,14
Y2-S2-159K18,8,673,PS,exp,34,→,left,←,0.5170644999598153,False,7,-1,1,15
Y2-S2-159K18,8,674,PS,exp,46,↑,up,↑,0.5591127999941818,True,8,-1,0,15
Y2-S2-159K18,8,675,PS,exp,31,↓,down,↓,0.46667100000195205,True,8,-1,0,15
Y2-S2-159K18,8,676,PS,exp,34,←,left,←,0.5835547000169754,True,8,1,1,16
