PART_ID,Block_no,Trial_no,Block_type,Trial_type,CSI,Stim_letter,Key_pressed,letter_choose,Rt,Corr,Stimulus Time,Level,Reversal,Revs_count
Y2-S2-056M23,1,1,PS,train,33,↑,up,↑,0.6172978999093175,True,30,-,-,-
Y2-S2-056M23,1,2,PS,train,26,←,left,←,0.5838114999933168,True,30,-,-,-
Y2-S2-056M23,1,3,PS,train,43,↑,up,↑,0.5341469999402761,True,30,-,-,-
Y2-S2-056M23,1,4,PS,train,27,↓,down,↓,0.6003812000853941,True,30,-,-,-
Y2-S2-056M23,1,5,PS,train,48,↑,up,↑,0.43431499996222556,True,30,-,-,-
Y2-S2-056M23,1,6,PS,train,49,↓,down,↓,0.6007924000732601,True,30,-,-,-
Y2-S2-056M23,1,7,PS,train,27,↑,up,↑,0.6342786999884993,True,30,-,-,-
Y2-S2-056M23,1,8,PS,train,47,→,right,→,0.5005266000516713,True,30,-,-,-
Y2-S2-056M23,1,9,PS,train,33,↑,up,↑,0.6175322000635788,True,30,-,-,-
Y2-S2-056M23,1,10,PS,train,49,←,left,←,0.5506157000781968,True,30,-,-,-
Y2-S2-056M23,2,11,AS,train,30,↓,down,↓,0.6680932999588549,True,45,-,-,-
Y2-S2-056M23,2,12,AS,train,48,←,left,←,0.6008617000188679,True,45,-,-,-
Y2-S2-056M23,2,13,AS,train,37,→,right,→,0.5841285000788048,True,45,-,-,-
Y2-S2-056M23,2,14,AS,train,28,↓,right,→,0.43421600002329797,False,45,-,-,-
Y2-S2-056M23,2,15,AS,train,34,↑,up,↑,0.8173213000409305,True,45,-,-,-
Y2-S2-056M23,2,16,AS,train,43,→,right,→,0.3510955999372527,True,45,-,-,-
Y2-S2-056M23,2,17,AS,train,33,↑,right,→,0.18433089996688068,False,45,-,-,-
Y2-S2-056M23,2,18,AS,train,35,←,left,←,0.9736439000116661,True,45,-,-,-
Y2-S2-056M23,2,19,AS,train,31,→,right,→,0.5843730999622494,True,45,-,-,-
Y2-S2-056M23,2,20,AS,train,37,↑,up,↑,0.8337648999877274,True,45,-,-,-
Y2-S2-056M23,-,21,PS,adaptive,28,↓,down,↓,0.6157268999377266,True,10,0,0,0
Y2-S2-056M23,-,22,PS,adaptive,28,↑,up,↑,0.6695026999805123,True,10,0,0,0
Y2-S2-056M23,-,23,PS,adaptive,32,↓,down,↓,0.5986357000656426,True,10,1,0,0
Y2-S2-056M23,-,24,PS,adaptive,39,↑,down,↓,1.0111156000057235,False,9,-1,1,1
Y2-S2-056M23,-,25,PS,adaptive,35,←,left,←,0.5582445000763983,True,10,-1,0,1
Y2-S2-056M23,-,26,PS,adaptive,37,↓,down,↓,0.6721536000259221,True,10,-1,0,1
Y2-S2-056M23,-,27,PS,adaptive,27,↑,up,↑,0.6726398000027984,True,10,1,1,2
Y2-S2-056M23,-,28,PS,adaptive,37,↓,down,↓,0.8206309999804944,True,9,1,0,2
Y2-S2-056M23,-,29,PS,adaptive,37,↑,right,→,1.11650930007454,False,9,-1,1,3
Y2-S2-056M23,-,30,PS,adaptive,35,→,right,→,0.5249649999896064,True,10,-1,0,3
Y2-S2-056M23,-,31,PS,adaptive,50,↑,up,↑,0.9581367999780923,True,10,-1,0,3
Y2-S2-056M23,-,32,PS,adaptive,42,←,left,←,0.6745876999339089,True,10,1,1,4
Y2-S2-056M23,-,33,AS,adaptive,44,↑,up,↑,0.6379806000040844,True,20,0,0,0
Y2-S2-056M23,-,34,AS,adaptive,40,↓,down,↓,0.7429049001075327,True,20,0,0,0
Y2-S2-056M23,-,35,AS,adaptive,33,↑,up,↑,0.6191180000314489,True,20,1,0,0
Y2-S2-056M23,-,36,AS,adaptive,34,↓,up,↑,1.0326925000408664,False,19,-1,1,1
Y2-S2-056M23,-,37,AS,adaptive,42,↑,up,↑,0.706087600090541,True,20,-1,0,1
Y2-S2-056M23,-,38,AS,adaptive,33,↓,down,↓,0.6128960000351071,True,20,-1,0,1
Y2-S2-056M23,-,39,AS,adaptive,26,↑,up,↑,0.6299290000461042,True,20,1,1,2
Y2-S2-056M23,-,40,AS,adaptive,31,←,left,←,0.546424200059846,True,19,1,0,2
Y2-S2-056M23,-,41,AS,adaptive,50,↑,up,↑,0.5936358999460936,True,19,1,0,2
Y2-S2-056M23,-,42,AS,adaptive,46,←,left,←,0.9849159000441432,True,19,1,0,2
Y2-S2-056M23,-,43,AS,adaptive,25,↓,down,↓,0.6472491999156773,True,18,1,0,2
Y2-S2-056M23,-,44,AS,adaptive,42,↑,up,↑,0.6033631000900641,True,18,1,0,2
Y2-S2-056M23,-,45,AS,adaptive,38,←,left,←,0.6111644000047818,True,18,1,0,2
Y2-S2-056M23,-,46,AS,adaptive,33,↑,up,↑,0.9620389000046998,True,17,1,0,2
Y2-S2-056M23,-,47,AS,adaptive,28,←,left,←,0.7520595999667421,True,17,1,0,2
Y2-S2-056M23,-,48,AS,adaptive,36,↓,down,↓,0.5933174999663606,True,17,1,0,2
Y2-S2-056M23,-,49,AS,adaptive,37,←,left,←,0.7842985999304801,True,16,1,0,2
Y2-S2-056M23,-,50,AS,adaptive,38,→,right,→,0.5972967999987304,True,16,1,0,2
Y2-S2-056M23,-,51,AS,adaptive,35,↓,down,↓,0.7003556999843568,True,16,1,0,2
Y2-S2-056M23,-,52,AS,adaptive,43,↑,up,↑,0.7934065000154078,True,15,1,0,2
Y2-S2-056M23,-,53,AS,adaptive,41,↓,down,↓,0.6617060999851674,True,15,1,0,2
Y2-S2-056M23,-,54,AS,adaptive,45,→,right,→,0.5928993999259546,True,15,1,0,2
Y2-S2-056M23,-,55,AS,adaptive,34,↑,up,↑,0.7267873999662697,True,14,1,0,2
Y2-S2-056M23,-,56,AS,adaptive,36,→,right,→,0.6066648999694735,True,14,1,0,2
Y2-S2-056M23,-,57,AS,adaptive,43,↓,up,↑,0.6959335999563336,False,14,-1,1,3
Y2-S2-056M23,-,58,AS,adaptive,43,←,left,←,0.5645694999257103,True,15,-1,0,3
Y2-S2-056M23,-,59,AS,adaptive,42,↓,down,↓,0.6119167999131605,True,15,-1,0,3
Y2-S2-056M23,-,60,AS,adaptive,43,→,right,→,1.2580494000576437,True,15,1,1,4
Y2-S2-056M23,1,61,PS,intra_train,37,←,left,←,0.544476900016889,True,13,-,-,-
Y2-S2-056M23,1,62,PS,intra_train,31,↓,down,↓,0.6412971999961883,True,13,-,-,-
Y2-S2-056M23,1,63,PS,intra_train,33,→,right,→,0.4744203999871388,True,13,-,-,-
Y2-S2-056M23,1,64,PS,intra_train,32,←,left,←,0.5247883000411093,True,13,-,-,-
Y2-S2-056M23,1,65,PS,intra_train,37,↑,up,↑,0.5505072999512777,True,13,-,-,-
Y2-S2-056M23,1,66,PS,exp,35,←,left,←,0.6004854999482632,True,9,0,0,0
Y2-S2-056M23,1,67,PS,exp,36,→,left,←,0.9466689999680966,False,9,-1,0,0
Y2-S2-056M23,1,68,PS,exp,49,↓,down,↓,0.6077618000563234,True,10,-1,0,0
Y2-S2-056M23,1,69,PS,exp,28,↑,up,↑,0.4863232000498101,True,10,-1,0,0
Y2-S2-056M23,1,70,PS,exp,26,→,right,→,0.6002859000582248,True,10,1,1,1
Y2-S2-056M23,1,71,PS,exp,47,↑,up,↑,0.482984000002034,True,9,1,0,1
Y2-S2-056M23,1,72,PS,exp,44,↓,down,↓,0.5877983000827953,True,9,1,0,1
Y2-S2-056M23,1,73,PS,exp,50,←,right,→,0.6609792000381276,False,9,-1,1,2
Y2-S2-056M23,1,74,PS,exp,32,↓,down,↓,0.4917435999959707,True,10,-1,0,2
Y2-S2-056M23,1,75,PS,exp,33,→,right,→,0.4789784000022337,True,10,-1,0,2
Y2-S2-056M23,1,76,PS,exp,45,↓,down,↓,0.5414253000635654,True,10,1,1,3
Y2-S2-056M23,1,77,PS,exp,48,→,right,→,0.5860962000442669,True,9,1,0,3
Y2-S2-056M23,1,78,PS,exp,49,↑,up,↑,0.5853499000659212,True,9,1,0,3
Y2-S2-056M23,1,79,PS,exp,32,←,left,←,0.5519690000219271,True,9,1,0,3
Y2-S2-056M23,1,80,PS,exp,45,→,right,→,0.5250712999841198,True,8,1,0,3
Y2-S2-056M23,1,81,PS,exp,35,←,left,←,0.5323687999043614,True,8,1,0,3
Y2-S2-056M23,1,82,PS,exp,32,↑,up,↑,0.7402397999539971,True,8,1,0,3
Y2-S2-056M23,1,83,PS,exp,31,→,right,→,0.6283076000399888,True,7,1,0,3
Y2-S2-056M23,1,84,PS,exp,36,↑,up,↑,0.5732964999042451,True,7,1,0,3
Y2-S2-056M23,1,85,PS,exp,43,←,left,←,0.5223169999662787,True,7,1,0,3
Y2-S2-056M23,1,86,PS,exp,49,→,left,←,0.765128800063394,False,6,-1,1,4
Y2-S2-056M23,1,87,PS,exp,41,↑,up,↑,0.46012129995506257,True,7,-1,0,4
Y2-S2-056M23,1,88,PS,exp,50,↓,down,↓,0.5567217000061646,True,7,-1,0,4
Y2-S2-056M23,1,89,PS,exp,45,←,left,←,0.9240791000192985,True,7,1,1,5
Y2-S2-056M23,1,90,PS,exp,39,→,right,→,0.5603234000736848,True,6,1,0,5
Y2-S2-056M23,1,91,PS,exp,48,↓,down,↓,0.5225930999731645,True,6,1,0,5
Y2-S2-056M23,1,92,PS,exp,31,↑,up,↑,0.6069912000093609,True,6,1,0,5
Y2-S2-056M23,1,93,PS,exp,47,←,right,→,0.6651919001014903,False,5,-1,1,6
Y2-S2-056M23,1,94,PS,exp,48,↑,up,↑,0.5257496999111027,True,6,-1,0,6
Y2-S2-056M23,1,95,PS,exp,42,↓,up,↑,0.7717892000218853,False,6,-1,0,6
Y2-S2-056M23,1,96,PS,exp,37,←,left,←,0.5061708999564871,True,7,-1,0,6
Y2-S2-056M23,1,97,PS,exp,31,↓,down,↓,0.7245670000556856,True,7,-1,0,6
Y2-S2-056M23,1,98,PS,exp,50,→,right,→,0.5276665999554098,True,7,1,1,7
Y2-S2-056M23,1,99,PS,exp,27,↑,down,↓,0.7879299999913201,False,6,-1,1,8
Y2-S2-056M23,1,100,PS,exp,47,←,left,←,0.48819099995307624,True,7,-1,0,8
Y2-S2-056M23,1,101,PS,exp,40,↑,up,↑,0.5896133999340236,True,7,-1,0,8
Y2-S2-056M23,1,102,PS,exp,39,→,right,→,0.5347098000347614,True,7,1,1,9
Y2-S2-056M23,1,103,PS,exp,37,↑,up,↑,0.5510581999551505,True,6,1,0,9
Y2-S2-056M23,1,104,PS,exp,46,←,left,←,0.5395958999870345,True,6,1,0,9
Y2-S2-056M23,1,105,PS,exp,33,↓,up,↑,1.396371899987571,False,6,-1,1,10
Y2-S2-056M23,1,106,PS,exp,41,←,left,←,0.768823100021109,True,7,-1,0,10
Y2-S2-056M23,1,107,PS,exp,26,↑,up,↑,1.0561123999068514,True,7,-1,0,10
Y2-S2-056M23,1,108,PS,exp,41,→,left,←,0.5005642999894917,False,7,-1,0,10
Y2-S2-056M23,1,109,PS,exp,29,↓,left,←,1.257878200034611,False,8,-1,0,10
Y2-S2-056M23,1,110,PS,exp,29,←,left,←,0.6165839999448508,True,9,-1,0,10
Y2-S2-056M23,1,111,PS,exp,45,↓,down,↓,0.599177600000985,True,9,-1,0,10
Y2-S2-056M23,1,112,PS,exp,39,↑,up,↑,0.4814865000080317,True,9,1,1,11
Y2-S2-056M23,1,113,PS,exp,40,←,left,←,0.4804671999299899,True,8,1,0,11
Y2-S2-056M23,1,114,PS,exp,28,→,right,→,0.49384409992489964,True,8,1,0,11
Y2-S2-056M23,1,115,PS,exp,36,↑,up,↑,0.699321800027974,True,8,1,0,11
Y2-S2-056M23,1,116,PS,exp,49,↓,down,↓,0.47956250002607703,True,7,1,0,11
Y2-S2-056M23,1,117,PS,exp,30,↑,up,↑,0.8647765000350773,True,7,1,0,11
Y2-S2-056M23,1,118,PS,exp,30,←,no_key,no_letter,-1.0,False,7,-1,1,12
Y2-S2-056M23,1,119,PS,exp,40,↑,up,↑,0.5325123999500647,True,8,-1,0,12
Y2-S2-056M23,1,120,PS,exp,28,←,left,←,0.5207779000047594,True,8,-1,0,12
Y2-S2-056M23,1,121,PS,exp,46,→,left,←,0.9169355999911204,False,8,-1,0,12
Y2-S2-056M23,1,122,PS,exp,30,←,left,←,0.5947009000228718,True,9,-1,0,12
Y2-S2-056M23,1,123,PS,exp,48,↑,right,→,0.3370933000696823,False,9,-1,0,12
Y2-S2-056M23,1,124,PS,exp,27,↓,down,↓,1.311035200022161,True,10,-1,0,12
Y2-S2-056M23,1,125,PS,exp,39,→,right,→,0.4966631999704987,True,10,-1,0,12
Y2-S2-056M23,1,126,PS,exp,39,←,left,←,0.4866376999998465,True,10,1,1,13
Y2-S2-056M23,1,127,PS,exp,39,↓,down,↓,0.6860809999052435,True,9,1,0,13
Y2-S2-056M23,1,128,PS,exp,32,→,right,→,0.6632910000625998,True,9,1,0,13
Y2-S2-056M23,1,129,PS,exp,43,↓,down,↓,0.44015220005530864,True,9,1,0,13
Y2-S2-056M23,1,130,PS,exp,35,←,left,←,0.5147161000641063,True,8,1,0,13
Y2-S2-056M23,1,131,PS,exp,29,↑,up,↑,0.609320699935779,True,8,1,0,13
Y2-S2-056M23,1,132,PS,exp,40,←,left,←,0.49850440002046525,True,8,1,0,13
Y2-S2-056M23,1,133,PS,exp,39,↑,up,↑,0.5035304999910295,True,7,1,0,13
Y2-S2-056M23,1,134,PS,exp,30,←,left,←,0.5217407000018284,True,7,1,0,13
Y2-S2-056M23,1,135,PS,exp,32,↓,down,↓,0.5643619999755174,True,7,1,0,13
Y2-S2-056M23,1,136,PS,exp,45,←,no_key,no_letter,-1.0,False,6,-1,1,14
Y2-S2-056M23,1,137,PS,exp,42,↑,up,↑,0.6791394000174478,True,7,-1,0,14
Y2-S2-056M23,1,138,PS,exp,41,←,left,←,0.5544508999446407,True,7,-1,0,14
Y2-S2-056M23,1,139,PS,exp,33,→,right,→,0.5246465000091121,True,7,1,1,15
Y2-S2-056M23,1,140,PS,exp,30,↓,right,→,1.1443383999867365,False,6,-1,1,16
Y2-S2-056M23,2,141,AS,intra_train,45,←,left,←,0.9322084999876097,True,21,-,-,-
Y2-S2-056M23,2,142,AS,intra_train,38,↓,down,↓,0.7875253999372944,True,21,-,-,-
Y2-S2-056M23,2,143,AS,intra_train,26,←,left,←,0.5840296000242233,True,21,-,-,-
Y2-S2-056M23,2,144,AS,intra_train,43,↓,down,↓,0.5291723000118509,True,21,-,-,-
Y2-S2-056M23,2,145,AS,intra_train,44,→,right,→,0.4680375999305397,True,21,-,-,-
Y2-S2-056M23,2,146,AS,exp,26,←,left,←,0.7471408999990672,True,14,0,0,0
Y2-S2-056M23,2,147,AS,exp,28,↑,down,↓,0.9680594999808818,False,14,-1,0,0
Y2-S2-056M23,2,148,AS,exp,31,↓,down,↓,0.5224771000212058,True,15,-1,0,0
Y2-S2-056M23,2,149,AS,exp,26,→,right,→,0.6964507000520825,True,15,-1,0,0
Y2-S2-056M23,2,150,AS,exp,40,↑,up,↑,0.723375300061889,True,15,1,1,1
Y2-S2-056M23,2,151,AS,exp,34,→,right,→,0.6487136000068858,True,14,1,0,1
Y2-S2-056M23,2,152,AS,exp,29,↓,down,↓,0.6047834999626502,True,14,1,0,1
Y2-S2-056M23,2,153,AS,exp,38,↑,down,↓,1.1059090999187902,False,14,-1,1,2
Y2-S2-056M23,2,154,AS,exp,29,↓,down,↓,0.6897363000316545,True,15,-1,0,2
Y2-S2-056M23,2,155,AS,exp,47,→,right,→,0.6287512999260798,True,15,-1,0,2
Y2-S2-056M23,2,156,AS,exp,44,←,left,←,0.5381380999460816,True,15,1,1,3
Y2-S2-056M23,2,157,AS,exp,42,↑,up,↑,0.755177199956961,True,14,1,0,3
Y2-S2-056M23,2,158,AS,exp,48,→,right,→,0.5507079999661073,True,14,1,0,3
Y2-S2-056M23,2,159,AS,exp,48,←,left,←,0.4367714000400156,True,14,1,0,3
Y2-S2-056M23,2,160,AS,exp,32,↑,up,↑,0.9153254000702873,True,13,1,0,3
Y2-S2-056M23,2,161,AS,exp,30,↓,down,↓,0.6810204000212252,True,13,1,0,3
Y2-S2-056M23,2,162,AS,exp,42,→,right,→,0.4868451999500394,True,13,1,0,3
Y2-S2-056M23,2,163,AS,exp,37,↑,up,↑,1.0849929000250995,True,12,1,0,3
Y2-S2-056M23,2,164,AS,exp,50,↓,down,↓,0.6399504999862984,True,12,1,0,3
Y2-S2-056M23,2,165,AS,exp,26,←,right,→,0.7014443000080064,False,12,-1,1,4
Y2-S2-056M23,2,166,AS,exp,46,↑,up,↑,0.5496003000298515,True,13,-1,0,4
Y2-S2-056M23,2,167,AS,exp,41,←,left,←,1.5971494999248534,True,13,-1,0,4
Y2-S2-056M23,2,168,AS,exp,32,↑,up,↑,0.6873579999664798,True,13,1,1,5
Y2-S2-056M23,2,169,AS,exp,49,→,left,←,0.8384657999267802,False,12,-1,1,6
Y2-S2-056M23,2,170,AS,exp,32,←,left,←,0.6795185999944806,True,13,-1,0,6
Y2-S2-056M23,2,171,AS,exp,41,↓,down,↓,0.6189573999727145,True,13,-1,0,6
Y2-S2-056M23,2,172,AS,exp,41,←,left,←,0.7400822000345215,True,13,1,1,7
Y2-S2-056M23,2,173,AS,exp,33,↓,up,↑,0.9653938000556082,False,12,-1,1,8
Y2-S2-056M23,2,174,AS,exp,38,←,left,←,0.6319150000344962,True,13,-1,0,8
Y2-S2-056M23,2,175,AS,exp,36,↓,down,↓,0.558677599998191,True,13,-1,0,8
Y2-S2-056M23,2,176,AS,exp,25,↑,up,↑,0.7139279000693932,True,13,1,1,9
Y2-S2-056M23,2,177,AS,exp,34,↓,down,↓,0.5427216000389308,True,12,1,0,9
Y2-S2-056M23,2,178,AS,exp,38,→,right,→,0.4840495999669656,True,12,1,0,9
Y2-S2-056M23,2,179,AS,exp,26,←,right,→,0.7637632000260055,False,12,-1,1,10
Y2-S2-056M23,2,180,AS,exp,50,↑,up,↑,0.6649329999927431,True,13,-1,0,10
Y2-S2-056M23,2,181,AS,exp,28,↓,down,↓,0.6805363999446854,True,13,-1,0,10
Y2-S2-056M23,2,182,AS,exp,37,→,left,←,0.9224732000147924,False,13,-1,0,10
Y2-S2-056M23,2,183,AS,exp,46,↑,up,↑,0.5559204999590293,True,14,-1,0,10
Y2-S2-056M23,2,184,AS,exp,40,←,left,←,0.8351960000582039,True,14,-1,0,10
Y2-S2-056M23,2,185,AS,exp,44,↑,up,↑,0.6353775999741629,True,14,1,1,11
Y2-S2-056M23,2,186,AS,exp,27,↓,down,↓,0.7511807000264525,True,13,1,0,11
Y2-S2-056M23,2,187,AS,exp,38,→,right,→,0.6651191000128165,True,13,1,0,11
Y2-S2-056M23,2,188,AS,exp,27,↓,down,↓,1.2571389999939129,True,13,1,0,11
Y2-S2-056M23,2,189,AS,exp,44,→,right,→,0.5024447999894619,True,12,1,0,11
Y2-S2-056M23,2,190,AS,exp,25,←,left,←,0.7289164999965578,True,12,1,0,11
Y2-S2-056M23,2,191,AS,exp,40,→,right,→,0.6923673999262974,True,12,1,0,11
Y2-S2-056M23,2,192,AS,exp,40,←,left,←,0.8123996000504121,True,11,1,0,11
Y2-S2-056M23,2,193,AS,exp,38,→,right,→,1.4824373999144882,True,11,1,0,11
Y2-S2-056M23,2,194,AS,exp,43,↓,no_key,no_letter,-1.0,False,11,-1,1,12
Y2-S2-056M23,2,195,AS,exp,47,↑,up,↑,1.0454300999408588,True,12,-1,0,12
Y2-S2-056M23,2,196,AS,exp,44,↓,up,↑,1.4803000000538304,False,12,-1,0,12
Y2-S2-056M23,2,197,AS,exp,35,↑,down,↓,1.0272161000175402,False,13,-1,0,12
Y2-S2-056M23,2,198,AS,exp,45,←,left,←,0.8772323000011966,True,14,-1,0,12
Y2-S2-056M23,2,199,AS,exp,47,↑,up,↑,0.5659426000202075,True,14,-1,0,12
Y2-S2-056M23,2,200,AS,exp,25,←,left,←,0.7419143000151962,True,14,1,1,13
Y2-S2-056M23,2,201,AS,exp,26,↓,left,←,0.7959846999729052,False,13,-1,1,14
Y2-S2-056M23,2,202,AS,exp,50,→,right,→,1.7305831999983639,True,14,-1,0,14
Y2-S2-056M23,2,203,AS,exp,34,↓,down,↓,0.6065237000584602,True,14,-1,0,14
Y2-S2-056M23,2,204,AS,exp,32,→,left,←,1.0751286000013351,False,14,-1,0,14
Y2-S2-056M23,2,205,AS,exp,34,←,left,←,1.3161299000494182,True,15,-1,0,14
Y2-S2-056M23,2,206,AS,exp,31,↓,down,↓,0.8742865000385791,True,15,-1,0,14
Y2-S2-056M23,2,207,AS,exp,48,↑,up,↑,0.7208822999382392,True,15,1,1,15
Y2-S2-056M23,2,208,AS,exp,27,→,right,→,0.63384170003701,True,14,1,0,15
Y2-S2-056M23,2,209,AS,exp,40,↓,down,↓,0.7371041000587866,True,14,1,0,15
Y2-S2-056M23,2,210,AS,exp,26,←,right,→,0.8711572999600321,False,14,-1,1,16
Y2-S2-056M23,3,211,AS,intra_train,25,→,right,→,0.7340292999288067,True,21,-,-,-
Y2-S2-056M23,3,212,AS,intra_train,30,↑,up,↑,0.7673552000196651,True,21,-,-,-
Y2-S2-056M23,3,213,AS,intra_train,33,↓,down,↓,0.8717334000393748,True,21,-,-,-
Y2-S2-056M23,3,214,AS,intra_train,31,↑,up,↑,0.5748479999601841,True,21,-,-,-
Y2-S2-056M23,3,215,AS,intra_train,43,→,right,→,0.5619036999996752,True,21,-,-,-
Y2-S2-056M23,3,216,AS,exp,28,↓,down,↓,0.6898632000666112,True,14,0,0,0
Y2-S2-056M23,3,217,AS,exp,49,↑,up,↑,0.7838042000075802,True,14,0,0,0
Y2-S2-056M23,3,218,AS,exp,36,→,right,→,0.7001187999267131,True,14,1,0,0
Y2-S2-056M23,3,219,AS,exp,48,↑,up,↑,0.5072015000041574,True,13,1,0,0
Y2-S2-056M23,3,220,AS,exp,27,←,left,←,0.5818997999886051,True,13,1,0,0
Y2-S2-056M23,3,221,AS,exp,35,→,right,→,0.6617111000232399,True,13,1,0,0
Y2-S2-056M23,3,222,AS,exp,37,↑,up,↑,0.49126739997882396,True,12,1,0,0
Y2-S2-056M23,3,223,AS,exp,29,↓,down,↓,0.8754508000565693,True,12,1,0,0
Y2-S2-056M23,3,224,AS,exp,41,←,left,←,0.6154887999873608,True,12,1,0,0
Y2-S2-056M23,3,225,AS,exp,28,↓,up,↑,0.6795688999118283,False,11,-1,1,1
Y2-S2-056M23,3,226,AS,exp,32,→,right,→,0.6670487000374123,True,12,-1,0,1
Y2-S2-056M23,3,227,AS,exp,28,↓,no_key,no_letter,-1.0,False,12,-1,0,1
Y2-S2-056M23,3,228,AS,exp,41,→,right,→,0.5890501000685617,True,13,-1,0,1
Y2-S2-056M23,3,229,AS,exp,34,←,right,→,0.7635642000241205,False,13,-1,0,1
Y2-S2-056M23,3,230,AS,exp,27,↑,up,↑,0.5791614999761805,True,14,-1,0,1
Y2-S2-056M23,3,231,AS,exp,35,←,right,→,1.6179182000923902,False,14,-1,0,1
Y2-S2-056M23,3,232,AS,exp,38,→,right,→,0.6114866000134498,True,15,-1,0,1
Y2-S2-056M23,3,233,AS,exp,50,←,left,←,0.6458338999655098,True,15,-1,0,1
Y2-S2-056M23,3,234,AS,exp,26,→,right,→,0.761101400014013,True,15,1,1,2
Y2-S2-056M23,3,235,AS,exp,36,↑,up,↑,1.577783799963072,True,14,1,0,2
Y2-S2-056M23,3,236,AS,exp,39,↓,down,↓,1.0069156000390649,True,14,1,0,2
Y2-S2-056M23,3,237,AS,exp,34,←,right,→,1.0325586999533698,False,14,-1,1,3
Y2-S2-056M23,3,238,AS,exp,37,↓,down,↓,0.691449899924919,True,15,-1,0,3
Y2-S2-056M23,3,239,AS,exp,46,→,right,→,0.8094929000362754,True,15,-1,0,3
Y2-S2-056M23,3,240,AS,exp,42,↓,down,↓,0.6105650999816135,True,15,1,1,4
Y2-S2-056M23,3,241,AS,exp,27,↑,up,↑,0.7285675999009982,True,14,1,0,4
Y2-S2-056M23,3,242,AS,exp,31,→,right,→,0.7809074999531731,True,14,1,0,4
Y2-S2-056M23,3,243,AS,exp,43,←,left,←,1.3493400000734255,True,14,1,0,4
Y2-S2-056M23,3,244,AS,exp,39,↓,down,↓,0.6687694999855012,True,13,1,0,4
Y2-S2-056M23,3,245,AS,exp,40,↑,up,↑,0.6385516999289393,True,13,1,0,4
Y2-S2-056M23,3,246,AS,exp,42,↓,down,↓,0.9302456000586972,True,13,1,0,4
Y2-S2-056M23,3,247,AS,exp,42,↑,down,↓,1.01291360007599,False,12,-1,1,5
Y2-S2-056M23,3,248,AS,exp,28,←,up,↑,0.8512971000745893,False,13,-1,0,5
Y2-S2-056M23,3,249,AS,exp,32,↓,down,↓,0.6138094998896122,True,14,-1,0,5
Y2-S2-056M23,3,250,AS,exp,29,←,right,→,1.6405159999849275,False,14,-1,0,5
Y2-S2-056M23,3,251,AS,exp,29,→,right,→,0.6664093999424949,True,15,-1,0,5
Y2-S2-056M23,3,252,AS,exp,44,↓,down,↓,0.6580421000253409,True,15,-1,0,5
Y2-S2-056M23,3,253,AS,exp,25,←,left,←,0.6394256999483332,True,15,1,1,6
Y2-S2-056M23,3,254,AS,exp,37,→,left,←,0.8661142999771982,False,14,-1,1,7
Y2-S2-056M23,3,255,AS,exp,43,↓,down,↓,0.6148279999615625,True,15,-1,0,7
Y2-S2-056M23,3,256,AS,exp,27,↑,up,↑,0.6199306000489742,True,15,-1,0,7
Y2-S2-056M23,3,257,AS,exp,45,←,left,←,0.814812200027518,True,15,1,1,8
Y2-S2-056M23,3,258,AS,exp,28,→,left,←,0.7019617999903858,False,14,-1,1,9
Y2-S2-056M23,3,259,AS,exp,27,↓,down,↓,0.6766789000248536,True,15,-1,0,9
Y2-S2-056M23,3,260,AS,exp,33,↑,up,↑,0.4440007999073714,True,15,-1,0,9
Y2-S2-056M23,3,261,AS,exp,32,↓,down,↓,0.725507800001651,True,15,1,1,10
Y2-S2-056M23,3,262,AS,exp,43,→,right,→,1.2587279999861494,True,14,1,0,10
Y2-S2-056M23,3,263,AS,exp,39,↓,down,↓,0.5545014999806881,True,14,1,0,10
Y2-S2-056M23,3,264,AS,exp,30,←,left,←,0.6800013000611216,True,14,1,0,10
Y2-S2-056M23,3,265,AS,exp,43,→,right,→,0.4686493999324739,True,13,1,0,10
Y2-S2-056M23,3,266,AS,exp,49,↓,down,↓,0.5728614999679849,True,13,1,0,10
Y2-S2-056M23,3,267,AS,exp,47,←,left,←,0.5901971000712365,True,13,1,0,10
Y2-S2-056M23,3,268,AS,exp,44,→,right,→,0.535356100066565,True,12,1,0,10
Y2-S2-056M23,3,269,AS,exp,50,↓,right,→,1.1302817999385297,False,12,-1,1,11
Y2-S2-056M23,3,270,AS,exp,46,→,right,→,0.5426338000688702,True,13,-1,0,11
Y2-S2-056M23,3,271,AS,exp,40,←,left,←,0.6069806999294087,True,13,-1,0,11
Y2-S2-056M23,3,272,AS,exp,33,→,right,→,0.6515455000335351,True,13,1,1,12
Y2-S2-056M23,3,273,AS,exp,31,↑,left,←,0.7693396999966353,False,12,-1,1,13
Y2-S2-056M23,3,274,AS,exp,35,→,left,←,1.5927778000477701,False,13,-1,0,13
Y2-S2-056M23,3,275,AS,exp,45,↑,up,↑,0.890926199965179,True,14,-1,0,13
Y2-S2-056M23,3,276,AS,exp,40,→,right,→,0.6180042000487447,True,14,-1,0,13
Y2-S2-056M23,3,277,AS,exp,33,↓,down,↓,0.6996621999423951,True,14,1,1,14
Y2-S2-056M23,3,278,AS,exp,40,↑,down,↓,1.2587315000128,False,13,-1,1,15
Y2-S2-056M23,3,279,AS,exp,34,←,left,←,0.5698054000968114,True,14,-1,0,15
Y2-S2-056M23,3,280,AS,exp,42,↑,up,↑,0.6310592000372708,True,14,-1,0,15
Y2-S2-056M23,3,281,AS,exp,48,→,right,→,0.703527299920097,True,14,1,1,16
Y2-S2-056M23,4,282,PS,intra_train,46,↑,up,↑,0.4997537999879569,True,13,-,-,-
Y2-S2-056M23,4,283,PS,intra_train,35,↓,down,↓,0.5134508999763057,True,13,-,-,-
Y2-S2-056M23,4,284,PS,intra_train,34,→,right,→,0.4784952999325469,True,13,-,-,-
Y2-S2-056M23,4,285,PS,intra_train,34,↓,down,↓,0.45872760005295277,True,13,-,-,-
Y2-S2-056M23,4,286,PS,intra_train,47,↑,up,↑,0.43284309993032366,True,13,-,-,-
Y2-S2-056M23,4,287,PS,exp,25,↓,down,↓,0.45994780003093183,True,9,0,0,0
Y2-S2-056M23,4,288,PS,exp,43,↑,up,↑,0.41639139992184937,True,9,0,0,0
Y2-S2-056M23,4,289,PS,exp,26,→,up,↑,0.8208280999679118,False,9,-1,0,0
Y2-S2-056M23,4,290,PS,exp,43,↑,up,↑,0.38840329996310174,True,10,-1,0,0
Y2-S2-056M23,4,291,PS,exp,38,↓,down,↓,0.4366462000180036,True,10,-1,0,0
Y2-S2-056M23,4,292,PS,exp,29,←,left,←,0.49962409993167967,True,10,1,1,1
Y2-S2-056M23,4,293,PS,exp,25,→,right,→,0.4492856999859214,True,9,1,0,1
Y2-S2-056M23,4,294,PS,exp,45,↑,up,↑,0.49563679995480925,True,9,1,0,1
Y2-S2-056M23,4,295,PS,exp,46,↓,down,↓,0.48204510007053614,True,9,1,0,1
Y2-S2-056M23,4,296,PS,exp,27,←,left,←,0.4238787000067532,True,8,1,0,1
Y2-S2-056M23,4,297,PS,exp,37,↓,down,↓,0.49417319998610765,True,8,1,0,1
Y2-S2-056M23,4,298,PS,exp,34,→,right,→,0.4847648999420926,True,8,1,0,1
Y2-S2-056M23,4,299,PS,exp,42,↑,up,↑,0.5535237999865785,True,7,1,0,1
Y2-S2-056M23,4,300,PS,exp,39,→,right,→,0.4423440999817103,True,7,1,0,1
Y2-S2-056M23,4,301,PS,exp,25,↓,right,→,1.4146385000785813,False,7,-1,1,2
Y2-S2-056M23,4,302,PS,exp,47,→,right,→,0.606196100008674,True,8,-1,0,2
Y2-S2-056M23,4,303,PS,exp,36,↓,down,↓,0.4871240999782458,True,8,-1,0,2
Y2-S2-056M23,4,304,PS,exp,39,→,right,→,0.443639500066638,True,8,1,1,3
Y2-S2-056M23,4,305,PS,exp,26,←,left,←,0.4771158999064937,True,7,1,0,3
Y2-S2-056M23,4,306,PS,exp,50,→,right,→,0.38411360001191497,True,7,1,0,3
Y2-S2-056M23,4,307,PS,exp,39,↑,up,↑,0.40421229996718466,True,7,1,0,3
Y2-S2-056M23,4,308,PS,exp,47,↓,down,↓,0.5086526999948546,True,6,1,0,3
Y2-S2-056M23,4,309,PS,exp,34,→,down,↓,0.8138262999709696,False,6,-1,1,4
Y2-S2-056M23,4,310,PS,exp,33,↑,up,↑,0.3974127999972552,True,7,-1,0,4
Y2-S2-056M23,4,311,PS,exp,34,↓,down,↓,0.6725212000310421,True,7,-1,0,4
Y2-S2-056M23,4,312,PS,exp,26,←,left,←,0.5065666000591591,True,7,1,1,5
Y2-S2-056M23,4,313,PS,exp,41,→,left,←,1.4305284000001848,False,6,-1,1,6
Y2-S2-056M23,4,314,PS,exp,48,↑,up,↑,0.42539360001683235,True,7,-1,0,6
Y2-S2-056M23,4,315,PS,exp,47,→,right,→,0.43907550000585616,True,7,-1,0,6
Y2-S2-056M23,4,316,PS,exp,34,↑,up,↑,0.4283213000744581,True,7,1,1,7
Y2-S2-056M23,4,317,PS,exp,39,→,right,→,0.43264140002429485,True,6,1,0,7
Y2-S2-056M23,4,318,PS,exp,30,↓,down,↓,0.5137573999818414,True,6,1,0,7
Y2-S2-056M23,4,319,PS,exp,49,←,left,←,0.44249070005025715,True,6,1,0,7
Y2-S2-056M23,4,320,PS,exp,33,↑,up,↑,0.5608693000394851,True,5,1,0,7
Y2-S2-056M23,4,321,PS,exp,25,→,right,→,0.45313160005025566,True,5,1,0,7
Y2-S2-056M23,4,322,PS,exp,43,↑,up,↑,0.6555098999524489,True,5,1,0,7
Y2-S2-056M23,4,323,PS,exp,39,→,up,↑,0.590357800014317,False,4,-1,1,8
Y2-S2-056M23,4,324,PS,exp,45,↓,down,↓,1.2928517999826,True,5,-1,0,8
Y2-S2-056M23,4,325,PS,exp,41,↑,right,→,1.6238973999861628,False,5,-1,0,8
Y2-S2-056M23,4,326,PS,exp,26,→,right,→,0.6112449000356719,True,6,-1,0,8
Y2-S2-056M23,4,327,PS,exp,48,↑,up,↑,0.5333476999076083,True,6,-1,0,8
Y2-S2-056M23,4,328,PS,exp,45,→,right,→,0.9771430999971926,True,6,1,1,9
Y2-S2-056M23,4,329,PS,exp,46,↓,left,←,1.0146550999488682,False,5,-1,1,10
Y2-S2-056M23,4,330,PS,exp,33,↑,left,←,0.7054007999831811,False,6,-1,0,10
Y2-S2-056M23,4,331,PS,exp,50,←,left,←,0.7170699000125751,True,7,-1,0,10
Y2-S2-056M23,4,332,PS,exp,37,↑,up,↑,0.5011387999402359,True,7,-1,0,10
Y2-S2-056M23,4,333,PS,exp,25,↓,down,↓,0.6881776000373065,True,7,1,1,11
Y2-S2-056M23,4,334,PS,exp,48,→,right,→,0.5208559000166133,True,6,1,0,11
Y2-S2-056M23,4,335,PS,exp,37,←,left,←,0.5440506000304595,True,6,1,0,11
Y2-S2-056M23,4,336,PS,exp,33,↑,up,↑,0.5796373999910429,True,6,1,0,11
Y2-S2-056M23,4,337,PS,exp,38,→,right,→,0.4767696000635624,True,5,1,0,11
Y2-S2-056M23,4,338,PS,exp,37,↓,down,↓,0.6283671000273898,True,5,1,0,11
Y2-S2-056M23,4,339,PS,exp,25,→,right,→,0.6115453999955207,True,5,1,0,11
Y2-S2-056M23,4,340,PS,exp,36,↓,down,↓,1.06953480001539,True,4,1,0,11
Y2-S2-056M23,4,341,PS,exp,50,→,left,←,1.507795299985446,False,4,-1,1,12
Y2-S2-056M23,4,342,PS,exp,30,↑,up,↑,1.3261147999437526,True,5,-1,0,12
Y2-S2-056M23,4,343,PS,exp,35,→,right,→,1.0151631999760866,True,5,-1,0,12
Y2-S2-056M23,4,344,PS,exp,50,←,no_key,no_letter,-1.0,False,5,-1,0,12
Y2-S2-056M23,4,345,PS,exp,29,↑,left,←,0.7147423999849707,False,6,-1,0,12
Y2-S2-056M23,4,346,PS,exp,40,→,left,←,0.5611763000488281,False,7,-1,0,12
Y2-S2-056M23,4,347,PS,exp,45,←,left,←,0.6060106999939308,True,8,-1,0,12
Y2-S2-056M23,4,348,PS,exp,50,↓,down,↓,0.5018067000200972,True,8,-1,0,12
Y2-S2-056M23,4,349,PS,exp,41,←,left,←,0.7155785000650212,True,8,1,1,13
Y2-S2-056M23,4,350,PS,exp,45,↓,down,↓,0.7613132999977097,True,7,1,0,13
Y2-S2-056M23,4,351,PS,exp,32,→,right,→,0.48990059993229806,True,7,1,0,13
Y2-S2-056M23,4,352,PS,exp,40,←,right,→,0.6735552001046017,False,7,-1,1,14
Y2-S2-056M23,4,353,PS,exp,46,→,right,→,0.42783229995984584,True,8,-1,0,14
Y2-S2-056M23,4,354,PS,exp,37,↑,right,→,1.671549699967727,False,8,-1,0,14
Y2-S2-056M23,4,355,PS,exp,28,→,right,→,0.4993033000500873,True,9,-1,0,14
Y2-S2-056M23,4,356,PS,exp,37,↓,down,↓,0.536568200099282,True,9,-1,0,14
Y2-S2-056M23,4,357,PS,exp,33,→,right,→,0.44632710004225373,True,9,1,1,15
Y2-S2-056M23,4,358,PS,exp,48,←,left,←,0.782202500035055,True,8,1,0,15
Y2-S2-056M23,4,359,PS,exp,36,→,right,→,0.4632199000334367,True,8,1,0,15
Y2-S2-056M23,4,360,PS,exp,27,←,left,←,0.58110690000467,True,8,1,0,15
Y2-S2-056M23,4,361,PS,exp,32,↑,up,↑,0.5378742000320926,True,7,1,0,15
Y2-S2-056M23,4,362,PS,exp,35,→,right,→,0.5698486999608576,True,7,1,0,15
Y2-S2-056M23,4,363,PS,exp,37,↑,up,↑,0.6394893999677151,True,7,1,0,15
Y2-S2-056M23,4,364,PS,exp,28,←,left,←,0.7440858000190929,True,6,1,0,15
Y2-S2-056M23,4,365,PS,exp,35,→,right,→,0.6036916000302881,True,6,1,0,15
Y2-S2-056M23,4,366,PS,exp,28,↑,up,↑,0.5979305000510067,True,6,1,0,15
Y2-S2-056M23,4,367,PS,exp,29,→,right,→,0.6137769999913871,True,5,1,0,15
Y2-S2-056M23,4,368,PS,exp,42,↑,up,↑,0.5575232000555843,True,5,1,0,15
Y2-S2-056M23,4,369,PS,exp,30,←,left,←,0.6253869000356644,True,5,1,0,15
Y2-S2-056M23,4,370,PS,exp,49,↓,left,←,1.5330929999472573,False,4,-1,1,16
Y2-S2-056M23,5,371,PS,intra_train,44,←,left,←,0.4825700999936089,True,13,-,-,-
Y2-S2-056M23,5,372,PS,intra_train,43,↑,up,↑,0.5208481000736356,True,13,-,-,-
Y2-S2-056M23,5,373,PS,intra_train,45,→,right,→,0.3885191000299528,True,13,-,-,-
Y2-S2-056M23,5,374,PS,intra_train,37,↑,up,↑,0.3950274999951944,True,13,-,-,-
Y2-S2-056M23,5,375,PS,intra_train,36,←,left,←,0.4096008000196889,True,13,-,-,-
Y2-S2-056M23,5,376,PS,exp,49,→,right,→,0.44564519997220486,True,9,0,0,0
Y2-S2-056M23,5,377,PS,exp,34,↓,down,↓,0.5477507000323385,True,9,0,0,0
Y2-S2-056M23,5,378,PS,exp,36,↑,up,↑,0.4011584999971092,True,9,1,0,0
Y2-S2-056M23,5,379,PS,exp,41,←,left,←,0.42787110002245754,True,8,1,0,0
Y2-S2-056M23,5,380,PS,exp,34,↓,down,↓,0.5262319999746978,True,8,1,0,0
Y2-S2-056M23,5,381,PS,exp,40,→,right,→,0.43136729998514056,True,8,1,0,0
Y2-S2-056M23,5,382,PS,exp,49,←,left,←,0.6705424000974745,True,7,1,0,0
Y2-S2-056M23,5,383,PS,exp,36,↓,down,↓,0.5129604999674484,True,7,1,0,0
Y2-S2-056M23,5,384,PS,exp,27,←,left,←,0.6494633000111207,True,7,1,0,0
Y2-S2-056M23,5,385,PS,exp,46,↑,left,←,0.6933630000567064,False,6,-1,1,1
Y2-S2-056M23,5,386,PS,exp,25,←,left,←,0.5792442000238225,True,7,-1,0,1
Y2-S2-056M23,5,387,PS,exp,26,↑,up,↑,0.5141003000317141,True,7,-1,0,1
Y2-S2-056M23,5,388,PS,exp,37,↓,down,↓,0.48885630001313984,True,7,1,1,2
Y2-S2-056M23,5,389,PS,exp,43,↑,up,↑,0.6525001000845805,True,6,1,0,2
Y2-S2-056M23,5,390,PS,exp,35,↓,down,↓,0.7078910999698564,True,6,1,0,2
Y2-S2-056M23,5,391,PS,exp,35,↑,up,↑,0.4903949999716133,True,6,1,0,2
Y2-S2-056M23,5,392,PS,exp,47,→,no_key,no_letter,-1.0,False,5,-1,1,3
Y2-S2-056M23,5,393,PS,exp,45,←,left,←,0.5624427000293508,True,6,-1,0,3
Y2-S2-056M23,5,394,PS,exp,39,↓,down,↓,0.5555804000468925,True,6,-1,0,3
Y2-S2-056M23,5,395,PS,exp,29,←,left,←,0.7158356999279931,True,6,1,1,4
Y2-S2-056M23,5,396,PS,exp,33,→,no_key,no_letter,-1.0,False,5,-1,1,5
Y2-S2-056M23,5,397,PS,exp,33,←,left,←,0.5646945000626147,True,6,-1,0,5
Y2-S2-056M23,5,398,PS,exp,49,↓,down,↓,0.6147738000145182,True,6,-1,0,5
Y2-S2-056M23,5,399,PS,exp,45,→,right,→,0.8159618999343365,True,6,1,1,6
Y2-S2-056M23,5,400,PS,exp,39,↓,down,↓,0.5139810999389738,True,5,1,0,6
Y2-S2-056M23,5,401,PS,exp,25,↑,down,↓,0.6073532999726012,False,5,-1,1,7
Y2-S2-056M23,5,402,PS,exp,42,←,left,←,0.5583004999207333,True,6,-1,0,7
Y2-S2-056M23,5,403,PS,exp,29,↓,down,↓,0.6572612000163645,True,6,-1,0,7
Y2-S2-056M23,5,404,PS,exp,28,↑,left,←,1.2189968000166118,False,6,-1,0,7
Y2-S2-056M23,5,405,PS,exp,47,↓,down,↓,0.549735700013116,True,7,-1,0,7
Y2-S2-056M23,5,406,PS,exp,25,←,left,←,0.6024814000120386,True,7,-1,0,7
Y2-S2-056M23,5,407,PS,exp,36,→,right,→,0.6076277999673039,True,7,1,1,8
Y2-S2-056M23,5,408,PS,exp,30,↑,no_key,no_letter,-1.0,False,6,-1,1,9
Y2-S2-056M23,5,409,PS,exp,30,↓,down,↓,0.5227232000324875,True,7,-1,0,9
Y2-S2-056M23,5,410,PS,exp,26,↑,up,↑,0.6043830000562593,True,7,-1,0,9
Y2-S2-056M23,5,411,PS,exp,50,←,left,←,0.9984996999846771,True,7,1,1,10
Y2-S2-056M23,5,412,PS,exp,50,→,right,→,0.5515374999959022,True,6,1,0,10
Y2-S2-056M23,5,413,PS,exp,28,↓,down,↓,0.5401926999911666,True,6,1,0,10
Y2-S2-056M23,5,414,PS,exp,37,←,left,←,0.5345431000459939,True,6,1,0,10
Y2-S2-056M23,5,415,PS,exp,29,→,right,→,0.49606809997931123,True,5,1,0,10
Y2-S2-056M23,5,416,PS,exp,26,↑,left,←,0.6001688999822363,False,5,-1,1,11
Y2-S2-056M23,5,417,PS,exp,30,←,left,←,0.5525942000094801,True,6,-1,0,11
Y2-S2-056M23,5,418,PS,exp,46,→,right,→,0.9824564999435097,True,6,-1,0,11
Y2-S2-056M23,5,419,PS,exp,30,←,left,←,0.6233623999869451,True,6,1,1,12
Y2-S2-056M23,5,420,PS,exp,40,→,right,→,0.5814444000134245,True,5,1,0,12
Y2-S2-056M23,5,421,PS,exp,29,↓,no_key,no_letter,-1.0,False,5,-1,1,13
Y2-S2-056M23,5,422,PS,exp,49,↑,up,↑,0.4662041000556201,True,6,-1,0,13
Y2-S2-056M23,5,423,PS,exp,46,→,right,→,0.4577481000451371,True,6,-1,0,13
Y2-S2-056M23,5,424,PS,exp,32,↓,down,↓,0.602246200083755,True,6,1,1,14
Y2-S2-056M23,5,425,PS,exp,48,→,right,→,0.6178473000181839,True,5,1,0,14
Y2-S2-056M23,5,426,PS,exp,49,↓,down,↓,0.5309865999734029,True,5,1,0,14
Y2-S2-056M23,5,427,PS,exp,41,→,right,→,0.4916092000203207,True,5,1,0,14
Y2-S2-056M23,5,428,PS,exp,34,↑,right,→,0.5728758999612182,False,4,-1,1,15
Y2-S2-056M23,5,429,PS,exp,50,←,no_key,no_letter,-1.0,False,5,-1,0,15
Y2-S2-056M23,5,430,PS,exp,45,→,right,→,0.921903399983421,True,6,-1,0,15
Y2-S2-056M23,5,431,PS,exp,27,←,left,←,0.5312391999177635,True,6,-1,0,15
Y2-S2-056M23,5,432,PS,exp,34,↓,down,↓,0.5918959999689832,True,6,1,1,16
Y2-S2-056M23,6,433,AS,intra_train,38,↑,up,↑,0.7712843000190333,True,21,-,-,-
Y2-S2-056M23,6,434,AS,intra_train,48,→,right,→,0.6879439000040293,True,21,-,-,-
Y2-S2-056M23,6,435,AS,intra_train,26,↑,up,↑,0.5945222999434918,True,21,-,-,-
Y2-S2-056M23,6,436,AS,intra_train,38,→,right,→,0.4671231999527663,True,21,-,-,-
Y2-S2-056M23,6,437,AS,intra_train,29,↑,up,↑,0.4841687000589445,True,21,-,-,-
Y2-S2-056M23,6,438,AS,exp,32,↓,no_key,no_letter,-1.0,False,14,-1,0,0
Y2-S2-056M23,6,439,AS,exp,36,→,right,→,0.8183935000561178,True,15,-1,0,0
Y2-S2-056M23,6,440,AS,exp,25,↑,up,↑,0.5916531999828294,True,15,-1,0,0
Y2-S2-056M23,6,441,AS,exp,42,←,left,←,0.6257126000709832,True,15,1,1,1
Y2-S2-056M23,6,442,AS,exp,49,↓,up,↑,0.8449933999218047,False,14,-1,1,2
Y2-S2-056M23,6,443,AS,exp,37,→,right,→,0.6008480999153107,True,15,-1,0,2
Y2-S2-056M23,6,444,AS,exp,29,↓,down,↓,0.8176104000303894,True,15,-1,0,2
Y2-S2-056M23,6,445,AS,exp,41,→,right,→,0.5784269000869244,True,15,1,1,3
Y2-S2-056M23,6,446,AS,exp,47,←,left,←,0.6245009999256581,True,14,1,0,3
Y2-S2-056M23,6,447,AS,exp,28,↓,down,↓,0.6738526999251917,True,14,1,0,3
Y2-S2-056M23,6,448,AS,exp,38,→,right,→,0.5388525000307709,True,14,1,0,3
Y2-S2-056M23,6,449,AS,exp,27,←,left,←,0.7089757999638095,True,13,1,0,3
Y2-S2-056M23,6,450,AS,exp,30,→,right,→,0.5842077999841422,True,13,1,0,3
Y2-S2-056M23,6,451,AS,exp,36,↑,up,↑,0.9176095000002533,True,13,1,0,3
Y2-S2-056M23,6,452,AS,exp,32,←,left,←,0.7691525999689475,True,12,1,0,3
Y2-S2-056M23,6,453,AS,exp,43,↓,no_key,no_letter,-1.0,False,12,-1,1,4
Y2-S2-056M23,6,454,AS,exp,30,←,left,←,0.5844441000372171,True,13,-1,0,4
Y2-S2-056M23,6,455,AS,exp,41,↑,up,↑,0.8080806999932975,True,13,-1,0,4
Y2-S2-056M23,6,456,AS,exp,39,→,right,→,0.5493760999524966,True,13,1,1,5
Y2-S2-056M23,6,457,AS,exp,50,↑,up,↑,0.5421409999253228,True,12,1,0,5
Y2-S2-056M23,6,458,AS,exp,39,↓,down,↓,0.7058417000807822,True,12,1,0,5
Y2-S2-056M23,6,459,AS,exp,31,→,right,→,0.49892339995130897,True,12,1,0,5
Y2-S2-056M23,6,460,AS,exp,31,↑,no_key,no_letter,-1.0,False,11,-1,1,6
Y2-S2-056M23,6,461,AS,exp,26,↓,up,↑,0.7985055000754073,False,12,-1,0,6
Y2-S2-056M23,6,462,AS,exp,34,→,right,→,0.5216237000422552,True,13,-1,0,6
Y2-S2-056M23,6,463,AS,exp,29,↑,up,↑,0.827886400045827,True,13,-1,0,6
Y2-S2-056M23,6,464,AS,exp,31,↓,down,↓,0.7369352000532672,True,13,1,1,7
Y2-S2-056M23,6,465,AS,exp,43,→,left,←,1.2407330999849364,False,12,-1,1,8
Y2-S2-056M23,6,466,AS,exp,50,←,left,←,1.2757679000496864,True,13,-1,0,8
Y2-S2-056M23,6,467,AS,exp,49,↓,down,↓,0.7514151999494061,True,13,-1,0,8
Y2-S2-056M23,6,468,AS,exp,29,←,left,←,0.5978316999971867,True,13,1,1,9
Y2-S2-056M23,6,469,AS,exp,33,↑,no_key,no_letter,-1.0,False,12,-1,1,10
Y2-S2-056M23,6,470,AS,exp,34,↓,up,↑,1.0787722000386566,False,13,-1,0,10
Y2-S2-056M23,6,471,AS,exp,50,←,left,←,0.678567000082694,True,14,-1,0,10
Y2-S2-056M23,6,472,AS,exp,43,↓,down,↓,0.6951733999885619,True,14,-1,0,10
Y2-S2-056M23,6,473,AS,exp,35,←,left,←,0.5443934999639168,True,14,1,1,11
Y2-S2-056M23,6,474,AS,exp,33,↓,down,↓,0.5716669999528676,True,13,1,0,11
Y2-S2-056M23,6,475,AS,exp,40,←,left,←,0.494442000053823,True,13,1,0,11
Y2-S2-056M23,6,476,AS,exp,42,↓,no_key,no_letter,-1.0,False,13,-1,1,12
Y2-S2-056M23,6,477,AS,exp,44,←,left,←,0.7432275000028312,True,14,-1,0,12
Y2-S2-056M23,6,478,AS,exp,46,↑,down,↓,0.8842915999703109,False,14,-1,0,12
Y2-S2-056M23,6,479,AS,exp,47,↓,down,↓,0.5371774999657646,True,15,-1,0,12
Y2-S2-056M23,6,480,AS,exp,32,↑,down,↓,0.7644753999775276,False,15,-1,0,12
Y2-S2-056M23,6,481,AS,exp,33,↓,down,↓,0.8096803999505937,True,16,-1,0,12
Y2-S2-056M23,6,482,AS,exp,31,↑,up,↑,0.5817303999792784,True,16,-1,0,12
Y2-S2-056M23,6,483,AS,exp,33,←,left,←,0.5135529999388382,True,16,1,1,13
Y2-S2-056M23,6,484,AS,exp,39,↑,no_key,no_letter,-1.0,False,15,-1,1,14
Y2-S2-056M23,6,485,AS,exp,27,↓,down,↓,0.6485256999731064,True,16,-1,0,14
Y2-S2-056M23,6,486,AS,exp,29,←,left,←,0.5769986000377685,True,16,-1,0,14
Y2-S2-056M23,6,487,AS,exp,26,↑,down,↓,1.2982411000411958,False,16,-1,0,14
Y2-S2-056M23,6,488,AS,exp,42,→,right,→,0.6711861999938264,True,17,-1,0,14
Y2-S2-056M23,6,489,AS,exp,47,↓,down,↓,0.6806425999384373,True,17,-1,0,14
Y2-S2-056M23,6,490,AS,exp,44,←,left,←,0.531665200018324,True,17,1,1,15
Y2-S2-056M23,6,491,AS,exp,36,↑,up,↑,0.6696481000399217,True,16,1,0,15
Y2-S2-056M23,6,492,AS,exp,27,←,left,←,0.8238188000395894,True,16,1,0,15
Y2-S2-056M23,6,493,AS,exp,39,↓,down,↓,0.6992084999801591,True,16,1,0,15
Y2-S2-056M23,6,494,AS,exp,45,→,right,→,0.7292435000417754,True,15,1,0,15
Y2-S2-056M23,6,495,AS,exp,45,↓,down,↓,0.659657199983485,True,15,1,0,15
Y2-S2-056M23,6,496,AS,exp,46,↑,up,↑,0.6591917999321595,True,15,1,0,15
Y2-S2-056M23,6,497,AS,exp,44,←,down,↓,0.8052827001083642,False,14,-1,1,16
Y2-S2-056M23,7,498,AS,intra_train,49,↓,down,↓,0.7519759000279009,True,21,-,-,-
Y2-S2-056M23,7,499,AS,intra_train,45,↑,up,↑,0.7378915000008419,True,21,-,-,-
Y2-S2-056M23,7,500,AS,intra_train,40,→,right,→,0.5993244000710547,True,21,-,-,-
Y2-S2-056M23,7,501,AS,intra_train,27,↑,up,↑,0.5655226999660954,True,21,-,-,-
Y2-S2-056M23,7,502,AS,intra_train,34,←,left,←,0.5745255999499932,True,21,-,-,-
Y2-S2-056M23,7,503,AS,exp,26,↓,down,↓,0.5925864999881014,True,14,0,0,0
Y2-S2-056M23,7,504,AS,exp,40,→,right,→,0.5817536000395194,True,14,0,0,0
Y2-S2-056M23,7,505,AS,exp,38,↑,left,←,1.3986570000415668,False,14,-1,0,0
Y2-S2-056M23,7,506,AS,exp,26,←,no_key,no_letter,-1.0,False,15,-1,0,0
Y2-S2-056M23,7,507,AS,exp,27,↑,up,↑,0.5737694000126794,True,16,-1,0,0
Y2-S2-056M23,7,508,AS,exp,28,↓,down,↓,0.7195495000341907,True,16,-1,0,0
Y2-S2-056M23,7,509,AS,exp,31,↑,up,↑,0.5677629000274464,True,16,1,1,1
Y2-S2-056M23,7,510,AS,exp,46,↓,down,↓,0.7003182000480592,True,15,1,0,1
Y2-S2-056M23,7,511,AS,exp,50,←,left,←,0.43572790001053363,True,15,1,0,1
Y2-S2-056M23,7,512,AS,exp,31,↓,down,↓,0.7666886000661179,True,15,1,0,1
Y2-S2-056M23,7,513,AS,exp,48,↑,up,↑,0.4627771999221295,True,14,1,0,1
Y2-S2-056M23,7,514,AS,exp,46,→,up,↑,1.439150599995628,False,14,-1,1,2
Y2-S2-056M23,7,515,AS,exp,44,↓,up,↑,0.8661524999188259,False,15,-1,0,2
Y2-S2-056M23,7,516,AS,exp,40,↑,up,↑,0.5423872999381274,True,16,-1,0,2
Y2-S2-056M23,7,517,AS,exp,34,↓,down,↓,0.7109540000092238,True,16,-1,0,2
Y2-S2-056M23,7,518,AS,exp,39,→,right,→,0.5597775999922305,True,16,1,1,3
Y2-S2-056M23,7,519,AS,exp,48,←,left,←,0.43542400002479553,True,15,1,0,3
Y2-S2-056M23,7,520,AS,exp,26,↑,no_key,no_letter,-1.0,False,15,-1,1,4
Y2-S2-056M23,7,521,AS,exp,47,←,left,←,0.7809215999441221,True,16,-1,0,4
Y2-S2-056M23,7,522,AS,exp,31,→,right,→,0.5464251999510452,True,16,-1,0,4
Y2-S2-056M23,7,523,AS,exp,32,↑,up,↑,0.8031727999914438,True,16,1,1,5
Y2-S2-056M23,7,524,AS,exp,38,→,right,→,0.5062144999392331,True,15,1,0,5
Y2-S2-056M23,7,525,AS,exp,29,↓,no_key,no_letter,-1.0,False,15,-1,1,6
Y2-S2-056M23,7,526,AS,exp,38,←,left,←,0.7233619000762701,True,16,-1,0,6
Y2-S2-056M23,7,527,AS,exp,39,→,right,→,0.695325699984096,True,16,-1,0,6
Y2-S2-056M23,7,528,AS,exp,25,←,left,←,0.84555620001629,True,16,1,1,7
Y2-S2-056M23,7,529,AS,exp,30,↑,up,↑,0.680647199973464,True,15,1,0,7
Y2-S2-056M23,7,530,AS,exp,37,↓,up,↑,1.1178131999913603,False,15,-1,1,8
Y2-S2-056M23,7,531,AS,exp,47,←,left,←,0.7537891999818385,True,16,-1,0,8
Y2-S2-056M23,7,532,AS,exp,43,↑,up,↑,1.3076770999468863,True,16,-1,0,8
Y2-S2-056M23,7,533,AS,exp,36,→,right,→,0.6791395000182092,True,16,1,1,9
Y2-S2-056M23,7,534,AS,exp,35,←,left,←,0.7073440999956802,True,15,1,0,9
Y2-S2-056M23,7,535,AS,exp,50,↓,down,↓,0.666725300019607,True,15,1,0,9
Y2-S2-056M23,7,536,AS,exp,38,→,right,→,0.5628134999424219,True,15,1,0,9
Y2-S2-056M23,7,537,AS,exp,39,↓,down,↓,0.640425099991262,True,14,1,0,9
Y2-S2-056M23,7,538,AS,exp,33,→,right,→,0.5347984000109136,True,14,1,0,9
Y2-S2-056M23,7,539,AS,exp,38,←,left,←,0.5347407000372186,True,14,1,0,9
Y2-S2-056M23,7,540,AS,exp,41,→,right,→,1.2399585000239313,True,13,1,0,9
Y2-S2-056M23,7,541,AS,exp,32,↓,down,↓,0.7737716999836266,True,13,1,0,9
Y2-S2-056M23,7,542,AS,exp,49,↑,up,↑,0.8622362000169232,True,13,1,0,9
Y2-S2-056M23,7,543,AS,exp,46,→,up,↑,1.5738663000520319,False,12,-1,1,10
Y2-S2-056M23,7,544,AS,exp,36,↓,down,↓,0.6145462000276893,True,13,-1,0,10
Y2-S2-056M23,7,545,AS,exp,49,→,no_key,no_letter,-1.0,False,13,-1,0,10
Y2-S2-056M23,7,546,AS,exp,39,↓,down,↓,0.7030843999236822,True,14,-1,0,10
Y2-S2-056M23,7,547,AS,exp,33,↑,up,↑,0.767679600045085,True,14,-1,0,10
Y2-S2-056M23,7,548,AS,exp,48,→,right,→,0.5922361999982968,True,14,1,1,11
Y2-S2-056M23,7,549,AS,exp,49,↑,up,↑,0.714109499938786,True,13,1,0,11
Y2-S2-056M23,7,550,AS,exp,47,↓,up,↑,0.765314899967052,False,13,-1,1,12
Y2-S2-056M23,7,551,AS,exp,32,←,right,→,0.6669073000084609,False,14,-1,0,12
Y2-S2-056M23,7,552,AS,exp,32,↑,up,↑,0.7154838000424206,True,15,-1,0,12
Y2-S2-056M23,7,553,AS,exp,38,↓,down,↓,0.5196791000198573,True,15,-1,0,12
Y2-S2-056M23,7,554,AS,exp,31,→,right,→,0.5766211000736803,True,15,1,1,13
Y2-S2-056M23,7,555,AS,exp,32,↓,up,↑,0.726407999987714,False,14,-1,1,14
Y2-S2-056M23,7,556,AS,exp,36,↑,up,↑,0.591579100000672,True,15,-1,0,14
Y2-S2-056M23,7,557,AS,exp,40,↓,up,↑,0.76534239994362,False,15,-1,0,14
Y2-S2-056M23,7,558,AS,exp,46,↑,up,↑,0.6716509000398219,True,16,-1,0,14
Y2-S2-056M23,7,559,AS,exp,31,→,right,→,0.8665959000354633,True,16,-1,0,14
Y2-S2-056M23,7,560,AS,exp,25,↑,up,↑,0.5606741999508813,True,16,1,1,15
Y2-S2-056M23,7,561,AS,exp,28,←,left,←,0.7980741000501439,True,15,1,0,15
Y2-S2-056M23,7,562,AS,exp,27,↑,up,↑,0.4677416000049561,True,15,1,0,15
Y2-S2-056M23,7,563,AS,exp,44,←,left,←,0.49503200000617653,True,15,1,0,15
Y2-S2-056M23,7,564,AS,exp,48,→,right,→,0.653804500005208,True,14,1,0,15
Y2-S2-056M23,7,565,AS,exp,44,↑,up,↑,0.531756000011228,True,14,1,0,15
Y2-S2-056M23,7,566,AS,exp,48,→,right,→,0.5508108999347314,True,14,1,0,15
Y2-S2-056M23,7,567,AS,exp,27,↓,up,↑,0.7479582999367267,False,13,-1,1,16
Y2-S2-056M23,8,568,PS,intra_train,42,↑,up,↑,0.5150356999365613,True,13,-,-,-
Y2-S2-056M23,8,569,PS,intra_train,32,←,left,←,0.44484569993801415,True,13,-,-,-
Y2-S2-056M23,8,570,PS,intra_train,38,→,right,→,0.4047319999663159,True,13,-,-,-
Y2-S2-056M23,8,571,PS,intra_train,26,↑,up,↑,0.4087491000536829,True,13,-,-,-
Y2-S2-056M23,8,572,PS,intra_train,48,↓,down,↓,0.6940309000201523,True,13,-,-,-
Y2-S2-056M23,8,573,PS,exp,28,↑,up,↑,0.4932465000310913,True,9,0,0,0
Y2-S2-056M23,8,574,PS,exp,30,→,right,→,1.0885020999703556,True,9,0,0,0
Y2-S2-056M23,8,575,PS,exp,37,↑,up,↑,0.4166675000451505,True,9,1,0,0
Y2-S2-056M23,8,576,PS,exp,32,↓,down,↓,0.5523823000257835,True,8,1,0,0
Y2-S2-056M23,8,577,PS,exp,33,↑,up,↑,0.46592250000685453,True,8,1,0,0
Y2-S2-056M23,8,578,PS,exp,29,←,left,←,0.450892599998042,True,8,1,0,0
Y2-S2-056M23,8,579,PS,exp,33,↓,down,↓,0.54750620003324,True,7,1,0,0
Y2-S2-056M23,8,580,PS,exp,47,→,down,↓,0.9362661000341177,False,7,-1,1,1
Y2-S2-056M23,8,581,PS,exp,33,↓,down,↓,0.45764919999055564,True,8,-1,0,1
Y2-S2-056M23,8,582,PS,exp,30,↑,up,↑,0.46176760003436357,True,8,-1,0,1
Y2-S2-056M23,8,583,PS,exp,36,→,right,→,0.42512349993921816,True,8,1,1,2
Y2-S2-056M23,8,584,PS,exp,39,↓,down,↓,0.513823900022544,True,7,1,0,2
Y2-S2-056M23,8,585,PS,exp,38,→,right,→,0.5709468999411911,True,7,1,0,2
Y2-S2-056M23,8,586,PS,exp,33,↑,up,↑,0.5033237000461668,True,7,1,0,2
Y2-S2-056M23,8,587,PS,exp,37,↓,down,↓,0.5477487000171095,True,6,1,0,2
Y2-S2-056M23,8,588,PS,exp,28,←,left,←,0.5034810999641195,True,6,1,0,2
Y2-S2-056M23,8,589,PS,exp,25,→,right,→,0.43933730002027005,True,6,1,0,2
Y2-S2-056M23,8,590,PS,exp,45,↓,down,↓,0.4675773000344634,True,5,1,0,2
Y2-S2-056M23,8,591,PS,exp,32,←,left,←,0.596628199913539,True,5,1,0,2
Y2-S2-056M23,8,592,PS,exp,33,↓,down,↓,0.4566658999538049,True,5,1,0,2
Y2-S2-056M23,8,593,PS,exp,30,←,left,←,0.5556155999656767,True,4,1,0,2
Y2-S2-056M23,8,594,PS,exp,33,↓,down,↓,0.48735389998182654,True,4,1,0,2
Y2-S2-056M23,8,595,PS,exp,39,←,down,↓,1.5569406000431627,False,4,-1,1,3
Y2-S2-056M23,8,596,PS,exp,26,↑,up,↑,0.5269087000051513,True,5,-1,0,3
Y2-S2-056M23,8,597,PS,exp,41,↓,down,↓,0.5041324000339955,True,5,-1,0,3
Y2-S2-056M23,8,598,PS,exp,29,←,left,←,0.5002910000039265,True,5,1,1,4
Y2-S2-056M23,8,599,PS,exp,47,↑,right,→,0.679137900006026,False,4,-1,1,5
Y2-S2-056M23,8,600,PS,exp,36,↓,no_key,no_letter,-1.0,False,5,-1,0,5
Y2-S2-056M23,8,601,PS,exp,39,↑,up,↑,0.5058696999913082,True,6,-1,0,5
Y2-S2-056M23,8,602,PS,exp,34,→,right,→,0.4407311000395566,True,6,-1,0,5
Y2-S2-056M23,8,603,PS,exp,34,↓,right,→,0.6140204999828711,False,6,-1,0,5
Y2-S2-056M23,8,604,PS,exp,35,←,left,←,0.7121199000393972,True,7,-1,0,5
Y2-S2-056M23,8,605,PS,exp,25,↓,down,↓,0.5384313999675214,True,7,-1,0,5
Y2-S2-056M23,8,606,PS,exp,30,←,left,←,0.5166560999350622,True,7,1,1,6
Y2-S2-056M23,8,607,PS,exp,33,↓,no_key,no_letter,-1.0,False,6,-1,1,7
Y2-S2-056M23,8,608,PS,exp,42,→,right,→,0.390728099970147,True,7,-1,0,7
Y2-S2-056M23,8,609,PS,exp,38,↓,down,↓,0.5809479999588802,True,7,-1,0,7
Y2-S2-056M23,8,610,PS,exp,31,↑,up,↑,0.46772620000410825,True,7,1,1,8
Y2-S2-056M23,8,611,PS,exp,29,↓,down,↓,0.6866330000339076,True,6,1,0,8
Y2-S2-056M23,8,612,PS,exp,40,←,left,←,0.7307863000314683,True,6,1,0,8
Y2-S2-056M23,8,613,PS,exp,37,→,right,→,0.6965067000128329,True,6,1,0,8
Y2-S2-056M23,8,614,PS,exp,27,←,right,→,0.5092675000196323,False,5,-1,1,9
Y2-S2-056M23,8,615,PS,exp,37,→,right,→,0.42546559998299927,True,6,-1,0,9
Y2-S2-056M23,8,616,PS,exp,50,←,left,←,0.4728362000314519,True,6,-1,0,9
Y2-S2-056M23,8,617,PS,exp,37,→,left,←,0.9508160999976099,False,6,-1,0,9
Y2-S2-056M23,8,618,PS,exp,42,↓,down,↓,0.5679951999336481,True,7,-1,0,9
Y2-S2-056M23,8,619,PS,exp,43,↑,up,↑,0.5346922000171617,True,7,-1,0,9
Y2-S2-056M23,8,620,PS,exp,25,↓,down,↓,0.46494229999370873,True,7,1,1,10
Y2-S2-056M23,8,621,PS,exp,42,←,left,←,0.48666419996879995,True,6,1,0,10
Y2-S2-056M23,8,622,PS,exp,28,↑,up,↑,0.5913506000069901,True,6,1,0,10
Y2-S2-056M23,8,623,PS,exp,34,←,left,←,0.6186283000279218,True,6,1,0,10
Y2-S2-056M23,8,624,PS,exp,25,→,right,→,0.6680104000261053,True,5,1,0,10
Y2-S2-056M23,8,625,PS,exp,29,↑,up,↑,0.4719185000285506,True,5,1,0,10
Y2-S2-056M23,8,626,PS,exp,25,↓,down,↓,0.5228483999380842,True,5,1,0,10
Y2-S2-056M23,8,627,PS,exp,44,→,right,→,0.5537963999668136,True,4,1,0,10
Y2-S2-056M23,8,628,PS,exp,46,↓,down,↓,0.5646119000157341,True,4,1,0,10
Y2-S2-056M23,8,629,PS,exp,26,→,right,→,0.5089453000109643,True,4,1,0,10
Y2-S2-056M23,8,630,PS,exp,25,←,no_key,no_letter,-1.0,False,3,-1,1,11
Y2-S2-056M23,8,631,PS,exp,46,↑,up,↑,0.43805850006174296,True,4,-1,0,11
Y2-S2-056M23,8,632,PS,exp,29,↓,up,↑,0.5331172000151128,False,4,-1,0,11
Y2-S2-056M23,8,633,PS,exp,45,↑,right,→,0.7230164000065997,False,5,-1,0,11
Y2-S2-056M23,8,634,PS,exp,41,→,right,→,0.8095973000163212,True,6,-1,0,11
Y2-S2-056M23,8,635,PS,exp,27,↓,right,→,0.7966989999404177,False,6,-1,0,11
Y2-S2-056M23,8,636,PS,exp,28,→,right,→,0.47673840005882084,True,7,-1,0,11
Y2-S2-056M23,8,637,PS,exp,32,↓,down,↓,0.6150055000325665,True,7,-1,0,11
Y2-S2-056M23,8,638,PS,exp,48,←,left,←,0.5766779000405222,True,7,1,1,12
Y2-S2-056M23,8,639,PS,exp,26,→,right,→,0.3806984000839293,True,6,1,0,12
Y2-S2-056M23,8,640,PS,exp,29,↓,down,↓,0.45236970006953925,True,6,1,0,12
Y2-S2-056M23,8,641,PS,exp,27,→,left,←,0.5426775999367237,False,6,-1,1,13
Y2-S2-056M23,8,642,PS,exp,36,←,left,←,0.4751096999971196,True,7,-1,0,13
Y2-S2-056M23,8,643,PS,exp,46,↑,up,↑,0.5469512999989092,True,7,-1,0,13
Y2-S2-056M23,8,644,PS,exp,29,←,left,←,0.4329257000936195,True,7,1,1,14
Y2-S2-056M23,8,645,PS,exp,42,→,no_key,no_letter,-1.0,False,6,-1,1,15
Y2-S2-056M23,8,646,PS,exp,38,↑,left,←,0.7619994999840856,False,7,-1,0,15
Y2-S2-056M23,8,647,PS,exp,30,←,left,←,0.4476702999090776,True,8,-1,0,15
Y2-S2-056M23,8,648,PS,exp,32,→,right,→,0.48770499997772276,True,8,-1,0,15
Y2-S2-056M23,8,649,PS,exp,47,↑,up,↑,0.43837419990450144,True,8,1,1,16
