PART_ID,Block_no,Trial_no,Block_type,Trial_type,CSI,Stim_letter,Key_pressed,letter_choose,Rt,Corr,Stimulus Time,Level,Reversal,Revs_count
Y2-S2-257K25,1,1,PS,train,43,↓,down,↓,1.40724360011518,True,30,-,-,-
Y2-S2-257K25,1,2,PS,train,36,←,left,←,1.4295122995972633,True,30,-,-,-
Y2-S2-257K25,1,3,PS,train,38,↑,up,↑,0.6005833996459842,True,30,-,-,-
Y2-S2-257K25,1,4,PS,train,39,→,right,→,2.0389849999919534,True,30,-,-,-
Y2-S2-257K25,1,5,PS,train,48,↓,down,↓,0.7156536001712084,True,30,-,-,-
Y2-S2-257K25,1,6,PS,train,31,↑,up,↑,0.9112054007127881,True,30,-,-,-
Y2-S2-257K25,1,7,PS,train,49,↓,down,↓,0.7460282994434237,True,30,-,-,-
Y2-S2-257K25,1,8,PS,train,30,→,right,→,0.5344778001308441,True,30,-,-,-
Y2-S2-257K25,1,9,PS,train,26,↓,down,↓,0.7284248005598783,True,30,-,-,-
Y2-S2-257K25,1,10,PS,train,44,←,left,←,0.8468493996188045,True,30,-,-,-
Y2-S2-257K25,2,11,AS,train,27,↓,down,↓,0.750603299587965,True,45,-,-,-
Y2-S2-257K25,2,12,AS,train,41,←,left,←,0.8506851000711322,True,45,-,-,-
Y2-S2-257K25,2,13,AS,train,29,↓,down,↓,0.8005974004045129,True,45,-,-,-
Y2-S2-257K25,2,14,AS,train,32,↑,no_key,no_letter,-1.0,False,45,-,-,-
Y2-S2-257K25,2,15,AS,train,39,↓,down,↓,0.6178425000980496,True,45,-,-,-
Y2-S2-257K25,2,16,AS,train,48,↑,up,↑,1.0237719994038343,True,45,-,-,-
Y2-S2-257K25,2,17,AS,train,25,←,left,←,0.9278835998848081,True,45,-,-,-
Y2-S2-257K25,2,18,AS,train,42,↑,up,↑,0.7505406001582742,True,45,-,-,-
Y2-S2-257K25,2,19,AS,train,25,→,right,→,0.8674331996589899,True,45,-,-,-
Y2-S2-257K25,2,20,AS,train,25,↑,up,↑,1.3036020006984472,True,45,-,-,-
Y2-S2-257K25,-,21,PS,adaptive,46,←,left,←,0.9879067000001669,True,10,0,0,0
Y2-S2-257K25,-,22,PS,adaptive,40,↑,up,↑,0.5516571002081037,True,10,0,0,0
Y2-S2-257K25,-,23,PS,adaptive,30,↓,down,↓,0.7049928996711969,True,10,1,0,0
Y2-S2-257K25,-,24,PS,adaptive,33,←,left,←,0.6026386003941298,True,9,1,0,0
Y2-S2-257K25,-,25,PS,adaptive,46,↑,up,↑,0.6420576991513371,True,9,1,0,0
Y2-S2-257K25,-,26,PS,adaptive,25,←,right,→,0.8524015992879868,False,9,-1,1,1
Y2-S2-257K25,-,27,PS,adaptive,49,→,right,→,0.5663765007629991,True,10,-1,0,1
Y2-S2-257K25,-,28,PS,adaptive,40,↑,up,↑,0.5249936999753118,True,10,-1,0,1
Y2-S2-257K25,-,29,PS,adaptive,49,←,left,←,0.6502562994137406,True,10,1,1,2
Y2-S2-257K25,-,30,PS,adaptive,37,→,up,↑,0.6884808000177145,False,9,-1,1,3
Y2-S2-257K25,-,31,PS,adaptive,28,←,left,←,0.7551209004595876,True,10,-1,0,3
Y2-S2-257K25,-,32,PS,adaptive,28,↓,down,↓,0.7346799001097679,True,10,-1,0,3
Y2-S2-257K25,-,33,PS,adaptive,41,↑,up,↑,0.7180323991924524,True,10,1,1,4
Y2-S2-257K25,-,34,AS,adaptive,43,↓,up,↑,1.586697000078857,False,20,-1,0,0
Y2-S2-257K25,-,35,AS,adaptive,36,→,right,→,0.8202122002840042,True,21,-1,0,0
Y2-S2-257K25,-,36,AS,adaptive,43,↓,down,↓,0.9108752002939582,True,21,-1,0,0
Y2-S2-257K25,-,37,AS,adaptive,36,→,right,→,0.5177814001217484,True,21,1,1,1
Y2-S2-257K25,-,38,AS,adaptive,43,↑,no_key,no_letter,-1.0,False,20,-1,1,2
Y2-S2-257K25,-,39,AS,adaptive,46,→,right,→,0.8175758998841047,True,21,-1,0,2
Y2-S2-257K25,-,40,AS,adaptive,48,↓,down,↓,0.7832615002989769,True,21,-1,0,2
Y2-S2-257K25,-,41,AS,adaptive,42,→,right,→,0.861192399635911,True,21,1,1,3
Y2-S2-257K25,-,42,AS,adaptive,35,↑,no_key,no_letter,-1.0,False,20,-1,1,4
Y2-S2-257K25,1,43,AS,intra_train,50,→,right,→,0.634039199911058,True,31,-,-,-
Y2-S2-257K25,1,44,AS,intra_train,41,↑,up,↑,0.7481821002438664,True,31,-,-,-
Y2-S2-257K25,1,45,AS,intra_train,39,→,right,→,0.8250719998031855,True,31,-,-,-
Y2-S2-257K25,1,46,AS,intra_train,35,↑,up,↑,0.8968419004231691,True,31,-,-,-
Y2-S2-257K25,1,47,AS,intra_train,49,↓,down,↓,0.7885135998949409,True,31,-,-,-
Y2-S2-257K25,1,48,AS,exp,32,↑,up,↑,0.8957553002983332,True,21,0,0,0
Y2-S2-257K25,1,49,AS,exp,30,←,left,←,0.7443951005116105,True,21,0,0,0
Y2-S2-257K25,1,50,AS,exp,38,→,right,→,0.7327042995020747,True,21,1,0,0
Y2-S2-257K25,1,51,AS,exp,34,←,left,←,0.8908861996605992,True,20,1,0,0
Y2-S2-257K25,1,52,AS,exp,47,→,right,→,0.6432370999827981,True,20,1,0,0
Y2-S2-257K25,1,53,AS,exp,33,↑,up,↑,0.8020737003535032,True,20,1,0,0
Y2-S2-257K25,1,54,AS,exp,40,↓,down,↓,0.8995727999135852,True,19,1,0,0
Y2-S2-257K25,1,55,AS,exp,29,↑,up,↑,0.7308472990989685,True,19,1,0,0
Y2-S2-257K25,1,56,AS,exp,37,→,right,→,0.8066560998558998,True,19,1,0,0
Y2-S2-257K25,1,57,AS,exp,46,←,left,←,0.8365492997691035,True,18,1,0,0
Y2-S2-257K25,1,58,AS,exp,47,→,right,→,0.7368898997083306,True,18,1,0,0
Y2-S2-257K25,1,59,AS,exp,35,↑,up,↑,1.4058199003338814,True,18,1,0,0
Y2-S2-257K25,1,60,AS,exp,27,↓,left,←,1.6537747997790575,False,17,-1,1,1
Y2-S2-257K25,1,61,AS,exp,45,←,left,←,0.7476006001234055,True,18,-1,0,1
Y2-S2-257K25,1,62,AS,exp,42,↑,up,↑,0.6971731996163726,True,18,-1,0,1
Y2-S2-257K25,1,63,AS,exp,26,→,right,→,0.5962215000763535,True,18,1,1,2
Y2-S2-257K25,1,64,AS,exp,47,↓,up,↑,0.6503999000415206,False,17,-1,1,3
Y2-S2-257K25,1,65,AS,exp,30,↑,up,↑,0.5854040002450347,True,18,-1,0,3
Y2-S2-257K25,1,66,AS,exp,27,→,right,→,0.5531867006793618,True,18,-1,0,3
Y2-S2-257K25,1,67,AS,exp,48,←,left,←,0.5279716998338699,True,18,1,1,4
Y2-S2-257K25,1,68,AS,exp,50,→,right,→,1.0479731997475028,True,17,1,0,4
Y2-S2-257K25,1,69,AS,exp,26,↓,up,↑,1.0123099004849792,False,17,-1,1,5
Y2-S2-257K25,1,70,AS,exp,39,→,up,↑,0.8016030006110668,False,18,-1,0,5
Y2-S2-257K25,1,71,AS,exp,29,↓,up,↑,1.0221825996413827,False,19,-1,0,5
Y2-S2-257K25,1,72,AS,exp,42,↑,up,↑,0.8447399996221066,True,20,-1,0,5
Y2-S2-257K25,1,73,AS,exp,25,←,left,←,0.6379891997203231,True,20,-1,0,5
Y2-S2-257K25,1,74,AS,exp,25,↑,up,↑,0.8814425999298692,True,20,1,1,6
Y2-S2-257K25,1,75,AS,exp,33,←,up,↑,0.8086637007072568,False,19,-1,1,7
Y2-S2-257K25,1,76,AS,exp,41,→,up,↑,1.1672083996236324,False,20,-1,0,7
Y2-S2-257K25,1,77,AS,exp,41,↑,up,↑,0.8011001003906131,True,21,-1,0,7
Y2-S2-257K25,1,78,AS,exp,35,←,left,←,0.5280952993780375,True,21,-1,0,7
Y2-S2-257K25,1,79,AS,exp,46,→,right,→,0.8361611003056169,True,21,1,1,8
Y2-S2-257K25,1,80,AS,exp,44,↓,down,↓,0.9468151004984975,True,20,1,0,8
Y2-S2-257K25,1,81,AS,exp,35,←,left,←,0.7027274994179606,True,20,1,0,8
Y2-S2-257K25,1,82,AS,exp,38,↓,down,↓,0.7575888000428677,True,20,1,0,8
Y2-S2-257K25,1,83,AS,exp,27,↑,no_key,no_letter,-1.0,False,19,-1,1,9
Y2-S2-257K25,1,84,AS,exp,33,←,left,←,0.7293696999549866,True,20,-1,0,9
Y2-S2-257K25,1,85,AS,exp,48,↓,down,↓,0.5956222005188465,True,20,-1,0,9
Y2-S2-257K25,1,86,AS,exp,26,→,right,→,0.8494087997823954,True,20,1,1,10
Y2-S2-257K25,1,87,AS,exp,50,↑,up,↑,1.0171263003721833,True,19,1,0,10
Y2-S2-257K25,1,88,AS,exp,27,↓,left,←,1.4988669995218515,False,19,-1,1,11
Y2-S2-257K25,1,89,AS,exp,40,↑,no_key,no_letter,-1.0,False,20,-1,0,11
Y2-S2-257K25,1,90,AS,exp,27,↓,down,↓,0.782922999933362,True,21,-1,0,11
Y2-S2-257K25,1,91,AS,exp,40,→,left,←,0.788726800121367,False,21,-1,0,11
Y2-S2-257K25,1,92,AS,exp,45,←,left,←,0.7228148998692632,True,22,-1,0,11
Y2-S2-257K25,1,93,AS,exp,25,↑,up,↑,1.1859314003959298,True,22,-1,0,11
Y2-S2-257K25,1,94,AS,exp,43,→,right,→,0.9015416000038385,True,22,1,1,12
Y2-S2-257K25,1,95,AS,exp,43,↓,down,↓,0.6833612006157637,True,21,1,0,12
Y2-S2-257K25,1,96,AS,exp,45,←,left,←,0.9038250995799899,True,21,1,0,12
Y2-S2-257K25,1,97,AS,exp,43,↓,down,↓,0.5539187006652355,True,21,1,0,12
Y2-S2-257K25,1,98,AS,exp,28,→,right,→,0.5472371997311711,True,20,1,0,12
Y2-S2-257K25,1,99,AS,exp,38,↑,up,↑,1.092548199929297,True,20,1,0,12
Y2-S2-257K25,1,100,AS,exp,42,↓,down,↓,0.762979400344193,True,20,1,0,12
Y2-S2-257K25,1,101,AS,exp,36,←,up,↑,0.9656907003372908,False,19,-1,1,13
Y2-S2-257K25,1,102,AS,exp,30,↑,up,↑,0.8804171001538634,True,20,-1,0,13
Y2-S2-257K25,1,103,AS,exp,48,→,right,→,0.6052725007757545,True,20,-1,0,13
Y2-S2-257K25,1,104,AS,exp,31,↓,down,↓,0.7465579994022846,True,20,1,1,14
Y2-S2-257K25,1,105,AS,exp,41,←,left,←,0.8617511000484228,True,19,1,0,14
Y2-S2-257K25,1,106,AS,exp,35,→,left,←,1.1537756994366646,False,19,-1,1,15
Y2-S2-257K25,1,107,AS,exp,32,←,left,←,0.5531354993581772,True,20,-1,0,15
Y2-S2-257K25,1,108,AS,exp,30,→,right,→,0.8075794000178576,True,20,-1,0,15
Y2-S2-257K25,1,109,AS,exp,45,↓,down,↓,0.962295800447464,True,20,1,1,16
Y2-S2-257K25,2,110,PS,intra_train,29,↑,up,↑,0.6065143002197146,True,13,-,-,-
Y2-S2-257K25,2,111,PS,intra_train,39,→,right,→,0.62940280046314,True,13,-,-,-
Y2-S2-257K25,2,112,PS,intra_train,47,↑,up,↑,0.5029856003820896,True,13,-,-,-
Y2-S2-257K25,2,113,PS,intra_train,29,↓,up,↑,1.6668742001056671,False,13,-,-,-
Y2-S2-257K25,2,114,PS,intra_train,31,→,right,→,0.5268663000315428,True,13,-,-,-
Y2-S2-257K25,2,115,PS,exp,29,↓,down,↓,0.7556031998246908,True,9,0,0,0
Y2-S2-257K25,2,116,PS,exp,30,→,down,↓,1.2618235005065799,False,9,-1,0,0
Y2-S2-257K25,2,117,PS,exp,27,←,left,←,0.7699866993352771,True,10,-1,0,0
Y2-S2-257K25,2,118,PS,exp,32,→,right,→,0.5552555993199348,True,10,-1,0,0
Y2-S2-257K25,2,119,PS,exp,35,↑,up,↑,0.7012419002130628,True,10,1,1,1
Y2-S2-257K25,2,120,PS,exp,35,↓,down,↓,0.5752568999305367,True,9,1,0,1
Y2-S2-257K25,2,121,PS,exp,46,→,left,←,1.5995904002338648,False,9,-1,1,2
Y2-S2-257K25,2,122,PS,exp,41,↑,up,↑,0.5191132994368672,True,10,-1,0,2
Y2-S2-257K25,2,123,PS,exp,34,↓,down,↓,0.6624884996563196,True,10,-1,0,2
Y2-S2-257K25,2,124,PS,exp,33,→,down,↓,0.7676245998591185,False,10,-1,0,2
Y2-S2-257K25,2,125,PS,exp,33,←,left,←,0.672473999671638,True,11,-1,0,2
Y2-S2-257K25,2,126,PS,exp,25,↓,down,↓,0.6126974001526833,True,11,-1,0,2
Y2-S2-257K25,2,127,PS,exp,43,↑,up,↑,0.7663262998685241,True,11,1,1,3
Y2-S2-257K25,2,128,PS,exp,34,↓,down,↓,0.5896359998732805,True,10,1,0,3
Y2-S2-257K25,2,129,PS,exp,33,←,left,←,0.7126294998452067,True,10,1,0,3
Y2-S2-257K25,2,130,PS,exp,29,↑,up,↑,0.653456199914217,True,10,1,0,3
Y2-S2-257K25,2,131,PS,exp,27,→,right,→,0.9303566999733448,True,9,1,0,3
Y2-S2-257K25,2,132,PS,exp,30,←,left,←,0.7012160001322627,True,9,1,0,3
Y2-S2-257K25,2,133,PS,exp,38,↑,down,↓,0.9717168994247913,False,9,-1,1,4
Y2-S2-257K25,2,134,PS,exp,48,→,right,→,0.568435799330473,True,10,-1,0,4
Y2-S2-257K25,2,135,PS,exp,45,↑,up,↑,0.692421100102365,True,10,-1,0,4
Y2-S2-257K25,2,136,PS,exp,37,→,right,→,0.5899001006036997,True,10,1,1,5
Y2-S2-257K25,2,137,PS,exp,41,↑,up,↑,0.5263778995722532,True,9,1,0,5
Y2-S2-257K25,2,138,PS,exp,29,→,right,→,0.9460322000086308,True,9,1,0,5
Y2-S2-257K25,2,139,PS,exp,47,←,left,←,0.7104906002059579,True,9,1,0,5
Y2-S2-257K25,2,140,PS,exp,25,↑,up,↑,0.776884300634265,True,8,1,0,5
Y2-S2-257K25,2,141,PS,exp,50,↓,down,↓,0.689129900187254,True,8,1,0,5
Y2-S2-257K25,2,142,PS,exp,35,→,right,→,0.6846684003248811,True,8,1,0,5
Y2-S2-257K25,2,143,PS,exp,34,↑,up,↑,0.5425408994778991,True,7,1,0,5
Y2-S2-257K25,2,144,PS,exp,36,↓,down,↓,0.8092127004638314,True,7,1,0,5
Y2-S2-257K25,2,145,PS,exp,25,→,right,→,0.5995319001376629,True,7,1,0,5
Y2-S2-257K25,2,146,PS,exp,38,←,left,←,0.6034232992678881,True,6,1,0,5
Y2-S2-257K25,2,147,PS,exp,49,↑,up,↑,0.85721439961344,True,6,1,0,5
Y2-S2-257K25,2,148,PS,exp,31,→,right,→,0.5704078003764153,True,6,1,0,5
Y2-S2-257K25,2,149,PS,exp,28,↑,right,→,0.8156118998304009,False,5,-1,1,6
Y2-S2-257K25,2,150,PS,exp,25,←,left,←,0.5623799003660679,True,6,-1,0,6
Y2-S2-257K25,2,151,PS,exp,36,↑,up,↑,0.6128115998581052,True,6,-1,0,6
Y2-S2-257K25,2,152,PS,exp,33,←,left,←,0.5922316992655396,True,6,1,1,7
Y2-S2-257K25,2,153,PS,exp,38,↓,up,↑,0.5669192001223564,False,5,-1,1,8
Y2-S2-257K25,2,154,PS,exp,34,→,left,←,0.7810852993279696,False,6,-1,0,8
Y2-S2-257K25,2,155,PS,exp,48,↑,down,↓,1.1764035997912288,False,7,-1,0,8
Y2-S2-257K25,2,156,PS,exp,25,←,left,←,0.6454885005950928,True,8,-1,0,8
Y2-S2-257K25,2,157,PS,exp,39,↓,no_key,no_letter,-1.0,False,8,-1,0,8
Y2-S2-257K25,2,158,PS,exp,31,→,right,→,0.601095899939537,True,9,-1,0,8
Y2-S2-257K25,2,159,PS,exp,34,↑,left,←,0.49539170041680336,False,9,-1,0,8
Y2-S2-257K25,2,160,PS,exp,25,→,right,→,0.4974381998181343,True,10,-1,0,8
Y2-S2-257K25,2,161,PS,exp,40,↓,left,←,1.770585199818015,False,10,-1,0,8
Y2-S2-257K25,2,162,PS,exp,29,↑,up,↑,0.5877908002585173,True,11,-1,0,8
Y2-S2-257K25,2,163,PS,exp,28,↓,down,↓,0.6223869007080793,True,11,-1,0,8
Y2-S2-257K25,2,164,PS,exp,25,←,left,←,0.6480679996311665,True,11,1,1,9
Y2-S2-257K25,2,165,PS,exp,38,↓,right,→,0.7006278000771999,False,10,-1,1,10
Y2-S2-257K25,2,166,PS,exp,50,←,left,←,0.5569171002134681,True,11,-1,0,10
Y2-S2-257K25,2,167,PS,exp,36,→,right,→,0.5133512997999787,True,11,-1,0,10
Y2-S2-257K25,2,168,PS,exp,45,↑,left,←,1.2268206998705864,False,11,-1,0,10
Y2-S2-257K25,2,169,PS,exp,40,←,left,←,0.5572779001668096,True,12,-1,0,10
Y2-S2-257K25,2,170,PS,exp,33,→,right,→,0.5746895000338554,True,12,-1,0,10
Y2-S2-257K25,2,171,PS,exp,26,←,left,←,0.6010443000122905,True,12,1,1,11
Y2-S2-257K25,2,172,PS,exp,38,↓,down,↓,0.7052553007379174,True,11,1,0,11
Y2-S2-257K25,2,173,PS,exp,40,←,left,←,0.5460831001400948,True,11,1,0,11
Y2-S2-257K25,2,174,PS,exp,35,↑,up,↑,0.5186760993674397,True,11,1,0,11
Y2-S2-257K25,2,175,PS,exp,38,→,right,→,0.48974990006536245,True,10,1,0,11
Y2-S2-257K25,2,176,PS,exp,50,↑,up,↑,1.1219342993572354,True,10,1,0,11
Y2-S2-257K25,2,177,PS,exp,25,→,right,→,0.510640500113368,True,10,1,0,11
Y2-S2-257K25,2,178,PS,exp,46,↓,down,↓,0.6334864003583789,True,9,1,0,11
Y2-S2-257K25,2,179,PS,exp,34,→,right,→,0.5007531000301242,True,9,1,0,11
Y2-S2-257K25,2,180,PS,exp,35,↓,down,↓,0.6463577998802066,True,9,1,0,11
Y2-S2-257K25,2,181,PS,exp,46,←,left,←,0.633152799680829,True,8,1,0,11
Y2-S2-257K25,2,182,PS,exp,48,↑,up,↑,0.9755621999502182,True,8,1,0,11
Y2-S2-257K25,2,183,PS,exp,42,←,left,←,0.7429705001413822,True,8,1,0,11
Y2-S2-257K25,2,184,PS,exp,35,↓,down,↓,0.854398800060153,True,7,1,0,11
Y2-S2-257K25,2,185,PS,exp,46,→,up,↑,0.9050142001360655,False,7,-1,1,12
Y2-S2-257K25,2,186,PS,exp,34,↑,up,↑,0.5719066997990012,True,8,-1,0,12
Y2-S2-257K25,2,187,PS,exp,38,→,right,→,0.5697245001792908,True,8,-1,0,12
Y2-S2-257K25,2,188,PS,exp,43,←,left,←,0.5917945997789502,True,8,1,1,13
Y2-S2-257K25,2,189,PS,exp,48,→,right,→,0.485907600261271,True,7,1,0,13
Y2-S2-257K25,2,190,PS,exp,25,↑,up,↑,0.9687318997457623,True,7,1,0,13
Y2-S2-257K25,2,191,PS,exp,44,←,up,↑,0.8706958005204797,False,7,-1,1,14
Y2-S2-257K25,2,192,PS,exp,43,↑,left,←,0.6869638999924064,False,8,-1,0,14
Y2-S2-257K25,2,193,PS,exp,44,→,right,→,0.5629103006795049,True,9,-1,0,14
Y2-S2-257K25,2,194,PS,exp,41,←,left,←,0.5649403007701039,True,9,-1,0,14
Y2-S2-257K25,2,195,PS,exp,27,↓,left,←,0.6273079002276063,False,9,-1,0,14
Y2-S2-257K25,2,196,PS,exp,31,↑,up,↑,0.47760129999369383,True,10,-1,0,14
Y2-S2-257K25,2,197,PS,exp,36,←,left,←,0.65836519934237,True,10,-1,0,14
Y2-S2-257K25,2,198,PS,exp,50,→,right,→,0.49547789990901947,True,10,1,1,15
Y2-S2-257K25,2,199,PS,exp,36,↑,up,↑,0.6111524002626538,True,9,1,0,15
Y2-S2-257K25,2,200,PS,exp,42,↓,up,↑,0.6262509003281593,False,9,-1,1,16
Y2-S2-257K25,3,201,PS,intra_train,27,↑,up,↑,0.6269387993961573,True,13,-,-,-
Y2-S2-257K25,3,202,PS,intra_train,28,→,right,→,0.5359224993735552,True,13,-,-,-
Y2-S2-257K25,3,203,PS,intra_train,30,↑,up,↑,0.5117277996614575,True,13,-,-,-
Y2-S2-257K25,3,204,PS,intra_train,36,←,up,↑,0.830876799300313,False,13,-,-,-
Y2-S2-257K25,3,205,PS,intra_train,39,→,right,→,0.5675894003361464,True,13,-,-,-
Y2-S2-257K25,3,206,PS,exp,30,↑,up,↑,0.5403705993667245,True,9,0,0,0
Y2-S2-257K25,3,207,PS,exp,34,↓,left,←,1.1786437006667256,False,9,-1,0,0
Y2-S2-257K25,3,208,PS,exp,36,→,right,→,0.5325843002647161,True,10,-1,0,0
Y2-S2-257K25,3,209,PS,exp,44,↓,down,↓,0.7205672999843955,True,10,-1,0,0
Y2-S2-257K25,3,210,PS,exp,32,←,left,←,0.5522630997002125,True,10,1,1,1
Y2-S2-257K25,3,211,PS,exp,38,→,right,→,0.48559089936316013,True,9,1,0,1
Y2-S2-257K25,3,212,PS,exp,28,←,left,←,0.5320464000105858,True,9,1,0,1
Y2-S2-257K25,3,213,PS,exp,32,↑,up,↑,0.5147337997332215,True,9,1,0,1
Y2-S2-257K25,3,214,PS,exp,42,↓,down,↓,0.7052760999649763,True,8,1,0,1
Y2-S2-257K25,3,215,PS,exp,40,↑,down,↓,0.548789800144732,False,8,-1,1,2
Y2-S2-257K25,3,216,PS,exp,41,→,right,→,0.5186285004019737,True,9,-1,0,2
Y2-S2-257K25,3,217,PS,exp,29,↑,up,↑,0.6402249000966549,True,9,-1,0,2
Y2-S2-257K25,3,218,PS,exp,44,←,left,←,0.7809939999133348,True,9,1,1,3
Y2-S2-257K25,3,219,PS,exp,41,→,right,→,0.7481791004538536,True,8,1,0,3
Y2-S2-257K25,3,220,PS,exp,46,←,left,←,0.8238845998421311,True,8,1,0,3
Y2-S2-257K25,3,221,PS,exp,41,↓,down,↓,0.48872439935803413,True,8,1,0,3
Y2-S2-257K25,3,222,PS,exp,30,→,down,↓,1.0192871997132897,False,7,-1,1,4
Y2-S2-257K25,3,223,PS,exp,47,←,left,←,0.6249660002067685,True,8,-1,0,4
Y2-S2-257K25,3,224,PS,exp,29,↓,down,↓,0.6206639995798469,True,8,-1,0,4
Y2-S2-257K25,3,225,PS,exp,29,↑,up,↑,0.961828600615263,True,8,1,1,5
Y2-S2-257K25,3,226,PS,exp,36,←,left,←,0.7390892999246716,True,7,1,0,5
Y2-S2-257K25,3,227,PS,exp,30,↓,down,↓,0.6273564994335175,True,7,1,0,5
Y2-S2-257K25,3,228,PS,exp,41,→,right,→,0.5355053003877401,True,7,1,0,5
Y2-S2-257K25,3,229,PS,exp,39,↓,down,↓,0.6136310994625092,True,6,1,0,5
Y2-S2-257K25,3,230,PS,exp,32,←,down,↓,1.0675765993073583,False,6,-1,1,6
Y2-S2-257K25,3,231,PS,exp,26,↑,up,↑,0.5445255003869534,True,7,-1,0,6
Y2-S2-257K25,3,232,PS,exp,33,↓,down,↓,0.6748631000518799,True,7,-1,0,6
Y2-S2-257K25,3,233,PS,exp,48,←,left,←,0.6455173995345831,True,7,1,1,7
Y2-S2-257K25,3,234,PS,exp,30,↓,left,←,0.6562433000653982,False,6,-1,1,8
Y2-S2-257K25,3,235,PS,exp,41,→,right,→,0.5012691002339125,True,7,-1,0,8
Y2-S2-257K25,3,236,PS,exp,40,↓,down,↓,1.5413193004205823,True,7,-1,0,8
Y2-S2-257K25,3,237,PS,exp,35,→,no_key,no_letter,-1.0,False,7,-1,0,8
Y2-S2-257K25,3,238,PS,exp,47,↑,up,↑,0.5387365994974971,True,8,-1,0,8
Y2-S2-257K25,3,239,PS,exp,29,→,right,→,0.5866996999830008,True,8,-1,0,8
Y2-S2-257K25,3,240,PS,exp,45,↓,down,↓,0.6338793998584151,True,8,1,1,9
Y2-S2-257K25,3,241,PS,exp,25,←,left,←,0.9490765994414687,True,7,1,0,9
Y2-S2-257K25,3,242,PS,exp,29,↓,up,↑,0.734833599999547,False,7,-1,1,10
Y2-S2-257K25,3,243,PS,exp,34,←,down,↓,1.7217593006789684,False,8,-1,0,10
Y2-S2-257K25,3,244,PS,exp,50,↓,left,←,1.0449495008215308,False,9,-1,0,10
Y2-S2-257K25,3,245,PS,exp,27,→,right,→,0.45326370000839233,True,10,-1,0,10
Y2-S2-257K25,3,246,PS,exp,41,↓,down,↓,0.6515670996159315,True,10,-1,0,10
Y2-S2-257K25,3,247,PS,exp,38,→,right,→,0.500136099755764,True,10,1,1,11
Y2-S2-257K25,3,248,PS,exp,27,←,left,←,0.5073068998754025,True,9,1,0,11
Y2-S2-257K25,3,249,PS,exp,45,↑,left,←,0.7926009995862842,False,9,-1,1,12
Y2-S2-257K25,3,250,PS,exp,27,→,right,→,0.5010575000196695,True,10,-1,0,12
Y2-S2-257K25,3,251,PS,exp,35,↑,up,↑,0.8107413006946445,True,10,-1,0,12
Y2-S2-257K25,3,252,PS,exp,37,→,right,→,0.6529903998598456,True,10,1,1,13
Y2-S2-257K25,3,253,PS,exp,46,↑,right,→,1.1344884000718594,False,9,-1,1,14
Y2-S2-257K25,3,254,PS,exp,34,←,left,←,0.6143124001100659,True,10,-1,0,14
Y2-S2-257K25,3,255,PS,exp,25,→,right,→,0.5463394001126289,True,10,-1,0,14
Y2-S2-257K25,3,256,PS,exp,40,↑,up,↑,0.541657299734652,True,10,1,1,15
Y2-S2-257K25,3,257,PS,exp,45,→,right,→,0.5641443002969027,True,9,1,0,15
Y2-S2-257K25,3,258,PS,exp,31,←,left,←,0.6776944007724524,True,9,1,0,15
Y2-S2-257K25,3,259,PS,exp,33,→,right,→,0.7842333000153303,True,9,1,0,15
Y2-S2-257K25,3,260,PS,exp,38,←,up,↑,0.6775478003546596,False,8,-1,1,16
Y2-S2-257K25,4,261,AS,intra_train,33,→,right,→,0.7585490001365542,True,31,-,-,-
Y2-S2-257K25,4,262,AS,intra_train,35,↑,up,↑,1.2173522002995014,True,31,-,-,-
Y2-S2-257K25,4,263,AS,intra_train,42,←,left,←,0.859922700561583,True,31,-,-,-
Y2-S2-257K25,4,264,AS,intra_train,29,↑,up,↑,0.6008261004462838,True,31,-,-,-
Y2-S2-257K25,4,265,AS,intra_train,44,←,left,←,0.7225505001842976,True,31,-,-,-
Y2-S2-257K25,4,266,AS,exp,37,→,right,→,0.8816348994150758,True,21,0,0,0
Y2-S2-257K25,4,267,AS,exp,43,←,left,←,0.6207010000944138,True,21,0,0,0
Y2-S2-257K25,4,268,AS,exp,48,↑,up,↑,0.8815287994220853,True,21,1,0,0
Y2-S2-257K25,4,269,AS,exp,36,↓,left,←,0.6358335996046662,False,20,-1,1,1
Y2-S2-257K25,4,270,AS,exp,50,←,left,←,0.5763910999521613,True,21,-1,0,1
Y2-S2-257K25,4,271,AS,exp,47,→,right,→,0.6709667993709445,True,21,-1,0,1
Y2-S2-257K25,4,272,AS,exp,46,←,left,←,0.8558658994734287,True,21,1,1,2
Y2-S2-257K25,4,273,AS,exp,49,↓,down,↓,0.9233520999550819,True,20,1,0,2
Y2-S2-257K25,4,274,AS,exp,50,←,left,←,0.6060531996190548,True,20,1,0,2
Y2-S2-257K25,4,275,AS,exp,49,→,right,→,0.5704212998971343,True,20,1,0,2
Y2-S2-257K25,4,276,AS,exp,43,↓,right,→,0.9734992999583483,False,19,-1,1,3
Y2-S2-257K25,4,277,AS,exp,33,→,no_key,no_letter,-1.0,False,20,-1,0,3
Y2-S2-257K25,4,278,AS,exp,38,←,left,←,0.6071381997317076,True,21,-1,0,3
Y2-S2-257K25,4,279,AS,exp,42,↓,down,↓,0.708555300720036,True,21,-1,0,3
Y2-S2-257K25,4,280,AS,exp,42,↑,up,↑,0.5433936007320881,True,21,1,1,4
Y2-S2-257K25,4,281,AS,exp,45,←,left,←,0.5105824004858732,True,20,1,0,4
Y2-S2-257K25,4,282,AS,exp,29,→,right,→,0.6907727997750044,True,20,1,0,4
Y2-S2-257K25,4,283,AS,exp,25,↓,down,↓,0.6209060000255704,True,20,1,0,4
Y2-S2-257K25,4,284,AS,exp,39,←,left,←,0.5697975996881723,True,19,1,0,4
Y2-S2-257K25,4,285,AS,exp,48,→,right,→,0.624465299770236,True,19,1,0,4
Y2-S2-257K25,4,286,AS,exp,31,↓,down,↓,0.8276839004829526,True,19,1,0,4
Y2-S2-257K25,4,287,AS,exp,30,←,down,↓,1.2102129999548197,False,18,-1,1,5
Y2-S2-257K25,4,288,AS,exp,44,↓,down,↓,0.7817938001826406,True,19,-1,0,5
Y2-S2-257K25,4,289,AS,exp,45,↑,up,↑,0.9603075003251433,True,19,-1,0,5
Y2-S2-257K25,4,290,AS,exp,42,↓,right,→,0.8785747000947595,False,19,-1,0,5
Y2-S2-257K25,4,291,AS,exp,27,←,left,←,0.6703447001054883,True,20,-1,0,5
Y2-S2-257K25,4,292,AS,exp,41,↓,left,←,1.1919302996248007,False,20,-1,0,5
Y2-S2-257K25,4,293,AS,exp,34,←,left,←,0.9308038996532559,True,21,-1,0,5
Y2-S2-257K25,4,294,AS,exp,43,↑,up,↑,0.6575604006648064,True,21,-1,0,5
Y2-S2-257K25,4,295,AS,exp,36,→,right,→,0.6598269008100033,True,21,1,1,6
Y2-S2-257K25,4,296,AS,exp,25,←,left,←,0.7179308999329805,True,20,1,0,6
Y2-S2-257K25,4,297,AS,exp,49,→,right,→,0.640442700125277,True,20,1,0,6
Y2-S2-257K25,4,298,AS,exp,46,↓,down,↓,0.748701199889183,True,20,1,0,6
Y2-S2-257K25,4,299,AS,exp,32,←,left,←,0.8300566002726555,True,19,1,0,6
Y2-S2-257K25,4,300,AS,exp,40,→,right,→,0.8262772997841239,True,19,1,0,6
Y2-S2-257K25,4,301,AS,exp,31,←,left,←,0.583729600533843,True,19,1,0,6
Y2-S2-257K25,4,302,AS,exp,38,→,left,←,0.7681271005421877,False,18,-1,1,7
Y2-S2-257K25,4,303,AS,exp,38,←,left,←,0.5603455007076263,True,19,-1,0,7
Y2-S2-257K25,4,304,AS,exp,46,→,right,→,0.6003249008208513,True,19,-1,0,7
Y2-S2-257K25,4,305,AS,exp,41,↑,up,↑,0.9070394998416305,True,19,1,1,8
Y2-S2-257K25,4,306,AS,exp,37,→,right,→,0.49528640042990446,True,18,1,0,8
Y2-S2-257K25,4,307,AS,exp,50,←,left,←,0.5149365002289414,True,18,1,0,8
Y2-S2-257K25,4,308,AS,exp,36,↓,down,↓,0.6388653004541993,True,18,1,0,8
Y2-S2-257K25,4,309,AS,exp,48,→,right,→,0.49611250031739473,True,17,1,0,8
Y2-S2-257K25,4,310,AS,exp,42,←,left,←,0.627445999532938,True,17,1,0,8
Y2-S2-257K25,4,311,AS,exp,38,↓,down,↓,0.6183788999915123,True,17,1,0,8
Y2-S2-257K25,4,312,AS,exp,47,←,left,←,0.5006318995729089,True,16,1,0,8
Y2-S2-257K25,4,313,AS,exp,25,↑,up,↑,0.47237430047243834,True,16,1,0,8
Y2-S2-257K25,4,314,AS,exp,27,←,left,←,0.5915171001106501,True,16,1,0,8
Y2-S2-257K25,4,315,AS,exp,28,→,right,→,0.4906825004145503,True,15,1,0,8
Y2-S2-257K25,4,316,AS,exp,48,↓,down,↓,0.6247771000489593,True,15,1,0,8
Y2-S2-257K25,4,317,AS,exp,28,↑,right,→,1.323441500775516,False,15,-1,1,9
Y2-S2-257K25,4,318,AS,exp,29,←,down,↓,1.072333199903369,False,16,-1,0,9
Y2-S2-257K25,4,319,AS,exp,43,↓,down,↓,0.5051749004051089,True,17,-1,0,9
Y2-S2-257K25,4,320,AS,exp,37,←,left,←,0.7652143994346261,True,17,-1,0,9
Y2-S2-257K25,4,321,AS,exp,41,↑,up,↑,0.5965521996840835,True,17,1,1,10
Y2-S2-257K25,4,322,AS,exp,38,←,left,←,0.7787709999829531,True,16,1,0,10
Y2-S2-257K25,4,323,AS,exp,45,↑,left,←,1.0258567994460464,False,16,-1,1,11
Y2-S2-257K25,4,324,AS,exp,33,→,left,←,0.7615182995796204,False,17,-1,0,11
Y2-S2-257K25,4,325,AS,exp,39,↑,up,↑,0.8647783994674683,True,18,-1,0,11
Y2-S2-257K25,4,326,AS,exp,32,←,no_key,no_letter,-1.0,False,18,-1,0,11
Y2-S2-257K25,4,327,AS,exp,44,→,right,→,0.7660501999780536,True,19,-1,0,11
Y2-S2-257K25,4,328,AS,exp,46,←,left,←,0.6934918994084001,True,19,-1,0,11
Y2-S2-257K25,4,329,AS,exp,47,↑,up,↑,0.874618100002408,True,19,1,1,12
Y2-S2-257K25,4,330,AS,exp,26,↓,down,↓,0.7901763999834657,True,18,1,0,12
Y2-S2-257K25,4,331,AS,exp,35,↑,up,↑,0.8403178006410599,True,18,1,0,12
Y2-S2-257K25,4,332,AS,exp,40,↓,down,↓,0.8213483998551965,True,18,1,0,12
Y2-S2-257K25,4,333,AS,exp,26,↑,left,←,1.1586210997775197,False,17,-1,1,13
Y2-S2-257K25,4,334,AS,exp,39,←,left,←,0.9817386996001005,True,18,-1,0,13
Y2-S2-257K25,4,335,AS,exp,38,↑,up,↑,0.7542334999889135,True,18,-1,0,13
Y2-S2-257K25,4,336,AS,exp,29,→,no_key,no_letter,-1.0,False,18,-1,0,13
Y2-S2-257K25,4,337,AS,exp,25,↓,down,↓,0.8681947998702526,True,19,-1,0,13
Y2-S2-257K25,4,338,AS,exp,41,→,left,←,0.743456500582397,False,19,-1,0,13
Y2-S2-257K25,4,339,AS,exp,27,←,left,←,0.5623623998835683,True,20,-1,0,13
Y2-S2-257K25,4,340,AS,exp,45,→,right,→,0.5705358004197478,True,20,-1,0,13
Y2-S2-257K25,4,341,AS,exp,34,↓,down,↓,0.7417854005470872,True,20,1,1,14
Y2-S2-257K25,4,342,AS,exp,42,↑,up,↑,0.8500731000676751,True,19,1,0,14
Y2-S2-257K25,4,343,AS,exp,42,→,right,→,0.8046466996893287,True,19,1,0,14
Y2-S2-257K25,4,344,AS,exp,36,←,left,←,0.9866217998787761,True,19,1,0,14
Y2-S2-257K25,4,345,AS,exp,35,→,left,←,0.8446948993951082,False,18,-1,1,15
Y2-S2-257K25,4,346,AS,exp,39,↓,down,↓,0.8267748998478055,True,19,-1,0,15
Y2-S2-257K25,4,347,AS,exp,46,→,right,→,0.5386989004909992,True,19,-1,0,15
Y2-S2-257K25,4,348,AS,exp,39,↑,up,↑,0.5407324004918337,True,19,1,1,16
Y2-S2-257K25,5,349,AS,intra_train,32,→,right,→,0.5837880996987224,True,31,-,-,-
Y2-S2-257K25,5,350,AS,intra_train,29,↑,up,↑,0.5173963000997901,True,31,-,-,-
Y2-S2-257K25,5,351,AS,intra_train,42,←,left,←,0.6883681993931532,True,31,-,-,-
Y2-S2-257K25,5,352,AS,intra_train,33,↓,down,↓,0.9241926996037364,True,31,-,-,-
Y2-S2-257K25,5,353,AS,intra_train,43,↑,no_key,no_letter,-1.0,False,31,-,-,-
Y2-S2-257K25,5,354,AS,exp,35,→,right,→,0.5189211005344987,True,21,0,0,0
Y2-S2-257K25,5,355,AS,exp,44,↑,up,↑,0.5271340999752283,True,21,0,0,0
Y2-S2-257K25,5,356,AS,exp,35,→,right,→,0.5323517005890608,True,21,1,0,0
Y2-S2-257K25,5,357,AS,exp,38,↑,up,↑,0.43349390011280775,True,20,1,0,0
Y2-S2-257K25,5,358,AS,exp,37,↓,down,↓,0.7062512999400496,True,20,1,0,0
Y2-S2-257K25,5,359,AS,exp,49,←,left,←,1.1259268000721931,True,20,1,0,0
Y2-S2-257K25,5,360,AS,exp,43,→,right,→,0.8309550005942583,True,19,1,0,0
Y2-S2-257K25,5,361,AS,exp,38,←,left,←,0.7253673002123833,True,19,1,0,0
Y2-S2-257K25,5,362,AS,exp,50,↓,down,↓,0.9929820001125336,True,19,1,0,0
Y2-S2-257K25,5,363,AS,exp,41,↑,up,↑,0.7520290007814765,True,18,1,0,0
Y2-S2-257K25,5,364,AS,exp,38,→,left,←,1.0954774003475904,False,18,-1,1,1
Y2-S2-257K25,5,365,AS,exp,41,↓,down,↓,0.6734833000227809,True,19,-1,0,1
Y2-S2-257K25,5,366,AS,exp,44,→,right,→,0.5118314996361732,True,19,-1,0,1
Y2-S2-257K25,5,367,AS,exp,39,←,left,←,0.752602499909699,True,19,1,1,2
Y2-S2-257K25,5,368,AS,exp,34,↑,up,↑,0.502059199847281,True,18,1,0,2
Y2-S2-257K25,5,369,AS,exp,38,→,right,→,0.8755695996806026,True,18,1,0,2
Y2-S2-257K25,5,370,AS,exp,46,↓,down,↓,0.7523285001516342,True,18,1,0,2
Y2-S2-257K25,5,371,AS,exp,43,↑,up,↑,0.6160888997837901,True,17,1,0,2
Y2-S2-257K25,5,372,AS,exp,41,↓,down,↓,0.8868186995387077,True,17,1,0,2
Y2-S2-257K25,5,373,AS,exp,46,↑,up,↑,0.5324039999395609,True,17,1,0,2
Y2-S2-257K25,5,374,AS,exp,43,→,up,↑,0.8044154001399875,False,16,-1,1,3
Y2-S2-257K25,5,375,AS,exp,41,↑,up,↑,0.5481890002265573,True,17,-1,0,3
Y2-S2-257K25,5,376,AS,exp,35,←,left,←,1.2145157000049949,True,17,-1,0,3
Y2-S2-257K25,5,377,AS,exp,29,↑,left,←,0.9636431997641921,False,17,-1,0,3
Y2-S2-257K25,5,378,AS,exp,43,→,left,←,1.5809947000816464,False,18,-1,0,3
Y2-S2-257K25,5,379,AS,exp,31,↑,up,↑,0.6299195000901818,True,19,-1,0,3
Y2-S2-257K25,5,380,AS,exp,38,→,right,→,0.688090099953115,True,19,-1,0,3
Y2-S2-257K25,5,381,AS,exp,42,←,no_key,no_letter,-1.0,False,19,-1,0,3
Y2-S2-257K25,5,382,AS,exp,43,↓,down,↓,0.9143992997705936,True,20,-1,0,3
Y2-S2-257K25,5,383,AS,exp,25,↑,left,←,1.3698947001248598,False,20,-1,0,3
Y2-S2-257K25,5,384,AS,exp,41,→,right,→,0.7991365995258093,True,21,-1,0,3
Y2-S2-257K25,5,385,AS,exp,26,←,right,→,1.1552228992804885,False,21,-1,0,3
Y2-S2-257K25,5,386,AS,exp,40,↓,no_key,no_letter,-1.0,False,22,-1,0,3
Y2-S2-257K25,5,387,AS,exp,48,→,right,→,0.5677939001470804,True,23,-1,0,3
Y2-S2-257K25,5,388,AS,exp,49,↑,up,↑,0.6298639001324773,True,23,-1,0,3
Y2-S2-257K25,5,389,AS,exp,44,↓,down,↓,0.9003854999318719,True,23,1,1,4
Y2-S2-257K25,5,390,AS,exp,38,↑,up,↑,0.7067801998928189,True,22,1,0,4
Y2-S2-257K25,5,391,AS,exp,26,←,left,←,0.6148196998983622,True,22,1,0,4
Y2-S2-257K25,5,392,AS,exp,45,↓,down,↓,0.9100780999287963,True,22,1,0,4
Y2-S2-257K25,5,393,AS,exp,42,←,left,←,0.9076872998848557,True,21,1,0,4
Y2-S2-257K25,5,394,AS,exp,44,→,right,→,0.6119507998228073,True,21,1,0,4
Y2-S2-257K25,5,395,AS,exp,29,←,right,→,1.0477011008188128,False,21,-1,1,5
Y2-S2-257K25,5,396,AS,exp,44,↓,down,↓,0.6366190006956458,True,22,-1,0,5
Y2-S2-257K25,5,397,AS,exp,44,→,down,↓,0.8630786007270217,False,22,-1,0,5
Y2-S2-257K25,5,398,AS,exp,40,←,left,←,0.8541534999385476,True,23,-1,0,5
Y2-S2-257K25,5,399,AS,exp,41,→,right,→,0.9263258995488286,True,23,-1,0,5
Y2-S2-257K25,5,400,AS,exp,48,↓,down,↓,0.5740000000223517,True,23,1,1,6
Y2-S2-257K25,5,401,AS,exp,50,←,left,←,0.9206468993797898,True,22,1,0,6
Y2-S2-257K25,5,402,AS,exp,46,↓,down,↓,0.6914502000436187,True,22,1,0,6
Y2-S2-257K25,5,403,AS,exp,32,↑,up,↑,1.0721990000456572,True,22,1,0,6
Y2-S2-257K25,5,404,AS,exp,49,→,right,→,0.8231614995747805,True,21,1,0,6
Y2-S2-257K25,5,405,AS,exp,47,↑,up,↑,0.8170256000012159,True,21,1,0,6
Y2-S2-257K25,5,406,AS,exp,34,↓,down,↓,0.6809876002371311,True,21,1,0,6
Y2-S2-257K25,5,407,AS,exp,30,←,left,←,0.7904605995863676,True,20,1,0,6
Y2-S2-257K25,5,408,AS,exp,50,→,right,→,0.6056488994508982,True,20,1,0,6
Y2-S2-257K25,5,409,AS,exp,34,↓,down,↓,0.9667469998821616,True,20,1,0,6
Y2-S2-257K25,5,410,AS,exp,39,→,right,→,0.5654825000092387,True,19,1,0,6
Y2-S2-257K25,5,411,AS,exp,38,↑,up,↑,0.7630399996414781,True,19,1,0,6
Y2-S2-257K25,5,412,AS,exp,40,←,left,←,0.6925865998491645,True,19,1,0,6
Y2-S2-257K25,5,413,AS,exp,31,↓,right,→,0.9402772998437285,False,18,-1,1,7
Y2-S2-257K25,5,414,AS,exp,36,↑,up,↑,0.7506684996187687,True,19,-1,0,7
Y2-S2-257K25,5,415,AS,exp,50,↓,down,↓,0.856385899707675,True,19,-1,0,7
Y2-S2-257K25,5,416,AS,exp,45,→,right,→,0.8664054004475474,True,19,1,1,8
Y2-S2-257K25,5,417,AS,exp,47,←,left,←,0.8751027006655931,True,18,1,0,8
Y2-S2-257K25,5,418,AS,exp,33,↑,up,↑,0.7925466997548938,True,18,1,0,8
Y2-S2-257K25,5,419,AS,exp,45,→,right,→,0.8320681005716324,True,18,1,0,8
Y2-S2-257K25,5,420,AS,exp,25,↓,down,↓,0.8380493000149727,True,17,1,0,8
Y2-S2-257K25,5,421,AS,exp,48,←,left,←,0.7976518999785185,True,17,1,0,8
Y2-S2-257K25,5,422,AS,exp,35,↑,right,→,0.748976799659431,False,17,-1,1,9
Y2-S2-257K25,5,423,AS,exp,26,←,right,→,0.6874784007668495,False,18,-1,0,9
Y2-S2-257K25,5,424,AS,exp,43,↑,up,↑,0.5278265997767448,True,19,-1,0,9
Y2-S2-257K25,5,425,AS,exp,32,←,up,↑,0.8530392004176974,False,19,-1,0,9
Y2-S2-257K25,5,426,AS,exp,31,↑,up,↑,0.87564089987427,True,20,-1,0,9
Y2-S2-257K25,5,427,AS,exp,47,→,right,→,0.7225810997188091,True,20,-1,0,9
Y2-S2-257K25,5,428,AS,exp,45,←,right,→,0.7517587002366781,False,20,-1,0,9
Y2-S2-257K25,5,429,AS,exp,41,↓,right,→,0.7379491003230214,False,21,-1,0,9
Y2-S2-257K25,5,430,AS,exp,25,←,no_key,no_letter,-1.0,False,22,-1,0,9
Y2-S2-257K25,5,431,AS,exp,40,↑,up,↑,0.9500351995229721,True,23,-1,0,9
Y2-S2-257K25,5,432,AS,exp,42,←,no_key,no_letter,-1.0,False,23,-1,0,9
Y2-S2-257K25,5,433,AS,exp,26,↑,no_key,no_letter,-1.0,False,24,-1,0,9
Y2-S2-257K25,5,434,AS,exp,26,→,right,→,0.8721418008208275,True,25,-1,0,9
Y2-S2-257K25,5,435,AS,exp,50,↓,down,↓,1.007163600064814,True,25,-1,0,9
Y2-S2-257K25,5,436,AS,exp,33,←,left,←,1.2986880000680685,True,25,1,1,10
Y2-S2-257K25,5,437,AS,exp,42,↑,up,↑,0.4840572001412511,True,24,1,0,10
Y2-S2-257K25,5,438,AS,exp,37,↓,down,↓,0.7019293000921607,True,24,1,0,10
Y2-S2-257K25,5,439,AS,exp,26,←,left,←,0.5172334993258119,True,24,1,0,10
Y2-S2-257K25,5,440,AS,exp,28,→,right,→,0.6842598002403975,True,23,1,0,10
Y2-S2-257K25,5,441,AS,exp,26,↓,down,↓,0.9102361993864179,True,23,1,0,10
Y2-S2-257K25,5,442,AS,exp,35,←,left,←,0.964525599963963,True,23,1,0,10
Y2-S2-257K25,5,443,AS,exp,50,↑,up,↑,0.6761608999222517,True,22,1,0,10
Y2-S2-257K25,5,444,AS,exp,33,→,right,→,0.7951801000162959,True,22,1,0,10
Y2-S2-257K25,5,445,AS,exp,43,↓,down,↓,0.9261773005127907,True,22,1,0,10
Y2-S2-257K25,5,446,AS,exp,29,↑,up,↑,0.951655400916934,True,21,1,0,10
Y2-S2-257K25,5,447,AS,exp,36,→,right,→,0.7890999000519514,True,21,1,0,10
Y2-S2-257K25,5,448,AS,exp,45,↑,up,↑,0.9627683004364371,True,21,1,0,10
Y2-S2-257K25,5,449,AS,exp,25,←,right,→,1.0374897997826338,False,20,-1,1,11
Y2-S2-257K25,5,450,AS,exp,37,↑,up,↑,0.7901854002848268,True,21,-1,0,11
Y2-S2-257K25,5,451,AS,exp,31,←,left,←,0.725938799791038,True,21,-1,0,11
Y2-S2-257K25,5,452,AS,exp,43,↑,up,↑,0.4505047993734479,True,21,1,1,12
Y2-S2-257K25,5,453,AS,exp,38,←,left,←,0.5339695001021028,True,20,1,0,12
Y2-S2-257K25,5,454,AS,exp,33,↓,down,↓,0.944891800172627,True,20,1,0,12
Y2-S2-257K25,5,455,AS,exp,46,←,left,←,0.5522027993574739,True,20,1,0,12
Y2-S2-257K25,5,456,AS,exp,30,↓,up,↑,0.9689330998808146,False,19,-1,1,13
Y2-S2-257K25,5,457,AS,exp,31,←,left,←,0.8899204004555941,True,20,-1,0,13
Y2-S2-257K25,5,458,AS,exp,37,↑,no_key,no_letter,-1.0,False,20,-1,0,13
Y2-S2-257K25,5,459,AS,exp,42,←,left,←,0.8615873996168375,True,21,-1,0,13
Y2-S2-257K25,5,460,AS,exp,26,↑,up,↑,0.7526674997061491,True,21,-1,0,13
Y2-S2-257K25,5,461,AS,exp,31,→,right,→,0.8039864003658295,True,21,1,1,14
Y2-S2-257K25,5,462,AS,exp,46,↓,down,↓,0.6952482992783189,True,20,1,0,14
Y2-S2-257K25,5,463,AS,exp,26,→,right,→,0.840973099693656,True,20,1,0,14
Y2-S2-257K25,5,464,AS,exp,34,↑,up,↑,0.7413755003362894,True,20,1,0,14
Y2-S2-257K25,5,465,AS,exp,38,←,left,←,0.9748706994578242,True,19,1,0,14
Y2-S2-257K25,5,466,AS,exp,40,↓,down,↓,0.853511200286448,True,19,1,0,14
Y2-S2-257K25,5,467,AS,exp,28,→,right,→,0.49420069996267557,True,19,1,0,14
Y2-S2-257K25,5,468,AS,exp,25,←,left,←,0.707036399282515,True,18,1,0,14
Y2-S2-257K25,5,469,AS,exp,38,→,right,→,0.6130414996296167,True,18,1,0,14
Y2-S2-257K25,5,470,AS,exp,39,↓,down,↓,0.6559637002646923,True,18,1,0,14
Y2-S2-257K25,5,471,AS,exp,45,↑,right,→,0.863871700130403,False,17,-1,1,15
Y2-S2-257K25,5,472,AS,exp,35,→,right,→,0.5312000997364521,True,18,-1,0,15
Y2-S2-257K25,5,473,AS,exp,30,↓,up,↑,0.8463083002716303,False,18,-1,0,15
Y2-S2-257K25,5,474,AS,exp,48,←,left,←,0.5740191005170345,True,19,-1,0,15
Y2-S2-257K25,5,475,AS,exp,29,→,right,→,0.529530799947679,True,19,-1,0,15
Y2-S2-257K25,5,476,AS,exp,41,↓,right,→,0.6405084999278188,False,19,-1,0,15
Y2-S2-257K25,5,477,AS,exp,48,→,right,→,0.8674184000119567,True,20,-1,0,15
Y2-S2-257K25,5,478,AS,exp,33,↓,no_key,no_letter,-1.0,False,20,-1,0,15
Y2-S2-257K25,5,479,AS,exp,41,→,right,→,0.5805994998663664,True,21,-1,0,15
Y2-S2-257K25,5,480,AS,exp,35,↓,down,↓,0.7506013996899128,True,21,-1,0,15
Y2-S2-257K25,5,481,AS,exp,47,↑,up,↑,0.9503653002902865,True,21,1,1,16
Y2-S2-257K25,6,482,PS,intra_train,40,↓,down,↓,0.6432929998263717,True,13,-,-,-
Y2-S2-257K25,6,483,PS,intra_train,25,↑,up,↑,0.5232375003397465,True,13,-,-,-
Y2-S2-257K25,6,484,PS,intra_train,33,↓,up,↑,0.5263267001137137,False,13,-,-,-
Y2-S2-257K25,6,485,PS,intra_train,25,→,right,→,0.5330967996269464,True,13,-,-,-
Y2-S2-257K25,6,486,PS,intra_train,41,↓,down,↓,0.6547159003093839,True,13,-,-,-
Y2-S2-257K25,6,487,PS,exp,35,←,left,←,0.5709734000265598,True,9,0,0,0
Y2-S2-257K25,6,488,PS,exp,37,→,right,→,0.5312852999195457,True,9,0,0,0
Y2-S2-257K25,6,489,PS,exp,43,↑,up,↑,0.8617278998717666,True,9,1,0,0
Y2-S2-257K25,6,490,PS,exp,36,↓,up,↑,0.7599581005051732,False,8,-1,1,1
Y2-S2-257K25,6,491,PS,exp,35,←,right,→,0.9695236999541521,False,9,-1,0,1
Y2-S2-257K25,6,492,PS,exp,29,↓,down,↓,0.7010856000706553,True,10,-1,0,1
Y2-S2-257K25,6,493,PS,exp,38,→,right,→,0.625874400138855,True,10,-1,0,1
Y2-S2-257K25,6,494,PS,exp,32,←,left,←,0.49741540011018515,True,10,1,1,2
Y2-S2-257K25,6,495,PS,exp,31,↓,down,↓,0.7445054994896054,True,9,1,0,2
Y2-S2-257K25,6,496,PS,exp,26,→,right,→,0.5232350993901491,True,9,1,0,2
Y2-S2-257K25,6,497,PS,exp,31,←,left,←,0.5010074991732836,True,9,1,0,2
Y2-S2-257K25,6,498,PS,exp,45,→,right,→,0.101146399974823,True,8,1,0,2
Y2-S2-257K25,6,499,PS,exp,35,↑,right,→,0.7371521992608905,False,8,-1,1,3
Y2-S2-257K25,6,500,PS,exp,38,←,left,←,0.5023410003632307,True,9,-1,0,3
Y2-S2-257K25,6,501,PS,exp,36,→,right,→,0.5811935998499393,True,9,-1,0,3
Y2-S2-257K25,6,502,PS,exp,50,↑,up,↑,0.7570321997627616,True,9,1,1,4
Y2-S2-257K25,6,503,PS,exp,45,←,left,←,0.47707349993288517,True,8,1,0,4
Y2-S2-257K25,6,504,PS,exp,48,↑,right,→,0.48173740040510893,False,8,-1,1,5
Y2-S2-257K25,6,505,PS,exp,43,←,down,↓,0.7154498007148504,False,9,-1,0,5
Y2-S2-257K25,6,506,PS,exp,36,↑,up,↑,0.8411896005272865,True,10,-1,0,5
Y2-S2-257K25,6,507,PS,exp,42,↓,down,↓,0.6424783999100327,True,10,-1,0,5
Y2-S2-257K25,6,508,PS,exp,45,↑,up,↑,0.43050780054181814,True,10,1,1,6
Y2-S2-257K25,6,509,PS,exp,36,←,down,↓,0.9543936997652054,False,9,-1,1,7
Y2-S2-257K25,6,510,PS,exp,47,↓,left,←,0.6966987997293472,False,10,-1,0,7
Y2-S2-257K25,6,511,PS,exp,35,→,right,→,0.5834184996783733,True,11,-1,0,7
Y2-S2-257K25,6,512,PS,exp,41,←,left,←,0.45855600014328957,True,11,-1,0,7
Y2-S2-257K25,6,513,PS,exp,44,↓,up,↑,0.9439828991889954,False,11,-1,0,7
Y2-S2-257K25,6,514,PS,exp,36,←,left,←,0.4961391994729638,True,12,-1,0,7
Y2-S2-257K25,6,515,PS,exp,25,→,right,→,0.7585557997226715,True,12,-1,0,7
Y2-S2-257K25,6,516,PS,exp,29,←,no_key,no_letter,-1.0,False,12,-1,0,7
Y2-S2-257K25,6,517,PS,exp,27,↓,down,↓,0.6041505001485348,True,13,-1,0,7
Y2-S2-257K25,6,518,PS,exp,30,→,right,→,0.5686838999390602,True,13,-1,0,7
Y2-S2-257K25,6,519,PS,exp,49,↑,up,↑,0.4676306005567312,True,13,1,1,8
Y2-S2-257K25,6,520,PS,exp,25,→,right,→,0.5446359002962708,True,12,1,0,8
Y2-S2-257K25,6,521,PS,exp,44,↓,no_key,no_letter,-1.0,False,12,-1,1,9
Y2-S2-257K25,6,522,PS,exp,41,↑,up,↑,0.4861083999276161,True,13,-1,0,9
Y2-S2-257K25,6,523,PS,exp,26,↓,down,↓,0.6562669007107615,True,13,-1,0,9
Y2-S2-257K25,6,524,PS,exp,38,→,right,→,0.6780865993350744,True,13,1,1,10
Y2-S2-257K25,6,525,PS,exp,35,↑,down,↓,0.96919159963727,False,12,-1,1,11
Y2-S2-257K25,6,526,PS,exp,43,→,right,→,0.5488358996808529,True,13,-1,0,11
Y2-S2-257K25,6,527,PS,exp,48,←,up,↑,1.0425073001533747,False,13,-1,0,11
Y2-S2-257K25,6,528,PS,exp,33,↑,up,↑,0.5046156998723745,True,14,-1,0,11
Y2-S2-257K25,6,529,PS,exp,32,←,up,↑,0.7529873000457883,False,14,-1,0,11
Y2-S2-257K25,6,530,PS,exp,42,↓,up,↑,0.503922900184989,False,15,-1,0,11
Y2-S2-257K25,6,531,PS,exp,42,→,right,→,0.4928695000708103,True,16,-1,0,11
Y2-S2-257K25,6,532,PS,exp,40,↓,down,↓,0.6915277997031808,True,16,-1,0,11
Y2-S2-257K25,6,533,PS,exp,43,→,right,→,0.5487235998734832,True,16,1,1,12
Y2-S2-257K25,6,534,PS,exp,35,↑,down,↓,0.8541978998109698,False,15,-1,1,13
Y2-S2-257K25,6,535,PS,exp,41,→,right,→,0.5192783996462822,True,16,-1,0,13
Y2-S2-257K25,6,536,PS,exp,32,←,left,←,0.505337200127542,True,16,-1,0,13
Y2-S2-257K25,6,537,PS,exp,48,↓,up,↑,0.7899305000901222,False,16,-1,0,13
Y2-S2-257K25,6,538,PS,exp,50,↑,up,↑,0.4915062999352813,True,17,-1,0,13
Y2-S2-257K25,6,539,PS,exp,33,→,up,↑,0.5832309005782008,False,17,-1,0,13
Y2-S2-257K25,6,540,PS,exp,42,↑,up,↑,0.4872463997453451,True,18,-1,0,13
Y2-S2-257K25,6,541,PS,exp,38,↓,up,↑,0.4994927002117038,False,18,-1,0,13
Y2-S2-257K25,6,542,PS,exp,35,↑,right,→,0.588531400077045,False,19,-1,0,13
Y2-S2-257K25,6,543,PS,exp,42,→,left,←,0.5527857998386025,False,20,-1,0,13
Y2-S2-257K25,6,544,PS,exp,30,←,left,←,0.5850876001641154,True,21,-1,0,13
Y2-S2-257K25,6,545,PS,exp,43,→,right,→,0.6107717994600534,True,21,-1,0,13
Y2-S2-257K25,6,546,PS,exp,49,←,left,←,0.5448535997420549,True,21,1,1,14
Y2-S2-257K25,6,547,PS,exp,42,↓,down,↓,0.6797652998939157,True,20,1,0,14
Y2-S2-257K25,6,548,PS,exp,48,→,right,→,0.5242424001917243,True,20,1,0,14
Y2-S2-257K25,6,549,PS,exp,50,↓,down,↓,0.6351433005183935,True,20,1,0,14
Y2-S2-257K25,6,550,PS,exp,27,→,down,↓,0.9405960999429226,False,19,-1,1,15
Y2-S2-257K25,6,551,PS,exp,27,↓,no_key,no_letter,-1.0,False,20,-1,0,15
Y2-S2-257K25,6,552,PS,exp,38,→,down,↓,0.6269389996305108,False,21,-1,0,15
Y2-S2-257K25,6,553,PS,exp,32,↓,down,↓,0.4505596999078989,True,22,-1,0,15
Y2-S2-257K25,6,554,PS,exp,33,→,right,→,0.6384364003315568,True,22,-1,0,15
Y2-S2-257K25,6,555,PS,exp,33,←,left,←,0.5834381999447942,True,22,1,1,16
Y2-S2-257K25,7,556,PS,intra_train,32,↑,up,↑,0.9935312997549772,True,13,-,-,-
Y2-S2-257K25,7,557,PS,intra_train,25,←,left,←,0.48157279938459396,True,13,-,-,-
Y2-S2-257K25,7,558,PS,intra_train,47,↓,down,↓,0.6759027000516653,True,13,-,-,-
Y2-S2-257K25,7,559,PS,intra_train,25,↑,up,↑,0.4614660991355777,True,13,-,-,-
Y2-S2-257K25,7,560,PS,intra_train,36,↓,up,↑,0.6125713996589184,False,13,-,-,-
Y2-S2-257K25,7,561,PS,exp,40,←,left,←,0.5360239995643497,True,9,0,0,0
Y2-S2-257K25,7,562,PS,exp,49,↓,left,←,1.0042891995981336,False,9,-1,0,0
Y2-S2-257K25,7,563,PS,exp,25,←,left,←,0.6382525004446507,True,10,-1,0,0
Y2-S2-257K25,7,564,PS,exp,40,↑,up,↑,0.441707999445498,True,10,-1,0,0
Y2-S2-257K25,7,565,PS,exp,44,→,right,→,0.6845886996015906,True,10,1,1,1
Y2-S2-257K25,7,566,PS,exp,49,←,left,←,0.6817220998927951,True,9,1,0,1
Y2-S2-257K25,7,567,PS,exp,45,↑,right,→,0.6099992999807,False,9,-1,1,2
Y2-S2-257K25,7,568,PS,exp,46,→,right,→,0.5305284997448325,True,10,-1,0,2
Y2-S2-257K25,7,569,PS,exp,39,↓,down,↓,0.8206187002360821,True,10,-1,0,2
Y2-S2-257K25,7,570,PS,exp,44,←,up,↑,0.5487823998555541,False,10,-1,0,2
Y2-S2-257K25,7,571,PS,exp,35,↓,down,↓,0.7765111001208425,True,11,-1,0,2
Y2-S2-257K25,7,572,PS,exp,45,←,left,←,0.5377527000382543,True,11,-1,0,2
Y2-S2-257K25,7,573,PS,exp,39,→,right,→,0.46392720006406307,True,11,1,1,3
Y2-S2-257K25,7,574,PS,exp,45,↓,down,↓,0.7842014003545046,True,10,1,0,3
Y2-S2-257K25,7,575,PS,exp,48,→,right,→,0.40611209999769926,True,10,1,0,3
Y2-S2-257K25,7,576,PS,exp,28,←,left,←,0.5116256000474095,True,10,1,0,3
Y2-S2-257K25,7,577,PS,exp,29,↓,no_key,no_letter,-1.0,False,9,-1,1,4
Y2-S2-257K25,7,578,PS,exp,38,↑,up,↑,0.5355290994048119,True,10,-1,0,4
Y2-S2-257K25,7,579,PS,exp,39,↓,up,↑,0.6394669990986586,False,10,-1,0,4
Y2-S2-257K25,7,580,PS,exp,27,↑,up,↑,0.4591825008392334,True,11,-1,0,4
Y2-S2-257K25,7,581,PS,exp,25,←,left,←,0.5311329001560807,True,11,-1,0,4
Y2-S2-257K25,7,582,PS,exp,29,→,up,↑,0.7836276004090905,False,11,-1,0,4
Y2-S2-257K25,7,583,PS,exp,33,↓,down,↓,0.7002643002197146,True,12,-1,0,4
Y2-S2-257K25,7,584,PS,exp,27,→,right,→,0.5391178000718355,True,12,-1,0,4
Y2-S2-257K25,7,585,PS,exp,39,↑,up,↑,1.2367724999785423,True,12,1,1,5
Y2-S2-257K25,7,586,PS,exp,35,→,up,↑,0.7298727994784713,False,11,-1,1,6
Y2-S2-257K25,7,587,PS,exp,42,↑,up,↑,0.5801488999277353,True,12,-1,0,6
Y2-S2-257K25,7,588,PS,exp,28,←,up,↑,0.4449097001925111,False,12,-1,0,6
Y2-S2-257K25,7,589,PS,exp,27,→,right,→,0.612457999959588,True,13,-1,0,6
Y2-S2-257K25,7,590,PS,exp,43,←,right,→,0.6772726997733116,False,13,-1,0,6
Y2-S2-257K25,7,591,PS,exp,36,→,right,→,0.48892010003328323,True,14,-1,0,6
Y2-S2-257K25,7,592,PS,exp,36,↑,up,↑,0.6376849999651313,True,14,-1,0,6
Y2-S2-257K25,7,593,PS,exp,42,↓,down,↓,0.9092242000624537,True,14,1,1,7
Y2-S2-257K25,7,594,PS,exp,28,→,right,→,0.5504441000521183,True,13,1,0,7
Y2-S2-257K25,7,595,PS,exp,43,↓,up,↑,0.49089889973402023,False,13,-1,1,8
Y2-S2-257K25,7,596,PS,exp,38,←,up,↑,0.4947461001574993,False,14,-1,0,8
Y2-S2-257K25,7,597,PS,exp,33,↑,up,↑,0.5299867996945977,True,15,-1,0,8
Y2-S2-257K25,7,598,PS,exp,38,←,left,←,0.893835099413991,True,15,-1,0,8
Y2-S2-257K25,7,599,PS,exp,46,↓,up,↑,0.5103325992822647,False,15,-1,0,8
Y2-S2-257K25,7,600,PS,exp,30,→,right,→,0.5133216008543968,True,16,-1,0,8
Y2-S2-257K25,7,601,PS,exp,49,↑,up,↑,0.5569652998819947,True,16,-1,0,8
Y2-S2-257K25,7,602,PS,exp,48,←,left,←,0.686765999533236,True,16,1,1,9
Y2-S2-257K25,7,603,PS,exp,42,↑,up,↑,0.5214448999613523,True,15,1,0,9
Y2-S2-257K25,7,604,PS,exp,44,↓,down,↓,0.9315392002463341,True,15,1,0,9
Y2-S2-257K25,7,605,PS,exp,32,→,right,→,0.5673513999208808,True,15,1,0,9
Y2-S2-257K25,7,606,PS,exp,50,↑,up,↑,0.516112900339067,True,14,1,0,9
Y2-S2-257K25,7,607,PS,exp,37,→,up,↑,0.6397342998534441,False,14,-1,1,10
Y2-S2-257K25,7,608,PS,exp,37,↓,down,↓,0.7415989004075527,True,15,-1,0,10
Y2-S2-257K25,7,609,PS,exp,40,←,left,←,0.5530691994354129,True,15,-1,0,10
Y2-S2-257K25,7,610,PS,exp,29,→,up,↑,0.7755706999450922,False,15,-1,0,10
Y2-S2-257K25,7,611,PS,exp,25,↓,down,↓,0.8034508004784584,True,16,-1,0,10
Y2-S2-257K25,7,612,PS,exp,48,↑,up,↑,0.489707900211215,True,16,-1,0,10
Y2-S2-257K25,7,613,PS,exp,26,←,left,←,0.6211904995143414,True,16,1,1,11
Y2-S2-257K25,7,614,PS,exp,40,→,up,↑,0.7781981993466616,False,15,-1,1,12
Y2-S2-257K25,7,615,PS,exp,48,←,left,←,0.5806703008711338,True,16,-1,0,12
Y2-S2-257K25,7,616,PS,exp,44,↑,up,↑,0.5293749002739787,True,16,-1,0,12
Y2-S2-257K25,7,617,PS,exp,26,↓,up,↑,0.5768389003351331,False,16,-1,0,12
Y2-S2-257K25,7,618,PS,exp,34,←,up,↑,1.4195975000038743,False,17,-1,0,12
Y2-S2-257K25,7,619,PS,exp,43,↑,up,↑,0.5203838003799319,True,18,-1,0,12
Y2-S2-257K25,7,620,PS,exp,33,→,right,→,0.5778655000030994,True,18,-1,0,12
Y2-S2-257K25,7,621,PS,exp,36,↑,up,↑,0.5690708998590708,True,18,1,1,13
Y2-S2-257K25,7,622,PS,exp,29,↓,down,↓,0.775959299877286,True,17,1,0,13
Y2-S2-257K25,7,623,PS,exp,47,←,left,←,0.5503195002675056,True,17,1,0,13
Y2-S2-257K25,7,624,PS,exp,42,→,right,→,0.47552549932152033,True,17,1,0,13
Y2-S2-257K25,7,625,PS,exp,45,↑,up,↑,0.4545273995026946,True,16,1,0,13
Y2-S2-257K25,7,626,PS,exp,38,↓,down,↓,0.6620876993983984,True,16,1,0,13
Y2-S2-257K25,7,627,PS,exp,45,↑,up,↑,0.523908800445497,True,16,1,0,13
Y2-S2-257K25,7,628,PS,exp,50,→,right,→,0.5907207001000643,True,15,1,0,13
Y2-S2-257K25,7,629,PS,exp,36,←,left,←,0.6168066998943686,True,15,1,0,13
Y2-S2-257K25,7,630,PS,exp,34,↓,down,↓,0.7394443992525339,True,15,1,0,13
Y2-S2-257K25,7,631,PS,exp,36,→,right,→,0.41198220010846853,True,14,1,0,13
Y2-S2-257K25,7,632,PS,exp,45,↓,down,↓,0.688416600227356,True,14,1,0,13
Y2-S2-257K25,7,633,PS,exp,27,↑,up,↑,0.9288331000134349,True,14,1,0,13
Y2-S2-257K25,7,634,PS,exp,44,←,left,←,0.5114703001454473,True,13,1,0,13
Y2-S2-257K25,7,635,PS,exp,48,↓,down,↓,0.6214499995112419,True,13,1,0,13
Y2-S2-257K25,7,636,PS,exp,25,→,right,→,0.603854600340128,True,13,1,0,13
Y2-S2-257K25,7,637,PS,exp,33,↑,up,↑,0.9654769003391266,True,12,1,0,13
Y2-S2-257K25,7,638,PS,exp,43,←,left,←,0.4857809003442526,True,12,1,0,13
Y2-S2-257K25,7,639,PS,exp,50,→,right,→,0.611013799905777,True,12,1,0,13
Y2-S2-257K25,7,640,PS,exp,38,←,left,←,0.49996159970760345,True,11,1,0,13
Y2-S2-257K25,7,641,PS,exp,37,→,right,→,0.5389411998912692,True,11,1,0,13
Y2-S2-257K25,7,642,PS,exp,36,↑,up,↑,0.8183265998959541,True,11,1,0,13
Y2-S2-257K25,7,643,PS,exp,48,↓,down,↓,0.6778063997626305,True,10,1,0,13
Y2-S2-257K25,7,644,PS,exp,45,↑,up,↑,0.4773393999785185,True,10,1,0,13
Y2-S2-257K25,7,645,PS,exp,43,→,right,→,0.4021792998537421,True,10,1,0,13
Y2-S2-257K25,7,646,PS,exp,25,↑,up,↑,0.46323519945144653,True,9,1,0,13
Y2-S2-257K25,7,647,PS,exp,38,→,right,→,0.5071037001907825,True,9,1,0,13
Y2-S2-257K25,7,648,PS,exp,33,←,left,←,0.6406556004658341,True,9,1,0,13
Y2-S2-257K25,7,649,PS,exp,29,↓,down,↓,0.7247102996334434,True,8,1,0,13
Y2-S2-257K25,7,650,PS,exp,26,↑,up,↑,0.4986140998080373,True,8,1,0,13
Y2-S2-257K25,7,651,PS,exp,36,←,up,↑,0.571777100674808,False,8,-1,1,14
Y2-S2-257K25,7,652,PS,exp,38,↓,left,←,0.589108900167048,False,9,-1,0,14
Y2-S2-257K25,7,653,PS,exp,43,←,left,←,0.5128049999475479,True,10,-1,0,14
Y2-S2-257K25,7,654,PS,exp,44,↑,up,↑,0.5588244004175067,True,10,-1,0,14
Y2-S2-257K25,7,655,PS,exp,31,→,right,→,0.512224200181663,True,10,1,1,15
Y2-S2-257K25,7,656,PS,exp,32,↓,left,←,0.6412641992792487,False,9,-1,1,16
Y2-S2-257K25,8,657,AS,intra_train,42,↑,up,↑,0.5842065000906587,True,31,-,-,-
Y2-S2-257K25,8,658,AS,intra_train,43,↓,down,↓,0.858933700248599,True,31,-,-,-
Y2-S2-257K25,8,659,AS,intra_train,40,←,left,←,1.0681459000334144,True,31,-,-,-
Y2-S2-257K25,8,660,AS,intra_train,26,↑,up,↑,0.6508703995496035,True,31,-,-,-
Y2-S2-257K25,8,661,AS,intra_train,31,←,left,←,0.7572312001138926,True,31,-,-,-
Y2-S2-257K25,8,662,AS,exp,38,↑,up,↑,0.5878421999514103,True,21,0,0,0
Y2-S2-257K25,8,663,AS,exp,29,←,left,←,0.7294309996068478,True,21,0,0,0
Y2-S2-257K25,8,664,AS,exp,30,→,right,→,0.5718403998762369,True,21,1,0,0
Y2-S2-257K25,8,665,AS,exp,44,←,left,←,0.878039600327611,True,20,1,0,0
Y2-S2-257K25,8,666,AS,exp,46,↑,up,↑,0.7752820998430252,True,20,1,0,0
Y2-S2-257K25,8,667,AS,exp,33,→,right,→,0.519339700229466,True,20,1,0,0
Y2-S2-257K25,8,668,AS,exp,46,↑,up,↑,0.6536740995943546,True,19,1,0,0
Y2-S2-257K25,8,669,AS,exp,47,→,right,→,0.5319779003039002,True,19,1,0,0
Y2-S2-257K25,8,670,AS,exp,26,↓,up,↑,0.8086526999250054,False,19,-1,1,1
Y2-S2-257K25,8,671,AS,exp,29,→,right,→,0.7646495001390576,True,20,-1,0,1
Y2-S2-257K25,8,672,AS,exp,39,↓,down,↓,0.9745255997404456,True,20,-1,0,1
Y2-S2-257K25,8,673,AS,exp,50,←,left,←,0.8244931995868683,True,20,1,1,2
Y2-S2-257K25,8,674,AS,exp,36,↑,up,↑,0.6196736004203558,True,19,1,0,2
Y2-S2-257K25,8,675,AS,exp,48,←,left,←,0.5511658992618322,True,19,1,0,2
Y2-S2-257K25,8,676,AS,exp,38,↑,up,↑,0.5343877002596855,True,19,1,0,2
Y2-S2-257K25,8,677,AS,exp,48,←,left,←,0.4743021996691823,True,18,1,0,2
Y2-S2-257K25,8,678,AS,exp,30,→,right,→,0.6003542998805642,True,18,1,0,2
Y2-S2-257K25,8,679,AS,exp,29,↓,down,↓,0.8971052998676896,True,18,1,0,2
Y2-S2-257K25,8,680,AS,exp,34,→,right,→,0.7902295999228954,True,17,1,0,2
Y2-S2-257K25,8,681,AS,exp,42,↓,down,↓,0.7396670002490282,True,17,1,0,2
Y2-S2-257K25,8,682,AS,exp,30,→,right,→,0.595066400244832,True,17,1,0,2
Y2-S2-257K25,8,683,AS,exp,34,←,left,←,1.2315667001530528,True,16,1,0,2
Y2-S2-257K25,8,684,AS,exp,40,↓,right,→,0.798594200052321,False,16,-1,1,3
Y2-S2-257K25,8,685,AS,exp,40,→,right,→,0.521841099485755,True,17,-1,0,3
Y2-S2-257K25,8,686,AS,exp,33,↓,down,↓,0.7284038001671433,True,17,-1,0,3
Y2-S2-257K25,8,687,AS,exp,34,→,right,→,0.5477106999605894,True,17,1,1,4
Y2-S2-257K25,8,688,AS,exp,41,↓,down,↓,0.6098365001380444,True,16,1,0,4
Y2-S2-257K25,8,689,AS,exp,42,→,right,→,0.606716999784112,True,16,1,0,4
Y2-S2-257K25,8,690,AS,exp,28,↓,right,→,0.7194247003644705,False,16,-1,1,5
Y2-S2-257K25,8,691,AS,exp,47,↑,up,↑,0.5299955001100898,True,17,-1,0,5
Y2-S2-257K25,8,692,AS,exp,29,↓,down,↓,0.8159028999507427,True,17,-1,0,5
Y2-S2-257K25,8,693,AS,exp,49,↑,up,↑,0.5353156998753548,True,17,1,1,6
Y2-S2-257K25,8,694,AS,exp,47,←,left,←,0.7022270997986197,True,16,1,0,6
Y2-S2-257K25,8,695,AS,exp,48,→,right,→,0.511192699894309,True,16,1,0,6
Y2-S2-257K25,8,696,AS,exp,26,↑,up,↑,0.5377158001065254,True,16,1,0,6
Y2-S2-257K25,8,697,AS,exp,29,←,right,→,0.7133855996653438,False,15,-1,1,7
Y2-S2-257K25,8,698,AS,exp,35,↓,down,↓,0.6138737993314862,True,16,-1,0,7
Y2-S2-257K25,8,699,AS,exp,50,↑,up,↑,0.5761702992022038,True,16,-1,0,7
Y2-S2-257K25,8,700,AS,exp,42,↓,right,→,0.6210266007110476,False,16,-1,0,7
Y2-S2-257K25,8,701,AS,exp,32,←,up,↑,0.7273185001686215,False,17,-1,0,7
Y2-S2-257K25,8,702,AS,exp,29,↑,up,↑,0.47245389968156815,True,18,-1,0,7
Y2-S2-257K25,8,703,AS,exp,50,↓,down,↓,0.8330364990979433,True,18,-1,0,7
Y2-S2-257K25,8,704,AS,exp,45,←,left,←,0.6902983002364635,True,18,1,1,8
Y2-S2-257K25,8,705,AS,exp,33,↑,up,↑,0.7655639005824924,True,17,1,0,8
Y2-S2-257K25,8,706,AS,exp,47,→,right,→,0.5335230994969606,True,17,1,0,8
Y2-S2-257K25,8,707,AS,exp,32,←,left,←,0.541457699611783,True,17,1,0,8
Y2-S2-257K25,8,708,AS,exp,26,↓,left,←,0.5368572995066643,False,16,-1,1,9
Y2-S2-257K25,8,709,AS,exp,41,←,right,→,0.4622582998126745,False,17,-1,0,9
Y2-S2-257K25,8,710,AS,exp,28,↑,up,↑,0.6160461008548737,True,18,-1,0,9
Y2-S2-257K25,8,711,AS,exp,35,↓,down,↓,0.8190927002578974,True,18,-1,0,9
Y2-S2-257K25,8,712,AS,exp,27,←,left,←,0.7035063002258539,True,18,1,1,10
Y2-S2-257K25,8,713,AS,exp,39,↓,down,↓,0.6861380003392696,True,17,1,0,10
Y2-S2-257K25,8,714,AS,exp,45,←,left,←,0.5537489000707865,True,17,1,0,10
Y2-S2-257K25,8,715,AS,exp,28,↑,left,←,0.8245406001806259,False,17,-1,1,11
Y2-S2-257K25,8,716,AS,exp,36,→,right,→,0.5024179993197322,True,18,-1,0,11
Y2-S2-257K25,8,717,AS,exp,35,↓,down,↓,0.8042481001466513,True,18,-1,0,11
Y2-S2-257K25,8,718,AS,exp,33,↑,up,↑,0.48696659971028566,True,18,1,1,12
Y2-S2-257K25,8,719,AS,exp,45,↓,right,→,1.1500965002924204,False,17,-1,1,13
Y2-S2-257K25,8,720,AS,exp,34,↑,up,↑,0.6689780000597239,True,18,-1,0,13
Y2-S2-257K25,8,721,AS,exp,41,←,left,←,0.5061422996222973,True,18,-1,0,13
Y2-S2-257K25,8,722,AS,exp,40,↓,down,↓,0.6359779005870223,True,18,1,1,14
Y2-S2-257K25,8,723,AS,exp,30,←,left,←,0.5069032004103065,True,17,1,0,14
Y2-S2-257K25,8,724,AS,exp,42,→,right,→,0.5863816002383828,True,17,1,0,14
Y2-S2-257K25,8,725,AS,exp,28,←,left,←,0.514477800577879,True,17,1,0,14
Y2-S2-257K25,8,726,AS,exp,49,↓,up,↑,0.7578587997704744,False,16,-1,1,15
Y2-S2-257K25,8,727,AS,exp,40,←,left,←,0.678337600082159,True,17,-1,0,15
Y2-S2-257K25,8,728,AS,exp,34,↓,up,↑,0.7617409005761147,False,17,-1,0,15
Y2-S2-257K25,8,729,AS,exp,43,→,up,↑,0.8353120004758239,False,18,-1,0,15
Y2-S2-257K25,8,730,AS,exp,36,↓,down,↓,0.657914699986577,True,19,-1,0,15
Y2-S2-257K25,8,731,AS,exp,43,↑,up,↑,0.6918448004871607,True,19,-1,0,15
Y2-S2-257K25,8,732,AS,exp,47,←,left,←,1.662160899490118,True,19,1,1,16
