PART_ID,Block_no,Trial_no,Block_type,Trial_type,CSI,Stim_letter,Key_pressed,letter_choose,Rt,Corr,Stimulus Time,Level,Reversal,Revs_count
Y2-S2-012M26,1,1,PS,train,25,↓,down,↓,0.8672608999768272,True,30,-,-,-
Y2-S2-012M26,1,2,PS,train,37,←,left,←,0.8325317999115214,True,30,-,-,-
Y2-S2-012M26,1,3,PS,train,40,↑,up,↑,0.9256855000276119,True,30,-,-,-
Y2-S2-012M26,1,4,PS,train,31,→,right,→,0.7888789999997243,True,30,-,-,-
Y2-S2-012M26,1,5,PS,train,48,↑,up,↑,0.7361373000312597,True,30,-,-,-
Y2-S2-012M26,1,6,PS,train,34,←,left,←,1.163499099900946,True,30,-,-,-
Y2-S2-012M26,1,7,PS,train,40,→,right,→,1.3559326999820769,True,30,-,-,-
Y2-S2-012M26,1,8,PS,train,40,↑,up,↑,1.0907105000223964,True,30,-,-,-
Y2-S2-012M26,1,9,PS,train,28,←,left,←,0.9724921999732032,True,30,-,-,-
Y2-S2-012M26,1,10,PS,train,38,→,right,→,1.2068965999642387,True,30,-,-,-
Y2-S2-012M26,2,11,AS,train,32,↑,up,↑,0.7505782999796793,True,45,-,-,-
Y2-S2-012M26,2,12,AS,train,44,←,left,←,1.427707599941641,True,45,-,-,-
Y2-S2-012M26,2,13,AS,train,33,↑,up,↑,1.2413876000791788,True,45,-,-,-
Y2-S2-012M26,2,14,AS,train,34,→,right,→,1.4198390999808908,True,45,-,-,-
Y2-S2-012M26,2,15,AS,train,42,↑,up,↑,1.3881876000668854,True,45,-,-,-
Y2-S2-012M26,2,16,AS,train,41,↓,down,↓,1.5468754000030458,True,45,-,-,-
Y2-S2-012M26,2,17,AS,train,41,←,left,←,1.254640999948606,True,45,-,-,-
Y2-S2-012M26,2,18,AS,train,28,→,right,→,1.307623100001365,True,45,-,-,-
Y2-S2-012M26,2,19,AS,train,28,↓,down,↓,1.2522155999904498,True,45,-,-,-
Y2-S2-012M26,2,20,AS,train,33,→,right,→,1.4142708000726998,True,45,-,-,-
Y2-S2-012M26,-,21,PS,adaptive,37,↑,down,↓,1.103899999987334,False,10,-1,0,0
Y2-S2-012M26,-,22,PS,adaptive,34,←,left,←,0.672542899963446,True,11,-1,0,0
Y2-S2-012M26,-,23,PS,adaptive,49,↓,down,↓,0.756479199975729,True,11,-1,0,0
Y2-S2-012M26,-,24,PS,adaptive,44,→,right,→,0.7647536000004038,True,11,1,1,1
Y2-S2-012M26,-,25,PS,adaptive,36,↑,left,←,0.8938517000060529,False,10,-1,1,2
Y2-S2-012M26,-,26,PS,adaptive,35,→,right,→,1.03589059994556,True,11,-1,0,2
Y2-S2-012M26,-,27,PS,adaptive,50,←,left,←,0.6498622000217438,True,11,-1,0,2
Y2-S2-012M26,-,28,PS,adaptive,48,→,right,→,0.693629699992016,True,11,1,1,3
Y2-S2-012M26,-,29,PS,adaptive,42,↓,down,↓,0.8513839000370353,True,10,1,0,3
Y2-S2-012M26,-,30,PS,adaptive,38,←,left,←,0.6069980999454856,True,10,1,0,3
Y2-S2-012M26,-,31,PS,adaptive,38,↓,down,↓,0.7410684000933543,True,10,1,0,3
Y2-S2-012M26,-,32,PS,adaptive,30,↑,down,↓,0.8653587000444531,False,9,-1,1,4
Y2-S2-012M26,-,33,AS,adaptive,45,→,right,→,0.5573264000704512,True,20,0,0,0
Y2-S2-012M26,-,34,AS,adaptive,50,←,left,←,0.7175968000665307,True,20,0,0,0
Y2-S2-012M26,-,35,AS,adaptive,29,→,right,→,0.7346892000641674,True,20,1,0,0
Y2-S2-012M26,-,36,AS,adaptive,33,←,left,←,0.5171825001016259,True,19,1,0,0
Y2-S2-012M26,-,37,AS,adaptive,47,↓,down,↓,0.7383553999243304,True,19,1,0,0
Y2-S2-012M26,-,38,AS,adaptive,30,↑,up,↑,0.7412222999846563,True,19,1,0,0
Y2-S2-012M26,-,39,AS,adaptive,37,←,left,←,0.9034534000093117,True,18,1,0,0
Y2-S2-012M26,-,40,AS,adaptive,27,↑,up,↑,0.7794413999654353,True,18,1,0,0
Y2-S2-012M26,-,41,AS,adaptive,47,→,right,→,0.7273282000096515,True,18,1,0,0
Y2-S2-012M26,-,42,AS,adaptive,43,↑,up,↑,0.9582344999071211,True,17,1,0,0
Y2-S2-012M26,-,43,AS,adaptive,29,↓,down,↓,0.7857290001120418,True,17,1,0,0
Y2-S2-012M26,-,44,AS,adaptive,38,→,right,→,0.7732260000193492,True,17,1,0,0
Y2-S2-012M26,-,45,AS,adaptive,33,←,down,↓,0.8808950000675395,False,16,-1,1,1
Y2-S2-012M26,-,46,AS,adaptive,28,↑,down,↓,0.8982248000102118,False,17,-1,0,1
Y2-S2-012M26,-,47,AS,adaptive,32,↓,down,↓,0.8269717999501154,True,18,-1,0,1
Y2-S2-012M26,-,48,AS,adaptive,33,←,left,←,0.8295270000817254,True,18,-1,0,1
Y2-S2-012M26,-,49,AS,adaptive,38,→,right,→,0.7117754000937566,True,18,1,1,2
Y2-S2-012M26,-,50,AS,adaptive,35,↓,down,↓,0.8129534999607131,True,17,1,0,2
Y2-S2-012M26,-,51,AS,adaptive,49,→,right,→,0.7073690999532118,True,17,1,0,2
Y2-S2-012M26,-,52,AS,adaptive,27,↓,down,↓,0.7145832000533119,True,17,1,0,2
Y2-S2-012M26,-,53,AS,adaptive,45,←,left,←,0.7741446999134496,True,16,1,0,2
Y2-S2-012M26,-,54,AS,adaptive,38,→,right,→,0.7359915999695659,True,16,1,0,2
Y2-S2-012M26,-,55,AS,adaptive,47,↓,down,↓,0.7565746000036597,True,16,1,0,2
Y2-S2-012M26,-,56,AS,adaptive,38,↑,up,↑,0.7189034000039101,True,15,1,0,2
Y2-S2-012M26,-,57,AS,adaptive,34,←,left,←,0.7325734999030828,True,15,1,0,2
Y2-S2-012M26,-,58,AS,adaptive,27,→,down,↓,0.7649940000846982,False,15,-1,1,3
Y2-S2-012M26,-,59,AS,adaptive,40,←,left,←,0.7071244000690058,True,16,-1,0,3
Y2-S2-012M26,-,60,AS,adaptive,34,↑,up,↑,0.6858550000470132,True,16,-1,0,3
Y2-S2-012M26,-,61,AS,adaptive,31,→,down,↓,0.8864529000129551,False,16,-1,0,3
Y2-S2-012M26,-,62,AS,adaptive,43,←,left,←,0.5870931999525055,True,17,-1,0,3
Y2-S2-012M26,-,63,AS,adaptive,27,↑,up,↑,0.6051105000078678,True,17,-1,0,3
Y2-S2-012M26,-,64,AS,adaptive,44,→,right,→,0.5446666999487206,True,17,1,1,4
Y2-S2-012M26,1,65,AS,intra_train,39,↓,down,↓,0.6500737000023946,True,24,-,-,-
Y2-S2-012M26,1,66,AS,intra_train,27,↑,up,↑,0.6865782999666408,True,24,-,-,-
Y2-S2-012M26,1,67,AS,intra_train,33,→,right,→,0.7311566000571474,True,24,-,-,-
Y2-S2-012M26,1,68,AS,intra_train,39,↑,up,↑,0.8704184000380337,True,24,-,-,-
Y2-S2-012M26,1,69,AS,intra_train,34,←,left,←,0.8378113000653684,True,24,-,-,-
Y2-S2-012M26,1,70,AS,exp,42,→,right,→,0.9082346999784932,True,16,0,0,0
Y2-S2-012M26,1,71,AS,exp,37,↓,down,↓,0.6783553999848664,True,16,0,0,0
Y2-S2-012M26,1,72,AS,exp,45,↑,up,↑,0.6470075999386609,True,16,1,0,0
Y2-S2-012M26,1,73,AS,exp,35,↓,down,↓,0.7699259999208152,True,15,1,0,0
Y2-S2-012M26,1,74,AS,exp,40,←,left,←,0.6009138999506831,True,15,1,0,0
Y2-S2-012M26,1,75,AS,exp,34,↓,down,↓,0.8051307999994606,True,15,1,0,0
Y2-S2-012M26,1,76,AS,exp,28,→,right,→,0.7358867999864742,True,14,1,0,0
Y2-S2-012M26,1,77,AS,exp,29,←,up,↑,0.7509296999778599,False,14,-1,1,1
Y2-S2-012M26,1,78,AS,exp,29,→,right,→,0.5565155999502167,True,15,-1,0,1
Y2-S2-012M26,1,79,AS,exp,40,←,left,←,0.595213699969463,True,15,-1,0,1
Y2-S2-012M26,1,80,AS,exp,33,→,right,→,0.7260812999447808,True,15,1,1,2
Y2-S2-012M26,1,81,AS,exp,30,↓,down,↓,0.7246841000160202,True,14,1,0,2
Y2-S2-012M26,1,82,AS,exp,30,↑,left,←,0.7663137000054121,False,14,-1,1,3
Y2-S2-012M26,1,83,AS,exp,45,←,left,←,0.7392313000746071,True,15,-1,0,3
Y2-S2-012M26,1,84,AS,exp,44,→,right,→,0.6806774999713525,True,15,-1,0,3
Y2-S2-012M26,1,85,AS,exp,43,↓,down,↓,0.8006047999951988,True,15,1,1,4
Y2-S2-012M26,1,86,AS,exp,46,↑,left,←,0.8547502000583336,False,14,-1,1,5
Y2-S2-012M26,1,87,AS,exp,49,→,right,→,0.6976524000056088,True,15,-1,0,5
Y2-S2-012M26,1,88,AS,exp,41,←,left,←,0.546407499932684,True,15,-1,0,5
Y2-S2-012M26,1,89,AS,exp,32,↓,right,→,0.9913415000773966,False,15,-1,0,5
Y2-S2-012M26,1,90,AS,exp,50,←,left,←,0.631111599970609,True,16,-1,0,5
Y2-S2-012M26,1,91,AS,exp,39,↓,down,↓,0.811185700003989,True,16,-1,0,5
Y2-S2-012M26,1,92,AS,exp,31,→,left,←,0.7851808000123128,False,16,-1,0,5
Y2-S2-012M26,1,93,AS,exp,27,←,down,↓,0.8931237999349833,False,17,-1,0,5
Y2-S2-012M26,1,94,AS,exp,37,→,right,→,0.5748859000159428,True,18,-1,0,5
Y2-S2-012M26,1,95,AS,exp,29,↑,up,↑,0.8203315999126062,True,18,-1,0,5
Y2-S2-012M26,1,96,AS,exp,29,←,left,←,0.7461293999804184,True,18,1,1,6
Y2-S2-012M26,1,97,AS,exp,32,→,right,→,0.6333771999925375,True,17,1,0,6
Y2-S2-012M26,1,98,AS,exp,25,↓,down,↓,0.8945444000419229,True,17,1,0,6
Y2-S2-012M26,1,99,AS,exp,33,→,right,→,0.7470591999590397,True,17,1,0,6
Y2-S2-012M26,1,100,AS,exp,31,←,left,←,0.8703365999972448,True,16,1,0,6
Y2-S2-012M26,1,101,AS,exp,42,↑,up,↑,0.5293087000027299,True,16,1,0,6
Y2-S2-012M26,1,102,AS,exp,36,←,left,←,0.8451789999380708,True,16,1,0,6
Y2-S2-012M26,1,103,AS,exp,37,→,right,→,0.7228701000567526,True,15,1,0,6
Y2-S2-012M26,1,104,AS,exp,31,↑,up,↑,0.6095715999836102,True,15,1,0,6
Y2-S2-012M26,1,105,AS,exp,33,↓,down,↓,0.7686079000122845,True,15,1,0,6
Y2-S2-012M26,1,106,AS,exp,30,←,left,←,0.7248272999422625,True,14,1,0,6
Y2-S2-012M26,1,107,AS,exp,42,↓,down,↓,0.7889934999402612,True,14,1,0,6
Y2-S2-012M26,1,108,AS,exp,31,←,left,←,0.6973840000573546,True,14,1,0,6
Y2-S2-012M26,1,109,AS,exp,30,→,right,→,0.792389600072056,True,13,1,0,6
Y2-S2-012M26,1,110,AS,exp,28,↑,left,←,0.7998881000094116,False,13,-1,1,7
Y2-S2-012M26,1,111,AS,exp,33,←,left,←,0.7194039999740198,True,14,-1,0,7
Y2-S2-012M26,1,112,AS,exp,39,↓,down,↓,0.7240034999558702,True,14,-1,0,7
Y2-S2-012M26,1,113,AS,exp,31,→,up,↑,0.9033572999760509,False,14,-1,0,7
Y2-S2-012M26,1,114,AS,exp,33,↑,up,↑,0.6526148000266403,True,15,-1,0,7
Y2-S2-012M26,1,115,AS,exp,34,↓,down,↓,0.7493621999165043,True,15,-1,0,7
Y2-S2-012M26,1,116,AS,exp,45,→,left,←,0.6759020000463352,False,15,-1,0,7
Y2-S2-012M26,1,117,AS,exp,30,↑,up,↑,0.5866573000093922,True,16,-1,0,7
Y2-S2-012M26,1,118,AS,exp,44,←,left,←,0.6324738999828696,True,16,-1,0,7
Y2-S2-012M26,1,119,AS,exp,43,→,right,→,0.8600123999640346,True,16,1,1,8
Y2-S2-012M26,1,120,AS,exp,36,↓,down,↓,0.6694223000667989,True,15,1,0,8
Y2-S2-012M26,1,121,AS,exp,32,↑,up,↑,0.6547060000011697,True,15,1,0,8
Y2-S2-012M26,1,122,AS,exp,47,←,left,←,0.5248519999440759,True,15,1,0,8
Y2-S2-012M26,1,123,AS,exp,28,↑,up,↑,0.5127420999342576,True,14,1,0,8
Y2-S2-012M26,1,124,AS,exp,31,→,right,→,0.8056287000654265,True,14,1,0,8
Y2-S2-012M26,1,125,AS,exp,41,↓,down,↓,0.7711790999164805,True,14,1,0,8
Y2-S2-012M26,1,126,AS,exp,37,←,left,←,0.5580525000113994,True,13,1,0,8
Y2-S2-012M26,1,127,AS,exp,44,↓,down,↓,0.6894042000640184,True,13,1,0,8
Y2-S2-012M26,1,128,AS,exp,26,→,right,→,0.6464905999600887,True,13,1,0,8
Y2-S2-012M26,1,129,AS,exp,26,↑,left,←,0.8666155999526381,False,12,-1,1,9
Y2-S2-012M26,1,130,AS,exp,41,←,right,→,0.7686590000521392,False,13,-1,0,9
Y2-S2-012M26,1,131,AS,exp,32,↓,left,←,1.6898045999696478,False,14,-1,0,9
Y2-S2-012M26,1,132,AS,exp,38,←,down,↓,0.8696448999689892,False,15,-1,0,9
Y2-S2-012M26,1,133,AS,exp,25,→,right,→,0.6719864000333473,True,16,-1,0,9
Y2-S2-012M26,1,134,AS,exp,49,↓,no_key,no_letter,-1.0,False,16,-1,0,9
Y2-S2-012M26,1,135,AS,exp,35,←,left,←,0.5680045000044629,True,17,-1,0,9
Y2-S2-012M26,1,136,AS,exp,45,↓,down,↓,0.7764077999163419,True,17,-1,0,9
Y2-S2-012M26,1,137,AS,exp,44,↑,up,↑,0.8147254000650719,True,17,1,1,10
Y2-S2-012M26,1,138,AS,exp,32,→,down,↓,1.0161536000669003,False,16,-1,1,11
Y2-S2-012M26,1,139,AS,exp,29,↓,down,↓,0.9970669000176713,True,17,-1,0,11
Y2-S2-012M26,1,140,AS,exp,41,→,right,→,0.6566566000692546,True,17,-1,0,11
Y2-S2-012M26,1,141,AS,exp,28,←,left,←,0.5420268999878317,True,17,1,1,12
Y2-S2-012M26,1,142,AS,exp,46,↓,down,↓,0.7892540999455377,True,16,1,0,12
Y2-S2-012M26,1,143,AS,exp,33,↑,left,←,0.9084192001027986,False,16,-1,1,13
Y2-S2-012M26,1,144,AS,exp,46,↓,down,↓,1.1570455000037327,True,17,-1,0,13
Y2-S2-012M26,1,145,AS,exp,30,↑,up,↑,0.5063494000351056,True,17,-1,0,13
Y2-S2-012M26,1,146,AS,exp,32,→,right,→,0.8055430999957025,True,17,1,1,14
Y2-S2-012M26,1,147,AS,exp,50,↓,down,↓,0.7346068000188097,True,16,1,0,14
Y2-S2-012M26,1,148,AS,exp,46,→,right,→,0.6260454999282956,True,16,1,0,14
Y2-S2-012M26,1,149,AS,exp,26,↓,down,↓,0.7599614999489859,True,16,1,0,14
Y2-S2-012M26,1,150,AS,exp,26,→,right,→,0.5133074000477791,True,15,1,0,14
Y2-S2-012M26,1,151,AS,exp,31,↓,left,←,0.7672383999451995,False,15,-1,1,15
Y2-S2-012M26,1,152,AS,exp,49,↑,down,↓,1.0182333999546245,False,16,-1,0,15
Y2-S2-012M26,1,153,AS,exp,35,↓,down,↓,0.7462420999072492,True,17,-1,0,15
Y2-S2-012M26,1,154,AS,exp,49,←,left,←,0.6107679000124335,True,17,-1,0,15
Y2-S2-012M26,1,155,AS,exp,42,↑,up,↑,0.5070147999795154,True,17,1,1,16
Y2-S2-012M26,2,156,PS,intra_train,36,→,right,→,0.6918438000138849,True,15,-,-,-
Y2-S2-012M26,2,157,PS,intra_train,29,↑,up,↑,0.5585506999632344,True,15,-,-,-
Y2-S2-012M26,2,158,PS,intra_train,48,→,right,→,0.7362298999214545,True,15,-,-,-
Y2-S2-012M26,2,159,PS,intra_train,43,↑,up,↑,0.6418754000915214,True,15,-,-,-
Y2-S2-012M26,2,160,PS,intra_train,49,←,left,←,0.6753797000274062,True,15,-,-,-
Y2-S2-012M26,2,161,PS,exp,25,→,right,→,0.577890699962154,True,10,0,0,0
Y2-S2-012M26,2,162,PS,exp,38,↓,down,↓,0.6844699999783188,True,10,0,0,0
Y2-S2-012M26,2,163,PS,exp,48,→,right,→,0.45133509999141097,True,10,1,0,0
Y2-S2-012M26,2,164,PS,exp,30,↓,left,←,0.6883636999409646,False,9,-1,1,1
Y2-S2-012M26,2,165,PS,exp,48,↑,down,↓,0.7276600999757648,False,10,-1,0,1
Y2-S2-012M26,2,166,PS,exp,27,→,right,→,0.5527707999572158,True,11,-1,0,1
Y2-S2-012M26,2,167,PS,exp,46,↑,up,↑,0.4855678000021726,True,11,-1,0,1
Y2-S2-012M26,2,168,PS,exp,45,↓,left,←,0.9060957001056522,False,11,-1,0,1
Y2-S2-012M26,2,169,PS,exp,47,←,left,←,0.5457250000908971,True,12,-1,0,1
Y2-S2-012M26,2,170,PS,exp,37,→,right,→,0.8116628000279889,True,12,-1,0,1
Y2-S2-012M26,2,171,PS,exp,50,←,left,←,0.6066755999345332,True,12,1,1,2
Y2-S2-012M26,2,172,PS,exp,26,→,right,→,0.5754176999907941,True,11,1,0,2
Y2-S2-012M26,2,173,PS,exp,47,←,left,←,0.4650055000092834,True,11,1,0,2
Y2-S2-012M26,2,174,PS,exp,47,→,right,→,0.7904402000131086,True,11,1,0,2
Y2-S2-012M26,2,175,PS,exp,49,←,left,←,0.5431563999736682,True,10,1,0,2
Y2-S2-012M26,2,176,PS,exp,38,↓,down,↓,0.8046781000448391,True,10,1,0,2
Y2-S2-012M26,2,177,PS,exp,49,→,left,←,0.8128778000827879,False,10,-1,1,3
Y2-S2-012M26,2,178,PS,exp,37,←,left,←,0.5944862000178546,True,11,-1,0,3
Y2-S2-012M26,2,179,PS,exp,35,↓,down,↓,0.5984485000371933,True,11,-1,0,3
Y2-S2-012M26,2,180,PS,exp,40,←,up,↑,0.8215705000329763,False,11,-1,0,3
Y2-S2-012M26,2,181,PS,exp,42,→,right,→,0.6002219000365585,True,12,-1,0,3
Y2-S2-012M26,2,182,PS,exp,42,↑,left,←,0.7448004999896511,False,12,-1,0,3
Y2-S2-012M26,2,183,PS,exp,43,→,right,→,0.5995165000203997,True,13,-1,0,3
Y2-S2-012M26,2,184,PS,exp,30,↑,up,↑,0.6147770000388846,True,13,-1,0,3
Y2-S2-012M26,2,185,PS,exp,35,→,right,→,0.6792321000248194,True,13,1,1,4
Y2-S2-012M26,2,186,PS,exp,27,↓,down,↓,0.705488899955526,True,12,1,0,4
Y2-S2-012M26,2,187,PS,exp,40,←,left,←,0.6155477999709547,True,12,1,0,4
Y2-S2-012M26,2,188,PS,exp,35,→,right,→,0.6354462000308558,True,12,1,0,4
Y2-S2-012M26,2,189,PS,exp,43,←,left,←,0.8634327000472695,True,11,1,0,4
Y2-S2-012M26,2,190,PS,exp,28,↓,down,↓,0.7164460000349209,True,11,1,0,4
Y2-S2-012M26,2,191,PS,exp,49,→,right,→,0.5125698000192642,True,11,1,0,4
Y2-S2-012M26,2,192,PS,exp,29,↑,left,←,0.6994598000310361,False,10,-1,1,5
Y2-S2-012M26,2,193,PS,exp,45,↓,down,↓,0.8172468000557274,True,11,-1,0,5
Y2-S2-012M26,2,194,PS,exp,37,←,right,→,0.7711151000112295,False,11,-1,0,5
Y2-S2-012M26,2,195,PS,exp,26,↑,up,↑,0.5297260999213904,True,12,-1,0,5
Y2-S2-012M26,2,196,PS,exp,25,↓,down,↓,0.65247729991097,True,12,-1,0,5
Y2-S2-012M26,2,197,PS,exp,45,↑,up,↑,0.6038811000762507,True,12,1,1,6
Y2-S2-012M26,2,198,PS,exp,49,↓,left,←,0.7165015999926254,False,11,-1,1,7
Y2-S2-012M26,2,199,PS,exp,45,→,right,→,0.6928438000613824,True,12,-1,0,7
Y2-S2-012M26,2,200,PS,exp,44,←,left,←,0.5553197999252006,True,12,-1,0,7
Y2-S2-012M26,2,201,PS,exp,42,→,right,→,0.5439068999839947,True,12,1,1,8
Y2-S2-012M26,2,202,PS,exp,39,↓,down,↓,0.657246199902147,True,11,1,0,8
Y2-S2-012M26,2,203,PS,exp,50,←,left,←,0.4907747999532148,True,11,1,0,8
Y2-S2-012M26,2,204,PS,exp,50,↑,up,↑,0.49881849996745586,True,11,1,0,8
Y2-S2-012M26,2,205,PS,exp,39,←,left,←,0.6108535000821576,True,10,1,0,8
Y2-S2-012M26,2,206,PS,exp,41,↓,down,↓,0.5126100999768823,True,10,1,0,8
Y2-S2-012M26,2,207,PS,exp,35,↑,up,↑,0.665947400033474,True,10,1,0,8
Y2-S2-012M26,2,208,PS,exp,25,←,left,←,0.5281142999883741,True,9,1,0,8
Y2-S2-012M26,2,209,PS,exp,31,↓,up,↑,0.7527489000931382,False,9,-1,1,9
Y2-S2-012M26,2,210,PS,exp,49,↑,up,↑,0.48676800006069243,True,10,-1,0,9
Y2-S2-012M26,2,211,PS,exp,38,↓,down,↓,0.6176564000779763,True,10,-1,0,9
Y2-S2-012M26,2,212,PS,exp,26,↑,up,↑,0.6443689999869093,True,10,1,1,10
Y2-S2-012M26,2,213,PS,exp,28,←,left,←,0.6696258999872953,True,9,1,0,10
Y2-S2-012M26,2,214,PS,exp,26,→,right,→,0.49734350002836436,True,9,1,0,10
Y2-S2-012M26,2,215,PS,exp,30,↓,left,←,0.7497508999658749,False,9,-1,1,11
Y2-S2-012M26,2,216,PS,exp,36,↑,right,→,0.6211411999538541,False,10,-1,0,11
Y2-S2-012M26,2,217,PS,exp,37,→,right,→,0.6312855000142008,True,11,-1,0,11
Y2-S2-012M26,2,218,PS,exp,35,↑,up,↑,0.49605570000130683,True,11,-1,0,11
Y2-S2-012M26,2,219,PS,exp,38,↓,down,↓,0.54923950007651,True,11,1,1,12
Y2-S2-012M26,2,220,PS,exp,30,←,right,→,0.7148360999999568,False,10,-1,1,13
Y2-S2-012M26,2,221,PS,exp,43,↑,up,↑,0.5146733999717981,True,11,-1,0,13
Y2-S2-012M26,2,222,PS,exp,35,←,left,←,0.630528400070034,True,11,-1,0,13
Y2-S2-012M26,2,223,PS,exp,47,→,left,←,0.7482895000139251,False,11,-1,0,13
Y2-S2-012M26,2,224,PS,exp,28,↑,up,↑,0.8004399000201374,True,12,-1,0,13
Y2-S2-012M26,2,225,PS,exp,41,↓,down,↓,0.6189373999368399,True,12,-1,0,13
Y2-S2-012M26,2,226,PS,exp,45,→,right,→,0.6234430000185966,True,12,1,1,14
Y2-S2-012M26,2,227,PS,exp,38,←,left,←,0.7181566000217572,True,11,1,0,14
Y2-S2-012M26,2,228,PS,exp,25,→,right,→,0.586415599915199,True,11,1,0,14
Y2-S2-012M26,2,229,PS,exp,33,←,left,←,0.5861831000074744,True,11,1,0,14
Y2-S2-012M26,2,230,PS,exp,45,→,right,→,0.5034343999577686,True,10,1,0,14
Y2-S2-012M26,2,231,PS,exp,32,↓,down,↓,0.6380277000134811,True,10,1,0,14
Y2-S2-012M26,2,232,PS,exp,47,↑,up,↑,0.4772977000102401,True,10,1,0,14
Y2-S2-012M26,2,233,PS,exp,36,←,left,←,0.5197570999152958,True,9,1,0,14
Y2-S2-012M26,2,234,PS,exp,30,→,right,→,0.5152195999398828,True,9,1,0,14
Y2-S2-012M26,2,235,PS,exp,38,↑,left,←,0.6520353000378236,False,9,-1,1,15
Y2-S2-012M26,2,236,PS,exp,43,→,right,→,0.5741335999919102,True,10,-1,0,15
Y2-S2-012M26,2,237,PS,exp,45,↑,left,←,0.6429968999000266,False,10,-1,0,15
Y2-S2-012M26,2,238,PS,exp,35,↓,down,↓,0.6098984000273049,True,11,-1,0,15
Y2-S2-012M26,2,239,PS,exp,45,↑,left,←,0.6516493000090122,False,11,-1,0,15
Y2-S2-012M26,2,240,PS,exp,25,↓,down,↓,0.7065397000405937,True,12,-1,0,15
Y2-S2-012M26,2,241,PS,exp,39,→,right,→,0.5866618000436574,True,12,-1,0,15
Y2-S2-012M26,2,242,PS,exp,35,←,left,←,0.5056806000648066,True,12,1,1,16
Y2-S2-012M26,3,243,PS,intra_train,44,↑,left,←,0.9266762000042945,False,15,-,-,-
Y2-S2-012M26,3,244,PS,intra_train,46,↓,down,↓,0.5815198000054806,True,15,-,-,-
Y2-S2-012M26,3,245,PS,intra_train,39,→,right,→,0.6563931000418961,True,15,-,-,-
Y2-S2-012M26,3,246,PS,intra_train,45,↓,down,↓,0.7057049999712035,True,15,-,-,-
Y2-S2-012M26,3,247,PS,intra_train,29,↑,left,←,0.6638458000961691,False,15,-,-,-
Y2-S2-012M26,3,248,PS,exp,35,←,left,←,0.5405752999940887,True,10,0,0,0
Y2-S2-012M26,3,249,PS,exp,45,↓,down,↓,0.6327025999780744,True,10,0,0,0
Y2-S2-012M26,3,250,PS,exp,33,→,right,→,0.5679238999728113,True,10,1,0,0
Y2-S2-012M26,3,251,PS,exp,30,↑,left,←,0.5975652999477461,False,9,-1,1,1
Y2-S2-012M26,3,252,PS,exp,33,←,down,↓,0.6211023000068963,False,10,-1,0,1
Y2-S2-012M26,3,253,PS,exp,50,→,right,→,0.45531969994772226,True,11,-1,0,1
Y2-S2-012M26,3,254,PS,exp,33,←,left,←,0.5224748000036925,True,11,-1,0,1
Y2-S2-012M26,3,255,PS,exp,42,↑,up,↑,0.6581822000443935,True,11,1,1,2
Y2-S2-012M26,3,256,PS,exp,41,↓,down,↓,0.5275190999964252,True,10,1,0,2
Y2-S2-012M26,3,257,PS,exp,46,→,right,→,0.5185591999907047,True,10,1,0,2
Y2-S2-012M26,3,258,PS,exp,38,↑,up,↑,0.5583049999549985,True,10,1,0,2
Y2-S2-012M26,3,259,PS,exp,27,→,right,→,0.5605652000522241,True,9,1,0,2
Y2-S2-012M26,3,260,PS,exp,28,↑,up,↑,0.6309721999568865,True,9,1,0,2
Y2-S2-012M26,3,261,PS,exp,49,→,right,→,0.5482878000475466,True,9,1,0,2
Y2-S2-012M26,3,262,PS,exp,40,↑,left,←,0.7655815999023616,False,8,-1,1,3
Y2-S2-012M26,3,263,PS,exp,45,←,left,←,0.4800317999906838,True,9,-1,0,3
Y2-S2-012M26,3,264,PS,exp,29,↓,left,←,0.7393374999519438,False,9,-1,0,3
Y2-S2-012M26,3,265,PS,exp,30,↑,up,↑,0.5438548000529408,True,10,-1,0,3
Y2-S2-012M26,3,266,PS,exp,29,→,right,→,0.43812820001039654,True,10,-1,0,3
Y2-S2-012M26,3,267,PS,exp,47,↑,left,←,0.520391899975948,False,10,-1,0,3
Y2-S2-012M26,3,268,PS,exp,36,←,down,↓,0.6308736000210047,False,11,-1,0,3
Y2-S2-012M26,3,269,PS,exp,26,↑,left,←,0.7457645999966189,False,12,-1,0,3
Y2-S2-012M26,3,270,PS,exp,39,↓,down,↓,0.558903899975121,True,13,-1,0,3
Y2-S2-012M26,3,271,PS,exp,48,↑,up,↑,0.4597945000277832,True,13,-1,0,3
Y2-S2-012M26,3,272,PS,exp,27,→,right,→,0.5789150999626145,True,13,1,1,4
Y2-S2-012M26,3,273,PS,exp,49,←,left,←,0.48857030004728585,True,12,1,0,4
Y2-S2-012M26,3,274,PS,exp,30,↓,down,↓,0.6151404000120237,True,12,1,0,4
Y2-S2-012M26,3,275,PS,exp,44,↑,left,←,0.46736800007056445,False,12,-1,1,5
Y2-S2-012M26,3,276,PS,exp,38,↓,right,→,0.47919560002628714,False,13,-1,0,5
Y2-S2-012M26,3,277,PS,exp,41,←,right,→,0.7263251000549644,False,14,-1,0,5
Y2-S2-012M26,3,278,PS,exp,41,→,right,→,0.45131999999284744,True,15,-1,0,5
Y2-S2-012M26,3,279,PS,exp,49,↓,down,↓,0.5644708999898285,True,15,-1,0,5
Y2-S2-012M26,3,280,PS,exp,38,→,left,←,0.5772358999820426,False,15,-1,0,5
Y2-S2-012M26,3,281,PS,exp,34,↑,up,↑,0.7021190000232309,True,16,-1,0,5
Y2-S2-012M26,3,282,PS,exp,25,→,right,→,0.5243706000037491,True,16,-1,0,5
Y2-S2-012M26,3,283,PS,exp,48,↓,down,↓,0.5968777999514714,True,16,1,1,6
Y2-S2-012M26,3,284,PS,exp,38,→,left,←,0.6886189000215381,False,15,-1,1,7
Y2-S2-012M26,3,285,PS,exp,26,↑,up,↑,0.49051829997915775,True,16,-1,0,7
Y2-S2-012M26,3,286,PS,exp,39,←,left,←,0.4390269999857992,True,16,-1,0,7
Y2-S2-012M26,3,287,PS,exp,27,↓,down,↓,0.7460533999837935,True,16,1,1,8
Y2-S2-012M26,3,288,PS,exp,38,←,left,←,0.9757392999017611,True,15,1,0,8
Y2-S2-012M26,3,289,PS,exp,45,↑,up,↑,0.5588707999559119,True,15,1,0,8
Y2-S2-012M26,3,290,PS,exp,46,←,right,→,0.6702361999778077,False,15,-1,1,9
Y2-S2-012M26,3,291,PS,exp,36,↑,up,↑,0.5482466999674216,True,16,-1,0,9
Y2-S2-012M26,3,292,PS,exp,35,←,left,←,0.6003037999616936,True,16,-1,0,9
Y2-S2-012M26,3,293,PS,exp,45,↑,up,↑,0.5408297999529168,True,16,1,1,10
Y2-S2-012M26,3,294,PS,exp,50,←,right,→,0.7796664999332279,False,15,-1,1,11
Y2-S2-012M26,3,295,PS,exp,48,↑,up,↑,0.49913149990607053,True,16,-1,0,11
Y2-S2-012M26,3,296,PS,exp,37,↓,left,←,0.7952673999825493,False,16,-1,0,11
Y2-S2-012M26,3,297,PS,exp,27,←,left,←,0.5623916999902576,True,17,-1,0,11
Y2-S2-012M26,3,298,PS,exp,37,→,right,→,0.7477462999522686,True,17,-1,0,11
Y2-S2-012M26,3,299,PS,exp,40,↓,down,↓,0.6168665000004694,True,17,1,1,12
Y2-S2-012M26,3,300,PS,exp,38,→,right,→,0.4766632999526337,True,16,1,0,12
Y2-S2-012M26,3,301,PS,exp,29,↓,down,↓,0.6685816999524832,True,16,1,0,12
Y2-S2-012M26,3,302,PS,exp,46,→,right,→,0.4949235001113266,True,16,1,0,12
Y2-S2-012M26,3,303,PS,exp,47,↑,right,→,0.6173761999234557,False,15,-1,1,13
Y2-S2-012M26,3,304,PS,exp,31,↓,down,↓,0.5868091000011191,True,16,-1,0,13
Y2-S2-012M26,3,305,PS,exp,45,→,left,←,0.7060985000571236,False,16,-1,0,13
Y2-S2-012M26,3,306,PS,exp,31,←,left,←,0.4552403000416234,True,17,-1,0,13
Y2-S2-012M26,3,307,PS,exp,26,↓,down,↓,0.6118203999940306,True,17,-1,0,13
Y2-S2-012M26,3,308,PS,exp,49,→,right,→,0.8258702999446541,True,17,1,1,14
Y2-S2-012M26,3,309,PS,exp,39,←,left,←,0.6288274000398815,True,16,1,0,14
Y2-S2-012M26,3,310,PS,exp,47,↑,up,↑,0.5822093000169843,True,16,1,0,14
Y2-S2-012M26,3,311,PS,exp,37,↓,down,↓,0.6781466000247747,True,16,1,0,14
Y2-S2-012M26,3,312,PS,exp,41,←,left,←,0.5814551999792457,True,15,1,0,14
Y2-S2-012M26,3,313,PS,exp,26,↓,down,↓,0.6694774000206962,True,15,1,0,14
Y2-S2-012M26,3,314,PS,exp,36,↑,up,↑,0.5173733000410721,True,15,1,0,14
Y2-S2-012M26,3,315,PS,exp,37,↓,down,↓,0.4696043999865651,True,14,1,0,14
Y2-S2-012M26,3,316,PS,exp,33,↑,up,↑,0.7067319999914616,True,14,1,0,14
Y2-S2-012M26,3,317,PS,exp,27,←,left,←,0.529182399972342,True,14,1,0,14
Y2-S2-012M26,3,318,PS,exp,35,↓,down,↓,0.6567796999588609,True,13,1,0,14
Y2-S2-012M26,3,319,PS,exp,50,→,right,→,0.6132748000090942,True,13,1,0,14
Y2-S2-012M26,3,320,PS,exp,49,←,left,←,0.614086200017482,True,13,1,0,14
Y2-S2-012M26,3,321,PS,exp,44,↑,left,←,0.755246700020507,False,12,-1,1,15
Y2-S2-012M26,3,322,PS,exp,33,↓,down,↓,0.6929840999655426,True,13,-1,0,15
Y2-S2-012M26,3,323,PS,exp,38,↑,up,↑,0.4998440000927076,True,13,-1,0,15
Y2-S2-012M26,3,324,PS,exp,27,←,left,←,0.455309999990277,True,13,1,1,16
Y2-S2-012M26,4,325,AS,intra_train,45,→,right,→,0.4340263999765739,True,24,-,-,-
Y2-S2-012M26,4,326,AS,intra_train,39,↑,up,↑,0.6942415999947116,True,24,-,-,-
Y2-S2-012M26,4,327,AS,intra_train,30,←,left,←,0.6578011999372393,True,24,-,-,-
Y2-S2-012M26,4,328,AS,intra_train,39,→,right,→,0.5836215000599623,True,24,-,-,-
Y2-S2-012M26,4,329,AS,intra_train,32,←,left,←,0.6235763999866322,True,24,-,-,-
Y2-S2-012M26,4,330,AS,exp,41,↓,left,←,0.8030307999579236,False,16,-1,0,0
Y2-S2-012M26,4,331,AS,exp,39,←,left,←,0.8368077999912202,True,17,-1,0,0
Y2-S2-012M26,4,332,AS,exp,36,↑,up,↑,0.6803415999747813,True,17,-1,0,0
Y2-S2-012M26,4,333,AS,exp,49,→,right,→,0.5599027000134811,True,17,1,1,1
Y2-S2-012M26,4,334,AS,exp,25,↓,down,↓,0.6831744000082836,True,16,1,0,1
Y2-S2-012M26,4,335,AS,exp,49,←,left,←,1.8909949000226334,True,16,1,0,1
Y2-S2-012M26,4,336,AS,exp,26,↓,down,↓,0.48985050001647323,True,16,1,0,1
Y2-S2-012M26,4,337,AS,exp,35,←,up,↑,0.6847565999487415,False,15,-1,1,2
Y2-S2-012M26,4,338,AS,exp,49,→,right,→,0.5098634000169113,True,16,-1,0,2
Y2-S2-012M26,4,339,AS,exp,43,←,right,→,0.6483089999528602,False,16,-1,0,2
Y2-S2-012M26,4,340,AS,exp,34,↓,no_key,no_letter,-1.0,False,17,-1,0,2
Y2-S2-012M26,4,341,AS,exp,31,←,left,←,0.47964180004782975,True,18,-1,0,2
Y2-S2-012M26,4,342,AS,exp,50,→,left,←,0.8772381999297068,False,18,-1,0,2
Y2-S2-012M26,4,343,AS,exp,30,↑,up,↑,0.4893774000229314,True,19,-1,0,2
Y2-S2-012M26,4,344,AS,exp,39,↓,down,↓,0.8455641999607906,True,19,-1,0,2
Y2-S2-012M26,4,345,AS,exp,50,↑,up,↑,1.8030558999162167,True,19,1,1,3
Y2-S2-012M26,4,346,AS,exp,27,↓,down,↓,0.7573193000862375,True,18,1,0,3
Y2-S2-012M26,4,347,AS,exp,28,←,left,←,0.7106159999966621,True,18,1,0,3
Y2-S2-012M26,4,348,AS,exp,38,↓,up,↑,0.7362518000882119,False,18,-1,1,4
Y2-S2-012M26,4,349,AS,exp,26,←,right,→,0.6938755000010133,False,19,-1,0,4
Y2-S2-012M26,4,350,AS,exp,43,→,right,→,0.5848107000347227,True,20,-1,0,4
Y2-S2-012M26,4,351,AS,exp,43,↓,down,↓,0.7760560000315309,True,20,-1,0,4
Y2-S2-012M26,4,352,AS,exp,40,→,right,→,0.5340835000388324,True,20,1,1,5
Y2-S2-012M26,4,353,AS,exp,44,←,left,←,0.5685029000742361,True,19,1,0,5
Y2-S2-012M26,4,354,AS,exp,26,→,right,→,1.7920901000034064,True,19,1,0,5
Y2-S2-012M26,4,355,AS,exp,44,←,left,←,0.664253699942492,True,19,1,0,5
Y2-S2-012M26,4,356,AS,exp,37,↓,down,↓,0.6053840999957174,True,18,1,0,5
Y2-S2-012M26,4,357,AS,exp,43,→,right,→,0.5886898000026122,True,18,1,0,5
Y2-S2-012M26,4,358,AS,exp,29,↓,down,↓,0.8066154000116512,True,18,1,0,5
Y2-S2-012M26,4,359,AS,exp,48,→,right,→,0.573759299935773,True,17,1,0,5
Y2-S2-012M26,4,360,AS,exp,27,↑,down,↓,0.7578192000510171,False,17,-1,1,6
Y2-S2-012M26,4,361,AS,exp,29,→,right,→,0.7497139000333846,True,18,-1,0,6
Y2-S2-012M26,4,362,AS,exp,28,←,left,←,0.5271338999737054,True,18,-1,0,6
Y2-S2-012M26,4,363,AS,exp,50,↑,down,↓,1.1658940000925213,False,18,-1,0,6
Y2-S2-012M26,4,364,AS,exp,30,↓,left,←,0.8777528000064194,False,19,-1,0,6
Y2-S2-012M26,4,365,AS,exp,29,↑,up,↑,0.7875150000909343,True,20,-1,0,6
Y2-S2-012M26,4,366,AS,exp,32,↓,down,↓,0.6698118000058457,True,20,-1,0,6
Y2-S2-012M26,4,367,AS,exp,27,↑,up,↑,0.8252929999725893,True,20,1,1,7
Y2-S2-012M26,4,368,AS,exp,32,←,left,←,0.687991900020279,True,19,1,0,7
Y2-S2-012M26,4,369,AS,exp,37,↓,down,↓,0.9665738000767305,True,19,1,0,7
Y2-S2-012M26,4,370,AS,exp,44,↑,up,↑,0.9913022000109777,True,19,1,0,7
Y2-S2-012M26,4,371,AS,exp,40,↓,down,↓,0.7054760999744758,True,18,1,0,7
Y2-S2-012M26,4,372,AS,exp,38,→,left,←,0.7377301000524312,False,18,-1,1,8
Y2-S2-012M26,4,373,AS,exp,25,↑,up,↑,0.7513054000446573,True,19,-1,0,8
Y2-S2-012M26,4,374,AS,exp,33,→,right,→,0.5636200000299141,True,19,-1,0,8
Y2-S2-012M26,4,375,AS,exp,25,↓,down,↓,0.785469499998726,True,19,1,1,9
Y2-S2-012M26,4,376,AS,exp,38,→,right,→,0.5965882999589667,True,18,1,0,9
Y2-S2-012M26,4,377,AS,exp,46,↓,down,↓,0.7080137000884861,True,18,1,0,9
Y2-S2-012M26,4,378,AS,exp,44,→,right,→,0.606069500092417,True,18,1,0,9
Y2-S2-012M26,4,379,AS,exp,28,↓,down,↓,0.8735742999706417,True,17,1,0,9
Y2-S2-012M26,4,380,AS,exp,47,←,left,←,0.9054920000489801,True,17,1,0,9
Y2-S2-012M26,4,381,AS,exp,28,↑,up,↑,0.6822069999761879,True,17,1,0,9
Y2-S2-012M26,4,382,AS,exp,28,↓,down,↓,0.6705267999786884,True,16,1,0,9
Y2-S2-012M26,4,383,AS,exp,49,←,left,←,0.6060766000300646,True,16,1,0,9
Y2-S2-012M26,4,384,AS,exp,27,↓,up,↑,0.8076535000000149,False,16,-1,1,10
Y2-S2-012M26,4,385,AS,exp,26,←,left,←,0.6263047000393271,True,17,-1,0,10
Y2-S2-012M26,4,386,AS,exp,45,→,right,→,0.5355175000149757,True,17,-1,0,10
Y2-S2-012M26,4,387,AS,exp,41,↓,down,↓,0.6775303999893367,True,17,1,1,11
Y2-S2-012M26,4,388,AS,exp,28,←,left,←,0.6618207999272272,True,16,1,0,11
Y2-S2-012M26,4,389,AS,exp,36,↓,down,↓,0.7654871999984607,True,16,1,0,11
Y2-S2-012M26,4,390,AS,exp,46,→,right,→,0.6293316000374034,True,16,1,0,11
Y2-S2-012M26,4,391,AS,exp,37,↓,down,↓,0.7713812000583857,True,15,1,0,11
Y2-S2-012M26,4,392,AS,exp,28,↑,up,↑,0.6869730000616983,True,15,1,0,11
Y2-S2-012M26,4,393,AS,exp,45,↓,down,↓,0.6745135999517515,True,15,1,0,11
Y2-S2-012M26,4,394,AS,exp,29,↑,down,↓,0.9150356999598444,False,14,-1,1,12
Y2-S2-012M26,4,395,AS,exp,41,←,left,←,0.5412726999493316,True,15,-1,0,12
Y2-S2-012M26,4,396,AS,exp,45,↓,down,↓,0.46619960002135485,True,15,-1,0,12
Y2-S2-012M26,4,397,AS,exp,27,→,left,←,0.8181875000009313,False,15,-1,0,12
Y2-S2-012M26,4,398,AS,exp,45,↑,left,←,1.3776547000743449,False,16,-1,0,12
Y2-S2-012M26,4,399,AS,exp,48,←,left,←,0.5080038999440148,True,17,-1,0,12
Y2-S2-012M26,4,400,AS,exp,25,↑,up,↑,0.6761674000881612,True,17,-1,0,12
Y2-S2-012M26,4,401,AS,exp,44,←,left,←,1.2718557000625879,True,17,1,1,13
Y2-S2-012M26,4,402,AS,exp,30,↓,down,↓,0.5701163000194356,True,16,1,0,13
Y2-S2-012M26,4,403,AS,exp,27,←,left,←,0.4446211999747902,True,16,1,0,13
Y2-S2-012M26,4,404,AS,exp,36,↑,up,↑,0.5170576999662444,True,16,1,0,13
Y2-S2-012M26,4,405,AS,exp,34,↓,down,↓,0.592979499953799,True,15,1,0,13
Y2-S2-012M26,4,406,AS,exp,37,→,right,→,0.48269010009244084,True,15,1,0,13
Y2-S2-012M26,4,407,AS,exp,47,←,left,←,0.6021308000199497,True,15,1,0,13
Y2-S2-012M26,4,408,AS,exp,29,↑,up,↑,0.7698501999257132,True,14,1,0,13
Y2-S2-012M26,4,409,AS,exp,29,←,right,→,0.651525599998422,False,14,-1,1,14
Y2-S2-012M26,4,410,AS,exp,27,↓,down,↓,0.6568876999663189,True,15,-1,0,14
Y2-S2-012M26,4,411,AS,exp,47,↑,up,↑,0.5625285999849439,True,15,-1,0,14
Y2-S2-012M26,4,412,AS,exp,33,↓,down,↓,0.6816673999419436,True,15,1,1,15
Y2-S2-012M26,4,413,AS,exp,36,→,right,→,0.4299921999918297,True,14,1,0,15
Y2-S2-012M26,4,414,AS,exp,48,↓,down,↓,0.5647207000292838,True,14,1,0,15
Y2-S2-012M26,4,415,AS,exp,28,←,left,←,0.46515250008087605,True,14,1,0,15
Y2-S2-012M26,4,416,AS,exp,37,↓,right,→,0.6930878000566736,False,13,-1,1,16
Y2-S2-012M26,5,417,AS,intra_train,39,←,right,→,0.5005347999976948,False,24,-,-,-
Y2-S2-012M26,5,418,AS,intra_train,29,↓,down,↓,0.5817855000495911,True,24,-,-,-
Y2-S2-012M26,5,419,AS,intra_train,33,→,right,→,0.48401879996526986,True,24,-,-,-
Y2-S2-012M26,5,420,AS,intra_train,25,↓,down,↓,0.7187460999703035,True,24,-,-,-
Y2-S2-012M26,5,421,AS,intra_train,36,→,right,→,0.8395983000518754,True,24,-,-,-
Y2-S2-012M26,5,422,AS,exp,37,↓,down,↓,0.6377430000575259,True,16,0,0,0
Y2-S2-012M26,5,423,AS,exp,25,←,left,←,0.7486732000252232,True,16,0,0,0
Y2-S2-012M26,5,424,AS,exp,30,↓,down,↓,0.6208060999633744,True,16,1,0,0
Y2-S2-012M26,5,425,AS,exp,27,→,right,→,0.5332526999991387,True,15,1,0,0
Y2-S2-012M26,5,426,AS,exp,46,←,right,→,0.4978895999956876,False,15,-1,1,1
Y2-S2-012M26,5,427,AS,exp,39,↓,down,↓,0.5033726999536157,True,16,-1,0,1
Y2-S2-012M26,5,428,AS,exp,33,↑,down,↓,0.8100812000920996,False,16,-1,0,1
Y2-S2-012M26,5,429,AS,exp,50,→,right,→,0.537801600061357,True,17,-1,0,1
Y2-S2-012M26,5,430,AS,exp,25,↑,up,↑,0.5102114999899641,True,17,-1,0,1
Y2-S2-012M26,5,431,AS,exp,42,↓,down,↓,0.6827210000483319,True,17,1,1,2
Y2-S2-012M26,5,432,AS,exp,25,↑,up,↑,0.7287366000236943,True,16,1,0,2
Y2-S2-012M26,5,433,AS,exp,44,↓,down,↓,0.7262677999678999,True,16,1,0,2
Y2-S2-012M26,5,434,AS,exp,47,←,left,←,0.5925001000287011,True,16,1,0,2
Y2-S2-012M26,5,435,AS,exp,37,→,right,→,0.5351354999002069,True,15,1,0,2
Y2-S2-012M26,5,436,AS,exp,39,←,left,←,0.49323020002339035,True,15,1,0,2
Y2-S2-012M26,5,437,AS,exp,45,↑,up,↑,0.713193399948068,True,15,1,0,2
Y2-S2-012M26,5,438,AS,exp,25,↓,left,←,0.6972577000269666,False,14,-1,1,3
Y2-S2-012M26,5,439,AS,exp,50,←,right,→,0.7962236000457779,False,15,-1,0,3
Y2-S2-012M26,5,440,AS,exp,38,↓,down,↓,0.7329573000315577,True,16,-1,0,3
Y2-S2-012M26,5,441,AS,exp,36,←,left,←,0.47839940001722425,True,16,-1,0,3
Y2-S2-012M26,5,442,AS,exp,26,→,right,→,0.7905003000050783,True,16,1,1,4
Y2-S2-012M26,5,443,AS,exp,41,↓,up,↑,0.6024090999271721,False,15,-1,1,5
Y2-S2-012M26,5,444,AS,exp,28,←,down,↓,0.507041799952276,False,16,-1,0,5
Y2-S2-012M26,5,445,AS,exp,42,↑,up,↑,0.49046280002221465,True,17,-1,0,5
Y2-S2-012M26,5,446,AS,exp,25,→,right,→,1.241183100035414,True,17,-1,0,5
Y2-S2-012M26,5,447,AS,exp,41,↑,up,↑,0.4730982999317348,True,17,1,1,6
Y2-S2-012M26,5,448,AS,exp,42,→,right,→,0.47590499999932945,True,16,1,0,6
Y2-S2-012M26,5,449,AS,exp,44,←,left,←,0.46624530002009124,True,16,1,0,6
Y2-S2-012M26,5,450,AS,exp,32,→,right,→,0.4401631000218913,True,16,1,0,6
Y2-S2-012M26,5,451,AS,exp,50,↑,up,↑,0.642109900014475,True,15,1,0,6
Y2-S2-012M26,5,452,AS,exp,43,→,right,→,0.6525377000216395,True,15,1,0,6
Y2-S2-012M26,5,453,AS,exp,29,↓,down,↓,0.6908851999323815,True,15,1,0,6
Y2-S2-012M26,5,454,AS,exp,46,←,left,←,0.6468193000182509,True,14,1,0,6
Y2-S2-012M26,5,455,AS,exp,41,→,right,→,0.41395449999254197,True,14,1,0,6
Y2-S2-012M26,5,456,AS,exp,40,↓,down,↓,0.7292071999981999,True,14,1,0,6
Y2-S2-012M26,5,457,AS,exp,44,↑,up,↑,0.5165605000220239,True,13,1,0,6
Y2-S2-012M26,5,458,AS,exp,40,↓,right,→,0.6455225000390783,False,13,-1,1,7
Y2-S2-012M26,5,459,AS,exp,30,↑,up,↑,0.5709048999706283,True,14,-1,0,7
Y2-S2-012M26,5,460,AS,exp,46,↓,down,↓,0.4254178999690339,True,14,-1,0,7
Y2-S2-012M26,5,461,AS,exp,42,←,left,←,0.4705042999703437,True,14,1,1,8
Y2-S2-012M26,5,462,AS,exp,25,↑,down,↓,0.8332127999747172,False,13,-1,1,9
Y2-S2-012M26,5,463,AS,exp,28,↓,down,↓,0.6421411999035627,True,14,-1,0,9
Y2-S2-012M26,5,464,AS,exp,40,↑,up,↑,0.5671699000522494,True,14,-1,0,9
Y2-S2-012M26,5,465,AS,exp,49,↓,left,←,0.6596022000303492,False,14,-1,0,9
Y2-S2-012M26,5,466,AS,exp,36,↑,right,→,0.5528237000107765,False,15,-1,0,9
Y2-S2-012M26,5,467,AS,exp,32,↓,down,↓,0.7296577000524849,True,16,-1,0,9
Y2-S2-012M26,5,468,AS,exp,50,→,right,→,0.47575149999465793,True,16,-1,0,9
Y2-S2-012M26,5,469,AS,exp,29,↑,left,←,0.8955710999434814,False,16,-1,0,9
Y2-S2-012M26,5,470,AS,exp,40,→,right,→,1.1622643999289721,True,17,-1,0,9
Y2-S2-012M26,5,471,AS,exp,28,←,left,←,0.5314099999377504,True,17,-1,0,9
Y2-S2-012M26,5,472,AS,exp,48,↑,up,↑,0.4642100000055507,True,17,1,1,10
Y2-S2-012M26,5,473,AS,exp,42,←,left,←,0.5874276000540704,True,16,1,0,10
Y2-S2-012M26,5,474,AS,exp,37,↑,down,↓,0.7269649000372738,False,16,-1,1,11
Y2-S2-012M26,5,475,AS,exp,43,↓,left,←,0.8485528000164777,False,17,-1,0,11
Y2-S2-012M26,5,476,AS,exp,47,→,right,→,0.5620438999030739,True,18,-1,0,11
Y2-S2-012M26,5,477,AS,exp,37,←,left,←,0.5604457999579608,True,18,-1,0,11
Y2-S2-012M26,5,478,AS,exp,32,↑,up,↑,0.4878614000044763,True,18,1,1,12
Y2-S2-012M26,5,479,AS,exp,39,←,left,←,0.5224907000083476,True,17,1,0,12
Y2-S2-012M26,5,480,AS,exp,50,↓,down,↓,0.7173379000741988,True,17,1,0,12
Y2-S2-012M26,5,481,AS,exp,38,↑,up,↑,0.5462169999955222,True,17,1,0,12
Y2-S2-012M26,5,482,AS,exp,39,↓,right,→,0.6792071000672877,False,16,-1,1,13
Y2-S2-012M26,5,483,AS,exp,40,←,right,→,0.8714882999192923,False,17,-1,0,13
Y2-S2-012M26,5,484,AS,exp,48,↑,no_key,no_letter,-1.0,False,18,-1,0,13
Y2-S2-012M26,5,485,AS,exp,42,←,left,←,0.43368010001722723,True,19,-1,0,13
Y2-S2-012M26,5,486,AS,exp,46,↑,right,→,0.8015269000316039,False,19,-1,0,13
Y2-S2-012M26,5,487,AS,exp,40,←,left,←,0.6400895999977365,True,20,-1,0,13
Y2-S2-012M26,5,488,AS,exp,36,↑,up,↑,0.7145455999998376,True,20,-1,0,13
Y2-S2-012M26,5,489,AS,exp,31,←,left,←,0.6438811999978498,True,20,1,1,14
Y2-S2-012M26,5,490,AS,exp,30,→,down,↓,0.8578202999196947,False,19,-1,1,15
Y2-S2-012M26,5,491,AS,exp,33,↑,up,↑,0.5396494999295101,True,20,-1,0,15
Y2-S2-012M26,5,492,AS,exp,36,↓,down,↓,0.9067466000560671,True,20,-1,0,15
Y2-S2-012M26,5,493,AS,exp,32,↑,up,↑,1.3818279999541119,True,20,1,1,16
Y2-S2-012M26,6,494,PS,intra_train,50,→,right,→,0.4635077000129968,True,15,-,-,-
Y2-S2-012M26,6,495,PS,intra_train,32,↓,down,↓,0.6636411000508815,True,15,-,-,-
Y2-S2-012M26,6,496,PS,intra_train,41,←,left,←,0.6939839000115171,True,15,-,-,-
Y2-S2-012M26,6,497,PS,intra_train,31,→,right,→,0.593150999979116,True,15,-,-,-
Y2-S2-012M26,6,498,PS,intra_train,45,↑,up,↑,0.5542567999800667,True,15,-,-,-
Y2-S2-012M26,6,499,PS,exp,34,→,right,→,0.7768532000482082,True,10,0,0,0
Y2-S2-012M26,6,500,PS,exp,41,↓,down,↓,0.7275070000905544,True,10,0,0,0
Y2-S2-012M26,6,501,PS,exp,49,→,right,→,0.48670629994012415,True,10,1,0,0
Y2-S2-012M26,6,502,PS,exp,25,↑,left,←,0.7430873999837786,False,9,-1,1,1
Y2-S2-012M26,6,503,PS,exp,42,↓,down,↓,0.5889657000079751,True,10,-1,0,1
Y2-S2-012M26,6,504,PS,exp,38,←,left,←,0.44532009994145483,True,10,-1,0,1
Y2-S2-012M26,6,505,PS,exp,41,↓,right,→,0.8063343000831082,False,10,-1,0,1
Y2-S2-012M26,6,506,PS,exp,46,←,left,←,0.4484061000403017,True,11,-1,0,1
Y2-S2-012M26,6,507,PS,exp,45,→,down,↓,0.7327939999522641,False,11,-1,0,1
Y2-S2-012M26,6,508,PS,exp,34,↓,left,←,0.5966483999509364,False,12,-1,0,1
Y2-S2-012M26,6,509,PS,exp,27,←,left,←,0.464104300015606,True,13,-1,0,1
Y2-S2-012M26,6,510,PS,exp,30,→,down,↓,1.006160999997519,False,13,-1,0,1
Y2-S2-012M26,6,511,PS,exp,25,↑,up,↑,0.7258457000134513,True,14,-1,0,1
Y2-S2-012M26,6,512,PS,exp,38,↓,right,→,0.5258919999469072,False,14,-1,0,1
Y2-S2-012M26,6,513,PS,exp,41,←,left,←,0.5309145000064746,True,15,-1,0,1
Y2-S2-012M26,6,514,PS,exp,41,↑,up,↑,0.5094928999897093,True,15,-1,0,1
Y2-S2-012M26,6,515,PS,exp,29,→,right,→,0.4760223999619484,True,15,1,1,2
Y2-S2-012M26,6,516,PS,exp,25,↑,right,→,0.6685341000556946,False,14,-1,1,3
Y2-S2-012M26,6,517,PS,exp,49,←,left,←,0.8374826000072062,True,15,-1,0,3
Y2-S2-012M26,6,518,PS,exp,25,↑,left,←,0.7217943998984993,False,15,-1,0,3
Y2-S2-012M26,6,519,PS,exp,43,→,right,→,0.45713919994886965,True,16,-1,0,3
Y2-S2-012M26,6,520,PS,exp,37,↑,up,↑,0.4893407999770716,True,16,-1,0,3
Y2-S2-012M26,6,521,PS,exp,44,←,left,←,0.49944190005771816,True,16,1,1,4
Y2-S2-012M26,6,522,PS,exp,35,↑,up,↑,0.48423219996038824,True,15,1,0,4
Y2-S2-012M26,6,523,PS,exp,39,↓,left,←,0.8801945999730378,False,15,-1,1,5
Y2-S2-012M26,6,524,PS,exp,40,→,right,→,0.4963486000197008,True,16,-1,0,5
Y2-S2-012M26,6,525,PS,exp,47,↑,left,←,0.7613454000093043,False,16,-1,0,5
Y2-S2-012M26,6,526,PS,exp,48,←,left,←,1.389259200077504,True,17,-1,0,5
Y2-S2-012M26,6,527,PS,exp,29,↓,down,↓,0.5130125000141561,True,17,-1,0,5
Y2-S2-012M26,6,528,PS,exp,46,→,right,→,0.5220242999494076,True,17,1,1,6
Y2-S2-012M26,6,529,PS,exp,41,↓,left,←,0.7608341999584809,False,16,-1,1,7
Y2-S2-012M26,6,530,PS,exp,46,←,left,←,0.452004500082694,True,17,-1,0,7
Y2-S2-012M26,6,531,PS,exp,39,↑,up,↑,0.7062234000768512,True,17,-1,0,7
Y2-S2-012M26,6,532,PS,exp,40,←,left,←,0.4963061000453308,True,17,1,1,8
Y2-S2-012M26,6,533,PS,exp,35,↑,up,↑,0.44984240003395826,True,16,1,0,8
Y2-S2-012M26,6,534,PS,exp,25,↓,down,↓,0.5796931999502704,True,16,1,0,8
Y2-S2-012M26,6,535,PS,exp,37,←,left,←,0.46078840002883226,True,16,1,0,8
Y2-S2-012M26,6,536,PS,exp,43,↓,down,↓,0.7133994000032544,True,15,1,0,8
Y2-S2-012M26,6,537,PS,exp,35,←,left,←,0.45972239994443953,True,15,1,0,8
Y2-S2-012M26,6,538,PS,exp,43,↑,up,↑,0.4689089999301359,True,15,1,0,8
Y2-S2-012M26,6,539,PS,exp,36,←,left,←,0.7526707999641076,True,14,1,0,8
Y2-S2-012M26,6,540,PS,exp,40,↑,down,↓,0.4512438999954611,False,14,-1,1,9
Y2-S2-012M26,6,541,PS,exp,36,→,right,→,0.5217182000633329,True,15,-1,0,9
Y2-S2-012M26,6,542,PS,exp,38,←,left,←,0.5024632000131533,True,15,-1,0,9
Y2-S2-012M26,6,543,PS,exp,26,↑,up,↑,0.5037694999482483,True,15,1,1,10
Y2-S2-012M26,6,544,PS,exp,50,↓,down,↓,0.6434312000637874,True,14,1,0,10
Y2-S2-012M26,6,545,PS,exp,40,←,left,←,0.49068270006682724,True,14,1,0,10
Y2-S2-012M26,6,546,PS,exp,42,↑,up,↑,0.5048207999207079,True,14,1,0,10
Y2-S2-012M26,6,547,PS,exp,30,←,left,←,0.7022995000006631,True,13,1,0,10
Y2-S2-012M26,6,548,PS,exp,29,↓,down,↓,0.6288066999986768,True,13,1,0,10
Y2-S2-012M26,6,549,PS,exp,48,←,left,←,0.4719367000507191,True,13,1,0,10
Y2-S2-012M26,6,550,PS,exp,47,↑,up,↑,0.481266500079073,True,12,1,0,10
Y2-S2-012M26,6,551,PS,exp,48,→,right,→,0.45815539988689125,True,12,1,0,10
Y2-S2-012M26,6,552,PS,exp,41,←,left,←,0.3989846999756992,True,12,1,0,10
Y2-S2-012M26,6,553,PS,exp,48,↑,up,↑,0.502233500010334,True,11,1,0,10
Y2-S2-012M26,6,554,PS,exp,36,→,right,→,0.4928910000016913,True,11,1,0,10
Y2-S2-012M26,6,555,PS,exp,41,↑,left,←,0.6559081999585032,False,11,-1,1,11
Y2-S2-012M26,6,556,PS,exp,28,↓,up,↑,0.7776667000725865,False,12,-1,0,11
Y2-S2-012M26,6,557,PS,exp,34,→,right,→,0.48172580008395016,True,13,-1,0,11
Y2-S2-012M26,6,558,PS,exp,27,←,left,←,0.5254674999741837,True,13,-1,0,11
Y2-S2-012M26,6,559,PS,exp,48,→,right,→,0.5910618000198156,True,13,1,1,12
Y2-S2-012M26,6,560,PS,exp,41,↓,down,↓,0.6245027000550181,True,12,1,0,12
Y2-S2-012M26,6,561,PS,exp,45,←,right,→,0.6471364999888465,False,12,-1,1,13
Y2-S2-012M26,6,562,PS,exp,49,↑,right,→,0.8519375999458134,False,13,-1,0,13
Y2-S2-012M26,6,563,PS,exp,42,←,up,↑,0.6968908000271767,False,14,-1,0,13
Y2-S2-012M26,6,564,PS,exp,36,→,left,←,0.5766529999673367,False,15,-1,0,13
Y2-S2-012M26,6,565,PS,exp,40,↑,up,↑,0.7032304999884218,True,16,-1,0,13
Y2-S2-012M26,6,566,PS,exp,49,→,right,→,0.43790950009133667,True,16,-1,0,13
Y2-S2-012M26,6,567,PS,exp,43,↓,down,↓,0.6704830001108348,True,16,1,1,14
Y2-S2-012M26,6,568,PS,exp,32,→,right,→,0.6510693000163883,True,15,1,0,14
Y2-S2-012M26,6,569,PS,exp,35,←,left,←,0.44933440000750124,True,15,1,0,14
Y2-S2-012M26,6,570,PS,exp,33,↑,right,→,0.8203173000365496,False,15,-1,1,15
Y2-S2-012M26,6,571,PS,exp,35,→,right,→,0.5770932000596076,True,16,-1,0,15
Y2-S2-012M26,6,572,PS,exp,46,↓,down,↓,0.6544012000085786,True,16,-1,0,15
Y2-S2-012M26,6,573,PS,exp,47,↑,up,↑,0.5526932999491692,True,16,1,1,16
Y2-S2-012M26,7,574,PS,intra_train,38,→,right,→,0.48111249995417893,True,15,-,-,-
Y2-S2-012M26,7,575,PS,intra_train,38,←,left,←,0.4560431999852881,True,15,-,-,-
Y2-S2-012M26,7,576,PS,intra_train,41,→,right,→,0.5331483000190929,True,15,-,-,-
Y2-S2-012M26,7,577,PS,intra_train,37,↑,up,↑,0.6490553000476211,True,15,-,-,-
Y2-S2-012M26,7,578,PS,intra_train,28,→,right,→,0.4554055000189692,True,15,-,-,-
Y2-S2-012M26,7,579,PS,exp,41,↑,up,↑,0.46922880003694445,True,10,0,0,0
Y2-S2-012M26,7,580,PS,exp,30,↓,down,↓,0.7590449000708759,True,10,0,0,0
Y2-S2-012M26,7,581,PS,exp,47,↑,up,↑,0.7004318999825045,True,10,1,0,0
Y2-S2-012M26,7,582,PS,exp,48,←,left,←,0.529137899982743,True,9,1,0,0
Y2-S2-012M26,7,583,PS,exp,43,↑,up,↑,0.5105742999585345,True,9,1,0,0
Y2-S2-012M26,7,584,PS,exp,50,↓,right,→,0.5536292999750003,False,9,-1,1,1
Y2-S2-012M26,7,585,PS,exp,49,→,right,→,0.5059373000403866,True,10,-1,0,1
Y2-S2-012M26,7,586,PS,exp,26,↑,up,↑,0.5086325999582186,True,10,-1,0,1
Y2-S2-012M26,7,587,PS,exp,42,←,left,←,0.41889079997781664,True,10,1,1,2
Y2-S2-012M26,7,588,PS,exp,50,↑,down,↓,0.681589899933897,False,9,-1,1,3
Y2-S2-012M26,7,589,PS,exp,29,→,left,←,0.5730709999334067,False,10,-1,0,3
Y2-S2-012M26,7,590,PS,exp,25,↑,right,→,0.5180928000481799,False,11,-1,0,3
Y2-S2-012M26,7,591,PS,exp,27,↓,up,↑,0.6504244999960065,False,12,-1,0,3
Y2-S2-012M26,7,592,PS,exp,31,↑,left,←,0.5818094999995083,False,13,-1,0,3
Y2-S2-012M26,7,593,PS,exp,31,→,right,→,0.48515469999983907,True,14,-1,0,3
Y2-S2-012M26,7,594,PS,exp,41,↓,left,←,0.5819980999222025,False,14,-1,0,3
Y2-S2-012M26,7,595,PS,exp,46,→,right,→,0.4735540999099612,True,15,-1,0,3
Y2-S2-012M26,7,596,PS,exp,37,↑,up,↑,0.4830565999727696,True,15,-1,0,3
Y2-S2-012M26,7,597,PS,exp,32,→,right,→,0.5537909000413492,True,15,1,1,4
Y2-S2-012M26,7,598,PS,exp,37,←,no_key,no_letter,-1.0,False,14,-1,1,5
Y2-S2-012M26,7,599,PS,exp,50,→,left,←,0.18432350002694875,False,15,-1,0,5
Y2-S2-012M26,7,600,PS,exp,44,↓,left,←,0.5554710000287741,False,16,-1,0,5
Y2-S2-012M26,7,601,PS,exp,49,→,right,→,1.797102399985306,True,17,-1,0,5
Y2-S2-012M26,7,602,PS,exp,38,↓,down,↓,0.5476633000653237,True,17,-1,0,5
Y2-S2-012M26,7,603,PS,exp,30,→,right,→,0.46899650001432747,True,17,1,1,6
Y2-S2-012M26,7,604,PS,exp,48,↓,down,↓,0.6883004000410438,True,16,1,0,6
Y2-S2-012M26,7,605,PS,exp,37,↑,left,←,0.6239344000350684,False,16,-1,1,7
Y2-S2-012M26,7,606,PS,exp,49,←,left,←,1.2236142999026924,True,17,-1,0,7
Y2-S2-012M26,7,607,PS,exp,38,↓,down,↓,0.645898099988699,True,17,-1,0,7
Y2-S2-012M26,7,608,PS,exp,27,→,right,→,0.5238369998987764,True,17,1,1,8
Y2-S2-012M26,7,609,PS,exp,37,←,right,→,0.8315024999901652,False,16,-1,1,9
Y2-S2-012M26,7,610,PS,exp,45,→,right,→,0.5904151001013815,True,17,-1,0,9
Y2-S2-012M26,7,611,PS,exp,28,←,left,←,0.4828935998957604,True,17,-1,0,9
Y2-S2-012M26,7,612,PS,exp,49,↑,up,↑,0.45442669990006834,True,17,1,1,10
Y2-S2-012M26,7,613,PS,exp,30,→,right,→,0.5208054000977427,True,16,1,0,10
Y2-S2-012M26,7,614,PS,exp,30,↓,down,↓,0.7509280999656767,True,16,1,0,10
Y2-S2-012M26,7,615,PS,exp,30,↑,right,→,0.616662900079973,False,16,-1,1,11
Y2-S2-012M26,7,616,PS,exp,49,↓,down,↓,0.6840430001029745,True,17,-1,0,11
Y2-S2-012M26,7,617,PS,exp,27,←,no_key,no_letter,-1.0,False,17,-1,0,11
Y2-S2-012M26,7,618,PS,exp,27,↑,up,↑,0.5246396000729874,True,18,-1,0,11
Y2-S2-012M26,7,619,PS,exp,26,↓,down,↓,0.7259972000028938,True,18,-1,0,11
Y2-S2-012M26,7,620,PS,exp,48,←,left,←,0.5669396999292076,True,18,1,1,12
Y2-S2-012M26,7,621,PS,exp,35,↑,up,↑,0.5409504999406636,True,17,1,0,12
Y2-S2-012M26,7,622,PS,exp,32,←,left,←,0.46404079999774694,True,17,1,0,12
Y2-S2-012M26,7,623,PS,exp,48,↓,down,↓,0.6678052999777719,True,17,1,0,12
Y2-S2-012M26,7,624,PS,exp,39,↑,up,↑,0.5639132999349385,True,16,1,0,12
Y2-S2-012M26,7,625,PS,exp,30,→,right,→,0.7257076000096276,True,16,1,0,12
Y2-S2-012M26,7,626,PS,exp,40,↓,left,←,0.5092870999360457,False,16,-1,1,13
Y2-S2-012M26,7,627,PS,exp,35,→,right,→,0.7595246999990195,True,17,-1,0,13
Y2-S2-012M26,7,628,PS,exp,25,↑,down,↓,0.6826503000920638,False,17,-1,0,13
Y2-S2-012M26,7,629,PS,exp,36,↓,down,↓,0.5632170999888331,True,18,-1,0,13
Y2-S2-012M26,7,630,PS,exp,42,↑,up,↑,0.5437195000704378,True,18,-1,0,13
Y2-S2-012M26,7,631,PS,exp,27,↓,down,↓,0.6607037999201566,True,18,1,1,14
Y2-S2-012M26,7,632,PS,exp,26,←,left,←,0.9925139000406489,True,17,1,0,14
Y2-S2-012M26,7,633,PS,exp,37,↑,up,↑,0.4759516000049189,True,17,1,0,14
Y2-S2-012M26,7,634,PS,exp,40,←,left,←,1.3770227999193594,True,17,1,0,14
Y2-S2-012M26,7,635,PS,exp,27,→,right,→,0.5290758999763057,True,16,1,0,14
Y2-S2-012M26,7,636,PS,exp,25,↓,down,↓,0.680157299968414,True,16,1,0,14
Y2-S2-012M26,7,637,PS,exp,34,↑,up,↑,0.46242379990871996,True,16,1,0,14
Y2-S2-012M26,7,638,PS,exp,31,↓,down,↓,0.5671418000711128,True,15,1,0,14
Y2-S2-012M26,7,639,PS,exp,44,←,left,←,0.6299393000081182,True,15,1,0,14
Y2-S2-012M26,7,640,PS,exp,41,→,right,→,0.4567402000539005,True,15,1,0,14
Y2-S2-012M26,7,641,PS,exp,42,←,left,←,0.4457009000470862,True,14,1,0,14
Y2-S2-012M26,7,642,PS,exp,43,↓,down,↓,0.7450593000976369,True,14,1,0,14
Y2-S2-012M26,7,643,PS,exp,28,←,up,↑,0.6665148999309167,False,14,-1,1,15
Y2-S2-012M26,7,644,PS,exp,49,↑,up,↑,0.48876480001490563,True,15,-1,0,15
Y2-S2-012M26,7,645,PS,exp,41,←,left,←,0.45423659996595234,True,15,-1,0,15
Y2-S2-012M26,7,646,PS,exp,30,↓,left,←,0.8001534999348223,False,15,-1,0,15
Y2-S2-012M26,7,647,PS,exp,40,←,left,←,0.6788263000780717,True,16,-1,0,15
Y2-S2-012M26,7,648,PS,exp,48,↓,down,↓,0.6271129000233486,True,16,-1,0,15
Y2-S2-012M26,7,649,PS,exp,37,←,left,←,0.45843730005435646,True,16,1,1,16
Y2-S2-012M26,8,650,AS,intra_train,50,→,right,→,0.6357787000015378,True,24,-,-,-
Y2-S2-012M26,8,651,AS,intra_train,49,↓,down,↓,1.1072133000707254,True,24,-,-,-
Y2-S2-012M26,8,652,AS,intra_train,40,←,down,↓,1.043179199914448,False,24,-,-,-
Y2-S2-012M26,8,653,AS,intra_train,32,→,right,→,0.484262999962084,True,24,-,-,-
Y2-S2-012M26,8,654,AS,intra_train,48,↓,down,↓,0.6118866000324488,True,24,-,-,-
Y2-S2-012M26,8,655,AS,exp,39,→,right,→,0.6071191999362782,True,16,0,0,0
Y2-S2-012M26,8,656,AS,exp,29,←,down,↓,0.7707977000391111,False,16,-1,0,0
Y2-S2-012M26,8,657,AS,exp,34,↓,right,→,0.5606218000175431,False,17,-1,0,0
Y2-S2-012M26,8,658,AS,exp,48,←,left,←,0.4173446000786498,True,18,-1,0,0
Y2-S2-012M26,8,659,AS,exp,50,↑,up,↑,0.4340213000541553,True,18,-1,0,0
Y2-S2-012M26,8,660,AS,exp,29,←,left,←,0.4007943000178784,True,18,1,1,1
Y2-S2-012M26,8,661,AS,exp,37,↑,up,↑,0.505154800019227,True,17,1,0,1
Y2-S2-012M26,8,662,AS,exp,37,←,left,←,0.35053199995309114,True,17,1,0,1
Y2-S2-012M26,8,663,AS,exp,47,→,left,←,0.6764691000571474,False,17,-1,1,2
Y2-S2-012M26,8,664,AS,exp,34,←,left,←,0.6598983000731096,True,18,-1,0,2
Y2-S2-012M26,8,665,AS,exp,26,→,right,→,0.8447990999557078,True,18,-1,0,2
Y2-S2-012M26,8,666,AS,exp,34,↑,down,↓,0.8667254999745637,False,18,-1,0,2
Y2-S2-012M26,8,667,AS,exp,50,→,right,→,1.1076831000391394,True,19,-1,0,2
Y2-S2-012M26,8,668,AS,exp,36,←,left,←,1.0663602000568062,True,19,-1,0,2
Y2-S2-012M26,8,669,AS,exp,26,→,right,→,0.6718296998878941,True,19,1,1,3
Y2-S2-012M26,8,670,AS,exp,49,↓,down,↓,0.6164641999639571,True,18,1,0,3
Y2-S2-012M26,8,671,AS,exp,42,→,right,→,1.072692000074312,True,18,1,0,3
Y2-S2-012M26,8,672,AS,exp,25,↑,up,↑,0.6904103000415489,True,18,1,0,3
Y2-S2-012M26,8,673,AS,exp,33,←,down,↓,0.7924430000130087,False,17,-1,1,4
Y2-S2-012M26,8,674,AS,exp,33,→,right,→,0.6698373999679461,True,18,-1,0,4
Y2-S2-012M26,8,675,AS,exp,38,↓,down,↓,0.6779300000052899,True,18,-1,0,4
Y2-S2-012M26,8,676,AS,exp,34,←,left,←,0.5941633000038564,True,18,1,1,5
Y2-S2-012M26,8,677,AS,exp,37,→,right,→,0.45363350003026426,True,17,1,0,5
Y2-S2-012M26,8,678,AS,exp,42,↑,left,←,0.5813551000319421,False,17,-1,1,6
Y2-S2-012M26,8,679,AS,exp,31,←,left,←,0.8464107000036165,True,18,-1,0,6
Y2-S2-012M26,8,680,AS,exp,41,→,right,→,0.5613804999738932,True,18,-1,0,6
Y2-S2-012M26,8,681,AS,exp,25,↓,down,↓,0.7797899999422953,True,18,1,1,7
Y2-S2-012M26,8,682,AS,exp,36,→,right,→,0.4607016999507323,True,17,1,0,7
Y2-S2-012M26,8,683,AS,exp,45,↑,left,←,0.7742532000411302,False,17,-1,1,8
Y2-S2-012M26,8,684,AS,exp,31,←,left,←,0.6430321999359876,True,18,-1,0,8
Y2-S2-012M26,8,685,AS,exp,49,↓,down,↓,0.9820237000240013,True,18,-1,0,8
Y2-S2-012M26,8,686,AS,exp,28,↑,right,→,0.7581430999562144,False,18,-1,0,8
Y2-S2-012M26,8,687,AS,exp,42,←,left,←,1.1168488999828696,True,19,-1,0,8
Y2-S2-012M26,8,688,AS,exp,31,↓,down,↓,0.965489299967885,True,19,-1,0,8
Y2-S2-012M26,8,689,AS,exp,29,←,up,↑,0.6175862000091001,False,19,-1,0,8
Y2-S2-012M26,8,690,AS,exp,44,↓,down,↓,0.5672859000042081,True,20,-1,0,8
Y2-S2-012M26,8,691,AS,exp,42,←,left,←,0.6242277000565082,True,20,-1,0,8
Y2-S2-012M26,8,692,AS,exp,43,→,right,→,0.8910040999762714,True,20,1,1,9
Y2-S2-012M26,8,693,AS,exp,27,←,left,←,1.1866623000241816,True,19,1,0,9
Y2-S2-012M26,8,694,AS,exp,36,↓,right,→,0.8772494000149891,False,19,-1,1,10
Y2-S2-012M26,8,695,AS,exp,35,←,left,←,0.6079774000681937,True,20,-1,0,10
Y2-S2-012M26,8,696,AS,exp,35,→,up,↑,1.203154499991797,False,20,-1,0,10
Y2-S2-012M26,8,697,AS,exp,45,←,left,←,0.75936719996389,True,21,-1,0,10
Y2-S2-012M26,8,698,AS,exp,43,→,right,→,0.8085707999998704,True,21,-1,0,10
Y2-S2-012M26,8,699,AS,exp,46,↑,up,↑,0.5491188999731094,True,21,1,1,11
Y2-S2-012M26,8,700,AS,exp,38,→,right,→,0.46713710005860776,True,20,1,0,11
Y2-S2-012M26,8,701,AS,exp,26,↑,left,←,0.792229300015606,False,20,-1,1,12
Y2-S2-012M26,8,702,AS,exp,32,←,left,←,0.4337725999066606,True,21,-1,0,12
Y2-S2-012M26,8,703,AS,exp,28,↑,up,↑,1.1557258000830188,True,21,-1,0,12
Y2-S2-012M26,8,704,AS,exp,42,←,right,→,0.823013799963519,False,21,-1,0,12
Y2-S2-012M26,8,705,AS,exp,39,→,up,↑,0.7816626999992877,False,22,-1,0,12
Y2-S2-012M26,8,706,AS,exp,40,↑,up,↑,0.6349596999352798,True,23,-1,0,12
Y2-S2-012M26,8,707,AS,exp,43,↓,down,↓,0.8250870000338182,True,23,-1,0,12
Y2-S2-012M26,8,708,AS,exp,32,←,right,→,0.7850289000198245,False,23,-1,0,12
Y2-S2-012M26,8,709,AS,exp,41,↑,up,↑,0.8044690999668092,True,24,-1,0,12
Y2-S2-012M26,8,710,AS,exp,49,↓,no_key,no_letter,-1.0,False,24,-1,0,12
Y2-S2-012M26,8,711,AS,exp,39,↑,left,←,0.38417960004881024,False,25,-1,0,12
Y2-S2-012M26,8,712,AS,exp,44,←,left,←,0.6526224999688566,True,26,-1,0,12
Y2-S2-012M26,8,713,AS,exp,33,→,right,→,0.7654670000774786,True,26,-1,0,12
Y2-S2-012M26,8,714,AS,exp,34,↓,down,↓,1.5982585999881849,True,26,1,1,13
Y2-S2-012M26,8,715,AS,exp,30,←,left,←,0.5007659000111744,True,25,1,0,13
Y2-S2-012M26,8,716,AS,exp,40,→,right,→,0.46743590000551194,True,25,1,0,13
Y2-S2-012M26,8,717,AS,exp,25,↑,up,↑,0.6223193999612704,True,25,1,0,13
Y2-S2-012M26,8,718,AS,exp,42,→,right,→,0.666451400029473,True,24,1,0,13
Y2-S2-012M26,8,719,AS,exp,32,↑,up,↑,0.743420899962075,True,24,1,0,13
Y2-S2-012M26,8,720,AS,exp,41,↓,down,↓,0.7676927000284195,True,24,1,0,13
Y2-S2-012M26,8,721,AS,exp,46,↑,up,↑,0.6996252000099048,True,23,1,0,13
Y2-S2-012M26,8,722,AS,exp,43,←,left,←,0.7195138999959454,True,23,1,0,13
Y2-S2-012M26,8,723,AS,exp,32,↑,right,→,0.9651096999878064,False,23,-1,1,14
Y2-S2-012M26,8,724,AS,exp,29,←,left,←,0.7001395999686792,True,24,-1,0,14
Y2-S2-012M26,8,725,AS,exp,25,→,right,→,1.3547619000310078,True,24,-1,0,14
Y2-S2-012M26,8,726,AS,exp,41,↓,down,↓,0.6704083000076935,True,24,1,1,15
Y2-S2-012M26,8,727,AS,exp,45,→,right,→,0.6854237000225112,True,23,1,0,15
Y2-S2-012M26,8,728,AS,exp,42,←,left,←,0.8002877000253648,True,23,1,0,15
Y2-S2-012M26,8,729,AS,exp,28,→,right,→,0.749658599961549,True,23,1,0,15
Y2-S2-012M26,8,730,AS,exp,26,←,left,←,1.2981243999674916,True,22,1,0,15
Y2-S2-012M26,8,731,AS,exp,46,↑,up,↑,0.6950582999270409,True,22,1,0,15
Y2-S2-012M26,8,732,AS,exp,46,←,left,←,0.8988024999853224,True,22,1,0,15
Y2-S2-012M26,8,733,AS,exp,28,↑,up,↑,0.7518913999665529,True,21,1,0,15
Y2-S2-012M26,8,734,AS,exp,41,↓,left,←,0.7074219000060111,False,21,-1,1,16
