PART_ID,Block_no,Trial_no,Block_type,Trial_type,CSI,Stim_letter,Key_pressed,letter_choose,Rt,Corr,Stimulus Time,Level,Reversal,Revs_count
Y2-S2-160K20,1,1,PS,train,44,↓,down,↓,0.75314410001738,True,30,-,-,-
Y2-S2-160K20,1,2,PS,train,48,↑,up,↑,0.6002762999851257,True,30,-,-,-
Y2-S2-160K20,1,3,PS,train,45,→,right,→,0.517304899985902,True,30,-,-,-
Y2-S2-160K20,1,4,PS,train,25,↓,down,↓,1.09546430001501,True,30,-,-,-
Y2-S2-160K20,1,5,PS,train,39,←,left,←,0.43481679999968037,True,30,-,-,-
Y2-S2-160K20,1,6,PS,train,38,↑,up,↑,0.984752899967134,True,30,-,-,-
Y2-S2-160K20,1,7,PS,train,33,←,left,←,0.5509311999776401,True,30,-,-,-
Y2-S2-160K20,1,8,PS,train,50,→,right,→,0.9604646000079811,True,30,-,-,-
Y2-S2-160K20,1,9,PS,train,29,↓,down,↓,0.7720209000399336,True,30,-,-,-
Y2-S2-160K20,1,10,PS,train,35,→,right,→,0.8429874999565072,True,30,-,-,-
Y2-S2-160K20,2,11,AS,train,30,↓,down,↓,0.9190299999900162,True,45,-,-,-
Y2-S2-160K20,2,12,AS,train,28,↑,up,↑,0.5346286999993026,True,45,-,-,-
Y2-S2-160K20,2,13,AS,train,37,←,left,←,0.7507759000291117,True,45,-,-,-
Y2-S2-160K20,2,14,AS,train,37,↓,down,↓,0.6011334999930114,True,45,-,-,-
Y2-S2-160K20,2,15,AS,train,34,↑,up,↑,0.501196000026539,True,45,-,-,-
Y2-S2-160K20,2,16,AS,train,50,↓,down,↓,0.6841821999987587,True,45,-,-,-
Y2-S2-160K20,2,17,AS,train,48,→,right,→,0.5009210999705829,True,45,-,-,-
Y2-S2-160K20,2,18,AS,train,45,←,left,←,0.48429319995921105,True,45,-,-,-
Y2-S2-160K20,2,19,AS,train,31,→,right,→,0.7177517000236548,True,45,-,-,-
Y2-S2-160K20,2,20,AS,train,47,←,left,←,0.7675281999981962,True,45,-,-,-
Y2-S2-160K20,-,21,PS,adaptive,46,→,left,←,0.7231110000284389,False,10,-1,0,0
Y2-S2-160K20,-,22,PS,adaptive,27,↑,up,↑,0.5159032000228763,True,11,-1,0,0
Y2-S2-160K20,-,23,PS,adaptive,28,↓,down,↓,0.6765278999810107,True,11,-1,0,0
Y2-S2-160K20,-,24,PS,adaptive,47,↑,up,↑,0.505439100030344,True,11,1,1,1
Y2-S2-160K20,-,25,PS,adaptive,45,←,left,←,0.6047488999902271,True,10,1,0,1
Y2-S2-160K20,-,26,PS,adaptive,38,→,right,→,0.505348899983801,True,10,1,0,1
Y2-S2-160K20,-,27,PS,adaptive,26,↑,up,↑,0.5132575999596156,True,10,1,0,1
Y2-S2-160K20,-,28,PS,adaptive,50,←,left,←,0.5283994000055827,True,9,1,0,1
Y2-S2-160K20,-,29,PS,adaptive,39,↑,down,↓,0.8245073000434786,False,9,-1,1,2
Y2-S2-160K20,-,30,PS,adaptive,41,→,up,↑,0.864081299980171,False,10,-1,0,2
Y2-S2-160K20,-,31,PS,adaptive,47,↓,down,↓,0.7685026000253856,True,11,-1,0,2
Y2-S2-160K20,-,32,PS,adaptive,43,↑,right,→,1.0090231000212952,False,11,-1,0,2
Y2-S2-160K20,-,33,PS,adaptive,27,↓,down,↓,0.6048735000076704,True,12,-1,0,2
Y2-S2-160K20,-,34,PS,adaptive,45,↑,up,↑,0.510046000010334,True,12,-1,0,2
Y2-S2-160K20,-,35,PS,adaptive,34,→,right,→,0.5607390999794006,True,12,1,1,3
Y2-S2-160K20,-,36,PS,adaptive,38,↑,up,↑,0.4786498000030406,True,11,1,0,3
Y2-S2-160K20,-,37,PS,adaptive,50,←,left,←,0.5214928999776021,True,11,1,0,3
Y2-S2-160K20,-,38,PS,adaptive,40,→,right,→,0.5612944000167772,True,11,1,0,3
Y2-S2-160K20,-,39,PS,adaptive,41,←,left,←,0.5084735000273213,True,10,1,0,3
Y2-S2-160K20,-,40,PS,adaptive,26,↓,down,↓,0.7874330000486225,True,10,1,0,3
Y2-S2-160K20,-,41,PS,adaptive,29,↑,up,↑,0.612944399996195,True,10,1,0,3
Y2-S2-160K20,-,42,PS,adaptive,50,→,right,→,0.4924810999655165,True,9,1,0,3
Y2-S2-160K20,-,43,PS,adaptive,36,←,left,←,0.6489479999872856,True,9,1,0,3
Y2-S2-160K20,-,44,PS,adaptive,43,↑,right,→,0.767305799992755,False,9,-1,1,4
Y2-S2-160K20,-,45,AS,adaptive,45,↓,down,↓,0.667203499993775,True,20,0,0,0
Y2-S2-160K20,-,46,AS,adaptive,34,←,left,←,0.5316771999932826,True,20,0,0,0
Y2-S2-160K20,-,47,AS,adaptive,32,→,down,↓,0.9623816999956034,False,20,-1,0,0
Y2-S2-160K20,-,48,AS,adaptive,40,↑,up,↑,0.7598343000281602,True,21,-1,0,0
Y2-S2-160K20,-,49,AS,adaptive,46,→,right,→,0.5665128999971785,True,21,-1,0,0
Y2-S2-160K20,-,50,AS,adaptive,42,↓,down,↓,1.003953100007493,True,21,1,1,1
Y2-S2-160K20,-,51,AS,adaptive,40,↑,up,↑,0.5482455999590456,True,20,1,0,1
Y2-S2-160K20,-,52,AS,adaptive,50,←,left,←,0.7928813999751583,True,20,1,0,1
Y2-S2-160K20,-,53,AS,adaptive,35,↑,up,↑,0.646823699993547,True,20,1,0,1
Y2-S2-160K20,-,54,AS,adaptive,27,←,right,→,0.9200685999821872,False,19,-1,1,2
Y2-S2-160K20,-,55,AS,adaptive,26,→,right,→,0.5245521999895573,True,20,-1,0,2
Y2-S2-160K20,-,56,AS,adaptive,47,↑,up,↑,0.7126725999987684,True,20,-1,0,2
Y2-S2-160K20,-,57,AS,adaptive,35,→,right,→,0.6850388000020757,True,20,1,1,3
Y2-S2-160K20,-,58,AS,adaptive,36,↓,down,↓,0.8483187999809161,True,19,1,0,3
Y2-S2-160K20,-,59,AS,adaptive,37,←,left,←,0.4004906000336632,True,19,1,0,3
Y2-S2-160K20,-,60,AS,adaptive,42,→,right,→,0.41773210000246763,True,19,1,0,3
Y2-S2-160K20,-,61,AS,adaptive,27,↑,up,↑,0.8056045999983326,True,18,1,0,3
Y2-S2-160K20,-,62,AS,adaptive,43,←,left,←,0.7613887999905273,True,18,1,0,3
Y2-S2-160K20,-,63,AS,adaptive,44,↑,up,↑,0.8268121999572031,True,18,1,0,3
Y2-S2-160K20,-,64,AS,adaptive,38,→,right,→,0.4806788000278175,True,17,1,0,3
Y2-S2-160K20,-,65,AS,adaptive,45,↑,up,↑,0.894597300037276,True,17,1,0,3
Y2-S2-160K20,-,66,AS,adaptive,45,→,right,→,0.829241200000979,True,17,1,0,3
Y2-S2-160K20,-,67,AS,adaptive,40,←,left,←,1.704383600037545,True,16,1,0,3
Y2-S2-160K20,-,68,AS,adaptive,26,↑,up,↑,0.5527206999831833,True,16,1,0,3
Y2-S2-160K20,-,69,AS,adaptive,49,←,right,→,0.7915104000130668,False,16,-1,1,4
Y2-S2-160K20,1,70,PS,intra_train,40,→,right,→,0.6236756999860518,True,15,-,-,-
Y2-S2-160K20,1,71,PS,intra_train,38,←,left,←,0.5064071000088006,True,15,-,-,-
Y2-S2-160K20,1,72,PS,intra_train,48,↑,up,↑,0.45002849999582395,True,15,-,-,-
Y2-S2-160K20,1,73,PS,intra_train,35,→,right,→,0.466813099978026,True,15,-,-,-
Y2-S2-160K20,1,74,PS,intra_train,38,↓,down,↓,0.8504222999908961,True,15,-,-,-
Y2-S2-160K20,1,75,PS,exp,43,→,right,→,0.5366865000105463,True,10,0,0,0
Y2-S2-160K20,1,76,PS,exp,27,↓,down,↓,0.6915969999972731,True,10,0,0,0
Y2-S2-160K20,1,77,PS,exp,38,←,left,←,0.529127299960237,True,10,1,0,0
Y2-S2-160K20,1,78,PS,exp,26,↑,up,↑,0.46069519995944574,True,9,1,0,0
Y2-S2-160K20,1,79,PS,exp,47,←,left,←,0.5303363000275567,True,9,1,0,0
Y2-S2-160K20,1,80,PS,exp,29,→,right,→,0.5304509000270627,True,9,1,0,0
Y2-S2-160K20,1,81,PS,exp,49,↑,up,↑,0.533567399950698,True,8,1,0,0
Y2-S2-160K20,1,82,PS,exp,46,→,down,↓,1.0184788000187837,False,8,-1,1,1
Y2-S2-160K20,1,83,PS,exp,50,←,left,←,0.6283559000003152,True,9,-1,0,1
Y2-S2-160K20,1,84,PS,exp,37,↓,right,→,0.8233936000033282,False,9,-1,0,1
Y2-S2-160K20,1,85,PS,exp,27,↑,down,↓,0.9084128999966197,False,10,-1,0,1
Y2-S2-160K20,1,86,PS,exp,39,↓,down,↓,0.7947582000051625,True,11,-1,0,1
Y2-S2-160K20,1,87,PS,exp,41,→,right,→,0.5900242999778129,True,11,-1,0,1
Y2-S2-160K20,1,88,PS,exp,25,↑,up,↑,0.8227268999908119,True,11,1,1,2
Y2-S2-160K20,1,89,PS,exp,47,→,right,→,0.6259465999901295,True,10,1,0,2
Y2-S2-160K20,1,90,PS,exp,34,←,left,←,0.5245269000297412,True,10,1,0,2
Y2-S2-160K20,1,91,PS,exp,41,↑,up,↑,0.583486300020013,True,10,1,0,2
Y2-S2-160K20,1,92,PS,exp,25,←,left,←,0.7883344999863766,True,9,1,0,2
Y2-S2-160K20,1,93,PS,exp,28,↓,down,↓,0.75815850001527,True,9,1,0,2
Y2-S2-160K20,1,94,PS,exp,35,←,left,←,0.6063614000449888,True,9,1,0,2
Y2-S2-160K20,1,95,PS,exp,43,→,right,→,0.5138413000386208,True,8,1,0,2
Y2-S2-160K20,1,96,PS,exp,41,←,left,←,0.6184480999945663,True,8,1,0,2
Y2-S2-160K20,1,97,PS,exp,28,→,right,→,0.5580902000074275,True,8,1,0,2
Y2-S2-160K20,1,98,PS,exp,42,←,left,←,0.5144717000075616,True,7,1,0,2
Y2-S2-160K20,1,99,PS,exp,34,→,right,→,0.5091625999775715,True,7,1,0,2
Y2-S2-160K20,1,100,PS,exp,44,↓,down,↓,0.7295439000008628,True,7,1,0,2
Y2-S2-160K20,1,101,PS,exp,37,→,left,←,0.8851278999936767,False,6,-1,1,3
Y2-S2-160K20,1,102,PS,exp,27,↑,up,↑,0.8387747000087984,True,7,-1,0,3
Y2-S2-160K20,1,103,PS,exp,32,↓,down,↓,1.3886382000055164,True,7,-1,0,3
Y2-S2-160K20,1,104,PS,exp,45,↑,up,↑,0.7383468000334688,True,7,1,1,4
Y2-S2-160K20,1,105,PS,exp,28,←,left,←,0.5816406999947503,True,6,1,0,4
Y2-S2-160K20,1,106,PS,exp,30,↓,left,←,0.7803369999746792,False,6,-1,1,5
Y2-S2-160K20,1,107,PS,exp,27,↑,up,↑,0.5764008999685757,True,7,-1,0,5
Y2-S2-160K20,1,108,PS,exp,29,↓,down,↓,0.7654662999557331,True,7,-1,0,5
Y2-S2-160K20,1,109,PS,exp,42,↑,up,↑,0.7579495999962091,True,7,1,1,6
Y2-S2-160K20,1,110,PS,exp,32,→,down,↓,1.0970267000375316,False,6,-1,1,7
Y2-S2-160K20,1,111,PS,exp,34,↓,right,→,0.7474843999953009,False,7,-1,0,7
Y2-S2-160K20,1,112,PS,exp,50,→,right,→,0.6161769999889657,True,8,-1,0,7
Y2-S2-160K20,1,113,PS,exp,39,←,right,→,0.9708049999899231,False,8,-1,0,7
Y2-S2-160K20,1,114,PS,exp,37,→,right,→,0.5441554000135511,True,9,-1,0,7
Y2-S2-160K20,1,115,PS,exp,36,←,left,←,0.4899388999911025,True,9,-1,0,7
Y2-S2-160K20,1,116,PS,exp,40,↓,down,↓,0.6025335000013001,True,9,1,1,8
Y2-S2-160K20,1,117,PS,exp,47,→,up,↑,0.9704996000509709,False,8,-1,1,9
Y2-S2-160K20,1,118,PS,exp,31,←,left,←,0.5585332000046037,True,9,-1,0,9
Y2-S2-160K20,1,119,PS,exp,49,→,right,→,0.842681200010702,True,9,-1,0,9
Y2-S2-160K20,1,120,PS,exp,46,↓,left,←,0.90001309994841,False,9,-1,0,9
Y2-S2-160K20,1,121,PS,exp,26,→,right,→,0.6312831999966875,True,10,-1,0,9
Y2-S2-160K20,1,122,PS,exp,28,↑,left,←,0.627991600020323,False,10,-1,0,9
Y2-S2-160K20,1,123,PS,exp,40,↓,up,↑,0.982154100027401,False,11,-1,0,9
Y2-S2-160K20,1,124,PS,exp,38,→,right,→,0.6822642000042833,True,12,-1,0,9
Y2-S2-160K20,1,125,PS,exp,33,↑,left,←,1.0788154000183567,False,12,-1,0,9
Y2-S2-160K20,1,126,PS,exp,27,→,right,→,0.807080099999439,True,13,-1,0,9
Y2-S2-160K20,1,127,PS,exp,29,←,left,←,0.6063975000288337,True,13,-1,0,9
Y2-S2-160K20,1,128,PS,exp,30,→,no_key,no_letter,-1.0,False,13,-1,0,9
Y2-S2-160K20,1,129,PS,exp,43,↓,down,↓,0.7055475999950431,True,14,-1,0,9
Y2-S2-160K20,1,130,PS,exp,49,→,right,→,0.5657019999925978,True,14,-1,0,9
Y2-S2-160K20,1,131,PS,exp,32,↑,up,↑,0.5605657999985851,True,14,1,1,10
Y2-S2-160K20,1,132,PS,exp,33,↓,down,↓,0.7850255999946967,True,13,1,0,10
Y2-S2-160K20,1,133,PS,exp,25,→,left,←,0.8294186000130139,False,13,-1,1,11
Y2-S2-160K20,1,134,PS,exp,45,←,left,←,0.642629100009799,True,14,-1,0,11
Y2-S2-160K20,1,135,PS,exp,48,↑,up,↑,0.6520341000286862,True,14,-1,0,11
Y2-S2-160K20,1,136,PS,exp,25,↓,down,↓,0.6514074999722652,True,14,1,1,12
Y2-S2-160K20,1,137,PS,exp,36,↑,up,↑,0.46657910000067204,True,13,1,0,12
Y2-S2-160K20,1,138,PS,exp,43,→,right,→,0.5523360000224784,True,13,1,0,12
Y2-S2-160K20,1,139,PS,exp,48,←,left,←,0.4978609000099823,True,13,1,0,12
Y2-S2-160K20,1,140,PS,exp,48,→,right,→,0.472243600001093,True,12,1,0,12
Y2-S2-160K20,1,141,PS,exp,47,←,left,←,0.5467886000405997,True,12,1,0,12
Y2-S2-160K20,1,142,PS,exp,43,→,right,→,0.5457538000191562,True,12,1,0,12
Y2-S2-160K20,1,143,PS,exp,46,←,left,←,0.6653921999968588,True,11,1,0,12
Y2-S2-160K20,1,144,PS,exp,31,→,right,→,0.4440082000219263,True,11,1,0,12
Y2-S2-160K20,1,145,PS,exp,41,←,left,←,0.46230909996666014,True,11,1,0,12
Y2-S2-160K20,1,146,PS,exp,41,↓,down,↓,0.7976627000025474,True,10,1,0,12
Y2-S2-160K20,1,147,PS,exp,41,←,left,←,0.5292963999672793,True,10,1,0,12
Y2-S2-160K20,1,148,PS,exp,35,↓,down,↓,0.7892745999852195,True,10,1,0,12
Y2-S2-160K20,1,149,PS,exp,50,→,right,→,0.783216200012248,True,9,1,0,12
Y2-S2-160K20,1,150,PS,exp,41,←,left,←,0.5180987000348978,True,9,1,0,12
Y2-S2-160K20,1,151,PS,exp,34,↓,down,↓,0.6279033999890089,True,9,1,0,12
Y2-S2-160K20,1,152,PS,exp,39,←,left,←,0.5587686999933794,True,8,1,0,12
Y2-S2-160K20,1,153,PS,exp,39,↑,right,→,0.5268193000229076,False,8,-1,1,13
Y2-S2-160K20,1,154,PS,exp,30,←,left,←,0.591599999985192,True,9,-1,0,13
Y2-S2-160K20,1,155,PS,exp,42,↓,down,↓,0.7512655999744311,True,9,-1,0,13
Y2-S2-160K20,1,156,PS,exp,30,↑,right,→,0.626924600044731,False,9,-1,0,13
Y2-S2-160K20,1,157,PS,exp,48,←,left,←,0.6092799999751151,True,10,-1,0,13
Y2-S2-160K20,1,158,PS,exp,50,↓,left,←,0.7431723999907263,False,10,-1,0,13
Y2-S2-160K20,1,159,PS,exp,50,←,left,←,0.48694050003541633,True,11,-1,0,13
Y2-S2-160K20,1,160,PS,exp,41,→,right,→,0.5593473999761045,True,11,-1,0,13
Y2-S2-160K20,1,161,PS,exp,30,↓,left,←,0.5805732000153512,False,11,-1,0,13
Y2-S2-160K20,1,162,PS,exp,45,←,left,←,0.448238399985712,True,12,-1,0,13
Y2-S2-160K20,1,163,PS,exp,41,→,right,→,0.5555618000216782,True,12,-1,0,13
Y2-S2-160K20,1,164,PS,exp,30,←,left,←,0.4561019000248052,True,12,1,1,14
Y2-S2-160K20,1,165,PS,exp,35,→,right,→,0.45235320000210777,True,11,1,0,14
Y2-S2-160K20,1,166,PS,exp,30,↓,down,↓,0.8538623999920674,True,11,1,0,14
Y2-S2-160K20,1,167,PS,exp,35,→,left,←,0.7031137000303715,False,11,-1,1,15
Y2-S2-160K20,1,168,PS,exp,50,↑,up,↑,0.774875900009647,True,12,-1,0,15
Y2-S2-160K20,1,169,PS,exp,46,←,left,←,0.563650400028564,True,12,-1,0,15
Y2-S2-160K20,1,170,PS,exp,36,↑,up,↑,0.47709780000150204,True,12,1,1,16
Y2-S2-160K20,2,171,AS,intra_train,48,↓,down,↓,0.6406446999753825,True,25,-,-,-
Y2-S2-160K20,2,172,AS,intra_train,36,→,right,→,0.6881044000037946,True,25,-,-,-
Y2-S2-160K20,2,173,AS,intra_train,29,↑,up,↑,0.6358629000023939,True,25,-,-,-
Y2-S2-160K20,2,174,AS,intra_train,36,←,left,←,0.6680704000173137,True,25,-,-,-
Y2-S2-160K20,2,175,AS,intra_train,50,→,right,→,0.5173137999954633,True,25,-,-,-
Y2-S2-160K20,2,176,AS,exp,35,←,left,←,0.7163276000064798,True,17,0,0,0
Y2-S2-160K20,2,177,AS,exp,50,↓,up,↑,0.7578278000000864,False,17,-1,0,0
Y2-S2-160K20,2,178,AS,exp,49,↑,up,↑,0.8233663999708369,True,18,-1,0,0
Y2-S2-160K20,2,179,AS,exp,33,→,right,→,0.5782235000515357,True,18,-1,0,0
Y2-S2-160K20,2,180,AS,exp,42,↑,up,↑,0.7799980000127107,True,18,1,1,1
Y2-S2-160K20,2,181,AS,exp,43,←,left,←,0.4824683000333607,True,17,1,0,1
Y2-S2-160K20,2,182,AS,exp,26,→,left,←,1.0171333000180312,False,17,-1,1,2
Y2-S2-160K20,2,183,AS,exp,35,↑,up,↑,0.6511531000141986,True,18,-1,0,2
Y2-S2-160K20,2,184,AS,exp,45,↓,up,↑,0.6809490000014193,False,18,-1,0,2
Y2-S2-160K20,2,185,AS,exp,49,→,right,→,0.5591283999965526,True,19,-1,0,2
Y2-S2-160K20,2,186,AS,exp,50,←,left,←,0.6410655999789014,True,19,-1,0,2
Y2-S2-160K20,2,187,AS,exp,35,↑,up,↑,0.5870452999952249,True,19,1,1,3
Y2-S2-160K20,2,188,AS,exp,47,→,right,→,0.6268220000201836,True,18,1,0,3
Y2-S2-160K20,2,189,AS,exp,42,←,left,←,0.716868199990131,True,18,1,0,3
Y2-S2-160K20,2,190,AS,exp,27,↓,up,↑,0.5494699999690056,False,18,-1,1,4
Y2-S2-160K20,2,191,AS,exp,46,↑,down,↓,1.0105494000017643,False,19,-1,0,4
Y2-S2-160K20,2,192,AS,exp,44,→,right,→,0.5753019999829121,True,20,-1,0,4
Y2-S2-160K20,2,193,AS,exp,37,↓,down,↓,0.7263099999981932,True,20,-1,0,4
Y2-S2-160K20,2,194,AS,exp,49,←,left,←,0.9125939999939874,True,20,1,1,5
Y2-S2-160K20,2,195,AS,exp,25,↓,down,↓,0.7543028999934904,True,19,1,0,5
Y2-S2-160K20,2,196,AS,exp,38,←,left,←,0.7372682000277564,True,19,1,0,5
Y2-S2-160K20,2,197,AS,exp,42,→,down,↓,0.7848151000216603,False,19,-1,1,6
Y2-S2-160K20,2,198,AS,exp,41,↑,down,↓,0.7025104999775067,False,20,-1,0,6
Y2-S2-160K20,2,199,AS,exp,50,←,left,←,0.618137100012973,True,21,-1,0,6
Y2-S2-160K20,2,200,AS,exp,35,↓,down,↓,0.8329384000389837,True,21,-1,0,6
Y2-S2-160K20,2,201,AS,exp,44,→,right,→,0.5692586000077426,True,21,1,1,7
Y2-S2-160K20,2,202,AS,exp,50,↓,left,←,0.6549465999705717,False,20,-1,1,8
Y2-S2-160K20,2,203,AS,exp,46,←,left,←,0.6353096999810077,True,21,-1,0,8
Y2-S2-160K20,2,204,AS,exp,35,↑,up,↑,0.6709659000043757,True,21,-1,0,8
Y2-S2-160K20,2,205,AS,exp,38,↓,down,↓,0.9870249999803491,True,21,1,1,9
Y2-S2-160K20,2,206,AS,exp,30,↑,up,↑,0.8648156000417657,True,20,1,0,9
Y2-S2-160K20,2,207,AS,exp,42,→,up,↑,0.7556061999639496,False,20,-1,1,10
Y2-S2-160K20,2,208,AS,exp,36,↓,down,↓,0.7748868999769911,True,21,-1,0,10
Y2-S2-160K20,2,209,AS,exp,44,←,left,←,0.573143900022842,True,21,-1,0,10
Y2-S2-160K20,2,210,AS,exp,29,→,right,→,1.099513699999079,True,21,1,1,11
Y2-S2-160K20,2,211,AS,exp,26,↓,up,↑,0.7870476000243798,False,20,-1,1,12
Y2-S2-160K20,2,212,AS,exp,41,→,right,→,0.5419528000056744,True,21,-1,0,12
Y2-S2-160K20,2,213,AS,exp,31,←,left,←,0.6052062999806367,True,21,-1,0,12
Y2-S2-160K20,2,214,AS,exp,44,↑,down,↓,0.8323845000122674,False,21,-1,0,12
Y2-S2-160K20,2,215,AS,exp,46,←,left,←,0.9491854999796487,True,22,-1,0,12
Y2-S2-160K20,2,216,AS,exp,42,↑,up,↑,0.6747238999814726,True,22,-1,0,12
Y2-S2-160K20,2,217,AS,exp,30,↓,right,→,0.6072902000159957,False,22,-1,0,12
Y2-S2-160K20,2,218,AS,exp,27,↑,up,↑,1.0515350999776274,True,23,-1,0,12
Y2-S2-160K20,2,219,AS,exp,42,←,left,←,0.5798877000343055,True,23,-1,0,12
Y2-S2-160K20,2,220,AS,exp,34,→,right,→,0.6900911999982782,True,23,1,1,13
Y2-S2-160K20,2,221,AS,exp,45,↓,down,↓,1.4098745000083,True,22,1,0,13
Y2-S2-160K20,2,222,AS,exp,27,←,left,←,0.5934548000223003,True,22,1,0,13
Y2-S2-160K20,2,223,AS,exp,45,↑,left,←,1.0394461999530904,False,22,-1,1,14
Y2-S2-160K20,2,224,AS,exp,41,→,right,→,0.7408160999766551,True,23,-1,0,14
Y2-S2-160K20,2,225,AS,exp,43,↓,down,↓,1.0458671000087634,True,23,-1,0,14
Y2-S2-160K20,2,226,AS,exp,32,→,right,→,0.5896785999648273,True,23,1,1,15
Y2-S2-160K20,2,227,AS,exp,39,↓,down,↓,0.5471813000040129,True,22,1,0,15
Y2-S2-160K20,2,228,AS,exp,43,→,right,→,0.9245702999760397,True,22,1,0,15
Y2-S2-160K20,2,229,AS,exp,25,↓,up,↑,1.1132828999543563,False,22,-1,1,16
Y2-S2-160K20,3,230,AS,intra_train,44,←,right,→,0.6300339999725111,False,25,-,-,-
Y2-S2-160K20,3,231,AS,intra_train,49,→,right,→,0.6434097999590449,True,25,-,-,-
Y2-S2-160K20,3,232,AS,intra_train,44,↑,up,↑,0.6631363999913447,True,25,-,-,-
Y2-S2-160K20,3,233,AS,intra_train,50,↓,down,↓,0.9749145999667235,True,25,-,-,-
Y2-S2-160K20,3,234,AS,intra_train,41,→,right,→,0.6910850999993272,True,25,-,-,-
Y2-S2-160K20,3,235,AS,exp,26,←,down,↓,0.7905485000228509,False,17,-1,0,0
Y2-S2-160K20,3,236,AS,exp,27,↓,up,↑,0.9131027999683283,False,18,-1,0,0
Y2-S2-160K20,3,237,AS,exp,50,↑,up,↑,1.0385184000479057,True,19,-1,0,0
Y2-S2-160K20,3,238,AS,exp,34,→,right,→,0.686994899995625,True,19,-1,0,0
Y2-S2-160K20,3,239,AS,exp,41,↓,down,↓,1.3512616000371054,True,19,1,1,1
Y2-S2-160K20,3,240,AS,exp,50,→,right,→,0.8774343999684788,True,18,1,0,1
Y2-S2-160K20,3,241,AS,exp,43,↓,down,↓,0.758048499992583,True,18,1,0,1
Y2-S2-160K20,3,242,AS,exp,27,←,right,→,0.9778230999945663,False,18,-1,1,2
Y2-S2-160K20,3,243,AS,exp,33,↓,down,↓,0.6036602000240237,True,19,-1,0,2
Y2-S2-160K20,3,244,AS,exp,26,↑,left,←,1.0215541000361554,False,19,-1,0,2
Y2-S2-160K20,3,245,AS,exp,38,→,right,→,0.5841994000365958,True,20,-1,0,2
Y2-S2-160K20,3,246,AS,exp,48,↑,up,↑,0.8143698000349104,True,20,-1,0,2
Y2-S2-160K20,3,247,AS,exp,44,↓,down,↓,1.4962628000066616,True,20,1,1,3
Y2-S2-160K20,3,248,AS,exp,30,→,right,→,0.8277742000063881,True,19,1,0,3
Y2-S2-160K20,3,249,AS,exp,42,↑,up,↑,0.9320012999814935,True,19,1,0,3
Y2-S2-160K20,3,250,AS,exp,48,→,right,→,0.6716974999872036,True,19,1,0,3
Y2-S2-160K20,3,251,AS,exp,42,↓,down,↓,0.8182926999870688,True,18,1,0,3
Y2-S2-160K20,3,252,AS,exp,48,→,right,→,0.6253508999943733,True,18,1,0,3
Y2-S2-160K20,3,253,AS,exp,29,←,left,←,0.788546799973119,True,18,1,0,3
Y2-S2-160K20,3,254,AS,exp,42,↑,down,↓,0.662752999982331,False,17,-1,1,4
Y2-S2-160K20,3,255,AS,exp,43,→,right,→,0.5947246999712661,True,18,-1,0,4
Y2-S2-160K20,3,256,AS,exp,49,↓,down,↓,0.5650701000122353,True,18,-1,0,4
Y2-S2-160K20,3,257,AS,exp,44,→,right,→,0.8183630999992602,True,18,1,1,5
Y2-S2-160K20,3,258,AS,exp,49,←,right,→,0.9415520000038669,False,17,-1,1,6
Y2-S2-160K20,3,259,AS,exp,43,→,left,←,1.06478660000721,False,18,-1,0,6
Y2-S2-160K20,3,260,AS,exp,37,↑,up,↑,0.802112200006377,True,19,-1,0,6
Y2-S2-160K20,3,261,AS,exp,42,→,right,→,0.7424050999688916,True,19,-1,0,6
Y2-S2-160K20,3,262,AS,exp,35,←,up,↑,1.0462859999970533,False,19,-1,0,6
Y2-S2-160K20,3,263,AS,exp,38,↑,up,↑,0.6305756000219844,True,20,-1,0,6
Y2-S2-160K20,3,264,AS,exp,48,←,left,←,0.586995100020431,True,20,-1,0,6
Y2-S2-160K20,3,265,AS,exp,26,↓,down,↓,0.7597412999602966,True,20,1,1,7
Y2-S2-160K20,3,266,AS,exp,34,←,down,↓,1.0313200000091456,False,19,-1,1,8
Y2-S2-160K20,3,267,AS,exp,32,↑,up,↑,0.7026329999789596,True,20,-1,0,8
Y2-S2-160K20,3,268,AS,exp,44,↓,up,↑,0.5720988000393845,False,20,-1,0,8
Y2-S2-160K20,3,269,AS,exp,44,→,right,→,0.684233799984213,True,21,-1,0,8
Y2-S2-160K20,3,270,AS,exp,40,↓,down,↓,0.6176298999926075,True,21,-1,0,8
Y2-S2-160K20,3,271,AS,exp,36,←,no_key,no_letter,-1.0,False,21,-1,0,8
Y2-S2-160K20,3,272,AS,exp,50,↓,down,↓,0.4846131000085734,True,22,-1,0,8
Y2-S2-160K20,3,273,AS,exp,37,←,left,←,0.7939891999703832,True,22,-1,0,8
Y2-S2-160K20,3,274,AS,exp,43,↓,left,←,1.096247499983292,False,22,-1,0,8
Y2-S2-160K20,3,275,AS,exp,25,→,right,→,0.7591893999488093,True,23,-1,0,8
Y2-S2-160K20,3,276,AS,exp,49,↓,down,↓,0.7320828000083566,True,23,-1,0,8
Y2-S2-160K20,3,277,AS,exp,41,↑,up,↑,0.7934954999946058,True,23,1,1,9
Y2-S2-160K20,3,278,AS,exp,45,→,right,→,0.549598400015384,True,22,1,0,9
Y2-S2-160K20,3,279,AS,exp,38,↓,down,↓,0.7684753999928944,True,22,1,0,9
Y2-S2-160K20,3,280,AS,exp,35,→,right,→,0.6011083999765106,True,22,1,0,9
Y2-S2-160K20,3,281,AS,exp,38,←,left,←,1.1704666000441648,True,21,1,0,9
Y2-S2-160K20,3,282,AS,exp,33,↑,down,↓,0.7140052999602631,False,21,-1,1,10
Y2-S2-160K20,3,283,AS,exp,37,↓,down,↓,0.9267558000283316,True,22,-1,0,10
Y2-S2-160K20,3,284,AS,exp,42,↑,up,↑,0.9342788999783807,True,22,-1,0,10
Y2-S2-160K20,3,285,AS,exp,45,←,left,←,0.590854300011415,True,22,1,1,11
Y2-S2-160K20,3,286,AS,exp,35,↓,down,↓,0.8568655999843031,True,21,1,0,11
Y2-S2-160K20,3,287,AS,exp,35,←,left,←,0.7862639999948442,True,21,1,0,11
Y2-S2-160K20,3,288,AS,exp,30,↑,up,↑,0.8467104999581352,True,21,1,0,11
Y2-S2-160K20,3,289,AS,exp,42,←,left,←,0.6283344000112265,True,20,1,0,11
Y2-S2-160K20,3,290,AS,exp,34,→,right,→,0.6883333000005223,True,20,1,0,11
Y2-S2-160K20,3,291,AS,exp,25,↓,up,↑,0.9890457000001334,False,20,-1,1,12
Y2-S2-160K20,3,292,AS,exp,33,↑,up,↑,0.9252987999934703,True,21,-1,0,12
Y2-S2-160K20,3,293,AS,exp,50,←,left,←,0.9329935999703594,True,21,-1,0,12
Y2-S2-160K20,3,294,AS,exp,27,→,right,→,0.702725300041493,True,21,1,1,13
Y2-S2-160K20,3,295,AS,exp,31,↑,up,↑,0.7627812000573613,True,20,1,0,13
Y2-S2-160K20,3,296,AS,exp,32,↓,up,↑,0.8961657999898307,False,20,-1,1,14
Y2-S2-160K20,3,297,AS,exp,36,↑,no_key,no_letter,-1.0,False,21,-1,0,14
Y2-S2-160K20,3,298,AS,exp,36,→,right,→,0.7744142999872565,True,22,-1,0,14
Y2-S2-160K20,3,299,AS,exp,42,↓,down,↓,0.8336642000358552,True,22,-1,0,14
Y2-S2-160K20,3,300,AS,exp,30,→,right,→,0.881951300019864,True,22,1,1,15
Y2-S2-160K20,3,301,AS,exp,35,←,left,←,0.75069459999213,True,21,1,0,15
Y2-S2-160K20,3,302,AS,exp,28,↓,down,↓,0.6150683000450954,True,21,1,0,15
Y2-S2-160K20,3,303,AS,exp,43,↑,up,↑,0.8214395000250079,True,21,1,0,15
Y2-S2-160K20,3,304,AS,exp,44,↓,up,↑,0.7310279000084847,False,20,-1,1,16
Y2-S2-160K20,4,305,PS,intra_train,43,↑,up,↑,0.511001100006979,True,15,-,-,-
Y2-S2-160K20,4,306,PS,intra_train,39,↓,down,↓,0.7968538000131957,True,15,-,-,-
Y2-S2-160K20,4,307,PS,intra_train,27,←,left,←,0.5367725999676622,True,15,-,-,-
Y2-S2-160K20,4,308,PS,intra_train,37,→,right,→,0.480407000053674,True,15,-,-,-
Y2-S2-160K20,4,309,PS,intra_train,33,↓,up,↑,0.6870756999705918,False,15,-,-,-
Y2-S2-160K20,4,310,PS,exp,41,→,right,→,0.5340665999683551,True,10,0,0,0
Y2-S2-160K20,4,311,PS,exp,31,↓,down,↓,0.6491010999889113,True,10,0,0,0
Y2-S2-160K20,4,312,PS,exp,50,↑,up,↑,0.6159969000145793,True,10,1,0,0
Y2-S2-160K20,4,313,PS,exp,41,←,left,←,0.35082029999466613,True,9,1,0,0
Y2-S2-160K20,4,314,PS,exp,37,→,right,→,0.4976467999513261,True,9,1,0,0
Y2-S2-160K20,4,315,PS,exp,30,↓,down,↓,0.6556012000073679,True,9,1,0,0
Y2-S2-160K20,4,316,PS,exp,46,←,up,↑,0.6913497999776155,False,8,-1,1,1
Y2-S2-160K20,4,317,PS,exp,44,→,right,→,0.5071249000029638,True,9,-1,0,1
Y2-S2-160K20,4,318,PS,exp,33,←,left,←,0.5804089999874122,True,9,-1,0,1
Y2-S2-160K20,4,319,PS,exp,33,↑,left,←,0.8573477999889292,False,9,-1,0,1
Y2-S2-160K20,4,320,PS,exp,35,→,left,←,1.725874700001441,False,10,-1,0,1
Y2-S2-160K20,4,321,PS,exp,30,←,left,←,0.5524311999906786,True,11,-1,0,1
Y2-S2-160K20,4,322,PS,exp,39,↓,down,↓,0.6312306000036187,True,11,-1,0,1
Y2-S2-160K20,4,323,PS,exp,49,←,right,→,1.0459980000159703,False,11,-1,0,1
Y2-S2-160K20,4,324,PS,exp,46,→,right,→,0.4890492999693379,True,12,-1,0,1
Y2-S2-160K20,4,325,PS,exp,48,↓,down,↓,0.7294463000143878,True,12,-1,0,1
Y2-S2-160K20,4,326,PS,exp,32,↑,up,↑,0.5457768999622203,True,12,1,1,2
Y2-S2-160K20,4,327,PS,exp,43,←,left,←,0.5440994000528008,True,11,1,0,2
Y2-S2-160K20,4,328,PS,exp,33,↓,down,↓,0.7339972000336275,True,11,1,0,2
Y2-S2-160K20,4,329,PS,exp,39,←,left,←,0.9946222999715246,True,11,1,0,2
Y2-S2-160K20,4,330,PS,exp,39,↑,up,↑,0.6795559999882244,True,10,1,0,2
Y2-S2-160K20,4,331,PS,exp,25,↓,down,↓,0.6435044000390917,True,10,1,0,2
Y2-S2-160K20,4,332,PS,exp,33,→,right,→,0.5082787999999709,True,10,1,0,2
Y2-S2-160K20,4,333,PS,exp,42,←,left,←,0.5571355000138283,True,9,1,0,2
Y2-S2-160K20,4,334,PS,exp,48,→,right,→,0.5777808999991976,True,9,1,0,2
Y2-S2-160K20,4,335,PS,exp,47,↓,down,↓,0.8189859000267461,True,9,1,0,2
Y2-S2-160K20,4,336,PS,exp,29,↑,up,↑,1.058939400012605,True,8,1,0,2
Y2-S2-160K20,4,337,PS,exp,42,→,right,→,0.5513669000356458,True,8,1,0,2
Y2-S2-160K20,4,338,PS,exp,25,↓,down,↓,0.8469333000248298,True,8,1,0,2
Y2-S2-160K20,4,339,PS,exp,43,←,left,←,0.9023733999929391,True,7,1,0,2
Y2-S2-160K20,4,340,PS,exp,31,↓,down,↓,1.2277227999875322,True,7,1,0,2
Y2-S2-160K20,4,341,PS,exp,25,→,right,→,0.6092276999843307,True,7,1,0,2
Y2-S2-160K20,4,342,PS,exp,40,↓,down,↓,0.6027758999844082,True,6,1,0,2
Y2-S2-160K20,4,343,PS,exp,39,→,left,←,0.6712470999918878,False,6,-1,1,3
Y2-S2-160K20,4,344,PS,exp,25,↓,down,↓,0.6752493999665603,True,7,-1,0,3
Y2-S2-160K20,4,345,PS,exp,34,↑,up,↑,0.5449689000379294,True,7,-1,0,3
Y2-S2-160K20,4,346,PS,exp,32,→,right,→,0.6839036999735981,True,7,1,1,4
Y2-S2-160K20,4,347,PS,exp,45,↓,left,←,1.1900305000017397,False,6,-1,1,5
Y2-S2-160K20,4,348,PS,exp,48,→,right,→,0.6481536999926902,True,7,-1,0,5
Y2-S2-160K20,4,349,PS,exp,35,↑,right,→,0.6767131999949925,False,7,-1,0,5
Y2-S2-160K20,4,350,PS,exp,37,↓,left,←,0.7799054000061005,False,8,-1,0,5
Y2-S2-160K20,4,351,PS,exp,38,←,left,←,0.6316696000285447,True,9,-1,0,5
Y2-S2-160K20,4,352,PS,exp,45,↓,no_key,no_letter,-1.0,False,9,-1,0,5
Y2-S2-160K20,4,353,PS,exp,30,→,right,→,0.5757287999731489,True,10,-1,0,5
Y2-S2-160K20,4,354,PS,exp,28,←,left,←,0.6330271000042558,True,10,-1,0,5
Y2-S2-160K20,4,355,PS,exp,48,↑,up,↑,0.763146199984476,True,10,1,1,6
Y2-S2-160K20,4,356,PS,exp,34,←,left,←,0.5117356000118889,True,9,1,0,6
Y2-S2-160K20,4,357,PS,exp,49,→,right,→,0.6343712999951094,True,9,1,0,6
Y2-S2-160K20,4,358,PS,exp,40,↑,up,↑,0.5121476000058465,True,9,1,0,6
Y2-S2-160K20,4,359,PS,exp,40,↓,down,↓,0.7475491000222974,True,8,1,0,6
Y2-S2-160K20,4,360,PS,exp,40,↑,up,↑,0.7881969000445679,True,8,1,0,6
Y2-S2-160K20,4,361,PS,exp,41,↓,down,↓,0.6818871999857947,True,8,1,0,6
Y2-S2-160K20,4,362,PS,exp,46,←,right,→,0.8377702999860048,False,7,-1,1,7
Y2-S2-160K20,4,363,PS,exp,42,↓,left,←,0.7353311000042595,False,8,-1,0,7
Y2-S2-160K20,4,364,PS,exp,42,←,left,←,0.4074648000532761,True,9,-1,0,7
Y2-S2-160K20,4,365,PS,exp,38,→,right,→,0.48456790001364425,True,9,-1,0,7
Y2-S2-160K20,4,366,PS,exp,29,↓,down,↓,0.6262996000004932,True,9,1,1,8
Y2-S2-160K20,4,367,PS,exp,47,↑,up,↑,0.7013234999612905,True,8,1,0,8
Y2-S2-160K20,4,368,PS,exp,49,→,right,→,0.5799030000343919,True,8,1,0,8
Y2-S2-160K20,4,369,PS,exp,49,↑,left,←,0.6373063000501134,False,8,-1,1,9
Y2-S2-160K20,4,370,PS,exp,39,→,right,→,0.5272811999893747,True,9,-1,0,9
Y2-S2-160K20,4,371,PS,exp,30,↑,up,↑,0.49634370004059747,True,9,-1,0,9
Y2-S2-160K20,4,372,PS,exp,42,←,left,←,0.5214500000001863,True,9,1,1,10
Y2-S2-160K20,4,373,PS,exp,25,↑,right,→,0.8259371999884024,False,8,-1,1,11
Y2-S2-160K20,4,374,PS,exp,45,↓,down,↓,0.8317750000278465,True,9,-1,0,11
Y2-S2-160K20,4,375,PS,exp,32,→,left,←,0.5389477000571787,False,9,-1,0,11
Y2-S2-160K20,4,376,PS,exp,31,↑,down,↓,0.6349658999824896,False,10,-1,0,11
Y2-S2-160K20,4,377,PS,exp,49,→,right,→,0.649192699987907,True,11,-1,0,11
Y2-S2-160K20,4,378,PS,exp,37,↓,down,↓,0.9491883000009693,True,11,-1,0,11
Y2-S2-160K20,4,379,PS,exp,50,→,right,→,0.5254943000036292,True,11,1,1,12
Y2-S2-160K20,4,380,PS,exp,34,↑,up,↑,1.0278386999852955,True,10,1,0,12
Y2-S2-160K20,4,381,PS,exp,33,→,left,←,0.7476508999825455,False,10,-1,1,13
Y2-S2-160K20,4,382,PS,exp,31,↑,right,→,0.8008100000442937,False,11,-1,0,13
Y2-S2-160K20,4,383,PS,exp,30,←,left,←,0.5583991999737918,True,12,-1,0,13
Y2-S2-160K20,4,384,PS,exp,41,↓,left,←,0.6374066999997012,False,12,-1,0,13
Y2-S2-160K20,4,385,PS,exp,28,←,left,←,0.47483080002712086,True,13,-1,0,13
Y2-S2-160K20,4,386,PS,exp,27,↑,up,↑,0.6122480999911204,True,13,-1,0,13
Y2-S2-160K20,4,387,PS,exp,28,↓,down,↓,0.7059229000005871,True,13,1,1,14
Y2-S2-160K20,4,388,PS,exp,46,→,right,→,0.5984725000453182,True,12,1,0,14
Y2-S2-160K20,4,389,PS,exp,29,↑,up,↑,0.6000386000378057,True,12,1,0,14
Y2-S2-160K20,4,390,PS,exp,36,←,left,←,0.5312671999563463,True,12,1,0,14
Y2-S2-160K20,4,391,PS,exp,46,↓,down,↓,0.8109972000238486,True,11,1,0,14
Y2-S2-160K20,4,392,PS,exp,30,↑,down,↓,1.0957360999891534,False,11,-1,1,15
Y2-S2-160K20,4,393,PS,exp,45,→,right,→,0.7157518000458367,True,12,-1,0,15
Y2-S2-160K20,4,394,PS,exp,34,↑,left,←,0.7030018999939784,False,12,-1,0,15
Y2-S2-160K20,4,395,PS,exp,25,←,left,←,0.685845700034406,True,13,-1,0,15
Y2-S2-160K20,4,396,PS,exp,37,↓,right,→,1.5933988000033423,False,13,-1,0,15
Y2-S2-160K20,4,397,PS,exp,40,←,left,←,0.570938799995929,True,14,-1,0,15
Y2-S2-160K20,4,398,PS,exp,47,→,left,←,0.6738000999903306,False,14,-1,0,15
Y2-S2-160K20,4,399,PS,exp,27,↑,up,↑,0.8235710000153631,True,15,-1,0,15
Y2-S2-160K20,4,400,PS,exp,28,↓,down,↓,0.6423104000277817,True,15,-1,0,15
Y2-S2-160K20,4,401,PS,exp,27,←,left,←,0.5167406999971718,True,15,1,1,16
Y2-S2-160K20,5,402,PS,intra_train,37,→,right,→,0.552231399982702,True,15,-,-,-
Y2-S2-160K20,5,403,PS,intra_train,31,↑,up,↑,0.6063870000070892,True,15,-,-,-
Y2-S2-160K20,5,404,PS,intra_train,49,↓,down,↓,0.6585991999600083,True,15,-,-,-
Y2-S2-160K20,5,405,PS,intra_train,28,→,right,→,0.5242257000063546,True,15,-,-,-
Y2-S2-160K20,5,406,PS,intra_train,26,←,no_key,no_letter,-1.0,False,15,-,-,-
Y2-S2-160K20,5,407,PS,exp,44,→,right,→,0.4978373000049032,True,10,0,0,0
Y2-S2-160K20,5,408,PS,exp,46,↑,down,↓,0.7804919000482187,False,10,-1,0,0
Y2-S2-160K20,5,409,PS,exp,50,→,right,→,0.45849900000030175,True,11,-1,0,0
Y2-S2-160K20,5,410,PS,exp,40,←,left,←,0.528605500003323,True,11,-1,0,0
Y2-S2-160K20,5,411,PS,exp,47,↓,down,↓,0.7258143000071868,True,11,1,1,1
Y2-S2-160K20,5,412,PS,exp,50,↑,up,↑,0.4492912999703549,True,10,1,0,1
Y2-S2-160K20,5,413,PS,exp,45,↓,down,↓,0.6840082999551669,True,10,1,0,1
Y2-S2-160K20,5,414,PS,exp,27,→,right,→,0.5677600999479182,True,10,1,0,1
Y2-S2-160K20,5,415,PS,exp,49,↑,up,↑,0.7328266999684274,True,9,1,0,1
Y2-S2-160K20,5,416,PS,exp,36,↓,down,↓,0.764468899986241,True,9,1,0,1
Y2-S2-160K20,5,417,PS,exp,49,←,left,←,0.4735369000118226,True,9,1,0,1
Y2-S2-160K20,5,418,PS,exp,39,↑,left,←,0.9165015000035055,False,8,-1,1,2
Y2-S2-160K20,5,419,PS,exp,27,→,right,→,0.5757105000084266,True,9,-1,0,2
Y2-S2-160K20,5,420,PS,exp,34,←,left,←,0.4716010999982245,True,9,-1,0,2
Y2-S2-160K20,5,421,PS,exp,42,→,right,→,0.5151024000369944,True,9,1,1,3
Y2-S2-160K20,5,422,PS,exp,41,←,right,→,0.7062270999886096,False,8,-1,1,4
Y2-S2-160K20,5,423,PS,exp,46,↓,left,←,0.4522590999840759,False,9,-1,0,4
Y2-S2-160K20,5,424,PS,exp,45,→,left,←,0.8215193999931216,False,10,-1,0,4
Y2-S2-160K20,5,425,PS,exp,33,↓,down,↓,0.6066552000120282,True,11,-1,0,4
Y2-S2-160K20,5,426,PS,exp,28,←,left,←,0.5694518000236712,True,11,-1,0,4
Y2-S2-160K20,5,427,PS,exp,42,↓,left,←,0.49935880000703037,False,11,-1,0,4
Y2-S2-160K20,5,428,PS,exp,47,↑,down,↓,0.7773170999716967,False,12,-1,0,4
Y2-S2-160K20,5,429,PS,exp,48,→,right,→,0.49655619997065514,True,13,-1,0,4
Y2-S2-160K20,5,430,PS,exp,47,↓,down,↓,0.6723730000085197,True,13,-1,0,4
Y2-S2-160K20,5,431,PS,exp,43,↑,down,↓,1.725946800026577,False,13,-1,0,4
Y2-S2-160K20,5,432,PS,exp,28,←,left,←,0.602827700029593,True,14,-1,0,4
Y2-S2-160K20,5,433,PS,exp,48,↓,down,↓,0.5079411000479013,True,14,-1,0,4
Y2-S2-160K20,5,434,PS,exp,28,←,left,←,0.6077530000475235,True,14,1,1,5
Y2-S2-160K20,5,435,PS,exp,35,↓,right,→,0.8562944000004791,False,13,-1,1,6
Y2-S2-160K20,5,436,PS,exp,25,←,left,←,0.6885402000043541,True,14,-1,0,6
Y2-S2-160K20,5,437,PS,exp,38,↓,down,↓,0.4919436000054702,True,14,-1,0,6
Y2-S2-160K20,5,438,PS,exp,26,↑,down,↓,0.6080494000343606,False,14,-1,0,6
Y2-S2-160K20,5,439,PS,exp,46,←,left,←,0.6560380000155419,True,15,-1,0,6
Y2-S2-160K20,5,440,PS,exp,33,↑,right,→,0.724090299976524,False,15,-1,0,6
Y2-S2-160K20,5,441,PS,exp,25,↓,left,←,0.8108033000025898,False,16,-1,0,6
Y2-S2-160K20,5,442,PS,exp,36,↑,right,→,1.032816199993249,False,17,-1,0,6
Y2-S2-160K20,5,443,PS,exp,32,←,left,←,0.5251087000360712,True,18,-1,0,6
Y2-S2-160K20,5,444,PS,exp,29,↑,up,↑,0.9165900999796577,True,18,-1,0,6
Y2-S2-160K20,5,445,PS,exp,48,→,right,→,1.4113253999967128,True,18,1,1,7
Y2-S2-160K20,5,446,PS,exp,43,←,left,←,0.6109903000178747,True,17,1,0,7
Y2-S2-160K20,5,447,PS,exp,32,↓,down,↓,0.833712599996943,True,17,1,0,7
Y2-S2-160K20,5,448,PS,exp,36,↑,up,↑,0.5274801999912597,True,17,1,0,7
Y2-S2-160K20,5,449,PS,exp,31,→,right,→,0.6117352000437677,True,16,1,0,7
Y2-S2-160K20,5,450,PS,exp,42,←,no_key,no_letter,-1.0,False,16,-1,1,8
Y2-S2-160K20,5,451,PS,exp,32,↑,up,↑,0.586464399995748,True,17,-1,0,8
Y2-S2-160K20,5,452,PS,exp,32,←,left,←,0.5153003999730572,True,17,-1,0,8
Y2-S2-160K20,5,453,PS,exp,32,→,right,→,0.6073741000145674,True,17,1,1,9
Y2-S2-160K20,5,454,PS,exp,47,↓,down,↓,0.7479788000346161,True,16,1,0,9
Y2-S2-160K20,5,455,PS,exp,25,↑,down,↓,1.053429099963978,False,16,-1,1,10
Y2-S2-160K20,5,456,PS,exp,50,→,right,→,0.5246073000016622,True,17,-1,0,10
Y2-S2-160K20,5,457,PS,exp,26,↓,down,↓,0.8561392000410706,True,17,-1,0,10
Y2-S2-160K20,5,458,PS,exp,46,→,right,→,0.49319079995620996,True,17,1,1,11
Y2-S2-160K20,5,459,PS,exp,41,↑,up,↑,0.549725400051102,True,16,1,0,11
Y2-S2-160K20,5,460,PS,exp,27,←,left,←,0.5184615000034682,True,16,1,0,11
Y2-S2-160K20,5,461,PS,exp,25,↓,down,↓,0.8108879000064917,True,16,1,0,11
Y2-S2-160K20,5,462,PS,exp,30,↑,up,↑,0.7107977999839932,True,15,1,0,11
Y2-S2-160K20,5,463,PS,exp,44,→,right,→,0.7070639000157826,True,15,1,0,11
Y2-S2-160K20,5,464,PS,exp,50,←,left,←,0.90909059997648,True,15,1,0,11
Y2-S2-160K20,5,465,PS,exp,48,→,right,→,0.5778023999882862,True,14,1,0,11
Y2-S2-160K20,5,466,PS,exp,30,←,right,→,0.6536185999866575,False,14,-1,1,12
Y2-S2-160K20,5,467,PS,exp,34,→,right,→,0.6730909000034444,True,15,-1,0,12
Y2-S2-160K20,5,468,PS,exp,47,↓,down,↓,0.78947950003203,True,15,-1,0,12
Y2-S2-160K20,5,469,PS,exp,29,→,right,→,0.7013027999782935,True,15,1,1,13
Y2-S2-160K20,5,470,PS,exp,31,↑,up,↑,0.5208441000431776,True,14,1,0,13
Y2-S2-160K20,5,471,PS,exp,40,←,left,←,0.5312550999806263,True,14,1,0,13
Y2-S2-160K20,5,472,PS,exp,32,↓,down,↓,0.7465635999687947,True,14,1,0,13
Y2-S2-160K20,5,473,PS,exp,30,→,right,→,0.5610800000140443,True,13,1,0,13
Y2-S2-160K20,5,474,PS,exp,27,↓,down,↓,0.7117636000039056,True,13,1,0,13
Y2-S2-160K20,5,475,PS,exp,38,←,right,→,0.6598426999989897,False,13,-1,1,14
Y2-S2-160K20,5,476,PS,exp,33,↓,down,↓,0.6003315999987535,True,14,-1,0,14
Y2-S2-160K20,5,477,PS,exp,34,←,left,←,0.5303635000018403,True,14,-1,0,14
Y2-S2-160K20,5,478,PS,exp,49,↑,up,↑,0.5329837999888696,True,14,1,1,15
Y2-S2-160K20,5,479,PS,exp,38,→,right,→,0.6038911000359803,True,13,1,0,15
Y2-S2-160K20,5,480,PS,exp,48,←,left,←,0.47860440000658855,True,13,1,0,15
Y2-S2-160K20,5,481,PS,exp,35,→,right,→,0.6357521000318229,True,13,1,0,15
Y2-S2-160K20,5,482,PS,exp,42,↓,down,↓,0.7482277000090107,True,12,1,0,15
Y2-S2-160K20,5,483,PS,exp,34,←,left,←,0.5466084000072442,True,12,1,0,15
Y2-S2-160K20,5,484,PS,exp,33,→,right,→,0.7030636999988928,True,12,1,0,15
Y2-S2-160K20,5,485,PS,exp,28,↑,up,↑,0.7961288999649696,True,11,1,0,15
Y2-S2-160K20,5,486,PS,exp,40,↓,down,↓,0.9054658999666572,True,11,1,0,15
Y2-S2-160K20,5,487,PS,exp,30,↑,up,↑,0.7194750999915414,True,11,1,0,15
Y2-S2-160K20,5,488,PS,exp,45,→,left,←,0.809302200039383,False,10,-1,1,16
Y2-S2-160K20,6,489,AS,intra_train,33,↑,up,↑,0.8458001000108197,True,25,-,-,-
Y2-S2-160K20,6,490,AS,intra_train,39,→,right,→,0.7978372999932617,True,25,-,-,-
Y2-S2-160K20,6,491,AS,intra_train,31,←,left,←,0.5504820999922231,True,25,-,-,-
Y2-S2-160K20,6,492,AS,intra_train,31,↑,up,↑,0.6754033999750391,True,25,-,-,-
Y2-S2-160K20,6,493,AS,intra_train,26,←,left,←,0.5007170999888331,True,25,-,-,-
Y2-S2-160K20,6,494,AS,exp,42,↑,down,↓,0.8823819000390358,False,17,-1,0,0
Y2-S2-160K20,6,495,AS,exp,48,→,right,→,1.044302400026936,True,18,-1,0,0
Y2-S2-160K20,6,496,AS,exp,35,←,left,←,0.6389156999648549,True,18,-1,0,0
Y2-S2-160K20,6,497,AS,exp,41,↑,up,↑,0.6116790000232868,True,18,1,1,1
Y2-S2-160K20,6,498,AS,exp,27,→,right,→,0.45584880001842976,True,17,1,0,1
Y2-S2-160K20,6,499,AS,exp,29,↑,up,↑,0.6505414000130259,True,17,1,0,1
Y2-S2-160K20,6,500,AS,exp,35,→,left,←,0.5078647999907844,False,17,-1,1,2
Y2-S2-160K20,6,501,AS,exp,25,←,right,→,0.8570022000349127,False,18,-1,0,2
Y2-S2-160K20,6,502,AS,exp,42,↑,up,↑,0.8406879000249319,True,19,-1,0,2
Y2-S2-160K20,6,503,AS,exp,49,→,right,→,0.6422167000127956,True,19,-1,0,2
Y2-S2-160K20,6,504,AS,exp,25,↓,up,↑,0.9446824000333436,False,19,-1,0,2
Y2-S2-160K20,6,505,AS,exp,25,↑,up,↑,1.0127828000113368,True,20,-1,0,2
Y2-S2-160K20,6,506,AS,exp,45,→,right,→,1.87607359996764,True,20,-1,0,2
Y2-S2-160K20,6,507,AS,exp,46,←,left,←,0.5494142000097781,True,20,1,1,3
Y2-S2-160K20,6,508,AS,exp,28,→,right,→,0.9062534000258893,True,19,1,0,3
Y2-S2-160K20,6,509,AS,exp,28,↓,right,→,1.197051300026942,False,19,-1,1,4
Y2-S2-160K20,6,510,AS,exp,47,↑,up,↑,0.5841904999688268,True,20,-1,0,4
Y2-S2-160K20,6,511,AS,exp,42,→,left,←,1.002680599980522,False,20,-1,0,4
Y2-S2-160K20,6,512,AS,exp,32,↑,up,↑,0.6032339999801479,True,21,-1,0,4
Y2-S2-160K20,6,513,AS,exp,44,←,left,←,0.5339548999909312,True,21,-1,0,4
Y2-S2-160K20,6,514,AS,exp,31,↓,down,↓,0.811408500012476,True,21,1,1,5
Y2-S2-160K20,6,515,AS,exp,30,←,left,←,1.1904876999906264,True,20,1,0,5
Y2-S2-160K20,6,516,AS,exp,28,→,right,→,0.7643438999657519,True,20,1,0,5
Y2-S2-160K20,6,517,AS,exp,43,↑,up,↑,0.9048501999932341,True,20,1,0,5
Y2-S2-160K20,6,518,AS,exp,27,←,left,←,0.6695471999701113,True,19,1,0,5
Y2-S2-160K20,6,519,AS,exp,47,↑,left,←,1.222087099973578,False,19,-1,1,6
Y2-S2-160K20,6,520,AS,exp,46,←,left,←,0.7136220000102185,True,20,-1,0,6
Y2-S2-160K20,6,521,AS,exp,42,→,right,→,0.5905265000183135,True,20,-1,0,6
Y2-S2-160K20,6,522,AS,exp,33,↑,up,↑,0.9183538999641314,True,20,1,1,7
Y2-S2-160K20,6,523,AS,exp,48,→,right,→,0.5471841000253335,True,19,1,0,7
Y2-S2-160K20,6,524,AS,exp,32,←,left,←,0.9638333999901079,True,19,1,0,7
Y2-S2-160K20,6,525,AS,exp,43,→,right,→,0.6193569999886677,True,19,1,0,7
Y2-S2-160K20,6,526,AS,exp,41,↓,down,↓,1.0643306000274606,True,18,1,0,7
Y2-S2-160K20,6,527,AS,exp,31,←,left,←,0.8748617000528611,True,18,1,0,7
Y2-S2-160K20,6,528,AS,exp,50,→,right,→,0.944584799988661,True,18,1,0,7
Y2-S2-160K20,6,529,AS,exp,39,←,right,→,0.8339196000015363,False,17,-1,1,8
Y2-S2-160K20,6,530,AS,exp,47,↑,up,↑,1.0669177999952808,True,18,-1,0,8
Y2-S2-160K20,6,531,AS,exp,28,→,left,←,0.7885823000106029,False,18,-1,0,8
Y2-S2-160K20,6,532,AS,exp,39,↓,down,↓,1.0209956000326201,True,19,-1,0,8
Y2-S2-160K20,6,533,AS,exp,47,↑,up,↑,0.5319217999931425,True,19,-1,0,8
Y2-S2-160K20,6,534,AS,exp,27,←,left,←,0.528967600024771,True,19,1,1,9
Y2-S2-160K20,6,535,AS,exp,46,↑,up,↑,0.8067348999902606,True,18,1,0,9
Y2-S2-160K20,6,536,AS,exp,41,→,left,←,0.7025812999927439,False,18,-1,1,10
Y2-S2-160K20,6,537,AS,exp,39,←,right,→,0.771573800011538,False,19,-1,0,10
Y2-S2-160K20,6,538,AS,exp,44,→,right,→,0.5341543999966234,True,20,-1,0,10
Y2-S2-160K20,6,539,AS,exp,33,↑,up,↑,0.5822332000243478,True,20,-1,0,10
Y2-S2-160K20,6,540,AS,exp,42,←,left,←,0.7982248000334948,True,20,1,1,11
Y2-S2-160K20,6,541,AS,exp,41,↑,up,↑,0.6321624999982305,True,19,1,0,11
Y2-S2-160K20,6,542,AS,exp,39,←,left,←,0.876334200031124,True,19,1,0,11
Y2-S2-160K20,6,543,AS,exp,31,→,up,↑,1.0324666000087745,False,19,-1,1,12
Y2-S2-160K20,6,544,AS,exp,50,↑,up,↑,0.6254404000355862,True,20,-1,0,12
Y2-S2-160K20,6,545,AS,exp,38,←,right,→,0.9893096999730915,False,20,-1,0,12
Y2-S2-160K20,6,546,AS,exp,38,→,left,←,1.0202420999994501,False,21,-1,0,12
Y2-S2-160K20,6,547,AS,exp,38,↑,up,↑,0.7506342999986373,True,22,-1,0,12
Y2-S2-160K20,6,548,AS,exp,41,→,right,→,0.5481746000004932,True,22,-1,0,12
Y2-S2-160K20,6,549,AS,exp,42,↓,up,↑,0.6120335999876261,False,22,-1,0,12
Y2-S2-160K20,6,550,AS,exp,43,←,left,←,1.0738052999950014,True,23,-1,0,12
Y2-S2-160K20,6,551,AS,exp,25,→,right,→,0.46701670001493767,True,23,-1,0,12
Y2-S2-160K20,6,552,AS,exp,40,↓,down,↓,0.83740720001515,True,23,1,1,13
Y2-S2-160K20,6,553,AS,exp,40,↑,no_key,no_letter,-1.0,False,22,-1,1,14
Y2-S2-160K20,6,554,AS,exp,49,←,left,←,0.8098157000495121,True,23,-1,0,14
Y2-S2-160K20,6,555,AS,exp,31,→,right,→,0.5925111999968067,True,23,-1,0,14
Y2-S2-160K20,6,556,AS,exp,32,↓,down,↓,0.6738131000311114,True,23,1,1,15
Y2-S2-160K20,6,557,AS,exp,39,←,left,←,0.5696419000159949,True,22,1,0,15
Y2-S2-160K20,6,558,AS,exp,49,↓,right,→,0.9785914000240155,False,22,-1,1,16
Y2-S2-160K20,7,559,AS,intra_train,46,→,right,→,0.8205991999711841,True,25,-,-,-
Y2-S2-160K20,7,560,AS,intra_train,45,←,left,←,0.7016888000071049,True,25,-,-,-
Y2-S2-160K20,7,561,AS,intra_train,40,↓,down,↓,1.0469294000067748,True,25,-,-,-
Y2-S2-160K20,7,562,AS,intra_train,29,←,left,←,0.858401000034064,True,25,-,-,-
Y2-S2-160K20,7,563,AS,intra_train,49,→,right,→,0.8078711999696679,True,25,-,-,-
Y2-S2-160K20,7,564,AS,exp,36,↑,up,↑,0.6305763999698684,True,17,0,0,0
Y2-S2-160K20,7,565,AS,exp,41,←,left,←,0.574710100016091,True,17,0,0,0
Y2-S2-160K20,7,566,AS,exp,32,↑,up,↑,0.5494748000055552,True,17,1,0,0
Y2-S2-160K20,7,567,AS,exp,32,←,left,←,0.5702834000112489,True,16,1,0,0
Y2-S2-160K20,7,568,AS,exp,46,↑,up,↑,0.8087331000133418,True,16,1,0,0
Y2-S2-160K20,7,569,AS,exp,36,←,left,←,0.6776214999845251,True,16,1,0,0
Y2-S2-160K20,7,570,AS,exp,47,↓,down,↓,0.6883899999666028,True,15,1,0,0
Y2-S2-160K20,7,571,AS,exp,37,↑,up,↑,0.5135189000284299,True,15,1,0,0
Y2-S2-160K20,7,572,AS,exp,40,↓,left,←,0.9565150999696925,False,15,-1,1,1
Y2-S2-160K20,7,573,AS,exp,31,←,left,←,0.5418779000174254,True,16,-1,0,1
Y2-S2-160K20,7,574,AS,exp,47,↓,down,↓,0.7459952000062913,True,16,-1,0,1
Y2-S2-160K20,7,575,AS,exp,37,→,left,←,0.9605537999887019,False,16,-1,0,1
Y2-S2-160K20,7,576,AS,exp,43,↑,down,↓,0.7629335999954492,False,17,-1,0,1
Y2-S2-160K20,7,577,AS,exp,28,↓,up,↑,0.7959326999844052,False,18,-1,0,1
Y2-S2-160K20,7,578,AS,exp,34,↑,up,↑,0.7597511999774724,True,19,-1,0,1
Y2-S2-160K20,7,579,AS,exp,47,→,left,←,0.6380482999957167,False,19,-1,0,1
Y2-S2-160K20,7,580,AS,exp,45,↓,down,↓,0.6901519999955781,True,20,-1,0,1
Y2-S2-160K20,7,581,AS,exp,28,→,down,↓,1.0281675000442192,False,20,-1,0,1
Y2-S2-160K20,7,582,AS,exp,45,↓,down,↓,0.555643700005021,True,21,-1,0,1
Y2-S2-160K20,7,583,AS,exp,40,→,right,→,0.7218716000206769,True,21,-1,0,1
Y2-S2-160K20,7,584,AS,exp,48,←,right,→,0.8650546999997459,False,21,-1,0,1
Y2-S2-160K20,7,585,AS,exp,34,→,right,→,0.5641791000380181,True,22,-1,0,1
Y2-S2-160K20,7,586,AS,exp,38,↑,up,↑,0.43417480000061914,True,22,-1,0,1
Y2-S2-160K20,7,587,AS,exp,34,↓,down,↓,0.6756345999892801,True,22,1,1,2
Y2-S2-160K20,7,588,AS,exp,47,←,left,←,0.46731849998468533,True,21,1,0,2
Y2-S2-160K20,7,589,AS,exp,27,↓,down,↓,0.7562340999720618,True,21,1,0,2
Y2-S2-160K20,7,590,AS,exp,42,↑,up,↑,0.7463010000064969,True,21,1,0,2
Y2-S2-160K20,7,591,AS,exp,26,→,left,←,0.6907630999921821,False,20,-1,1,3
Y2-S2-160K20,7,592,AS,exp,25,←,left,←,0.5307130999863148,True,21,-1,0,3
Y2-S2-160K20,7,593,AS,exp,31,↓,left,←,0.9153991999919526,False,21,-1,0,3
Y2-S2-160K20,7,594,AS,exp,41,↑,up,↑,0.724521600001026,True,22,-1,0,3
Y2-S2-160K20,7,595,AS,exp,29,↓,up,↑,0.8498744000098668,False,22,-1,0,3
Y2-S2-160K20,7,596,AS,exp,25,→,left,←,0.8989461999735795,False,23,-1,0,3
Y2-S2-160K20,7,597,AS,exp,48,←,left,←,0.7489878999767825,True,24,-1,0,3
Y2-S2-160K20,7,598,AS,exp,50,↑,up,↑,0.5338847999810241,True,24,-1,0,3
Y2-S2-160K20,7,599,AS,exp,29,←,left,←,0.6456821000319906,True,24,1,1,4
Y2-S2-160K20,7,600,AS,exp,32,↑,up,↑,0.45046279998496175,True,23,1,0,4
Y2-S2-160K20,7,601,AS,exp,31,←,left,←,0.8756947999936529,True,23,1,0,4
Y2-S2-160K20,7,602,AS,exp,37,↑,up,↑,0.7592485999921337,True,23,1,0,4
Y2-S2-160K20,7,603,AS,exp,47,←,left,←,0.7027908999589272,True,22,1,0,4
Y2-S2-160K20,7,604,AS,exp,40,→,right,→,0.9351715000229888,True,22,1,0,4
Y2-S2-160K20,7,605,AS,exp,36,↑,up,↑,0.9545049000298604,True,22,1,0,4
Y2-S2-160K20,7,606,AS,exp,43,←,left,←,0.8533141000079922,True,21,1,0,4
Y2-S2-160K20,7,607,AS,exp,48,↓,left,←,0.9468252999940887,False,21,-1,1,5
Y2-S2-160K20,7,608,AS,exp,31,↑,up,↑,0.7865081999916583,True,22,-1,0,5
Y2-S2-160K20,7,609,AS,exp,28,←,left,←,0.5473316999850795,True,22,-1,0,5
Y2-S2-160K20,7,610,AS,exp,38,↓,down,↓,0.889852799999062,True,22,1,1,6
Y2-S2-160K20,7,611,AS,exp,46,→,right,→,0.4502917999634519,True,21,1,0,6
Y2-S2-160K20,7,612,AS,exp,50,↑,up,↑,0.7982967999996617,True,21,1,0,6
Y2-S2-160K20,7,613,AS,exp,28,←,left,←,0.7647357000387274,True,21,1,0,6
Y2-S2-160K20,7,614,AS,exp,38,→,right,→,0.7874217999633402,True,20,1,0,6
Y2-S2-160K20,7,615,AS,exp,40,↑,up,↑,0.8415584999602288,True,20,1,0,6
Y2-S2-160K20,7,616,AS,exp,26,→,down,↓,1.0799088000203483,False,20,-1,1,7
Y2-S2-160K20,7,617,AS,exp,27,↓,left,←,0.9868453000090085,False,21,-1,0,7
Y2-S2-160K20,7,618,AS,exp,31,→,right,→,1.503385399992112,True,22,-1,0,7
Y2-S2-160K20,7,619,AS,exp,39,←,left,←,0.6469510000315495,True,22,-1,0,7
Y2-S2-160K20,7,620,AS,exp,44,→,right,→,1.6038109000073746,True,22,1,1,8
Y2-S2-160K20,7,621,AS,exp,36,←,left,←,0.5828239999827929,True,21,1,0,8
Y2-S2-160K20,7,622,AS,exp,50,↓,down,↓,0.6647633999818936,True,21,1,0,8
Y2-S2-160K20,7,623,AS,exp,27,↑,down,↓,1.0847396000172012,False,21,-1,1,9
Y2-S2-160K20,7,624,AS,exp,42,←,left,←,0.7559062000364065,True,22,-1,0,9
Y2-S2-160K20,7,625,AS,exp,48,↓,down,↓,0.7309193000546657,True,22,-1,0,9
Y2-S2-160K20,7,626,AS,exp,29,↑,up,↑,1.2290814999723807,True,22,1,1,10
Y2-S2-160K20,7,627,AS,exp,46,→,right,→,0.5516789999674074,True,21,1,0,10
Y2-S2-160K20,7,628,AS,exp,36,↑,up,↑,0.7066770000383258,True,21,1,0,10
Y2-S2-160K20,7,629,AS,exp,38,←,left,←,0.5395949999801815,True,21,1,0,10
Y2-S2-160K20,7,630,AS,exp,47,→,right,→,0.886904799961485,True,20,1,0,10
Y2-S2-160K20,7,631,AS,exp,47,↑,up,↑,0.9871114999987185,True,20,1,0,10
Y2-S2-160K20,7,632,AS,exp,48,↓,down,↓,0.7006691999849863,True,20,1,0,10
Y2-S2-160K20,7,633,AS,exp,45,→,left,←,0.8623685999773443,False,19,-1,1,11
Y2-S2-160K20,7,634,AS,exp,50,↓,up,↑,0.9027364000212401,False,20,-1,0,11
Y2-S2-160K20,7,635,AS,exp,27,↑,up,↑,1.0119583000196144,True,21,-1,0,11
Y2-S2-160K20,7,636,AS,exp,32,→,right,→,0.8770830999710597,True,21,-1,0,11
Y2-S2-160K20,7,637,AS,exp,45,↑,down,↓,0.9941665999940597,False,21,-1,0,11
Y2-S2-160K20,7,638,AS,exp,40,←,left,←,0.7723979000002146,True,22,-1,0,11
Y2-S2-160K20,7,639,AS,exp,34,↓,down,↓,0.6603165999986231,True,22,-1,0,11
Y2-S2-160K20,7,640,AS,exp,35,→,right,→,0.6032405999721959,True,22,1,1,12
Y2-S2-160K20,7,641,AS,exp,46,↓,down,↓,1.5088961999863386,True,21,1,0,12
Y2-S2-160K20,7,642,AS,exp,38,→,right,→,0.9808349999948405,True,21,1,0,12
Y2-S2-160K20,7,643,AS,exp,48,←,left,←,0.5557646999950521,True,21,1,0,12
Y2-S2-160K20,7,644,AS,exp,30,→,left,←,0.6790086000110023,False,20,-1,1,13
Y2-S2-160K20,7,645,AS,exp,26,←,left,←,0.565282900002785,True,21,-1,0,13
Y2-S2-160K20,7,646,AS,exp,48,↓,down,↓,1.1563083999790251,True,21,-1,0,13
Y2-S2-160K20,7,647,AS,exp,38,↑,right,→,0.7413918999955058,False,21,-1,0,13
Y2-S2-160K20,7,648,AS,exp,39,→,left,←,0.5399790999945253,False,22,-1,0,13
Y2-S2-160K20,7,649,AS,exp,50,↑,up,↑,0.8375514000072144,True,23,-1,0,13
Y2-S2-160K20,7,650,AS,exp,27,←,left,←,0.5171433999785222,True,23,-1,0,13
Y2-S2-160K20,7,651,AS,exp,34,↑,right,→,0.4003587000188418,False,23,-1,0,13
Y2-S2-160K20,7,652,AS,exp,41,↓,down,↓,0.9259404999902472,True,24,-1,0,13
Y2-S2-160K20,7,653,AS,exp,32,→,right,→,0.6259759999811649,True,24,-1,0,13
Y2-S2-160K20,7,654,AS,exp,31,←,left,←,0.6375291000003926,True,24,1,1,14
Y2-S2-160K20,7,655,AS,exp,47,→,right,→,0.7917951999697834,True,23,1,0,14
Y2-S2-160K20,7,656,AS,exp,38,←,left,←,0.5864177999901585,True,23,1,0,14
Y2-S2-160K20,7,657,AS,exp,49,→,right,→,0.5533898000139743,True,23,1,0,14
Y2-S2-160K20,7,658,AS,exp,36,←,left,←,0.6000339000020176,True,22,1,0,14
Y2-S2-160K20,7,659,AS,exp,28,↓,up,↑,0.9084809999912977,False,22,-1,1,15
Y2-S2-160K20,7,660,AS,exp,40,→,right,→,0.43379030004143715,True,23,-1,0,15
Y2-S2-160K20,7,661,AS,exp,31,←,left,←,0.6412297000060789,True,23,-1,0,15
Y2-S2-160K20,7,662,AS,exp,46,↑,down,↓,0.8861822999897413,False,23,-1,0,15
Y2-S2-160K20,7,663,AS,exp,43,↓,down,↓,0.6660407000454143,True,24,-1,0,15
Y2-S2-160K20,7,664,AS,exp,50,→,right,→,1.5337840000283904,True,24,-1,0,15
Y2-S2-160K20,7,665,AS,exp,32,↑,up,↑,0.7610185999656096,True,24,1,1,16
Y2-S2-160K20,8,666,PS,intra_train,46,↓,down,↓,0.6739426999702118,True,15,-,-,-
Y2-S2-160K20,8,667,PS,intra_train,25,←,left,←,0.4796242999727838,True,15,-,-,-
Y2-S2-160K20,8,668,PS,intra_train,31,↑,left,←,0.996962099976372,False,15,-,-,-
Y2-S2-160K20,8,669,PS,intra_train,47,→,right,→,0.5465631000115536,True,15,-,-,-
Y2-S2-160K20,8,670,PS,intra_train,26,↓,up,↑,1.1462700000265613,False,15,-,-,-
Y2-S2-160K20,8,671,PS,exp,34,→,right,→,0.9920895000104792,True,10,0,0,0
Y2-S2-160K20,8,672,PS,exp,26,←,left,←,0.791951599996537,True,10,0,0,0
Y2-S2-160K20,8,673,PS,exp,50,→,right,→,0.5515103999641724,True,10,1,0,0
Y2-S2-160K20,8,674,PS,exp,44,↑,up,↑,0.6144590000039898,True,9,1,0,0
Y2-S2-160K20,8,675,PS,exp,45,←,up,↑,1.26613390003331,False,9,-1,1,1
Y2-S2-160K20,8,676,PS,exp,39,↑,up,↑,0.6787715000100434,True,10,-1,0,1
Y2-S2-160K20,8,677,PS,exp,46,←,left,←,0.6794790999847464,True,10,-1,0,1
Y2-S2-160K20,8,678,PS,exp,46,↓,down,↓,0.9925663999747485,True,10,1,1,2
Y2-S2-160K20,8,679,PS,exp,44,↑,up,↑,0.6878687999560498,True,9,1,0,2
Y2-S2-160K20,8,680,PS,exp,44,→,right,→,0.46890509995864704,True,9,1,0,2
Y2-S2-160K20,8,681,PS,exp,26,↓,down,↓,0.7183518999954686,True,9,1,0,2
Y2-S2-160K20,8,682,PS,exp,37,↑,up,↑,0.6337071000016294,True,8,1,0,2
Y2-S2-160K20,8,683,PS,exp,33,←,left,←,0.44565499998861924,True,8,1,0,2
Y2-S2-160K20,8,684,PS,exp,49,↓,left,←,0.9514160000253469,False,8,-1,1,3
Y2-S2-160K20,8,685,PS,exp,28,↑,up,↑,0.4907397000351921,True,9,-1,0,3
Y2-S2-160K20,8,686,PS,exp,39,↓,down,↓,0.5392505000345409,True,9,-1,0,3
Y2-S2-160K20,8,687,PS,exp,30,↑,up,↑,0.6577158999862149,True,9,1,1,4
Y2-S2-160K20,8,688,PS,exp,39,←,left,←,0.6210920000448823,True,8,1,0,4
Y2-S2-160K20,8,689,PS,exp,35,↑,up,↑,0.48385340004460886,True,8,1,0,4
Y2-S2-160K20,8,690,PS,exp,45,↓,left,←,0.5808642000192776,False,8,-1,1,5
Y2-S2-160K20,8,691,PS,exp,39,↑,up,↑,0.5358071000082418,True,9,-1,0,5
Y2-S2-160K20,8,692,PS,exp,37,←,left,←,0.46755770000163466,True,9,-1,0,5
Y2-S2-160K20,8,693,PS,exp,25,↑,up,↑,0.4563422999926843,True,9,1,1,6
Y2-S2-160K20,8,694,PS,exp,46,→,right,→,0.5509592000162229,True,8,1,0,6
Y2-S2-160K20,8,695,PS,exp,50,↑,left,←,0.41821119998348877,False,8,-1,1,7
Y2-S2-160K20,8,696,PS,exp,41,→,right,→,0.4749644999974407,True,9,-1,0,7
Y2-S2-160K20,8,697,PS,exp,36,↓,down,↓,0.729368100001011,True,9,-1,0,7
Y2-S2-160K20,8,698,PS,exp,43,←,up,↑,0.6861906999838538,False,9,-1,0,7
Y2-S2-160K20,8,699,PS,exp,43,↓,down,↓,0.6956330999964848,True,10,-1,0,7
Y2-S2-160K20,8,700,PS,exp,42,→,right,→,0.7061593999969773,True,10,-1,0,7
Y2-S2-160K20,8,701,PS,exp,35,↓,left,←,0.9810918000293896,False,10,-1,0,7
Y2-S2-160K20,8,702,PS,exp,50,→,right,→,0.6548609999590553,True,11,-1,0,7
Y2-S2-160K20,8,703,PS,exp,50,↓,down,↓,0.6427901000133716,True,11,-1,0,7
Y2-S2-160K20,8,704,PS,exp,30,↑,left,←,0.7168502999702469,False,11,-1,0,7
Y2-S2-160K20,8,705,PS,exp,47,←,left,←,0.64098569995258,True,12,-1,0,7
Y2-S2-160K20,8,706,PS,exp,30,↓,right,→,0.9346113999490626,False,12,-1,0,7
Y2-S2-160K20,8,707,PS,exp,34,↑,up,↑,0.6987201999872923,True,13,-1,0,7
Y2-S2-160K20,8,708,PS,exp,29,→,right,→,0.6938491000328213,True,13,-1,0,7
Y2-S2-160K20,8,709,PS,exp,26,←,left,←,0.6029111999669112,True,13,1,1,8
Y2-S2-160K20,8,710,PS,exp,37,→,right,→,0.6191328000277281,True,12,1,0,8
Y2-S2-160K20,8,711,PS,exp,48,←,left,←,0.6452162999776192,True,12,1,0,8
Y2-S2-160K20,8,712,PS,exp,48,↓,down,↓,0.6509091000189073,True,12,1,0,8
Y2-S2-160K20,8,713,PS,exp,36,↑,up,↑,0.6132928000297397,True,11,1,0,8
Y2-S2-160K20,8,714,PS,exp,50,←,left,←,0.5804644000018016,True,11,1,0,8
Y2-S2-160K20,8,715,PS,exp,50,→,left,←,1.4858634000411257,False,11,-1,1,9
Y2-S2-160K20,8,716,PS,exp,41,↓,up,↑,0.6088987999828532,False,12,-1,0,9
Y2-S2-160K20,8,717,PS,exp,47,→,right,→,0.6321204000269063,True,13,-1,0,9
Y2-S2-160K20,8,718,PS,exp,29,↓,down,↓,0.6522060999996029,True,13,-1,0,9
Y2-S2-160K20,8,719,PS,exp,47,↑,up,↑,0.5431178000289947,True,13,1,1,10
Y2-S2-160K20,8,720,PS,exp,27,←,left,←,0.5704247999819927,True,12,1,0,10
Y2-S2-160K20,8,721,PS,exp,36,→,right,→,0.8111586000304669,True,12,1,0,10
Y2-S2-160K20,8,722,PS,exp,35,←,left,←,1.145301400043536,True,12,1,0,10
Y2-S2-160K20,8,723,PS,exp,38,↓,down,↓,0.7302968000294641,True,11,1,0,10
Y2-S2-160K20,8,724,PS,exp,48,←,left,←,0.6180216999491677,True,11,1,0,10
Y2-S2-160K20,8,725,PS,exp,45,→,right,→,0.5217868000036106,True,11,1,0,10
Y2-S2-160K20,8,726,PS,exp,39,↓,right,→,0.7378792999661528,False,10,-1,1,11
Y2-S2-160K20,8,727,PS,exp,30,↑,down,↓,1.501600600022357,False,11,-1,0,11
Y2-S2-160K20,8,728,PS,exp,47,→,right,→,0.5546767000341788,True,12,-1,0,11
Y2-S2-160K20,8,729,PS,exp,43,↑,up,↑,0.6185994999832474,True,12,-1,0,11
Y2-S2-160K20,8,730,PS,exp,39,↓,down,↓,0.6976359999971464,True,12,1,1,12
Y2-S2-160K20,8,731,PS,exp,33,↑,up,↑,0.5741433000075631,True,11,1,0,12
Y2-S2-160K20,8,732,PS,exp,38,→,right,→,0.5087640999699943,True,11,1,0,12
Y2-S2-160K20,8,733,PS,exp,39,←,right,→,0.8962729999911971,False,11,-1,1,13
Y2-S2-160K20,8,734,PS,exp,32,↑,up,↑,0.7352355999755673,True,12,-1,0,13
Y2-S2-160K20,8,735,PS,exp,39,←,left,←,0.6932957000099123,True,12,-1,0,13
Y2-S2-160K20,8,736,PS,exp,42,→,right,→,0.47565490001579747,True,12,1,1,14
Y2-S2-160K20,8,737,PS,exp,39,←,left,←,0.7795241000130773,True,11,1,0,14
Y2-S2-160K20,8,738,PS,exp,29,↑,left,←,0.7481674000155181,False,11,-1,1,15
Y2-S2-160K20,8,739,PS,exp,25,→,right,→,0.5526039999676868,True,12,-1,0,15
Y2-S2-160K20,8,740,PS,exp,25,←,left,←,0.5519683000165969,True,12,-1,0,15
Y2-S2-160K20,8,741,PS,exp,36,→,right,→,0.5099307000054978,True,12,1,1,16
