PART_ID,Block_no,Trial_no,Block_type,Trial_type,CSI,Stim_letter,Key_pressed,letter_choose,Rt,Corr,Stimulus Time,Level,Reversal,Revs_count
Y2-S2-211M23,1,1,PS,train,45,←,left,←,1.4875300000421703,True,30,-,-,-
Y2-S2-211M23,1,2,PS,train,50,↑,up,↑,0.6913482999661937,True,30,-,-,-
Y2-S2-211M23,1,3,PS,train,50,↓,down,↓,0.8434799000388011,True,30,-,-,-
Y2-S2-211M23,1,4,PS,train,33,→,right,→,0.6903780999127775,True,30,-,-,-
Y2-S2-211M23,1,5,PS,train,35,↑,up,↑,0.6765908999368548,True,30,-,-,-
Y2-S2-211M23,1,6,PS,train,48,↓,down,↓,2.1670185000402853,True,30,-,-,-
Y2-S2-211M23,1,7,PS,train,43,←,left,←,0.9199724999489263,True,30,-,-,-
Y2-S2-211M23,1,8,PS,train,31,→,right,→,0.6172099999384955,True,30,-,-,-
Y2-S2-211M23,1,9,PS,train,39,↑,up,↑,0.5337956000585109,True,30,-,-,-
Y2-S2-211M23,1,10,PS,train,35,↓,down,↓,0.6798189000692219,True,30,-,-,-
Y2-S2-211M23,2,11,AS,train,45,↑,up,↑,0.6179781999671832,True,45,-,-,-
Y2-S2-211M23,2,12,AS,train,33,↓,down,↓,0.7840169999981299,True,45,-,-,-
Y2-S2-211M23,2,13,AS,train,36,↑,up,↑,0.6011324999853969,True,45,-,-,-
Y2-S2-211M23,2,14,AS,train,37,↓,down,↓,0.567710499977693,True,45,-,-,-
Y2-S2-211M23,2,15,AS,train,41,→,right,→,0.6676271000178531,True,45,-,-,-
Y2-S2-211M23,2,16,AS,train,35,↑,up,↑,0.6844107999932021,True,45,-,-,-
Y2-S2-211M23,2,17,AS,train,30,↓,up,↑,0.567759900004603,False,45,-,-,-
Y2-S2-211M23,2,18,AS,train,26,←,left,←,0.667717200005427,True,45,-,-,-
Y2-S2-211M23,2,19,AS,train,38,→,right,→,0.601301799993962,True,45,-,-,-
Y2-S2-211M23,2,20,AS,train,31,↑,up,↑,0.7504843999631703,True,45,-,-,-
Y2-S2-211M23,-,21,PS,adaptive,46,→,right,→,1.5511879000114277,True,10,0,0,0
Y2-S2-211M23,-,22,PS,adaptive,34,↓,down,↓,0.6886754999868572,True,10,0,0,0
Y2-S2-211M23,-,23,PS,adaptive,39,→,right,→,0.865212699980475,True,10,1,0,0
Y2-S2-211M23,-,24,PS,adaptive,25,←,left,←,0.6402795000467449,True,9,1,0,0
Y2-S2-211M23,-,25,PS,adaptive,38,↓,down,↓,0.6142468000762165,True,9,1,0,0
Y2-S2-211M23,-,26,PS,adaptive,28,↑,up,↑,0.628762700012885,True,9,1,0,0
Y2-S2-211M23,-,27,PS,adaptive,27,←,left,←,0.5778357000090182,True,8,1,0,0
Y2-S2-211M23,-,28,PS,adaptive,30,↓,down,↓,0.657744999974966,True,8,1,0,0
Y2-S2-211M23,-,29,PS,adaptive,29,→,right,→,0.8330041000153869,True,8,1,0,0
Y2-S2-211M23,-,30,PS,adaptive,48,←,left,←,1.3015890999231488,True,7,1,0,0
Y2-S2-211M23,-,31,PS,adaptive,42,↑,up,↑,1.1297141999239102,True,7,1,0,0
Y2-S2-211M23,-,32,PS,adaptive,42,↓,down,↓,0.6265512000536546,True,7,1,0,0
Y2-S2-211M23,-,33,PS,adaptive,49,←,left,←,1.0237644999288023,True,6,1,0,0
Y2-S2-211M23,-,34,PS,adaptive,37,↑,up,↑,0.6425147999543697,True,6,1,0,0
Y2-S2-211M23,-,35,PS,adaptive,50,→,right,→,1.1456892000278458,True,6,1,0,0
Y2-S2-211M23,-,36,PS,adaptive,42,↓,down,↓,0.7786020999774337,True,5,1,0,0
Y2-S2-211M23,-,37,PS,adaptive,32,→,right,→,0.6248664000304416,True,5,1,0,0
Y2-S2-211M23,-,38,PS,adaptive,40,↑,up,↑,0.7832556000212207,True,5,1,0,0
Y2-S2-211M23,-,39,PS,adaptive,37,←,left,←,0.6874030999606475,True,4,1,0,0
Y2-S2-211M23,-,40,PS,adaptive,49,↓,down,↓,0.6475830000126734,True,4,1,0,0
Y2-S2-211M23,-,41,PS,adaptive,42,←,right,→,0.5516084999544546,False,4,-1,1,1
Y2-S2-211M23,-,42,PS,adaptive,33,→,left,←,0.8572363000130281,False,5,-1,0,1
Y2-S2-211M23,-,43,PS,adaptive,45,↓,down,↓,0.85057060001418,True,6,-1,0,1
Y2-S2-211M23,-,44,PS,adaptive,25,↑,down,↓,0.8898192000342533,False,6,-1,0,1
Y2-S2-211M23,-,45,PS,adaptive,49,→,right,→,0.6046809999970719,True,7,-1,0,1
Y2-S2-211M23,-,46,PS,adaptive,25,↑,up,↑,0.6496991000603884,True,7,-1,0,1
Y2-S2-211M23,-,47,PS,adaptive,30,←,left,←,0.536014899960719,True,7,1,1,2
Y2-S2-211M23,-,48,PS,adaptive,50,→,right,→,0.49523839994799346,True,6,1,0,2
Y2-S2-211M23,-,49,PS,adaptive,35,←,left,←,1.1303033999865875,True,6,1,0,2
Y2-S2-211M23,-,50,PS,adaptive,44,↓,down,↓,0.7139544000383466,True,6,1,0,2
Y2-S2-211M23,-,51,PS,adaptive,37,↑,up,↑,0.658491599955596,True,5,1,0,2
Y2-S2-211M23,-,52,PS,adaptive,27,←,left,←,0.5781303999247029,True,5,1,0,2
Y2-S2-211M23,-,53,PS,adaptive,27,→,right,→,0.5177991999080405,True,5,1,0,2
Y2-S2-211M23,-,54,PS,adaptive,41,↓,down,↓,0.7232736999867484,True,4,1,0,2
Y2-S2-211M23,-,55,PS,adaptive,29,↑,up,↑,0.6005979999899864,True,4,1,0,2
Y2-S2-211M23,-,56,PS,adaptive,38,↓,right,→,0.6353670000098646,False,4,-1,1,3
Y2-S2-211M23,-,57,PS,adaptive,38,↑,up,↑,0.5604522000066936,True,5,-1,0,3
Y2-S2-211M23,-,58,PS,adaptive,28,↓,down,↓,0.6598299999022856,True,5,-1,0,3
Y2-S2-211M23,-,59,PS,adaptive,40,←,right,→,0.584567500045523,False,5,-1,0,3
Y2-S2-211M23,-,60,PS,adaptive,34,→,right,→,0.5715037999907508,True,6,-1,0,3
Y2-S2-211M23,-,61,PS,adaptive,48,←,left,←,0.5539148000534624,True,6,-1,0,3
Y2-S2-211M23,-,62,PS,adaptive,25,↑,up,↑,0.6541616999311373,True,6,1,1,4
Y2-S2-211M23,-,63,AS,adaptive,49,←,up,↑,1.7033059999812394,False,20,-1,0,0
Y2-S2-211M23,-,64,AS,adaptive,38,↓,down,↓,0.8122791000641882,True,21,-1,0,0
Y2-S2-211M23,-,65,AS,adaptive,45,←,left,←,0.6488342999946326,True,21,-1,0,0
Y2-S2-211M23,-,66,AS,adaptive,29,↑,up,↑,0.6023854999803007,True,21,1,1,1
Y2-S2-211M23,-,67,AS,adaptive,29,←,left,←,0.641227800049819,True,20,1,0,1
Y2-S2-211M23,-,68,AS,adaptive,29,↓,down,↓,0.6214742000447586,True,20,1,0,1
Y2-S2-211M23,-,69,AS,adaptive,25,→,right,→,0.5253553000511602,True,20,1,0,1
Y2-S2-211M23,-,70,AS,adaptive,29,←,left,←,0.6543938999529928,True,19,1,0,1
Y2-S2-211M23,-,71,AS,adaptive,33,↑,up,↑,0.7448752000927925,True,19,1,0,1
Y2-S2-211M23,-,72,AS,adaptive,38,←,left,←,0.6511860000900924,True,19,1,0,1
Y2-S2-211M23,-,73,AS,adaptive,41,↑,up,↑,0.6044901000568643,True,18,1,0,1
Y2-S2-211M23,-,74,AS,adaptive,29,←,left,←,0.7019760999828577,True,18,1,0,1
Y2-S2-211M23,-,75,AS,adaptive,25,→,right,→,0.5633389999857172,True,18,1,0,1
Y2-S2-211M23,-,76,AS,adaptive,28,↑,up,↑,0.5438223000383005,True,17,1,0,1
Y2-S2-211M23,-,77,AS,adaptive,45,←,left,←,0.5956971000414342,True,17,1,0,1
Y2-S2-211M23,-,78,AS,adaptive,42,↓,down,↓,0.5484382000286132,True,17,1,0,1
Y2-S2-211M23,-,79,AS,adaptive,33,←,left,←,0.6577743000816554,True,16,1,0,1
Y2-S2-211M23,-,80,AS,adaptive,44,→,right,→,0.47162199998274446,True,16,1,0,1
Y2-S2-211M23,-,81,AS,adaptive,30,←,up,↑,1.144270300050266,False,16,-1,1,2
Y2-S2-211M23,-,82,AS,adaptive,41,→,right,→,0.5184493999695405,True,17,-1,0,2
Y2-S2-211M23,-,83,AS,adaptive,44,↓,down,↓,0.622087600058876,True,17,-1,0,2
Y2-S2-211M23,-,84,AS,adaptive,26,↑,up,↑,0.8732108999975026,True,17,1,1,3
Y2-S2-211M23,-,85,AS,adaptive,38,↓,down,↓,0.6473725999239832,True,16,1,0,3
Y2-S2-211M23,-,86,AS,adaptive,36,↑,up,↑,0.6800887999124825,True,16,1,0,3
Y2-S2-211M23,-,87,AS,adaptive,44,↓,down,↓,0.6179842000128701,True,16,1,0,3
Y2-S2-211M23,-,88,AS,adaptive,38,↑,up,↑,0.5556551999179646,True,15,1,0,3
Y2-S2-211M23,-,89,AS,adaptive,41,→,down,↓,0.8067572999279946,False,15,-1,1,4
Y2-S2-211M23,1,90,AS,intra_train,27,↓,down,↓,0.7619145000353456,True,24,-,-,-
Y2-S2-211M23,1,91,AS,intra_train,33,↑,up,↑,1.642154200002551,True,24,-,-,-
Y2-S2-211M23,1,92,AS,intra_train,50,→,right,→,0.48390390002168715,True,24,-,-,-
Y2-S2-211M23,1,93,AS,intra_train,46,↓,down,↓,0.7857873999746516,True,24,-,-,-
Y2-S2-211M23,1,94,AS,intra_train,27,→,right,→,0.666182899964042,True,24,-,-,-
Y2-S2-211M23,1,95,AS,exp,26,↓,down,↓,0.6867551999166608,True,16,0,0,0
Y2-S2-211M23,1,96,AS,exp,47,↑,up,↑,0.5796949000796303,True,16,0,0,0
Y2-S2-211M23,1,97,AS,exp,40,↓,down,↓,0.4902791000204161,True,16,1,0,0
Y2-S2-211M23,1,98,AS,exp,48,↑,up,↑,0.5905987999867648,True,15,1,0,0
Y2-S2-211M23,1,99,AS,exp,50,↓,down,↓,1.4526640999829397,True,15,1,0,0
Y2-S2-211M23,1,100,AS,exp,47,←,left,←,0.5745134999742731,True,15,1,0,0
Y2-S2-211M23,1,101,AS,exp,29,→,right,→,0.4965675000566989,True,14,1,0,0
Y2-S2-211M23,1,102,AS,exp,48,↓,down,↓,0.51593110000249,True,14,1,0,0
Y2-S2-211M23,1,103,AS,exp,38,←,left,←,0.7608437000308186,True,14,1,0,0
Y2-S2-211M23,1,104,AS,exp,37,→,right,→,0.5292974000331014,True,13,1,0,0
Y2-S2-211M23,1,105,AS,exp,33,↑,left,←,1.6158715999918059,False,13,-1,1,1
Y2-S2-211M23,1,106,AS,exp,28,↓,down,↓,0.6202112999744713,True,14,-1,0,1
Y2-S2-211M23,1,107,AS,exp,30,←,left,←,0.5792407999979332,True,14,-1,0,1
Y2-S2-211M23,1,108,AS,exp,29,↓,up,↑,1.7448671999154612,False,14,-1,0,1
Y2-S2-211M23,1,109,AS,exp,25,↑,up,↑,0.8760216999799013,True,15,-1,0,1
Y2-S2-211M23,1,110,AS,exp,48,↓,down,↓,0.6117680999450386,True,15,-1,0,1
Y2-S2-211M23,1,111,AS,exp,44,→,left,←,0.9435721000190824,False,15,-1,0,1
Y2-S2-211M23,1,112,AS,exp,29,↓,down,↓,0.5601040000328794,True,16,-1,0,1
Y2-S2-211M23,1,113,AS,exp,28,←,left,←,0.7225883000064641,True,16,-1,0,1
Y2-S2-211M23,1,114,AS,exp,31,↑,up,↑,0.6294111999450251,True,16,1,1,2
Y2-S2-211M23,1,115,AS,exp,25,↓,down,↓,0.7158791000256315,True,15,1,0,2
Y2-S2-211M23,1,116,AS,exp,38,→,right,→,0.5173759999452159,True,15,1,0,2
Y2-S2-211M23,1,117,AS,exp,36,↓,down,↓,0.6502771000377834,True,15,1,0,2
Y2-S2-211M23,1,118,AS,exp,43,→,left,←,0.7612232000101358,False,14,-1,1,3
Y2-S2-211M23,1,119,AS,exp,27,↑,up,↑,0.6302334999199957,True,15,-1,0,3
Y2-S2-211M23,1,120,AS,exp,35,→,right,→,0.4445856000529602,True,15,-1,0,3
Y2-S2-211M23,1,121,AS,exp,41,↑,down,↓,1.0636939000105485,False,15,-1,0,3
Y2-S2-211M23,1,122,AS,exp,41,←,left,←,0.7200314999790862,True,16,-1,0,3
Y2-S2-211M23,1,123,AS,exp,37,↑,up,↑,0.4436177999014035,True,16,-1,0,3
Y2-S2-211M23,1,124,AS,exp,48,→,right,→,0.6643938000779599,True,16,1,1,4
Y2-S2-211M23,1,125,AS,exp,28,↑,up,↑,1.2471865999978036,True,15,1,0,4
Y2-S2-211M23,1,126,AS,exp,38,←,up,↑,1.2369946000399068,False,15,-1,1,5
Y2-S2-211M23,1,127,AS,exp,48,↑,up,↑,0.45469230005983263,True,16,-1,0,5
Y2-S2-211M23,1,128,AS,exp,37,→,right,→,0.6258274000138044,True,16,-1,0,5
Y2-S2-211M23,1,129,AS,exp,50,↑,up,↑,0.48864389990922064,True,16,1,1,6
Y2-S2-211M23,1,130,AS,exp,38,→,right,→,0.8328677000245079,True,15,1,0,6
Y2-S2-211M23,1,131,AS,exp,28,←,left,←,0.9135380999650806,True,15,1,0,6
Y2-S2-211M23,1,132,AS,exp,50,→,right,→,0.6872712000040337,True,15,1,0,6
Y2-S2-211M23,1,133,AS,exp,38,←,right,→,0.8611562000587583,False,14,-1,1,7
Y2-S2-211M23,1,134,AS,exp,39,→,right,→,0.8812802999746054,True,15,-1,0,7
Y2-S2-211M23,1,135,AS,exp,41,↑,up,↑,0.6036006000358611,True,15,-1,0,7
Y2-S2-211M23,1,136,AS,exp,31,→,right,→,0.9176269000163302,True,15,1,1,8
Y2-S2-211M23,1,137,AS,exp,48,↓,up,↑,0.5298942999215797,False,14,-1,1,9
Y2-S2-211M23,1,138,AS,exp,45,→,right,→,0.7113227000227198,True,15,-1,0,9
Y2-S2-211M23,1,139,AS,exp,45,←,left,←,0.5434906999580562,True,15,-1,0,9
Y2-S2-211M23,1,140,AS,exp,47,→,right,→,0.5841744999634102,True,15,1,1,10
Y2-S2-211M23,1,141,AS,exp,47,↑,up,↑,0.6026417999528348,True,14,1,0,10
Y2-S2-211M23,1,142,AS,exp,48,←,left,←,0.6071353000588715,True,14,1,0,10
Y2-S2-211M23,1,143,AS,exp,43,↓,down,↓,0.588928599958308,True,14,1,0,10
Y2-S2-211M23,1,144,AS,exp,34,←,left,←,0.5879051999654621,True,13,1,0,10
Y2-S2-211M23,1,145,AS,exp,28,↓,down,↓,0.5087868999689817,True,13,1,0,10
Y2-S2-211M23,1,146,AS,exp,29,→,right,→,0.9846969000063837,True,13,1,0,10
Y2-S2-211M23,1,147,AS,exp,32,↑,up,↑,0.6661311000352725,True,12,1,0,10
Y2-S2-211M23,1,148,AS,exp,27,→,right,→,0.6066862000152469,True,12,1,0,10
Y2-S2-211M23,1,149,AS,exp,35,←,down,↓,0.7239104000618681,False,12,-1,1,11
Y2-S2-211M23,1,150,AS,exp,35,↑,down,↓,1.2242866999004036,False,13,-1,0,11
Y2-S2-211M23,1,151,AS,exp,36,→,right,→,0.49501600000075996,True,14,-1,0,11
Y2-S2-211M23,1,152,AS,exp,33,←,up,↑,1.5957046000985429,False,14,-1,0,11
Y2-S2-211M23,1,153,AS,exp,30,↑,right,→,1.3857223000377417,False,15,-1,0,11
Y2-S2-211M23,1,154,AS,exp,48,↓,down,↓,0.6327955999877304,True,16,-1,0,11
Y2-S2-211M23,1,155,AS,exp,28,↑,up,↑,0.5845917999977246,True,16,-1,0,11
Y2-S2-211M23,1,156,AS,exp,36,↓,down,↓,0.5633600999135524,True,16,1,1,12
Y2-S2-211M23,1,157,AS,exp,47,→,right,→,0.6967458999715745,True,15,1,0,12
Y2-S2-211M23,1,158,AS,exp,34,↑,right,→,0.8231416000053287,False,15,-1,1,13
Y2-S2-211M23,1,159,AS,exp,39,↓,down,↓,0.5336923999711871,True,16,-1,0,13
Y2-S2-211M23,1,160,AS,exp,42,←,left,←,0.6727967000333592,True,16,-1,0,13
Y2-S2-211M23,1,161,AS,exp,36,↓,right,→,1.144599400111474,False,16,-1,0,13
Y2-S2-211M23,1,162,AS,exp,30,↑,up,↑,0.7479923999635503,True,17,-1,0,13
Y2-S2-211M23,1,163,AS,exp,25,→,right,→,0.5941216999199241,True,17,-1,0,13
Y2-S2-211M23,1,164,AS,exp,43,↓,down,↓,0.5303207000251859,True,17,1,1,14
Y2-S2-211M23,1,165,AS,exp,38,→,right,→,0.5277834000298753,True,16,1,0,14
Y2-S2-211M23,1,166,AS,exp,42,↓,down,↓,0.45200580009259284,True,16,1,0,14
Y2-S2-211M23,1,167,AS,exp,29,↑,up,↑,1.645891199936159,True,16,1,0,14
Y2-S2-211M23,1,168,AS,exp,28,→,right,→,0.6606133999302983,True,15,1,0,14
Y2-S2-211M23,1,169,AS,exp,31,↑,up,↑,0.6599403999280185,True,15,1,0,14
Y2-S2-211M23,1,170,AS,exp,41,→,right,→,0.4712271000025794,True,15,1,0,14
Y2-S2-211M23,1,171,AS,exp,33,←,left,←,0.5241813999600708,True,14,1,0,14
Y2-S2-211M23,1,172,AS,exp,29,↓,down,↓,0.5027875000378117,True,14,1,0,14
Y2-S2-211M23,1,173,AS,exp,44,←,left,←,0.47478940000291914,True,14,1,0,14
Y2-S2-211M23,1,174,AS,exp,31,→,right,→,0.6758060000138357,True,13,1,0,14
Y2-S2-211M23,1,175,AS,exp,48,←,left,←,0.5078871001023799,True,13,1,0,14
Y2-S2-211M23,1,176,AS,exp,46,↓,right,→,1.01435119996313,False,13,-1,1,15
Y2-S2-211M23,1,177,AS,exp,50,→,right,→,0.5381242000730708,True,14,-1,0,15
Y2-S2-211M23,1,178,AS,exp,27,←,left,←,0.4828442999860272,True,14,-1,0,15
Y2-S2-211M23,1,179,AS,exp,46,↑,right,→,0.9695541999535635,False,14,-1,0,15
Y2-S2-211M23,1,180,AS,exp,44,←,left,←,0.45268300001043826,True,15,-1,0,15
Y2-S2-211M23,1,181,AS,exp,44,↑,up,↑,0.6248942000092939,True,15,-1,0,15
Y2-S2-211M23,1,182,AS,exp,28,↓,down,↓,0.5585776000516489,True,15,1,1,16
Y2-S2-211M23,2,183,PS,intra_train,43,←,left,←,0.633395400014706,True,7,-,-,-
Y2-S2-211M23,2,184,PS,intra_train,37,↓,down,↓,0.5961666000075638,True,7,-,-,-
Y2-S2-211M23,2,185,PS,intra_train,49,↑,up,↑,0.669492100016214,True,7,-,-,-
Y2-S2-211M23,2,186,PS,intra_train,30,→,right,→,0.7626441000029445,True,7,-,-,-
Y2-S2-211M23,2,187,PS,intra_train,39,↑,down,↓,1.1492119999602437,False,7,-,-,-
Y2-S2-211M23,2,188,PS,exp,25,→,right,→,0.6141035999171436,True,5,0,0,0
Y2-S2-211M23,2,189,PS,exp,47,↑,up,↑,0.6648527000797912,True,5,0,0,0
Y2-S2-211M23,2,190,PS,exp,41,↓,down,↓,0.7480436000041664,True,5,1,0,0
Y2-S2-211M23,2,191,PS,exp,36,←,no_key,no_letter,-1.0,False,4,-1,1,1
Y2-S2-211M23,2,192,PS,exp,50,↑,right,→,1.6305303999688476,False,5,-1,0,1
Y2-S2-211M23,2,193,PS,exp,34,←,left,←,0.6000892999581993,True,6,-1,0,1
Y2-S2-211M23,2,194,PS,exp,36,↑,up,↑,0.8711698999395594,True,6,-1,0,1
Y2-S2-211M23,2,195,PS,exp,33,→,left,←,0.7225508000701666,False,6,-1,0,1
Y2-S2-211M23,2,196,PS,exp,37,←,right,→,1.2656546999933198,False,7,-1,0,1
Y2-S2-211M23,2,197,PS,exp,25,→,left,←,0.646238400018774,False,8,-1,0,1
Y2-S2-211M23,2,198,PS,exp,40,←,left,←,0.43415300000924617,True,9,-1,0,1
Y2-S2-211M23,2,199,PS,exp,48,↓,right,→,0.8189746999414638,False,9,-1,0,1
Y2-S2-211M23,2,200,PS,exp,45,↑,up,↑,0.6497641999740154,True,10,-1,0,1
Y2-S2-211M23,2,201,PS,exp,33,→,right,→,0.500062600011006,True,10,-1,0,1
Y2-S2-211M23,2,202,PS,exp,29,↓,down,↓,0.5179442000808194,True,10,1,1,2
Y2-S2-211M23,2,203,PS,exp,37,→,right,→,0.4923834999790415,True,9,1,0,2
Y2-S2-211M23,2,204,PS,exp,32,↑,up,↑,0.6082133000018075,True,9,1,0,2
Y2-S2-211M23,2,205,PS,exp,44,←,left,←,0.8355157000478357,True,9,1,0,2
Y2-S2-211M23,2,206,PS,exp,46,↑,up,↑,0.9311997999902815,True,8,1,0,2
Y2-S2-211M23,2,207,PS,exp,46,←,left,←,0.6253390000201762,True,8,1,0,2
Y2-S2-211M23,2,208,PS,exp,36,→,right,→,0.7020682999864221,True,8,1,0,2
Y2-S2-211M23,2,209,PS,exp,40,↑,up,↑,0.7192246000049636,True,7,1,0,2
Y2-S2-211M23,2,210,PS,exp,44,←,left,←,0.4791713999584317,True,7,1,0,2
Y2-S2-211M23,2,211,PS,exp,39,↑,right,→,0.6372337999055162,False,7,-1,1,3
Y2-S2-211M23,2,212,PS,exp,50,→,right,→,0.7554788999259472,True,8,-1,0,3
Y2-S2-211M23,2,213,PS,exp,28,↓,down,↓,0.7494226999115199,True,8,-1,0,3
Y2-S2-211M23,2,214,PS,exp,37,←,left,←,1.4842241000151262,True,8,1,1,4
Y2-S2-211M23,2,215,PS,exp,42,↓,down,↓,0.6312196999788284,True,7,1,0,4
Y2-S2-211M23,2,216,PS,exp,40,↑,up,↑,0.646836599917151,True,7,1,0,4
Y2-S2-211M23,2,217,PS,exp,48,↓,down,↓,0.5094629999948665,True,7,1,0,4
Y2-S2-211M23,2,218,PS,exp,26,↑,up,↑,0.6699406000552699,True,6,1,0,4
Y2-S2-211M23,2,219,PS,exp,35,→,left,←,1.0926485999953002,False,6,-1,1,5
Y2-S2-211M23,2,220,PS,exp,29,↑,down,↓,0.7193606999935582,False,7,-1,0,5
Y2-S2-211M23,2,221,PS,exp,46,←,left,←,0.47762940009124577,True,8,-1,0,5
Y2-S2-211M23,2,222,PS,exp,38,↑,left,←,1.0839043000014499,False,8,-1,0,5
Y2-S2-211M23,2,223,PS,exp,44,↓,left,←,0.8681680000154302,False,9,-1,0,5
Y2-S2-211M23,2,224,PS,exp,49,→,right,→,0.6784410999389365,True,10,-1,0,5
Y2-S2-211M23,2,225,PS,exp,34,↓,left,←,1.3432329999050125,False,10,-1,0,5
Y2-S2-211M23,2,226,PS,exp,37,↑,down,↓,0.8829322000965476,False,11,-1,0,5
Y2-S2-211M23,2,227,PS,exp,43,→,left,←,0.7490321999648586,False,12,-1,0,5
Y2-S2-211M23,2,228,PS,exp,42,←,left,←,0.8495905000017956,True,13,-1,0,5
Y2-S2-211M23,2,229,PS,exp,26,→,right,→,0.4577438000123948,True,13,-1,0,5
Y2-S2-211M23,2,230,PS,exp,29,←,left,←,0.6194242999190465,True,13,1,1,6
Y2-S2-211M23,2,231,PS,exp,27,→,left,←,1.1062009999295697,False,12,-1,1,7
Y2-S2-211M23,2,232,PS,exp,37,↓,down,↓,0.5422380999661982,True,13,-1,0,7
Y2-S2-211M23,2,233,PS,exp,39,↑,up,↑,0.7256345000350848,True,13,-1,0,7
Y2-S2-211M23,2,234,PS,exp,38,←,left,←,0.5275122999446467,True,13,1,1,8
Y2-S2-211M23,2,235,PS,exp,38,↑,up,↑,0.5069379999767989,True,12,1,0,8
Y2-S2-211M23,2,236,PS,exp,30,↓,down,↓,0.5272393999621272,True,12,1,0,8
Y2-S2-211M23,2,237,PS,exp,27,↑,up,↑,0.45318630000110716,True,12,1,0,8
Y2-S2-211M23,2,238,PS,exp,40,↓,down,↓,0.5615229000104591,True,11,1,0,8
Y2-S2-211M23,2,239,PS,exp,43,↑,up,↑,0.46228350000455976,True,11,1,0,8
Y2-S2-211M23,2,240,PS,exp,38,←,left,←,0.420342699973844,True,11,1,0,8
Y2-S2-211M23,2,241,PS,exp,27,↑,up,↑,0.4519238999346271,True,10,1,0,8
Y2-S2-211M23,2,242,PS,exp,40,↓,down,↓,0.5021321000531316,True,10,1,0,8
Y2-S2-211M23,2,243,PS,exp,27,←,right,→,0.959250699961558,False,10,-1,1,9
Y2-S2-211M23,2,244,PS,exp,39,↓,down,↓,0.5222029999131337,True,11,-1,0,9
Y2-S2-211M23,2,245,PS,exp,28,→,right,→,0.7500823000445962,True,11,-1,0,9
Y2-S2-211M23,2,246,PS,exp,46,↑,up,↑,1.574171100044623,True,11,1,1,10
Y2-S2-211M23,2,247,PS,exp,44,→,down,↓,0.9350926000624895,False,10,-1,1,11
Y2-S2-211M23,2,248,PS,exp,47,↑,right,→,1.0684564000694081,False,11,-1,0,11
Y2-S2-211M23,2,249,PS,exp,46,↓,down,↓,0.5545465999748558,True,12,-1,0,11
Y2-S2-211M23,2,250,PS,exp,34,→,right,→,0.5659631999442354,True,12,-1,0,11
Y2-S2-211M23,2,251,PS,exp,36,↓,down,↓,0.5281727000838146,True,12,1,1,12
Y2-S2-211M23,2,252,PS,exp,32,←,left,←,0.4884248999878764,True,11,1,0,12
Y2-S2-211M23,2,253,PS,exp,41,↓,down,↓,0.48275239998474717,True,11,1,0,12
Y2-S2-211M23,2,254,PS,exp,44,↑,up,↑,0.6259468999924138,True,11,1,0,12
Y2-S2-211M23,2,255,PS,exp,46,↓,down,↓,0.5043124000076205,True,10,1,0,12
Y2-S2-211M23,2,256,PS,exp,37,↑,up,↑,0.4278805999783799,True,10,1,0,12
Y2-S2-211M23,2,257,PS,exp,45,←,left,←,0.5610809999052435,True,10,1,0,12
Y2-S2-211M23,2,258,PS,exp,45,↓,right,→,1.2370319999754429,False,9,-1,1,13
Y2-S2-211M23,2,259,PS,exp,26,↑,up,↑,0.5760053999256343,True,10,-1,0,13
Y2-S2-211M23,2,260,PS,exp,46,←,up,↑,0.9601275000022724,False,10,-1,0,13
Y2-S2-211M23,2,261,PS,exp,37,↓,up,↑,0.7187835000222549,False,11,-1,0,13
Y2-S2-211M23,2,262,PS,exp,50,↑,up,↑,0.47616740001831204,True,12,-1,0,13
Y2-S2-211M23,2,263,PS,exp,32,↓,down,↓,0.607568999985233,True,12,-1,0,13
Y2-S2-211M23,2,264,PS,exp,25,↑,up,↑,0.5014033999759704,True,12,1,1,14
Y2-S2-211M23,2,265,PS,exp,35,↓,right,→,1.0123438999289647,False,11,-1,1,15
Y2-S2-211M23,2,266,PS,exp,43,→,right,→,0.46501109993550926,True,12,-1,0,15
Y2-S2-211M23,2,267,PS,exp,44,↓,down,↓,0.6687702999915928,True,12,-1,0,15
Y2-S2-211M23,2,268,PS,exp,44,→,right,→,0.5297646999824792,True,12,1,1,16
Y2-S2-211M23,3,269,PS,intra_train,25,↑,right,→,1.360723999910988,False,7,-,-,-
Y2-S2-211M23,3,270,PS,intra_train,27,→,right,→,0.5721068999264389,True,7,-,-,-
Y2-S2-211M23,3,271,PS,intra_train,50,←,left,←,0.45450370002072304,True,7,-,-,-
Y2-S2-211M23,3,272,PS,intra_train,31,→,left,←,1.4542557999957353,False,7,-,-,-
Y2-S2-211M23,3,273,PS,intra_train,44,↑,up,↑,0.8797788999509066,True,7,-,-,-
Y2-S2-211M23,3,274,PS,exp,45,→,down,↓,0.8750425999751315,False,5,-1,0,0
Y2-S2-211M23,3,275,PS,exp,35,←,left,←,0.5051543000154197,True,6,-1,0,0
Y2-S2-211M23,3,276,PS,exp,44,↑,right,→,1.1987540998961776,False,6,-1,0,0
Y2-S2-211M23,3,277,PS,exp,50,→,right,→,0.5119225999806076,True,7,-1,0,0
Y2-S2-211M23,3,278,PS,exp,32,←,left,←,0.5813415000448003,True,7,-1,0,0
Y2-S2-211M23,3,279,PS,exp,39,→,right,→,0.5931271000299603,True,7,1,1,1
Y2-S2-211M23,3,280,PS,exp,42,↑,down,↓,1.023622400010936,False,6,-1,1,2
Y2-S2-211M23,3,281,PS,exp,35,↓,down,↓,0.7032312999945134,True,7,-1,0,2
Y2-S2-211M23,3,282,PS,exp,43,↑,up,↑,1.454727299977094,True,7,-1,0,2
Y2-S2-211M23,3,283,PS,exp,48,←,left,←,0.5309805000433698,True,7,1,1,3
Y2-S2-211M23,3,284,PS,exp,50,→,right,→,1.308163100038655,True,6,1,0,3
Y2-S2-211M23,3,285,PS,exp,32,←,left,←,0.793438500026241,True,6,1,0,3
Y2-S2-211M23,3,286,PS,exp,47,→,right,→,0.5560465999878943,True,6,1,0,3
Y2-S2-211M23,3,287,PS,exp,29,↓,left,←,0.8426409000530839,False,5,-1,1,4
Y2-S2-211M23,3,288,PS,exp,50,←,left,←,0.8648303999798372,True,6,-1,0,4
Y2-S2-211M23,3,289,PS,exp,50,↑,left,←,0.6598925000289455,False,6,-1,0,4
Y2-S2-211M23,3,290,PS,exp,28,←,left,←,0.5926260000560433,True,7,-1,0,4
Y2-S2-211M23,3,291,PS,exp,41,↑,left,←,0.7848288000095636,False,7,-1,0,4
Y2-S2-211M23,3,292,PS,exp,27,↓,down,↓,0.5128835000796244,True,8,-1,0,4
Y2-S2-211M23,3,293,PS,exp,27,→,right,→,0.7470800000010058,True,8,-1,0,4
Y2-S2-211M23,3,294,PS,exp,38,←,left,←,0.6567911000456661,True,8,1,1,5
Y2-S2-211M23,3,295,PS,exp,41,↓,left,←,1.1699241999303922,False,7,-1,1,6
Y2-S2-211M23,3,296,PS,exp,40,↑,up,↑,0.6497403999092057,True,8,-1,0,6
Y2-S2-211M23,3,297,PS,exp,35,↓,down,↓,0.5610502000199631,True,8,-1,0,6
Y2-S2-211M23,3,298,PS,exp,46,→,left,←,0.9300580999115482,False,8,-1,0,6
Y2-S2-211M23,3,299,PS,exp,41,↑,up,↑,0.5718519000802189,True,9,-1,0,6
Y2-S2-211M23,3,300,PS,exp,48,↓,down,↓,0.6480344999581575,True,9,-1,0,6
Y2-S2-211M23,3,301,PS,exp,34,→,right,→,0.4717367999255657,True,9,1,1,7
Y2-S2-211M23,3,302,PS,exp,48,↓,left,←,0.6742828999413177,False,8,-1,1,8
Y2-S2-211M23,3,303,PS,exp,31,←,left,←,0.9936751000350341,True,9,-1,0,8
Y2-S2-211M23,3,304,PS,exp,37,↓,down,↓,0.4760644000489265,True,9,-1,0,8
Y2-S2-211M23,3,305,PS,exp,50,←,left,←,0.5060413000173867,True,9,1,1,9
Y2-S2-211M23,3,306,PS,exp,39,↓,up,↑,1.284830900025554,False,8,-1,1,10
Y2-S2-211M23,3,307,PS,exp,50,↑,up,↑,0.7151298000244424,True,9,-1,0,10
Y2-S2-211M23,3,308,PS,exp,28,←,left,←,0.45293589995708317,True,9,-1,0,10
Y2-S2-211M23,3,309,PS,exp,48,↓,down,↓,0.5419348999857903,True,9,1,1,11
Y2-S2-211M23,3,310,PS,exp,31,←,left,←,0.5391709000105038,True,8,1,0,11
Y2-S2-211M23,3,311,PS,exp,29,→,right,→,0.6800988999893889,True,8,1,0,11
Y2-S2-211M23,3,312,PS,exp,42,←,left,←,0.7285513000097126,True,8,1,0,11
Y2-S2-211M23,3,313,PS,exp,48,→,right,→,0.5008670999668539,True,7,1,0,11
Y2-S2-211M23,3,314,PS,exp,27,↓,down,↓,0.509154999977909,True,7,1,0,11
Y2-S2-211M23,3,315,PS,exp,32,←,right,→,0.7767167999409139,False,7,-1,1,12
Y2-S2-211M23,3,316,PS,exp,42,↓,down,↓,0.5133672000374645,True,8,-1,0,12
Y2-S2-211M23,3,317,PS,exp,50,←,left,←,0.5188512000022456,True,8,-1,0,12
Y2-S2-211M23,3,318,PS,exp,28,→,right,→,0.489129800000228,True,8,1,1,13
Y2-S2-211M23,3,319,PS,exp,35,↑,no_key,no_letter,-1.0,False,7,-1,1,14
Y2-S2-211M23,3,320,PS,exp,26,↓,down,↓,0.9638367000734434,True,8,-1,0,14
Y2-S2-211M23,3,321,PS,exp,46,←,left,←,0.5019792000530288,True,8,-1,0,14
Y2-S2-211M23,3,322,PS,exp,36,↑,up,↑,0.6418193000135943,True,8,1,1,15
Y2-S2-211M23,3,323,PS,exp,50,←,left,←,1.1646799000445753,True,7,1,0,15
Y2-S2-211M23,3,324,PS,exp,31,↓,left,←,0.6729587999871001,False,7,-1,1,16
Y2-S2-211M23,4,325,AS,intra_train,38,←,left,←,1.598568300018087,True,24,-,-,-
Y2-S2-211M23,4,326,AS,intra_train,28,↑,up,↑,0.5813098999205977,True,24,-,-,-
Y2-S2-211M23,4,327,AS,intra_train,35,←,left,←,0.5855116000166163,True,24,-,-,-
Y2-S2-211M23,4,328,AS,intra_train,31,→,right,→,0.7142540999921039,True,24,-,-,-
Y2-S2-211M23,4,329,AS,intra_train,25,←,left,←,0.4841716999653727,True,24,-,-,-
Y2-S2-211M23,4,330,AS,exp,44,↓,down,↓,0.8304451999720186,True,16,0,0,0
Y2-S2-211M23,4,331,AS,exp,25,←,left,←,0.5496347000589594,True,16,0,0,0
Y2-S2-211M23,4,332,AS,exp,26,↓,down,↓,0.6090357999783009,True,16,1,0,0
Y2-S2-211M23,4,333,AS,exp,31,↑,up,↑,0.5909174999687821,True,15,1,0,0
Y2-S2-211M23,4,334,AS,exp,39,↓,down,↓,0.49314440006855875,True,15,1,0,0
Y2-S2-211M23,4,335,AS,exp,45,↑,up,↑,0.605735499993898,True,15,1,0,0
Y2-S2-211M23,4,336,AS,exp,35,↓,up,↑,1.2642099000513554,False,14,-1,1,1
Y2-S2-211M23,4,337,AS,exp,38,↑,up,↑,0.5278949000639841,True,15,-1,0,1
Y2-S2-211M23,4,338,AS,exp,50,↓,down,↓,0.5790700999787077,True,15,-1,0,1
Y2-S2-211M23,4,339,AS,exp,33,↑,up,↑,0.46734319999814034,True,15,1,1,2
Y2-S2-211M23,4,340,AS,exp,25,↓,down,↓,0.46192999999038875,True,14,1,0,2
Y2-S2-211M23,4,341,AS,exp,28,→,left,←,1.2042905000271276,False,14,-1,1,3
Y2-S2-211M23,4,342,AS,exp,48,↓,down,↓,0.49096369999460876,True,15,-1,0,3
Y2-S2-211M23,4,343,AS,exp,30,→,right,→,0.505582100013271,True,15,-1,0,3
Y2-S2-211M23,4,344,AS,exp,47,↑,up,↑,0.5648330999538302,True,15,1,1,4
Y2-S2-211M23,4,345,AS,exp,49,→,right,→,0.5060687999939546,True,14,1,0,4
Y2-S2-211M23,4,346,AS,exp,32,↓,down,↓,0.559802999952808,True,14,1,0,4
Y2-S2-211M23,4,347,AS,exp,50,←,left,←,0.5132700999965891,True,14,1,0,4
Y2-S2-211M23,4,348,AS,exp,26,→,right,→,0.5915937999961898,True,13,1,0,4
Y2-S2-211M23,4,349,AS,exp,29,↑,up,↑,0.5588867000769824,True,13,1,0,4
Y2-S2-211M23,4,350,AS,exp,35,↓,down,↓,0.8214288000017405,True,13,1,0,4
Y2-S2-211M23,4,351,AS,exp,38,←,right,→,0.5889539000345394,False,12,-1,1,5
Y2-S2-211M23,4,352,AS,exp,44,↓,down,↓,0.4858294998994097,True,13,-1,0,5
Y2-S2-211M23,4,353,AS,exp,27,↑,up,↑,0.8267714999383315,True,13,-1,0,5
Y2-S2-211M23,4,354,AS,exp,46,←,right,→,0.6623693000292405,False,13,-1,0,5
Y2-S2-211M23,4,355,AS,exp,46,↑,up,↑,0.8488889000145718,True,14,-1,0,5
Y2-S2-211M23,4,356,AS,exp,48,←,left,←,0.5103967000031844,True,14,-1,0,5
Y2-S2-211M23,4,357,AS,exp,37,↓,up,↑,0.9607507000910118,False,14,-1,0,5
Y2-S2-211M23,4,358,AS,exp,44,→,right,→,0.7841577000217512,True,15,-1,0,5
Y2-S2-211M23,4,359,AS,exp,25,↓,down,↓,0.5439406000077724,True,15,-1,0,5
Y2-S2-211M23,4,360,AS,exp,41,←,left,←,0.4627931999275461,True,15,1,1,6
Y2-S2-211M23,4,361,AS,exp,28,↓,down,↓,0.4591042000101879,True,14,1,0,6
Y2-S2-211M23,4,362,AS,exp,45,↑,up,↑,0.5321750000584871,True,14,1,0,6
Y2-S2-211M23,4,363,AS,exp,50,→,right,→,0.7847387000219896,True,14,1,0,6
Y2-S2-211M23,4,364,AS,exp,41,↓,down,↓,0.588717499980703,True,13,1,0,6
Y2-S2-211M23,4,365,AS,exp,42,↑,up,↑,0.8409907999448478,True,13,1,0,6
Y2-S2-211M23,4,366,AS,exp,30,↓,up,↑,0.5827193000586703,False,13,-1,1,7
Y2-S2-211M23,4,367,AS,exp,47,↑,up,↑,0.5153900999575853,True,14,-1,0,7
Y2-S2-211M23,4,368,AS,exp,36,→,right,→,0.6740269999718294,True,14,-1,0,7
Y2-S2-211M23,4,369,AS,exp,35,↑,up,↑,0.5921368999406695,True,14,1,1,8
Y2-S2-211M23,4,370,AS,exp,38,←,left,←,0.9526332999812439,True,13,1,0,8
Y2-S2-211M23,4,371,AS,exp,39,↑,up,↑,0.5437965000746772,True,13,1,0,8
Y2-S2-211M23,4,372,AS,exp,28,←,left,←,0.541454799938947,True,13,1,0,8
Y2-S2-211M23,4,373,AS,exp,31,↓,down,↓,0.7076366998953745,True,12,1,0,8
Y2-S2-211M23,4,374,AS,exp,42,↑,up,↑,0.6011851000366732,True,12,1,0,8
Y2-S2-211M23,4,375,AS,exp,37,←,left,←,0.6039677000371739,True,12,1,0,8
Y2-S2-211M23,4,376,AS,exp,46,→,right,→,0.51277059991844,True,11,1,0,8
Y2-S2-211M23,4,377,AS,exp,47,←,left,←,0.5070559999439865,True,11,1,0,8
Y2-S2-211M23,4,378,AS,exp,41,↓,up,↑,0.5979641999583691,False,11,-1,1,9
Y2-S2-211M23,4,379,AS,exp,49,↑,down,↓,0.9401844999520108,False,12,-1,0,9
Y2-S2-211M23,4,380,AS,exp,38,←,left,←,0.5300549999810755,True,13,-1,0,9
Y2-S2-211M23,4,381,AS,exp,41,↓,up,↑,1.2671940999571234,False,13,-1,0,9
Y2-S2-211M23,4,382,AS,exp,50,→,right,→,0.5325031999964267,True,14,-1,0,9
Y2-S2-211M23,4,383,AS,exp,48,↑,up,↑,0.5486577999545261,True,14,-1,0,9
Y2-S2-211M23,4,384,AS,exp,49,→,left,←,0.7480768000241369,False,14,-1,0,9
Y2-S2-211M23,4,385,AS,exp,39,↓,down,↓,0.6361286999890581,True,15,-1,0,9
Y2-S2-211M23,4,386,AS,exp,48,←,left,←,0.5727963000535965,True,15,-1,0,9
Y2-S2-211M23,4,387,AS,exp,32,→,right,→,0.5194866999518126,True,15,1,1,10
Y2-S2-211M23,4,388,AS,exp,33,↓,down,↓,0.4963410999625921,True,14,1,0,10
Y2-S2-211M23,4,389,AS,exp,26,→,right,→,0.8960370999993756,True,14,1,0,10
Y2-S2-211M23,4,390,AS,exp,34,↓,down,↓,0.5880631000036374,True,14,1,0,10
Y2-S2-211M23,4,391,AS,exp,33,→,right,→,0.5196962000336498,True,13,1,0,10
Y2-S2-211M23,4,392,AS,exp,43,←,left,←,0.4450870000291616,True,13,1,0,10
Y2-S2-211M23,4,393,AS,exp,45,↓,down,↓,0.5332664999878034,True,13,1,0,10
Y2-S2-211M23,4,394,AS,exp,34,↑,up,↑,0.7152274999534711,True,12,1,0,10
Y2-S2-211M23,4,395,AS,exp,28,←,right,→,0.8540434000315145,False,12,-1,1,11
Y2-S2-211M23,4,396,AS,exp,26,↓,down,↓,0.48104770004283637,True,13,-1,0,11
Y2-S2-211M23,4,397,AS,exp,47,←,right,→,0.539599800016731,False,13,-1,0,11
Y2-S2-211M23,4,398,AS,exp,34,→,right,→,0.7074840000132099,True,14,-1,0,11
Y2-S2-211M23,4,399,AS,exp,41,↑,up,↑,1.4068920999998227,True,14,-1,0,11
Y2-S2-211M23,4,400,AS,exp,30,→,right,→,0.4905927999643609,True,14,1,1,12
Y2-S2-211M23,4,401,AS,exp,40,↓,up,↑,1.0682904999703169,False,13,-1,1,13
Y2-S2-211M23,4,402,AS,exp,26,→,right,→,0.47417719999793917,True,14,-1,0,13
Y2-S2-211M23,4,403,AS,exp,42,↓,down,↓,0.6071702999761328,True,14,-1,0,13
Y2-S2-211M23,4,404,AS,exp,41,→,left,←,0.7190885000163689,False,14,-1,0,13
Y2-S2-211M23,4,405,AS,exp,25,←,left,←,0.6328970000613481,True,15,-1,0,13
Y2-S2-211M23,4,406,AS,exp,38,→,right,→,0.5224247999722138,True,15,-1,0,13
Y2-S2-211M23,4,407,AS,exp,43,←,left,←,0.6754315999569371,True,15,1,1,14
Y2-S2-211M23,4,408,AS,exp,25,↓,left,←,0.7350019000004977,False,14,-1,1,15
Y2-S2-211M23,4,409,AS,exp,27,→,right,→,0.6628399000037462,True,15,-1,0,15
Y2-S2-211M23,4,410,AS,exp,27,←,left,←,0.6533086999552324,True,15,-1,0,15
Y2-S2-211M23,4,411,AS,exp,47,→,right,→,0.5939099000534043,True,15,1,1,16
Y2-S2-211M23,5,412,AS,intra_train,38,←,left,←,0.6427995000267401,True,24,-,-,-
Y2-S2-211M23,5,413,AS,intra_train,26,↑,up,↑,0.6906760000856593,True,24,-,-,-
Y2-S2-211M23,5,414,AS,intra_train,43,↓,down,↓,0.6793366000056267,True,24,-,-,-
Y2-S2-211M23,5,415,AS,intra_train,36,↑,up,↑,0.5975402999902144,True,24,-,-,-
Y2-S2-211M23,5,416,AS,intra_train,35,→,right,→,0.6710623999824747,True,24,-,-,-
Y2-S2-211M23,5,417,AS,exp,49,←,left,←,0.5876281999517232,True,16,0,0,0
Y2-S2-211M23,5,418,AS,exp,35,↓,down,↓,0.9083669000538066,True,16,0,0,0
Y2-S2-211M23,5,419,AS,exp,32,→,right,→,0.48344310000538826,True,16,1,0,0
Y2-S2-211M23,5,420,AS,exp,41,↓,down,↓,0.6639855999965221,True,15,1,0,0
Y2-S2-211M23,5,421,AS,exp,40,→,right,→,0.440273099928163,True,15,1,0,0
Y2-S2-211M23,5,422,AS,exp,30,↓,down,↓,0.6220667000161484,True,15,1,0,0
Y2-S2-211M23,5,423,AS,exp,35,→,right,→,0.5667464999714866,True,14,1,0,0
Y2-S2-211M23,5,424,AS,exp,36,↑,up,↑,0.5442740999860689,True,14,1,0,0
Y2-S2-211M23,5,425,AS,exp,37,←,left,←,0.7342882000375539,True,14,1,0,0
Y2-S2-211M23,5,426,AS,exp,38,→,right,→,1.4804055000422522,True,13,1,0,0
Y2-S2-211M23,5,427,AS,exp,43,↓,no_key,no_letter,-1.0,False,13,-1,1,1
Y2-S2-211M23,5,428,AS,exp,33,→,right,→,0.5973164000315592,True,14,-1,0,1
Y2-S2-211M23,5,429,AS,exp,37,←,right,→,0.4074007000308484,False,14,-1,0,1
Y2-S2-211M23,5,430,AS,exp,25,↑,up,↑,0.6345424000173807,True,15,-1,0,1
Y2-S2-211M23,5,431,AS,exp,35,↓,up,↑,0.9106503000948578,False,15,-1,0,1
Y2-S2-211M23,5,432,AS,exp,47,←,left,←,0.5784712000750005,True,16,-1,0,1
Y2-S2-211M23,5,433,AS,exp,34,↓,down,↓,0.750629200018011,True,16,-1,0,1
Y2-S2-211M23,5,434,AS,exp,42,↑,up,↑,0.6961268000304699,True,16,1,1,2
Y2-S2-211M23,5,435,AS,exp,46,←,left,←,0.6501676000189036,True,15,1,0,2
Y2-S2-211M23,5,436,AS,exp,37,↓,down,↓,0.5519390000263229,True,15,1,0,2
Y2-S2-211M23,5,437,AS,exp,26,→,right,→,0.4816187999676913,True,15,1,0,2
Y2-S2-211M23,5,438,AS,exp,46,←,left,←,0.49377639999147505,True,14,1,0,2
Y2-S2-211M23,5,439,AS,exp,42,→,right,→,1.0859137000516057,True,14,1,0,2
Y2-S2-211M23,5,440,AS,exp,45,←,left,←,0.5748083998914808,True,14,1,0,2
Y2-S2-211M23,5,441,AS,exp,26,↓,down,↓,1.0062114000320435,True,13,1,0,2
Y2-S2-211M23,5,442,AS,exp,44,←,left,←,0.549280000035651,True,13,1,0,2
Y2-S2-211M23,5,443,AS,exp,29,→,right,→,0.6823458999861032,True,13,1,0,2
Y2-S2-211M23,5,444,AS,exp,43,←,left,←,0.41862959996797144,True,12,1,0,2
Y2-S2-211M23,5,445,AS,exp,47,→,right,→,0.6007986000040546,True,12,1,0,2
Y2-S2-211M23,5,446,AS,exp,31,←,left,←,0.6281177001073956,True,12,1,0,2
Y2-S2-211M23,5,447,AS,exp,31,↓,right,→,0.6766642000293359,False,11,-1,1,3
Y2-S2-211M23,5,448,AS,exp,31,→,right,→,0.6812082000542432,True,12,-1,0,3
Y2-S2-211M23,5,449,AS,exp,42,↑,down,↓,0.6943539999192581,False,12,-1,0,3
Y2-S2-211M23,5,450,AS,exp,31,←,right,→,0.6496571999741718,False,13,-1,0,3
Y2-S2-211M23,5,451,AS,exp,38,→,right,→,0.644867799943313,True,14,-1,0,3
Y2-S2-211M23,5,452,AS,exp,42,←,left,←,0.5676121000433341,True,14,-1,0,3
Y2-S2-211M23,5,453,AS,exp,36,↑,up,↑,0.6332085999893025,True,14,1,1,4
Y2-S2-211M23,5,454,AS,exp,25,↓,down,↓,0.8468311000615358,True,13,1,0,4
Y2-S2-211M23,5,455,AS,exp,40,↑,up,↑,0.4082975999917835,True,13,1,0,4
Y2-S2-211M23,5,456,AS,exp,43,←,left,←,0.6068274000426754,True,13,1,0,4
Y2-S2-211M23,5,457,AS,exp,37,→,right,→,0.7338282000273466,True,12,1,0,4
Y2-S2-211M23,5,458,AS,exp,44,↑,up,↑,0.5711840000003576,True,12,1,0,4
Y2-S2-211M23,5,459,AS,exp,49,←,left,←,0.5997361999470741,True,12,1,0,4
Y2-S2-211M23,5,460,AS,exp,35,↑,up,↑,0.6232072999700904,True,11,1,0,4
Y2-S2-211M23,5,461,AS,exp,30,←,left,←,0.7030365000246093,True,11,1,0,4
Y2-S2-211M23,5,462,AS,exp,32,↓,right,→,0.7424778999993578,False,11,-1,1,5
Y2-S2-211M23,5,463,AS,exp,43,←,right,→,0.5822507000993937,False,12,-1,0,5
Y2-S2-211M23,5,464,AS,exp,39,↓,left,←,0.6606741000432521,False,13,-1,0,5
Y2-S2-211M23,5,465,AS,exp,50,↑,up,↑,0.6781492999289185,True,14,-1,0,5
Y2-S2-211M23,5,466,AS,exp,27,↓,down,↓,0.6980092000449076,True,14,-1,0,5
Y2-S2-211M23,5,467,AS,exp,44,↑,up,↑,0.7969343999866396,True,14,1,1,6
Y2-S2-211M23,5,468,AS,exp,41,←,right,→,0.6753216000506654,False,13,-1,1,7
Y2-S2-211M23,5,469,AS,exp,36,→,right,→,0.7693791999481618,True,14,-1,0,7
Y2-S2-211M23,5,470,AS,exp,33,←,down,↓,0.6641917999368161,False,14,-1,0,7
Y2-S2-211M23,5,471,AS,exp,48,↓,down,↓,0.6436924999579787,True,15,-1,0,7
Y2-S2-211M23,5,472,AS,exp,39,←,left,←,0.8114133999915794,True,15,-1,0,7
Y2-S2-211M23,5,473,AS,exp,34,↑,down,↓,1.1808880000608042,False,15,-1,0,7
Y2-S2-211M23,5,474,AS,exp,36,←,left,←,0.5875530999619514,True,16,-1,0,7
Y2-S2-211M23,5,475,AS,exp,30,↑,no_key,no_letter,-1.0,False,16,-1,0,7
Y2-S2-211M23,5,476,AS,exp,30,←,left,←,0.5839417999377474,True,17,-1,0,7
Y2-S2-211M23,5,477,AS,exp,33,→,right,→,0.4597819000482559,True,17,-1,0,7
Y2-S2-211M23,5,478,AS,exp,29,←,left,←,0.7103794000577182,True,17,1,1,8
Y2-S2-211M23,5,479,AS,exp,44,→,right,→,0.5306142999324948,True,16,1,0,8
Y2-S2-211M23,5,480,AS,exp,48,↑,up,↑,0.7967659001005813,True,16,1,0,8
Y2-S2-211M23,5,481,AS,exp,33,→,right,→,1.2096367999911308,True,16,1,0,8
Y2-S2-211M23,5,482,AS,exp,41,←,left,←,0.8913591000018641,True,15,1,0,8
Y2-S2-211M23,5,483,AS,exp,44,↑,up,↑,0.6927113001001999,True,15,1,0,8
Y2-S2-211M23,5,484,AS,exp,37,→,right,→,0.8481863000197336,True,15,1,0,8
Y2-S2-211M23,5,485,AS,exp,48,↑,up,↑,0.629605200025253,True,14,1,0,8
Y2-S2-211M23,5,486,AS,exp,49,↓,down,↓,0.711574700078927,True,14,1,0,8
Y2-S2-211M23,5,487,AS,exp,43,←,left,←,0.6596416999818757,True,14,1,0,8
Y2-S2-211M23,5,488,AS,exp,43,↑,up,↑,0.7352522000437602,True,13,1,0,8
Y2-S2-211M23,5,489,AS,exp,42,←,no_key,no_letter,-1.0,False,13,-1,1,9
Y2-S2-211M23,5,490,AS,exp,49,↑,right,→,0.996104099904187,False,14,-1,0,9
Y2-S2-211M23,5,491,AS,exp,48,↓,up,↑,0.6997944000177085,False,15,-1,0,9
Y2-S2-211M23,5,492,AS,exp,36,→,left,←,0.8273796000285074,False,16,-1,0,9
Y2-S2-211M23,5,493,AS,exp,44,↓,down,↓,0.4706077999435365,True,17,-1,0,9
Y2-S2-211M23,5,494,AS,exp,45,←,left,←,0.7437014000024647,True,17,-1,0,9
Y2-S2-211M23,5,495,AS,exp,50,↑,right,→,0.8397286999970675,False,17,-1,0,9
Y2-S2-211M23,5,496,AS,exp,38,←,left,←,0.48677209997549653,True,18,-1,0,9
Y2-S2-211M23,5,497,AS,exp,35,↑,up,↑,0.864026700030081,True,18,-1,0,9
Y2-S2-211M23,5,498,AS,exp,28,←,left,←,0.6643756000557914,True,18,1,1,10
Y2-S2-211M23,5,499,AS,exp,40,→,right,→,0.6379094000440091,True,17,1,0,10
Y2-S2-211M23,5,500,AS,exp,28,←,left,←,0.48356079997029155,True,17,1,0,10
Y2-S2-211M23,5,501,AS,exp,29,↓,down,↓,0.871748200035654,True,17,1,0,10
Y2-S2-211M23,5,502,AS,exp,49,↑,up,↑,0.5093017000472173,True,16,1,0,10
Y2-S2-211M23,5,503,AS,exp,31,→,right,→,0.5327548999339342,True,16,1,0,10
Y2-S2-211M23,5,504,AS,exp,34,↓,down,↓,0.6488642999902368,True,16,1,0,10
Y2-S2-211M23,5,505,AS,exp,26,←,left,←,0.706444300012663,True,15,1,0,10
Y2-S2-211M23,5,506,AS,exp,31,→,right,→,0.5469180999789387,True,15,1,0,10
Y2-S2-211M23,5,507,AS,exp,45,←,left,←,0.31730270001571625,True,15,1,0,10
Y2-S2-211M23,5,508,AS,exp,37,↓,down,↓,0.5430924000684172,True,14,1,0,10
Y2-S2-211M23,5,509,AS,exp,38,→,right,→,0.5020750999683514,True,14,1,0,10
Y2-S2-211M23,5,510,AS,exp,37,↓,down,↓,1.0030015000374988,True,14,1,0,10
Y2-S2-211M23,5,511,AS,exp,36,←,left,←,0.668634400004521,True,13,1,0,10
Y2-S2-211M23,5,512,AS,exp,25,↑,up,↑,0.42023930000141263,True,13,1,0,10
Y2-S2-211M23,5,513,AS,exp,32,↓,down,↓,0.7255930999526754,True,13,1,0,10
Y2-S2-211M23,5,514,AS,exp,42,→,right,→,0.49996699998155236,True,12,1,0,10
Y2-S2-211M23,5,515,AS,exp,39,↑,left,←,0.8917516999645159,False,12,-1,1,11
Y2-S2-211M23,5,516,AS,exp,43,←,left,←,0.6372293999884278,True,13,-1,0,11
Y2-S2-211M23,5,517,AS,exp,47,→,left,←,0.5846201999811456,False,13,-1,0,11
Y2-S2-211M23,5,518,AS,exp,44,←,left,←,0.5554283999372274,True,14,-1,0,11
Y2-S2-211M23,5,519,AS,exp,32,↑,up,↑,0.8844754999736324,True,14,-1,0,11
Y2-S2-211M23,5,520,AS,exp,33,→,right,→,0.6936400000704452,True,14,1,1,12
Y2-S2-211M23,5,521,AS,exp,25,↓,left,←,0.986201100051403,False,13,-1,1,13
Y2-S2-211M23,5,522,AS,exp,26,←,left,←,0.538896800018847,True,14,-1,0,13
Y2-S2-211M23,5,523,AS,exp,45,→,right,→,1.3450561999343336,True,14,-1,0,13
Y2-S2-211M23,5,524,AS,exp,41,↓,down,↓,0.7521143000340089,True,14,1,1,14
Y2-S2-211M23,5,525,AS,exp,31,←,left,←,0.6779920000117272,True,13,1,0,14
Y2-S2-211M23,5,526,AS,exp,32,↑,down,↓,0.9645323000149801,False,13,-1,1,15
Y2-S2-211M23,5,527,AS,exp,26,→,down,↓,0.8053135999944061,False,14,-1,0,15
Y2-S2-211M23,5,528,AS,exp,44,←,down,↓,0.9012856000335887,False,15,-1,0,15
Y2-S2-211M23,5,529,AS,exp,29,→,right,→,0.5264552000444382,True,16,-1,0,15
Y2-S2-211M23,5,530,AS,exp,34,↑,left,←,1.172025499981828,False,16,-1,0,15
Y2-S2-211M23,5,531,AS,exp,30,↓,down,↓,0.7146368999965489,True,17,-1,0,15
Y2-S2-211M23,5,532,AS,exp,43,↑,up,↑,0.5855137999169528,True,17,-1,0,15
Y2-S2-211M23,5,533,AS,exp,40,↓,down,↓,0.513409800012596,True,17,1,1,16
Y2-S2-211M23,6,534,PS,intra_train,48,←,up,↑,1.1915712000336498,False,7,-,-,-
Y2-S2-211M23,6,535,PS,intra_train,39,↑,up,↑,0.635965000023134,True,7,-,-,-
Y2-S2-211M23,6,536,PS,intra_train,45,↓,right,→,1.484932699939236,False,7,-,-,-
Y2-S2-211M23,6,537,PS,intra_train,34,←,up,↑,1.6298117999685928,False,7,-,-,-
Y2-S2-211M23,6,538,PS,intra_train,39,↓,right,→,1.3466616000514477,False,7,-,-,-
Y2-S2-211M23,6,539,PS,exp,32,↑,up,↑,0.9501335999229923,True,5,0,0,0
Y2-S2-211M23,6,540,PS,exp,43,←,left,←,0.9008874000282958,True,5,0,0,0
Y2-S2-211M23,6,541,PS,exp,36,→,right,→,1.377569600008428,True,5,1,0,0
Y2-S2-211M23,6,542,PS,exp,32,↓,left,←,1.3753060000017285,False,4,-1,1,1
Y2-S2-211M23,6,543,PS,exp,32,↑,up,↑,1.4749572000000626,True,5,-1,0,1
Y2-S2-211M23,6,544,PS,exp,35,↓,down,↓,0.6040299999294803,True,5,-1,0,1
Y2-S2-211M23,6,545,PS,exp,50,→,right,→,0.5801973999477923,True,5,1,1,2
Y2-S2-211M23,6,546,PS,exp,26,↓,left,←,0.5933556000236422,False,4,-1,1,3
Y2-S2-211M23,6,547,PS,exp,35,←,right,→,0.4074647000525147,False,5,-1,0,3
Y2-S2-211M23,6,548,PS,exp,37,→,right,→,0.6918329999316484,True,6,-1,0,3
Y2-S2-211M23,6,549,PS,exp,33,↑,no_key,no_letter,-1.0,False,6,-1,0,3
Y2-S2-211M23,6,550,PS,exp,27,←,left,←,0.4749511000700295,True,7,-1,0,3
Y2-S2-211M23,6,551,PS,exp,30,→,right,→,0.44832480000332,True,7,-1,0,3
Y2-S2-211M23,6,552,PS,exp,28,←,left,←,0.5557783000404015,True,7,1,1,4
Y2-S2-211M23,6,553,PS,exp,45,↑,right,→,0.6567558000097051,False,6,-1,1,5
Y2-S2-211M23,6,554,PS,exp,25,←,left,←,0.7195277999853715,True,7,-1,0,5
Y2-S2-211M23,6,555,PS,exp,27,↓,left,←,0.7303655999712646,False,7,-1,0,5
Y2-S2-211M23,6,556,PS,exp,43,→,right,→,0.440780800068751,True,8,-1,0,5
Y2-S2-211M23,6,557,PS,exp,37,←,left,←,0.569472000002861,True,8,-1,0,5
Y2-S2-211M23,6,558,PS,exp,32,↓,left,←,0.6123204999603331,False,8,-1,0,5
Y2-S2-211M23,6,559,PS,exp,25,→,right,→,0.5198605000041425,True,9,-1,0,5
Y2-S2-211M23,6,560,PS,exp,27,↓,down,↓,0.48387280001770705,True,9,-1,0,5
Y2-S2-211M23,6,561,PS,exp,39,→,right,→,0.529158000019379,True,9,1,1,6
Y2-S2-211M23,6,562,PS,exp,33,←,left,←,0.5040034999838099,True,8,1,0,6
Y2-S2-211M23,6,563,PS,exp,44,↑,up,↑,1.2254515000386164,True,8,1,0,6
Y2-S2-211M23,6,564,PS,exp,38,↓,down,↓,0.6143293000059202,True,8,1,0,6
Y2-S2-211M23,6,565,PS,exp,49,→,right,→,0.5104380999691784,True,7,1,0,6
Y2-S2-211M23,6,566,PS,exp,30,↑,right,→,0.7152519000228494,False,7,-1,1,7
Y2-S2-211M23,6,567,PS,exp,49,↓,down,↓,0.4609883999219164,True,8,-1,0,7
Y2-S2-211M23,6,568,PS,exp,42,→,right,→,0.4141490999609232,True,8,-1,0,7
Y2-S2-211M23,6,569,PS,exp,34,←,left,←,0.5091248999815434,True,8,1,1,8
Y2-S2-211M23,6,570,PS,exp,25,→,left,←,0.7740821000188589,False,7,-1,1,9
Y2-S2-211M23,6,571,PS,exp,29,←,right,→,0.5195195999694988,False,8,-1,0,9
Y2-S2-211M23,6,572,PS,exp,39,↑,left,←,0.37247069994919,False,9,-1,0,9
Y2-S2-211M23,6,573,PS,exp,47,←,left,←,0.46551760006695986,True,10,-1,0,9
Y2-S2-211M23,6,574,PS,exp,48,→,right,→,0.49519609997514635,True,10,-1,0,9
Y2-S2-211M23,6,575,PS,exp,38,←,left,←,0.4505689999787137,True,10,1,1,10
Y2-S2-211M23,6,576,PS,exp,40,↑,up,↑,0.5078384000808001,True,9,1,0,10
Y2-S2-211M23,6,577,PS,exp,25,→,right,→,0.4857184999855235,True,9,1,0,10
Y2-S2-211M23,6,578,PS,exp,37,↓,down,↓,0.5446623000316322,True,9,1,0,10
Y2-S2-211M23,6,579,PS,exp,46,→,right,→,0.5222066999413073,True,8,1,0,10
Y2-S2-211M23,6,580,PS,exp,46,↑,up,↑,0.7753249000525102,True,8,1,0,10
Y2-S2-211M23,6,581,PS,exp,41,←,left,←,0.5365947999525815,True,8,1,0,10
Y2-S2-211M23,6,582,PS,exp,36,→,right,→,0.48136580002028495,True,7,1,0,10
Y2-S2-211M23,6,583,PS,exp,33,↑,up,↑,0.497544200043194,True,7,1,0,10
Y2-S2-211M23,6,584,PS,exp,28,→,right,→,0.6832714000483975,True,7,1,0,10
Y2-S2-211M23,6,585,PS,exp,32,↑,up,↑,0.4994985000230372,True,6,1,0,10
Y2-S2-211M23,6,586,PS,exp,45,←,left,←,0.5515997000038624,True,6,1,0,10
Y2-S2-211M23,6,587,PS,exp,31,↑,up,↑,0.48554799996782094,True,6,1,0,10
Y2-S2-211M23,6,588,PS,exp,27,→,right,→,0.687394000007771,True,5,1,0,10
Y2-S2-211M23,6,589,PS,exp,28,↑,up,↑,0.4942197999916971,True,5,1,0,10
Y2-S2-211M23,6,590,PS,exp,32,→,up,↑,0.6612790999934077,False,5,-1,1,11
Y2-S2-211M23,6,591,PS,exp,41,↑,up,↑,0.44708740001078695,True,6,-1,0,11
Y2-S2-211M23,6,592,PS,exp,40,↓,down,↓,0.6963221000041813,True,6,-1,0,11
Y2-S2-211M23,6,593,PS,exp,31,↑,right,→,0.9004759000381455,False,6,-1,0,11
Y2-S2-211M23,6,594,PS,exp,50,→,down,↓,1.272499900078401,False,7,-1,0,11
Y2-S2-211M23,6,595,PS,exp,36,↓,right,→,0.7898729000007734,False,8,-1,0,11
Y2-S2-211M23,6,596,PS,exp,40,←,left,←,1.0052539999596775,True,9,-1,0,11
Y2-S2-211M23,6,597,PS,exp,34,↓,down,↓,0.6107625999720767,True,9,-1,0,11
Y2-S2-211M23,6,598,PS,exp,35,↑,up,↑,0.6453143999679014,True,9,1,1,12
Y2-S2-211M23,6,599,PS,exp,47,←,left,←,0.5077879000455141,True,8,1,0,12
Y2-S2-211M23,6,600,PS,exp,46,→,right,→,0.5212814999977127,True,8,1,0,12
Y2-S2-211M23,6,601,PS,exp,32,↑,up,↑,0.4900194000219926,True,8,1,0,12
Y2-S2-211M23,6,602,PS,exp,44,←,left,←,0.45189489994663745,True,7,1,0,12
Y2-S2-211M23,6,603,PS,exp,33,↑,up,↑,0.5066842999076471,True,7,1,0,12
Y2-S2-211M23,6,604,PS,exp,46,←,right,→,0.794714399962686,False,7,-1,1,13
Y2-S2-211M23,6,605,PS,exp,37,↓,down,↓,0.7680211999686435,True,8,-1,0,13
Y2-S2-211M23,6,606,PS,exp,50,→,right,→,0.5159081000601873,True,8,-1,0,13
Y2-S2-211M23,6,607,PS,exp,32,↑,up,↑,0.6569900000467896,True,8,1,1,14
Y2-S2-211M23,6,608,PS,exp,44,←,left,←,1.0060676999855787,True,7,1,0,14
Y2-S2-211M23,6,609,PS,exp,45,↑,up,↑,0.45216340001206845,True,7,1,0,14
Y2-S2-211M23,6,610,PS,exp,31,↓,down,↓,0.6089493000181392,True,7,1,0,14
Y2-S2-211M23,6,611,PS,exp,34,→,right,→,0.9403778999112546,True,6,1,0,14
Y2-S2-211M23,6,612,PS,exp,44,←,up,↑,0.7590873000444844,False,6,-1,1,15
Y2-S2-211M23,6,613,PS,exp,45,↓,right,→,0.6992454000283033,False,7,-1,0,15
Y2-S2-211M23,6,614,PS,exp,35,←,right,→,1.1283885000739247,False,8,-1,0,15
Y2-S2-211M23,6,615,PS,exp,50,↑,up,↑,0.5887426000554115,True,9,-1,0,15
Y2-S2-211M23,6,616,PS,exp,44,←,left,←,0.4635172000853345,True,9,-1,0,15
Y2-S2-211M23,6,617,PS,exp,37,→,right,→,0.5364655000157654,True,9,1,1,16
Y2-S2-211M23,7,618,PS,intra_train,38,↓,no_key,no_letter,-1.0,False,7,-,-,-
Y2-S2-211M23,7,619,PS,intra_train,33,←,right,→,1.0513705000048503,False,7,-,-,-
Y2-S2-211M23,7,620,PS,intra_train,31,→,right,→,0.539832100039348,True,7,-,-,-
Y2-S2-211M23,7,621,PS,intra_train,37,↑,down,↓,0.730557799921371,False,7,-,-,-
Y2-S2-211M23,7,622,PS,intra_train,33,→,right,→,0.44728210009634495,True,7,-,-,-
Y2-S2-211M23,7,623,PS,exp,27,↓,down,↓,0.6144406000385061,True,5,0,0,0
Y2-S2-211M23,7,624,PS,exp,28,↑,up,↑,0.4766184000764042,True,5,0,0,0
Y2-S2-211M23,7,625,PS,exp,30,↓,right,→,0.586894000065513,False,5,-1,0,0
Y2-S2-211M23,7,626,PS,exp,40,↑,right,→,0.7573299999348819,False,6,-1,0,0
Y2-S2-211M23,7,627,PS,exp,50,←,left,←,0.5493688000133261,True,7,-1,0,0
Y2-S2-211M23,7,628,PS,exp,45,↑,up,↑,0.47164170001633465,True,7,-1,0,0
Y2-S2-211M23,7,629,PS,exp,35,←,right,→,0.9184887999435887,False,7,-1,0,0
Y2-S2-211M23,7,630,PS,exp,43,↑,up,↑,0.48002340004313737,True,8,-1,0,0
Y2-S2-211M23,7,631,PS,exp,34,→,right,→,0.5925856999820098,True,8,-1,0,0
Y2-S2-211M23,7,632,PS,exp,35,←,left,←,0.4426662999903783,True,8,1,1,1
Y2-S2-211M23,7,633,PS,exp,31,↑,up,↑,0.5210157999536023,True,7,1,0,1
Y2-S2-211M23,7,634,PS,exp,28,↓,down,↓,0.6736681000329554,True,7,1,0,1
Y2-S2-211M23,7,635,PS,exp,34,←,left,←,0.4919650999363512,True,7,1,0,1
Y2-S2-211M23,7,636,PS,exp,36,↑,up,↑,0.6593372999923304,True,6,1,0,1
Y2-S2-211M23,7,637,PS,exp,31,←,left,←,0.557635800098069,True,6,1,0,1
Y2-S2-211M23,7,638,PS,exp,50,↑,up,↑,0.5630593999521807,True,6,1,0,1
Y2-S2-211M23,7,639,PS,exp,40,↓,up,↑,0.6326768000144511,False,5,-1,1,2
Y2-S2-211M23,7,640,PS,exp,28,→,right,→,0.7128178999992087,True,6,-1,0,2
Y2-S2-211M23,7,641,PS,exp,25,←,up,↑,0.6897716000676155,False,6,-1,0,2
Y2-S2-211M23,7,642,PS,exp,45,→,right,→,0.5228937000501901,True,7,-1,0,2
Y2-S2-211M23,7,643,PS,exp,31,↓,down,↓,0.6859040999552235,True,7,-1,0,2
Y2-S2-211M23,7,644,PS,exp,40,→,right,→,0.6760987000307068,True,7,1,1,3
Y2-S2-211M23,7,645,PS,exp,40,←,right,→,0.7025444000028074,False,6,-1,1,4
Y2-S2-211M23,7,646,PS,exp,39,↑,up,↑,0.5862398999743164,True,7,-1,0,4
Y2-S2-211M23,7,647,PS,exp,50,←,left,←,0.4581819000886753,True,7,-1,0,4
Y2-S2-211M23,7,648,PS,exp,35,↑,up,↑,0.3777943999739364,True,7,1,1,5
Y2-S2-211M23,7,649,PS,exp,27,↓,down,↓,0.6287795000243932,True,6,1,0,5
Y2-S2-211M23,7,650,PS,exp,27,→,right,→,0.8417424999643117,True,6,1,0,5
Y2-S2-211M23,7,651,PS,exp,43,↓,down,↓,0.5284625999629498,True,6,1,0,5
Y2-S2-211M23,7,652,PS,exp,41,→,right,→,0.7636297999415547,True,5,1,0,5
Y2-S2-211M23,7,653,PS,exp,47,↓,right,→,0.8605188999790698,False,5,-1,1,6
Y2-S2-211M23,7,654,PS,exp,47,→,right,→,0.8519022000255063,True,6,-1,0,6
Y2-S2-211M23,7,655,PS,exp,38,↓,up,↑,1.337300300016068,False,6,-1,0,6
Y2-S2-211M23,7,656,PS,exp,27,↑,up,↑,0.6278418999863788,True,7,-1,0,6
Y2-S2-211M23,7,657,PS,exp,31,←,left,←,0.5272868999745697,True,7,-1,0,6
Y2-S2-211M23,7,658,PS,exp,40,↑,up,↑,0.8475934999296442,True,7,1,1,7
Y2-S2-211M23,7,659,PS,exp,48,←,up,↑,0.7385562000563368,False,6,-1,1,8
Y2-S2-211M23,7,660,PS,exp,42,↑,up,↑,0.49413150001782924,True,7,-1,0,8
Y2-S2-211M23,7,661,PS,exp,48,↓,down,↓,0.5831742000300437,True,7,-1,0,8
Y2-S2-211M23,7,662,PS,exp,42,↑,right,→,0.8669848999707028,False,7,-1,0,8
Y2-S2-211M23,7,663,PS,exp,25,←,left,←,0.5060558000113815,True,8,-1,0,8
Y2-S2-211M23,7,664,PS,exp,50,↓,down,↓,0.47315730003174394,True,8,-1,0,8
Y2-S2-211M23,7,665,PS,exp,38,←,left,←,0.7520825000246987,True,8,1,1,9
Y2-S2-211M23,7,666,PS,exp,32,↑,up,↑,0.6474425999913365,True,7,1,0,9
Y2-S2-211M23,7,667,PS,exp,43,↓,up,↑,0.7201043999521062,False,7,-1,1,10
Y2-S2-211M23,7,668,PS,exp,32,→,right,→,0.6138604000443593,True,8,-1,0,10
Y2-S2-211M23,7,669,PS,exp,32,↓,down,↓,0.6281683000270277,True,8,-1,0,10
Y2-S2-211M23,7,670,PS,exp,29,↑,left,←,1.103562599979341,False,8,-1,0,10
Y2-S2-211M23,7,671,PS,exp,41,→,right,→,0.7894320000195876,True,9,-1,0,10
Y2-S2-211M23,7,672,PS,exp,27,↑,up,↑,0.9622328999685124,True,9,-1,0,10
Y2-S2-211M23,7,673,PS,exp,42,↓,right,→,0.9197239999193698,False,9,-1,0,10
Y2-S2-211M23,7,674,PS,exp,44,↑,right,→,0.4478853000327945,False,10,-1,0,10
Y2-S2-211M23,7,675,PS,exp,34,←,right,→,0.6567213000962511,False,11,-1,0,10
Y2-S2-211M23,7,676,PS,exp,45,↑,up,↑,0.4976287999888882,True,12,-1,0,10
Y2-S2-211M23,7,677,PS,exp,32,→,right,→,0.5129054000135511,True,12,-1,0,10
Y2-S2-211M23,7,678,PS,exp,37,←,right,→,0.6910398000618443,False,12,-1,0,10
Y2-S2-211M23,7,679,PS,exp,33,↑,right,→,0.8713648000266403,False,13,-1,0,10
Y2-S2-211M23,7,680,PS,exp,43,→,up,↑,0.5819167000008747,False,14,-1,0,10
Y2-S2-211M23,7,681,PS,exp,43,←,left,←,0.5904503000201657,True,15,-1,0,10
Y2-S2-211M23,7,682,PS,exp,27,↓,down,↓,0.635723500046879,True,15,-1,0,10
Y2-S2-211M23,7,683,PS,exp,45,↑,up,↑,0.6043056999333203,True,15,1,1,11
Y2-S2-211M23,7,684,PS,exp,47,←,right,→,0.78161760000512,False,14,-1,1,12
Y2-S2-211M23,7,685,PS,exp,37,↓,up,↑,0.7980795999756083,False,15,-1,0,12
Y2-S2-211M23,7,686,PS,exp,46,←,up,↑,0.5980402000714093,False,16,-1,0,12
Y2-S2-211M23,7,687,PS,exp,36,→,right,→,0.4997912999242544,True,17,-1,0,12
Y2-S2-211M23,7,688,PS,exp,49,↑,up,↑,0.6006732999812812,True,17,-1,0,12
Y2-S2-211M23,7,689,PS,exp,27,→,right,→,0.688857699977234,True,17,1,1,13
Y2-S2-211M23,7,690,PS,exp,36,↑,up,↑,1.6520896999863908,True,16,1,0,13
Y2-S2-211M23,7,691,PS,exp,31,→,right,→,0.560098799993284,True,16,1,0,13
Y2-S2-211M23,7,692,PS,exp,42,↓,down,↓,0.6187429000856355,True,16,1,0,13
Y2-S2-211M23,7,693,PS,exp,48,↑,up,↑,0.7857396000763401,True,15,1,0,13
Y2-S2-211M23,7,694,PS,exp,37,←,left,←,0.4943591000046581,True,15,1,0,13
Y2-S2-211M23,7,695,PS,exp,40,→,right,→,0.3838814999908209,True,15,1,0,13
Y2-S2-211M23,7,696,PS,exp,47,←,left,←,0.5574419000186026,True,14,1,0,13
Y2-S2-211M23,7,697,PS,exp,47,→,right,→,0.5814597000135109,True,14,1,0,13
Y2-S2-211M23,7,698,PS,exp,35,↓,down,↓,0.5284283000510186,True,14,1,0,13
Y2-S2-211M23,7,699,PS,exp,42,↑,up,↑,0.6528568000067025,True,13,1,0,13
Y2-S2-211M23,7,700,PS,exp,30,↓,down,↓,0.6336312999483198,True,13,1,0,13
Y2-S2-211M23,7,701,PS,exp,42,↑,up,↑,0.501590900006704,True,13,1,0,13
Y2-S2-211M23,7,702,PS,exp,26,→,right,→,0.5746411000145599,True,12,1,0,13
Y2-S2-211M23,7,703,PS,exp,48,←,left,←,0.6624254999915138,True,12,1,0,13
Y2-S2-211M23,7,704,PS,exp,26,↓,down,↓,0.6378362999530509,True,12,1,0,13
Y2-S2-211M23,7,705,PS,exp,48,←,left,←,0.4861005999846384,True,11,1,0,13
Y2-S2-211M23,7,706,PS,exp,48,↑,up,↑,0.6263632000191137,True,11,1,0,13
Y2-S2-211M23,7,707,PS,exp,25,←,right,→,1.5725733999861404,False,11,-1,1,14
Y2-S2-211M23,7,708,PS,exp,32,→,right,→,0.7194451000541449,True,12,-1,0,14
Y2-S2-211M23,7,709,PS,exp,41,↓,up,↑,1.0873666999395937,False,12,-1,0,14
Y2-S2-211M23,7,710,PS,exp,39,←,left,←,0.5242928999941796,True,13,-1,0,14
Y2-S2-211M23,7,711,PS,exp,41,↓,up,↑,1.3577296999283135,False,13,-1,0,14
Y2-S2-211M23,7,712,PS,exp,39,↑,no_key,no_letter,-1.0,False,14,-1,0,14
Y2-S2-211M23,7,713,PS,exp,50,←,left,←,0.4869904000079259,True,15,-1,0,14
Y2-S2-211M23,7,714,PS,exp,32,→,right,→,0.5486405999399722,True,15,-1,0,14
Y2-S2-211M23,7,715,PS,exp,27,↑,up,↑,0.4352266000350937,True,15,1,1,15
Y2-S2-211M23,7,716,PS,exp,33,←,left,←,0.4128814999712631,True,14,1,0,15
Y2-S2-211M23,7,717,PS,exp,34,↓,down,↓,0.6608698000200093,True,14,1,0,15
Y2-S2-211M23,7,718,PS,exp,47,←,left,←,0.40325279999524355,True,14,1,0,15
Y2-S2-211M23,7,719,PS,exp,38,→,right,→,0.46748719993047416,True,13,1,0,15
Y2-S2-211M23,7,720,PS,exp,49,←,left,←,0.6068208999931812,True,13,1,0,15
Y2-S2-211M23,7,721,PS,exp,25,↓,down,↓,0.6646852000849321,True,13,1,0,15
Y2-S2-211M23,7,722,PS,exp,40,↑,up,↑,0.5912682999623939,True,12,1,0,15
Y2-S2-211M23,7,723,PS,exp,35,→,right,→,0.5783144999295473,True,12,1,0,15
Y2-S2-211M23,7,724,PS,exp,36,↑,up,↑,0.4813089999370277,True,12,1,0,15
Y2-S2-211M23,7,725,PS,exp,43,→,right,→,0.44402039994020015,True,11,1,0,15
Y2-S2-211M23,7,726,PS,exp,46,↓,down,↓,0.6281521000200883,True,11,1,0,15
Y2-S2-211M23,7,727,PS,exp,49,←,right,→,0.9235784000484273,False,11,-1,1,16
Y2-S2-211M23,8,728,AS,intra_train,43,↓,up,↑,1.5737374000018463,False,24,-,-,-
Y2-S2-211M23,8,729,AS,intra_train,33,←,left,←,1.3310439999913797,True,24,-,-,-
Y2-S2-211M23,8,730,AS,intra_train,48,↓,down,↓,0.8152497999835759,True,24,-,-,-
Y2-S2-211M23,8,731,AS,intra_train,40,↑,up,↑,0.6311367000453174,True,24,-,-,-
Y2-S2-211M23,8,732,AS,intra_train,28,↓,down,↓,0.767175699933432,True,24,-,-,-
Y2-S2-211M23,8,733,AS,exp,46,↑,up,↑,0.637565299984999,True,16,0,0,0
Y2-S2-211M23,8,734,AS,exp,48,→,right,→,0.5486641000024974,True,16,0,0,0
Y2-S2-211M23,8,735,AS,exp,34,←,left,←,0.6222782999975607,True,16,1,0,0
Y2-S2-211M23,8,736,AS,exp,34,↑,up,↑,0.7929190000286326,True,15,1,0,0
Y2-S2-211M23,8,737,AS,exp,28,↓,down,↓,0.7999777999939397,True,15,1,0,0
Y2-S2-211M23,8,738,AS,exp,48,←,right,→,0.8310240000719205,False,15,-1,1,1
Y2-S2-211M23,8,739,AS,exp,45,→,right,→,0.7646180000156164,True,16,-1,0,1
Y2-S2-211M23,8,740,AS,exp,43,↓,down,↓,0.8215618000831455,True,16,-1,0,1
Y2-S2-211M23,8,741,AS,exp,36,→,right,→,0.5864937000442296,True,16,1,1,2
Y2-S2-211M23,8,742,AS,exp,41,↑,up,↑,0.5704313999740407,True,15,1,0,2
Y2-S2-211M23,8,743,AS,exp,44,←,left,←,0.4429579999996349,True,15,1,0,2
Y2-S2-211M23,8,744,AS,exp,35,↓,down,↓,1.0137464998988435,True,15,1,0,2
Y2-S2-211M23,8,745,AS,exp,36,←,left,←,0.4700023999903351,True,14,1,0,2
Y2-S2-211M23,8,746,AS,exp,50,→,right,→,1.1619657999835908,True,14,1,0,2
Y2-S2-211M23,8,747,AS,exp,31,↑,up,↑,0.646053500007838,True,14,1,0,2
Y2-S2-211M23,8,748,AS,exp,50,←,right,→,0.7098296000622213,False,13,-1,1,3
Y2-S2-211M23,8,749,AS,exp,26,↓,down,↓,0.7638852000236511,True,14,-1,0,3
Y2-S2-211M23,8,750,AS,exp,38,↑,up,↑,0.7292084000073373,True,14,-1,0,3
Y2-S2-211M23,8,751,AS,exp,31,↓,up,↑,0.6706918999552727,False,14,-1,0,3
Y2-S2-211M23,8,752,AS,exp,46,←,left,←,0.6501984000205994,True,15,-1,0,3
Y2-S2-211M23,8,753,AS,exp,41,→,right,→,0.6026834999211133,True,15,-1,0,3
Y2-S2-211M23,8,754,AS,exp,47,←,left,←,0.6418521999148652,True,15,1,1,4
Y2-S2-211M23,8,755,AS,exp,38,↑,up,↑,0.6766780000180006,True,14,1,0,4
Y2-S2-211M23,8,756,AS,exp,29,←,left,←,0.6386536000063643,True,14,1,0,4
Y2-S2-211M23,8,757,AS,exp,46,↓,down,↓,0.806122999987565,True,14,1,0,4
Y2-S2-211M23,8,758,AS,exp,36,↑,left,←,1.159095999901183,False,13,-1,1,5
Y2-S2-211M23,8,759,AS,exp,45,↓,up,↑,0.8966479999944568,False,14,-1,0,5
Y2-S2-211M23,8,760,AS,exp,35,→,right,→,0.671470700064674,True,15,-1,0,5
Y2-S2-211M23,8,761,AS,exp,44,↑,up,↑,0.5432443999452516,True,15,-1,0,5
Y2-S2-211M23,8,762,AS,exp,28,→,right,→,0.7712267000460997,True,15,1,1,6
Y2-S2-211M23,8,763,AS,exp,29,↓,up,↑,0.6536085999105126,False,14,-1,1,7
Y2-S2-211M23,8,764,AS,exp,38,←,left,←,0.6601335000013933,True,15,-1,0,7
Y2-S2-211M23,8,765,AS,exp,27,↑,up,↑,0.6019273999845609,True,15,-1,0,7
Y2-S2-211M23,8,766,AS,exp,26,→,right,→,0.7668541999300942,True,15,1,1,8
Y2-S2-211M23,8,767,AS,exp,47,←,up,↑,0.7958110999315977,False,14,-1,1,9
Y2-S2-211M23,8,768,AS,exp,33,→,right,→,0.6049352999543771,True,15,-1,0,9
Y2-S2-211M23,8,769,AS,exp,47,↓,down,↓,0.6863431000383571,True,15,-1,0,9
Y2-S2-211M23,8,770,AS,exp,38,↑,up,↑,0.5891563000623137,True,15,1,1,10
Y2-S2-211M23,8,771,AS,exp,41,←,right,→,0.6452432000078261,False,14,-1,1,11
Y2-S2-211M23,8,772,AS,exp,42,↑,up,↑,0.7072734000394121,True,15,-1,0,11
Y2-S2-211M23,8,773,AS,exp,41,→,up,↑,0.809804999968037,False,15,-1,0,11
Y2-S2-211M23,8,774,AS,exp,47,←,left,←,0.4656516000395641,True,16,-1,0,11
Y2-S2-211M23,8,775,AS,exp,42,→,right,→,0.8309946999652311,True,16,-1,0,11
Y2-S2-211M23,8,776,AS,exp,45,↓,down,↓,0.8177431999938563,True,16,1,1,12
Y2-S2-211M23,8,777,AS,exp,34,→,right,→,1.287316199974157,True,15,1,0,12
Y2-S2-211M23,8,778,AS,exp,38,↑,up,↑,0.5172893000999466,True,15,1,0,12
Y2-S2-211M23,8,779,AS,exp,47,→,right,→,0.5000005000038072,True,15,1,0,12
Y2-S2-211M23,8,780,AS,exp,42,↓,down,↓,0.6347344000823796,True,14,1,0,12
Y2-S2-211M23,8,781,AS,exp,32,↑,right,→,1.1558071000035852,False,14,-1,1,13
Y2-S2-211M23,8,782,AS,exp,26,→,right,→,0.6781111999880522,True,15,-1,0,13
Y2-S2-211M23,8,783,AS,exp,42,↑,up,↑,0.4510245999554172,True,15,-1,0,13
Y2-S2-211M23,8,784,AS,exp,37,↓,down,↓,0.7436073999851942,True,15,1,1,14
Y2-S2-211M23,8,785,AS,exp,32,↑,up,↑,0.4219186999835074,True,14,1,0,14
Y2-S2-211M23,8,786,AS,exp,42,←,right,→,0.6009234000230208,False,14,-1,1,15
Y2-S2-211M23,8,787,AS,exp,42,↑,up,↑,1.004382700077258,True,15,-1,0,15
Y2-S2-211M23,8,788,AS,exp,27,→,right,→,0.6759059000760317,True,15,-1,0,15
Y2-S2-211M23,8,789,AS,exp,28,↑,up,↑,0.5100751999998465,True,15,1,1,16
