PART_ID,Block_no,Trial_no,Block_type,Trial_type,CSI,Stim_letter,Key_pressed,letter_choose,Rt,Corr,Stimulus Time,Level,Reversal,Revs_count
Y2-S2-131M23,1,1,PS,train,48,↑,up,↑,0.7065679000224918,True,30,-,-,-
Y2-S2-131M23,1,2,PS,train,42,←,left,←,0.6170548000372946,True,30,-,-,-
Y2-S2-131M23,1,3,PS,train,42,↑,up,↑,1.2838065000250936,True,30,-,-,-
Y2-S2-131M23,1,4,PS,train,48,→,right,→,1.682156200055033,True,30,-,-,-
Y2-S2-131M23,1,5,PS,train,41,↓,down,↓,0.8225257999729365,True,30,-,-,-
Y2-S2-131M23,1,6,PS,train,48,↑,up,↑,0.7969547000247985,True,30,-,-,-
Y2-S2-131M23,1,7,PS,train,39,→,right,→,0.5840503999497741,True,30,-,-,-
Y2-S2-131M23,1,8,PS,train,40,↑,up,↑,0.5672393999993801,True,30,-,-,-
Y2-S2-131M23,1,9,PS,train,27,↓,down,↓,0.8424312002025545,True,30,-,-,-
Y2-S2-131M23,1,10,PS,train,38,←,left,←,0.7911432001274079,True,30,-,-,-
Y2-S2-131M23,2,11,AS,train,36,↓,down,↓,0.8836515001021326,True,45,-,-,-
Y2-S2-131M23,2,12,AS,train,37,←,left,←,0.6009646998718381,True,45,-,-,-
Y2-S2-131M23,2,13,AS,train,32,↓,down,↓,0.784058399964124,True,45,-,-,-
Y2-S2-131M23,2,14,AS,train,26,↑,up,↑,0.8341334001161158,True,45,-,-,-
Y2-S2-131M23,2,15,AS,train,27,↓,down,↓,0.9398308000527322,True,45,-,-,-
Y2-S2-131M23,2,16,AS,train,30,↑,up,↑,0.9548072998877615,True,45,-,-,-
Y2-S2-131M23,2,17,AS,train,41,↓,down,↓,0.7177987000904977,True,45,-,-,-
Y2-S2-131M23,2,18,AS,train,43,→,right,→,0.7674626000225544,True,45,-,-,-
Y2-S2-131M23,2,19,AS,train,39,←,left,←,0.567776900017634,True,45,-,-,-
Y2-S2-131M23,2,20,AS,train,31,↑,up,↑,0.7672444002237171,True,45,-,-,-
Y2-S2-131M23,-,21,PS,adaptive,42,↓,down,↓,1.1037433000747114,True,10,0,0,0
Y2-S2-131M23,-,22,PS,adaptive,29,→,right,→,0.6413690999615937,True,10,0,0,0
Y2-S2-131M23,-,23,PS,adaptive,34,←,left,←,0.5225951001048088,True,10,1,0,0
Y2-S2-131M23,-,24,PS,adaptive,33,→,up,↑,0.8162988999392837,False,9,-1,1,1
Y2-S2-131M23,-,25,PS,adaptive,34,↑,up,↑,0.6170157000888139,True,10,-1,0,1
Y2-S2-131M23,-,26,PS,adaptive,48,→,right,→,0.602267999900505,True,10,-1,0,1
Y2-S2-131M23,-,27,PS,adaptive,43,↓,down,↓,0.6934857000596821,True,10,1,1,2
Y2-S2-131M23,-,28,PS,adaptive,36,→,left,←,0.7926622000522912,False,9,-1,1,3
Y2-S2-131M23,-,29,PS,adaptive,43,↓,down,↓,0.852089200168848,True,10,-1,0,3
Y2-S2-131M23,-,30,PS,adaptive,41,↑,up,↑,0.536993799963966,True,10,-1,0,3
Y2-S2-131M23,-,31,PS,adaptive,26,→,right,→,0.835873199859634,True,10,1,1,4
Y2-S2-131M23,-,32,AS,adaptive,47,↓,down,↓,0.7051410002168268,True,20,0,0,0
Y2-S2-131M23,-,33,AS,adaptive,27,→,right,→,0.6453960000071675,True,20,0,0,0
Y2-S2-131M23,-,34,AS,adaptive,49,↓,down,↓,0.6824829000979662,True,20,1,0,0
Y2-S2-131M23,-,35,AS,adaptive,49,←,left,←,0.611797200050205,True,19,1,0,0
Y2-S2-131M23,-,36,AS,adaptive,26,↓,down,↓,0.7569122000131756,True,19,1,0,0
Y2-S2-131M23,-,37,AS,adaptive,26,→,right,→,0.5141988999675959,True,19,1,0,0
Y2-S2-131M23,-,38,AS,adaptive,43,←,left,←,0.6270570000633597,True,18,1,0,0
Y2-S2-131M23,-,39,AS,adaptive,42,→,right,→,0.6794008000288159,True,18,1,0,0
Y2-S2-131M23,-,40,AS,adaptive,28,↓,down,↓,0.7103169001638889,True,18,1,0,0
Y2-S2-131M23,-,41,AS,adaptive,34,→,right,→,0.5917588998563588,True,17,1,0,0
Y2-S2-131M23,-,42,AS,adaptive,27,↑,up,↑,0.6595868000295013,True,17,1,0,0
Y2-S2-131M23,-,43,AS,adaptive,35,←,left,←,0.6101236999966204,True,17,1,0,0
Y2-S2-131M23,-,44,AS,adaptive,49,↓,down,↓,0.7227648999541998,True,16,1,0,0
Y2-S2-131M23,-,45,AS,adaptive,46,←,left,←,0.5945675000548363,True,16,1,0,0
Y2-S2-131M23,-,46,AS,adaptive,46,↓,down,↓,0.6661437000147998,True,16,1,0,0
Y2-S2-131M23,-,47,AS,adaptive,32,←,left,←,0.6346314998809248,True,15,1,0,0
Y2-S2-131M23,-,48,AS,adaptive,46,↑,up,↑,0.6102779998909682,True,15,1,0,0
Y2-S2-131M23,-,49,AS,adaptive,41,→,right,→,0.8056679998990148,True,15,1,0,0
Y2-S2-131M23,-,50,AS,adaptive,44,←,left,←,0.5564117000903934,True,14,1,0,0
Y2-S2-131M23,-,51,AS,adaptive,40,→,right,→,0.6914921998977661,True,14,1,0,0
Y2-S2-131M23,-,52,AS,adaptive,32,←,left,←,0.7525902998168021,True,14,1,0,0
Y2-S2-131M23,-,53,AS,adaptive,46,↓,down,↓,0.76160420011729,True,13,1,0,0
Y2-S2-131M23,-,54,AS,adaptive,30,←,right,→,0.650200700154528,False,13,-1,1,1
Y2-S2-131M23,-,55,AS,adaptive,45,↓,down,↓,0.709590399870649,True,14,-1,0,1
Y2-S2-131M23,-,56,AS,adaptive,32,←,left,←,0.5793226999230683,True,14,-1,0,1
Y2-S2-131M23,-,57,AS,adaptive,32,↓,down,↓,0.7229607999324799,True,14,1,1,2
Y2-S2-131M23,-,58,AS,adaptive,46,→,right,→,0.6437194000463933,True,13,1,0,2
Y2-S2-131M23,-,59,AS,adaptive,50,↓,up,↑,0.7979280999861658,False,13,-1,1,3
Y2-S2-131M23,-,60,AS,adaptive,28,←,left,←,0.5645985000301152,True,14,-1,0,3
Y2-S2-131M23,-,61,AS,adaptive,50,→,right,→,0.6128609001170844,True,14,-1,0,3
Y2-S2-131M23,-,62,AS,adaptive,45,↑,up,↑,0.6061115998309106,True,14,1,1,4
Y2-S2-131M23,1,63,PS,intra_train,26,→,left,←,0.7890580000821501,False,13,-,-,-
Y2-S2-131M23,1,64,PS,intra_train,44,↓,down,↓,0.676873599877581,True,13,-,-,-
Y2-S2-131M23,1,65,PS,intra_train,27,↑,up,↑,0.5887390000279993,True,13,-,-,-
Y2-S2-131M23,1,66,PS,intra_train,28,→,right,→,0.5530472998507321,True,13,-,-,-
Y2-S2-131M23,1,67,PS,intra_train,33,←,left,←,0.5250126998871565,True,13,-,-,-
Y2-S2-131M23,1,68,PS,exp,27,↓,down,↓,0.7603213000111282,True,9,0,0,0
Y2-S2-131M23,1,69,PS,exp,30,←,left,←,0.44848419982008636,True,9,0,0,0
Y2-S2-131M23,1,70,PS,exp,33,↓,right,→,0.6344556000549346,False,9,-1,0,0
Y2-S2-131M23,1,71,PS,exp,36,→,right,→,0.547816000180319,True,10,-1,0,0
Y2-S2-131M23,1,72,PS,exp,33,←,left,←,0.47539929999038577,True,10,-1,0,0
Y2-S2-131M23,1,73,PS,exp,37,↑,up,↑,0.653633699985221,True,10,1,1,1
Y2-S2-131M23,1,74,PS,exp,40,→,right,→,0.46089610015042126,True,9,1,0,1
Y2-S2-131M23,1,75,PS,exp,42,←,left,←,0.432608800008893,True,9,1,0,1
Y2-S2-131M23,1,76,PS,exp,39,↓,left,←,0.4863956000190228,False,9,-1,1,2
Y2-S2-131M23,1,77,PS,exp,29,↑,up,↑,0.6761304000392556,True,10,-1,0,2
Y2-S2-131M23,1,78,PS,exp,42,→,right,→,0.5486798998899758,True,10,-1,0,2
Y2-S2-131M23,1,79,PS,exp,35,←,left,←,0.8126095000188798,True,10,1,1,3
Y2-S2-131M23,1,80,PS,exp,40,↑,up,↑,0.5370570998638868,True,9,1,0,3
Y2-S2-131M23,1,81,PS,exp,50,←,left,←,0.556186500005424,True,9,1,0,3
Y2-S2-131M23,1,82,PS,exp,47,→,right,→,0.5088626001961529,True,9,1,0,3
Y2-S2-131M23,1,83,PS,exp,32,←,left,←,0.48335549980401993,True,8,1,0,3
Y2-S2-131M23,1,84,PS,exp,42,→,right,→,0.4824284999631345,True,8,1,0,3
Y2-S2-131M23,1,85,PS,exp,48,↓,down,↓,0.7806904001627117,True,8,1,0,3
Y2-S2-131M23,1,86,PS,exp,35,←,left,←,0.7059407001361251,True,7,1,0,3
Y2-S2-131M23,1,87,PS,exp,45,↑,up,↑,0.6713935998268425,True,7,1,0,3
Y2-S2-131M23,1,88,PS,exp,31,→,right,→,0.8146055999677628,True,7,1,0,3
Y2-S2-131M23,1,89,PS,exp,48,↑,left,←,0.6045716998632997,False,6,-1,1,4
Y2-S2-131M23,1,90,PS,exp,35,↓,up,↑,0.5759988001082093,False,7,-1,0,4
Y2-S2-131M23,1,91,PS,exp,32,→,right,→,0.5743100000545382,True,8,-1,0,4
Y2-S2-131M23,1,92,PS,exp,37,←,left,←,0.37835090002045035,True,8,-1,0,4
Y2-S2-131M23,1,93,PS,exp,37,↓,down,↓,0.6564642998855561,True,8,1,1,5
Y2-S2-131M23,1,94,PS,exp,47,→,up,↑,0.5697135000955313,False,7,-1,1,6
Y2-S2-131M23,1,95,PS,exp,50,←,left,←,0.5196732000913471,True,8,-1,0,6
Y2-S2-131M23,1,96,PS,exp,50,↓,down,↓,0.7632061999756843,True,8,-1,0,6
Y2-S2-131M23,1,97,PS,exp,33,→,right,→,0.5136938998475671,True,8,1,1,7
Y2-S2-131M23,1,98,PS,exp,37,↑,left,←,0.5907950999680907,False,7,-1,1,8
Y2-S2-131M23,1,99,PS,exp,38,→,right,→,0.5636532001662999,True,8,-1,0,8
Y2-S2-131M23,1,100,PS,exp,42,←,up,↑,0.6739234998822212,False,8,-1,0,8
Y2-S2-131M23,1,101,PS,exp,29,↑,up,↑,0.6080436001066118,True,9,-1,0,8
Y2-S2-131M23,1,102,PS,exp,28,→,right,→,0.6053903999272734,True,9,-1,0,8
Y2-S2-131M23,1,103,PS,exp,45,↓,up,↑,0.6771235000342131,False,9,-1,0,8
Y2-S2-131M23,1,104,PS,exp,37,↑,down,↓,0.8512625999283046,False,10,-1,0,8
Y2-S2-131M23,1,105,PS,exp,41,↓,down,↓,0.774810700211674,True,11,-1,0,8
Y2-S2-131M23,1,106,PS,exp,37,←,left,←,0.6184516998473555,True,11,-1,0,8
Y2-S2-131M23,1,107,PS,exp,31,↑,up,↑,0.5911946999840438,True,11,1,1,9
Y2-S2-131M23,1,108,PS,exp,26,↓,down,↓,0.7709472998976707,True,10,1,0,9
Y2-S2-131M23,1,109,PS,exp,37,→,left,←,0.6017053998075426,False,10,-1,1,10
Y2-S2-131M23,1,110,PS,exp,31,↑,up,↑,0.566817699931562,True,11,-1,0,10
Y2-S2-131M23,1,111,PS,exp,40,→,right,→,0.5526461999397725,True,11,-1,0,10
Y2-S2-131M23,1,112,PS,exp,48,↓,up,↑,0.6414908999577165,False,11,-1,0,10
Y2-S2-131M23,1,113,PS,exp,27,↑,up,↑,0.6647439000662416,True,12,-1,0,10
Y2-S2-131M23,1,114,PS,exp,25,→,right,→,0.5400273001287133,True,12,-1,0,10
Y2-S2-131M23,1,115,PS,exp,30,←,left,←,0.513370499946177,True,12,1,1,11
Y2-S2-131M23,1,116,PS,exp,33,↑,up,↑,0.5625805000308901,True,11,1,0,11
Y2-S2-131M23,1,117,PS,exp,46,↓,down,↓,0.6653873999603093,True,11,1,0,11
Y2-S2-131M23,1,118,PS,exp,26,→,right,→,0.5433284000027925,True,11,1,0,11
Y2-S2-131M23,1,119,PS,exp,35,↓,up,↑,0.744112100219354,False,10,-1,1,12
Y2-S2-131M23,1,120,PS,exp,28,←,right,→,0.8149057000409812,False,11,-1,0,12
Y2-S2-131M23,1,121,PS,exp,40,↑,up,↑,0.5567483999766409,True,12,-1,0,12
Y2-S2-131M23,1,122,PS,exp,31,↓,down,↓,0.6633953000418842,True,12,-1,0,12
Y2-S2-131M23,1,123,PS,exp,27,→,right,→,0.46303969994187355,True,12,1,1,13
Y2-S2-131M23,1,124,PS,exp,31,←,right,→,0.8450454999692738,False,11,-1,1,14
Y2-S2-131M23,1,125,PS,exp,41,↓,down,↓,0.6925559998489916,True,12,-1,0,14
Y2-S2-131M23,1,126,PS,exp,38,←,left,←,0.5245600000489503,True,12,-1,0,14
Y2-S2-131M23,1,127,PS,exp,39,↓,down,↓,0.6262761999387294,True,12,1,1,15
Y2-S2-131M23,1,128,PS,exp,30,→,right,→,0.5029483998659998,True,11,1,0,15
Y2-S2-131M23,1,129,PS,exp,43,↓,down,↓,0.7078760000877082,True,11,1,0,15
Y2-S2-131M23,1,130,PS,exp,37,↑,up,↑,0.5019991002045572,True,11,1,0,15
Y2-S2-131M23,1,131,PS,exp,41,←,left,←,0.4368974999524653,True,10,1,0,15
Y2-S2-131M23,1,132,PS,exp,28,→,right,→,0.49485030001960695,True,10,1,0,15
Y2-S2-131M23,1,133,PS,exp,25,↑,left,←,0.5603271001018584,False,10,-1,1,16
Y2-S2-131M23,2,134,AS,intra_train,27,↓,down,↓,0.664615900022909,True,19,-,-,-
Y2-S2-131M23,2,135,AS,intra_train,47,↑,up,↑,0.5985520000103861,True,19,-,-,-
Y2-S2-131M23,2,136,AS,intra_train,39,↓,down,↓,0.7068245999980718,True,19,-,-,-
Y2-S2-131M23,2,137,AS,intra_train,27,→,right,→,0.626569899963215,True,19,-,-,-
Y2-S2-131M23,2,138,AS,intra_train,30,↑,up,↑,0.6546599001158029,True,19,-,-,-
Y2-S2-131M23,2,139,AS,exp,32,→,right,→,0.61478740000166,True,13,0,0,0
Y2-S2-131M23,2,140,AS,exp,28,↑,up,↑,0.8418358000926673,True,13,0,0,0
Y2-S2-131M23,2,141,AS,exp,46,→,right,→,0.5556369998957962,True,13,1,0,0
Y2-S2-131M23,2,142,AS,exp,27,↑,up,↑,0.5766325001604855,True,12,1,0,0
Y2-S2-131M23,2,143,AS,exp,46,←,right,→,0.6683501999359578,False,12,-1,1,1
Y2-S2-131M23,2,144,AS,exp,29,→,right,→,0.6239344999194145,True,13,-1,0,1
Y2-S2-131M23,2,145,AS,exp,28,←,left,←,0.5747539000585675,True,13,-1,0,1
Y2-S2-131M23,2,146,AS,exp,48,→,right,→,0.5577140999957919,True,13,1,1,2
Y2-S2-131M23,2,147,AS,exp,33,↓,up,↑,0.5659112001303583,False,12,-1,1,3
Y2-S2-131M23,2,148,AS,exp,37,←,left,←,0.5074915001168847,True,13,-1,0,3
Y2-S2-131M23,2,149,AS,exp,27,↑,up,↑,0.5862741998862475,True,13,-1,0,3
Y2-S2-131M23,2,150,AS,exp,31,→,right,→,0.8437820000108331,True,13,1,1,4
Y2-S2-131M23,2,151,AS,exp,42,↑,up,↑,0.6443164001684636,True,12,1,0,4
Y2-S2-131M23,2,152,AS,exp,38,↓,down,↓,0.6697805998846889,True,12,1,0,4
Y2-S2-131M23,2,153,AS,exp,33,↑,up,↑,0.6094106999225914,True,12,1,0,4
Y2-S2-131M23,2,154,AS,exp,36,→,right,→,0.689500099979341,True,11,1,0,4
Y2-S2-131M23,2,155,AS,exp,35,↑,up,↑,0.7602031000424176,True,11,1,0,4
Y2-S2-131M23,2,156,AS,exp,32,→,right,→,0.5703359001781791,True,11,1,0,4
Y2-S2-131M23,2,157,AS,exp,28,←,left,←,0.5447893999516964,True,10,1,0,4
Y2-S2-131M23,2,158,AS,exp,40,↑,up,↑,0.5929034999571741,True,10,1,0,4
Y2-S2-131M23,2,159,AS,exp,28,→,right,→,0.5961670000106096,True,10,1,0,4
Y2-S2-131M23,2,160,AS,exp,31,↓,up,↑,0.6388787999749184,False,9,-1,1,5
Y2-S2-131M23,2,161,AS,exp,32,←,left,←,0.6263091000728309,True,10,-1,0,5
Y2-S2-131M23,2,162,AS,exp,29,↑,up,↑,0.5792037998326123,True,10,-1,0,5
Y2-S2-131M23,2,163,AS,exp,46,←,left,←,0.5719553001690656,True,10,1,1,6
Y2-S2-131M23,2,164,AS,exp,45,→,right,→,0.6119433001149446,True,9,1,0,6
Y2-S2-131M23,2,165,AS,exp,35,↑,up,↑,0.4992052000015974,True,9,1,0,6
Y2-S2-131M23,2,166,AS,exp,33,→,right,→,0.6358668999746442,True,9,1,0,6
Y2-S2-131M23,2,167,AS,exp,50,↑,up,↑,0.6102638999000192,True,8,1,0,6
Y2-S2-131M23,2,168,AS,exp,26,→,right,→,0.6127134000416845,True,8,1,0,6
Y2-S2-131M23,2,169,AS,exp,34,↑,down,↓,0.7566311999689788,False,8,-1,1,7
Y2-S2-131M23,2,170,AS,exp,49,←,up,↑,0.6834092999342829,False,9,-1,0,7
Y2-S2-131M23,2,171,AS,exp,27,↓,up,↑,0.834691199939698,False,10,-1,0,7
Y2-S2-131M23,2,172,AS,exp,29,↑,down,↓,1.0301846999209374,False,11,-1,0,7
Y2-S2-131M23,2,173,AS,exp,41,→,right,→,0.6493647999595851,True,12,-1,0,7
Y2-S2-131M23,2,174,AS,exp,37,←,left,←,0.6202358999289572,True,12,-1,0,7
Y2-S2-131M23,2,175,AS,exp,32,→,right,→,0.5622369998600334,True,12,1,1,8
Y2-S2-131M23,2,176,AS,exp,28,↑,up,↑,0.5144978000316769,True,11,1,0,8
Y2-S2-131M23,2,177,AS,exp,40,↓,down,↓,0.6523277999367565,True,11,1,0,8
Y2-S2-131M23,2,178,AS,exp,28,←,right,→,0.44742970005609095,False,11,-1,1,9
Y2-S2-131M23,2,179,AS,exp,31,↑,up,↑,0.5828899999614805,True,12,-1,0,9
Y2-S2-131M23,2,180,AS,exp,34,↓,down,↓,0.6675374999176711,True,12,-1,0,9
Y2-S2-131M23,2,181,AS,exp,46,→,right,→,0.5566971998196095,True,12,1,1,10
Y2-S2-131M23,2,182,AS,exp,33,↑,up,↑,0.60475860000588,True,11,1,0,10
Y2-S2-131M23,2,183,AS,exp,41,↓,down,↓,0.6910593998618424,True,11,1,0,10
Y2-S2-131M23,2,184,AS,exp,39,→,left,←,0.679465499939397,False,11,-1,1,11
Y2-S2-131M23,2,185,AS,exp,41,↓,down,↓,0.6775408999528736,True,12,-1,0,11
Y2-S2-131M23,2,186,AS,exp,37,↑,up,↑,0.6263047999236733,True,12,-1,0,11
Y2-S2-131M23,2,187,AS,exp,44,←,left,←,0.5936616999097168,True,12,1,1,12
Y2-S2-131M23,2,188,AS,exp,37,↓,up,↑,0.584638400003314,False,11,-1,1,13
Y2-S2-131M23,2,189,AS,exp,29,→,left,←,0.5999728001188487,False,12,-1,0,13
Y2-S2-131M23,2,190,AS,exp,48,↑,up,↑,0.6686662000138313,True,13,-1,0,13
Y2-S2-131M23,2,191,AS,exp,41,↓,down,↓,0.719962399918586,True,13,-1,0,13
Y2-S2-131M23,2,192,AS,exp,28,←,left,←,0.6085196000058204,True,13,1,1,14
Y2-S2-131M23,2,193,AS,exp,27,↑,up,↑,0.6342017999850214,True,12,1,0,14
Y2-S2-131M23,2,194,AS,exp,37,↓,down,↓,0.6510199001058936,True,12,1,0,14
Y2-S2-131M23,2,195,AS,exp,31,←,left,←,0.5327168998774141,True,12,1,0,14
Y2-S2-131M23,2,196,AS,exp,25,↑,up,↑,0.5314846998080611,True,11,1,0,14
Y2-S2-131M23,2,197,AS,exp,45,↓,down,↓,0.7869810999836773,True,11,1,0,14
Y2-S2-131M23,2,198,AS,exp,36,←,left,←,0.5657518999651074,True,11,1,0,14
Y2-S2-131M23,2,199,AS,exp,30,↓,down,↓,0.7390081998892128,True,10,1,0,14
Y2-S2-131M23,2,200,AS,exp,33,→,right,→,0.561197399860248,True,10,1,0,14
Y2-S2-131M23,2,201,AS,exp,30,←,left,←,0.6577178998850286,True,10,1,0,14
Y2-S2-131M23,2,202,AS,exp,36,↑,up,↑,0.6066821999847889,True,9,1,0,14
Y2-S2-131M23,2,203,AS,exp,47,↓,down,↓,0.7551816001068801,True,9,1,0,14
Y2-S2-131M23,2,204,AS,exp,25,↑,up,↑,0.6138646001927555,True,9,1,0,14
Y2-S2-131M23,2,205,AS,exp,49,←,right,→,0.589879099978134,False,8,-1,1,15
Y2-S2-131M23,2,206,AS,exp,26,↓,down,↓,0.7104672000277787,True,9,-1,0,15
Y2-S2-131M23,2,207,AS,exp,30,→,right,→,0.5541685000061989,True,9,-1,0,15
Y2-S2-131M23,2,208,AS,exp,30,↑,up,↑,0.5551480997819453,True,9,1,1,16
Y2-S2-131M23,3,209,AS,intra_train,32,←,left,←,0.6259166998788714,True,19,-,-,-
Y2-S2-131M23,3,210,AS,intra_train,49,→,right,→,0.6677971000317484,True,19,-,-,-
Y2-S2-131M23,3,211,AS,intra_train,28,↓,down,↓,0.6381272999569774,True,19,-,-,-
Y2-S2-131M23,3,212,AS,intra_train,27,←,right,→,0.7760779999662191,False,19,-,-,-
Y2-S2-131M23,3,213,AS,intra_train,42,→,right,→,0.5893695000559092,True,19,-,-,-
Y2-S2-131M23,3,214,AS,exp,41,↑,up,↑,0.6767585999332368,True,13,0,0,0
Y2-S2-131M23,3,215,AS,exp,25,→,right,→,0.5437863001134247,True,13,0,0,0
Y2-S2-131M23,3,216,AS,exp,31,↑,up,↑,0.5781598999164999,True,13,1,0,0
Y2-S2-131M23,3,217,AS,exp,29,←,left,←,0.5919394998345524,True,12,1,0,0
Y2-S2-131M23,3,218,AS,exp,30,→,left,←,0.6717632999643683,False,12,-1,1,1
Y2-S2-131M23,3,219,AS,exp,47,←,right,→,0.5922554999124259,False,13,-1,0,1
Y2-S2-131M23,3,220,AS,exp,37,→,right,→,0.5915516999084502,True,14,-1,0,1
Y2-S2-131M23,3,221,AS,exp,34,↓,down,↓,0.8012839998118579,True,14,-1,0,1
Y2-S2-131M23,3,222,AS,exp,34,←,right,→,0.7815551999956369,False,14,-1,0,1
Y2-S2-131M23,3,223,AS,exp,31,→,right,→,0.5760023000184447,True,15,-1,0,1
Y2-S2-131M23,3,224,AS,exp,35,←,left,←,0.9662692998535931,True,15,-1,0,1
Y2-S2-131M23,3,225,AS,exp,34,↑,up,↑,0.5707564000040293,True,15,1,1,2
Y2-S2-131M23,3,226,AS,exp,46,←,right,→,0.590206999797374,False,14,-1,1,3
Y2-S2-131M23,3,227,AS,exp,47,↓,down,↓,0.6782052000053227,True,15,-1,0,3
Y2-S2-131M23,3,228,AS,exp,41,→,right,→,0.5014827998820692,True,15,-1,0,3
Y2-S2-131M23,3,229,AS,exp,33,↓,down,↓,0.7227499999571592,True,15,1,1,4
Y2-S2-131M23,3,230,AS,exp,36,↑,up,↑,0.5525942998938262,True,14,1,0,4
Y2-S2-131M23,3,231,AS,exp,26,↓,down,↓,0.7890332001261413,True,14,1,0,4
Y2-S2-131M23,3,232,AS,exp,39,↑,down,↓,0.6594750001095235,False,14,-1,1,5
Y2-S2-131M23,3,233,AS,exp,38,←,left,←,0.7580299000255764,True,15,-1,0,5
Y2-S2-131M23,3,234,AS,exp,26,↑,up,↑,0.5777104999870062,True,15,-1,0,5
Y2-S2-131M23,3,235,AS,exp,31,←,right,→,0.5178382999729365,False,15,-1,0,5
Y2-S2-131M23,3,236,AS,exp,41,↑,up,↑,0.5434141999576241,True,16,-1,0,5
Y2-S2-131M23,3,237,AS,exp,34,↓,down,↓,0.559025099966675,True,16,-1,0,5
Y2-S2-131M23,3,238,AS,exp,49,←,left,←,0.5720369000919163,True,16,1,1,6
Y2-S2-131M23,3,239,AS,exp,36,↑,up,↑,0.46370419999584556,True,15,1,0,6
Y2-S2-131M23,3,240,AS,exp,33,→,right,→,0.5956137999892235,True,15,1,0,6
Y2-S2-131M23,3,241,AS,exp,45,←,left,←,0.5220425999723375,True,15,1,0,6
Y2-S2-131M23,3,242,AS,exp,47,→,right,→,0.5183214999269694,True,14,1,0,6
Y2-S2-131M23,3,243,AS,exp,28,↑,up,↑,0.5665112000424415,True,14,1,0,6
Y2-S2-131M23,3,244,AS,exp,35,←,left,←,0.8087948001921177,True,14,1,0,6
Y2-S2-131M23,3,245,AS,exp,39,↓,down,↓,0.5797721999697387,True,13,1,0,6
Y2-S2-131M23,3,246,AS,exp,27,↑,up,↑,0.6994532002136111,True,13,1,0,6
Y2-S2-131M23,3,247,AS,exp,30,→,left,←,0.893093999940902,False,13,-1,1,7
Y2-S2-131M23,3,248,AS,exp,28,↑,up,↑,0.5660049000289291,True,14,-1,0,7
Y2-S2-131M23,3,249,AS,exp,43,↓,down,↓,0.9982590998988599,True,14,-1,0,7
Y2-S2-131M23,3,250,AS,exp,35,→,right,→,0.5627339000348002,True,14,1,1,8
Y2-S2-131M23,3,251,AS,exp,43,←,left,←,0.6964229999575764,True,13,1,0,8
Y2-S2-131M23,3,252,AS,exp,48,↓,up,↑,0.6427631000988185,False,13,-1,1,9
Y2-S2-131M23,3,253,AS,exp,45,↑,up,↑,0.7675024000927806,True,14,-1,0,9
Y2-S2-131M23,3,254,AS,exp,31,←,left,←,0.5319225999992341,True,14,-1,0,9
Y2-S2-131M23,3,255,AS,exp,28,↑,down,↓,0.8566263001412153,False,14,-1,0,9
Y2-S2-131M23,3,256,AS,exp,46,→,right,→,0.667347899870947,True,15,-1,0,9
Y2-S2-131M23,3,257,AS,exp,43,↓,up,↑,0.6407136998604983,False,15,-1,0,9
Y2-S2-131M23,3,258,AS,exp,44,←,right,→,1.1153333000838757,False,16,-1,0,9
Y2-S2-131M23,3,259,AS,exp,47,↑,up,↑,0.6782533000223339,True,17,-1,0,9
Y2-S2-131M23,3,260,AS,exp,33,←,left,←,0.591826899908483,True,17,-1,0,9
Y2-S2-131M23,3,261,AS,exp,45,↑,up,↑,0.629623900167644,True,17,1,1,10
Y2-S2-131M23,3,262,AS,exp,37,←,left,←,0.6545258997939527,True,16,1,0,10
Y2-S2-131M23,3,263,AS,exp,41,→,right,→,0.6759899000171572,True,16,1,0,10
Y2-S2-131M23,3,264,AS,exp,46,↓,down,↓,0.6864159000106156,True,16,1,0,10
Y2-S2-131M23,3,265,AS,exp,50,→,right,→,0.7837713998742402,True,15,1,0,10
Y2-S2-131M23,3,266,AS,exp,46,↑,up,↑,0.6136211999692023,True,15,1,0,10
Y2-S2-131M23,3,267,AS,exp,44,↓,down,↓,0.6322269001975656,True,15,1,0,10
Y2-S2-131M23,3,268,AS,exp,44,↑,up,↑,0.6493952998425812,True,14,1,0,10
Y2-S2-131M23,3,269,AS,exp,42,←,right,→,0.6162250000052154,False,14,-1,1,11
Y2-S2-131M23,3,270,AS,exp,46,→,right,→,0.5120234999340028,True,15,-1,0,11
Y2-S2-131M23,3,271,AS,exp,32,←,left,←,0.5981556999031454,True,15,-1,0,11
Y2-S2-131M23,3,272,AS,exp,38,→,right,→,0.4540250999853015,True,15,1,1,12
Y2-S2-131M23,3,273,AS,exp,36,←,left,←,0.5928329001180828,True,14,1,0,12
Y2-S2-131M23,3,274,AS,exp,30,↓,up,↑,0.5754533999133855,False,14,-1,1,13
Y2-S2-131M23,3,275,AS,exp,28,→,right,→,0.5356270999182016,True,15,-1,0,13
Y2-S2-131M23,3,276,AS,exp,29,↑,up,↑,0.7107967000920326,True,15,-1,0,13
Y2-S2-131M23,3,277,AS,exp,46,→,right,→,0.6201430999208242,True,15,1,1,14
Y2-S2-131M23,3,278,AS,exp,43,↑,up,↑,0.6952192999888211,True,14,1,0,14
Y2-S2-131M23,3,279,AS,exp,40,←,left,←,0.7411531999241561,True,14,1,0,14
Y2-S2-131M23,3,280,AS,exp,34,→,right,→,0.48609520005993545,True,14,1,0,14
Y2-S2-131M23,3,281,AS,exp,41,↑,up,↑,0.514261299977079,True,13,1,0,14
Y2-S2-131M23,3,282,AS,exp,35,→,right,→,0.6629034001380205,True,13,1,0,14
Y2-S2-131M23,3,283,AS,exp,29,↓,up,↑,0.528284499887377,False,13,-1,1,15
Y2-S2-131M23,3,284,AS,exp,42,→,left,←,0.8334973999299109,False,14,-1,0,15
Y2-S2-131M23,3,285,AS,exp,50,↑,up,↑,0.7150888999458402,True,15,-1,0,15
Y2-S2-131M23,3,286,AS,exp,26,↓,down,↓,0.6788913998752832,True,15,-1,0,15
Y2-S2-131M23,3,287,AS,exp,26,←,left,←,0.5289026000536978,True,15,1,1,16
Y2-S2-131M23,4,288,PS,intra_train,34,→,left,←,1.0096939001232386,False,13,-,-,-
Y2-S2-131M23,4,289,PS,intra_train,40,↓,down,↓,0.6010588998906314,True,13,-,-,-
Y2-S2-131M23,4,290,PS,intra_train,49,↑,down,↓,0.8755193999968469,False,13,-,-,-
Y2-S2-131M23,4,291,PS,intra_train,35,←,left,←,0.5654184999875724,True,13,-,-,-
Y2-S2-131M23,4,292,PS,intra_train,37,↑,up,↑,0.5362329999916255,True,13,-,-,-
Y2-S2-131M23,4,293,PS,exp,50,←,left,←,0.46390199987217784,True,9,0,0,0
Y2-S2-131M23,4,294,PS,exp,38,↑,right,→,0.7191642001271248,False,9,-1,0,0
Y2-S2-131M23,4,295,PS,exp,50,→,right,→,0.7261646999977529,True,10,-1,0,0
Y2-S2-131M23,4,296,PS,exp,27,↓,up,↑,0.7876091999933124,False,10,-1,0,0
Y2-S2-131M23,4,297,PS,exp,26,↑,up,↑,0.6306988999713212,True,11,-1,0,0
Y2-S2-131M23,4,298,PS,exp,38,↓,up,↑,1.106573099968955,False,11,-1,0,0
Y2-S2-131M23,4,299,PS,exp,34,←,right,→,0.5578216998837888,False,12,-1,0,0
Y2-S2-131M23,4,300,PS,exp,28,→,right,→,0.6042754000518471,True,13,-1,0,0
Y2-S2-131M23,4,301,PS,exp,47,↑,up,↑,0.9374530001077801,True,13,-1,0,0
Y2-S2-131M23,4,302,PS,exp,47,→,right,→,0.6280235999729484,True,13,1,1,1
Y2-S2-131M23,4,303,PS,exp,25,←,left,←,0.9382438000757247,True,12,1,0,1
Y2-S2-131M23,4,304,PS,exp,25,↓,up,↑,0.7641811000648886,False,12,-1,1,2
Y2-S2-131M23,4,305,PS,exp,25,←,right,→,0.6000439000781626,False,13,-1,0,2
Y2-S2-131M23,4,306,PS,exp,45,→,right,→,0.5923552999738604,True,14,-1,0,2
Y2-S2-131M23,4,307,PS,exp,32,↑,up,↑,0.5375666001345962,True,14,-1,0,2
Y2-S2-131M23,4,308,PS,exp,38,←,left,←,0.4865419000852853,True,14,1,1,3
Y2-S2-131M23,4,309,PS,exp,39,↑,up,↑,0.4706149999983609,True,13,1,0,3
Y2-S2-131M23,4,310,PS,exp,31,→,right,→,0.4604577000718564,True,13,1,0,3
Y2-S2-131M23,4,311,PS,exp,27,↑,up,↑,1.0238169999793172,True,13,1,0,3
Y2-S2-131M23,4,312,PS,exp,40,→,left,←,0.4480940999928862,False,12,-1,1,4
Y2-S2-131M23,4,313,PS,exp,30,←,left,←,0.5263504001777619,True,13,-1,0,4
Y2-S2-131M23,4,314,PS,exp,45,↑,up,↑,0.46379319997504354,True,13,-1,0,4
Y2-S2-131M23,4,315,PS,exp,42,←,left,←,0.44467410002835095,True,13,1,1,5
Y2-S2-131M23,4,316,PS,exp,46,↓,down,↓,0.650637699989602,True,12,1,0,5
Y2-S2-131M23,4,317,PS,exp,37,→,right,→,0.595505400095135,True,12,1,0,5
Y2-S2-131M23,4,318,PS,exp,32,↑,up,↑,0.6594040000345558,True,12,1,0,5
Y2-S2-131M23,4,319,PS,exp,43,←,right,→,0.8345301998779178,False,11,-1,1,6
Y2-S2-131M23,4,320,PS,exp,42,→,right,→,0.5679045999422669,True,12,-1,0,6
Y2-S2-131M23,4,321,PS,exp,36,↑,up,↑,0.5771910999901593,True,12,-1,0,6
Y2-S2-131M23,4,322,PS,exp,27,↓,down,↓,0.6907069000881165,True,12,1,1,7
Y2-S2-131M23,4,323,PS,exp,34,→,right,→,0.5669828001409769,True,11,1,0,7
Y2-S2-131M23,4,324,PS,exp,28,↓,up,↑,0.7274106999393553,False,11,-1,1,8
Y2-S2-131M23,4,325,PS,exp,28,←,left,←,0.5087071000598371,True,12,-1,0,8
Y2-S2-131M23,4,326,PS,exp,32,→,left,←,0.7067929001059383,False,12,-1,0,8
Y2-S2-131M23,4,327,PS,exp,36,↓,down,↓,0.6287241000682116,True,13,-1,0,8
Y2-S2-131M23,4,328,PS,exp,28,↑,up,↑,0.6407008999958634,True,13,-1,0,8
Y2-S2-131M23,4,329,PS,exp,44,→,right,→,0.5314778999891132,True,13,1,1,9
Y2-S2-131M23,4,330,PS,exp,35,←,left,←,0.4434978000354022,True,12,1,0,9
Y2-S2-131M23,4,331,PS,exp,43,→,right,→,0.49478549999184906,True,12,1,0,9
Y2-S2-131M23,4,332,PS,exp,28,←,left,←,0.866290699923411,True,12,1,0,9
Y2-S2-131M23,4,333,PS,exp,34,→,right,→,0.580703099956736,True,11,1,0,9
Y2-S2-131M23,4,334,PS,exp,50,←,left,←,0.7352432999759912,True,11,1,0,9
Y2-S2-131M23,4,335,PS,exp,34,→,right,→,0.638327700085938,True,11,1,0,9
Y2-S2-131M23,4,336,PS,exp,25,←,left,←,0.6897609999869019,True,10,1,0,9
Y2-S2-131M23,4,337,PS,exp,47,→,right,→,0.5395243999082595,True,10,1,0,9
Y2-S2-131M23,4,338,PS,exp,31,↑,up,↑,0.5854352999012917,True,10,1,0,9
Y2-S2-131M23,4,339,PS,exp,45,↓,down,↓,0.6596152000129223,True,9,1,0,9
Y2-S2-131M23,4,340,PS,exp,49,↑,up,↑,0.5591357999946922,True,9,1,0,9
Y2-S2-131M23,4,341,PS,exp,46,←,left,←,0.46234389999881387,True,9,1,0,9
Y2-S2-131M23,4,342,PS,exp,30,→,right,→,0.5761849998962134,True,8,1,0,9
Y2-S2-131M23,4,343,PS,exp,25,↑,up,↑,0.6762933998834342,True,8,1,0,9
Y2-S2-131M23,4,344,PS,exp,40,→,right,→,0.6133335998747498,True,8,1,0,9
Y2-S2-131M23,4,345,PS,exp,36,←,right,→,0.5114684000145644,False,7,-1,1,10
Y2-S2-131M23,4,346,PS,exp,50,→,right,→,0.5227613998576999,True,8,-1,0,10
Y2-S2-131M23,4,347,PS,exp,32,←,right,→,0.7123804001603276,False,8,-1,0,10
Y2-S2-131M23,4,348,PS,exp,30,↑,down,↓,0.9661436001770198,False,9,-1,0,10
Y2-S2-131M23,4,349,PS,exp,40,→,right,→,0.5084025000687689,True,10,-1,0,10
Y2-S2-131M23,4,350,PS,exp,42,←,left,←,0.45004609995521605,True,10,-1,0,10
Y2-S2-131M23,4,351,PS,exp,41,→,right,→,0.6981021999381483,True,10,1,1,11
Y2-S2-131M23,4,352,PS,exp,39,←,left,←,0.48780150013044477,True,9,1,0,11
Y2-S2-131M23,4,353,PS,exp,34,↓,left,←,0.719442900037393,False,9,-1,1,12
Y2-S2-131M23,4,354,PS,exp,39,←,left,←,0.4647180999163538,True,10,-1,0,12
Y2-S2-131M23,4,355,PS,exp,33,↓,left,←,0.5892799999564886,False,10,-1,0,12
Y2-S2-131M23,4,356,PS,exp,27,↑,up,↑,0.5903920000419021,True,11,-1,0,12
Y2-S2-131M23,4,357,PS,exp,33,→,right,→,0.5261578999925405,True,11,-1,0,12
Y2-S2-131M23,4,358,PS,exp,34,←,left,←,0.6249974998645484,True,11,1,1,13
Y2-S2-131M23,4,359,PS,exp,45,↓,down,↓,0.7146735000424087,True,10,1,0,13
Y2-S2-131M23,4,360,PS,exp,42,←,left,←,0.5237918000202626,True,10,1,0,13
Y2-S2-131M23,4,361,PS,exp,27,↑,up,↑,0.6044537001289427,True,10,1,0,13
Y2-S2-131M23,4,362,PS,exp,45,→,left,←,1.1429449000861496,False,9,-1,1,14
Y2-S2-131M23,4,363,PS,exp,47,↑,up,↑,0.7401394001208246,True,10,-1,0,14
Y2-S2-131M23,4,364,PS,exp,32,→,right,→,0.6666198000311852,True,10,-1,0,14
Y2-S2-131M23,4,365,PS,exp,31,←,left,←,0.5275270000565797,True,10,1,1,15
Y2-S2-131M23,4,366,PS,exp,44,→,right,→,0.5292345997877419,True,9,1,0,15
Y2-S2-131M23,4,367,PS,exp,31,↑,left,←,0.5157173001207411,False,9,-1,1,16
Y2-S2-131M23,5,368,PS,intra_train,32,←,left,←,0.6001037999521941,True,13,-,-,-
Y2-S2-131M23,5,369,PS,intra_train,44,↓,down,↓,0.9673912001308054,True,13,-,-,-
Y2-S2-131M23,5,370,PS,intra_train,39,↑,up,↑,0.6508512999862432,True,13,-,-,-
Y2-S2-131M23,5,371,PS,intra_train,40,↓,down,↓,0.7522728000767529,True,13,-,-,-
Y2-S2-131M23,5,372,PS,intra_train,28,→,right,→,0.6909179999493062,True,13,-,-,-
Y2-S2-131M23,5,373,PS,exp,32,↑,up,↑,0.5733185999561101,True,9,0,0,0
Y2-S2-131M23,5,374,PS,exp,44,←,left,←,0.6065494001377374,True,9,0,0,0
Y2-S2-131M23,5,375,PS,exp,41,→,right,→,0.5979301000479609,True,9,1,0,0
Y2-S2-131M23,5,376,PS,exp,29,←,right,→,0.6656700000166893,False,8,-1,1,1
Y2-S2-131M23,5,377,PS,exp,50,↑,up,↑,0.6140431999228895,True,9,-1,0,1
Y2-S2-131M23,5,378,PS,exp,25,→,right,→,1.1011516998987645,True,9,-1,0,1
Y2-S2-131M23,5,379,PS,exp,34,←,left,←,0.8819689999800175,True,9,1,1,2
Y2-S2-131M23,5,380,PS,exp,30,→,right,→,0.7094866000115871,True,8,1,0,2
Y2-S2-131M23,5,381,PS,exp,41,↓,right,→,0.7506127001252025,False,8,-1,1,3
Y2-S2-131M23,5,382,PS,exp,34,↑,right,→,0.617732800077647,False,9,-1,0,3
Y2-S2-131M23,5,383,PS,exp,30,↓,down,↓,0.6005720000248402,True,10,-1,0,3
Y2-S2-131M23,5,384,PS,exp,31,↑,down,↓,0.6924439000431448,False,10,-1,0,3
Y2-S2-131M23,5,385,PS,exp,26,→,right,→,0.5216539001557976,True,11,-1,0,3
Y2-S2-131M23,5,386,PS,exp,32,←,left,←,0.6150972000323236,True,11,-1,0,3
Y2-S2-131M23,5,387,PS,exp,36,↓,right,→,0.6209352998994291,False,11,-1,0,3
Y2-S2-131M23,5,388,PS,exp,32,↑,right,→,0.7991631999611855,False,12,-1,0,3
Y2-S2-131M23,5,389,PS,exp,36,←,left,←,0.6726126000285149,True,13,-1,0,3
Y2-S2-131M23,5,390,PS,exp,48,↓,down,↓,0.6997817999217659,True,13,-1,0,3
Y2-S2-131M23,5,391,PS,exp,42,→,right,→,0.7283987000118941,True,13,1,1,4
Y2-S2-131M23,5,392,PS,exp,42,↑,down,↓,0.7540635000914335,False,12,-1,1,5
Y2-S2-131M23,5,393,PS,exp,34,←,left,←,0.5974000000860542,True,13,-1,0,5
Y2-S2-131M23,5,394,PS,exp,44,↑,up,↑,0.8517072999384254,True,13,-1,0,5
Y2-S2-131M23,5,395,PS,exp,37,↓,down,↓,0.6604028001893312,True,13,1,1,6
Y2-S2-131M23,5,396,PS,exp,47,↑,up,↑,0.48703010007739067,True,12,1,0,6
Y2-S2-131M23,5,397,PS,exp,41,←,right,→,0.5519764001946896,False,12,-1,1,7
Y2-S2-131M23,5,398,PS,exp,30,↑,right,→,0.796144199790433,False,13,-1,0,7
Y2-S2-131M23,5,399,PS,exp,38,→,right,→,0.6336318999528885,True,14,-1,0,7
Y2-S2-131M23,5,400,PS,exp,46,↑,up,↑,0.623052200069651,True,14,-1,0,7
Y2-S2-131M23,5,401,PS,exp,26,←,right,→,0.5826010999735445,False,14,-1,0,7
Y2-S2-131M23,5,402,PS,exp,29,→,right,→,0.565092199947685,True,15,-1,0,7
Y2-S2-131M23,5,403,PS,exp,48,←,left,←,0.7315026000142097,True,15,-1,0,7
Y2-S2-131M23,5,404,PS,exp,25,↓,left,←,0.8302504001185298,False,15,-1,0,7
Y2-S2-131M23,5,405,PS,exp,42,↑,up,↑,0.5514515000395477,True,16,-1,0,7
Y2-S2-131M23,5,406,PS,exp,42,→,right,→,0.6273668000940233,True,16,-1,0,7
Y2-S2-131M23,5,407,PS,exp,37,↑,up,↑,0.5795779000036418,True,16,1,1,8
Y2-S2-131M23,5,408,PS,exp,48,↓,down,↓,0.7024510998744518,True,15,1,0,8
Y2-S2-131M23,5,409,PS,exp,37,↑,up,↑,0.6011731999460608,True,15,1,0,8
Y2-S2-131M23,5,410,PS,exp,25,←,right,→,0.9598751000594348,False,15,-1,1,9
Y2-S2-131M23,5,411,PS,exp,39,↑,up,↑,0.6226814999245107,True,16,-1,0,9
Y2-S2-131M23,5,412,PS,exp,26,↓,down,↓,0.6031063999980688,True,16,-1,0,9
Y2-S2-131M23,5,413,PS,exp,28,↑,up,↑,0.6286903999280185,True,16,1,1,10
Y2-S2-131M23,5,414,PS,exp,36,→,right,→,0.5449042001273483,True,15,1,0,10
Y2-S2-131M23,5,415,PS,exp,29,↑,up,↑,0.5422766001429409,True,15,1,0,10
Y2-S2-131M23,5,416,PS,exp,37,←,left,←,0.5027465999592096,True,15,1,0,10
Y2-S2-131M23,5,417,PS,exp,35,↑,up,↑,0.5295432999264449,True,14,1,0,10
Y2-S2-131M23,5,418,PS,exp,27,→,right,→,0.7233998998999596,True,14,1,0,10
Y2-S2-131M23,5,419,PS,exp,46,↑,up,↑,0.589523300062865,True,14,1,0,10
Y2-S2-131M23,5,420,PS,exp,25,←,up,↑,1.2103520000819117,False,13,-1,1,11
Y2-S2-131M23,5,421,PS,exp,44,→,right,→,0.5646393999923021,True,14,-1,0,11
Y2-S2-131M23,5,422,PS,exp,28,←,left,←,0.6777640001382679,True,14,-1,0,11
Y2-S2-131M23,5,423,PS,exp,38,→,right,→,0.5781931998208165,True,14,1,1,12
Y2-S2-131M23,5,424,PS,exp,42,↓,down,↓,0.8698313999921083,True,13,1,0,12
Y2-S2-131M23,5,425,PS,exp,28,→,right,→,0.657379399985075,True,13,1,0,12
Y2-S2-131M23,5,426,PS,exp,31,↓,down,↓,0.7434111000038683,True,13,1,0,12
Y2-S2-131M23,5,427,PS,exp,26,↑,up,↑,0.5072817001491785,True,12,1,0,12
Y2-S2-131M23,5,428,PS,exp,36,↓,down,↓,0.5874493001028895,True,12,1,0,12
Y2-S2-131M23,5,429,PS,exp,37,↑,up,↑,0.4869884999934584,True,12,1,0,12
Y2-S2-131M23,5,430,PS,exp,29,→,right,→,0.6219275000039488,True,11,1,0,12
Y2-S2-131M23,5,431,PS,exp,33,↓,down,↓,0.6863838999997824,True,11,1,0,12
Y2-S2-131M23,5,432,PS,exp,30,↑,up,↑,0.4978781999088824,True,11,1,0,12
Y2-S2-131M23,5,433,PS,exp,38,→,right,→,0.48363170004449785,True,10,1,0,12
Y2-S2-131M23,5,434,PS,exp,45,←,left,←,0.47338809981010854,True,10,1,0,12
Y2-S2-131M23,5,435,PS,exp,31,↓,right,→,1.1797815999016166,False,10,-1,1,13
Y2-S2-131M23,5,436,PS,exp,31,←,left,←,0.8599731000140309,True,11,-1,0,13
Y2-S2-131M23,5,437,PS,exp,31,↑,down,↓,0.7964536999352276,False,11,-1,0,13
Y2-S2-131M23,5,438,PS,exp,26,↓,down,↓,0.7109691000077873,True,12,-1,0,13
Y2-S2-131M23,5,439,PS,exp,42,→,left,←,0.6199372999835759,False,12,-1,0,13
Y2-S2-131M23,5,440,PS,exp,26,←,left,←,0.5855606000404805,True,13,-1,0,13
Y2-S2-131M23,5,441,PS,exp,37,↓,down,↓,0.6555544000584632,True,13,-1,0,13
Y2-S2-131M23,5,442,PS,exp,38,→,right,→,0.644910000031814,True,13,1,1,14
Y2-S2-131M23,5,443,PS,exp,41,↑,up,↑,0.6081580000463873,True,12,1,0,14
Y2-S2-131M23,5,444,PS,exp,47,↓,down,↓,0.5831360002048314,True,12,1,0,14
Y2-S2-131M23,5,445,PS,exp,34,↑,up,↑,0.579283099854365,True,12,1,0,14
Y2-S2-131M23,5,446,PS,exp,44,↓,down,↓,0.5075436001643538,True,11,1,0,14
Y2-S2-131M23,5,447,PS,exp,47,↑,down,↓,0.7864018999971449,False,11,-1,1,15
Y2-S2-131M23,5,448,PS,exp,45,↓,down,↓,0.5710176001302898,True,12,-1,0,15
Y2-S2-131M23,5,449,PS,exp,45,↑,up,↑,0.5803121000062674,True,12,-1,0,15
Y2-S2-131M23,5,450,PS,exp,26,↓,down,↓,0.6731822998262942,True,12,1,1,16
Y2-S2-131M23,6,451,AS,intra_train,35,←,left,←,0.6179418000392616,True,19,-,-,-
Y2-S2-131M23,6,452,AS,intra_train,39,↑,up,↑,0.7138855000957847,True,19,-,-,-
Y2-S2-131M23,6,453,AS,intra_train,30,→,right,→,0.7706774999387562,True,19,-,-,-
Y2-S2-131M23,6,454,AS,intra_train,48,↑,up,↑,0.5909845000132918,True,19,-,-,-
Y2-S2-131M23,6,455,AS,intra_train,32,↓,down,↓,0.6391205000691116,True,19,-,-,-
Y2-S2-131M23,6,456,AS,exp,34,↑,up,↑,0.6932998998090625,True,13,0,0,0
Y2-S2-131M23,6,457,AS,exp,31,→,right,→,0.461404399946332,True,13,0,0,0
Y2-S2-131M23,6,458,AS,exp,35,↓,down,↓,0.6561816001776606,True,13,1,0,0
Y2-S2-131M23,6,459,AS,exp,41,←,left,←,0.6785526999738067,True,12,1,0,0
Y2-S2-131M23,6,460,AS,exp,47,↓,down,↓,0.603214800124988,True,12,1,0,0
Y2-S2-131M23,6,461,AS,exp,27,→,left,←,0.712598699843511,False,12,-1,1,1
Y2-S2-131M23,6,462,AS,exp,38,←,left,←,0.8789180000312626,True,13,-1,0,1
Y2-S2-131M23,6,463,AS,exp,30,↑,up,↑,0.616008099867031,True,13,-1,0,1
Y2-S2-131M23,6,464,AS,exp,40,←,left,←,0.6691476998385042,True,13,1,1,2
Y2-S2-131M23,6,465,AS,exp,36,↑,left,←,0.6562667998950928,False,12,-1,1,3
Y2-S2-131M23,6,466,AS,exp,29,→,right,→,0.7157664999831468,True,13,-1,0,3
Y2-S2-131M23,6,467,AS,exp,45,↓,down,↓,0.8356089999433607,True,13,-1,0,3
Y2-S2-131M23,6,468,AS,exp,26,←,left,←,0.6087096999399364,True,13,1,1,4
Y2-S2-131M23,6,469,AS,exp,25,→,right,→,0.6871875999495387,True,12,1,0,4
Y2-S2-131M23,6,470,AS,exp,29,←,left,←,0.5849321000277996,True,12,1,0,4
Y2-S2-131M23,6,471,AS,exp,48,↑,down,↓,0.7049058000557125,False,12,-1,1,5
Y2-S2-131M23,6,472,AS,exp,29,←,left,←,0.5625708000734448,True,13,-1,0,5
Y2-S2-131M23,6,473,AS,exp,27,↑,up,↑,0.5221250997856259,True,13,-1,0,5
Y2-S2-131M23,6,474,AS,exp,44,→,right,→,0.5497447000816464,True,13,1,1,6
Y2-S2-131M23,6,475,AS,exp,37,←,left,←,0.4366964001674205,True,12,1,0,6
Y2-S2-131M23,6,476,AS,exp,27,↑,up,↑,0.5251422000583261,True,12,1,0,6
Y2-S2-131M23,6,477,AS,exp,35,↓,down,↓,0.6030262999702245,True,12,1,0,6
Y2-S2-131M23,6,478,AS,exp,50,→,left,←,0.510238999966532,False,11,-1,1,7
Y2-S2-131M23,6,479,AS,exp,25,←,right,→,0.5155519999098033,False,12,-1,0,7
Y2-S2-131M23,6,480,AS,exp,39,↑,down,↓,0.7718549999408424,False,13,-1,0,7
Y2-S2-131M23,6,481,AS,exp,50,←,left,←,0.5741906000766903,True,14,-1,0,7
Y2-S2-131M23,6,482,AS,exp,32,→,left,←,0.5780799000058323,False,14,-1,0,7
Y2-S2-131M23,6,483,AS,exp,30,↑,up,↑,0.5435518999584019,True,15,-1,0,7
Y2-S2-131M23,6,484,AS,exp,37,↓,down,↓,0.6904416000470519,True,15,-1,0,7
Y2-S2-131M23,6,485,AS,exp,28,→,left,←,0.6739481000695378,False,15,-1,0,7
Y2-S2-131M23,6,486,AS,exp,49,↑,up,↑,0.6459347000345588,True,16,-1,0,7
Y2-S2-131M23,6,487,AS,exp,48,→,right,→,0.592723400099203,True,16,-1,0,7
Y2-S2-131M23,6,488,AS,exp,47,↓,down,↓,0.6701881000772119,True,16,1,1,8
Y2-S2-131M23,6,489,AS,exp,29,↑,up,↑,0.47615230013616383,True,15,1,0,8
Y2-S2-131M23,6,490,AS,exp,42,↓,down,↓,0.5415867001283914,True,15,1,0,8
Y2-S2-131M23,6,491,AS,exp,38,→,right,→,0.5610772001091391,True,15,1,0,8
Y2-S2-131M23,6,492,AS,exp,45,↑,up,↑,0.6059759000781924,True,14,1,0,8
Y2-S2-131M23,6,493,AS,exp,27,→,right,→,0.8495324999094009,True,14,1,0,8
Y2-S2-131M23,6,494,AS,exp,32,←,left,←,0.6315866000950336,True,14,1,0,8
Y2-S2-131M23,6,495,AS,exp,32,→,right,→,0.41739329998381436,True,13,1,0,8
Y2-S2-131M23,6,496,AS,exp,46,←,left,←,0.7845777999609709,True,13,1,0,8
Y2-S2-131M23,6,497,AS,exp,29,→,right,→,0.5918749999254942,True,13,1,0,8
Y2-S2-131M23,6,498,AS,exp,34,←,right,→,0.7151989999692887,False,12,-1,1,9
Y2-S2-131M23,6,499,AS,exp,40,↓,up,↑,0.6178971999324858,False,13,-1,0,9
Y2-S2-131M23,6,500,AS,exp,33,←,left,←,0.5879750999156386,True,14,-1,0,9
Y2-S2-131M23,6,501,AS,exp,48,↓,down,↓,0.8364262001123279,True,14,-1,0,9
Y2-S2-131M23,6,502,AS,exp,42,↑,up,↑,0.47298040008172393,True,14,1,1,10
Y2-S2-131M23,6,503,AS,exp,40,↓,down,↓,0.5326221000868827,True,13,1,0,10
Y2-S2-131M23,6,504,AS,exp,33,←,left,←,0.6182772999163717,True,13,1,0,10
Y2-S2-131M23,6,505,AS,exp,38,↑,up,↑,0.6449027999769896,True,13,1,0,10
Y2-S2-131M23,6,506,AS,exp,34,↓,down,↓,0.5145671998616308,True,12,1,0,10
Y2-S2-131M23,6,507,AS,exp,31,↑,down,↓,0.600588500034064,False,12,-1,1,11
Y2-S2-131M23,6,508,AS,exp,43,↓,down,↓,0.6446871999651194,True,13,-1,0,11
Y2-S2-131M23,6,509,AS,exp,43,→,right,→,0.6239383001811802,True,13,-1,0,11
Y2-S2-131M23,6,510,AS,exp,32,←,left,←,0.6260019999463111,True,13,1,1,12
Y2-S2-131M23,6,511,AS,exp,33,↓,down,↓,0.6304538999684155,True,12,1,0,12
Y2-S2-131M23,6,512,AS,exp,42,→,right,→,0.5641609998419881,True,12,1,0,12
Y2-S2-131M23,6,513,AS,exp,34,↑,up,↑,0.5041724999900907,True,12,1,0,12
Y2-S2-131M23,6,514,AS,exp,46,→,right,→,0.7626587999984622,True,11,1,0,12
Y2-S2-131M23,6,515,AS,exp,36,↓,up,↑,0.9925343000795692,False,11,-1,1,13
Y2-S2-131M23,6,516,AS,exp,50,←,left,←,0.609110000077635,True,12,-1,0,13
Y2-S2-131M23,6,517,AS,exp,36,↑,up,↑,0.6543186998460442,True,12,-1,0,13
Y2-S2-131M23,6,518,AS,exp,25,→,right,→,0.7493904998991638,True,12,1,1,14
Y2-S2-131M23,6,519,AS,exp,48,↑,up,↑,0.7527892000507563,True,11,1,0,14
Y2-S2-131M23,6,520,AS,exp,32,↓,up,↑,0.5530746998265386,False,11,-1,1,15
Y2-S2-131M23,6,521,AS,exp,25,←,left,←,0.5874145999550819,True,12,-1,0,15
Y2-S2-131M23,6,522,AS,exp,50,↑,down,↓,0.59720279998146,False,12,-1,0,15
Y2-S2-131M23,6,523,AS,exp,29,↓,down,↓,0.661219900008291,True,13,-1,0,15
Y2-S2-131M23,6,524,AS,exp,34,↑,down,↓,0.7234928000252694,False,13,-1,0,15
Y2-S2-131M23,6,525,AS,exp,36,↓,down,↓,0.6882612998597324,True,14,-1,0,15
Y2-S2-131M23,6,526,AS,exp,27,↑,up,↑,0.8827023999765515,True,14,-1,0,15
Y2-S2-131M23,6,527,AS,exp,36,←,down,↓,0.7534592000301927,False,14,-1,0,15
Y2-S2-131M23,6,528,AS,exp,40,↓,down,↓,0.6383173000067472,True,15,-1,0,15
Y2-S2-131M23,6,529,AS,exp,46,→,right,→,0.6802757999394089,True,15,-1,0,15
Y2-S2-131M23,6,530,AS,exp,29,↓,down,↓,0.5363064999692142,True,15,1,1,16
Y2-S2-131M23,7,531,AS,intra_train,35,↑,up,↑,0.6972782998345792,True,19,-,-,-
Y2-S2-131M23,7,532,AS,intra_train,37,↓,down,↓,0.6171355000697076,True,19,-,-,-
Y2-S2-131M23,7,533,AS,intra_train,46,→,right,→,0.6717131999321282,True,19,-,-,-
Y2-S2-131M23,7,534,AS,intra_train,49,←,left,←,0.5702382000163198,True,19,-,-,-
Y2-S2-131M23,7,535,AS,intra_train,48,↓,down,↓,0.8976984000764787,True,19,-,-,-
Y2-S2-131M23,7,536,AS,exp,41,←,right,→,0.5035604999866337,False,13,-1,0,0
Y2-S2-131M23,7,537,AS,exp,33,↑,up,↑,0.5324436000082642,True,14,-1,0,0
Y2-S2-131M23,7,538,AS,exp,34,→,right,→,0.5133404000662267,True,14,-1,0,0
Y2-S2-131M23,7,539,AS,exp,34,↓,down,↓,0.7227922999300063,True,14,1,1,1
Y2-S2-131M23,7,540,AS,exp,25,→,left,←,0.5759652000851929,False,13,-1,1,2
Y2-S2-131M23,7,541,AS,exp,47,↑,down,↓,0.558528000023216,False,14,-1,0,2
Y2-S2-131M23,7,542,AS,exp,37,←,left,←,0.5277154000941664,True,15,-1,0,2
Y2-S2-131M23,7,543,AS,exp,26,→,right,→,0.5794944001827389,True,15,-1,0,2
Y2-S2-131M23,7,544,AS,exp,46,↓,down,↓,0.616319399792701,True,15,1,1,3
Y2-S2-131M23,7,545,AS,exp,25,→,right,→,0.4676798000000417,True,14,1,0,3
Y2-S2-131M23,7,546,AS,exp,42,↓,down,↓,0.6396874999627471,True,14,1,0,3
Y2-S2-131M23,7,547,AS,exp,49,→,left,←,0.45459130010567605,False,14,-1,1,4
Y2-S2-131M23,7,548,AS,exp,26,←,left,←,0.5231570000760257,True,15,-1,0,4
Y2-S2-131M23,7,549,AS,exp,39,→,right,→,0.544669299852103,True,15,-1,0,4
Y2-S2-131M23,7,550,AS,exp,41,↑,up,↑,0.6388801999855787,True,15,1,1,5
Y2-S2-131M23,7,551,AS,exp,39,→,right,→,0.6620719998609275,True,14,1,0,5
Y2-S2-131M23,7,552,AS,exp,48,←,left,←,0.5552145999390632,True,14,1,0,5
Y2-S2-131M23,7,553,AS,exp,49,↑,up,↑,0.5145234998781234,True,14,1,0,5
Y2-S2-131M23,7,554,AS,exp,46,→,right,→,0.5466430999804288,True,13,1,0,5
Y2-S2-131M23,7,555,AS,exp,33,↓,down,↓,1.3577841999940574,True,13,1,0,5
Y2-S2-131M23,7,556,AS,exp,45,↑,up,↑,0.5472522000782192,True,13,1,0,5
Y2-S2-131M23,7,557,AS,exp,36,↓,down,↓,0.6837251998949796,True,12,1,0,5
Y2-S2-131M23,7,558,AS,exp,28,↑,up,↑,0.5518846001941711,True,12,1,0,5
Y2-S2-131M23,7,559,AS,exp,44,→,right,→,0.5619520000182092,True,12,1,0,5
Y2-S2-131M23,7,560,AS,exp,48,↓,down,↓,0.685164500027895,True,11,1,0,5
Y2-S2-131M23,7,561,AS,exp,42,←,left,←,0.5267451000399888,True,11,1,0,5
Y2-S2-131M23,7,562,AS,exp,46,→,right,→,0.5315984999760985,True,11,1,0,5
Y2-S2-131M23,7,563,AS,exp,32,↓,down,↓,0.621260599931702,True,10,1,0,5
Y2-S2-131M23,7,564,AS,exp,38,←,left,←,0.5388281000778079,True,10,1,0,5
Y2-S2-131M23,7,565,AS,exp,34,↓,down,↓,0.6143235000781715,True,10,1,0,5
Y2-S2-131M23,7,566,AS,exp,27,←,left,←,0.5323216000106186,True,9,1,0,5
Y2-S2-131M23,7,567,AS,exp,42,↑,up,↑,0.6051240998785943,True,9,1,0,5
Y2-S2-131M23,7,568,AS,exp,43,←,left,←,0.46358289988711476,True,9,1,0,5
Y2-S2-131M23,7,569,AS,exp,38,→,right,→,0.5574033001903445,True,8,1,0,5
Y2-S2-131M23,7,570,AS,exp,37,↑,up,↑,0.7436140000354499,True,8,1,0,5
Y2-S2-131M23,7,571,AS,exp,36,←,right,→,0.5152132001239806,False,8,-1,1,6
Y2-S2-131M23,7,572,AS,exp,26,↑,up,↑,0.6087945001199841,True,9,-1,0,6
Y2-S2-131M23,7,573,AS,exp,38,←,left,←,0.5583009999245405,True,9,-1,0,6
Y2-S2-131M23,7,574,AS,exp,46,↓,right,→,0.45485940016806126,False,9,-1,0,6
Y2-S2-131M23,7,575,AS,exp,43,←,right,→,0.5330145000480115,False,10,-1,0,6
Y2-S2-131M23,7,576,AS,exp,34,→,right,→,0.5661120999138802,True,11,-1,0,6
Y2-S2-131M23,7,577,AS,exp,27,←,right,→,0.5472770999185741,False,11,-1,0,6
Y2-S2-131M23,7,578,AS,exp,34,→,left,←,0.6007017998490483,False,12,-1,0,6
Y2-S2-131M23,7,579,AS,exp,35,↑,up,↑,0.5705111999996006,True,13,-1,0,6
Y2-S2-131M23,7,580,AS,exp,47,←,right,→,0.5129267999436706,False,13,-1,0,6
Y2-S2-131M23,7,581,AS,exp,40,↓,up,↑,0.5152525000739843,False,14,-1,0,6
Y2-S2-131M23,7,582,AS,exp,35,↑,up,↑,0.5114772000815719,True,15,-1,0,6
Y2-S2-131M23,7,583,AS,exp,43,→,right,→,0.5795793998986483,True,15,-1,0,6
Y2-S2-131M23,7,584,AS,exp,27,↓,up,↑,0.6454361998476088,False,15,-1,0,6
Y2-S2-131M23,7,585,AS,exp,25,←,right,→,0.4979532000143081,False,16,-1,0,6
Y2-S2-131M23,7,586,AS,exp,46,↓,down,↓,0.7357055000029504,True,17,-1,0,6
Y2-S2-131M23,7,587,AS,exp,40,←,left,←,0.5634564000647515,True,17,-1,0,6
Y2-S2-131M23,7,588,AS,exp,32,↓,up,↑,1.659119099844247,False,17,-1,0,6
Y2-S2-131M23,7,589,AS,exp,42,↑,up,↑,0.6649760999716818,True,18,-1,0,6
Y2-S2-131M23,7,590,AS,exp,41,↓,down,↓,0.8230212000198662,True,18,-1,0,6
Y2-S2-131M23,7,591,AS,exp,33,↑,up,↑,0.572251700097695,True,18,1,1,7
Y2-S2-131M23,7,592,AS,exp,27,→,right,→,0.6113460001070052,True,17,1,0,7
Y2-S2-131M23,7,593,AS,exp,35,↑,up,↑,0.5592049001716077,True,17,1,0,7
Y2-S2-131M23,7,594,AS,exp,44,←,left,←,0.49698029994033277,True,17,1,0,7
Y2-S2-131M23,7,595,AS,exp,46,↓,down,↓,0.6940164000261575,True,16,1,0,7
Y2-S2-131M23,7,596,AS,exp,50,←,left,←,0.5524259000085294,True,16,1,0,7
Y2-S2-131M23,7,597,AS,exp,41,↓,up,↑,0.5950295999646187,False,16,-1,1,8
Y2-S2-131M23,7,598,AS,exp,40,→,right,→,0.5623306001070887,True,17,-1,0,8
Y2-S2-131M23,7,599,AS,exp,50,↑,up,↑,0.584525499958545,True,17,-1,0,8
Y2-S2-131M23,7,600,AS,exp,35,↓,down,↓,0.6747008000966161,True,17,1,1,9
Y2-S2-131M23,7,601,AS,exp,44,←,left,←,0.49871279997751117,True,16,1,0,9
Y2-S2-131M23,7,602,AS,exp,46,↑,up,↑,0.5288796999957412,True,16,1,0,9
Y2-S2-131M23,7,603,AS,exp,42,←,left,←,1.098786500049755,True,16,1,0,9
Y2-S2-131M23,7,604,AS,exp,26,↓,down,↓,0.6072290001902729,True,15,1,0,9
Y2-S2-131M23,7,605,AS,exp,25,→,right,→,0.931728099938482,True,15,1,0,9
Y2-S2-131M23,7,606,AS,exp,44,↑,up,↑,0.47471809992566705,True,15,1,0,9
Y2-S2-131M23,7,607,AS,exp,43,↓,down,↓,0.7357993999030441,True,14,1,0,9
Y2-S2-131M23,7,608,AS,exp,30,→,right,→,0.5922381998971105,True,14,1,0,9
Y2-S2-131M23,7,609,AS,exp,32,↓,up,↑,0.6718653000425547,False,14,-1,1,10
Y2-S2-131M23,7,610,AS,exp,31,→,right,→,0.529670599848032,True,15,-1,0,10
Y2-S2-131M23,7,611,AS,exp,30,↓,up,↑,0.6524710999801755,False,15,-1,0,10
Y2-S2-131M23,7,612,AS,exp,29,↑,up,↑,0.6444854999426752,True,16,-1,0,10
Y2-S2-131M23,7,613,AS,exp,46,→,down,↓,0.7838392001576722,False,16,-1,0,10
Y2-S2-131M23,7,614,AS,exp,35,↓,up,↑,0.6118101000320166,False,17,-1,0,10
Y2-S2-131M23,7,615,AS,exp,48,←,left,←,0.5032073999755085,True,18,-1,0,10
Y2-S2-131M23,7,616,AS,exp,43,↑,up,↑,0.6457091001793742,True,18,-1,0,10
Y2-S2-131M23,7,617,AS,exp,43,→,right,→,0.5738311000168324,True,18,1,1,11
Y2-S2-131M23,7,618,AS,exp,26,←,right,→,1.0470088999718428,False,17,-1,1,12
Y2-S2-131M23,7,619,AS,exp,26,→,right,→,0.5574848998803645,True,18,-1,0,12
Y2-S2-131M23,7,620,AS,exp,40,↑,up,↑,0.6663832999765873,True,18,-1,0,12
Y2-S2-131M23,7,621,AS,exp,50,↓,down,↓,0.6775199000257999,True,18,1,1,13
Y2-S2-131M23,7,622,AS,exp,39,↑,up,↑,0.5757700998801738,True,17,1,0,13
Y2-S2-131M23,7,623,AS,exp,49,↓,down,↓,0.7131247001234442,True,17,1,0,13
Y2-S2-131M23,7,624,AS,exp,27,↑,up,↑,0.5801972998306155,True,17,1,0,13
Y2-S2-131M23,7,625,AS,exp,27,←,left,←,0.8522987000178546,True,16,1,0,13
Y2-S2-131M23,7,626,AS,exp,33,↓,down,↓,0.7133208999875933,True,16,1,0,13
Y2-S2-131M23,7,627,AS,exp,28,↑,up,↑,0.6351656001061201,True,16,1,0,13
Y2-S2-131M23,7,628,AS,exp,43,↓,up,↑,0.8890248998068273,False,15,-1,1,14
Y2-S2-131M23,7,629,AS,exp,28,↑,up,↑,0.5503038999158889,True,16,-1,0,14
Y2-S2-131M23,7,630,AS,exp,27,←,left,←,0.5737276999279857,True,16,-1,0,14
Y2-S2-131M23,7,631,AS,exp,33,↑,up,↑,0.5164971000049263,True,16,1,1,15
Y2-S2-131M23,7,632,AS,exp,33,↓,down,↓,0.706165200099349,True,15,1,0,15
Y2-S2-131M23,7,633,AS,exp,49,←,right,→,0.6289937999099493,False,15,-1,1,16
Y2-S2-131M23,8,634,PS,intra_train,25,↑,down,↓,0.6263792999088764,False,13,-,-,-
Y2-S2-131M23,8,635,PS,intra_train,49,←,left,←,0.5316999000497162,True,13,-,-,-
Y2-S2-131M23,8,636,PS,intra_train,39,→,right,→,0.5949514999520034,True,13,-,-,-
Y2-S2-131M23,8,637,PS,intra_train,45,↓,left,←,0.859365199925378,False,13,-,-,-
Y2-S2-131M23,8,638,PS,intra_train,26,→,right,→,0.5331047000363469,True,13,-,-,-
Y2-S2-131M23,8,639,PS,exp,39,↓,down,↓,0.6983549001161009,True,9,0,0,0
Y2-S2-131M23,8,640,PS,exp,40,↑,right,→,0.5663568000309169,False,9,-1,0,0
Y2-S2-131M23,8,641,PS,exp,45,←,right,→,0.5782896000891924,False,10,-1,0,0
Y2-S2-131M23,8,642,PS,exp,37,↑,up,↑,0.6596657999325544,True,11,-1,0,0
Y2-S2-131M23,8,643,PS,exp,32,→,left,←,0.7421279998961836,False,11,-1,0,0
Y2-S2-131M23,8,644,PS,exp,38,←,right,→,0.7880881999153644,False,12,-1,0,0
Y2-S2-131M23,8,645,PS,exp,27,↑,up,↑,0.6083084999118,True,13,-1,0,0
Y2-S2-131M23,8,646,PS,exp,35,→,right,→,0.49920389987528324,True,13,-1,0,0
Y2-S2-131M23,8,647,PS,exp,42,↓,right,→,0.4578954998869449,False,13,-1,0,0
Y2-S2-131M23,8,648,PS,exp,46,↑,up,↑,0.5432979001197964,True,14,-1,0,0
Y2-S2-131M23,8,649,PS,exp,44,↓,down,↓,0.6100304999854416,True,14,-1,0,0
Y2-S2-131M23,8,650,PS,exp,34,←,down,↓,1.1437697000801563,False,14,-1,0,0
Y2-S2-131M23,8,651,PS,exp,25,↓,down,↓,0.8232525999192148,True,15,-1,0,0
Y2-S2-131M23,8,652,PS,exp,44,→,right,→,0.5158092000056058,True,15,-1,0,0
Y2-S2-131M23,8,653,PS,exp,40,↓,down,↓,0.6109432999510318,True,15,1,1,1
Y2-S2-131M23,8,654,PS,exp,49,↑,up,↑,0.7408636000473052,True,14,1,0,1
Y2-S2-131M23,8,655,PS,exp,41,↓,down,↓,0.7166152999270707,True,14,1,0,1
Y2-S2-131M23,8,656,PS,exp,43,↑,down,↓,0.6885416000150144,False,14,-1,1,2
Y2-S2-131M23,8,657,PS,exp,27,↓,down,↓,0.49298650003038347,True,15,-1,0,2
Y2-S2-131M23,8,658,PS,exp,40,←,left,←,0.5898579999338835,True,15,-1,0,2
Y2-S2-131M23,8,659,PS,exp,39,↓,down,↓,0.5346055999398232,True,15,1,1,3
Y2-S2-131M23,8,660,PS,exp,31,→,right,→,0.47438759985379875,True,14,1,0,3
Y2-S2-131M23,8,661,PS,exp,50,↓,down,↓,0.5434980997815728,True,14,1,0,3
Y2-S2-131M23,8,662,PS,exp,25,←,left,←,0.5204586000181735,True,14,1,0,3
Y2-S2-131M23,8,663,PS,exp,27,↑,right,→,0.6989969999995083,False,13,-1,1,4
Y2-S2-131M23,8,664,PS,exp,42,←,left,←,0.5840926000382751,True,14,-1,0,4
Y2-S2-131M23,8,665,PS,exp,35,↑,up,↑,0.602488299831748,True,14,-1,0,4
Y2-S2-131M23,8,666,PS,exp,40,↓,down,↓,0.8887221999466419,True,14,1,1,5
Y2-S2-131M23,8,667,PS,exp,25,←,left,←,0.584902900038287,True,13,1,0,5
Y2-S2-131M23,8,668,PS,exp,33,→,right,→,0.7755903000943363,True,13,1,0,5
Y2-S2-131M23,8,669,PS,exp,29,←,left,←,0.5376633999403566,True,13,1,0,5
Y2-S2-131M23,8,670,PS,exp,35,↑,up,↑,0.5336072000209242,True,12,1,0,5
Y2-S2-131M23,8,671,PS,exp,47,←,left,←,0.4984979999717325,True,12,1,0,5
Y2-S2-131M23,8,672,PS,exp,27,→,right,→,0.6900686000008136,True,12,1,0,5
Y2-S2-131M23,8,673,PS,exp,48,←,right,→,0.9138500997796655,False,11,-1,1,6
Y2-S2-131M23,8,674,PS,exp,37,→,left,←,0.67738790018484,False,12,-1,0,6
Y2-S2-131M23,8,675,PS,exp,38,↓,down,↓,0.6322590000927448,True,13,-1,0,6
Y2-S2-131M23,8,676,PS,exp,32,←,left,←,0.74228630005382,True,13,-1,0,6
Y2-S2-131M23,8,677,PS,exp,38,↓,down,↓,0.5878658001311123,True,13,1,1,7
Y2-S2-131M23,8,678,PS,exp,46,→,right,→,0.45291719981469214,True,12,1,0,7
Y2-S2-131M23,8,679,PS,exp,47,←,left,←,0.6580920000560582,True,12,1,0,7
Y2-S2-131M23,8,680,PS,exp,50,→,right,→,0.5047065999824554,True,12,1,0,7
Y2-S2-131M23,8,681,PS,exp,45,↓,left,←,0.7187949998769909,False,11,-1,1,8
Y2-S2-131M23,8,682,PS,exp,49,→,right,→,0.4971847999840975,True,12,-1,0,8
Y2-S2-131M23,8,683,PS,exp,27,↑,up,↑,0.6773854000493884,True,12,-1,0,8
Y2-S2-131M23,8,684,PS,exp,42,↓,down,↓,0.6532742001581937,True,12,1,1,9
Y2-S2-131M23,8,685,PS,exp,33,↑,up,↑,0.6256951000541449,True,11,1,0,9
Y2-S2-131M23,8,686,PS,exp,32,↓,down,↓,0.517441000090912,True,11,1,0,9
Y2-S2-131M23,8,687,PS,exp,44,↑,up,↑,0.5045447999145836,True,11,1,0,9
Y2-S2-131M23,8,688,PS,exp,46,←,left,←,0.5120749000925571,True,10,1,0,9
Y2-S2-131M23,8,689,PS,exp,30,↓,down,↓,0.581076999893412,True,10,1,0,9
Y2-S2-131M23,8,690,PS,exp,30,←,left,←,0.5206170999445021,True,10,1,0,9
Y2-S2-131M23,8,691,PS,exp,31,→,right,→,0.564217200037092,True,9,1,0,9
Y2-S2-131M23,8,692,PS,exp,38,↓,left,←,0.7453463000711054,False,9,-1,1,10
Y2-S2-131M23,8,693,PS,exp,34,↑,up,↑,0.6284539001062512,True,10,-1,0,10
Y2-S2-131M23,8,694,PS,exp,37,→,right,→,0.48146609985269606,True,10,-1,0,10
Y2-S2-131M23,8,695,PS,exp,27,↓,down,↓,0.6997497999109328,True,10,1,1,11
Y2-S2-131M23,8,696,PS,exp,37,→,right,→,0.49857369996607304,True,9,1,0,11
Y2-S2-131M23,8,697,PS,exp,28,↑,up,↑,0.6242965999990702,True,9,1,0,11
Y2-S2-131M23,8,698,PS,exp,48,→,right,→,0.47711370000615716,True,9,1,0,11
Y2-S2-131M23,8,699,PS,exp,42,←,left,←,0.6671569000463933,True,8,1,0,11
Y2-S2-131M23,8,700,PS,exp,44,↑,up,↑,0.5384918998461217,True,8,1,0,11
Y2-S2-131M23,8,701,PS,exp,32,↓,up,↑,0.5542013000231236,False,8,-1,1,12
Y2-S2-131M23,8,702,PS,exp,26,←,left,←,0.5257468000054359,True,9,-1,0,12
Y2-S2-131M23,8,703,PS,exp,36,↑,up,↑,0.42683170014061034,True,9,-1,0,12
Y2-S2-131M23,8,704,PS,exp,39,←,left,←,0.5151553000323474,True,9,1,1,13
Y2-S2-131M23,8,705,PS,exp,42,↑,up,↑,0.5063688000664115,True,8,1,0,13
Y2-S2-131M23,8,706,PS,exp,39,→,right,→,0.4784533998463303,True,8,1,0,13
Y2-S2-131M23,8,707,PS,exp,39,↓,down,↓,0.6244328999891877,True,8,1,0,13
Y2-S2-131M23,8,708,PS,exp,36,↑,down,↓,0.802646700059995,False,7,-1,1,14
Y2-S2-131M23,8,709,PS,exp,26,→,right,→,0.5611413000151515,True,8,-1,0,14
Y2-S2-131M23,8,710,PS,exp,47,←,left,←,0.6155930000822991,True,8,-1,0,14
Y2-S2-131M23,8,711,PS,exp,41,→,right,→,0.46628780011087656,True,8,1,1,15
Y2-S2-131M23,8,712,PS,exp,27,←,right,→,0.8232492001261562,False,7,-1,1,16
