PART_ID,Block_no,Trial_no,Block_type,Trial_type,CSI,Stim_letter,Key_pressed,letter_choose,Rt,Corr,Stimulus Time,Level,Reversal,Revs_count
Y2-S2-208K26,1,1,PS,train,27,↓,down,↓,1.251005999976769,True,30,-,-,-
Y2-S2-208K26,1,2,PS,train,40,→,right,→,0.972253599902615,True,30,-,-,-
Y2-S2-208K26,1,3,PS,train,46,↓,down,↓,1.1187268998473883,True,30,-,-,-
Y2-S2-208K26,1,4,PS,train,41,←,left,←,1.5355881999712437,True,30,-,-,-
Y2-S2-208K26,1,5,PS,train,30,↓,down,↓,0.8429443000350147,True,30,-,-,-
Y2-S2-208K26,1,6,PS,train,34,↑,up,↑,0.8424949001055211,True,30,-,-,-
Y2-S2-208K26,1,7,PS,train,28,↓,left,←,1.297024899860844,False,30,-,-,-
Y2-S2-208K26,1,8,PS,train,29,←,left,←,0.7735328997951001,True,30,-,-,-
Y2-S2-208K26,1,9,PS,train,33,↓,down,↓,0.8388768997974694,True,30,-,-,-
Y2-S2-208K26,1,10,PS,train,45,↑,up,↑,0.9186728000640869,True,30,-,-,-
Y2-S2-208K26,2,11,AS,train,40,→,right,→,1.046487000072375,True,45,-,-,-
Y2-S2-208K26,2,12,AS,train,40,←,left,←,1.0829089998733252,True,45,-,-,-
Y2-S2-208K26,2,13,AS,train,50,→,right,→,1.6889687001239508,True,45,-,-,-
Y2-S2-208K26,2,14,AS,train,47,↓,down,↓,0.9944448999594897,True,45,-,-,-
Y2-S2-208K26,2,15,AS,train,26,↑,up,↑,0.9605577001348138,True,45,-,-,-
Y2-S2-208K26,2,16,AS,train,30,↓,down,↓,0.7340789998415858,True,45,-,-,-
Y2-S2-208K26,2,17,AS,train,43,→,right,→,1.0501856000628322,True,45,-,-,-
Y2-S2-208K26,2,18,AS,train,41,↑,up,↑,0.8839440001174808,True,45,-,-,-
Y2-S2-208K26,2,19,AS,train,31,↓,down,↓,1.0020189001224935,True,45,-,-,-
Y2-S2-208K26,2,20,AS,train,33,→,right,→,0.8335498999804258,True,45,-,-,-
Y2-S2-208K26,-,21,PS,adaptive,28,←,left,←,0.7341906998772174,True,10,0,0,0
Y2-S2-208K26,-,22,PS,adaptive,45,↑,up,↑,1.1082366001792252,True,10,0,0,0
Y2-S2-208K26,-,23,PS,adaptive,48,→,right,→,0.875395700102672,True,10,1,0,0
Y2-S2-208K26,-,24,PS,adaptive,44,↑,left,←,0.8946849999483675,False,9,-1,1,1
Y2-S2-208K26,-,25,PS,adaptive,32,→,left,←,0.7084350001532584,False,10,-1,0,1
Y2-S2-208K26,-,26,PS,adaptive,49,↑,up,↑,1.435851899906993,True,11,-1,0,1
Y2-S2-208K26,-,27,PS,adaptive,50,←,left,←,0.8488374000880867,True,11,-1,0,1
Y2-S2-208K26,-,28,PS,adaptive,39,↓,down,↓,0.8299363001715392,True,11,1,1,2
Y2-S2-208K26,-,29,PS,adaptive,40,←,left,←,0.6482077999971807,True,10,1,0,2
Y2-S2-208K26,-,30,PS,adaptive,31,→,right,→,0.6123204999603331,True,10,1,0,2
Y2-S2-208K26,-,31,PS,adaptive,48,←,left,←,0.62870500003919,True,10,1,0,2
Y2-S2-208K26,-,32,PS,adaptive,31,→,right,→,0.5584066000301391,True,9,1,0,2
Y2-S2-208K26,-,33,PS,adaptive,43,↓,down,↓,0.6597817000001669,True,9,1,0,2
Y2-S2-208K26,-,34,PS,adaptive,28,→,left,←,0.6778028998523951,False,9,-1,1,3
Y2-S2-208K26,-,35,PS,adaptive,43,←,left,←,0.6983942999504507,True,10,-1,0,3
Y2-S2-208K26,-,36,PS,adaptive,42,→,right,→,0.5765593000687659,True,10,-1,0,3
Y2-S2-208K26,-,37,PS,adaptive,49,↑,left,←,0.7009338999632746,False,10,-1,0,3
Y2-S2-208K26,-,38,PS,adaptive,31,←,left,←,0.6219689999707043,True,11,-1,0,3
Y2-S2-208K26,-,39,PS,adaptive,28,↑,no_key,no_letter,-1.0,False,11,-1,0,3
Y2-S2-208K26,-,40,PS,adaptive,45,↓,right,→,1.1669143999461085,False,12,-1,0,3
Y2-S2-208K26,-,41,PS,adaptive,47,←,left,←,0.6529216000344604,True,13,-1,0,3
Y2-S2-208K26,-,42,PS,adaptive,46,↓,down,↓,0.6752920998260379,True,13,-1,0,3
Y2-S2-208K26,-,43,PS,adaptive,32,←,left,←,0.6879182001575828,True,13,1,1,4
Y2-S2-208K26,-,44,AS,adaptive,42,→,down,↓,1.179459400009364,False,20,-1,0,0
Y2-S2-208K26,-,45,AS,adaptive,42,↓,down,↓,0.7134509000461549,True,21,-1,0,0
Y2-S2-208K26,-,46,AS,adaptive,39,→,right,→,0.6817119000479579,True,21,-1,0,0
Y2-S2-208K26,-,47,AS,adaptive,30,↓,down,↓,0.6685524999629706,True,21,1,1,1
Y2-S2-208K26,-,48,AS,adaptive,48,←,left,←,0.6992399001028389,True,20,1,0,1
Y2-S2-208K26,-,49,AS,adaptive,32,↑,up,↑,0.7040697000920773,True,20,1,0,1
Y2-S2-208K26,-,50,AS,adaptive,43,←,left,←,0.5814247999805957,True,20,1,0,1
Y2-S2-208K26,-,51,AS,adaptive,34,↑,right,→,0.8122497000731528,False,19,-1,1,2
Y2-S2-208K26,-,52,AS,adaptive,34,→,left,←,0.8608607000205666,False,20,-1,0,2
Y2-S2-208K26,-,53,AS,adaptive,40,↑,up,↑,0.8051838998217136,True,21,-1,0,2
Y2-S2-208K26,-,54,AS,adaptive,33,←,left,←,0.6498136001173407,True,21,-1,0,2
Y2-S2-208K26,-,55,AS,adaptive,30,↑,up,↑,0.796517200069502,True,21,1,1,3
Y2-S2-208K26,-,56,AS,adaptive,33,←,left,←,0.638231199933216,True,20,1,0,3
Y2-S2-208K26,-,57,AS,adaptive,47,↑,up,↑,0.6944210000801831,True,20,1,0,3
Y2-S2-208K26,-,58,AS,adaptive,48,→,right,→,0.7489687998313457,True,20,1,0,3
Y2-S2-208K26,-,59,AS,adaptive,43,↑,up,↑,0.8379870001226664,True,19,1,0,3
Y2-S2-208K26,-,60,AS,adaptive,34,←,left,←,0.7526352999266237,True,19,1,0,3
Y2-S2-208K26,-,61,AS,adaptive,43,↑,up,↑,0.7477591999340802,True,19,1,0,3
Y2-S2-208K26,-,62,AS,adaptive,34,←,left,←,0.5588851000647992,True,18,1,0,3
Y2-S2-208K26,-,63,AS,adaptive,50,↓,down,↓,0.8232179000042379,True,18,1,0,3
Y2-S2-208K26,-,64,AS,adaptive,42,→,right,→,0.878016599919647,True,18,1,0,3
Y2-S2-208K26,-,65,AS,adaptive,29,←,left,←,0.7765583998989314,True,17,1,0,3
Y2-S2-208K26,-,66,AS,adaptive,49,↓,down,↓,0.713039199821651,True,17,1,0,3
Y2-S2-208K26,-,67,AS,adaptive,33,→,right,→,0.711846400052309,True,17,1,0,3
Y2-S2-208K26,-,68,AS,adaptive,49,↓,down,↓,0.6870327000506222,True,16,1,0,3
Y2-S2-208K26,-,69,AS,adaptive,31,←,down,↓,0.8051015001256019,False,16,-1,1,4
Y2-S2-208K26,1,70,AS,intra_train,39,→,right,→,0.6479119998402894,True,25,-,-,-
Y2-S2-208K26,1,71,AS,intra_train,42,←,left,←,0.6403580999467522,True,25,-,-,-
Y2-S2-208K26,1,72,AS,intra_train,34,↓,down,↓,0.726843100041151,True,25,-,-,-
Y2-S2-208K26,1,73,AS,intra_train,29,→,right,→,0.5888477000407875,True,25,-,-,-
Y2-S2-208K26,1,74,AS,intra_train,39,↓,down,↓,0.7844781000167131,True,25,-,-,-
Y2-S2-208K26,1,75,AS,exp,32,←,left,←,0.6794819999486208,True,17,0,0,0
Y2-S2-208K26,1,76,AS,exp,47,↓,down,↓,0.839137300150469,True,17,0,0,0
Y2-S2-208K26,1,77,AS,exp,30,→,right,→,0.6520166001282632,True,17,1,0,0
Y2-S2-208K26,1,78,AS,exp,46,↓,down,↓,0.5824611999560148,True,16,1,0,0
Y2-S2-208K26,1,79,AS,exp,50,→,right,→,0.5262509998865426,True,16,1,0,0
Y2-S2-208K26,1,80,AS,exp,37,↓,down,↓,0.5842349999584258,True,16,1,0,0
Y2-S2-208K26,1,81,AS,exp,46,←,left,←,0.6140221999958158,True,15,1,0,0
Y2-S2-208K26,1,82,AS,exp,28,→,left,←,0.746030000038445,False,15,-1,1,1
Y2-S2-208K26,1,83,AS,exp,39,←,left,←,0.6091028000228107,True,16,-1,0,1
Y2-S2-208K26,1,84,AS,exp,44,→,down,↓,0.9423801000230014,False,16,-1,0,1
Y2-S2-208K26,1,85,AS,exp,48,↓,down,↓,0.6570890999864787,True,17,-1,0,1
Y2-S2-208K26,1,86,AS,exp,48,↑,left,←,0.6936600999906659,False,17,-1,0,1
Y2-S2-208K26,1,87,AS,exp,37,→,left,←,0.9319877000525594,False,18,-1,0,1
Y2-S2-208K26,1,88,AS,exp,48,↑,up,↑,0.8015551001299173,True,19,-1,0,1
Y2-S2-208K26,1,89,AS,exp,33,↓,down,↓,0.7741175000555813,True,19,-1,0,1
Y2-S2-208K26,1,90,AS,exp,34,←,left,←,0.5776161998510361,True,19,1,1,2
Y2-S2-208K26,1,91,AS,exp,39,↑,up,↑,0.7015806001145393,True,18,1,0,2
Y2-S2-208K26,1,92,AS,exp,50,→,right,→,0.6271548999939114,True,18,1,0,2
Y2-S2-208K26,1,93,AS,exp,40,↑,up,↑,1.054572699824348,True,18,1,0,2
Y2-S2-208K26,1,94,AS,exp,26,→,right,→,0.5574558000080287,True,17,1,0,2
Y2-S2-208K26,1,95,AS,exp,47,←,left,←,0.708151999861002,True,17,1,0,2
Y2-S2-208K26,1,96,AS,exp,32,↑,up,↑,0.7777562001720071,True,17,1,0,2
Y2-S2-208K26,1,97,AS,exp,37,↓,up,↑,0.9967702000867575,False,16,-1,1,3
Y2-S2-208K26,1,98,AS,exp,28,→,right,→,0.6111701999325305,True,17,-1,0,3
Y2-S2-208K26,1,99,AS,exp,44,←,left,←,0.6561195000540465,True,17,-1,0,3
Y2-S2-208K26,1,100,AS,exp,31,↓,down,↓,0.6757400999777019,True,17,1,1,4
Y2-S2-208K26,1,101,AS,exp,26,→,right,→,0.569942899979651,True,16,1,0,4
Y2-S2-208K26,1,102,AS,exp,33,↑,up,↑,0.6908426000736654,True,16,1,0,4
Y2-S2-208K26,1,103,AS,exp,25,↓,down,↓,0.872278300113976,True,16,1,0,4
Y2-S2-208K26,1,104,AS,exp,34,→,up,↑,1.304265599930659,False,15,-1,1,5
Y2-S2-208K26,1,105,AS,exp,33,↓,down,↓,0.6547594999428838,True,16,-1,0,5
Y2-S2-208K26,1,106,AS,exp,50,←,left,←,0.6970388998743147,True,16,-1,0,5
Y2-S2-208K26,1,107,AS,exp,26,↓,down,↓,0.8579555000178516,True,16,1,1,6
Y2-S2-208K26,1,108,AS,exp,27,↑,up,↑,0.8372510001063347,True,15,1,0,6
Y2-S2-208K26,1,109,AS,exp,35,←,left,←,0.6811078998725861,True,15,1,0,6
Y2-S2-208K26,1,110,AS,exp,50,↓,down,↓,0.7007856999989599,True,15,1,0,6
Y2-S2-208K26,1,111,AS,exp,45,↑,down,↓,0.9028340000659227,False,14,-1,1,7
Y2-S2-208K26,1,112,AS,exp,41,←,left,←,0.8047176001127809,True,15,-1,0,7
Y2-S2-208K26,1,113,AS,exp,39,↑,up,↑,0.6723613999783993,True,15,-1,0,7
Y2-S2-208K26,1,114,AS,exp,37,↓,up,↑,0.5114949000999331,False,15,-1,0,7
Y2-S2-208K26,1,115,AS,exp,29,↑,up,↑,0.5792767000384629,True,16,-1,0,7
Y2-S2-208K26,1,116,AS,exp,50,↓,up,↑,0.67257219995372,False,16,-1,0,7
Y2-S2-208K26,1,117,AS,exp,50,↑,up,↑,0.6918053000699729,True,17,-1,0,7
Y2-S2-208K26,1,118,AS,exp,28,←,left,←,0.6296878999564797,True,17,-1,0,7
Y2-S2-208K26,1,119,AS,exp,30,→,right,→,0.593491300009191,True,17,1,1,8
Y2-S2-208K26,1,120,AS,exp,42,↑,up,↑,0.5831106000114232,True,16,1,0,8
Y2-S2-208K26,1,121,AS,exp,39,↓,down,↓,0.7149498001672328,True,16,1,0,8
Y2-S2-208K26,1,122,AS,exp,37,→,right,→,0.5996106001548469,True,16,1,0,8
Y2-S2-208K26,1,123,AS,exp,49,↑,left,←,0.9002574998885393,False,15,-1,1,9
Y2-S2-208K26,1,124,AS,exp,48,←,left,←,0.6476791000459343,True,16,-1,0,9
Y2-S2-208K26,1,125,AS,exp,45,↓,down,↓,0.7707076000515372,True,16,-1,0,9
Y2-S2-208K26,1,126,AS,exp,37,←,left,←,0.5809969000983983,True,16,1,1,10
Y2-S2-208K26,1,127,AS,exp,27,↓,down,↓,0.761596999829635,True,15,1,0,10
Y2-S2-208K26,1,128,AS,exp,37,←,left,←,0.809404700063169,True,15,1,0,10
Y2-S2-208K26,1,129,AS,exp,33,↑,up,↑,0.9169344000983983,True,15,1,0,10
Y2-S2-208K26,1,130,AS,exp,29,↓,down,↓,0.7085585999302566,True,14,1,0,10
Y2-S2-208K26,1,131,AS,exp,41,↑,left,←,0.9778169000055641,False,14,-1,1,11
Y2-S2-208K26,1,132,AS,exp,40,→,left,←,0.7323896999005228,False,15,-1,0,11
Y2-S2-208K26,1,133,AS,exp,42,↑,up,↑,0.9583404001314193,True,16,-1,0,11
Y2-S2-208K26,1,134,AS,exp,41,↓,down,↓,0.8024831998627633,True,16,-1,0,11
Y2-S2-208K26,1,135,AS,exp,46,←,left,←,0.6103391000069678,True,16,1,1,12
Y2-S2-208K26,1,136,AS,exp,50,↓,left,←,0.7051212000660598,False,15,-1,1,13
Y2-S2-208K26,1,137,AS,exp,44,←,left,←,0.6284107000101358,True,16,-1,0,13
Y2-S2-208K26,1,138,AS,exp,39,→,left,←,0.5571886000689119,False,16,-1,0,13
Y2-S2-208K26,1,139,AS,exp,32,←,left,←,0.7452471000142395,True,17,-1,0,13
Y2-S2-208K26,1,140,AS,exp,25,→,right,→,0.5556870999280363,True,17,-1,0,13
Y2-S2-208K26,1,141,AS,exp,32,←,left,←,0.6064853998832405,True,17,1,1,14
Y2-S2-208K26,1,142,AS,exp,44,↑,up,↑,0.7203180999495089,True,16,1,0,14
Y2-S2-208K26,1,143,AS,exp,40,→,up,↑,0.8492044000886381,False,16,-1,1,15
Y2-S2-208K26,1,144,AS,exp,29,←,left,←,0.5673992000520229,True,17,-1,0,15
Y2-S2-208K26,1,145,AS,exp,31,→,left,←,0.6742549000773579,False,17,-1,0,15
Y2-S2-208K26,1,146,AS,exp,37,↓,down,↓,0.7439749001059681,True,18,-1,0,15
Y2-S2-208K26,1,147,AS,exp,25,↑,up,↑,0.8218749999068677,True,18,-1,0,15
Y2-S2-208K26,1,148,AS,exp,46,←,left,←,0.5571798998862505,True,18,1,1,16
Y2-S2-208K26,2,149,PS,intra_train,41,↓,down,↓,0.5775181001517922,True,18,-,-,-
Y2-S2-208K26,2,150,PS,intra_train,28,←,left,←,0.769853699952364,True,18,-,-,-
Y2-S2-208K26,2,151,PS,intra_train,49,→,right,→,0.6316012002062052,True,18,-,-,-
Y2-S2-208K26,2,152,PS,intra_train,29,←,left,←,0.6092989998869598,True,18,-,-,-
Y2-S2-208K26,2,153,PS,intra_train,40,→,right,→,0.5274824998341501,True,18,-,-,-
Y2-S2-208K26,2,154,PS,exp,27,←,left,←,0.5148424000944942,True,12,0,0,0
Y2-S2-208K26,2,155,PS,exp,36,↓,down,↓,0.6022413000464439,True,12,0,0,0
Y2-S2-208K26,2,156,PS,exp,28,→,left,←,0.595390300033614,False,12,-1,0,0
Y2-S2-208K26,2,157,PS,exp,48,↓,down,↓,0.5724814001005143,True,13,-1,0,0
Y2-S2-208K26,2,158,PS,exp,32,→,right,→,0.5703068000730127,True,13,-1,0,0
Y2-S2-208K26,2,159,PS,exp,47,↑,up,↑,0.5988942000549287,True,13,1,1,1
Y2-S2-208K26,2,160,PS,exp,38,→,right,→,0.7986274000722915,True,12,1,0,1
Y2-S2-208K26,2,161,PS,exp,48,↑,left,←,0.7487667000386864,False,12,-1,1,2
Y2-S2-208K26,2,162,PS,exp,47,←,left,←,0.5489966000895947,True,13,-1,0,2
Y2-S2-208K26,2,163,PS,exp,49,↑,up,↑,0.6540598999708891,True,13,-1,0,2
Y2-S2-208K26,2,164,PS,exp,39,→,right,→,0.5266129998490214,True,13,1,1,3
Y2-S2-208K26,2,165,PS,exp,34,↓,right,→,0.5870017998386174,False,12,-1,1,4
Y2-S2-208K26,2,166,PS,exp,40,→,left,←,0.7623928999528289,False,13,-1,0,4
Y2-S2-208K26,2,167,PS,exp,47,↓,down,↓,0.6162349998485297,True,14,-1,0,4
Y2-S2-208K26,2,168,PS,exp,44,→,right,→,0.529892000136897,True,14,-1,0,4
Y2-S2-208K26,2,169,PS,exp,26,←,left,←,0.628868600120768,True,14,1,1,5
Y2-S2-208K26,2,170,PS,exp,26,↓,down,↓,0.5772022001910955,True,13,1,0,5
Y2-S2-208K26,2,171,PS,exp,41,↑,up,↑,0.6305069997906685,True,13,1,0,5
Y2-S2-208K26,2,172,PS,exp,36,←,left,←,0.5872202999889851,True,13,1,0,5
Y2-S2-208K26,2,173,PS,exp,50,↑,up,↑,0.5276398002170026,True,12,1,0,5
Y2-S2-208K26,2,174,PS,exp,28,→,left,←,0.5977358999662101,False,12,-1,1,6
Y2-S2-208K26,2,175,PS,exp,34,↑,up,↑,0.4906566001009196,True,13,-1,0,6
Y2-S2-208K26,2,176,PS,exp,32,→,right,→,0.46550179994665086,True,13,-1,0,6
Y2-S2-208K26,2,177,PS,exp,36,←,left,←,0.4994025998748839,True,13,1,1,7
Y2-S2-208K26,2,178,PS,exp,40,→,right,→,0.5179802000056952,True,12,1,0,7
Y2-S2-208K26,2,179,PS,exp,45,←,left,←,0.4826985001564026,True,12,1,0,7
Y2-S2-208K26,2,180,PS,exp,41,→,right,→,0.5199822001159191,True,12,1,0,7
Y2-S2-208K26,2,181,PS,exp,32,←,right,→,0.9720326999668032,False,11,-1,1,8
Y2-S2-208K26,2,182,PS,exp,30,↓,down,↓,0.6583189000375569,True,12,-1,0,8
Y2-S2-208K26,2,183,PS,exp,27,→,right,→,0.46276040002703667,True,12,-1,0,8
Y2-S2-208K26,2,184,PS,exp,28,←,left,←,0.7154542000498623,True,12,1,1,9
Y2-S2-208K26,2,185,PS,exp,50,↓,right,→,0.9352164000738412,False,11,-1,1,10
Y2-S2-208K26,2,186,PS,exp,28,↑,right,→,0.8649752999190241,False,12,-1,0,10
Y2-S2-208K26,2,187,PS,exp,46,←,left,←,0.5266586998477578,True,13,-1,0,10
Y2-S2-208K26,2,188,PS,exp,34,→,left,←,0.9458471001125872,False,13,-1,0,10
Y2-S2-208K26,2,189,PS,exp,42,↓,down,↓,0.6114735000301152,True,14,-1,0,10
Y2-S2-208K26,2,190,PS,exp,49,→,right,→,0.4977291999384761,True,14,-1,0,10
Y2-S2-208K26,2,191,PS,exp,31,←,down,↓,0.9261278000194579,False,14,-1,0,10
Y2-S2-208K26,2,192,PS,exp,43,↓,down,↓,0.542608399875462,True,15,-1,0,10
Y2-S2-208K26,2,193,PS,exp,45,↑,up,↑,0.5617674998939037,True,15,-1,0,10
Y2-S2-208K26,2,194,PS,exp,50,→,right,→,0.46997079998254776,True,15,1,1,11
Y2-S2-208K26,2,195,PS,exp,28,↓,down,↓,0.555766599951312,True,14,1,0,11
Y2-S2-208K26,2,196,PS,exp,25,←,left,←,0.5868829998653382,True,14,1,0,11
Y2-S2-208K26,2,197,PS,exp,43,↓,down,↓,0.5703599001280963,True,14,1,0,11
Y2-S2-208K26,2,198,PS,exp,34,→,right,→,0.6755593998823315,True,13,1,0,11
Y2-S2-208K26,2,199,PS,exp,41,←,left,←,0.5167591001372784,True,13,1,0,11
Y2-S2-208K26,2,200,PS,exp,48,→,right,→,0.4344981999602169,True,13,1,0,11
Y2-S2-208K26,2,201,PS,exp,50,↑,up,↑,0.6576382999774069,True,12,1,0,11
Y2-S2-208K26,2,202,PS,exp,35,→,right,→,0.41386199998669326,True,12,1,0,11
Y2-S2-208K26,2,203,PS,exp,44,↓,down,↓,0.6034465997945517,True,12,1,0,11
Y2-S2-208K26,2,204,PS,exp,27,←,left,←,0.9544759001582861,True,11,1,0,11
Y2-S2-208K26,2,205,PS,exp,33,↓,right,→,0.624297000002116,False,11,-1,1,12
Y2-S2-208K26,2,206,PS,exp,34,↑,up,↑,0.6254511999431998,True,12,-1,0,12
Y2-S2-208K26,2,207,PS,exp,43,←,left,←,0.4912636000663042,True,12,-1,0,12
Y2-S2-208K26,2,208,PS,exp,28,→,left,←,1.2767942000646144,False,12,-1,0,12
Y2-S2-208K26,2,209,PS,exp,39,↑,up,↑,0.6049516999628395,True,13,-1,0,12
Y2-S2-208K26,2,210,PS,exp,50,→,right,→,0.4546792998444289,True,13,-1,0,12
Y2-S2-208K26,2,211,PS,exp,26,↓,up,↑,1.2247936001513153,False,13,-1,0,12
Y2-S2-208K26,2,212,PS,exp,46,→,left,←,0.6815241000149399,False,14,-1,0,12
Y2-S2-208K26,2,213,PS,exp,49,←,left,←,0.484728200128302,True,15,-1,0,12
Y2-S2-208K26,2,214,PS,exp,38,→,right,→,0.6642322998959571,True,15,-1,0,12
Y2-S2-208K26,2,215,PS,exp,40,↑,up,↑,0.5911749999504536,True,15,1,1,13
Y2-S2-208K26,2,216,PS,exp,34,←,left,←,0.45455470005981624,True,14,1,0,13
Y2-S2-208K26,2,217,PS,exp,28,↑,right,→,0.8733567998278886,False,14,-1,1,14
Y2-S2-208K26,2,218,PS,exp,40,←,right,→,0.7975049000233412,False,15,-1,0,14
Y2-S2-208K26,2,219,PS,exp,37,↑,up,↑,1.6234351999592036,True,16,-1,0,14
Y2-S2-208K26,2,220,PS,exp,26,→,up,↑,1.1399751000571996,False,16,-1,0,14
Y2-S2-208K26,2,221,PS,exp,50,↓,down,↓,0.5554901000577956,True,17,-1,0,14
Y2-S2-208K26,2,222,PS,exp,32,↑,up,↑,0.5537461000494659,True,17,-1,0,14
Y2-S2-208K26,2,223,PS,exp,47,←,left,←,0.5211361998226494,True,17,1,1,15
Y2-S2-208K26,2,224,PS,exp,43,↓,down,↓,0.5789759999606758,True,16,1,0,15
Y2-S2-208K26,2,225,PS,exp,48,↑,up,↑,0.5998490999918431,True,16,1,0,15
Y2-S2-208K26,2,226,PS,exp,45,↓,down,↓,0.6087919999845326,True,16,1,0,15
Y2-S2-208K26,2,227,PS,exp,45,←,left,←,0.5306842001155019,True,15,1,0,15
Y2-S2-208K26,2,228,PS,exp,42,→,right,→,0.5016451000701636,True,15,1,0,15
Y2-S2-208K26,2,229,PS,exp,40,↑,up,↑,0.57005580002442,True,15,1,0,15
Y2-S2-208K26,2,230,PS,exp,39,→,right,→,0.5036355999764055,True,14,1,0,15
Y2-S2-208K26,2,231,PS,exp,39,←,left,←,0.5491757998242974,True,14,1,0,15
Y2-S2-208K26,2,232,PS,exp,49,↑,down,↓,1.129689000081271,False,14,-1,1,16
Y2-S2-208K26,3,233,PS,intra_train,35,→,right,→,0.5886764000169933,True,18,-,-,-
Y2-S2-208K26,3,234,PS,intra_train,41,←,left,←,0.7480872999876738,True,18,-,-,-
Y2-S2-208K26,3,235,PS,intra_train,41,↓,down,↓,0.6197873000055552,True,18,-,-,-
Y2-S2-208K26,3,236,PS,intra_train,40,→,right,→,0.4692411001306027,True,18,-,-,-
Y2-S2-208K26,3,237,PS,intra_train,35,←,left,←,0.4902707999572158,True,18,-,-,-
Y2-S2-208K26,3,238,PS,exp,25,↓,down,↓,0.8638806999661028,True,12,0,0,0
Y2-S2-208K26,3,239,PS,exp,26,←,right,→,0.7268680001143366,False,12,-1,0,0
Y2-S2-208K26,3,240,PS,exp,42,→,right,→,0.44557729992084205,True,13,-1,0,0
Y2-S2-208K26,3,241,PS,exp,29,←,left,←,0.7060339001473039,True,13,-1,0,0
Y2-S2-208K26,3,242,PS,exp,49,↓,down,↓,0.596699699992314,True,13,1,1,1
Y2-S2-208K26,3,243,PS,exp,31,←,left,←,1.001797400182113,True,12,1,0,1
Y2-S2-208K26,3,244,PS,exp,36,↓,down,↓,0.5744721998926252,True,12,1,0,1
Y2-S2-208K26,3,245,PS,exp,40,←,left,←,0.5773691998329014,True,12,1,0,1
Y2-S2-208K26,3,246,PS,exp,28,↑,up,↑,0.5919117999728769,True,11,1,0,1
Y2-S2-208K26,3,247,PS,exp,48,←,left,←,0.47522760019637644,True,11,1,0,1
Y2-S2-208K26,3,248,PS,exp,28,↓,up,↑,1.087541899876669,False,11,-1,1,2
Y2-S2-208K26,3,249,PS,exp,37,↑,up,↑,0.5787206999957561,True,12,-1,0,2
Y2-S2-208K26,3,250,PS,exp,35,→,right,→,0.499780299840495,True,12,-1,0,2
Y2-S2-208K26,3,251,PS,exp,43,←,left,←,0.49171170010231435,True,12,1,1,3
Y2-S2-208K26,3,252,PS,exp,32,→,right,→,0.4693311001174152,True,11,1,0,3
Y2-S2-208K26,3,253,PS,exp,26,↑,up,↑,0.6233685999177396,True,11,1,0,3
Y2-S2-208K26,3,254,PS,exp,30,←,left,←,0.5144118000753224,True,11,1,0,3
Y2-S2-208K26,3,255,PS,exp,31,↓,down,↓,0.6312307000625879,True,10,1,0,3
Y2-S2-208K26,3,256,PS,exp,40,↑,up,↑,0.5898045999929309,True,10,1,0,3
Y2-S2-208K26,3,257,PS,exp,49,↓,down,↓,0.6399542998988181,True,10,1,0,3
Y2-S2-208K26,3,258,PS,exp,38,←,left,←,0.4726111001800746,True,9,1,0,3
Y2-S2-208K26,3,259,PS,exp,49,↓,down,↓,0.5745050001423806,True,9,1,0,3
Y2-S2-208K26,3,260,PS,exp,45,←,left,←,0.5451523999217898,True,9,1,0,3
Y2-S2-208K26,3,261,PS,exp,34,→,right,→,0.48792960005812347,True,8,1,0,3
Y2-S2-208K26,3,262,PS,exp,46,←,left,←,0.4752906998619437,True,8,1,0,3
Y2-S2-208K26,3,263,PS,exp,39,↓,down,↓,0.6317890000063926,True,8,1,0,3
Y2-S2-208K26,3,264,PS,exp,32,→,right,→,0.4988868001382798,True,7,1,0,3
Y2-S2-208K26,3,265,PS,exp,42,↓,down,↓,0.6941132000647485,True,7,1,0,3
Y2-S2-208K26,3,266,PS,exp,46,↑,up,↑,0.6034065000712872,True,7,1,0,3
Y2-S2-208K26,3,267,PS,exp,28,→,up,↑,0.9145688998978585,False,6,-1,1,4
Y2-S2-208K26,3,268,PS,exp,39,←,left,←,0.6264601999428123,True,7,-1,0,4
Y2-S2-208K26,3,269,PS,exp,44,→,right,→,0.6696423999965191,True,7,-1,0,4
Y2-S2-208K26,3,270,PS,exp,49,←,left,←,0.5788620000239462,True,7,1,1,5
Y2-S2-208K26,3,271,PS,exp,28,→,up,↑,1.038814099971205,False,6,-1,1,6
Y2-S2-208K26,3,272,PS,exp,44,←,left,←,0.5968836999963969,True,7,-1,0,6
Y2-S2-208K26,3,273,PS,exp,30,↑,up,↑,0.644152999855578,True,7,-1,0,6
Y2-S2-208K26,3,274,PS,exp,28,↓,down,↓,0.6266803001053631,True,7,1,1,7
Y2-S2-208K26,3,275,PS,exp,38,→,left,←,0.6023750000167638,False,6,-1,1,8
Y2-S2-208K26,3,276,PS,exp,27,↑,up,↑,0.5737374001182616,True,7,-1,0,8
Y2-S2-208K26,3,277,PS,exp,27,↓,down,↓,0.5819331000093371,True,7,-1,0,8
Y2-S2-208K26,3,278,PS,exp,39,↑,down,↓,0.6705724999774247,False,7,-1,0,8
Y2-S2-208K26,3,279,PS,exp,33,→,right,→,0.6171760000288486,True,8,-1,0,8
Y2-S2-208K26,3,280,PS,exp,48,←,down,↓,1.0111890002153814,False,8,-1,0,8
Y2-S2-208K26,3,281,PS,exp,45,↓,right,→,0.9099113999400288,False,9,-1,0,8
Y2-S2-208K26,3,282,PS,exp,34,→,right,→,0.6935230998788029,True,10,-1,0,8
Y2-S2-208K26,3,283,PS,exp,34,←,left,←,0.6578234999906272,True,10,-1,0,8
Y2-S2-208K26,3,284,PS,exp,45,↑,left,←,0.6595453000627458,False,10,-1,0,8
Y2-S2-208K26,3,285,PS,exp,38,↓,right,→,0.9470712000038475,False,11,-1,0,8
Y2-S2-208K26,3,286,PS,exp,46,→,up,↑,1.1296576999593526,False,12,-1,0,8
Y2-S2-208K26,3,287,PS,exp,48,↑,up,↑,0.6100129999686033,True,13,-1,0,8
Y2-S2-208K26,3,288,PS,exp,34,→,up,↑,0.7162222999613732,False,13,-1,0,8
Y2-S2-208K26,3,289,PS,exp,25,←,up,↑,0.7600612000096589,False,14,-1,0,8
Y2-S2-208K26,3,290,PS,exp,45,↑,up,↑,0.6994978999719024,True,15,-1,0,8
Y2-S2-208K26,3,291,PS,exp,32,→,right,→,0.4504517000168562,True,15,-1,0,8
Y2-S2-208K26,3,292,PS,exp,46,←,left,←,0.5131686998065561,True,15,1,1,9
Y2-S2-208K26,3,293,PS,exp,44,↑,up,↑,0.6482847000006586,True,14,1,0,9
Y2-S2-208K26,3,294,PS,exp,48,↓,down,↓,0.6268878001719713,True,14,1,0,9
Y2-S2-208K26,3,295,PS,exp,40,←,left,←,0.6920370999723673,True,14,1,0,9
Y2-S2-208K26,3,296,PS,exp,37,↑,up,↑,0.6387973998207599,True,13,1,0,9
Y2-S2-208K26,3,297,PS,exp,25,←,left,←,0.6329884000588208,True,13,1,0,9
Y2-S2-208K26,3,298,PS,exp,41,↑,up,↑,0.582533499924466,True,13,1,0,9
Y2-S2-208K26,3,299,PS,exp,27,↓,right,→,1.1042950002010912,False,12,-1,1,10
Y2-S2-208K26,3,300,PS,exp,41,←,left,←,0.5433325001504272,True,13,-1,0,10
Y2-S2-208K26,3,301,PS,exp,48,→,right,→,0.5457309999037534,True,13,-1,0,10
Y2-S2-208K26,3,302,PS,exp,27,←,left,←,0.5926093999296427,True,13,1,1,11
Y2-S2-208K26,3,303,PS,exp,31,↓,left,←,1.7479868000373244,False,12,-1,1,12
Y2-S2-208K26,3,304,PS,exp,25,↑,right,→,0.7508893001358956,False,13,-1,0,12
Y2-S2-208K26,3,305,PS,exp,44,→,right,→,0.5898275000508875,True,14,-1,0,12
Y2-S2-208K26,3,306,PS,exp,27,↓,up,↑,0.7199015999212861,False,14,-1,0,12
Y2-S2-208K26,3,307,PS,exp,48,→,right,→,0.523633100092411,True,15,-1,0,12
Y2-S2-208K26,3,308,PS,exp,41,↑,up,↑,0.6841064000036567,True,15,-1,0,12
Y2-S2-208K26,3,309,PS,exp,29,↓,down,↓,0.6084588998928666,True,15,1,1,13
Y2-S2-208K26,3,310,PS,exp,47,↑,up,↑,0.6036191000603139,True,14,1,0,13
Y2-S2-208K26,3,311,PS,exp,34,↓,down,↓,0.6634291999507695,True,14,1,0,13
Y2-S2-208K26,3,312,PS,exp,35,←,left,←,0.73492810013704,True,14,1,0,13
Y2-S2-208K26,3,313,PS,exp,48,↑,left,←,0.7106306999921799,False,13,-1,1,14
Y2-S2-208K26,3,314,PS,exp,39,←,left,←,0.5370912000071257,True,14,-1,0,14
Y2-S2-208K26,3,315,PS,exp,49,↓,down,↓,0.5640136001165956,True,14,-1,0,14
Y2-S2-208K26,3,316,PS,exp,28,←,left,←,0.6415764999110252,True,14,1,1,15
Y2-S2-208K26,3,317,PS,exp,28,↓,down,↓,0.5773673001676798,True,13,1,0,15
Y2-S2-208K26,3,318,PS,exp,36,↑,up,↑,0.6021132001187652,True,13,1,0,15
Y2-S2-208K26,3,319,PS,exp,41,→,right,→,0.5743456999771297,True,13,1,0,15
Y2-S2-208K26,3,320,PS,exp,26,↓,down,↓,0.6556404000148177,True,12,1,0,15
Y2-S2-208K26,3,321,PS,exp,40,↑,up,↑,0.706068699946627,True,12,1,0,15
Y2-S2-208K26,3,322,PS,exp,25,↓,down,↓,0.5116135999560356,True,12,1,0,15
Y2-S2-208K26,3,323,PS,exp,33,→,right,→,0.5696847001090646,True,11,1,0,15
Y2-S2-208K26,3,324,PS,exp,27,↓,down,↓,0.5411234998609871,True,11,1,0,15
Y2-S2-208K26,3,325,PS,exp,46,↑,down,↓,0.7779911998659372,False,11,-1,1,16
Y2-S2-208K26,4,326,AS,intra_train,25,←,left,←,0.7808550000190735,True,25,-,-,-
Y2-S2-208K26,4,327,AS,intra_train,47,→,right,→,0.9095478998497128,True,25,-,-,-
Y2-S2-208K26,4,328,AS,intra_train,43,↑,up,↑,0.7705618999898434,True,25,-,-,-
Y2-S2-208K26,4,329,AS,intra_train,40,→,right,→,0.6664338000118732,True,25,-,-,-
Y2-S2-208K26,4,330,AS,intra_train,42,↑,up,↑,0.6487910998985171,True,25,-,-,-
Y2-S2-208K26,4,331,AS,exp,43,←,right,→,0.7454395999666303,False,17,-1,0,0
Y2-S2-208K26,4,332,AS,exp,46,→,right,→,0.8173913001082838,True,18,-1,0,0
Y2-S2-208K26,4,333,AS,exp,50,←,left,←,0.5843116000760347,True,18,-1,0,0
Y2-S2-208K26,4,334,AS,exp,37,↓,down,↓,0.6864082999527454,True,18,1,1,1
Y2-S2-208K26,4,335,AS,exp,30,←,left,←,0.6274810000322759,True,17,1,0,1
Y2-S2-208K26,4,336,AS,exp,41,→,up,↑,0.9324338000733405,False,17,-1,1,2
Y2-S2-208K26,4,337,AS,exp,50,↑,right,→,1.155894699972123,False,18,-1,0,2
Y2-S2-208K26,4,338,AS,exp,43,↓,down,↓,0.6673266999423504,True,19,-1,0,2
Y2-S2-208K26,4,339,AS,exp,27,→,right,→,0.6526659000664949,True,19,-1,0,2
Y2-S2-208K26,4,340,AS,exp,27,↓,down,↓,0.5601758998818696,True,19,1,1,3
Y2-S2-208K26,4,341,AS,exp,37,←,left,←,0.5718070999719203,True,18,1,0,3
Y2-S2-208K26,4,342,AS,exp,25,↓,down,↓,0.60184680018574,True,18,1,0,3
Y2-S2-208K26,4,343,AS,exp,39,←,left,←,0.5340390999335796,True,18,1,0,3
Y2-S2-208K26,4,344,AS,exp,26,→,right,→,0.5911684001330286,True,17,1,0,3
Y2-S2-208K26,4,345,AS,exp,37,↑,up,↑,0.7753876000642776,True,17,1,0,3
Y2-S2-208K26,4,346,AS,exp,45,←,left,←,0.5895106000825763,True,17,1,0,3
Y2-S2-208K26,4,347,AS,exp,46,↓,down,↓,0.6474614997860044,True,16,1,0,3
Y2-S2-208K26,4,348,AS,exp,33,→,up,↑,0.7380816000513732,False,16,-1,1,4
Y2-S2-208K26,4,349,AS,exp,49,↑,up,↑,0.8671017000451684,True,17,-1,0,4
Y2-S2-208K26,4,350,AS,exp,38,→,right,→,0.5025531998835504,True,17,-1,0,4
Y2-S2-208K26,4,351,AS,exp,38,←,right,→,1.065803499892354,False,17,-1,0,4
Y2-S2-208K26,4,352,AS,exp,26,↑,up,↑,0.76840929989703,True,18,-1,0,4
Y2-S2-208K26,4,353,AS,exp,33,↓,down,↓,0.625806099968031,True,18,-1,0,4
Y2-S2-208K26,4,354,AS,exp,27,→,right,→,0.6996077999938279,True,18,1,1,5
Y2-S2-208K26,4,355,AS,exp,47,↑,up,↑,0.6971972000319511,True,17,1,0,5
Y2-S2-208K26,4,356,AS,exp,47,←,left,←,0.5613276998046786,True,17,1,0,5
Y2-S2-208K26,4,357,AS,exp,33,↓,down,↓,0.6208369999658316,True,17,1,0,5
Y2-S2-208K26,4,358,AS,exp,26,↑,up,↑,0.71383610018529,True,16,1,0,5
Y2-S2-208K26,4,359,AS,exp,48,→,right,→,0.6805215999484062,True,16,1,0,5
Y2-S2-208K26,4,360,AS,exp,48,↓,up,↑,0.7842779001221061,False,16,-1,1,6
Y2-S2-208K26,4,361,AS,exp,26,→,right,→,0.6277304000686854,True,17,-1,0,6
Y2-S2-208K26,4,362,AS,exp,48,↓,down,↓,1.137711700052023,True,17,-1,0,6
Y2-S2-208K26,4,363,AS,exp,43,←,left,←,0.5900153999682516,True,17,1,1,7
Y2-S2-208K26,4,364,AS,exp,38,→,right,→,0.8528682000469416,True,16,1,0,7
Y2-S2-208K26,4,365,AS,exp,25,↓,down,↓,0.6374144000001252,True,16,1,0,7
Y2-S2-208K26,4,366,AS,exp,44,→,right,→,0.5986522999592125,True,16,1,0,7
Y2-S2-208K26,4,367,AS,exp,43,↓,down,↓,0.6400020001456141,True,15,1,0,7
Y2-S2-208K26,4,368,AS,exp,43,↑,up,↑,0.6378019000403583,True,15,1,0,7
Y2-S2-208K26,4,369,AS,exp,50,↓,down,↓,0.5963485999964178,True,15,1,0,7
Y2-S2-208K26,4,370,AS,exp,27,←,left,←,0.6693541000131518,True,14,1,0,7
Y2-S2-208K26,4,371,AS,exp,30,→,right,→,0.6245034001767635,True,14,1,0,7
Y2-S2-208K26,4,372,AS,exp,33,↓,down,↓,0.7920426998753101,True,14,1,0,7
Y2-S2-208K26,4,373,AS,exp,39,←,right,→,0.6528432997874916,False,13,-1,1,8
Y2-S2-208K26,4,374,AS,exp,49,→,left,←,0.8386252000927925,False,14,-1,0,8
Y2-S2-208K26,4,375,AS,exp,45,←,left,←,0.601738200057298,True,15,-1,0,8
Y2-S2-208K26,4,376,AS,exp,37,↓,left,←,0.6473130001686513,False,15,-1,0,8
Y2-S2-208K26,4,377,AS,exp,34,↑,up,↑,0.6397021999582648,True,16,-1,0,8
Y2-S2-208K26,4,378,AS,exp,49,←,left,←,0.5830240000505,True,16,-1,0,8
Y2-S2-208K26,4,379,AS,exp,34,→,right,→,0.7650498000439256,True,16,1,1,9
Y2-S2-208K26,4,380,AS,exp,47,↑,up,↑,0.5500984999816865,True,15,1,0,9
Y2-S2-208K26,4,381,AS,exp,48,←,left,←,0.5490524999331683,True,15,1,0,9
Y2-S2-208K26,4,382,AS,exp,42,↑,up,↑,0.5472756999079138,True,15,1,0,9
Y2-S2-208K26,4,383,AS,exp,39,←,left,←,0.5918995998799801,True,14,1,0,9
Y2-S2-208K26,4,384,AS,exp,46,↑,up,↑,0.6433337000198662,True,14,1,0,9
Y2-S2-208K26,4,385,AS,exp,35,→,right,→,0.6493637000676244,True,14,1,0,9
Y2-S2-208K26,4,386,AS,exp,45,↑,left,←,0.5622685998678207,False,13,-1,1,10
Y2-S2-208K26,4,387,AS,exp,34,↓,down,↓,0.7578591997735202,True,14,-1,0,10
Y2-S2-208K26,4,388,AS,exp,39,↑,up,↑,0.8455349998548627,True,14,-1,0,10
Y2-S2-208K26,4,389,AS,exp,40,←,right,→,0.5174956999253482,False,14,-1,0,10
Y2-S2-208K26,4,390,AS,exp,47,↑,up,↑,0.799815199803561,True,15,-1,0,10
Y2-S2-208K26,4,391,AS,exp,44,↓,down,↓,0.7118614001665264,True,15,-1,0,10
Y2-S2-208K26,4,392,AS,exp,34,↑,down,↓,0.6074616999831051,False,15,-1,0,10
Y2-S2-208K26,4,393,AS,exp,35,←,left,←,0.5564361000433564,True,16,-1,0,10
Y2-S2-208K26,4,394,AS,exp,37,↑,up,↑,0.5993571998551488,True,16,-1,0,10
Y2-S2-208K26,4,395,AS,exp,25,→,right,→,0.706440299982205,True,16,1,1,11
Y2-S2-208K26,4,396,AS,exp,38,↑,up,↑,0.6384034999646246,True,15,1,0,11
Y2-S2-208K26,4,397,AS,exp,46,←,left,←,0.6444101000670344,True,15,1,0,11
Y2-S2-208K26,4,398,AS,exp,36,→,right,→,0.6586511000059545,True,15,1,0,11
Y2-S2-208K26,4,399,AS,exp,32,↓,down,↓,0.6289039000403136,True,14,1,0,11
Y2-S2-208K26,4,400,AS,exp,29,←,left,←,0.5936253999825567,True,14,1,0,11
Y2-S2-208K26,4,401,AS,exp,29,→,right,→,0.9015140000265092,True,14,1,0,11
Y2-S2-208K26,4,402,AS,exp,41,←,left,←,0.575373400002718,True,13,1,0,11
Y2-S2-208K26,4,403,AS,exp,44,↓,down,↓,0.686970799928531,True,13,1,0,11
Y2-S2-208K26,4,404,AS,exp,41,→,right,→,0.709388499846682,True,13,1,0,11
Y2-S2-208K26,4,405,AS,exp,37,←,right,→,0.5512188000138849,False,12,-1,1,12
Y2-S2-208K26,4,406,AS,exp,46,↑,up,↑,0.7078086000401527,True,13,-1,0,12
Y2-S2-208K26,4,407,AS,exp,30,←,left,←,0.6476907001342624,True,13,-1,0,12
Y2-S2-208K26,4,408,AS,exp,29,↓,down,↓,0.6365543999709189,True,13,1,1,13
Y2-S2-208K26,4,409,AS,exp,44,→,left,←,0.6633164000231773,False,12,-1,1,14
Y2-S2-208K26,4,410,AS,exp,30,↑,up,↑,0.6934506997931749,True,13,-1,0,14
Y2-S2-208K26,4,411,AS,exp,38,←,up,↑,0.8044722999911755,False,13,-1,0,14
Y2-S2-208K26,4,412,AS,exp,50,↑,up,↑,0.8152216000016779,True,14,-1,0,14
Y2-S2-208K26,4,413,AS,exp,28,←,up,↑,0.8547658000607044,False,14,-1,0,14
Y2-S2-208K26,4,414,AS,exp,36,↓,up,↑,1.1723829000256956,False,15,-1,0,14
Y2-S2-208K26,4,415,AS,exp,37,→,right,→,0.6884314999915659,True,16,-1,0,14
Y2-S2-208K26,4,416,AS,exp,46,↓,down,↓,0.813971099909395,True,16,-1,0,14
Y2-S2-208K26,4,417,AS,exp,30,↑,up,↑,0.8367449000943452,True,16,1,1,15
Y2-S2-208K26,4,418,AS,exp,36,↓,right,→,1.6728750001639128,False,15,-1,1,16
Y2-S2-208K26,5,419,AS,intra_train,31,↑,up,↑,0.7485976999159902,True,25,-,-,-
Y2-S2-208K26,5,420,AS,intra_train,50,→,right,→,0.923341799993068,True,25,-,-,-
Y2-S2-208K26,5,421,AS,intra_train,26,↑,up,↑,0.8481896000448614,True,25,-,-,-
Y2-S2-208K26,5,422,AS,intra_train,43,→,right,→,0.751763200154528,True,25,-,-,-
Y2-S2-208K26,5,423,AS,intra_train,31,↓,down,↓,0.7498597998637706,True,25,-,-,-
Y2-S2-208K26,5,424,AS,exp,38,→,right,→,0.7716037000063807,True,17,0,0,0
Y2-S2-208K26,5,425,AS,exp,45,←,left,←,0.6872038999572396,True,17,0,0,0
Y2-S2-208K26,5,426,AS,exp,27,↑,up,↑,0.6773562000598758,True,17,1,0,0
Y2-S2-208K26,5,427,AS,exp,38,←,left,←,0.6363951000384986,True,16,1,0,0
Y2-S2-208K26,5,428,AS,exp,33,↓,down,↓,0.6417163000442088,True,16,1,0,0
Y2-S2-208K26,5,429,AS,exp,32,→,right,→,0.8412923000287265,True,16,1,0,0
Y2-S2-208K26,5,430,AS,exp,44,↑,up,↑,0.6495083998888731,True,15,1,0,0
Y2-S2-208K26,5,431,AS,exp,38,←,left,←,0.5827528000809252,True,15,1,0,0
Y2-S2-208K26,5,432,AS,exp,41,→,right,→,0.6339059001766145,True,15,1,0,0
Y2-S2-208K26,5,433,AS,exp,33,←,left,←,0.487613300094381,True,14,1,0,0
Y2-S2-208K26,5,434,AS,exp,29,→,left,←,0.7538373998831958,False,14,-1,1,1
Y2-S2-208K26,5,435,AS,exp,32,↑,up,↑,0.6043325001373887,True,15,-1,0,1
Y2-S2-208K26,5,436,AS,exp,37,←,up,↑,0.652722500031814,False,15,-1,0,1
Y2-S2-208K26,5,437,AS,exp,46,↓,down,↓,0.6301732999272645,True,16,-1,0,1
Y2-S2-208K26,5,438,AS,exp,47,←,left,←,0.5662873999681324,True,16,-1,0,1
Y2-S2-208K26,5,439,AS,exp,28,↑,up,↑,0.5734898000955582,True,16,1,1,2
Y2-S2-208K26,5,440,AS,exp,36,→,right,→,0.5689052999950945,True,15,1,0,2
Y2-S2-208K26,5,441,AS,exp,49,←,down,↓,0.9639151999726892,False,15,-1,1,3
Y2-S2-208K26,5,442,AS,exp,29,→,right,→,0.526690199971199,True,16,-1,0,3
Y2-S2-208K26,5,443,AS,exp,29,↑,up,↑,0.6217660000547767,True,16,-1,0,3
Y2-S2-208K26,5,444,AS,exp,30,←,left,←,0.5691296998411417,True,16,1,1,4
Y2-S2-208K26,5,445,AS,exp,48,→,right,→,0.5424269998911768,True,15,1,0,4
Y2-S2-208K26,5,446,AS,exp,35,↑,up,↑,0.5280063000973314,True,15,1,0,4
Y2-S2-208K26,5,447,AS,exp,30,→,right,→,0.5731416000053287,True,15,1,0,4
Y2-S2-208K26,5,448,AS,exp,35,↑,up,↑,0.5345980001147836,True,14,1,0,4
Y2-S2-208K26,5,449,AS,exp,46,→,left,←,0.6030989000573754,False,14,-1,1,5
Y2-S2-208K26,5,450,AS,exp,28,↑,up,↑,0.6768480001483113,True,15,-1,0,5
Y2-S2-208K26,5,451,AS,exp,42,←,left,←,0.6859344001859426,True,15,-1,0,5
Y2-S2-208K26,5,452,AS,exp,45,↑,up,↑,0.7438221999909729,True,15,1,1,6
Y2-S2-208K26,5,453,AS,exp,29,↓,down,↓,0.6710075999144465,True,14,1,0,6
Y2-S2-208K26,5,454,AS,exp,28,→,right,→,0.6127667999826372,True,14,1,0,6
Y2-S2-208K26,5,455,AS,exp,49,↑,up,↑,0.6677783001214266,True,14,1,0,6
Y2-S2-208K26,5,456,AS,exp,26,↓,down,↓,0.6372032999061048,True,13,1,0,6
Y2-S2-208K26,5,457,AS,exp,40,→,right,→,0.5042854000348598,True,13,1,0,6
Y2-S2-208K26,5,458,AS,exp,30,↓,up,↑,0.6354604000225663,False,13,-1,1,7
Y2-S2-208K26,5,459,AS,exp,34,←,down,↓,0.731199799804017,False,14,-1,0,7
Y2-S2-208K26,5,460,AS,exp,32,↑,down,↓,0.9721878999844193,False,15,-1,0,7
Y2-S2-208K26,5,461,AS,exp,38,→,left,←,0.5410995001439005,False,16,-1,0,7
Y2-S2-208K26,5,462,AS,exp,30,↑,down,↓,1.001733799930662,False,17,-1,0,7
Y2-S2-208K26,5,463,AS,exp,45,↓,down,↓,0.6056905000004917,True,18,-1,0,7
Y2-S2-208K26,5,464,AS,exp,41,←,left,←,0.7456771999131888,True,18,-1,0,7
Y2-S2-208K26,5,465,AS,exp,29,↑,up,↑,0.6899598999880254,True,18,1,1,8
Y2-S2-208K26,5,466,AS,exp,34,→,right,→,0.5473297000862658,True,17,1,0,8
Y2-S2-208K26,5,467,AS,exp,27,↑,up,↑,0.6193723999895155,True,17,1,0,8
Y2-S2-208K26,5,468,AS,exp,43,←,left,←,0.6189971999265254,True,17,1,0,8
Y2-S2-208K26,5,469,AS,exp,49,→,right,→,0.6448424998670816,True,16,1,0,8
Y2-S2-208K26,5,470,AS,exp,31,↓,up,↑,0.826670799870044,False,16,-1,1,9
Y2-S2-208K26,5,471,AS,exp,29,↑,up,↑,0.6527986000292003,True,17,-1,0,9
Y2-S2-208K26,5,472,AS,exp,45,→,right,→,0.6869348001200706,True,17,-1,0,9
Y2-S2-208K26,5,473,AS,exp,29,↑,up,↑,0.6982871000654995,True,17,1,1,10
Y2-S2-208K26,5,474,AS,exp,33,↓,down,↓,0.6631780001334846,True,16,1,0,10
Y2-S2-208K26,5,475,AS,exp,35,→,right,→,0.5322712000925094,True,16,1,0,10
Y2-S2-208K26,5,476,AS,exp,40,↑,up,↑,1.3776719998568296,True,16,1,0,10
Y2-S2-208K26,5,477,AS,exp,43,↓,down,↓,0.683162400033325,True,15,1,0,10
Y2-S2-208K26,5,478,AS,exp,35,→,right,→,0.6239985001739115,True,15,1,0,10
Y2-S2-208K26,5,479,AS,exp,42,←,right,→,0.6830885999370366,False,15,-1,1,11
Y2-S2-208K26,5,480,AS,exp,43,→,right,→,0.5905106998980045,True,16,-1,0,11
Y2-S2-208K26,5,481,AS,exp,34,↑,up,↑,0.60786799993366,True,16,-1,0,11
Y2-S2-208K26,5,482,AS,exp,47,←,left,←,0.9967204001732171,True,16,1,1,12
Y2-S2-208K26,5,483,AS,exp,38,↓,down,↓,0.6738344000186771,True,15,1,0,12
Y2-S2-208K26,5,484,AS,exp,43,→,right,→,0.8806763999164104,True,15,1,0,12
Y2-S2-208K26,5,485,AS,exp,28,↑,up,↑,0.7125847998540848,True,15,1,0,12
Y2-S2-208K26,5,486,AS,exp,46,↓,down,↓,0.5780424999538809,True,14,1,0,12
Y2-S2-208K26,5,487,AS,exp,47,←,left,←,0.546466900035739,True,14,1,0,12
Y2-S2-208K26,5,488,AS,exp,46,→,right,→,0.6069137000013143,True,14,1,0,12
Y2-S2-208K26,5,489,AS,exp,45,←,left,←,0.6470767999999225,True,13,1,0,12
Y2-S2-208K26,5,490,AS,exp,45,↑,down,↓,0.7691379999741912,False,13,-1,1,13
Y2-S2-208K26,5,491,AS,exp,35,↓,down,↓,0.653706300072372,True,14,-1,0,13
Y2-S2-208K26,5,492,AS,exp,30,↑,up,↑,0.5588061001617461,True,14,-1,0,13
Y2-S2-208K26,5,493,AS,exp,25,←,left,←,0.5230094001162797,True,14,1,1,14
Y2-S2-208K26,5,494,AS,exp,42,↑,up,↑,0.5006933999247849,True,13,1,0,14
Y2-S2-208K26,5,495,AS,exp,45,↓,down,↓,0.7373323000501841,True,13,1,0,14
Y2-S2-208K26,5,496,AS,exp,44,←,left,←,0.5974921998567879,True,13,1,0,14
Y2-S2-208K26,5,497,AS,exp,32,↑,up,↑,0.6705420999787748,True,12,1,0,14
Y2-S2-208K26,5,498,AS,exp,33,→,right,→,0.7149461000226438,True,12,1,0,14
Y2-S2-208K26,5,499,AS,exp,45,↑,right,→,0.8300487999804318,False,12,-1,1,15
Y2-S2-208K26,5,500,AS,exp,40,↓,left,←,1.5591116999275982,False,13,-1,0,15
Y2-S2-208K26,5,501,AS,exp,25,→,left,←,0.8360698998440057,False,14,-1,0,15
Y2-S2-208K26,5,502,AS,exp,38,←,left,←,0.600503500085324,True,15,-1,0,15
Y2-S2-208K26,5,503,AS,exp,45,↓,down,↓,0.598515999969095,True,15,-1,0,15
Y2-S2-208K26,5,504,AS,exp,49,→,right,→,0.6906263001728803,True,15,1,1,16
Y2-S2-208K26,6,505,PS,intra_train,35,↑,up,↑,0.7091794998850673,True,18,-,-,-
Y2-S2-208K26,6,506,PS,intra_train,46,↓,down,↓,0.6666061000432819,True,18,-,-,-
Y2-S2-208K26,6,507,PS,intra_train,37,→,right,→,0.5084230999927968,True,18,-,-,-
Y2-S2-208K26,6,508,PS,intra_train,36,↓,down,↓,0.6454781000502408,True,18,-,-,-
Y2-S2-208K26,6,509,PS,intra_train,32,→,right,→,0.64991410006769,True,18,-,-,-
Y2-S2-208K26,6,510,PS,exp,42,←,left,←,0.5943335997872055,True,12,0,0,0
Y2-S2-208K26,6,511,PS,exp,34,→,right,→,0.46613799990154803,True,12,0,0,0
Y2-S2-208K26,6,512,PS,exp,35,↓,down,↓,0.5661295000463724,True,12,1,0,0
Y2-S2-208K26,6,513,PS,exp,29,←,left,←,0.6187574998475611,True,11,1,0,0
Y2-S2-208K26,6,514,PS,exp,31,↓,down,↓,0.6499768998473883,True,11,1,0,0
Y2-S2-208K26,6,515,PS,exp,33,→,right,→,0.7550731999799609,True,11,1,0,0
Y2-S2-208K26,6,516,PS,exp,30,↓,down,↓,0.7252798001281917,True,10,1,0,0
Y2-S2-208K26,6,517,PS,exp,36,→,right,→,0.46756789996288717,True,10,1,0,0
Y2-S2-208K26,6,518,PS,exp,36,←,left,←,0.5566736001055688,True,10,1,0,0
Y2-S2-208K26,6,519,PS,exp,30,↑,up,↑,0.5963697999250144,True,9,1,0,0
Y2-S2-208K26,6,520,PS,exp,32,↓,up,↑,0.5683253000024706,False,9,-1,1,1
Y2-S2-208K26,6,521,PS,exp,35,←,right,→,0.6530779998283833,False,10,-1,0,1
Y2-S2-208K26,6,522,PS,exp,32,→,left,←,0.4916201999876648,False,11,-1,0,1
Y2-S2-208K26,6,523,PS,exp,39,↓,down,↓,0.562467300100252,True,12,-1,0,1
Y2-S2-208K26,6,524,PS,exp,27,→,right,→,0.6913143000565469,True,12,-1,0,1
Y2-S2-208K26,6,525,PS,exp,40,←,left,←,0.46960859978571534,True,12,1,1,2
Y2-S2-208K26,6,526,PS,exp,47,→,left,←,0.5462595999706537,False,11,-1,1,3
Y2-S2-208K26,6,527,PS,exp,37,←,left,←,0.5008032000623643,True,12,-1,0,3
Y2-S2-208K26,6,528,PS,exp,35,→,right,→,0.42068860004656017,True,12,-1,0,3
Y2-S2-208K26,6,529,PS,exp,25,←,left,←,0.5585304999258369,True,12,1,1,4
Y2-S2-208K26,6,530,PS,exp,37,↑,up,↑,0.5654717998113483,True,11,1,0,4
Y2-S2-208K26,6,531,PS,exp,37,←,left,←,0.4279779999051243,True,11,1,0,4
Y2-S2-208K26,6,532,PS,exp,27,↑,up,↑,0.6076127998530865,True,11,1,0,4
Y2-S2-208K26,6,533,PS,exp,30,→,right,→,0.43996920017525554,True,10,1,0,4
Y2-S2-208K26,6,534,PS,exp,31,↑,up,↑,0.5411211000755429,True,10,1,0,4
Y2-S2-208K26,6,535,PS,exp,30,→,right,→,0.47994329989887774,True,10,1,0,4
Y2-S2-208K26,6,536,PS,exp,25,↓,up,↑,0.5938931000418961,False,9,-1,1,5
Y2-S2-208K26,6,537,PS,exp,41,←,right,→,0.4925794000737369,False,10,-1,0,5
Y2-S2-208K26,6,538,PS,exp,42,↑,up,↑,0.6463992001954466,True,11,-1,0,5
Y2-S2-208K26,6,539,PS,exp,26,↓,down,↓,0.5621722000651062,True,11,-1,0,5
Y2-S2-208K26,6,540,PS,exp,39,→,right,→,0.47162279998883605,True,11,1,1,6
Y2-S2-208K26,6,541,PS,exp,26,↑,up,↑,0.8982653000857681,True,10,1,0,6
Y2-S2-208K26,6,542,PS,exp,43,↓,left,←,0.9999567000195384,False,10,-1,1,7
Y2-S2-208K26,6,543,PS,exp,45,↑,up,↑,0.7207168000750244,True,11,-1,0,7
Y2-S2-208K26,6,544,PS,exp,50,←,up,↑,0.9336687000468373,False,11,-1,0,7
Y2-S2-208K26,6,545,PS,exp,47,↑,up,↑,0.4593737998511642,True,12,-1,0,7
Y2-S2-208K26,6,546,PS,exp,34,←,left,←,0.5128854000940919,True,12,-1,0,7
Y2-S2-208K26,6,547,PS,exp,40,↓,down,↓,0.543731200043112,True,12,1,1,8
Y2-S2-208K26,6,548,PS,exp,28,→,right,→,0.4836421001236886,True,11,1,0,8
Y2-S2-208K26,6,549,PS,exp,45,↓,down,↓,0.5548405998852104,True,11,1,0,8
Y2-S2-208K26,6,550,PS,exp,48,↑,up,↑,0.5060352999716997,True,11,1,0,8
Y2-S2-208K26,6,551,PS,exp,50,←,left,←,0.5515103000216186,True,10,1,0,8
Y2-S2-208K26,6,552,PS,exp,34,↑,left,←,0.6840200000442564,False,10,-1,1,9
Y2-S2-208K26,6,553,PS,exp,38,→,right,→,0.4659520999994129,True,11,-1,0,9
Y2-S2-208K26,6,554,PS,exp,26,↓,down,↓,0.645338200032711,True,11,-1,0,9
Y2-S2-208K26,6,555,PS,exp,25,←,left,←,0.6588638999965042,True,11,1,1,10
Y2-S2-208K26,6,556,PS,exp,49,↓,down,↓,0.6061877999454737,True,10,1,0,10
Y2-S2-208K26,6,557,PS,exp,33,←,right,→,0.7500464001204818,False,10,-1,1,11
Y2-S2-208K26,6,558,PS,exp,27,↓,down,↓,0.5779502000659704,True,11,-1,0,11
Y2-S2-208K26,6,559,PS,exp,37,↑,left,←,0.6681794000323862,False,11,-1,0,11
Y2-S2-208K26,6,560,PS,exp,31,↓,down,↓,0.49245459982194006,True,12,-1,0,11
Y2-S2-208K26,6,561,PS,exp,41,→,right,→,0.9248615999240428,True,12,-1,0,11
Y2-S2-208K26,6,562,PS,exp,29,↓,down,↓,0.49404799984768033,True,12,1,1,12
Y2-S2-208K26,6,563,PS,exp,25,←,down,↓,1.0370469000190496,False,11,-1,1,13
Y2-S2-208K26,6,564,PS,exp,39,↓,left,←,0.8422564000356942,False,12,-1,0,13
Y2-S2-208K26,6,565,PS,exp,36,→,right,→,0.4978094999678433,True,13,-1,0,13
Y2-S2-208K26,6,566,PS,exp,32,←,right,→,0.5642232999671251,False,13,-1,0,13
Y2-S2-208K26,6,567,PS,exp,39,→,right,→,0.49821679992601275,True,14,-1,0,13
Y2-S2-208K26,6,568,PS,exp,48,←,left,←,0.5651585999876261,True,14,-1,0,13
Y2-S2-208K26,6,569,PS,exp,46,↑,up,↑,0.5634320001117885,True,14,1,1,14
Y2-S2-208K26,6,570,PS,exp,45,↓,down,↓,0.5201107000466436,True,13,1,0,14
Y2-S2-208K26,6,571,PS,exp,26,→,right,→,0.4810283000115305,True,13,1,0,14
Y2-S2-208K26,6,572,PS,exp,40,↑,right,→,0.7110228999517858,False,13,-1,1,15
Y2-S2-208K26,6,573,PS,exp,29,→,right,→,0.5206190999597311,True,14,-1,0,15
Y2-S2-208K26,6,574,PS,exp,32,←,left,←,0.5597163999918848,True,14,-1,0,15
Y2-S2-208K26,6,575,PS,exp,43,↓,down,↓,0.5769762999843806,True,14,1,1,16
Y2-S2-208K26,7,576,PS,intra_train,32,←,left,←,0.6381953000091016,True,18,-,-,-
Y2-S2-208K26,7,577,PS,intra_train,33,→,right,→,0.5246514000464231,True,18,-,-,-
Y2-S2-208K26,7,578,PS,intra_train,29,↑,up,↑,0.5286398997996002,True,18,-,-,-
Y2-S2-208K26,7,579,PS,intra_train,50,→,right,→,1.2400328000076115,True,18,-,-,-
Y2-S2-208K26,7,580,PS,intra_train,44,↑,up,↑,0.49285679985769093,True,18,-,-,-
Y2-S2-208K26,7,581,PS,exp,41,←,left,←,0.46625320008024573,True,12,0,0,0
Y2-S2-208K26,7,582,PS,exp,34,↑,up,↑,1.1073090999852866,True,12,0,0,0
Y2-S2-208K26,7,583,PS,exp,33,←,left,←,0.4699897998943925,True,12,1,0,0
Y2-S2-208K26,7,584,PS,exp,40,↓,down,↓,0.5640060999430716,True,11,1,0,0
Y2-S2-208K26,7,585,PS,exp,47,←,left,←,0.41200220002792776,True,11,1,0,0
Y2-S2-208K26,7,586,PS,exp,49,→,right,→,0.40937400003895164,True,11,1,0,0
Y2-S2-208K26,7,587,PS,exp,33,←,left,←,0.7926628000568599,True,10,1,0,0
Y2-S2-208K26,7,588,PS,exp,50,↑,up,↑,0.5347905999515206,True,10,1,0,0
Y2-S2-208K26,7,589,PS,exp,39,↓,down,↓,0.5285982999484986,True,10,1,0,0
Y2-S2-208K26,7,590,PS,exp,45,↑,up,↑,0.5074603999964893,True,9,1,0,0
Y2-S2-208K26,7,591,PS,exp,42,→,right,→,0.5208653998561203,True,9,1,0,0
Y2-S2-208K26,7,592,PS,exp,28,↓,down,↓,0.5528094999026507,True,9,1,0,0
Y2-S2-208K26,7,593,PS,exp,29,↑,up,↑,0.5970182998571545,True,8,1,0,0
Y2-S2-208K26,7,594,PS,exp,49,↓,down,↓,0.5580762000754476,True,8,1,0,0
Y2-S2-208K26,7,595,PS,exp,48,→,right,→,0.49487449997104704,True,8,1,0,0
Y2-S2-208K26,7,596,PS,exp,46,↓,down,↓,0.621668400010094,True,7,1,0,0
Y2-S2-208K26,7,597,PS,exp,35,↑,up,↑,0.5008960000704974,True,7,1,0,0
Y2-S2-208K26,7,598,PS,exp,26,↓,down,↓,0.6172960000112653,True,7,1,0,0
Y2-S2-208K26,7,599,PS,exp,38,↑,up,↑,0.5123033998534083,True,6,1,0,0
Y2-S2-208K26,7,600,PS,exp,39,→,up,↑,0.7506120000034571,False,6,-1,1,1
Y2-S2-208K26,7,601,PS,exp,35,↑,up,↑,0.5840743998996913,True,7,-1,0,1
Y2-S2-208K26,7,602,PS,exp,28,↓,up,↑,0.5000932000111789,False,7,-1,0,1
Y2-S2-208K26,7,603,PS,exp,45,→,right,→,0.4875784998293966,True,8,-1,0,1
Y2-S2-208K26,7,604,PS,exp,47,←,right,→,1.38183440011926,False,8,-1,0,1
Y2-S2-208K26,7,605,PS,exp,40,↑,up,↑,0.5855311001650989,True,9,-1,0,1
Y2-S2-208K26,7,606,PS,exp,29,→,right,→,0.5222875999752432,True,9,-1,0,1
Y2-S2-208K26,7,607,PS,exp,25,←,left,←,0.5137486001476645,True,9,1,1,2
Y2-S2-208K26,7,608,PS,exp,29,↑,left,←,0.660029900027439,False,8,-1,1,3
Y2-S2-208K26,7,609,PS,exp,33,←,left,←,0.5591197998728603,True,9,-1,0,3
Y2-S2-208K26,7,610,PS,exp,29,↓,down,↓,0.6192554000299424,True,9,-1,0,3
Y2-S2-208K26,7,611,PS,exp,26,→,right,→,0.4810349000617862,True,9,1,1,4
Y2-S2-208K26,7,612,PS,exp,43,↑,down,↓,0.5619208000134677,False,8,-1,1,5
Y2-S2-208K26,7,613,PS,exp,47,→,right,→,0.519647300010547,True,9,-1,0,5
Y2-S2-208K26,7,614,PS,exp,39,↑,up,↑,0.9510148998815566,True,9,-1,0,5
Y2-S2-208K26,7,615,PS,exp,45,←,up,↑,0.8981856000609696,False,9,-1,0,5
Y2-S2-208K26,7,616,PS,exp,44,↓,down,↓,0.5241253999993205,True,10,-1,0,5
Y2-S2-208K26,7,617,PS,exp,25,→,right,→,0.6129097000230104,True,10,-1,0,5
Y2-S2-208K26,7,618,PS,exp,29,↑,up,↑,0.6080181999132037,True,10,1,1,6
Y2-S2-208K26,7,619,PS,exp,36,→,right,→,0.5276178000494838,True,9,1,0,6
Y2-S2-208K26,7,620,PS,exp,34,↑,up,↑,0.9847714998759329,True,9,1,0,6
Y2-S2-208K26,7,621,PS,exp,48,→,right,→,0.5860298001207411,True,9,1,0,6
Y2-S2-208K26,7,622,PS,exp,31,←,left,←,0.6969813001342118,True,8,1,0,6
Y2-S2-208K26,7,623,PS,exp,37,↑,up,↑,0.7729913999792188,True,8,1,0,6
Y2-S2-208K26,7,624,PS,exp,49,↓,up,↑,1.0071723000146449,False,8,-1,1,7
Y2-S2-208K26,7,625,PS,exp,37,→,right,→,0.6225288999266922,True,9,-1,0,7
Y2-S2-208K26,7,626,PS,exp,29,←,right,→,0.8192745000123978,False,9,-1,0,7
Y2-S2-208K26,7,627,PS,exp,28,↓,down,↓,0.5592882002238184,True,10,-1,0,7
Y2-S2-208K26,7,628,PS,exp,36,←,left,←,0.5651790997944772,True,10,-1,0,7
Y2-S2-208K26,7,629,PS,exp,28,↓,left,←,0.8470677000004798,False,10,-1,0,7
Y2-S2-208K26,7,630,PS,exp,46,←,left,←,0.5331038997974247,True,11,-1,0,7
Y2-S2-208K26,7,631,PS,exp,46,↑,up,↑,0.5594076998531818,True,11,-1,0,7
Y2-S2-208K26,7,632,PS,exp,33,→,right,→,0.5248757000081241,True,11,1,1,8
Y2-S2-208K26,7,633,PS,exp,41,↑,up,↑,0.6173366999719292,True,10,1,0,8
Y2-S2-208K26,7,634,PS,exp,29,→,right,→,0.6015453001018614,True,10,1,0,8
Y2-S2-208K26,7,635,PS,exp,30,↑,up,↑,0.5052793000359088,True,10,1,0,8
Y2-S2-208K26,7,636,PS,exp,42,↓,down,↓,0.5717305999714881,True,9,1,0,8
Y2-S2-208K26,7,637,PS,exp,35,←,left,←,0.49289379990659654,True,9,1,0,8
Y2-S2-208K26,7,638,PS,exp,25,↓,up,↑,0.5841115999501199,False,9,-1,1,9
Y2-S2-208K26,7,639,PS,exp,42,→,right,→,0.5800907998345792,True,10,-1,0,9
Y2-S2-208K26,7,640,PS,exp,40,↓,right,→,0.48940829979255795,False,10,-1,0,9
Y2-S2-208K26,7,641,PS,exp,28,←,left,←,0.4572824998758733,True,11,-1,0,9
Y2-S2-208K26,7,642,PS,exp,34,↑,up,↑,0.45580690004862845,True,11,-1,0,9
Y2-S2-208K26,7,643,PS,exp,41,↓,down,↓,0.5592584998812526,True,11,1,1,10
Y2-S2-208K26,7,644,PS,exp,34,→,right,→,0.42308089998550713,True,10,1,0,10
Y2-S2-208K26,7,645,PS,exp,25,↑,up,↑,0.4840383001137525,True,10,1,0,10
Y2-S2-208K26,7,646,PS,exp,40,←,left,←,0.49173370003700256,True,10,1,0,10
Y2-S2-208K26,7,647,PS,exp,28,↓,down,↓,0.6557656999211758,True,9,1,0,10
Y2-S2-208K26,7,648,PS,exp,45,←,left,←,0.4814144999254495,True,9,1,0,10
Y2-S2-208K26,7,649,PS,exp,48,→,left,←,0.7077229002024978,False,9,-1,1,11
Y2-S2-208K26,7,650,PS,exp,38,←,left,←,0.5131395000498742,True,10,-1,0,11
Y2-S2-208K26,7,651,PS,exp,31,↑,left,←,0.6713572000153363,False,10,-1,0,11
Y2-S2-208K26,7,652,PS,exp,47,←,left,←,0.4077131000813097,True,11,-1,0,11
Y2-S2-208K26,7,653,PS,exp,39,↑,up,↑,0.6206515000667423,True,11,-1,0,11
Y2-S2-208K26,7,654,PS,exp,44,←,left,←,0.5264568999409676,True,11,1,1,12
Y2-S2-208K26,7,655,PS,exp,37,→,right,→,0.6055998001247644,True,10,1,0,12
Y2-S2-208K26,7,656,PS,exp,40,←,left,←,0.39727509999647737,True,10,1,0,12
Y2-S2-208K26,7,657,PS,exp,25,↑,up,↑,0.4605250998865813,True,10,1,0,12
Y2-S2-208K26,7,658,PS,exp,35,↓,down,↓,0.5907893998082727,True,9,1,0,12
Y2-S2-208K26,7,659,PS,exp,30,→,right,→,0.465711000142619,True,9,1,0,12
Y2-S2-208K26,7,660,PS,exp,46,↑,up,↑,0.5084438000340015,True,9,1,0,12
Y2-S2-208K26,7,661,PS,exp,49,←,left,←,0.5592646000441164,True,8,1,0,12
Y2-S2-208K26,7,662,PS,exp,45,↑,up,↑,0.5360585998278111,True,8,1,0,12
Y2-S2-208K26,7,663,PS,exp,33,←,left,←,0.5607861999887973,True,8,1,0,12
Y2-S2-208K26,7,664,PS,exp,43,↓,down,↓,0.623817500192672,True,7,1,0,12
Y2-S2-208K26,7,665,PS,exp,38,→,right,→,0.5115441000089049,True,7,1,0,12
Y2-S2-208K26,7,666,PS,exp,38,↓,down,↓,0.615116200176999,True,7,1,0,12
Y2-S2-208K26,7,667,PS,exp,40,←,left,←,0.528367499820888,True,6,1,0,12
Y2-S2-208K26,7,668,PS,exp,44,↓,down,↓,0.6308850001078099,True,6,1,0,12
Y2-S2-208K26,7,669,PS,exp,28,←,left,←,0.5527931998949498,True,6,1,0,12
Y2-S2-208K26,7,670,PS,exp,47,↓,up,↑,1.4325671000406146,False,5,-1,1,13
Y2-S2-208K26,7,671,PS,exp,43,↑,up,↑,0.6337387000676244,True,6,-1,0,13
Y2-S2-208K26,7,672,PS,exp,48,←,left,←,0.539214399876073,True,6,-1,0,13
Y2-S2-208K26,7,673,PS,exp,27,↓,up,↑,0.8158766999840736,False,6,-1,0,13
Y2-S2-208K26,7,674,PS,exp,41,→,right,→,0.523752000182867,True,7,-1,0,13
Y2-S2-208K26,7,675,PS,exp,37,↓,down,↓,0.6512732999399304,True,7,-1,0,13
Y2-S2-208K26,7,676,PS,exp,48,↑,up,↑,0.5078033001627773,True,7,1,1,14
Y2-S2-208K26,7,677,PS,exp,47,←,left,←,0.6328103998675942,True,6,1,0,14
Y2-S2-208K26,7,678,PS,exp,41,↑,down,↓,1.5766533999703825,False,6,-1,1,15
Y2-S2-208K26,7,679,PS,exp,35,↓,up,↑,1.2201518001966178,False,7,-1,0,15
Y2-S2-208K26,7,680,PS,exp,41,←,left,←,0.56086550001055,True,8,-1,0,15
Y2-S2-208K26,7,681,PS,exp,25,↑,up,↑,0.7575075998902321,True,8,-1,0,15
Y2-S2-208K26,7,682,PS,exp,39,↓,down,↓,0.6048785001039505,True,8,1,1,16
Y2-S2-208K26,8,683,AS,intra_train,29,↑,up,↑,0.7246737000532448,True,25,-,-,-
Y2-S2-208K26,8,684,AS,intra_train,36,→,right,→,0.7936869999393821,True,25,-,-,-
Y2-S2-208K26,8,685,AS,intra_train,30,↑,up,↑,0.533916300162673,True,25,-,-,-
Y2-S2-208K26,8,686,AS,intra_train,43,←,left,←,0.7043812000192702,True,25,-,-,-
Y2-S2-208K26,8,687,AS,intra_train,39,↑,up,↑,0.6591507000848651,True,25,-,-,-
Y2-S2-208K26,8,688,AS,exp,31,↓,down,↓,0.7016410001087934,True,17,0,0,0
Y2-S2-208K26,8,689,AS,exp,38,↑,up,↑,0.6061477998737246,True,17,0,0,0
Y2-S2-208K26,8,690,AS,exp,39,↓,down,↓,0.6781272999942303,True,17,1,0,0
Y2-S2-208K26,8,691,AS,exp,28,←,left,←,0.6230399000924081,True,16,1,0,0
Y2-S2-208K26,8,692,AS,exp,40,↓,left,←,0.752502900082618,False,16,-1,1,1
Y2-S2-208K26,8,693,AS,exp,28,→,right,→,0.5747527999337763,True,17,-1,0,1
Y2-S2-208K26,8,694,AS,exp,28,←,up,↑,0.7146283998154104,False,17,-1,0,1
Y2-S2-208K26,8,695,AS,exp,27,→,right,→,0.501911100000143,True,18,-1,0,1
Y2-S2-208K26,8,696,AS,exp,43,↑,left,←,0.7292267999146134,False,18,-1,0,1
Y2-S2-208K26,8,697,AS,exp,49,→,right,→,0.6000355000142008,True,19,-1,0,1
Y2-S2-208K26,8,698,AS,exp,29,↑,left,←,0.8333366999868304,False,19,-1,0,1
Y2-S2-208K26,8,699,AS,exp,47,→,left,←,0.823565199971199,False,20,-1,0,1
Y2-S2-208K26,8,700,AS,exp,40,↑,up,↑,0.652142200153321,True,21,-1,0,1
Y2-S2-208K26,8,701,AS,exp,46,↓,up,↑,0.6035068000201136,False,21,-1,0,1
Y2-S2-208K26,8,702,AS,exp,38,→,right,→,0.6619093001354486,True,22,-1,0,1
Y2-S2-208K26,8,703,AS,exp,48,↓,down,↓,0.8763238000683486,True,22,-1,0,1
Y2-S2-208K26,8,704,AS,exp,28,←,left,←,0.6836041000206023,True,22,1,1,2
Y2-S2-208K26,8,705,AS,exp,45,↓,down,↓,0.5791289999615401,True,21,1,0,2
Y2-S2-208K26,8,706,AS,exp,34,↑,up,↑,0.721364599885419,True,21,1,0,2
Y2-S2-208K26,8,707,AS,exp,32,→,right,→,0.7320391999091953,True,21,1,0,2
Y2-S2-208K26,8,708,AS,exp,44,←,left,←,0.6151980999857187,True,20,1,0,2
Y2-S2-208K26,8,709,AS,exp,44,→,no_key,no_letter,-1.0,False,20,-1,1,3
Y2-S2-208K26,8,710,AS,exp,37,↑,up,↑,0.7043620001059026,True,21,-1,0,3
Y2-S2-208K26,8,711,AS,exp,50,←,left,←,0.7042119998950511,True,21,-1,0,3
Y2-S2-208K26,8,712,AS,exp,25,↑,up,↑,0.670750199817121,True,21,1,1,4
Y2-S2-208K26,8,713,AS,exp,26,↓,down,↓,0.7198682001326233,True,20,1,0,4
Y2-S2-208K26,8,714,AS,exp,25,→,right,→,0.5422989001963288,True,20,1,0,4
Y2-S2-208K26,8,715,AS,exp,48,↑,up,↑,0.6317314000334591,True,20,1,0,4
Y2-S2-208K26,8,716,AS,exp,47,→,right,→,0.5944298000540584,True,19,1,0,4
Y2-S2-208K26,8,717,AS,exp,29,↓,down,↓,0.6621030999813229,True,19,1,0,4
Y2-S2-208K26,8,718,AS,exp,36,→,right,→,0.4971382000949234,True,19,1,0,4
Y2-S2-208K26,8,719,AS,exp,45,←,left,←,0.7628203998319805,True,18,1,0,4
Y2-S2-208K26,8,720,AS,exp,41,→,right,→,0.5573453998658806,True,18,1,0,4
Y2-S2-208K26,8,721,AS,exp,49,←,left,←,0.49595530005171895,True,18,1,0,4
Y2-S2-208K26,8,722,AS,exp,40,→,up,↑,0.8055177999194711,False,17,-1,1,5
Y2-S2-208K26,8,723,AS,exp,33,↑,up,↑,0.6335001999977976,True,18,-1,0,5
Y2-S2-208K26,8,724,AS,exp,29,←,left,←,0.5467625001911074,True,18,-1,0,5
Y2-S2-208K26,8,725,AS,exp,36,↑,up,↑,0.5578963998705149,True,18,1,1,6
Y2-S2-208K26,8,726,AS,exp,32,←,left,←,0.46313500008545816,True,17,1,0,6
Y2-S2-208K26,8,727,AS,exp,35,↓,down,↓,0.7668409000616521,True,17,1,0,6
Y2-S2-208K26,8,728,AS,exp,39,↑,up,↑,0.5643476999830455,True,17,1,0,6
Y2-S2-208K26,8,729,AS,exp,26,→,up,↑,0.7654748000204563,False,16,-1,1,7
Y2-S2-208K26,8,730,AS,exp,50,←,left,←,0.49865569989196956,True,17,-1,0,7
Y2-S2-208K26,8,731,AS,exp,37,→,left,←,0.5457796000409871,False,17,-1,0,7
Y2-S2-208K26,8,732,AS,exp,45,↓,down,↓,0.703112700022757,True,18,-1,0,7
Y2-S2-208K26,8,733,AS,exp,29,←,left,←,0.6087661001365632,True,18,-1,0,7
Y2-S2-208K26,8,734,AS,exp,47,↑,right,→,0.8473521999549121,False,18,-1,0,7
Y2-S2-208K26,8,735,AS,exp,36,→,down,↓,0.6936328997835517,False,19,-1,0,7
Y2-S2-208K26,8,736,AS,exp,33,↓,down,↓,0.6074004999827594,True,20,-1,0,7
Y2-S2-208K26,8,737,AS,exp,32,↑,up,↑,0.6977543998509645,True,20,-1,0,7
Y2-S2-208K26,8,738,AS,exp,33,←,left,←,0.6886450001038611,True,20,1,1,8
Y2-S2-208K26,8,739,AS,exp,30,↑,up,↑,0.7498505001422018,True,19,1,0,8
Y2-S2-208K26,8,740,AS,exp,28,→,right,→,1.50924660009332,True,19,1,0,8
Y2-S2-208K26,8,741,AS,exp,37,↑,up,↑,0.6217636000365019,True,19,1,0,8
Y2-S2-208K26,8,742,AS,exp,33,↓,down,↓,0.6091878998558968,True,18,1,0,8
Y2-S2-208K26,8,743,AS,exp,26,→,right,→,0.5857170999515802,True,18,1,0,8
Y2-S2-208K26,8,744,AS,exp,49,↓,down,↓,0.7149361001793295,True,18,1,0,8
Y2-S2-208K26,8,745,AS,exp,32,↑,up,↑,0.5346478000283241,True,17,1,0,8
Y2-S2-208K26,8,746,AS,exp,37,↓,up,↑,0.7222319000866264,False,17,-1,1,9
Y2-S2-208K26,8,747,AS,exp,46,↑,right,→,0.6805451998952776,False,18,-1,0,9
Y2-S2-208K26,8,748,AS,exp,43,←,left,←,0.5845502999145538,True,19,-1,0,9
Y2-S2-208K26,8,749,AS,exp,43,↓,down,↓,0.6306637001689523,True,19,-1,0,9
Y2-S2-208K26,8,750,AS,exp,36,→,right,→,0.5817796001210809,True,19,1,1,10
Y2-S2-208K26,8,751,AS,exp,40,↓,down,↓,0.569500399986282,True,18,1,0,10
Y2-S2-208K26,8,752,AS,exp,31,→,right,→,0.5792899001389742,True,18,1,0,10
Y2-S2-208K26,8,753,AS,exp,31,↑,up,↑,0.7691550001036376,True,18,1,0,10
Y2-S2-208K26,8,754,AS,exp,30,→,right,→,0.6639717000070959,True,17,1,0,10
Y2-S2-208K26,8,755,AS,exp,40,↓,down,↓,0.7608538998756558,True,17,1,0,10
Y2-S2-208K26,8,756,AS,exp,39,↑,down,↓,0.7827820000238717,False,17,-1,1,11
Y2-S2-208K26,8,757,AS,exp,44,→,right,→,0.6097070001997054,True,18,-1,0,11
Y2-S2-208K26,8,758,AS,exp,30,←,down,↓,0.8833214000333101,False,18,-1,0,11
Y2-S2-208K26,8,759,AS,exp,34,↑,up,↑,0.5226660999469459,True,19,-1,0,11
Y2-S2-208K26,8,760,AS,exp,41,↓,up,↑,0.9077161999884993,False,19,-1,0,11
Y2-S2-208K26,8,761,AS,exp,45,↑,left,←,0.6014783000573516,False,20,-1,0,11
Y2-S2-208K26,8,762,AS,exp,37,→,right,→,0.7373732000123709,True,21,-1,0,11
Y2-S2-208K26,8,763,AS,exp,49,↑,up,↑,1.8761412999592721,True,21,-1,0,11
Y2-S2-208K26,8,764,AS,exp,41,→,right,→,0.5383564999792725,True,21,1,1,12
Y2-S2-208K26,8,765,AS,exp,27,↓,down,↓,0.6248516999185085,True,20,1,0,12
Y2-S2-208K26,8,766,AS,exp,35,←,left,←,0.5749640001449734,True,20,1,0,12
Y2-S2-208K26,8,767,AS,exp,32,↑,up,↑,0.6047071998473257,True,20,1,0,12
Y2-S2-208K26,8,768,AS,exp,28,←,up,↑,0.5318992000538856,False,19,-1,1,13
Y2-S2-208K26,8,769,AS,exp,49,↓,down,↓,0.806061799870804,True,20,-1,0,13
Y2-S2-208K26,8,770,AS,exp,34,↑,up,↑,0.5734504999127239,True,20,-1,0,13
Y2-S2-208K26,8,771,AS,exp,28,↓,down,↓,0.6689492999576032,True,20,1,1,14
Y2-S2-208K26,8,772,AS,exp,39,→,right,→,0.9620183000806719,True,19,1,0,14
Y2-S2-208K26,8,773,AS,exp,26,←,left,←,0.7095830999314785,True,19,1,0,14
Y2-S2-208K26,8,774,AS,exp,34,↓,down,↓,0.5810391001868993,True,19,1,0,14
Y2-S2-208K26,8,775,AS,exp,28,←,left,←,0.537082799943164,True,18,1,0,14
Y2-S2-208K26,8,776,AS,exp,37,↓,down,↓,0.7272557998076081,True,18,1,0,14
Y2-S2-208K26,8,777,AS,exp,43,→,down,↓,0.7146730001550168,False,18,-1,1,15
Y2-S2-208K26,8,778,AS,exp,50,←,left,←,0.49668470001779497,True,19,-1,0,15
Y2-S2-208K26,8,779,AS,exp,50,↓,down,↓,0.6477337998803705,True,19,-1,0,15
Y2-S2-208K26,8,780,AS,exp,44,←,right,→,0.8124547000043094,False,19,-1,0,15
Y2-S2-208K26,8,781,AS,exp,40,↑,up,↑,0.6501947001088411,True,20,-1,0,15
Y2-S2-208K26,8,782,AS,exp,33,←,left,←,0.8006931999698281,True,20,-1,0,15
Y2-S2-208K26,8,783,AS,exp,28,↑,right,→,0.6260402000043541,False,20,-1,0,15
Y2-S2-208K26,8,784,AS,exp,40,←,left,←,0.4839709000661969,True,21,-1,0,15
Y2-S2-208K26,8,785,AS,exp,46,↓,right,→,1.0164642001036555,False,21,-1,0,15
Y2-S2-208K26,8,786,AS,exp,28,→,right,→,0.48389470018446445,True,22,-1,0,15
Y2-S2-208K26,8,787,AS,exp,31,←,left,←,0.7592069001402706,True,22,-1,0,15
Y2-S2-208K26,8,788,AS,exp,40,↑,up,↑,0.45058499998413026,True,22,1,1,16
