PART_ID,Block_no,Trial_no,Block_type,Trial_type,CSI,Stim_letter,Key_pressed,letter_choose,Rt,Corr,Stimulus Time,Level,Reversal,Revs_count
Y2-S2-058K25,1,1,PS,train,46,↓,down,↓,2.0611994999926537,True,30,-,-,-
Y2-S2-058K25,1,2,PS,train,31,←,left,←,1.4829453998245299,True,30,-,-,-
Y2-S2-058K25,1,3,PS,train,42,↓,down,↓,1.1434297000523657,True,30,-,-,-
Y2-S2-058K25,1,4,PS,train,41,→,right,→,1.7137536997906864,True,30,-,-,-
Y2-S2-058K25,1,5,PS,train,45,↓,down,↓,0.9324475000612438,True,30,-,-,-
Y2-S2-058K25,1,6,PS,train,40,←,left,←,1.0775848000776023,True,30,-,-,-
Y2-S2-058K25,1,7,PS,train,37,→,right,→,0.9150932999327779,True,30,-,-,-
Y2-S2-058K25,1,8,PS,train,42,↑,up,↑,1.3992070001550019,True,30,-,-,-
Y2-S2-058K25,1,9,PS,train,49,←,left,←,1.0398146000225097,True,30,-,-,-
Y2-S2-058K25,1,10,PS,train,33,↓,down,↓,0.958580199861899,True,30,-,-,-
Y2-S2-058K25,2,11,AS,train,26,→,right,→,1.1158710999879986,True,45,-,-,-
Y2-S2-058K25,2,12,AS,train,48,←,left,←,0.9910956001840532,True,45,-,-,-
Y2-S2-058K25,2,13,AS,train,33,→,right,→,0.8844910999760032,True,45,-,-,-
Y2-S2-058K25,2,14,AS,train,33,↑,up,↑,1.066965099889785,True,45,-,-,-
Y2-S2-058K25,2,15,AS,train,38,←,left,←,0.883786000078544,True,45,-,-,-
Y2-S2-058K25,2,16,AS,train,41,→,right,→,0.9445682000368834,True,45,-,-,-
Y2-S2-058K25,2,17,AS,train,25,←,left,←,2.20801950013265,True,45,-,-,-
Y2-S2-058K25,2,18,AS,train,35,↓,down,↓,1.5297900999430567,True,45,-,-,-
Y2-S2-058K25,2,19,AS,train,25,→,right,→,0.8679927000775933,True,45,-,-,-
Y2-S2-058K25,2,20,AS,train,35,↑,up,↑,2.2846406002063304,True,45,-,-,-
Y2-S2-058K25,-,21,PS,adaptive,38,←,right,→,1.1185052001383156,False,10,-1,0,0
Y2-S2-058K25,-,22,PS,adaptive,25,↓,down,↓,0.846707200165838,True,11,-1,0,0
Y2-S2-058K25,-,23,PS,adaptive,45,→,right,→,1.1420237999409437,True,11,-1,0,0
Y2-S2-058K25,-,24,PS,adaptive,33,↓,down,↓,0.8725150001700968,True,11,1,1,1
Y2-S2-058K25,-,25,PS,adaptive,38,↑,right,→,0.8810698001179844,False,10,-1,1,2
Y2-S2-058K25,-,26,PS,adaptive,50,↓,down,↓,0.8992286999709904,True,11,-1,0,2
Y2-S2-058K25,-,27,PS,adaptive,45,←,left,←,1.0343911000527442,True,11,-1,0,2
Y2-S2-058K25,-,28,PS,adaptive,41,↓,down,↓,1.021821000147611,True,11,1,1,3
Y2-S2-058K25,-,29,PS,adaptive,34,←,right,→,1.0049395998939872,False,10,-1,1,4
Y2-S2-058K25,-,30,AS,adaptive,41,↓,down,↓,0.991658000042662,True,20,0,0,0
Y2-S2-058K25,-,31,AS,adaptive,45,←,left,←,0.8970480998978019,True,20,0,0,0
Y2-S2-058K25,-,32,AS,adaptive,42,↑,up,↑,0.9435356999747455,True,20,1,0,0
Y2-S2-058K25,-,33,AS,adaptive,38,↓,down,↓,0.7802420000080019,True,19,1,0,0
Y2-S2-058K25,-,34,AS,adaptive,31,↑,left,←,1.0959214998874813,False,19,-1,1,1
Y2-S2-058K25,-,35,AS,adaptive,48,←,left,←,0.8055867999792099,True,20,-1,0,1
Y2-S2-058K25,-,36,AS,adaptive,28,↓,down,↓,0.8854078000877053,True,20,-1,0,1
Y2-S2-058K25,-,37,AS,adaptive,41,→,right,→,0.6702497999649495,True,20,1,1,2
Y2-S2-058K25,-,38,AS,adaptive,43,←,left,←,0.8149828999303281,True,19,1,0,2
Y2-S2-058K25,-,39,AS,adaptive,45,↓,down,↓,0.8210408999584615,True,19,1,0,2
Y2-S2-058K25,-,40,AS,adaptive,29,←,left,←,1.7610440999269485,True,19,1,0,2
Y2-S2-058K25,-,41,AS,adaptive,32,↑,up,↑,0.9034871000330895,True,18,1,0,2
Y2-S2-058K25,-,42,AS,adaptive,50,←,left,←,0.9908437000121921,True,18,1,0,2
Y2-S2-058K25,-,43,AS,adaptive,45,→,right,→,0.6566190000157803,True,18,1,0,2
Y2-S2-058K25,-,44,AS,adaptive,34,↓,down,↓,0.8737844999413937,True,17,1,0,2
Y2-S2-058K25,-,45,AS,adaptive,35,←,left,←,0.6867384999059141,True,17,1,0,2
Y2-S2-058K25,-,46,AS,adaptive,33,→,right,→,0.6814033999107778,True,17,1,0,2
Y2-S2-058K25,-,47,AS,adaptive,34,↓,down,↓,0.8127715000882745,True,16,1,0,2
Y2-S2-058K25,-,48,AS,adaptive,30,←,left,←,0.6768984999507666,True,16,1,0,2
Y2-S2-058K25,-,49,AS,adaptive,35,↓,down,↓,0.6908732999581844,True,16,1,0,2
Y2-S2-058K25,-,50,AS,adaptive,46,↑,up,↑,1.0142105999402702,True,15,1,0,2
Y2-S2-058K25,-,51,AS,adaptive,49,←,left,←,0.6160526000894606,True,15,1,0,2
Y2-S2-058K25,-,52,AS,adaptive,44,→,right,→,0.7069914999883622,True,15,1,0,2
Y2-S2-058K25,-,53,AS,adaptive,37,←,left,←,0.5888300000224262,True,14,1,0,2
Y2-S2-058K25,-,54,AS,adaptive,42,→,right,→,0.7587982001714408,True,14,1,0,2
Y2-S2-058K25,-,55,AS,adaptive,36,↓,up,↑,1.4842704001348466,False,14,-1,1,3
Y2-S2-058K25,-,56,AS,adaptive,44,↑,up,↑,0.7019487998913974,True,15,-1,0,3
Y2-S2-058K25,-,57,AS,adaptive,28,↓,down,↓,0.8348693998996168,True,15,-1,0,3
Y2-S2-058K25,-,58,AS,adaptive,26,→,right,→,0.7569562001153827,True,15,1,1,4
Y2-S2-058K25,1,59,PS,intra_train,37,←,left,←,0.648172500077635,True,16,-,-,-
Y2-S2-058K25,1,60,PS,intra_train,28,↓,down,↓,0.8085384999867529,True,16,-,-,-
Y2-S2-058K25,1,61,PS,intra_train,36,←,left,←,0.7446838000323623,True,16,-,-,-
Y2-S2-058K25,1,62,PS,intra_train,36,→,right,→,0.607118499930948,True,16,-,-,-
Y2-S2-058K25,1,63,PS,intra_train,36,↓,up,↑,0.9714685999788344,False,16,-,-,-
Y2-S2-058K25,1,64,PS,exp,37,→,right,→,1.3430239001754671,True,11,0,0,0
Y2-S2-058K25,1,65,PS,exp,34,↓,right,→,0.9836917999200523,False,11,-1,0,0
Y2-S2-058K25,1,66,PS,exp,49,↑,down,↓,1.0764488999266177,False,12,-1,0,0
Y2-S2-058K25,1,67,PS,exp,29,↓,right,→,1.1130573998671025,False,13,-1,0,0
Y2-S2-058K25,1,68,PS,exp,45,→,right,→,0.6447777999565005,True,14,-1,0,0
Y2-S2-058K25,1,69,PS,exp,27,↓,down,↓,1.405464000068605,True,14,-1,0,0
Y2-S2-058K25,1,70,PS,exp,47,←,down,↓,1.0718638999387622,False,14,-1,0,0
Y2-S2-058K25,1,71,PS,exp,25,→,right,→,0.7422676999121904,True,15,-1,0,0
Y2-S2-058K25,1,72,PS,exp,46,↓,up,↑,1.3807155000977218,False,15,-1,0,0
Y2-S2-058K25,1,73,PS,exp,50,←,left,←,0.7409942999947816,True,16,-1,0,0
Y2-S2-058K25,1,74,PS,exp,30,↓,up,↑,1.1597585000563413,False,16,-1,0,0
Y2-S2-058K25,1,75,PS,exp,38,↑,up,↑,0.7298263998236507,True,17,-1,0,0
Y2-S2-058K25,1,76,PS,exp,45,→,right,→,0.6709287997800857,True,17,-1,0,0
Y2-S2-058K25,1,77,PS,exp,33,↑,up,↑,0.8446708999108523,True,17,1,1,1
Y2-S2-058K25,1,78,PS,exp,34,→,right,→,0.49901010002940893,True,16,1,0,1
Y2-S2-058K25,1,79,PS,exp,46,←,left,←,0.7488157001789659,True,16,1,0,1
Y2-S2-058K25,1,80,PS,exp,33,↑,up,↑,0.7235952001065016,True,16,1,0,1
Y2-S2-058K25,1,81,PS,exp,33,←,left,←,0.7172443999443203,True,15,1,0,1
Y2-S2-058K25,1,82,PS,exp,27,→,right,→,0.758303300011903,True,15,1,0,1
Y2-S2-058K25,1,83,PS,exp,28,←,left,←,0.6308905999176204,True,15,1,0,1
Y2-S2-058K25,1,84,PS,exp,37,→,right,→,0.6389043999370188,True,14,1,0,1
Y2-S2-058K25,1,85,PS,exp,33,↑,up,↑,0.7288680002093315,True,14,1,0,1
Y2-S2-058K25,1,86,PS,exp,45,←,left,←,0.6410781999584287,True,14,1,0,1
Y2-S2-058K25,1,87,PS,exp,29,→,right,→,0.6152757001109421,True,13,1,0,1
Y2-S2-058K25,1,88,PS,exp,50,↑,up,↑,0.7436116000171751,True,13,1,0,1
Y2-S2-058K25,1,89,PS,exp,40,↓,up,↑,1.0303620998747647,False,13,-1,1,2
Y2-S2-058K25,1,90,PS,exp,34,↑,up,↑,0.7797564000356942,True,14,-1,0,2
Y2-S2-058K25,1,91,PS,exp,43,→,right,→,0.6457636000122875,True,14,-1,0,2
Y2-S2-058K25,1,92,PS,exp,28,←,left,←,0.7352807000279427,True,14,1,1,3
Y2-S2-058K25,1,93,PS,exp,38,→,right,→,0.5604607998393476,True,13,1,0,3
Y2-S2-058K25,1,94,PS,exp,49,↑,up,↑,0.7482040000613779,True,13,1,0,3
Y2-S2-058K25,1,95,PS,exp,40,←,right,→,0.7880651999730617,False,13,-1,1,4
Y2-S2-058K25,1,96,PS,exp,30,→,right,→,0.5874902999494225,True,14,-1,0,4
Y2-S2-058K25,1,97,PS,exp,41,↑,up,↑,0.8033247001003474,True,14,-1,0,4
Y2-S2-058K25,1,98,PS,exp,26,↓,down,↓,0.8661861000582576,True,14,1,1,5
Y2-S2-058K25,1,99,PS,exp,36,→,right,→,0.7205102001316845,True,13,1,0,5
Y2-S2-058K25,1,100,PS,exp,47,↑,up,↑,0.8078588000498712,True,13,1,0,5
Y2-S2-058K25,1,101,PS,exp,34,←,left,←,0.6777532999403775,True,13,1,0,5
Y2-S2-058K25,1,102,PS,exp,37,→,right,→,0.4721552000846714,True,12,1,0,5
Y2-S2-058K25,1,103,PS,exp,27,↑,up,↑,0.6575676000211388,True,12,1,0,5
Y2-S2-058K25,1,104,PS,exp,40,→,right,→,0.592262800084427,True,12,1,0,5
Y2-S2-058K25,1,105,PS,exp,30,←,left,←,0.5054377999622375,True,11,1,0,5
Y2-S2-058K25,1,106,PS,exp,30,↓,down,↓,0.8230868999380618,True,11,1,0,5
Y2-S2-058K25,1,107,PS,exp,41,→,right,→,0.592073799809441,True,11,1,0,5
Y2-S2-058K25,1,108,PS,exp,43,↓,down,↓,0.9126435001380742,True,10,1,0,5
Y2-S2-058K25,1,109,PS,exp,25,→,right,→,0.5868462000507861,True,10,1,0,5
Y2-S2-058K25,1,110,PS,exp,26,←,down,↓,1.048448899993673,False,10,-1,1,6
Y2-S2-058K25,1,111,PS,exp,29,↑,up,↑,0.6625625998713076,True,11,-1,0,6
Y2-S2-058K25,1,112,PS,exp,29,←,left,←,0.6725870999507606,True,11,-1,0,6
Y2-S2-058K25,1,113,PS,exp,38,→,right,→,0.7855492001399398,True,11,1,1,7
Y2-S2-058K25,1,114,PS,exp,47,←,right,→,0.7416483000852168,False,10,-1,1,8
Y2-S2-058K25,1,115,PS,exp,27,↑,up,↑,0.6227361999917775,True,11,-1,0,8
Y2-S2-058K25,1,116,PS,exp,46,→,right,→,0.690011200029403,True,11,-1,0,8
Y2-S2-058K25,1,117,PS,exp,32,↑,up,↑,0.9761715999338776,True,11,1,1,9
Y2-S2-058K25,1,118,PS,exp,48,←,right,→,0.8048146001528949,False,10,-1,1,10
Y2-S2-058K25,1,119,PS,exp,42,↓,down,↓,0.8606461000163108,True,11,-1,0,10
Y2-S2-058K25,1,120,PS,exp,28,←,left,←,0.6727642000187188,True,11,-1,0,10
Y2-S2-058K25,1,121,PS,exp,36,↓,down,↓,0.7758487001992762,True,11,1,1,11
Y2-S2-058K25,1,122,PS,exp,39,←,left,←,0.5619967000093311,True,10,1,0,11
Y2-S2-058K25,1,123,PS,exp,44,→,down,↓,0.9422435997985303,False,10,-1,1,12
Y2-S2-058K25,1,124,PS,exp,33,←,right,→,0.7258070998359472,False,11,-1,0,12
Y2-S2-058K25,1,125,PS,exp,33,↓,down,↓,0.8180280001834035,True,12,-1,0,12
Y2-S2-058K25,1,126,PS,exp,44,↑,up,↑,0.6909109000116587,True,12,-1,0,12
Y2-S2-058K25,1,127,PS,exp,49,↓,down,↓,0.8875613999553025,True,12,1,1,13
Y2-S2-058K25,1,128,PS,exp,31,←,left,←,0.6202261000871658,True,11,1,0,13
Y2-S2-058K25,1,129,PS,exp,38,↓,down,↓,1.0486875001806766,True,11,1,0,13
Y2-S2-058K25,1,130,PS,exp,25,←,left,←,0.655073800124228,True,11,1,0,13
Y2-S2-058K25,1,131,PS,exp,42,↓,down,↓,0.7697061998769641,True,10,1,0,13
Y2-S2-058K25,1,132,PS,exp,30,↑,up,↑,0.8221571000758559,True,10,1,0,13
Y2-S2-058K25,1,133,PS,exp,44,←,left,←,0.5691257999278605,True,10,1,0,13
Y2-S2-058K25,1,134,PS,exp,25,↓,left,←,0.6243018000386655,False,9,-1,1,14
Y2-S2-058K25,1,135,PS,exp,39,→,right,→,0.5300267001148313,True,10,-1,0,14
Y2-S2-058K25,1,136,PS,exp,31,←,left,←,0.5794806000776589,True,10,-1,0,14
Y2-S2-058K25,1,137,PS,exp,33,↑,up,↑,0.8430439000949264,True,10,1,1,15
Y2-S2-058K25,1,138,PS,exp,29,↓,down,↓,0.8756555998697877,True,9,1,0,15
Y2-S2-058K25,1,139,PS,exp,37,←,left,←,0.6259554999414831,True,9,1,0,15
Y2-S2-058K25,1,140,PS,exp,39,↑,up,↑,0.5680271999444813,True,9,1,0,15
Y2-S2-058K25,1,141,PS,exp,31,→,right,→,0.5783641000743955,True,8,1,0,15
Y2-S2-058K25,1,142,PS,exp,44,↓,down,↓,0.7215501999016851,True,8,1,0,15
Y2-S2-058K25,1,143,PS,exp,41,←,down,↓,0.618500699987635,False,8,-1,1,16
Y2-S2-058K25,2,144,AS,intra_train,42,↑,up,↑,1.4569269001949579,True,21,-,-,-
Y2-S2-058K25,2,145,AS,intra_train,28,↓,down,↓,1.1928328999783844,True,21,-,-,-
Y2-S2-058K25,2,146,AS,intra_train,40,↑,up,↑,1.0077231000177562,True,21,-,-,-
Y2-S2-058K25,2,147,AS,intra_train,25,←,left,←,0.7280917000025511,True,21,-,-,-
Y2-S2-058K25,2,148,AS,intra_train,42,↓,down,↓,0.9302290000487119,True,21,-,-,-
Y2-S2-058K25,2,149,AS,exp,36,↑,up,↑,0.8556957000400871,True,14,0,0,0
Y2-S2-058K25,2,150,AS,exp,50,→,right,→,0.6559828999452293,True,14,0,0,0
Y2-S2-058K25,2,151,AS,exp,31,↓,down,↓,0.7688168999738991,True,14,1,0,0
Y2-S2-058K25,2,152,AS,exp,31,→,right,→,0.8192563999909908,True,13,1,0,0
Y2-S2-058K25,2,153,AS,exp,39,←,left,←,0.7008617001120001,True,13,1,0,0
Y2-S2-058K25,2,154,AS,exp,31,↓,down,↓,0.8795807999558747,True,13,1,0,0
Y2-S2-058K25,2,155,AS,exp,28,→,right,→,0.8503631001804024,True,12,1,0,0
Y2-S2-058K25,2,156,AS,exp,31,←,left,←,0.7890486000105739,True,12,1,0,0
Y2-S2-058K25,2,157,AS,exp,44,↓,down,↓,0.7482992000877857,True,12,1,0,0
Y2-S2-058K25,2,158,AS,exp,27,←,right,→,0.7252919999882579,False,11,-1,1,1
Y2-S2-058K25,2,159,AS,exp,45,↓,down,↓,0.6673897998407483,True,12,-1,0,1
Y2-S2-058K25,2,160,AS,exp,34,↑,down,↓,0.9244252999778837,False,12,-1,0,1
Y2-S2-058K25,2,161,AS,exp,32,←,up,↑,1.838214199990034,False,13,-1,0,1
Y2-S2-058K25,2,162,AS,exp,49,↓,down,↓,1.0038913001772016,True,14,-1,0,1
Y2-S2-058K25,2,163,AS,exp,45,→,right,→,1.6528493000660092,True,14,-1,0,1
Y2-S2-058K25,2,164,AS,exp,36,↑,up,↑,1.218103399965912,True,14,1,1,2
Y2-S2-058K25,2,165,AS,exp,27,↓,down,↓,0.9186455998569727,True,13,1,0,2
Y2-S2-058K25,2,166,AS,exp,37,←,left,←,0.993070799857378,True,13,1,0,2
Y2-S2-058K25,2,167,AS,exp,39,→,right,→,0.6394627999980003,True,13,1,0,2
Y2-S2-058K25,2,168,AS,exp,41,↑,up,↑,0.7922512998338789,True,12,1,0,2
Y2-S2-058K25,2,169,AS,exp,33,→,right,→,0.7231348999775946,True,12,1,0,2
Y2-S2-058K25,2,170,AS,exp,31,↑,down,↓,0.9670273000374436,False,12,-1,1,3
Y2-S2-058K25,2,171,AS,exp,44,→,right,→,0.6912699998356402,True,13,-1,0,3
Y2-S2-058K25,2,172,AS,exp,35,↓,up,↑,0.9722337999846786,False,13,-1,0,3
Y2-S2-058K25,2,173,AS,exp,46,↑,up,↑,0.8158520997967571,True,14,-1,0,3
Y2-S2-058K25,2,174,AS,exp,28,←,right,→,0.6909522998612374,False,14,-1,0,3
Y2-S2-058K25,2,175,AS,exp,36,→,right,→,0.6041469001211226,True,15,-1,0,3
Y2-S2-058K25,2,176,AS,exp,27,↓,up,↑,0.8841825998388231,False,15,-1,0,3
Y2-S2-058K25,2,177,AS,exp,42,↑,up,↑,0.7880754999350756,True,16,-1,0,3
Y2-S2-058K25,2,178,AS,exp,33,←,up,↑,0.8100546998903155,False,16,-1,0,3
Y2-S2-058K25,2,179,AS,exp,48,↓,down,↓,0.8752274999860674,True,17,-1,0,3
Y2-S2-058K25,2,180,AS,exp,32,←,left,←,0.656514999922365,True,17,-1,0,3
Y2-S2-058K25,2,181,AS,exp,39,↑,up,↑,0.6270004999823868,True,17,1,1,4
Y2-S2-058K25,2,182,AS,exp,27,↓,down,↓,1.0060368000995368,True,16,1,0,4
Y2-S2-058K25,2,183,AS,exp,33,→,right,→,0.7261102001648396,True,16,1,0,4
Y2-S2-058K25,2,184,AS,exp,25,←,left,←,0.7082654999103397,True,16,1,0,4
Y2-S2-058K25,2,185,AS,exp,44,↓,down,↓,0.763525300193578,True,15,1,0,4
Y2-S2-058K25,2,186,AS,exp,42,↑,up,↑,0.7699019000865519,True,15,1,0,4
Y2-S2-058K25,2,187,AS,exp,26,←,right,→,0.7557017998769879,False,15,-1,1,5
Y2-S2-058K25,2,188,AS,exp,33,↓,down,↓,0.7786449999548495,True,16,-1,0,5
Y2-S2-058K25,2,189,AS,exp,48,↑,up,↑,0.8138567002024502,True,16,-1,0,5
Y2-S2-058K25,2,190,AS,exp,44,←,left,←,0.6777346001472324,True,16,1,1,6
Y2-S2-058K25,2,191,AS,exp,50,↓,down,↓,0.7689380999654531,True,15,1,0,6
Y2-S2-058K25,2,192,AS,exp,39,→,left,←,0.7888629001099616,False,15,-1,1,7
Y2-S2-058K25,2,193,AS,exp,26,↑,up,↑,0.8034828000236303,True,16,-1,0,7
Y2-S2-058K25,2,194,AS,exp,46,→,right,→,0.6887701000086963,True,16,-1,0,7
Y2-S2-058K25,2,195,AS,exp,31,←,left,←,0.5025554997846484,True,16,1,1,8
Y2-S2-058K25,2,196,AS,exp,50,→,right,→,0.5001626000739634,True,15,1,0,8
Y2-S2-058K25,2,197,AS,exp,36,←,left,←,0.5461955000646412,True,15,1,0,8
Y2-S2-058K25,2,198,AS,exp,48,→,right,→,0.5083667999133468,True,15,1,0,8
Y2-S2-058K25,2,199,AS,exp,28,←,left,←,0.49489319999702275,True,14,1,0,8
Y2-S2-058K25,2,200,AS,exp,32,→,right,→,0.7488133001606911,True,14,1,0,8
Y2-S2-058K25,2,201,AS,exp,50,↓,up,↑,1.0174182998016477,False,14,-1,1,9
Y2-S2-058K25,2,202,AS,exp,30,↑,up,↑,0.7592499000020325,True,15,-1,0,9
Y2-S2-058K25,2,203,AS,exp,34,←,left,←,0.6415630001574755,True,15,-1,0,9
Y2-S2-058K25,2,204,AS,exp,28,↑,down,↓,1.1703937000129372,False,15,-1,0,9
Y2-S2-058K25,2,205,AS,exp,32,→,right,→,0.6270963000133634,True,16,-1,0,9
Y2-S2-058K25,2,206,AS,exp,43,←,left,←,0.5626236000098288,True,16,-1,0,9
Y2-S2-058K25,2,207,AS,exp,35,↑,right,→,0.6075752999167889,False,16,-1,0,9
Y2-S2-058K25,2,208,AS,exp,48,←,left,←,0.7549400001298636,True,17,-1,0,9
Y2-S2-058K25,2,209,AS,exp,26,→,right,→,0.6974172000773251,True,17,-1,0,9
Y2-S2-058K25,2,210,AS,exp,35,↑,up,↑,1.494654799811542,True,17,1,1,10
Y2-S2-058K25,2,211,AS,exp,31,←,left,←,0.5648886000271887,True,16,1,0,10
Y2-S2-058K25,2,212,AS,exp,31,↓,down,↓,0.9613230999093503,True,16,1,0,10
Y2-S2-058K25,2,213,AS,exp,32,↑,up,↑,0.7210938001517206,True,16,1,0,10
Y2-S2-058K25,2,214,AS,exp,25,←,left,←,0.8624627001117915,True,15,1,0,10
Y2-S2-058K25,2,215,AS,exp,28,↓,down,↓,0.9924003998748958,True,15,1,0,10
Y2-S2-058K25,2,216,AS,exp,39,→,right,→,0.5824277999345213,True,15,1,0,10
Y2-S2-058K25,2,217,AS,exp,27,↓,down,↓,0.6692104998510331,True,14,1,0,10
Y2-S2-058K25,2,218,AS,exp,31,↑,up,↑,0.9866794000845402,True,14,1,0,10
Y2-S2-058K25,2,219,AS,exp,41,↓,up,↑,1.0052613001316786,False,14,-1,1,11
Y2-S2-058K25,2,220,AS,exp,25,←,left,←,0.7091014999896288,True,15,-1,0,11
Y2-S2-058K25,2,221,AS,exp,33,→,left,←,0.7941064999904484,False,15,-1,0,11
Y2-S2-058K25,2,222,AS,exp,25,↓,down,↓,0.8557950998656452,True,16,-1,0,11
Y2-S2-058K25,2,223,AS,exp,48,↑,up,↑,0.9960117000155151,True,16,-1,0,11
Y2-S2-058K25,2,224,AS,exp,26,←,up,↑,0.9862016998231411,False,16,-1,0,11
Y2-S2-058K25,2,225,AS,exp,36,↑,up,↑,0.7528181998059154,True,17,-1,0,11
Y2-S2-058K25,2,226,AS,exp,49,←,left,←,0.6095666000619531,True,17,-1,0,11
Y2-S2-058K25,2,227,AS,exp,45,↑,up,↑,0.9386417998466641,True,17,1,1,12
Y2-S2-058K25,2,228,AS,exp,35,←,left,←,0.6709496001712978,True,16,1,0,12
Y2-S2-058K25,2,229,AS,exp,44,→,right,→,0.7940982000436634,True,16,1,0,12
Y2-S2-058K25,2,230,AS,exp,50,↓,down,↓,0.8916800001170486,True,16,1,0,12
Y2-S2-058K25,2,231,AS,exp,28,→,right,→,0.6931861999910325,True,15,1,0,12
Y2-S2-058K25,2,232,AS,exp,38,↓,down,↓,0.8465921999886632,True,15,1,0,12
Y2-S2-058K25,2,233,AS,exp,49,↑,up,↑,1.1440056001301855,True,15,1,0,12
Y2-S2-058K25,2,234,AS,exp,33,↓,down,↓,0.9756603999994695,True,14,1,0,12
Y2-S2-058K25,2,235,AS,exp,40,→,right,→,0.7648831000551581,True,14,1,0,12
Y2-S2-058K25,2,236,AS,exp,31,↓,up,↑,1.0287543998565525,False,14,-1,1,13
Y2-S2-058K25,2,237,AS,exp,49,↑,up,↑,0.628277099924162,True,15,-1,0,13
Y2-S2-058K25,2,238,AS,exp,45,→,right,→,0.6367556999903172,True,15,-1,0,13
Y2-S2-058K25,2,239,AS,exp,50,↑,up,↑,0.798387800110504,True,15,1,1,14
Y2-S2-058K25,2,240,AS,exp,26,→,right,→,0.5755710999947041,True,14,1,0,14
Y2-S2-058K25,2,241,AS,exp,41,↑,up,↑,0.8224423001520336,True,14,1,0,14
Y2-S2-058K25,2,242,AS,exp,27,←,right,→,0.7375432001426816,False,14,-1,1,15
Y2-S2-058K25,2,243,AS,exp,50,↓,down,↓,0.8512787001673132,True,15,-1,0,15
Y2-S2-058K25,2,244,AS,exp,27,↑,up,↑,0.9520601001568139,True,15,-1,0,15
Y2-S2-058K25,2,245,AS,exp,29,←,left,←,0.6141325999051332,True,15,1,1,16
Y2-S2-058K25,3,246,AS,intra_train,38,↑,up,↑,0.6543663002084941,True,21,-,-,-
Y2-S2-058K25,3,247,AS,intra_train,26,↓,down,↓,0.7852201000787318,True,21,-,-,-
Y2-S2-058K25,3,248,AS,intra_train,43,←,left,←,0.7384993999730796,True,21,-,-,-
Y2-S2-058K25,3,249,AS,intra_train,37,↓,down,↓,0.8256027000024915,True,21,-,-,-
Y2-S2-058K25,3,250,AS,intra_train,39,↑,up,↑,0.7163935001008213,True,21,-,-,-
Y2-S2-058K25,3,251,AS,exp,45,↓,down,↓,0.7297288000117987,True,14,0,0,0
Y2-S2-058K25,3,252,AS,exp,43,→,right,→,0.7899766000919044,True,14,0,0,0
Y2-S2-058K25,3,253,AS,exp,42,↓,up,↑,0.7762571999337524,False,14,-1,0,0
Y2-S2-058K25,3,254,AS,exp,43,→,right,→,0.7066812999546528,True,15,-1,0,0
Y2-S2-058K25,3,255,AS,exp,49,←,left,←,0.5988117000088096,True,15,-1,0,0
Y2-S2-058K25,3,256,AS,exp,30,→,left,←,0.48268610006198287,False,15,-1,0,0
Y2-S2-058K25,3,257,AS,exp,42,←,right,→,0.717368199955672,False,16,-1,0,0
Y2-S2-058K25,3,258,AS,exp,42,↑,up,↑,0.8002139001619071,True,17,-1,0,0
Y2-S2-058K25,3,259,AS,exp,25,↓,down,↓,0.8632219999562949,True,17,-1,0,0
Y2-S2-058K25,3,260,AS,exp,44,→,right,→,0.7096720999106765,True,17,1,1,1
Y2-S2-058K25,3,261,AS,exp,35,←,left,←,0.6382553000003099,True,16,1,0,1
Y2-S2-058K25,3,262,AS,exp,44,→,right,→,0.5317037000786513,True,16,1,0,1
Y2-S2-058K25,3,263,AS,exp,41,↓,left,←,0.8888908999506384,False,16,-1,1,2
Y2-S2-058K25,3,264,AS,exp,39,↑,right,→,0.7718234001658857,False,17,-1,0,2
Y2-S2-058K25,3,265,AS,exp,38,↓,down,↓,0.9987321000080556,True,18,-1,0,2
Y2-S2-058K25,3,266,AS,exp,30,←,up,↑,0.7196014998480678,False,18,-1,0,2
Y2-S2-058K25,3,267,AS,exp,36,→,right,→,0.6885363000910729,True,19,-1,0,2
Y2-S2-058K25,3,268,AS,exp,46,↑,up,↑,1.084347700001672,True,19,-1,0,2
Y2-S2-058K25,3,269,AS,exp,26,↓,down,↓,0.888505999930203,True,19,1,1,3
Y2-S2-058K25,3,270,AS,exp,36,↑,up,↑,0.7057504998520017,True,18,1,0,3
Y2-S2-058K25,3,271,AS,exp,43,↓,down,↓,0.7534302000422031,True,18,1,0,3
Y2-S2-058K25,3,272,AS,exp,28,↑,up,↑,0.6962500000372529,True,18,1,0,3
Y2-S2-058K25,3,273,AS,exp,31,→,right,→,0.7015205000061542,True,17,1,0,3
Y2-S2-058K25,3,274,AS,exp,50,↓,up,↑,1.013915600022301,False,17,-1,1,4
Y2-S2-058K25,3,275,AS,exp,29,↑,right,→,0.7202326999977231,False,18,-1,0,4
Y2-S2-058K25,3,276,AS,exp,35,←,left,←,0.590020400006324,True,19,-1,0,4
Y2-S2-058K25,3,277,AS,exp,41,→,right,→,0.6303981998935342,True,19,-1,0,4
Y2-S2-058K25,3,278,AS,exp,46,←,left,←,0.8010672000236809,True,19,1,1,5
Y2-S2-058K25,3,279,AS,exp,34,↑,up,↑,0.6642557000741363,True,18,1,0,5
Y2-S2-058K25,3,280,AS,exp,45,←,left,←,0.7119366000406444,True,18,1,0,5
Y2-S2-058K25,3,281,AS,exp,26,→,right,→,0.6357548001687974,True,18,1,0,5
Y2-S2-058K25,3,282,AS,exp,36,←,left,←,0.6446212001610547,True,17,1,0,5
Y2-S2-058K25,3,283,AS,exp,37,↑,up,↑,0.8774230999406427,True,17,1,0,5
Y2-S2-058K25,3,284,AS,exp,27,↓,down,↓,0.7637271999847144,True,17,1,0,5
Y2-S2-058K25,3,285,AS,exp,27,←,down,↓,0.8956929999403656,False,16,-1,1,6
Y2-S2-058K25,3,286,AS,exp,39,↑,up,↑,0.8735966999083757,True,17,-1,0,6
Y2-S2-058K25,3,287,AS,exp,50,↓,right,→,0.9397356000263244,False,17,-1,0,6
Y2-S2-058K25,3,288,AS,exp,35,→,left,←,0.8040791000239551,False,18,-1,0,6
Y2-S2-058K25,3,289,AS,exp,43,↑,up,↑,0.7814304998610169,True,19,-1,0,6
Y2-S2-058K25,3,290,AS,exp,45,↓,down,↓,1.0359883999917656,True,19,-1,0,6
Y2-S2-058K25,3,291,AS,exp,25,↑,up,↑,1.2550887998659164,True,19,1,1,7
Y2-S2-058K25,3,292,AS,exp,27,↓,left,←,1.1705513000488281,False,18,-1,1,8
Y2-S2-058K25,3,293,AS,exp,30,→,right,→,0.8112498999107629,True,19,-1,0,8
Y2-S2-058K25,3,294,AS,exp,42,↓,down,↓,0.9910836999770254,True,19,-1,0,8
Y2-S2-058K25,3,295,AS,exp,28,↑,up,↑,1.1761305001564324,True,19,1,1,9
Y2-S2-058K25,3,296,AS,exp,49,↓,down,↓,1.0744055998511612,True,18,1,0,9
Y2-S2-058K25,3,297,AS,exp,36,→,right,→,0.6488395999185741,True,18,1,0,9
Y2-S2-058K25,3,298,AS,exp,27,↓,down,↓,0.8820649001281708,True,18,1,0,9
Y2-S2-058K25,3,299,AS,exp,42,←,left,←,0.5967882999684662,True,17,1,0,9
Y2-S2-058K25,3,300,AS,exp,28,↑,right,→,0.48787360009737313,False,17,-1,1,10
Y2-S2-058K25,3,301,AS,exp,37,↓,up,↑,0.8237175000831485,False,18,-1,0,10
Y2-S2-058K25,3,302,AS,exp,36,→,right,→,0.652831400046125,True,19,-1,0,10
Y2-S2-058K25,3,303,AS,exp,25,↑,up,↑,0.6244812000077218,True,19,-1,0,10
Y2-S2-058K25,3,304,AS,exp,30,↓,down,↓,0.9237321000546217,True,19,1,1,11
Y2-S2-058K25,3,305,AS,exp,48,→,right,→,0.6430506999604404,True,18,1,0,11
Y2-S2-058K25,3,306,AS,exp,33,←,right,→,0.9087946999352425,False,18,-1,1,12
Y2-S2-058K25,3,307,AS,exp,40,↑,left,←,0.41772540006786585,False,19,-1,0,12
Y2-S2-058K25,3,308,AS,exp,39,→,right,→,0.5568248999770731,True,20,-1,0,12
Y2-S2-058K25,3,309,AS,exp,45,↑,up,↑,0.6950511001050472,True,20,-1,0,12
Y2-S2-058K25,3,310,AS,exp,28,←,left,←,0.8068981999531388,True,20,1,1,13
Y2-S2-058K25,3,311,AS,exp,25,↑,up,↑,0.6167923000175506,True,19,1,0,13
Y2-S2-058K25,3,312,AS,exp,40,←,left,←,0.6014076001010835,True,19,1,0,13
Y2-S2-058K25,3,313,AS,exp,39,→,right,→,0.5430451999418437,True,19,1,0,13
Y2-S2-058K25,3,314,AS,exp,29,↑,up,↑,0.5686945000197738,True,18,1,0,13
Y2-S2-058K25,3,315,AS,exp,43,←,right,→,0.7976450999267399,False,18,-1,1,14
Y2-S2-058K25,3,316,AS,exp,45,↓,up,↑,0.7139643998816609,False,19,-1,0,14
Y2-S2-058K25,3,317,AS,exp,38,←,left,←,0.7149996000807732,True,20,-1,0,14
Y2-S2-058K25,3,318,AS,exp,36,→,right,→,0.5696409998927265,True,20,-1,0,14
Y2-S2-058K25,3,319,AS,exp,29,←,left,←,1.4930737998802215,True,20,1,1,15
Y2-S2-058K25,3,320,AS,exp,43,↑,up,↑,0.5586582000833005,True,19,1,0,15
Y2-S2-058K25,3,321,AS,exp,46,↓,up,↑,0.7963314999360591,False,19,-1,1,16
Y2-S2-058K25,4,322,PS,intra_train,29,←,left,←,0.7923473999835551,True,16,-,-,-
Y2-S2-058K25,4,323,PS,intra_train,50,↓,down,↓,0.8716662998776883,True,16,-,-,-
Y2-S2-058K25,4,324,PS,intra_train,27,←,left,←,0.6130472000222653,True,16,-,-,-
Y2-S2-058K25,4,325,PS,intra_train,48,↑,up,↑,0.8422908999491483,True,16,-,-,-
Y2-S2-058K25,4,326,PS,intra_train,46,←,left,←,0.5820570001378655,True,16,-,-,-
Y2-S2-058K25,4,327,PS,exp,40,→,right,→,0.7886985000222921,True,11,0,0,0
Y2-S2-058K25,4,328,PS,exp,34,←,right,→,0.9206900000572205,False,11,-1,0,0
Y2-S2-058K25,4,329,PS,exp,33,→,right,→,0.5397807999979705,True,12,-1,0,0
Y2-S2-058K25,4,330,PS,exp,27,←,left,←,0.9822156999725848,True,12,-1,0,0
Y2-S2-058K25,4,331,PS,exp,39,→,left,←,1.3480984000489116,False,12,-1,0,0
Y2-S2-058K25,4,332,PS,exp,32,←,left,←,0.6556825002189726,True,13,-1,0,0
Y2-S2-058K25,4,333,PS,exp,29,→,right,→,0.6132850998546928,True,13,-1,0,0
Y2-S2-058K25,4,334,PS,exp,25,↓,down,↓,0.8924032000359148,True,13,1,1,1
Y2-S2-058K25,4,335,PS,exp,33,←,left,←,0.5393193999771029,True,12,1,0,1
Y2-S2-058K25,4,336,PS,exp,48,↓,up,↑,0.9954005000181496,False,12,-1,1,2
Y2-S2-058K25,4,337,PS,exp,48,→,right,→,0.652946500107646,True,13,-1,0,2
Y2-S2-058K25,4,338,PS,exp,33,↑,down,↓,0.9869762999005616,False,13,-1,0,2
Y2-S2-058K25,4,339,PS,exp,33,→,right,→,0.75343899987638,True,14,-1,0,2
Y2-S2-058K25,4,340,PS,exp,27,↑,up,↑,0.7513729000929743,True,14,-1,0,2
Y2-S2-058K25,4,341,PS,exp,40,↓,down,↓,0.7270712000317872,True,14,1,1,3
Y2-S2-058K25,4,342,PS,exp,48,→,right,→,1.3019785000942647,True,13,1,0,3
Y2-S2-058K25,4,343,PS,exp,40,↓,down,↓,0.7959080999717116,True,13,1,0,3
Y2-S2-058K25,4,344,PS,exp,44,←,left,←,0.5786286999937147,True,13,1,0,3
Y2-S2-058K25,4,345,PS,exp,34,↑,up,↑,0.8700509001500905,True,12,1,0,3
Y2-S2-058K25,4,346,PS,exp,46,→,right,→,0.6663323000539094,True,12,1,0,3
Y2-S2-058K25,4,347,PS,exp,26,↓,down,↓,0.6273119000252336,True,12,1,0,3
Y2-S2-058K25,4,348,PS,exp,26,→,right,→,0.5998875999357551,True,11,1,0,3
Y2-S2-058K25,4,349,PS,exp,43,←,left,←,0.5452618999406695,True,11,1,0,3
Y2-S2-058K25,4,350,PS,exp,36,↑,right,→,0.48421959998086095,False,11,-1,1,4
Y2-S2-058K25,4,351,PS,exp,46,→,right,→,0.6240622000768781,True,12,-1,0,4
Y2-S2-058K25,4,352,PS,exp,46,←,left,←,0.44752299995161593,True,12,-1,0,4
Y2-S2-058K25,4,353,PS,exp,47,→,right,→,0.6019413999747485,True,12,1,1,5
Y2-S2-058K25,4,354,PS,exp,25,↑,up,↑,0.8442267999053001,True,11,1,0,5
Y2-S2-058K25,4,355,PS,exp,28,↓,right,→,0.5899153999052942,False,11,-1,1,6
Y2-S2-058K25,4,356,PS,exp,47,←,left,←,0.6730005000717938,True,12,-1,0,6
Y2-S2-058K25,4,357,PS,exp,34,↑,up,↑,0.6844526999630034,True,12,-1,0,6
Y2-S2-058K25,4,358,PS,exp,29,→,right,→,0.6610502998810261,True,12,1,1,7
Y2-S2-058K25,4,359,PS,exp,28,↓,down,↓,0.7995738999452442,True,11,1,0,7
Y2-S2-058K25,4,360,PS,exp,27,↑,up,↑,0.8670731000602245,True,11,1,0,7
Y2-S2-058K25,4,361,PS,exp,29,→,right,→,0.6070673000067472,True,11,1,0,7
Y2-S2-058K25,4,362,PS,exp,36,←,left,←,1.0390600999817252,True,10,1,0,7
Y2-S2-058K25,4,363,PS,exp,26,→,right,→,0.4900857999455184,True,10,1,0,7
Y2-S2-058K25,4,364,PS,exp,38,↓,down,↓,0.8144720001146197,True,10,1,0,7
Y2-S2-058K25,4,365,PS,exp,34,↑,up,↑,0.5702468000818044,True,9,1,0,7
Y2-S2-058K25,4,366,PS,exp,48,←,left,←,0.5629873999860138,True,9,1,0,7
Y2-S2-058K25,4,367,PS,exp,45,↓,down,↓,0.8898318000137806,True,9,1,0,7
Y2-S2-058K25,4,368,PS,exp,36,↑,up,↑,0.544560199836269,True,8,1,0,7
Y2-S2-058K25,4,369,PS,exp,35,→,right,→,0.7356001001317054,True,8,1,0,7
Y2-S2-058K25,4,370,PS,exp,35,↑,up,↑,0.5958202998153865,True,8,1,0,7
Y2-S2-058K25,4,371,PS,exp,40,↓,down,↓,0.9762486999388784,True,7,1,0,7
Y2-S2-058K25,4,372,PS,exp,44,↑,up,↑,0.6461622000206262,True,7,1,0,7
Y2-S2-058K25,4,373,PS,exp,48,→,right,→,0.639295200118795,True,7,1,0,7
Y2-S2-058K25,4,374,PS,exp,27,↑,up,↑,0.7736405001487583,True,6,1,0,7
Y2-S2-058K25,4,375,PS,exp,38,→,right,→,0.5370746999979019,True,6,1,0,7
Y2-S2-058K25,4,376,PS,exp,44,↑,right,→,0.5198329999111593,False,6,-1,1,8
Y2-S2-058K25,4,377,PS,exp,25,←,right,→,0.6211320001166314,False,7,-1,0,8
Y2-S2-058K25,4,378,PS,exp,50,↑,left,←,0.6716727998573333,False,8,-1,0,8
Y2-S2-058K25,4,379,PS,exp,46,→,right,→,0.5965417998377234,True,9,-1,0,8
Y2-S2-058K25,4,380,PS,exp,36,↓,up,↑,0.8206800001207739,False,9,-1,0,8
Y2-S2-058K25,4,381,PS,exp,31,→,right,→,0.5756953000091016,True,10,-1,0,8
Y2-S2-058K25,4,382,PS,exp,50,←,left,←,0.6548895000014454,True,10,-1,0,8
Y2-S2-058K25,4,383,PS,exp,49,↓,up,↑,1.002712900051847,False,10,-1,0,8
Y2-S2-058K25,4,384,PS,exp,29,↑,up,↑,0.7172656999900937,True,11,-1,0,8
Y2-S2-058K25,4,385,PS,exp,27,↓,right,→,0.7264994999859482,False,11,-1,0,8
Y2-S2-058K25,4,386,PS,exp,29,←,left,←,0.6870546999853104,True,12,-1,0,8
Y2-S2-058K25,4,387,PS,exp,47,↓,down,↓,0.8200396001338959,True,12,-1,0,8
Y2-S2-058K25,4,388,PS,exp,48,←,left,←,0.6586219000164419,True,12,1,1,9
Y2-S2-058K25,4,389,PS,exp,28,→,left,←,0.7261047998908907,False,11,-1,1,10
Y2-S2-058K25,4,390,PS,exp,27,↑,right,→,0.4134677001275122,False,12,-1,0,10
Y2-S2-058K25,4,391,PS,exp,33,→,right,→,0.6062122001312673,True,13,-1,0,10
Y2-S2-058K25,4,392,PS,exp,27,↓,down,↓,0.8520305000711232,True,13,-1,0,10
Y2-S2-058K25,4,393,PS,exp,37,↑,up,↑,0.8322451000567526,True,13,1,1,11
Y2-S2-058K25,4,394,PS,exp,50,↓,down,↓,0.7235882999375463,True,12,1,0,11
Y2-S2-058K25,4,395,PS,exp,40,↑,up,↑,0.81028649979271,True,12,1,0,11
Y2-S2-058K25,4,396,PS,exp,43,→,right,→,0.3939009001478553,True,12,1,0,11
Y2-S2-058K25,4,397,PS,exp,48,↓,down,↓,0.7148617000784725,True,11,1,0,11
Y2-S2-058K25,4,398,PS,exp,27,←,right,→,0.5277954000048339,False,11,-1,1,12
Y2-S2-058K25,4,399,PS,exp,47,↓,down,↓,0.6221721000038087,True,12,-1,0,12
Y2-S2-058K25,4,400,PS,exp,40,↑,up,↑,0.9828331999015063,True,12,-1,0,12
Y2-S2-058K25,4,401,PS,exp,36,→,right,→,0.7276715999469161,True,12,1,1,13
Y2-S2-058K25,4,402,PS,exp,35,↑,up,↑,0.7234658999368548,True,11,1,0,13
Y2-S2-058K25,4,403,PS,exp,25,↓,down,↓,0.8313468000851572,True,11,1,0,13
Y2-S2-058K25,4,404,PS,exp,33,↑,up,↑,1.5254401001147926,True,11,1,0,13
Y2-S2-058K25,4,405,PS,exp,47,←,left,←,0.8233038000762463,True,10,1,0,13
Y2-S2-058K25,4,406,PS,exp,49,→,right,→,0.4260050000157207,True,10,1,0,13
Y2-S2-058K25,4,407,PS,exp,45,↓,right,→,0.563598999986425,False,10,-1,1,14
Y2-S2-058K25,4,408,PS,exp,31,→,right,→,0.5580202001146972,True,11,-1,0,14
Y2-S2-058K25,4,409,PS,exp,35,↓,down,↓,0.750205600168556,True,11,-1,0,14
Y2-S2-058K25,4,410,PS,exp,50,↑,up,↑,0.9012856998015195,True,11,1,1,15
Y2-S2-058K25,4,411,PS,exp,41,←,left,←,0.5111515000462532,True,10,1,0,15
Y2-S2-058K25,4,412,PS,exp,35,↑,left,←,0.8579277999233454,False,10,-1,1,16
Y2-S2-058K25,5,413,PS,intra_train,37,→,right,→,0.6376357998233289,True,16,-,-,-
Y2-S2-058K25,5,414,PS,intra_train,28,↓,down,↓,0.8043143998365849,True,16,-,-,-
Y2-S2-058K25,5,415,PS,intra_train,43,←,left,←,0.7087449000682682,True,16,-,-,-
Y2-S2-058K25,5,416,PS,intra_train,35,↑,up,↑,1.037723399931565,True,16,-,-,-
Y2-S2-058K25,5,417,PS,intra_train,38,→,right,→,0.5465464000590146,True,16,-,-,-
Y2-S2-058K25,5,418,PS,exp,42,↑,up,↑,0.8505345000885427,True,11,0,0,0
Y2-S2-058K25,5,419,PS,exp,46,↓,left,←,0.9626842001453042,False,11,-1,0,0
Y2-S2-058K25,5,420,PS,exp,38,→,right,→,0.5104843999724835,True,12,-1,0,0
Y2-S2-058K25,5,421,PS,exp,47,←,left,←,0.5025110999122262,True,12,-1,0,0
Y2-S2-058K25,5,422,PS,exp,46,↑,up,↑,0.7120939998421818,True,12,1,1,1
Y2-S2-058K25,5,423,PS,exp,33,↓,down,↓,0.7661495998036116,True,11,1,0,1
Y2-S2-058K25,5,424,PS,exp,44,→,right,→,0.6256085999775678,True,11,1,0,1
Y2-S2-058K25,5,425,PS,exp,47,↑,left,←,0.37624259991571307,False,11,-1,1,2
Y2-S2-058K25,5,426,PS,exp,38,←,left,←,0.5338437999598682,True,12,-1,0,2
Y2-S2-058K25,5,427,PS,exp,33,↑,up,↑,0.6322596999816597,True,12,-1,0,2
Y2-S2-058K25,5,428,PS,exp,43,←,left,←,0.5955515999812633,True,12,1,1,3
Y2-S2-058K25,5,429,PS,exp,48,↑,up,↑,0.7300510001368821,True,11,1,0,3
Y2-S2-058K25,5,430,PS,exp,33,→,right,→,0.5574743999168277,True,11,1,0,3
Y2-S2-058K25,5,431,PS,exp,46,↓,up,↑,0.6256745001301169,False,11,-1,1,4
Y2-S2-058K25,5,432,PS,exp,49,→,right,→,0.6623906998429447,True,12,-1,0,4
Y2-S2-058K25,5,433,PS,exp,29,←,left,←,0.5436438999604434,True,12,-1,0,4
Y2-S2-058K25,5,434,PS,exp,49,↑,down,↓,1.0148642000276595,False,12,-1,0,4
Y2-S2-058K25,5,435,PS,exp,36,←,right,→,0.6978408000431955,False,13,-1,0,4
Y2-S2-058K25,5,436,PS,exp,32,↑,up,↑,0.700058399932459,True,14,-1,0,4
Y2-S2-058K25,5,437,PS,exp,47,↓,down,↓,0.7664127999451011,True,14,-1,0,4
Y2-S2-058K25,5,438,PS,exp,43,↑,up,↑,0.6048200000077486,True,14,1,1,5
Y2-S2-058K25,5,439,PS,exp,28,←,left,←,0.6616215999238193,True,13,1,0,5
Y2-S2-058K25,5,440,PS,exp,37,↓,left,←,0.6024299999698997,False,13,-1,1,6
Y2-S2-058K25,5,441,PS,exp,26,→,right,→,0.4931673000101,True,14,-1,0,6
Y2-S2-058K25,5,442,PS,exp,29,←,left,←,0.36715449998155236,True,14,-1,0,6
Y2-S2-058K25,5,443,PS,exp,27,↑,down,↓,0.9738239001017064,False,14,-1,0,6
Y2-S2-058K25,5,444,PS,exp,36,→,down,↓,0.8709378000348806,False,15,-1,0,6
Y2-S2-058K25,5,445,PS,exp,41,↑,right,→,0.5608069999143481,False,16,-1,0,6
Y2-S2-058K25,5,446,PS,exp,33,→,right,→,0.6085536999162287,True,17,-1,0,6
Y2-S2-058K25,5,447,PS,exp,43,↓,left,←,1.261445399839431,False,17,-1,0,6
Y2-S2-058K25,5,448,PS,exp,45,←,left,←,0.5293012999463826,True,18,-1,0,6
Y2-S2-058K25,5,449,PS,exp,27,↑,up,↑,0.7322490999940783,True,18,-1,0,6
Y2-S2-058K25,5,450,PS,exp,44,→,right,→,0.5866346000693738,True,18,1,1,7
Y2-S2-058K25,5,451,PS,exp,36,←,left,←,0.5446198999416083,True,17,1,0,7
Y2-S2-058K25,5,452,PS,exp,47,↓,down,↓,0.764629099983722,True,17,1,0,7
Y2-S2-058K25,5,453,PS,exp,45,→,down,↓,1.0971307000145316,False,17,-1,1,8
Y2-S2-058K25,5,454,PS,exp,49,←,left,←,0.5347196999937296,True,18,-1,0,8
Y2-S2-058K25,5,455,PS,exp,43,↓,down,↓,0.6956478001084179,True,18,-1,0,8
Y2-S2-058K25,5,456,PS,exp,34,→,right,→,0.6502681998535991,True,18,1,1,9
Y2-S2-058K25,5,457,PS,exp,32,←,down,↓,1.0250681000761688,False,17,-1,1,10
Y2-S2-058K25,5,458,PS,exp,31,↓,down,↓,0.7313606000971049,True,18,-1,0,10
Y2-S2-058K25,5,459,PS,exp,40,↑,up,↑,0.6815184000879526,True,18,-1,0,10
Y2-S2-058K25,5,460,PS,exp,29,←,right,→,0.8600989000406116,False,18,-1,0,10
Y2-S2-058K25,5,461,PS,exp,40,↑,up,↑,0.9316439998801798,True,19,-1,0,10
Y2-S2-058K25,5,462,PS,exp,37,←,left,←,0.5259404999669641,True,19,-1,0,10
Y2-S2-058K25,5,463,PS,exp,43,→,right,→,0.5890864999964833,True,19,1,1,11
Y2-S2-058K25,5,464,PS,exp,50,←,left,←,0.48381320014595985,True,18,1,0,11
Y2-S2-058K25,5,465,PS,exp,28,↑,up,↑,0.6485087999608368,True,18,1,0,11
Y2-S2-058K25,5,466,PS,exp,36,↓,down,↓,0.7060071998275816,True,18,1,0,11
Y2-S2-058K25,5,467,PS,exp,42,→,right,→,0.7367495000362396,True,17,1,0,11
Y2-S2-058K25,5,468,PS,exp,33,↓,down,↓,0.6962895998731256,True,17,1,0,11
Y2-S2-058K25,5,469,PS,exp,37,↑,up,↑,1.0338440998457372,True,17,1,0,11
Y2-S2-058K25,5,470,PS,exp,45,↓,left,←,0.6546414999756962,False,16,-1,1,12
Y2-S2-058K25,5,471,PS,exp,48,→,right,→,0.4896064999047667,True,17,-1,0,12
Y2-S2-058K25,5,472,PS,exp,43,←,left,←,0.5277373001445085,True,17,-1,0,12
Y2-S2-058K25,5,473,PS,exp,41,→,right,→,0.4887716001830995,True,17,1,1,13
Y2-S2-058K25,5,474,PS,exp,44,↓,down,↓,0.7583329000044614,True,16,1,0,13
Y2-S2-058K25,5,475,PS,exp,30,→,right,→,0.6062060000840575,True,16,1,0,13
Y2-S2-058K25,5,476,PS,exp,38,↑,up,↑,0.803307699970901,True,16,1,0,13
Y2-S2-058K25,5,477,PS,exp,26,→,right,→,0.738713099854067,True,15,1,0,13
Y2-S2-058K25,5,478,PS,exp,49,←,left,←,0.48392240004613996,True,15,1,0,13
Y2-S2-058K25,5,479,PS,exp,27,↑,left,←,0.43746719998307526,False,15,-1,1,14
Y2-S2-058K25,5,480,PS,exp,32,→,right,→,0.6277828000020236,True,16,-1,0,14
Y2-S2-058K25,5,481,PS,exp,31,↑,up,↑,0.7501568000297993,True,16,-1,0,14
Y2-S2-058K25,5,482,PS,exp,30,↓,down,↓,0.7012837999500334,True,16,1,1,15
Y2-S2-058K25,5,483,PS,exp,35,→,right,→,0.6587614000309259,True,15,1,0,15
Y2-S2-058K25,5,484,PS,exp,28,↓,up,↑,0.8836930999532342,False,15,-1,1,16
Y2-S2-058K25,6,485,AS,intra_train,48,↑,up,↑,0.7919020000845194,True,21,-,-,-
Y2-S2-058K25,6,486,AS,intra_train,25,↓,down,↓,0.8576494001317769,True,21,-,-,-
Y2-S2-058K25,6,487,AS,intra_train,42,↑,up,↑,1.3610415000002831,True,21,-,-,-
Y2-S2-058K25,6,488,AS,intra_train,43,↓,down,↓,0.873695399845019,True,21,-,-,-
Y2-S2-058K25,6,489,AS,intra_train,29,←,left,←,0.7375954000744969,True,21,-,-,-
Y2-S2-058K25,6,490,AS,exp,27,↓,up,↑,1.3037827999796718,False,14,-1,0,0
Y2-S2-058K25,6,491,AS,exp,50,→,down,↓,0.9337031999602914,False,15,-1,0,0
Y2-S2-058K25,6,492,AS,exp,35,←,left,←,0.5343124999199063,True,16,-1,0,0
Y2-S2-058K25,6,493,AS,exp,34,↓,right,→,0.6042345000896603,False,16,-1,0,0
Y2-S2-058K25,6,494,AS,exp,29,←,up,↑,0.834823900135234,False,17,-1,0,0
Y2-S2-058K25,6,495,AS,exp,50,↑,up,↑,0.8981999999377877,True,18,-1,0,0
Y2-S2-058K25,6,496,AS,exp,28,↓,down,↓,0.8279050001874566,True,18,-1,0,0
Y2-S2-058K25,6,497,AS,exp,43,←,left,←,0.6082452000118792,True,18,1,1,1
Y2-S2-058K25,6,498,AS,exp,41,↓,up,↑,0.9631882000248879,False,17,-1,1,2
Y2-S2-058K25,6,499,AS,exp,50,→,right,→,0.7037055999971926,True,18,-1,0,2
Y2-S2-058K25,6,500,AS,exp,35,↓,down,↓,0.8712177001871169,True,18,-1,0,2
Y2-S2-058K25,6,501,AS,exp,34,→,right,→,0.6864460001233965,True,18,1,1,3
Y2-S2-058K25,6,502,AS,exp,39,↓,down,↓,0.8133640999440104,True,17,1,0,3
Y2-S2-058K25,6,503,AS,exp,31,→,right,→,0.6713639998342842,True,17,1,0,3
Y2-S2-058K25,6,504,AS,exp,34,↑,up,↑,0.7709671000484377,True,17,1,0,3
Y2-S2-058K25,6,505,AS,exp,39,←,down,↓,0.6699544000439346,False,16,-1,1,4
Y2-S2-058K25,6,506,AS,exp,29,→,right,→,0.5791203998960555,True,17,-1,0,4
Y2-S2-058K25,6,507,AS,exp,32,↓,down,↓,0.7536011999472976,True,17,-1,0,4
Y2-S2-058K25,6,508,AS,exp,39,→,up,↑,0.9695747001096606,False,17,-1,0,4
Y2-S2-058K25,6,509,AS,exp,41,↑,up,↑,0.8958989002276212,True,18,-1,0,4
Y2-S2-058K25,6,510,AS,exp,44,→,right,→,0.5994760000612587,True,18,-1,0,4
Y2-S2-058K25,6,511,AS,exp,44,↓,down,↓,0.7742325998842716,True,18,1,1,5
Y2-S2-058K25,6,512,AS,exp,50,↑,down,↓,0.9360853000544012,False,17,-1,1,6
Y2-S2-058K25,6,513,AS,exp,26,←,left,←,0.8322630000766367,True,18,-1,0,6
Y2-S2-058K25,6,514,AS,exp,47,→,right,→,0.626531699905172,True,18,-1,0,6
Y2-S2-058K25,6,515,AS,exp,29,↑,up,↑,0.6445232999976724,True,18,1,1,7
Y2-S2-058K25,6,516,AS,exp,49,←,left,←,0.7745168001856655,True,17,1,0,7
Y2-S2-058K25,6,517,AS,exp,48,↓,right,→,0.4771968999411911,False,17,-1,1,8
Y2-S2-058K25,6,518,AS,exp,46,↑,up,↑,0.8284242998342961,True,18,-1,0,8
Y2-S2-058K25,6,519,AS,exp,26,→,right,→,0.5778316999785602,True,18,-1,0,8
Y2-S2-058K25,6,520,AS,exp,39,↑,up,↑,0.830379500053823,True,18,1,1,9
Y2-S2-058K25,6,521,AS,exp,34,↓,down,↓,0.7365143001079559,True,17,1,0,9
Y2-S2-058K25,6,522,AS,exp,35,↑,up,↑,0.9041275000199676,True,17,1,0,9
Y2-S2-058K25,6,523,AS,exp,41,→,right,→,0.6758053000085056,True,17,1,0,9
Y2-S2-058K25,6,524,AS,exp,38,←,left,←,0.5805436999071389,True,16,1,0,9
Y2-S2-058K25,6,525,AS,exp,27,↓,down,↓,0.8006533000152558,True,16,1,0,9
Y2-S2-058K25,6,526,AS,exp,33,←,right,→,0.4877659999765456,False,16,-1,1,10
Y2-S2-058K25,6,527,AS,exp,33,→,left,←,1.227879999903962,False,17,-1,0,10
Y2-S2-058K25,6,528,AS,exp,48,←,right,→,0.5424339000601321,False,18,-1,0,10
Y2-S2-058K25,6,529,AS,exp,43,↑,down,↓,0.826864100061357,False,19,-1,0,10
Y2-S2-058K25,6,530,AS,exp,44,→,right,→,0.721774699864909,True,20,-1,0,10
Y2-S2-058K25,6,531,AS,exp,31,↑,up,↑,1.1668451000005007,True,20,-1,0,10
Y2-S2-058K25,6,532,AS,exp,25,→,right,→,0.749484800035134,True,20,1,1,11
Y2-S2-058K25,6,533,AS,exp,36,↑,up,↑,1.015413099899888,True,19,1,0,11
Y2-S2-058K25,6,534,AS,exp,36,→,right,→,1.1090990998782218,True,19,1,0,11
Y2-S2-058K25,6,535,AS,exp,45,↑,up,↑,0.8622437999583781,True,19,1,0,11
Y2-S2-058K25,6,536,AS,exp,37,→,right,→,0.5802722999360412,True,18,1,0,11
Y2-S2-058K25,6,537,AS,exp,30,↑,up,↑,0.9720197001006454,True,18,1,0,11
Y2-S2-058K25,6,538,AS,exp,49,→,right,→,0.5311139998957515,True,18,1,0,11
Y2-S2-058K25,6,539,AS,exp,34,←,left,←,0.6143579999916255,True,17,1,0,11
Y2-S2-058K25,6,540,AS,exp,46,→,right,→,0.5167271001264453,True,17,1,0,11
Y2-S2-058K25,6,541,AS,exp,37,←,left,←,0.5489972999785095,True,17,1,0,11
Y2-S2-058K25,6,542,AS,exp,42,↑,up,↑,0.8230514000169933,True,16,1,0,11
Y2-S2-058K25,6,543,AS,exp,25,←,right,→,0.7241896998602897,False,16,-1,1,12
Y2-S2-058K25,6,544,AS,exp,30,↓,right,→,0.5219590999186039,False,17,-1,0,12
Y2-S2-058K25,6,545,AS,exp,40,→,right,→,0.5658633999992162,True,18,-1,0,12
Y2-S2-058K25,6,546,AS,exp,39,←,left,←,0.5704389999154955,True,18,-1,0,12
Y2-S2-058K25,6,547,AS,exp,50,↓,down,↓,0.8161950998473912,True,18,1,1,13
Y2-S2-058K25,6,548,AS,exp,34,←,left,←,0.7115484001114964,True,17,1,0,13
Y2-S2-058K25,6,549,AS,exp,34,↑,up,↑,0.9115768999326974,True,17,1,0,13
Y2-S2-058K25,6,550,AS,exp,46,→,right,→,0.8209959999658167,True,17,1,0,13
Y2-S2-058K25,6,551,AS,exp,37,←,right,→,0.6094931999687105,False,16,-1,1,14
Y2-S2-058K25,6,552,AS,exp,25,↓,down,↓,0.698977000080049,True,17,-1,0,14
Y2-S2-058K25,6,553,AS,exp,30,→,right,→,0.5670052000787109,True,17,-1,0,14
Y2-S2-058K25,6,554,AS,exp,40,↑,up,↑,0.8494569999165833,True,17,1,1,15
Y2-S2-058K25,6,555,AS,exp,31,↓,down,↓,0.78666240000166,True,16,1,0,15
Y2-S2-058K25,6,556,AS,exp,45,→,up,↑,0.7790248000528663,False,16,-1,1,16
Y2-S2-058K25,7,557,AS,intra_train,48,↓,down,↓,0.7926623998209834,True,21,-,-,-
Y2-S2-058K25,7,558,AS,intra_train,30,↑,up,↑,1.0437378999777138,True,21,-,-,-
Y2-S2-058K25,7,559,AS,intra_train,31,←,left,←,0.7288504999596626,True,21,-,-,-
Y2-S2-058K25,7,560,AS,intra_train,47,→,right,→,0.6148322999943048,True,21,-,-,-
Y2-S2-058K25,7,561,AS,intra_train,28,←,left,←,0.6565111000090837,True,21,-,-,-
Y2-S2-058K25,7,562,AS,exp,27,↓,down,↓,0.7122120999265462,True,14,0,0,0
Y2-S2-058K25,7,563,AS,exp,47,←,right,→,0.7650330998003483,False,14,-1,0,0
Y2-S2-058K25,7,564,AS,exp,32,↑,up,↑,0.9987225998193026,True,15,-1,0,0
Y2-S2-058K25,7,565,AS,exp,46,→,right,→,0.7230380999390036,True,15,-1,0,0
Y2-S2-058K25,7,566,AS,exp,40,←,left,←,0.7548078999388963,True,15,1,1,1
Y2-S2-058K25,7,567,AS,exp,46,↑,up,↑,0.7327831001020968,True,14,1,0,1
Y2-S2-058K25,7,568,AS,exp,31,↓,down,↓,0.7608195999637246,True,14,1,0,1
Y2-S2-058K25,7,569,AS,exp,33,→,left,←,0.6060993000864983,False,14,-1,1,2
Y2-S2-058K25,7,570,AS,exp,37,↑,right,→,0.5446519998367876,False,15,-1,0,2
Y2-S2-058K25,7,571,AS,exp,40,←,left,←,0.6498080999590456,True,16,-1,0,2
Y2-S2-058K25,7,572,AS,exp,38,↑,up,↑,0.6365756997838616,True,16,-1,0,2
Y2-S2-058K25,7,573,AS,exp,30,→,down,↓,0.7855739002116024,False,16,-1,0,2
Y2-S2-058K25,7,574,AS,exp,25,←,right,→,0.6843599998392165,False,17,-1,0,2
Y2-S2-058K25,7,575,AS,exp,27,↓,down,↓,0.8668849000241607,True,18,-1,0,2
Y2-S2-058K25,7,576,AS,exp,43,→,right,→,0.6134170000441372,True,18,-1,0,2
Y2-S2-058K25,7,577,AS,exp,30,↑,up,↑,0.8330093999393284,True,18,1,1,3
Y2-S2-058K25,7,578,AS,exp,49,→,left,←,0.8586767001543194,False,17,-1,1,4
Y2-S2-058K25,7,579,AS,exp,34,↓,down,↓,0.6803425999823958,True,18,-1,0,4
Y2-S2-058K25,7,580,AS,exp,29,→,right,→,0.5472126000095159,True,18,-1,0,4
Y2-S2-058K25,7,581,AS,exp,45,←,right,→,0.6480044000782073,False,18,-1,0,4
Y2-S2-058K25,7,582,AS,exp,26,→,right,→,0.6954255998134613,True,19,-1,0,4
Y2-S2-058K25,7,583,AS,exp,31,↑,up,↑,0.8729584000539035,True,19,-1,0,4
Y2-S2-058K25,7,584,AS,exp,34,→,right,→,0.7924124000128359,True,19,1,1,5
Y2-S2-058K25,7,585,AS,exp,44,↑,up,↑,0.579926400212571,True,18,1,0,5
Y2-S2-058K25,7,586,AS,exp,25,↓,down,↓,0.6781301000155509,True,18,1,0,5
Y2-S2-058K25,7,587,AS,exp,36,←,left,←,0.6719550001434982,True,18,1,0,5
Y2-S2-058K25,7,588,AS,exp,43,↓,down,↓,0.8697222000919282,True,17,1,0,5
Y2-S2-058K25,7,589,AS,exp,25,←,left,←,0.6436191000975668,True,17,1,0,5
Y2-S2-058K25,7,590,AS,exp,40,↑,up,↑,1.0667902999557555,True,17,1,0,5
Y2-S2-058K25,7,591,AS,exp,35,→,right,→,0.6007343998644501,True,16,1,0,5
Y2-S2-058K25,7,592,AS,exp,41,↓,down,↓,0.6145319000352174,True,16,1,0,5
Y2-S2-058K25,7,593,AS,exp,29,←,up,↑,1.212503399932757,False,16,-1,1,6
Y2-S2-058K25,7,594,AS,exp,43,→,right,→,0.8286971999332309,True,17,-1,0,6
Y2-S2-058K25,7,595,AS,exp,45,←,left,←,0.803661199985072,True,17,-1,0,6
Y2-S2-058K25,7,596,AS,exp,25,↓,down,↓,0.9270919999107718,True,17,1,1,7
Y2-S2-058K25,7,597,AS,exp,27,→,right,→,0.5884640999138355,True,16,1,0,7
Y2-S2-058K25,7,598,AS,exp,44,↑,right,→,0.6547546999063343,False,16,-1,1,8
Y2-S2-058K25,7,599,AS,exp,32,←,left,←,0.7833786001428962,True,17,-1,0,8
Y2-S2-058K25,7,600,AS,exp,29,↑,up,↑,0.8567519001662731,True,17,-1,0,8
Y2-S2-058K25,7,601,AS,exp,43,↓,down,↓,0.7511125998571515,True,17,1,1,9
Y2-S2-058K25,7,602,AS,exp,28,←,right,→,0.9472616000566632,False,16,-1,1,10
Y2-S2-058K25,7,603,AS,exp,29,→,right,→,0.6051342999562621,True,17,-1,0,10
Y2-S2-058K25,7,604,AS,exp,35,↑,right,→,0.7272336999885738,False,17,-1,0,10
Y2-S2-058K25,7,605,AS,exp,25,←,left,←,0.9294172001536936,True,18,-1,0,10
Y2-S2-058K25,7,606,AS,exp,47,↓,down,↓,0.6510645998641849,True,18,-1,0,10
Y2-S2-058K25,7,607,AS,exp,47,←,left,←,0.5155623001046479,True,18,1,1,11
Y2-S2-058K25,7,608,AS,exp,40,↓,down,↓,0.9105293999891728,True,17,1,0,11
Y2-S2-058K25,7,609,AS,exp,25,↑,up,↑,0.973501400090754,True,17,1,0,11
Y2-S2-058K25,7,610,AS,exp,28,→,right,→,0.7146411000285298,True,17,1,0,11
Y2-S2-058K25,7,611,AS,exp,31,↓,down,↓,0.9450797999743372,True,16,1,0,11
Y2-S2-058K25,7,612,AS,exp,41,→,right,→,0.6561928000301123,True,16,1,0,11
Y2-S2-058K25,7,613,AS,exp,49,←,left,←,0.5010965999681503,True,16,1,0,11
Y2-S2-058K25,7,614,AS,exp,39,→,right,→,0.5897834000643343,True,15,1,0,11
Y2-S2-058K25,7,615,AS,exp,40,←,left,←,0.4635788998566568,True,15,1,0,11
Y2-S2-058K25,7,616,AS,exp,38,↓,down,↓,0.6671625000890344,True,15,1,0,11
Y2-S2-058K25,7,617,AS,exp,27,→,right,→,0.6288495999760926,True,14,1,0,11
Y2-S2-058K25,7,618,AS,exp,42,↓,down,↓,0.6421395998913795,True,14,1,0,11
Y2-S2-058K25,7,619,AS,exp,37,→,right,→,0.6648858000990003,True,14,1,0,11
Y2-S2-058K25,7,620,AS,exp,43,←,left,←,0.5020270000677556,True,13,1,0,11
Y2-S2-058K25,7,621,AS,exp,40,↓,right,→,0.5771665000356734,False,13,-1,1,12
Y2-S2-058K25,7,622,AS,exp,41,→,right,→,0.6228004000149667,True,14,-1,0,12
Y2-S2-058K25,7,623,AS,exp,42,↑,up,↑,0.8632935001514852,True,14,-1,0,12
Y2-S2-058K25,7,624,AS,exp,38,↓,down,↓,0.6282997000962496,True,14,1,1,13
Y2-S2-058K25,7,625,AS,exp,43,←,right,→,0.7324539998080581,False,13,-1,1,14
Y2-S2-058K25,7,626,AS,exp,32,→,right,→,0.7489828001707792,True,14,-1,0,14
Y2-S2-058K25,7,627,AS,exp,45,↓,right,→,0.6231180999893695,False,14,-1,0,14
Y2-S2-058K25,7,628,AS,exp,50,↑,up,↑,0.8572981001343578,True,15,-1,0,14
Y2-S2-058K25,7,629,AS,exp,42,←,right,→,0.7394830998964608,False,15,-1,0,14
Y2-S2-058K25,7,630,AS,exp,44,→,right,→,0.9716452998109162,True,16,-1,0,14
Y2-S2-058K25,7,631,AS,exp,49,↑,up,↑,0.6992707999888808,True,16,-1,0,14
Y2-S2-058K25,7,632,AS,exp,45,↓,down,↓,1.15538110001944,True,16,1,1,15
Y2-S2-058K25,7,633,AS,exp,48,→,right,→,0.6520505999214947,True,15,1,0,15
Y2-S2-058K25,7,634,AS,exp,43,↓,up,↑,0.8204945002216846,False,15,-1,1,16
Y2-S2-058K25,8,635,PS,intra_train,29,→,right,→,0.8775289000477642,True,16,-,-,-
Y2-S2-058K25,8,636,PS,intra_train,28,←,left,←,0.7261860999278724,True,16,-,-,-
Y2-S2-058K25,8,637,PS,intra_train,30,→,left,←,0.7888881000690162,False,16,-,-,-
Y2-S2-058K25,8,638,PS,intra_train,31,←,left,←,0.6984353999141604,True,16,-,-,-
Y2-S2-058K25,8,639,PS,intra_train,25,→,right,→,0.8523126000072807,True,16,-,-,-
Y2-S2-058K25,8,640,PS,exp,50,↓,down,↓,0.8730383000802249,True,11,0,0,0
Y2-S2-058K25,8,641,PS,exp,27,←,left,←,0.6303940999787301,True,11,0,0,0
Y2-S2-058K25,8,642,PS,exp,34,→,right,→,0.5679721999913454,True,11,1,0,0
Y2-S2-058K25,8,643,PS,exp,43,←,left,←,0.5857625999487936,True,10,1,0,0
Y2-S2-058K25,8,644,PS,exp,26,↑,right,→,0.5221302998252213,False,10,-1,1,1
Y2-S2-058K25,8,645,PS,exp,47,←,left,←,0.6615872997790575,True,11,-1,0,1
Y2-S2-058K25,8,646,PS,exp,31,→,left,←,0.3172318001743406,False,11,-1,0,1
Y2-S2-058K25,8,647,PS,exp,30,↑,up,↑,0.8616347000934184,True,12,-1,0,1
Y2-S2-058K25,8,648,PS,exp,36,↓,down,↓,0.7920968001708388,True,12,-1,0,1
Y2-S2-058K25,8,649,PS,exp,41,→,right,→,0.5745445999782532,True,12,1,1,2
Y2-S2-058K25,8,650,PS,exp,38,←,left,←,0.6008017000276595,True,11,1,0,2
Y2-S2-058K25,8,651,PS,exp,29,↑,up,↑,0.745288300095126,True,11,1,0,2
Y2-S2-058K25,8,652,PS,exp,44,←,left,←,0.5257659000344574,True,11,1,0,2
Y2-S2-058K25,8,653,PS,exp,49,↑,right,→,0.6640879001934081,False,10,-1,1,3
Y2-S2-058K25,8,654,PS,exp,35,↓,down,↓,0.6851329999044538,True,11,-1,0,3
Y2-S2-058K25,8,655,PS,exp,41,↑,up,↑,0.9261650000698864,True,11,-1,0,3
Y2-S2-058K25,8,656,PS,exp,28,↓,down,↓,0.813469700049609,True,11,1,1,4
Y2-S2-058K25,8,657,PS,exp,31,↑,up,↑,1.2308044000528753,True,10,1,0,4
Y2-S2-058K25,8,658,PS,exp,38,←,right,→,0.5169544999953359,False,10,-1,1,5
Y2-S2-058K25,8,659,PS,exp,47,↑,up,↑,0.8855151999741793,True,11,-1,0,5
Y2-S2-058K25,8,660,PS,exp,50,↓,down,↓,0.7739744998980314,True,11,-1,0,5
Y2-S2-058K25,8,661,PS,exp,38,→,right,→,0.6582049001008272,True,11,1,1,6
Y2-S2-058K25,8,662,PS,exp,40,←,left,←,0.5696030999533832,True,10,1,0,6
Y2-S2-058K25,8,663,PS,exp,50,↓,up,↑,0.8498964000027627,False,10,-1,1,7
Y2-S2-058K25,8,664,PS,exp,33,→,right,→,0.8496733999345452,True,11,-1,0,7
Y2-S2-058K25,8,665,PS,exp,43,↑,down,↓,0.8250802999828011,False,11,-1,0,7
Y2-S2-058K25,8,666,PS,exp,31,←,left,←,0.7081582001410425,True,12,-1,0,7
Y2-S2-058K25,8,667,PS,exp,49,↑,up,↑,0.7705528000369668,True,12,-1,0,7
Y2-S2-058K25,8,668,PS,exp,48,↓,down,↓,0.7282832998316735,True,12,1,1,8
Y2-S2-058K25,8,669,PS,exp,26,↑,up,↑,0.8064383000601083,True,11,1,0,8
Y2-S2-058K25,8,670,PS,exp,42,→,left,←,0.6107733999378979,False,11,-1,1,9
Y2-S2-058K25,8,671,PS,exp,36,↓,right,→,0.6203622999601066,False,12,-1,0,9
Y2-S2-058K25,8,672,PS,exp,49,↑,up,↑,0.8803709999192506,True,13,-1,0,9
Y2-S2-058K25,8,673,PS,exp,37,→,left,←,0.7730554000008851,False,13,-1,0,9
Y2-S2-058K25,8,674,PS,exp,26,↓,down,↓,0.816960500087589,True,14,-1,0,9
Y2-S2-058K25,8,675,PS,exp,28,↑,up,↑,1.0447400000412017,True,14,-1,0,9
Y2-S2-058K25,8,676,PS,exp,38,→,right,→,0.49463840015232563,True,14,1,1,10
Y2-S2-058K25,8,677,PS,exp,30,↓,down,↓,0.7518396000377834,True,13,1,0,10
Y2-S2-058K25,8,678,PS,exp,37,↑,up,↑,0.6992364001926035,True,13,1,0,10
Y2-S2-058K25,8,679,PS,exp,36,←,left,←,0.7005870998837054,True,13,1,0,10
Y2-S2-058K25,8,680,PS,exp,44,→,left,←,0.6084461000282317,False,12,-1,1,11
Y2-S2-058K25,8,681,PS,exp,31,↓,down,↓,0.8800401999615133,True,13,-1,0,11
Y2-S2-058K25,8,682,PS,exp,28,↑,left,←,0.4951581999193877,False,13,-1,0,11
Y2-S2-058K25,8,683,PS,exp,35,↓,down,↓,0.7163940998725593,True,14,-1,0,11
Y2-S2-058K25,8,684,PS,exp,34,→,right,→,0.6753887999802828,True,14,-1,0,11
Y2-S2-058K25,8,685,PS,exp,46,↑,up,↑,0.8494635000824928,True,14,1,1,12
Y2-S2-058K25,8,686,PS,exp,35,→,right,→,0.5512622999958694,True,13,1,0,12
Y2-S2-058K25,8,687,PS,exp,32,←,right,→,0.5391017999500036,False,13,-1,1,13
Y2-S2-058K25,8,688,PS,exp,31,↓,down,↓,0.9518983999732882,True,14,-1,0,13
Y2-S2-058K25,8,689,PS,exp,38,←,right,→,0.7357484998647124,False,14,-1,0,13
Y2-S2-058K25,8,690,PS,exp,33,→,right,→,0.7550919000059366,True,15,-1,0,13
Y2-S2-058K25,8,691,PS,exp,36,↑,up,↑,0.8479697001166642,True,15,-1,0,13
Y2-S2-058K25,8,692,PS,exp,34,→,right,→,0.5923411000985652,True,15,1,1,14
Y2-S2-058K25,8,693,PS,exp,40,←,right,→,0.43953630002215505,False,14,-1,1,15
Y2-S2-058K25,8,694,PS,exp,32,↑,up,↑,0.6655268999747932,True,15,-1,0,15
Y2-S2-058K25,8,695,PS,exp,34,←,right,→,0.5958835000637919,False,15,-1,0,15
Y2-S2-058K25,8,696,PS,exp,42,→,right,→,0.5554388000164181,True,16,-1,0,15
Y2-S2-058K25,8,697,PS,exp,40,←,left,←,0.6821343000046909,True,16,-1,0,15
Y2-S2-058K25,8,698,PS,exp,39,↑,up,↑,0.7147638997994363,True,16,1,1,16
