PART_ID,Block_no,Trial_no,Block_type,Trial_type,CSI,Stim_letter,Key_pressed,letter_choose,Rt,Corr,Stimulus Time,Level,Reversal,Revs_count
Y2-S2-007K22,1,1,PS,train,29,↑,up,↑,0.7540103001520038,True,30,-,-,-
Y2-S2-007K22,1,2,PS,train,38,→,right,→,0.617140700109303,True,30,-,-,-
Y2-S2-007K22,1,3,PS,train,46,←,left,←,0.500721100019291,True,30,-,-,-
Y2-S2-007K22,1,4,PS,train,43,→,right,→,0.4175706999376416,True,30,-,-,-
Y2-S2-007K22,1,5,PS,train,44,↑,up,↑,0.4841306998860091,True,30,-,-,-
Y2-S2-007K22,1,6,PS,train,41,↓,down,↓,0.6172347997780889,True,30,-,-,-
Y2-S2-007K22,1,7,PS,train,45,←,left,←,0.3512929999269545,True,30,-,-,-
Y2-S2-007K22,1,8,PS,train,38,↑,up,↑,0.5172902001067996,True,30,-,-,-
Y2-S2-007K22,1,9,PS,train,47,→,left,←,1.0373441001866013,False,30,-,-,-
Y2-S2-007K22,1,10,PS,train,50,←,left,←,0.5339646998327225,True,30,-,-,-
Y2-S2-007K22,2,11,AS,train,47,↓,down,↓,0.6842970000579953,True,45,-,-,-
Y2-S2-007K22,2,12,AS,train,47,→,right,→,0.5848370001185685,True,45,-,-,-
Y2-S2-007K22,2,13,AS,train,44,←,left,←,0.4845719998702407,True,45,-,-,-
Y2-S2-007K22,2,14,AS,train,26,↑,up,↑,0.7175274000037462,True,45,-,-,-
Y2-S2-007K22,2,15,AS,train,26,→,right,→,0.4513920999597758,True,45,-,-,-
Y2-S2-007K22,2,16,AS,train,31,↓,down,↓,0.5511565001215786,True,45,-,-,-
Y2-S2-007K22,2,17,AS,train,34,←,left,←,0.3506672000512481,True,45,-,-,-
Y2-S2-007K22,2,18,AS,train,37,↓,down,↓,0.7340182999614626,True,45,-,-,-
Y2-S2-007K22,2,19,AS,train,26,←,right,→,0.4675299001391977,False,45,-,-,-
Y2-S2-007K22,2,20,AS,train,49,→,right,→,0.5173541998956352,True,45,-,-,-
Y2-S2-007K22,-,21,PS,adaptive,49,↑,up,↑,0.49031210015527904,True,10,0,0,0
Y2-S2-007K22,-,22,PS,adaptive,39,→,right,→,0.3905040000099689,True,10,0,0,0
Y2-S2-007K22,-,23,PS,adaptive,33,↓,right,→,0.7309055000077933,False,10,-1,0,0
Y2-S2-007K22,-,24,PS,adaptive,37,→,right,→,0.43517889990471303,True,11,-1,0,0
Y2-S2-007K22,-,25,PS,adaptive,39,←,left,←,0.38929630001075566,True,11,-1,0,0
Y2-S2-007K22,-,26,PS,adaptive,30,↓,down,↓,0.39414290012791753,True,11,1,1,1
Y2-S2-007K22,-,27,PS,adaptive,49,↑,up,↑,0.5174944000318646,True,10,1,0,1
Y2-S2-007K22,-,28,PS,adaptive,42,↓,left,←,0.8423178000375628,False,10,-1,1,2
Y2-S2-007K22,-,29,PS,adaptive,40,↑,up,↑,0.7459944000001997,True,11,-1,0,2
Y2-S2-007K22,-,30,PS,adaptive,44,↓,down,↓,0.5250915000215173,True,11,-1,0,2
Y2-S2-007K22,-,31,PS,adaptive,30,←,left,←,0.4204467001836747,True,11,1,1,3
Y2-S2-007K22,-,32,PS,adaptive,40,↑,up,↑,0.7298630999866873,True,10,1,0,3
Y2-S2-007K22,-,33,PS,adaptive,48,↓,down,↓,0.4563460999634117,True,10,1,0,3
Y2-S2-007K22,-,34,PS,adaptive,33,↑,up,↑,0.6864885999821126,True,10,1,0,3
Y2-S2-007K22,-,35,PS,adaptive,25,↓,down,↓,0.7555847000330687,True,9,1,0,3
Y2-S2-007K22,-,36,PS,adaptive,32,↑,up,↑,0.8177880998700857,True,9,1,0,3
Y2-S2-007K22,-,37,PS,adaptive,34,→,right,→,0.49183840001933277,True,9,1,0,3
Y2-S2-007K22,-,38,PS,adaptive,43,↑,left,←,0.6257548001594841,False,8,-1,1,4
Y2-S2-007K22,-,39,AS,adaptive,27,↓,down,↓,0.46720239985734224,True,20,0,0,0
Y2-S2-007K22,-,40,AS,adaptive,32,↑,up,↑,0.7791977999731898,True,20,0,0,0
Y2-S2-007K22,-,41,AS,adaptive,39,↓,down,↓,0.4669011998921633,True,20,1,0,0
Y2-S2-007K22,-,42,AS,adaptive,41,↑,up,↑,1.7909279000014067,True,19,1,0,0
Y2-S2-007K22,-,43,AS,adaptive,35,↓,down,↓,0.5325819998979568,True,19,1,0,0
Y2-S2-007K22,-,44,AS,adaptive,26,↑,down,↓,0.580874599982053,False,19,-1,1,1
Y2-S2-007K22,-,45,AS,adaptive,41,→,right,→,0.6395141999237239,True,20,-1,0,1
Y2-S2-007K22,-,46,AS,adaptive,26,↓,down,↓,0.5123584000393748,True,20,-1,0,1
Y2-S2-007K22,-,47,AS,adaptive,49,→,right,→,0.4507057999726385,True,20,1,1,2
Y2-S2-007K22,-,48,AS,adaptive,39,↑,right,→,0.5587971999775618,False,19,-1,1,3
Y2-S2-007K22,-,49,AS,adaptive,31,←,left,←,0.736066099954769,True,20,-1,0,3
Y2-S2-007K22,-,50,AS,adaptive,48,↑,up,↑,0.6603239001706243,True,20,-1,0,3
Y2-S2-007K22,-,51,AS,adaptive,49,↓,down,↓,0.5921512998174876,True,20,1,1,4
Y2-S2-007K22,1,52,AS,intra_train,49,←,left,←,0.43452989985235035,True,28,-,-,-
Y2-S2-007K22,1,53,AS,intra_train,46,↑,up,↑,1.5026167000178248,True,28,-,-,-
Y2-S2-007K22,1,54,AS,intra_train,34,↓,down,↓,0.4839694001711905,True,28,-,-,-
Y2-S2-007K22,1,55,AS,intra_train,41,→,right,→,0.48424489982426167,True,28,-,-,-
Y2-S2-007K22,1,56,AS,intra_train,33,↑,up,↑,0.9963372000493109,True,28,-,-,-
Y2-S2-007K22,1,57,AS,exp,36,→,right,→,0.6012711999937892,True,19,0,0,0
Y2-S2-007K22,1,58,AS,exp,27,←,left,←,0.5195568001363426,True,19,0,0,0
Y2-S2-007K22,1,59,AS,exp,49,↑,up,↑,0.6412154999561608,True,19,1,0,0
Y2-S2-007K22,1,60,AS,exp,45,←,left,←,0.5249397999141365,True,18,1,0,0
Y2-S2-007K22,1,61,AS,exp,40,↓,down,↓,0.6694555000867695,True,18,1,0,0
Y2-S2-007K22,1,62,AS,exp,46,→,right,→,0.7559793998952955,True,18,1,0,0
Y2-S2-007K22,1,63,AS,exp,39,↑,up,↑,0.5873726001009345,True,17,1,0,0
Y2-S2-007K22,1,64,AS,exp,41,↓,down,↓,0.5846108000259846,True,17,1,0,0
Y2-S2-007K22,1,65,AS,exp,42,→,right,→,0.7302781001199037,True,17,1,0,0
Y2-S2-007K22,1,66,AS,exp,43,↓,down,↓,1.4668666999787092,True,16,1,0,0
Y2-S2-007K22,1,67,AS,exp,27,→,right,→,0.5610391001682729,True,16,1,0,0
Y2-S2-007K22,1,68,AS,exp,46,↑,up,↑,0.48738930001854897,True,16,1,0,0
Y2-S2-007K22,1,69,AS,exp,36,→,right,→,1.1920713998842984,True,15,1,0,0
Y2-S2-007K22,1,70,AS,exp,33,←,left,←,0.6146399001590908,True,15,1,0,0
Y2-S2-007K22,1,71,AS,exp,47,↓,down,↓,0.7189727001823485,True,15,1,0,0
Y2-S2-007K22,1,72,AS,exp,27,→,right,→,0.4559702000115067,True,14,1,0,0
Y2-S2-007K22,1,73,AS,exp,49,←,left,←,1.1940953999292105,True,14,1,0,0
Y2-S2-007K22,1,74,AS,exp,48,→,right,→,0.4570033000782132,True,14,1,0,0
Y2-S2-007K22,1,75,AS,exp,31,←,left,←,0.5302128999028355,True,13,1,0,0
Y2-S2-007K22,1,76,AS,exp,43,↓,down,↓,0.4757060001138598,True,13,1,0,0
Y2-S2-007K22,1,77,AS,exp,26,←,left,←,0.585422300035134,True,13,1,0,0
Y2-S2-007K22,1,78,AS,exp,37,↓,down,↓,0.8251767999026924,True,12,1,0,0
Y2-S2-007K22,1,79,AS,exp,32,←,left,←,0.43134710006415844,True,12,1,0,0
Y2-S2-007K22,1,80,AS,exp,38,↑,left,←,0.7306145001202822,False,12,-1,1,1
Y2-S2-007K22,1,81,AS,exp,37,→,left,←,0.8542987999971956,False,13,-1,0,1
Y2-S2-007K22,1,82,AS,exp,27,←,no_key,no_letter,-1.0,False,14,-1,0,1
Y2-S2-007K22,1,83,AS,exp,35,↓,down,↓,0.6516241999343038,True,15,-1,0,1
Y2-S2-007K22,1,84,AS,exp,36,→,right,→,0.5873351998161525,True,15,-1,0,1
Y2-S2-007K22,1,85,AS,exp,40,↑,up,↑,0.7510136999189854,True,15,1,1,2
Y2-S2-007K22,1,86,AS,exp,45,←,no_key,no_letter,-1.0,False,14,-1,1,3
Y2-S2-007K22,1,87,AS,exp,46,↓,down,↓,0.6272654000204057,True,15,-1,0,3
Y2-S2-007K22,1,88,AS,exp,48,↑,up,↑,0.4440330001525581,True,15,-1,0,3
Y2-S2-007K22,1,89,AS,exp,43,←,left,←,0.6088528998661786,True,15,1,1,4
Y2-S2-007K22,1,90,AS,exp,44,↑,up,↑,0.6111274000722915,True,14,1,0,4
Y2-S2-007K22,1,91,AS,exp,26,←,left,←,0.5407753000035882,True,14,1,0,4
Y2-S2-007K22,1,92,AS,exp,31,→,right,→,0.5898626998532563,True,14,1,0,4
Y2-S2-007K22,1,93,AS,exp,44,↑,up,↑,0.7119889999739826,True,13,1,0,4
Y2-S2-007K22,1,94,AS,exp,34,←,left,←,0.6196708998177201,True,13,1,0,4
Y2-S2-007K22,1,95,AS,exp,47,↑,up,↑,0.6887873997911811,True,13,1,0,4
Y2-S2-007K22,1,96,AS,exp,35,↓,down,↓,0.38977660005912185,True,12,1,0,4
Y2-S2-007K22,1,97,AS,exp,39,→,right,→,0.42124029994010925,True,12,1,0,4
Y2-S2-007K22,1,98,AS,exp,37,↓,down,↓,0.4407806000672281,True,12,1,0,4
Y2-S2-007K22,1,99,AS,exp,25,→,right,→,0.8955918001011014,True,11,1,0,4
Y2-S2-007K22,1,100,AS,exp,28,↓,down,↓,0.511786799877882,True,11,1,0,4
Y2-S2-007K22,1,101,AS,exp,27,↑,up,↑,0.5575367000419647,True,11,1,0,4
Y2-S2-007K22,1,102,AS,exp,38,↓,down,↓,0.5578306000679731,True,10,1,0,4
Y2-S2-007K22,1,103,AS,exp,35,←,left,←,0.43291119998320937,True,10,1,0,4
Y2-S2-007K22,1,104,AS,exp,28,→,left,←,0.8108690001536161,False,10,-1,1,5
Y2-S2-007K22,1,105,AS,exp,50,↑,down,↓,0.9824190998915583,False,11,-1,0,5
Y2-S2-007K22,1,106,AS,exp,31,→,left,←,0.7043642001226544,False,12,-1,0,5
Y2-S2-007K22,1,107,AS,exp,26,↓,no_key,no_letter,-1.0,False,13,-1,0,5
Y2-S2-007K22,1,108,AS,exp,43,←,left,←,0.5067053998354822,True,14,-1,0,5
Y2-S2-007K22,1,109,AS,exp,37,↑,up,↑,0.5161304001230747,True,14,-1,0,5
Y2-S2-007K22,1,110,AS,exp,32,↓,down,↓,0.49380360008217394,True,14,1,1,6
Y2-S2-007K22,1,111,AS,exp,46,←,left,←,0.4388855998404324,True,13,1,0,6
Y2-S2-007K22,1,112,AS,exp,33,↓,down,↓,0.6401742999441922,True,13,1,0,6
Y2-S2-007K22,1,113,AS,exp,47,←,left,←,0.45977919991128147,True,13,1,0,6
Y2-S2-007K22,1,114,AS,exp,41,→,right,→,0.6190980998799205,True,12,1,0,6
Y2-S2-007K22,1,115,AS,exp,38,↓,down,↓,0.39203420002013445,True,12,1,0,6
Y2-S2-007K22,1,116,AS,exp,27,→,left,←,0.5779071000870317,False,12,-1,1,7
Y2-S2-007K22,1,117,AS,exp,50,↓,down,↓,0.4804798997938633,True,13,-1,0,7
Y2-S2-007K22,1,118,AS,exp,43,←,left,←,0.4146944999229163,True,13,-1,0,7
Y2-S2-007K22,1,119,AS,exp,30,→,left,←,0.6064174000639468,False,13,-1,0,7
Y2-S2-007K22,1,120,AS,exp,35,↓,down,↓,0.6484505999833345,True,14,-1,0,7
Y2-S2-007K22,1,121,AS,exp,34,↑,down,↓,0.6450912998989224,False,14,-1,0,7
Y2-S2-007K22,1,122,AS,exp,26,→,right,→,0.5556926000863314,True,15,-1,0,7
Y2-S2-007K22,1,123,AS,exp,40,↑,up,↑,1.2765130999032408,True,15,-1,0,7
Y2-S2-007K22,1,124,AS,exp,31,↓,down,↓,0.6633604001253843,True,15,1,1,8
Y2-S2-007K22,1,125,AS,exp,30,↑,down,↓,0.9894188998732716,False,14,-1,1,9
Y2-S2-007K22,1,126,AS,exp,39,↓,right,→,1.363768900046125,False,15,-1,0,9
Y2-S2-007K22,1,127,AS,exp,42,←,left,←,0.6209104000590742,True,16,-1,0,9
Y2-S2-007K22,1,128,AS,exp,26,→,no_key,no_letter,-1.0,False,16,-1,0,9
Y2-S2-007K22,1,129,AS,exp,41,↓,down,↓,0.6861106001306325,True,17,-1,0,9
Y2-S2-007K22,1,130,AS,exp,39,↑,up,↑,0.6784940999932587,True,17,-1,0,9
Y2-S2-007K22,1,131,AS,exp,25,↓,down,↓,0.6684657000005245,True,17,1,1,10
Y2-S2-007K22,1,132,AS,exp,46,←,left,←,0.6380219999700785,True,16,1,0,10
Y2-S2-007K22,1,133,AS,exp,39,↓,down,↓,0.6391726001165807,True,16,1,0,10
Y2-S2-007K22,1,134,AS,exp,36,↑,up,↑,0.6441589000169188,True,16,1,0,10
Y2-S2-007K22,1,135,AS,exp,26,→,right,→,0.5694308998063207,True,15,1,0,10
Y2-S2-007K22,1,136,AS,exp,45,↑,up,↑,0.4433706998825073,True,15,1,0,10
Y2-S2-007K22,1,137,AS,exp,47,←,left,←,0.5621620998717844,True,15,1,0,10
Y2-S2-007K22,1,138,AS,exp,44,↓,down,↓,0.4701001001521945,True,14,1,0,10
Y2-S2-007K22,1,139,AS,exp,50,←,left,←,1.267800800036639,True,14,1,0,10
Y2-S2-007K22,1,140,AS,exp,37,↑,up,↑,0.5400315998122096,True,14,1,0,10
Y2-S2-007K22,1,141,AS,exp,50,←,right,→,0.2839405001141131,False,13,-1,1,11
Y2-S2-007K22,1,142,AS,exp,45,↓,down,↓,0.5334440998267382,True,14,-1,0,11
Y2-S2-007K22,1,143,AS,exp,49,←,left,←,0.6433252000715584,True,14,-1,0,11
Y2-S2-007K22,1,144,AS,exp,48,→,right,→,0.5314575999509543,True,14,1,1,12
Y2-S2-007K22,1,145,AS,exp,36,↑,up,↑,0.47632399993017316,True,13,1,0,12
Y2-S2-007K22,1,146,AS,exp,36,→,right,→,0.5478234998881817,True,13,1,0,12
Y2-S2-007K22,1,147,AS,exp,49,←,left,←,1.3608748998958617,True,13,1,0,12
Y2-S2-007K22,1,148,AS,exp,27,→,down,↓,1.858556100167334,False,12,-1,1,13
Y2-S2-007K22,1,149,AS,exp,30,←,left,←,0.4727301001548767,True,13,-1,0,13
Y2-S2-007K22,1,150,AS,exp,34,↑,up,↑,0.5096158001106232,True,13,-1,0,13
Y2-S2-007K22,1,151,AS,exp,47,→,right,→,0.47886470006778836,True,13,1,1,14
Y2-S2-007K22,1,152,AS,exp,43,←,left,←,0.6067490000277758,True,12,1,0,14
Y2-S2-007K22,1,153,AS,exp,47,↑,left,←,0.3979675001464784,False,12,-1,1,15
Y2-S2-007K22,1,154,AS,exp,41,←,left,←,0.8332409998402,True,13,-1,0,15
Y2-S2-007K22,1,155,AS,exp,31,↑,no_key,no_letter,-1.0,False,13,-1,0,15
Y2-S2-007K22,1,156,AS,exp,45,→,right,→,0.49477799981832504,True,14,-1,0,15
Y2-S2-007K22,1,157,AS,exp,48,↑,up,↑,0.5068834000267088,True,14,-1,0,15
Y2-S2-007K22,1,158,AS,exp,43,↓,down,↓,0.5483646001666784,True,14,1,1,16
Y2-S2-007K22,2,159,PS,intra_train,31,←,down,↓,1.0996561001520604,False,13,-,-,-
Y2-S2-007K22,2,160,PS,intra_train,47,→,right,→,0.47141929995268583,True,13,-,-,-
Y2-S2-007K22,2,161,PS,intra_train,48,↑,down,↓,0.8524094999302179,False,13,-,-,-
Y2-S2-007K22,2,162,PS,intra_train,26,↓,down,↓,0.4278462999500334,True,13,-,-,-
Y2-S2-007K22,2,163,PS,intra_train,48,↑,right,→,0.961106900125742,False,13,-,-,-
Y2-S2-007K22,2,164,PS,exp,29,←,down,↓,0.6184366000816226,False,9,-1,0,0
Y2-S2-007K22,2,165,PS,exp,26,↓,down,↓,0.8251648999284953,True,10,-1,0,0
Y2-S2-007K22,2,166,PS,exp,49,←,left,←,0.5265554001089185,True,10,-1,0,0
Y2-S2-007K22,2,167,PS,exp,27,→,right,→,0.3374641998670995,True,10,1,1,1
Y2-S2-007K22,2,168,PS,exp,42,↑,right,→,0.5639482999686152,False,9,-1,1,2
Y2-S2-007K22,2,169,PS,exp,37,↓,down,↓,0.4557628999464214,True,10,-1,0,2
Y2-S2-007K22,2,170,PS,exp,27,→,left,←,0.7638478998560458,False,10,-1,0,2
Y2-S2-007K22,2,171,PS,exp,40,←,right,→,0.5326644999440759,False,11,-1,0,2
Y2-S2-007K22,2,172,PS,exp,45,↓,left,←,0.5193469000514597,False,12,-1,0,2
Y2-S2-007K22,2,173,PS,exp,26,←,right,→,0.8995314999483526,False,13,-1,0,2
Y2-S2-007K22,2,174,PS,exp,43,↓,up,↑,0.7879197997972369,False,14,-1,0,2
Y2-S2-007K22,2,175,PS,exp,43,↑,up,↑,0.491658799815923,True,15,-1,0,2
Y2-S2-007K22,2,176,PS,exp,30,↓,down,↓,0.45844709989614785,True,15,-1,0,2
Y2-S2-007K22,2,177,PS,exp,25,↑,right,→,0.7892980999313295,False,15,-1,0,2
Y2-S2-007K22,2,178,PS,exp,43,↓,no_key,no_letter,-1.0,False,16,-1,0,2
Y2-S2-007K22,2,179,PS,exp,48,→,right,→,0.3835853999480605,True,17,-1,0,2
Y2-S2-007K22,2,180,PS,exp,48,←,right,→,0.7106741000898182,False,17,-1,0,2
Y2-S2-007K22,2,181,PS,exp,47,→,right,→,1.4628987999167293,True,18,-1,0,2
Y2-S2-007K22,2,182,PS,exp,25,↓,down,↓,0.4171611999627203,True,18,-1,0,2
Y2-S2-007K22,2,183,PS,exp,42,←,left,←,0.6094825000036508,True,18,1,1,3
Y2-S2-007K22,2,184,PS,exp,42,↓,down,↓,1.176495400024578,True,17,1,0,3
Y2-S2-007K22,2,185,PS,exp,47,→,right,→,0.9178280001506209,True,17,1,0,3
Y2-S2-007K22,2,186,PS,exp,28,↓,no_key,no_letter,-1.0,False,17,-1,1,4
Y2-S2-007K22,2,187,PS,exp,49,↑,no_key,no_letter,-1.0,False,18,-1,0,4
Y2-S2-007K22,2,188,PS,exp,27,→,right,→,0.38424429995939136,True,19,-1,0,4
Y2-S2-007K22,2,189,PS,exp,43,←,left,←,0.43379439995624125,True,19,-1,0,4
Y2-S2-007K22,2,190,PS,exp,30,↓,left,←,1.0157339998986572,False,19,-1,0,4
Y2-S2-007K22,2,191,PS,exp,43,↑,up,↑,0.8224704000167549,True,20,-1,0,4
Y2-S2-007K22,2,192,PS,exp,25,←,left,←,0.5556654999963939,True,20,-1,0,4
Y2-S2-007K22,2,193,PS,exp,34,↑,up,↑,0.7114838999696076,True,20,1,1,5
Y2-S2-007K22,2,194,PS,exp,43,→,right,→,1.2365202000364661,True,19,1,0,5
Y2-S2-007K22,2,195,PS,exp,34,↑,no_key,no_letter,-1.0,False,19,-1,1,6
Y2-S2-007K22,2,196,PS,exp,31,↓,no_key,no_letter,-1.0,False,20,-1,0,6
Y2-S2-007K22,2,197,PS,exp,50,→,right,→,0.45100050000473857,True,21,-1,0,6
Y2-S2-007K22,2,198,PS,exp,47,↑,up,↑,0.9146261001005769,True,21,-1,0,6
Y2-S2-007K22,2,199,PS,exp,32,←,left,←,0.6569164001848549,True,21,1,1,7
Y2-S2-007K22,2,200,PS,exp,33,↓,up,↑,1.1301122000440955,False,20,-1,1,8
Y2-S2-007K22,2,201,PS,exp,50,←,left,←,0.5438897998537868,True,21,-1,0,8
Y2-S2-007K22,2,202,PS,exp,49,↑,up,↑,0.7401129000354558,True,21,-1,0,8
Y2-S2-007K22,2,203,PS,exp,34,←,left,←,1.0690448000095785,True,21,1,1,9
Y2-S2-007K22,2,204,PS,exp,28,→,no_key,no_letter,-1.0,False,20,-1,1,10
Y2-S2-007K22,2,205,PS,exp,27,↓,down,↓,1.0860550000797957,True,21,-1,0,10
Y2-S2-007K22,2,206,PS,exp,45,↑,up,↑,0.6653717998415232,True,21,-1,0,10
Y2-S2-007K22,2,207,PS,exp,34,←,left,←,0.6159719000570476,True,21,1,1,11
Y2-S2-007K22,2,208,PS,exp,42,↑,up,↑,0.663199600065127,True,20,1,0,11
Y2-S2-007K22,2,209,PS,exp,43,→,right,→,0.6266375000122935,True,20,1,0,11
Y2-S2-007K22,2,210,PS,exp,26,↑,up,↑,0.7592919000890106,True,20,1,0,11
Y2-S2-007K22,2,211,PS,exp,40,←,no_key,no_letter,-1.0,False,19,-1,1,12
Y2-S2-007K22,2,212,PS,exp,42,→,right,→,0.5772070998791605,True,20,-1,0,12
Y2-S2-007K22,2,213,PS,exp,38,↑,up,↑,0.6012362998444587,True,20,-1,0,12
Y2-S2-007K22,2,214,PS,exp,46,→,left,←,0.503319300012663,False,20,-1,0,12
Y2-S2-007K22,2,215,PS,exp,26,↓,down,↓,0.9735477999784052,True,21,-1,0,12
Y2-S2-007K22,2,216,PS,exp,30,→,left,←,0.5448399998713285,False,21,-1,0,12
Y2-S2-007K22,2,217,PS,exp,41,↓,no_key,no_letter,-1.0,False,22,-1,0,12
Y2-S2-007K22,2,218,PS,exp,39,↑,no_key,no_letter,-1.0,False,23,-1,0,12
Y2-S2-007K22,2,219,PS,exp,26,←,no_key,no_letter,-1.0,False,24,-1,0,12
Y2-S2-007K22,2,220,PS,exp,33,↑,up,↑,0.4508132999762893,True,25,-1,0,12
Y2-S2-007K22,2,221,PS,exp,50,→,right,→,0.4169904999434948,True,25,-1,0,12
Y2-S2-007K22,2,222,PS,exp,26,←,left,←,0.48417440010234714,True,25,1,1,13
Y2-S2-007K22,2,223,PS,exp,35,↑,up,↑,0.4339270000346005,True,24,1,0,13
Y2-S2-007K22,2,224,PS,exp,28,→,right,→,0.6772219999693334,True,24,1,0,13
Y2-S2-007K22,2,225,PS,exp,36,←,left,←,0.4845360000617802,True,24,1,0,13
Y2-S2-007K22,2,226,PS,exp,28,↓,down,↓,0.500679399818182,True,23,1,0,13
Y2-S2-007K22,2,227,PS,exp,36,→,right,→,0.6156011000275612,True,23,1,0,13
Y2-S2-007K22,2,228,PS,exp,43,↑,up,↑,0.5008064000867307,True,23,1,0,13
Y2-S2-007K22,2,229,PS,exp,39,←,left,←,0.4340929000172764,True,22,1,0,13
Y2-S2-007K22,2,230,PS,exp,47,→,right,→,0.7543077000882477,True,22,1,0,13
Y2-S2-007K22,2,231,PS,exp,32,↑,right,→,0.31760590011253953,False,22,-1,1,14
Y2-S2-007K22,2,232,PS,exp,38,↓,up,↑,0.4004438000265509,False,23,-1,0,14
Y2-S2-007K22,2,233,PS,exp,42,↑,up,↑,0.4172370999585837,True,24,-1,0,14
Y2-S2-007K22,2,234,PS,exp,37,↓,down,↓,0.36780969984829426,True,24,-1,0,14
Y2-S2-007K22,2,235,PS,exp,36,←,left,←,0.6284800998400897,True,24,1,1,15
Y2-S2-007K22,2,236,PS,exp,35,↑,right,→,1.372746900189668,False,23,-1,1,16
Y2-S2-007K22,3,237,PS,intra_train,44,→,right,→,0.5002190999221057,True,13,-,-,-
Y2-S2-007K22,3,238,PS,intra_train,48,↑,up,↑,0.5191180999390781,True,13,-,-,-
Y2-S2-007K22,3,239,PS,intra_train,30,←,left,←,0.3999866000376642,True,13,-,-,-
Y2-S2-007K22,3,240,PS,intra_train,28,→,right,→,0.4213576000183821,True,13,-,-,-
Y2-S2-007K22,3,241,PS,intra_train,29,←,left,←,0.5948095999192446,True,13,-,-,-
Y2-S2-007K22,3,242,PS,exp,45,↑,left,←,0.7960181999951601,False,9,-1,0,0
Y2-S2-007K22,3,243,PS,exp,26,↓,down,↓,0.5559988999739289,True,10,-1,0,0
Y2-S2-007K22,3,244,PS,exp,43,↑,down,↓,0.5214792001061141,False,10,-1,0,0
Y2-S2-007K22,3,245,PS,exp,41,↓,down,↓,0.7351158000528812,True,11,-1,0,0
Y2-S2-007K22,3,246,PS,exp,36,→,right,→,0.5517231000121683,True,11,-1,0,0
Y2-S2-007K22,3,247,PS,exp,32,←,left,←,1.0770777999423444,True,11,1,1,1
Y2-S2-007K22,3,248,PS,exp,35,↓,no_key,no_letter,-1.0,False,10,-1,1,2
Y2-S2-007K22,3,249,PS,exp,40,→,no_key,no_letter,-1.0,False,11,-1,0,2
Y2-S2-007K22,3,250,PS,exp,44,↑,down,↓,0.8344350999686867,False,12,-1,0,2
Y2-S2-007K22,3,251,PS,exp,48,→,right,→,0.4552923000883311,True,13,-1,0,2
Y2-S2-007K22,3,252,PS,exp,49,↓,down,↓,0.5453728998545557,True,13,-1,0,2
Y2-S2-007K22,3,253,PS,exp,33,→,right,→,0.9313311001751572,True,13,1,1,3
Y2-S2-007K22,3,254,PS,exp,30,↑,up,↑,0.6575468999799341,True,12,1,0,3
Y2-S2-007K22,3,255,PS,exp,44,←,left,←,0.46258699987083673,True,12,1,0,3
Y2-S2-007K22,3,256,PS,exp,31,↑,down,↓,0.8316013999283314,False,12,-1,1,4
Y2-S2-007K22,3,257,PS,exp,42,→,right,→,0.4386052000336349,True,13,-1,0,4
Y2-S2-007K22,3,258,PS,exp,25,↓,down,↓,0.5068410998210311,True,13,-1,0,4
Y2-S2-007K22,3,259,PS,exp,44,↑,up,↑,0.46780489990487695,True,13,1,1,5
Y2-S2-007K22,3,260,PS,exp,38,↓,left,←,0.565203299978748,False,12,-1,1,6
Y2-S2-007K22,3,261,PS,exp,49,→,right,→,0.46170679992064834,True,13,-1,0,6
Y2-S2-007K22,3,262,PS,exp,28,↑,no_key,no_letter,-1.0,False,13,-1,0,6
Y2-S2-007K22,3,263,PS,exp,45,↓,no_key,no_letter,-1.0,False,14,-1,0,6
Y2-S2-007K22,3,264,PS,exp,35,→,no_key,no_letter,-1.0,False,15,-1,0,6
Y2-S2-007K22,3,265,PS,exp,31,↑,no_key,no_letter,-1.0,False,16,-1,0,6
Y2-S2-007K22,3,266,PS,exp,26,↓,no_key,no_letter,-1.0,False,17,-1,0,6
Y2-S2-007K22,3,267,PS,exp,30,←,left,←,1.6573480998631567,True,18,-1,0,6
Y2-S2-007K22,3,268,PS,exp,38,↑,up,↑,0.6438917000778019,True,18,-1,0,6
Y2-S2-007K22,3,269,PS,exp,40,←,left,←,0.41733049997128546,True,18,1,1,7
Y2-S2-007K22,3,270,PS,exp,39,↓,down,↓,0.49320880020968616,True,17,1,0,7
Y2-S2-007K22,3,271,PS,exp,27,←,right,→,0.5434548000339419,False,17,-1,1,8
Y2-S2-007K22,3,272,PS,exp,39,↑,down,↓,0.7914619999937713,False,18,-1,0,8
Y2-S2-007K22,3,273,PS,exp,42,↓,left,←,0.25126749998889863,False,19,-1,0,8
Y2-S2-007K22,3,274,PS,exp,33,→,right,→,1.2821231000125408,True,20,-1,0,8
Y2-S2-007K22,3,275,PS,exp,26,↑,down,↓,1.9607454999350011,False,20,-1,0,8
Y2-S2-007K22,3,276,PS,exp,27,↓,down,↓,0.03428940009325743,True,21,-1,0,8
Y2-S2-007K22,3,277,PS,exp,34,↑,no_key,no_letter,-1.0,False,21,-1,0,8
Y2-S2-007K22,3,278,PS,exp,44,→,down,↓,0.06760319997556508,False,22,-1,0,8
Y2-S2-007K22,3,279,PS,exp,42,↓,right,→,0.16823660000227392,False,23,-1,0,8
Y2-S2-007K22,3,280,PS,exp,33,→,left,←,0.43383120000362396,False,24,-1,0,8
Y2-S2-007K22,3,281,PS,exp,36,↑,down,↓,0.15109939989633858,False,25,-1,0,8
Y2-S2-007K22,3,282,PS,exp,36,←,down,↓,0.2343093000818044,False,26,-1,0,8
Y2-S2-007K22,3,283,PS,exp,32,↓,down,↓,1.6440208998974413,True,27,-1,0,8
Y2-S2-007K22,3,284,PS,exp,47,↑,up,↑,1.1137073000427336,True,27,-1,0,8
Y2-S2-007K22,3,285,PS,exp,50,↓,down,↓,0.4505883001256734,True,27,1,1,9
Y2-S2-007K22,3,286,PS,exp,48,←,left,←,0.5006271998863667,True,26,1,0,9
Y2-S2-007K22,3,287,PS,exp,48,→,right,→,0.450692200101912,True,26,1,0,9
Y2-S2-007K22,3,288,PS,exp,26,↑,up,↑,0.5338288999628276,True,26,1,0,9
Y2-S2-007K22,3,289,PS,exp,42,→,right,→,0.628781900042668,True,25,1,0,9
Y2-S2-007K22,3,290,PS,exp,40,↓,down,↓,0.7414798999670893,True,25,1,0,9
Y2-S2-007K22,3,291,PS,exp,43,←,right,→,0.517107600113377,False,25,-1,1,10
Y2-S2-007K22,3,292,PS,exp,40,↑,up,↑,0.6046768999658525,True,26,-1,0,10
Y2-S2-007K22,3,293,PS,exp,48,←,left,←,0.5673924998845905,True,26,-1,0,10
Y2-S2-007K22,3,294,PS,exp,37,↓,right,→,0.7344155998434871,False,26,-1,0,10
Y2-S2-007K22,3,295,PS,exp,33,↑,up,↑,0.6387289999984205,True,27,-1,0,10
Y2-S2-007K22,3,296,PS,exp,28,↓,down,↓,0.7367305001243949,True,27,-1,0,10
Y2-S2-007K22,3,297,PS,exp,28,↑,up,↑,0.6684628999792039,True,27,1,1,11
Y2-S2-007K22,3,298,PS,exp,44,←,down,↓,1.394912099931389,False,26,-1,1,12
Y2-S2-007K22,3,299,PS,exp,30,↓,left,←,0.4336349000222981,False,27,-1,0,12
Y2-S2-007K22,3,300,PS,exp,29,←,left,←,1.5120012001134455,True,28,-1,0,12
Y2-S2-007K22,3,301,PS,exp,40,→,right,→,0.9723388999700546,True,28,-1,0,12
Y2-S2-007K22,3,302,PS,exp,49,↓,no_key,no_letter,-1.0,False,28,-1,0,12
Y2-S2-007K22,3,303,PS,exp,46,←,no_key,no_letter,-1.0,False,29,-1,0,12
Y2-S2-007K22,3,304,PS,exp,29,↑,down,↓,0.41691739996895194,False,30,-1,0,12
Y2-S2-007K22,3,305,PS,exp,42,↓,down,↓,0.5840419998858124,True,31,-1,0,12
Y2-S2-007K22,3,306,PS,exp,31,→,no_key,no_letter,-1.0,False,31,-1,0,12
Y2-S2-007K22,3,307,PS,exp,43,↑,up,↑,0.5839400000404567,True,32,-1,0,12
Y2-S2-007K22,3,308,PS,exp,41,←,left,←,0.5838987999595702,True,32,-1,0,12
Y2-S2-007K22,3,309,PS,exp,42,↓,no_key,no_letter,-1.0,False,32,-1,0,12
Y2-S2-007K22,3,310,PS,exp,29,↑,up,↑,1.4904467000160366,True,33,-1,0,12
Y2-S2-007K22,3,311,PS,exp,29,↓,up,↑,0.6508567999117076,False,33,-1,0,12
Y2-S2-007K22,3,312,PS,exp,30,→,right,→,0.4512430999893695,True,34,-1,0,12
Y2-S2-007K22,3,313,PS,exp,34,←,left,←,0.567219499964267,True,34,-1,0,12
Y2-S2-007K22,3,314,PS,exp,25,→,right,→,0.5507429998833686,True,34,1,1,13
Y2-S2-007K22,3,315,PS,exp,33,↑,left,←,0.3676895000971854,False,33,-1,1,14
Y2-S2-007K22,3,316,PS,exp,45,↓,down,↓,0.517938100034371,True,34,-1,0,14
Y2-S2-007K22,3,317,PS,exp,31,→,right,→,0.5344207000453025,True,34,-1,0,14
Y2-S2-007K22,3,318,PS,exp,27,←,left,←,0.4511746000498533,True,34,1,1,15
Y2-S2-007K22,3,319,PS,exp,41,↓,down,↓,0.5672619000542909,True,33,1,0,15
Y2-S2-007K22,3,320,PS,exp,29,→,down,↓,1.1183323001023382,False,33,-1,1,16
Y2-S2-007K22,4,321,AS,intra_train,25,←,left,←,0.787227800115943,True,28,-,-,-
Y2-S2-007K22,4,322,AS,intra_train,44,↓,down,↓,1.1954021998681128,True,28,-,-,-
Y2-S2-007K22,4,323,AS,intra_train,42,↑,up,↑,0.7266964998561889,True,28,-,-,-
Y2-S2-007K22,4,324,AS,intra_train,42,↓,left,←,1.297705999808386,False,28,-,-,-
Y2-S2-007K22,4,325,AS,intra_train,36,←,left,←,0.43420640006661415,True,28,-,-,-
Y2-S2-007K22,4,326,AS,exp,47,→,right,→,0.5955438998062164,True,19,0,0,0
Y2-S2-007K22,4,327,AS,exp,44,←,right,→,0.9278841998893768,False,19,-1,0,0
Y2-S2-007K22,4,328,AS,exp,40,↑,no_key,no_letter,-1.0,False,20,-1,0,0
Y2-S2-007K22,4,329,AS,exp,36,←,no_key,no_letter,-1.0,False,21,-1,0,0
Y2-S2-007K22,4,330,AS,exp,41,→,no_key,no_letter,-1.0,False,22,-1,0,0
Y2-S2-007K22,4,331,AS,exp,38,↑,right,→,0.5664929999038577,False,23,-1,0,0
Y2-S2-007K22,4,332,AS,exp,49,←,no_key,no_letter,-1.0,False,24,-1,0,0
Y2-S2-007K22,4,333,AS,exp,31,↑,right,→,0.8502406000625342,False,25,-1,0,0
Y2-S2-007K22,4,334,AS,exp,47,↓,no_key,no_letter,-1.0,False,26,-1,0,0
Y2-S2-007K22,4,335,AS,exp,33,←,right,→,0.5504155000671744,False,27,-1,0,0
Y2-S2-007K22,4,336,AS,exp,44,↑,up,↑,1.8395167000126094,True,28,-1,0,0
Y2-S2-007K22,4,337,AS,exp,30,→,right,→,0.4508797999005765,True,28,-1,0,0
Y2-S2-007K22,4,338,AS,exp,29,↓,down,↓,1.3201901998836547,True,28,1,1,1
Y2-S2-007K22,4,339,AS,exp,39,↑,up,↑,0.8586391999851912,True,27,1,0,1
Y2-S2-007K22,4,340,AS,exp,46,↓,down,↓,0.4174411999993026,True,27,1,0,1
Y2-S2-007K22,4,341,AS,exp,50,↑,up,↑,0.5838649000506848,True,27,1,0,1
Y2-S2-007K22,4,342,AS,exp,40,→,right,→,0.6078537001740187,True,26,1,0,1
Y2-S2-007K22,4,343,AS,exp,26,↑,up,↑,0.660851800115779,True,26,1,0,1
Y2-S2-007K22,4,344,AS,exp,37,←,left,←,0.6706707000266761,True,26,1,0,1
Y2-S2-007K22,4,345,AS,exp,49,↓,right,→,0.8097008999902755,False,25,-1,1,2
Y2-S2-007K22,4,346,AS,exp,37,←,left,←,0.7776574001181871,True,26,-1,0,2
Y2-S2-007K22,4,347,AS,exp,27,↓,down,↓,0.4174905000254512,True,26,-1,0,2
Y2-S2-007K22,4,348,AS,exp,40,←,left,←,0.6645553999114782,True,26,1,1,3
Y2-S2-007K22,4,349,AS,exp,50,↓,down,↓,0.4338871000800282,True,25,1,0,3
Y2-S2-007K22,4,350,AS,exp,30,→,right,→,0.38436720008030534,True,25,1,0,3
Y2-S2-007K22,4,351,AS,exp,38,↓,down,↓,0.43404809990897775,True,25,1,0,3
Y2-S2-007K22,4,352,AS,exp,50,→,right,→,0.4841461000032723,True,24,1,0,3
Y2-S2-007K22,4,353,AS,exp,42,↑,up,↑,0.4504136999603361,True,24,1,0,3
Y2-S2-007K22,4,354,AS,exp,46,←,left,←,0.6537089999765158,True,24,1,0,3
Y2-S2-007K22,4,355,AS,exp,36,↓,down,↓,0.5690373999532312,True,23,1,0,3
Y2-S2-007K22,4,356,AS,exp,36,↑,down,↓,0.5006186999380589,False,23,-1,1,4
Y2-S2-007K22,4,357,AS,exp,32,↓,down,↓,0.7344810001086444,True,24,-1,0,4
Y2-S2-007K22,4,358,AS,exp,45,↑,up,↑,0.7160722999833524,True,24,-1,0,4
Y2-S2-007K22,4,359,AS,exp,49,←,left,←,0.6582049001008272,True,24,1,1,5
Y2-S2-007K22,4,360,AS,exp,43,↑,down,↓,1.173299599904567,False,23,-1,1,6
Y2-S2-007K22,4,361,AS,exp,47,←,up,↑,0.5005222000181675,False,24,-1,0,6
Y2-S2-007K22,4,362,AS,exp,45,→,no_key,no_letter,-1.0,False,25,-1,0,6
Y2-S2-007K22,4,363,AS,exp,44,←,down,↓,0.534050100017339,False,26,-1,0,6
Y2-S2-007K22,4,364,AS,exp,35,→,left,←,1.715531799942255,False,27,-1,0,6
Y2-S2-007K22,4,365,AS,exp,49,←,no_key,no_letter,-1.0,False,28,-1,0,6
Y2-S2-007K22,4,366,AS,exp,41,↑,up,↑,1.3877267001662403,True,29,-1,0,6
Y2-S2-007K22,4,367,AS,exp,40,←,no_key,no_letter,-1.0,False,29,-1,0,6
Y2-S2-007K22,4,368,AS,exp,42,↓,down,↓,0.6749376999214292,True,30,-1,0,6
Y2-S2-007K22,4,369,AS,exp,31,←,right,→,1.1049145001452416,False,30,-1,0,6
Y2-S2-007K22,4,370,AS,exp,42,↑,no_key,no_letter,-1.0,False,31,-1,0,6
Y2-S2-007K22,4,371,AS,exp,37,←,right,→,1.1696460000239313,False,32,-1,0,6
Y2-S2-007K22,4,372,AS,exp,45,↓,no_key,no_letter,-1.0,False,33,-1,0,6
Y2-S2-007K22,4,373,AS,exp,50,↑,left,←,2.2010856999550015,False,34,-1,0,6
Y2-S2-007K22,4,374,AS,exp,29,←,down,↓,1.9192252000793815,False,35,-1,0,6
Y2-S2-007K22,4,375,AS,exp,44,→,right,→,1.050422600004822,True,36,-1,0,6
Y2-S2-007K22,4,376,AS,exp,33,↓,right,→,2.1101809998508543,False,36,-1,0,6
Y2-S2-007K22,4,377,AS,exp,30,→,right,→,0.667376299854368,True,37,-1,0,6
Y2-S2-007K22,4,378,AS,exp,36,←,left,←,0.7173554999753833,True,37,-1,0,6
Y2-S2-007K22,4,379,AS,exp,46,↓,down,↓,0.7172717999201268,True,37,1,1,7
Y2-S2-007K22,4,380,AS,exp,42,→,right,→,0.6506348000839353,True,36,1,0,7
Y2-S2-007K22,4,381,AS,exp,26,↓,down,↓,0.6171621000394225,True,36,1,0,7
Y2-S2-007K22,4,382,AS,exp,31,←,left,←,0.4511756000574678,True,36,1,0,7
Y2-S2-007K22,4,383,AS,exp,27,→,down,↓,1.2573696998879313,False,35,-1,1,8
Y2-S2-007K22,4,384,AS,exp,33,←,no_key,no_letter,-1.0,False,36,-1,0,8
Y2-S2-007K22,4,385,AS,exp,45,→,right,→,1.8121101001743227,True,37,-1,0,8
Y2-S2-007K22,4,386,AS,exp,33,↓,no_key,no_letter,-1.0,False,37,-1,0,8
Y2-S2-007K22,4,387,AS,exp,29,↑,up,↑,0.6506872000172734,True,38,-1,0,8
Y2-S2-007K22,4,388,AS,exp,38,→,left,←,0.5842675999738276,False,38,-1,0,8
Y2-S2-007K22,4,389,AS,exp,30,↓,down,↓,0.9403758000116795,True,39,-1,0,8
Y2-S2-007K22,4,390,AS,exp,35,↑,no_key,no_letter,-1.0,False,39,-1,0,8
Y2-S2-007K22,4,391,AS,exp,36,←,down,↓,1.8689906999934465,False,40,-1,0,8
Y2-S2-007K22,4,392,AS,exp,25,→,right,→,0.5015269001014531,True,41,-1,0,8
Y2-S2-007K22,4,393,AS,exp,25,←,right,→,0.38389319996349514,False,41,-1,0,8
Y2-S2-007K22,4,394,AS,exp,38,↓,down,↓,0.6508931999560446,True,42,-1,0,8
Y2-S2-007K22,4,395,AS,exp,43,←,no_key,no_letter,-1.0,False,42,-1,0,8
Y2-S2-007K22,4,396,AS,exp,39,↓,no_key,no_letter,-1.0,False,43,-1,0,8
Y2-S2-007K22,4,397,AS,exp,26,→,left,←,0.5512753999792039,False,44,-1,0,8
Y2-S2-007K22,4,398,AS,exp,30,↑,up,↑,0.5509912001434714,True,45,-1,0,8
Y2-S2-007K22,4,399,AS,exp,41,←,left,←,0.6844705999828875,True,45,-1,0,8
Y2-S2-007K22,4,400,AS,exp,38,→,right,→,0.8173654999118298,True,45,1,1,9
Y2-S2-007K22,4,401,AS,exp,40,↑,up,↑,0.817328599980101,True,44,1,0,9
Y2-S2-007K22,4,402,AS,exp,36,←,left,←,0.7506887998897582,True,44,1,0,9
Y2-S2-007K22,4,403,AS,exp,30,→,right,→,0.5345717000309378,True,44,1,0,9
Y2-S2-007K22,4,404,AS,exp,42,←,left,←,0.5012068999931216,True,43,1,0,9
Y2-S2-007K22,4,405,AS,exp,44,→,left,←,0.6677387000527233,False,43,-1,1,10
Y2-S2-007K22,4,406,AS,exp,32,←,left,←,0.7675868000369519,True,44,-1,0,10
Y2-S2-007K22,4,407,AS,exp,37,↓,down,↓,0.467982399975881,True,44,-1,0,10
Y2-S2-007K22,4,408,AS,exp,47,↑,down,↓,0.6010437000077218,False,44,-1,0,10
Y2-S2-007K22,4,409,AS,exp,42,→,right,→,0.5513749001547694,True,45,-1,0,10
Y2-S2-007K22,4,410,AS,exp,40,↓,right,→,0.11755940015427768,False,45,-1,0,10
Y2-S2-007K22,4,411,AS,exp,26,←,left,←,0.650944699998945,True,46,-1,0,10
Y2-S2-007K22,4,412,AS,exp,38,→,up,↑,0.2849057000130415,False,46,-1,0,10
Y2-S2-007K22,4,413,AS,exp,49,↑,up,↑,0.5180328998249024,True,47,-1,0,10
Y2-S2-007K22,4,414,AS,exp,36,←,right,→,0.6678941000718623,False,47,-1,0,10
Y2-S2-007K22,4,415,AS,exp,41,→,right,→,0.4511088998988271,True,48,-1,0,10
Y2-S2-007K22,4,416,AS,exp,27,↑,up,↑,0.4677238999865949,True,48,-1,0,10
Y2-S2-007K22,4,417,AS,exp,33,←,left,←,0.40134059987030923,True,48,1,1,11
Y2-S2-007K22,4,418,AS,exp,33,→,left,←,0.5343169998377562,False,47,-1,1,12
Y2-S2-007K22,4,419,AS,exp,27,←,right,→,0.3512703001033515,False,48,-1,0,12
Y2-S2-007K22,4,420,AS,exp,30,↑,up,↑,0.7342038999777287,True,49,-1,0,12
Y2-S2-007K22,4,421,AS,exp,42,→,right,→,0.667714900104329,True,49,-1,0,12
Y2-S2-007K22,4,422,AS,exp,41,↓,down,↓,0.8173606998752803,True,49,1,1,13
Y2-S2-007K22,4,423,AS,exp,40,→,left,←,1.4204665999859571,False,48,-1,1,14
Y2-S2-007K22,4,424,AS,exp,39,↑,left,←,0.83374989987351,False,49,-1,0,14
Y2-S2-007K22,4,425,AS,exp,44,→,down,↓,0.7341759998816997,False,50,-1,0,14
Y2-S2-007K22,4,426,AS,exp,35,←,down,↓,0.5010771001689136,False,51,-1,0,14
Y2-S2-007K22,4,427,AS,exp,32,↑,no_key,no_letter,-1.0,False,52,-1,0,14
Y2-S2-007K22,4,428,AS,exp,47,↓,down,↓,0.6843654999975115,True,53,-1,0,14
Y2-S2-007K22,4,429,AS,exp,26,↑,no_key,no_letter,-1.0,False,53,-1,0,14
Y2-S2-007K22,4,430,AS,exp,40,→,right,→,1.8014043001458049,True,54,-1,0,14
Y2-S2-007K22,4,431,AS,exp,29,↓,down,↓,2.316363199846819,True,54,-1,0,14
Y2-S2-007K22,4,432,AS,exp,31,→,right,→,0.6176873999647796,True,54,1,1,15
Y2-S2-007K22,4,433,AS,exp,40,↓,down,↓,0.8013488999567926,True,53,1,0,15
Y2-S2-007K22,4,434,AS,exp,36,←,left,←,0.8344636000692844,True,53,1,0,15
Y2-S2-007K22,4,435,AS,exp,36,↑,up,↑,0.784462200012058,True,53,1,0,15
Y2-S2-007K22,4,436,AS,exp,44,→,right,→,0.5344191000331193,True,52,1,0,15
Y2-S2-007K22,4,437,AS,exp,32,←,left,←,0.43440299993380904,True,52,1,0,15
Y2-S2-007K22,4,438,AS,exp,31,→,right,→,0.40105179999955,True,52,1,0,15
Y2-S2-007K22,4,439,AS,exp,29,←,right,→,0.45127819990739226,False,51,-1,1,16
Y2-S2-007K22,5,440,AS,intra_train,40,↓,down,↓,0.5174477000255138,True,28,-,-,-
Y2-S2-007K22,5,441,AS,intra_train,42,↑,up,↑,1.0005159999709576,True,28,-,-,-
Y2-S2-007K22,5,442,AS,intra_train,37,→,no_key,no_letter,-1.0,False,28,-,-,-
Y2-S2-007K22,5,443,AS,intra_train,47,↑,up,↑,0.669286800082773,True,28,-,-,-
Y2-S2-007K22,5,444,AS,intra_train,33,→,right,→,0.5677634999155998,True,28,-,-,-
Y2-S2-007K22,5,445,AS,exp,32,←,left,←,0.41724930005148053,True,19,0,0,0
Y2-S2-007K22,5,446,AS,exp,46,→,right,→,0.31730610015802085,True,19,0,0,0
Y2-S2-007K22,5,447,AS,exp,25,↑,right,→,0.36724639986641705,False,19,-1,0,0
Y2-S2-007K22,5,448,AS,exp,44,↓,down,↓,1.0887166000902653,True,20,-1,0,0
Y2-S2-007K22,5,449,AS,exp,34,←,no_key,no_letter,-1.0,False,20,-1,0,0
Y2-S2-007K22,5,450,AS,exp,50,→,no_key,no_letter,-1.0,False,21,-1,0,0
Y2-S2-007K22,5,451,AS,exp,25,↓,down,↓,0.6651409999467432,True,22,-1,0,0
Y2-S2-007K22,5,452,AS,exp,31,←,left,←,0.6532570000272244,True,22,-1,0,0
Y2-S2-007K22,5,453,AS,exp,45,→,right,→,1.3437671000137925,True,22,1,1,1
Y2-S2-007K22,5,454,AS,exp,31,↓,left,←,0.6486079001333565,False,21,-1,1,2
Y2-S2-007K22,5,455,AS,exp,45,↑,up,↑,1.2206227998249233,True,22,-1,0,2
Y2-S2-007K22,5,456,AS,exp,34,↓,down,↓,0.684227199992165,True,22,-1,0,2
Y2-S2-007K22,5,457,AS,exp,30,→,right,→,0.5361089999787509,True,22,1,1,3
Y2-S2-007K22,5,458,AS,exp,39,↑,no_key,no_letter,-1.0,False,21,-1,1,4
Y2-S2-007K22,5,459,AS,exp,39,↓,up,↑,0.9259477998130023,False,22,-1,0,4
Y2-S2-007K22,5,460,AS,exp,46,→,no_key,no_letter,-1.0,False,23,-1,0,4
Y2-S2-007K22,5,461,AS,exp,39,←,down,↓,1.08969120006077,False,24,-1,0,4
Y2-S2-007K22,5,462,AS,exp,31,↑,no_key,no_letter,-1.0,False,25,-1,0,4
Y2-S2-007K22,5,463,AS,exp,49,↓,right,→,1.184796999907121,False,26,-1,0,4
Y2-S2-007K22,5,464,AS,exp,42,↑,up,↑,0.7281099997926503,True,27,-1,0,4
Y2-S2-007K22,5,465,AS,exp,35,↓,down,↓,1.4990371000021696,True,27,-1,0,4
Y2-S2-007K22,5,466,AS,exp,27,→,right,→,0.5338254999369383,True,27,1,1,5
Y2-S2-007K22,5,467,AS,exp,31,↓,down,↓,0.6673863001633435,True,26,1,0,5
Y2-S2-007K22,5,468,AS,exp,29,↑,up,↑,0.7768351999111474,True,26,1,0,5
Y2-S2-007K22,5,469,AS,exp,37,←,no_key,no_letter,-1.0,False,26,-1,1,6
Y2-S2-007K22,5,470,AS,exp,33,↓,no_key,no_letter,-1.0,False,27,-1,0,6
Y2-S2-007K22,5,471,AS,exp,36,←,right,→,0.31766250007785857,False,28,-1,0,6
Y2-S2-007K22,5,472,AS,exp,39,↑,up,↑,0.4512865000870079,True,29,-1,0,6
Y2-S2-007K22,5,473,AS,exp,27,→,no_key,no_letter,-1.0,False,29,-1,0,6
Y2-S2-007K22,5,474,AS,exp,45,←,no_key,no_letter,-1.0,False,30,-1,0,6
Y2-S2-007K22,5,475,AS,exp,28,↑,right,→,0.8138500000350177,False,31,-1,0,6
Y2-S2-007K22,5,476,AS,exp,31,→,down,↓,0.26775379991158843,False,32,-1,0,6
Y2-S2-007K22,5,477,AS,exp,29,↓,no_key,no_letter,-1.0,False,33,-1,0,6
Y2-S2-007K22,5,478,AS,exp,36,↑,down,↓,2.1237222999334335,False,34,-1,0,6
Y2-S2-007K22,5,479,AS,exp,30,←,left,←,0.5008598000276834,True,35,-1,0,6
Y2-S2-007K22,5,480,AS,exp,40,→,right,→,0.8118308000266552,True,35,-1,0,6
Y2-S2-007K22,5,481,AS,exp,30,↓,no_key,no_letter,-1.0,False,35,-1,0,6
Y2-S2-007K22,5,482,AS,exp,46,↑,no_key,no_letter,-1.0,False,36,-1,0,6
Y2-S2-007K22,5,483,AS,exp,26,→,right,→,0.5339893000200391,True,37,-1,0,6
Y2-S2-007K22,5,484,AS,exp,27,←,right,→,0.41743100015446544,False,37,-1,0,6
Y2-S2-007K22,5,485,AS,exp,33,↓,left,←,0.28439310006797314,False,38,-1,0,6
Y2-S2-007K22,5,486,AS,exp,33,←,no_key,no_letter,-1.0,False,39,-1,0,6
Y2-S2-007K22,5,487,AS,exp,32,↑,no_key,no_letter,-1.0,False,40,-1,0,6
Y2-S2-007K22,5,488,AS,exp,43,→,right,→,1.6361140999943018,True,41,-1,0,6
Y2-S2-007K22,5,489,AS,exp,39,↑,down,↓,0.5843648998998106,False,41,-1,0,6
Y2-S2-007K22,5,490,AS,exp,30,←,up,↑,1.901839000172913,False,42,-1,0,6
Y2-S2-007K22,5,491,AS,exp,36,↓,no_key,no_letter,-1.0,False,43,-1,0,6
Y2-S2-007K22,5,492,AS,exp,41,←,left,←,0.56776830018498,True,44,-1,0,6
Y2-S2-007K22,5,493,AS,exp,34,→,no_key,no_letter,-1.0,False,44,-1,0,6
Y2-S2-007K22,5,494,AS,exp,25,←,right,→,2.4078728000167757,False,45,-1,0,6
Y2-S2-007K22,5,495,AS,exp,50,↓,down,↓,0.2843661999795586,True,46,-1,0,6
Y2-S2-007K22,5,496,AS,exp,43,↑,no_key,no_letter,-1.0,False,46,-1,0,6
Y2-S2-007K22,5,497,AS,exp,46,←,right,→,2.263164399890229,False,47,-1,0,6
Y2-S2-007K22,5,498,AS,exp,43,→,no_key,no_letter,-1.0,False,48,-1,0,6
Y2-S2-007K22,5,499,AS,exp,50,↓,no_key,no_letter,-1.0,False,49,-1,0,6
Y2-S2-007K22,5,500,AS,exp,32,↑,up,↑,1.069880299968645,True,50,-1,0,6
Y2-S2-007K22,5,501,AS,exp,38,→,left,←,0.4669687000568956,False,50,-1,0,6
Y2-S2-007K22,5,502,AS,exp,47,←,left,←,0.6340102001558989,True,51,-1,0,6
Y2-S2-007K22,5,503,AS,exp,31,↓,down,↓,0.751450999872759,True,51,-1,0,6
Y2-S2-007K22,5,504,AS,exp,39,↑,down,↓,0.5510945999994874,False,51,-1,0,6
Y2-S2-007K22,5,505,AS,exp,25,→,right,→,0.9671328999102116,True,52,-1,0,6
Y2-S2-007K22,5,506,AS,exp,47,←,right,→,0.40093549992889166,False,52,-1,0,6
Y2-S2-007K22,5,507,AS,exp,43,↓,down,↓,0.7011614998336881,True,53,-1,0,6
Y2-S2-007K22,5,508,AS,exp,36,←,no_key,no_letter,-1.0,False,53,-1,0,6
Y2-S2-007K22,5,509,AS,exp,46,→,right,→,2.436265100026503,True,54,-1,0,6
Y2-S2-007K22,5,510,AS,exp,40,←,right,→,2.057881199987605,False,54,-1,0,6
Y2-S2-007K22,5,511,AS,exp,38,→,down,↓,0.6676202001981437,False,55,-1,0,6
Y2-S2-007K22,5,512,AS,exp,47,←,no_key,no_letter,-1.0,False,56,-1,0,6
Y2-S2-007K22,5,513,AS,exp,40,→,right,→,1.2304088999517262,True,57,-1,0,6
Y2-S2-007K22,5,514,AS,exp,38,↑,up,↑,0.6843489999882877,True,57,-1,0,6
Y2-S2-007K22,5,515,AS,exp,35,←,down,↓,0.9673371000681072,False,57,-1,0,6
Y2-S2-007K22,5,516,AS,exp,31,→,right,→,0.3343659001402557,True,58,-1,0,6
Y2-S2-007K22,5,517,AS,exp,46,↑,up,↑,0.5176603998988867,True,58,-1,0,6
Y2-S2-007K22,5,518,AS,exp,38,←,left,←,0.5677539999596775,True,58,1,1,7
Y2-S2-007K22,5,519,AS,exp,34,↑,right,→,2.012325899908319,False,57,-1,1,8
Y2-S2-007K22,5,520,AS,exp,47,←,left,←,0.4845022999215871,True,58,-1,0,8
Y2-S2-007K22,5,521,AS,exp,38,↑,right,→,1.8582613000180572,False,58,-1,0,8
Y2-S2-007K22,5,522,AS,exp,39,→,right,→,0.6510568000376225,True,59,-1,0,8
Y2-S2-007K22,5,523,AS,exp,49,↑,up,↑,1.389630800113082,True,59,-1,0,8
Y2-S2-007K22,5,524,AS,exp,35,↓,down,↓,0.7509049000218511,True,59,1,1,9
Y2-S2-007K22,5,525,AS,exp,38,←,left,←,0.5175102001521736,True,58,1,0,9
Y2-S2-007K22,5,526,AS,exp,25,→,right,→,0.5343309000600129,True,58,1,0,9
Y2-S2-007K22,5,527,AS,exp,42,←,left,←,1.0171916000545025,True,58,1,0,9
Y2-S2-007K22,5,528,AS,exp,43,↓,down,↓,1.0172300999984145,True,57,1,0,9
Y2-S2-007K22,5,529,AS,exp,50,→,right,→,0.767867400078103,True,57,1,0,9
Y2-S2-007K22,5,530,AS,exp,37,←,right,→,0.5844286999199539,False,57,-1,1,10
Y2-S2-007K22,5,531,AS,exp,40,↓,down,↓,0.5510817999020219,True,58,-1,0,10
Y2-S2-007K22,5,532,AS,exp,29,→,left,←,0.33432379993610084,False,58,-1,0,10
Y2-S2-007K22,5,533,AS,exp,48,←,right,→,0.4175227000378072,False,59,-1,0,10
Y2-S2-007K22,5,534,AS,exp,35,↑,right,→,2.053824899950996,False,60,-1,0,10
Y2-S2-007K22,5,535,AS,exp,43,←,left,←,0.5510931999888271,True,61,-1,0,10
Y2-S2-007K22,5,536,AS,exp,43,→,right,→,1.3541709000710398,True,61,-1,0,10
Y2-S2-007K22,5,537,AS,exp,45,↓,down,↓,0.6011153999716043,True,61,1,1,11
Y2-S2-007K22,5,538,AS,exp,31,→,right,→,0.7509914999827743,True,60,1,0,11
Y2-S2-007K22,5,539,AS,exp,35,↓,down,↓,0.5509598001372069,True,60,1,0,11
Y2-S2-007K22,5,540,AS,exp,34,←,left,←,0.8514362999703735,True,60,1,0,11
Y2-S2-007K22,5,541,AS,exp,31,↓,down,↓,0.5678659998811781,True,59,1,0,11
Y2-S2-007K22,5,542,AS,exp,32,↑,up,↑,0.8344207000918686,True,59,1,0,11
Y2-S2-007K22,5,543,AS,exp,44,↓,down,↓,0.46761159994639456,True,59,1,0,11
Y2-S2-007K22,5,544,AS,exp,36,→,right,→,0.8342416000086814,True,58,1,0,11
Y2-S2-007K22,5,545,AS,exp,48,↑,left,←,1.93275269982405,False,58,-1,1,12
Y2-S2-007K22,5,546,AS,exp,42,←,left,←,1.3317742999643087,True,59,-1,0,12
Y2-S2-007K22,5,547,AS,exp,37,→,right,→,0.4511841998901218,True,59,-1,0,12
Y2-S2-007K22,5,548,AS,exp,40,↓,no_key,no_letter,-1.0,False,59,-1,0,12
Y2-S2-007K22,5,549,AS,exp,31,↑,no_key,no_letter,-1.0,False,60,-1,0,12
Y2-S2-007K22,5,550,AS,exp,43,↓,down,↓,0.6177161999512464,True,61,-1,0,12
Y2-S2-007K22,5,551,AS,exp,31,←,left,←,0.9845761000178754,True,61,-1,0,12
Y2-S2-007K22,5,552,AS,exp,49,→,no_key,no_letter,-1.0,False,61,-1,0,12
Y2-S2-007K22,5,553,AS,exp,34,↓,down,↓,0.5008205000776798,True,62,-1,0,12
Y2-S2-007K22,5,554,AS,exp,42,←,no_key,no_letter,-1.0,False,62,-1,0,12
Y2-S2-007K22,5,555,AS,exp,35,↓,no_key,no_letter,-1.0,False,63,-1,0,12
Y2-S2-007K22,5,556,AS,exp,30,↑,left,←,2.1111725999508053,False,64,-1,0,12
Y2-S2-007K22,5,557,AS,exp,33,→,down,↓,0.8513382999226451,False,65,-1,0,12
Y2-S2-007K22,5,558,AS,exp,32,←,down,↓,0.38443490001372993,False,66,-1,0,12
Y2-S2-007K22,5,559,AS,exp,26,↑,up,↑,0.8845011999364942,True,67,-1,0,12
Y2-S2-007K22,5,560,AS,exp,30,↓,down,↓,0.6009066998958588,True,67,-1,0,12
Y2-S2-007K22,5,561,AS,exp,33,→,right,→,0.48446250008419156,True,67,1,1,13
Y2-S2-007K22,5,562,AS,exp,47,↑,down,↓,0.6344826000276953,False,66,-1,1,14
Y2-S2-007K22,5,563,AS,exp,31,↓,down,↓,1.0176744998898357,True,67,-1,0,14
Y2-S2-007K22,5,564,AS,exp,47,↑,down,↓,0.5175773999653757,False,67,-1,0,14
Y2-S2-007K22,5,565,AS,exp,32,↓,down,↓,0.6178081000689417,True,68,-1,0,14
Y2-S2-007K22,5,566,AS,exp,35,←,left,←,0.5677865999750793,True,68,-1,0,14
Y2-S2-007K22,5,567,AS,exp,26,→,right,→,0.5677626999095082,True,68,1,1,15
Y2-S2-007K22,5,568,AS,exp,42,←,left,←,0.41791630000807345,True,67,1,0,15
Y2-S2-007K22,5,569,AS,exp,38,→,right,→,0.31754600000567734,True,67,1,0,15
Y2-S2-007K22,5,570,AS,exp,40,←,left,←,0.40100179985165596,True,67,1,0,15
Y2-S2-007K22,5,571,AS,exp,46,↓,down,↓,0.7678886000066996,True,66,1,0,15
Y2-S2-007K22,5,572,AS,exp,32,↑,up,↑,0.6007974999956787,True,66,1,0,15
Y2-S2-007K22,5,573,AS,exp,48,→,right,→,0.6843799001071602,True,66,1,0,15
Y2-S2-007K22,5,574,AS,exp,33,↓,right,→,1.4093460000585765,False,65,-1,1,16
Y2-S2-007K22,6,575,PS,intra_train,32,↑,left,←,1.051513799931854,False,13,-,-,-
Y2-S2-007K22,6,576,PS,intra_train,25,→,right,→,0.7782628000713885,True,13,-,-,-
Y2-S2-007K22,6,577,PS,intra_train,37,←,left,←,1.8627040998544544,True,13,-,-,-
Y2-S2-007K22,6,578,PS,intra_train,34,↓,no_key,no_letter,-1.0,False,13,-,-,-
Y2-S2-007K22,6,579,PS,intra_train,35,↑,down,↓,1.409757300047204,False,13,-,-,-
Y2-S2-007K22,6,580,PS,exp,50,←,no_key,no_letter,-1.0,False,9,-1,0,0
Y2-S2-007K22,6,581,PS,exp,41,↑,right,→,0.6832380001433194,False,10,-1,0,0
Y2-S2-007K22,6,582,PS,exp,33,↓,down,↓,0.5605614001397043,True,11,-1,0,0
Y2-S2-007K22,6,583,PS,exp,44,→,down,↓,0.6473813999909908,False,11,-1,0,0
Y2-S2-007K22,6,584,PS,exp,39,←,no_key,no_letter,-1.0,False,12,-1,0,0
Y2-S2-007K22,6,585,PS,exp,34,↑,no_key,no_letter,-1.0,False,13,-1,0,0
Y2-S2-007K22,6,586,PS,exp,33,←,no_key,no_letter,-1.0,False,14,-1,0,0
Y2-S2-007K22,6,587,PS,exp,33,↓,right,→,1.4665886999573559,False,15,-1,0,0
Y2-S2-007K22,6,588,PS,exp,47,→,no_key,no_letter,-1.0,False,16,-1,0,0
Y2-S2-007K22,6,589,PS,exp,46,←,left,←,0.7894986998289824,True,17,-1,0,0
Y2-S2-007K22,6,590,PS,exp,41,↑,no_key,no_letter,-1.0,False,17,-1,0,0
Y2-S2-007K22,6,591,PS,exp,25,↓,down,↓,1.2464487999677658,True,18,-1,0,0
Y2-S2-007K22,6,592,PS,exp,47,↑,down,↓,0.5347420000471175,False,18,-1,0,0
Y2-S2-007K22,6,593,PS,exp,45,→,up,↑,0.8669503000564873,False,19,-1,0,0
Y2-S2-007K22,6,594,PS,exp,50,↑,up,↑,0.5010494999587536,True,20,-1,0,0
Y2-S2-007K22,6,595,PS,exp,34,←,left,←,1.4254240998998284,True,20,-1,0,0
Y2-S2-007K22,6,596,PS,exp,30,→,right,→,0.9597425998654217,True,20,1,1,1
Y2-S2-007K22,6,597,PS,exp,43,↓,down,↓,0.5365464999340475,True,19,1,0,1
Y2-S2-007K22,6,598,PS,exp,37,→,right,→,0.8604615998920053,True,19,1,0,1
Y2-S2-007K22,6,599,PS,exp,33,↑,up,↑,0.5102687000762671,True,19,1,0,1
Y2-S2-007K22,6,600,PS,exp,48,↓,down,↓,0.8251203000545502,True,18,1,0,1
Y2-S2-007K22,6,601,PS,exp,39,↑,up,↑,0.9543262000661343,True,18,1,0,1
Y2-S2-007K22,6,602,PS,exp,28,←,down,↓,0.2678227999713272,False,18,-1,1,2
Y2-S2-007K22,6,603,PS,exp,28,↑,up,↑,0.6307119000703096,True,19,-1,0,2
Y2-S2-007K22,6,604,PS,exp,35,↓,down,↓,0.5364049999043345,True,19,-1,0,2
Y2-S2-007K22,6,605,PS,exp,26,→,left,←,1.3636149000376463,False,19,-1,0,2
Y2-S2-007K22,6,606,PS,exp,47,←,left,←,0.3838886001612991,True,20,-1,0,2
Y2-S2-007K22,6,607,PS,exp,28,↑,right,→,1.2788311999756843,False,20,-1,0,2
Y2-S2-007K22,6,608,PS,exp,44,↓,down,↓,0.5653431999962777,True,21,-1,0,2
Y2-S2-007K22,6,609,PS,exp,42,→,right,→,1.341406000079587,True,21,-1,0,2
Y2-S2-007K22,6,610,PS,exp,31,↓,no_key,no_letter,-1.0,False,21,-1,0,2
Y2-S2-007K22,6,611,PS,exp,39,←,right,→,1.034589999821037,False,22,-1,0,2
Y2-S2-007K22,6,612,PS,exp,49,→,down,↓,0.01766510005109012,False,23,-1,0,2
Y2-S2-007K22,6,613,PS,exp,47,←,no_key,no_letter,-1.0,False,24,-1,0,2
Y2-S2-007K22,6,614,PS,exp,40,↑,right,→,1.0669633999932557,False,25,-1,0,2
Y2-S2-007K22,6,615,PS,exp,50,→,no_key,no_letter,-1.0,False,26,-1,0,2
Y2-S2-007K22,6,616,PS,exp,29,←,down,↓,0.08464289992116392,False,27,-1,0,2
Y2-S2-007K22,6,617,PS,exp,39,↓,right,→,0.9342557000927627,False,28,-1,0,2
Y2-S2-007K22,6,618,PS,exp,50,↑,right,→,0.8648190998937935,False,29,-1,0,2
Y2-S2-007K22,6,619,PS,exp,46,→,right,→,0.10094959987327456,True,30,-1,0,2
Y2-S2-007K22,6,620,PS,exp,50,←,left,←,1.0755296000279486,True,30,-1,0,2
Y2-S2-007K22,6,621,PS,exp,38,↓,down,↓,1.2704264000058174,True,30,1,1,3
Y2-S2-007K22,6,622,PS,exp,45,←,left,←,0.835693100001663,True,29,1,0,3
Y2-S2-007K22,6,623,PS,exp,44,↓,down,↓,0.6006986000575125,True,29,1,0,3
Y2-S2-007K22,6,624,PS,exp,36,←,left,←,0.85434850002639,True,29,1,0,3
Y2-S2-007K22,6,625,PS,exp,43,↑,up,↑,0.5506441001780331,True,28,1,0,3
Y2-S2-007K22,6,626,PS,exp,48,←,down,↓,1.0714350999332964,False,28,-1,1,4
Y2-S2-007K22,6,627,PS,exp,46,↑,no_key,no_letter,-1.0,False,29,-1,0,4
Y2-S2-007K22,6,628,PS,exp,47,↓,right,→,0.317956899991259,False,30,-1,0,4
Y2-S2-007K22,6,629,PS,exp,28,→,down,↓,0.10111339995637536,False,31,-1,0,4
Y2-S2-007K22,6,630,PS,exp,34,↓,down,↓,0.5840473000425845,True,32,-1,0,4
Y2-S2-007K22,6,631,PS,exp,28,→,right,→,0.500970299821347,True,32,-1,0,4
Y2-S2-007K22,6,632,PS,exp,39,←,up,↑,1.5515574999153614,False,32,-1,0,4
Y2-S2-007K22,6,633,PS,exp,38,↑,up,↑,0.4341994998976588,True,33,-1,0,4
Y2-S2-007K22,6,634,PS,exp,27,→,right,→,0.5506523000076413,True,33,-1,0,4
Y2-S2-007K22,6,635,PS,exp,37,←,up,↑,0.5177952998783439,False,33,-1,0,4
Y2-S2-007K22,6,636,PS,exp,48,↓,down,↓,0.4840686998795718,True,34,-1,0,4
Y2-S2-007K22,6,637,PS,exp,41,←,left,←,0.46770369983278215,True,34,-1,0,4
Y2-S2-007K22,6,638,PS,exp,44,↓,down,↓,0.4010342999827117,True,34,1,1,5
Y2-S2-007K22,6,639,PS,exp,38,↑,up,↑,0.5011362999211997,True,33,1,0,5
Y2-S2-007K22,6,640,PS,exp,48,→,right,→,0.4171766000799835,True,33,1,0,5
Y2-S2-007K22,6,641,PS,exp,28,↓,down,↓,0.7359416999388486,True,33,1,0,5
Y2-S2-007K22,6,642,PS,exp,45,↑,up,↑,0.6340623998548836,True,32,1,0,5
Y2-S2-007K22,6,643,PS,exp,29,→,right,→,0.5340227999258786,True,32,1,0,5
Y2-S2-007K22,6,644,PS,exp,31,↑,up,↑,0.5337702999822795,True,32,1,0,5
Y2-S2-007K22,6,645,PS,exp,36,→,right,→,0.8486900001298636,True,31,1,0,5
Y2-S2-007K22,6,646,PS,exp,45,↑,up,↑,2.0938317000400275,True,31,1,0,5
Y2-S2-007K22,6,647,PS,exp,45,→,right,→,0.6338074000086635,True,31,1,0,5
Y2-S2-007K22,6,648,PS,exp,42,←,left,←,0.48384390003047884,True,30,1,0,5
Y2-S2-007K22,6,649,PS,exp,49,→,right,→,0.46763459988869727,True,30,1,0,5
Y2-S2-007K22,6,650,PS,exp,25,↓,down,↓,0.5339263000059873,True,30,1,0,5
Y2-S2-007K22,6,651,PS,exp,30,←,left,←,0.4344011000357568,True,29,1,0,5
Y2-S2-007K22,6,652,PS,exp,28,→,right,→,0.5505071000661701,True,29,1,0,5
Y2-S2-007K22,6,653,PS,exp,47,↑,up,↑,0.550684800138697,True,29,1,0,5
Y2-S2-007K22,6,654,PS,exp,29,↓,down,↓,0.5006824000738561,True,28,1,0,5
Y2-S2-007K22,6,655,PS,exp,25,↑,up,↑,0.4837728999555111,True,28,1,0,5
Y2-S2-007K22,6,656,PS,exp,42,←,left,←,0.5008272000122815,True,28,1,0,5
Y2-S2-007K22,6,657,PS,exp,41,↓,down,↓,0.4841310998890549,True,27,1,0,5
Y2-S2-007K22,6,658,PS,exp,43,↑,up,↑,0.6753840998280793,True,27,1,0,5
Y2-S2-007K22,6,659,PS,exp,25,↓,down,↓,0.8054667999967933,True,27,1,0,5
Y2-S2-007K22,6,660,PS,exp,35,←,left,←,0.5339449001476169,True,26,1,0,5
Y2-S2-007K22,6,661,PS,exp,35,↑,up,↑,0.7129401001147926,True,26,1,0,5
Y2-S2-007K22,6,662,PS,exp,34,↓,down,↓,0.7204146001022309,True,26,1,0,5
Y2-S2-007K22,6,663,PS,exp,49,←,left,←,0.4004356001969427,True,25,1,0,5
Y2-S2-007K22,6,664,PS,exp,44,↑,up,↑,0.6425052001141012,True,25,1,0,5
Y2-S2-007K22,6,665,PS,exp,34,↓,down,↓,0.6988216999452561,True,25,1,0,5
Y2-S2-007K22,6,666,PS,exp,25,←,left,←,0.6001232999842614,True,24,1,0,5
Y2-S2-007K22,6,667,PS,exp,30,↑,up,↑,0.4839335000142455,True,24,1,0,5
Y2-S2-007K22,6,668,PS,exp,42,→,left,←,0.35113710002042353,False,24,-1,1,6
Y2-S2-007K22,6,669,PS,exp,26,←,right,→,0.4172240998595953,False,25,-1,0,6
Y2-S2-007K22,6,670,PS,exp,25,→,right,→,0.4669822999276221,True,26,-1,0,6
Y2-S2-007K22,6,671,PS,exp,50,↑,up,↑,0.4670504000969231,True,26,-1,0,6
Y2-S2-007K22,6,672,PS,exp,34,→,right,→,0.5337769999168813,True,26,1,1,7
Y2-S2-007K22,6,673,PS,exp,31,↓,down,↓,0.7814585000742227,True,25,1,0,7
Y2-S2-007K22,6,674,PS,exp,25,→,right,→,0.6601411001756787,True,25,1,0,7
Y2-S2-007K22,6,675,PS,exp,49,↑,up,↑,0.45046569989062846,True,25,1,0,7
Y2-S2-007K22,6,676,PS,exp,48,↓,down,↓,0.621395800029859,True,24,1,0,7
Y2-S2-007K22,6,677,PS,exp,30,←,left,←,0.8164642001502216,True,24,1,0,7
Y2-S2-007K22,6,678,PS,exp,36,→,right,→,0.4170293000061065,True,24,1,0,7
Y2-S2-007K22,6,679,PS,exp,28,←,left,←,0.4174430000130087,True,23,1,0,7
Y2-S2-007K22,6,680,PS,exp,42,↓,down,↓,0.619551100069657,True,23,1,0,7
Y2-S2-007K22,6,681,PS,exp,29,↑,up,↑,0.4671611001249403,True,23,1,0,7
Y2-S2-007K22,6,682,PS,exp,36,←,left,←,0.4338739002123475,True,22,1,0,7
Y2-S2-007K22,6,683,PS,exp,39,→,right,→,0.5468051999341697,True,22,1,0,7
Y2-S2-007K22,6,684,PS,exp,39,↑,up,↑,1.2368105000350624,True,22,1,0,7
Y2-S2-007K22,6,685,PS,exp,30,←,left,←,0.5849276999942958,True,21,1,0,7
Y2-S2-007K22,6,686,PS,exp,27,→,right,→,0.7313228000421077,True,21,1,0,7
Y2-S2-007K22,6,687,PS,exp,26,←,left,←,0.46733530005440116,True,21,1,0,7
Y2-S2-007K22,6,688,PS,exp,28,→,right,→,0.4341425998136401,True,20,1,0,7
Y2-S2-007K22,6,689,PS,exp,27,↓,down,↓,0.5646642001811415,True,20,1,0,7
Y2-S2-007K22,6,690,PS,exp,38,↑,up,↑,1.4725426000077277,True,20,1,0,7
Y2-S2-007K22,6,691,PS,exp,26,←,left,←,0.43419669987633824,True,19,1,0,7
Y2-S2-007K22,6,692,PS,exp,32,→,right,→,0.5377563999500126,True,19,1,0,7
Y2-S2-007K22,6,693,PS,exp,43,←,left,←,0.6369298999197781,True,19,1,0,7
Y2-S2-007K22,6,694,PS,exp,32,↑,up,↑,0.4901057998649776,True,18,1,0,7
Y2-S2-007K22,6,695,PS,exp,26,→,right,→,0.5378900999203324,True,18,1,0,7
Y2-S2-007K22,6,696,PS,exp,44,↑,up,↑,0.5005866999272257,True,18,1,0,7
Y2-S2-007K22,6,697,PS,exp,36,→,right,→,0.8042421001009643,True,17,1,0,7
Y2-S2-007K22,6,698,PS,exp,34,←,left,←,0.6482440999243408,True,17,1,0,7
Y2-S2-007K22,6,699,PS,exp,29,↓,down,↓,0.6176447998732328,True,17,1,0,7
Y2-S2-007K22,6,700,PS,exp,32,→,right,→,1.9021882000379264,True,16,1,0,7
Y2-S2-007K22,6,701,PS,exp,43,↓,down,↓,0.5203728000633419,True,16,1,0,7
Y2-S2-007K22,6,702,PS,exp,41,↑,up,↑,0.4829524999950081,True,16,1,0,7
Y2-S2-007K22,6,703,PS,exp,49,↓,down,↓,0.4575511999428272,True,15,1,0,7
Y2-S2-007K22,6,704,PS,exp,31,→,up,↑,0.7569313000421971,False,15,-1,1,8
Y2-S2-007K22,6,705,PS,exp,27,↑,up,↑,0.498147799866274,True,16,-1,0,8
Y2-S2-007K22,6,706,PS,exp,27,↓,down,↓,0.6256023000460118,True,16,-1,0,8
Y2-S2-007K22,6,707,PS,exp,25,←,right,→,0.8027660001534969,False,16,-1,0,8
Y2-S2-007K22,6,708,PS,exp,38,↓,down,↓,0.5460626999847591,True,17,-1,0,8
Y2-S2-007K22,6,709,PS,exp,48,←,left,←,0.4789811000227928,True,17,-1,0,8
Y2-S2-007K22,6,710,PS,exp,50,↑,no_key,no_letter,-1.0,False,17,-1,0,8
Y2-S2-007K22,6,711,PS,exp,32,←,right,→,0.8701212999876589,False,18,-1,0,8
Y2-S2-007K22,6,712,PS,exp,35,↓,left,←,0.9657354999799281,False,19,-1,0,8
Y2-S2-007K22,6,713,PS,exp,27,→,right,→,0.6110352000687271,True,20,-1,0,8
Y2-S2-007K22,6,714,PS,exp,50,↓,down,↓,0.5548323001712561,True,20,-1,0,8
Y2-S2-007K22,6,715,PS,exp,49,→,right,→,0.40084909996949136,True,20,1,1,9
Y2-S2-007K22,6,716,PS,exp,34,←,left,←,0.4336314999964088,True,19,1,0,9
Y2-S2-007K22,6,717,PS,exp,44,→,right,→,0.6681894999928772,True,19,1,0,9
Y2-S2-007K22,6,718,PS,exp,40,←,left,←,0.38380259997211397,True,19,1,0,9
Y2-S2-007K22,6,719,PS,exp,50,↑,up,↑,0.41739209997467697,True,18,1,0,9
Y2-S2-007K22,6,720,PS,exp,38,↓,down,↓,0.43408669997006655,True,18,1,0,9
Y2-S2-007K22,6,721,PS,exp,36,→,no_key,no_letter,-1.0,False,18,-1,1,10
Y2-S2-007K22,6,722,PS,exp,49,←,left,←,0.4506536000408232,True,19,-1,0,10
Y2-S2-007K22,6,723,PS,exp,35,→,right,→,0.33406729996204376,True,19,-1,0,10
Y2-S2-007K22,6,724,PS,exp,43,←,left,←,0.5110280001536012,True,19,1,1,11
Y2-S2-007K22,6,725,PS,exp,47,↑,up,↑,0.48003029986284673,True,18,1,0,11
Y2-S2-007K22,6,726,PS,exp,31,←,left,←,0.5409446000121534,True,18,1,0,11
Y2-S2-007K22,6,727,PS,exp,47,→,right,→,0.4936234999913722,True,18,1,0,11
Y2-S2-007K22,6,728,PS,exp,38,←,left,←,0.3675476999487728,True,17,1,0,11
Y2-S2-007K22,6,729,PS,exp,46,↓,down,↓,0.3342401999980211,True,17,1,0,11
Y2-S2-007K22,6,730,PS,exp,41,←,left,←,1.1204589998815209,True,17,1,0,11
Y2-S2-007K22,6,731,PS,exp,49,↑,up,↑,0.5475682998076081,True,16,1,0,11
Y2-S2-007K22,6,732,PS,exp,28,←,left,←,0.5454395997803658,True,16,1,0,11
Y2-S2-007K22,6,733,PS,exp,33,↓,down,↓,0.6081507001072168,True,16,1,0,11
Y2-S2-007K22,6,734,PS,exp,46,←,left,←,0.3839137000031769,True,15,1,0,11
Y2-S2-007K22,6,735,PS,exp,35,↑,up,↑,0.501080899965018,True,15,1,0,11
Y2-S2-007K22,6,736,PS,exp,36,←,left,←,0.46435769996605814,True,15,1,0,11
Y2-S2-007K22,6,737,PS,exp,38,↑,up,↑,1.2149245000910014,True,14,1,0,11
Y2-S2-007K22,6,738,PS,exp,26,→,right,→,0.9356133998371661,True,14,1,0,11
Y2-S2-007K22,6,739,PS,exp,50,↑,up,↑,0.9942437000572681,True,14,1,0,11
Y2-S2-007K22,6,740,PS,exp,42,←,left,←,0.7089722999371588,True,13,1,0,11
Y2-S2-007K22,6,741,PS,exp,41,→,right,→,0.48989750002510846,True,13,1,0,11
Y2-S2-007K22,6,742,PS,exp,48,←,left,←,0.8716196999885142,True,13,1,0,11
Y2-S2-007K22,6,743,PS,exp,37,↑,up,↑,0.5995296998880804,True,12,1,0,11
Y2-S2-007K22,6,744,PS,exp,50,↓,down,↓,0.7661784999072552,True,12,1,0,11
Y2-S2-007K22,6,745,PS,exp,40,↑,up,↑,0.8113428000360727,True,12,1,0,11
Y2-S2-007K22,6,746,PS,exp,27,→,right,→,0.5620889000128955,True,11,1,0,11
Y2-S2-007K22,6,747,PS,exp,49,←,left,←,0.5498363999649882,True,11,1,0,11
Y2-S2-007K22,6,748,PS,exp,36,→,right,→,0.48116490012034774,True,11,1,0,11
Y2-S2-007K22,6,749,PS,exp,37,↓,left,←,0.8436423998791724,False,10,-1,1,12
Y2-S2-007K22,6,750,PS,exp,25,←,right,→,0.6328902998939157,False,11,-1,0,12
Y2-S2-007K22,6,751,PS,exp,50,↑,up,↑,0.4698172998614609,True,12,-1,0,12
Y2-S2-007K22,6,752,PS,exp,50,←,left,←,0.5203578998334706,True,12,-1,0,12
Y2-S2-007K22,6,753,PS,exp,38,↓,down,↓,0.5606670998968184,True,12,1,1,13
Y2-S2-007K22,6,754,PS,exp,50,←,left,←,0.7337745002005249,True,11,1,0,13
Y2-S2-007K22,6,755,PS,exp,30,↓,down,↓,0.5835120000410825,True,11,1,0,13
Y2-S2-007K22,6,756,PS,exp,25,←,left,←,0.5054469001479447,True,11,1,0,13
Y2-S2-007K22,6,757,PS,exp,25,↓,down,↓,0.5761643999721855,True,10,1,0,13
Y2-S2-007K22,6,758,PS,exp,28,←,right,→,0.733770500170067,False,10,-1,1,14
Y2-S2-007K22,6,759,PS,exp,44,↑,up,↑,0.6615019999444485,True,11,-1,0,14
Y2-S2-007K22,6,760,PS,exp,35,↓,down,↓,0.3905991001520306,True,11,-1,0,14
Y2-S2-007K22,6,761,PS,exp,29,↑,down,↓,0.7298689999151975,False,11,-1,0,14
Y2-S2-007K22,6,762,PS,exp,47,←,left,←,0.5710583999752998,True,12,-1,0,14
Y2-S2-007K22,6,763,PS,exp,32,→,right,→,0.6192705000285059,True,12,-1,0,14
Y2-S2-007K22,6,764,PS,exp,37,↑,up,↑,0.4873505998402834,True,12,1,1,15
Y2-S2-007K22,6,765,PS,exp,32,↓,right,→,0.5584906998556107,False,11,-1,1,16
Y2-S2-007K22,7,766,PS,intra_train,50,←,left,←,0.4731099000200629,True,13,-,-,-
Y2-S2-007K22,7,767,PS,intra_train,25,↓,right,→,0.3505658998619765,False,13,-,-,-
Y2-S2-007K22,7,768,PS,intra_train,37,→,right,→,0.4303618997801095,True,13,-,-,-
Y2-S2-007K22,7,769,PS,intra_train,25,←,left,←,0.43888260005041957,True,13,-,-,-
Y2-S2-007K22,7,770,PS,intra_train,34,↓,down,↓,0.40188499982468784,True,13,-,-,-
Y2-S2-007K22,7,771,PS,exp,49,←,left,←,0.45320720016025007,True,9,0,0,0
Y2-S2-007K22,7,772,PS,exp,44,↓,down,↓,0.6230534000787884,True,9,0,0,0
Y2-S2-007K22,7,773,PS,exp,41,↑,right,→,0.571318699978292,False,9,-1,0,0
Y2-S2-007K22,7,774,PS,exp,25,↓,down,↓,0.8124720000196248,True,10,-1,0,0
Y2-S2-007K22,7,775,PS,exp,31,↑,up,↑,0.4852935001254082,True,10,-1,0,0
Y2-S2-007K22,7,776,PS,exp,47,→,left,←,0.7315933001227677,False,10,-1,0,0
Y2-S2-007K22,7,777,PS,exp,29,←,right,→,0.6021273001097143,False,11,-1,0,0
Y2-S2-007K22,7,778,PS,exp,33,→,right,→,0.5115288000088185,True,12,-1,0,0
Y2-S2-007K22,7,779,PS,exp,47,↑,up,↑,0.6452139001339674,True,12,-1,0,0
Y2-S2-007K22,7,780,PS,exp,38,←,left,←,0.5428318998310715,True,12,1,1,1
Y2-S2-007K22,7,781,PS,exp,26,↓,down,↓,0.6660182001069188,True,11,1,0,1
Y2-S2-007K22,7,782,PS,exp,48,→,right,→,0.5545268000569195,True,11,1,0,1
Y2-S2-007K22,7,783,PS,exp,27,↓,left,←,0.8363336999900639,False,11,-1,1,2
Y2-S2-007K22,7,784,PS,exp,38,←,left,←,0.4597730999812484,True,12,-1,0,2
Y2-S2-007K22,7,785,PS,exp,27,↑,no_key,no_letter,-1.0,False,12,-1,0,2
Y2-S2-007K22,7,786,PS,exp,36,←,right,→,0.8159360000863671,False,13,-1,0,2
Y2-S2-007K22,7,787,PS,exp,30,↓,down,↓,0.5380061999894679,True,14,-1,0,2
Y2-S2-007K22,7,788,PS,exp,50,←,no_key,no_letter,-1.0,False,14,-1,0,2
Y2-S2-007K22,7,789,PS,exp,42,↑,down,↓,0.7010745001025498,False,15,-1,0,2
Y2-S2-007K22,7,790,PS,exp,49,→,right,→,0.5429760001134127,True,16,-1,0,2
Y2-S2-007K22,7,791,PS,exp,31,↑,left,←,1.4586535000707954,False,16,-1,0,2
Y2-S2-007K22,7,792,PS,exp,39,→,left,←,0.7420370001345873,False,17,-1,0,2
Y2-S2-007K22,7,793,PS,exp,34,↓,right,→,1.486027899896726,False,18,-1,0,2
Y2-S2-007K22,7,794,PS,exp,29,→,right,→,0.5976287999656051,True,19,-1,0,2
Y2-S2-007K22,7,795,PS,exp,50,↓,no_key,no_letter,-1.0,False,19,-1,0,2
Y2-S2-007K22,7,796,PS,exp,29,←,right,→,0.9232365000061691,False,20,-1,0,2
Y2-S2-007K22,7,797,PS,exp,26,↑,left,←,0.4340240000747144,False,21,-1,0,2
Y2-S2-007K22,7,798,PS,exp,50,↓,no_key,no_letter,-1.0,False,22,-1,0,2
Y2-S2-007K22,7,799,PS,exp,41,←,left,←,0.604497600113973,True,23,-1,0,2
Y2-S2-007K22,7,800,PS,exp,43,→,right,→,0.45046560000628233,True,23,-1,0,2
Y2-S2-007K22,7,801,PS,exp,37,←,right,→,0.4835939002223313,False,23,-1,0,2
Y2-S2-007K22,7,802,PS,exp,27,↓,down,↓,0.46732429997064173,True,24,-1,0,2
Y2-S2-007K22,7,803,PS,exp,30,↑,up,↑,0.45070200017653406,True,24,-1,0,2
Y2-S2-007K22,7,804,PS,exp,34,←,left,←,0.4336899998597801,True,24,1,1,3
Y2-S2-007K22,7,805,PS,exp,37,↓,no_key,no_letter,-1.0,False,23,-1,1,4
Y2-S2-007K22,7,806,PS,exp,33,→,right,→,1.8578385999426246,True,24,-1,0,4
Y2-S2-007K22,7,807,PS,exp,32,↑,right,→,0.1840707000810653,False,24,-1,0,4
Y2-S2-007K22,7,808,PS,exp,39,→,no_key,no_letter,-1.0,False,25,-1,0,4
Y2-S2-007K22,7,809,PS,exp,48,↓,right,→,0.4837652000132948,False,26,-1,0,4
Y2-S2-007K22,7,810,PS,exp,32,→,right,→,0.6622417999897152,True,27,-1,0,4
Y2-S2-007K22,7,811,PS,exp,36,↓,down,↓,0.6652235998772085,True,27,-1,0,4
Y2-S2-007K22,7,812,PS,exp,37,→,no_key,no_letter,-1.0,False,27,-1,0,4
Y2-S2-007K22,7,813,PS,exp,35,↑,no_key,no_letter,-1.0,False,28,-1,0,4
Y2-S2-007K22,7,814,PS,exp,26,↓,right,→,0.18435529991984367,False,29,-1,0,4
Y2-S2-007K22,7,815,PS,exp,25,←,left,←,0.45111060002818704,True,30,-1,0,4
Y2-S2-007K22,7,816,PS,exp,31,→,right,→,1.2733191000297666,True,30,-1,0,4
Y2-S2-007K22,7,817,PS,exp,50,←,left,←,0.6173101000022143,True,30,1,1,5
Y2-S2-007K22,7,818,PS,exp,43,↑,no_key,no_letter,-1.0,False,29,-1,1,6
Y2-S2-007K22,7,819,PS,exp,31,←,right,→,1.9779592000413686,False,30,-1,0,6
Y2-S2-007K22,7,820,PS,exp,39,↓,down,↓,0.6339043001644313,True,31,-1,0,6
Y2-S2-007K22,7,821,PS,exp,34,←,left,←,0.40130849997512996,True,31,-1,0,6
Y2-S2-007K22,7,822,PS,exp,29,→,right,→,0.4179932998958975,True,31,1,1,7
Y2-S2-007K22,7,823,PS,exp,38,←,left,←,0.4176614999305457,True,30,1,0,7
Y2-S2-007K22,7,824,PS,exp,35,→,right,→,0.5006520999595523,True,30,1,0,7
Y2-S2-007K22,7,825,PS,exp,37,←,left,←,0.4344222000800073,True,30,1,0,7
Y2-S2-007K22,7,826,PS,exp,26,↓,down,↓,0.5005809001158923,True,29,1,0,7
Y2-S2-007K22,7,827,PS,exp,38,↑,up,↑,0.6751042001415044,True,29,1,0,7
Y2-S2-007K22,7,828,PS,exp,38,↓,down,↓,0.5006246999837458,True,29,1,0,7
Y2-S2-007K22,7,829,PS,exp,35,←,left,←,0.5173152999486774,True,28,1,0,7
Y2-S2-007K22,7,830,PS,exp,35,→,left,←,0.5336005000863224,False,28,-1,1,8
Y2-S2-007K22,7,831,PS,exp,30,←,left,←,1.5466018000151962,True,29,-1,0,8
Y2-S2-007K22,7,832,PS,exp,48,↑,up,↑,0.48415989987552166,True,29,-1,0,8
Y2-S2-007K22,7,833,PS,exp,41,→,right,→,0.45095900003798306,True,29,1,1,9
Y2-S2-007K22,7,834,PS,exp,45,↑,up,↑,0.5503037997987121,True,28,1,0,9
Y2-S2-007K22,7,835,PS,exp,49,→,right,→,0.4670774000696838,True,28,1,0,9
Y2-S2-007K22,7,836,PS,exp,33,↓,down,↓,0.5670327001716942,True,28,1,0,9
Y2-S2-007K22,7,837,PS,exp,34,→,right,→,0.43372490000911057,True,27,1,0,9
Y2-S2-007K22,7,838,PS,exp,45,←,left,←,0.43403780017979443,True,27,1,0,9
Y2-S2-007K22,7,839,PS,exp,34,→,right,→,0.417490900028497,True,27,1,0,9
Y2-S2-007K22,7,840,PS,exp,36,↑,up,↑,0.43393529998138547,True,26,1,0,9
Y2-S2-007K22,7,841,PS,exp,38,↓,down,↓,0.5673697001766413,True,26,1,0,9
Y2-S2-007K22,7,842,PS,exp,35,→,right,→,1.1974204999860376,True,26,1,0,9
Y2-S2-007K22,7,843,PS,exp,50,↑,up,↑,0.5508092001546174,True,25,1,0,9
Y2-S2-007K22,7,844,PS,exp,47,→,right,→,0.4334754999727011,True,25,1,0,9
Y2-S2-007K22,7,845,PS,exp,48,↓,down,↓,1.2906360002234578,True,25,1,0,9
Y2-S2-007K22,7,846,PS,exp,32,←,left,←,0.4507071999832988,True,24,1,0,9
Y2-S2-007K22,7,847,PS,exp,42,→,right,→,0.4504799998831004,True,24,1,0,9
Y2-S2-007K22,7,848,PS,exp,32,↓,down,↓,0.4341609999537468,True,24,1,0,9
Y2-S2-007K22,7,849,PS,exp,30,→,right,→,0.46731740003451705,True,23,1,0,9
Y2-S2-007K22,7,850,PS,exp,44,↓,down,↓,0.45061239995993674,True,23,1,0,9
Y2-S2-007K22,7,851,PS,exp,32,→,right,→,0.572744800010696,True,23,1,0,9
Y2-S2-007K22,7,852,PS,exp,28,↑,up,↑,0.5712959000375122,True,22,1,0,9
Y2-S2-007K22,7,853,PS,exp,25,←,left,←,0.334096800070256,True,22,1,0,9
Y2-S2-007K22,7,854,PS,exp,50,↑,up,↑,0.5774316000752151,True,22,1,0,9
Y2-S2-007K22,7,855,PS,exp,50,→,right,→,0.450232399860397,True,21,1,0,9
Y2-S2-007K22,7,856,PS,exp,48,↓,down,↓,1.0821826998144388,True,21,1,0,9
Y2-S2-007K22,7,857,PS,exp,44,↑,up,↑,0.4176180998329073,True,21,1,0,9
Y2-S2-007K22,7,858,PS,exp,33,→,right,→,0.46750420005992055,True,20,1,0,9
Y2-S2-007K22,7,859,PS,exp,39,↓,left,←,0.33398939995095134,False,20,-1,1,10
Y2-S2-007K22,7,860,PS,exp,39,←,left,←,1.078630100004375,True,21,-1,0,10
Y2-S2-007K22,7,861,PS,exp,49,↓,down,↓,0.28459039982408285,True,21,-1,0,10
Y2-S2-007K22,7,862,PS,exp,49,→,right,→,0.4336517001502216,True,21,1,1,11
Y2-S2-007K22,7,863,PS,exp,32,↑,up,↑,0.5832239999435842,True,20,1,0,11
Y2-S2-007K22,7,864,PS,exp,45,→,right,→,0.4339479999616742,True,20,1,0,11
Y2-S2-007K22,7,865,PS,exp,37,↓,down,↓,1.1422056998126209,True,20,1,0,11
Y2-S2-007K22,7,866,PS,exp,34,→,right,→,0.5399945999961346,True,19,1,0,11
Y2-S2-007K22,7,867,PS,exp,29,↑,up,↑,1.013877599965781,True,19,1,0,11
Y2-S2-007K22,7,868,PS,exp,34,↓,down,↓,1.9171243000309914,True,19,1,0,11
Y2-S2-007K22,7,869,PS,exp,48,→,right,→,0.43379030004143715,True,18,1,0,11
Y2-S2-007K22,7,870,PS,exp,32,↑,left,←,0.35046570003032684,False,18,-1,1,12
Y2-S2-007K22,7,871,PS,exp,26,↓,down,↓,0.499179600039497,True,19,-1,0,12
Y2-S2-007K22,7,872,PS,exp,48,→,right,→,0.4338694999460131,True,19,-1,0,12
Y2-S2-007K22,7,873,PS,exp,37,←,left,←,0.41734919999726117,True,19,1,1,13
Y2-S2-007K22,7,874,PS,exp,33,↓,down,↓,0.48702059988863766,True,18,1,0,13
Y2-S2-007K22,7,875,PS,exp,38,→,right,→,0.4713137000799179,True,18,1,0,13
Y2-S2-007K22,7,876,PS,exp,28,↑,right,→,0.8316910997964442,False,18,-1,1,14
Y2-S2-007K22,7,877,PS,exp,32,←,left,←,0.31732930010184646,True,19,-1,0,14
Y2-S2-007K22,7,878,PS,exp,45,↑,right,→,0.3506323001347482,False,19,-1,0,14
Y2-S2-007K22,7,879,PS,exp,38,←,left,←,0.450676399981603,True,20,-1,0,14
Y2-S2-007K22,7,880,PS,exp,37,→,right,→,0.4674165998585522,True,20,-1,0,14
Y2-S2-007K22,7,881,PS,exp,50,←,left,←,0.4673448000103235,True,20,1,1,15
Y2-S2-007K22,7,882,PS,exp,41,→,right,→,0.48392000002786517,True,19,1,0,15
Y2-S2-007K22,7,883,PS,exp,26,↑,up,↑,0.4505862998776138,True,19,1,0,15
Y2-S2-007K22,7,884,PS,exp,41,→,right,→,0.3672499000094831,True,19,1,0,15
Y2-S2-007K22,7,885,PS,exp,50,←,left,←,0.3839058999437839,True,18,1,0,15
Y2-S2-007K22,7,886,PS,exp,42,→,right,→,0.36727990000508726,True,18,1,0,15
Y2-S2-007K22,7,887,PS,exp,38,↑,up,↑,0.5047172999475151,True,18,1,0,15
Y2-S2-007K22,7,888,PS,exp,41,↓,down,↓,0.5325168000999838,True,17,1,0,15
Y2-S2-007K22,7,889,PS,exp,44,←,left,←,1.3879560998175293,True,17,1,0,15
Y2-S2-007K22,7,890,PS,exp,44,→,right,→,0.6788993999361992,True,17,1,0,15
Y2-S2-007K22,7,891,PS,exp,37,↑,left,←,0.969513300107792,False,16,-1,1,16
Y2-S2-007K22,8,892,AS,intra_train,37,←,left,←,0.7880001999437809,True,28,-,-,-
Y2-S2-007K22,8,893,AS,intra_train,45,↑,up,↑,0.5338748001959175,True,28,-,-,-
Y2-S2-007K22,8,894,AS,intra_train,40,→,no_key,no_letter,-1.0,False,28,-,-,-
Y2-S2-007K22,8,895,AS,intra_train,34,↓,down,↓,1.2318949999753386,True,28,-,-,-
Y2-S2-007K22,8,896,AS,intra_train,46,←,left,←,0.46701670018956065,True,28,-,-,-
Y2-S2-007K22,8,897,AS,exp,45,→,right,→,1.249783799983561,True,19,0,0,0
Y2-S2-007K22,8,898,AS,exp,37,↓,down,↓,0.43399279983714223,True,19,0,0,0
Y2-S2-007K22,8,899,AS,exp,34,→,right,→,0.5235217998269945,True,19,1,0,0
Y2-S2-007K22,8,900,AS,exp,49,←,left,←,0.5461369000840932,True,18,1,0,0
Y2-S2-007K22,8,901,AS,exp,38,↑,up,↑,0.6162235999945551,True,18,1,0,0
Y2-S2-007K22,8,902,AS,exp,36,↓,down,↓,0.35044150007888675,True,18,1,0,0
Y2-S2-007K22,8,903,AS,exp,40,→,right,→,0.5324497998226434,True,17,1,0,0
Y2-S2-007K22,8,904,AS,exp,47,↑,up,↑,0.5924618998542428,True,17,1,0,0
Y2-S2-007K22,8,905,AS,exp,27,↓,down,↓,0.6053261000197381,True,17,1,0,0
Y2-S2-007K22,8,906,AS,exp,36,←,right,→,0.8165867000352591,False,16,-1,1,1
Y2-S2-007K22,8,907,AS,exp,36,↓,down,↓,0.5411818998400122,True,17,-1,0,1
Y2-S2-007K22,8,908,AS,exp,29,→,right,→,0.4624584000557661,True,17,-1,0,1
Y2-S2-007K22,8,909,AS,exp,50,↑,right,→,0.4771833000704646,False,17,-1,0,1
Y2-S2-007K22,8,910,AS,exp,45,←,right,→,0.5324167998041958,False,18,-1,0,1
Y2-S2-007K22,8,911,AS,exp,27,↓,down,↓,0.43382610008120537,True,19,-1,0,1
Y2-S2-007K22,8,912,AS,exp,45,→,right,→,0.6116261999122798,True,19,-1,0,1
Y2-S2-007K22,8,913,AS,exp,41,↓,down,↓,0.3847598999273032,True,19,1,1,2
Y2-S2-007K22,8,914,AS,exp,32,←,left,←,0.5607620999217033,True,18,1,0,2
Y2-S2-007K22,8,915,AS,exp,28,↑,up,↑,0.6931779000442475,True,18,1,0,2
Y2-S2-007K22,8,916,AS,exp,36,↓,down,↓,0.5938339000567794,True,18,1,0,2
Y2-S2-007K22,8,917,AS,exp,48,→,right,→,0.49503530003130436,True,17,1,0,2
Y2-S2-007K22,8,918,AS,exp,38,←,left,←,1.3211729999165982,True,17,1,0,2
Y2-S2-007K22,8,919,AS,exp,40,↑,up,↑,0.4173385000322014,True,17,1,0,2
Y2-S2-007K22,8,920,AS,exp,50,←,left,←,0.40068969991989434,True,16,1,0,2
Y2-S2-007K22,8,921,AS,exp,28,→,right,→,0.3840232000220567,True,16,1,0,2
Y2-S2-007K22,8,922,AS,exp,45,←,left,←,0.4918315000832081,True,16,1,0,2
Y2-S2-007K22,8,923,AS,exp,46,↓,down,↓,0.6056103000883013,True,15,1,0,2
Y2-S2-007K22,8,924,AS,exp,35,→,right,→,1.1654412001371384,True,15,1,0,2
Y2-S2-007K22,8,925,AS,exp,37,←,left,←,0.459381400141865,True,15,1,0,2
Y2-S2-007K22,8,926,AS,exp,27,↑,up,↑,1.2075682999566197,True,14,1,0,2
Y2-S2-007K22,8,927,AS,exp,46,→,right,→,0.4475176001433283,True,14,1,0,2
Y2-S2-007K22,8,928,AS,exp,28,↓,down,↓,0.737762900069356,True,14,1,0,2
Y2-S2-007K22,8,929,AS,exp,29,↑,up,↑,0.5600421999115497,True,13,1,0,2
Y2-S2-007K22,8,930,AS,exp,30,↓,down,↓,0.3338293000124395,True,13,1,0,2
Y2-S2-007K22,8,931,AS,exp,44,↑,up,↑,1.1571684998925775,True,13,1,0,2
Y2-S2-007K22,8,932,AS,exp,37,→,right,→,0.6176431998610497,True,12,1,0,2
Y2-S2-007K22,8,933,AS,exp,38,←,left,←,0.45673899981193244,True,12,1,0,2
Y2-S2-007K22,8,934,AS,exp,46,↓,down,↓,0.37162009999156,True,12,1,0,2
Y2-S2-007K22,8,935,AS,exp,37,↑,down,↓,0.9168614998925477,False,11,-1,1,3
Y2-S2-007K22,8,936,AS,exp,48,→,right,→,0.4512894998770207,True,12,-1,0,3
Y2-S2-007K22,8,937,AS,exp,43,←,right,→,0.5946223998907954,False,12,-1,0,3
Y2-S2-007K22,8,938,AS,exp,46,↓,down,↓,0.6953300000168383,True,13,-1,0,3
Y2-S2-007K22,8,939,AS,exp,34,↑,up,↑,0.5530050001107156,True,13,-1,0,3
Y2-S2-007K22,8,940,AS,exp,25,→,right,→,0.6044161000754684,True,13,1,1,4
Y2-S2-007K22,8,941,AS,exp,30,↓,down,↓,0.40407059993594885,True,12,1,0,4
Y2-S2-007K22,8,942,AS,exp,28,←,left,←,0.39431699994020164,True,12,1,0,4
Y2-S2-007K22,8,943,AS,exp,48,→,right,→,0.39682239992544055,True,12,1,0,4
Y2-S2-007K22,8,944,AS,exp,38,↓,down,↓,0.7818890998605639,True,11,1,0,4
Y2-S2-007K22,8,945,AS,exp,48,→,right,→,0.3998482001479715,True,11,1,0,4
Y2-S2-007K22,8,946,AS,exp,46,↓,down,↓,0.49159240000881255,True,11,1,0,4
Y2-S2-007K22,8,947,AS,exp,28,↑,up,↑,0.43703150004148483,True,10,1,0,4
Y2-S2-007K22,8,948,AS,exp,37,←,left,←,0.3597030001692474,True,10,1,0,4
Y2-S2-007K22,8,949,AS,exp,33,↑,up,↑,0.46792809991165996,True,10,1,0,4
Y2-S2-007K22,8,950,AS,exp,40,←,left,←,0.32752640009857714,True,9,1,0,4
Y2-S2-007K22,8,951,AS,exp,29,↑,up,↑,0.45578860002569854,True,9,1,0,4
Y2-S2-007K22,8,952,AS,exp,40,↓,down,↓,0.44731380022130907,True,9,1,0,4
Y2-S2-007K22,8,953,AS,exp,45,←,left,←,0.41315379994921386,True,8,1,0,4
Y2-S2-007K22,8,954,AS,exp,42,↑,up,↑,0.5240342000033706,True,8,1,0,4
Y2-S2-007K22,8,955,AS,exp,32,→,right,→,0.4551466000266373,True,8,1,0,4
Y2-S2-007K22,8,956,AS,exp,39,↓,right,→,0.8347439998760819,False,7,-1,1,5
Y2-S2-007K22,8,957,AS,exp,32,→,up,↑,0.6050966000184417,False,8,-1,0,5
Y2-S2-007K22,8,958,AS,exp,46,↓,down,↓,0.6656592001672834,True,9,-1,0,5
Y2-S2-007K22,8,959,AS,exp,42,↑,up,↑,0.4600347999949008,True,9,-1,0,5
Y2-S2-007K22,8,960,AS,exp,39,←,right,→,0.38674570014700294,False,9,-1,0,5
Y2-S2-007K22,8,961,AS,exp,43,↑,right,→,0.4377674001734704,False,10,-1,0,5
Y2-S2-007K22,8,962,AS,exp,29,↓,down,↓,0.7074179002083838,True,11,-1,0,5
Y2-S2-007K22,8,963,AS,exp,28,←,right,→,0.5814203999470919,False,11,-1,0,5
Y2-S2-007K22,8,964,AS,exp,26,→,right,→,0.3892777001019567,True,12,-1,0,5
Y2-S2-007K22,8,965,AS,exp,26,←,left,←,0.45111020002514124,True,12,-1,0,5
Y2-S2-007K22,8,966,AS,exp,39,↓,down,↓,0.4848156999796629,True,12,1,1,6
Y2-S2-007K22,8,967,AS,exp,34,→,right,→,0.6829898001160473,True,11,1,0,6
Y2-S2-007K22,8,968,AS,exp,45,↓,down,↓,0.5546908997930586,True,11,1,0,6
Y2-S2-007K22,8,969,AS,exp,36,→,left,←,0.5917597999796271,False,11,-1,1,7
Y2-S2-007K22,8,970,AS,exp,34,←,right,→,0.7243417000863701,False,12,-1,0,7
Y2-S2-007K22,8,971,AS,exp,43,↓,up,↑,0.7039582999423146,False,13,-1,0,7
Y2-S2-007K22,8,972,AS,exp,47,←,left,←,0.6488159999717027,True,14,-1,0,7
Y2-S2-007K22,8,973,AS,exp,35,↑,up,↑,0.644700099946931,True,14,-1,0,7
Y2-S2-007K22,8,974,AS,exp,32,→,left,←,0.6015538000501692,False,14,-1,0,7
Y2-S2-007K22,8,975,AS,exp,41,←,left,←,0.615061900112778,True,15,-1,0,7
Y2-S2-007K22,8,976,AS,exp,40,→,right,→,0.6361689001787454,True,15,-1,0,7
Y2-S2-007K22,8,977,AS,exp,32,←,left,←,0.48493029992096126,True,15,1,1,8
Y2-S2-007K22,8,978,AS,exp,38,↑,up,↑,0.8915523998439312,True,14,1,0,8
Y2-S2-007K22,8,979,AS,exp,36,←,right,→,0.3004085998982191,False,14,-1,1,9
Y2-S2-007K22,8,980,AS,exp,46,↑,up,↑,0.4933195998892188,True,15,-1,0,9
Y2-S2-007K22,8,981,AS,exp,25,↓,down,↓,0.8245013998821378,True,15,-1,0,9
Y2-S2-007K22,8,982,AS,exp,44,←,left,←,0.4313982001040131,True,15,1,1,10
Y2-S2-007K22,8,983,AS,exp,44,→,right,→,0.4619236998260021,True,14,1,0,10
Y2-S2-007K22,8,984,AS,exp,44,↑,up,↑,0.4940745998173952,True,14,1,0,10
Y2-S2-007K22,8,985,AS,exp,26,→,right,→,0.6250320000108331,True,14,1,0,10
Y2-S2-007K22,8,986,AS,exp,46,↑,up,↑,0.519010400166735,True,13,1,0,10
Y2-S2-007K22,8,987,AS,exp,25,↓,up,↑,0.6679651997983456,False,13,-1,1,11
Y2-S2-007K22,8,988,AS,exp,28,→,right,→,0.4761935998685658,True,14,-1,0,11
Y2-S2-007K22,8,989,AS,exp,33,↑,up,↑,0.6152234999462962,True,14,-1,0,11
Y2-S2-007K22,8,990,AS,exp,31,←,left,←,0.6487038999330252,True,14,1,1,12
Y2-S2-007K22,8,991,AS,exp,45,→,right,→,0.5164149000775069,True,13,1,0,12
Y2-S2-007K22,8,992,AS,exp,44,↑,up,↑,0.6362394001334906,True,13,1,0,12
Y2-S2-007K22,8,993,AS,exp,40,↓,down,↓,0.6315496999304742,True,13,1,0,12
Y2-S2-007K22,8,994,AS,exp,43,↑,up,↑,0.4146891999989748,True,12,1,0,12
Y2-S2-007K22,8,995,AS,exp,47,→,left,←,0.6219137001316994,False,12,-1,1,13
Y2-S2-007K22,8,996,AS,exp,35,↓,down,↓,0.7080365000292659,True,13,-1,0,13
Y2-S2-007K22,8,997,AS,exp,25,↑,up,↑,0.49383239983581007,True,13,-1,0,13
Y2-S2-007K22,8,998,AS,exp,37,↓,down,↓,0.8335030998568982,True,13,1,1,14
Y2-S2-007K22,8,999,AS,exp,34,↑,up,↑,0.5066273999400437,True,12,1,0,14
Y2-S2-007K22,8,1000,AS,exp,31,↓,down,↓,0.5683417001273483,True,12,1,0,14
Y2-S2-007K22,8,1001,AS,exp,40,←,left,←,0.41142649995163083,True,12,1,0,14
Y2-S2-007K22,8,1002,AS,exp,32,→,left,←,0.5790210000704974,False,11,-1,1,15
Y2-S2-007K22,8,1003,AS,exp,28,↓,down,↓,0.5000444001052529,True,12,-1,0,15
Y2-S2-007K22,8,1004,AS,exp,42,→,right,→,0.5324665999505669,True,12,-1,0,15
Y2-S2-007K22,8,1005,AS,exp,30,←,left,←,0.7121687000617385,True,12,1,1,16
