PART_ID,Block_no,Trial_no,Block_type,Trial_type,CSI,Stim_letter,Key_pressed,letter_choose,Rt,Corr,Stimulus Time,Level,Reversal,Revs_count
Y2-S2-152M20,1,1,PS,train,49,←,right,→,0.6336722001433372,False,30,-,-,-
Y2-S2-152M20,1,2,PS,train,31,→,right,→,0.45106299966573715,True,30,-,-,-
Y2-S2-152M20,1,3,PS,train,28,←,right,→,0.4012582004070282,False,30,-,-,-
Y2-S2-152M20,1,4,PS,train,27,↑,up,↑,0.8115246999077499,True,30,-,-,-
Y2-S2-152M20,1,5,PS,train,35,←,left,←,0.687920100055635,True,30,-,-,-
Y2-S2-152M20,1,6,PS,train,37,→,right,→,0.4178877999074757,True,30,-,-,-
Y2-S2-152M20,1,7,PS,train,43,↓,down,↓,0.7392609999515116,True,30,-,-,-
Y2-S2-152M20,1,8,PS,train,29,→,right,→,0.5338734998367727,True,30,-,-,-
Y2-S2-152M20,1,9,PS,train,37,↓,down,↓,0.7317449003458023,True,30,-,-,-
Y2-S2-152M20,1,10,PS,train,41,↑,up,↑,0.6173793999478221,True,30,-,-,-
Y2-S2-152M20,2,11,AS,train,50,→,right,→,0.8676195000298321,True,45,-,-,-
Y2-S2-152M20,2,12,AS,train,36,↓,down,↓,0.5845162998884916,True,45,-,-,-
Y2-S2-152M20,2,13,AS,train,35,↑,up,↑,0.4340279996395111,True,45,-,-,-
Y2-S2-152M20,2,14,AS,train,31,←,left,←,0.41758259991183877,True,45,-,-,-
Y2-S2-152M20,2,15,AS,train,32,→,right,→,0.7338828998617828,True,45,-,-,-
Y2-S2-152M20,2,16,AS,train,40,↑,up,↑,0.3845677003264427,True,45,-,-,-
Y2-S2-152M20,2,17,AS,train,33,→,right,→,0.6510216998867691,True,45,-,-,-
Y2-S2-152M20,2,18,AS,train,32,↑,up,↑,0.38451380003243685,True,45,-,-,-
Y2-S2-152M20,2,19,AS,train,31,→,right,→,0.5509128998965025,True,45,-,-,-
Y2-S2-152M20,2,20,AS,train,40,←,right,→,0.40099160000681877,False,45,-,-,-
Y2-S2-152M20,-,21,PS,adaptive,50,↑,up,↑,0.6222989996895194,True,10,0,0,0
Y2-S2-152M20,-,22,PS,adaptive,30,→,up,↑,0.9475948000326753,False,10,-1,0,0
Y2-S2-152M20,-,23,PS,adaptive,39,↑,up,↑,0.4102215999737382,True,11,-1,0,0
Y2-S2-152M20,-,24,PS,adaptive,45,↓,down,↓,0.6353520997799933,True,11,-1,0,0
Y2-S2-152M20,-,25,PS,adaptive,39,→,right,→,0.9135934999212623,True,11,1,1,1
Y2-S2-152M20,-,26,PS,adaptive,50,↑,up,↑,0.6270606000907719,True,10,1,0,1
Y2-S2-152M20,-,27,PS,adaptive,44,↓,down,↓,0.5253293002024293,True,10,1,0,1
Y2-S2-152M20,-,28,PS,adaptive,32,←,left,←,0.4174810000695288,True,10,1,0,1
Y2-S2-152M20,-,29,PS,adaptive,35,↓,down,↓,0.40683159977197647,True,9,1,0,1
Y2-S2-152M20,-,30,PS,adaptive,42,←,right,→,0.9323498997837305,False,9,-1,1,2
Y2-S2-152M20,-,31,PS,adaptive,44,↑,up,↑,0.5289075002074242,True,10,-1,0,2
Y2-S2-152M20,-,32,PS,adaptive,35,←,left,←,0.6699993000365794,True,10,-1,0,2
Y2-S2-152M20,-,33,PS,adaptive,44,→,right,→,0.4976701997220516,True,10,1,1,3
Y2-S2-152M20,-,34,PS,adaptive,46,←,right,→,0.5745807997882366,False,9,-1,1,4
Y2-S2-152M20,-,35,AS,adaptive,39,↑,up,↑,0.5638109999708831,True,20,0,0,0
Y2-S2-152M20,-,36,AS,adaptive,50,←,down,↓,0.8109200997278094,False,20,-1,0,0
Y2-S2-152M20,-,37,AS,adaptive,37,→,right,→,0.5991579997353256,True,21,-1,0,0
Y2-S2-152M20,-,38,AS,adaptive,33,↓,down,↓,0.6806328999809921,True,21,-1,0,0
Y2-S2-152M20,-,39,AS,adaptive,49,←,left,←,0.6897559999488294,True,21,1,1,1
Y2-S2-152M20,-,40,AS,adaptive,46,↓,down,↓,0.7032745000906289,True,20,1,0,1
Y2-S2-152M20,-,41,AS,adaptive,27,→,right,→,0.5506493002176285,True,20,1,0,1
Y2-S2-152M20,-,42,AS,adaptive,33,↓,down,↓,0.6052447999827564,True,20,1,0,1
Y2-S2-152M20,-,43,AS,adaptive,32,→,right,→,0.43466769997030497,True,19,1,0,1
Y2-S2-152M20,-,44,AS,adaptive,50,←,left,←,0.6773840999230742,True,19,1,0,1
Y2-S2-152M20,-,45,AS,adaptive,29,↓,down,↓,0.7070827996358275,True,19,1,0,1
Y2-S2-152M20,-,46,AS,adaptive,35,←,left,←,0.7953543001785874,True,18,1,0,1
Y2-S2-152M20,-,47,AS,adaptive,28,↓,down,↓,0.5425526998005807,True,18,1,0,1
Y2-S2-152M20,-,48,AS,adaptive,44,←,left,←,0.5328983999788761,True,18,1,0,1
Y2-S2-152M20,-,49,AS,adaptive,42,→,right,→,0.5694933999329805,True,17,1,0,1
Y2-S2-152M20,-,50,AS,adaptive,37,↓,down,↓,0.5630487003363669,True,17,1,0,1
Y2-S2-152M20,-,51,AS,adaptive,40,→,right,→,0.41745790001004934,True,17,1,0,1
Y2-S2-152M20,-,52,AS,adaptive,34,←,down,↓,0.555016899947077,False,16,-1,1,2
Y2-S2-152M20,-,53,AS,adaptive,38,→,right,→,0.5599789000116289,True,17,-1,0,2
Y2-S2-152M20,-,54,AS,adaptive,43,↓,down,↓,0.5852264002896845,True,17,-1,0,2
Y2-S2-152M20,-,55,AS,adaptive,43,←,left,←,0.7678195000626147,True,17,1,1,3
Y2-S2-152M20,-,56,AS,adaptive,32,→,right,→,0.38391289999708533,True,16,1,0,3
Y2-S2-152M20,-,57,AS,adaptive,36,↑,up,↑,0.4683139002881944,True,16,1,0,3
Y2-S2-152M20,-,58,AS,adaptive,42,←,left,←,0.4475583997555077,True,16,1,0,3
Y2-S2-152M20,-,59,AS,adaptive,26,↑,down,↓,0.6972068999893963,False,15,-1,1,4
Y2-S2-152M20,1,60,AS,intra_train,42,↓,down,↓,0.6278588003478944,True,24,-,-,-
Y2-S2-152M20,1,61,AS,intra_train,31,→,right,→,0.46672390028834343,True,24,-,-,-
Y2-S2-152M20,1,62,AS,intra_train,38,↓,down,↓,0.4838704001158476,True,24,-,-,-
Y2-S2-152M20,1,63,AS,intra_train,25,→,right,→,0.5889921002089977,True,24,-,-,-
Y2-S2-152M20,1,64,AS,intra_train,42,↑,up,↑,0.7188431001268327,True,24,-,-,-
Y2-S2-152M20,1,65,AS,exp,34,←,left,←,0.9170366004109383,True,16,0,0,0
Y2-S2-152M20,1,66,AS,exp,49,→,left,←,0.9421188998967409,False,16,-1,0,0
Y2-S2-152M20,1,67,AS,exp,27,↓,down,↓,0.7934178998693824,True,17,-1,0,0
Y2-S2-152M20,1,68,AS,exp,27,←,left,←,0.4751202999614179,True,17,-1,0,0
Y2-S2-152M20,1,69,AS,exp,28,↓,down,↓,0.5185658000409603,True,17,1,1,1
Y2-S2-152M20,1,70,AS,exp,38,←,right,→,0.794259199872613,False,16,-1,1,2
Y2-S2-152M20,1,71,AS,exp,38,↑,up,↑,0.4175602998584509,True,17,-1,0,2
Y2-S2-152M20,1,72,AS,exp,39,↓,down,↓,0.7346073999069631,True,17,-1,0,2
Y2-S2-152M20,1,73,AS,exp,43,←,left,←,0.9039893001317978,True,17,1,1,3
Y2-S2-152M20,1,74,AS,exp,41,↓,down,↓,0.5079076997935772,True,16,1,0,3
Y2-S2-152M20,1,75,AS,exp,43,→,left,←,0.7062523001804948,False,16,-1,1,4
Y2-S2-152M20,1,76,AS,exp,35,←,left,←,1.5547686000354588,True,17,-1,0,4
Y2-S2-152M20,1,77,AS,exp,42,↑,no_key,no_letter,-1.0,False,17,-1,0,4
Y2-S2-152M20,1,78,AS,exp,33,↓,down,↓,0.6555072003975511,True,18,-1,0,4
Y2-S2-152M20,1,79,AS,exp,36,→,left,←,0.5260529997758567,False,18,-1,0,4
Y2-S2-152M20,1,80,AS,exp,37,←,left,←,0.5475045000202954,True,19,-1,0,4
Y2-S2-152M20,1,81,AS,exp,43,↓,down,↓,0.599641100037843,True,19,-1,0,4
Y2-S2-152M20,1,82,AS,exp,36,→,right,→,0.383733700029552,True,19,1,1,5
Y2-S2-152M20,1,83,AS,exp,46,↓,down,↓,0.7001403998583555,True,18,1,0,5
Y2-S2-152M20,1,84,AS,exp,32,↑,up,↑,0.635814500041306,True,18,1,0,5
Y2-S2-152M20,1,85,AS,exp,43,←,left,←,0.4006651001982391,True,18,1,0,5
Y2-S2-152M20,1,86,AS,exp,49,↓,down,↓,0.4173996997997165,True,17,1,0,5
Y2-S2-152M20,1,87,AS,exp,43,↑,up,↑,0.46143299993127584,True,17,1,0,5
Y2-S2-152M20,1,88,AS,exp,48,←,left,←,0.5285838996060193,True,17,1,0,5
Y2-S2-152M20,1,89,AS,exp,37,↓,down,↓,0.5630850000306964,True,16,1,0,5
Y2-S2-152M20,1,90,AS,exp,36,←,left,←,1.05438659992069,True,16,1,0,5
Y2-S2-152M20,1,91,AS,exp,34,↓,down,↓,0.5727218999527395,True,16,1,0,5
Y2-S2-152M20,1,92,AS,exp,30,→,right,→,0.38445649994537234,True,15,1,0,5
Y2-S2-152M20,1,93,AS,exp,35,↑,up,↑,0.9032629001885653,True,15,1,0,5
Y2-S2-152M20,1,94,AS,exp,41,←,left,←,0.7960242000408471,True,15,1,0,5
Y2-S2-152M20,1,95,AS,exp,47,↑,up,↑,0.5116071999073029,True,14,1,0,5
Y2-S2-152M20,1,96,AS,exp,44,↓,down,↓,0.5896525997668505,True,14,1,0,5
Y2-S2-152M20,1,97,AS,exp,39,↑,down,↓,0.7529687001369894,False,14,-1,1,6
Y2-S2-152M20,1,98,AS,exp,34,↓,down,↓,0.6043757000006735,True,15,-1,0,6
Y2-S2-152M20,1,99,AS,exp,36,↑,up,↑,0.38410530006513,True,15,-1,0,6
Y2-S2-152M20,1,100,AS,exp,32,←,left,←,0.6194475996308029,True,15,1,1,7
Y2-S2-152M20,1,101,AS,exp,45,→,right,→,0.46494310023263097,True,14,1,0,7
Y2-S2-152M20,1,102,AS,exp,25,←,left,←,0.6164846997708082,True,14,1,0,7
Y2-S2-152M20,1,103,AS,exp,30,→,right,→,0.93849530024454,True,14,1,0,7
Y2-S2-152M20,1,104,AS,exp,31,↑,left,←,0.652337500359863,False,13,-1,1,8
Y2-S2-152M20,1,105,AS,exp,25,←,right,→,0.7465200000442564,False,14,-1,0,8
Y2-S2-152M20,1,106,AS,exp,48,↓,down,↓,0.6454981002025306,True,15,-1,0,8
Y2-S2-152M20,1,107,AS,exp,50,→,left,←,0.6060291999019682,False,15,-1,0,8
Y2-S2-152M20,1,108,AS,exp,49,←,left,←,0.5710309999994934,True,16,-1,0,8
Y2-S2-152M20,1,109,AS,exp,27,→,right,→,0.4631489999592304,True,16,-1,0,8
Y2-S2-152M20,1,110,AS,exp,31,↑,up,↑,0.907751299906522,True,16,1,1,9
Y2-S2-152M20,1,111,AS,exp,45,→,left,←,0.7079124003648758,False,15,-1,1,10
Y2-S2-152M20,1,112,AS,exp,42,↓,down,↓,0.45425729965791106,True,16,-1,0,10
Y2-S2-152M20,1,113,AS,exp,46,↑,down,↓,0.6962836002930999,False,16,-1,0,10
Y2-S2-152M20,1,114,AS,exp,27,↓,down,↓,0.6282216003164649,True,17,-1,0,10
Y2-S2-152M20,1,115,AS,exp,25,→,right,→,0.4900269000791013,True,17,-1,0,10
Y2-S2-152M20,1,116,AS,exp,43,←,left,←,0.7201661998406053,True,17,1,1,11
Y2-S2-152M20,1,117,AS,exp,36,→,left,←,0.8139110002666712,False,16,-1,1,12
Y2-S2-152M20,1,118,AS,exp,29,←,left,←,0.5915153999812901,True,17,-1,0,12
Y2-S2-152M20,1,119,AS,exp,37,→,right,→,0.4523474001325667,True,17,-1,0,12
Y2-S2-152M20,1,120,AS,exp,27,↓,down,↓,0.5231384001672268,True,17,1,1,13
Y2-S2-152M20,1,121,AS,exp,42,↑,up,↑,0.3840737002901733,True,16,1,0,13
Y2-S2-152M20,1,122,AS,exp,46,→,right,→,0.9372539999894798,True,16,1,0,13
Y2-S2-152M20,1,123,AS,exp,33,↑,down,↓,0.736961199901998,False,16,-1,1,14
Y2-S2-152M20,1,124,AS,exp,35,←,left,←,0.5931943999603391,True,17,-1,0,14
Y2-S2-152M20,1,125,AS,exp,36,↓,down,↓,0.6908110999502242,True,17,-1,0,14
Y2-S2-152M20,1,126,AS,exp,41,←,left,←,0.6235340996645391,True,17,1,1,15
Y2-S2-152M20,1,127,AS,exp,41,↓,down,↓,0.7240423001348972,True,16,1,0,15
Y2-S2-152M20,1,128,AS,exp,33,↑,up,↑,0.6866462002508342,True,16,1,0,15
Y2-S2-152M20,1,129,AS,exp,29,←,left,←,0.6008397000841796,True,16,1,0,15
Y2-S2-152M20,1,130,AS,exp,48,↓,down,↓,0.6074166996404529,True,15,1,0,15
Y2-S2-152M20,1,131,AS,exp,29,→,left,←,0.6021298002451658,False,15,-1,1,16
Y2-S2-152M20,2,132,PS,intra_train,33,↑,up,↑,0.5091288997791708,True,15,-,-,-
Y2-S2-152M20,2,133,PS,intra_train,26,↓,down,↓,0.43324659997597337,True,15,-,-,-
Y2-S2-152M20,2,134,PS,intra_train,34,↑,up,↑,0.613053500186652,True,15,-,-,-
Y2-S2-152M20,2,135,PS,intra_train,26,←,left,←,1.0784299997612834,True,15,-,-,-
Y2-S2-152M20,2,136,PS,intra_train,30,↑,up,↑,0.44952609995380044,True,15,-,-,-
Y2-S2-152M20,2,137,PS,exp,50,↓,up,↑,0.8000870998948812,False,10,-1,0,0
Y2-S2-152M20,2,138,PS,exp,44,↑,left,←,0.6490346002392471,False,11,-1,0,0
Y2-S2-152M20,2,139,PS,exp,44,←,left,←,0.5015945001505315,True,12,-1,0,0
Y2-S2-152M20,2,140,PS,exp,35,↑,up,↑,0.568138999864459,True,12,-1,0,0
Y2-S2-152M20,2,141,PS,exp,36,↓,down,↓,0.5985488998703659,True,12,1,1,1
Y2-S2-152M20,2,142,PS,exp,27,←,left,←,0.4041160997003317,True,11,1,0,1
Y2-S2-152M20,2,143,PS,exp,37,↑,up,↑,0.4535598000511527,True,11,1,0,1
Y2-S2-152M20,2,144,PS,exp,37,→,down,↓,0.9805692001245916,False,11,-1,1,2
Y2-S2-152M20,2,145,PS,exp,29,↑,up,↑,0.5481563997454941,True,12,-1,0,2
Y2-S2-152M20,2,146,PS,exp,48,→,right,→,0.4644975997507572,True,12,-1,0,2
Y2-S2-152M20,2,147,PS,exp,46,↓,down,↓,0.6054650996811688,True,12,1,1,3
Y2-S2-152M20,2,148,PS,exp,25,↑,down,↓,0.9276490001939237,False,11,-1,1,4
Y2-S2-152M20,2,149,PS,exp,47,→,right,→,0.4161058999598026,True,12,-1,0,4
Y2-S2-152M20,2,150,PS,exp,32,←,left,←,0.5376285002566874,True,12,-1,0,4
Y2-S2-152M20,2,151,PS,exp,46,↓,right,→,0.8517172997817397,False,12,-1,0,4
Y2-S2-152M20,2,152,PS,exp,32,↑,up,↑,0.5323823997750878,True,13,-1,0,4
Y2-S2-152M20,2,153,PS,exp,48,←,left,←,0.6044632997363806,True,13,-1,0,4
Y2-S2-152M20,2,154,PS,exp,47,↓,down,↓,0.7470852001570165,True,13,1,1,5
Y2-S2-152M20,2,155,PS,exp,50,→,right,→,0.4647250999696553,True,12,1,0,5
Y2-S2-152M20,2,156,PS,exp,35,←,left,←,0.7828266001306474,True,12,1,0,5
Y2-S2-152M20,2,157,PS,exp,25,→,right,→,0.869798599742353,True,12,1,0,5
Y2-S2-152M20,2,158,PS,exp,39,←,left,←,0.45132699981331825,True,11,1,0,5
Y2-S2-152M20,2,159,PS,exp,36,→,down,↓,0.7284995000809431,False,11,-1,1,6
Y2-S2-152M20,2,160,PS,exp,33,↓,left,←,1.2340003000572324,False,12,-1,0,6
Y2-S2-152M20,2,161,PS,exp,48,←,left,←,0.6132342997007072,True,13,-1,0,6
Y2-S2-152M20,2,162,PS,exp,45,↑,up,↑,0.6119908997789025,True,13,-1,0,6
Y2-S2-152M20,2,163,PS,exp,42,←,left,←,0.5464980998076499,True,13,1,1,7
Y2-S2-152M20,2,164,PS,exp,42,→,right,→,0.66315559996292,True,12,1,0,7
Y2-S2-152M20,2,165,PS,exp,28,←,left,←,0.7107064998708665,True,12,1,0,7
Y2-S2-152M20,2,166,PS,exp,30,→,right,→,0.5223747999407351,True,12,1,0,7
Y2-S2-152M20,2,167,PS,exp,32,↑,up,↑,0.5542938001453876,True,11,1,0,7
Y2-S2-152M20,2,168,PS,exp,35,←,left,←,0.39251470007002354,True,11,1,0,7
Y2-S2-152M20,2,169,PS,exp,44,↑,up,↑,0.494350700173527,True,11,1,0,7
Y2-S2-152M20,2,170,PS,exp,47,→,right,→,0.3996147997677326,True,10,1,0,7
Y2-S2-152M20,2,171,PS,exp,33,←,right,→,0.4924737000837922,False,10,-1,1,8
Y2-S2-152M20,2,172,PS,exp,25,↑,up,↑,0.6363932001404464,True,11,-1,0,8
Y2-S2-152M20,2,173,PS,exp,32,↓,up,↑,0.5245789000764489,False,11,-1,0,8
Y2-S2-152M20,2,174,PS,exp,44,↑,up,↑,0.38219569995999336,True,12,-1,0,8
Y2-S2-152M20,2,175,PS,exp,37,→,right,→,0.4827120001427829,True,12,-1,0,8
Y2-S2-152M20,2,176,PS,exp,34,↓,up,↑,0.4892918998375535,False,12,-1,0,8
Y2-S2-152M20,2,177,PS,exp,42,→,right,→,0.5272132996469736,True,13,-1,0,8
Y2-S2-152M20,2,178,PS,exp,44,↓,down,↓,0.5148004000075161,True,13,-1,0,8
Y2-S2-152M20,2,179,PS,exp,46,↑,up,↑,0.44114840030670166,True,13,1,1,9
Y2-S2-152M20,2,180,PS,exp,27,←,right,→,0.6794523000717163,False,12,-1,1,10
Y2-S2-152M20,2,181,PS,exp,29,↓,left,←,0.8184060999192297,False,13,-1,0,10
Y2-S2-152M20,2,182,PS,exp,29,↑,up,↑,0.5316930999979377,True,14,-1,0,10
Y2-S2-152M20,2,183,PS,exp,33,↓,down,↓,0.738701700232923,True,14,-1,0,10
Y2-S2-152M20,2,184,PS,exp,46,↑,up,↑,0.4721483001485467,True,14,1,1,11
Y2-S2-152M20,2,185,PS,exp,43,↓,down,↓,0.63429189985618,True,13,1,0,11
Y2-S2-152M20,2,186,PS,exp,33,←,left,←,0.5439808997325599,True,13,1,0,11
Y2-S2-152M20,2,187,PS,exp,26,→,right,→,0.40731999976560473,True,13,1,0,11
Y2-S2-152M20,2,188,PS,exp,39,←,right,→,0.8777550999075174,False,12,-1,1,12
Y2-S2-152M20,2,189,PS,exp,32,↑,up,↑,0.518425100017339,True,13,-1,0,12
Y2-S2-152M20,2,190,PS,exp,43,→,right,→,0.4949509003199637,True,13,-1,0,12
Y2-S2-152M20,2,191,PS,exp,46,↑,up,↑,0.5660450998693705,True,13,1,1,13
Y2-S2-152M20,2,192,PS,exp,30,←,right,→,0.8214457998983562,False,12,-1,1,14
Y2-S2-152M20,2,193,PS,exp,44,→,right,→,0.39397910004481673,True,13,-1,0,14
Y2-S2-152M20,2,194,PS,exp,38,←,left,←,0.892197800334543,True,13,-1,0,14
Y2-S2-152M20,2,195,PS,exp,36,↓,down,↓,0.6753541002981365,True,13,1,1,15
Y2-S2-152M20,2,196,PS,exp,45,→,right,→,0.3985131001099944,True,12,1,0,15
Y2-S2-152M20,2,197,PS,exp,35,↑,up,↑,0.7812089999206364,True,12,1,0,15
Y2-S2-152M20,2,198,PS,exp,46,→,right,→,0.8699087002314627,True,12,1,0,15
Y2-S2-152M20,2,199,PS,exp,37,↓,right,→,0.7332914001308382,False,11,-1,1,16
Y2-S2-152M20,3,200,PS,intra_train,36,→,right,→,0.5749957002699375,True,15,-,-,-
Y2-S2-152M20,3,201,PS,intra_train,35,↓,down,↓,0.5959435999393463,True,15,-,-,-
Y2-S2-152M20,3,202,PS,intra_train,42,↑,up,↑,0.8798669003881514,True,15,-,-,-
Y2-S2-152M20,3,203,PS,intra_train,50,→,right,→,0.42343939980491996,True,15,-,-,-
Y2-S2-152M20,3,204,PS,intra_train,31,↓,down,↓,0.5957193002104759,True,15,-,-,-
Y2-S2-152M20,3,205,PS,exp,46,←,right,→,0.3723343997262418,False,10,-1,0,0
Y2-S2-152M20,3,206,PS,exp,36,↓,down,↓,0.82322320016101,True,11,-1,0,0
Y2-S2-152M20,3,207,PS,exp,39,→,right,→,0.532322000246495,True,11,-1,0,0
Y2-S2-152M20,3,208,PS,exp,35,↑,up,↑,0.4209499997086823,True,11,1,1,1
Y2-S2-152M20,3,209,PS,exp,33,←,left,←,0.4981741001829505,True,10,1,0,1
Y2-S2-152M20,3,210,PS,exp,42,↓,down,↓,0.756655499804765,True,10,1,0,1
Y2-S2-152M20,3,211,PS,exp,50,→,right,→,0.47304429998621345,True,10,1,0,1
Y2-S2-152M20,3,212,PS,exp,43,←,left,←,0.45782729983329773,True,9,1,0,1
Y2-S2-152M20,3,213,PS,exp,44,↓,right,→,0.6805996000766754,False,9,-1,1,2
Y2-S2-152M20,3,214,PS,exp,34,→,right,→,0.45619039982557297,True,10,-1,0,2
Y2-S2-152M20,3,215,PS,exp,40,↑,up,↑,0.5253270999528468,True,10,-1,0,2
Y2-S2-152M20,3,216,PS,exp,28,↓,up,↑,0.6798417000100017,False,10,-1,0,2
Y2-S2-152M20,3,217,PS,exp,26,→,right,→,0.5487635997124016,True,11,-1,0,2
Y2-S2-152M20,3,218,PS,exp,38,←,left,←,0.49011459993198514,True,11,-1,0,2
Y2-S2-152M20,3,219,PS,exp,41,↑,right,→,0.5850400999188423,False,11,-1,0,2
Y2-S2-152M20,3,220,PS,exp,41,←,left,←,0.40754059981554747,True,12,-1,0,2
Y2-S2-152M20,3,221,PS,exp,37,↓,up,↑,0.6120368996635079,False,12,-1,0,2
Y2-S2-152M20,3,222,PS,exp,39,↑,up,↑,0.44450900005176663,True,13,-1,0,2
Y2-S2-152M20,3,223,PS,exp,48,←,right,→,0.7889121999032795,False,13,-1,0,2
Y2-S2-152M20,3,224,PS,exp,39,→,right,→,0.5370744997635484,True,14,-1,0,2
Y2-S2-152M20,3,225,PS,exp,39,↑,left,←,0.9629499996080995,False,14,-1,0,2
Y2-S2-152M20,3,226,PS,exp,41,↓,down,↓,0.5990245002321899,True,15,-1,0,2
Y2-S2-152M20,3,227,PS,exp,29,→,right,→,0.5703793996945024,True,15,-1,0,2
Y2-S2-152M20,3,228,PS,exp,50,↑,up,↑,0.5568311996757984,True,15,1,1,3
Y2-S2-152M20,3,229,PS,exp,39,↓,down,↓,0.6750662997364998,True,14,1,0,3
Y2-S2-152M20,3,230,PS,exp,26,←,right,→,0.47742410004138947,False,14,-1,1,4
Y2-S2-152M20,3,231,PS,exp,25,↑,up,↑,0.46324399998411536,True,15,-1,0,4
Y2-S2-152M20,3,232,PS,exp,45,←,left,←,0.549399500247091,True,15,-1,0,4
Y2-S2-152M20,3,233,PS,exp,44,↑,up,↑,0.48037080001085997,True,15,1,1,5
Y2-S2-152M20,3,234,PS,exp,35,→,right,→,0.5656173997558653,True,14,1,0,5
Y2-S2-152M20,3,235,PS,exp,26,↑,up,↑,0.46931289974600077,True,14,1,0,5
Y2-S2-152M20,3,236,PS,exp,49,←,left,←,0.4120982000604272,True,14,1,0,5
Y2-S2-152M20,3,237,PS,exp,48,→,right,→,0.56766950013116,True,13,1,0,5
Y2-S2-152M20,3,238,PS,exp,42,←,left,←,0.6838907999917865,True,13,1,0,5
Y2-S2-152M20,3,239,PS,exp,31,→,right,→,0.4436623998917639,True,13,1,0,5
Y2-S2-152M20,3,240,PS,exp,37,←,left,←,0.6518015000037849,True,12,1,0,5
Y2-S2-152M20,3,241,PS,exp,29,↑,up,↑,0.4959379001520574,True,12,1,0,5
Y2-S2-152M20,3,242,PS,exp,33,→,right,→,0.38386880001053214,True,12,1,0,5
Y2-S2-152M20,3,243,PS,exp,27,↓,left,←,0.7986773001030087,False,11,-1,1,6
Y2-S2-152M20,3,244,PS,exp,33,↑,up,↑,0.47215789975598454,True,12,-1,0,6
Y2-S2-152M20,3,245,PS,exp,30,↓,down,↓,0.6050871997140348,True,12,-1,0,6
Y2-S2-152M20,3,246,PS,exp,25,↑,up,↑,0.4024574002251029,True,12,1,1,7
Y2-S2-152M20,3,247,PS,exp,41,→,right,→,0.39508570032194257,True,11,1,0,7
Y2-S2-152M20,3,248,PS,exp,25,←,left,←,0.3872891999781132,True,11,1,0,7
Y2-S2-152M20,3,249,PS,exp,35,→,right,→,0.4147998997941613,True,11,1,0,7
Y2-S2-152M20,3,250,PS,exp,41,←,up,↑,0.7996433000080287,False,10,-1,1,8
Y2-S2-152M20,3,251,PS,exp,26,↓,up,↑,0.5146029000170529,False,11,-1,0,8
Y2-S2-152M20,3,252,PS,exp,43,→,right,→,0.6072236998006701,True,12,-1,0,8
Y2-S2-152M20,3,253,PS,exp,37,↓,down,↓,0.6846278999000788,True,12,-1,0,8
Y2-S2-152M20,3,254,PS,exp,33,↑,up,↑,0.528716899920255,True,12,1,1,9
Y2-S2-152M20,3,255,PS,exp,29,↓,down,↓,0.5190238999202847,True,11,1,0,9
Y2-S2-152M20,3,256,PS,exp,39,↑,up,↑,0.41098499996587634,True,11,1,0,9
Y2-S2-152M20,3,257,PS,exp,25,←,right,→,0.484016299713403,False,11,-1,1,10
Y2-S2-152M20,3,258,PS,exp,36,↑,up,↑,0.5075777000747621,True,12,-1,0,10
Y2-S2-152M20,3,259,PS,exp,37,←,left,←,0.4829559000208974,True,12,-1,0,10
Y2-S2-152M20,3,260,PS,exp,41,↑,up,↑,0.5083011002279818,True,12,1,1,11
Y2-S2-152M20,3,261,PS,exp,33,↓,down,↓,0.47661929996684194,True,11,1,0,11
Y2-S2-152M20,3,262,PS,exp,46,←,left,←,0.518469899892807,True,11,1,0,11
Y2-S2-152M20,3,263,PS,exp,40,↓,up,↑,0.7134465998969972,False,11,-1,1,12
Y2-S2-152M20,3,264,PS,exp,41,→,right,→,0.3973439997062087,True,12,-1,0,12
Y2-S2-152M20,3,265,PS,exp,38,←,left,←,0.5190304000861943,True,12,-1,0,12
Y2-S2-152M20,3,266,PS,exp,27,↑,up,↑,0.4533366998657584,True,12,1,1,13
Y2-S2-152M20,3,267,PS,exp,39,→,right,→,0.4466124000027776,True,11,1,0,13
Y2-S2-152M20,3,268,PS,exp,36,←,left,←,0.4177962997928262,True,11,1,0,13
Y2-S2-152M20,3,269,PS,exp,32,↑,up,↑,0.6007854999043047,True,11,1,0,13
Y2-S2-152M20,3,270,PS,exp,42,→,right,→,0.3857029997743666,True,10,1,0,13
Y2-S2-152M20,3,271,PS,exp,39,↓,down,↓,0.5887799002230167,True,10,1,0,13
Y2-S2-152M20,3,272,PS,exp,37,→,down,↓,0.768917300272733,False,10,-1,1,14
Y2-S2-152M20,3,273,PS,exp,25,↑,up,↑,0.6443236996419728,True,11,-1,0,14
Y2-S2-152M20,3,274,PS,exp,34,↓,down,↓,0.49337329994887114,True,11,-1,0,14
Y2-S2-152M20,3,275,PS,exp,44,↑,up,↑,0.5333497002720833,True,11,1,1,15
Y2-S2-152M20,3,276,PS,exp,35,↓,down,↓,0.6488629998639226,True,10,1,0,15
Y2-S2-152M20,3,277,PS,exp,28,→,down,↓,0.5823695003055036,False,10,-1,1,16
Y2-S2-152M20,4,278,AS,intra_train,34,↑,left,←,0.8825186998583376,False,24,-,-,-
Y2-S2-152M20,4,279,AS,intra_train,44,←,left,←,0.745068599935621,True,24,-,-,-
Y2-S2-152M20,4,280,AS,intra_train,35,→,right,→,0.4508381998166442,True,24,-,-,-
Y2-S2-152M20,4,281,AS,intra_train,42,↓,down,↓,0.8246539002284408,True,24,-,-,-
Y2-S2-152M20,4,282,AS,intra_train,38,→,right,→,0.41727419989183545,True,24,-,-,-
Y2-S2-152M20,4,283,AS,exp,45,←,left,←,0.6360766999423504,True,16,0,0,0
Y2-S2-152M20,4,284,AS,exp,31,↓,down,↓,0.5031083999201655,True,16,0,0,0
Y2-S2-152M20,4,285,AS,exp,47,→,right,→,1.2092801998369396,True,16,1,0,0
Y2-S2-152M20,4,286,AS,exp,45,↓,left,←,0.6576388003304601,False,15,-1,1,1
Y2-S2-152M20,4,287,AS,exp,35,→,right,→,0.36722510028630495,True,16,-1,0,1
Y2-S2-152M20,4,288,AS,exp,38,↑,left,←,0.6053594001568854,False,16,-1,0,1
Y2-S2-152M20,4,289,AS,exp,44,→,right,→,0.40074640000239015,True,17,-1,0,1
Y2-S2-152M20,4,290,AS,exp,48,↓,left,←,0.6509141996502876,False,17,-1,0,1
Y2-S2-152M20,4,291,AS,exp,25,→,left,←,0.7881793999113142,False,18,-1,0,1
Y2-S2-152M20,4,292,AS,exp,48,↓,up,↑,1.0681668003089726,False,19,-1,0,1
Y2-S2-152M20,4,293,AS,exp,43,↑,up,↑,0.5103994999080896,True,20,-1,0,1
Y2-S2-152M20,4,294,AS,exp,33,←,left,←,0.5414837002754211,True,20,-1,0,1
Y2-S2-152M20,4,295,AS,exp,38,→,right,→,0.4337876997888088,True,20,1,1,2
Y2-S2-152M20,4,296,AS,exp,39,↑,up,↑,0.6346430997364223,True,19,1,0,2
Y2-S2-152M20,4,297,AS,exp,34,←,left,←,0.672458800021559,True,19,1,0,2
Y2-S2-152M20,4,298,AS,exp,27,→,right,→,0.6098671001382172,True,19,1,0,2
Y2-S2-152M20,4,299,AS,exp,39,↓,down,↓,0.803260900080204,True,18,1,0,2
Y2-S2-152M20,4,300,AS,exp,49,→,right,→,0.6057855999097228,True,18,1,0,2
Y2-S2-152M20,4,301,AS,exp,26,↑,up,↑,0.7176443003118038,True,18,1,0,2
Y2-S2-152M20,4,302,AS,exp,34,←,right,→,0.5788289997726679,False,17,-1,1,3
Y2-S2-152M20,4,303,AS,exp,40,↓,down,↓,0.597173800226301,True,18,-1,0,3
Y2-S2-152M20,4,304,AS,exp,48,→,right,→,0.8288519997149706,True,18,-1,0,3
Y2-S2-152M20,4,305,AS,exp,28,↑,up,↑,0.6597504997625947,True,18,1,1,4
Y2-S2-152M20,4,306,AS,exp,32,→,right,→,0.463771500159055,True,17,1,0,4
Y2-S2-152M20,4,307,AS,exp,41,↑,up,↑,0.47326390026137233,True,17,1,0,4
Y2-S2-152M20,4,308,AS,exp,47,→,right,→,0.6407202002592385,True,17,1,0,4
Y2-S2-152M20,4,309,AS,exp,26,←,right,→,0.747142500244081,False,16,-1,1,5
Y2-S2-152M20,4,310,AS,exp,48,↑,right,→,0.5149745000526309,False,17,-1,0,5
Y2-S2-152M20,4,311,AS,exp,42,↓,down,↓,0.7116220998577774,True,18,-1,0,5
Y2-S2-152M20,4,312,AS,exp,40,→,right,→,0.9866527998819947,True,18,-1,0,5
Y2-S2-152M20,4,313,AS,exp,40,↓,down,↓,0.6314654001034796,True,18,1,1,6
Y2-S2-152M20,4,314,AS,exp,42,←,left,←,0.9912157999351621,True,17,1,0,6
Y2-S2-152M20,4,315,AS,exp,50,↓,down,↓,0.48321809992194176,True,17,1,0,6
Y2-S2-152M20,4,316,AS,exp,29,→,down,↓,0.861750400159508,False,17,-1,1,7
Y2-S2-152M20,4,317,AS,exp,44,↑,up,↑,0.6941755004227161,True,18,-1,0,7
Y2-S2-152M20,4,318,AS,exp,46,↓,down,↓,0.5779425003565848,True,18,-1,0,7
Y2-S2-152M20,4,319,AS,exp,40,←,left,←,0.4740061000920832,True,18,1,1,8
Y2-S2-152M20,4,320,AS,exp,27,↑,left,←,1.0740638002753258,False,17,-1,1,9
Y2-S2-152M20,4,321,AS,exp,42,→,left,←,0.588843600358814,False,18,-1,0,9
Y2-S2-152M20,4,322,AS,exp,36,↓,down,↓,0.5445685000158846,True,19,-1,0,9
Y2-S2-152M20,4,323,AS,exp,43,↑,up,↑,0.73808340029791,True,19,-1,0,9
Y2-S2-152M20,4,324,AS,exp,26,→,right,→,0.5235417000949383,True,19,1,1,10
Y2-S2-152M20,4,325,AS,exp,43,↑,down,↓,0.9837325997650623,False,18,-1,1,11
Y2-S2-152M20,4,326,AS,exp,32,→,right,→,0.45054430002346635,True,19,-1,0,11
Y2-S2-152M20,4,327,AS,exp,44,←,right,→,0.5351954000070691,False,19,-1,0,11
Y2-S2-152M20,4,328,AS,exp,31,↓,down,↓,0.7467348999343812,True,20,-1,0,11
Y2-S2-152M20,4,329,AS,exp,27,↑,up,↑,0.607721499633044,True,20,-1,0,11
Y2-S2-152M20,4,330,AS,exp,31,→,right,→,0.5396833000704646,True,20,1,1,12
Y2-S2-152M20,4,331,AS,exp,33,←,left,←,0.7089597000740469,True,19,1,0,12
Y2-S2-152M20,4,332,AS,exp,26,↓,up,↑,1.102839299943298,False,19,-1,1,13
Y2-S2-152M20,4,333,AS,exp,33,←,left,←,0.5412979000248015,True,20,-1,0,13
Y2-S2-152M20,4,334,AS,exp,26,↓,down,↓,0.6366260997019708,True,20,-1,0,13
Y2-S2-152M20,4,335,AS,exp,32,←,left,←,0.7548271999694407,True,20,1,1,14
Y2-S2-152M20,4,336,AS,exp,33,→,down,↓,0.9874404002912343,False,19,-1,1,15
Y2-S2-152M20,4,337,AS,exp,27,↓,down,↓,0.558192300144583,True,20,-1,0,15
Y2-S2-152M20,4,338,AS,exp,41,↑,up,↑,0.7291200999170542,True,20,-1,0,15
Y2-S2-152M20,4,339,AS,exp,45,←,left,←,0.5671733003109694,True,20,1,1,16
Y2-S2-152M20,5,340,AS,intra_train,36,↑,up,↑,0.6677500000223517,True,24,-,-,-
Y2-S2-152M20,5,341,AS,intra_train,47,←,left,←,0.5343180997297168,True,24,-,-,-
Y2-S2-152M20,5,342,AS,intra_train,39,↓,up,↑,0.9813893996179104,False,24,-,-,-
Y2-S2-152M20,5,343,AS,intra_train,30,→,right,→,0.46725700004026294,True,24,-,-,-
Y2-S2-152M20,5,344,AS,intra_train,33,←,left,←,0.6414978997781873,True,24,-,-,-
Y2-S2-152M20,5,345,AS,exp,36,↓,down,↓,0.7343726996332407,True,16,0,0,0
Y2-S2-152M20,5,346,AS,exp,44,←,left,←,0.6910721999593079,True,16,0,0,0
Y2-S2-152M20,5,347,AS,exp,29,→,right,→,0.4950405000708997,True,16,1,0,0
Y2-S2-152M20,5,348,AS,exp,34,←,left,←,0.4426934001967311,True,15,1,0,0
Y2-S2-152M20,5,349,AS,exp,47,→,left,←,0.7207836001180112,False,15,-1,1,1
Y2-S2-152M20,5,350,AS,exp,46,↓,down,↓,0.6710951002314687,True,16,-1,0,1
Y2-S2-152M20,5,351,AS,exp,25,↑,up,↑,0.6409565000794828,True,16,-1,0,1
Y2-S2-152M20,5,352,AS,exp,39,→,right,→,0.5072069000452757,True,16,1,1,2
Y2-S2-152M20,5,353,AS,exp,30,↑,left,←,0.8983330000191927,False,15,-1,1,3
Y2-S2-152M20,5,354,AS,exp,41,↓,down,↓,1.0943017997778952,True,16,-1,0,3
Y2-S2-152M20,5,355,AS,exp,35,←,left,←,0.6369153996929526,True,16,-1,0,3
Y2-S2-152M20,5,356,AS,exp,39,↑,up,↑,0.4704717001877725,True,16,1,1,4
Y2-S2-152M20,5,357,AS,exp,39,←,left,←,0.45492410007864237,True,15,1,0,4
Y2-S2-152M20,5,358,AS,exp,29,↓,down,↓,0.6280256002210081,True,15,1,0,4
Y2-S2-152M20,5,359,AS,exp,31,→,left,←,1.0529121002182364,False,15,-1,1,5
Y2-S2-152M20,5,360,AS,exp,35,↑,down,↓,0.8136327001266181,False,16,-1,0,5
Y2-S2-152M20,5,361,AS,exp,33,↓,down,↓,0.516381099820137,True,17,-1,0,5
Y2-S2-152M20,5,362,AS,exp,28,↑,up,↑,0.602810800075531,True,17,-1,0,5
Y2-S2-152M20,5,363,AS,exp,49,↓,down,↓,0.5402819002047181,True,17,1,1,6
Y2-S2-152M20,5,364,AS,exp,36,→,right,→,0.5776618998497725,True,16,1,0,6
Y2-S2-152M20,5,365,AS,exp,42,↓,down,↓,0.7116771000437438,True,16,1,0,6
Y2-S2-152M20,5,366,AS,exp,27,←,left,←,0.5883773998357356,True,16,1,0,6
Y2-S2-152M20,5,367,AS,exp,39,↑,up,↑,0.7142717000097036,True,15,1,0,6
Y2-S2-152M20,5,368,AS,exp,50,↓,down,↓,0.7989694997668266,True,15,1,0,6
Y2-S2-152M20,5,369,AS,exp,32,→,right,→,0.6706952000968158,True,15,1,0,6
Y2-S2-152M20,5,370,AS,exp,33,↑,down,↓,0.8739231997169554,False,14,-1,1,7
Y2-S2-152M20,5,371,AS,exp,44,↓,down,↓,0.5981227001175284,True,15,-1,0,7
Y2-S2-152M20,5,372,AS,exp,29,←,left,←,0.8837460000067949,True,15,-1,0,7
Y2-S2-152M20,5,373,AS,exp,48,→,right,→,0.8844165001064539,True,15,1,1,8
Y2-S2-152M20,5,374,AS,exp,32,←,left,←,0.6227803998626769,True,14,1,0,8
Y2-S2-152M20,5,375,AS,exp,43,↑,down,↓,0.8104520998895168,False,14,-1,1,9
Y2-S2-152M20,5,376,AS,exp,49,←,left,←,0.4727370999753475,True,15,-1,0,9
Y2-S2-152M20,5,377,AS,exp,44,→,right,→,0.49297589994966984,True,15,-1,0,9
Y2-S2-152M20,5,378,AS,exp,30,↓,left,←,0.86516880011186,False,15,-1,0,9
Y2-S2-152M20,5,379,AS,exp,30,→,left,←,0.8198537002317607,False,16,-1,0,9
Y2-S2-152M20,5,380,AS,exp,25,↑,up,↑,0.7245753002353013,True,17,-1,0,9
Y2-S2-152M20,5,381,AS,exp,45,←,left,←,0.4519733996130526,True,17,-1,0,9
Y2-S2-152M20,5,382,AS,exp,37,→,right,→,1.0252983001992106,True,17,1,1,10
Y2-S2-152M20,5,383,AS,exp,39,↑,down,↓,1.5259246001951396,False,16,-1,1,11
Y2-S2-152M20,5,384,AS,exp,29,←,left,←,1.7684247000142932,True,17,-1,0,11
Y2-S2-152M20,5,385,AS,exp,50,↓,right,→,0.6733078001998365,False,17,-1,0,11
Y2-S2-152M20,5,386,AS,exp,38,↑,up,↑,0.8164790999144316,True,18,-1,0,11
Y2-S2-152M20,5,387,AS,exp,46,→,right,→,0.5642613000236452,True,18,-1,0,11
Y2-S2-152M20,5,388,AS,exp,36,↓,down,↓,0.7749911001883447,True,18,1,1,12
Y2-S2-152M20,5,389,AS,exp,25,→,left,←,0.5833569001406431,False,17,-1,1,13
Y2-S2-152M20,5,390,AS,exp,47,←,left,←,0.5558712999336421,True,18,-1,0,13
Y2-S2-152M20,5,391,AS,exp,50,↓,right,→,1.5169953000731766,False,18,-1,0,13
Y2-S2-152M20,5,392,AS,exp,26,←,left,←,0.8951348997652531,True,19,-1,0,13
Y2-S2-152M20,5,393,AS,exp,40,↓,down,↓,0.602481700014323,True,19,-1,0,13
Y2-S2-152M20,5,394,AS,exp,38,↑,up,↑,0.6648520999588072,True,19,1,1,14
Y2-S2-152M20,5,395,AS,exp,28,→,right,→,0.5602396000176668,True,18,1,0,14
Y2-S2-152M20,5,396,AS,exp,47,←,left,←,0.43383080000057817,True,18,1,0,14
Y2-S2-152M20,5,397,AS,exp,50,↑,up,↑,0.4339231001213193,True,18,1,0,14
Y2-S2-152M20,5,398,AS,exp,33,←,left,←,0.6140777999535203,True,17,1,0,14
Y2-S2-152M20,5,399,AS,exp,41,↑,up,↑,0.8062303001061082,True,17,1,0,14
Y2-S2-152M20,5,400,AS,exp,35,→,right,→,0.38410160038620234,True,17,1,0,14
Y2-S2-152M20,5,401,AS,exp,33,↓,down,↓,0.5994140999391675,True,16,1,0,14
Y2-S2-152M20,5,402,AS,exp,33,↑,up,↑,0.6991805997677147,True,16,1,0,14
Y2-S2-152M20,5,403,AS,exp,32,←,up,↑,0.6621812996454537,False,16,-1,1,15
Y2-S2-152M20,5,404,AS,exp,36,→,right,→,0.7645326997153461,True,17,-1,0,15
Y2-S2-152M20,5,405,AS,exp,46,←,right,→,0.3174133002758026,False,17,-1,0,15
Y2-S2-152M20,5,406,AS,exp,39,↓,down,↓,0.6393356001935899,True,18,-1,0,15
Y2-S2-152M20,5,407,AS,exp,43,→,right,→,0.47476920019835234,True,18,-1,0,15
Y2-S2-152M20,5,408,AS,exp,29,←,right,→,0.5098329000174999,False,18,-1,0,15
Y2-S2-152M20,5,409,AS,exp,35,→,left,←,0.6140405000187457,False,19,-1,0,15
Y2-S2-152M20,5,410,AS,exp,34,←,right,→,0.4340412002056837,False,20,-1,0,15
Y2-S2-152M20,5,411,AS,exp,34,→,right,→,0.5820208000950515,True,21,-1,0,15
Y2-S2-152M20,5,412,AS,exp,31,↑,up,↑,0.6336114001460373,True,21,-1,0,15
Y2-S2-152M20,5,413,AS,exp,39,↓,down,↓,0.7157167000696063,True,21,1,1,16
Y2-S2-152M20,6,414,PS,intra_train,47,→,right,→,0.7269744002260268,True,15,-,-,-
Y2-S2-152M20,6,415,PS,intra_train,25,←,left,←,0.4625727003440261,True,15,-,-,-
Y2-S2-152M20,6,416,PS,intra_train,36,↓,down,↓,0.5179785997606814,True,15,-,-,-
Y2-S2-152M20,6,417,PS,intra_train,38,→,right,→,0.4763791998848319,True,15,-,-,-
Y2-S2-152M20,6,418,PS,intra_train,46,↓,right,→,0.8404949000105262,False,15,-,-,-
Y2-S2-152M20,6,419,PS,exp,28,↑,up,↑,0.42938619991764426,True,10,0,0,0
Y2-S2-152M20,6,420,PS,exp,37,←,left,←,0.43150939978659153,True,10,0,0,0
Y2-S2-152M20,6,421,PS,exp,46,↓,down,↓,0.6214574999175966,True,10,1,0,0
Y2-S2-152M20,6,422,PS,exp,39,↑,up,↑,0.6077096001245081,True,9,1,0,0
Y2-S2-152M20,6,423,PS,exp,30,←,right,→,0.6609424999915063,False,9,-1,1,1
Y2-S2-152M20,6,424,PS,exp,40,→,right,→,0.46488079987466335,True,10,-1,0,1
Y2-S2-152M20,6,425,PS,exp,49,←,left,←,0.7498759999871254,True,10,-1,0,1
Y2-S2-152M20,6,426,PS,exp,47,↑,up,↑,0.5779397999867797,True,10,1,1,2
Y2-S2-152M20,6,427,PS,exp,30,↓,up,↑,0.5261799995787442,False,9,-1,1,3
Y2-S2-152M20,6,428,PS,exp,26,→,down,↓,0.569138899911195,False,10,-1,0,3
Y2-S2-152M20,6,429,PS,exp,42,↓,down,↓,0.434547099750489,True,11,-1,0,3
Y2-S2-152M20,6,430,PS,exp,33,↑,up,↑,0.5577773000113666,True,11,-1,0,3
Y2-S2-152M20,6,431,PS,exp,35,→,right,→,0.5325520001351833,True,11,1,1,4
Y2-S2-152M20,6,432,PS,exp,27,↓,down,↓,0.7221414996311069,True,10,1,0,4
Y2-S2-152M20,6,433,PS,exp,36,→,right,→,0.3954700003378093,True,10,1,0,4
Y2-S2-152M20,6,434,PS,exp,44,↓,down,↓,0.5243385001085699,True,10,1,0,4
Y2-S2-152M20,6,435,PS,exp,48,←,up,↑,0.5361714996397495,False,9,-1,1,5
Y2-S2-152M20,6,436,PS,exp,35,↓,down,↓,0.43956509977579117,True,10,-1,0,5
Y2-S2-152M20,6,437,PS,exp,31,←,left,←,0.4589375997893512,True,10,-1,0,5
Y2-S2-152M20,6,438,PS,exp,41,↑,up,↑,0.4651067997328937,True,10,1,1,6
Y2-S2-152M20,6,439,PS,exp,30,↓,down,↓,0.6085634999908507,True,9,1,0,6
Y2-S2-152M20,6,440,PS,exp,32,↑,right,→,0.6343153002671897,False,9,-1,1,7
Y2-S2-152M20,6,441,PS,exp,48,→,right,→,0.5050963996909559,True,10,-1,0,7
Y2-S2-152M20,6,442,PS,exp,27,↑,up,↑,0.5156427999027073,True,10,-1,0,7
Y2-S2-152M20,6,443,PS,exp,30,↓,down,↓,0.6362477000802755,True,10,1,1,8
Y2-S2-152M20,6,444,PS,exp,47,↑,up,↑,0.4694106001406908,True,9,1,0,8
Y2-S2-152M20,6,445,PS,exp,35,←,right,→,0.4278230001218617,False,9,-1,1,9
Y2-S2-152M20,6,446,PS,exp,29,↑,up,↑,0.5358435004018247,True,10,-1,0,9
Y2-S2-152M20,6,447,PS,exp,33,↓,down,↓,0.8534438000060618,True,10,-1,0,9
Y2-S2-152M20,6,448,PS,exp,48,←,left,←,1.5534104998223484,True,10,1,1,10
Y2-S2-152M20,6,449,PS,exp,42,↑,up,↑,0.47021850012242794,True,9,1,0,10
Y2-S2-152M20,6,450,PS,exp,39,↓,down,↓,0.5068097999319434,True,9,1,0,10
Y2-S2-152M20,6,451,PS,exp,33,→,right,→,0.4521214999258518,True,9,1,0,10
Y2-S2-152M20,6,452,PS,exp,49,↑,up,↑,0.31336210016161203,True,8,1,0,10
Y2-S2-152M20,6,453,PS,exp,50,←,left,←,0.5320615000091493,True,8,1,0,10
Y2-S2-152M20,6,454,PS,exp,26,↑,down,↓,0.5735132000409067,False,8,-1,1,11
Y2-S2-152M20,6,455,PS,exp,32,←,right,→,0.6145754000172019,False,9,-1,0,11
Y2-S2-152M20,6,456,PS,exp,26,↓,down,↓,0.6235217000357807,True,10,-1,0,11
Y2-S2-152M20,6,457,PS,exp,32,←,left,←,0.9037088002078235,True,10,-1,0,11
Y2-S2-152M20,6,458,PS,exp,43,↑,up,↑,0.5417375001125038,True,10,1,1,12
Y2-S2-152M20,6,459,PS,exp,40,←,right,→,0.5705396998673677,False,9,-1,1,13
Y2-S2-152M20,6,460,PS,exp,38,↑,up,↑,0.5610108999535441,True,10,-1,0,13
Y2-S2-152M20,6,461,PS,exp,29,→,right,→,0.5079899998381734,True,10,-1,0,13
Y2-S2-152M20,6,462,PS,exp,44,↓,down,↓,0.5674565997906029,True,10,1,1,14
Y2-S2-152M20,6,463,PS,exp,49,←,left,←,0.5302809001877904,True,9,1,0,14
Y2-S2-152M20,6,464,PS,exp,35,→,right,→,0.5475252000615001,True,9,1,0,14
Y2-S2-152M20,6,465,PS,exp,44,←,left,←,0.5439174002967775,True,9,1,0,14
Y2-S2-152M20,6,466,PS,exp,46,→,right,→,0.48495229985564947,True,8,1,0,14
Y2-S2-152M20,6,467,PS,exp,48,↑,up,↑,1.083252599928528,True,8,1,0,14
Y2-S2-152M20,6,468,PS,exp,29,←,left,←,0.5415667998604476,True,8,1,0,14
Y2-S2-152M20,6,469,PS,exp,43,↑,down,↓,0.8529546000063419,False,7,-1,1,15
Y2-S2-152M20,6,470,PS,exp,37,→,right,→,0.7138714999891818,True,8,-1,0,15
Y2-S2-152M20,6,471,PS,exp,34,←,left,←,0.5496476995758712,True,8,-1,0,15
Y2-S2-152M20,6,472,PS,exp,45,↓,down,↓,0.6710378997959197,True,8,1,1,16
Y2-S2-152M20,7,473,PS,intra_train,29,↑,up,↑,0.6188914999365807,True,15,-,-,-
Y2-S2-152M20,7,474,PS,intra_train,28,↓,down,↓,0.5481008999049664,True,15,-,-,-
Y2-S2-152M20,7,475,PS,intra_train,49,←,left,←,0.6154589001089334,True,15,-,-,-
Y2-S2-152M20,7,476,PS,intra_train,27,→,right,→,0.4440393000841141,True,15,-,-,-
Y2-S2-152M20,7,477,PS,intra_train,49,←,left,←,0.6032986999489367,True,15,-,-,-
Y2-S2-152M20,7,478,PS,exp,28,↑,up,↑,0.6587240998633206,True,10,0,0,0
Y2-S2-152M20,7,479,PS,exp,36,→,right,→,0.5339252999983728,True,10,0,0,0
Y2-S2-152M20,7,480,PS,exp,37,↓,down,↓,0.5682585998438299,True,10,1,0,0
Y2-S2-152M20,7,481,PS,exp,50,→,left,←,0.6681862999685109,False,9,-1,1,1
Y2-S2-152M20,7,482,PS,exp,37,↑,up,↑,0.4690287997946143,True,10,-1,0,1
Y2-S2-152M20,7,483,PS,exp,45,←,left,←,0.41634370014071465,True,10,-1,0,1
Y2-S2-152M20,7,484,PS,exp,37,↓,down,↓,0.617894200142473,True,10,1,1,2
Y2-S2-152M20,7,485,PS,exp,40,←,left,←,0.4454358001239598,True,9,1,0,2
Y2-S2-152M20,7,486,PS,exp,41,→,right,→,0.42059289989992976,True,9,1,0,2
Y2-S2-152M20,7,487,PS,exp,31,↑,left,←,0.7817739997990429,False,9,-1,1,3
Y2-S2-152M20,7,488,PS,exp,37,←,left,←,0.6952696000225842,True,10,-1,0,3
Y2-S2-152M20,7,489,PS,exp,33,↓,down,↓,0.43346469989046454,True,10,-1,0,3
Y2-S2-152M20,7,490,PS,exp,31,←,left,←,0.5002939999103546,True,10,1,1,4
Y2-S2-152M20,7,491,PS,exp,36,→,right,→,0.4288576999679208,True,9,1,0,4
Y2-S2-152M20,7,492,PS,exp,49,↑,down,↓,0.5853895000182092,False,9,-1,1,5
Y2-S2-152M20,7,493,PS,exp,46,→,right,→,0.8212962998077273,True,10,-1,0,5
Y2-S2-152M20,7,494,PS,exp,35,↓,right,→,0.7306249001994729,False,10,-1,0,5
Y2-S2-152M20,7,495,PS,exp,50,←,left,←,0.5520940003916621,True,11,-1,0,5
Y2-S2-152M20,7,496,PS,exp,36,↑,up,↑,0.6275145998224616,True,11,-1,0,5
Y2-S2-152M20,7,497,PS,exp,48,↓,down,↓,0.509406500030309,True,11,1,1,6
Y2-S2-152M20,7,498,PS,exp,42,→,right,→,0.39988879999145865,True,10,1,0,6
Y2-S2-152M20,7,499,PS,exp,38,↓,down,↓,0.5290604997426271,True,10,1,0,6
Y2-S2-152M20,7,500,PS,exp,36,→,up,↑,0.989155599847436,False,10,-1,1,7
Y2-S2-152M20,7,501,PS,exp,39,↓,down,↓,0.4710348998196423,True,11,-1,0,7
Y2-S2-152M20,7,502,PS,exp,30,↑,up,↑,0.5443909000605345,True,11,-1,0,7
Y2-S2-152M20,7,503,PS,exp,31,↓,down,↓,0.5376450996845961,True,11,1,1,8
Y2-S2-152M20,7,504,PS,exp,37,→,right,→,0.5732873999513686,True,10,1,0,8
Y2-S2-152M20,7,505,PS,exp,44,←,left,←,0.6510633998550475,True,10,1,0,8
Y2-S2-152M20,7,506,PS,exp,42,↓,down,↓,0.5854976000264287,True,10,1,0,8
Y2-S2-152M20,7,507,PS,exp,42,→,right,→,0.4790937998332083,True,9,1,0,8
Y2-S2-152M20,7,508,PS,exp,34,↑,up,↑,0.6099101998843253,True,9,1,0,8
Y2-S2-152M20,7,509,PS,exp,38,→,down,↓,0.5641348999924958,False,9,-1,1,9
Y2-S2-152M20,7,510,PS,exp,39,←,left,←,0.5999598996713758,True,10,-1,0,9
Y2-S2-152M20,7,511,PS,exp,32,↑,up,↑,0.5559068000875413,True,10,-1,0,9
Y2-S2-152M20,7,512,PS,exp,34,→,no_key,no_letter,-1.0,False,10,-1,0,9
Y2-S2-152M20,7,513,PS,exp,29,←,left,←,0.45408419985324144,True,11,-1,0,9
Y2-S2-152M20,7,514,PS,exp,38,↑,up,↑,0.5129049997776747,True,11,-1,0,9
Y2-S2-152M20,7,515,PS,exp,39,→,right,→,0.44316940009593964,True,11,1,1,10
Y2-S2-152M20,7,516,PS,exp,25,↑,left,←,0.8506277999840677,False,10,-1,1,11
Y2-S2-152M20,7,517,PS,exp,29,→,right,→,0.46418539993464947,True,11,-1,0,11
Y2-S2-152M20,7,518,PS,exp,25,←,right,→,0.47576900012791157,False,11,-1,0,11
Y2-S2-152M20,7,519,PS,exp,33,→,right,→,0.3949915999546647,True,12,-1,0,11
Y2-S2-152M20,7,520,PS,exp,49,←,left,←,0.78511569974944,True,12,-1,0,11
Y2-S2-152M20,7,521,PS,exp,39,↑,right,→,0.9550724001601338,False,12,-1,0,11
Y2-S2-152M20,7,522,PS,exp,42,↓,down,↓,0.5797623000107706,True,13,-1,0,11
Y2-S2-152M20,7,523,PS,exp,34,↑,up,↑,0.6193884001113474,True,13,-1,0,11
Y2-S2-152M20,7,524,PS,exp,25,→,up,↑,0.6094968998804688,False,13,-1,0,11
Y2-S2-152M20,7,525,PS,exp,48,←,left,←,0.5355970999225974,True,14,-1,0,11
Y2-S2-152M20,7,526,PS,exp,33,→,right,→,1.067480499856174,True,14,-1,0,11
Y2-S2-152M20,7,527,PS,exp,45,←,left,←,0.5479398001916707,True,14,1,1,12
Y2-S2-152M20,7,528,PS,exp,28,→,right,→,0.5046606999821961,True,13,1,0,12
Y2-S2-152M20,7,529,PS,exp,43,←,left,←,0.7871864996850491,True,13,1,0,12
Y2-S2-152M20,7,530,PS,exp,28,↑,right,→,0.630078399553895,False,13,-1,1,13
Y2-S2-152M20,7,531,PS,exp,34,←,left,←,1.1253285999409854,True,14,-1,0,13
Y2-S2-152M20,7,532,PS,exp,45,→,right,→,0.4419660000130534,True,14,-1,0,13
Y2-S2-152M20,7,533,PS,exp,48,↑,up,↑,0.564846399705857,True,14,1,1,14
Y2-S2-152M20,7,534,PS,exp,49,←,left,←,0.7657743999734521,True,13,1,0,14
Y2-S2-152M20,7,535,PS,exp,48,↑,up,↑,0.44135789992287755,True,13,1,0,14
Y2-S2-152M20,7,536,PS,exp,37,→,right,→,0.4872717997059226,True,13,1,0,14
Y2-S2-152M20,7,537,PS,exp,49,↓,down,↓,0.7445088000968099,True,12,1,0,14
Y2-S2-152M20,7,538,PS,exp,28,→,right,→,0.9017457002773881,True,12,1,0,14
Y2-S2-152M20,7,539,PS,exp,31,↓,down,↓,0.560816100332886,True,12,1,0,14
Y2-S2-152M20,7,540,PS,exp,29,↑,up,↑,0.5698734000325203,True,11,1,0,14
Y2-S2-152M20,7,541,PS,exp,30,→,right,→,0.3650422999635339,True,11,1,0,14
Y2-S2-152M20,7,542,PS,exp,48,←,left,←,0.38556439988315105,True,11,1,0,14
Y2-S2-152M20,7,543,PS,exp,26,↑,up,↑,0.8865049001760781,True,10,1,0,14
Y2-S2-152M20,7,544,PS,exp,33,↓,down,↓,0.5599286998622119,True,10,1,0,14
Y2-S2-152M20,7,545,PS,exp,30,↑,up,↑,0.5723538002930582,True,10,1,0,14
Y2-S2-152M20,7,546,PS,exp,34,↓,up,↑,0.4848596998490393,False,9,-1,1,15
Y2-S2-152M20,7,547,PS,exp,45,↑,up,↑,0.5863175000995398,True,10,-1,0,15
Y2-S2-152M20,7,548,PS,exp,49,→,right,→,0.3997319000773132,True,10,-1,0,15
Y2-S2-152M20,7,549,PS,exp,47,↓,down,↓,0.7372848000377417,True,10,1,1,16
Y2-S2-152M20,8,550,AS,intra_train,47,↑,up,↑,0.5006144996732473,True,24,-,-,-
Y2-S2-152M20,8,551,AS,intra_train,37,→,right,→,0.8075970001518726,True,24,-,-,-
Y2-S2-152M20,8,552,AS,intra_train,45,↑,up,↑,0.5955010000616312,True,24,-,-,-
Y2-S2-152M20,8,553,AS,intra_train,45,→,right,→,0.5336961001157761,True,24,-,-,-
Y2-S2-152M20,8,554,AS,intra_train,44,↑,up,↑,0.8056493997573853,True,24,-,-,-
Y2-S2-152M20,8,555,AS,exp,42,↓,left,←,0.8581328000873327,False,16,-1,0,0
Y2-S2-152M20,8,556,AS,exp,41,↑,up,↑,0.6935318000614643,True,17,-1,0,0
Y2-S2-152M20,8,557,AS,exp,39,↓,down,↓,0.7454025000333786,True,17,-1,0,0
Y2-S2-152M20,8,558,AS,exp,43,→,right,→,0.4173530996777117,True,17,1,1,1
Y2-S2-152M20,8,559,AS,exp,42,←,up,↑,0.7449163002893329,False,16,-1,1,2
Y2-S2-152M20,8,560,AS,exp,36,↑,right,→,0.778543499764055,False,17,-1,0,2
Y2-S2-152M20,8,561,AS,exp,47,→,right,→,0.6891367002390325,True,18,-1,0,2
Y2-S2-152M20,8,562,AS,exp,50,←,left,←,0.5948172002099454,True,18,-1,0,2
Y2-S2-152M20,8,563,AS,exp,34,↓,down,↓,0.6974852997809649,True,18,1,1,3
Y2-S2-152M20,8,564,AS,exp,44,→,down,↓,1.0437728995457292,False,17,-1,1,4
Y2-S2-152M20,8,565,AS,exp,30,↓,down,↓,0.8466849997639656,True,18,-1,0,4
Y2-S2-152M20,8,566,AS,exp,33,←,left,←,0.5214060000143945,True,18,-1,0,4
Y2-S2-152M20,8,567,AS,exp,41,↓,down,↓,0.5222994000650942,True,18,1,1,5
Y2-S2-152M20,8,568,AS,exp,39,↑,up,↑,1.0943570998497307,True,17,1,0,5
Y2-S2-152M20,8,569,AS,exp,48,↓,down,↓,0.972068099770695,True,17,1,0,5
Y2-S2-152M20,8,570,AS,exp,26,→,right,→,0.36700560012832284,True,17,1,0,5
Y2-S2-152M20,8,571,AS,exp,40,←,down,↓,0.8616863996721804,False,16,-1,1,6
Y2-S2-152M20,8,572,AS,exp,41,↑,up,↑,0.6918243998661637,True,17,-1,0,6
Y2-S2-152M20,8,573,AS,exp,28,←,down,↓,0.7317196996882558,False,17,-1,0,6
Y2-S2-152M20,8,574,AS,exp,30,↑,up,↑,0.7750687003135681,True,18,-1,0,6
Y2-S2-152M20,8,575,AS,exp,26,↓,down,↓,0.6478303000330925,True,18,-1,0,6
Y2-S2-152M20,8,576,AS,exp,36,←,left,←,0.8630341999232769,True,18,1,1,7
Y2-S2-152M20,8,577,AS,exp,36,↑,up,↑,0.5210656002163887,True,17,1,0,7
Y2-S2-152M20,8,578,AS,exp,35,←,left,←,0.8181249001063406,True,17,1,0,7
Y2-S2-152M20,8,579,AS,exp,40,↓,down,↓,0.5463403998874128,True,17,1,0,7
Y2-S2-152M20,8,580,AS,exp,42,→,right,→,0.9666758999228477,True,16,1,0,7
Y2-S2-152M20,8,581,AS,exp,42,←,left,←,0.6271671000868082,True,16,1,0,7
Y2-S2-152M20,8,582,AS,exp,40,↓,down,↓,1.0655122003518045,True,16,1,0,7
Y2-S2-152M20,8,583,AS,exp,26,→,right,→,0.8503731000237167,True,15,1,0,7
Y2-S2-152M20,8,584,AS,exp,48,↓,down,↓,0.4624066003598273,True,15,1,0,7
Y2-S2-152M20,8,585,AS,exp,30,→,down,↓,1.0090870000422,False,15,-1,1,8
Y2-S2-152M20,8,586,AS,exp,25,↓,down,↓,0.521823899820447,True,16,-1,0,8
Y2-S2-152M20,8,587,AS,exp,50,↑,up,↑,0.5090274000540376,True,16,-1,0,8
Y2-S2-152M20,8,588,AS,exp,50,↓,down,↓,0.4004404996521771,True,16,1,1,9
Y2-S2-152M20,8,589,AS,exp,39,→,right,→,0.4480724004097283,True,15,1,0,9
Y2-S2-152M20,8,590,AS,exp,35,↑,down,↓,1.15970170032233,False,15,-1,1,10
Y2-S2-152M20,8,591,AS,exp,41,←,up,↑,0.8965082000941038,False,16,-1,0,10
Y2-S2-152M20,8,592,AS,exp,29,↓,down,↓,0.609357500448823,True,17,-1,0,10
Y2-S2-152M20,8,593,AS,exp,40,→,left,←,1.1325477003119886,False,17,-1,0,10
Y2-S2-152M20,8,594,AS,exp,47,↑,up,↑,1.297457099892199,True,18,-1,0,10
Y2-S2-152M20,8,595,AS,exp,36,←,left,←,0.692601399961859,True,18,-1,0,10
Y2-S2-152M20,8,596,AS,exp,29,↓,down,↓,0.7013269001618028,True,18,1,1,11
Y2-S2-152M20,8,597,AS,exp,33,←,left,←,0.6130607998929918,True,17,1,0,11
Y2-S2-152M20,8,598,AS,exp,33,↑,up,↑,0.5986272003501654,True,17,1,0,11
Y2-S2-152M20,8,599,AS,exp,44,←,left,←,0.6362453997135162,True,17,1,0,11
Y2-S2-152M20,8,600,AS,exp,29,↓,down,↓,0.5364149999804795,True,16,1,0,11
Y2-S2-152M20,8,601,AS,exp,49,←,left,←,0.7104163998737931,True,16,1,0,11
Y2-S2-152M20,8,602,AS,exp,39,→,right,→,0.6713874000124633,True,16,1,0,11
Y2-S2-152M20,8,603,AS,exp,41,↓,down,↓,0.9942162004299462,True,15,1,0,11
Y2-S2-152M20,8,604,AS,exp,49,←,right,→,0.880396299995482,False,15,-1,1,12
Y2-S2-152M20,8,605,AS,exp,25,→,right,→,0.5538455997593701,True,16,-1,0,12
Y2-S2-152M20,8,606,AS,exp,33,←,right,→,0.6829625996761024,False,16,-1,0,12
Y2-S2-152M20,8,607,AS,exp,50,↑,up,↑,0.6882740003056824,True,17,-1,0,12
Y2-S2-152M20,8,608,AS,exp,39,←,left,←,0.5161884999834001,True,17,-1,0,12
Y2-S2-152M20,8,609,AS,exp,46,↓,down,↓,0.7349632000550628,True,17,1,1,13
Y2-S2-152M20,8,610,AS,exp,45,↑,up,↑,0.7927304999902844,True,16,1,0,13
Y2-S2-152M20,8,611,AS,exp,31,↓,down,↓,0.7077942001633346,True,16,1,0,13
Y2-S2-152M20,8,612,AS,exp,35,↑,up,↑,0.4929362996481359,True,16,1,0,13
Y2-S2-152M20,8,613,AS,exp,35,→,up,↑,1.0309272999875247,False,15,-1,1,14
Y2-S2-152M20,8,614,AS,exp,39,↓,down,↓,0.5578465000726283,True,16,-1,0,14
Y2-S2-152M20,8,615,AS,exp,35,→,right,→,0.5030450997874141,True,16,-1,0,14
Y2-S2-152M20,8,616,AS,exp,50,↓,down,↓,1.3516782997176051,True,16,1,1,15
Y2-S2-152M20,8,617,AS,exp,37,↑,down,↓,1.0032379999756813,False,15,-1,1,16
