PART_ID,Block_no,Trial_no,Block_type,Trial_type,CSI,Stim_letter,Key_pressed,letter_choose,Rt,Corr,Stimulus Time,Level,Reversal,Revs_count
Y2-S2-209K20,1,1,PS,train,29,→,right,→,1.0102994998451322,True,30,-,-,-
Y2-S2-209K20,1,2,PS,train,37,↑,up,↑,0.5506472000852227,True,30,-,-,-
Y2-S2-209K20,1,3,PS,train,26,↓,down,↓,0.5838369999546558,True,30,-,-,-
Y2-S2-209K20,1,4,PS,train,37,→,right,→,0.5840042000636458,True,30,-,-,-
Y2-S2-209K20,1,5,PS,train,38,←,left,←,0.6720799999311566,True,30,-,-,-
Y2-S2-209K20,1,6,PS,train,46,↑,up,↑,0.6337574999779463,True,30,-,-,-
Y2-S2-209K20,1,7,PS,train,47,↓,down,↓,1.5040521000046283,True,30,-,-,-
Y2-S2-209K20,1,8,PS,train,39,→,right,→,0.6779946000315249,True,30,-,-,-
Y2-S2-209K20,1,9,PS,train,25,↓,down,↓,0.5672291000373662,True,30,-,-,-
Y2-S2-209K20,1,10,PS,train,36,→,right,→,0.6340581998229027,True,30,-,-,-
Y2-S2-209K20,2,11,AS,train,38,↑,up,↑,0.5843136999756098,True,45,-,-,-
Y2-S2-209K20,2,12,AS,train,44,→,right,→,0.6176816001534462,True,45,-,-,-
Y2-S2-209K20,2,13,AS,train,50,↓,down,↓,0.7510387001093477,True,45,-,-,-
Y2-S2-209K20,2,14,AS,train,29,←,right,→,0.6013672000262886,False,45,-,-,-
Y2-S2-209K20,2,15,AS,train,40,↓,down,↓,0.8506286998745054,True,45,-,-,-
Y2-S2-209K20,2,16,AS,train,48,←,left,←,0.634182499954477,True,45,-,-,-
Y2-S2-209K20,2,17,AS,train,36,↑,up,↑,0.9468431000132114,True,45,-,-,-
Y2-S2-209K20,2,18,AS,train,50,←,down,↓,1.8276358000002801,False,45,-,-,-
Y2-S2-209K20,2,19,AS,train,41,↓,up,↑,0.46774980006739497,False,45,-,-,-
Y2-S2-209K20,2,20,AS,train,27,→,right,→,0.8837212999351323,True,45,-,-,-
Y2-S2-209K20,-,21,PS,adaptive,40,↓,down,↓,0.8796896999701858,True,10,0,0,0
Y2-S2-209K20,-,22,PS,adaptive,47,↑,up,↑,0.44372419989667833,True,10,0,0,0
Y2-S2-209K20,-,23,PS,adaptive,41,↓,up,↑,0.3940955998841673,False,10,-1,0,0
Y2-S2-209K20,-,24,PS,adaptive,39,←,left,←,0.5708866000641137,True,11,-1,0,0
Y2-S2-209K20,-,25,PS,adaptive,40,↑,up,↑,0.4697185999248177,True,11,-1,0,0
Y2-S2-209K20,-,26,PS,adaptive,49,→,right,→,0.5835762000642717,True,11,1,1,1
Y2-S2-209K20,-,27,PS,adaptive,37,↓,down,↓,0.44863840006291866,True,10,1,0,1
Y2-S2-209K20,-,28,PS,adaptive,41,↑,up,↑,0.5056531000882387,True,10,1,0,1
Y2-S2-209K20,-,29,PS,adaptive,34,←,right,→,0.6117357001639903,False,10,-1,1,2
Y2-S2-209K20,-,30,PS,adaptive,50,→,right,→,0.5947226998396218,True,11,-1,0,2
Y2-S2-209K20,-,31,PS,adaptive,44,←,down,↓,1.0117998998612165,False,11,-1,0,2
Y2-S2-209K20,-,32,PS,adaptive,46,↓,up,↑,0.8913856002036482,False,12,-1,0,2
Y2-S2-209K20,-,33,PS,adaptive,34,↑,up,↑,0.4551301000174135,True,13,-1,0,2
Y2-S2-209K20,-,34,PS,adaptive,46,↓,down,↓,0.5209635999053717,True,13,-1,0,2
Y2-S2-209K20,-,35,PS,adaptive,34,←,left,←,0.8847972999792546,True,13,1,1,3
Y2-S2-209K20,-,36,PS,adaptive,25,↑,up,↑,0.5765165998600423,True,12,1,0,3
Y2-S2-209K20,-,37,PS,adaptive,42,→,up,↑,1.0756119000725448,False,12,-1,1,4
Y2-S2-209K20,-,38,AS,adaptive,33,↓,down,↓,0.5525987001601607,True,20,0,0,0
Y2-S2-209K20,-,39,AS,adaptive,28,↑,up,↑,0.8186722998507321,True,20,0,0,0
Y2-S2-209K20,-,40,AS,adaptive,40,↓,down,↓,0.6765746998135,True,20,1,0,0
Y2-S2-209K20,-,41,AS,adaptive,32,→,right,→,0.5018689001444727,True,19,1,0,0
Y2-S2-209K20,-,42,AS,adaptive,44,←,down,↓,0.7268902000505477,False,19,-1,1,1
Y2-S2-209K20,-,43,AS,adaptive,45,↓,up,↑,1.5441682001110166,False,20,-1,0,1
Y2-S2-209K20,-,44,AS,adaptive,28,←,left,←,0.6965848000254482,True,21,-1,0,1
Y2-S2-209K20,-,45,AS,adaptive,36,↑,up,↑,0.7273329999297857,True,21,-1,0,1
Y2-S2-209K20,-,46,AS,adaptive,44,↓,up,↑,0.5875693999696523,False,21,-1,0,1
Y2-S2-209K20,-,47,AS,adaptive,33,←,left,←,0.4838179999496788,True,22,-1,0,1
Y2-S2-209K20,-,48,AS,adaptive,42,↓,up,↑,0.9412160001229495,False,22,-1,0,1
Y2-S2-209K20,-,49,AS,adaptive,38,→,left,←,0.5646762000396848,False,23,-1,0,1
Y2-S2-209K20,-,50,AS,adaptive,42,↓,down,↓,0.6956705001648515,True,24,-1,0,1
Y2-S2-209K20,-,51,AS,adaptive,49,←,left,←,0.8611689999233931,True,24,-1,0,1
Y2-S2-209K20,-,52,AS,adaptive,30,↑,up,↑,0.5979780999477953,True,24,1,1,2
Y2-S2-209K20,-,53,AS,adaptive,39,↓,down,↓,0.899975199950859,True,23,1,0,2
Y2-S2-209K20,-,54,AS,adaptive,42,↑,left,←,0.7909902001265436,False,23,-1,1,3
Y2-S2-209K20,-,55,AS,adaptive,31,←,up,↑,0.6674513998441398,False,24,-1,0,3
Y2-S2-209K20,-,56,AS,adaptive,46,↑,up,↑,0.7251318001653999,True,25,-1,0,3
Y2-S2-209K20,-,57,AS,adaptive,48,→,right,→,0.8760302998125553,True,25,-1,0,3
Y2-S2-209K20,-,58,AS,adaptive,37,←,left,←,0.7745745000429451,True,25,1,1,4
Y2-S2-209K20,1,59,PS,intra_train,32,↑,up,↑,1.1017533999402076,True,19,-,-,-
Y2-S2-209K20,1,60,PS,intra_train,32,←,left,←,0.5952296999748796,True,19,-,-,-
Y2-S2-209K20,1,61,PS,intra_train,27,→,right,→,0.5230930000543594,True,19,-,-,-
Y2-S2-209K20,1,62,PS,intra_train,26,↓,down,↓,0.5798926001880318,True,19,-,-,-
Y2-S2-209K20,1,63,PS,intra_train,28,←,right,→,0.8520308998413384,False,19,-,-,-
Y2-S2-209K20,1,64,PS,exp,49,↑,up,↑,0.7298232999164611,True,13,0,0,0
Y2-S2-209K20,1,65,PS,exp,35,←,left,←,0.7316119999159127,True,13,0,0,0
Y2-S2-209K20,1,66,PS,exp,42,→,left,←,0.9260422000661492,False,13,-1,0,0
Y2-S2-209K20,1,67,PS,exp,28,←,right,→,0.48137699998915195,False,14,-1,0,0
Y2-S2-209K20,1,68,PS,exp,28,↓,down,↓,0.5610370000358671,True,15,-1,0,0
Y2-S2-209K20,1,69,PS,exp,41,↑,up,↑,0.7265165999997407,True,15,-1,0,0
Y2-S2-209K20,1,70,PS,exp,36,←,left,←,0.6881554001010954,True,15,1,1,1
Y2-S2-209K20,1,71,PS,exp,40,↓,down,↓,0.6626114000100642,True,14,1,0,1
Y2-S2-209K20,1,72,PS,exp,42,↑,up,↑,0.8517717998474836,True,14,1,0,1
Y2-S2-209K20,1,73,PS,exp,39,←,left,←,0.9056344998534769,True,14,1,0,1
Y2-S2-209K20,1,74,PS,exp,30,→,right,→,0.7547010998241603,True,13,1,0,1
Y2-S2-209K20,1,75,PS,exp,38,←,left,←,0.9599391999654472,True,13,1,0,1
Y2-S2-209K20,1,76,PS,exp,35,↑,up,↑,0.8746073001530021,True,13,1,0,1
Y2-S2-209K20,1,77,PS,exp,41,→,right,→,0.5619809997733682,True,12,1,0,1
Y2-S2-209K20,1,78,PS,exp,32,←,right,→,0.861025599995628,False,12,-1,1,2
Y2-S2-209K20,1,79,PS,exp,33,↑,up,↑,0.6971756001003087,True,13,-1,0,2
Y2-S2-209K20,1,80,PS,exp,32,↓,up,↑,1.1658958999905735,False,13,-1,0,2
Y2-S2-209K20,1,81,PS,exp,43,←,right,→,0.5335574001073837,False,14,-1,0,2
Y2-S2-209K20,1,82,PS,exp,42,→,right,→,0.5660383999347687,True,15,-1,0,2
Y2-S2-209K20,1,83,PS,exp,38,↑,up,↑,0.5246186000294983,True,15,-1,0,2
Y2-S2-209K20,1,84,PS,exp,46,↓,down,↓,0.6872511000838131,True,15,1,1,3
Y2-S2-209K20,1,85,PS,exp,41,←,left,←,0.7947762000840157,True,14,1,0,3
Y2-S2-209K20,1,86,PS,exp,38,↑,up,↑,0.8849943999666721,True,14,1,0,3
Y2-S2-209K20,1,87,PS,exp,36,←,left,←,0.5940120997838676,True,14,1,0,3
Y2-S2-209K20,1,88,PS,exp,35,→,right,→,0.5881300999317318,True,13,1,0,3
Y2-S2-209K20,1,89,PS,exp,40,↑,up,↑,0.9195514998864383,True,13,1,0,3
Y2-S2-209K20,1,90,PS,exp,30,↓,down,↓,0.832729100016877,True,13,1,0,3
Y2-S2-209K20,1,91,PS,exp,28,→,right,→,0.5767623998690397,True,12,1,0,3
Y2-S2-209K20,1,92,PS,exp,49,↓,right,→,0.8462299001403153,False,12,-1,1,4
Y2-S2-209K20,1,93,PS,exp,50,←,right,→,1.3827260001562536,False,13,-1,0,4
Y2-S2-209K20,1,94,PS,exp,41,↓,no_key,no_letter,-1.0,False,14,-1,0,4
Y2-S2-209K20,1,95,PS,exp,50,↑,up,↑,1.1195751000195742,True,15,-1,0,4
Y2-S2-209K20,1,96,PS,exp,26,↓,down,↓,0.678913899930194,True,15,-1,0,4
Y2-S2-209K20,1,97,PS,exp,38,←,left,←,0.9594513000920415,True,15,1,1,5
Y2-S2-209K20,1,98,PS,exp,50,↑,down,↓,0.7160130001138896,False,14,-1,1,6
Y2-S2-209K20,1,99,PS,exp,28,→,right,→,0.5931631999555975,True,15,-1,0,6
Y2-S2-209K20,1,100,PS,exp,29,↓,right,→,0.8163010999560356,False,15,-1,0,6
Y2-S2-209K20,1,101,PS,exp,49,↑,down,↓,0.7086610998958349,False,16,-1,0,6
Y2-S2-209K20,1,102,PS,exp,44,→,down,↓,1.0012924999464303,False,17,-1,0,6
Y2-S2-209K20,1,103,PS,exp,27,↑,up,↑,0.7886852000374347,True,18,-1,0,6
Y2-S2-209K20,1,104,PS,exp,48,↓,down,↓,1.0724493998568505,True,18,-1,0,6
Y2-S2-209K20,1,105,PS,exp,35,→,down,↓,0.9655935999471694,False,18,-1,0,6
Y2-S2-209K20,1,106,PS,exp,39,↑,up,↑,0.6255928000900894,True,19,-1,0,6
Y2-S2-209K20,1,107,PS,exp,38,←,left,←,0.5751518001779914,True,19,-1,0,6
Y2-S2-209K20,1,108,PS,exp,38,↑,down,↓,0.8358108999673277,False,19,-1,0,6
Y2-S2-209K20,1,109,PS,exp,31,↓,down,↓,0.7763618000317365,True,20,-1,0,6
Y2-S2-209K20,1,110,PS,exp,46,↑,left,←,1.2417425999883562,False,20,-1,0,6
Y2-S2-209K20,1,111,PS,exp,30,↓,down,↓,0.9652221999131143,True,21,-1,0,6
Y2-S2-209K20,1,112,PS,exp,33,→,right,→,0.766259100055322,True,21,-1,0,6
Y2-S2-209K20,1,113,PS,exp,33,←,no_key,no_letter,-1.0,False,21,-1,0,6
Y2-S2-209K20,1,114,PS,exp,31,↓,down,↓,0.7010089000687003,True,22,-1,0,6
Y2-S2-209K20,1,115,PS,exp,44,→,down,↓,0.9907357001211494,False,22,-1,0,6
Y2-S2-209K20,1,116,PS,exp,44,↓,down,↓,0.5917076000478119,True,23,-1,0,6
Y2-S2-209K20,1,117,PS,exp,32,↑,down,↓,0.6893337001092732,False,23,-1,0,6
Y2-S2-209K20,1,118,PS,exp,43,←,no_key,no_letter,-1.0,False,24,-1,0,6
Y2-S2-209K20,1,119,PS,exp,43,↑,no_key,no_letter,-1.0,False,25,-1,0,6
Y2-S2-209K20,1,120,PS,exp,33,←,left,←,1.254081399878487,True,26,-1,0,6
Y2-S2-209K20,1,121,PS,exp,44,↑,up,↑,1.0197918999474496,True,26,-1,0,6
Y2-S2-209K20,1,122,PS,exp,39,↓,down,↓,0.8437473999802023,True,26,1,1,7
Y2-S2-209K20,1,123,PS,exp,43,↑,up,↑,0.68943090015091,True,25,1,0,7
Y2-S2-209K20,1,124,PS,exp,35,↓,down,↓,0.6618411999661475,True,25,1,0,7
Y2-S2-209K20,1,125,PS,exp,25,←,left,←,0.7630992999766022,True,25,1,0,7
Y2-S2-209K20,1,126,PS,exp,26,↑,up,↑,0.983788600191474,True,24,1,0,7
Y2-S2-209K20,1,127,PS,exp,46,←,left,←,0.6202004000078887,True,24,1,0,7
Y2-S2-209K20,1,128,PS,exp,39,→,down,↓,1.645736100152135,False,24,-1,1,8
Y2-S2-209K20,1,129,PS,exp,50,↓,down,↓,0.6345220000948757,True,25,-1,0,8
Y2-S2-209K20,1,130,PS,exp,41,↑,up,↑,0.7819462001789361,True,25,-1,0,8
Y2-S2-209K20,1,131,PS,exp,41,↓,right,→,0.6124552998226136,False,25,-1,0,8
Y2-S2-209K20,1,132,PS,exp,50,→,no_key,no_letter,-1.0,False,26,-1,0,8
Y2-S2-209K20,1,133,PS,exp,34,↓,up,↑,0.9239513999782503,False,27,-1,0,8
Y2-S2-209K20,1,134,PS,exp,44,→,right,→,0.7656312000472099,True,28,-1,0,8
Y2-S2-209K20,1,135,PS,exp,36,↓,up,↑,0.8014822001568973,False,28,-1,0,8
Y2-S2-209K20,1,136,PS,exp,38,→,up,↑,1.4900271999649704,False,29,-1,0,8
Y2-S2-209K20,1,137,PS,exp,46,↓,no_key,no_letter,-1.0,False,30,-1,0,8
Y2-S2-209K20,1,138,PS,exp,39,→,down,↓,1.0823175001423806,False,31,-1,0,8
Y2-S2-209K20,1,139,PS,exp,33,←,left,←,0.7879725999664515,True,32,-1,0,8
Y2-S2-209K20,1,140,PS,exp,26,↓,down,↓,0.9967133000027388,True,32,-1,0,8
Y2-S2-209K20,1,141,PS,exp,30,←,left,←,1.6886092000640929,True,32,1,1,9
Y2-S2-209K20,1,142,PS,exp,39,→,right,→,0.533808299805969,True,31,1,0,9
Y2-S2-209K20,1,143,PS,exp,37,↓,down,↓,0.7265248999465257,True,31,1,0,9
Y2-S2-209K20,1,144,PS,exp,42,↑,up,↑,0.7042332000564784,True,31,1,0,9
Y2-S2-209K20,1,145,PS,exp,48,←,left,←,0.8134639000054449,True,30,1,0,9
Y2-S2-209K20,1,146,PS,exp,40,↓,down,↓,0.5670757999178022,True,30,1,0,9
Y2-S2-209K20,1,147,PS,exp,50,↑,up,↑,0.5011686000507325,True,30,1,0,9
Y2-S2-209K20,1,148,PS,exp,48,↓,down,↓,0.5334596999455243,True,29,1,0,9
Y2-S2-209K20,1,149,PS,exp,28,↑,right,→,1.600396400084719,False,29,-1,1,10
Y2-S2-209K20,1,150,PS,exp,50,→,down,↓,0.7337581000756472,False,30,-1,0,10
Y2-S2-209K20,1,151,PS,exp,38,↓,down,↓,1.6038691999856383,True,31,-1,0,10
Y2-S2-209K20,1,152,PS,exp,48,←,left,←,1.1149581000208855,True,31,-1,0,10
Y2-S2-209K20,1,153,PS,exp,34,↓,down,↓,2.0068137000780553,True,31,1,1,11
Y2-S2-209K20,1,154,PS,exp,30,←,right,→,1.5284140999428928,False,30,-1,1,12
Y2-S2-209K20,1,155,PS,exp,28,→,right,→,0.5176032001618296,True,31,-1,0,12
Y2-S2-209K20,1,156,PS,exp,46,↑,up,↑,0.7008827000390738,True,31,-1,0,12
Y2-S2-209K20,1,157,PS,exp,46,→,right,→,0.43415780016221106,True,31,1,1,13
Y2-S2-209K20,1,158,PS,exp,30,↓,up,↑,0.7789159000385553,False,30,-1,1,14
Y2-S2-209K20,1,159,PS,exp,29,↑,up,↑,0.600301300175488,True,31,-1,0,14
Y2-S2-209K20,1,160,PS,exp,34,→,right,→,0.7232822999358177,True,31,-1,0,14
Y2-S2-209K20,1,161,PS,exp,34,←,left,←,1.332512900000438,True,31,1,1,15
Y2-S2-209K20,1,162,PS,exp,30,↓,down,↓,0.7352871999610215,True,30,1,0,15
Y2-S2-209K20,1,163,PS,exp,39,←,right,→,0.4511389001272619,False,30,-1,1,16
Y2-S2-209K20,2,164,AS,intra_train,42,↓,down,↓,0.8718044999986887,True,36,-,-,-
Y2-S2-209K20,2,165,AS,intra_train,30,←,left,←,0.7338924000505358,True,36,-,-,-
Y2-S2-209K20,2,166,AS,intra_train,31,→,right,→,0.46744070015847683,True,36,-,-,-
Y2-S2-209K20,2,167,AS,intra_train,50,←,left,←,0.5677030000369996,True,36,-,-,-
Y2-S2-209K20,2,168,AS,intra_train,28,↓,down,↓,0.6006486997939646,True,36,-,-,-
Y2-S2-209K20,2,169,AS,exp,46,→,right,→,0.5038355998694897,True,24,0,0,0
Y2-S2-209K20,2,170,AS,exp,42,↓,down,↓,0.7974349001888186,True,24,0,0,0
Y2-S2-209K20,2,171,AS,exp,42,←,no_key,no_letter,-1.0,False,24,-1,0,0
Y2-S2-209K20,2,172,AS,exp,30,↑,no_key,no_letter,-1.0,False,25,-1,0,0
Y2-S2-209K20,2,173,AS,exp,33,↓,right,→,0.7360682000871748,False,26,-1,0,0
Y2-S2-209K20,2,174,AS,exp,44,↑,up,↑,1.8154255000408739,True,27,-1,0,0
Y2-S2-209K20,2,175,AS,exp,41,↓,no_key,no_letter,-1.0,False,27,-1,0,0
Y2-S2-209K20,2,176,AS,exp,26,←,left,←,1.3228750000707805,True,28,-1,0,0
Y2-S2-209K20,2,177,AS,exp,39,→,right,→,0.7237587000709027,True,28,-1,0,0
Y2-S2-209K20,2,178,AS,exp,34,↑,up,↑,0.7731512000318617,True,28,1,1,1
Y2-S2-209K20,2,179,AS,exp,39,←,left,←,0.9285196999553591,True,27,1,0,1
Y2-S2-209K20,2,180,AS,exp,45,↑,right,→,0.45044209994375706,False,27,-1,1,2
Y2-S2-209K20,2,181,AS,exp,48,→,right,→,0.7370386000256985,True,28,-1,0,2
Y2-S2-209K20,2,182,AS,exp,46,↑,up,↑,0.9783879998140037,True,28,-1,0,2
Y2-S2-209K20,2,183,AS,exp,30,→,up,↑,1.4190003001131117,False,28,-1,0,2
Y2-S2-209K20,2,184,AS,exp,26,↑,down,↓,0.5838270999956876,False,29,-1,0,2
Y2-S2-209K20,2,185,AS,exp,44,←,left,←,1.1579512001480907,True,30,-1,0,2
Y2-S2-209K20,2,186,AS,exp,29,↑,up,↑,1.042490999912843,True,30,-1,0,2
Y2-S2-209K20,2,187,AS,exp,34,←,no_key,no_letter,-1.0,False,30,-1,0,2
Y2-S2-209K20,2,188,AS,exp,25,↓,down,↓,0.5507159999106079,True,31,-1,0,2
Y2-S2-209K20,2,189,AS,exp,36,→,left,←,0.7211919000837952,False,31,-1,0,2
Y2-S2-209K20,2,190,AS,exp,42,←,left,←,0.600548499962315,True,32,-1,0,2
Y2-S2-209K20,2,191,AS,exp,32,↑,left,←,1.0781695998739451,False,32,-1,0,2
Y2-S2-209K20,2,192,AS,exp,47,→,right,→,0.5505183998029679,True,33,-1,0,2
Y2-S2-209K20,2,193,AS,exp,48,↑,no_key,no_letter,-1.0,False,33,-1,0,2
Y2-S2-209K20,2,194,AS,exp,27,←,no_key,no_letter,-1.0,False,34,-1,0,2
Y2-S2-209K20,2,195,AS,exp,43,→,right,→,0.6841672998853028,True,35,-1,0,2
Y2-S2-209K20,2,196,AS,exp,42,←,left,←,0.9742103000171483,True,35,-1,0,2
Y2-S2-209K20,2,197,AS,exp,47,↑,up,↑,1.4471746000926942,True,35,1,1,3
Y2-S2-209K20,2,198,AS,exp,42,→,no_key,no_letter,-1.0,False,34,-1,1,4
Y2-S2-209K20,2,199,AS,exp,31,↓,no_key,no_letter,-1.0,False,35,-1,0,4
Y2-S2-209K20,2,200,AS,exp,35,↑,no_key,no_letter,-1.0,False,36,-1,0,4
Y2-S2-209K20,2,201,AS,exp,25,→,right,→,0.7508292999118567,True,37,-1,0,4
Y2-S2-209K20,2,202,AS,exp,45,←,left,←,0.8852522999513894,True,37,-1,0,4
Y2-S2-209K20,2,203,AS,exp,46,↓,down,↓,0.9005582998506725,True,37,1,1,5
Y2-S2-209K20,2,204,AS,exp,32,→,right,→,0.8270008000545204,True,36,1,0,5
Y2-S2-209K20,2,205,AS,exp,40,↑,up,↑,0.7874567999970168,True,36,1,0,5
Y2-S2-209K20,2,206,AS,exp,50,→,right,→,2.1264944998547435,True,36,1,0,5
Y2-S2-209K20,2,207,AS,exp,34,↑,up,↑,0.9606208000332117,True,35,1,0,5
Y2-S2-209K20,2,208,AS,exp,25,↓,no_key,no_letter,-1.0,False,35,-1,1,6
Y2-S2-209K20,2,209,AS,exp,50,↑,no_key,no_letter,-1.0,False,36,-1,0,6
Y2-S2-209K20,2,210,AS,exp,46,↓,no_key,no_letter,-1.0,False,37,-1,0,6
Y2-S2-209K20,2,211,AS,exp,37,←,right,→,0.9399317000061274,False,38,-1,0,6
Y2-S2-209K20,2,212,AS,exp,42,↓,no_key,no_letter,-1.0,False,39,-1,0,6
Y2-S2-209K20,2,213,AS,exp,34,←,right,→,0.4678929001092911,False,40,-1,0,6
Y2-S2-209K20,2,214,AS,exp,39,↑,up,↑,0.5342413000762463,True,41,-1,0,6
Y2-S2-209K20,2,215,AS,exp,31,←,right,→,0.5678841001354158,False,41,-1,0,6
Y2-S2-209K20,2,216,AS,exp,27,↓,down,↓,0.8339404000435024,True,42,-1,0,6
Y2-S2-209K20,2,217,AS,exp,25,↑,up,↑,0.9367404000367969,True,42,-1,0,6
Y2-S2-209K20,2,218,AS,exp,28,↓,down,↓,1.0053549001459032,True,42,1,1,7
Y2-S2-209K20,2,219,AS,exp,34,←,left,←,0.9062304999679327,True,41,1,0,7
Y2-S2-209K20,2,220,AS,exp,28,↓,down,↓,0.8510276000015438,True,41,1,0,7
Y2-S2-209K20,2,221,AS,exp,27,→,right,→,0.7172326000872999,True,41,1,0,7
Y2-S2-209K20,2,222,AS,exp,32,←,left,←,0.7509417999535799,True,40,1,0,7
Y2-S2-209K20,2,223,AS,exp,38,↑,up,↑,0.7671751999296248,True,40,1,0,7
Y2-S2-209K20,2,224,AS,exp,38,↓,down,↓,0.8570642999839038,True,40,1,0,7
Y2-S2-209K20,2,225,AS,exp,44,←,right,→,0.9877220001071692,False,39,-1,1,8
Y2-S2-209K20,2,226,AS,exp,50,↑,left,←,0.7504385998472571,False,40,-1,0,8
Y2-S2-209K20,2,227,AS,exp,37,←,left,←,0.8898703998420388,True,41,-1,0,8
Y2-S2-209K20,2,228,AS,exp,33,↑,down,↓,1.348234900040552,False,41,-1,0,8
Y2-S2-209K20,2,229,AS,exp,31,↓,no_key,no_letter,-1.0,False,42,-1,0,8
Y2-S2-209K20,2,230,AS,exp,35,←,down,↓,0.7173065000679344,False,43,-1,0,8
Y2-S2-209K20,2,231,AS,exp,46,→,right,→,1.5173877000343055,True,44,-1,0,8
Y2-S2-209K20,2,232,AS,exp,44,↑,right,→,1.9868767999578267,False,44,-1,0,8
Y2-S2-209K20,2,233,AS,exp,46,↓,up,↑,1.3152968999929726,False,45,-1,0,8
Y2-S2-209K20,2,234,AS,exp,39,→,no_key,no_letter,-1.0,False,46,-1,0,8
Y2-S2-209K20,2,235,AS,exp,48,←,no_key,no_letter,-1.0,False,47,-1,0,8
Y2-S2-209K20,2,236,AS,exp,28,→,right,→,0.7012549999635667,True,48,-1,0,8
Y2-S2-209K20,2,237,AS,exp,45,↑,up,↑,1.3086957999039441,True,48,-1,0,8
Y2-S2-209K20,2,238,AS,exp,36,↓,down,↓,0.834410100011155,True,48,1,1,9
Y2-S2-209K20,2,239,AS,exp,45,→,right,→,0.6342790999915451,True,47,1,0,9
Y2-S2-209K20,2,240,AS,exp,49,↑,up,↑,0.7673287000507116,True,47,1,0,9
Y2-S2-209K20,2,241,AS,exp,28,←,right,→,0.4845642999280244,False,47,-1,1,10
Y2-S2-209K20,2,242,AS,exp,37,↑,up,↑,0.9956976999528706,True,48,-1,0,10
Y2-S2-209K20,2,243,AS,exp,25,←,left,←,1.0218442999757826,True,48,-1,0,10
Y2-S2-209K20,2,244,AS,exp,33,↓,down,↓,0.784681900171563,True,48,1,1,11
Y2-S2-209K20,2,245,AS,exp,43,→,right,→,0.4511707001365721,True,47,1,0,11
Y2-S2-209K20,2,246,AS,exp,40,←,left,←,0.6175651999656111,True,47,1,0,11
Y2-S2-209K20,2,247,AS,exp,27,↓,no_key,no_letter,-1.0,False,47,-1,1,12
Y2-S2-209K20,2,248,AS,exp,27,←,right,→,1.5899203999433666,False,48,-1,0,12
Y2-S2-209K20,2,249,AS,exp,43,→,no_key,no_letter,-1.0,False,49,-1,0,12
Y2-S2-209K20,2,250,AS,exp,37,↓,up,↑,0.8506757998839021,False,50,-1,0,12
Y2-S2-209K20,2,251,AS,exp,47,→,right,→,1.1632207999937236,True,51,-1,0,12
Y2-S2-209K20,2,252,AS,exp,40,↑,down,↓,1.2171911001205444,False,51,-1,0,12
Y2-S2-209K20,2,253,AS,exp,29,↓,down,↓,0.9338160001207143,True,52,-1,0,12
Y2-S2-209K20,2,254,AS,exp,28,←,left,←,0.7675817999988794,True,52,-1,0,12
Y2-S2-209K20,2,255,AS,exp,36,↓,down,↓,0.517352299997583,True,52,1,1,13
Y2-S2-209K20,2,256,AS,exp,43,←,left,←,0.6178301000036299,True,51,1,0,13
Y2-S2-209K20,2,257,AS,exp,25,↓,down,↓,0.7182846998330206,True,51,1,0,13
Y2-S2-209K20,2,258,AS,exp,43,↑,up,↑,1.623363499995321,True,51,1,0,13
Y2-S2-209K20,2,259,AS,exp,38,↓,down,↓,1.0436654998920858,True,50,1,0,13
Y2-S2-209K20,2,260,AS,exp,39,↑,up,↑,0.617502799956128,True,50,1,0,13
Y2-S2-209K20,2,261,AS,exp,49,→,right,→,1.8369744000956416,True,50,1,0,13
Y2-S2-209K20,2,262,AS,exp,46,←,left,←,1.141648700227961,True,49,1,0,13
Y2-S2-209K20,2,263,AS,exp,42,→,right,→,0.7005314000416547,True,49,1,0,13
Y2-S2-209K20,2,264,AS,exp,33,↑,up,↑,0.35142459999769926,True,49,1,0,13
Y2-S2-209K20,2,265,AS,exp,36,→,right,→,0.7344716000370681,True,48,1,0,13
Y2-S2-209K20,2,266,AS,exp,33,↑,up,↑,0.6511266001034528,True,48,1,0,13
Y2-S2-209K20,2,267,AS,exp,36,→,right,→,1.048448400106281,True,48,1,0,13
Y2-S2-209K20,2,268,AS,exp,48,↓,up,↑,0.5179697000421584,False,47,-1,1,14
Y2-S2-209K20,2,269,AS,exp,28,→,up,↑,0.567615499952808,False,48,-1,0,14
Y2-S2-209K20,2,270,AS,exp,48,←,left,←,1.039402399910614,True,49,-1,0,14
Y2-S2-209K20,2,271,AS,exp,48,→,right,→,0.8339466999750584,True,49,-1,0,14
Y2-S2-209K20,2,272,AS,exp,41,↑,left,←,0.9173185001127422,False,49,-1,0,14
Y2-S2-209K20,2,273,AS,exp,25,←,left,←,1.3199885999783874,True,50,-1,0,14
Y2-S2-209K20,2,274,AS,exp,44,→,no_key,no_letter,-1.0,False,50,-1,0,14
Y2-S2-209K20,2,275,AS,exp,46,←,up,↑,1.079464599955827,False,51,-1,0,14
Y2-S2-209K20,2,276,AS,exp,49,→,right,→,1.047644899925217,True,52,-1,0,14
Y2-S2-209K20,2,277,AS,exp,50,↓,down,↓,0.7511628998909146,True,52,-1,0,14
Y2-S2-209K20,2,278,AS,exp,50,→,right,→,1.0005161999724805,True,52,1,1,15
Y2-S2-209K20,2,279,AS,exp,38,↑,up,↑,1.4762929000426084,True,51,1,0,15
Y2-S2-209K20,2,280,AS,exp,37,↓,down,↓,0.8672203000169247,True,51,1,0,15
Y2-S2-209K20,2,281,AS,exp,41,←,left,←,0.7344108999241143,True,51,1,0,15
Y2-S2-209K20,2,282,AS,exp,26,→,right,→,0.8175221998244524,True,50,1,0,15
Y2-S2-209K20,2,283,AS,exp,31,↓,down,↓,0.9504656000062823,True,50,1,0,15
Y2-S2-209K20,2,284,AS,exp,43,→,right,→,0.8506519000511616,True,50,1,0,15
Y2-S2-209K20,2,285,AS,exp,41,↓,down,↓,1.7884855999145657,True,49,1,0,15
Y2-S2-209K20,2,286,AS,exp,32,←,left,←,0.9008478000760078,True,49,1,0,15
Y2-S2-209K20,2,287,AS,exp,43,↓,down,↓,0.7678308000322431,True,49,1,0,15
Y2-S2-209K20,2,288,AS,exp,50,→,right,→,0.9171843000221997,True,48,1,0,15
Y2-S2-209K20,2,289,AS,exp,29,←,left,←,1.1588888999540359,True,48,1,0,15
Y2-S2-209K20,2,290,AS,exp,46,→,left,←,0.6177060999907553,False,48,-1,1,16
Y2-S2-209K20,3,291,AS,intra_train,39,↓,down,↓,1.1365384999662638,True,36,-,-,-
Y2-S2-209K20,3,292,AS,intra_train,45,↑,up,↑,1.6230516000650823,True,36,-,-,-
Y2-S2-209K20,3,293,AS,intra_train,48,↓,down,↓,1.141576300142333,True,36,-,-,-
Y2-S2-209K20,3,294,AS,intra_train,39,→,right,→,1.2734429999254644,True,36,-,-,-
Y2-S2-209K20,3,295,AS,intra_train,32,←,left,←,0.6671076999045908,True,36,-,-,-
Y2-S2-209K20,3,296,AS,exp,27,→,right,→,1.2201839999761432,True,24,0,0,0
Y2-S2-209K20,3,297,AS,exp,38,↑,up,↑,0.7875777001027018,True,24,0,0,0
Y2-S2-209K20,3,298,AS,exp,48,↓,down,↓,0.9907615000847727,True,24,1,0,0
Y2-S2-209K20,3,299,AS,exp,32,→,right,→,0.5898783998563886,True,23,1,0,0
Y2-S2-209K20,3,300,AS,exp,32,↓,down,↓,1.5077455998398364,True,23,1,0,0
Y2-S2-209K20,3,301,AS,exp,26,→,right,→,1.1474664001725614,True,23,1,0,0
Y2-S2-209K20,3,302,AS,exp,31,↑,up,↑,0.450676399981603,True,22,1,0,0
Y2-S2-209K20,3,303,AS,exp,25,→,right,→,1.3657563999295235,True,22,1,0,0
Y2-S2-209K20,3,304,AS,exp,33,↑,up,↑,0.4504301000852138,True,22,1,0,0
Y2-S2-209K20,3,305,AS,exp,43,↓,up,↑,1.0422853000927716,False,21,-1,1,1
Y2-S2-209K20,3,306,AS,exp,44,↑,up,↑,0.7033380998764187,True,22,-1,0,1
Y2-S2-209K20,3,307,AS,exp,40,←,left,←,0.7396366000175476,True,22,-1,0,1
Y2-S2-209K20,3,308,AS,exp,39,→,left,←,1.2027809000574052,False,22,-1,0,1
Y2-S2-209K20,3,309,AS,exp,37,↓,up,↑,0.4337460999377072,False,23,-1,0,1
Y2-S2-209K20,3,310,AS,exp,38,→,left,←,0.5915263001807034,False,24,-1,0,1
Y2-S2-209K20,3,311,AS,exp,36,←,left,←,0.758043099893257,True,25,-1,0,1
Y2-S2-209K20,3,312,AS,exp,37,↑,up,↑,0.722517600050196,True,25,-1,0,1
Y2-S2-209K20,3,313,AS,exp,47,→,right,→,0.8760757001582533,True,25,1,1,2
Y2-S2-209K20,3,314,AS,exp,37,↑,up,↑,0.7042773000430316,True,24,1,0,2
Y2-S2-209K20,3,315,AS,exp,49,←,left,←,0.7988420000765473,True,24,1,0,2
Y2-S2-209K20,3,316,AS,exp,40,→,right,→,0.650767199927941,True,24,1,0,2
Y2-S2-209K20,3,317,AS,exp,43,↑,up,↑,0.5005886999424547,True,23,1,0,2
Y2-S2-209K20,3,318,AS,exp,29,↓,down,↓,0.9591380001511425,True,23,1,0,2
Y2-S2-209K20,3,319,AS,exp,26,←,left,←,0.8799860998988152,True,23,1,0,2
Y2-S2-209K20,3,320,AS,exp,26,↑,up,↑,0.7378165998961776,True,22,1,0,2
Y2-S2-209K20,3,321,AS,exp,26,←,left,←,0.8939241000916809,True,22,1,0,2
Y2-S2-209K20,3,322,AS,exp,27,→,right,→,0.8313921999651939,True,22,1,0,2
Y2-S2-209K20,3,323,AS,exp,33,←,left,←,0.8551381002180278,True,21,1,0,2
Y2-S2-209K20,3,324,AS,exp,34,↑,up,↑,1.0190469999797642,True,21,1,0,2
Y2-S2-209K20,3,325,AS,exp,29,←,left,←,0.7303572001401335,True,21,1,0,2
Y2-S2-209K20,3,326,AS,exp,30,↑,up,↑,0.6578130000270903,True,20,1,0,2
Y2-S2-209K20,3,327,AS,exp,40,←,left,←,0.7141818001400679,True,20,1,0,2
Y2-S2-209K20,3,328,AS,exp,32,→,right,→,1.3464202000759542,True,20,1,0,2
Y2-S2-209K20,3,329,AS,exp,46,↓,down,↓,0.6216213000006974,True,19,1,0,2
Y2-S2-209K20,3,330,AS,exp,26,←,left,←,0.8875155001878738,True,19,1,0,2
Y2-S2-209K20,3,331,AS,exp,47,↓,down,↓,0.8879986999090761,True,19,1,0,2
Y2-S2-209K20,3,332,AS,exp,50,→,right,→,1.0176743001211435,True,18,1,0,2
Y2-S2-209K20,3,333,AS,exp,46,↑,up,↑,0.9966873000375926,True,18,1,0,2
Y2-S2-209K20,3,334,AS,exp,28,→,up,↑,0.8683726999443024,False,18,-1,1,3
Y2-S2-209K20,3,335,AS,exp,34,←,up,↑,0.6423275999259204,False,19,-1,0,3
Y2-S2-209K20,3,336,AS,exp,27,→,no_key,no_letter,-1.0,False,20,-1,0,3
Y2-S2-209K20,3,337,AS,exp,32,←,left,←,0.7101899001281708,True,21,-1,0,3
Y2-S2-209K20,3,338,AS,exp,31,↓,down,↓,0.6105859000235796,True,21,-1,0,3
Y2-S2-209K20,3,339,AS,exp,49,←,left,←,1.0784019001293927,True,21,1,1,4
Y2-S2-209K20,3,340,AS,exp,28,↓,no_key,no_letter,-1.0,False,20,-1,1,5
Y2-S2-209K20,3,341,AS,exp,40,↑,no_key,no_letter,-1.0,False,21,-1,0,5
Y2-S2-209K20,3,342,AS,exp,31,←,left,←,0.7733235000632703,True,22,-1,0,5
Y2-S2-209K20,3,343,AS,exp,32,↑,up,↑,0.6060637000482529,True,22,-1,0,5
Y2-S2-209K20,3,344,AS,exp,26,→,no_key,no_letter,-1.0,False,22,-1,0,5
Y2-S2-209K20,3,345,AS,exp,44,↓,down,↓,0.7308260998688638,True,23,-1,0,5
Y2-S2-209K20,3,346,AS,exp,45,←,left,←,0.9149650998879224,True,23,-1,0,5
Y2-S2-209K20,3,347,AS,exp,38,→,left,←,0.8341958001255989,False,23,-1,0,5
Y2-S2-209K20,3,348,AS,exp,35,↑,left,←,0.8832855999935418,False,24,-1,0,5
Y2-S2-209K20,3,349,AS,exp,26,→,up,↑,0.5508549998048693,False,25,-1,0,5
Y2-S2-209K20,3,350,AS,exp,43,←,no_key,no_letter,-1.0,False,26,-1,0,5
Y2-S2-209K20,3,351,AS,exp,32,→,right,→,1.062518399907276,True,27,-1,0,5
Y2-S2-209K20,3,352,AS,exp,37,↓,down,↓,1.1688216000329703,True,27,-1,0,5
Y2-S2-209K20,3,353,AS,exp,32,↑,up,↑,0.678804999915883,True,27,1,1,6
Y2-S2-209K20,3,354,AS,exp,44,↓,down,↓,0.7347120000049472,True,26,1,0,6
Y2-S2-209K20,3,355,AS,exp,30,←,left,←,1.215680600143969,True,26,1,0,6
Y2-S2-209K20,3,356,AS,exp,31,↓,no_key,no_letter,-1.0,False,26,-1,1,7
Y2-S2-209K20,3,357,AS,exp,33,←,no_key,no_letter,-1.0,False,27,-1,0,7
Y2-S2-209K20,3,358,AS,exp,35,→,right,→,0.5838559998665005,True,28,-1,0,7
Y2-S2-209K20,3,359,AS,exp,50,←,left,←,1.7595072998665273,True,28,-1,0,7
Y2-S2-209K20,3,360,AS,exp,47,→,right,→,0.771609699819237,True,28,1,1,8
Y2-S2-209K20,3,361,AS,exp,48,↓,down,↓,0.7363986999262124,True,27,1,0,8
Y2-S2-209K20,3,362,AS,exp,41,↑,up,↑,0.6860406000632793,True,27,1,0,8
Y2-S2-209K20,3,363,AS,exp,50,↓,down,↓,0.8585192998871207,True,27,1,0,8
Y2-S2-209K20,3,364,AS,exp,44,↑,up,↑,1.1064502000808716,True,26,1,0,8
Y2-S2-209K20,3,365,AS,exp,50,→,right,→,0.9870147998444736,True,26,1,0,8
Y2-S2-209K20,3,366,AS,exp,25,←,left,←,1.0987432000692934,True,26,1,0,8
Y2-S2-209K20,3,367,AS,exp,35,↓,down,↓,0.9095276000443846,True,25,1,0,8
Y2-S2-209K20,3,368,AS,exp,31,→,right,→,0.6270232999231666,True,25,1,0,8
Y2-S2-209K20,3,369,AS,exp,49,↓,down,↓,0.8195995998103172,True,25,1,0,8
Y2-S2-209K20,3,370,AS,exp,32,↑,up,↑,0.8104189999867231,True,24,1,0,8
Y2-S2-209K20,3,371,AS,exp,43,←,left,←,0.601927800104022,True,24,1,0,8
Y2-S2-209K20,3,372,AS,exp,33,→,right,→,0.9646957998629659,True,24,1,0,8
Y2-S2-209K20,3,373,AS,exp,32,←,left,←,0.7056670999154449,True,23,1,0,8
Y2-S2-209K20,3,374,AS,exp,32,↑,up,↑,0.6293139001354575,True,23,1,0,8
Y2-S2-209K20,3,375,AS,exp,49,→,right,→,0.7712163999676704,True,23,1,0,8
Y2-S2-209K20,3,376,AS,exp,30,←,left,←,0.8515804999042302,True,22,1,0,8
Y2-S2-209K20,3,377,AS,exp,50,↓,down,↓,0.5523114998359233,True,22,1,0,8
Y2-S2-209K20,3,378,AS,exp,40,←,left,←,0.6478556001093239,True,22,1,0,8
Y2-S2-209K20,3,379,AS,exp,36,→,right,→,0.8128631999716163,True,21,1,0,8
Y2-S2-209K20,3,380,AS,exp,32,↑,up,↑,0.8980252000037581,True,21,1,0,8
Y2-S2-209K20,3,381,AS,exp,45,←,left,←,0.6675273000728339,True,21,1,0,8
Y2-S2-209K20,3,382,AS,exp,41,↓,left,←,0.7621921000536531,False,20,-1,1,9
Y2-S2-209K20,3,383,AS,exp,47,→,left,←,0.7642940999940038,False,21,-1,0,9
Y2-S2-209K20,3,384,AS,exp,26,↓,down,↓,0.7523358000908047,True,22,-1,0,9
Y2-S2-209K20,3,385,AS,exp,49,↑,up,↑,0.5612342001404613,True,22,-1,0,9
Y2-S2-209K20,3,386,AS,exp,30,↓,down,↓,0.8520372998900712,True,22,1,1,10
Y2-S2-209K20,3,387,AS,exp,27,←,down,↓,1.0887489998713136,False,21,-1,1,11
Y2-S2-209K20,3,388,AS,exp,38,↓,no_key,no_letter,-1.0,False,22,-1,0,11
Y2-S2-209K20,3,389,AS,exp,39,→,down,↓,1.2048146999441087,False,23,-1,0,11
Y2-S2-209K20,3,390,AS,exp,42,↑,no_key,no_letter,-1.0,False,24,-1,0,11
Y2-S2-209K20,3,391,AS,exp,46,←,left,←,0.972564899828285,True,25,-1,0,11
Y2-S2-209K20,3,392,AS,exp,38,↑,up,↑,0.7896095998585224,True,25,-1,0,11
Y2-S2-209K20,3,393,AS,exp,34,↓,down,↓,0.6290965999942273,True,25,1,1,12
Y2-S2-209K20,3,394,AS,exp,37,↑,up,↑,0.7380022001452744,True,24,1,0,12
Y2-S2-209K20,3,395,AS,exp,40,←,left,←,0.6994751999154687,True,24,1,0,12
Y2-S2-209K20,3,396,AS,exp,29,→,right,→,1.0460099000483751,True,24,1,0,12
Y2-S2-209K20,3,397,AS,exp,49,←,left,←,0.6779272998683155,True,23,1,0,12
Y2-S2-209K20,3,398,AS,exp,39,→,right,→,0.7773412999231368,True,23,1,0,12
Y2-S2-209K20,3,399,AS,exp,25,←,left,←,0.9613315998576581,True,23,1,0,12
Y2-S2-209K20,3,400,AS,exp,47,↑,down,↓,0.6510725000407547,False,22,-1,1,13
Y2-S2-209K20,3,401,AS,exp,26,↓,down,↓,0.7373374002054334,True,23,-1,0,13
Y2-S2-209K20,3,402,AS,exp,47,→,right,→,0.8464133001398295,True,23,-1,0,13
Y2-S2-209K20,3,403,AS,exp,38,↓,down,↓,0.45046480000019073,True,23,1,1,14
Y2-S2-209K20,3,404,AS,exp,27,↑,up,↑,0.8163909998256713,True,22,1,0,14
Y2-S2-209K20,3,405,AS,exp,34,←,left,←,0.853697300190106,True,22,1,0,14
Y2-S2-209K20,3,406,AS,exp,44,↑,up,↑,0.7423614000435919,True,22,1,0,14
Y2-S2-209K20,3,407,AS,exp,43,→,right,→,0.6237794999033213,True,21,1,0,14
Y2-S2-209K20,3,408,AS,exp,48,↑,up,↑,0.7962502001319081,True,21,1,0,14
Y2-S2-209K20,3,409,AS,exp,26,→,right,→,0.8100822998676449,True,21,1,0,14
Y2-S2-209K20,3,410,AS,exp,27,↑,up,↑,0.8692380001302809,True,20,1,0,14
Y2-S2-209K20,3,411,AS,exp,29,←,left,←,0.7195681999437511,True,20,1,0,14
Y2-S2-209K20,3,412,AS,exp,34,↑,up,↑,0.681933999992907,True,20,1,0,14
Y2-S2-209K20,3,413,AS,exp,25,↓,up,↑,0.7541267999913543,False,19,-1,1,15
Y2-S2-209K20,3,414,AS,exp,34,→,right,→,0.8352700001560152,True,20,-1,0,15
Y2-S2-209K20,3,415,AS,exp,46,↓,right,→,0.23453710018657148,False,20,-1,0,15
Y2-S2-209K20,3,416,AS,exp,25,↑,up,↑,0.5202124998904765,True,21,-1,0,15
Y2-S2-209K20,3,417,AS,exp,33,↓,up,↑,0.8308567001949996,False,21,-1,0,15
Y2-S2-209K20,3,418,AS,exp,36,→,right,→,0.7015541999135166,True,22,-1,0,15
Y2-S2-209K20,3,419,AS,exp,29,←,left,←,0.8033636000473052,True,22,-1,0,15
Y2-S2-209K20,3,420,AS,exp,48,↑,down,↓,0.7697913001757115,False,22,-1,0,15
Y2-S2-209K20,3,421,AS,exp,49,←,left,←,0.8649679000955075,True,23,-1,0,15
Y2-S2-209K20,3,422,AS,exp,30,→,left,←,0.4838068999815732,False,23,-1,0,15
Y2-S2-209K20,3,423,AS,exp,31,↑,up,↑,2.032174800056964,True,24,-1,0,15
Y2-S2-209K20,3,424,AS,exp,34,←,down,↓,0.2844233000651002,False,24,-1,0,15
Y2-S2-209K20,3,425,AS,exp,45,↓,right,→,0.4339357998687774,False,25,-1,0,15
Y2-S2-209K20,3,426,AS,exp,34,↑,no_key,no_letter,-1.0,False,26,-1,0,15
Y2-S2-209K20,3,427,AS,exp,44,→,down,↓,1.3487442000769079,False,27,-1,0,15
Y2-S2-209K20,3,428,AS,exp,47,←,left,←,0.8523370998445898,True,28,-1,0,15
Y2-S2-209K20,3,429,AS,exp,27,↑,left,←,1.3851629998534918,False,28,-1,0,15
Y2-S2-209K20,3,430,AS,exp,40,→,left,←,0.6005141998175532,False,29,-1,0,15
Y2-S2-209K20,3,431,AS,exp,40,←,left,←,0.9092448002193123,True,30,-1,0,15
Y2-S2-209K20,3,432,AS,exp,34,↓,down,↓,0.7438534998800606,True,30,-1,0,15
Y2-S2-209K20,3,433,AS,exp,41,↑,up,↑,1.027434399817139,True,30,1,1,16
Y2-S2-209K20,4,434,PS,intra_train,48,←,left,←,0.5798446999397129,True,19,-,-,-
Y2-S2-209K20,4,435,PS,intra_train,29,↑,up,↑,0.5388428000733256,True,19,-,-,-
Y2-S2-209K20,4,436,PS,intra_train,30,↓,up,↑,0.840879499912262,False,19,-,-,-
Y2-S2-209K20,4,437,PS,intra_train,34,←,left,←,0.6146724000573158,True,19,-,-,-
Y2-S2-209K20,4,438,PS,intra_train,42,↓,down,↓,0.6918637999333441,True,19,-,-,-
Y2-S2-209K20,4,439,PS,exp,26,←,left,←,0.6220342998858541,True,13,0,0,0
Y2-S2-209K20,4,440,PS,exp,27,↓,up,↑,1.321563099976629,False,13,-1,0,0
Y2-S2-209K20,4,441,PS,exp,40,→,no_key,no_letter,-1.0,False,14,-1,0,0
Y2-S2-209K20,4,442,PS,exp,32,←,right,→,0.9256593999452889,False,15,-1,0,0
Y2-S2-209K20,4,443,PS,exp,31,↓,up,↑,1.1290805998723954,False,16,-1,0,0
Y2-S2-209K20,4,444,PS,exp,31,→,right,→,0.6132877001073211,True,17,-1,0,0
Y2-S2-209K20,4,445,PS,exp,28,←,left,←,0.5724571000318974,True,17,-1,0,0
Y2-S2-209K20,4,446,PS,exp,28,↓,up,↑,1.0181841999292374,False,17,-1,0,0
Y2-S2-209K20,4,447,PS,exp,37,←,left,←,0.6272369001526386,True,18,-1,0,0
Y2-S2-209K20,4,448,PS,exp,34,→,right,→,0.538696400122717,True,18,-1,0,0
Y2-S2-209K20,4,449,PS,exp,26,←,left,←,0.8305573998950422,True,18,1,1,1
Y2-S2-209K20,4,450,PS,exp,35,↓,down,↓,0.7098514998797327,True,17,1,0,1
Y2-S2-209K20,4,451,PS,exp,45,→,right,→,0.4760285001248121,True,17,1,0,1
Y2-S2-209K20,4,452,PS,exp,34,←,down,↓,0.8861990000586957,False,17,-1,1,2
Y2-S2-209K20,4,453,PS,exp,31,→,right,→,0.928811099845916,True,18,-1,0,2
Y2-S2-209K20,4,454,PS,exp,41,←,left,←,0.6453571999445558,True,18,-1,0,2
Y2-S2-209K20,4,455,PS,exp,31,→,up,↑,1.0763556000310928,False,18,-1,0,2
Y2-S2-209K20,4,456,PS,exp,41,↑,up,↑,0.8293649998959154,True,19,-1,0,2
Y2-S2-209K20,4,457,PS,exp,27,↓,down,↓,0.5418488001450896,True,19,-1,0,2
Y2-S2-209K20,4,458,PS,exp,49,↑,up,↑,0.5621980000287294,True,19,1,1,3
Y2-S2-209K20,4,459,PS,exp,49,←,left,←,0.6557362999301404,True,18,1,0,3
Y2-S2-209K20,4,460,PS,exp,35,↑,up,↑,0.5642064001876861,True,18,1,0,3
Y2-S2-209K20,4,461,PS,exp,48,→,right,→,0.4998194999061525,True,18,1,0,3
Y2-S2-209K20,4,462,PS,exp,39,←,left,←,0.5322050000540912,True,17,1,0,3
Y2-S2-209K20,4,463,PS,exp,50,↓,down,↓,0.5948141999542713,True,17,1,0,3
Y2-S2-209K20,4,464,PS,exp,50,↑,up,↑,0.4946329998783767,True,17,1,0,3
Y2-S2-209K20,4,465,PS,exp,36,→,right,→,0.4879322999622673,True,16,1,0,3
Y2-S2-209K20,4,466,PS,exp,37,↑,up,↑,0.5535066998563707,True,16,1,0,3
Y2-S2-209K20,4,467,PS,exp,46,→,right,→,0.6966839001979679,True,16,1,0,3
Y2-S2-209K20,4,468,PS,exp,34,↑,up,↑,0.734651500126347,True,15,1,0,3
Y2-S2-209K20,4,469,PS,exp,25,↓,up,↑,0.7566706000361592,False,15,-1,1,4
Y2-S2-209K20,4,470,PS,exp,30,←,left,←,0.6755876999814063,True,16,-1,0,4
Y2-S2-209K20,4,471,PS,exp,37,→,right,→,0.6210040999576449,True,16,-1,0,4
Y2-S2-209K20,4,472,PS,exp,35,↑,no_key,no_letter,-1.0,False,16,-1,0,4
Y2-S2-209K20,4,473,PS,exp,50,↓,right,→,0.8646151998545974,False,17,-1,0,4
Y2-S2-209K20,4,474,PS,exp,49,←,left,←,0.8562779000494629,True,18,-1,0,4
Y2-S2-209K20,4,475,PS,exp,38,→,down,↓,0.33375440002419055,False,18,-1,0,4
Y2-S2-209K20,4,476,PS,exp,47,↓,up,↑,1.2181384998839349,False,19,-1,0,4
Y2-S2-209K20,4,477,PS,exp,30,←,right,→,1.154686100082472,False,20,-1,0,4
Y2-S2-209K20,4,478,PS,exp,29,→,no_key,no_letter,-1.0,False,21,-1,0,4
Y2-S2-209K20,4,479,PS,exp,44,↑,up,↑,1.1817050001118332,True,22,-1,0,4
Y2-S2-209K20,4,480,PS,exp,29,←,right,→,0.4338453998789191,False,22,-1,0,4
Y2-S2-209K20,4,481,PS,exp,27,↑,up,↑,0.5620927000418305,True,23,-1,0,4
Y2-S2-209K20,4,482,PS,exp,34,↓,down,↓,0.8807391000445932,True,23,-1,0,4
Y2-S2-209K20,4,483,PS,exp,26,→,right,→,1.7136417999863625,True,23,1,1,5
Y2-S2-209K20,4,484,PS,exp,47,←,left,←,0.580381799954921,True,22,1,0,5
Y2-S2-209K20,4,485,PS,exp,31,↓,down,↓,1.0231655000243336,True,22,1,0,5
Y2-S2-209K20,4,486,PS,exp,30,→,right,→,1.226279400056228,True,22,1,0,5
Y2-S2-209K20,4,487,PS,exp,37,←,left,←,0.8420756000559777,True,21,1,0,5
Y2-S2-209K20,4,488,PS,exp,48,→,down,↓,0.6061338998842984,False,21,-1,1,6
Y2-S2-209K20,4,489,PS,exp,29,←,right,→,1.3362012000288814,False,22,-1,0,6
Y2-S2-209K20,4,490,PS,exp,40,→,right,→,0.5721585999708623,True,23,-1,0,6
Y2-S2-209K20,4,491,PS,exp,28,↑,up,↑,1.0673662000335753,True,23,-1,0,6
Y2-S2-209K20,4,492,PS,exp,26,←,left,←,0.6666578999720514,True,23,1,1,7
Y2-S2-209K20,4,493,PS,exp,46,↑,up,↑,0.7635109999682754,True,22,1,0,7
Y2-S2-209K20,4,494,PS,exp,50,↓,up,↑,1.5281034000217915,False,22,-1,1,8
Y2-S2-209K20,4,495,PS,exp,37,←,left,←,0.7315934998914599,True,23,-1,0,8
Y2-S2-209K20,4,496,PS,exp,40,↑,up,↑,0.4845797000452876,True,23,-1,0,8
Y2-S2-209K20,4,497,PS,exp,32,↓,down,↓,0.5834964998066425,True,23,1,1,9
Y2-S2-209K20,4,498,PS,exp,31,→,right,→,0.6631188001483679,True,22,1,0,9
Y2-S2-209K20,4,499,PS,exp,48,↑,up,↑,0.4672744001727551,True,22,1,0,9
Y2-S2-209K20,4,500,PS,exp,39,↓,right,→,0.890602899948135,False,22,-1,1,10
Y2-S2-209K20,4,501,PS,exp,30,←,left,←,0.757321499986574,True,23,-1,0,10
Y2-S2-209K20,4,502,PS,exp,40,↓,down,↓,0.6176352000329643,True,23,-1,0,10
Y2-S2-209K20,4,503,PS,exp,40,↑,up,↑,0.5171924999449402,True,23,1,1,11
Y2-S2-209K20,4,504,PS,exp,44,→,right,→,0.5816248999908566,True,22,1,0,11
Y2-S2-209K20,4,505,PS,exp,35,↓,down,↓,1.7752668000757694,True,22,1,0,11
Y2-S2-209K20,4,506,PS,exp,33,→,left,←,0.7283506998792291,False,22,-1,1,12
Y2-S2-209K20,4,507,PS,exp,27,←,left,←,0.6571061001159251,True,23,-1,0,12
Y2-S2-209K20,4,508,PS,exp,29,→,right,→,0.6074208000209183,True,23,-1,0,12
Y2-S2-209K20,4,509,PS,exp,41,←,left,←,0.712361800018698,True,23,1,1,13
Y2-S2-209K20,4,510,PS,exp,33,↓,up,↑,0.7109858000185341,False,22,-1,1,14
Y2-S2-209K20,4,511,PS,exp,42,→,right,→,0.40050920005887747,True,23,-1,0,14
Y2-S2-209K20,4,512,PS,exp,48,↑,up,↑,0.7770091998390853,True,23,-1,0,14
Y2-S2-209K20,4,513,PS,exp,48,←,left,←,1.1141419000923634,True,23,1,1,15
Y2-S2-209K20,4,514,PS,exp,36,↓,down,↓,1.0478679998777807,True,22,1,0,15
Y2-S2-209K20,4,515,PS,exp,42,→,right,→,0.9266904999967664,True,22,1,0,15
Y2-S2-209K20,4,516,PS,exp,25,↓,down,↓,0.6874345000833273,True,22,1,0,15
Y2-S2-209K20,4,517,PS,exp,41,→,up,↑,1.4520996999926865,False,21,-1,1,16
Y2-S2-209K20,5,518,PS,intra_train,29,←,left,←,0.556599099887535,True,19,-,-,-
Y2-S2-209K20,5,519,PS,intra_train,38,↓,down,↓,0.5449802000075579,True,19,-,-,-
Y2-S2-209K20,5,520,PS,intra_train,33,↑,up,↑,0.5956665000412613,True,19,-,-,-
Y2-S2-209K20,5,521,PS,intra_train,26,↓,down,↓,0.8434171001426876,True,19,-,-,-
Y2-S2-209K20,5,522,PS,intra_train,26,→,right,→,0.5307169000152498,True,19,-,-,-
Y2-S2-209K20,5,523,PS,exp,47,↑,up,↑,0.6482959999702871,True,13,0,0,0
Y2-S2-209K20,5,524,PS,exp,34,←,left,←,1.167280700057745,True,13,0,0,0
Y2-S2-209K20,5,525,PS,exp,48,→,right,→,0.5168510000221431,True,13,1,0,0
Y2-S2-209K20,5,526,PS,exp,38,←,left,←,0.5943547000642866,True,12,1,0,0
Y2-S2-209K20,5,527,PS,exp,29,↑,up,↑,0.7520155999809504,True,12,1,0,0
Y2-S2-209K20,5,528,PS,exp,32,→,down,↓,0.7607531999237835,False,12,-1,1,1
Y2-S2-209K20,5,529,PS,exp,33,↓,down,↓,0.5683754000347108,True,13,-1,0,1
Y2-S2-209K20,5,530,PS,exp,42,→,right,→,0.6138023999519646,True,13,-1,0,1
Y2-S2-209K20,5,531,PS,exp,30,↑,up,↑,0.9418455001432449,True,13,1,1,2
Y2-S2-209K20,5,532,PS,exp,28,↓,down,↓,0.5152072999626398,True,12,1,0,2
Y2-S2-209K20,5,533,PS,exp,42,→,right,→,0.5559307001531124,True,12,1,0,2
Y2-S2-209K20,5,534,PS,exp,25,↑,down,↓,0.8317158001009375,False,12,-1,1,3
Y2-S2-209K20,5,535,PS,exp,37,↓,down,↓,0.6082994001917541,True,13,-1,0,3
Y2-S2-209K20,5,536,PS,exp,41,↑,up,↑,0.7817039999645203,True,13,-1,0,3
Y2-S2-209K20,5,537,PS,exp,27,→,no_key,no_letter,-1.0,False,13,-1,0,3
Y2-S2-209K20,5,538,PS,exp,37,←,up,↑,0.879135400056839,False,14,-1,0,3
Y2-S2-209K20,5,539,PS,exp,32,↓,no_key,no_letter,-1.0,False,15,-1,0,3
Y2-S2-209K20,5,540,PS,exp,30,←,right,→,0.26736510009504855,False,16,-1,0,3
Y2-S2-209K20,5,541,PS,exp,26,→,no_key,no_letter,-1.0,False,17,-1,0,3
Y2-S2-209K20,5,542,PS,exp,43,↓,down,↓,1.0469935000874102,True,18,-1,0,3
Y2-S2-209K20,5,543,PS,exp,32,→,left,←,0.767584899906069,False,18,-1,0,3
Y2-S2-209K20,5,544,PS,exp,43,↓,down,↓,0.9865159001201391,True,19,-1,0,3
Y2-S2-209K20,5,545,PS,exp,29,↑,up,↑,0.6268964998889714,True,19,-1,0,3
Y2-S2-209K20,5,546,PS,exp,37,→,right,→,0.7046453999355435,True,19,1,1,4
Y2-S2-209K20,5,547,PS,exp,39,←,left,←,0.7408083998598158,True,18,1,0,4
Y2-S2-209K20,5,548,PS,exp,32,→,right,→,0.6600446000229567,True,18,1,0,4
Y2-S2-209K20,5,549,PS,exp,27,↑,up,↑,0.8765773000195622,True,18,1,0,4
Y2-S2-209K20,5,550,PS,exp,39,←,left,←,0.770172799937427,True,17,1,0,4
Y2-S2-209K20,5,551,PS,exp,35,→,right,→,0.7479866999201477,True,17,1,0,4
Y2-S2-209K20,5,552,PS,exp,39,↑,right,→,0.7265135000925511,False,17,-1,1,5
Y2-S2-209K20,5,553,PS,exp,35,→,right,→,0.6549949001055211,True,18,-1,0,5
Y2-S2-209K20,5,554,PS,exp,47,↑,up,↑,0.8839980999473482,True,18,-1,0,5
Y2-S2-209K20,5,555,PS,exp,28,→,right,→,0.5704975998960435,True,18,1,1,6
Y2-S2-209K20,5,556,PS,exp,48,↓,down,↓,1.0651457000058144,True,17,1,0,6
Y2-S2-209K20,5,557,PS,exp,34,←,right,→,0.6717720001470298,False,17,-1,1,7
Y2-S2-209K20,5,558,PS,exp,31,↑,no_key,no_letter,-1.0,False,18,-1,0,7
Y2-S2-209K20,5,559,PS,exp,47,←,down,↓,0.5666400999762118,False,19,-1,0,7
Y2-S2-209K20,5,560,PS,exp,26,→,left,←,0.8013168999459594,False,20,-1,0,7
Y2-S2-209K20,5,561,PS,exp,40,←,left,←,0.38373700017109513,True,21,-1,0,7
Y2-S2-209K20,5,562,PS,exp,40,→,down,↓,1.1849207000341266,False,21,-1,0,7
Y2-S2-209K20,5,563,PS,exp,29,←,up,↑,0.6697765998542309,False,22,-1,0,7
Y2-S2-209K20,5,564,PS,exp,27,→,left,←,0.05109159997664392,False,23,-1,0,7
Y2-S2-209K20,5,565,PS,exp,28,↓,down,↓,0.7689211999531835,True,24,-1,0,7
Y2-S2-209K20,5,566,PS,exp,43,←,left,←,0.7834616000764072,True,24,-1,0,7
Y2-S2-209K20,5,567,PS,exp,46,↑,up,↑,1.0540926000103354,True,24,1,1,8
Y2-S2-209K20,5,568,PS,exp,36,←,right,→,0.7921527000144124,False,23,-1,1,9
Y2-S2-209K20,5,569,PS,exp,33,↑,up,↑,0.7040418998803943,True,24,-1,0,9
Y2-S2-209K20,5,570,PS,exp,39,↓,right,→,0.4173012999817729,False,24,-1,0,9
Y2-S2-209K20,5,571,PS,exp,41,↑,down,↓,0.48388279997743666,False,25,-1,0,9
Y2-S2-209K20,5,572,PS,exp,41,←,left,←,0.3676312000025064,True,26,-1,0,9
Y2-S2-209K20,5,573,PS,exp,45,↑,no_key,no_letter,-1.0,False,26,-1,0,9
Y2-S2-209K20,5,574,PS,exp,33,←,down,↓,1.1811027999501675,False,27,-1,0,9
Y2-S2-209K20,5,575,PS,exp,39,↓,left,←,1.1236548000015318,False,28,-1,0,9
Y2-S2-209K20,5,576,PS,exp,35,→,left,←,1.6838132999837399,False,29,-1,0,9
Y2-S2-209K20,5,577,PS,exp,38,↓,no_key,no_letter,-1.0,False,30,-1,0,9
Y2-S2-209K20,5,578,PS,exp,34,←,no_key,no_letter,-1.0,False,31,-1,0,9
Y2-S2-209K20,5,579,PS,exp,50,↑,up,↑,0.9570035000797361,True,32,-1,0,9
Y2-S2-209K20,5,580,PS,exp,43,←,left,←,0.8856929999310523,True,32,-1,0,9
Y2-S2-209K20,5,581,PS,exp,48,↓,down,↓,1.069310899823904,True,32,1,1,10
Y2-S2-209K20,5,582,PS,exp,42,→,right,→,0.8729579001665115,True,31,1,0,10
Y2-S2-209K20,5,583,PS,exp,45,←,left,←,1.5073691001161933,True,31,1,0,10
Y2-S2-209K20,5,584,PS,exp,27,↓,down,↓,0.9721613998990506,True,31,1,0,10
Y2-S2-209K20,5,585,PS,exp,41,↑,up,↑,0.5005847001448274,True,30,1,0,10
Y2-S2-209K20,5,586,PS,exp,35,↓,down,↓,0.5338222000282258,True,30,1,0,10
Y2-S2-209K20,5,587,PS,exp,36,←,left,←,0.8001568999607116,True,30,1,0,10
Y2-S2-209K20,5,588,PS,exp,47,→,right,→,0.7979040998034179,True,29,1,0,10
Y2-S2-209K20,5,589,PS,exp,41,↑,up,↑,0.5840894000139087,True,29,1,0,10
Y2-S2-209K20,5,590,PS,exp,47,→,right,→,0.7019253000617027,True,29,1,0,10
Y2-S2-209K20,5,591,PS,exp,28,↑,up,↑,0.7817778000608087,True,28,1,0,10
Y2-S2-209K20,5,592,PS,exp,49,↓,no_key,no_letter,-1.0,False,28,-1,1,11
Y2-S2-209K20,5,593,PS,exp,45,↑,up,↑,1.3353287999052554,True,29,-1,0,11
Y2-S2-209K20,5,594,PS,exp,25,→,right,→,1.008137899916619,True,29,-1,0,11
Y2-S2-209K20,5,595,PS,exp,50,↑,up,↑,0.670784099958837,True,29,1,1,12
Y2-S2-209K20,5,596,PS,exp,45,↓,up,↑,1.2236508999485523,False,28,-1,1,13
Y2-S2-209K20,5,597,PS,exp,29,→,right,→,0.33446280006319284,True,29,-1,0,13
Y2-S2-209K20,5,598,PS,exp,27,↑,no_key,no_letter,-1.0,False,29,-1,0,13
Y2-S2-209K20,5,599,PS,exp,26,↓,up,↑,0.5005801001098007,False,30,-1,0,13
Y2-S2-209K20,5,600,PS,exp,43,←,left,←,0.8595751998946071,True,31,-1,0,13
Y2-S2-209K20,5,601,PS,exp,42,↓,down,↓,0.5338084001559764,True,31,-1,0,13
Y2-S2-209K20,5,602,PS,exp,25,←,left,←,1.0376553998794407,True,31,1,1,14
Y2-S2-209K20,5,603,PS,exp,46,↓,down,↓,0.31775559997186065,True,30,1,0,14
Y2-S2-209K20,5,604,PS,exp,40,↑,down,↓,0.8440481999423355,False,30,-1,1,15
Y2-S2-209K20,5,605,PS,exp,36,→,right,→,0.9437243998982012,True,31,-1,0,15
Y2-S2-209K20,5,606,PS,exp,38,↑,up,↑,0.5337175999302417,True,31,-1,0,15
Y2-S2-209K20,5,607,PS,exp,41,←,up,↑,0.0009838000405579805,False,31,-1,0,15
Y2-S2-209K20,5,608,PS,exp,42,↓,down,↓,0.7818034999072552,True,32,-1,0,15
Y2-S2-209K20,5,609,PS,exp,39,↑,left,←,0.3846184001304209,False,32,-1,0,15
Y2-S2-209K20,5,610,PS,exp,44,↓,down,↓,0.7482837999705225,True,33,-1,0,15
Y2-S2-209K20,5,611,PS,exp,50,→,right,→,0.4677738999016583,True,33,-1,0,15
Y2-S2-209K20,5,612,PS,exp,26,↑,up,↑,1.3397411999758333,True,33,1,1,16
Y2-S2-209K20,6,613,AS,intra_train,44,←,down,↓,0.8529272000305355,False,36,-,-,-
Y2-S2-209K20,6,614,AS,intra_train,47,↓,down,↓,0.6339950000401586,True,36,-,-,-
Y2-S2-209K20,6,615,AS,intra_train,45,→,right,→,1.5697743000928313,True,36,-,-,-
Y2-S2-209K20,6,616,AS,intra_train,29,↑,down,↓,0.7686326999682933,False,36,-,-,-
Y2-S2-209K20,6,617,AS,intra_train,29,→,right,→,0.8582860000897199,True,36,-,-,-
Y2-S2-209K20,6,618,AS,exp,41,↓,down,↓,0.7079325998201966,True,24,0,0,0
Y2-S2-209K20,6,619,AS,exp,39,→,right,→,0.8551981998607516,True,24,0,0,0
Y2-S2-209K20,6,620,AS,exp,48,↑,up,↑,0.8405595999211073,True,24,1,0,0
Y2-S2-209K20,6,621,AS,exp,32,←,left,←,0.7678664999548346,True,23,1,0,0
Y2-S2-209K20,6,622,AS,exp,44,↑,right,→,1.0830620001070201,False,23,-1,1,1
Y2-S2-209K20,6,623,AS,exp,26,→,right,→,1.1079862001352012,True,24,-1,0,1
Y2-S2-209K20,6,624,AS,exp,25,↓,no_key,no_letter,-1.0,False,24,-1,0,1
Y2-S2-209K20,6,625,AS,exp,50,↑,no_key,no_letter,-1.0,False,25,-1,0,1
Y2-S2-209K20,6,626,AS,exp,33,↓,no_key,no_letter,-1.0,False,26,-1,0,1
Y2-S2-209K20,6,627,AS,exp,44,←,no_key,no_letter,-1.0,False,27,-1,0,1
Y2-S2-209K20,6,628,AS,exp,37,↑,up,↑,1.3235388998873532,True,28,-1,0,1
Y2-S2-209K20,6,629,AS,exp,25,→,right,→,0.7077505998313427,True,28,-1,0,1
Y2-S2-209K20,6,630,AS,exp,36,↑,up,↑,0.5672595999203622,True,28,1,1,2
Y2-S2-209K20,6,631,AS,exp,39,↓,down,↓,1.3038436002098024,True,27,1,0,2
Y2-S2-209K20,6,632,AS,exp,28,↑,up,↑,1.0512761999852955,True,27,1,0,2
Y2-S2-209K20,6,633,AS,exp,35,↓,up,↑,1.5191769998054951,False,27,-1,1,3
Y2-S2-209K20,6,634,AS,exp,46,↑,up,↑,0.7812108001671731,True,28,-1,0,3
Y2-S2-209K20,6,635,AS,exp,29,↓,down,↓,1.0574243001174182,True,28,-1,0,3
Y2-S2-209K20,6,636,AS,exp,48,→,right,→,0.500560199841857,True,28,1,1,4
Y2-S2-209K20,6,637,AS,exp,28,↑,up,↑,0.7303881000261754,True,27,1,0,4
Y2-S2-209K20,6,638,AS,exp,34,→,right,→,0.6814252999611199,True,27,1,0,4
Y2-S2-209K20,6,639,AS,exp,29,←,right,→,0.5507207000628114,False,27,-1,1,5
Y2-S2-209K20,6,640,AS,exp,28,↑,up,↑,0.737468299921602,True,28,-1,0,5
Y2-S2-209K20,6,641,AS,exp,36,→,right,→,0.879537699976936,True,28,-1,0,5
Y2-S2-209K20,6,642,AS,exp,37,↓,no_key,no_letter,-1.0,False,28,-1,0,5
Y2-S2-209K20,6,643,AS,exp,31,→,no_key,no_letter,-1.0,False,29,-1,0,5
Y2-S2-209K20,6,644,AS,exp,45,←,up,↑,2.1170167999807745,False,30,-1,0,5
Y2-S2-209K20,6,645,AS,exp,39,→,right,→,0.7231316999532282,True,31,-1,0,5
Y2-S2-209K20,6,646,AS,exp,40,←,left,←,0.5508685000240803,True,31,-1,0,5
Y2-S2-209K20,6,647,AS,exp,25,→,right,→,1.5790656998287886,True,31,1,1,6
Y2-S2-209K20,6,648,AS,exp,40,↓,down,↓,1.056711999932304,True,30,1,0,6
Y2-S2-209K20,6,649,AS,exp,48,→,right,→,0.6005086000077426,True,30,1,0,6
Y2-S2-209K20,6,650,AS,exp,38,↓,down,↓,0.9895028998143971,True,30,1,0,6
Y2-S2-209K20,6,651,AS,exp,37,←,down,↓,1.4798570000566542,False,29,-1,1,7
Y2-S2-209K20,6,652,AS,exp,26,→,right,→,0.6804897000547498,True,30,-1,0,7
Y2-S2-209K20,6,653,AS,exp,35,↓,down,↓,0.8786741001531482,True,30,-1,0,7
Y2-S2-209K20,6,654,AS,exp,42,→,right,→,0.5172943999059498,True,30,1,1,8
Y2-S2-209K20,6,655,AS,exp,48,↓,down,↓,0.7079753000289202,True,29,1,0,8
Y2-S2-209K20,6,656,AS,exp,49,←,left,←,0.8325014000292867,True,29,1,0,8
Y2-S2-209K20,6,657,AS,exp,39,→,right,→,0.9305950999259949,True,29,1,0,8
Y2-S2-209K20,6,658,AS,exp,30,↓,down,↓,1.0944480998441577,True,28,1,0,8
Y2-S2-209K20,6,659,AS,exp,25,↑,up,↑,0.9720179999712855,True,28,1,0,8
Y2-S2-209K20,6,660,AS,exp,37,←,left,←,0.5506291999481618,True,28,1,0,8
Y2-S2-209K20,6,661,AS,exp,26,→,right,→,0.7008424000814557,True,27,1,0,8
Y2-S2-209K20,6,662,AS,exp,25,↑,up,↑,1.3611515001393855,True,27,1,0,8
Y2-S2-209K20,6,663,AS,exp,39,←,left,←,1.242789899930358,True,27,1,0,8
Y2-S2-209K20,6,664,AS,exp,27,↓,down,↓,0.9335743999108672,True,26,1,0,8
Y2-S2-209K20,6,665,AS,exp,28,←,left,←,0.861754999961704,True,26,1,0,8
Y2-S2-209K20,6,666,AS,exp,46,↑,up,↑,0.8072999001014978,True,26,1,0,8
Y2-S2-209K20,6,667,AS,exp,42,←,left,←,0.6784078001510352,True,25,1,0,8
Y2-S2-209K20,6,668,AS,exp,38,↓,down,↓,0.9224641998298466,True,25,1,0,8
Y2-S2-209K20,6,669,AS,exp,37,↑,up,↑,0.7526668000500649,True,25,1,0,8
Y2-S2-209K20,6,670,AS,exp,39,↓,down,↓,0.6087556001730263,True,24,1,0,8
Y2-S2-209K20,6,671,AS,exp,28,←,left,←,1.0764089999720454,True,24,1,0,8
Y2-S2-209K20,6,672,AS,exp,38,→,right,→,0.713343300158158,True,24,1,0,8
Y2-S2-209K20,6,673,AS,exp,35,↑,down,↓,1.04018189990893,False,23,-1,1,9
Y2-S2-209K20,6,674,AS,exp,32,↓,down,↓,1.3985741999931633,True,24,-1,0,9
Y2-S2-209K20,6,675,AS,exp,48,←,left,←,0.8982975999824703,True,24,-1,0,9
Y2-S2-209K20,6,676,AS,exp,32,↓,up,↑,1.0792660999577492,False,24,-1,0,9
Y2-S2-209K20,6,677,AS,exp,48,↑,up,↑,1.4117398001253605,True,25,-1,0,9
Y2-S2-209K20,6,678,AS,exp,45,↓,up,↑,0.9376865001395345,False,25,-1,0,9
Y2-S2-209K20,6,679,AS,exp,39,→,up,↑,1.2556268000043929,False,26,-1,0,9
Y2-S2-209K20,6,680,AS,exp,38,↑,left,←,1.0362991001456976,False,27,-1,0,9
Y2-S2-209K20,6,681,AS,exp,43,←,no_key,no_letter,-1.0,False,28,-1,0,9
Y2-S2-209K20,6,682,AS,exp,28,↓,right,→,1.0645171001087874,False,29,-1,0,9
Y2-S2-209K20,6,683,AS,exp,27,←,left,←,0.5672768999356776,True,30,-1,0,9
Y2-S2-209K20,6,684,AS,exp,25,↑,no_key,no_letter,-1.0,False,30,-1,0,9
Y2-S2-209K20,6,685,AS,exp,33,↓,no_key,no_letter,-1.0,False,31,-1,0,9
Y2-S2-209K20,6,686,AS,exp,39,→,right,→,0.7047942001372576,True,32,-1,0,9
Y2-S2-209K20,6,687,AS,exp,49,↓,down,↓,1.0287281000055373,True,32,-1,0,9
Y2-S2-209K20,6,688,AS,exp,40,←,up,↑,1.2106860000640154,False,32,-1,0,9
Y2-S2-209K20,6,689,AS,exp,31,↑,up,↑,0.7826448001433164,True,33,-1,0,9
Y2-S2-209K20,6,690,AS,exp,39,←,right,→,0.6169605001341552,False,33,-1,0,9
Y2-S2-209K20,6,691,AS,exp,31,↓,no_key,no_letter,-1.0,False,34,-1,0,9
Y2-S2-209K20,6,692,AS,exp,34,←,no_key,no_letter,-1.0,False,35,-1,0,9
Y2-S2-209K20,6,693,AS,exp,37,→,right,→,0.5346409000921994,True,36,-1,0,9
Y2-S2-209K20,6,694,AS,exp,26,↑,left,←,0.5676034998614341,False,36,-1,0,9
Y2-S2-209K20,6,695,AS,exp,31,↓,no_key,no_letter,-1.0,False,37,-1,0,9
Y2-S2-209K20,6,696,AS,exp,35,←,up,↑,1.7637483000289649,False,38,-1,0,9
Y2-S2-209K20,6,697,AS,exp,48,→,right,→,1.2101818998344243,True,39,-1,0,9
Y2-S2-209K20,6,698,AS,exp,33,↓,down,↓,0.9729834999889135,True,39,-1,0,9
Y2-S2-209K20,6,699,AS,exp,30,→,right,→,0.8590383999980986,True,39,1,1,10
Y2-S2-209K20,6,700,AS,exp,33,↑,no_key,no_letter,-1.0,False,38,-1,1,11
Y2-S2-209K20,6,701,AS,exp,38,↓,right,→,1.3609488001093268,False,39,-1,0,11
Y2-S2-209K20,6,702,AS,exp,37,→,right,→,0.8934462999459356,True,40,-1,0,11
Y2-S2-209K20,6,703,AS,exp,49,↓,no_key,no_letter,-1.0,False,40,-1,0,11
Y2-S2-209K20,6,704,AS,exp,46,→,down,↓,0.7504875001031905,False,41,-1,0,11
Y2-S2-209K20,6,705,AS,exp,45,↑,left,←,1.7086058999411762,False,42,-1,0,11
Y2-S2-209K20,6,706,AS,exp,39,↓,right,→,0.5844007998239249,False,43,-1,0,11
Y2-S2-209K20,6,707,AS,exp,26,←,left,←,0.6676360000856221,True,44,-1,0,11
Y2-S2-209K20,6,708,AS,exp,40,→,right,→,0.8672327999956906,True,44,-1,0,11
Y2-S2-209K20,6,709,AS,exp,32,↓,down,↓,0.5504089000169188,True,44,1,1,12
Y2-S2-209K20,6,710,AS,exp,40,←,left,←,0.7338977998588234,True,43,1,0,12
Y2-S2-209K20,6,711,AS,exp,25,↓,down,↓,1.0957275000400841,True,43,1,0,12
Y2-S2-209K20,6,712,AS,exp,47,→,right,→,0.6515385000966489,True,43,1,0,12
Y2-S2-209K20,6,713,AS,exp,36,↑,up,↑,1.1934326998889446,True,42,1,0,12
Y2-S2-209K20,6,714,AS,exp,34,→,right,→,0.5177394999191165,True,42,1,0,12
Y2-S2-209K20,6,715,AS,exp,33,←,left,←,0.7508409000001848,True,42,1,0,12
Y2-S2-209K20,6,716,AS,exp,32,↑,left,←,0.5176830000709742,False,41,-1,1,13
Y2-S2-209K20,6,717,AS,exp,43,→,right,→,0.584408099995926,True,42,-1,0,13
Y2-S2-209K20,6,718,AS,exp,49,↓,right,→,0.5342439000960439,False,42,-1,0,13
Y2-S2-209K20,6,719,AS,exp,33,←,right,→,0.3510205999482423,False,43,-1,0,13
Y2-S2-209K20,6,720,AS,exp,49,→,right,→,0.7504563999827951,True,44,-1,0,13
Y2-S2-209K20,6,721,AS,exp,39,←,left,←,0.45108500006608665,True,44,-1,0,13
Y2-S2-209K20,6,722,AS,exp,41,↑,up,↑,0.8170169999357313,True,44,1,1,14
Y2-S2-209K20,6,723,AS,exp,32,→,right,→,0.5515670999884605,True,43,1,0,14
Y2-S2-209K20,6,724,AS,exp,37,←,left,←,0.8338605999015272,True,43,1,0,14
Y2-S2-209K20,6,725,AS,exp,31,→,right,→,0.9962037999648601,True,43,1,0,14
Y2-S2-209K20,6,726,AS,exp,34,↓,no_key,no_letter,-1.0,False,42,-1,1,15
Y2-S2-209K20,6,727,AS,exp,41,←,no_key,no_letter,-1.0,False,43,-1,0,15
Y2-S2-209K20,6,728,AS,exp,28,↑,no_key,no_letter,-1.0,False,44,-1,0,15
Y2-S2-209K20,6,729,AS,exp,46,↓,down,↓,1.0543011999689043,True,45,-1,0,15
Y2-S2-209K20,6,730,AS,exp,37,←,left,←,0.7840660999063402,True,45,-1,0,15
Y2-S2-209K20,6,731,AS,exp,32,→,right,→,0.8004369998816401,True,45,1,1,16
Y2-S2-209K20,7,732,AS,intra_train,41,↓,down,↓,1.0335703000891954,True,36,-,-,-
Y2-S2-209K20,7,733,AS,intra_train,31,→,right,→,0.5177187998779118,True,36,-,-,-
Y2-S2-209K20,7,734,AS,intra_train,28,↓,left,←,0.6170031998772174,False,36,-,-,-
Y2-S2-209K20,7,735,AS,intra_train,39,↑,up,↑,0.6337304001208395,True,36,-,-,-
Y2-S2-209K20,7,736,AS,intra_train,34,←,left,←,0.7003062998410314,True,36,-,-,-
Y2-S2-209K20,7,737,AS,exp,30,↑,up,↑,1.077846499858424,True,24,0,0,0
Y2-S2-209K20,7,738,AS,exp,42,→,right,→,0.4340162998996675,True,24,0,0,0
Y2-S2-209K20,7,739,AS,exp,42,↓,down,↓,0.5731175998225808,True,24,1,0,0
Y2-S2-209K20,7,740,AS,exp,46,→,right,→,0.5168612999841571,True,23,1,0,0
Y2-S2-209K20,7,741,AS,exp,25,↓,down,↓,0.7591091999784112,True,23,1,0,0
Y2-S2-209K20,7,742,AS,exp,29,←,left,←,0.5004443000070751,True,23,1,0,0
Y2-S2-209K20,7,743,AS,exp,40,→,right,→,0.383986699860543,True,22,1,0,0
Y2-S2-209K20,7,744,AS,exp,42,↑,up,↑,0.7624297000002116,True,22,1,0,0
Y2-S2-209K20,7,745,AS,exp,44,↓,down,↓,0.9890523999929428,True,22,1,0,0
Y2-S2-209K20,7,746,AS,exp,34,→,right,→,0.3838819998782128,True,21,1,0,0
Y2-S2-209K20,7,747,AS,exp,41,←,left,←,0.5451536001637578,True,21,1,0,0
Y2-S2-209K20,7,748,AS,exp,39,↓,down,↓,1.105034900130704,True,21,1,0,0
Y2-S2-209K20,7,749,AS,exp,50,↑,up,↑,1.2624586001038551,True,20,1,0,0
Y2-S2-209K20,7,750,AS,exp,28,↓,up,↑,1.6388459999579936,False,20,-1,1,1
Y2-S2-209K20,7,751,AS,exp,49,→,up,↑,1.3913493999280035,False,21,-1,0,1
Y2-S2-209K20,7,752,AS,exp,25,←,left,←,0.6188781000673771,True,22,-1,0,1
Y2-S2-209K20,7,753,AS,exp,37,↑,up,↑,0.9374323999509215,True,22,-1,0,1
Y2-S2-209K20,7,754,AS,exp,29,←,right,→,1.1148342001251876,False,22,-1,0,1
Y2-S2-209K20,7,755,AS,exp,37,↓,down,↓,0.8986162000801414,True,23,-1,0,1
Y2-S2-209K20,7,756,AS,exp,28,↑,up,↑,0.8388063001912087,True,23,-1,0,1
Y2-S2-209K20,7,757,AS,exp,50,←,left,←,0.6545665999874473,True,23,1,1,2
Y2-S2-209K20,7,758,AS,exp,50,→,right,→,0.908274200046435,True,22,1,0,2
Y2-S2-209K20,7,759,AS,exp,28,←,down,↓,1.273489800048992,False,22,-1,1,3
Y2-S2-209K20,7,760,AS,exp,29,↓,right,→,1.440532699925825,False,23,-1,0,3
Y2-S2-209K20,7,761,AS,exp,35,↑,up,↑,1.0905447998084128,True,24,-1,0,3
Y2-S2-209K20,7,762,AS,exp,37,↓,down,↓,0.8301958998199552,True,24,-1,0,3
Y2-S2-209K20,7,763,AS,exp,44,→,down,↓,0.9752203999087214,False,24,-1,0,3
Y2-S2-209K20,7,764,AS,exp,45,↓,no_key,no_letter,-1.0,False,25,-1,0,3
Y2-S2-209K20,7,765,AS,exp,48,↑,up,↑,0.6130536000709981,True,26,-1,0,3
Y2-S2-209K20,7,766,AS,exp,27,←,left,←,1.0344771000090986,True,26,-1,0,3
Y2-S2-209K20,7,767,AS,exp,41,↓,down,↓,1.3943271001335233,True,26,1,1,4
Y2-S2-209K20,7,768,AS,exp,28,←,no_key,no_letter,-1.0,False,25,-1,1,5
Y2-S2-209K20,7,769,AS,exp,37,↑,no_key,no_letter,-1.0,False,26,-1,0,5
Y2-S2-209K20,7,770,AS,exp,44,←,right,→,0.46706599998287857,False,27,-1,0,5
Y2-S2-209K20,7,771,AS,exp,47,↓,down,↓,1.8129618000239134,True,28,-1,0,5
Y2-S2-209K20,7,772,AS,exp,26,→,left,←,1.1769512998871505,False,28,-1,0,5
Y2-S2-209K20,7,773,AS,exp,46,←,right,→,0.5838986998423934,False,29,-1,0,5
Y2-S2-209K20,7,774,AS,exp,26,→,right,→,0.7924285000190139,True,30,-1,0,5
Y2-S2-209K20,7,775,AS,exp,37,←,up,↑,1.2300136000849307,False,30,-1,0,5
Y2-S2-209K20,7,776,AS,exp,50,→,no_key,no_letter,-1.0,False,31,-1,0,5
Y2-S2-209K20,7,777,AS,exp,45,←,no_key,no_letter,-1.0,False,32,-1,0,5
Y2-S2-209K20,7,778,AS,exp,41,↓,right,→,0.08436729991808534,False,33,-1,0,5
Y2-S2-209K20,7,779,AS,exp,47,←,left,←,0.600765900220722,True,34,-1,0,5
Y2-S2-209K20,7,780,AS,exp,39,↓,up,↑,2.0801788000389934,False,34,-1,0,5
Y2-S2-209K20,7,781,AS,exp,37,←,down,↓,0.5172182000242174,False,35,-1,0,5
Y2-S2-209K20,7,782,AS,exp,33,↓,no_key,no_letter,-1.0,False,36,-1,0,5
Y2-S2-209K20,7,783,AS,exp,29,↑,right,→,0.5347523998934776,False,37,-1,0,5
Y2-S2-209K20,7,784,AS,exp,44,←,left,←,0.833052400033921,True,38,-1,0,5
Y2-S2-209K20,7,785,AS,exp,28,→,no_key,no_letter,-1.0,False,38,-1,0,5
Y2-S2-209K20,7,786,AS,exp,46,←,left,←,0.7170879999175668,True,39,-1,0,5
Y2-S2-209K20,7,787,AS,exp,43,↑,up,↑,0.873113599838689,True,39,-1,0,5
Y2-S2-209K20,7,788,AS,exp,49,←,left,←,0.7337187000084668,True,39,1,1,6
Y2-S2-209K20,7,789,AS,exp,43,↑,up,↑,0.8649521998595446,True,38,1,0,6
Y2-S2-209K20,7,790,AS,exp,48,←,up,↑,1.0525968000292778,False,38,-1,1,7
Y2-S2-209K20,7,791,AS,exp,42,↑,up,↑,1.4760022000409663,True,39,-1,0,7
Y2-S2-209K20,7,792,AS,exp,38,←,left,←,0.5845321000088006,True,39,-1,0,7
Y2-S2-209K20,7,793,AS,exp,41,↓,down,↓,1.6583724999800324,True,39,1,1,8
Y2-S2-209K20,7,794,AS,exp,36,→,right,→,0.8332497000228614,True,38,1,0,8
Y2-S2-209K20,7,795,AS,exp,36,↑,up,↑,1.578880999935791,True,38,1,0,8
Y2-S2-209K20,7,796,AS,exp,49,↓,down,↓,0.9759778000880033,True,38,1,0,8
Y2-S2-209K20,7,797,AS,exp,40,↑,right,→,0.6172148999758065,False,37,-1,1,9
Y2-S2-209K20,7,798,AS,exp,36,←,left,←,1.002272899961099,True,38,-1,0,9
Y2-S2-209K20,7,799,AS,exp,38,→,up,↑,1.5507729998789728,False,38,-1,0,9
Y2-S2-209K20,7,800,AS,exp,34,←,left,←,0.7004482001066208,True,39,-1,0,9
Y2-S2-209K20,7,801,AS,exp,45,↓,down,↓,0.6178081999532878,True,39,-1,0,9
Y2-S2-209K20,7,802,AS,exp,48,↑,up,↑,1.1092194998636842,True,39,1,1,10
Y2-S2-209K20,7,803,AS,exp,45,→,right,→,0.9534334000200033,True,38,1,0,10
Y2-S2-209K20,7,804,AS,exp,47,←,no_key,no_letter,-1.0,False,38,-1,1,11
Y2-S2-209K20,7,805,AS,exp,36,→,down,↓,1.5038366001099348,False,39,-1,0,11
Y2-S2-209K20,7,806,AS,exp,29,↑,up,↑,1.01152960001491,True,40,-1,0,11
Y2-S2-209K20,7,807,AS,exp,41,↓,down,↓,0.5678047998808324,True,40,-1,0,11
Y2-S2-209K20,7,808,AS,exp,48,←,right,→,0.6506421999074519,False,40,-1,0,11
Y2-S2-209K20,7,809,AS,exp,46,↓,down,↓,0.5676770999561995,True,41,-1,0,11
Y2-S2-209K20,7,810,AS,exp,26,↑,up,↑,1.0336148000787944,True,41,-1,0,11
Y2-S2-209K20,7,811,AS,exp,30,←,left,←,1.1386766000650823,True,41,1,1,12
Y2-S2-209K20,7,812,AS,exp,48,→,right,→,0.7005656000692397,True,40,1,0,12
Y2-S2-209K20,7,813,AS,exp,25,←,left,←,0.8716537998989224,True,40,1,0,12
Y2-S2-209K20,7,814,AS,exp,35,↓,down,↓,0.8715500000398606,True,40,1,0,12
Y2-S2-209K20,7,815,AS,exp,25,↑,up,↑,1.0413319000508636,True,39,1,0,12
Y2-S2-209K20,7,816,AS,exp,26,↓,down,↓,1.1138867000117898,True,39,1,0,12
Y2-S2-209K20,7,817,AS,exp,50,↑,up,↑,1.0231220999266952,True,39,1,0,12
Y2-S2-209K20,7,818,AS,exp,29,←,left,←,0.8412713999859989,True,38,1,0,12
Y2-S2-209K20,7,819,AS,exp,31,↓,down,↓,0.6503205001354218,True,38,1,0,12
Y2-S2-209K20,7,820,AS,exp,47,←,left,←,0.9370486000552773,True,38,1,0,12
Y2-S2-209K20,7,821,AS,exp,31,↓,no_key,no_letter,-1.0,False,37,-1,1,13
Y2-S2-209K20,7,822,AS,exp,32,↑,up,↑,0.6838631997816265,True,38,-1,0,13
Y2-S2-209K20,7,823,AS,exp,26,←,left,←,0.76735830004327,True,38,-1,0,13
Y2-S2-209K20,7,824,AS,exp,46,→,right,→,0.6673145999666303,True,38,1,1,14
Y2-S2-209K20,7,825,AS,exp,33,↓,down,↓,0.9105882998555899,True,37,1,0,14
Y2-S2-209K20,7,826,AS,exp,27,↑,up,↑,1.260939700063318,True,37,1,0,14
Y2-S2-209K20,7,827,AS,exp,34,→,right,→,0.633685499895364,True,37,1,0,14
Y2-S2-209K20,7,828,AS,exp,28,↑,up,↑,0.8777075000107288,True,36,1,0,14
Y2-S2-209K20,7,829,AS,exp,47,←,left,←,0.6838466001208872,True,36,1,0,14
Y2-S2-209K20,7,830,AS,exp,42,↓,right,→,1.02703439979814,False,36,-1,1,15
Y2-S2-209K20,7,831,AS,exp,35,→,up,↑,1.1912681001704186,False,37,-1,0,15
Y2-S2-209K20,7,832,AS,exp,45,↓,down,↓,0.7004680000245571,True,38,-1,0,15
Y2-S2-209K20,7,833,AS,exp,44,←,left,←,0.8340608000289649,True,38,-1,0,15
Y2-S2-209K20,7,834,AS,exp,36,→,right,→,0.8038526000455022,True,38,1,1,16
Y2-S2-209K20,8,835,PS,intra_train,36,↓,down,↓,0.9636979000642896,True,19,-,-,-
Y2-S2-209K20,8,836,PS,intra_train,50,↑,up,↑,0.49230589997023344,True,19,-,-,-
Y2-S2-209K20,8,837,PS,intra_train,42,←,left,←,0.6012885000091046,True,19,-,-,-
Y2-S2-209K20,8,838,PS,intra_train,46,↑,up,↑,0.9082585999276489,True,19,-,-,-
Y2-S2-209K20,8,839,PS,intra_train,47,↓,down,↓,0.5624687001109123,True,19,-,-,-
Y2-S2-209K20,8,840,PS,exp,33,↑,left,←,0.9847292001359165,False,13,-1,0,0
Y2-S2-209K20,8,841,PS,exp,29,←,left,←,0.558392700040713,True,14,-1,0,0
Y2-S2-209K20,8,842,PS,exp,30,↓,down,↓,0.6990743998903781,True,14,-1,0,0
Y2-S2-209K20,8,843,PS,exp,34,←,left,←,0.5015269999857992,True,14,1,1,1
Y2-S2-209K20,8,844,PS,exp,50,↓,up,↑,0.9605783000588417,False,13,-1,1,2
Y2-S2-209K20,8,845,PS,exp,49,→,right,→,0.6035309999715537,True,14,-1,0,2
Y2-S2-209K20,8,846,PS,exp,41,↑,up,↑,0.7540459001902491,True,14,-1,0,2
Y2-S2-209K20,8,847,PS,exp,44,↓,right,→,1.1056083999574184,False,14,-1,0,2
Y2-S2-209K20,8,848,PS,exp,42,↑,down,↓,0.44761779997497797,False,15,-1,0,2
Y2-S2-209K20,8,849,PS,exp,36,←,no_key,no_letter,-1.0,False,16,-1,0,2
Y2-S2-209K20,8,850,PS,exp,37,↓,down,↓,0.5481332999188453,True,17,-1,0,2
Y2-S2-209K20,8,851,PS,exp,49,→,left,←,0.7461530000437051,False,17,-1,0,2
Y2-S2-209K20,8,852,PS,exp,39,↓,down,↓,0.5593129000626504,True,18,-1,0,2
Y2-S2-209K20,8,853,PS,exp,43,→,left,←,0.9439526998903602,False,18,-1,0,2
Y2-S2-209K20,8,854,PS,exp,37,↑,up,↑,0.8344077998772264,True,19,-1,0,2
Y2-S2-209K20,8,855,PS,exp,34,↓,down,↓,1.2478248998522758,True,19,-1,0,2
Y2-S2-209K20,8,856,PS,exp,34,↑,left,←,1.2424485001247376,False,19,-1,0,2
Y2-S2-209K20,8,857,PS,exp,36,→,no_key,no_letter,-1.0,False,20,-1,0,2
Y2-S2-209K20,8,858,PS,exp,48,←,right,→,0.8179874999914318,False,21,-1,0,2
Y2-S2-209K20,8,859,PS,exp,42,↑,up,↑,1.2627855001483113,True,22,-1,0,2
Y2-S2-209K20,8,860,PS,exp,49,←,left,←,0.8030468001961708,True,22,-1,0,2
Y2-S2-209K20,8,861,PS,exp,39,↓,left,←,1.5196213000454009,False,22,-1,0,2
Y2-S2-209K20,8,862,PS,exp,50,←,left,←,1.0259578998666257,True,23,-1,0,2
Y2-S2-209K20,8,863,PS,exp,41,↑,left,←,1.0425319999922067,False,23,-1,0,2
Y2-S2-209K20,8,864,PS,exp,44,↓,up,↑,0.7447479998227209,False,24,-1,0,2
Y2-S2-209K20,8,865,PS,exp,45,←,up,↑,0.9872510000132024,False,25,-1,0,2
Y2-S2-209K20,8,866,PS,exp,33,↓,right,→,1.9462462000083178,False,26,-1,0,2
Y2-S2-209K20,8,867,PS,exp,38,←,left,←,0.6191666999366134,True,27,-1,0,2
Y2-S2-209K20,8,868,PS,exp,49,→,right,→,0.5172001000028104,True,27,-1,0,2
Y2-S2-209K20,8,869,PS,exp,27,↓,up,↑,0.6289913998916745,False,27,-1,0,2
Y2-S2-209K20,8,870,PS,exp,49,↑,up,↑,1.4535556000191718,True,28,-1,0,2
Y2-S2-209K20,8,871,PS,exp,46,↓,down,↓,0.9197815000079572,True,28,-1,0,2
Y2-S2-209K20,8,872,PS,exp,27,↑,up,↑,0.5841721999458969,True,28,1,1,3
Y2-S2-209K20,8,873,PS,exp,39,→,right,→,0.680324099957943,True,27,1,0,3
Y2-S2-209K20,8,874,PS,exp,37,↓,down,↓,1.5829973998479545,True,27,1,0,3
Y2-S2-209K20,8,875,PS,exp,41,←,left,←,0.6545780999585986,True,27,1,0,3
Y2-S2-209K20,8,876,PS,exp,39,→,left,←,1.0451101001817733,False,26,-1,1,4
Y2-S2-209K20,8,877,PS,exp,27,↓,up,↑,1.0350091001018882,False,27,-1,0,4
Y2-S2-209K20,8,878,PS,exp,28,↑,up,↑,0.7860566000454128,True,28,-1,0,4
Y2-S2-209K20,8,879,PS,exp,41,→,left,←,1.1111258000601083,False,28,-1,0,4
Y2-S2-209K20,8,880,PS,exp,39,↑,up,↑,0.7432802000548691,True,29,-1,0,4
Y2-S2-209K20,8,881,PS,exp,31,→,right,→,0.2510306001640856,True,29,-1,0,4
Y2-S2-209K20,8,882,PS,exp,37,←,left,←,0.9744680000003427,True,29,1,1,5
Y2-S2-209K20,8,883,PS,exp,47,↓,down,↓,0.6005025000777096,True,28,1,0,5
Y2-S2-209K20,8,884,PS,exp,28,↑,left,←,1.3697774999309331,False,28,-1,1,6
Y2-S2-209K20,8,885,PS,exp,46,→,no_key,no_letter,-1.0,False,29,-1,0,6
Y2-S2-209K20,8,886,PS,exp,33,↓,down,↓,1.423759900033474,True,30,-1,0,6
Y2-S2-209K20,8,887,PS,exp,25,←,right,→,0.4177312001120299,False,30,-1,0,6
Y2-S2-209K20,8,888,PS,exp,27,↓,no_key,no_letter,-1.0,False,31,-1,0,6
Y2-S2-209K20,8,889,PS,exp,47,→,no_key,no_letter,-1.0,False,32,-1,0,6
Y2-S2-209K20,8,890,PS,exp,30,←,up,↑,0.6506197999697179,False,33,-1,0,6
Y2-S2-209K20,8,891,PS,exp,34,→,left,←,0.5013443999923766,False,34,-1,0,6
Y2-S2-209K20,8,892,PS,exp,41,←,left,←,0.53448859998025,True,35,-1,0,6
Y2-S2-209K20,8,893,PS,exp,29,↓,down,↓,1.0966674000956118,True,35,-1,0,6
Y2-S2-209K20,8,894,PS,exp,50,↑,up,↑,0.7005850998684764,True,35,1,1,7
Y2-S2-209K20,8,895,PS,exp,38,←,left,←,0.5837938999757171,True,34,1,0,7
Y2-S2-209K20,8,896,PS,exp,30,→,right,→,0.5012051002122462,True,34,1,0,7
Y2-S2-209K20,8,897,PS,exp,40,↓,down,↓,0.5343049999792129,True,34,1,0,7
Y2-S2-209K20,8,898,PS,exp,48,→,right,→,0.6175823998637497,True,33,1,0,7
Y2-S2-209K20,8,899,PS,exp,41,↑,up,↑,0.6174353000242263,True,33,1,0,7
Y2-S2-209K20,8,900,PS,exp,28,↓,down,↓,0.6172291000839323,True,33,1,0,7
Y2-S2-209K20,8,901,PS,exp,44,←,left,←,0.5013150000013411,True,32,1,0,7
Y2-S2-209K20,8,902,PS,exp,38,→,right,→,0.417390399845317,True,32,1,0,7
Y2-S2-209K20,8,903,PS,exp,31,↓,down,↓,1.069158700061962,True,32,1,0,7
Y2-S2-209K20,8,904,PS,exp,25,↑,up,↑,0.5339862999971956,True,31,1,0,7
Y2-S2-209K20,8,905,PS,exp,35,←,left,←,0.6504689001012594,True,31,1,0,7
Y2-S2-209K20,8,906,PS,exp,37,↑,up,↑,0.7232143001165241,True,31,1,0,7
Y2-S2-209K20,8,907,PS,exp,30,↓,down,↓,0.7503349999897182,True,30,1,0,7
Y2-S2-209K20,8,908,PS,exp,45,↑,up,↑,0.5172401000745595,True,30,1,0,7
Y2-S2-209K20,8,909,PS,exp,47,←,left,←,0.5670974999666214,True,30,1,0,7
Y2-S2-209K20,8,910,PS,exp,50,→,right,→,0.534183100098744,True,29,1,0,7
Y2-S2-209K20,8,911,PS,exp,49,←,left,←,0.5006653000600636,True,29,1,0,7
Y2-S2-209K20,8,912,PS,exp,33,↓,down,↓,0.9586821000557393,True,29,1,0,7
Y2-S2-209K20,8,913,PS,exp,42,←,left,←,0.4672652999870479,True,28,1,0,7
Y2-S2-209K20,8,914,PS,exp,31,→,right,→,0.5005484998691827,True,28,1,0,7
Y2-S2-209K20,8,915,PS,exp,32,↑,down,↓,0.6788298999890685,False,28,-1,1,8
Y2-S2-209K20,8,916,PS,exp,47,→,left,←,0.8012888000812382,False,29,-1,0,8
Y2-S2-209K20,8,917,PS,exp,41,↓,no_key,no_letter,-1.0,False,30,-1,0,8
Y2-S2-209K20,8,918,PS,exp,48,→,right,→,0.43447920004837215,True,31,-1,0,8
Y2-S2-209K20,8,919,PS,exp,46,↓,no_key,no_letter,-1.0,False,31,-1,0,8
Y2-S2-209K20,8,920,PS,exp,31,↑,up,↑,0.46820129989646375,True,32,-1,0,8
Y2-S2-209K20,8,921,PS,exp,37,←,right,→,0.5338369000237435,False,32,-1,0,8
Y2-S2-209K20,8,922,PS,exp,47,↓,no_key,no_letter,-1.0,False,33,-1,0,8
Y2-S2-209K20,8,923,PS,exp,41,→,no_key,no_letter,-1.0,False,34,-1,0,8
Y2-S2-209K20,8,924,PS,exp,50,↓,no_key,no_letter,-1.0,False,35,-1,0,8
Y2-S2-209K20,8,925,PS,exp,39,→,right,→,2.03315810021013,True,36,-1,0,8
Y2-S2-209K20,8,926,PS,exp,30,←,left,←,1.1299380999989808,True,36,-1,0,8
Y2-S2-209K20,8,927,PS,exp,27,→,right,→,0.48415759997442365,True,36,1,1,9
Y2-S2-209K20,8,928,PS,exp,39,↓,down,↓,0.871401899959892,True,35,1,0,9
Y2-S2-209K20,8,929,PS,exp,36,→,up,↑,0.9761394001543522,False,35,-1,1,10
Y2-S2-209K20,8,930,PS,exp,32,↑,up,↑,0.5011903999838978,True,36,-1,0,10
Y2-S2-209K20,8,931,PS,exp,32,←,no_key,no_letter,-1.0,False,36,-1,0,10
Y2-S2-209K20,8,932,PS,exp,33,→,no_key,no_letter,-1.0,False,37,-1,0,10
Y2-S2-209K20,8,933,PS,exp,48,←,right,→,1.990988700184971,False,38,-1,0,10
Y2-S2-209K20,8,934,PS,exp,47,↓,left,←,1.3143839000258595,False,39,-1,0,10
Y2-S2-209K20,8,935,PS,exp,37,→,right,→,1.6119329000357538,True,40,-1,0,10
Y2-S2-209K20,8,936,PS,exp,45,←,no_key,no_letter,-1.0,False,40,-1,0,10
Y2-S2-209K20,8,937,PS,exp,38,→,no_key,no_letter,-1.0,False,41,-1,0,10
Y2-S2-209K20,8,938,PS,exp,31,↓,no_key,no_letter,-1.0,False,42,-1,0,10
Y2-S2-209K20,8,939,PS,exp,48,←,no_key,no_letter,-1.0,False,43,-1,0,10
Y2-S2-209K20,8,940,PS,exp,47,↑,up,↑,1.1455192000139505,True,44,-1,0,10
Y2-S2-209K20,8,941,PS,exp,37,↓,up,↑,0.5677414999809116,False,44,-1,0,10
Y2-S2-209K20,8,942,PS,exp,42,←,down,↓,1.9053063001483679,False,45,-1,0,10
Y2-S2-209K20,8,943,PS,exp,38,↓,down,↓,0.5342550999484956,True,46,-1,0,10
Y2-S2-209K20,8,944,PS,exp,43,→,no_key,no_letter,-1.0,False,46,-1,0,10
Y2-S2-209K20,8,945,PS,exp,40,←,down,↓,1.5290013998746872,False,47,-1,0,10
Y2-S2-209K20,8,946,PS,exp,31,↓,no_key,no_letter,-1.0,False,48,-1,0,10
Y2-S2-209K20,8,947,PS,exp,43,→,right,→,0.4844550001434982,True,49,-1,0,10
Y2-S2-209K20,8,948,PS,exp,35,↓,down,↓,0.6009170999750495,True,49,-1,0,10
Y2-S2-209K20,8,949,PS,exp,44,←,left,←,0.6511166000273079,True,49,1,1,11
Y2-S2-209K20,8,950,PS,exp,35,→,right,→,0.3677485999651253,True,48,1,0,11
Y2-S2-209K20,8,951,PS,exp,43,↑,up,↑,1.0643696999177337,True,48,1,0,11
Y2-S2-209K20,8,952,PS,exp,25,→,no_key,no_letter,-1.0,False,48,-1,1,12
Y2-S2-209K20,8,953,PS,exp,42,↓,no_key,no_letter,-1.0,False,49,-1,0,12
Y2-S2-209K20,8,954,PS,exp,47,→,no_key,no_letter,-1.0,False,50,-1,0,12
Y2-S2-209K20,8,955,PS,exp,36,↓,down,↓,0.10104270000010729,True,51,-1,0,12
Y2-S2-209K20,8,956,PS,exp,34,→,down,↓,0.46756430016830564,False,51,-1,0,12
Y2-S2-209K20,8,957,PS,exp,38,↓,no_key,no_letter,-1.0,False,52,-1,0,12
Y2-S2-209K20,8,958,PS,exp,25,↑,down,↓,1.4198374999687076,False,53,-1,0,12
Y2-S2-209K20,8,959,PS,exp,47,↓,no_key,no_letter,-1.0,False,54,-1,0,12
Y2-S2-209K20,8,960,PS,exp,28,↑,no_key,no_letter,-1.0,False,55,-1,0,12
Y2-S2-209K20,8,961,PS,exp,29,→,no_key,no_letter,-1.0,False,56,-1,0,12
Y2-S2-209K20,8,962,PS,exp,43,↑,no_key,no_letter,-1.0,False,57,-1,0,12
Y2-S2-209K20,8,963,PS,exp,35,←,left,←,0.7010609998833388,True,58,-1,0,12
Y2-S2-209K20,8,964,PS,exp,34,↓,no_key,no_letter,-1.0,False,58,-1,0,12
Y2-S2-209K20,8,965,PS,exp,27,→,right,→,1.564621200086549,True,59,-1,0,12
Y2-S2-209K20,8,966,PS,exp,36,←,left,←,0.8677580000367016,True,59,-1,0,12
Y2-S2-209K20,8,967,PS,exp,45,↓,no_key,no_letter,-1.0,False,59,-1,0,12
Y2-S2-209K20,8,968,PS,exp,27,←,no_key,no_letter,-1.0,False,60,-1,0,12
Y2-S2-209K20,8,969,PS,exp,28,↓,down,↓,0.20082930009812117,True,61,-1,0,12
Y2-S2-209K20,8,970,PS,exp,37,←,no_key,no_letter,-1.0,False,61,-1,0,12
Y2-S2-209K20,8,971,PS,exp,28,→,no_key,no_letter,-1.0,False,62,-1,0,12
Y2-S2-209K20,8,972,PS,exp,40,↑,up,↑,0.7846963000483811,True,63,-1,0,12
Y2-S2-209K20,8,973,PS,exp,50,←,no_key,no_letter,-1.0,False,63,-1,0,12
Y2-S2-209K20,8,974,PS,exp,37,↓,no_key,no_letter,-1.0,False,64,-1,0,12
Y2-S2-209K20,8,975,PS,exp,49,↑,down,↓,2.1546366000548005,False,65,-1,0,12
Y2-S2-209K20,8,976,PS,exp,33,↓,no_key,no_letter,-1.0,False,66,-1,0,12
Y2-S2-209K20,8,977,PS,exp,26,→,down,↓,1.6660435001831502,False,67,-1,0,12
Y2-S2-209K20,8,978,PS,exp,27,↓,no_key,no_letter,-1.0,False,68,-1,0,12
Y2-S2-209K20,8,979,PS,exp,38,↑,no_key,no_letter,-1.0,False,69,-1,0,12
Y2-S2-209K20,8,980,PS,exp,33,↓,no_key,no_letter,-1.0,False,70,-1,0,12
Y2-S2-209K20,8,981,PS,exp,48,→,down,↓,0.8685713999439031,False,71,-1,0,12
Y2-S2-209K20,8,982,PS,exp,45,←,right,→,0.35098200011998415,False,72,-1,0,12
Y2-S2-209K20,8,983,PS,exp,36,→,right,→,1.4599383000750095,True,73,-1,0,12
Y2-S2-209K20,8,984,PS,exp,27,↓,down,↓,0.8340509999543428,True,73,-1,0,12
Y2-S2-209K20,8,985,PS,exp,33,↑,up,↑,0.7344754000660032,True,73,1,1,13
Y2-S2-209K20,8,986,PS,exp,36,←,left,←,0.5679093000944704,True,72,1,0,13
Y2-S2-209K20,8,987,PS,exp,33,→,right,→,0.8509980000089854,True,72,1,0,13
Y2-S2-209K20,8,988,PS,exp,28,←,no_key,no_letter,-1.0,False,72,-1,1,14
Y2-S2-209K20,8,989,PS,exp,33,↑,no_key,no_letter,-1.0,False,73,-1,0,14
Y2-S2-209K20,8,990,PS,exp,48,←,down,↓,0.3677505999803543,False,74,-1,0,14
Y2-S2-209K20,8,991,PS,exp,40,↓,no_key,no_letter,-1.0,False,75,-1,0,14
Y2-S2-209K20,8,992,PS,exp,25,↑,no_key,no_letter,-1.0,False,76,-1,0,14
Y2-S2-209K20,8,993,PS,exp,32,←,no_key,no_letter,-1.0,False,77,-1,0,14
Y2-S2-209K20,8,994,PS,exp,30,↓,down,↓,0.5509939000476152,True,78,-1,0,14
Y2-S2-209K20,8,995,PS,exp,35,↑,no_key,no_letter,-1.0,False,78,-1,0,14
Y2-S2-209K20,8,996,PS,exp,39,←,no_key,no_letter,-1.0,False,79,-1,0,14
Y2-S2-209K20,8,997,PS,exp,35,↑,no_key,no_letter,-1.0,False,80,-1,0,14
Y2-S2-209K20,8,998,PS,exp,47,→,right,→,0.6345468000508845,True,81,-1,0,14
Y2-S2-209K20,8,999,PS,exp,33,↑,left,←,2.8141556999180466,False,81,-1,0,14
Y2-S2-209K20,8,1000,PS,exp,35,↓,no_key,no_letter,-1.0,False,82,-1,0,14
Y2-S2-209K20,8,1001,PS,exp,33,→,no_key,no_letter,-1.0,False,83,-1,0,14
Y2-S2-209K20,8,1002,PS,exp,45,↑,no_key,no_letter,-1.0,False,84,-1,0,14
Y2-S2-209K20,8,1003,PS,exp,42,←,no_key,no_letter,-1.0,False,85,-1,0,14
Y2-S2-209K20,8,1004,PS,exp,50,↓,no_key,no_letter,-1.0,False,86,-1,0,14
Y2-S2-209K20,8,1005,PS,exp,35,←,no_key,no_letter,-1.0,False,87,-1,0,14
Y2-S2-209K20,8,1006,PS,exp,46,↓,right,→,0.06757070007734,False,88,-1,0,14
Y2-S2-209K20,8,1007,PS,exp,45,←,no_key,no_letter,-1.0,False,89,-1,0,14
Y2-S2-209K20,8,1008,PS,exp,33,↓,no_key,no_letter,-1.0,False,90,-1,0,14
Y2-S2-209K20,8,1009,PS,exp,30,→,right,→,1.567293900065124,True,91,-1,0,14
Y2-S2-209K20,8,1010,PS,exp,38,←,left,←,1.1676756001543254,True,91,-1,0,14
Y2-S2-209K20,8,1011,PS,exp,37,↑,up,↑,2.0206797998398542,True,91,1,1,15
Y2-S2-209K20,8,1012,PS,exp,30,→,left,←,0.6176312000025064,False,90,-1,1,16
