PART_ID,Block_no,Trial_no,Block_type,Trial_type,CSI,Stim_letter,Key_pressed,letter_choose,Rt,Corr,Stimulus Time,Level,Reversal,Revs_count
Y2-S2-119K21,1,1,PS,train,36,←,left,←,0.5506845000199974,True,30,-,-,-
Y2-S2-119K21,1,2,PS,train,40,↑,up,↑,0.500882999971509,True,30,-,-,-
Y2-S2-119K21,1,3,PS,train,38,←,left,←,0.48397810012102127,True,30,-,-,-
Y2-S2-119K21,1,4,PS,train,44,→,right,→,0.46784620033577085,True,30,-,-,-
Y2-S2-119K21,1,5,PS,train,40,←,left,←,0.5836257999762893,True,30,-,-,-
Y2-S2-119K21,1,6,PS,train,34,→,right,→,0.4842826002277434,True,30,-,-,-
Y2-S2-119K21,1,7,PS,train,45,↑,up,↑,0.5173879000358284,True,30,-,-,-
Y2-S2-119K21,1,8,PS,train,34,↓,down,↓,1.3868386996909976,True,30,-,-,-
Y2-S2-119K21,1,9,PS,train,26,→,right,→,0.5670920996926725,True,30,-,-,-
Y2-S2-119K21,1,10,PS,train,25,←,left,←,0.4679048997350037,True,30,-,-,-
Y2-S2-119K21,2,11,AS,train,36,→,right,→,0.7011808999814093,True,45,-,-,-
Y2-S2-119K21,2,12,AS,train,26,↑,up,↑,0.5679783998057246,True,45,-,-,-
Y2-S2-119K21,2,13,AS,train,30,→,right,→,0.7340306998230517,True,45,-,-,-
Y2-S2-119K21,2,14,AS,train,25,←,right,→,0.43432649970054626,False,45,-,-,-
Y2-S2-119K21,2,15,AS,train,49,↓,down,↓,0.7339686998166144,True,45,-,-,-
Y2-S2-119K21,2,16,AS,train,26,←,left,←,0.8170872996561229,True,45,-,-,-
Y2-S2-119K21,2,17,AS,train,44,→,right,→,0.45106260012835264,True,45,-,-,-
Y2-S2-119K21,2,18,AS,train,32,↓,down,↓,0.5510722999460995,True,45,-,-,-
Y2-S2-119K21,2,19,AS,train,29,←,left,←,0.6511721001006663,True,45,-,-,-
Y2-S2-119K21,2,20,AS,train,34,↑,up,↑,1.4716915003955364,True,45,-,-,-
Y2-S2-119K21,-,21,PS,adaptive,43,↓,down,↓,0.655759199988097,True,10,0,0,0
Y2-S2-119K21,-,22,PS,adaptive,33,↑,up,↑,0.9661139999516308,True,10,0,0,0
Y2-S2-119K21,-,23,PS,adaptive,35,↓,down,↓,0.5700854999013245,True,10,1,0,0
Y2-S2-119K21,-,24,PS,adaptive,28,←,left,←,0.624256500042975,True,9,1,0,0
Y2-S2-119K21,-,25,PS,adaptive,46,↓,down,↓,0.5435887002386153,True,9,1,0,0
Y2-S2-119K21,-,26,PS,adaptive,39,→,right,→,0.7231022999621928,True,9,1,0,0
Y2-S2-119K21,-,27,PS,adaptive,25,←,left,←,0.6664011999964714,True,8,1,0,0
Y2-S2-119K21,-,28,PS,adaptive,38,↑,down,↓,0.7972760000266135,False,8,-1,1,1
Y2-S2-119K21,-,29,PS,adaptive,28,→,right,→,0.6441779001615942,True,9,-1,0,1
Y2-S2-119K21,-,30,PS,adaptive,41,←,left,←,0.841453599743545,True,9,-1,0,1
Y2-S2-119K21,-,31,PS,adaptive,50,→,right,→,0.7602586001157761,True,9,1,1,2
Y2-S2-119K21,-,32,PS,adaptive,31,↑,right,→,0.9999953000806272,False,8,-1,1,3
Y2-S2-119K21,-,33,PS,adaptive,48,→,right,→,0.589432300068438,True,9,-1,0,3
Y2-S2-119K21,-,34,PS,adaptive,28,←,left,←,0.5495445001870394,True,9,-1,0,3
Y2-S2-119K21,-,35,PS,adaptive,41,↓,down,↓,0.7393252998590469,True,9,1,1,4
Y2-S2-119K21,-,36,AS,adaptive,33,→,right,→,0.6051139999181032,True,20,0,0,0
Y2-S2-119K21,-,37,AS,adaptive,47,↓,down,↓,0.8122999998740852,True,20,0,0,0
Y2-S2-119K21,-,38,AS,adaptive,39,←,left,←,1.0875303000211716,True,20,1,0,0
Y2-S2-119K21,-,39,AS,adaptive,45,→,right,→,0.6547257998026907,True,19,1,0,0
Y2-S2-119K21,-,40,AS,adaptive,28,↑,up,↑,0.7088023000396788,True,19,1,0,0
Y2-S2-119K21,-,41,AS,adaptive,43,→,right,→,0.7244505002163351,True,19,1,0,0
Y2-S2-119K21,-,42,AS,adaptive,38,↓,down,↓,0.9919278002344072,True,18,1,0,0
Y2-S2-119K21,-,43,AS,adaptive,27,→,left,←,0.84792760014534,False,18,-1,1,1
Y2-S2-119K21,-,44,AS,adaptive,50,↑,up,↑,0.6397870997898281,True,19,-1,0,1
Y2-S2-119K21,-,45,AS,adaptive,48,↓,down,↓,0.6251218002289534,True,19,-1,0,1
Y2-S2-119K21,-,46,AS,adaptive,43,↑,up,↑,1.2098698001354933,True,19,1,1,2
Y2-S2-119K21,-,47,AS,adaptive,47,←,left,←,0.6351099000312388,True,18,1,0,2
Y2-S2-119K21,-,48,AS,adaptive,31,↓,down,↓,0.4935201001353562,True,18,1,0,2
Y2-S2-119K21,-,49,AS,adaptive,39,→,left,←,0.8114839997142553,False,18,-1,1,3
Y2-S2-119K21,-,50,AS,adaptive,45,←,left,←,0.7151462999172509,True,19,-1,0,3
Y2-S2-119K21,-,51,AS,adaptive,28,↓,down,↓,0.5619703000411391,True,19,-1,0,3
Y2-S2-119K21,-,52,AS,adaptive,26,↑,up,↑,0.5416128002107143,True,19,1,1,4
Y2-S2-119K21,1,53,AS,intra_train,46,↓,down,↓,0.5172079000622034,True,27,-,-,-
Y2-S2-119K21,1,54,AS,intra_train,44,←,left,←,0.517378400079906,True,27,-,-,-
Y2-S2-119K21,1,55,AS,intra_train,35,↓,down,↓,0.5336024998687208,True,27,-,-,-
Y2-S2-119K21,1,56,AS,intra_train,29,→,right,→,0.6838433002121747,True,27,-,-,-
Y2-S2-119K21,1,57,AS,intra_train,40,↑,up,↑,0.7903460003435612,True,27,-,-,-
Y2-S2-119K21,1,58,AS,exp,33,↓,down,↓,0.3839898002333939,True,18,0,0,0
Y2-S2-119K21,1,59,AS,exp,26,←,left,←,0.7481875000521541,True,18,0,0,0
Y2-S2-119K21,1,60,AS,exp,32,↓,down,↓,0.4802661002613604,True,18,1,0,0
Y2-S2-119K21,1,61,AS,exp,33,←,left,←,1.2211067001335323,True,17,1,0,0
Y2-S2-119K21,1,62,AS,exp,42,→,left,←,1.1614190000109375,False,17,-1,1,1
Y2-S2-119K21,1,63,AS,exp,40,↓,down,↓,0.5066394000314176,True,18,-1,0,1
Y2-S2-119K21,1,64,AS,exp,36,↑,down,↓,0.8514487999491394,False,18,-1,0,1
Y2-S2-119K21,1,65,AS,exp,38,←,left,←,0.49788960022851825,True,19,-1,0,1
Y2-S2-119K21,1,66,AS,exp,26,↓,down,↓,0.5200606998987496,True,19,-1,0,1
Y2-S2-119K21,1,67,AS,exp,50,→,right,→,0.5480984002351761,True,19,1,1,2
Y2-S2-119K21,1,68,AS,exp,34,↑,down,↓,0.7456511002965271,False,18,-1,1,3
Y2-S2-119K21,1,69,AS,exp,40,↓,down,↓,0.6449059001170099,True,19,-1,0,3
Y2-S2-119K21,1,70,AS,exp,33,↑,up,↑,1.0178584000095725,True,19,-1,0,3
Y2-S2-119K21,1,71,AS,exp,34,↓,down,↓,0.6992504000663757,True,19,1,1,4
Y2-S2-119K21,1,72,AS,exp,50,→,right,→,0.8164603998884559,True,18,1,0,4
Y2-S2-119K21,1,73,AS,exp,43,↑,right,→,0.8589780000038445,False,18,-1,1,5
Y2-S2-119K21,1,74,AS,exp,25,←,left,←,0.7337060999125242,True,19,-1,0,5
Y2-S2-119K21,1,75,AS,exp,28,↓,down,↓,0.7322344002313912,True,19,-1,0,5
Y2-S2-119K21,1,76,AS,exp,34,←,left,←,0.7239299998618662,True,19,1,1,6
Y2-S2-119K21,1,77,AS,exp,43,↑,no_key,no_letter,-1.0,False,18,-1,1,7
Y2-S2-119K21,1,78,AS,exp,27,←,left,←,0.7031362000852823,True,19,-1,0,7
Y2-S2-119K21,1,79,AS,exp,34,↑,up,↑,0.6358198998495936,True,19,-1,0,7
Y2-S2-119K21,1,80,AS,exp,36,↓,up,↑,1.0308724003843963,False,19,-1,0,7
Y2-S2-119K21,1,81,AS,exp,42,→,right,→,0.4672860000282526,True,20,-1,0,7
Y2-S2-119K21,1,82,AS,exp,40,←,right,→,0.543172299861908,False,20,-1,0,7
Y2-S2-119K21,1,83,AS,exp,33,↓,down,↓,0.5852872002869844,True,21,-1,0,7
Y2-S2-119K21,1,84,AS,exp,42,↑,up,↑,0.6655296999961138,True,21,-1,0,7
Y2-S2-119K21,1,85,AS,exp,47,↓,down,↓,1.261256099678576,True,21,1,1,8
Y2-S2-119K21,1,86,AS,exp,29,←,left,←,0.5883110002614558,True,20,1,0,8
Y2-S2-119K21,1,87,AS,exp,44,↑,down,↓,1.1220742999576032,False,20,-1,1,9
Y2-S2-119K21,1,88,AS,exp,43,→,right,→,1.356716699898243,True,21,-1,0,9
Y2-S2-119K21,1,89,AS,exp,44,↓,down,↓,0.6608233996666968,True,21,-1,0,9
Y2-S2-119K21,1,90,AS,exp,27,→,right,→,0.7044492997229099,True,21,1,1,10
Y2-S2-119K21,1,91,AS,exp,49,←,left,←,0.5931689999997616,True,20,1,0,10
Y2-S2-119K21,1,92,AS,exp,35,↓,down,↓,0.46721980022266507,True,20,1,0,10
Y2-S2-119K21,1,93,AS,exp,43,←,left,←,0.623256599996239,True,20,1,0,10
Y2-S2-119K21,1,94,AS,exp,34,→,right,→,0.6912956000305712,True,19,1,0,10
Y2-S2-119K21,1,95,AS,exp,25,↓,down,↓,0.6287471000105143,True,19,1,0,10
Y2-S2-119K21,1,96,AS,exp,44,→,right,→,0.5863590002991259,True,19,1,0,10
Y2-S2-119K21,1,97,AS,exp,45,←,left,←,0.48431860003620386,True,18,1,0,10
Y2-S2-119K21,1,98,AS,exp,48,↓,down,↓,0.615472599864006,True,18,1,0,10
Y2-S2-119K21,1,99,AS,exp,47,←,left,←,0.4340450996533036,True,18,1,0,10
Y2-S2-119K21,1,100,AS,exp,45,→,left,←,0.665523299947381,False,17,-1,1,11
Y2-S2-119K21,1,101,AS,exp,32,↑,up,↑,0.7416141000576317,True,18,-1,0,11
Y2-S2-119K21,1,102,AS,exp,36,←,left,←,0.7085070996545255,True,18,-1,0,11
Y2-S2-119K21,1,103,AS,exp,39,↑,up,↑,0.6841649999842048,True,18,1,1,12
Y2-S2-119K21,1,104,AS,exp,50,↓,down,↓,0.5895250998437405,True,17,1,0,12
Y2-S2-119K21,1,105,AS,exp,41,↑,up,↑,0.6052935002371669,True,17,1,0,12
Y2-S2-119K21,1,106,AS,exp,43,←,left,←,0.4540622001513839,True,17,1,0,12
Y2-S2-119K21,1,107,AS,exp,34,→,right,→,1.067107000388205,True,16,1,0,12
Y2-S2-119K21,1,108,AS,exp,45,↑,up,↑,0.48063330026343465,True,16,1,0,12
Y2-S2-119K21,1,109,AS,exp,27,←,left,←,0.618979400023818,True,16,1,0,12
Y2-S2-119K21,1,110,AS,exp,33,↑,up,↑,0.42480209982022643,True,15,1,0,12
Y2-S2-119K21,1,111,AS,exp,25,→,left,←,0.4911809996701777,False,15,-1,1,13
Y2-S2-119K21,1,112,AS,exp,26,↑,up,↑,0.4519738997332752,True,16,-1,0,13
Y2-S2-119K21,1,113,AS,exp,46,←,left,←,0.44523119973018765,True,16,-1,0,13
Y2-S2-119K21,1,114,AS,exp,39,↑,up,↑,0.4347752002067864,True,16,1,1,14
Y2-S2-119K21,1,115,AS,exp,41,→,right,→,0.4765355000272393,True,15,1,0,14
Y2-S2-119K21,1,116,AS,exp,41,↑,up,↑,0.4763346998952329,True,15,1,0,14
Y2-S2-119K21,1,117,AS,exp,48,↓,down,↓,0.4964497000910342,True,15,1,0,14
Y2-S2-119K21,1,118,AS,exp,27,→,right,→,0.6059126001782715,True,14,1,0,14
Y2-S2-119K21,1,119,AS,exp,48,↓,right,→,0.6801334996707737,False,14,-1,1,15
Y2-S2-119K21,1,120,AS,exp,49,←,left,←,0.5027209003455937,True,15,-1,0,15
Y2-S2-119K21,1,121,AS,exp,25,→,right,→,0.6467228997498751,True,15,-1,0,15
Y2-S2-119K21,1,122,AS,exp,33,←,left,←,0.6694034999236465,True,15,1,1,16
Y2-S2-119K21,2,123,PS,intra_train,25,↑,up,↑,0.7473895000293851,True,12,-,-,-
Y2-S2-119K21,2,124,PS,intra_train,28,←,right,→,0.6572484001517296,False,12,-,-,-
Y2-S2-119K21,2,125,PS,intra_train,47,→,right,→,0.5022684000432491,True,12,-,-,-
Y2-S2-119K21,2,126,PS,intra_train,43,↑,up,↑,0.4690316002815962,True,12,-,-,-
Y2-S2-119K21,2,127,PS,intra_train,34,↓,left,←,0.7256586998701096,False,12,-,-,-
Y2-S2-119K21,2,128,PS,exp,34,→,right,→,0.47027979977428913,True,8,0,0,0
Y2-S2-119K21,2,129,PS,exp,48,↑,up,↑,0.47425669990479946,True,8,0,0,0
Y2-S2-119K21,2,130,PS,exp,39,→,left,←,0.5955837001092732,False,8,-1,0,0
Y2-S2-119K21,2,131,PS,exp,45,↑,up,↑,0.5926660997793078,True,9,-1,0,0
Y2-S2-119K21,2,132,PS,exp,29,←,right,→,0.4463961999863386,False,9,-1,0,0
Y2-S2-119K21,2,133,PS,exp,39,↑,right,→,0.535725699737668,False,10,-1,0,0
Y2-S2-119K21,2,134,PS,exp,43,→,right,→,0.48283510003238916,True,11,-1,0,0
Y2-S2-119K21,2,135,PS,exp,50,↑,up,↑,0.46002000011503696,True,11,-1,0,0
Y2-S2-119K21,2,136,PS,exp,25,→,right,→,0.3575915996916592,True,11,1,1,1
Y2-S2-119K21,2,137,PS,exp,32,←,left,←,0.46297019999474287,True,10,1,0,1
Y2-S2-119K21,2,138,PS,exp,46,↓,right,→,0.523199699819088,False,10,-1,1,2
Y2-S2-119K21,2,139,PS,exp,36,↑,right,→,0.8856454002670944,False,11,-1,0,2
Y2-S2-119K21,2,140,PS,exp,43,←,left,←,0.589485399890691,True,12,-1,0,2
Y2-S2-119K21,2,141,PS,exp,27,→,left,←,1.0646414002403617,False,12,-1,0,2
Y2-S2-119K21,2,142,PS,exp,43,←,left,←,0.48418370028957725,True,13,-1,0,2
Y2-S2-119K21,2,143,PS,exp,34,→,right,→,0.4625770002603531,True,13,-1,0,2
Y2-S2-119K21,2,144,PS,exp,43,↑,right,→,0.7577521000057459,False,13,-1,0,2
Y2-S2-119K21,2,145,PS,exp,38,→,right,→,0.49879590002819896,True,14,-1,0,2
Y2-S2-119K21,2,146,PS,exp,40,↑,right,→,0.6400064001791179,False,14,-1,0,2
Y2-S2-119K21,2,147,PS,exp,28,←,right,→,0.4777013002894819,False,15,-1,0,2
Y2-S2-119K21,2,148,PS,exp,39,↓,right,→,0.8162513999268413,False,16,-1,0,2
Y2-S2-119K21,2,149,PS,exp,26,→,right,→,0.4170828000642359,True,17,-1,0,2
Y2-S2-119K21,2,150,PS,exp,39,↓,down,↓,0.624299000017345,True,17,-1,0,2
Y2-S2-119K21,2,151,PS,exp,47,↑,up,↑,0.5357249001972377,True,17,1,1,3
Y2-S2-119K21,2,152,PS,exp,42,←,left,←,0.400647500064224,True,16,1,0,3
Y2-S2-119K21,2,153,PS,exp,33,↑,left,←,1.5853017000481486,False,16,-1,1,4
Y2-S2-119K21,2,154,PS,exp,44,→,right,→,1.6079299002885818,True,17,-1,0,4
Y2-S2-119K21,2,155,PS,exp,34,↑,up,↑,0.6295003001578152,True,17,-1,0,4
Y2-S2-119K21,2,156,PS,exp,26,↓,down,↓,0.5117371999658644,True,17,1,1,5
Y2-S2-119K21,2,157,PS,exp,49,↑,up,↑,0.9484602999873459,True,16,1,0,5
Y2-S2-119K21,2,158,PS,exp,42,←,left,←,0.6915992996655405,True,16,1,0,5
Y2-S2-119K21,2,159,PS,exp,44,↓,left,←,0.94212849996984,False,16,-1,1,6
Y2-S2-119K21,2,160,PS,exp,42,←,left,←,0.8714914997108281,True,17,-1,0,6
Y2-S2-119K21,2,161,PS,exp,27,↓,down,↓,0.5993654001504183,True,17,-1,0,6
Y2-S2-119K21,2,162,PS,exp,25,↑,up,↑,0.47045759996399283,True,17,1,1,7
Y2-S2-119K21,2,163,PS,exp,36,←,left,←,0.5767967002466321,True,16,1,0,7
Y2-S2-119K21,2,164,PS,exp,50,↑,up,↑,0.5721881999634206,True,16,1,0,7
Y2-S2-119K21,2,165,PS,exp,28,→,right,→,0.6988899004645646,True,16,1,0,7
Y2-S2-119K21,2,166,PS,exp,50,↓,down,↓,0.5529336002655327,True,15,1,0,7
Y2-S2-119K21,2,167,PS,exp,26,↑,up,↑,0.5052364002913237,True,15,1,0,7
Y2-S2-119K21,2,168,PS,exp,33,→,right,→,0.5040405001491308,True,15,1,0,7
Y2-S2-119K21,2,169,PS,exp,46,↑,up,↑,0.4938215999864042,True,14,1,0,7
Y2-S2-119K21,2,170,PS,exp,26,↓,up,↑,0.7724077999591827,False,14,-1,1,8
Y2-S2-119K21,2,171,PS,exp,44,→,down,↓,0.7869474999606609,False,15,-1,0,8
Y2-S2-119K21,2,172,PS,exp,33,←,left,←,0.49106030026450753,True,16,-1,0,8
Y2-S2-119K21,2,173,PS,exp,25,→,right,→,0.5219398001208901,True,16,-1,0,8
Y2-S2-119K21,2,174,PS,exp,43,↑,up,↑,0.4572954000905156,True,16,1,1,9
Y2-S2-119K21,2,175,PS,exp,49,↓,down,↓,0.5753831001929939,True,15,1,0,9
Y2-S2-119K21,2,176,PS,exp,31,←,left,←,0.5353019000031054,True,15,1,0,9
Y2-S2-119K21,2,177,PS,exp,50,↑,up,↑,0.5129454997368157,True,15,1,0,9
Y2-S2-119K21,2,178,PS,exp,43,→,right,→,0.4931284999474883,True,14,1,0,9
Y2-S2-119K21,2,179,PS,exp,35,↓,down,↓,0.5443886001594365,True,14,1,0,9
Y2-S2-119K21,2,180,PS,exp,47,←,left,←,0.5100700999610126,True,14,1,0,9
Y2-S2-119K21,2,181,PS,exp,43,↓,down,↓,0.41824249969795346,True,13,1,0,9
Y2-S2-119K21,2,182,PS,exp,32,→,right,→,0.4849712997674942,True,13,1,0,9
Y2-S2-119K21,2,183,PS,exp,36,←,left,←,0.9485753998160362,True,13,1,0,9
Y2-S2-119K21,2,184,PS,exp,48,↓,right,→,0.47420830000191927,False,12,-1,1,10
Y2-S2-119K21,2,185,PS,exp,36,↑,up,↑,0.5282536000013351,True,13,-1,0,10
Y2-S2-119K21,2,186,PS,exp,41,→,right,→,0.52278170036152,True,13,-1,0,10
Y2-S2-119K21,2,187,PS,exp,50,←,right,→,0.483574700076133,False,13,-1,0,10
Y2-S2-119K21,2,188,PS,exp,36,↓,down,↓,0.4976121000945568,True,14,-1,0,10
Y2-S2-119K21,2,189,PS,exp,28,←,left,←,0.446220800280571,True,14,-1,0,10
Y2-S2-119K21,2,190,PS,exp,44,→,right,→,0.9899280997924507,True,14,1,1,11
Y2-S2-119K21,2,191,PS,exp,25,↓,down,↓,0.8747333004139364,True,13,1,0,11
Y2-S2-119K21,2,192,PS,exp,27,←,left,←,0.40262489998713136,True,13,1,0,11
Y2-S2-119K21,2,193,PS,exp,48,↓,down,↓,0.504163300152868,True,13,1,0,11
Y2-S2-119K21,2,194,PS,exp,31,→,right,→,0.588807700201869,True,12,1,0,11
Y2-S2-119K21,2,195,PS,exp,44,↑,up,↑,0.5379210002720356,True,12,1,0,11
Y2-S2-119K21,2,196,PS,exp,42,↓,down,↓,0.4903934998437762,True,12,1,0,11
Y2-S2-119K21,2,197,PS,exp,34,←,left,←,0.39900780003517866,True,11,1,0,11
Y2-S2-119K21,2,198,PS,exp,50,↑,down,↓,0.5466714999638498,False,11,-1,1,12
Y2-S2-119K21,2,199,PS,exp,27,↓,down,↓,0.5941383000463247,True,12,-1,0,12
Y2-S2-119K21,2,200,PS,exp,33,↑,up,↑,0.45721809985116124,True,12,-1,0,12
Y2-S2-119K21,2,201,PS,exp,47,←,left,←,0.6369636002928019,True,12,1,1,13
Y2-S2-119K21,2,202,PS,exp,50,→,right,→,0.6489061000756919,True,11,1,0,13
Y2-S2-119K21,2,203,PS,exp,48,←,left,←,0.7081526000984013,True,11,1,0,13
Y2-S2-119K21,2,204,PS,exp,44,→,right,→,0.5409094998613,True,11,1,0,13
Y2-S2-119K21,2,205,PS,exp,33,↑,left,←,0.7313675000332296,False,10,-1,1,14
Y2-S2-119K21,2,206,PS,exp,49,→,right,→,0.5436762003228068,True,11,-1,0,14
Y2-S2-119K21,2,207,PS,exp,36,↑,up,↑,0.7843273002654314,True,11,-1,0,14
Y2-S2-119K21,2,208,PS,exp,49,←,left,←,0.3864400000311434,True,11,1,1,15
Y2-S2-119K21,2,209,PS,exp,25,→,right,→,0.4109048000536859,True,10,1,0,15
Y2-S2-119K21,2,210,PS,exp,45,↑,up,↑,0.44118630001321435,True,10,1,0,15
Y2-S2-119K21,2,211,PS,exp,47,→,left,←,0.38743899995461106,False,10,-1,1,16
Y2-S2-119K21,3,212,PS,intra_train,45,↓,down,↓,0.8245267998427153,True,12,-,-,-
Y2-S2-119K21,3,213,PS,intra_train,29,←,left,←,0.4420526996254921,True,12,-,-,-
Y2-S2-119K21,3,214,PS,intra_train,39,↓,down,↓,0.5237278998829424,True,12,-,-,-
Y2-S2-119K21,3,215,PS,intra_train,50,↑,up,↑,0.45055049983784556,True,12,-,-,-
Y2-S2-119K21,3,216,PS,intra_train,40,←,left,←,0.6172254998236895,True,12,-,-,-
Y2-S2-119K21,3,217,PS,exp,31,↓,down,↓,0.7141056996770203,True,8,0,0,0
Y2-S2-119K21,3,218,PS,exp,38,←,left,←,0.5995995001867414,True,8,0,0,0
Y2-S2-119K21,3,219,PS,exp,45,↓,left,←,0.625066100154072,False,8,-1,0,0
Y2-S2-119K21,3,220,PS,exp,33,↑,left,←,0.6636282000690699,False,9,-1,0,0
Y2-S2-119K21,3,221,PS,exp,39,↓,left,←,0.6690764003433287,False,10,-1,0,0
Y2-S2-119K21,3,222,PS,exp,36,←,right,→,0.6072350996546447,False,11,-1,0,0
Y2-S2-119K21,3,223,PS,exp,42,→,right,→,0.5874640000984073,True,12,-1,0,0
Y2-S2-119K21,3,224,PS,exp,38,←,left,←,0.6561167999170721,True,12,-1,0,0
Y2-S2-119K21,3,225,PS,exp,28,↑,right,→,0.5826015002094209,False,12,-1,0,0
Y2-S2-119K21,3,226,PS,exp,38,↓,up,↑,0.7131260000169277,False,13,-1,0,0
Y2-S2-119K21,3,227,PS,exp,37,→,right,→,0.599618099629879,True,14,-1,0,0
Y2-S2-119K21,3,228,PS,exp,41,←,left,←,0.5096014002338052,True,14,-1,0,0
Y2-S2-119K21,3,229,PS,exp,41,→,right,→,0.5492480001412332,True,14,1,1,1
Y2-S2-119K21,3,230,PS,exp,47,←,left,←,0.6169990999624133,True,13,1,0,1
Y2-S2-119K21,3,231,PS,exp,31,→,right,→,0.47710639983415604,True,13,1,0,1
Y2-S2-119K21,3,232,PS,exp,37,↓,down,↓,0.6256114998832345,True,13,1,0,1
Y2-S2-119K21,3,233,PS,exp,39,↑,up,↑,0.44140150025486946,True,12,1,0,1
Y2-S2-119K21,3,234,PS,exp,37,→,right,→,0.5594573998823762,True,12,1,0,1
Y2-S2-119K21,3,235,PS,exp,45,←,right,→,0.7627204000018537,False,12,-1,1,2
Y2-S2-119K21,3,236,PS,exp,29,↓,down,↓,0.5264329998753965,True,13,-1,0,2
Y2-S2-119K21,3,237,PS,exp,48,↑,up,↑,0.42178739979863167,True,13,-1,0,2
Y2-S2-119K21,3,238,PS,exp,44,←,left,←,0.4656332000158727,True,13,1,1,3
Y2-S2-119K21,3,239,PS,exp,37,↑,up,↑,0.531246299855411,True,12,1,0,3
Y2-S2-119K21,3,240,PS,exp,42,←,right,→,0.5003802003338933,False,12,-1,1,4
Y2-S2-119K21,3,241,PS,exp,41,→,right,→,0.41259630024433136,True,13,-1,0,4
Y2-S2-119K21,3,242,PS,exp,28,↓,down,↓,0.520321499556303,True,13,-1,0,4
Y2-S2-119K21,3,243,PS,exp,27,←,left,←,0.5484705995768309,True,13,1,1,5
Y2-S2-119K21,3,244,PS,exp,38,↑,up,↑,0.656837800052017,True,12,1,0,5
Y2-S2-119K21,3,245,PS,exp,35,←,left,←,0.522603299934417,True,12,1,0,5
Y2-S2-119K21,3,246,PS,exp,43,↑,right,→,0.5686594997532666,False,12,-1,1,6
Y2-S2-119K21,3,247,PS,exp,32,←,left,←,0.5180220999754965,True,13,-1,0,6
Y2-S2-119K21,3,248,PS,exp,34,↑,up,↑,0.5554601000621915,True,13,-1,0,6
Y2-S2-119K21,3,249,PS,exp,47,↓,left,←,0.9470390002243221,False,13,-1,0,6
Y2-S2-119K21,3,250,PS,exp,26,↑,up,↑,0.5604528002440929,True,14,-1,0,6
Y2-S2-119K21,3,251,PS,exp,27,←,left,←,0.5472107999958098,True,14,-1,0,6
Y2-S2-119K21,3,252,PS,exp,31,→,right,→,0.6221695998683572,True,14,1,1,7
Y2-S2-119K21,3,253,PS,exp,50,↓,down,↓,0.5197248002514243,True,13,1,0,7
Y2-S2-119K21,3,254,PS,exp,29,→,right,→,0.5892803999595344,True,13,1,0,7
Y2-S2-119K21,3,255,PS,exp,49,↓,down,↓,0.526949499733746,True,13,1,0,7
Y2-S2-119K21,3,256,PS,exp,27,↑,down,↓,0.7080986998043954,False,12,-1,1,8
Y2-S2-119K21,3,257,PS,exp,49,→,right,→,0.49103800021111965,True,13,-1,0,8
Y2-S2-119K21,3,258,PS,exp,37,↑,up,↑,0.5164701002649963,True,13,-1,0,8
Y2-S2-119K21,3,259,PS,exp,49,→,right,→,0.6211883001960814,True,13,1,1,9
Y2-S2-119K21,3,260,PS,exp,46,←,left,←,0.6212468999437988,True,12,1,0,9
Y2-S2-119K21,3,261,PS,exp,46,→,right,→,0.4560944000259042,True,12,1,0,9
Y2-S2-119K21,3,262,PS,exp,38,↑,up,↑,0.48642810015007854,True,12,1,0,9
Y2-S2-119K21,3,263,PS,exp,33,→,right,→,0.509844500105828,True,11,1,0,9
Y2-S2-119K21,3,264,PS,exp,30,↓,right,→,0.5697103999555111,False,11,-1,1,10
Y2-S2-119K21,3,265,PS,exp,40,↑,up,↑,0.6815502000972629,True,12,-1,0,10
Y2-S2-119K21,3,266,PS,exp,33,←,right,→,0.5839056000113487,False,12,-1,0,10
Y2-S2-119K21,3,267,PS,exp,46,↑,up,↑,0.5088256001472473,True,13,-1,0,10
Y2-S2-119K21,3,268,PS,exp,34,→,right,→,0.556281500030309,True,13,-1,0,10
Y2-S2-119K21,3,269,PS,exp,25,←,left,←,0.5043722996488214,True,13,1,1,11
Y2-S2-119K21,3,270,PS,exp,30,↓,right,→,0.769032200332731,False,12,-1,1,12
Y2-S2-119K21,3,271,PS,exp,33,←,right,→,0.6415742002427578,False,13,-1,0,12
Y2-S2-119K21,3,272,PS,exp,42,↓,right,→,0.5387976001948118,False,14,-1,0,12
Y2-S2-119K21,3,273,PS,exp,45,↑,up,↑,0.6977983000688255,True,15,-1,0,12
Y2-S2-119K21,3,274,PS,exp,31,←,left,←,0.838094400241971,True,15,-1,0,12
Y2-S2-119K21,3,275,PS,exp,36,→,right,→,0.5843287999741733,True,15,1,1,13
Y2-S2-119K21,3,276,PS,exp,26,↓,down,↓,0.5715960999950767,True,14,1,0,13
Y2-S2-119K21,3,277,PS,exp,42,←,left,←,0.46971819968894124,True,14,1,0,13
Y2-S2-119K21,3,278,PS,exp,43,→,right,→,0.6003592000342906,True,14,1,0,13
Y2-S2-119K21,3,279,PS,exp,29,↑,down,↓,0.7969873999245465,False,13,-1,1,14
Y2-S2-119K21,3,280,PS,exp,45,←,right,→,0.4631205000914633,False,14,-1,0,14
Y2-S2-119K21,3,281,PS,exp,34,↑,up,↑,0.6940987999550998,True,15,-1,0,14
Y2-S2-119K21,3,282,PS,exp,35,↓,down,↓,0.5062114000320435,True,15,-1,0,14
Y2-S2-119K21,3,283,PS,exp,42,→,right,→,0.46902550011873245,True,15,1,1,15
Y2-S2-119K21,3,284,PS,exp,44,←,left,←,0.4044818999245763,True,14,1,0,15
Y2-S2-119K21,3,285,PS,exp,43,↑,up,↑,0.4438090999610722,True,14,1,0,15
Y2-S2-119K21,3,286,PS,exp,37,←,left,←,0.49590429989621043,True,14,1,0,15
Y2-S2-119K21,3,287,PS,exp,44,→,right,→,0.4934807000681758,True,13,1,0,15
Y2-S2-119K21,3,288,PS,exp,50,↓,right,→,0.5253769997507334,False,13,-1,1,16
Y2-S2-119K21,4,289,AS,intra_train,39,→,right,→,0.6180067001841962,True,27,-,-,-
Y2-S2-119K21,4,290,AS,intra_train,35,←,left,←,0.773202299606055,True,27,-,-,-
Y2-S2-119K21,4,291,AS,intra_train,33,↓,down,↓,0.7095866999588907,True,27,-,-,-
Y2-S2-119K21,4,292,AS,intra_train,42,←,left,←,0.816580000333488,True,27,-,-,-
Y2-S2-119K21,4,293,AS,intra_train,32,↓,down,↓,0.46733339969068766,True,27,-,-,-
Y2-S2-119K21,4,294,AS,exp,43,↑,up,↑,0.7311508003622293,True,18,0,0,0
Y2-S2-119K21,4,295,AS,exp,26,←,left,←,0.5112877995707095,True,18,0,0,0
Y2-S2-119K21,4,296,AS,exp,26,↓,down,↓,0.5021480000577867,True,18,1,0,0
Y2-S2-119K21,4,297,AS,exp,35,←,left,←,0.3339489996433258,True,17,1,0,0
Y2-S2-119K21,4,298,AS,exp,47,→,right,→,0.40078620007261634,True,17,1,0,0
Y2-S2-119K21,4,299,AS,exp,39,←,left,←,1.0297217997722328,True,17,1,0,0
Y2-S2-119K21,4,300,AS,exp,39,↓,up,↑,0.9339399002492428,False,16,-1,1,1
Y2-S2-119K21,4,301,AS,exp,28,↑,right,→,0.45463050017133355,False,17,-1,0,1
Y2-S2-119K21,4,302,AS,exp,36,↓,down,↓,0.7369662001729012,True,18,-1,0,1
Y2-S2-119K21,4,303,AS,exp,48,→,right,→,0.43376330006867647,True,18,-1,0,1
Y2-S2-119K21,4,304,AS,exp,49,↑,up,↑,0.6531773000024259,True,18,1,1,2
Y2-S2-119K21,4,305,AS,exp,37,↓,down,↓,0.7133503998629749,True,17,1,0,2
Y2-S2-119K21,4,306,AS,exp,40,←,right,→,0.5217387001030147,False,17,-1,1,3
Y2-S2-119K21,4,307,AS,exp,40,↓,down,↓,0.4695236999541521,True,18,-1,0,3
Y2-S2-119K21,4,308,AS,exp,43,←,left,←,0.4171500001102686,True,18,-1,0,3
Y2-S2-119K21,4,309,AS,exp,50,↑,up,↑,0.6447975998744369,True,18,1,1,4
Y2-S2-119K21,4,310,AS,exp,49,↓,down,↓,0.46910749981179833,True,17,1,0,4
Y2-S2-119K21,4,311,AS,exp,27,←,right,→,0.4671453000046313,False,17,-1,1,5
Y2-S2-119K21,4,312,AS,exp,42,↓,down,↓,0.4876048997975886,True,18,-1,0,5
Y2-S2-119K21,4,313,AS,exp,32,↑,up,↑,0.43390489974990487,True,18,-1,0,5
Y2-S2-119K21,4,314,AS,exp,45,←,left,←,1.456497899722308,True,18,1,1,6
Y2-S2-119K21,4,315,AS,exp,30,→,right,→,0.6578808999620378,True,17,1,0,6
Y2-S2-119K21,4,316,AS,exp,44,←,left,←,0.730568700004369,True,17,1,0,6
Y2-S2-119K21,4,317,AS,exp,26,↓,up,↑,0.837882099673152,False,17,-1,1,7
Y2-S2-119K21,4,318,AS,exp,37,←,left,←,0.7358140000142157,True,18,-1,0,7
Y2-S2-119K21,4,319,AS,exp,25,↓,down,↓,0.5992132998071611,True,18,-1,0,7
Y2-S2-119K21,4,320,AS,exp,47,→,right,→,0.4173917998559773,True,18,1,1,8
Y2-S2-119K21,4,321,AS,exp,37,←,left,←,0.5697598000988364,True,17,1,0,8
Y2-S2-119K21,4,322,AS,exp,29,→,up,↑,1.10201850021258,False,17,-1,1,9
Y2-S2-119K21,4,323,AS,exp,45,↓,right,→,0.8723212000913918,False,18,-1,0,9
Y2-S2-119K21,4,324,AS,exp,43,→,right,→,0.6044801999814808,True,19,-1,0,9
Y2-S2-119K21,4,325,AS,exp,36,↑,up,↑,0.6204844997264445,True,19,-1,0,9
Y2-S2-119K21,4,326,AS,exp,45,↓,right,→,0.6037806998938322,False,19,-1,0,9
Y2-S2-119K21,4,327,AS,exp,25,←,right,→,0.519666500389576,False,20,-1,0,9
Y2-S2-119K21,4,328,AS,exp,38,↑,up,↑,0.613858999684453,True,21,-1,0,9
Y2-S2-119K21,4,329,AS,exp,49,→,right,→,0.3837978998199105,True,21,-1,0,9
Y2-S2-119K21,4,330,AS,exp,33,↓,down,↓,0.5836851997300982,True,21,1,1,10
Y2-S2-119K21,4,331,AS,exp,47,→,right,→,0.526310299988836,True,20,1,0,10
Y2-S2-119K21,4,332,AS,exp,36,←,left,←,0.5654082000255585,True,20,1,0,10
Y2-S2-119K21,4,333,AS,exp,47,→,right,→,0.6474017002619803,True,20,1,0,10
Y2-S2-119K21,4,334,AS,exp,28,←,left,←,0.48493240028619766,True,19,1,0,10
Y2-S2-119K21,4,335,AS,exp,29,↓,down,↓,0.549560799729079,True,19,1,0,10
Y2-S2-119K21,4,336,AS,exp,27,→,right,→,0.6763442996889353,True,19,1,0,10
Y2-S2-119K21,4,337,AS,exp,27,↓,down,↓,1.061310799792409,True,18,1,0,10
Y2-S2-119K21,4,338,AS,exp,49,←,left,←,0.433878599666059,True,18,1,0,10
Y2-S2-119K21,4,339,AS,exp,33,↓,down,↓,0.9386555999517441,True,18,1,0,10
Y2-S2-119K21,4,340,AS,exp,39,←,left,←,0.36724890023469925,True,17,1,0,10
Y2-S2-119K21,4,341,AS,exp,50,→,right,→,0.633475000038743,True,17,1,0,10
Y2-S2-119K21,4,342,AS,exp,28,←,right,→,0.4722176999785006,False,17,-1,1,11
Y2-S2-119K21,4,343,AS,exp,43,→,right,→,0.6542624998837709,True,18,-1,0,11
Y2-S2-119K21,4,344,AS,exp,41,↑,up,↑,0.9866091003641486,True,18,-1,0,11
Y2-S2-119K21,4,345,AS,exp,28,→,right,→,0.5259092999622226,True,18,1,1,12
Y2-S2-119K21,4,346,AS,exp,37,←,left,←,0.4547536000609398,True,17,1,0,12
Y2-S2-119K21,4,347,AS,exp,28,↓,down,↓,0.8076589000411332,True,17,1,0,12
Y2-S2-119K21,4,348,AS,exp,30,←,left,←,0.4594918000511825,True,17,1,0,12
Y2-S2-119K21,4,349,AS,exp,28,↓,down,↓,0.5748401000164449,True,16,1,0,12
Y2-S2-119K21,4,350,AS,exp,45,↑,right,→,0.8129501999355853,False,16,-1,1,13
Y2-S2-119K21,4,351,AS,exp,33,←,left,←,0.49857709975913167,True,17,-1,0,13
Y2-S2-119K21,4,352,AS,exp,45,→,right,→,0.47637549974024296,True,17,-1,0,13
Y2-S2-119K21,4,353,AS,exp,37,←,left,←,1.1273556002415717,True,17,1,1,14
Y2-S2-119K21,4,354,AS,exp,47,↑,up,↑,0.8109603999182582,True,16,1,0,14
Y2-S2-119K21,4,355,AS,exp,30,↓,down,↓,0.751971899997443,True,16,1,0,14
Y2-S2-119K21,4,356,AS,exp,48,→,right,→,0.5026648999191821,True,16,1,0,14
Y2-S2-119K21,4,357,AS,exp,29,↓,down,↓,0.5626443000510335,True,15,1,0,14
Y2-S2-119K21,4,358,AS,exp,48,→,right,→,0.6185290003195405,True,15,1,0,14
Y2-S2-119K21,4,359,AS,exp,45,←,left,←,0.4484725999645889,True,15,1,0,14
Y2-S2-119K21,4,360,AS,exp,35,→,right,→,0.49958440009504557,True,14,1,0,14
Y2-S2-119K21,4,361,AS,exp,41,↓,up,↑,0.6857388997450471,False,14,-1,1,15
Y2-S2-119K21,4,362,AS,exp,44,→,right,→,0.5176896997727454,True,15,-1,0,15
Y2-S2-119K21,4,363,AS,exp,33,←,left,←,0.4657069002278149,True,15,-1,0,15
Y2-S2-119K21,4,364,AS,exp,42,↑,up,↑,0.621063900180161,True,15,1,1,16
Y2-S2-119K21,5,365,AS,intra_train,45,→,right,→,0.5174556998535991,True,27,-,-,-
Y2-S2-119K21,5,366,AS,intra_train,45,←,left,←,0.4176799999549985,True,27,-,-,-
Y2-S2-119K21,5,367,AS,intra_train,47,→,right,→,1.2867358000949025,True,27,-,-,-
Y2-S2-119K21,5,368,AS,intra_train,40,↑,up,↑,0.6785810999572277,True,27,-,-,-
Y2-S2-119K21,5,369,AS,intra_train,35,←,left,←,0.4168544998392463,True,27,-,-,-
Y2-S2-119K21,5,370,AS,exp,45,↓,up,↑,0.7167226001620293,False,18,-1,0,0
Y2-S2-119K21,5,371,AS,exp,50,←,left,←,0.9284564000554383,True,19,-1,0,0
Y2-S2-119K21,5,372,AS,exp,29,↓,down,↓,0.8299886002205312,True,19,-1,0,0
Y2-S2-119K21,5,373,AS,exp,28,←,left,←,0.6089237998239696,True,19,1,1,1
Y2-S2-119K21,5,374,AS,exp,32,↓,down,↓,0.7219787002541125,True,18,1,0,1
Y2-S2-119K21,5,375,AS,exp,40,→,right,→,0.40085400035604835,True,18,1,0,1
Y2-S2-119K21,5,376,AS,exp,43,←,left,←,0.40084350015968084,True,18,1,0,1
Y2-S2-119K21,5,377,AS,exp,46,↑,up,↑,0.5625660000368953,True,17,1,0,1
Y2-S2-119K21,5,378,AS,exp,26,↓,down,↓,0.636574300006032,True,17,1,0,1
Y2-S2-119K21,5,379,AS,exp,33,→,right,→,0.7089677001349628,True,17,1,0,1
Y2-S2-119K21,5,380,AS,exp,25,←,right,→,0.7871523001231253,False,16,-1,1,2
Y2-S2-119K21,5,381,AS,exp,46,→,right,→,0.7731574000790715,True,17,-1,0,2
Y2-S2-119K21,5,382,AS,exp,50,↓,down,↓,0.6287835999391973,True,17,-1,0,2
Y2-S2-119K21,5,383,AS,exp,32,←,left,←,0.520904399920255,True,17,1,1,3
Y2-S2-119K21,5,384,AS,exp,26,↓,down,↓,0.5386974001303315,True,16,1,0,3
Y2-S2-119K21,5,385,AS,exp,47,↑,down,↓,0.8392272996716201,False,16,-1,1,4
Y2-S2-119K21,5,386,AS,exp,34,→,right,→,0.45558169996365905,True,17,-1,0,4
Y2-S2-119K21,5,387,AS,exp,48,↓,down,↓,0.5545232999138534,True,17,-1,0,4
Y2-S2-119K21,5,388,AS,exp,50,←,left,←,0.4914009002968669,True,17,1,1,5
Y2-S2-119K21,5,389,AS,exp,32,→,right,→,0.9524143002927303,True,16,1,0,5
Y2-S2-119K21,5,390,AS,exp,35,←,right,→,0.5944970999844372,False,16,-1,1,6
Y2-S2-119K21,5,391,AS,exp,29,↓,down,↓,0.7810333003289998,True,17,-1,0,6
Y2-S2-119K21,5,392,AS,exp,41,↑,up,↑,0.5198568999767303,True,17,-1,0,6
Y2-S2-119K21,5,393,AS,exp,40,→,right,→,0.4819587003439665,True,17,1,1,7
Y2-S2-119K21,5,394,AS,exp,42,↓,down,↓,0.7418153998441994,True,16,1,0,7
Y2-S2-119K21,5,395,AS,exp,47,↑,up,↑,0.47250889986753464,True,16,1,0,7
Y2-S2-119K21,5,396,AS,exp,46,→,right,→,0.4678600002080202,True,16,1,0,7
Y2-S2-119K21,5,397,AS,exp,43,↓,down,↓,0.4667517002671957,True,15,1,0,7
Y2-S2-119K21,5,398,AS,exp,46,→,right,→,0.5294578997418284,True,15,1,0,7
Y2-S2-119K21,5,399,AS,exp,35,←,up,↑,0.7685178001411259,False,15,-1,1,8
Y2-S2-119K21,5,400,AS,exp,44,↑,up,↑,0.46725969994440675,True,16,-1,0,8
Y2-S2-119K21,5,401,AS,exp,35,←,left,←,0.684150000102818,True,16,-1,0,8
Y2-S2-119K21,5,402,AS,exp,34,→,down,↓,0.7579469000920653,False,16,-1,0,8
Y2-S2-119K21,5,403,AS,exp,27,←,left,←,0.46330889966338873,True,17,-1,0,8
Y2-S2-119K21,5,404,AS,exp,40,↓,down,↓,0.6944677997380495,True,17,-1,0,8
Y2-S2-119K21,5,405,AS,exp,41,←,left,←,1.1197265000082552,True,17,1,1,9
Y2-S2-119K21,5,406,AS,exp,48,↑,right,→,0.7615394000895321,False,16,-1,1,10
Y2-S2-119K21,5,407,AS,exp,30,↓,down,↓,0.7473749998025596,True,17,-1,0,10
Y2-S2-119K21,5,408,AS,exp,45,↑,up,↑,0.7381854001432657,True,17,-1,0,10
Y2-S2-119K21,5,409,AS,exp,32,↓,down,↓,0.4561336999759078,True,17,1,1,11
Y2-S2-119K21,5,410,AS,exp,27,→,right,→,0.7183423000387847,True,16,1,0,11
Y2-S2-119K21,5,411,AS,exp,25,←,left,←,0.9351413999684155,True,16,1,0,11
Y2-S2-119K21,5,412,AS,exp,46,→,right,→,0.502377700060606,True,16,1,0,11
Y2-S2-119K21,5,413,AS,exp,34,↓,down,↓,0.4786606002599001,True,15,1,0,11
Y2-S2-119K21,5,414,AS,exp,28,→,right,→,0.5070555000565946,True,15,1,0,11
Y2-S2-119K21,5,415,AS,exp,42,↑,up,↑,0.4238483002409339,True,15,1,0,11
Y2-S2-119K21,5,416,AS,exp,33,←,left,←,0.4160704999230802,True,14,1,0,11
Y2-S2-119K21,5,417,AS,exp,35,↑,down,↓,0.6867518001236022,False,14,-1,1,12
Y2-S2-119K21,5,418,AS,exp,34,→,down,↓,0.6372797000221908,False,15,-1,0,12
Y2-S2-119K21,5,419,AS,exp,49,↓,down,↓,0.6390451001934707,True,16,-1,0,12
Y2-S2-119K21,5,420,AS,exp,36,←,left,←,0.3838444999419153,True,16,-1,0,12
Y2-S2-119K21,5,421,AS,exp,40,→,right,→,1.0178808001801372,True,16,1,1,13
Y2-S2-119K21,5,422,AS,exp,40,↑,up,↑,0.5354657000862062,True,15,1,0,13
Y2-S2-119K21,5,423,AS,exp,49,←,down,↓,0.7721815002150834,False,15,-1,1,14
Y2-S2-119K21,5,424,AS,exp,36,→,right,→,0.5080816997215152,True,16,-1,0,14
Y2-S2-119K21,5,425,AS,exp,46,↓,down,↓,0.6683157002553344,True,16,-1,0,14
Y2-S2-119K21,5,426,AS,exp,33,←,left,←,0.44343410013243556,True,16,1,1,15
Y2-S2-119K21,5,427,AS,exp,32,↓,down,↓,0.5954882996156812,True,15,1,0,15
Y2-S2-119K21,5,428,AS,exp,34,↑,up,↑,0.5699534001760185,True,15,1,0,15
Y2-S2-119K21,5,429,AS,exp,27,↓,down,↓,0.595719600096345,True,15,1,0,15
Y2-S2-119K21,5,430,AS,exp,32,←,right,→,0.6596733997575939,False,14,-1,1,16
Y2-S2-119K21,6,431,PS,intra_train,48,↓,left,←,0.9619113998487592,False,12,-,-,-
Y2-S2-119K21,6,432,PS,intra_train,36,←,left,←,0.7469008001498878,True,12,-,-,-
Y2-S2-119K21,6,433,PS,intra_train,32,→,right,→,0.9179255999624729,True,12,-,-,-
Y2-S2-119K21,6,434,PS,intra_train,36,←,left,←,0.6097097001038492,True,12,-,-,-
Y2-S2-119K21,6,435,PS,intra_train,36,↓,down,↓,0.5669471002183855,True,12,-,-,-
Y2-S2-119K21,6,436,PS,exp,43,→,up,↑,0.7779858997091651,False,8,-1,0,0
Y2-S2-119K21,6,437,PS,exp,49,↑,down,↓,0.6321742995642126,False,9,-1,0,0
Y2-S2-119K21,6,438,PS,exp,34,↓,down,↓,0.5474613001570106,True,10,-1,0,0
Y2-S2-119K21,6,439,PS,exp,27,←,left,←,0.6019955002702773,True,10,-1,0,0
Y2-S2-119K21,6,440,PS,exp,41,↑,left,←,0.6450760001316667,False,10,-1,0,0
Y2-S2-119K21,6,441,PS,exp,46,→,right,→,0.4551240000873804,True,11,-1,0,0
Y2-S2-119K21,6,442,PS,exp,34,←,left,←,0.4601286998949945,True,11,-1,0,0
Y2-S2-119K21,6,443,PS,exp,50,↓,right,→,0.5486519001424313,False,11,-1,0,0
Y2-S2-119K21,6,444,PS,exp,34,↑,up,↑,0.4755579996854067,True,12,-1,0,0
Y2-S2-119K21,6,445,PS,exp,43,→,left,←,0.5916777998209,False,12,-1,0,0
Y2-S2-119K21,6,446,PS,exp,49,←,left,←,0.4402227997779846,True,13,-1,0,0
Y2-S2-119K21,6,447,PS,exp,36,→,right,→,0.4826564001850784,True,13,-1,0,0
Y2-S2-119K21,6,448,PS,exp,39,↑,right,→,0.6942820004187524,False,13,-1,0,0
Y2-S2-119K21,6,449,PS,exp,36,←,left,←,0.6196083999238908,True,14,-1,0,0
Y2-S2-119K21,6,450,PS,exp,27,↓,down,↓,0.48354180017486215,True,14,-1,0,0
Y2-S2-119K21,6,451,PS,exp,41,→,right,→,0.4627974000759423,True,14,1,1,1
Y2-S2-119K21,6,452,PS,exp,49,↑,left,←,0.7847536001354456,False,13,-1,1,2
Y2-S2-119K21,6,453,PS,exp,37,←,left,←,0.4869153997860849,True,14,-1,0,2
Y2-S2-119K21,6,454,PS,exp,45,→,right,→,0.44607860036194324,True,14,-1,0,2
Y2-S2-119K21,6,455,PS,exp,42,↓,down,↓,0.4979225997813046,True,14,1,1,3
Y2-S2-119K21,6,456,PS,exp,34,←,left,←,0.4838936999440193,True,13,1,0,3
Y2-S2-119K21,6,457,PS,exp,26,↑,up,↑,1.052773299627006,True,13,1,0,3
Y2-S2-119K21,6,458,PS,exp,33,→,right,→,0.48710469994693995,True,13,1,0,3
Y2-S2-119K21,6,459,PS,exp,42,↑,up,↑,0.3971368004567921,True,12,1,0,3
Y2-S2-119K21,6,460,PS,exp,29,→,right,→,0.6079958998598158,True,12,1,0,3
Y2-S2-119K21,6,461,PS,exp,29,↑,right,→,0.437958599999547,False,12,-1,1,4
Y2-S2-119K21,6,462,PS,exp,37,↓,down,↓,0.6611777003854513,True,13,-1,0,4
Y2-S2-119K21,6,463,PS,exp,37,←,right,→,0.5128323999233544,False,13,-1,0,4
Y2-S2-119K21,6,464,PS,exp,49,↑,up,↑,0.5167740001343191,True,14,-1,0,4
Y2-S2-119K21,6,465,PS,exp,46,→,right,→,0.5800115996971726,True,14,-1,0,4
Y2-S2-119K21,6,466,PS,exp,37,←,left,←,0.42796560004353523,True,14,1,1,5
Y2-S2-119K21,6,467,PS,exp,43,↑,up,↑,0.4374917997047305,True,13,1,0,5
Y2-S2-119K21,6,468,PS,exp,25,→,right,→,0.9554723002947867,True,13,1,0,5
Y2-S2-119K21,6,469,PS,exp,38,←,left,←,0.4748098999261856,True,13,1,0,5
Y2-S2-119K21,6,470,PS,exp,26,→,right,→,0.5886518997140229,True,12,1,0,5
Y2-S2-119K21,6,471,PS,exp,37,↑,up,↑,0.5343808000907302,True,12,1,0,5
Y2-S2-119K21,6,472,PS,exp,30,→,right,→,0.3862036997452378,True,12,1,0,5
Y2-S2-119K21,6,473,PS,exp,50,←,right,→,0.612310899887234,False,11,-1,1,6
Y2-S2-119K21,6,474,PS,exp,38,↓,down,↓,0.6519419001415372,True,12,-1,0,6
Y2-S2-119K21,6,475,PS,exp,46,←,right,→,0.6402405998669565,False,12,-1,0,6
Y2-S2-119K21,6,476,PS,exp,41,↓,down,↓,0.4547827998176217,True,13,-1,0,6
Y2-S2-119K21,6,477,PS,exp,29,↑,up,↑,0.41300709964707494,True,13,-1,0,6
Y2-S2-119K21,6,478,PS,exp,34,←,left,←,0.5028281998820603,True,13,1,1,7
Y2-S2-119K21,6,479,PS,exp,32,↓,down,↓,0.4311277000233531,True,12,1,0,7
Y2-S2-119K21,6,480,PS,exp,45,→,right,→,0.4964004000648856,True,12,1,0,7
Y2-S2-119K21,6,481,PS,exp,36,←,right,→,0.6505815000273287,False,12,-1,1,8
Y2-S2-119K21,6,482,PS,exp,26,↑,right,→,0.6994349998421967,False,13,-1,0,8
Y2-S2-119K21,6,483,PS,exp,36,→,right,→,0.5081651001237333,True,14,-1,0,8
Y2-S2-119K21,6,484,PS,exp,33,←,left,←,0.6473966999910772,True,14,-1,0,8
Y2-S2-119K21,6,485,PS,exp,34,↑,up,↑,0.4859186001121998,True,14,1,1,9
Y2-S2-119K21,6,486,PS,exp,47,←,left,←,0.49392199981957674,True,13,1,0,9
Y2-S2-119K21,6,487,PS,exp,34,↑,up,↑,0.4457020000554621,True,13,1,0,9
Y2-S2-119K21,6,488,PS,exp,25,→,right,→,0.6615242003463209,True,13,1,0,9
Y2-S2-119K21,6,489,PS,exp,29,↑,up,↑,0.4945054999552667,True,12,1,0,9
Y2-S2-119K21,6,490,PS,exp,34,←,left,←,0.6138570001348853,True,12,1,0,9
Y2-S2-119K21,6,491,PS,exp,49,→,left,←,0.9256150000728667,False,12,-1,1,10
Y2-S2-119K21,6,492,PS,exp,36,↓,down,↓,0.4871669998392463,True,13,-1,0,10
Y2-S2-119K21,6,493,PS,exp,34,←,left,←,0.8649892997927964,True,13,-1,0,10
Y2-S2-119K21,6,494,PS,exp,27,↓,left,←,0.5795613001100719,False,13,-1,0,10
Y2-S2-119K21,6,495,PS,exp,34,→,right,→,0.5095705999992788,True,14,-1,0,10
Y2-S2-119K21,6,496,PS,exp,43,←,left,←,0.506571099627763,True,14,-1,0,10
Y2-S2-119K21,6,497,PS,exp,31,↓,down,↓,0.5015195999294519,True,14,1,1,11
Y2-S2-119K21,6,498,PS,exp,28,←,left,←,0.5156808998435736,True,13,1,0,11
Y2-S2-119K21,6,499,PS,exp,48,→,right,→,0.6756171002052724,True,13,1,0,11
Y2-S2-119K21,6,500,PS,exp,25,↑,right,→,0.6715543000027537,False,13,-1,1,12
Y2-S2-119K21,6,501,PS,exp,44,←,left,←,0.4316772003658116,True,14,-1,0,12
Y2-S2-119K21,6,502,PS,exp,29,→,right,→,0.6457890998572111,True,14,-1,0,12
Y2-S2-119K21,6,503,PS,exp,47,↓,down,↓,0.5897284997627139,True,14,1,1,13
Y2-S2-119K21,6,504,PS,exp,34,↑,up,↑,0.5926886000670493,True,13,1,0,13
Y2-S2-119K21,6,505,PS,exp,25,→,right,→,0.46523950016126037,True,13,1,0,13
Y2-S2-119K21,6,506,PS,exp,49,↓,down,↓,0.6468651001341641,True,13,1,0,13
Y2-S2-119K21,6,507,PS,exp,29,↑,up,↑,0.5760633000172675,True,12,1,0,13
Y2-S2-119K21,6,508,PS,exp,41,→,right,→,0.6777351000346243,True,12,1,0,13
Y2-S2-119K21,6,509,PS,exp,47,↑,up,↑,0.48920519975945354,True,12,1,0,13
Y2-S2-119K21,6,510,PS,exp,34,→,up,↑,0.8133633001707494,False,11,-1,1,14
Y2-S2-119K21,6,511,PS,exp,34,←,left,←,0.6092502004466951,True,12,-1,0,14
Y2-S2-119K21,6,512,PS,exp,39,↓,down,↓,0.4642031001858413,True,12,-1,0,14
Y2-S2-119K21,6,513,PS,exp,37,→,right,→,0.45692000025883317,True,12,1,1,15
Y2-S2-119K21,6,514,PS,exp,41,↑,up,↑,0.4492966001853347,True,11,1,0,15
Y2-S2-119K21,6,515,PS,exp,36,↓,down,↓,0.46451810002326965,True,11,1,0,15
Y2-S2-119K21,6,516,PS,exp,44,→,right,→,0.4882596996612847,True,11,1,0,15
Y2-S2-119K21,6,517,PS,exp,29,↑,up,↑,0.43897239957004786,True,10,1,0,15
Y2-S2-119K21,6,518,PS,exp,47,←,left,←,0.41295949975028634,True,10,1,0,15
Y2-S2-119K21,6,519,PS,exp,43,→,right,→,0.4538562996312976,True,10,1,0,15
Y2-S2-119K21,6,520,PS,exp,42,↓,right,→,0.5518465000204742,False,9,-1,1,16
Y2-S2-119K21,7,521,PS,intra_train,44,←,left,←,0.6486839996650815,True,12,-,-,-
Y2-S2-119K21,7,522,PS,intra_train,31,↓,left,←,0.6603373996913433,False,12,-,-,-
Y2-S2-119K21,7,523,PS,intra_train,31,←,left,←,0.6077140998095274,True,12,-,-,-
Y2-S2-119K21,7,524,PS,intra_train,26,↓,down,↓,0.4804849000647664,True,12,-,-,-
Y2-S2-119K21,7,525,PS,intra_train,39,←,left,←,0.5418350999243557,True,12,-,-,-
Y2-S2-119K21,7,526,PS,exp,47,↓,down,↓,0.7042077998630702,True,8,0,0,0
Y2-S2-119K21,7,527,PS,exp,40,←,right,→,0.7563566002063453,False,8,-1,0,0
Y2-S2-119K21,7,528,PS,exp,42,→,right,→,0.7114548999816179,True,9,-1,0,0
Y2-S2-119K21,7,529,PS,exp,29,↑,right,→,0.5663350997492671,False,9,-1,0,0
Y2-S2-119K21,7,530,PS,exp,35,→,right,→,0.4980353997088969,True,10,-1,0,0
Y2-S2-119K21,7,531,PS,exp,31,↓,down,↓,0.513531600125134,True,10,-1,0,0
Y2-S2-119K21,7,532,PS,exp,29,↑,up,↑,0.4630865999497473,True,10,1,1,1
Y2-S2-119K21,7,533,PS,exp,47,←,left,←,0.4740752000361681,True,9,1,0,1
Y2-S2-119K21,7,534,PS,exp,50,↓,right,→,0.47548389993608,False,9,-1,1,2
Y2-S2-119K21,7,535,PS,exp,31,←,right,→,0.5155556001700461,False,10,-1,0,2
Y2-S2-119K21,7,536,PS,exp,50,↓,down,↓,0.8947169999592006,True,11,-1,0,2
Y2-S2-119K21,7,537,PS,exp,34,↑,up,↑,0.42856850009411573,True,11,-1,0,2
Y2-S2-119K21,7,538,PS,exp,41,→,right,→,0.46224299957975745,True,11,1,1,3
Y2-S2-119K21,7,539,PS,exp,37,↑,up,↑,0.5802350998856127,True,10,1,0,3
Y2-S2-119K21,7,540,PS,exp,49,←,left,←,0.6127959000878036,True,10,1,0,3
Y2-S2-119K21,7,541,PS,exp,48,↓,down,↓,0.46085849963128567,True,10,1,0,3
Y2-S2-119K21,7,542,PS,exp,41,↑,right,→,0.557647299952805,False,9,-1,1,4
Y2-S2-119K21,7,543,PS,exp,38,↓,left,←,0.5069260001182556,False,10,-1,0,4
Y2-S2-119K21,7,544,PS,exp,45,←,right,→,0.6025784001685679,False,11,-1,0,4
Y2-S2-119K21,7,545,PS,exp,29,→,right,→,0.465357200242579,True,12,-1,0,4
Y2-S2-119K21,7,546,PS,exp,41,↑,up,↑,0.43604979990050197,True,12,-1,0,4
Y2-S2-119K21,7,547,PS,exp,46,→,right,→,0.43624439975246787,True,12,1,1,5
Y2-S2-119K21,7,548,PS,exp,32,↓,right,→,0.7499415003694594,False,11,-1,1,6
Y2-S2-119K21,7,549,PS,exp,42,←,left,←,0.453182699624449,True,12,-1,0,6
Y2-S2-119K21,7,550,PS,exp,28,↑,right,→,0.5515409000217915,False,12,-1,0,6
Y2-S2-119K21,7,551,PS,exp,45,↓,down,↓,0.5368568999692798,True,13,-1,0,6
Y2-S2-119K21,7,552,PS,exp,48,←,left,←,0.5746881999075413,True,13,-1,0,6
Y2-S2-119K21,7,553,PS,exp,44,↑,up,↑,0.5811451002955437,True,13,1,1,7
Y2-S2-119K21,7,554,PS,exp,49,↓,down,↓,0.6861345004290342,True,12,1,0,7
Y2-S2-119K21,7,555,PS,exp,37,←,left,←,0.46396820014342666,True,12,1,0,7
Y2-S2-119K21,7,556,PS,exp,49,↑,up,↑,0.4309760998003185,True,12,1,0,7
Y2-S2-119K21,7,557,PS,exp,40,↓,down,↓,0.4960771002806723,True,11,1,0,7
Y2-S2-119K21,7,558,PS,exp,45,↑,left,←,0.48334790021181107,False,11,-1,1,8
Y2-S2-119K21,7,559,PS,exp,38,↓,down,↓,0.5815282999537885,True,12,-1,0,8
Y2-S2-119K21,7,560,PS,exp,50,↑,up,↑,0.4701239001005888,True,12,-1,0,8
Y2-S2-119K21,7,561,PS,exp,30,→,right,→,0.9885514001362026,True,12,1,1,9
Y2-S2-119K21,7,562,PS,exp,46,←,left,←,0.5927300001494586,True,11,1,0,9
Y2-S2-119K21,7,563,PS,exp,30,↓,left,←,0.8507916000671685,False,11,-1,1,10
Y2-S2-119K21,7,564,PS,exp,25,←,left,←,0.41233469964936376,True,12,-1,0,10
Y2-S2-119K21,7,565,PS,exp,36,↓,down,↓,0.44949569972231984,True,12,-1,0,10
Y2-S2-119K21,7,566,PS,exp,47,→,right,→,0.42033430002629757,True,12,1,1,11
Y2-S2-119K21,7,567,PS,exp,34,↑,right,→,0.5622765002772212,False,11,-1,1,12
Y2-S2-119K21,7,568,PS,exp,25,→,right,→,0.4167537000030279,True,12,-1,0,12
Y2-S2-119K21,7,569,PS,exp,46,↓,down,↓,0.4758566003292799,True,12,-1,0,12
Y2-S2-119K21,7,570,PS,exp,38,←,left,←,0.4545036000199616,True,12,1,1,13
Y2-S2-119K21,7,571,PS,exp,39,↓,down,↓,0.4741591000929475,True,11,1,0,13
Y2-S2-119K21,7,572,PS,exp,36,↑,up,↑,0.39761679992079735,True,11,1,0,13
Y2-S2-119K21,7,573,PS,exp,46,→,left,←,0.5732952998951077,False,11,-1,1,14
Y2-S2-119K21,7,574,PS,exp,46,←,left,←,0.44543549977242947,True,12,-1,0,14
Y2-S2-119K21,7,575,PS,exp,30,↑,right,→,0.42474980000406504,False,12,-1,0,14
Y2-S2-119K21,7,576,PS,exp,25,↓,right,→,0.9653015998192132,False,13,-1,0,14
Y2-S2-119K21,7,577,PS,exp,38,←,left,←,1.1364172999747097,True,14,-1,0,14
Y2-S2-119K21,7,578,PS,exp,47,↑,left,←,0.7961852997541428,False,14,-1,0,14
Y2-S2-119K21,7,579,PS,exp,48,↓,down,↓,0.9611156000755727,True,15,-1,0,14
Y2-S2-119K21,7,580,PS,exp,49,↑,up,↑,0.3840476996265352,True,15,-1,0,14
Y2-S2-119K21,7,581,PS,exp,34,→,right,→,0.48632619995623827,True,15,1,1,15
Y2-S2-119K21,7,582,PS,exp,42,↑,up,↑,0.6905041998252273,True,14,1,0,15
Y2-S2-119K21,7,583,PS,exp,49,←,left,←,0.7718080002814531,True,14,1,0,15
Y2-S2-119K21,7,584,PS,exp,34,→,right,→,0.46737270010635257,True,14,1,0,15
Y2-S2-119K21,7,585,PS,exp,35,↑,down,↓,0.9727532998658717,False,13,-1,1,16
Y2-S2-119K21,8,586,AS,intra_train,36,→,right,→,0.4671006998978555,True,27,-,-,-
Y2-S2-119K21,8,587,AS,intra_train,42,←,left,←,0.4510928001254797,True,27,-,-,-
Y2-S2-119K21,8,588,AS,intra_train,30,→,right,→,0.45083210011944175,True,27,-,-,-
Y2-S2-119K21,8,589,AS,intra_train,47,↓,down,↓,0.6202957001514733,True,27,-,-,-
Y2-S2-119K21,8,590,AS,intra_train,26,↑,up,↑,0.7456903997808695,True,27,-,-,-
Y2-S2-119K21,8,591,AS,exp,38,→,right,→,0.5096649997867644,True,18,0,0,0
Y2-S2-119K21,8,592,AS,exp,43,↓,down,↓,0.49776679975911975,True,18,0,0,0
Y2-S2-119K21,8,593,AS,exp,28,→,right,→,0.609262099955231,True,18,1,0,0
Y2-S2-119K21,8,594,AS,exp,39,↑,right,→,0.7708524996414781,False,17,-1,1,1
Y2-S2-119K21,8,595,AS,exp,47,↓,down,↓,1.0121527998708189,True,18,-1,0,1
Y2-S2-119K21,8,596,AS,exp,47,←,left,←,0.8117466997355223,True,18,-1,0,1
Y2-S2-119K21,8,597,AS,exp,50,→,right,→,0.40063259983435273,True,18,1,1,2
Y2-S2-119K21,8,598,AS,exp,46,↓,up,↑,0.6390793998725712,False,17,-1,1,3
Y2-S2-119K21,8,599,AS,exp,34,→,right,→,0.4171925000846386,True,18,-1,0,3
Y2-S2-119K21,8,600,AS,exp,35,↑,up,↑,0.43390299985185266,True,18,-1,0,3
Y2-S2-119K21,8,601,AS,exp,48,→,right,→,0.7679662997834384,True,18,1,1,4
Y2-S2-119K21,8,602,AS,exp,31,←,left,←,0.8171002003364265,True,17,1,0,4
Y2-S2-119K21,8,603,AS,exp,50,→,right,→,0.463608100079,True,17,1,0,4
Y2-S2-119K21,8,604,AS,exp,40,↑,up,↑,0.45877339970320463,True,17,1,0,4
Y2-S2-119K21,8,605,AS,exp,30,↓,down,↓,0.5345070003531873,True,16,1,0,4
Y2-S2-119K21,8,606,AS,exp,44,→,right,→,1.0172205003909767,True,16,1,0,4
Y2-S2-119K21,8,607,AS,exp,33,↓,down,↓,0.4635117002762854,True,16,1,0,4
Y2-S2-119K21,8,608,AS,exp,29,←,left,←,0.38474969984963536,True,15,1,0,4
Y2-S2-119K21,8,609,AS,exp,36,↓,up,↑,0.7290207999758422,False,15,-1,1,5
Y2-S2-119K21,8,610,AS,exp,26,→,right,→,0.5757281999103725,True,16,-1,0,5
Y2-S2-119K21,8,611,AS,exp,46,↑,up,↑,0.9276262000203133,True,16,-1,0,5
Y2-S2-119K21,8,612,AS,exp,44,↓,down,↓,0.6551592000760138,True,16,1,1,6
Y2-S2-119K21,8,613,AS,exp,39,↑,up,↑,0.5224775997921824,True,15,1,0,6
Y2-S2-119K21,8,614,AS,exp,27,←,left,←,0.7467763000167906,True,15,1,0,6
Y2-S2-119K21,8,615,AS,exp,35,↓,up,↑,0.8200890999287367,False,15,-1,1,7
Y2-S2-119K21,8,616,AS,exp,39,→,right,→,1.1463267002254725,True,16,-1,0,7
Y2-S2-119K21,8,617,AS,exp,31,↓,down,↓,0.656022900249809,True,16,-1,0,7
Y2-S2-119K21,8,618,AS,exp,42,←,left,←,0.5176626997999847,True,16,1,1,8
Y2-S2-119K21,8,619,AS,exp,42,↓,down,↓,0.6136444001458585,True,15,1,0,8
Y2-S2-119K21,8,620,AS,exp,47,↑,up,↑,0.4737410000525415,True,15,1,0,8
Y2-S2-119K21,8,621,AS,exp,49,↓,down,↓,0.6192848002538085,True,15,1,0,8
Y2-S2-119K21,8,622,AS,exp,34,↑,up,↑,0.6887421999126673,True,14,1,0,8
Y2-S2-119K21,8,623,AS,exp,48,←,no_key,no_letter,-1.0,False,14,-1,1,9
Y2-S2-119K21,8,624,AS,exp,37,↑,right,→,0.4872933002188802,False,15,-1,0,9
Y2-S2-119K21,8,625,AS,exp,30,→,right,→,1.2994071999564767,True,16,-1,0,9
Y2-S2-119K21,8,626,AS,exp,46,←,right,→,0.6163725000806153,False,16,-1,0,9
Y2-S2-119K21,8,627,AS,exp,47,↑,up,↑,1.0141340997070074,True,17,-1,0,9
Y2-S2-119K21,8,628,AS,exp,42,←,left,←,0.7294714003801346,True,17,-1,0,9
Y2-S2-119K21,8,629,AS,exp,40,↑,up,↑,0.5082365996204317,True,17,1,1,10
Y2-S2-119K21,8,630,AS,exp,41,↓,down,↓,0.9210525001399219,True,16,1,0,10
Y2-S2-119K21,8,631,AS,exp,42,→,right,→,1.0709092998877168,True,16,1,0,10
Y2-S2-119K21,8,632,AS,exp,48,↑,up,↑,0.6052278997376561,True,16,1,0,10
Y2-S2-119K21,8,633,AS,exp,43,←,left,←,0.883458299562335,True,15,1,0,10
Y2-S2-119K21,8,634,AS,exp,32,→,right,→,1.0893258000724018,True,15,1,0,10
Y2-S2-119K21,8,635,AS,exp,36,↓,down,↓,0.5669257999397814,True,15,1,0,10
Y2-S2-119K21,8,636,AS,exp,28,→,right,→,0.8206642000004649,True,14,1,0,10
Y2-S2-119K21,8,637,AS,exp,29,↓,down,↓,0.5935132000595331,True,14,1,0,10
Y2-S2-119K21,8,638,AS,exp,45,↑,up,↑,0.42235990008339286,True,14,1,0,10
Y2-S2-119K21,8,639,AS,exp,25,↓,down,↓,0.5476846001110971,True,13,1,0,10
Y2-S2-119K21,8,640,AS,exp,37,→,right,→,0.494849800132215,True,13,1,0,10
Y2-S2-119K21,8,641,AS,exp,35,↑,up,↑,0.5487534999847412,True,13,1,0,10
Y2-S2-119K21,8,642,AS,exp,43,→,right,→,0.6257841000333428,True,12,1,0,10
Y2-S2-119K21,8,643,AS,exp,39,↑,up,↑,0.46148550044745207,True,12,1,0,10
Y2-S2-119K21,8,644,AS,exp,38,→,right,→,0.6684598000720143,True,12,1,0,10
Y2-S2-119K21,8,645,AS,exp,50,↑,up,↑,0.4968114998191595,True,11,1,0,10
Y2-S2-119K21,8,646,AS,exp,42,←,left,←,0.4104562997817993,True,11,1,0,10
Y2-S2-119K21,8,647,AS,exp,36,↑,left,←,0.7653393000364304,False,11,-1,1,11
Y2-S2-119K21,8,648,AS,exp,34,←,right,→,0.8406842001713812,False,12,-1,0,11
Y2-S2-119K21,8,649,AS,exp,50,↑,up,↑,0.718582599889487,True,13,-1,0,11
Y2-S2-119K21,8,650,AS,exp,31,↓,down,↓,0.45995299983769655,True,13,-1,0,11
Y2-S2-119K21,8,651,AS,exp,27,←,left,←,0.7130809999071062,True,13,1,1,12
Y2-S2-119K21,8,652,AS,exp,41,↑,left,←,0.9575439002364874,False,12,-1,1,13
Y2-S2-119K21,8,653,AS,exp,41,→,right,→,0.49356119986623526,True,13,-1,0,13
Y2-S2-119K21,8,654,AS,exp,46,←,right,→,0.75370500003919,False,13,-1,0,13
Y2-S2-119K21,8,655,AS,exp,48,→,left,←,0.7147603002376854,False,14,-1,0,13
Y2-S2-119K21,8,656,AS,exp,27,↑,up,↑,0.4352490999735892,True,15,-1,0,13
Y2-S2-119K21,8,657,AS,exp,28,←,left,←,0.4574700999073684,True,15,-1,0,13
Y2-S2-119K21,8,658,AS,exp,29,→,right,→,0.6316458000801504,True,15,1,1,14
Y2-S2-119K21,8,659,AS,exp,28,↓,down,↓,0.4948474997654557,True,14,1,0,14
Y2-S2-119K21,8,660,AS,exp,36,←,up,↑,0.7419595001265407,False,14,-1,1,15
Y2-S2-119K21,8,661,AS,exp,35,→,right,→,0.46366450004279613,True,15,-1,0,15
Y2-S2-119K21,8,662,AS,exp,26,←,left,←,0.47382030030712485,True,15,-1,0,15
Y2-S2-119K21,8,663,AS,exp,38,↓,down,↓,0.5356986997649074,True,15,1,1,16
