PART_ID,Block_no,Trial_no,Block_type,Trial_type,CSI,Stim_letter,Key_pressed,letter_choose,Rt,Corr,Stimulus Time,Level,Reversal,Revs_count
Y2-S2-150K21,1,1,PS,train,28,→,right,→,0.584343200083822,True,30,-,-,-
Y2-S2-150K21,1,2,PS,train,29,↓,down,↓,0.5839796999935061,True,30,-,-,-
Y2-S2-150K21,1,3,PS,train,45,←,left,←,0.6005460999440402,True,30,-,-,-
Y2-S2-150K21,1,4,PS,train,25,↑,up,↑,1.238528999965638,True,30,-,-,-
Y2-S2-150K21,1,5,PS,train,35,↓,down,↓,1.0798631999641657,True,30,-,-,-
Y2-S2-150K21,1,6,PS,train,26,→,right,→,0.5841989999171346,True,30,-,-,-
Y2-S2-150K21,1,7,PS,train,32,↑,up,↑,0.6337594999931753,True,30,-,-,-
Y2-S2-150K21,1,8,PS,train,49,←,left,←,0.501446699956432,True,30,-,-,-
Y2-S2-150K21,1,9,PS,train,32,→,right,→,0.682388799963519,True,30,-,-,-
Y2-S2-150K21,1,10,PS,train,38,↑,up,↑,0.5339507001917809,True,30,-,-,-
Y2-S2-150K21,2,11,AS,train,33,↓,down,↓,0.6844097999855876,True,45,-,-,-
Y2-S2-150K21,2,12,AS,train,43,←,left,←,0.7672729000914842,True,45,-,-,-
Y2-S2-150K21,2,13,AS,train,50,↑,up,↑,0.551220600027591,True,45,-,-,-
Y2-S2-150K21,2,14,AS,train,30,↓,down,↓,0.5842331999447197,True,45,-,-,-
Y2-S2-150K21,2,15,AS,train,38,→,right,→,0.6178538999520242,True,45,-,-,-
Y2-S2-150K21,2,16,AS,train,27,↑,down,↓,0.5836968999356031,False,45,-,-,-
Y2-S2-150K21,2,17,AS,train,47,↓,down,↓,0.6511744998861104,True,45,-,-,-
Y2-S2-150K21,2,18,AS,train,26,←,left,←,0.4675046999473125,True,45,-,-,-
Y2-S2-150K21,2,19,AS,train,31,→,right,→,0.584634100086987,True,45,-,-,-
Y2-S2-150K21,2,20,AS,train,44,←,left,←,0.7841312000527978,True,45,-,-,-
Y2-S2-150K21,-,21,PS,adaptive,34,→,right,→,0.5430052999872714,True,10,0,0,0
Y2-S2-150K21,-,22,PS,adaptive,39,↓,down,↓,0.5753891000058502,True,10,0,0,0
Y2-S2-150K21,-,23,PS,adaptive,41,↑,up,↑,0.5616624001413584,True,10,1,0,0
Y2-S2-150K21,-,24,PS,adaptive,36,↓,down,↓,0.4874942998867482,True,9,1,0,0
Y2-S2-150K21,-,25,PS,adaptive,32,→,right,→,0.51376590016298,True,9,1,0,0
Y2-S2-150K21,-,26,PS,adaptive,33,↓,down,↓,0.7519661001861095,True,9,1,0,0
Y2-S2-150K21,-,27,PS,adaptive,26,→,right,→,0.4810764999128878,True,8,1,0,0
Y2-S2-150K21,-,28,PS,adaptive,27,↓,down,↓,0.5618141000159085,True,8,1,0,0
Y2-S2-150K21,-,29,PS,adaptive,38,↑,up,↑,0.9667064999230206,True,8,1,0,0
Y2-S2-150K21,-,30,PS,adaptive,39,↓,down,↓,0.5249550000298768,True,7,1,0,0
Y2-S2-150K21,-,31,PS,adaptive,30,→,right,→,0.39663539989851415,True,7,1,0,0
Y2-S2-150K21,-,32,PS,adaptive,40,↑,up,↑,0.4903899000491947,True,7,1,0,0
Y2-S2-150K21,-,33,PS,adaptive,45,←,left,←,0.41877479990944266,True,6,1,0,0
Y2-S2-150K21,-,34,PS,adaptive,50,↓,down,↓,0.3932123000267893,True,6,1,0,0
Y2-S2-150K21,-,35,PS,adaptive,31,↑,left,←,0.6559754000045359,False,6,-1,1,1
Y2-S2-150K21,-,36,PS,adaptive,45,←,left,←,0.7774120001122355,True,7,-1,0,1
Y2-S2-150K21,-,37,PS,adaptive,49,↓,down,↓,0.7370538997929543,True,7,-1,0,1
Y2-S2-150K21,-,38,PS,adaptive,50,→,right,→,0.5749783997889608,True,7,1,1,2
Y2-S2-150K21,-,39,PS,adaptive,34,↑,up,↑,0.6390440000686795,True,6,1,0,2
Y2-S2-150K21,-,40,PS,adaptive,31,←,left,←,0.5310591000597924,True,6,1,0,2
Y2-S2-150K21,-,41,PS,adaptive,34,→,up,↑,0.5088154999539256,False,6,-1,1,3
Y2-S2-150K21,-,42,PS,adaptive,29,↓,down,↓,0.5694027000572532,True,7,-1,0,3
Y2-S2-150K21,-,43,PS,adaptive,32,↑,up,↑,0.46612580004148185,True,7,-1,0,3
Y2-S2-150K21,-,44,PS,adaptive,35,←,left,←,0.42974060005508363,True,7,1,1,4
Y2-S2-150K21,-,45,AS,adaptive,26,→,right,→,0.5067298000212759,True,20,0,0,0
Y2-S2-150K21,-,46,AS,adaptive,38,↓,down,↓,0.8037568998988718,True,20,0,0,0
Y2-S2-150K21,-,47,AS,adaptive,45,↑,up,↑,0.8424704999197274,True,20,1,0,0
Y2-S2-150K21,-,48,AS,adaptive,45,↓,down,↓,0.5170547000598162,True,19,1,0,0
Y2-S2-150K21,-,49,AS,adaptive,37,↑,up,↑,0.5441330000758171,True,19,1,0,0
Y2-S2-150K21,-,50,AS,adaptive,29,→,right,→,0.4336117999628186,True,19,1,0,0
Y2-S2-150K21,-,51,AS,adaptive,25,↓,down,↓,0.5187653999309987,True,18,1,0,0
Y2-S2-150K21,-,52,AS,adaptive,26,←,left,←,0.49510359996929765,True,18,1,0,0
Y2-S2-150K21,-,53,AS,adaptive,39,↓,down,↓,0.5375679000280797,True,18,1,0,0
Y2-S2-150K21,-,54,AS,adaptive,46,→,right,→,0.5097556000109762,True,17,1,0,0
Y2-S2-150K21,-,55,AS,adaptive,32,↓,down,↓,0.4781275999266654,True,17,1,0,0
Y2-S2-150K21,-,56,AS,adaptive,45,←,left,←,1.1186879000160843,True,17,1,0,0
Y2-S2-150K21,-,57,AS,adaptive,25,→,right,→,0.3843194998335093,True,16,1,0,0
Y2-S2-150K21,-,58,AS,adaptive,44,↓,down,↓,0.5177120000589639,True,16,1,0,0
Y2-S2-150K21,-,59,AS,adaptive,33,↑,up,↑,0.35070109996013343,True,16,1,0,0
Y2-S2-150K21,-,60,AS,adaptive,35,←,right,→,0.3839315997902304,False,15,-1,1,1
Y2-S2-150K21,-,61,AS,adaptive,32,↓,down,↓,0.6001989000942558,True,16,-1,0,1
Y2-S2-150K21,-,62,AS,adaptive,44,↑,up,↑,0.5247390000149608,True,16,-1,0,1
Y2-S2-150K21,-,63,AS,adaptive,35,→,right,→,0.5580158000811934,True,16,1,1,2
Y2-S2-150K21,-,64,AS,adaptive,35,←,right,→,0.4654545998200774,False,15,-1,1,3
Y2-S2-150K21,-,65,AS,adaptive,33,↓,down,↓,0.5777298999018967,True,16,-1,0,3
Y2-S2-150K21,-,66,AS,adaptive,48,↑,right,→,0.7830463999416679,False,16,-1,0,3
Y2-S2-150K21,-,67,AS,adaptive,36,←,left,←,0.6306523000821471,True,17,-1,0,3
Y2-S2-150K21,-,68,AS,adaptive,40,↓,down,↓,0.8784811000805348,True,17,-1,0,3
Y2-S2-150K21,-,69,AS,adaptive,48,↑,up,↑,0.5267615001648664,True,17,1,1,4
Y2-S2-150K21,1,70,AS,intra_train,39,→,right,→,0.5012291001621634,True,24,-,-,-
Y2-S2-150K21,1,71,AS,intra_train,43,↑,up,↑,0.6816459000110626,True,24,-,-,-
Y2-S2-150K21,1,72,AS,intra_train,41,→,right,→,0.50082469987683,True,24,-,-,-
Y2-S2-150K21,1,73,AS,intra_train,26,↑,up,↑,0.5340345001313835,True,24,-,-,-
Y2-S2-150K21,1,74,AS,intra_train,33,↓,down,↓,0.6487338000442833,True,24,-,-,-
Y2-S2-150K21,1,75,AS,exp,48,←,left,←,0.49648729991167784,True,16,0,0,0
Y2-S2-150K21,1,76,AS,exp,45,↑,down,↓,0.6362399000208825,False,16,-1,0,0
Y2-S2-150K21,1,77,AS,exp,47,←,left,←,0.807283699978143,True,17,-1,0,0
Y2-S2-150K21,1,78,AS,exp,43,↑,up,↑,0.5600519999861717,True,17,-1,0,0
Y2-S2-150K21,1,79,AS,exp,33,→,right,→,0.5944523999933153,True,17,1,1,1
Y2-S2-150K21,1,80,AS,exp,28,←,left,←,0.6464446999598294,True,16,1,0,1
Y2-S2-150K21,1,81,AS,exp,27,↓,down,↓,0.6377882999368012,True,16,1,0,1
Y2-S2-150K21,1,82,AS,exp,49,→,right,→,0.5602584001608193,True,16,1,0,1
Y2-S2-150K21,1,83,AS,exp,26,↓,down,↓,0.6028393998276442,True,15,1,0,1
Y2-S2-150K21,1,84,AS,exp,37,↑,up,↑,0.5971154000144452,True,15,1,0,1
Y2-S2-150K21,1,85,AS,exp,31,→,right,→,0.8423509001731873,True,15,1,0,1
Y2-S2-150K21,1,86,AS,exp,44,↑,up,↑,0.6827314000111073,True,14,1,0,1
Y2-S2-150K21,1,87,AS,exp,38,↓,down,↓,0.5834900999907404,True,14,1,0,1
Y2-S2-150K21,1,88,AS,exp,25,↑,up,↑,0.7234347001649439,True,14,1,0,1
Y2-S2-150K21,1,89,AS,exp,37,→,right,→,0.4668388001155108,True,13,1,0,1
Y2-S2-150K21,1,90,AS,exp,46,↓,down,↓,0.5470821999479085,True,13,1,0,1
Y2-S2-150K21,1,91,AS,exp,34,↑,down,↓,0.6186142999213189,False,13,-1,1,2
Y2-S2-150K21,1,92,AS,exp,48,→,right,→,0.7820544999558479,True,14,-1,0,2
Y2-S2-150K21,1,93,AS,exp,48,↑,up,↑,0.7343925000168383,True,14,-1,0,2
Y2-S2-150K21,1,94,AS,exp,38,→,right,→,0.46143820020370185,True,14,1,1,3
Y2-S2-150K21,1,95,AS,exp,26,←,left,←,0.5720112998969853,True,13,1,0,3
Y2-S2-150K21,1,96,AS,exp,27,↓,down,↓,0.4959245999343693,True,13,1,0,3
Y2-S2-150K21,1,97,AS,exp,45,↑,up,↑,0.48278089985251427,True,13,1,0,3
Y2-S2-150K21,1,98,AS,exp,35,↓,down,↓,0.6482488000765443,True,12,1,0,3
Y2-S2-150K21,1,99,AS,exp,42,↑,up,↑,0.6242637999821454,True,12,1,0,3
Y2-S2-150K21,1,100,AS,exp,43,←,left,←,0.5210823998786509,True,12,1,0,3
Y2-S2-150K21,1,101,AS,exp,35,↑,up,↑,0.5823080998379737,True,11,1,0,3
Y2-S2-150K21,1,102,AS,exp,37,→,left,←,0.6179968998767436,False,11,-1,1,4
Y2-S2-150K21,1,103,AS,exp,46,←,right,→,0.6291659001726657,False,12,-1,0,4
Y2-S2-150K21,1,104,AS,exp,38,↑,up,↑,0.5847811000421643,True,13,-1,0,4
Y2-S2-150K21,1,105,AS,exp,27,←,right,→,0.5663576999213547,False,13,-1,0,4
Y2-S2-150K21,1,106,AS,exp,50,↑,down,↓,1.0100759998895228,False,14,-1,0,4
Y2-S2-150K21,1,107,AS,exp,35,←,left,←,0.651886299951002,True,15,-1,0,4
Y2-S2-150K21,1,108,AS,exp,47,→,right,→,0.5191778000444174,True,15,-1,0,4
Y2-S2-150K21,1,109,AS,exp,47,↑,up,↑,0.4547379999421537,True,15,1,1,5
Y2-S2-150K21,1,110,AS,exp,28,→,right,→,0.4227002998813987,True,14,1,0,5
Y2-S2-150K21,1,111,AS,exp,40,↑,up,↑,0.5239585000090301,True,14,1,0,5
Y2-S2-150K21,1,112,AS,exp,44,←,right,→,1.3404463999904692,False,14,-1,1,6
Y2-S2-150K21,1,113,AS,exp,38,↑,up,↑,0.5297568999230862,True,15,-1,0,6
Y2-S2-150K21,1,114,AS,exp,43,→,right,→,0.5863886999431998,True,15,-1,0,6
Y2-S2-150K21,1,115,AS,exp,29,←,right,→,0.47464300016872585,False,15,-1,0,6
Y2-S2-150K21,1,116,AS,exp,36,→,left,←,0.46970069990493357,False,16,-1,0,6
Y2-S2-150K21,1,117,AS,exp,30,↑,up,↑,0.6611788000445813,True,17,-1,0,6
Y2-S2-150K21,1,118,AS,exp,27,←,left,←,0.6699881998356432,True,17,-1,0,6
Y2-S2-150K21,1,119,AS,exp,28,→,no_key,no_letter,-1.0,False,17,-1,0,6
Y2-S2-150K21,1,120,AS,exp,35,↓,up,↑,0.6880227997899055,False,18,-1,0,6
Y2-S2-150K21,1,121,AS,exp,38,←,left,←,0.6459003000054508,True,19,-1,0,6
Y2-S2-150K21,1,122,AS,exp,45,→,left,←,0.5315512998495251,False,19,-1,0,6
Y2-S2-150K21,1,123,AS,exp,49,↓,down,↓,0.6702868998982012,True,20,-1,0,6
Y2-S2-150K21,1,124,AS,exp,43,←,left,←,0.4172626999206841,True,20,-1,0,6
Y2-S2-150K21,1,125,AS,exp,37,↑,up,↑,0.5180121001321822,True,20,1,1,7
Y2-S2-150K21,1,126,AS,exp,47,←,left,←,0.672385900048539,True,19,1,0,7
Y2-S2-150K21,1,127,AS,exp,34,→,right,→,0.5881121000275016,True,19,1,0,7
Y2-S2-150K21,1,128,AS,exp,30,↓,down,↓,0.6356560999993235,True,19,1,0,7
Y2-S2-150K21,1,129,AS,exp,43,←,no_key,no_letter,-1.0,False,18,-1,1,8
Y2-S2-150K21,1,130,AS,exp,33,↓,down,↓,0.5304747000336647,True,19,-1,0,8
Y2-S2-150K21,1,131,AS,exp,38,→,right,→,0.45065040001645684,True,19,-1,0,8
Y2-S2-150K21,1,132,AS,exp,29,←,left,←,0.4174309999216348,True,19,1,1,9
Y2-S2-150K21,1,133,AS,exp,50,↓,down,↓,0.551808400079608,True,18,1,0,9
Y2-S2-150K21,1,134,AS,exp,36,→,right,→,1.2228993999306113,True,18,1,0,9
Y2-S2-150K21,1,135,AS,exp,31,↑,up,↑,0.7448691998142749,True,18,1,0,9
Y2-S2-150K21,1,136,AS,exp,47,→,right,→,0.5379095000680536,True,17,1,0,9
Y2-S2-150K21,1,137,AS,exp,34,←,left,←,0.41733919992111623,True,17,1,0,9
Y2-S2-150K21,1,138,AS,exp,26,↑,up,↑,0.5221619000658393,True,17,1,0,9
Y2-S2-150K21,1,139,AS,exp,43,↓,down,↓,0.6023314998019487,True,16,1,0,9
Y2-S2-150K21,1,140,AS,exp,34,→,right,→,0.5275401999242604,True,16,1,0,9
Y2-S2-150K21,1,141,AS,exp,29,↓,down,↓,0.5519439000636339,True,16,1,0,9
Y2-S2-150K21,1,142,AS,exp,39,←,right,→,0.4531857999972999,False,15,-1,1,10
Y2-S2-150K21,1,143,AS,exp,36,↑,down,↓,0.6354157999157906,False,16,-1,0,10
Y2-S2-150K21,1,144,AS,exp,30,→,right,→,0.4771867000963539,True,17,-1,0,10
Y2-S2-150K21,1,145,AS,exp,41,↓,down,↓,0.6872105000074953,True,17,-1,0,10
Y2-S2-150K21,1,146,AS,exp,31,←,right,→,0.46227319980971515,False,17,-1,0,10
Y2-S2-150K21,1,147,AS,exp,46,↓,down,↓,0.5313772999215871,True,18,-1,0,10
Y2-S2-150K21,1,148,AS,exp,30,←,left,←,0.6208397999871522,True,18,-1,0,10
Y2-S2-150K21,1,149,AS,exp,29,↓,down,↓,0.4175852001644671,True,18,1,1,11
Y2-S2-150K21,1,150,AS,exp,26,→,right,→,0.6525010000914335,True,17,1,0,11
Y2-S2-150K21,1,151,AS,exp,29,↓,no_key,no_letter,-1.0,False,17,-1,1,12
Y2-S2-150K21,1,152,AS,exp,29,↑,up,↑,0.6915432000532746,True,18,-1,0,12
Y2-S2-150K21,1,153,AS,exp,37,←,left,←,0.5872881000395864,True,18,-1,0,12
Y2-S2-150K21,1,154,AS,exp,40,↓,down,↓,0.5350784999318421,True,18,1,1,13
Y2-S2-150K21,1,155,AS,exp,30,→,right,→,0.45376359997317195,True,17,1,0,13
Y2-S2-150K21,1,156,AS,exp,44,←,left,←,0.5351560001727194,True,17,1,0,13
Y2-S2-150K21,1,157,AS,exp,40,→,right,→,0.47934780013747513,True,17,1,0,13
Y2-S2-150K21,1,158,AS,exp,46,↓,down,↓,0.6118846999015659,True,16,1,0,13
Y2-S2-150K21,1,159,AS,exp,29,↑,up,↑,0.5904904999770224,True,16,1,0,13
Y2-S2-150K21,1,160,AS,exp,35,←,left,←,0.5860784000251442,True,16,1,0,13
Y2-S2-150K21,1,161,AS,exp,50,→,left,←,0.7632310998160392,False,15,-1,1,14
Y2-S2-150K21,1,162,AS,exp,34,↓,up,↑,0.8309239998925477,False,16,-1,0,14
Y2-S2-150K21,1,163,AS,exp,47,←,left,←,0.5010100998915732,True,17,-1,0,14
Y2-S2-150K21,1,164,AS,exp,44,↓,down,↓,0.6972966999746859,True,17,-1,0,14
Y2-S2-150K21,1,165,AS,exp,43,↑,up,↑,0.6371953999623656,True,17,1,1,15
Y2-S2-150K21,1,166,AS,exp,48,↓,down,↓,0.4710880001075566,True,16,1,0,15
Y2-S2-150K21,1,167,AS,exp,48,→,right,→,0.5599053001496941,True,16,1,0,15
Y2-S2-150K21,1,168,AS,exp,30,↑,up,↑,0.4814953999593854,True,16,1,0,15
Y2-S2-150K21,1,169,AS,exp,48,↓,down,↓,0.6493577000219375,True,15,1,0,15
Y2-S2-150K21,1,170,AS,exp,43,←,left,←,0.5175447999499738,True,15,1,0,15
Y2-S2-150K21,1,171,AS,exp,27,↑,up,↑,0.5022098000627011,True,15,1,0,15
Y2-S2-150K21,1,172,AS,exp,27,→,right,→,0.36728319991379976,True,14,1,0,15
Y2-S2-150K21,1,173,AS,exp,38,↓,down,↓,0.5065673000644892,True,14,1,0,15
Y2-S2-150K21,1,174,AS,exp,37,→,right,→,0.42539999983273447,True,14,1,0,15
Y2-S2-150K21,1,175,AS,exp,28,←,right,→,0.5369124000426382,False,13,-1,1,16
Y2-S2-150K21,2,176,PS,intra_train,37,↑,up,↑,0.512819099938497,True,9,-,-,-
Y2-S2-150K21,2,177,PS,intra_train,31,←,left,←,0.48432469996623695,True,9,-,-,-
Y2-S2-150K21,2,178,PS,intra_train,42,→,left,←,0.8169275000691414,False,9,-,-,-
Y2-S2-150K21,2,179,PS,intra_train,45,↓,left,←,0.7014212000649422,False,9,-,-,-
Y2-S2-150K21,2,180,PS,intra_train,34,↑,up,↑,0.536341399885714,True,9,-,-,-
Y2-S2-150K21,2,181,PS,exp,45,↓,up,↑,0.61680330010131,False,6,-1,0,0
Y2-S2-150K21,2,182,PS,exp,32,←,left,←,0.5532009000889957,True,7,-1,0,0
Y2-S2-150K21,2,183,PS,exp,48,↑,right,→,0.5545808000024408,False,7,-1,0,0
Y2-S2-150K21,2,184,PS,exp,27,→,right,→,0.5353951000142843,True,8,-1,0,0
Y2-S2-150K21,2,185,PS,exp,28,←,left,←,0.5366269000805914,True,8,-1,0,0
Y2-S2-150K21,2,186,PS,exp,37,↓,right,→,0.795581900049001,False,8,-1,0,0
Y2-S2-150K21,2,187,PS,exp,27,←,left,←,0.5189098999835551,True,9,-1,0,0
Y2-S2-150K21,2,188,PS,exp,27,↓,down,↓,0.6206913001369685,True,9,-1,0,0
Y2-S2-150K21,2,189,PS,exp,44,←,left,←,0.7234072999563068,True,9,1,1,1
Y2-S2-150K21,2,190,PS,exp,41,→,right,→,0.5959041998721659,True,8,1,0,1
Y2-S2-150K21,2,191,PS,exp,40,←,left,←,0.4625504999421537,True,8,1,0,1
Y2-S2-150K21,2,192,PS,exp,38,→,left,←,0.4675565001089126,False,8,-1,1,2
Y2-S2-150K21,2,193,PS,exp,46,↑,up,↑,0.5836577999871224,True,9,-1,0,2
Y2-S2-150K21,2,194,PS,exp,40,→,right,→,0.5034058000892401,True,9,-1,0,2
Y2-S2-150K21,2,195,PS,exp,37,←,left,←,0.5501335000153631,True,9,1,1,3
Y2-S2-150K21,2,196,PS,exp,32,↑,left,←,0.5821837999392301,False,8,-1,1,4
Y2-S2-150K21,2,197,PS,exp,40,↓,down,↓,0.6379246001597494,True,9,-1,0,4
Y2-S2-150K21,2,198,PS,exp,27,→,right,→,0.48028909997083247,True,9,-1,0,4
Y2-S2-150K21,2,199,PS,exp,29,↓,left,←,0.6630552001297474,False,9,-1,0,4
Y2-S2-150K21,2,200,PS,exp,40,↑,left,←,0.7100970998872072,False,10,-1,0,4
Y2-S2-150K21,2,201,PS,exp,27,↓,down,↓,0.5494060001801699,True,11,-1,0,4
Y2-S2-150K21,2,202,PS,exp,49,↑,up,↑,0.5056172001641244,True,11,-1,0,4
Y2-S2-150K21,2,203,PS,exp,49,←,left,←,0.4236499001272023,True,11,1,1,5
Y2-S2-150K21,2,204,PS,exp,32,→,right,→,0.4560660000424832,True,10,1,0,5
Y2-S2-150K21,2,205,PS,exp,33,↑,up,↑,0.39487000019289553,True,10,1,0,5
Y2-S2-150K21,2,206,PS,exp,44,←,left,←,0.5749583998695016,True,10,1,0,5
Y2-S2-150K21,2,207,PS,exp,30,↑,up,↑,0.4230275999289006,True,9,1,0,5
Y2-S2-150K21,2,208,PS,exp,47,→,right,→,0.6094827000051737,True,9,1,0,5
Y2-S2-150K21,2,209,PS,exp,42,←,left,←,0.49505500006489456,True,9,1,0,5
Y2-S2-150K21,2,210,PS,exp,34,↓,down,↓,0.5124097000807524,True,8,1,0,5
Y2-S2-150K21,2,211,PS,exp,46,←,left,←,0.6720966000575572,True,8,1,0,5
Y2-S2-150K21,2,212,PS,exp,48,↑,up,↑,0.4726891000755131,True,8,1,0,5
Y2-S2-150K21,2,213,PS,exp,36,→,right,→,0.5567105000372976,True,7,1,0,5
Y2-S2-150K21,2,214,PS,exp,47,←,left,←,0.504400199977681,True,7,1,0,5
Y2-S2-150K21,2,215,PS,exp,40,→,right,→,0.43930050008930266,True,7,1,0,5
Y2-S2-150K21,2,216,PS,exp,39,↑,up,↑,0.5645093000493944,True,6,1,0,5
Y2-S2-150K21,2,217,PS,exp,33,↓,down,↓,0.6429840000346303,True,6,1,0,5
Y2-S2-150K21,2,218,PS,exp,29,←,right,→,0.6234230000991374,False,6,-1,1,6
Y2-S2-150K21,2,219,PS,exp,29,↑,up,↑,0.5028597000055015,True,7,-1,0,6
Y2-S2-150K21,2,220,PS,exp,48,→,left,←,0.5584712000563741,False,7,-1,0,6
Y2-S2-150K21,2,221,PS,exp,45,←,left,←,0.4082268001511693,True,8,-1,0,6
Y2-S2-150K21,2,222,PS,exp,47,↓,right,→,0.6464318998623639,False,8,-1,0,6
Y2-S2-150K21,2,223,PS,exp,26,↑,up,↑,0.45290010003373027,True,9,-1,0,6
Y2-S2-150K21,2,224,PS,exp,41,→,right,→,0.45137530006468296,True,9,-1,0,6
Y2-S2-150K21,2,225,PS,exp,32,←,left,←,0.4472414997871965,True,9,1,1,7
Y2-S2-150K21,2,226,PS,exp,44,↓,down,↓,0.5593010000884533,True,8,1,0,7
Y2-S2-150K21,2,227,PS,exp,39,→,right,→,0.5235360998194665,True,8,1,0,7
Y2-S2-150K21,2,228,PS,exp,25,↓,left,←,0.7155875000171363,False,8,-1,1,8
Y2-S2-150K21,2,229,PS,exp,49,→,right,→,0.42629029997624457,True,9,-1,0,8
Y2-S2-150K21,2,230,PS,exp,27,←,left,←,0.37185360002331436,True,9,-1,0,8
Y2-S2-150K21,2,231,PS,exp,43,↑,up,↑,0.4488184000365436,True,9,1,1,9
Y2-S2-150K21,2,232,PS,exp,49,→,right,→,0.43196810013614595,True,8,1,0,9
Y2-S2-150K21,2,233,PS,exp,37,↑,right,→,0.41602740017697215,False,8,-1,1,10
Y2-S2-150K21,2,234,PS,exp,48,↓,left,←,0.3321833999361843,False,9,-1,0,10
Y2-S2-150K21,2,235,PS,exp,27,→,right,→,0.4446673998609185,True,10,-1,0,10
Y2-S2-150K21,2,236,PS,exp,40,←,left,←,0.7434600999113172,True,10,-1,0,10
Y2-S2-150K21,2,237,PS,exp,45,→,right,→,0.5073725001420826,True,10,1,1,11
Y2-S2-150K21,2,238,PS,exp,31,↑,up,↑,0.5497152998577803,True,9,1,0,11
Y2-S2-150K21,2,239,PS,exp,42,→,right,→,0.4340146000031382,True,9,1,0,11
Y2-S2-150K21,2,240,PS,exp,41,←,left,←,0.4559307999443263,True,9,1,0,11
Y2-S2-150K21,2,241,PS,exp,36,↑,up,↑,0.5447202001232654,True,8,1,0,11
Y2-S2-150K21,2,242,PS,exp,26,↓,down,↓,0.5951922000385821,True,8,1,0,11
Y2-S2-150K21,2,243,PS,exp,32,←,right,→,0.5030046000611037,False,8,-1,1,12
Y2-S2-150K21,2,244,PS,exp,48,→,right,→,0.4896040998864919,True,9,-1,0,12
Y2-S2-150K21,2,245,PS,exp,29,↓,up,↑,0.6023025999311358,False,9,-1,0,12
Y2-S2-150K21,2,246,PS,exp,26,↑,up,↑,0.5202264999970794,True,10,-1,0,12
Y2-S2-150K21,2,247,PS,exp,48,→,right,→,0.42152870004065335,True,10,-1,0,12
Y2-S2-150K21,2,248,PS,exp,38,↓,down,↓,0.5512527001556009,True,10,1,1,13
Y2-S2-150K21,2,249,PS,exp,31,→,right,→,0.3965398999862373,True,9,1,0,13
Y2-S2-150K21,2,250,PS,exp,35,←,left,←,0.48941659997217357,True,9,1,0,13
Y2-S2-150K21,2,251,PS,exp,38,→,right,→,0.35464409994892776,True,9,1,0,13
Y2-S2-150K21,2,252,PS,exp,30,↓,left,←,0.6793879000470042,False,8,-1,1,14
Y2-S2-150K21,2,253,PS,exp,30,→,right,→,0.4147973000071943,True,9,-1,0,14
Y2-S2-150K21,2,254,PS,exp,26,↓,down,↓,0.5101324999704957,True,9,-1,0,14
Y2-S2-150K21,2,255,PS,exp,35,←,left,←,0.41841599997133017,True,9,1,1,15
Y2-S2-150K21,2,256,PS,exp,40,→,right,→,0.4359391999896616,True,8,1,0,15
Y2-S2-150K21,2,257,PS,exp,40,←,left,←,0.31517500011250377,True,8,1,0,15
Y2-S2-150K21,2,258,PS,exp,28,→,left,←,0.3018701998516917,False,8,-1,1,16
Y2-S2-150K21,3,259,PS,intra_train,34,↓,down,↓,0.42302549979649484,True,9,-,-,-
Y2-S2-150K21,3,260,PS,intra_train,42,→,right,→,0.4246195999439806,True,9,-,-,-
Y2-S2-150K21,3,261,PS,intra_train,26,←,left,←,0.4869029000401497,True,9,-,-,-
Y2-S2-150K21,3,262,PS,intra_train,34,↓,down,↓,0.46267849998548627,True,9,-,-,-
Y2-S2-150K21,3,263,PS,intra_train,45,↑,up,↑,0.4603120998945087,True,9,-,-,-
Y2-S2-150K21,3,264,PS,exp,35,←,left,←,0.5006526000797749,True,6,0,0,0
Y2-S2-150K21,3,265,PS,exp,42,→,left,←,0.5254072998650372,False,6,-1,0,0
Y2-S2-150K21,3,266,PS,exp,41,↑,right,→,0.46994430013000965,False,7,-1,0,0
Y2-S2-150K21,3,267,PS,exp,36,←,right,→,0.4183215000666678,False,8,-1,0,0
Y2-S2-150K21,3,268,PS,exp,30,↑,left,←,0.37639170000329614,False,9,-1,0,0
Y2-S2-150K21,3,269,PS,exp,50,←,left,←,0.6279419998172671,True,10,-1,0,0
Y2-S2-150K21,3,270,PS,exp,32,↓,down,↓,0.4542428001295775,True,10,-1,0,0
Y2-S2-150K21,3,271,PS,exp,46,↑,up,↑,0.4774849000386894,True,10,1,1,1
Y2-S2-150K21,3,272,PS,exp,31,↓,right,→,0.4594537999946624,False,9,-1,1,2
Y2-S2-150K21,3,273,PS,exp,33,←,left,←,0.43197549995966256,True,10,-1,0,2
Y2-S2-150K21,3,274,PS,exp,50,→,left,←,0.3559755999594927,False,10,-1,0,2
Y2-S2-150K21,3,275,PS,exp,45,←,left,←,0.5884444999974221,True,11,-1,0,2
Y2-S2-150K21,3,276,PS,exp,38,→,right,→,0.3945088000036776,True,11,-1,0,2
Y2-S2-150K21,3,277,PS,exp,27,↑,up,↑,0.5729962000623345,True,11,1,1,3
Y2-S2-150K21,3,278,PS,exp,39,←,left,←,0.41181439999490976,True,10,1,0,3
Y2-S2-150K21,3,279,PS,exp,33,↓,down,↓,0.48943540011532605,True,10,1,0,3
Y2-S2-150K21,3,280,PS,exp,48,→,right,→,0.4066689999308437,True,10,1,0,3
Y2-S2-150K21,3,281,PS,exp,25,↑,up,↑,0.43297080020420253,True,9,1,0,3
Y2-S2-150K21,3,282,PS,exp,39,→,right,→,0.48898949986323714,True,9,1,0,3
Y2-S2-150K21,3,283,PS,exp,49,↓,down,↓,0.4225057999137789,True,9,1,0,3
Y2-S2-150K21,3,284,PS,exp,29,→,right,→,0.4273737999610603,True,8,1,0,3
Y2-S2-150K21,3,285,PS,exp,46,←,left,←,0.39065660000778735,True,8,1,0,3
Y2-S2-150K21,3,286,PS,exp,43,↑,up,↑,0.4683290000539273,True,8,1,0,3
Y2-S2-150K21,3,287,PS,exp,40,→,right,→,0.39909399999305606,True,7,1,0,3
Y2-S2-150K21,3,288,PS,exp,48,↑,right,→,0.5259797999169677,False,7,-1,1,4
Y2-S2-150K21,3,289,PS,exp,47,→,right,→,0.47593369986861944,True,8,-1,0,4
Y2-S2-150K21,3,290,PS,exp,27,↓,down,↓,0.5431931000202894,True,8,-1,0,4
Y2-S2-150K21,3,291,PS,exp,48,↑,left,←,0.6936129999812692,False,8,-1,0,4
Y2-S2-150K21,3,292,PS,exp,25,↓,left,←,0.5641481000930071,False,9,-1,0,4
Y2-S2-150K21,3,293,PS,exp,48,←,left,←,0.4796164999715984,True,10,-1,0,4
Y2-S2-150K21,3,294,PS,exp,26,↓,up,↑,0.7899238001555204,False,10,-1,0,4
Y2-S2-150K21,3,295,PS,exp,44,←,left,←,0.5786383000668138,True,11,-1,0,4
Y2-S2-150K21,3,296,PS,exp,27,→,right,→,0.5148008998949081,True,11,-1,0,4
Y2-S2-150K21,3,297,PS,exp,25,↓,down,↓,0.4839516000356525,True,11,1,1,5
Y2-S2-150K21,3,298,PS,exp,32,→,right,→,0.5961509000044316,True,10,1,0,5
Y2-S2-150K21,3,299,PS,exp,35,←,left,←,0.41382419993169606,True,10,1,0,5
Y2-S2-150K21,3,300,PS,exp,30,↓,down,↓,0.5329231000505388,True,10,1,0,5
Y2-S2-150K21,3,301,PS,exp,44,←,left,←,0.37015810003504157,True,9,1,0,5
Y2-S2-150K21,3,302,PS,exp,36,↑,up,↑,0.5396130001172423,True,9,1,0,5
Y2-S2-150K21,3,303,PS,exp,32,↓,down,↓,0.4022517001722008,True,9,1,0,5
Y2-S2-150K21,3,304,PS,exp,48,↑,left,←,0.44676560000516474,False,8,-1,1,6
Y2-S2-150K21,3,305,PS,exp,28,↓,down,↓,0.5312903001904488,True,9,-1,0,6
Y2-S2-150K21,3,306,PS,exp,38,→,right,→,0.44248019997030497,True,9,-1,0,6
Y2-S2-150K21,3,307,PS,exp,28,↓,right,→,0.7252181998919696,False,9,-1,0,6
Y2-S2-150K21,3,308,PS,exp,30,→,right,→,0.40164469997398555,True,10,-1,0,6
Y2-S2-150K21,3,309,PS,exp,36,↑,up,↑,0.5142433999571949,True,10,-1,0,6
Y2-S2-150K21,3,310,PS,exp,39,←,left,←,0.49481149995699525,True,10,1,1,7
Y2-S2-150K21,3,311,PS,exp,47,→,right,→,0.6552120000123978,True,9,1,0,7
Y2-S2-150K21,3,312,PS,exp,44,↑,up,↑,0.4428918999619782,True,9,1,0,7
Y2-S2-150K21,3,313,PS,exp,29,→,left,←,0.4861312999855727,False,9,-1,1,8
Y2-S2-150K21,3,314,PS,exp,50,↓,down,↓,0.5754561999347061,True,10,-1,0,8
Y2-S2-150K21,3,315,PS,exp,30,→,right,→,0.3898000998888165,True,10,-1,0,8
Y2-S2-150K21,3,316,PS,exp,42,↓,right,→,0.4474454999435693,False,10,-1,0,8
Y2-S2-150K21,3,317,PS,exp,36,↑,up,↑,0.5103806999977678,True,11,-1,0,8
Y2-S2-150K21,3,318,PS,exp,30,↓,down,↓,0.4862552999984473,True,11,-1,0,8
Y2-S2-150K21,3,319,PS,exp,29,↑,up,↑,0.5492841999512166,True,11,1,1,9
Y2-S2-150K21,3,320,PS,exp,43,←,left,←,0.4753509999718517,True,10,1,0,9
Y2-S2-150K21,3,321,PS,exp,36,↓,down,↓,0.5312330999877304,True,10,1,0,9
Y2-S2-150K21,3,322,PS,exp,33,→,right,→,0.49414029996842146,True,10,1,0,9
Y2-S2-150K21,3,323,PS,exp,30,↓,up,↑,0.5519791000988334,False,9,-1,1,10
Y2-S2-150K21,3,324,PS,exp,38,→,right,→,0.40493109985254705,True,10,-1,0,10
Y2-S2-150K21,3,325,PS,exp,26,↓,down,↓,0.4857759999576956,True,10,-1,0,10
Y2-S2-150K21,3,326,PS,exp,30,←,left,←,0.5788765999022871,True,10,1,1,11
Y2-S2-150K21,3,327,PS,exp,38,↓,down,↓,0.495868599973619,True,9,1,0,11
Y2-S2-150K21,3,328,PS,exp,38,↑,up,↑,0.5737182998564094,True,9,1,0,11
Y2-S2-150K21,3,329,PS,exp,35,↓,down,↓,0.3945796999614686,True,9,1,0,11
Y2-S2-150K21,3,330,PS,exp,31,↑,left,←,0.5217786999419332,False,8,-1,1,12
Y2-S2-150K21,3,331,PS,exp,49,←,left,←,0.5709720000158995,True,9,-1,0,12
Y2-S2-150K21,3,332,PS,exp,30,→,right,→,0.4265000999439508,True,9,-1,0,12
Y2-S2-150K21,3,333,PS,exp,49,↓,right,→,0.3618990001268685,False,9,-1,0,12
Y2-S2-150K21,3,334,PS,exp,39,←,right,→,0.715632899897173,False,10,-1,0,12
Y2-S2-150K21,3,335,PS,exp,33,↑,left,←,0.37988019990734756,False,11,-1,0,12
Y2-S2-150K21,3,336,PS,exp,46,←,left,←,0.44396409997716546,True,12,-1,0,12
Y2-S2-150K21,3,337,PS,exp,25,→,left,←,0.42773539992049336,False,12,-1,0,12
Y2-S2-150K21,3,338,PS,exp,34,↓,down,↓,0.5005493999924511,True,13,-1,0,12
Y2-S2-150K21,3,339,PS,exp,36,→,right,→,1.342875799862668,True,13,-1,0,12
Y2-S2-150K21,3,340,PS,exp,29,↑,left,←,0.44271169998683035,False,13,-1,0,12
Y2-S2-150K21,3,341,PS,exp,41,→,no_key,no_letter,-1.0,False,14,-1,0,12
Y2-S2-150K21,3,342,PS,exp,50,↓,down,↓,0.5520283998921514,True,15,-1,0,12
Y2-S2-150K21,3,343,PS,exp,47,→,down,↓,0.7620777999982238,False,15,-1,0,12
Y2-S2-150K21,3,344,PS,exp,34,↓,down,↓,0.4530679997988045,True,16,-1,0,12
Y2-S2-150K21,3,345,PS,exp,40,←,left,←,0.40072000003419816,True,16,-1,0,12
Y2-S2-150K21,3,346,PS,exp,44,→,right,→,0.31720390007831156,True,16,1,1,13
Y2-S2-150K21,3,347,PS,exp,50,↓,down,↓,0.48172700009308755,True,15,1,0,13
Y2-S2-150K21,3,348,PS,exp,36,←,left,←,0.49775220011360943,True,15,1,0,13
Y2-S2-150K21,3,349,PS,exp,29,↓,right,→,0.36703229998238385,False,15,-1,1,14
Y2-S2-150K21,3,350,PS,exp,29,→,right,→,0.4481983999721706,True,16,-1,0,14
Y2-S2-150K21,3,351,PS,exp,46,↑,up,↑,0.5444817999377847,True,16,-1,0,14
Y2-S2-150K21,3,352,PS,exp,31,←,left,←,1.1693332002032548,True,16,1,1,15
Y2-S2-150K21,3,353,PS,exp,49,→,right,→,0.6203221001196653,True,15,1,0,15
Y2-S2-150K21,3,354,PS,exp,31,↑,right,→,0.4417779000941664,False,15,-1,1,16
Y2-S2-150K21,4,355,AS,intra_train,42,→,right,→,0.36782309995032847,True,24,-,-,-
Y2-S2-150K21,4,356,AS,intra_train,45,←,right,→,0.4834483000449836,False,24,-,-,-
Y2-S2-150K21,4,357,AS,intra_train,39,→,right,→,0.6703246000688523,True,24,-,-,-
Y2-S2-150K21,4,358,AS,intra_train,38,↑,up,↑,0.5339408998843282,True,24,-,-,-
Y2-S2-150K21,4,359,AS,intra_train,38,→,right,→,1.4645948000252247,True,24,-,-,-
Y2-S2-150K21,4,360,AS,exp,38,↑,up,↑,0.4584296999964863,True,16,0,0,0
Y2-S2-150K21,4,361,AS,exp,25,→,right,→,0.6948623000644147,True,16,0,0,0
Y2-S2-150K21,4,362,AS,exp,46,↑,up,↑,1.1371108000166714,True,16,1,0,0
Y2-S2-150K21,4,363,AS,exp,44,←,right,→,0.5325629999861121,False,15,-1,1,1
Y2-S2-150K21,4,364,AS,exp,37,↓,up,↑,0.5988612999208272,False,16,-1,0,1
Y2-S2-150K21,4,365,AS,exp,30,←,left,←,0.4950433000922203,True,17,-1,0,1
Y2-S2-150K21,4,366,AS,exp,27,↑,up,↑,1.2787927999161184,True,17,-1,0,1
Y2-S2-150K21,4,367,AS,exp,45,←,left,←,0.9740577000193298,True,17,1,1,2
Y2-S2-150K21,4,368,AS,exp,36,↑,up,↑,0.765713500091806,True,16,1,0,2
Y2-S2-150K21,4,369,AS,exp,34,→,right,→,0.7691170000471175,True,16,1,0,2
Y2-S2-150K21,4,370,AS,exp,41,←,left,←,0.5573130000848323,True,16,1,0,2
Y2-S2-150K21,4,371,AS,exp,35,→,left,←,0.5590246999636292,False,15,-1,1,3
Y2-S2-150K21,4,372,AS,exp,40,↓,up,↑,0.5245807999745011,False,16,-1,0,3
Y2-S2-150K21,4,373,AS,exp,47,↑,down,↓,0.5998378000222147,False,17,-1,0,3
Y2-S2-150K21,4,374,AS,exp,46,→,right,→,0.5639037999790162,True,18,-1,0,3
Y2-S2-150K21,4,375,AS,exp,28,←,left,←,0.4175726999528706,True,18,-1,0,3
Y2-S2-150K21,4,376,AS,exp,36,↑,up,↑,0.5121571000199765,True,18,1,1,4
Y2-S2-150K21,4,377,AS,exp,48,↓,down,↓,0.5197984001133591,True,17,1,0,4
Y2-S2-150K21,4,378,AS,exp,33,→,right,→,0.6186212999746203,True,17,1,0,4
Y2-S2-150K21,4,379,AS,exp,28,↑,up,↑,0.5965156999882311,True,17,1,0,4
Y2-S2-150K21,4,380,AS,exp,27,←,right,→,0.45814360002987087,False,16,-1,1,5
Y2-S2-150K21,4,381,AS,exp,45,↓,down,↓,1.025732700014487,True,17,-1,0,5
Y2-S2-150K21,4,382,AS,exp,28,↑,up,↑,0.5102448998950422,True,17,-1,0,5
Y2-S2-150K21,4,383,AS,exp,36,→,right,→,0.9415412999223918,True,17,1,1,6
Y2-S2-150K21,4,384,AS,exp,46,↓,down,↓,0.9102370999753475,True,16,1,0,6
Y2-S2-150K21,4,385,AS,exp,49,↑,up,↑,0.5182976999785751,True,16,1,0,6
Y2-S2-150K21,4,386,AS,exp,31,→,right,→,0.4005225000437349,True,16,1,0,6
Y2-S2-150K21,4,387,AS,exp,27,↓,down,↓,0.5887555000372231,True,15,1,0,6
Y2-S2-150K21,4,388,AS,exp,32,↑,up,↑,0.8370747999288142,True,15,1,0,6
Y2-S2-150K21,4,389,AS,exp,26,←,left,←,0.45102469995617867,True,15,1,0,6
Y2-S2-150K21,4,390,AS,exp,35,↓,down,↓,0.6871801000088453,True,14,1,0,6
Y2-S2-150K21,4,391,AS,exp,38,→,right,→,0.48076980002224445,True,14,1,0,6
Y2-S2-150K21,4,392,AS,exp,49,↓,down,↓,0.5237488998100162,True,14,1,0,6
Y2-S2-150K21,4,393,AS,exp,26,↑,up,↑,0.5034093998838216,True,13,1,0,6
Y2-S2-150K21,4,394,AS,exp,31,→,right,→,0.5537389998789877,True,13,1,0,6
Y2-S2-150K21,4,395,AS,exp,41,↑,up,↑,0.62911789980717,True,13,1,0,6
Y2-S2-150K21,4,396,AS,exp,40,←,left,←,0.43843699991703033,True,12,1,0,6
Y2-S2-150K21,4,397,AS,exp,50,↓,down,↓,0.5422626999206841,True,12,1,0,6
Y2-S2-150K21,4,398,AS,exp,36,↑,up,↑,0.37560449982993305,True,12,1,0,6
Y2-S2-150K21,4,399,AS,exp,28,←,right,→,0.40732100000604987,False,11,-1,1,7
Y2-S2-150K21,4,400,AS,exp,26,↓,down,↓,0.5179224000312388,True,12,-1,0,7
Y2-S2-150K21,4,401,AS,exp,26,←,left,←,0.39617089997045696,True,12,-1,0,7
Y2-S2-150K21,4,402,AS,exp,42,→,right,→,0.3759165999945253,True,12,1,1,8
Y2-S2-150K21,4,403,AS,exp,35,↑,up,↑,0.36580399982631207,True,11,1,0,8
Y2-S2-150K21,4,404,AS,exp,48,↓,down,↓,0.38972219987772405,True,11,1,0,8
Y2-S2-150K21,4,405,AS,exp,43,→,right,→,0.46458299993537366,True,11,1,0,8
Y2-S2-150K21,4,406,AS,exp,46,↓,down,↓,0.5445876999292523,True,10,1,0,8
Y2-S2-150K21,4,407,AS,exp,27,←,left,←,0.6639454001560807,True,10,1,0,8
Y2-S2-150K21,4,408,AS,exp,40,↑,up,↑,0.6290329999756068,True,10,1,0,8
Y2-S2-150K21,4,409,AS,exp,28,↓,down,↓,0.5380396000109613,True,9,1,0,8
Y2-S2-150K21,4,410,AS,exp,43,↑,down,↓,0.6080262998584658,False,9,-1,1,9
Y2-S2-150K21,4,411,AS,exp,42,↓,down,↓,0.5575739999767393,True,10,-1,0,9
Y2-S2-150K21,4,412,AS,exp,44,←,left,←,0.43444380001164973,True,10,-1,0,9
Y2-S2-150K21,4,413,AS,exp,25,↑,down,↓,0.6350707998499274,False,10,-1,0,9
Y2-S2-150K21,4,414,AS,exp,43,↓,down,↓,0.6664999001659453,True,11,-1,0,9
Y2-S2-150K21,4,415,AS,exp,33,→,right,→,0.5580901999492198,True,11,-1,0,9
Y2-S2-150K21,4,416,AS,exp,38,↓,up,↑,0.8495471000205725,False,11,-1,0,9
Y2-S2-150K21,4,417,AS,exp,32,↑,down,↓,0.4446461000479758,False,12,-1,0,9
Y2-S2-150K21,4,418,AS,exp,27,←,right,→,0.4949634000658989,False,13,-1,0,9
Y2-S2-150K21,4,419,AS,exp,25,↑,up,↑,0.5865931999869645,True,14,-1,0,9
Y2-S2-150K21,4,420,AS,exp,38,→,right,→,0.49839690001681447,True,14,-1,0,9
Y2-S2-150K21,4,421,AS,exp,29,↑,up,↑,0.4132437000516802,True,14,1,1,10
Y2-S2-150K21,4,422,AS,exp,50,←,left,←,0.5097099000122398,True,13,1,0,10
Y2-S2-150K21,4,423,AS,exp,30,↓,up,↑,0.6346700000576675,False,13,-1,1,11
Y2-S2-150K21,4,424,AS,exp,25,↑,down,↓,0.5092756999656558,False,14,-1,0,11
Y2-S2-150K21,4,425,AS,exp,38,←,left,←,0.6127316998317838,True,15,-1,0,11
Y2-S2-150K21,4,426,AS,exp,42,↓,down,↓,0.6382383999880403,True,15,-1,0,11
Y2-S2-150K21,4,427,AS,exp,41,←,right,→,0.4290925001259893,False,15,-1,0,11
Y2-S2-150K21,4,428,AS,exp,48,↑,up,↑,0.48687330004759133,True,16,-1,0,11
Y2-S2-150K21,4,429,AS,exp,50,→,right,→,1.2127113998867571,True,16,-1,0,11
Y2-S2-150K21,4,430,AS,exp,44,↑,up,↑,0.667804199969396,True,16,1,1,12
Y2-S2-150K21,4,431,AS,exp,50,↓,down,↓,0.7734968999866396,True,15,1,0,12
Y2-S2-150K21,4,432,AS,exp,50,←,left,←,0.4950138998683542,True,15,1,0,12
Y2-S2-150K21,4,433,AS,exp,35,↑,up,↑,0.4178286998067051,True,15,1,0,12
Y2-S2-150K21,4,434,AS,exp,48,↓,down,↓,0.42918550013564527,True,14,1,0,12
Y2-S2-150K21,4,435,AS,exp,40,→,left,←,0.563116499921307,False,14,-1,1,13
Y2-S2-150K21,4,436,AS,exp,30,↓,down,↓,0.44452340016141534,True,15,-1,0,13
Y2-S2-150K21,4,437,AS,exp,31,↑,down,↓,0.5655333001632243,False,15,-1,0,13
Y2-S2-150K21,4,438,AS,exp,33,↓,down,↓,0.5633988999761641,True,16,-1,0,13
Y2-S2-150K21,4,439,AS,exp,42,←,left,←,0.5327622999902815,True,16,-1,0,13
Y2-S2-150K21,4,440,AS,exp,31,↓,down,↓,0.4683589998167008,True,16,1,1,14
Y2-S2-150K21,4,441,AS,exp,37,→,right,→,0.4468392999842763,True,15,1,0,14
Y2-S2-150K21,4,442,AS,exp,28,↓,left,←,0.4320672999601811,False,15,-1,1,15
Y2-S2-150K21,4,443,AS,exp,34,→,left,←,0.45469010015949607,False,16,-1,0,15
Y2-S2-150K21,4,444,AS,exp,34,↑,up,↑,0.6539388000965118,True,17,-1,0,15
Y2-S2-150K21,4,445,AS,exp,27,←,right,→,0.5540461000055075,False,17,-1,0,15
Y2-S2-150K21,4,446,AS,exp,43,↓,down,↓,0.6515892001334578,True,18,-1,0,15
Y2-S2-150K21,4,447,AS,exp,35,→,right,→,0.544582000002265,True,18,-1,0,15
Y2-S2-150K21,4,448,AS,exp,44,↑,up,↑,0.6779566998593509,True,18,1,1,16
Y2-S2-150K21,5,449,AS,intra_train,46,→,right,→,0.4173017998691648,True,24,-,-,-
Y2-S2-150K21,5,450,AS,intra_train,30,←,left,←,0.603734000120312,True,24,-,-,-
Y2-S2-150K21,5,451,AS,intra_train,42,→,right,→,0.40060429996810853,True,24,-,-,-
Y2-S2-150K21,5,452,AS,intra_train,41,←,left,←,0.4672240999061614,True,24,-,-,-
Y2-S2-150K21,5,453,AS,intra_train,27,↑,up,↑,0.6833410998806357,True,24,-,-,-
Y2-S2-150K21,5,454,AS,exp,50,←,left,←,1.0217464999295771,True,16,0,0,0
Y2-S2-150K21,5,455,AS,exp,39,↑,up,↑,0.7632156000472605,True,16,0,0,0
Y2-S2-150K21,5,456,AS,exp,26,↓,down,↓,0.4764298000372946,True,16,1,0,0
Y2-S2-150K21,5,457,AS,exp,26,←,left,←,0.5674939001910388,True,15,1,0,0
Y2-S2-150K21,5,458,AS,exp,47,↑,up,↑,0.6530431997962296,True,15,1,0,0
Y2-S2-150K21,5,459,AS,exp,50,←,left,←,0.6470706998370588,True,15,1,0,0
Y2-S2-150K21,5,460,AS,exp,46,↑,up,↑,0.5500086999963969,True,14,1,0,0
Y2-S2-150K21,5,461,AS,exp,28,←,left,←,0.5537225999869406,True,14,1,0,0
Y2-S2-150K21,5,462,AS,exp,44,→,right,→,0.5958525000605732,True,14,1,0,0
Y2-S2-150K21,5,463,AS,exp,45,↑,up,↑,0.6949391001835465,True,13,1,0,0
Y2-S2-150K21,5,464,AS,exp,42,→,up,↑,0.6075168999377638,False,13,-1,1,1
Y2-S2-150K21,5,465,AS,exp,32,↓,down,↓,0.4632335000205785,True,14,-1,0,1
Y2-S2-150K21,5,466,AS,exp,25,←,left,←,0.6017869000788778,True,14,-1,0,1
Y2-S2-150K21,5,467,AS,exp,50,→,right,→,0.5637843001168221,True,14,1,1,2
Y2-S2-150K21,5,468,AS,exp,34,←,left,←,0.4175907999742776,True,13,1,0,2
Y2-S2-150K21,5,469,AS,exp,47,↓,down,↓,0.4646046000998467,True,13,1,0,2
Y2-S2-150K21,5,470,AS,exp,35,→,right,→,0.4723195999395102,True,13,1,0,2
Y2-S2-150K21,5,471,AS,exp,50,↑,up,↑,0.5212864999193698,True,12,1,0,2
Y2-S2-150K21,5,472,AS,exp,45,↓,down,↓,0.5702468999661505,True,12,1,0,2
Y2-S2-150K21,5,473,AS,exp,25,→,right,→,0.4729311999399215,True,12,1,0,2
Y2-S2-150K21,5,474,AS,exp,46,←,right,→,0.47054069978185,False,11,-1,1,3
Y2-S2-150K21,5,475,AS,exp,32,↑,up,↑,0.43475769995711744,True,12,-1,0,3
Y2-S2-150K21,5,476,AS,exp,46,↓,down,↓,0.4081989999394864,True,12,-1,0,3
Y2-S2-150K21,5,477,AS,exp,44,→,right,→,0.3754938000347465,True,12,1,1,4
Y2-S2-150K21,5,478,AS,exp,28,←,right,→,0.4878853999543935,False,11,-1,1,5
Y2-S2-150K21,5,479,AS,exp,44,↑,up,↑,0.6643296000547707,True,12,-1,0,5
Y2-S2-150K21,5,480,AS,exp,27,→,right,→,0.459998199949041,True,12,-1,0,5
Y2-S2-150K21,5,481,AS,exp,29,↓,left,←,0.3698843999300152,False,12,-1,0,5
Y2-S2-150K21,5,482,AS,exp,50,→,right,→,0.46353400009684265,True,13,-1,0,5
Y2-S2-150K21,5,483,AS,exp,37,↑,up,↑,0.3940518000163138,True,13,-1,0,5
Y2-S2-150K21,5,484,AS,exp,40,↓,down,↓,0.6723295000847429,True,13,1,1,6
Y2-S2-150K21,5,485,AS,exp,48,↑,up,↑,0.505317399976775,True,12,1,0,6
Y2-S2-150K21,5,486,AS,exp,25,→,right,→,0.4739538000430912,True,12,1,0,6
Y2-S2-150K21,5,487,AS,exp,29,↑,up,↑,0.5363959001842886,True,12,1,0,6
Y2-S2-150K21,5,488,AS,exp,44,↓,down,↓,0.5354580001439899,True,11,1,0,6
Y2-S2-150K21,5,489,AS,exp,44,↑,up,↑,0.6076545000541955,True,11,1,0,6
Y2-S2-150K21,5,490,AS,exp,38,→,right,→,0.4917258999776095,True,11,1,0,6
Y2-S2-150K21,5,491,AS,exp,49,↑,up,↑,0.5247857000213116,True,10,1,0,6
Y2-S2-150K21,5,492,AS,exp,28,←,right,→,0.49330949992872775,False,10,-1,1,7
Y2-S2-150K21,5,493,AS,exp,43,→,right,→,0.42614270001649857,True,11,-1,0,7
Y2-S2-150K21,5,494,AS,exp,38,↑,up,↑,0.39299899991601706,True,11,-1,0,7
Y2-S2-150K21,5,495,AS,exp,36,→,right,→,0.4744039000943303,True,11,1,1,8
Y2-S2-150K21,5,496,AS,exp,42,↓,down,↓,0.5594991000834852,True,10,1,0,8
Y2-S2-150K21,5,497,AS,exp,35,↑,up,↑,0.4097297000698745,True,10,1,0,8
Y2-S2-150K21,5,498,AS,exp,48,↓,down,↓,0.6068462000694126,True,10,1,0,8
Y2-S2-150K21,5,499,AS,exp,30,←,left,←,0.5886484999209642,True,9,1,0,8
Y2-S2-150K21,5,500,AS,exp,38,→,right,→,0.41344469995237887,True,9,1,0,8
Y2-S2-150K21,5,501,AS,exp,43,↓,up,↑,0.528468799777329,False,9,-1,1,9
Y2-S2-150K21,5,502,AS,exp,33,↑,up,↑,0.6128916000016034,True,10,-1,0,9
Y2-S2-150K21,5,503,AS,exp,40,→,right,→,0.5201940000988543,True,10,-1,0,9
Y2-S2-150K21,5,504,AS,exp,49,↓,down,↓,0.5441367998719215,True,10,1,1,10
Y2-S2-150K21,5,505,AS,exp,40,→,right,→,0.4218051000498235,True,9,1,0,10
Y2-S2-150K21,5,506,AS,exp,40,↑,up,↑,0.5685097000095993,True,9,1,0,10
Y2-S2-150K21,5,507,AS,exp,43,→,right,→,0.5739922998473048,True,9,1,0,10
Y2-S2-150K21,5,508,AS,exp,25,←,left,←,0.48797719995491207,True,8,1,0,10
Y2-S2-150K21,5,509,AS,exp,31,↑,up,↑,0.5900330999866128,True,8,1,0,10
Y2-S2-150K21,5,510,AS,exp,25,→,up,↑,0.5761818999890238,False,8,-1,1,11
Y2-S2-150K21,5,511,AS,exp,34,↓,down,↓,0.5200491999275982,True,9,-1,0,11
Y2-S2-150K21,5,512,AS,exp,25,↑,up,↑,0.6780663998797536,True,9,-1,0,11
Y2-S2-150K21,5,513,AS,exp,39,→,right,→,0.44000069983303547,True,9,1,1,12
Y2-S2-150K21,5,514,AS,exp,50,←,left,←,0.5095291999168694,True,8,1,0,12
Y2-S2-150K21,5,515,AS,exp,42,↓,right,→,0.6003193999640644,False,8,-1,1,13
Y2-S2-150K21,5,516,AS,exp,42,→,right,→,1.0861613999586552,True,9,-1,0,13
Y2-S2-150K21,5,517,AS,exp,30,↓,right,→,0.6841245000250638,False,9,-1,0,13
Y2-S2-150K21,5,518,AS,exp,43,→,right,→,0.49094839999452233,True,10,-1,0,13
Y2-S2-150K21,5,519,AS,exp,38,←,right,→,0.48116660001687706,False,10,-1,0,13
Y2-S2-150K21,5,520,AS,exp,45,→,right,→,0.40212489990517497,True,11,-1,0,13
Y2-S2-150K21,5,521,AS,exp,30,↑,right,→,0.5176039000507444,False,11,-1,0,13
Y2-S2-150K21,5,522,AS,exp,41,→,right,→,0.5362734000664204,True,12,-1,0,13
Y2-S2-150K21,5,523,AS,exp,28,↓,down,↓,0.5701621999032795,True,12,-1,0,13
Y2-S2-150K21,5,524,AS,exp,40,←,left,←,0.39163270010612905,True,12,1,1,14
Y2-S2-150K21,5,525,AS,exp,34,↓,down,↓,0.5605632001534104,True,11,1,0,14
Y2-S2-150K21,5,526,AS,exp,43,→,right,→,0.5384698999114335,True,11,1,0,14
Y2-S2-150K21,5,527,AS,exp,37,↑,right,→,0.7002791999839246,False,11,-1,1,15
Y2-S2-150K21,5,528,AS,exp,31,→,right,→,0.49462160002440214,True,12,-1,0,15
Y2-S2-150K21,5,529,AS,exp,26,↑,right,→,0.49690279993228614,False,12,-1,0,15
Y2-S2-150K21,5,530,AS,exp,33,↓,down,↓,0.5973679998423904,True,13,-1,0,15
Y2-S2-150K21,5,531,AS,exp,28,→,right,→,0.5107466999907047,True,13,-1,0,15
Y2-S2-150K21,5,532,AS,exp,48,←,right,→,0.6219987000804394,False,13,-1,0,15
Y2-S2-150K21,5,533,AS,exp,25,→,right,→,0.49711629981175065,True,14,-1,0,15
Y2-S2-150K21,5,534,AS,exp,43,↑,up,↑,0.4639242999255657,True,14,-1,0,15
Y2-S2-150K21,5,535,AS,exp,27,←,right,→,0.41938659991137683,False,14,-1,0,15
Y2-S2-150K21,5,536,AS,exp,47,↓,down,↓,0.6100519997999072,True,15,-1,0,15
Y2-S2-150K21,5,537,AS,exp,44,←,left,←,0.6710713000502437,True,15,-1,0,15
Y2-S2-150K21,5,538,AS,exp,39,→,right,→,1.3163440998177975,True,15,1,1,16
Y2-S2-150K21,6,539,PS,intra_train,37,↑,right,→,0.5702938002068549,False,9,-,-,-
Y2-S2-150K21,6,540,PS,intra_train,30,↓,down,↓,0.594327799975872,True,9,-,-,-
Y2-S2-150K21,6,541,PS,intra_train,33,→,right,→,0.6029725999105722,True,9,-,-,-
Y2-S2-150K21,6,542,PS,intra_train,28,↓,down,↓,0.6133981000166386,True,9,-,-,-
Y2-S2-150K21,6,543,PS,intra_train,43,←,left,←,0.5687796999700367,True,9,-,-,-
Y2-S2-150K21,6,544,PS,exp,42,↓,right,→,0.8172322001773864,False,6,-1,0,0
Y2-S2-150K21,6,545,PS,exp,46,←,left,←,0.44034750014543533,True,7,-1,0,0
Y2-S2-150K21,6,546,PS,exp,32,↑,up,↑,0.5022875000722706,True,7,-1,0,0
Y2-S2-150K21,6,547,PS,exp,36,→,right,→,0.38971939985640347,True,7,1,1,1
Y2-S2-150K21,6,548,PS,exp,25,↑,up,↑,0.44738110015168786,True,6,1,0,1
Y2-S2-150K21,6,549,PS,exp,44,→,right,→,0.4546652000863105,True,6,1,0,1
Y2-S2-150K21,6,550,PS,exp,28,↓,left,←,0.4574460000731051,False,6,-1,1,2
Y2-S2-150K21,6,551,PS,exp,38,↑,right,→,0.4493287999648601,False,7,-1,0,2
Y2-S2-150K21,6,552,PS,exp,45,←,right,→,0.42840189998969436,False,8,-1,0,2
Y2-S2-150K21,6,553,PS,exp,42,↓,left,←,0.4771034999284893,False,9,-1,0,2
Y2-S2-150K21,6,554,PS,exp,29,↑,left,←,0.4123255000449717,False,10,-1,0,2
Y2-S2-150K21,6,555,PS,exp,44,→,right,→,0.43713749991729856,True,11,-1,0,2
Y2-S2-150K21,6,556,PS,exp,38,↓,right,→,0.4950862000696361,False,11,-1,0,2
Y2-S2-150K21,6,557,PS,exp,38,→,right,→,0.46156009985134006,True,12,-1,0,2
Y2-S2-150K21,6,558,PS,exp,28,↑,up,↑,0.6445107001345605,True,12,-1,0,2
Y2-S2-150K21,6,559,PS,exp,39,↓,down,↓,0.4850025000050664,True,12,1,1,3
Y2-S2-150K21,6,560,PS,exp,29,→,right,→,0.48629329982213676,True,11,1,0,3
Y2-S2-150K21,6,561,PS,exp,39,↓,down,↓,0.5662687001749873,True,11,1,0,3
Y2-S2-150K21,6,562,PS,exp,50,↑,up,↑,0.47006449988111854,True,11,1,0,3
Y2-S2-150K21,6,563,PS,exp,42,↓,down,↓,0.4541090000420809,True,10,1,0,3
Y2-S2-150K21,6,564,PS,exp,40,→,right,→,0.46126380003988743,True,10,1,0,3
Y2-S2-150K21,6,565,PS,exp,45,↓,down,↓,0.5252911001443863,True,10,1,0,3
Y2-S2-150K21,6,566,PS,exp,29,→,right,→,0.4195191999897361,True,9,1,0,3
Y2-S2-150K21,6,567,PS,exp,43,↓,down,↓,0.5081259999424219,True,9,1,0,3
Y2-S2-150K21,6,568,PS,exp,27,←,left,←,0.6111849001608789,True,9,1,0,3
Y2-S2-150K21,6,569,PS,exp,30,↓,right,→,0.46023730002343655,False,8,-1,1,4
Y2-S2-150K21,6,570,PS,exp,37,↑,down,↓,0.5942001000512391,False,9,-1,0,4
Y2-S2-150K21,6,571,PS,exp,37,↓,left,←,0.6184954999480397,False,10,-1,0,4
Y2-S2-150K21,6,572,PS,exp,31,→,left,←,0.5388448000885546,False,11,-1,0,4
Y2-S2-150K21,6,573,PS,exp,38,←,left,←,0.47097330004908144,True,12,-1,0,4
Y2-S2-150K21,6,574,PS,exp,39,↓,down,↓,0.4540631000418216,True,12,-1,0,4
Y2-S2-150K21,6,575,PS,exp,43,↑,up,↑,0.48626659996807575,True,12,1,1,5
Y2-S2-150K21,6,576,PS,exp,30,←,left,←,0.38963839993812144,True,11,1,0,5
Y2-S2-150K21,6,577,PS,exp,49,↓,down,↓,0.4919470001477748,True,11,1,0,5
Y2-S2-150K21,6,578,PS,exp,33,←,left,←,0.4427793000359088,True,11,1,0,5
Y2-S2-150K21,6,579,PS,exp,34,↑,up,↑,0.6044127999339253,True,10,1,0,5
Y2-S2-150K21,6,580,PS,exp,26,↓,down,↓,0.5157679999247193,True,10,1,0,5
Y2-S2-150K21,6,581,PS,exp,45,←,left,←,0.4213249001186341,True,10,1,0,5
Y2-S2-150K21,6,582,PS,exp,26,→,right,→,0.4287634000647813,True,9,1,0,5
Y2-S2-150K21,6,583,PS,exp,28,←,left,←,0.4124423998873681,True,9,1,0,5
Y2-S2-150K21,6,584,PS,exp,32,↑,up,↑,0.4582802001386881,True,9,1,0,5
Y2-S2-150K21,6,585,PS,exp,32,↓,right,→,0.41908670007251203,False,8,-1,1,6
Y2-S2-150K21,6,586,PS,exp,47,→,right,→,0.5015547000803053,True,9,-1,0,6
Y2-S2-150K21,6,587,PS,exp,45,↓,down,↓,0.5770557001233101,True,9,-1,0,6
Y2-S2-150K21,6,588,PS,exp,29,←,left,←,0.3678359999321401,True,9,1,1,7
Y2-S2-150K21,6,589,PS,exp,40,↓,down,↓,0.5163436001166701,True,8,1,0,7
Y2-S2-150K21,6,590,PS,exp,38,←,left,←,0.4366940001491457,True,8,1,0,7
Y2-S2-150K21,6,591,PS,exp,43,↑,up,↑,0.5545509001240134,True,8,1,0,7
Y2-S2-150K21,6,592,PS,exp,33,↓,down,↓,0.4549959998112172,True,7,1,0,7
Y2-S2-150K21,6,593,PS,exp,26,→,right,→,0.5233084999490529,True,7,1,0,7
Y2-S2-150K21,6,594,PS,exp,48,↑,left,←,0.6737544999923557,False,7,-1,1,8
Y2-S2-150K21,6,595,PS,exp,30,→,right,→,0.39644260006025434,True,8,-1,0,8
Y2-S2-150K21,6,596,PS,exp,27,←,left,←,0.42424919991753995,True,8,-1,0,8
Y2-S2-150K21,6,597,PS,exp,44,↓,down,↓,0.5201918999664485,True,8,1,1,9
Y2-S2-150K21,6,598,PS,exp,43,←,right,→,0.4985563999507576,False,7,-1,1,10
Y2-S2-150K21,6,599,PS,exp,49,↑,left,←,0.5778773000929505,False,8,-1,0,10
Y2-S2-150K21,6,600,PS,exp,33,↓,left,←,0.40741309989243746,False,9,-1,0,10
Y2-S2-150K21,6,601,PS,exp,33,↑,up,↑,0.4730932000093162,True,10,-1,0,10
Y2-S2-150K21,6,602,PS,exp,37,→,right,→,0.4970663001295179,True,10,-1,0,10
Y2-S2-150K21,6,603,PS,exp,29,↓,down,↓,0.621474799932912,True,10,1,1,11
Y2-S2-150K21,6,604,PS,exp,39,↑,up,↑,0.5944093000143766,True,9,1,0,11
Y2-S2-150K21,6,605,PS,exp,29,→,right,→,0.4045597000513226,True,9,1,0,11
Y2-S2-150K21,6,606,PS,exp,44,↓,right,→,0.43304579984396696,False,9,-1,1,12
Y2-S2-150K21,6,607,PS,exp,45,←,left,←,0.5782717999536544,True,10,-1,0,12
Y2-S2-150K21,6,608,PS,exp,38,→,right,→,0.5168910999782383,True,10,-1,0,12
Y2-S2-150K21,6,609,PS,exp,34,↑,up,↑,0.598388500045985,True,10,1,1,13
Y2-S2-150K21,6,610,PS,exp,26,→,right,→,0.43100019986741245,True,9,1,0,13
Y2-S2-150K21,6,611,PS,exp,40,↑,right,→,0.33774430002085865,False,9,-1,1,14
Y2-S2-150K21,6,612,PS,exp,34,→,right,→,0.43933609989471734,True,10,-1,0,14
Y2-S2-150K21,6,613,PS,exp,34,↑,up,↑,0.49432230019010603,True,10,-1,0,14
Y2-S2-150K21,6,614,PS,exp,26,↓,down,↓,0.600867599947378,True,10,1,1,15
Y2-S2-150K21,6,615,PS,exp,44,↑,down,↓,0.6761491999495775,False,9,-1,1,16
Y2-S2-150K21,7,616,PS,intra_train,28,→,right,→,0.4138875000644475,True,9,-,-,-
Y2-S2-150K21,7,617,PS,intra_train,36,←,left,←,0.46499989996664226,True,9,-,-,-
Y2-S2-150K21,7,618,PS,intra_train,50,→,right,→,0.40329300006851554,True,9,-,-,-
Y2-S2-150K21,7,619,PS,intra_train,48,↓,down,↓,0.5313571998849511,True,9,-,-,-
Y2-S2-150K21,7,620,PS,intra_train,44,→,right,→,0.5013129999861121,True,9,-,-,-
Y2-S2-150K21,7,621,PS,exp,43,↑,up,↑,0.46699589979834855,True,6,0,0,0
Y2-S2-150K21,7,622,PS,exp,35,→,right,→,0.4799621000420302,True,6,0,0,0
Y2-S2-150K21,7,623,PS,exp,34,↑,left,←,0.5036745998077095,False,6,-1,0,0
Y2-S2-150K21,7,624,PS,exp,39,↓,down,↓,0.5018953999970108,True,7,-1,0,0
Y2-S2-150K21,7,625,PS,exp,44,←,left,←,0.48616579989902675,True,7,-1,0,0
Y2-S2-150K21,7,626,PS,exp,40,→,right,→,0.3725124001502991,True,7,1,1,1
Y2-S2-150K21,7,627,PS,exp,48,↑,right,→,0.4445418000686914,False,6,-1,1,2
Y2-S2-150K21,7,628,PS,exp,27,↓,down,↓,0.5073871999047697,True,7,-1,0,2
Y2-S2-150K21,7,629,PS,exp,47,←,left,←,0.5413319999352098,True,7,-1,0,2
Y2-S2-150K21,7,630,PS,exp,41,↓,left,←,0.510361900087446,False,7,-1,0,2
Y2-S2-150K21,7,631,PS,exp,48,↑,up,↑,0.6600017000455409,True,8,-1,0,2
Y2-S2-150K21,7,632,PS,exp,36,↓,down,↓,0.4562315000221133,True,8,-1,0,2
Y2-S2-150K21,7,633,PS,exp,30,↑,up,↑,0.43824120005592704,True,8,1,1,3
Y2-S2-150K21,7,634,PS,exp,33,←,right,→,0.3776924000121653,False,7,-1,1,4
Y2-S2-150K21,7,635,PS,exp,33,→,right,→,0.5321659001056105,True,8,-1,0,4
Y2-S2-150K21,7,636,PS,exp,47,↑,up,↑,0.5769686999265105,True,8,-1,0,4
Y2-S2-150K21,7,637,PS,exp,29,←,left,←,0.47135180002078414,True,8,1,1,5
Y2-S2-150K21,7,638,PS,exp,44,↓,down,↓,0.5306908001657575,True,7,1,0,5
Y2-S2-150K21,7,639,PS,exp,31,→,right,→,0.5479580000974238,True,7,1,0,5
Y2-S2-150K21,7,640,PS,exp,46,←,left,←,0.5483204999472946,True,7,1,0,5
Y2-S2-150K21,7,641,PS,exp,31,↓,left,←,0.45814070012420416,False,6,-1,1,6
Y2-S2-150K21,7,642,PS,exp,44,↑,up,↑,0.47776070004329085,True,7,-1,0,6
Y2-S2-150K21,7,643,PS,exp,25,↓,down,↓,0.5824124999344349,True,7,-1,0,6
Y2-S2-150K21,7,644,PS,exp,35,←,left,←,0.42316180001944304,True,7,1,1,7
Y2-S2-150K21,7,645,PS,exp,43,↓,left,←,0.423753899987787,False,6,-1,1,8
Y2-S2-150K21,7,646,PS,exp,25,→,right,→,0.5284163001924753,True,7,-1,0,8
Y2-S2-150K21,7,647,PS,exp,26,↓,down,↓,0.5997244999743998,True,7,-1,0,8
Y2-S2-150K21,7,648,PS,exp,41,→,right,→,0.40726340003311634,True,7,1,1,9
Y2-S2-150K21,7,649,PS,exp,25,←,right,→,0.5772476000711322,False,6,-1,1,10
Y2-S2-150K21,7,650,PS,exp,31,↓,down,↓,0.5159925001207739,True,7,-1,0,10
Y2-S2-150K21,7,651,PS,exp,48,←,left,←,0.49961879989132285,True,7,-1,0,10
Y2-S2-150K21,7,652,PS,exp,47,→,right,→,0.5023488998413086,True,7,1,1,11
Y2-S2-150K21,7,653,PS,exp,33,↑,up,↑,0.43247270002029836,True,6,1,0,11
Y2-S2-150K21,7,654,PS,exp,33,→,right,→,0.4307122000027448,True,6,1,0,11
Y2-S2-150K21,7,655,PS,exp,49,←,left,←,0.4832439001183957,True,6,1,0,11
Y2-S2-150K21,7,656,PS,exp,31,→,right,→,0.46157589997164905,True,5,1,0,11
Y2-S2-150K21,7,657,PS,exp,42,←,left,←,0.5446701999753714,True,5,1,0,11
Y2-S2-150K21,7,658,PS,exp,45,→,left,←,0.457430399954319,False,5,-1,1,12
Y2-S2-150K21,7,659,PS,exp,46,←,left,←,0.6098508001305163,True,6,-1,0,12
Y2-S2-150K21,7,660,PS,exp,38,↑,left,←,0.4758542999625206,False,6,-1,0,12
Y2-S2-150K21,7,661,PS,exp,49,←,right,→,0.6379925000946969,False,7,-1,0,12
Y2-S2-150K21,7,662,PS,exp,28,↑,up,↑,0.451541599817574,True,8,-1,0,12
Y2-S2-150K21,7,663,PS,exp,35,←,left,←,0.4798950001131743,True,8,-1,0,12
Y2-S2-150K21,7,664,PS,exp,39,↓,left,←,0.38642910006456077,False,8,-1,0,12
Y2-S2-150K21,7,665,PS,exp,35,↑,up,↑,0.541017800103873,True,9,-1,0,12
Y2-S2-150K21,7,666,PS,exp,36,↓,down,↓,0.4481079999823123,True,9,-1,0,12
Y2-S2-150K21,7,667,PS,exp,41,↑,up,↑,0.5095052001997828,True,9,1,1,13
Y2-S2-150K21,7,668,PS,exp,28,→,right,→,0.47559259994886816,True,8,1,0,13
Y2-S2-150K21,7,669,PS,exp,32,←,left,←,0.36387360002845526,True,8,1,0,13
Y2-S2-150K21,7,670,PS,exp,37,↓,up,↑,0.5561589999124408,False,8,-1,1,14
Y2-S2-150K21,7,671,PS,exp,32,↑,up,↑,0.4562470999080688,True,9,-1,0,14
Y2-S2-150K21,7,672,PS,exp,31,↓,right,→,0.5076156000141054,False,9,-1,0,14
Y2-S2-150K21,7,673,PS,exp,50,↑,up,↑,0.45113259996287525,True,10,-1,0,14
Y2-S2-150K21,7,674,PS,exp,32,←,left,←,0.42535749985836446,True,10,-1,0,14
Y2-S2-150K21,7,675,PS,exp,38,↑,up,↑,0.4472914000507444,True,10,1,1,15
Y2-S2-150K21,7,676,PS,exp,40,←,right,→,0.5830475999973714,False,9,-1,1,16
Y2-S2-150K21,8,677,AS,intra_train,28,↑,right,→,0.5339643000625074,False,24,-,-,-
Y2-S2-150K21,8,678,AS,intra_train,27,↓,down,↓,0.685467200120911,True,24,-,-,-
Y2-S2-150K21,8,679,AS,intra_train,45,→,right,→,0.46705609979107976,True,24,-,-,-
Y2-S2-150K21,8,680,AS,intra_train,48,←,left,←,0.6365983998402953,True,24,-,-,-
Y2-S2-150K21,8,681,AS,intra_train,45,↑,up,↑,0.450779200065881,True,24,-,-,-
Y2-S2-150K21,8,682,AS,exp,37,↓,left,←,0.9074496000539511,False,16,-1,0,0
Y2-S2-150K21,8,683,AS,exp,33,↑,up,↑,0.6856386000290513,True,17,-1,0,0
Y2-S2-150K21,8,684,AS,exp,31,←,left,←,0.5498051000759006,True,17,-1,0,0
Y2-S2-150K21,8,685,AS,exp,43,→,right,→,0.48603549995459616,True,17,1,1,1
Y2-S2-150K21,8,686,AS,exp,44,↑,up,↑,0.6086752000264823,True,16,1,0,1
Y2-S2-150K21,8,687,AS,exp,45,→,left,←,0.5310768999624997,False,16,-1,1,2
Y2-S2-150K21,8,688,AS,exp,29,←,left,←,0.573187799891457,True,17,-1,0,2
Y2-S2-150K21,8,689,AS,exp,48,↑,up,↑,0.7245966999325901,True,17,-1,0,2
Y2-S2-150K21,8,690,AS,exp,25,←,left,←,0.4839839998167008,True,17,1,1,3
Y2-S2-150K21,8,691,AS,exp,26,↑,down,↓,0.6623921000864357,False,16,-1,1,4
Y2-S2-150K21,8,692,AS,exp,35,→,right,→,0.4710272999946028,True,17,-1,0,4
Y2-S2-150K21,8,693,AS,exp,41,↑,up,↑,0.5553968001622707,True,17,-1,0,4
Y2-S2-150K21,8,694,AS,exp,46,↓,down,↓,0.4982392000965774,True,17,1,1,5
Y2-S2-150K21,8,695,AS,exp,41,→,right,→,0.44991829991340637,True,16,1,0,5
Y2-S2-150K21,8,696,AS,exp,28,↑,up,↑,0.44690810004249215,True,16,1,0,5
Y2-S2-150K21,8,697,AS,exp,34,←,right,→,0.45242669992148876,False,16,-1,1,6
Y2-S2-150K21,8,698,AS,exp,33,→,no_key,no_letter,-1.0,False,17,-1,0,6
Y2-S2-150K21,8,699,AS,exp,49,↑,no_key,no_letter,-1.0,False,18,-1,0,6
Y2-S2-150K21,8,700,AS,exp,47,←,left,←,0.4505500001832843,True,19,-1,0,6
Y2-S2-150K21,8,701,AS,exp,46,↓,down,↓,0.6112896001432091,True,19,-1,0,6
Y2-S2-150K21,8,702,AS,exp,38,←,left,←,0.5338584999553859,True,19,1,1,7
Y2-S2-150K21,8,703,AS,exp,32,→,left,←,0.5729384999722242,False,18,-1,1,8
Y2-S2-150K21,8,704,AS,exp,40,↓,down,↓,0.5832829000428319,True,19,-1,0,8
Y2-S2-150K21,8,705,AS,exp,44,←,left,←,0.6019079999532551,True,19,-1,0,8
Y2-S2-150K21,8,706,AS,exp,33,↓,right,→,0.5409729999955744,False,19,-1,0,8
Y2-S2-150K21,8,707,AS,exp,29,←,left,←,0.6543224998749793,True,20,-1,0,8
Y2-S2-150K21,8,708,AS,exp,32,↑,up,↑,0.4344850000925362,True,20,-1,0,8
Y2-S2-150K21,8,709,AS,exp,44,→,left,←,0.5308976001106203,False,20,-1,0,8
Y2-S2-150K21,8,710,AS,exp,45,↓,down,↓,0.6431805000174791,True,21,-1,0,8
Y2-S2-150K21,8,711,AS,exp,32,←,no_key,no_letter,-1.0,False,21,-1,0,8
Y2-S2-150K21,8,712,AS,exp,49,↓,down,↓,0.8010297999717295,True,22,-1,0,8
Y2-S2-150K21,8,713,AS,exp,45,↑,up,↑,0.500571500044316,True,22,-1,0,8
Y2-S2-150K21,8,714,AS,exp,46,←,left,←,0.4668885001447052,True,22,1,1,9
Y2-S2-150K21,8,715,AS,exp,26,↓,down,↓,0.72818319988437,True,21,1,0,9
Y2-S2-150K21,8,716,AS,exp,40,←,left,←,0.5872378000058234,True,21,1,0,9
Y2-S2-150K21,8,717,AS,exp,35,↓,down,↓,0.6003596999216825,True,21,1,0,9
Y2-S2-150K21,8,718,AS,exp,34,↑,up,↑,0.6510863001458347,True,20,1,0,9
Y2-S2-150K21,8,719,AS,exp,43,↓,down,↓,0.5547627001069486,True,20,1,0,9
Y2-S2-150K21,8,720,AS,exp,27,←,left,←,0.4505665998440236,True,20,1,0,9
Y2-S2-150K21,8,721,AS,exp,38,↓,down,↓,0.603188999928534,True,19,1,0,9
Y2-S2-150K21,8,722,AS,exp,38,→,right,→,0.45076069980859756,True,19,1,0,9
Y2-S2-150K21,8,723,AS,exp,49,↑,up,↑,0.45027130004018545,True,19,1,0,9
Y2-S2-150K21,8,724,AS,exp,33,↓,down,↓,0.5074869999662042,True,18,1,0,9
Y2-S2-150K21,8,725,AS,exp,39,↑,up,↑,0.6122465999796987,True,18,1,0,9
Y2-S2-150K21,8,726,AS,exp,49,↓,down,↓,0.5675810999237001,True,18,1,0,9
Y2-S2-150K21,8,727,AS,exp,33,↑,up,↑,0.6834135001990944,True,17,1,0,9
Y2-S2-150K21,8,728,AS,exp,42,→,right,→,0.5182564000133425,True,17,1,0,9
Y2-S2-150K21,8,729,AS,exp,35,↑,up,↑,0.5781176001764834,True,17,1,0,9
Y2-S2-150K21,8,730,AS,exp,45,←,no_key,no_letter,-1.0,False,16,-1,1,10
Y2-S2-150K21,8,731,AS,exp,49,↓,down,↓,0.6321745000313967,True,17,-1,0,10
Y2-S2-150K21,8,732,AS,exp,32,←,left,←,0.5412752998527139,True,17,-1,0,10
Y2-S2-150K21,8,733,AS,exp,36,↓,down,↓,0.5113229001872241,True,17,1,1,11
Y2-S2-150K21,8,734,AS,exp,39,←,left,←,0.5761828999966383,True,16,1,0,11
Y2-S2-150K21,8,735,AS,exp,47,↓,down,↓,0.49095199978910387,True,16,1,0,11
Y2-S2-150K21,8,736,AS,exp,40,↑,down,↓,0.5676837998908013,False,16,-1,1,12
Y2-S2-150K21,8,737,AS,exp,41,↓,down,↓,0.46380480006337166,True,17,-1,0,12
Y2-S2-150K21,8,738,AS,exp,47,↑,down,↓,0.6055739000439644,False,17,-1,0,12
Y2-S2-150K21,8,739,AS,exp,25,→,right,→,0.40042710001580417,True,18,-1,0,12
Y2-S2-150K21,8,740,AS,exp,38,↓,down,↓,1.0945353999268264,True,18,-1,0,12
Y2-S2-150K21,8,741,AS,exp,40,↑,up,↑,0.6074858999345452,True,18,1,1,13
Y2-S2-150K21,8,742,AS,exp,50,←,left,←,0.6015093999449164,True,17,1,0,13
Y2-S2-150K21,8,743,AS,exp,49,→,right,→,0.4608865000773221,True,17,1,0,13
Y2-S2-150K21,8,744,AS,exp,41,←,left,←,0.6026872000657022,True,17,1,0,13
Y2-S2-150K21,8,745,AS,exp,45,↓,down,↓,0.5816134999040514,True,16,1,0,13
Y2-S2-150K21,8,746,AS,exp,39,↑,right,→,0.9595987000502646,False,16,-1,1,14
Y2-S2-150K21,8,747,AS,exp,25,↓,down,↓,0.41735689993947744,True,17,-1,0,14
Y2-S2-150K21,8,748,AS,exp,36,↑,up,↑,1.5690101999789476,True,17,-1,0,14
Y2-S2-150K21,8,749,AS,exp,29,→,right,→,0.45360870007425547,True,17,1,1,15
Y2-S2-150K21,8,750,AS,exp,33,←,left,←,0.5418239999562502,True,16,1,0,15
Y2-S2-150K21,8,751,AS,exp,29,↓,down,↓,0.44164410000666976,True,16,1,0,15
Y2-S2-150K21,8,752,AS,exp,33,←,left,←,0.4395336997695267,True,16,1,0,15
Y2-S2-150K21,8,753,AS,exp,27,→,right,→,0.48895850009284914,True,15,1,0,15
Y2-S2-150K21,8,754,AS,exp,40,↑,down,↓,0.5635371000971645,False,15,-1,1,16
