PART_ID,Block_no,Trial_no,Block_type,Trial_type,CSI,Stim_letter,Key_pressed,letter_choose,Rt,Corr,Stimulus Time,Level,Reversal,Revs_count
Y2-S2-287M23,1,1,PS,train,32,←,left,←,0.6175140999839641,True,30,-,-,-
Y2-S2-287M23,1,2,PS,train,32,↑,up,↑,1.866960899962578,True,30,-,-,-
Y2-S2-287M23,1,3,PS,train,42,←,left,←,0.685507099959068,True,30,-,-,-
Y2-S2-287M23,1,4,PS,train,49,↓,down,↓,0.6681260999757797,True,30,-,-,-
Y2-S2-287M23,1,5,PS,train,49,→,right,→,0.5001907999976538,True,30,-,-,-
Y2-S2-287M23,1,6,PS,train,45,↓,down,↓,0.777838799986057,True,30,-,-,-
Y2-S2-287M23,1,7,PS,train,34,←,left,←,0.6339977000025101,True,30,-,-,-
Y2-S2-287M23,1,8,PS,train,40,↓,down,↓,0.689755100000184,True,30,-,-,-
Y2-S2-287M23,1,9,PS,train,33,→,right,→,0.5839085000334308,True,30,-,-,-
Y2-S2-287M23,1,10,PS,train,46,↓,down,↓,0.5671913999831304,True,30,-,-,-
Y2-S2-287M23,2,11,AS,train,27,→,right,→,0.384351099957712,True,45,-,-,-
Y2-S2-287M23,2,12,AS,train,30,↓,down,↓,0.467843999969773,True,45,-,-,-
Y2-S2-287M23,2,13,AS,train,48,↑,up,↑,0.7838363999617286,True,45,-,-,-
Y2-S2-287M23,2,14,AS,train,38,←,left,←,1.1444836999871768,True,45,-,-,-
Y2-S2-287M23,2,15,AS,train,46,↑,up,↑,1.4679382999893278,True,45,-,-,-
Y2-S2-287M23,2,16,AS,train,27,←,left,←,1.1700384000432678,True,45,-,-,-
Y2-S2-287M23,2,17,AS,train,35,→,right,→,0.7177068999735638,True,45,-,-,-
Y2-S2-287M23,2,18,AS,train,45,←,left,←,0.6843043999979272,True,45,-,-,-
Y2-S2-287M23,2,19,AS,train,37,↑,up,↑,0.5510659000137821,True,45,-,-,-
Y2-S2-287M23,2,20,AS,train,38,→,right,→,0.7010703000123613,True,45,-,-,-
Y2-S2-287M23,-,21,PS,adaptive,36,←,left,←,0.5608270000084303,True,10,0,0,0
Y2-S2-287M23,-,22,PS,adaptive,33,→,right,→,0.48881020001135767,True,10,0,0,0
Y2-S2-287M23,-,23,PS,adaptive,29,↓,down,↓,0.6879972000024281,True,10,1,0,0
Y2-S2-287M23,-,24,PS,adaptive,50,→,right,→,0.7015306000248529,True,9,1,0,0
Y2-S2-287M23,-,25,PS,adaptive,30,←,left,←,0.5439015000010841,True,9,1,0,0
Y2-S2-287M23,-,26,PS,adaptive,38,→,left,←,0.928584499983117,False,9,-1,1,1
Y2-S2-287M23,-,27,PS,adaptive,25,←,right,→,0.6287944000214338,False,10,-1,0,1
Y2-S2-287M23,-,28,PS,adaptive,43,→,right,→,0.7044029000098817,True,11,-1,0,1
Y2-S2-287M23,-,29,PS,adaptive,41,↓,down,↓,0.6986076000030152,True,11,-1,0,1
Y2-S2-287M23,-,30,PS,adaptive,27,→,right,→,0.6569633000181057,True,11,1,1,2
Y2-S2-287M23,-,31,PS,adaptive,36,↓,right,→,0.724751700006891,False,10,-1,1,3
Y2-S2-287M23,-,32,PS,adaptive,38,↑,up,↑,0.8153040999895893,True,11,-1,0,3
Y2-S2-287M23,-,33,PS,adaptive,46,←,right,→,0.5997058999491856,False,11,-1,0,3
Y2-S2-287M23,-,34,PS,adaptive,38,→,right,→,0.5459808000014164,True,12,-1,0,3
Y2-S2-287M23,-,35,PS,adaptive,46,↑,down,↓,0.8105873999884352,False,12,-1,0,3
Y2-S2-287M23,-,36,PS,adaptive,31,→,right,→,0.46220559999346733,True,13,-1,0,3
Y2-S2-287M23,-,37,PS,adaptive,40,↓,down,↓,0.5007546999840997,True,13,-1,0,3
Y2-S2-287M23,-,38,PS,adaptive,40,→,right,→,0.4594228999922052,True,13,1,1,4
Y2-S2-287M23,-,39,AS,adaptive,31,↓,no_key,no_letter,-1.0,False,20,-1,0,0
Y2-S2-287M23,-,40,AS,adaptive,29,→,right,→,0.6109626999823377,True,21,-1,0,0
Y2-S2-287M23,-,41,AS,adaptive,47,←,left,←,0.5804492000024766,True,21,-1,0,0
Y2-S2-287M23,-,42,AS,adaptive,25,↓,down,↓,0.6563479999895208,True,21,1,1,1
Y2-S2-287M23,-,43,AS,adaptive,41,←,left,←,1.4478692999691702,True,20,1,0,1
Y2-S2-287M23,-,44,AS,adaptive,25,→,right,→,0.6400215000030585,True,20,1,0,1
Y2-S2-287M23,-,45,AS,adaptive,33,←,no_key,no_letter,-1.0,False,20,-1,1,2
Y2-S2-287M23,-,46,AS,adaptive,45,→,right,→,0.6753353000385687,True,21,-1,0,2
Y2-S2-287M23,-,47,AS,adaptive,45,↑,up,↑,0.6821117000072263,True,21,-1,0,2
Y2-S2-287M23,-,48,AS,adaptive,44,↓,down,↓,0.5722593999817036,True,21,1,1,3
Y2-S2-287M23,-,49,AS,adaptive,47,←,left,←,0.600417000008747,True,20,1,0,3
Y2-S2-287M23,-,50,AS,adaptive,33,↑,up,↑,0.8140894999960437,True,20,1,0,3
Y2-S2-287M23,-,51,AS,adaptive,49,←,left,←,0.5648448999854736,True,20,1,0,3
Y2-S2-287M23,-,52,AS,adaptive,40,↓,down,↓,0.9656163000036031,True,19,1,0,3
Y2-S2-287M23,-,53,AS,adaptive,26,↑,up,↑,1.075043499993626,True,19,1,0,3
Y2-S2-287M23,-,54,AS,adaptive,26,←,left,←,0.6540838000364602,True,19,1,0,3
Y2-S2-287M23,-,55,AS,adaptive,33,→,right,→,1.094463800021913,True,18,1,0,3
Y2-S2-287M23,-,56,AS,adaptive,43,↓,down,↓,0.6908953000092879,True,18,1,0,3
Y2-S2-287M23,-,57,AS,adaptive,50,↑,up,↑,0.6612227000296116,True,18,1,0,3
Y2-S2-287M23,-,58,AS,adaptive,35,→,right,→,0.585743400035426,True,17,1,0,3
Y2-S2-287M23,-,59,AS,adaptive,29,↑,right,→,1.08437400002731,False,17,-1,1,4
Y2-S2-287M23,1,60,AS,intra_train,31,←,left,←,0.5676868999726139,True,27,-,-,-
Y2-S2-287M23,1,61,AS,intra_train,49,↑,up,↑,1.3325988000142388,True,27,-,-,-
Y2-S2-287M23,1,62,AS,intra_train,29,→,right,→,0.6291463999659754,True,27,-,-,-
Y2-S2-287M23,1,63,AS,intra_train,48,↓,down,↓,1.345257499953732,True,27,-,-,-
Y2-S2-287M23,1,64,AS,intra_train,36,←,left,←,0.6770411999896169,True,27,-,-,-
Y2-S2-287M23,1,65,AS,exp,32,↑,up,↑,0.6519403000129387,True,18,0,0,0
Y2-S2-287M23,1,66,AS,exp,49,→,right,→,0.6139315000036731,True,18,0,0,0
Y2-S2-287M23,1,67,AS,exp,34,↓,down,↓,0.6333691999898292,True,18,1,0,0
Y2-S2-287M23,1,68,AS,exp,29,→,right,→,0.5616260999813676,True,17,1,0,0
Y2-S2-287M23,1,69,AS,exp,46,↓,down,↓,0.5011584999738261,True,17,1,0,0
Y2-S2-287M23,1,70,AS,exp,35,→,right,→,0.5987544999807142,True,17,1,0,0
Y2-S2-287M23,1,71,AS,exp,50,↓,down,↓,0.5929000999894924,True,16,1,0,0
Y2-S2-287M23,1,72,AS,exp,28,→,right,→,0.5860642999759875,True,16,1,0,0
Y2-S2-287M23,1,73,AS,exp,42,↑,up,↑,0.6745061000110582,True,16,1,0,0
Y2-S2-287M23,1,74,AS,exp,47,↓,down,↓,0.6593835999956354,True,15,1,0,0
Y2-S2-287M23,1,75,AS,exp,28,→,right,→,0.9164021000033244,True,15,1,0,0
Y2-S2-287M23,1,76,AS,exp,30,←,left,←,0.9373734000255354,True,15,1,0,0
Y2-S2-287M23,1,77,AS,exp,48,→,right,→,0.6326408000313677,True,14,1,0,0
Y2-S2-287M23,1,78,AS,exp,39,↓,down,↓,0.6521383000072092,True,14,1,0,0
Y2-S2-287M23,1,79,AS,exp,33,→,right,→,0.6922865000087768,True,14,1,0,0
Y2-S2-287M23,1,80,AS,exp,44,↑,up,↑,0.7541598999523558,True,13,1,0,0
Y2-S2-287M23,1,81,AS,exp,35,↓,down,↓,0.5723527999944054,True,13,1,0,0
Y2-S2-287M23,1,82,AS,exp,28,←,right,→,0.6437845000182278,False,13,-1,1,1
Y2-S2-287M23,1,83,AS,exp,32,↑,up,↑,0.6675507000181824,True,14,-1,0,1
Y2-S2-287M23,1,84,AS,exp,29,→,right,→,0.5915921000414528,True,14,-1,0,1
Y2-S2-287M23,1,85,AS,exp,34,↑,up,↑,0.6546098999679089,True,14,1,1,2
Y2-S2-287M23,1,86,AS,exp,45,←,left,←,0.6089595999801531,True,13,1,0,2
Y2-S2-287M23,1,87,AS,exp,29,↓,down,↓,1.4039426000090316,True,13,1,0,2
Y2-S2-287M23,1,88,AS,exp,45,→,right,→,0.6103515999857336,True,13,1,0,2
Y2-S2-287M23,1,89,AS,exp,29,←,left,←,0.7493204000056721,True,12,1,0,2
Y2-S2-287M23,1,90,AS,exp,34,↓,up,↑,0.6995715000084601,False,12,-1,1,3
Y2-S2-287M23,1,91,AS,exp,50,→,right,→,0.5950503000058234,True,13,-1,0,3
Y2-S2-287M23,1,92,AS,exp,35,↓,down,↓,0.7199928000336513,True,13,-1,0,3
Y2-S2-287M23,1,93,AS,exp,29,↑,up,↑,0.8642210999969393,True,13,1,1,4
Y2-S2-287M23,1,94,AS,exp,35,→,right,→,0.5439310999936424,True,12,1,0,4
Y2-S2-287M23,1,95,AS,exp,39,↓,down,↓,1.434175000002142,True,12,1,0,4
Y2-S2-287M23,1,96,AS,exp,30,→,right,→,1.2872751000104472,True,12,1,0,4
Y2-S2-287M23,1,97,AS,exp,32,↓,up,↑,1.0295443999930285,False,11,-1,1,5
Y2-S2-287M23,1,98,AS,exp,48,↑,up,↑,0.8303928999812342,True,12,-1,0,5
Y2-S2-287M23,1,99,AS,exp,35,←,left,←,0.6431610000436194,True,12,-1,0,5
Y2-S2-287M23,1,100,AS,exp,44,↓,down,↓,0.658030700054951,True,12,1,1,6
Y2-S2-287M23,1,101,AS,exp,49,→,right,→,0.6275282999849878,True,11,1,0,6
Y2-S2-287M23,1,102,AS,exp,49,←,left,←,1.244708799989894,True,11,1,0,6
Y2-S2-287M23,1,103,AS,exp,43,↓,up,↑,0.6858329999959096,False,11,-1,1,7
Y2-S2-287M23,1,104,AS,exp,44,↑,up,↑,0.6057920000166632,True,12,-1,0,7
Y2-S2-287M23,1,105,AS,exp,26,→,left,←,0.5834832999971695,False,12,-1,0,7
Y2-S2-287M23,1,106,AS,exp,30,↓,down,↓,0.845937000005506,True,13,-1,0,7
Y2-S2-287M23,1,107,AS,exp,42,←,right,→,0.6903683999553323,False,13,-1,0,7
Y2-S2-287M23,1,108,AS,exp,32,→,right,→,0.7258142999489792,True,14,-1,0,7
Y2-S2-287M23,1,109,AS,exp,44,↓,up,↑,1.483030500006862,False,14,-1,0,7
Y2-S2-287M23,1,110,AS,exp,31,→,right,→,0.6782761999638751,True,15,-1,0,7
Y2-S2-287M23,1,111,AS,exp,48,←,left,←,0.6466572999488562,True,15,-1,0,7
Y2-S2-287M23,1,112,AS,exp,48,→,right,→,0.7152467999840155,True,15,1,1,8
Y2-S2-287M23,1,113,AS,exp,38,↓,down,↓,0.913383100007195,True,14,1,0,8
Y2-S2-287M23,1,114,AS,exp,37,↑,down,↓,1.150802299962379,False,14,-1,1,9
Y2-S2-287M23,1,115,AS,exp,41,←,right,→,0.6724900999688543,False,15,-1,0,9
Y2-S2-287M23,1,116,AS,exp,31,↑,up,↑,0.7070078999968246,True,16,-1,0,9
Y2-S2-287M23,1,117,AS,exp,50,←,left,←,0.638209700002335,True,16,-1,0,9
Y2-S2-287M23,1,118,AS,exp,50,↓,down,↓,0.9715632000006735,True,16,1,1,10
Y2-S2-287M23,1,119,AS,exp,25,←,left,←,0.6028292999835685,True,15,1,0,10
Y2-S2-287M23,1,120,AS,exp,41,→,right,→,0.5951365000219084,True,15,1,0,10
Y2-S2-287M23,1,121,AS,exp,44,←,left,←,0.5967852000030689,True,15,1,0,10
Y2-S2-287M23,1,122,AS,exp,45,↑,up,↑,0.736605399986729,True,14,1,0,10
Y2-S2-287M23,1,123,AS,exp,46,↓,up,↑,0.7692670000251383,False,14,-1,1,11
Y2-S2-287M23,1,124,AS,exp,44,→,right,→,0.5357316000154242,True,15,-1,0,11
Y2-S2-287M23,1,125,AS,exp,41,↓,up,↑,0.6688290000311099,False,15,-1,0,11
Y2-S2-287M23,1,126,AS,exp,27,←,left,←,0.6525289000128396,True,16,-1,0,11
Y2-S2-287M23,1,127,AS,exp,39,↓,down,↓,0.6644307000096887,True,16,-1,0,11
Y2-S2-287M23,1,128,AS,exp,26,←,right,→,0.5487066999776289,False,16,-1,0,11
Y2-S2-287M23,1,129,AS,exp,30,→,right,→,0.6017225999967195,True,17,-1,0,11
Y2-S2-287M23,1,130,AS,exp,25,↑,up,↑,0.6330757000250742,True,17,-1,0,11
Y2-S2-287M23,1,131,AS,exp,45,↓,up,↑,0.5607484999927692,False,17,-1,0,11
Y2-S2-287M23,1,132,AS,exp,39,↑,up,↑,0.6006134999915957,True,18,-1,0,11
Y2-S2-287M23,1,133,AS,exp,36,↓,down,↓,0.9606963000260293,True,18,-1,0,11
Y2-S2-287M23,1,134,AS,exp,47,→,right,→,0.6314848000183702,True,18,1,1,12
Y2-S2-287M23,1,135,AS,exp,49,←,left,←,0.574291099968832,True,17,1,0,12
Y2-S2-287M23,1,136,AS,exp,50,↑,up,↑,0.7860307000228204,True,17,1,0,12
Y2-S2-287M23,1,137,AS,exp,30,→,right,→,0.6283898000256158,True,17,1,0,12
Y2-S2-287M23,1,138,AS,exp,29,←,right,→,0.70838210004149,False,16,-1,1,13
Y2-S2-287M23,1,139,AS,exp,42,→,right,→,0.5808541000005789,True,17,-1,0,13
Y2-S2-287M23,1,140,AS,exp,31,↓,up,↑,0.6729870000272058,False,17,-1,0,13
Y2-S2-287M23,1,141,AS,exp,33,→,right,→,0.6964707000297494,True,18,-1,0,13
Y2-S2-287M23,1,142,AS,exp,39,←,left,←,0.7248664999497123,True,18,-1,0,13
Y2-S2-287M23,1,143,AS,exp,44,↓,up,↑,0.9249570000101812,False,18,-1,0,13
Y2-S2-287M23,1,144,AS,exp,49,↑,up,↑,0.5120249000028707,True,19,-1,0,13
Y2-S2-287M23,1,145,AS,exp,35,→,right,→,0.596512200019788,True,19,-1,0,13
Y2-S2-287M23,1,146,AS,exp,44,←,right,→,0.6320555999991484,False,19,-1,0,13
Y2-S2-287M23,1,147,AS,exp,46,→,left,←,0.7173758000135422,False,20,-1,0,13
Y2-S2-287M23,1,148,AS,exp,46,←,right,→,0.7299057000200264,False,21,-1,0,13
Y2-S2-287M23,1,149,AS,exp,43,↓,up,↑,0.5680117000010796,False,22,-1,0,13
Y2-S2-287M23,1,150,AS,exp,45,↑,up,↑,0.5870405999594368,True,23,-1,0,13
Y2-S2-287M23,1,151,AS,exp,30,↓,up,↑,0.5758647000184283,False,23,-1,0,13
Y2-S2-287M23,1,152,AS,exp,30,←,left,←,0.6432268000207841,True,24,-1,0,13
Y2-S2-287M23,1,153,AS,exp,33,→,right,→,0.6201141999918036,True,24,-1,0,13
Y2-S2-287M23,1,154,AS,exp,47,←,left,←,0.6086297999718226,True,24,1,1,14
Y2-S2-287M23,1,155,AS,exp,43,↓,down,↓,0.740407100005541,True,23,1,0,14
Y2-S2-287M23,1,156,AS,exp,42,←,no_key,no_letter,-1.0,False,23,-1,1,15
Y2-S2-287M23,1,157,AS,exp,41,↓,down,↓,0.5338961000088602,True,24,-1,0,15
Y2-S2-287M23,1,158,AS,exp,26,→,left,←,0.6547918999567628,False,24,-1,0,15
Y2-S2-287M23,1,159,AS,exp,34,←,left,←,0.6795163999777287,True,25,-1,0,15
Y2-S2-287M23,1,160,AS,exp,40,↓,down,↓,0.5339672999689355,True,25,-1,0,15
Y2-S2-287M23,1,161,AS,exp,27,→,right,→,0.7273747000144795,True,25,1,1,16
Y2-S2-287M23,2,162,PS,intra_train,31,←,left,←,0.5566908000037074,True,18,-,-,-
Y2-S2-287M23,2,163,PS,intra_train,29,↓,down,↓,0.748397599963937,True,18,-,-,-
Y2-S2-287M23,2,164,PS,intra_train,26,→,right,→,0.5412001999793574,True,18,-,-,-
Y2-S2-287M23,2,165,PS,intra_train,38,↓,left,←,0.5637740000383928,False,18,-,-,-
Y2-S2-287M23,2,166,PS,intra_train,31,↑,up,↑,0.6555471000028774,True,18,-,-,-
Y2-S2-287M23,2,167,PS,exp,26,↓,up,↑,0.48918370000319555,False,12,-1,0,0
Y2-S2-287M23,2,168,PS,exp,34,→,left,←,0.5401736000203528,False,13,-1,0,0
Y2-S2-287M23,2,169,PS,exp,37,←,left,←,0.6521332999691367,True,14,-1,0,0
Y2-S2-287M23,2,170,PS,exp,34,↑,up,↑,0.5966111999587156,True,14,-1,0,0
Y2-S2-287M23,2,171,PS,exp,27,↓,down,↓,0.5911038999911398,True,14,1,1,1
Y2-S2-287M23,2,172,PS,exp,35,↑,up,↑,0.782386300037615,True,13,1,0,1
Y2-S2-287M23,2,173,PS,exp,44,↓,down,↓,0.637831499974709,True,13,1,0,1
Y2-S2-287M23,2,174,PS,exp,40,→,right,→,0.6300281999865547,True,13,1,0,1
Y2-S2-287M23,2,175,PS,exp,29,↓,down,↓,0.46674639999400824,True,12,1,0,1
Y2-S2-287M23,2,176,PS,exp,41,↑,left,←,0.9138454999774694,False,12,-1,1,2
Y2-S2-287M23,2,177,PS,exp,45,→,right,→,0.49593389994697645,True,13,-1,0,2
Y2-S2-287M23,2,178,PS,exp,34,←,left,←,1.358476800029166,True,13,-1,0,2
Y2-S2-287M23,2,179,PS,exp,46,↑,left,←,0.8407809999771416,False,13,-1,0,2
Y2-S2-287M23,2,180,PS,exp,44,↓,no_key,no_letter,-1.0,False,14,-1,0,2
Y2-S2-287M23,2,181,PS,exp,41,←,left,←,0.647656699991785,True,15,-1,0,2
Y2-S2-287M23,2,182,PS,exp,48,↑,up,↑,0.6863069999963045,True,15,-1,0,2
Y2-S2-287M23,2,183,PS,exp,46,→,right,→,0.7565568999852985,True,15,1,1,3
Y2-S2-287M23,2,184,PS,exp,36,↓,down,↓,0.728724799992051,True,14,1,0,3
Y2-S2-287M23,2,185,PS,exp,34,←,right,→,0.6247921999893151,False,14,-1,1,4
Y2-S2-287M23,2,186,PS,exp,40,↓,down,↓,0.6083720999886282,True,15,-1,0,4
Y2-S2-287M23,2,187,PS,exp,28,←,left,←,0.4510600999929011,True,15,-1,0,4
Y2-S2-287M23,2,188,PS,exp,39,↑,up,↑,0.6065345999668352,True,15,1,1,5
Y2-S2-287M23,2,189,PS,exp,46,↓,down,↓,0.6777100000181235,True,14,1,0,5
Y2-S2-287M23,2,190,PS,exp,46,→,left,←,0.5867327000014484,False,14,-1,1,6
Y2-S2-287M23,2,191,PS,exp,29,←,left,←,0.5619131999555975,True,15,-1,0,6
Y2-S2-287M23,2,192,PS,exp,46,↑,up,↑,0.7640745000098832,True,15,-1,0,6
Y2-S2-287M23,2,193,PS,exp,26,↓,down,↓,0.547935199982021,True,15,1,1,7
Y2-S2-287M23,2,194,PS,exp,29,↑,left,←,0.8695032999967225,False,14,-1,1,8
Y2-S2-287M23,2,195,PS,exp,49,↓,left,←,1.3239760999567807,False,15,-1,0,8
Y2-S2-287M23,2,196,PS,exp,30,←,left,←,0.722591099969577,True,16,-1,0,8
Y2-S2-287M23,2,197,PS,exp,34,↓,down,↓,0.7827309000422247,True,16,-1,0,8
Y2-S2-287M23,2,198,PS,exp,30,→,right,→,0.6870045000105165,True,16,1,1,9
Y2-S2-287M23,2,199,PS,exp,50,↑,up,↑,0.5993940000189468,True,15,1,0,9
Y2-S2-287M23,2,200,PS,exp,27,→,right,→,0.532966100028716,True,15,1,0,9
Y2-S2-287M23,2,201,PS,exp,44,↑,up,↑,0.5618894000072032,True,15,1,0,9
Y2-S2-287M23,2,202,PS,exp,50,←,left,←,0.6597807999933138,True,14,1,0,9
Y2-S2-287M23,2,203,PS,exp,43,↑,up,↑,0.48081829998409376,True,14,1,0,9
Y2-S2-287M23,2,204,PS,exp,46,↓,up,↑,0.7905846000066958,False,14,-1,1,10
Y2-S2-287M23,2,205,PS,exp,46,←,left,←,0.6081392000196502,True,15,-1,0,10
Y2-S2-287M23,2,206,PS,exp,40,↑,right,→,0.7327392000006512,False,15,-1,0,10
Y2-S2-287M23,2,207,PS,exp,29,→,right,→,0.6268326000426896,True,16,-1,0,10
Y2-S2-287M23,2,208,PS,exp,30,↑,up,↑,0.5792592000216246,True,16,-1,0,10
Y2-S2-287M23,2,209,PS,exp,41,→,right,→,0.5849920999608003,True,16,1,1,11
Y2-S2-287M23,2,210,PS,exp,33,↑,up,↑,0.522735099948477,True,15,1,0,11
Y2-S2-287M23,2,211,PS,exp,38,→,right,→,0.545202299952507,True,15,1,0,11
Y2-S2-287M23,2,212,PS,exp,28,←,left,←,0.7016666000126861,True,15,1,0,11
Y2-S2-287M23,2,213,PS,exp,34,↓,down,↓,0.7352603999897838,True,14,1,0,11
Y2-S2-287M23,2,214,PS,exp,49,↑,up,↑,0.6787057999754325,True,14,1,0,11
Y2-S2-287M23,2,215,PS,exp,40,→,right,→,0.5718918000347912,True,14,1,0,11
Y2-S2-287M23,2,216,PS,exp,42,↑,up,↑,0.6986206999863498,True,13,1,0,11
Y2-S2-287M23,2,217,PS,exp,40,→,right,→,0.5718403999926522,True,13,1,0,11
Y2-S2-287M23,2,218,PS,exp,25,↑,up,↑,0.5450538999866694,True,13,1,0,11
Y2-S2-287M23,2,219,PS,exp,49,→,right,→,0.6332593999686651,True,12,1,0,11
Y2-S2-287M23,2,220,PS,exp,29,↑,left,←,0.540591900004074,False,12,-1,1,12
Y2-S2-287M23,2,221,PS,exp,26,←,left,←,0.5724710000213236,True,13,-1,0,12
Y2-S2-287M23,2,222,PS,exp,41,→,right,→,0.545095500012394,True,13,-1,0,12
Y2-S2-287M23,2,223,PS,exp,27,↓,down,↓,0.677463399944827,True,13,1,1,13
Y2-S2-287M23,2,224,PS,exp,39,→,right,→,0.4615562000544742,True,12,1,0,13
Y2-S2-287M23,2,225,PS,exp,33,↓,left,←,0.674414400011301,False,12,-1,1,14
Y2-S2-287M23,2,226,PS,exp,48,↑,up,↑,0.729038399993442,True,13,-1,0,14
Y2-S2-287M23,2,227,PS,exp,28,←,left,←,0.6557808000361547,True,13,-1,0,14
Y2-S2-287M23,2,228,PS,exp,41,↑,up,↑,0.6599640999920666,True,13,1,1,15
Y2-S2-287M23,2,229,PS,exp,47,→,right,→,0.5708671000320464,True,12,1,0,15
Y2-S2-287M23,2,230,PS,exp,35,←,left,←,0.7289149999851361,True,12,1,0,15
Y2-S2-287M23,2,231,PS,exp,29,↑,up,↑,0.6652219999814406,True,12,1,0,15
Y2-S2-287M23,2,232,PS,exp,26,↓,down,↓,0.5735503000323661,True,11,1,0,15
Y2-S2-287M23,2,233,PS,exp,46,↑,up,↑,0.6890774000203237,True,11,1,0,15
Y2-S2-287M23,2,234,PS,exp,32,←,left,←,0.5939446000265889,True,11,1,0,15
Y2-S2-287M23,2,235,PS,exp,44,↓,down,↓,0.6097785999882035,True,10,1,0,15
Y2-S2-287M23,2,236,PS,exp,29,→,right,→,0.47393079998437315,True,10,1,0,15
Y2-S2-287M23,2,237,PS,exp,32,←,left,←,0.5619069999665953,True,10,1,0,15
Y2-S2-287M23,2,238,PS,exp,34,→,right,→,0.6011107999947853,True,9,1,0,15
Y2-S2-287M23,2,239,PS,exp,42,↓,down,↓,0.5661976000410505,True,9,1,0,15
Y2-S2-287M23,2,240,PS,exp,34,↑,left,←,0.5896716000279412,False,9,-1,1,16
Y2-S2-287M23,3,241,PS,intra_train,39,↓,right,→,0.5498687999788672,False,18,-,-,-
Y2-S2-287M23,3,242,PS,intra_train,30,→,right,→,0.5030035999952815,True,18,-,-,-
Y2-S2-287M23,3,243,PS,intra_train,50,↓,down,↓,0.7214650000096299,True,18,-,-,-
Y2-S2-287M23,3,244,PS,intra_train,31,↑,up,↑,0.9063852000399493,True,18,-,-,-
Y2-S2-287M23,3,245,PS,intra_train,32,→,right,→,0.6208024999941699,True,18,-,-,-
Y2-S2-287M23,3,246,PS,exp,37,↓,down,↓,0.6527900999644771,True,12,0,0,0
Y2-S2-287M23,3,247,PS,exp,49,←,left,←,0.47933939995709807,True,12,0,0,0
Y2-S2-287M23,3,248,PS,exp,32,↑,up,↑,0.6190958999795839,True,12,1,0,0
Y2-S2-287M23,3,249,PS,exp,32,→,right,→,0.45666299998993054,True,11,1,0,0
Y2-S2-287M23,3,250,PS,exp,37,↑,right,→,0.8975739000015892,False,11,-1,1,1
Y2-S2-287M23,3,251,PS,exp,29,↓,down,↓,0.6896219999762252,True,12,-1,0,1
Y2-S2-287M23,3,252,PS,exp,26,←,left,←,0.49103849998209625,True,12,-1,0,1
Y2-S2-287M23,3,253,PS,exp,40,→,right,→,0.6385664999834262,True,12,1,1,2
Y2-S2-287M23,3,254,PS,exp,43,↓,down,↓,0.5396681999554858,True,11,1,0,2
Y2-S2-287M23,3,255,PS,exp,50,↑,down,↓,0.9138269999530166,False,11,-1,1,3
Y2-S2-287M23,3,256,PS,exp,46,↓,down,↓,0.5454075000016019,True,12,-1,0,3
Y2-S2-287M23,3,257,PS,exp,42,→,right,→,0.5408474000287242,True,12,-1,0,3
Y2-S2-287M23,3,258,PS,exp,48,↑,up,↑,0.6785896999645047,True,12,1,1,4
Y2-S2-287M23,3,259,PS,exp,46,↓,down,↓,0.5111755000543781,True,11,1,0,4
Y2-S2-287M23,3,260,PS,exp,29,→,right,→,0.524547100008931,True,11,1,0,4
Y2-S2-287M23,3,261,PS,exp,45,←,left,←,0.556305899983272,True,11,1,0,4
Y2-S2-287M23,3,262,PS,exp,44,↑,up,↑,0.573241500009317,True,10,1,0,4
Y2-S2-287M23,3,263,PS,exp,44,→,right,→,0.6328534000203945,True,10,1,0,4
Y2-S2-287M23,3,264,PS,exp,26,←,right,→,0.6637213000212796,False,10,-1,1,5
Y2-S2-287M23,3,265,PS,exp,28,↑,up,↑,0.7468196999980137,True,11,-1,0,5
Y2-S2-287M23,3,266,PS,exp,50,←,left,←,0.5763596000033431,True,11,-1,0,5
Y2-S2-287M23,3,267,PS,exp,50,→,right,→,0.5547211000230163,True,11,1,1,6
Y2-S2-287M23,3,268,PS,exp,46,↑,up,↑,0.647889900021255,True,10,1,0,6
Y2-S2-287M23,3,269,PS,exp,27,↓,left,←,0.7089820000110194,False,10,-1,1,7
Y2-S2-287M23,3,270,PS,exp,45,←,left,←,0.5055495999986306,True,11,-1,0,7
Y2-S2-287M23,3,271,PS,exp,37,↓,down,↓,0.5519798999885097,True,11,-1,0,7
Y2-S2-287M23,3,272,PS,exp,46,←,left,←,0.6806268999935128,True,11,1,1,8
Y2-S2-287M23,3,273,PS,exp,45,→,right,→,0.5931117999716662,True,10,1,0,8
Y2-S2-287M23,3,274,PS,exp,32,↑,left,←,0.5694330999976955,False,10,-1,1,9
Y2-S2-287M23,3,275,PS,exp,38,↓,down,↓,0.6301842999528162,True,11,-1,0,9
Y2-S2-287M23,3,276,PS,exp,35,←,left,←,0.5345724000362679,True,11,-1,0,9
Y2-S2-287M23,3,277,PS,exp,37,↓,down,↓,0.5887323000351898,True,11,1,1,10
Y2-S2-287M23,3,278,PS,exp,29,→,right,→,0.4723715999862179,True,10,1,0,10
Y2-S2-287M23,3,279,PS,exp,28,←,left,←,0.518823100021109,True,10,1,0,10
Y2-S2-287M23,3,280,PS,exp,38,↓,down,↓,0.4919109000475146,True,10,1,0,10
Y2-S2-287M23,3,281,PS,exp,48,←,right,→,0.5208656000322662,False,9,-1,1,11
Y2-S2-287M23,3,282,PS,exp,50,↑,left,←,0.7775280000059865,False,10,-1,0,11
Y2-S2-287M23,3,283,PS,exp,28,←,left,←,0.43753060000017285,True,11,-1,0,11
Y2-S2-287M23,3,284,PS,exp,26,↑,no_key,no_letter,-1.0,False,11,-1,0,11
Y2-S2-287M23,3,285,PS,exp,43,→,right,→,0.7059719999670051,True,12,-1,0,11
Y2-S2-287M23,3,286,PS,exp,34,←,left,←,0.4886784999980591,True,12,-1,0,11
Y2-S2-287M23,3,287,PS,exp,32,→,right,→,0.47522160003427416,True,12,1,1,12
Y2-S2-287M23,3,288,PS,exp,45,↓,down,↓,0.6111938999965787,True,11,1,0,12
Y2-S2-287M23,3,289,PS,exp,43,↑,right,→,0.5855441000312567,False,11,-1,1,13
Y2-S2-287M23,3,290,PS,exp,45,↓,down,↓,0.5551503999740817,True,12,-1,0,13
Y2-S2-287M23,3,291,PS,exp,35,→,right,→,0.6258335000020452,True,12,-1,0,13
Y2-S2-287M23,3,292,PS,exp,25,←,left,←,0.9439188000396825,True,12,1,1,14
Y2-S2-287M23,3,293,PS,exp,44,↓,down,↓,0.5924695999710821,True,11,1,0,14
Y2-S2-287M23,3,294,PS,exp,25,←,right,→,0.48398509999969974,False,11,-1,1,15
Y2-S2-287M23,3,295,PS,exp,43,↑,up,↑,0.7871778999688104,True,12,-1,0,15
Y2-S2-287M23,3,296,PS,exp,30,↓,down,↓,0.5888735000044107,True,12,-1,0,15
Y2-S2-287M23,3,297,PS,exp,32,↑,up,↑,0.6579114000196569,True,12,1,1,16
Y2-S2-287M23,4,298,AS,intra_train,38,→,right,→,0.6786798000102863,True,27,-,-,-
Y2-S2-287M23,4,299,AS,intra_train,46,↓,down,↓,0.7610300999949686,True,27,-,-,-
Y2-S2-287M23,4,300,AS,intra_train,37,→,right,→,0.46726699999999255,True,27,-,-,-
Y2-S2-287M23,4,301,AS,intra_train,30,↑,up,↑,0.7319500999874435,True,27,-,-,-
Y2-S2-287M23,4,302,AS,intra_train,27,→,right,→,0.5171105000190437,True,27,-,-,-
Y2-S2-287M23,4,303,AS,exp,41,←,left,←,0.5446439000079408,True,18,0,0,0
Y2-S2-287M23,4,304,AS,exp,36,↑,up,↑,0.694419100007508,True,18,0,0,0
Y2-S2-287M23,4,305,AS,exp,45,→,right,→,0.5841903000255115,True,18,1,0,0
Y2-S2-287M23,4,306,AS,exp,42,↓,down,↓,0.6908539999858476,True,17,1,0,0
Y2-S2-287M23,4,307,AS,exp,29,↑,up,↑,0.7975824000313878,True,17,1,0,0
Y2-S2-287M23,4,308,AS,exp,32,←,left,←,1.55445170000894,True,17,1,0,0
Y2-S2-287M23,4,309,AS,exp,37,↓,down,↓,0.6870819000178017,True,16,1,0,0
Y2-S2-287M23,4,310,AS,exp,26,→,right,→,0.47633109998423606,True,16,1,0,0
Y2-S2-287M23,4,311,AS,exp,33,↑,up,↑,0.6359875000198372,True,16,1,0,0
Y2-S2-287M23,4,312,AS,exp,44,→,right,→,0.5390281000290997,True,15,1,0,0
Y2-S2-287M23,4,313,AS,exp,49,↓,down,↓,0.5926362999598496,True,15,1,0,0
Y2-S2-287M23,4,314,AS,exp,31,↑,up,↑,0.6088357000262477,True,15,1,0,0
Y2-S2-287M23,4,315,AS,exp,50,↓,down,↓,0.5723150999983773,True,14,1,0,0
Y2-S2-287M23,4,316,AS,exp,39,→,right,→,0.689214100013487,True,14,1,0,0
Y2-S2-287M23,4,317,AS,exp,44,↓,down,↓,0.6892382999649271,True,14,1,0,0
Y2-S2-287M23,4,318,AS,exp,31,→,right,→,0.8303531000274234,True,13,1,0,0
Y2-S2-287M23,4,319,AS,exp,44,←,left,←,0.5190110999974422,True,13,1,0,0
Y2-S2-287M23,4,320,AS,exp,32,↑,up,↑,0.7183619999559596,True,13,1,0,0
Y2-S2-287M23,4,321,AS,exp,26,→,left,←,0.7626184999826364,False,12,-1,1,1
Y2-S2-287M23,4,322,AS,exp,38,←,left,←,0.6239543000119738,True,13,-1,0,1
Y2-S2-287M23,4,323,AS,exp,41,→,left,←,0.6553816999658011,False,13,-1,0,1
Y2-S2-287M23,4,324,AS,exp,32,↑,up,↑,0.7410025999997742,True,14,-1,0,1
Y2-S2-287M23,4,325,AS,exp,26,→,right,→,0.6017235000035726,True,14,-1,0,1
Y2-S2-287M23,4,326,AS,exp,47,↓,down,↓,0.7559012999990955,True,14,1,1,2
Y2-S2-287M23,4,327,AS,exp,28,↑,up,↑,0.7389961000299081,True,13,1,0,2
Y2-S2-287M23,4,328,AS,exp,47,←,right,→,0.6727782000089064,False,13,-1,1,3
Y2-S2-287M23,4,329,AS,exp,43,→,left,←,0.7376800999627449,False,14,-1,0,3
Y2-S2-287M23,4,330,AS,exp,47,←,left,←,0.6718945000320673,True,15,-1,0,3
Y2-S2-287M23,4,331,AS,exp,32,↑,up,↑,0.614082399988547,True,15,-1,0,3
Y2-S2-287M23,4,332,AS,exp,27,←,left,←,0.5412028999999166,True,15,1,1,4
Y2-S2-287M23,4,333,AS,exp,34,→,left,←,0.7227011999930255,False,14,-1,1,5
Y2-S2-287M23,4,334,AS,exp,35,↑,up,↑,0.9055183000164106,True,15,-1,0,5
Y2-S2-287M23,4,335,AS,exp,29,→,right,→,0.5839114999980666,True,15,-1,0,5
Y2-S2-287M23,4,336,AS,exp,27,←,left,←,0.71027589996811,True,15,1,1,6
Y2-S2-287M23,4,337,AS,exp,39,→,right,→,0.5083513999707066,True,14,1,0,6
Y2-S2-287M23,4,338,AS,exp,27,↑,up,↑,0.5371127999969758,True,14,1,0,6
Y2-S2-287M23,4,339,AS,exp,30,→,left,←,0.6494517999817617,False,14,-1,1,7
Y2-S2-287M23,4,340,AS,exp,25,←,left,←,0.5498972000204958,True,15,-1,0,7
Y2-S2-287M23,4,341,AS,exp,47,↑,up,↑,0.57031509996159,True,15,-1,0,7
Y2-S2-287M23,4,342,AS,exp,26,←,left,←,0.556455800018739,True,15,1,1,8
Y2-S2-287M23,4,343,AS,exp,28,→,left,←,0.858723999990616,False,14,-1,1,9
Y2-S2-287M23,4,344,AS,exp,32,↑,up,↑,0.7088223000173457,True,15,-1,0,9
Y2-S2-287M23,4,345,AS,exp,27,←,left,←,0.49115279997931793,True,15,-1,0,9
Y2-S2-287M23,4,346,AS,exp,30,→,right,→,0.652559999958612,True,15,1,1,10
Y2-S2-287M23,4,347,AS,exp,35,↓,down,↓,0.7165418000076897,True,14,1,0,10
Y2-S2-287M23,4,348,AS,exp,37,→,right,→,0.6406185000087135,True,14,1,0,10
Y2-S2-287M23,4,349,AS,exp,29,↓,down,↓,0.6213727999711409,True,14,1,0,10
Y2-S2-287M23,4,350,AS,exp,26,→,right,→,0.79482090001693,True,13,1,0,10
Y2-S2-287M23,4,351,AS,exp,36,←,right,→,0.6677672000369057,False,13,-1,1,11
Y2-S2-287M23,4,352,AS,exp,43,→,left,←,0.9876277000294067,False,14,-1,0,11
Y2-S2-287M23,4,353,AS,exp,40,←,left,←,0.9012884000549093,True,15,-1,0,11
Y2-S2-287M23,4,354,AS,exp,40,→,right,→,0.7637814999907278,True,15,-1,0,11
Y2-S2-287M23,4,355,AS,exp,47,↑,left,←,0.5656357999541797,False,15,-1,0,11
Y2-S2-287M23,4,356,AS,exp,45,←,right,→,0.7171254999702796,False,16,-1,0,11
Y2-S2-287M23,4,357,AS,exp,30,↑,up,↑,0.6976751999463886,True,17,-1,0,11
Y2-S2-287M23,4,358,AS,exp,30,←,left,←,0.6689711000071838,True,17,-1,0,11
Y2-S2-287M23,4,359,AS,exp,26,↑,up,↑,0.662949999968987,True,17,1,1,12
Y2-S2-287M23,4,360,AS,exp,31,→,right,→,0.5682589000207372,True,16,1,0,12
Y2-S2-287M23,4,361,AS,exp,42,↓,down,↓,0.6221074999775738,True,16,1,0,12
Y2-S2-287M23,4,362,AS,exp,27,→,right,→,0.5628094000276178,True,16,1,0,12
Y2-S2-287M23,4,363,AS,exp,44,↓,down,↓,0.8151543000130914,True,15,1,0,12
Y2-S2-287M23,4,364,AS,exp,28,↑,up,↑,0.7548704000073485,True,15,1,0,12
Y2-S2-287M23,4,365,AS,exp,50,←,left,←,0.6741043000365607,True,15,1,0,12
Y2-S2-287M23,4,366,AS,exp,31,↑,up,↑,0.5476844999939203,True,14,1,0,12
Y2-S2-287M23,4,367,AS,exp,44,↓,down,↓,0.5426327000022866,True,14,1,0,12
Y2-S2-287M23,4,368,AS,exp,42,→,right,→,0.44618590001482517,True,14,1,0,12
Y2-S2-287M23,4,369,AS,exp,27,↓,down,↓,0.5738883999874815,True,13,1,0,12
Y2-S2-287M23,4,370,AS,exp,30,←,right,→,0.6220268000033684,False,13,-1,1,13
Y2-S2-287M23,4,371,AS,exp,50,↓,down,↓,0.7770799000281841,True,14,-1,0,13
Y2-S2-287M23,4,372,AS,exp,27,↑,down,↓,0.591143400000874,False,14,-1,0,13
Y2-S2-287M23,4,373,AS,exp,50,→,right,→,0.5450979000306688,True,15,-1,0,13
Y2-S2-287M23,4,374,AS,exp,37,↑,up,↑,0.6840898999944329,True,15,-1,0,13
Y2-S2-287M23,4,375,AS,exp,47,↓,down,↓,0.6681718999752775,True,15,1,1,14
Y2-S2-287M23,4,376,AS,exp,50,↑,down,↓,0.9469370000297204,False,14,-1,1,15
Y2-S2-287M23,4,377,AS,exp,35,↓,down,↓,0.9684092000243254,True,15,-1,0,15
Y2-S2-287M23,4,378,AS,exp,36,←,left,←,0.589864400040824,True,15,-1,0,15
Y2-S2-287M23,4,379,AS,exp,43,↑,up,↑,1.364299500011839,True,15,1,1,16
Y2-S2-287M23,5,380,AS,intra_train,46,↓,down,↓,0.6969843999831937,True,27,-,-,-
Y2-S2-287M23,5,381,AS,intra_train,32,↑,up,↑,0.6536856000311673,True,27,-,-,-
Y2-S2-287M23,5,382,AS,intra_train,48,←,left,←,1.3004532000049949,True,27,-,-,-
Y2-S2-287M23,5,383,AS,intra_train,42,↑,up,↑,0.7203851999947801,True,27,-,-,-
Y2-S2-287M23,5,384,AS,intra_train,32,←,left,←,0.6502791999955662,True,27,-,-,-
Y2-S2-287M23,5,385,AS,exp,40,↑,up,↑,0.531870600010734,True,18,0,0,0
Y2-S2-287M23,5,386,AS,exp,48,↓,down,↓,0.6779198999865912,True,18,0,0,0
Y2-S2-287M23,5,387,AS,exp,45,←,left,←,0.8474156999727711,True,18,1,0,0
Y2-S2-287M23,5,388,AS,exp,29,↓,down,↓,0.7836071000201628,True,17,1,0,0
Y2-S2-287M23,5,389,AS,exp,38,←,left,←,0.6069953999831341,True,17,1,0,0
Y2-S2-287M23,5,390,AS,exp,28,↑,up,↑,0.7062267999863252,True,17,1,0,0
Y2-S2-287M23,5,391,AS,exp,40,←,left,←,0.6593968000379391,True,16,1,0,0
Y2-S2-287M23,5,392,AS,exp,35,↑,up,↑,0.4480084999813698,True,16,1,0,0
Y2-S2-287M23,5,393,AS,exp,35,←,left,←,0.552812299982179,True,16,1,0,0
Y2-S2-287M23,5,394,AS,exp,49,↑,up,↑,0.47042580001289025,True,15,1,0,0
Y2-S2-287M23,5,395,AS,exp,50,←,left,←,0.5608706999919377,True,15,1,0,0
Y2-S2-287M23,5,396,AS,exp,43,→,right,→,0.7136550999712199,True,15,1,0,0
Y2-S2-287M23,5,397,AS,exp,29,↑,up,↑,0.5519275000551715,True,14,1,0,0
Y2-S2-287M23,5,398,AS,exp,37,→,right,→,0.508989299996756,True,14,1,0,0
Y2-S2-287M23,5,399,AS,exp,38,↑,right,→,0.6964244000264443,False,14,-1,1,1
Y2-S2-287M23,5,400,AS,exp,28,→,right,→,1.784310499962885,True,15,-1,0,1
Y2-S2-287M23,5,401,AS,exp,33,←,left,←,0.6079153000027873,True,15,-1,0,1
Y2-S2-287M23,5,402,AS,exp,28,↓,down,↓,0.7227118000155315,True,15,1,1,2
Y2-S2-287M23,5,403,AS,exp,32,↑,up,↑,0.7569136999663897,True,14,1,0,2
Y2-S2-287M23,5,404,AS,exp,32,↓,down,↓,0.65603579999879,True,14,1,0,2
Y2-S2-287M23,5,405,AS,exp,27,↑,up,↑,0.6447718000272289,True,14,1,0,2
Y2-S2-287M23,5,406,AS,exp,27,↓,down,↓,0.6002541999914683,True,13,1,0,2
Y2-S2-287M23,5,407,AS,exp,38,←,left,←,0.5956042000325397,True,13,1,0,2
Y2-S2-287M23,5,408,AS,exp,33,↓,up,↑,1.5628269000444561,False,13,-1,1,3
Y2-S2-287M23,5,409,AS,exp,31,→,right,→,0.6245021999930032,True,14,-1,0,3
Y2-S2-287M23,5,410,AS,exp,47,↓,down,↓,0.6436087999609299,True,14,-1,0,3
Y2-S2-287M23,5,411,AS,exp,42,→,right,→,0.5821172000141814,True,14,1,1,4
Y2-S2-287M23,5,412,AS,exp,39,↑,left,←,0.8303188999998383,False,13,-1,1,5
Y2-S2-287M23,5,413,AS,exp,38,←,right,→,0.6785314999870025,False,14,-1,0,5
Y2-S2-287M23,5,414,AS,exp,49,→,right,→,0.6705003000097349,True,15,-1,0,5
Y2-S2-287M23,5,415,AS,exp,43,↑,up,↑,0.7782013000105508,True,15,-1,0,5
Y2-S2-287M23,5,416,AS,exp,38,←,left,←,0.6656411000294611,True,15,1,1,6
Y2-S2-287M23,5,417,AS,exp,25,→,left,←,0.9095493000349961,False,14,-1,1,7
Y2-S2-287M23,5,418,AS,exp,32,←,right,→,0.680235999985598,False,15,-1,0,7
Y2-S2-287M23,5,419,AS,exp,46,↑,up,↑,0.6494088000035845,True,16,-1,0,7
Y2-S2-287M23,5,420,AS,exp,40,→,right,→,0.6002411000081338,True,16,-1,0,7
Y2-S2-287M23,5,421,AS,exp,29,←,left,←,0.586038000008557,True,16,1,1,8
Y2-S2-287M23,5,422,AS,exp,45,↓,up,↑,0.9209395999787375,False,15,-1,1,9
Y2-S2-287M23,5,423,AS,exp,49,→,right,→,0.727497499960009,True,16,-1,0,9
Y2-S2-287M23,5,424,AS,exp,38,↓,down,↓,0.6650934999925084,True,16,-1,0,9
Y2-S2-287M23,5,425,AS,exp,39,→,right,→,0.711212299996987,True,16,1,1,10
Y2-S2-287M23,5,426,AS,exp,47,↓,down,↓,0.5948695999686606,True,15,1,0,10
Y2-S2-287M23,5,427,AS,exp,33,↑,up,↑,0.6964469999657013,True,15,1,0,10
Y2-S2-287M23,5,428,AS,exp,41,→,right,→,0.5750412000343204,True,15,1,0,10
Y2-S2-287M23,5,429,AS,exp,40,↑,up,↑,0.7007890000240877,True,14,1,0,10
Y2-S2-287M23,5,430,AS,exp,30,←,right,→,0.6661713999928907,False,14,-1,1,11
Y2-S2-287M23,5,431,AS,exp,32,↑,up,↑,0.6611821000115015,True,15,-1,0,11
Y2-S2-287M23,5,432,AS,exp,40,←,left,←,0.5446886999998242,True,15,-1,0,11
Y2-S2-287M23,5,433,AS,exp,43,↑,up,↑,0.6355062000220641,True,15,1,1,12
Y2-S2-287M23,5,434,AS,exp,48,↓,down,↓,1.6169729999965057,True,14,1,0,12
Y2-S2-287M23,5,435,AS,exp,37,←,left,←,0.5575735999736935,True,14,1,0,12
Y2-S2-287M23,5,436,AS,exp,44,→,right,→,0.5921824999968521,True,14,1,0,12
Y2-S2-287M23,5,437,AS,exp,38,←,left,←,0.49961769999936223,True,13,1,0,12
Y2-S2-287M23,5,438,AS,exp,39,↓,down,↓,0.5431429999880493,True,13,1,0,12
Y2-S2-287M23,5,439,AS,exp,35,→,right,→,0.5058274999610148,True,13,1,0,12
Y2-S2-287M23,5,440,AS,exp,29,↑,up,↑,0.6828205999918282,True,12,1,0,12
Y2-S2-287M23,5,441,AS,exp,50,←,left,←,0.5468789000296965,True,12,1,0,12
Y2-S2-287M23,5,442,AS,exp,36,↓,down,↓,0.6511248999740928,True,12,1,0,12
Y2-S2-287M23,5,443,AS,exp,45,↑,down,↓,0.6748682999750599,False,11,-1,1,13
Y2-S2-287M23,5,444,AS,exp,25,↓,up,↑,0.6919549999875017,False,12,-1,0,13
Y2-S2-287M23,5,445,AS,exp,44,→,right,→,0.4773026999901049,True,13,-1,0,13
Y2-S2-287M23,5,446,AS,exp,33,↓,down,↓,0.6552261000033468,True,13,-1,0,13
Y2-S2-287M23,5,447,AS,exp,42,→,left,←,0.9118775999522768,False,13,-1,0,13
Y2-S2-287M23,5,448,AS,exp,31,↑,up,↑,0.6927166999666952,True,14,-1,0,13
Y2-S2-287M23,5,449,AS,exp,38,↓,down,↓,0.8174124000361189,True,14,-1,0,13
Y2-S2-287M23,5,450,AS,exp,30,←,left,←,0.5866826000274159,True,14,1,1,14
Y2-S2-287M23,5,451,AS,exp,45,↑,up,↑,0.6671618999680504,True,13,1,0,14
Y2-S2-287M23,5,452,AS,exp,37,↓,down,↓,0.590976600011345,True,13,1,0,14
Y2-S2-287M23,5,453,AS,exp,46,→,left,←,0.6357924999902025,False,13,-1,1,15
Y2-S2-287M23,5,454,AS,exp,25,←,left,←,0.6633623000234365,True,14,-1,0,15
Y2-S2-287M23,5,455,AS,exp,26,↑,up,↑,0.8039006000035442,True,14,-1,0,15
Y2-S2-287M23,5,456,AS,exp,42,↓,down,↓,0.6206186000490561,True,14,1,1,16
Y2-S2-287M23,6,457,PS,intra_train,39,←,left,←,0.4800630999961868,True,18,-,-,-
Y2-S2-287M23,6,458,PS,intra_train,39,↑,up,↑,0.7946340999915265,True,18,-,-,-
Y2-S2-287M23,6,459,PS,intra_train,33,↓,down,↓,0.6926158999558538,True,18,-,-,-
Y2-S2-287M23,6,460,PS,intra_train,33,→,right,→,0.6125750000355765,True,18,-,-,-
Y2-S2-287M23,6,461,PS,intra_train,25,↓,down,↓,0.6427561999880709,True,18,-,-,-
Y2-S2-287M23,6,462,PS,exp,31,←,left,←,0.4916365999961272,True,12,0,0,0
Y2-S2-287M23,6,463,PS,exp,43,↑,up,↑,0.5551739000366069,True,12,0,0,0
Y2-S2-287M23,6,464,PS,exp,30,→,right,→,0.6783143000211567,True,12,1,0,0
Y2-S2-287M23,6,465,PS,exp,28,↓,left,←,0.601681100029964,False,11,-1,1,1
Y2-S2-287M23,6,466,PS,exp,25,↑,up,↑,0.6113972999737598,True,12,-1,0,1
Y2-S2-287M23,6,467,PS,exp,47,←,left,←,1.112835299980361,True,12,-1,0,1
Y2-S2-287M23,6,468,PS,exp,29,↓,up,↑,0.5922096000285819,False,12,-1,0,1
Y2-S2-287M23,6,469,PS,exp,41,↑,up,↑,0.45142029999988154,True,13,-1,0,1
Y2-S2-287M23,6,470,PS,exp,47,←,left,←,0.43391439999686554,True,13,-1,0,1
Y2-S2-287M23,6,471,PS,exp,33,→,right,→,0.4589579000021331,True,13,1,1,2
Y2-S2-287M23,6,472,PS,exp,26,↑,up,↑,0.6055931000155397,True,12,1,0,2
Y2-S2-287M23,6,473,PS,exp,29,↓,down,↓,0.6951655999873765,True,12,1,0,2
Y2-S2-287M23,6,474,PS,exp,32,↑,up,↑,0.5315453999792226,True,12,1,0,2
Y2-S2-287M23,6,475,PS,exp,47,→,right,→,0.4656514000380412,True,11,1,0,2
Y2-S2-287M23,6,476,PS,exp,44,↓,down,↓,0.6010602000169456,True,11,1,0,2
Y2-S2-287M23,6,477,PS,exp,47,←,left,←,0.5567905000061728,True,11,1,0,2
Y2-S2-287M23,6,478,PS,exp,39,→,right,→,0.6192080999608152,True,10,1,0,2
Y2-S2-287M23,6,479,PS,exp,34,↑,left,←,0.7419004999683239,False,10,-1,1,3
Y2-S2-287M23,6,480,PS,exp,38,←,left,←,0.5920961999800056,True,11,-1,0,3
Y2-S2-287M23,6,481,PS,exp,44,↓,down,↓,0.8139024000265636,True,11,-1,0,3
Y2-S2-287M23,6,482,PS,exp,46,↑,up,↑,0.7164071000297554,True,11,1,1,4
Y2-S2-287M23,6,483,PS,exp,28,↓,right,→,1.0144693999900483,False,10,-1,1,5
Y2-S2-287M23,6,484,PS,exp,37,→,right,→,0.5881548000033945,True,11,-1,0,5
Y2-S2-287M23,6,485,PS,exp,38,↓,right,→,0.4863519999780692,False,11,-1,0,5
Y2-S2-287M23,6,486,PS,exp,50,←,right,→,0.6849696999997832,False,12,-1,0,5
Y2-S2-287M23,6,487,PS,exp,48,→,right,→,0.6021094999741763,True,13,-1,0,5
Y2-S2-287M23,6,488,PS,exp,35,↑,up,↑,0.80225440004142,True,13,-1,0,5
Y2-S2-287M23,6,489,PS,exp,32,↓,down,↓,0.6011425000033341,True,13,1,1,6
Y2-S2-287M23,6,490,PS,exp,29,↑,up,↑,0.7579589000088163,True,12,1,0,6
Y2-S2-287M23,6,491,PS,exp,44,↓,down,↓,0.6532377999974415,True,12,1,0,6
Y2-S2-287M23,6,492,PS,exp,47,→,right,→,0.6002656999626197,True,12,1,0,6
Y2-S2-287M23,6,493,PS,exp,34,↓,down,↓,0.501882900018245,True,11,1,0,6
Y2-S2-287M23,6,494,PS,exp,49,←,left,←,0.5606292000156827,True,11,1,0,6
Y2-S2-287M23,6,495,PS,exp,46,↓,down,↓,0.614180899981875,True,11,1,0,6
Y2-S2-287M23,6,496,PS,exp,25,←,right,→,0.5189548999769613,False,10,-1,1,7
Y2-S2-287M23,6,497,PS,exp,40,↑,up,↑,1.332702599989716,True,11,-1,0,7
Y2-S2-287M23,6,498,PS,exp,28,←,left,←,0.5093090000445955,True,11,-1,0,7
Y2-S2-287M23,6,499,PS,exp,42,↓,right,→,0.6517304999870248,False,11,-1,0,7
Y2-S2-287M23,6,500,PS,exp,48,→,right,→,0.44685790000949055,True,12,-1,0,7
Y2-S2-287M23,6,501,PS,exp,36,←,left,←,0.49951960000908,True,12,-1,0,7
Y2-S2-287M23,6,502,PS,exp,46,↓,down,↓,0.6307493000058457,True,12,1,1,8
Y2-S2-287M23,6,503,PS,exp,28,→,left,←,0.5625999000039883,False,11,-1,1,9
Y2-S2-287M23,6,504,PS,exp,39,↓,down,↓,0.6547410000348464,True,12,-1,0,9
Y2-S2-287M23,6,505,PS,exp,26,→,left,←,0.7076920000254177,False,12,-1,0,9
Y2-S2-287M23,6,506,PS,exp,36,↑,up,↑,0.7279039000277407,True,13,-1,0,9
Y2-S2-287M23,6,507,PS,exp,27,↓,down,↓,0.8289179999846965,True,13,-1,0,9
Y2-S2-287M23,6,508,PS,exp,37,←,left,←,0.5702503999928012,True,13,1,1,10
Y2-S2-287M23,6,509,PS,exp,43,→,right,→,0.5837790999794379,True,12,1,0,10
Y2-S2-287M23,6,510,PS,exp,36,↓,down,↓,0.8140846000169404,True,12,1,0,10
Y2-S2-287M23,6,511,PS,exp,28,↑,right,→,0.765638199984096,False,12,-1,1,11
Y2-S2-287M23,6,512,PS,exp,46,↓,down,↓,0.7494724999996834,True,13,-1,0,11
Y2-S2-287M23,6,513,PS,exp,25,→,right,→,0.8023361000232399,True,13,-1,0,11
Y2-S2-287M23,6,514,PS,exp,40,↓,down,↓,0.6100009000510909,True,13,1,1,12
Y2-S2-287M23,6,515,PS,exp,32,←,left,←,0.5650163000100292,True,12,1,0,12
Y2-S2-287M23,6,516,PS,exp,48,↑,up,↑,0.729562500026077,True,12,1,0,12
Y2-S2-287M23,6,517,PS,exp,38,→,right,→,0.5483111999928951,True,12,1,0,12
Y2-S2-287M23,6,518,PS,exp,40,←,left,←,0.5803414999973029,True,11,1,0,12
Y2-S2-287M23,6,519,PS,exp,46,→,left,←,0.6601504000136629,False,11,-1,1,13
Y2-S2-287M23,6,520,PS,exp,47,↓,down,↓,1.7215729999588802,True,12,-1,0,13
Y2-S2-287M23,6,521,PS,exp,39,←,right,→,0.7213954000035301,False,12,-1,0,13
Y2-S2-287M23,6,522,PS,exp,36,↑,up,↑,1.0915766999823973,True,13,-1,0,13
Y2-S2-287M23,6,523,PS,exp,42,↓,down,↓,0.6572832000092603,True,13,-1,0,13
Y2-S2-287M23,6,524,PS,exp,33,→,right,→,0.6140690000029281,True,13,1,1,14
Y2-S2-287M23,6,525,PS,exp,46,↑,up,↑,0.7223583000013605,True,12,1,0,14
Y2-S2-287M23,6,526,PS,exp,45,→,right,→,0.5441237000050023,True,12,1,0,14
Y2-S2-287M23,6,527,PS,exp,36,↑,up,↑,0.6572837000130676,True,12,1,0,14
Y2-S2-287M23,6,528,PS,exp,28,→,right,→,0.4920341999968514,True,11,1,0,14
Y2-S2-287M23,6,529,PS,exp,37,←,left,←,0.5144380999845453,True,11,1,0,14
Y2-S2-287M23,6,530,PS,exp,28,↓,down,↓,0.6855497999931686,True,11,1,0,14
Y2-S2-287M23,6,531,PS,exp,32,↑,up,↑,0.5124474000185728,True,10,1,0,14
Y2-S2-287M23,6,532,PS,exp,44,↓,no_key,no_letter,-1.0,False,10,-1,1,15
Y2-S2-287M23,6,533,PS,exp,46,←,left,←,0.46359110000776127,True,11,-1,0,15
Y2-S2-287M23,6,534,PS,exp,43,→,right,→,0.41163280000910163,True,11,-1,0,15
Y2-S2-287M23,6,535,PS,exp,32,↑,up,↑,0.48697319999337196,True,11,1,1,16
Y2-S2-287M23,7,536,PS,intra_train,42,→,right,→,0.6028921999968588,True,18,-,-,-
Y2-S2-287M23,7,537,PS,intra_train,39,←,left,←,1.8666745999944396,True,18,-,-,-
Y2-S2-287M23,7,538,PS,intra_train,46,↓,down,↓,0.5902710999944247,True,18,-,-,-
Y2-S2-287M23,7,539,PS,intra_train,28,←,left,←,0.6079626000137068,True,18,-,-,-
Y2-S2-287M23,7,540,PS,intra_train,30,↓,down,↓,0.5241960000130348,True,18,-,-,-
Y2-S2-287M23,7,541,PS,exp,32,→,right,→,0.481970300024841,True,12,0,0,0
Y2-S2-287M23,7,542,PS,exp,44,←,left,←,0.4937597999814898,True,12,0,0,0
Y2-S2-287M23,7,543,PS,exp,47,↓,down,↓,0.5364496000111103,True,12,1,0,0
Y2-S2-287M23,7,544,PS,exp,43,↑,up,↑,0.6616503999684937,True,11,1,0,0
Y2-S2-287M23,7,545,PS,exp,49,←,left,←,1.1305227000266314,True,11,1,0,0
Y2-S2-287M23,7,546,PS,exp,41,↓,down,↓,0.5581140000140294,True,11,1,0,0
Y2-S2-287M23,7,547,PS,exp,44,→,right,→,0.5083085999940522,True,10,1,0,0
Y2-S2-287M23,7,548,PS,exp,44,←,left,←,0.4834767000284046,True,10,1,0,0
Y2-S2-287M23,7,549,PS,exp,28,↑,up,↑,0.6285702000022866,True,10,1,0,0
Y2-S2-287M23,7,550,PS,exp,50,→,right,→,0.4921883000060916,True,9,1,0,0
Y2-S2-287M23,7,551,PS,exp,48,↑,up,↑,0.9774327999912202,True,9,1,0,0
Y2-S2-287M23,7,552,PS,exp,31,↓,down,↓,0.9622333000297658,True,9,1,0,0
Y2-S2-287M23,7,553,PS,exp,46,←,left,←,0.5529133999953046,True,8,1,0,0
Y2-S2-287M23,7,554,PS,exp,39,↑,up,↑,1.2155354000278749,True,8,1,0,0
Y2-S2-287M23,7,555,PS,exp,35,←,left,←,0.4882015999755822,True,8,1,0,0
Y2-S2-287M23,7,556,PS,exp,41,↑,right,→,0.6022437000065111,False,7,-1,1,1
Y2-S2-287M23,7,557,PS,exp,47,↓,right,→,1.5800995999597944,False,8,-1,0,1
Y2-S2-287M23,7,558,PS,exp,34,→,right,→,0.6700241999933496,True,9,-1,0,1
Y2-S2-287M23,7,559,PS,exp,45,←,right,→,0.6226653999765404,False,9,-1,0,1
Y2-S2-287M23,7,560,PS,exp,26,↓,left,←,0.6323082000017166,False,10,-1,0,1
Y2-S2-287M23,7,561,PS,exp,36,←,left,←,0.6733895000070333,True,11,-1,0,1
Y2-S2-287M23,7,562,PS,exp,34,↑,up,↑,1.0133777000010014,True,11,-1,0,1
Y2-S2-287M23,7,563,PS,exp,32,←,left,←,0.6382299999822862,True,11,1,1,2
Y2-S2-287M23,7,564,PS,exp,29,↓,left,←,0.6328653999953531,False,10,-1,1,3
Y2-S2-287M23,7,565,PS,exp,34,↑,no_key,no_letter,-1.0,False,11,-1,0,3
Y2-S2-287M23,7,566,PS,exp,44,↓,down,↓,1.5216002999804914,True,12,-1,0,3
Y2-S2-287M23,7,567,PS,exp,46,→,right,→,0.6354482999886386,True,12,-1,0,3
Y2-S2-287M23,7,568,PS,exp,42,↑,up,↑,0.7301722000120208,True,12,1,1,4
Y2-S2-287M23,7,569,PS,exp,33,→,right,→,1.0314825999666937,True,11,1,0,4
Y2-S2-287M23,7,570,PS,exp,50,↓,down,↓,0.6791968999896199,True,11,1,0,4
Y2-S2-287M23,7,571,PS,exp,44,↑,up,↑,0.7154925999930128,True,11,1,0,4
Y2-S2-287M23,7,572,PS,exp,36,←,left,←,0.5951619999832474,True,10,1,0,4
Y2-S2-287M23,7,573,PS,exp,37,↑,up,↑,0.6356190000078641,True,10,1,0,4
Y2-S2-287M23,7,574,PS,exp,36,←,left,←,0.48504169995430857,True,10,1,0,4
Y2-S2-287M23,7,575,PS,exp,44,↑,up,↑,0.5322526999516413,True,9,1,0,4
Y2-S2-287M23,7,576,PS,exp,40,↓,left,←,0.9543809999595396,False,9,-1,1,5
Y2-S2-287M23,7,577,PS,exp,43,→,right,→,0.5589618000085466,True,10,-1,0,5
Y2-S2-287M23,7,578,PS,exp,26,←,left,←,0.7598932000109926,True,10,-1,0,5
Y2-S2-287M23,7,579,PS,exp,33,↓,down,↓,0.6778351000393741,True,10,1,1,6
Y2-S2-287M23,7,580,PS,exp,32,↑,left,←,0.5424570000031963,False,9,-1,1,7
Y2-S2-287M23,7,581,PS,exp,30,↓,left,←,1.065526599995792,False,10,-1,0,7
Y2-S2-287M23,7,582,PS,exp,36,←,left,←,0.4909611999755725,True,11,-1,0,7
Y2-S2-287M23,7,583,PS,exp,28,↓,down,↓,1.0944121000356972,True,11,-1,0,7
Y2-S2-287M23,7,584,PS,exp,27,→,left,←,0.8199824999901466,False,11,-1,0,7
Y2-S2-287M23,7,585,PS,exp,35,←,left,←,0.5163036999874748,True,12,-1,0,7
Y2-S2-287M23,7,586,PS,exp,32,→,right,→,0.6663301000371575,True,12,-1,0,7
Y2-S2-287M23,7,587,PS,exp,33,←,left,←,0.534596599987708,True,12,1,1,8
Y2-S2-287M23,7,588,PS,exp,41,→,right,→,0.5128757000202313,True,11,1,0,8
Y2-S2-287M23,7,589,PS,exp,47,↓,right,→,0.7443272999953479,False,11,-1,1,9
Y2-S2-287M23,7,590,PS,exp,37,↑,left,←,0.5342853000038303,False,12,-1,0,9
Y2-S2-287M23,7,591,PS,exp,28,→,right,→,0.5679820999503136,True,13,-1,0,9
Y2-S2-287M23,7,592,PS,exp,30,↓,down,↓,0.8089613000047393,True,13,-1,0,9
Y2-S2-287M23,7,593,PS,exp,48,←,left,←,0.6382432999671437,True,13,1,1,10
Y2-S2-287M23,7,594,PS,exp,26,→,right,→,0.5924993000226095,True,12,1,0,10
Y2-S2-287M23,7,595,PS,exp,28,↓,down,↓,0.5385112999938428,True,12,1,0,10
Y2-S2-287M23,7,596,PS,exp,35,←,left,←,0.5250001000240445,True,12,1,0,10
Y2-S2-287M23,7,597,PS,exp,34,↓,down,↓,0.5431179000297561,True,11,1,0,10
Y2-S2-287M23,7,598,PS,exp,37,←,right,→,0.5656037000007927,False,11,-1,1,11
Y2-S2-287M23,7,599,PS,exp,38,→,right,→,0.6767754000029527,True,12,-1,0,11
Y2-S2-287M23,7,600,PS,exp,38,←,left,←,0.615999199973885,True,12,-1,0,11
Y2-S2-287M23,7,601,PS,exp,30,→,right,→,0.5841555999941193,True,12,1,1,12
Y2-S2-287M23,7,602,PS,exp,28,↑,up,↑,0.8927960000000894,True,11,1,0,12
Y2-S2-287M23,7,603,PS,exp,42,←,left,←,0.5568857000325806,True,11,1,0,12
Y2-S2-287M23,7,604,PS,exp,27,↑,no_key,no_letter,-1.0,False,11,-1,1,13
Y2-S2-287M23,7,605,PS,exp,39,↓,down,↓,0.5904690000461414,True,12,-1,0,13
Y2-S2-287M23,7,606,PS,exp,31,→,right,→,0.5109433999750763,True,12,-1,0,13
Y2-S2-287M23,7,607,PS,exp,28,↑,up,↑,0.6210701999953017,True,12,1,1,14
Y2-S2-287M23,7,608,PS,exp,47,→,right,→,0.530776200001128,True,11,1,0,14
Y2-S2-287M23,7,609,PS,exp,49,↑,up,↑,0.5244151999941096,True,11,1,0,14
Y2-S2-287M23,7,610,PS,exp,38,↓,down,↓,0.6218833000166342,True,11,1,0,14
Y2-S2-287M23,7,611,PS,exp,42,↑,left,←,0.6518104000133462,False,10,-1,1,15
Y2-S2-287M23,7,612,PS,exp,37,↓,down,↓,0.5093692000373267,True,11,-1,0,15
Y2-S2-287M23,7,613,PS,exp,33,←,left,←,0.5499518000287935,True,11,-1,0,15
Y2-S2-287M23,7,614,PS,exp,31,↓,down,↓,0.6185747000272386,True,11,1,1,16
Y2-S2-287M23,8,615,AS,intra_train,50,↑,up,↑,0.9290664999862202,True,27,-,-,-
Y2-S2-287M23,8,616,AS,intra_train,39,→,left,←,1.1231958999997005,False,27,-,-,-
Y2-S2-287M23,8,617,AS,intra_train,49,↓,down,↓,1.309200800023973,True,27,-,-,-
Y2-S2-287M23,8,618,AS,intra_train,50,↑,up,↑,0.8015634999610484,True,27,-,-,-
Y2-S2-287M23,8,619,AS,intra_train,35,→,right,→,0.6407393999979831,True,27,-,-,-
Y2-S2-287M23,8,620,AS,exp,44,←,left,←,0.6396972999791615,True,18,0,0,0
Y2-S2-287M23,8,621,AS,exp,26,↓,down,↓,0.7235788999823853,True,18,0,0,0
Y2-S2-287M23,8,622,AS,exp,50,↑,up,↑,0.6057832000078633,True,18,1,0,0
Y2-S2-287M23,8,623,AS,exp,34,←,left,←,0.5617335999850184,True,17,1,0,0
Y2-S2-287M23,8,624,AS,exp,41,→,left,←,0.7936589000164531,False,17,-1,1,1
Y2-S2-287M23,8,625,AS,exp,25,←,right,→,0.6371043000253849,False,18,-1,0,1
Y2-S2-287M23,8,626,AS,exp,47,↓,down,↓,0.8606758000096306,True,19,-1,0,1
Y2-S2-287M23,8,627,AS,exp,49,←,left,←,0.5275459000258707,True,19,-1,0,1
Y2-S2-287M23,8,628,AS,exp,42,↓,down,↓,0.6188225999940187,True,19,1,1,2
Y2-S2-287M23,8,629,AS,exp,28,→,right,→,0.5785571000305936,True,18,1,0,2
Y2-S2-287M23,8,630,AS,exp,26,←,left,←,0.5281821000389755,True,18,1,0,2
Y2-S2-287M23,8,631,AS,exp,33,→,right,→,0.5422257000464015,True,18,1,0,2
Y2-S2-287M23,8,632,AS,exp,48,↓,down,↓,0.6806924000266008,True,17,1,0,2
Y2-S2-287M23,8,633,AS,exp,33,←,left,←,0.8479792000143789,True,17,1,0,2
Y2-S2-287M23,8,634,AS,exp,46,→,right,→,0.5847940999665298,True,17,1,0,2
Y2-S2-287M23,8,635,AS,exp,46,↓,down,↓,0.5753459999687038,True,16,1,0,2
Y2-S2-287M23,8,636,AS,exp,42,↑,up,↑,0.7015787999844179,True,16,1,0,2
Y2-S2-287M23,8,637,AS,exp,37,→,right,→,0.5758912999881431,True,16,1,0,2
Y2-S2-287M23,8,638,AS,exp,47,←,left,←,0.6778072000015527,True,15,1,0,2
Y2-S2-287M23,8,639,AS,exp,27,↑,up,↑,0.5207624000031501,True,15,1,0,2
Y2-S2-287M23,8,640,AS,exp,38,←,left,←,0.6418382999836467,True,15,1,0,2
Y2-S2-287M23,8,641,AS,exp,28,→,right,→,0.5963843000354245,True,14,1,0,2
Y2-S2-287M23,8,642,AS,exp,30,←,left,←,0.7392311000148766,True,14,1,0,2
Y2-S2-287M23,8,643,AS,exp,29,↓,down,↓,0.6735628999886103,True,14,1,0,2
Y2-S2-287M23,8,644,AS,exp,37,→,right,→,0.5920531000010669,True,13,1,0,2
Y2-S2-287M23,8,645,AS,exp,47,←,right,→,0.5805937999975868,False,13,-1,1,3
Y2-S2-287M23,8,646,AS,exp,38,→,right,→,0.6297240999992937,True,14,-1,0,3
Y2-S2-287M23,8,647,AS,exp,47,↓,left,←,0.9142672999878414,False,14,-1,0,3
Y2-S2-287M23,8,648,AS,exp,30,↑,up,↑,0.6478179999976419,True,15,-1,0,3
Y2-S2-287M23,8,649,AS,exp,40,←,left,←,0.5318669000407681,True,15,-1,0,3
Y2-S2-287M23,8,650,AS,exp,46,↑,up,↑,0.5414238999946974,True,15,1,1,4
Y2-S2-287M23,8,651,AS,exp,40,→,up,↑,0.6255343000520952,False,14,-1,1,5
Y2-S2-287M23,8,652,AS,exp,35,←,left,←,0.551457199966535,True,15,-1,0,5
Y2-S2-287M23,8,653,AS,exp,26,→,right,→,0.5636795000173151,True,15,-1,0,5
Y2-S2-287M23,8,654,AS,exp,38,↓,up,↑,0.9281924000242725,False,15,-1,0,5
Y2-S2-287M23,8,655,AS,exp,36,↑,up,↑,0.5292135000345297,True,16,-1,0,5
Y2-S2-287M23,8,656,AS,exp,44,→,right,→,0.5814006999717094,True,16,-1,0,5
Y2-S2-287M23,8,657,AS,exp,26,←,left,←,0.6792287999996915,True,16,1,1,6
Y2-S2-287M23,8,658,AS,exp,44,↑,up,↑,0.5057814000174403,True,15,1,0,6
Y2-S2-287M23,8,659,AS,exp,26,→,right,→,0.5088279999908991,True,15,1,0,6
Y2-S2-287M23,8,660,AS,exp,31,↓,down,↓,0.592791200033389,True,15,1,0,6
Y2-S2-287M23,8,661,AS,exp,34,←,left,←,0.664374099986162,True,14,1,0,6
Y2-S2-287M23,8,662,AS,exp,28,↓,down,↓,0.5213067000149749,True,14,1,0,6
Y2-S2-287M23,8,663,AS,exp,41,→,right,→,0.5416818000376225,True,14,1,0,6
Y2-S2-287M23,8,664,AS,exp,38,↓,down,↓,0.539626199984923,True,13,1,0,6
Y2-S2-287M23,8,665,AS,exp,50,←,left,←,0.7006629000534303,True,13,1,0,6
Y2-S2-287M23,8,666,AS,exp,38,↓,down,↓,0.6666230999981053,True,13,1,0,6
Y2-S2-287M23,8,667,AS,exp,43,←,left,←,0.5348011999740265,True,12,1,0,6
Y2-S2-287M23,8,668,AS,exp,41,↑,up,↑,1.309968200046569,True,12,1,0,6
Y2-S2-287M23,8,669,AS,exp,43,→,right,→,0.5852963000070304,True,12,1,0,6
Y2-S2-287M23,8,670,AS,exp,35,←,right,→,0.6709186999942176,False,11,-1,1,7
Y2-S2-287M23,8,671,AS,exp,41,→,right,→,0.6041701000067405,True,12,-1,0,7
Y2-S2-287M23,8,672,AS,exp,32,↑,up,↑,0.7033536999952048,True,12,-1,0,7
Y2-S2-287M23,8,673,AS,exp,43,←,right,→,0.5259692000108771,False,12,-1,0,7
Y2-S2-287M23,8,674,AS,exp,46,↓,down,↓,0.69711870001629,True,13,-1,0,7
Y2-S2-287M23,8,675,AS,exp,25,↑,down,↓,0.541314699978102,False,13,-1,0,7
Y2-S2-287M23,8,676,AS,exp,37,←,right,→,0.514941599976737,False,14,-1,0,7
Y2-S2-287M23,8,677,AS,exp,50,↓,down,↓,0.7942468000110239,True,15,-1,0,7
Y2-S2-287M23,8,678,AS,exp,36,→,right,→,0.520252599962987,True,15,-1,0,7
Y2-S2-287M23,8,679,AS,exp,38,↑,down,↓,0.7824159999727271,False,15,-1,0,7
Y2-S2-287M23,8,680,AS,exp,46,←,left,←,0.5597007000469603,True,16,-1,0,7
Y2-S2-287M23,8,681,AS,exp,47,→,right,→,0.5006461999728344,True,16,-1,0,7
Y2-S2-287M23,8,682,AS,exp,43,←,left,←,0.5220144999912009,True,16,1,1,8
Y2-S2-287M23,8,683,AS,exp,49,↑,down,↓,0.5380056999856606,False,15,-1,1,9
Y2-S2-287M23,8,684,AS,exp,27,↓,down,↓,0.6256902000168338,True,16,-1,0,9
Y2-S2-287M23,8,685,AS,exp,44,→,right,→,0.5566977999988012,True,16,-1,0,9
Y2-S2-287M23,8,686,AS,exp,31,←,left,←,0.6325754999998026,True,16,1,1,10
Y2-S2-287M23,8,687,AS,exp,26,↑,left,←,0.8457915000035428,False,15,-1,1,11
Y2-S2-287M23,8,688,AS,exp,39,↓,down,↓,0.5675928000127897,True,16,-1,0,11
Y2-S2-287M23,8,689,AS,exp,38,→,right,→,0.5674310000031255,True,16,-1,0,11
Y2-S2-287M23,8,690,AS,exp,47,↓,down,↓,0.5570259999949485,True,16,1,1,12
Y2-S2-287M23,8,691,AS,exp,26,→,right,→,0.7200014000409283,True,15,1,0,12
Y2-S2-287M23,8,692,AS,exp,25,←,left,←,0.6003824999788776,True,15,1,0,12
Y2-S2-287M23,8,693,AS,exp,47,↑,down,↓,0.6420947999577038,False,15,-1,1,13
Y2-S2-287M23,8,694,AS,exp,35,←,left,←,0.622229500033427,True,16,-1,0,13
Y2-S2-287M23,8,695,AS,exp,36,↓,up,↑,1.2551255999715067,False,16,-1,0,13
Y2-S2-287M23,8,696,AS,exp,44,→,right,→,0.5191438000183553,True,17,-1,0,13
Y2-S2-287M23,8,697,AS,exp,43,↑,up,↑,0.5540596999926493,True,17,-1,0,13
Y2-S2-287M23,8,698,AS,exp,41,↓,down,↓,0.6774058999726549,True,17,1,1,14
Y2-S2-287M23,8,699,AS,exp,43,↑,up,↑,0.708609500026796,True,16,1,0,14
Y2-S2-287M23,8,700,AS,exp,49,←,left,←,0.6452285999548621,True,16,1,0,14
Y2-S2-287M23,8,701,AS,exp,32,↓,down,↓,0.555860800028313,True,16,1,0,14
Y2-S2-287M23,8,702,AS,exp,45,←,left,←,0.683748800016474,True,15,1,0,14
Y2-S2-287M23,8,703,AS,exp,33,→,right,→,0.5461279000155628,True,15,1,0,14
Y2-S2-287M23,8,704,AS,exp,38,↑,up,↑,0.7321902000112459,True,15,1,0,14
Y2-S2-287M23,8,705,AS,exp,28,→,right,→,0.6199861000059173,True,14,1,0,14
Y2-S2-287M23,8,706,AS,exp,36,↓,down,↓,0.7427526999963447,True,14,1,0,14
Y2-S2-287M23,8,707,AS,exp,36,←,left,←,0.5081924999831244,True,14,1,0,14
Y2-S2-287M23,8,708,AS,exp,40,→,right,→,0.6398499999777414,True,13,1,0,14
Y2-S2-287M23,8,709,AS,exp,25,↑,down,↓,0.6162164999986999,False,13,-1,1,15
Y2-S2-287M23,8,710,AS,exp,41,←,right,→,0.4838115000165999,False,14,-1,0,15
Y2-S2-287M23,8,711,AS,exp,33,↑,up,↑,1.3333169999532402,True,15,-1,0,15
Y2-S2-287M23,8,712,AS,exp,38,↓,down,↓,0.6319496000069194,True,15,-1,0,15
Y2-S2-287M23,8,713,AS,exp,43,←,left,←,0.5971260999795049,True,15,1,1,16
