PART_ID,Block_no,Trial_no,Block_type,Trial_type,CSI,Stim_letter,Key_pressed,letter_choose,Rt,Corr,Stimulus Time,Level,Reversal,Revs_count
Y2-S2-184K25,1,1,PS,train,34,↓,down,↓,0.8372775999596342,True,30,-,-,-
Y2-S2-184K25,1,2,PS,train,41,←,left,←,0.6788149999920279,True,30,-,-,-
Y2-S2-184K25,1,3,PS,train,38,↓,down,↓,0.724205799982883,True,30,-,-,-
Y2-S2-184K25,1,4,PS,train,36,↑,up,↑,0.77906410000287,True,30,-,-,-
Y2-S2-184K25,1,5,PS,train,28,↓,down,↓,0.7078729999484494,True,30,-,-,-
Y2-S2-184K25,1,6,PS,train,38,↑,up,↑,0.6338731000432745,True,30,-,-,-
Y2-S2-184K25,1,7,PS,train,38,→,right,→,0.6008444000035524,True,30,-,-,-
Y2-S2-184K25,1,8,PS,train,41,↑,up,↑,0.911020900006406,True,30,-,-,-
Y2-S2-184K25,1,9,PS,train,29,↓,down,↓,0.4833592000650242,True,30,-,-,-
Y2-S2-184K25,1,10,PS,train,49,←,left,←,0.617210799944587,True,30,-,-,-
Y2-S2-184K25,2,11,AS,train,28,↓,down,↓,0.6176271999720484,True,45,-,-,-
Y2-S2-184K25,2,12,AS,train,48,→,right,→,0.8340788000496104,True,45,-,-,-
Y2-S2-184K25,2,13,AS,train,35,↑,up,↑,0.7178251000586897,True,45,-,-,-
Y2-S2-184K25,2,14,AS,train,37,←,left,←,1.044691100018099,True,45,-,-,-
Y2-S2-184K25,2,15,AS,train,44,→,right,→,0.7014368999516591,True,45,-,-,-
Y2-S2-184K25,2,16,AS,train,30,←,left,←,0.7011914000613615,True,45,-,-,-
Y2-S2-184K25,2,17,AS,train,32,↓,down,↓,1.7996651000576094,True,45,-,-,-
Y2-S2-184K25,2,18,AS,train,44,←,left,←,0.6676326999440789,True,45,-,-,-
Y2-S2-184K25,2,19,AS,train,43,↓,down,↓,0.7837626000400633,True,45,-,-,-
Y2-S2-184K25,2,20,AS,train,30,←,left,←,0.6012496999464929,True,45,-,-,-
Y2-S2-184K25,-,21,PS,adaptive,25,↓,down,↓,0.5818535999860615,True,10,0,0,0
Y2-S2-184K25,-,22,PS,adaptive,34,←,left,←,1.0672141999239102,True,10,0,0,0
Y2-S2-184K25,-,23,PS,adaptive,43,↓,down,↓,0.8556395000778139,True,10,1,0,0
Y2-S2-184K25,-,24,PS,adaptive,27,→,right,→,0.7074086000211537,True,9,1,0,0
Y2-S2-184K25,-,25,PS,adaptive,31,←,left,←,0.634014799958095,True,9,1,0,0
Y2-S2-184K25,-,26,PS,adaptive,42,→,right,→,0.7558582000201568,True,9,1,0,0
Y2-S2-184K25,-,27,PS,adaptive,42,←,left,←,0.513552299933508,True,8,1,0,0
Y2-S2-184K25,-,28,PS,adaptive,45,→,up,↑,0.7331346001010388,False,8,-1,1,1
Y2-S2-184K25,-,29,PS,adaptive,32,↓,down,↓,0.6429479999933392,True,9,-1,0,1
Y2-S2-184K25,-,30,PS,adaptive,41,←,left,←,0.6295451000332832,True,9,-1,0,1
Y2-S2-184K25,-,31,PS,adaptive,30,↓,down,↓,0.6187058000359684,True,9,1,1,2
Y2-S2-184K25,-,32,PS,adaptive,50,→,right,→,0.34886250004637986,True,8,1,0,2
Y2-S2-184K25,-,33,PS,adaptive,39,↓,up,↑,0.7349943000590429,False,8,-1,1,3
Y2-S2-184K25,-,34,PS,adaptive,26,→,right,→,0.5420794999226928,True,9,-1,0,3
Y2-S2-184K25,-,35,PS,adaptive,47,↑,down,↓,0.5339833999751136,False,9,-1,0,3
Y2-S2-184K25,-,36,PS,adaptive,28,←,left,←,0.53893500007689,True,10,-1,0,3
Y2-S2-184K25,-,37,PS,adaptive,46,→,down,↓,0.9500597999431193,False,10,-1,0,3
Y2-S2-184K25,-,38,PS,adaptive,37,↑,right,→,0.5980829000473022,False,11,-1,0,3
Y2-S2-184K25,-,39,PS,adaptive,32,↓,down,↓,0.6946748999180272,True,12,-1,0,3
Y2-S2-184K25,-,40,PS,adaptive,49,←,right,→,0.618385500041768,False,12,-1,0,3
Y2-S2-184K25,-,41,PS,adaptive,48,↑,up,↑,0.6885186999570578,True,13,-1,0,3
Y2-S2-184K25,-,42,PS,adaptive,40,↓,down,↓,0.5641197999939322,True,13,-1,0,3
Y2-S2-184K25,-,43,PS,adaptive,36,↑,up,↑,0.8129588000010699,True,13,1,1,4
Y2-S2-184K25,-,44,AS,adaptive,37,←,left,←,0.5199591999407858,True,20,0,0,0
Y2-S2-184K25,-,45,AS,adaptive,36,↑,down,↓,0.9289871999062598,False,20,-1,0,0
Y2-S2-184K25,-,46,AS,adaptive,35,→,right,→,0.5286494999891147,True,21,-1,0,0
Y2-S2-184K25,-,47,AS,adaptive,35,↑,up,↑,0.578156300005503,True,21,-1,0,0
Y2-S2-184K25,-,48,AS,adaptive,43,↓,down,↓,0.9173905999632552,True,21,1,1,1
Y2-S2-184K25,-,49,AS,adaptive,36,→,right,→,0.5789817000040784,True,20,1,0,1
Y2-S2-184K25,-,50,AS,adaptive,48,↑,up,↑,0.5290159999858588,True,20,1,0,1
Y2-S2-184K25,-,51,AS,adaptive,50,↓,down,↓,0.5806534999283031,True,20,1,0,1
Y2-S2-184K25,-,52,AS,adaptive,42,←,left,←,0.5590349000412971,True,19,1,0,1
Y2-S2-184K25,-,53,AS,adaptive,34,→,left,←,0.6157404000405222,False,19,-1,1,2
Y2-S2-184K25,-,54,AS,adaptive,30,←,left,←,0.6293383999727666,True,20,-1,0,2
Y2-S2-184K25,-,55,AS,adaptive,35,→,right,→,0.3506881999783218,True,20,-1,0,2
Y2-S2-184K25,-,56,AS,adaptive,36,←,left,←,0.6623539000283927,True,20,1,1,3
Y2-S2-184K25,-,57,AS,adaptive,42,↓,down,↓,0.8988460999680683,True,19,1,0,3
Y2-S2-184K25,-,58,AS,adaptive,28,←,right,→,0.881173999980092,False,19,-1,1,4
Y2-S2-184K25,1,59,AS,intra_train,38,↓,down,↓,0.5836439999984577,True,30,-,-,-
Y2-S2-184K25,1,60,AS,intra_train,31,←,left,←,0.7675936000887305,True,30,-,-,-
Y2-S2-184K25,1,61,AS,intra_train,46,↑,up,↑,0.7157157999463379,True,30,-,-,-
Y2-S2-184K25,1,62,AS,intra_train,42,←,left,←,1.355765699991025,True,30,-,-,-
Y2-S2-184K25,1,63,AS,intra_train,46,↓,down,↓,1.0350821000756696,True,30,-,-,-
Y2-S2-184K25,1,64,AS,exp,42,→,right,→,0.5700954999774694,True,20,0,0,0
Y2-S2-184K25,1,65,AS,exp,42,↓,down,↓,0.6118197999894619,True,20,0,0,0
Y2-S2-184K25,1,66,AS,exp,45,←,down,↓,0.8857259000651538,False,20,-1,0,0
Y2-S2-184K25,1,67,AS,exp,35,↓,down,↓,0.6276498000370339,True,21,-1,0,0
Y2-S2-184K25,1,68,AS,exp,34,↑,up,↑,0.5365720000118017,True,21,-1,0,0
Y2-S2-184K25,1,69,AS,exp,35,←,left,←,0.6159868000540882,True,21,1,1,1
Y2-S2-184K25,1,70,AS,exp,27,↑,up,↑,0.5209619000088423,True,20,1,0,1
Y2-S2-184K25,1,71,AS,exp,36,↓,down,↓,0.6057859000284225,True,20,1,0,1
Y2-S2-184K25,1,72,AS,exp,48,→,right,→,0.5811922999564558,True,20,1,0,1
Y2-S2-184K25,1,73,AS,exp,25,←,left,←,0.7010789000196382,True,19,1,0,1
Y2-S2-184K25,1,74,AS,exp,27,↑,up,↑,0.5286052000010386,True,19,1,0,1
Y2-S2-184K25,1,75,AS,exp,39,↓,down,↓,0.5577026000246406,True,19,1,0,1
Y2-S2-184K25,1,76,AS,exp,46,←,left,←,0.7612487999722362,True,18,1,0,1
Y2-S2-184K25,1,77,AS,exp,40,↑,up,↑,0.9442806999431923,True,18,1,0,1
Y2-S2-184K25,1,78,AS,exp,25,→,right,→,0.8558703999733552,True,18,1,0,1
Y2-S2-184K25,1,79,AS,exp,35,←,right,→,0.8649128000251949,False,17,-1,1,2
Y2-S2-184K25,1,80,AS,exp,41,↑,up,↑,0.5336916000815108,True,18,-1,0,2
Y2-S2-184K25,1,81,AS,exp,50,←,left,←,0.6858888999558985,True,18,-1,0,2
Y2-S2-184K25,1,82,AS,exp,48,→,right,→,0.5575578999705613,True,18,1,1,3
Y2-S2-184K25,1,83,AS,exp,32,←,left,←,0.6853815000504255,True,17,1,0,3
Y2-S2-184K25,1,84,AS,exp,32,↓,down,↓,0.9121884999331087,True,17,1,0,3
Y2-S2-184K25,1,85,AS,exp,37,↑,up,↑,0.5743268999503925,True,17,1,0,3
Y2-S2-184K25,1,86,AS,exp,36,←,left,←,0.5479410999687389,True,16,1,0,3
Y2-S2-184K25,1,87,AS,exp,26,↓,down,↓,0.4986823999788612,True,16,1,0,3
Y2-S2-184K25,1,88,AS,exp,50,←,left,←,0.5524605000391603,True,16,1,0,3
Y2-S2-184K25,1,89,AS,exp,28,↓,up,↑,0.6801277999766171,False,15,-1,1,4
Y2-S2-184K25,1,90,AS,exp,27,←,left,←,0.6293678999645635,True,16,-1,0,4
Y2-S2-184K25,1,91,AS,exp,31,↑,down,↓,0.856552500044927,False,16,-1,0,4
Y2-S2-184K25,1,92,AS,exp,49,→,right,→,0.5170565000735223,True,17,-1,0,4
Y2-S2-184K25,1,93,AS,exp,38,↓,down,↓,0.5839527000207454,True,17,-1,0,4
Y2-S2-184K25,1,94,AS,exp,27,↑,up,↑,0.5253119999542832,True,17,1,1,5
Y2-S2-184K25,1,95,AS,exp,33,→,right,→,0.5360428999410942,True,16,1,0,5
Y2-S2-184K25,1,96,AS,exp,44,↓,up,↑,0.9149757999693975,False,16,-1,1,6
Y2-S2-184K25,1,97,AS,exp,43,→,right,→,0.5470825999509543,True,17,-1,0,6
Y2-S2-184K25,1,98,AS,exp,50,↓,down,↓,0.5476122000254691,True,17,-1,0,6
Y2-S2-184K25,1,99,AS,exp,50,→,right,→,0.49021159997209907,True,17,1,1,7
Y2-S2-184K25,1,100,AS,exp,34,←,left,←,0.5678823000052944,True,16,1,0,7
Y2-S2-184K25,1,101,AS,exp,31,→,right,→,0.8193156999768689,True,16,1,0,7
Y2-S2-184K25,1,102,AS,exp,26,↓,down,↓,0.7204625000013039,True,16,1,0,7
Y2-S2-184K25,1,103,AS,exp,33,↑,up,↑,0.4180216999957338,True,15,1,0,7
Y2-S2-184K25,1,104,AS,exp,47,↓,left,←,0.8226497999858111,False,15,-1,1,8
Y2-S2-184K25,1,105,AS,exp,45,←,down,↓,0.6075044999597594,False,16,-1,0,8
Y2-S2-184K25,1,106,AS,exp,46,↓,left,←,0.5103410999290645,False,17,-1,0,8
Y2-S2-184K25,1,107,AS,exp,48,→,right,→,0.5543011999689043,True,18,-1,0,8
Y2-S2-184K25,1,108,AS,exp,29,↑,up,↑,0.3838188999798149,True,18,-1,0,8
Y2-S2-184K25,1,109,AS,exp,36,→,right,→,0.39994189993012697,True,18,1,1,9
Y2-S2-184K25,1,110,AS,exp,50,↑,right,→,0.9962815999751911,False,17,-1,1,10
Y2-S2-184K25,1,111,AS,exp,30,←,right,→,0.7663037000456825,False,18,-1,0,10
Y2-S2-184K25,1,112,AS,exp,40,↓,up,↑,0.9511092000175267,False,19,-1,0,10
Y2-S2-184K25,1,113,AS,exp,41,↑,up,↑,0.5803823000751436,True,20,-1,0,10
Y2-S2-184K25,1,114,AS,exp,36,→,right,→,0.5670350999571383,True,20,-1,0,10
Y2-S2-184K25,1,115,AS,exp,33,←,left,←,0.7655142999719828,True,20,1,1,11
Y2-S2-184K25,1,116,AS,exp,26,↓,down,↓,0.7992404999677092,True,19,1,0,11
Y2-S2-184K25,1,117,AS,exp,29,←,left,←,0.5243927000556141,True,19,1,0,11
Y2-S2-184K25,1,118,AS,exp,36,↓,down,↓,0.5852198000065982,True,19,1,0,11
Y2-S2-184K25,1,119,AS,exp,41,←,no_key,no_letter,-1.0,False,18,-1,1,12
Y2-S2-184K25,1,120,AS,exp,48,→,right,→,0.6664308999897912,True,19,-1,0,12
Y2-S2-184K25,1,121,AS,exp,32,↓,right,→,0.8970541999442503,False,19,-1,0,12
Y2-S2-184K25,1,122,AS,exp,46,→,right,→,0.5363677000859752,True,20,-1,0,12
Y2-S2-184K25,1,123,AS,exp,29,←,left,←,0.6534046999877319,True,20,-1,0,12
Y2-S2-184K25,1,124,AS,exp,43,→,right,→,0.5453812999185175,True,20,1,1,13
Y2-S2-184K25,1,125,AS,exp,36,↓,down,↓,0.7020600999239832,True,19,1,0,13
Y2-S2-184K25,1,126,AS,exp,27,→,right,→,0.4343125999439508,True,19,1,0,13
Y2-S2-184K25,1,127,AS,exp,43,←,right,→,0.9269425999373198,False,19,-1,1,14
Y2-S2-184K25,1,128,AS,exp,37,↑,up,↑,0.5138843000167981,True,20,-1,0,14
Y2-S2-184K25,1,129,AS,exp,46,↓,right,→,0.5975532999727875,False,20,-1,0,14
Y2-S2-184K25,1,130,AS,exp,28,↑,up,↑,0.8387564999284223,True,21,-1,0,14
Y2-S2-184K25,1,131,AS,exp,43,←,left,←,1.3109713000012562,True,21,-1,0,14
Y2-S2-184K25,1,132,AS,exp,36,→,right,→,0.5265948999440297,True,21,1,1,15
Y2-S2-184K25,1,133,AS,exp,34,↑,right,→,0.8459991000127047,False,20,-1,1,16
Y2-S2-184K25,2,134,PS,intra_train,48,→,right,→,0.60100660007447,True,18,-,-,-
Y2-S2-184K25,2,135,PS,intra_train,40,↓,down,↓,0.6380568000022322,True,18,-,-,-
Y2-S2-184K25,2,136,PS,intra_train,41,→,right,→,0.7188226999714971,True,18,-,-,-
Y2-S2-184K25,2,137,PS,intra_train,30,↑,up,↑,0.567176999989897,True,18,-,-,-
Y2-S2-184K25,2,138,PS,intra_train,35,→,right,→,0.4729273000266403,True,18,-,-,-
Y2-S2-184K25,2,139,PS,exp,28,↑,right,→,0.6053564000176266,False,12,-1,0,0
Y2-S2-184K25,2,140,PS,exp,49,←,left,←,0.5413160000462085,True,13,-1,0,0
Y2-S2-184K25,2,141,PS,exp,47,↑,up,↑,0.7439732999773696,True,13,-1,0,0
Y2-S2-184K25,2,142,PS,exp,26,→,right,→,0.42760260007344186,True,13,1,1,1
Y2-S2-184K25,2,143,PS,exp,32,↓,up,↑,0.9214439000934362,False,12,-1,1,2
Y2-S2-184K25,2,144,PS,exp,25,→,right,→,0.47771010000724345,True,13,-1,0,2
Y2-S2-184K25,2,145,PS,exp,42,↓,down,↓,0.6239496000343934,True,13,-1,0,2
Y2-S2-184K25,2,146,PS,exp,28,←,right,→,0.7081104000099003,False,13,-1,0,2
Y2-S2-184K25,2,147,PS,exp,42,↑,right,→,0.9024073999607936,False,14,-1,0,2
Y2-S2-184K25,2,148,PS,exp,41,→,right,→,0.5469457000726834,True,15,-1,0,2
Y2-S2-184K25,2,149,PS,exp,28,↓,down,↓,0.6160027000587434,True,15,-1,0,2
Y2-S2-184K25,2,150,PS,exp,26,→,right,→,0.4750298000872135,True,15,1,1,3
Y2-S2-184K25,2,151,PS,exp,34,←,left,←,0.6803791000274941,True,14,1,0,3
Y2-S2-184K25,2,152,PS,exp,30,→,right,→,0.6451274000573903,True,14,1,0,3
Y2-S2-184K25,2,153,PS,exp,34,↑,up,↑,0.6266007999656722,True,14,1,0,3
Y2-S2-184K25,2,154,PS,exp,33,←,left,←,0.7280758999986574,True,13,1,0,3
Y2-S2-184K25,2,155,PS,exp,37,→,right,→,0.5634566000662744,True,13,1,0,3
Y2-S2-184K25,2,156,PS,exp,31,←,right,→,0.7370146000757813,False,13,-1,1,4
Y2-S2-184K25,2,157,PS,exp,31,↓,down,↓,0.7411462999880314,True,14,-1,0,4
Y2-S2-184K25,2,158,PS,exp,40,←,left,←,0.6080640000291169,True,14,-1,0,4
Y2-S2-184K25,2,159,PS,exp,50,→,right,→,0.7029195000650361,True,14,1,1,5
Y2-S2-184K25,2,160,PS,exp,32,↓,down,↓,0.6338808999862522,True,13,1,0,5
Y2-S2-184K25,2,161,PS,exp,27,←,left,←,0.603374500060454,True,13,1,0,5
Y2-S2-184K25,2,162,PS,exp,37,↓,down,↓,0.5633735000155866,True,13,1,0,5
Y2-S2-184K25,2,163,PS,exp,31,→,right,→,0.41475579992402345,True,12,1,0,5
Y2-S2-184K25,2,164,PS,exp,40,↑,up,↑,0.7729839000385255,True,12,1,0,5
Y2-S2-184K25,2,165,PS,exp,29,←,left,←,0.6598495999351144,True,12,1,0,5
Y2-S2-184K25,2,166,PS,exp,43,→,right,→,0.6298630000092089,True,11,1,0,5
Y2-S2-184K25,2,167,PS,exp,33,↑,up,↑,0.5320303000044078,True,11,1,0,5
Y2-S2-184K25,2,168,PS,exp,50,←,right,→,0.38853300001937896,False,11,-1,1,6
Y2-S2-184K25,2,169,PS,exp,35,↑,up,↑,0.5359648999292403,True,12,-1,0,6
Y2-S2-184K25,2,170,PS,exp,41,←,left,←,0.5513595999218524,True,12,-1,0,6
Y2-S2-184K25,2,171,PS,exp,38,↓,right,→,0.7197294000070542,False,12,-1,0,6
Y2-S2-184K25,2,172,PS,exp,48,←,left,←,0.6557288999902084,True,13,-1,0,6
Y2-S2-184K25,2,173,PS,exp,50,→,right,→,0.42063670000061393,True,13,-1,0,6
Y2-S2-184K25,2,174,PS,exp,41,←,left,←,0.7143858000636101,True,13,1,1,7
Y2-S2-184K25,2,175,PS,exp,25,→,right,→,0.44007849995978177,True,12,1,0,7
Y2-S2-184K25,2,176,PS,exp,43,←,left,←,0.5449434999609366,True,12,1,0,7
Y2-S2-184K25,2,177,PS,exp,31,→,right,→,0.3873837999999523,True,12,1,0,7
Y2-S2-184K25,2,178,PS,exp,40,←,left,←,0.4160437999526039,True,11,1,0,7
Y2-S2-184K25,2,179,PS,exp,25,↓,down,↓,0.6538600999629125,True,11,1,0,7
Y2-S2-184K25,2,180,PS,exp,48,←,left,←,0.5519987000152469,True,11,1,0,7
Y2-S2-184K25,2,181,PS,exp,43,↑,left,←,1.160619799979031,False,10,-1,1,8
Y2-S2-184K25,2,182,PS,exp,38,→,right,→,0.400040699983947,True,11,-1,0,8
Y2-S2-184K25,2,183,PS,exp,50,↓,down,↓,0.5395235000178218,True,11,-1,0,8
Y2-S2-184K25,2,184,PS,exp,31,↑,right,→,0.8975680000148714,False,11,-1,0,8
Y2-S2-184K25,2,185,PS,exp,47,→,right,→,0.49240659992210567,True,12,-1,0,8
Y2-S2-184K25,2,186,PS,exp,38,↑,up,↑,0.7005472000455484,True,12,-1,0,8
Y2-S2-184K25,2,187,PS,exp,35,←,left,←,0.6006980000529438,True,12,1,1,9
Y2-S2-184K25,2,188,PS,exp,46,↑,up,↑,0.6767036000965163,True,11,1,0,9
Y2-S2-184K25,2,189,PS,exp,36,↓,up,↑,0.8321319000096992,False,11,-1,1,10
Y2-S2-184K25,2,190,PS,exp,42,←,left,←,0.49322269996628165,True,12,-1,0,10
Y2-S2-184K25,2,191,PS,exp,35,→,right,→,0.5485769000370055,True,12,-1,0,10
Y2-S2-184K25,2,192,PS,exp,42,←,right,→,0.5801774000283331,False,12,-1,0,10
Y2-S2-184K25,2,193,PS,exp,28,↓,down,↓,0.7398487000027671,True,13,-1,0,10
Y2-S2-184K25,2,194,PS,exp,33,←,left,←,0.4996706999372691,True,13,-1,0,10
Y2-S2-184K25,2,195,PS,exp,28,→,right,→,0.5770771000534296,True,13,1,1,11
Y2-S2-184K25,2,196,PS,exp,46,↑,up,↑,0.607432599994354,True,12,1,0,11
Y2-S2-184K25,2,197,PS,exp,50,↓,down,↓,0.5915394999319687,True,12,1,0,11
Y2-S2-184K25,2,198,PS,exp,48,←,right,→,0.6993839000351727,False,12,-1,1,12
Y2-S2-184K25,2,199,PS,exp,27,↓,down,↓,0.5789050000021234,True,13,-1,0,12
Y2-S2-184K25,2,200,PS,exp,25,→,right,→,0.48357500007841736,True,13,-1,0,12
Y2-S2-184K25,2,201,PS,exp,44,↑,up,↑,0.5298703999724239,True,13,1,1,13
Y2-S2-184K25,2,202,PS,exp,32,→,right,→,0.5799603000050411,True,12,1,0,13
Y2-S2-184K25,2,203,PS,exp,36,←,left,←,0.4897895000176504,True,12,1,0,13
Y2-S2-184K25,2,204,PS,exp,31,↓,down,↓,0.6433682000497356,True,12,1,0,13
Y2-S2-184K25,2,205,PS,exp,29,↑,right,→,0.6621443000622094,False,11,-1,1,14
Y2-S2-184K25,2,206,PS,exp,47,→,right,→,0.46457279997412115,True,12,-1,0,14
Y2-S2-184K25,2,207,PS,exp,29,↑,up,↑,0.63542679999955,True,12,-1,0,14
Y2-S2-184K25,2,208,PS,exp,50,↓,down,↓,0.5850654999958351,True,12,1,1,15
Y2-S2-184K25,2,209,PS,exp,40,←,right,→,0.5085535000544041,False,11,-1,1,16
Y2-S2-184K25,3,210,PS,intra_train,41,↑,up,↑,0.5432103000348434,True,18,-,-,-
Y2-S2-184K25,3,211,PS,intra_train,26,←,left,←,0.5282897000433877,True,18,-,-,-
Y2-S2-184K25,3,212,PS,intra_train,48,→,right,→,0.5006832999642938,True,18,-,-,-
Y2-S2-184K25,3,213,PS,intra_train,42,↓,up,↑,1.0186251000268385,False,18,-,-,-
Y2-S2-184K25,3,214,PS,intra_train,28,←,up,↑,0.9181080999551341,False,18,-,-,-
Y2-S2-184K25,3,215,PS,exp,39,↓,down,↓,0.6374910000013188,True,12,0,0,0
Y2-S2-184K25,3,216,PS,exp,26,↑,up,↑,0.5761737999273464,True,12,0,0,0
Y2-S2-184K25,3,217,PS,exp,48,↓,down,↓,0.5553004000103101,True,12,1,0,0
Y2-S2-184K25,3,218,PS,exp,26,↑,up,↑,0.6343824000796303,True,11,1,0,0
Y2-S2-184K25,3,219,PS,exp,33,→,right,→,0.5223404000280425,True,11,1,0,0
Y2-S2-184K25,3,220,PS,exp,41,←,left,←,0.5825307999039069,True,11,1,0,0
Y2-S2-184K25,3,221,PS,exp,25,↑,right,→,0.8637645000126213,False,10,-1,1,1
Y2-S2-184K25,3,222,PS,exp,37,→,up,↑,0.49481189996004105,False,11,-1,0,1
Y2-S2-184K25,3,223,PS,exp,27,↑,up,↑,0.4306216000113636,True,12,-1,0,1
Y2-S2-184K25,3,224,PS,exp,27,↓,down,↓,0.6407475000014529,True,12,-1,0,1
Y2-S2-184K25,3,225,PS,exp,37,↑,up,↑,0.4114853000501171,True,12,1,1,2
Y2-S2-184K25,3,226,PS,exp,50,→,right,→,0.49041929992381483,True,11,1,0,2
Y2-S2-184K25,3,227,PS,exp,43,↑,up,↑,0.5324476000387222,True,11,1,0,2
Y2-S2-184K25,3,228,PS,exp,48,↓,up,↑,0.6866365999449044,False,11,-1,1,3
Y2-S2-184K25,3,229,PS,exp,29,↑,up,↑,0.7662993000121787,True,12,-1,0,3
Y2-S2-184K25,3,230,PS,exp,49,→,right,→,0.49664140003733337,True,12,-1,0,3
Y2-S2-184K25,3,231,PS,exp,33,↓,down,↓,0.5655823000706732,True,12,1,1,4
Y2-S2-184K25,3,232,PS,exp,25,→,right,→,0.6107970000011846,True,11,1,0,4
Y2-S2-184K25,3,233,PS,exp,33,←,left,←,0.4965355999302119,True,11,1,0,4
Y2-S2-184K25,3,234,PS,exp,43,→,right,→,0.6305626999819651,True,11,1,0,4
Y2-S2-184K25,3,235,PS,exp,29,↓,right,→,0.6350354999303818,False,10,-1,1,5
Y2-S2-184K25,3,236,PS,exp,39,↑,up,↑,0.5584944000001997,True,11,-1,0,5
Y2-S2-184K25,3,237,PS,exp,33,→,right,→,0.47849859995767474,True,11,-1,0,5
Y2-S2-184K25,3,238,PS,exp,43,↑,right,→,0.5774195999838412,False,11,-1,0,5
Y2-S2-184K25,3,239,PS,exp,29,↓,down,↓,0.5899990000762045,True,12,-1,0,5
Y2-S2-184K25,3,240,PS,exp,45,→,right,→,0.4437105000251904,True,12,-1,0,5
Y2-S2-184K25,3,241,PS,exp,38,←,right,→,0.5794459999306127,False,12,-1,0,5
Y2-S2-184K25,3,242,PS,exp,27,↑,up,↑,0.578958599944599,True,13,-1,0,5
Y2-S2-184K25,3,243,PS,exp,38,→,right,→,1.1163169000064954,True,13,-1,0,5
Y2-S2-184K25,3,244,PS,exp,40,↑,up,↑,0.6872630999423563,True,13,1,1,6
Y2-S2-184K25,3,245,PS,exp,42,→,right,→,0.483910100068897,True,12,1,0,6
Y2-S2-184K25,3,246,PS,exp,25,←,right,→,0.8311332000885159,False,12,-1,1,7
Y2-S2-184K25,3,247,PS,exp,28,↑,up,↑,0.8156539000337943,True,13,-1,0,7
Y2-S2-184K25,3,248,PS,exp,29,←,right,→,1.4173942999914289,False,13,-1,0,7
Y2-S2-184K25,3,249,PS,exp,45,→,right,→,0.562111199949868,True,14,-1,0,7
Y2-S2-184K25,3,250,PS,exp,43,↓,down,↓,0.7165018999949098,True,14,-1,0,7
Y2-S2-184K25,3,251,PS,exp,27,→,up,↑,0.9846818000078201,False,14,-1,0,7
Y2-S2-184K25,3,252,PS,exp,34,↓,down,↓,0.7552238000789657,True,15,-1,0,7
Y2-S2-184K25,3,253,PS,exp,38,↑,up,↑,0.8587559000588953,True,15,-1,0,7
Y2-S2-184K25,3,254,PS,exp,50,←,left,←,0.6072938999859616,True,15,1,1,8
Y2-S2-184K25,3,255,PS,exp,48,→,right,→,0.5506169999716803,True,14,1,0,8
Y2-S2-184K25,3,256,PS,exp,46,↑,up,↑,0.5430269000353292,True,14,1,0,8
Y2-S2-184K25,3,257,PS,exp,30,←,right,→,0.639698899933137,False,14,-1,1,9
Y2-S2-184K25,3,258,PS,exp,32,↑,left,←,0.7733203999232501,False,15,-1,0,9
Y2-S2-184K25,3,259,PS,exp,34,←,left,←,0.5315712000010535,True,16,-1,0,9
Y2-S2-184K25,3,260,PS,exp,29,↑,up,↑,0.6775161999976262,True,16,-1,0,9
Y2-S2-184K25,3,261,PS,exp,31,↓,right,→,1.0243599000386894,False,16,-1,0,9
Y2-S2-184K25,3,262,PS,exp,39,↑,up,↑,0.6467556999996305,True,17,-1,0,9
Y2-S2-184K25,3,263,PS,exp,49,←,left,←,0.7249656000640243,True,17,-1,0,9
Y2-S2-184K25,3,264,PS,exp,43,↓,right,→,0.8354297999758273,False,17,-1,0,9
Y2-S2-184K25,3,265,PS,exp,38,→,right,→,0.6107543000252917,True,18,-1,0,9
Y2-S2-184K25,3,266,PS,exp,34,←,left,←,1.4663389000343159,True,18,-1,0,9
Y2-S2-184K25,3,267,PS,exp,29,→,right,→,0.48224839998874813,True,18,1,1,10
Y2-S2-184K25,3,268,PS,exp,44,↑,up,↑,0.5006863999878988,True,17,1,0,10
Y2-S2-184K25,3,269,PS,exp,38,←,left,←,1.3430019998922944,True,17,1,0,10
Y2-S2-184K25,3,270,PS,exp,27,↑,up,↑,0.5006445000180975,True,17,1,0,10
Y2-S2-184K25,3,271,PS,exp,41,←,left,←,0.4600042999954894,True,16,1,0,10
Y2-S2-184K25,3,272,PS,exp,43,↑,up,↑,0.5207838999340311,True,16,1,0,10
Y2-S2-184K25,3,273,PS,exp,37,←,left,←,0.4435005000559613,True,16,1,0,10
Y2-S2-184K25,3,274,PS,exp,37,→,right,→,0.5844243000028655,True,15,1,0,10
Y2-S2-184K25,3,275,PS,exp,44,↓,down,↓,1.1621628999710083,True,15,1,0,10
Y2-S2-184K25,3,276,PS,exp,27,←,left,←,0.8457778999581933,True,15,1,0,10
Y2-S2-184K25,3,277,PS,exp,45,→,up,↑,0.5476817999733612,False,14,-1,1,11
Y2-S2-184K25,3,278,PS,exp,46,←,right,→,0.3506133999908343,False,15,-1,0,11
Y2-S2-184K25,3,279,PS,exp,31,→,up,↑,0.496900099911727,False,16,-1,0,11
Y2-S2-184K25,3,280,PS,exp,28,↓,down,↓,0.8281155999284238,True,17,-1,0,11
Y2-S2-184K25,3,281,PS,exp,27,←,left,←,0.5390127000864595,True,17,-1,0,11
Y2-S2-184K25,3,282,PS,exp,45,↓,down,↓,0.7396171999862418,True,17,1,1,12
Y2-S2-184K25,3,283,PS,exp,25,←,left,←,0.5340062000323087,True,16,1,0,12
Y2-S2-184K25,3,284,PS,exp,50,→,right,→,0.5030228000832722,True,16,1,0,12
Y2-S2-184K25,3,285,PS,exp,42,↓,down,↓,0.6200258999597281,True,16,1,0,12
Y2-S2-184K25,3,286,PS,exp,27,→,right,→,0.4718867000192404,True,15,1,0,12
Y2-S2-184K25,3,287,PS,exp,49,↓,down,↓,0.5023383999941871,True,15,1,0,12
Y2-S2-184K25,3,288,PS,exp,42,↑,up,↑,0.49991759995464236,True,15,1,0,12
Y2-S2-184K25,3,289,PS,exp,49,↓,down,↓,0.7263425000710413,True,14,1,0,12
Y2-S2-184K25,3,290,PS,exp,36,←,left,←,0.6835882000159472,True,14,1,0,12
Y2-S2-184K25,3,291,PS,exp,45,→,right,→,0.45758559997193515,True,14,1,0,12
Y2-S2-184K25,3,292,PS,exp,42,←,right,→,1.095382699975744,False,13,-1,1,13
Y2-S2-184K25,3,293,PS,exp,36,→,right,→,0.5149587000487372,True,14,-1,0,13
Y2-S2-184K25,3,294,PS,exp,28,←,left,←,0.6743530000094324,True,14,-1,0,13
Y2-S2-184K25,3,295,PS,exp,29,→,left,←,0.7703552000457421,False,14,-1,0,13
Y2-S2-184K25,3,296,PS,exp,25,↑,up,↑,0.47909849998541176,True,15,-1,0,13
Y2-S2-184K25,3,297,PS,exp,39,→,right,→,0.48924370005261153,True,15,-1,0,13
Y2-S2-184K25,3,298,PS,exp,42,↑,down,↓,0.9949624999426305,False,15,-1,0,13
Y2-S2-184K25,3,299,PS,exp,49,←,left,←,0.5038867999101058,True,16,-1,0,13
Y2-S2-184K25,3,300,PS,exp,50,↓,down,↓,0.6548741000005975,True,16,-1,0,13
Y2-S2-184K25,3,301,PS,exp,38,→,right,→,0.4963016000110656,True,16,1,1,14
Y2-S2-184K25,3,302,PS,exp,50,↓,down,↓,0.6327665999997407,True,15,1,0,14
Y2-S2-184K25,3,303,PS,exp,49,→,left,←,0.8825390000129119,False,15,-1,1,15
Y2-S2-184K25,3,304,PS,exp,30,↓,down,↓,0.7720356000354514,True,16,-1,0,15
Y2-S2-184K25,3,305,PS,exp,42,↑,down,↓,0.9149285000748932,False,16,-1,0,15
Y2-S2-184K25,3,306,PS,exp,34,→,right,→,0.700048099970445,True,17,-1,0,15
Y2-S2-184K25,3,307,PS,exp,49,↓,down,↓,0.5813876000465825,True,17,-1,0,15
Y2-S2-184K25,3,308,PS,exp,50,←,right,→,0.8282521999208257,False,17,-1,0,15
Y2-S2-184K25,3,309,PS,exp,25,→,right,→,0.5095014999387786,True,18,-1,0,15
Y2-S2-184K25,3,310,PS,exp,40,←,left,←,0.7361276000738144,True,18,-1,0,15
Y2-S2-184K25,3,311,PS,exp,47,↑,up,↑,0.7000040999846533,True,18,1,1,16
Y2-S2-184K25,4,312,AS,intra_train,36,↓,down,↓,0.7460413000080734,True,30,-,-,-
Y2-S2-184K25,4,313,AS,intra_train,50,↑,up,↑,0.4839050000300631,True,30,-,-,-
Y2-S2-184K25,4,314,AS,intra_train,28,→,right,→,0.7123218000633642,True,30,-,-,-
Y2-S2-184K25,4,315,AS,intra_train,48,←,left,←,0.4675813999492675,True,30,-,-,-
Y2-S2-184K25,4,316,AS,intra_train,32,↓,down,↓,0.8558715999824926,True,30,-,-,-
Y2-S2-184K25,4,317,AS,exp,31,←,left,←,0.5145912999287248,True,20,0,0,0
Y2-S2-184K25,4,318,AS,exp,44,↑,up,↑,0.6717364999931306,True,20,0,0,0
Y2-S2-184K25,4,319,AS,exp,40,→,right,→,0.5325715999351814,True,20,1,0,0
Y2-S2-184K25,4,320,AS,exp,27,↑,up,↑,0.7017962000099942,True,19,1,0,0
Y2-S2-184K25,4,321,AS,exp,36,→,right,→,0.5119460999267176,True,19,1,0,0
Y2-S2-184K25,4,322,AS,exp,34,↓,down,↓,0.53701790003106,True,19,1,0,0
Y2-S2-184K25,4,323,AS,exp,49,←,right,→,0.5606426000595093,False,18,-1,1,1
Y2-S2-184K25,4,324,AS,exp,39,↑,up,↑,1.272351200110279,True,19,-1,0,1
Y2-S2-184K25,4,325,AS,exp,38,↓,down,↓,0.8244274000171572,True,19,-1,0,1
Y2-S2-184K25,4,326,AS,exp,25,←,left,←,0.7651396000292152,True,19,1,1,2
Y2-S2-184K25,4,327,AS,exp,30,→,up,↑,1.0300825000740588,False,18,-1,1,3
Y2-S2-184K25,4,328,AS,exp,29,←,left,←,0.632127899909392,True,19,-1,0,3
Y2-S2-184K25,4,329,AS,exp,33,↓,up,↑,0.780234899953939,False,19,-1,0,3
Y2-S2-184K25,4,330,AS,exp,37,↑,right,→,0.604258400038816,False,20,-1,0,3
Y2-S2-184K25,4,331,AS,exp,49,←,left,←,0.6381899999687448,True,21,-1,0,3
Y2-S2-184K25,4,332,AS,exp,37,↑,up,↑,0.6414967000018805,True,21,-1,0,3
Y2-S2-184K25,4,333,AS,exp,27,↓,down,↓,0.7696510000387207,True,21,1,1,4
Y2-S2-184K25,4,334,AS,exp,36,↑,up,↑,0.7315345000242814,True,20,1,0,4
Y2-S2-184K25,4,335,AS,exp,34,→,right,→,0.5730167001020163,True,20,1,0,4
Y2-S2-184K25,4,336,AS,exp,50,↑,up,↑,0.567162899998948,True,20,1,0,4
Y2-S2-184K25,4,337,AS,exp,48,→,left,←,0.7162907000165433,False,19,-1,1,5
Y2-S2-184K25,4,338,AS,exp,36,←,left,←,0.5384626999730244,True,20,-1,0,5
Y2-S2-184K25,4,339,AS,exp,31,→,right,→,0.7176563999382779,True,20,-1,0,5
Y2-S2-184K25,4,340,AS,exp,40,↑,up,↑,1.1372816000366583,True,20,1,1,6
Y2-S2-184K25,4,341,AS,exp,30,←,left,←,0.817224400001578,True,19,1,0,6
Y2-S2-184K25,4,342,AS,exp,36,→,left,←,0.814783199923113,False,19,-1,1,7
Y2-S2-184K25,4,343,AS,exp,31,←,left,←,0.6954262999352068,True,20,-1,0,7
Y2-S2-184K25,4,344,AS,exp,38,↑,left,←,1.0382148999487981,False,20,-1,0,7
Y2-S2-184K25,4,345,AS,exp,28,↓,up,↑,1.7798617000225931,False,21,-1,0,7
Y2-S2-184K25,4,346,AS,exp,28,↑,up,↑,1.2111942999763414,True,22,-1,0,7
Y2-S2-184K25,4,347,AS,exp,27,←,left,←,1.317885800031945,True,22,-1,0,7
Y2-S2-184K25,4,348,AS,exp,35,↑,up,↑,0.5697126000886783,True,22,1,1,8
Y2-S2-184K25,4,349,AS,exp,25,←,left,←,0.6108971999492496,True,21,1,0,8
Y2-S2-184K25,4,350,AS,exp,32,↓,up,↑,0.7732412999030203,False,21,-1,1,9
Y2-S2-184K25,4,351,AS,exp,36,←,left,←,0.8000750999199226,True,22,-1,0,9
Y2-S2-184K25,4,352,AS,exp,30,→,right,→,0.6807951000519097,True,22,-1,0,9
Y2-S2-184K25,4,353,AS,exp,25,↓,down,↓,0.7530434000073001,True,22,1,1,10
Y2-S2-184K25,4,354,AS,exp,43,→,right,→,0.467038800008595,True,21,1,0,10
Y2-S2-184K25,4,355,AS,exp,37,↑,up,↑,1.1773397999349982,True,21,1,0,10
Y2-S2-184K25,4,356,AS,exp,39,↓,down,↓,0.6609543000813574,True,21,1,0,10
Y2-S2-184K25,4,357,AS,exp,25,←,left,←,0.7984462999738753,True,20,1,0,10
Y2-S2-184K25,4,358,AS,exp,27,↓,down,↓,0.780142099945806,True,20,1,0,10
Y2-S2-184K25,4,359,AS,exp,28,↑,up,↑,0.5231459999922663,True,20,1,0,10
Y2-S2-184K25,4,360,AS,exp,27,↓,down,↓,0.5975922000361606,True,19,1,0,10
Y2-S2-184K25,4,361,AS,exp,26,←,left,←,0.6421049000928178,True,19,1,0,10
Y2-S2-184K25,4,362,AS,exp,27,→,right,→,0.5265251999953762,True,19,1,0,10
Y2-S2-184K25,4,363,AS,exp,31,←,left,←,0.7268482999643311,True,18,1,0,10
Y2-S2-184K25,4,364,AS,exp,32,↓,down,↓,0.8490636999486014,True,18,1,0,10
Y2-S2-184K25,4,365,AS,exp,45,↑,up,↑,0.7413689999375492,True,18,1,0,10
Y2-S2-184K25,4,366,AS,exp,37,→,right,→,0.6185571999521926,True,17,1,0,10
Y2-S2-184K25,4,367,AS,exp,37,←,left,←,0.6658086000243202,True,17,1,0,10
Y2-S2-184K25,4,368,AS,exp,26,↑,up,↑,0.6892329999245703,True,17,1,0,10
Y2-S2-184K25,4,369,AS,exp,37,↓,down,↓,0.7003319000359625,True,16,1,0,10
Y2-S2-184K25,4,370,AS,exp,42,↑,up,↑,0.787610900006257,True,16,1,0,10
Y2-S2-184K25,4,371,AS,exp,31,←,left,←,0.9773734000045806,True,16,1,0,10
Y2-S2-184K25,4,372,AS,exp,48,↑,up,↑,0.5628566000377759,True,15,1,0,10
Y2-S2-184K25,4,373,AS,exp,26,↓,down,↓,0.5966857000021264,True,15,1,0,10
Y2-S2-184K25,4,374,AS,exp,45,↑,up,↑,0.9709972999989986,True,15,1,0,10
Y2-S2-184K25,4,375,AS,exp,40,←,left,←,0.6083442999515682,True,14,1,0,10
Y2-S2-184K25,4,376,AS,exp,38,↑,up,↑,0.7432517000706866,True,14,1,0,10
Y2-S2-184K25,4,377,AS,exp,26,→,right,→,0.9735010999720544,True,14,1,0,10
Y2-S2-184K25,4,378,AS,exp,35,↑,up,↑,0.486209399998188,True,13,1,0,10
Y2-S2-184K25,4,379,AS,exp,40,→,left,←,0.642239399952814,False,13,-1,1,11
Y2-S2-184K25,4,380,AS,exp,46,↑,up,↑,0.47557000000961125,True,14,-1,0,11
Y2-S2-184K25,4,381,AS,exp,30,←,left,←,0.6806240000296384,True,14,-1,0,11
Y2-S2-184K25,4,382,AS,exp,50,→,right,→,0.47726549999788404,True,14,1,1,12
Y2-S2-184K25,4,383,AS,exp,33,←,right,→,0.5986015000380576,False,13,-1,1,13
Y2-S2-184K25,4,384,AS,exp,49,↓,up,↑,0.7958605999592692,False,14,-1,0,13
Y2-S2-184K25,4,385,AS,exp,34,↑,up,↑,0.4686426999978721,True,15,-1,0,13
Y2-S2-184K25,4,386,AS,exp,33,↓,down,↓,0.730348699958995,True,15,-1,0,13
Y2-S2-184K25,4,387,AS,exp,25,↑,up,↑,0.6796694000950083,True,15,1,1,14
Y2-S2-184K25,4,388,AS,exp,40,↓,down,↓,0.5623854999430478,True,14,1,0,14
Y2-S2-184K25,4,389,AS,exp,46,→,up,↑,0.7297304999083281,False,14,-1,1,15
Y2-S2-184K25,4,390,AS,exp,31,↑,down,↓,0.7971209000097588,False,15,-1,0,15
Y2-S2-184K25,4,391,AS,exp,50,↓,down,↓,0.5895547999534756,True,16,-1,0,15
Y2-S2-184K25,4,392,AS,exp,39,↑,up,↑,0.5020897999638692,True,16,-1,0,15
Y2-S2-184K25,4,393,AS,exp,45,↓,down,↓,0.5832753001013771,True,16,1,1,16
Y2-S2-184K25,5,394,AS,intra_train,34,↑,right,→,1.2210153000196442,False,30,-,-,-
Y2-S2-184K25,5,395,AS,intra_train,39,←,left,←,0.5169614999322221,True,30,-,-,-
Y2-S2-184K25,5,396,AS,intra_train,44,→,right,→,0.6962199999252334,True,30,-,-,-
Y2-S2-184K25,5,397,AS,intra_train,49,←,left,←,0.5002930000191554,True,30,-,-,-
Y2-S2-184K25,5,398,AS,intra_train,42,→,right,→,0.5664765000110492,True,30,-,-,-
Y2-S2-184K25,5,399,AS,exp,42,←,left,←,1.1911431000335142,True,20,0,0,0
Y2-S2-184K25,5,400,AS,exp,44,↑,no_key,no_letter,-1.0,False,20,-1,0,0
Y2-S2-184K25,5,401,AS,exp,30,→,right,→,0.7211691000266001,True,21,-1,0,0
Y2-S2-184K25,5,402,AS,exp,50,↓,down,↓,0.7738195999991149,True,21,-1,0,0
Y2-S2-184K25,5,403,AS,exp,26,→,right,→,0.5471821000101045,True,21,1,1,1
Y2-S2-184K25,5,404,AS,exp,32,↑,up,↑,0.9690649999538437,True,20,1,0,1
Y2-S2-184K25,5,405,AS,exp,43,→,right,→,0.6968531999737024,True,20,1,0,1
Y2-S2-184K25,5,406,AS,exp,32,↓,down,↓,0.6701623999979347,True,20,1,0,1
Y2-S2-184K25,5,407,AS,exp,43,↑,up,↑,0.5228019000496715,True,19,1,0,1
Y2-S2-184K25,5,408,AS,exp,47,←,left,←,0.6229214000049978,True,19,1,0,1
Y2-S2-184K25,5,409,AS,exp,29,↓,down,↓,0.6800923999398947,True,19,1,0,1
Y2-S2-184K25,5,410,AS,exp,25,→,up,↑,0.5327462999848649,False,18,-1,1,2
Y2-S2-184K25,5,411,AS,exp,26,↑,right,→,0.6727108999621123,False,19,-1,0,2
Y2-S2-184K25,5,412,AS,exp,39,→,right,→,0.5699959999183193,True,20,-1,0,2
Y2-S2-184K25,5,413,AS,exp,50,↓,down,↓,1.0053160999668762,True,20,-1,0,2
Y2-S2-184K25,5,414,AS,exp,32,↑,up,↑,1.5693153000902385,True,20,1,1,3
Y2-S2-184K25,5,415,AS,exp,38,→,right,→,0.5044404999352992,True,19,1,0,3
Y2-S2-184K25,5,416,AS,exp,30,←,left,←,0.690465799998492,True,19,1,0,3
Y2-S2-184K25,5,417,AS,exp,46,→,right,→,0.5298566999845207,True,19,1,0,3
Y2-S2-184K25,5,418,AS,exp,37,↑,up,↑,0.7945882000494748,True,18,1,0,3
Y2-S2-184K25,5,419,AS,exp,43,→,left,←,0.6465460999170318,False,18,-1,1,4
Y2-S2-184K25,5,420,AS,exp,29,↑,up,↑,0.5079638999886811,True,19,-1,0,4
Y2-S2-184K25,5,421,AS,exp,45,←,left,←,0.5699776000110433,True,19,-1,0,4
Y2-S2-184K25,5,422,AS,exp,34,↑,up,↑,0.5877590000163764,True,19,1,1,5
Y2-S2-184K25,5,423,AS,exp,49,←,left,←,0.7012620000168681,True,18,1,0,5
Y2-S2-184K25,5,424,AS,exp,45,→,right,→,0.5481384000740945,True,18,1,0,5
Y2-S2-184K25,5,425,AS,exp,32,↑,up,↑,0.6116571000311524,True,18,1,0,5
Y2-S2-184K25,5,426,AS,exp,39,↓,up,↑,0.8068319999147207,False,17,-1,1,6
Y2-S2-184K25,5,427,AS,exp,49,↑,up,↑,0.6726336000720039,True,18,-1,0,6
Y2-S2-184K25,5,428,AS,exp,26,←,left,←,0.5298109999857843,True,18,-1,0,6
Y2-S2-184K25,5,429,AS,exp,29,→,left,←,0.4709463999606669,False,18,-1,0,6
Y2-S2-184K25,5,430,AS,exp,25,←,left,←,0.661926900036633,True,19,-1,0,6
Y2-S2-184K25,5,431,AS,exp,47,↓,down,↓,0.61731670005247,True,19,-1,0,6
Y2-S2-184K25,5,432,AS,exp,47,→,right,→,0.5071150999283418,True,19,1,1,7
Y2-S2-184K25,5,433,AS,exp,35,↓,up,↑,0.8028835000004619,False,18,-1,1,8
Y2-S2-184K25,5,434,AS,exp,25,↑,up,↑,0.7150860000401735,True,19,-1,0,8
Y2-S2-184K25,5,435,AS,exp,45,↓,up,↑,0.5868115000193939,False,19,-1,0,8
Y2-S2-184K25,5,436,AS,exp,43,←,left,←,0.6591702000005171,True,20,-1,0,8
Y2-S2-184K25,5,437,AS,exp,29,→,right,→,0.45057340001221746,True,20,-1,0,8
Y2-S2-184K25,5,438,AS,exp,35,←,left,←,0.8124168999493122,True,20,1,1,9
Y2-S2-184K25,5,439,AS,exp,32,↑,up,↑,0.5574294000398368,True,19,1,0,9
Y2-S2-184K25,5,440,AS,exp,44,↓,down,↓,0.5765923999715596,True,19,1,0,9
Y2-S2-184K25,5,441,AS,exp,26,←,left,←,0.7492366000078619,True,19,1,0,9
Y2-S2-184K25,5,442,AS,exp,38,→,left,←,0.653829500079155,False,18,-1,1,10
Y2-S2-184K25,5,443,AS,exp,39,←,left,←,0.49848650000058115,True,19,-1,0,10
Y2-S2-184K25,5,444,AS,exp,44,↓,down,↓,0.67151430004742,True,19,-1,0,10
Y2-S2-184K25,5,445,AS,exp,42,↑,up,↑,1.1415838999673724,True,19,1,1,11
Y2-S2-184K25,5,446,AS,exp,36,↓,right,→,1.005019799922593,False,18,-1,1,12
Y2-S2-184K25,5,447,AS,exp,31,←,up,↑,1.4182758000679314,False,19,-1,0,12
Y2-S2-184K25,5,448,AS,exp,37,↓,down,↓,0.5841143999714404,True,20,-1,0,12
Y2-S2-184K25,5,449,AS,exp,38,↑,up,↑,0.6416205998975784,True,20,-1,0,12
Y2-S2-184K25,5,450,AS,exp,30,→,right,→,0.4672644999809563,True,20,1,1,13
Y2-S2-184K25,5,451,AS,exp,26,←,left,←,0.9617831000359729,True,19,1,0,13
Y2-S2-184K25,5,452,AS,exp,47,→,right,→,0.48996330006048083,True,19,1,0,13
Y2-S2-184K25,5,453,AS,exp,28,↑,up,↑,0.5276267000008374,True,19,1,0,13
Y2-S2-184K25,5,454,AS,exp,27,←,left,←,0.5464606999885291,True,18,1,0,13
Y2-S2-184K25,5,455,AS,exp,33,↑,up,↑,0.8680466000223532,True,18,1,0,13
Y2-S2-184K25,5,456,AS,exp,49,←,left,←,0.8072265000082552,True,18,1,0,13
Y2-S2-184K25,5,457,AS,exp,29,→,right,→,0.5425600999733433,True,17,1,0,13
Y2-S2-184K25,5,458,AS,exp,32,↓,down,↓,0.6246213000267744,True,17,1,0,13
Y2-S2-184K25,5,459,AS,exp,33,←,left,←,0.5887816000031307,True,17,1,0,13
Y2-S2-184K25,5,460,AS,exp,49,↑,up,↑,0.6949765000026673,True,16,1,0,13
Y2-S2-184K25,5,461,AS,exp,32,↓,down,↓,0.5912515999516472,True,16,1,0,13
Y2-S2-184K25,5,462,AS,exp,34,←,left,←,1.1066563000204042,True,16,1,0,13
Y2-S2-184K25,5,463,AS,exp,31,↑,up,↑,0.7519193000625819,True,15,1,0,13
Y2-S2-184K25,5,464,AS,exp,40,←,left,←,0.5086119000334293,True,15,1,0,13
Y2-S2-184K25,5,465,AS,exp,32,↑,up,↑,0.8153251999756321,True,15,1,0,13
Y2-S2-184K25,5,466,AS,exp,46,←,left,←,0.5946364999981597,True,14,1,0,13
Y2-S2-184K25,5,467,AS,exp,44,↓,down,↓,0.6116663999855518,True,14,1,0,13
Y2-S2-184K25,5,468,AS,exp,47,→,right,→,0.7823801999911666,True,14,1,0,13
Y2-S2-184K25,5,469,AS,exp,48,←,right,→,0.6821848000399768,False,13,-1,1,14
Y2-S2-184K25,5,470,AS,exp,26,↓,down,↓,0.6501898999558762,True,14,-1,0,14
Y2-S2-184K25,5,471,AS,exp,35,↑,up,↑,0.5175707000307739,True,14,-1,0,14
Y2-S2-184K25,5,472,AS,exp,41,→,left,←,0.5993889999808744,False,14,-1,0,14
Y2-S2-184K25,5,473,AS,exp,32,↓,right,→,0.6737445000326261,False,15,-1,0,14
Y2-S2-184K25,5,474,AS,exp,45,→,right,→,0.5669032000005245,True,16,-1,0,14
Y2-S2-184K25,5,475,AS,exp,29,↑,up,↑,0.5255713999504223,True,16,-1,0,14
Y2-S2-184K25,5,476,AS,exp,30,↓,down,↓,0.6950446999398991,True,16,1,1,15
Y2-S2-184K25,5,477,AS,exp,25,↑,down,↓,0.9332975000143051,False,15,-1,1,16
Y2-S2-184K25,6,478,PS,intra_train,25,←,left,←,0.5038116000359878,True,18,-,-,-
Y2-S2-184K25,6,479,PS,intra_train,32,↑,up,↑,0.4840443000430241,True,18,-,-,-
Y2-S2-184K25,6,480,PS,intra_train,42,→,right,→,0.5885210999986157,True,18,-,-,-
Y2-S2-184K25,6,481,PS,intra_train,25,←,left,←,0.6451409000437707,True,18,-,-,-
Y2-S2-184K25,6,482,PS,intra_train,37,↑,up,↑,0.6493937000632286,True,18,-,-,-
Y2-S2-184K25,6,483,PS,exp,41,←,right,→,0.5420557999750599,False,12,-1,0,0
Y2-S2-184K25,6,484,PS,exp,48,↑,up,↑,0.8617987999459729,True,13,-1,0,0
Y2-S2-184K25,6,485,PS,exp,36,←,left,←,0.5003510999958962,True,13,-1,0,0
Y2-S2-184K25,6,486,PS,exp,35,↑,up,↑,0.5179287999635562,True,13,1,1,1
Y2-S2-184K25,6,487,PS,exp,47,→,right,→,0.5448417000006884,True,12,1,0,1
Y2-S2-184K25,6,488,PS,exp,26,←,right,→,0.5491350000957027,False,12,-1,1,2
Y2-S2-184K25,6,489,PS,exp,39,↑,up,↑,0.6398214999353513,True,13,-1,0,2
Y2-S2-184K25,6,490,PS,exp,43,↓,up,↑,0.704626299906522,False,13,-1,0,2
Y2-S2-184K25,6,491,PS,exp,44,↑,up,↑,0.49936879996676,True,14,-1,0,2
Y2-S2-184K25,6,492,PS,exp,31,↓,down,↓,0.6483182000229135,True,14,-1,0,2
Y2-S2-184K25,6,493,PS,exp,50,↑,up,↑,0.9521378000499681,True,14,1,1,3
Y2-S2-184K25,6,494,PS,exp,48,→,right,→,0.5240039000054821,True,13,1,0,3
Y2-S2-184K25,6,495,PS,exp,40,↓,down,↓,0.601617900072597,True,13,1,0,3
Y2-S2-184K25,6,496,PS,exp,27,←,left,←,0.5311528999591246,True,13,1,0,3
Y2-S2-184K25,6,497,PS,exp,29,→,right,→,0.5007076000329107,True,12,1,0,3
Y2-S2-184K25,6,498,PS,exp,33,↑,right,→,0.4736134000122547,False,12,-1,1,4
Y2-S2-184K25,6,499,PS,exp,39,←,left,←,0.6725957000162452,True,13,-1,0,4
Y2-S2-184K25,6,500,PS,exp,36,↓,down,↓,0.600072699948214,True,13,-1,0,4
Y2-S2-184K25,6,501,PS,exp,25,→,left,←,0.5351784999947995,False,13,-1,0,4
Y2-S2-184K25,6,502,PS,exp,27,↑,up,↑,0.463393299956806,True,14,-1,0,4
Y2-S2-184K25,6,503,PS,exp,32,→,right,→,0.45854520006105304,True,14,-1,0,4
Y2-S2-184K25,6,504,PS,exp,30,↑,up,↑,0.42899649997707456,True,14,1,1,5
Y2-S2-184K25,6,505,PS,exp,48,←,left,←,0.5061084000626579,True,13,1,0,5
Y2-S2-184K25,6,506,PS,exp,29,↓,down,↓,0.9415885000489652,True,13,1,0,5
Y2-S2-184K25,6,507,PS,exp,28,←,left,←,0.44506950001232326,True,13,1,0,5
Y2-S2-184K25,6,508,PS,exp,36,↓,down,↓,0.7165184000041336,True,12,1,0,5
Y2-S2-184K25,6,509,PS,exp,34,↑,up,↑,0.7012786000268534,True,12,1,0,5
Y2-S2-184K25,6,510,PS,exp,36,←,left,←,0.6045064000645652,True,12,1,0,5
Y2-S2-184K25,6,511,PS,exp,47,↑,up,↑,0.4558021000120789,True,11,1,0,5
Y2-S2-184K25,6,512,PS,exp,32,←,left,←,0.679231800022535,True,11,1,0,5
Y2-S2-184K25,6,513,PS,exp,46,↑,up,↑,0.5757471000542864,True,11,1,0,5
Y2-S2-184K25,6,514,PS,exp,39,↓,down,↓,0.6370119999628514,True,10,1,0,5
Y2-S2-184K25,6,515,PS,exp,26,→,right,→,0.5268379999324679,True,10,1,0,5
Y2-S2-184K25,6,516,PS,exp,30,↑,up,↑,0.5269608000526205,True,10,1,0,5
Y2-S2-184K25,6,517,PS,exp,28,←,left,←,0.4564253999851644,True,9,1,0,5
Y2-S2-184K25,6,518,PS,exp,29,→,right,→,0.45473380002658814,True,9,1,0,5
Y2-S2-184K25,6,519,PS,exp,26,↑,up,↑,0.6467937000561506,True,9,1,0,5
Y2-S2-184K25,6,520,PS,exp,39,←,left,←,0.406650900025852,True,8,1,0,5
Y2-S2-184K25,6,521,PS,exp,47,→,right,→,0.46194830001331866,True,8,1,0,5
Y2-S2-184K25,6,522,PS,exp,44,↓,down,↓,0.5564998999470845,True,8,1,0,5
Y2-S2-184K25,6,523,PS,exp,35,←,right,→,0.6181607999606058,False,7,-1,1,6
Y2-S2-184K25,6,524,PS,exp,39,↑,up,↑,0.4782834999496117,True,8,-1,0,6
Y2-S2-184K25,6,525,PS,exp,30,→,right,→,0.46632929996121675,True,8,-1,0,6
Y2-S2-184K25,6,526,PS,exp,44,↑,down,↓,0.591287299990654,False,8,-1,0,6
Y2-S2-184K25,6,527,PS,exp,30,↓,down,↓,0.6132210999494419,True,9,-1,0,6
Y2-S2-184K25,6,528,PS,exp,34,←,left,←,0.7143990999320522,True,9,-1,0,6
Y2-S2-184K25,6,529,PS,exp,27,→,right,→,0.5807793999556452,True,9,1,1,7
Y2-S2-184K25,6,530,PS,exp,30,↑,right,→,0.7282413999782875,False,8,-1,1,8
Y2-S2-184K25,6,531,PS,exp,43,→,right,→,0.5679394999751821,True,9,-1,0,8
Y2-S2-184K25,6,532,PS,exp,40,←,left,←,0.7467570999870077,True,9,-1,0,8
Y2-S2-184K25,6,533,PS,exp,46,→,right,→,0.4601311000296846,True,9,1,1,9
Y2-S2-184K25,6,534,PS,exp,37,↓,down,↓,0.6043993000639603,True,8,1,0,9
Y2-S2-184K25,6,535,PS,exp,25,←,left,←,0.46184419991914183,True,8,1,0,9
Y2-S2-184K25,6,536,PS,exp,25,↓,right,→,0.4815293999854475,False,8,-1,1,10
Y2-S2-184K25,6,537,PS,exp,38,→,right,→,0.4912176999496296,True,9,-1,0,10
Y2-S2-184K25,6,538,PS,exp,45,↓,up,↑,0.3652466000057757,False,9,-1,0,10
Y2-S2-184K25,6,539,PS,exp,39,↑,up,↑,0.4716196999652311,True,10,-1,0,10
Y2-S2-184K25,6,540,PS,exp,43,→,right,→,0.7631923999870196,True,10,-1,0,10
Y2-S2-184K25,6,541,PS,exp,50,↑,up,↑,0.44995439995545894,True,10,1,1,11
Y2-S2-184K25,6,542,PS,exp,33,←,left,←,0.4835738999536261,True,9,1,0,11
Y2-S2-184K25,6,543,PS,exp,25,↓,down,↓,0.7517489000456408,True,9,1,0,11
Y2-S2-184K25,6,544,PS,exp,48,→,up,↑,0.6915383000159636,False,9,-1,1,12
Y2-S2-184K25,6,545,PS,exp,38,←,right,→,0.6404237999813631,False,10,-1,0,12
Y2-S2-184K25,6,546,PS,exp,34,↑,left,←,0.8768591000698507,False,11,-1,0,12
Y2-S2-184K25,6,547,PS,exp,48,←,left,←,0.4152693001087755,True,12,-1,0,12
Y2-S2-184K25,6,548,PS,exp,48,↓,down,↓,0.576283400063403,True,12,-1,0,12
Y2-S2-184K25,6,549,PS,exp,36,↑,up,↑,0.40751040005125105,True,12,1,1,13
Y2-S2-184K25,6,550,PS,exp,42,↓,down,↓,0.5096078000497073,True,11,1,0,13
Y2-S2-184K25,6,551,PS,exp,42,←,left,←,0.5791357000125572,True,11,1,0,13
Y2-S2-184K25,6,552,PS,exp,36,↑,up,↑,0.8621461999136955,True,11,1,0,13
Y2-S2-184K25,6,553,PS,exp,40,↓,down,↓,0.5027349999872968,True,10,1,0,13
Y2-S2-184K25,6,554,PS,exp,32,←,up,↑,0.5616059000603855,False,10,-1,1,14
Y2-S2-184K25,6,555,PS,exp,44,↓,down,↓,0.366266299970448,True,11,-1,0,14
Y2-S2-184K25,6,556,PS,exp,47,←,up,↑,0.5525253999512643,False,11,-1,0,14
Y2-S2-184K25,6,557,PS,exp,39,↑,up,↑,0.4326024999609217,True,12,-1,0,14
Y2-S2-184K25,6,558,PS,exp,42,←,left,←,0.4465830000117421,True,12,-1,0,14
Y2-S2-184K25,6,559,PS,exp,50,↓,down,↓,0.6422689000610262,True,12,1,1,15
Y2-S2-184K25,6,560,PS,exp,44,→,right,→,0.5941747999750078,True,11,1,0,15
Y2-S2-184K25,6,561,PS,exp,36,↓,left,←,0.889049299992621,False,11,-1,1,16
Y2-S2-184K25,7,562,PS,intra_train,31,↑,down,↓,1.5948628999758512,False,18,-,-,-
Y2-S2-184K25,7,563,PS,intra_train,44,←,up,↑,0.6828325000824407,False,18,-,-,-
Y2-S2-184K25,7,564,PS,intra_train,48,↓,down,↓,0.589097399963066,True,18,-,-,-
Y2-S2-184K25,7,565,PS,intra_train,43,→,right,→,0.6343329000519589,True,18,-,-,-
Y2-S2-184K25,7,566,PS,intra_train,46,↓,no_key,no_letter,-1.0,False,18,-,-,-
Y2-S2-184K25,7,567,PS,exp,29,↑,up,↑,0.5171055999817327,True,12,0,0,0
Y2-S2-184K25,7,568,PS,exp,41,↓,down,↓,0.6055283999303356,True,12,0,0,0
Y2-S2-184K25,7,569,PS,exp,43,←,left,←,0.4772711000405252,True,12,1,0,0
Y2-S2-184K25,7,570,PS,exp,43,↑,right,→,0.6223264000145718,False,11,-1,1,1
Y2-S2-184K25,7,571,PS,exp,36,↓,down,↓,0.7073720999760553,True,12,-1,0,1
Y2-S2-184K25,7,572,PS,exp,39,→,right,→,0.5219163000583649,True,12,-1,0,1
Y2-S2-184K25,7,573,PS,exp,36,←,left,←,0.4466169999213889,True,12,1,1,2
Y2-S2-184K25,7,574,PS,exp,49,→,right,→,0.5192132999654859,True,11,1,0,2
Y2-S2-184K25,7,575,PS,exp,41,←,left,←,0.541930100065656,True,11,1,0,2
Y2-S2-184K25,7,576,PS,exp,42,↑,up,↑,0.5045613000402227,True,11,1,0,2
Y2-S2-184K25,7,577,PS,exp,44,←,left,←,0.6746469000354409,True,10,1,0,2
Y2-S2-184K25,7,578,PS,exp,36,→,right,→,0.47964329994283617,True,10,1,0,2
Y2-S2-184K25,7,579,PS,exp,44,←,left,←,0.5501809000270441,True,10,1,0,2
Y2-S2-184K25,7,580,PS,exp,45,↑,up,↑,0.4642155000474304,True,9,1,0,2
Y2-S2-184K25,7,581,PS,exp,50,→,right,→,0.5738573999842629,True,9,1,0,2
Y2-S2-184K25,7,582,PS,exp,44,←,left,←,0.7705893999664113,True,9,1,0,2
Y2-S2-184K25,7,583,PS,exp,39,→,right,→,0.5357923000119627,True,8,1,0,2
Y2-S2-184K25,7,584,PS,exp,42,↑,up,↑,0.5444432999938726,True,8,1,0,2
Y2-S2-184K25,7,585,PS,exp,44,↓,down,↓,0.5426733000203967,True,8,1,0,2
Y2-S2-184K25,7,586,PS,exp,42,→,right,→,0.5672307000495493,True,7,1,0,2
Y2-S2-184K25,7,587,PS,exp,42,↑,up,↑,0.46784979989752173,True,7,1,0,2
Y2-S2-184K25,7,588,PS,exp,47,↓,up,↑,0.5046840000431985,False,7,-1,1,3
Y2-S2-184K25,7,589,PS,exp,25,↑,right,→,0.5189107999904081,False,8,-1,0,3
Y2-S2-184K25,7,590,PS,exp,39,↓,down,↓,0.5292796000139788,True,9,-1,0,3
Y2-S2-184K25,7,591,PS,exp,30,→,right,→,0.45866929995827377,True,9,-1,0,3
Y2-S2-184K25,7,592,PS,exp,41,↑,up,↑,0.3865960999391973,True,9,1,1,4
Y2-S2-184K25,7,593,PS,exp,34,→,right,→,0.4917544999625534,True,8,1,0,4
Y2-S2-184K25,7,594,PS,exp,33,←,right,→,0.546292099985294,False,8,-1,1,5
Y2-S2-184K25,7,595,PS,exp,30,→,up,↑,0.5283912000013515,False,9,-1,0,5
Y2-S2-184K25,7,596,PS,exp,47,↑,up,↑,0.5460708999307826,True,10,-1,0,5
Y2-S2-184K25,7,597,PS,exp,25,→,right,→,0.5051450000610203,True,10,-1,0,5
Y2-S2-184K25,7,598,PS,exp,30,↑,up,↑,0.35828149993903935,True,10,1,1,6
Y2-S2-184K25,7,599,PS,exp,36,↓,left,←,0.682797500048764,False,9,-1,1,7
Y2-S2-184K25,7,600,PS,exp,34,↑,right,→,0.7382937000365928,False,10,-1,0,7
Y2-S2-184K25,7,601,PS,exp,37,↓,down,↓,0.5066215000115335,True,11,-1,0,7
Y2-S2-184K25,7,602,PS,exp,47,↑,up,↑,0.4316066999454051,True,11,-1,0,7
Y2-S2-184K25,7,603,PS,exp,35,→,right,→,0.5284129999345168,True,11,1,1,8
Y2-S2-184K25,7,604,PS,exp,31,↑,up,↑,0.4385490999557078,True,10,1,0,8
Y2-S2-184K25,7,605,PS,exp,40,←,left,←,0.5377524000359699,True,10,1,0,8
Y2-S2-184K25,7,606,PS,exp,29,↑,left,←,0.7228511999128386,False,10,-1,1,9
Y2-S2-184K25,7,607,PS,exp,32,↓,down,↓,0.6411541999550536,True,11,-1,0,9
Y2-S2-184K25,7,608,PS,exp,25,←,up,↑,0.6327620000811294,False,11,-1,0,9
Y2-S2-184K25,7,609,PS,exp,44,→,right,→,0.5331076000584289,True,12,-1,0,9
Y2-S2-184K25,7,610,PS,exp,40,←,left,←,0.5116792999906465,True,12,-1,0,9
Y2-S2-184K25,7,611,PS,exp,26,↑,up,↑,0.6028485000133514,True,12,1,1,10
Y2-S2-184K25,7,612,PS,exp,38,↓,down,↓,0.5693854000419378,True,11,1,0,10
Y2-S2-184K25,7,613,PS,exp,31,↑,right,→,0.506076900055632,False,11,-1,1,11
Y2-S2-184K25,7,614,PS,exp,28,→,right,→,0.5406264000339434,True,12,-1,0,11
Y2-S2-184K25,7,615,PS,exp,46,←,up,↑,0.4359081999864429,False,12,-1,0,11
Y2-S2-184K25,7,616,PS,exp,39,→,right,→,0.5425109999487177,True,13,-1,0,11
Y2-S2-184K25,7,617,PS,exp,40,↓,left,←,0.5810744999907911,False,13,-1,0,11
Y2-S2-184K25,7,618,PS,exp,42,→,right,→,0.45071570004802197,True,14,-1,0,11
Y2-S2-184K25,7,619,PS,exp,28,←,left,←,0.47216410003602505,True,14,-1,0,11
Y2-S2-184K25,7,620,PS,exp,45,↓,down,↓,0.7481188999954611,True,14,1,1,12
Y2-S2-184K25,7,621,PS,exp,46,←,left,←,0.5586938000051305,True,13,1,0,12
Y2-S2-184K25,7,622,PS,exp,26,↓,down,↓,0.7277687999885529,True,13,1,0,12
Y2-S2-184K25,7,623,PS,exp,29,↑,up,↑,0.5409406999824569,True,13,1,0,12
Y2-S2-184K25,7,624,PS,exp,43,→,right,→,0.6284382999874651,True,12,1,0,12
Y2-S2-184K25,7,625,PS,exp,45,↑,up,↑,0.49664549995213747,True,12,1,0,12
Y2-S2-184K25,7,626,PS,exp,48,↓,down,↓,0.7066556999925524,True,12,1,0,12
Y2-S2-184K25,7,627,PS,exp,33,→,right,→,0.767466599936597,True,11,1,0,12
Y2-S2-184K25,7,628,PS,exp,49,←,left,←,0.4493343000067398,True,11,1,0,12
Y2-S2-184K25,7,629,PS,exp,29,→,left,←,0.6382414000108838,False,11,-1,1,13
Y2-S2-184K25,7,630,PS,exp,33,↑,up,↑,1.047388199949637,True,12,-1,0,13
Y2-S2-184K25,7,631,PS,exp,26,↓,down,↓,0.6905446000164375,True,12,-1,0,13
Y2-S2-184K25,7,632,PS,exp,32,←,up,↑,0.7774856000905856,False,12,-1,0,13
Y2-S2-184K25,7,633,PS,exp,36,↑,up,↑,0.4272823000792414,True,13,-1,0,13
Y2-S2-184K25,7,634,PS,exp,46,→,right,→,0.5492365000536665,True,13,-1,0,13
Y2-S2-184K25,7,635,PS,exp,48,↓,up,↑,0.49307830003090203,False,13,-1,0,13
Y2-S2-184K25,7,636,PS,exp,40,←,left,←,1.1082320000277832,True,14,-1,0,13
Y2-S2-184K25,7,637,PS,exp,43,↑,right,→,0.5412336000008509,False,14,-1,0,13
Y2-S2-184K25,7,638,PS,exp,41,→,left,←,0.5101850000210106,False,15,-1,0,13
Y2-S2-184K25,7,639,PS,exp,32,←,left,←,0.46119070006534457,True,16,-1,0,13
Y2-S2-184K25,7,640,PS,exp,47,↓,down,↓,0.6817742999410257,True,16,-1,0,13
Y2-S2-184K25,7,641,PS,exp,48,↑,up,↑,0.4861514000222087,True,16,1,1,14
Y2-S2-184K25,7,642,PS,exp,47,←,left,←,0.6396057000383735,True,15,1,0,14
Y2-S2-184K25,7,643,PS,exp,38,↑,right,→,1.1315986999543384,False,15,-1,1,15
Y2-S2-184K25,7,644,PS,exp,36,↓,down,↓,0.5774515999946743,True,16,-1,0,15
Y2-S2-184K25,7,645,PS,exp,44,↑,up,↑,0.48786720004864037,True,16,-1,0,15
Y2-S2-184K25,7,646,PS,exp,38,↓,down,↓,0.6528919999254867,True,16,1,1,16
Y2-S2-184K25,8,647,AS,intra_train,45,↑,up,↑,0.7132257999619469,True,30,-,-,-
Y2-S2-184K25,8,648,AS,intra_train,38,←,left,←,0.5838272999972105,True,30,-,-,-
Y2-S2-184K25,8,649,AS,intra_train,28,→,right,→,0.45127180009149015,True,30,-,-,-
Y2-S2-184K25,8,650,AS,intra_train,44,↓,down,↓,0.9622841000091285,True,30,-,-,-
Y2-S2-184K25,8,651,AS,intra_train,34,←,left,←,0.36760880006477237,True,30,-,-,-
Y2-S2-184K25,8,652,AS,exp,28,→,right,→,1.2845899999374524,True,20,0,0,0
Y2-S2-184K25,8,653,AS,exp,49,↓,down,↓,0.5962796000530943,True,20,0,0,0
Y2-S2-184K25,8,654,AS,exp,37,→,right,→,0.5073530999943614,True,20,1,0,0
Y2-S2-184K25,8,655,AS,exp,37,↑,down,↓,0.5455532999476418,False,19,-1,1,1
Y2-S2-184K25,8,656,AS,exp,45,→,up,↑,0.9864520000992343,False,20,-1,0,1
Y2-S2-184K25,8,657,AS,exp,45,←,left,←,1.2405566000379622,True,21,-1,0,1
Y2-S2-184K25,8,658,AS,exp,33,↓,down,↓,0.6348240000661463,True,21,-1,0,1
Y2-S2-184K25,8,659,AS,exp,37,→,right,→,0.6558574000373483,True,21,1,1,2
Y2-S2-184K25,8,660,AS,exp,27,←,right,→,0.7164139000233263,False,20,-1,1,3
Y2-S2-184K25,8,661,AS,exp,31,↑,up,↑,0.6204252999741584,True,21,-1,0,3
Y2-S2-184K25,8,662,AS,exp,48,↓,down,↓,0.7917469000676647,True,21,-1,0,3
Y2-S2-184K25,8,663,AS,exp,47,→,right,→,0.6878295999485999,True,21,1,1,4
Y2-S2-184K25,8,664,AS,exp,45,↓,up,↑,1.0439206999726593,False,20,-1,1,5
Y2-S2-184K25,8,665,AS,exp,40,→,down,↓,0.4671031000325456,False,21,-1,0,5
Y2-S2-184K25,8,666,AS,exp,31,↓,up,↑,0.539803700055927,False,22,-1,0,5
Y2-S2-184K25,8,667,AS,exp,39,←,left,←,0.5176167999161407,True,23,-1,0,5
Y2-S2-184K25,8,668,AS,exp,32,↓,down,↓,0.6054918000008911,True,23,-1,0,5
Y2-S2-184K25,8,669,AS,exp,32,↑,up,↑,0.46763590001501143,True,23,1,1,6
Y2-S2-184K25,8,670,AS,exp,40,←,left,←,0.7311389999231324,True,22,1,0,6
Y2-S2-184K25,8,671,AS,exp,46,↓,down,↓,0.8462644000537694,True,22,1,0,6
Y2-S2-184K25,8,672,AS,exp,50,↑,up,↑,0.7821627000812441,True,22,1,0,6
Y2-S2-184K25,8,673,AS,exp,42,↓,down,↓,0.5269102999009192,True,21,1,0,6
Y2-S2-184K25,8,674,AS,exp,30,←,left,←,0.7338915999280289,True,21,1,0,6
Y2-S2-184K25,8,675,AS,exp,37,→,right,→,0.6104997000657022,True,21,1,0,6
Y2-S2-184K25,8,676,AS,exp,35,↓,down,↓,0.6506703000050038,True,20,1,0,6
Y2-S2-184K25,8,677,AS,exp,39,→,right,→,0.6312138000503182,True,20,1,0,6
Y2-S2-184K25,8,678,AS,exp,41,←,left,←,0.7683313000015914,True,20,1,0,6
Y2-S2-184K25,8,679,AS,exp,36,↑,up,↑,1.2806153999408707,True,19,1,0,6
Y2-S2-184K25,8,680,AS,exp,37,→,right,→,0.574908799957484,True,19,1,0,6
Y2-S2-184K25,8,681,AS,exp,38,↑,up,↑,0.870732800103724,True,19,1,0,6
Y2-S2-184K25,8,682,AS,exp,45,←,left,←,1.0298280999995768,True,18,1,0,6
Y2-S2-184K25,8,683,AS,exp,37,↓,up,↑,1.08907210000325,False,18,-1,1,7
Y2-S2-184K25,8,684,AS,exp,49,↑,up,↑,0.9778699999442324,True,19,-1,0,7
Y2-S2-184K25,8,685,AS,exp,38,↓,down,↓,0.548649700009264,True,19,-1,0,7
Y2-S2-184K25,8,686,AS,exp,44,→,right,→,0.4507289999164641,True,19,1,1,8
Y2-S2-184K25,8,687,AS,exp,47,↓,up,↑,0.73063440003898,False,18,-1,1,9
Y2-S2-184K25,8,688,AS,exp,29,→,left,←,0.6589456000365317,False,19,-1,0,9
Y2-S2-184K25,8,689,AS,exp,47,↑,up,↑,0.8149734999751672,True,20,-1,0,9
Y2-S2-184K25,8,690,AS,exp,27,→,right,→,0.6539705999894068,True,20,-1,0,9
Y2-S2-184K25,8,691,AS,exp,46,↓,down,↓,0.5723867000779137,True,20,1,1,10
Y2-S2-184K25,8,692,AS,exp,39,←,left,←,0.4846750000724569,True,19,1,0,10
Y2-S2-184K25,8,693,AS,exp,28,↑,up,↑,0.5383416999829933,True,19,1,0,10
Y2-S2-184K25,8,694,AS,exp,43,←,left,←,0.7786612999625504,True,19,1,0,10
Y2-S2-184K25,8,695,AS,exp,47,↓,down,↓,0.6088639999506995,True,18,1,0,10
Y2-S2-184K25,8,696,AS,exp,44,→,right,→,0.4885477999923751,True,18,1,0,10
Y2-S2-184K25,8,697,AS,exp,39,↓,down,↓,0.5709947999566793,True,18,1,0,10
Y2-S2-184K25,8,698,AS,exp,45,↑,up,↑,0.5483592000091448,True,17,1,0,10
Y2-S2-184K25,8,699,AS,exp,31,←,left,←,0.926043099956587,True,17,1,0,10
Y2-S2-184K25,8,700,AS,exp,48,↑,up,↑,0.6481609999900684,True,17,1,0,10
Y2-S2-184K25,8,701,AS,exp,47,→,right,→,0.7094699000008404,True,16,1,0,10
Y2-S2-184K25,8,702,AS,exp,34,↓,up,↑,0.7439081000629812,False,16,-1,1,11
Y2-S2-184K25,8,703,AS,exp,35,←,left,←,0.6785579000134021,True,17,-1,0,11
Y2-S2-184K25,8,704,AS,exp,47,→,right,→,0.5063974000513554,True,17,-1,0,11
Y2-S2-184K25,8,705,AS,exp,48,←,left,←,0.8822199000278488,True,17,1,1,12
Y2-S2-184K25,8,706,AS,exp,34,↓,down,↓,0.6205980000086129,True,16,1,0,12
Y2-S2-184K25,8,707,AS,exp,49,←,left,←,0.486580100026913,True,16,1,0,12
Y2-S2-184K25,8,708,AS,exp,39,↓,down,↓,0.6644460000097752,True,16,1,0,12
Y2-S2-184K25,8,709,AS,exp,36,←,left,←,0.48824630002491176,True,15,1,0,12
Y2-S2-184K25,8,710,AS,exp,47,↓,down,↓,0.5942983001004905,True,15,1,0,12
Y2-S2-184K25,8,711,AS,exp,28,←,left,←,0.5291028999490663,True,15,1,0,12
Y2-S2-184K25,8,712,AS,exp,32,↓,left,←,1.0941301999846473,False,14,-1,1,13
Y2-S2-184K25,8,713,AS,exp,40,→,left,←,0.6640060999197885,False,15,-1,0,13
Y2-S2-184K25,8,714,AS,exp,30,↑,up,↑,0.5795127999735996,True,16,-1,0,13
Y2-S2-184K25,8,715,AS,exp,42,→,down,↓,0.7921851000282913,False,16,-1,0,13
Y2-S2-184K25,8,716,AS,exp,34,←,up,↑,0.7047939000185579,False,17,-1,0,13
Y2-S2-184K25,8,717,AS,exp,48,↑,up,↑,0.48066979995928705,True,18,-1,0,13
Y2-S2-184K25,8,718,AS,exp,35,→,right,→,0.5426223000977188,True,18,-1,0,13
Y2-S2-184K25,8,719,AS,exp,48,↑,up,↑,0.9945058000739664,True,18,1,1,14
Y2-S2-184K25,8,720,AS,exp,42,→,right,→,0.4870411000447348,True,17,1,0,14
Y2-S2-184K25,8,721,AS,exp,34,↓,down,↓,0.6615577999036759,True,17,1,0,14
Y2-S2-184K25,8,722,AS,exp,39,↑,up,↑,0.46436389989685267,True,17,1,0,14
Y2-S2-184K25,8,723,AS,exp,50,↓,up,↑,0.5197440000483766,False,16,-1,1,15
Y2-S2-184K25,8,724,AS,exp,45,↑,up,↑,0.5223257000325248,True,17,-1,0,15
Y2-S2-184K25,8,725,AS,exp,40,↓,down,↓,0.6672654999420047,True,17,-1,0,15
Y2-S2-184K25,8,726,AS,exp,45,←,up,↑,0.6175133000360802,False,17,-1,0,15
Y2-S2-184K25,8,727,AS,exp,35,↓,down,↓,0.6150594999780878,True,18,-1,0,15
Y2-S2-184K25,8,728,AS,exp,38,↑,left,←,1.1215233999537304,False,18,-1,0,15
Y2-S2-184K25,8,729,AS,exp,40,←,left,←,0.4506064999150112,True,19,-1,0,15
Y2-S2-184K25,8,730,AS,exp,38,↑,up,↑,1.3248732999200001,True,19,-1,0,15
Y2-S2-184K25,8,731,AS,exp,39,↓,down,↓,0.5987902000779286,True,19,1,1,16
