PART_ID,Block_no,Trial_no,Block_type,Trial_type,CSI,Stim_letter,Key_pressed,letter_choose,Rt,Corr,Stimulus Time,Level,Reversal,Revs_count
Y2-S2-035K29,1,1,PS,train,31,→,left,←,0.5339247998781502,False,30,-,-,-
Y2-S2-035K29,1,2,PS,train,32,↑,no_key,no_letter,-1.0,False,30,-,-,-
Y2-S2-035K29,1,3,PS,train,40,←,left,←,0.6341919000260532,True,30,-,-,-
Y2-S2-035K29,1,4,PS,train,28,↑,up,↑,0.5341171999461949,True,30,-,-,-
Y2-S2-035K29,1,5,PS,train,26,→,up,↑,0.3510964997112751,False,30,-,-,-
Y2-S2-035K29,1,6,PS,train,34,←,left,←,0.5840544002130628,True,30,-,-,-
Y2-S2-035K29,1,7,PS,train,33,↑,up,↑,0.4675644999369979,True,30,-,-,-
Y2-S2-035K29,1,8,PS,train,40,→,right,→,0.5173116000369191,True,30,-,-,-
Y2-S2-035K29,1,9,PS,train,42,↑,up,↑,0.5839551002718508,True,30,-,-,-
Y2-S2-035K29,1,10,PS,train,33,↓,down,↓,0.7613900997675955,True,30,-,-,-
Y2-S2-035K29,2,11,AS,train,41,↑,up,↑,0.6675585000775754,True,45,-,-,-
Y2-S2-035K29,2,12,AS,train,41,←,left,←,0.5844164001755416,True,45,-,-,-
Y2-S2-035K29,2,13,AS,train,45,↑,up,↑,0.5013024997897446,True,45,-,-,-
Y2-S2-035K29,2,14,AS,train,48,←,left,←,0.5844752001576126,True,45,-,-,-
Y2-S2-035K29,2,15,AS,train,38,↓,down,↓,0.7338815000839531,True,45,-,-,-
Y2-S2-035K29,2,16,AS,train,36,↑,up,↑,0.7339677000418305,True,45,-,-,-
Y2-S2-035K29,2,17,AS,train,29,←,left,←,0.6007469999603927,True,45,-,-,-
Y2-S2-035K29,2,18,AS,train,28,→,right,→,0.7510726000182331,True,45,-,-,-
Y2-S2-035K29,2,19,AS,train,26,←,left,←,0.48461189959198236,True,45,-,-,-
Y2-S2-035K29,2,20,AS,train,33,→,right,→,0.7011437001638114,True,45,-,-,-
Y2-S2-035K29,-,21,PS,adaptive,46,↑,up,↑,0.8063210998661816,True,10,0,0,0
Y2-S2-035K29,-,22,PS,adaptive,25,→,left,←,0.4274388998746872,False,10,-1,0,0
Y2-S2-035K29,-,23,PS,adaptive,34,↓,up,↑,1.2196796997450292,False,11,-1,0,0
Y2-S2-035K29,-,24,PS,adaptive,31,↑,up,↑,0.5326415998861194,True,12,-1,0,0
Y2-S2-035K29,-,25,PS,adaptive,35,↓,right,→,1.177845099940896,False,12,-1,0,0
Y2-S2-035K29,-,26,PS,adaptive,31,→,left,←,0.9831974999979138,False,13,-1,0,0
Y2-S2-035K29,-,27,PS,adaptive,40,↓,down,↓,0.6183258001692593,True,14,-1,0,0
Y2-S2-035K29,-,28,PS,adaptive,27,↑,up,↑,0.5463839997537434,True,14,-1,0,0
Y2-S2-035K29,-,29,PS,adaptive,41,→,up,↑,0.6746829999610782,False,14,-1,0,0
Y2-S2-035K29,-,30,PS,adaptive,28,↓,down,↓,0.8154691001400352,True,15,-1,0,0
Y2-S2-035K29,-,31,PS,adaptive,30,↑,up,↑,0.634509100113064,True,15,-1,0,0
Y2-S2-035K29,-,32,PS,adaptive,32,→,right,→,0.5026042000390589,True,15,1,1,1
Y2-S2-035K29,-,33,PS,adaptive,43,↓,up,↑,0.6716720997355878,False,14,-1,1,2
Y2-S2-035K29,-,34,PS,adaptive,36,↑,up,↑,0.4311921000480652,True,15,-1,0,2
Y2-S2-035K29,-,35,PS,adaptive,43,→,right,→,0.529407300055027,True,15,-1,0,2
Y2-S2-035K29,-,36,PS,adaptive,33,↑,up,↑,0.48889630008488894,True,15,1,1,3
Y2-S2-035K29,-,37,PS,adaptive,25,←,left,←,0.5409292001277208,True,14,1,0,3
Y2-S2-035K29,-,38,PS,adaptive,33,→,right,→,0.4741207999177277,True,14,1,0,3
Y2-S2-035K29,-,39,PS,adaptive,37,↑,up,↑,0.5110924001783133,True,14,1,0,3
Y2-S2-035K29,-,40,PS,adaptive,49,→,right,→,0.46202689968049526,True,13,1,0,3
Y2-S2-035K29,-,41,PS,adaptive,39,↓,down,↓,0.6593338004313409,True,13,1,0,3
Y2-S2-035K29,-,42,PS,adaptive,47,→,right,→,0.5953321997076273,True,13,1,0,3
Y2-S2-035K29,-,43,PS,adaptive,38,↓,down,↓,0.5937886000610888,True,12,1,0,3
Y2-S2-035K29,-,44,PS,adaptive,28,↑,down,↓,0.7450379002839327,False,12,-1,1,4
Y2-S2-035K29,-,45,AS,adaptive,29,←,left,←,0.5073001002892852,True,20,0,0,0
Y2-S2-035K29,-,46,AS,adaptive,43,↑,up,↑,0.5251975003629923,True,20,0,0,0
Y2-S2-035K29,-,47,AS,adaptive,46,→,right,→,0.8382719000801444,True,20,1,0,0
Y2-S2-035K29,-,48,AS,adaptive,29,↓,down,↓,0.697840899694711,True,19,1,0,0
Y2-S2-035K29,-,49,AS,adaptive,25,→,right,→,0.6596961999312043,True,19,1,0,0
Y2-S2-035K29,-,50,AS,adaptive,39,↑,up,↑,0.5383502999320626,True,19,1,0,0
Y2-S2-035K29,-,51,AS,adaptive,37,→,right,→,0.5228976001963019,True,18,1,0,0
Y2-S2-035K29,-,52,AS,adaptive,43,←,left,←,0.5367922997102141,True,18,1,0,0
Y2-S2-035K29,-,53,AS,adaptive,29,↓,down,↓,0.6230855002067983,True,18,1,0,0
Y2-S2-035K29,-,54,AS,adaptive,28,→,right,→,0.613710000179708,True,17,1,0,0
Y2-S2-035K29,-,55,AS,adaptive,40,↑,up,↑,0.5808481001295149,True,17,1,0,0
Y2-S2-035K29,-,56,AS,adaptive,50,→,right,→,0.47148319985717535,True,17,1,0,0
Y2-S2-035K29,-,57,AS,adaptive,35,↑,up,↑,0.5435669999569654,True,16,1,0,0
Y2-S2-035K29,-,58,AS,adaptive,36,←,left,←,0.5696523003280163,True,16,1,0,0
Y2-S2-035K29,-,59,AS,adaptive,27,→,right,→,0.7234058999456465,True,16,1,0,0
Y2-S2-035K29,-,60,AS,adaptive,38,↑,no_key,no_letter,-1.0,False,15,-1,1,1
Y2-S2-035K29,-,61,AS,adaptive,47,→,right,→,0.5740348999388516,True,16,-1,0,1
Y2-S2-035K29,-,62,AS,adaptive,33,←,left,←,0.6373457997106016,True,16,-1,0,1
Y2-S2-035K29,-,63,AS,adaptive,43,↑,down,↓,0.8583122999407351,False,16,-1,0,1
Y2-S2-035K29,-,64,AS,adaptive,29,↓,down,↓,0.7106825998052955,True,17,-1,0,1
Y2-S2-035K29,-,65,AS,adaptive,47,↑,up,↑,0.6101524997502565,True,17,-1,0,1
Y2-S2-035K29,-,66,AS,adaptive,45,←,left,←,0.5385992000810802,True,17,1,1,2
Y2-S2-035K29,-,67,AS,adaptive,28,↓,down,↓,0.6083293003030121,True,16,1,0,2
Y2-S2-035K29,-,68,AS,adaptive,26,↑,up,↑,0.6318155000917614,True,16,1,0,2
Y2-S2-035K29,-,69,AS,adaptive,25,←,left,←,0.6258057001978159,True,16,1,0,2
Y2-S2-035K29,-,70,AS,adaptive,40,↑,up,↑,0.617227999959141,True,15,1,0,2
Y2-S2-035K29,-,71,AS,adaptive,39,→,right,→,0.5796753000468016,True,15,1,0,2
Y2-S2-035K29,-,72,AS,adaptive,34,↑,down,↓,0.843433799687773,False,15,-1,1,3
Y2-S2-035K29,-,73,AS,adaptive,29,→,right,→,0.5021126000210643,True,16,-1,0,3
Y2-S2-035K29,-,74,AS,adaptive,38,↓,down,↓,0.6640826002694666,True,16,-1,0,3
Y2-S2-035K29,-,75,AS,adaptive,34,↑,up,↑,0.47898019989952445,True,16,1,1,4
Y2-S2-035K29,1,76,PS,intra_train,41,←,no_key,no_letter,-1.0,False,19,-,-,-
Y2-S2-035K29,1,77,PS,intra_train,44,↑,up,↑,0.5655684000812471,True,19,-,-,-
Y2-S2-035K29,1,78,PS,intra_train,49,→,right,→,0.5842244997620583,True,19,-,-,-
Y2-S2-035K29,1,79,PS,intra_train,41,←,left,←,0.4505278002470732,True,19,-,-,-
Y2-S2-035K29,1,80,PS,intra_train,43,→,right,→,0.564372000284493,True,19,-,-,-
Y2-S2-035K29,1,81,PS,exp,30,↓,left,←,0.3945510000921786,False,13,-1,0,0
Y2-S2-035K29,1,82,PS,exp,42,←,left,←,0.4950441997498274,True,14,-1,0,0
Y2-S2-035K29,1,83,PS,exp,47,→,right,→,0.5066495998762548,True,14,-1,0,0
Y2-S2-035K29,1,84,PS,exp,49,←,left,←,0.49714390002191067,True,14,1,1,1
Y2-S2-035K29,1,85,PS,exp,35,→,right,→,0.49193020025268197,True,13,1,0,1
Y2-S2-035K29,1,86,PS,exp,26,↓,down,↓,0.5625587999820709,True,13,1,0,1
Y2-S2-035K29,1,87,PS,exp,40,→,right,→,0.5775595000013709,True,13,1,0,1
Y2-S2-035K29,1,88,PS,exp,32,↑,up,↑,0.5642922003753483,True,12,1,0,1
Y2-S2-035K29,1,89,PS,exp,47,→,right,→,0.5523570999503136,True,12,1,0,1
Y2-S2-035K29,1,90,PS,exp,48,↓,down,↓,0.6235993001610041,True,12,1,0,1
Y2-S2-035K29,1,91,PS,exp,42,←,right,→,0.5798201002180576,False,11,-1,1,2
Y2-S2-035K29,1,92,PS,exp,44,↑,up,↑,0.6323280003853142,True,12,-1,0,2
Y2-S2-035K29,1,93,PS,exp,27,→,right,→,0.590945600066334,True,12,-1,0,2
Y2-S2-035K29,1,94,PS,exp,38,↑,up,↑,0.43519610026851296,True,12,1,1,3
Y2-S2-035K29,1,95,PS,exp,37,↓,down,↓,0.5273596001788974,True,11,1,0,3
Y2-S2-035K29,1,96,PS,exp,41,→,right,→,0.5113550000824034,True,11,1,0,3
Y2-S2-035K29,1,97,PS,exp,39,↓,down,↓,0.6402402999810874,True,11,1,0,3
Y2-S2-035K29,1,98,PS,exp,25,↑,up,↑,0.44411460030823946,True,10,1,0,3
Y2-S2-035K29,1,99,PS,exp,30,←,left,←,0.5884175999090075,True,10,1,0,3
Y2-S2-035K29,1,100,PS,exp,33,↓,down,↓,0.6841858997941017,True,10,1,0,3
Y2-S2-035K29,1,101,PS,exp,30,←,left,←,0.8030682001262903,True,9,1,0,3
Y2-S2-035K29,1,102,PS,exp,47,↓,down,↓,0.5505339000374079,True,9,1,0,3
Y2-S2-035K29,1,103,PS,exp,41,←,left,←,0.5871179001405835,True,9,1,0,3
Y2-S2-035K29,1,104,PS,exp,37,↓,down,↓,0.5605251998640597,True,8,1,0,3
Y2-S2-035K29,1,105,PS,exp,31,↑,right,→,1.3756412002258003,False,8,-1,1,4
Y2-S2-035K29,1,106,PS,exp,39,↓,down,↓,0.5471291998401284,True,9,-1,0,4
Y2-S2-035K29,1,107,PS,exp,50,↑,up,↑,0.6164766000583768,True,9,-1,0,4
Y2-S2-035K29,1,108,PS,exp,39,←,left,←,0.48622129997238517,True,9,1,1,5
Y2-S2-035K29,1,109,PS,exp,31,↓,down,↓,0.5888046999461949,True,8,1,0,5
Y2-S2-035K29,1,110,PS,exp,49,→,left,←,0.49300430016592145,False,8,-1,1,6
Y2-S2-035K29,1,111,PS,exp,29,↑,right,→,0.7977367998100817,False,9,-1,0,6
Y2-S2-035K29,1,112,PS,exp,40,←,right,→,0.65024199988693,False,10,-1,0,6
Y2-S2-035K29,1,113,PS,exp,48,↓,down,↓,0.6946227997541428,True,11,-1,0,6
Y2-S2-035K29,1,114,PS,exp,49,←,left,←,0.5579923000186682,True,11,-1,0,6
Y2-S2-035K29,1,115,PS,exp,31,↓,down,↓,0.6996037000790238,True,11,1,1,7
Y2-S2-035K29,1,116,PS,exp,47,↑,up,↑,0.6310267997905612,True,10,1,0,7
Y2-S2-035K29,1,117,PS,exp,36,↓,down,↓,0.48978309985250235,True,10,1,0,7
Y2-S2-035K29,1,118,PS,exp,29,↑,down,↓,0.6577304000966251,False,10,-1,1,8
Y2-S2-035K29,1,119,PS,exp,28,→,right,→,0.47918149968609214,True,11,-1,0,8
Y2-S2-035K29,1,120,PS,exp,26,←,right,→,0.46437110006809235,False,11,-1,0,8
Y2-S2-035K29,1,121,PS,exp,37,↓,down,↓,0.6556107001379132,True,12,-1,0,8
Y2-S2-035K29,1,122,PS,exp,47,→,right,→,0.5566964000463486,True,12,-1,0,8
Y2-S2-035K29,1,123,PS,exp,48,↑,up,↑,0.4914208999834955,True,12,1,1,9
Y2-S2-035K29,1,124,PS,exp,42,←,left,←,0.4564362997189164,True,11,1,0,9
Y2-S2-035K29,1,125,PS,exp,35,↓,down,↓,0.5485868998803198,True,11,1,0,9
Y2-S2-035K29,1,126,PS,exp,28,→,right,→,0.5430823001079261,True,11,1,0,9
Y2-S2-035K29,1,127,PS,exp,37,↑,down,↓,0.7668998003937304,False,10,-1,1,10
Y2-S2-035K29,1,128,PS,exp,34,↓,down,↓,0.48461190005764365,True,11,-1,0,10
Y2-S2-035K29,1,129,PS,exp,48,→,right,→,0.43012800021097064,True,11,-1,0,10
Y2-S2-035K29,1,130,PS,exp,27,←,left,←,0.45886960020288825,True,11,1,1,11
Y2-S2-035K29,1,131,PS,exp,35,↓,down,↓,0.5402009999379516,True,10,1,0,11
Y2-S2-035K29,1,132,PS,exp,44,↑,up,↑,0.48826180025935173,True,10,1,0,11
Y2-S2-035K29,1,133,PS,exp,34,←,left,←,0.42343120044097304,True,10,1,0,11
Y2-S2-035K29,1,134,PS,exp,48,↓,down,↓,0.572401899844408,True,9,1,0,11
Y2-S2-035K29,1,135,PS,exp,38,→,down,↓,0.7016098997555673,False,9,-1,1,12
Y2-S2-035K29,1,136,PS,exp,38,←,left,←,0.4904645001515746,True,10,-1,0,12
Y2-S2-035K29,1,137,PS,exp,39,↑,up,↑,0.4565981002524495,True,10,-1,0,12
Y2-S2-035K29,1,138,PS,exp,44,↓,up,↑,0.3623868003487587,False,10,-1,0,12
Y2-S2-035K29,1,139,PS,exp,31,←,left,←,0.4520372003316879,True,11,-1,0,12
Y2-S2-035K29,1,140,PS,exp,35,→,left,←,0.6774602998048067,False,11,-1,0,12
Y2-S2-035K29,1,141,PS,exp,40,↓,down,↓,0.601869999896735,True,12,-1,0,12
Y2-S2-035K29,1,142,PS,exp,29,←,left,←,0.405199300032109,True,12,-1,0,12
Y2-S2-035K29,1,143,PS,exp,42,↑,up,↑,0.5493836998939514,True,12,1,1,13
Y2-S2-035K29,1,144,PS,exp,41,→,right,→,0.525861700065434,True,11,1,0,13
Y2-S2-035K29,1,145,PS,exp,50,↓,down,↓,0.6041807001456618,True,11,1,0,13
Y2-S2-035K29,1,146,PS,exp,29,↑,up,↑,0.5495253000408411,True,11,1,0,13
Y2-S2-035K29,1,147,PS,exp,29,↓,down,↓,0.6820515999570489,True,10,1,0,13
Y2-S2-035K29,1,148,PS,exp,49,→,right,→,0.5648324000649154,True,10,1,0,13
Y2-S2-035K29,1,149,PS,exp,35,↑,up,↑,0.4330869000405073,True,10,1,0,13
Y2-S2-035K29,1,150,PS,exp,43,←,left,←,0.4796499996446073,True,9,1,0,13
Y2-S2-035K29,1,151,PS,exp,33,↓,down,↓,0.5743769002147019,True,9,1,0,13
Y2-S2-035K29,1,152,PS,exp,45,↑,up,↑,0.5251091001555324,True,9,1,0,13
Y2-S2-035K29,1,153,PS,exp,36,↓,down,↓,0.584413199685514,True,8,1,0,13
Y2-S2-035K29,1,154,PS,exp,33,→,down,↓,0.7052041999995708,False,8,-1,1,14
Y2-S2-035K29,1,155,PS,exp,33,↑,up,↑,0.5050507998093963,True,9,-1,0,14
Y2-S2-035K29,1,156,PS,exp,27,→,right,→,0.6256698998622596,True,9,-1,0,14
Y2-S2-035K29,1,157,PS,exp,26,↑,up,↑,0.5394620001316071,True,9,1,1,15
Y2-S2-035K29,1,158,PS,exp,50,←,left,←,0.4822399001568556,True,8,1,0,15
Y2-S2-035K29,1,159,PS,exp,39,↓,up,↑,1.0740895997732878,False,8,-1,1,16
Y2-S2-035K29,2,160,AS,intra_train,28,↑,up,↑,0.7663108999840915,True,22,-,-,-
Y2-S2-035K29,2,161,AS,intra_train,27,↓,down,↓,0.7119943001307547,True,22,-,-,-
Y2-S2-035K29,2,162,AS,intra_train,28,↑,up,↑,0.5534858000464737,True,22,-,-,-
Y2-S2-035K29,2,163,AS,intra_train,43,←,left,←,0.6987932003103197,True,22,-,-,-
Y2-S2-035K29,2,164,AS,intra_train,36,↓,down,↓,0.6544997999444604,True,22,-,-,-
Y2-S2-035K29,2,165,AS,exp,43,←,right,→,0.6638776999898255,False,15,-1,0,0
Y2-S2-035K29,2,166,AS,exp,40,↑,down,↓,0.77106609987095,False,16,-1,0,0
Y2-S2-035K29,2,167,AS,exp,27,↓,up,↑,0.6574539998546243,False,17,-1,0,0
Y2-S2-035K29,2,168,AS,exp,41,↑,up,↑,1.0827788999304175,True,18,-1,0,0
Y2-S2-035K29,2,169,AS,exp,49,←,left,←,0.6207725000567734,True,18,-1,0,0
Y2-S2-035K29,2,170,AS,exp,38,↑,up,↑,0.5332222003489733,True,18,1,1,1
Y2-S2-035K29,2,171,AS,exp,46,←,right,→,1.1271281000226736,False,17,-1,1,2
Y2-S2-035K29,2,172,AS,exp,27,↑,up,↑,0.5235373000614345,True,18,-1,0,2
Y2-S2-035K29,2,173,AS,exp,44,↓,down,↓,0.8694726000539958,True,18,-1,0,2
Y2-S2-035K29,2,174,AS,exp,50,←,left,←,0.5326721002347767,True,18,1,1,3
Y2-S2-035K29,2,175,AS,exp,25,↓,down,↓,0.5954647003673017,True,17,1,0,3
Y2-S2-035K29,2,176,AS,exp,28,→,right,→,0.5073575000278652,True,17,1,0,3
Y2-S2-035K29,2,177,AS,exp,46,←,right,→,0.5955352000892162,False,17,-1,1,4
Y2-S2-035K29,2,178,AS,exp,38,↓,down,↓,0.8428884004242718,True,18,-1,0,4
Y2-S2-035K29,2,179,AS,exp,25,↑,up,↑,0.5071173999458551,True,18,-1,0,4
Y2-S2-035K29,2,180,AS,exp,41,→,right,→,0.8711314997635782,True,18,1,1,5
Y2-S2-035K29,2,181,AS,exp,47,↓,right,→,1.579209600109607,False,17,-1,1,6
Y2-S2-035K29,2,182,AS,exp,26,→,right,→,0.783926900010556,True,18,-1,0,6
Y2-S2-035K29,2,183,AS,exp,34,←,left,←,0.6496665002778172,True,18,-1,0,6
Y2-S2-035K29,2,184,AS,exp,32,↓,down,↓,0.7420550999231637,True,18,1,1,7
Y2-S2-035K29,2,185,AS,exp,50,↑,up,↑,0.5668974998407066,True,17,1,0,7
Y2-S2-035K29,2,186,AS,exp,31,↓,down,↓,0.771135900169611,True,17,1,0,7
Y2-S2-035K29,2,187,AS,exp,48,←,right,→,0.7468413999304175,False,17,-1,1,8
Y2-S2-035K29,2,188,AS,exp,45,↑,up,↑,0.5181843000464141,True,18,-1,0,8
Y2-S2-035K29,2,189,AS,exp,33,↓,down,↓,0.6632300997152925,True,18,-1,0,8
Y2-S2-035K29,2,190,AS,exp,35,→,right,→,0.5850840001367033,True,18,1,1,9
Y2-S2-035K29,2,191,AS,exp,35,↓,down,↓,0.5609245002269745,True,17,1,0,9
Y2-S2-035K29,2,192,AS,exp,25,↑,up,↑,0.5753301000222564,True,17,1,0,9
Y2-S2-035K29,2,193,AS,exp,41,←,left,←,0.5902642998844385,True,17,1,0,9
Y2-S2-035K29,2,194,AS,exp,50,→,right,→,0.6675789998844266,True,16,1,0,9
Y2-S2-035K29,2,195,AS,exp,36,↑,up,↑,0.7176136998459697,True,16,1,0,9
Y2-S2-035K29,2,196,AS,exp,40,↓,no_key,no_letter,-1.0,False,16,-1,1,10
Y2-S2-035K29,2,197,AS,exp,31,→,left,←,0.642305999994278,False,17,-1,0,10
Y2-S2-035K29,2,198,AS,exp,43,↓,down,↓,0.665247599594295,True,18,-1,0,10
Y2-S2-035K29,2,199,AS,exp,31,↑,right,→,1.194464299827814,False,18,-1,0,10
Y2-S2-035K29,2,200,AS,exp,31,→,left,←,1.0354170999489725,False,19,-1,0,10
Y2-S2-035K29,2,201,AS,exp,29,↓,down,↓,0.595061699859798,True,20,-1,0,10
Y2-S2-035K29,2,202,AS,exp,40,←,left,←,0.554980400018394,True,20,-1,0,10
Y2-S2-035K29,2,203,AS,exp,46,↓,down,↓,0.6498846998438239,True,20,1,1,11
Y2-S2-035K29,2,204,AS,exp,49,→,right,→,0.5189929003827274,True,19,1,0,11
Y2-S2-035K29,2,205,AS,exp,36,↑,up,↑,0.6162649998441339,True,19,1,0,11
Y2-S2-035K29,2,206,AS,exp,46,↓,down,↓,0.605698199942708,True,19,1,0,11
Y2-S2-035K29,2,207,AS,exp,35,→,right,→,0.5303563000634313,True,18,1,0,11
Y2-S2-035K29,2,208,AS,exp,46,↓,down,↓,0.6550704999826849,True,18,1,0,11
Y2-S2-035K29,2,209,AS,exp,38,↑,up,↑,0.4949387996457517,True,18,1,0,11
Y2-S2-035K29,2,210,AS,exp,41,↓,down,↓,0.6198405995965004,True,17,1,0,11
Y2-S2-035K29,2,211,AS,exp,35,→,right,→,0.5231073996983469,True,17,1,0,11
Y2-S2-035K29,2,212,AS,exp,28,↓,down,↓,0.67890809988603,True,17,1,0,11
Y2-S2-035K29,2,213,AS,exp,47,←,right,→,0.5861551002599299,False,16,-1,1,12
Y2-S2-035K29,2,214,AS,exp,31,↑,up,↑,0.49023390002548695,True,17,-1,0,12
Y2-S2-035K29,2,215,AS,exp,33,↓,no_key,no_letter,-1.0,False,17,-1,0,12
Y2-S2-035K29,2,216,AS,exp,36,→,right,→,0.553651699796319,True,18,-1,0,12
Y2-S2-035K29,2,217,AS,exp,32,↓,down,↓,0.5827361000701785,True,18,-1,0,12
Y2-S2-035K29,2,218,AS,exp,38,→,right,→,0.5950452997349203,True,18,1,1,13
Y2-S2-035K29,2,219,AS,exp,44,↑,left,←,1.5584927001036704,False,17,-1,1,14
Y2-S2-035K29,2,220,AS,exp,37,↓,down,↓,0.7190076997503638,True,18,-1,0,14
Y2-S2-035K29,2,221,AS,exp,33,←,left,←,0.6078339000232518,True,18,-1,0,14
Y2-S2-035K29,2,222,AS,exp,39,↑,left,←,0.7407770003192127,False,18,-1,0,14
Y2-S2-035K29,2,223,AS,exp,25,↓,down,↓,0.5783095001243055,True,19,-1,0,14
Y2-S2-035K29,2,224,AS,exp,42,↑,no_key,no_letter,-1.0,False,19,-1,0,14
Y2-S2-035K29,2,225,AS,exp,43,←,left,←,0.6520405998453498,True,20,-1,0,14
Y2-S2-035K29,2,226,AS,exp,33,→,right,→,0.5373464003205299,True,20,-1,0,14
Y2-S2-035K29,2,227,AS,exp,34,↓,down,↓,0.649898299947381,True,20,1,1,15
Y2-S2-035K29,2,228,AS,exp,42,→,right,→,0.6553035001270473,True,19,1,0,15
Y2-S2-035K29,2,229,AS,exp,46,↓,down,↓,0.6041894000954926,True,19,1,0,15
Y2-S2-035K29,2,230,AS,exp,45,↑,up,↑,0.7843141998164356,True,19,1,0,15
Y2-S2-035K29,2,231,AS,exp,38,→,right,→,1.052356299944222,True,18,1,0,15
Y2-S2-035K29,2,232,AS,exp,26,←,left,←,0.6080939997918904,True,18,1,0,15
Y2-S2-035K29,2,233,AS,exp,41,→,left,←,0.6231499998830259,False,18,-1,1,16
Y2-S2-035K29,3,234,AS,intra_train,26,↑,up,↑,1.5751752997748554,True,22,-,-,-
Y2-S2-035K29,3,235,AS,intra_train,27,→,right,→,0.5829857001081109,True,22,-,-,-
Y2-S2-035K29,3,236,AS,intra_train,39,↑,down,↓,1.5298007000237703,False,22,-,-,-
Y2-S2-035K29,3,237,AS,intra_train,47,↓,down,↓,0.6644557998515666,True,22,-,-,-
Y2-S2-035K29,3,238,AS,intra_train,44,→,left,←,0.5403590002097189,False,22,-,-,-
Y2-S2-035K29,3,239,AS,exp,26,←,left,←,1.2235356997698545,True,15,0,0,0
Y2-S2-035K29,3,240,AS,exp,46,→,right,→,0.48707540007308125,True,15,0,0,0
Y2-S2-035K29,3,241,AS,exp,41,↑,up,↑,0.7897602999582887,True,15,1,0,0
Y2-S2-035K29,3,242,AS,exp,49,→,left,←,0.5962171000428498,False,14,-1,1,1
Y2-S2-035K29,3,243,AS,exp,30,←,left,←,0.7086871997453272,True,15,-1,0,1
Y2-S2-035K29,3,244,AS,exp,34,→,right,→,0.5457858997397125,True,15,-1,0,1
Y2-S2-035K29,3,245,AS,exp,36,↓,down,↓,0.6787817999720573,True,15,1,1,2
Y2-S2-035K29,3,246,AS,exp,27,→,right,→,0.9564193999394774,True,14,1,0,2
Y2-S2-035K29,3,247,AS,exp,38,←,left,←,0.5444092000834644,True,14,1,0,2
Y2-S2-035K29,3,248,AS,exp,30,→,right,→,0.5508012999780476,True,14,1,0,2
Y2-S2-035K29,3,249,AS,exp,26,←,left,←,0.5721191000193357,True,13,1,0,2
Y2-S2-035K29,3,250,AS,exp,31,↑,up,↑,0.7186062000691891,True,13,1,0,2
Y2-S2-035K29,3,251,AS,exp,45,→,left,←,1.0631574001163244,False,13,-1,1,3
Y2-S2-035K29,3,252,AS,exp,38,↓,down,↓,0.5612099003046751,True,14,-1,0,3
Y2-S2-035K29,3,253,AS,exp,42,↑,up,↑,0.521756500005722,True,14,-1,0,3
Y2-S2-035K29,3,254,AS,exp,26,←,left,←,0.5155844003893435,True,14,1,1,4
Y2-S2-035K29,3,255,AS,exp,36,↓,down,↓,0.6488224999047816,True,13,1,0,4
Y2-S2-035K29,3,256,AS,exp,36,↑,up,↑,0.5282263001427054,True,13,1,0,4
Y2-S2-035K29,3,257,AS,exp,38,↓,down,↓,0.570172100327909,True,13,1,0,4
Y2-S2-035K29,3,258,AS,exp,25,←,left,←,0.3977034999988973,True,12,1,0,4
Y2-S2-035K29,3,259,AS,exp,31,↑,up,↑,0.5633141002617776,True,12,1,0,4
Y2-S2-035K29,3,260,AS,exp,43,↓,down,↓,0.6169210998341441,True,12,1,0,4
Y2-S2-035K29,3,261,AS,exp,28,←,left,←,0.5355770001187921,True,11,1,0,4
Y2-S2-035K29,3,262,AS,exp,47,↑,up,↑,0.536476599983871,True,11,1,0,4
Y2-S2-035K29,3,263,AS,exp,30,←,left,←,0.5186657002195716,True,11,1,0,4
Y2-S2-035K29,3,264,AS,exp,34,↓,down,↓,0.6139674000442028,True,10,1,0,4
Y2-S2-035K29,3,265,AS,exp,43,→,left,←,0.5654990999028087,False,10,-1,1,5
Y2-S2-035K29,3,266,AS,exp,39,↑,up,↑,0.6816279999911785,True,11,-1,0,5
Y2-S2-035K29,3,267,AS,exp,43,←,left,←,0.5623305002227426,True,11,-1,0,5
Y2-S2-035K29,3,268,AS,exp,44,→,left,←,0.467544199898839,False,11,-1,0,5
Y2-S2-035K29,3,269,AS,exp,46,←,up,↑,0.5384724996984005,False,12,-1,0,5
Y2-S2-035K29,3,270,AS,exp,34,↓,up,↑,0.5193949001841247,False,13,-1,0,5
Y2-S2-035K29,3,271,AS,exp,25,←,left,←,0.5282916999422014,True,14,-1,0,5
Y2-S2-035K29,3,272,AS,exp,48,↓,up,↑,0.5076019000262022,False,14,-1,0,5
Y2-S2-035K29,3,273,AS,exp,26,→,right,→,0.62545430008322,True,15,-1,0,5
Y2-S2-035K29,3,274,AS,exp,31,↓,down,↓,0.6710614999756217,True,15,-1,0,5
Y2-S2-035K29,3,275,AS,exp,40,↑,up,↑,0.5204114997759461,True,15,1,1,6
Y2-S2-035K29,3,276,AS,exp,45,↓,down,↓,0.762523100245744,True,14,1,0,6
Y2-S2-035K29,3,277,AS,exp,50,→,right,→,0.5833940003067255,True,14,1,0,6
Y2-S2-035K29,3,278,AS,exp,48,←,left,←,0.5527610997669399,True,14,1,0,6
Y2-S2-035K29,3,279,AS,exp,44,→,right,→,0.5855116997845471,True,13,1,0,6
Y2-S2-035K29,3,280,AS,exp,27,←,left,←,0.5244856998324394,True,13,1,0,6
Y2-S2-035K29,3,281,AS,exp,43,→,right,→,0.5905988998711109,True,13,1,0,6
Y2-S2-035K29,3,282,AS,exp,42,←,right,→,0.6492333998903632,False,12,-1,1,7
Y2-S2-035K29,3,283,AS,exp,34,→,left,←,1.0521982000209391,False,13,-1,0,7
Y2-S2-035K29,3,284,AS,exp,28,↓,down,↓,0.6704767998307943,True,14,-1,0,7
Y2-S2-035K29,3,285,AS,exp,49,←,right,→,0.5758334002457559,False,14,-1,0,7
Y2-S2-035K29,3,286,AS,exp,28,↓,down,↓,0.5748521997593343,True,15,-1,0,7
Y2-S2-035K29,3,287,AS,exp,48,↑,up,↑,0.645246900152415,True,15,-1,0,7
Y2-S2-035K29,3,288,AS,exp,34,↓,down,↓,0.7617771001532674,True,15,1,1,8
Y2-S2-035K29,3,289,AS,exp,43,→,right,→,1.8835236001759768,True,14,1,0,8
Y2-S2-035K29,3,290,AS,exp,49,←,left,←,0.5648204004392028,True,14,1,0,8
Y2-S2-035K29,3,291,AS,exp,42,↑,up,↑,0.5129596996121109,True,14,1,0,8
Y2-S2-035K29,3,292,AS,exp,37,→,left,←,0.6595935998484492,False,13,-1,1,9
Y2-S2-035K29,3,293,AS,exp,29,↑,up,↑,0.5582852000370622,True,14,-1,0,9
Y2-S2-035K29,3,294,AS,exp,39,←,left,←,0.47778180008754134,True,14,-1,0,9
Y2-S2-035K29,3,295,AS,exp,33,↓,no_key,no_letter,-1.0,False,14,-1,0,9
Y2-S2-035K29,3,296,AS,exp,28,↑,no_key,no_letter,-1.0,False,15,-1,0,9
Y2-S2-035K29,3,297,AS,exp,35,←,left,←,0.5374202001839876,True,16,-1,0,9
Y2-S2-035K29,3,298,AS,exp,37,↑,right,→,1.20857540005818,False,16,-1,0,9
Y2-S2-035K29,3,299,AS,exp,26,→,right,→,0.5777729996480048,True,17,-1,0,9
Y2-S2-035K29,3,300,AS,exp,25,↓,down,↓,0.6189770996570587,True,17,-1,0,9
Y2-S2-035K29,3,301,AS,exp,42,←,left,←,0.5646195998415351,True,17,1,1,10
Y2-S2-035K29,3,302,AS,exp,26,↑,up,↑,0.6271008001640439,True,16,1,0,10
Y2-S2-035K29,3,303,AS,exp,37,←,left,←,0.47990710008889437,True,16,1,0,10
Y2-S2-035K29,3,304,AS,exp,33,→,right,→,1.3836409002542496,True,16,1,0,10
Y2-S2-035K29,3,305,AS,exp,33,↓,down,↓,0.7116582999005914,True,15,1,0,10
Y2-S2-035K29,3,306,AS,exp,43,←,left,←,0.6126051000319421,True,15,1,0,10
Y2-S2-035K29,3,307,AS,exp,41,↓,down,↓,0.60598020022735,True,15,1,0,10
Y2-S2-035K29,3,308,AS,exp,35,→,right,→,1.1582833998836577,True,14,1,0,10
Y2-S2-035K29,3,309,AS,exp,50,↓,down,↓,0.6059562000446022,True,14,1,0,10
Y2-S2-035K29,3,310,AS,exp,49,←,left,←,0.8643431002274156,True,14,1,0,10
Y2-S2-035K29,3,311,AS,exp,33,↑,no_key,no_letter,-1.0,False,13,-1,1,11
Y2-S2-035K29,3,312,AS,exp,41,↓,down,↓,0.6019727997481823,True,14,-1,0,11
Y2-S2-035K29,3,313,AS,exp,34,←,right,→,0.8486179001629353,False,14,-1,0,11
Y2-S2-035K29,3,314,AS,exp,50,→,right,→,0.6804289999417961,True,15,-1,0,11
Y2-S2-035K29,3,315,AS,exp,44,↓,down,↓,0.5816906001418829,True,15,-1,0,11
Y2-S2-035K29,3,316,AS,exp,26,↑,no_key,no_letter,-1.0,False,15,-1,0,11
Y2-S2-035K29,3,317,AS,exp,33,↓,down,↓,0.6259905002079904,True,16,-1,0,11
Y2-S2-035K29,3,318,AS,exp,42,↑,up,↑,0.5511779002845287,True,16,-1,0,11
Y2-S2-035K29,3,319,AS,exp,42,←,left,←,0.4817539001815021,True,16,1,1,12
Y2-S2-035K29,3,320,AS,exp,44,↓,down,↓,0.6180131998844445,True,15,1,0,12
Y2-S2-035K29,3,321,AS,exp,40,→,right,→,0.5209038998000324,True,15,1,0,12
Y2-S2-035K29,3,322,AS,exp,28,↑,up,↑,0.5789040001109242,True,15,1,0,12
Y2-S2-035K29,3,323,AS,exp,42,←,left,←,0.5826872000470757,True,14,1,0,12
Y2-S2-035K29,3,324,AS,exp,43,↑,left,←,0.7778577003628016,False,14,-1,1,13
Y2-S2-035K29,3,325,AS,exp,29,↓,down,↓,0.5961871999315917,True,15,-1,0,13
Y2-S2-035K29,3,326,AS,exp,45,←,right,→,0.8610358000732958,False,15,-1,0,13
Y2-S2-035K29,3,327,AS,exp,34,↑,up,↑,0.5024703997187316,True,16,-1,0,13
Y2-S2-035K29,3,328,AS,exp,48,→,right,→,0.5115607003681362,True,16,-1,0,13
Y2-S2-035K29,3,329,AS,exp,49,↑,up,↑,0.5274684000760317,True,16,1,1,14
Y2-S2-035K29,3,330,AS,exp,48,←,left,←,0.5619707996957004,True,15,1,0,14
Y2-S2-035K29,3,331,AS,exp,50,→,right,→,0.5666025001555681,True,15,1,0,14
Y2-S2-035K29,3,332,AS,exp,36,↓,down,↓,0.6778397001326084,True,15,1,0,14
Y2-S2-035K29,3,333,AS,exp,42,←,left,←,0.562041699886322,True,14,1,0,14
Y2-S2-035K29,3,334,AS,exp,34,↓,down,↓,0.6548097999766469,True,14,1,0,14
Y2-S2-035K29,3,335,AS,exp,27,←,left,←,0.5667423997074366,True,14,1,0,14
Y2-S2-035K29,3,336,AS,exp,32,↑,up,↑,0.6569659002125263,True,13,1,0,14
Y2-S2-035K29,3,337,AS,exp,38,←,no_key,no_letter,-1.0,False,13,-1,1,15
Y2-S2-035K29,3,338,AS,exp,50,→,right,→,0.6252429001033306,True,14,-1,0,15
Y2-S2-035K29,3,339,AS,exp,37,↓,down,↓,0.6972115999087691,True,14,-1,0,15
Y2-S2-035K29,3,340,AS,exp,29,↑,no_key,no_letter,-1.0,False,14,-1,0,15
Y2-S2-035K29,3,341,AS,exp,42,→,right,→,1.0184422000311315,True,15,-1,0,15
Y2-S2-035K29,3,342,AS,exp,46,↑,no_key,no_letter,-1.0,False,15,-1,0,15
Y2-S2-035K29,3,343,AS,exp,37,↓,right,→,1.0195500999689102,False,16,-1,0,15
Y2-S2-035K29,3,344,AS,exp,50,→,right,→,0.6852812999859452,True,17,-1,0,15
Y2-S2-035K29,3,345,AS,exp,45,←,left,←,0.7123157000169158,True,17,-1,0,15
Y2-S2-035K29,3,346,AS,exp,29,→,left,←,0.7927029002457857,False,17,-1,0,15
Y2-S2-035K29,3,347,AS,exp,31,↓,down,↓,0.6589287999086082,True,18,-1,0,15
Y2-S2-035K29,3,348,AS,exp,49,→,right,→,0.6514413002878428,True,18,-1,0,15
Y2-S2-035K29,3,349,AS,exp,48,↓,down,↓,0.5829484001733363,True,18,1,1,16
Y2-S2-035K29,4,350,PS,intra_train,50,↑,no_key,no_letter,-1.0,False,19,-,-,-
Y2-S2-035K29,4,351,PS,intra_train,28,↓,down,↓,0.5852489001117647,True,19,-,-,-
Y2-S2-035K29,4,352,PS,intra_train,34,↑,up,↑,0.5298553998582065,True,19,-,-,-
Y2-S2-035K29,4,353,PS,intra_train,47,←,left,←,0.504010499920696,True,19,-,-,-
Y2-S2-035K29,4,354,PS,intra_train,33,↑,up,↑,0.6293945000506938,True,19,-,-,-
Y2-S2-035K29,4,355,PS,exp,43,↓,down,↓,0.7003592001274228,True,13,0,0,0
Y2-S2-035K29,4,356,PS,exp,33,←,left,←,0.5309341000393033,True,13,0,0,0
Y2-S2-035K29,4,357,PS,exp,32,↓,up,↑,0.4692440000362694,False,13,-1,0,0
Y2-S2-035K29,4,358,PS,exp,46,←,no_key,no_letter,-1.0,False,14,-1,0,0
Y2-S2-035K29,4,359,PS,exp,46,↑,up,↑,0.6728320000693202,True,15,-1,0,0
Y2-S2-035K29,4,360,PS,exp,46,↓,down,↓,0.5904075000435114,True,15,-1,0,0
Y2-S2-035K29,4,361,PS,exp,31,←,left,←,0.4185402998700738,True,15,1,1,1
Y2-S2-035K29,4,362,PS,exp,45,↑,up,↑,0.5435148999094963,True,14,1,0,1
Y2-S2-035K29,4,363,PS,exp,39,↓,down,↓,0.6274036001414061,True,14,1,0,1
Y2-S2-035K29,4,364,PS,exp,28,↑,left,←,0.9764907001517713,False,14,-1,1,2
Y2-S2-035K29,4,365,PS,exp,38,←,left,←,0.43467669980600476,True,15,-1,0,2
Y2-S2-035K29,4,366,PS,exp,25,↓,down,↓,0.6715173004195094,True,15,-1,0,2
Y2-S2-035K29,4,367,PS,exp,34,↑,up,↑,0.5424078996293247,True,15,1,1,3
Y2-S2-035K29,4,368,PS,exp,32,←,left,←,0.45809710025787354,True,14,1,0,3
Y2-S2-035K29,4,369,PS,exp,27,→,right,→,0.4980617999099195,True,14,1,0,3
Y2-S2-035K29,4,370,PS,exp,36,←,left,←,0.48383040027692914,True,14,1,0,3
Y2-S2-035K29,4,371,PS,exp,30,→,right,→,0.4891206999309361,True,13,1,0,3
Y2-S2-035K29,4,372,PS,exp,40,←,left,←,0.43832070007920265,True,13,1,0,3
Y2-S2-035K29,4,373,PS,exp,33,→,left,←,0.48457610001787543,False,13,-1,1,4
Y2-S2-035K29,4,374,PS,exp,37,↑,up,↑,0.4946337998844683,True,14,-1,0,4
Y2-S2-035K29,4,375,PS,exp,47,→,right,→,0.5125548001378775,True,14,-1,0,4
Y2-S2-035K29,4,376,PS,exp,42,←,left,←,0.5021968996152282,True,14,1,1,5
Y2-S2-035K29,4,377,PS,exp,45,↓,down,↓,0.6680197999812663,True,13,1,0,5
Y2-S2-035K29,4,378,PS,exp,46,←,left,←,0.42634820006787777,True,13,1,0,5
Y2-S2-035K29,4,379,PS,exp,49,↑,up,↑,0.4648405001498759,True,13,1,0,5
Y2-S2-035K29,4,380,PS,exp,34,→,right,→,0.47895559994503856,True,12,1,0,5
Y2-S2-035K29,4,381,PS,exp,50,↓,down,↓,0.5758055001497269,True,12,1,0,5
Y2-S2-035K29,4,382,PS,exp,38,→,right,→,0.531506999861449,True,12,1,0,5
Y2-S2-035K29,4,383,PS,exp,37,↑,up,↑,0.45338299963623285,True,11,1,0,5
Y2-S2-035K29,4,384,PS,exp,43,←,left,←,0.48136809980496764,True,11,1,0,5
Y2-S2-035K29,4,385,PS,exp,32,↑,up,↑,0.5209169001318514,True,11,1,0,5
Y2-S2-035K29,4,386,PS,exp,41,←,left,←,0.4188656001351774,True,10,1,0,5
Y2-S2-035K29,4,387,PS,exp,50,↓,down,↓,0.600942799821496,True,10,1,0,5
Y2-S2-035K29,4,388,PS,exp,40,→,right,→,0.5673635001294315,True,10,1,0,5
Y2-S2-035K29,4,389,PS,exp,43,←,left,←,0.4820558996871114,True,9,1,0,5
Y2-S2-035K29,4,390,PS,exp,48,↓,down,↓,0.5871554003097117,True,9,1,0,5
Y2-S2-035K29,4,391,PS,exp,34,↑,no_key,no_letter,-1.0,False,9,-1,1,6
Y2-S2-035K29,4,392,PS,exp,36,↓,down,↓,0.6039962000213563,True,10,-1,0,6
Y2-S2-035K29,4,393,PS,exp,32,←,left,←,0.45729020005092025,True,10,-1,0,6
Y2-S2-035K29,4,394,PS,exp,45,↓,down,↓,0.5672101997770369,True,10,1,1,7
Y2-S2-035K29,4,395,PS,exp,33,→,left,←,0.6931310999207199,False,9,-1,1,8
Y2-S2-035K29,4,396,PS,exp,49,←,left,←,0.5161822997033596,True,10,-1,0,8
Y2-S2-035K29,4,397,PS,exp,26,↑,down,↓,0.7612148998305202,False,10,-1,0,8
Y2-S2-035K29,4,398,PS,exp,25,←,down,↓,1.1851406996138394,False,11,-1,0,8
Y2-S2-035K29,4,399,PS,exp,35,↑,up,↑,0.5233843997120857,True,12,-1,0,8
Y2-S2-035K29,4,400,PS,exp,42,↓,down,↓,0.6992672001942992,True,12,-1,0,8
Y2-S2-035K29,4,401,PS,exp,37,↑,up,↑,0.8922029002569616,True,12,1,1,9
Y2-S2-035K29,4,402,PS,exp,26,←,left,←,0.5509509998373687,True,11,1,0,9
Y2-S2-035K29,4,403,PS,exp,31,→,right,→,0.44507359992712736,True,11,1,0,9
Y2-S2-035K29,4,404,PS,exp,30,↑,no_key,no_letter,-1.0,False,11,-1,1,10
Y2-S2-035K29,4,405,PS,exp,48,↓,down,↓,0.6026635998860002,True,12,-1,0,10
Y2-S2-035K29,4,406,PS,exp,27,→,right,→,0.5723701999522746,True,12,-1,0,10
Y2-S2-035K29,4,407,PS,exp,27,↓,down,↓,0.8716257000342011,True,12,1,1,11
Y2-S2-035K29,4,408,PS,exp,40,→,right,→,0.5914678000845015,True,11,1,0,11
Y2-S2-035K29,4,409,PS,exp,49,↓,down,↓,0.7061771000735462,True,11,1,0,11
Y2-S2-035K29,4,410,PS,exp,35,←,left,←,0.5900932997465134,True,11,1,0,11
Y2-S2-035K29,4,411,PS,exp,43,↓,down,↓,0.4910097001120448,True,10,1,0,11
Y2-S2-035K29,4,412,PS,exp,39,←,left,←,0.481623999774456,True,10,1,0,11
Y2-S2-035K29,4,413,PS,exp,31,↑,no_key,no_letter,-1.0,False,10,-1,1,12
Y2-S2-035K29,4,414,PS,exp,36,←,left,←,0.5217478997074068,True,11,-1,0,12
Y2-S2-035K29,4,415,PS,exp,30,↓,down,↓,0.6204919000156224,True,11,-1,0,12
Y2-S2-035K29,4,416,PS,exp,46,↑,up,↑,0.47003820026293397,True,11,1,1,13
Y2-S2-035K29,4,417,PS,exp,38,↓,left,←,1.4738782001659274,False,10,-1,1,14
Y2-S2-035K29,4,418,PS,exp,29,↑,no_key,no_letter,-1.0,False,11,-1,0,14
Y2-S2-035K29,4,419,PS,exp,26,→,right,→,0.4541869000531733,True,12,-1,0,14
Y2-S2-035K29,4,420,PS,exp,31,↑,up,↑,0.46168259996920824,True,12,-1,0,14
Y2-S2-035K29,4,421,PS,exp,49,→,no_key,no_letter,-1.0,False,12,-1,0,14
Y2-S2-035K29,4,422,PS,exp,29,←,left,←,0.45168620022013783,True,13,-1,0,14
Y2-S2-035K29,4,423,PS,exp,40,→,right,→,0.43795490032061934,True,13,-1,0,14
Y2-S2-035K29,4,424,PS,exp,26,↑,up,↑,0.4697475000284612,True,13,1,1,15
Y2-S2-035K29,4,425,PS,exp,37,↓,down,↓,0.6029836996458471,True,12,1,0,15
Y2-S2-035K29,4,426,PS,exp,43,←,left,←,0.4233921002596617,True,12,1,0,15
Y2-S2-035K29,4,427,PS,exp,39,↑,up,↑,0.4891250003129244,True,12,1,0,15
Y2-S2-035K29,4,428,PS,exp,32,→,right,→,0.6740365996956825,True,11,1,0,15
Y2-S2-035K29,4,429,PS,exp,36,↓,down,↓,0.5227473000995815,True,11,1,0,15
Y2-S2-035K29,4,430,PS,exp,49,↑,up,↑,0.4471168997697532,True,11,1,0,15
Y2-S2-035K29,4,431,PS,exp,49,←,no_key,no_letter,-1.0,False,10,-1,1,16
Y2-S2-035K29,5,432,PS,intra_train,37,↑,up,↑,0.6908680996857584,True,19,-,-,-
Y2-S2-035K29,5,433,PS,intra_train,35,↓,down,↓,0.5954192997887731,True,19,-,-,-
Y2-S2-035K29,5,434,PS,intra_train,30,↑,up,↑,1.4315369999967515,True,19,-,-,-
Y2-S2-035K29,5,435,PS,intra_train,45,→,right,→,0.5889488002285361,True,19,-,-,-
Y2-S2-035K29,5,436,PS,intra_train,41,↓,down,↓,0.6165440999902785,True,19,-,-,-
Y2-S2-035K29,5,437,PS,exp,34,←,left,←,0.5189677998423576,True,13,0,0,0
Y2-S2-035K29,5,438,PS,exp,38,↑,up,↑,0.46085890009999275,True,13,0,0,0
Y2-S2-035K29,5,439,PS,exp,28,←,left,←,0.49935799976810813,True,13,1,0,0
Y2-S2-035K29,5,440,PS,exp,41,→,right,→,0.49617750011384487,True,12,1,0,0
Y2-S2-035K29,5,441,PS,exp,28,←,left,←,0.46472240006551147,True,12,1,0,0
Y2-S2-035K29,5,442,PS,exp,28,↑,up,↑,0.42134210001677275,True,12,1,0,0
Y2-S2-035K29,5,443,PS,exp,38,←,left,←,0.520302299875766,True,11,1,0,0
Y2-S2-035K29,5,444,PS,exp,42,→,right,→,0.44836700009182096,True,11,1,0,0
Y2-S2-035K29,5,445,PS,exp,34,↑,up,↑,0.4515651003457606,True,11,1,0,0
Y2-S2-035K29,5,446,PS,exp,30,→,up,↑,0.5988587997853756,False,10,-1,1,1
Y2-S2-035K29,5,447,PS,exp,41,↑,up,↑,0.6020859000273049,True,11,-1,0,1
Y2-S2-035K29,5,448,PS,exp,49,↓,down,↓,0.5711517003364861,True,11,-1,0,1
Y2-S2-035K29,5,449,PS,exp,38,←,left,←,0.4689230998046696,True,11,1,1,2
Y2-S2-035K29,5,450,PS,exp,34,↓,down,↓,0.5571156004443765,True,10,1,0,2
Y2-S2-035K29,5,451,PS,exp,37,←,left,←,0.5359303997829556,True,10,1,0,2
Y2-S2-035K29,5,452,PS,exp,46,↓,down,↓,0.6640902003273368,True,10,1,0,2
Y2-S2-035K29,5,453,PS,exp,49,→,right,→,0.503269599750638,True,9,1,0,2
Y2-S2-035K29,5,454,PS,exp,32,↑,up,↑,0.45904279965907335,True,9,1,0,2
Y2-S2-035K29,5,455,PS,exp,41,↓,down,↓,0.5332661997526884,True,9,1,0,2
Y2-S2-035K29,5,456,PS,exp,45,↑,up,↑,0.6780802002176642,True,8,1,0,2
Y2-S2-035K29,5,457,PS,exp,37,←,no_key,no_letter,-1.0,False,8,-1,1,3
Y2-S2-035K29,5,458,PS,exp,28,→,right,→,0.592408400028944,True,9,-1,0,3
Y2-S2-035K29,5,459,PS,exp,35,←,left,←,0.5474716001190245,True,9,-1,0,3
Y2-S2-035K29,5,460,PS,exp,34,↓,down,↓,0.5954108000732958,True,9,1,1,4
Y2-S2-035K29,5,461,PS,exp,50,→,right,→,0.5773355001583695,True,8,1,0,4
Y2-S2-035K29,5,462,PS,exp,32,←,no_key,no_letter,-1.0,False,8,-1,1,5
Y2-S2-035K29,5,463,PS,exp,36,↓,down,↓,0.5750396000221372,True,9,-1,0,5
Y2-S2-035K29,5,464,PS,exp,40,←,left,←,0.4768522996455431,True,9,-1,0,5
Y2-S2-035K29,5,465,PS,exp,28,↓,down,↓,0.6919444999657571,True,9,1,1,6
Y2-S2-035K29,5,466,PS,exp,30,↑,up,↑,0.6086157001554966,True,8,1,0,6
Y2-S2-035K29,5,467,PS,exp,47,↓,down,↓,0.6525393002666533,True,8,1,0,6
Y2-S2-035K29,5,468,PS,exp,25,→,right,→,0.5707326997071505,True,8,1,0,6
Y2-S2-035K29,5,469,PS,exp,31,←,left,←,0.8082393002696335,True,7,1,0,6
Y2-S2-035K29,5,470,PS,exp,48,→,right,→,0.5541993998922408,True,7,1,0,6
Y2-S2-035K29,5,471,PS,exp,39,↑,down,↓,0.7391536999493837,False,7,-1,1,7
Y2-S2-035K29,5,472,PS,exp,34,←,left,←,0.8053732998669147,True,8,-1,0,7
Y2-S2-035K29,5,473,PS,exp,45,↓,down,↓,0.6052178000099957,True,8,-1,0,7
Y2-S2-035K29,5,474,PS,exp,34,↑,no_key,no_letter,-1.0,False,8,-1,0,7
Y2-S2-035K29,5,475,PS,exp,48,↓,down,↓,0.5703032999299467,True,9,-1,0,7
Y2-S2-035K29,5,476,PS,exp,27,↑,up,↑,0.5694125001318753,True,9,-1,0,7
Y2-S2-035K29,5,477,PS,exp,27,→,right,→,0.5852250996977091,True,9,1,1,8
Y2-S2-035K29,5,478,PS,exp,25,↑,up,↑,0.4550211001187563,True,8,1,0,8
Y2-S2-035K29,5,479,PS,exp,46,←,right,→,0.7061874000355601,False,8,-1,1,9
Y2-S2-035K29,5,480,PS,exp,41,↑,no_key,no_letter,-1.0,False,9,-1,0,9
Y2-S2-035K29,5,481,PS,exp,40,←,left,←,0.6178723000921309,True,10,-1,0,9
Y2-S2-035K29,5,482,PS,exp,49,→,left,←,1.5908878999762237,False,10,-1,0,9
Y2-S2-035K29,5,483,PS,exp,28,←,left,←,0.4885098999366164,True,11,-1,0,9
Y2-S2-035K29,5,484,PS,exp,42,↑,up,↑,0.5058916001580656,True,11,-1,0,9
Y2-S2-035K29,5,485,PS,exp,32,←,left,←,0.4461618000641465,True,11,1,1,10
Y2-S2-035K29,5,486,PS,exp,38,→,right,→,0.46142870001494884,True,10,1,0,10
Y2-S2-035K29,5,487,PS,exp,29,←,left,←,0.5140133001841605,True,10,1,0,10
Y2-S2-035K29,5,488,PS,exp,44,→,right,→,0.453190800268203,True,10,1,0,10
Y2-S2-035K29,5,489,PS,exp,39,←,left,←,0.5473223002627492,True,9,1,0,10
Y2-S2-035K29,5,490,PS,exp,45,↑,up,↑,0.5065327002666891,True,9,1,0,10
Y2-S2-035K29,5,491,PS,exp,46,→,right,→,0.7098175003193319,True,9,1,0,10
Y2-S2-035K29,5,492,PS,exp,38,↑,up,↑,0.7918553003109992,True,8,1,0,10
Y2-S2-035K29,5,493,PS,exp,39,↓,down,↓,0.9850755999796093,True,8,1,0,10
Y2-S2-035K29,5,494,PS,exp,34,←,left,←,0.7022409997880459,True,8,1,0,10
Y2-S2-035K29,5,495,PS,exp,27,↑,no_key,no_letter,-1.0,False,7,-1,1,11
Y2-S2-035K29,5,496,PS,exp,42,←,left,←,0.4254666999913752,True,8,-1,0,11
Y2-S2-035K29,5,497,PS,exp,34,↑,left,←,0.680148399900645,False,8,-1,0,11
Y2-S2-035K29,5,498,PS,exp,25,←,left,←,0.48883459996432066,True,9,-1,0,11
Y2-S2-035K29,5,499,PS,exp,42,→,right,→,0.4773483998142183,True,9,-1,0,11
Y2-S2-035K29,5,500,PS,exp,26,←,left,←,0.4939973000437021,True,9,1,1,12
Y2-S2-035K29,5,501,PS,exp,35,→,right,→,0.5051585999317467,True,8,1,0,12
Y2-S2-035K29,5,502,PS,exp,25,↑,up,↑,0.46157369995489717,True,8,1,0,12
Y2-S2-035K29,5,503,PS,exp,42,←,down,↓,0.7026821002364159,False,8,-1,1,13
Y2-S2-035K29,5,504,PS,exp,43,→,right,→,0.47678379993885756,True,9,-1,0,13
Y2-S2-035K29,5,505,PS,exp,40,↑,up,↑,0.49661940010264516,True,9,-1,0,13
Y2-S2-035K29,5,506,PS,exp,36,→,right,→,0.5265015000477433,True,9,1,1,14
Y2-S2-035K29,5,507,PS,exp,33,↓,down,↓,0.7136603002436459,True,8,1,0,14
Y2-S2-035K29,5,508,PS,exp,30,→,right,→,0.5099098002538085,True,8,1,0,14
Y2-S2-035K29,5,509,PS,exp,43,←,right,→,1.6062970999628305,False,8,-1,1,15
Y2-S2-035K29,5,510,PS,exp,43,↓,down,↓,0.6954334997572005,True,9,-1,0,15
Y2-S2-035K29,5,511,PS,exp,35,→,right,→,0.38691799994558096,True,9,-1,0,15
Y2-S2-035K29,5,512,PS,exp,26,↓,down,↓,0.6013258998282254,True,9,1,1,16
Y2-S2-035K29,6,513,AS,intra_train,30,↑,up,↑,0.7647359999828041,True,22,-,-,-
Y2-S2-035K29,6,514,AS,intra_train,50,→,right,→,0.8102894001640379,True,22,-,-,-
Y2-S2-035K29,6,515,AS,intra_train,35,↑,up,↑,0.635982200037688,True,22,-,-,-
Y2-S2-035K29,6,516,AS,intra_train,37,↓,down,↓,0.7103357999585569,True,22,-,-,-
Y2-S2-035K29,6,517,AS,intra_train,34,→,right,→,0.5864253002218902,True,22,-,-,-
Y2-S2-035K29,6,518,AS,exp,47,↓,down,↓,0.5418992000631988,True,15,0,0,0
Y2-S2-035K29,6,519,AS,exp,38,→,right,→,0.5859992997720838,True,15,0,0,0
Y2-S2-035K29,6,520,AS,exp,41,↓,down,↓,0.6017359998077154,True,15,1,0,0
Y2-S2-035K29,6,521,AS,exp,33,→,left,←,0.6859699003398418,False,14,-1,1,1
Y2-S2-035K29,6,522,AS,exp,41,↓,down,↓,0.5789923002012074,True,15,-1,0,1
Y2-S2-035K29,6,523,AS,exp,43,→,right,→,0.5593411000445485,True,15,-1,0,1
Y2-S2-035K29,6,524,AS,exp,47,←,right,→,0.656865400262177,False,15,-1,0,1
Y2-S2-035K29,6,525,AS,exp,40,↑,up,↑,0.7328005000017583,True,16,-1,0,1
Y2-S2-035K29,6,526,AS,exp,50,←,right,→,0.9408894996158779,False,16,-1,0,1
Y2-S2-035K29,6,527,AS,exp,35,↑,up,↑,0.5256304000504315,True,17,-1,0,1
Y2-S2-035K29,6,528,AS,exp,37,↓,down,↓,1.093311000149697,True,17,-1,0,1
Y2-S2-035K29,6,529,AS,exp,26,→,right,→,0.7317009000107646,True,17,1,1,2
Y2-S2-035K29,6,530,AS,exp,40,←,right,→,0.6622184999287128,False,16,-1,1,3
Y2-S2-035K29,6,531,AS,exp,40,↑,no_key,no_letter,-1.0,False,17,-1,0,3
Y2-S2-035K29,6,532,AS,exp,47,←,left,←,0.4947883002460003,True,18,-1,0,3
Y2-S2-035K29,6,533,AS,exp,25,↑,up,↑,0.48243540013208985,True,18,-1,0,3
Y2-S2-035K29,6,534,AS,exp,34,←,left,←,0.5448501999489963,True,18,1,1,4
Y2-S2-035K29,6,535,AS,exp,36,↑,up,↑,0.46901920018717647,True,17,1,0,4
Y2-S2-035K29,6,536,AS,exp,34,→,no_key,no_letter,-1.0,False,17,-1,1,5
Y2-S2-035K29,6,537,AS,exp,49,←,left,←,0.5997134000062943,True,18,-1,0,5
Y2-S2-035K29,6,538,AS,exp,44,↑,no_key,no_letter,-1.0,False,18,-1,0,5
Y2-S2-035K29,6,539,AS,exp,32,↓,left,←,0.5644805999472737,False,19,-1,0,5
Y2-S2-035K29,6,540,AS,exp,37,←,left,←,0.43367329984903336,True,20,-1,0,5
Y2-S2-035K29,6,541,AS,exp,26,↑,up,↑,0.5501627000048757,True,20,-1,0,5
Y2-S2-035K29,6,542,AS,exp,50,→,right,→,0.549081000033766,True,20,1,1,6
Y2-S2-035K29,6,543,AS,exp,48,↑,no_key,no_letter,-1.0,False,19,-1,1,7
Y2-S2-035K29,6,544,AS,exp,38,↓,down,↓,0.6190077001228929,True,20,-1,0,7
Y2-S2-035K29,6,545,AS,exp,50,←,left,←,0.5151936998590827,True,20,-1,0,7
Y2-S2-035K29,6,546,AS,exp,28,↑,up,↑,1.3192250998690724,True,20,1,1,8
Y2-S2-035K29,6,547,AS,exp,32,→,right,→,0.43413970014080405,True,19,1,0,8
Y2-S2-035K29,6,548,AS,exp,43,↑,no_key,no_letter,-1.0,False,19,-1,1,9
Y2-S2-035K29,6,549,AS,exp,43,←,no_key,no_letter,-1.0,False,20,-1,0,9
Y2-S2-035K29,6,550,AS,exp,40,↓,up,↑,0.5773982000537217,False,21,-1,0,9
Y2-S2-035K29,6,551,AS,exp,36,↑,no_key,no_letter,-1.0,False,22,-1,0,9
Y2-S2-035K29,6,552,AS,exp,39,↓,down,↓,0.8180975001305342,True,23,-1,0,9
Y2-S2-035K29,6,553,AS,exp,47,→,right,→,0.6295293001458049,True,23,-1,0,9
Y2-S2-035K29,6,554,AS,exp,48,↑,up,↑,0.5179769000969827,True,23,1,1,10
Y2-S2-035K29,6,555,AS,exp,27,→,no_key,no_letter,-1.0,False,22,-1,1,11
Y2-S2-035K29,6,556,AS,exp,27,↑,up,↑,1.596525900065899,True,23,-1,0,11
Y2-S2-035K29,6,557,AS,exp,30,→,right,→,0.7671150001697242,True,23,-1,0,11
Y2-S2-035K29,6,558,AS,exp,50,←,left,←,0.5545351998880506,True,23,1,1,12
Y2-S2-035K29,6,559,AS,exp,29,→,right,→,0.5895504001528025,True,22,1,0,12
Y2-S2-035K29,6,560,AS,exp,38,↑,up,↑,1.0219994001090527,True,22,1,0,12
Y2-S2-035K29,6,561,AS,exp,28,↓,down,↓,0.8569451998919249,True,22,1,0,12
Y2-S2-035K29,6,562,AS,exp,36,↑,up,↑,0.5805894997902215,True,21,1,0,12
Y2-S2-035K29,6,563,AS,exp,49,↓,down,↓,0.5548843001015484,True,21,1,0,12
Y2-S2-035K29,6,564,AS,exp,35,←,no_key,no_letter,-1.0,False,21,-1,1,13
Y2-S2-035K29,6,565,AS,exp,37,↑,up,↑,0.5742286001332104,True,22,-1,0,13
Y2-S2-035K29,6,566,AS,exp,29,↓,down,↓,0.5945668001659214,True,22,-1,0,13
Y2-S2-035K29,6,567,AS,exp,33,←,left,←,0.7421641000546515,True,22,1,1,14
Y2-S2-035K29,6,568,AS,exp,34,↑,down,↓,1.04061200004071,False,21,-1,1,15
Y2-S2-035K29,6,569,AS,exp,33,→,right,→,0.5005771997384727,True,22,-1,0,15
Y2-S2-035K29,6,570,AS,exp,30,←,left,←,0.46729080006480217,True,22,-1,0,15
Y2-S2-035K29,6,571,AS,exp,25,→,left,←,0.7505009998567402,False,22,-1,0,15
Y2-S2-035K29,6,572,AS,exp,29,↓,down,↓,0.8502539000473917,True,23,-1,0,15
Y2-S2-035K29,6,573,AS,exp,45,←,left,←,0.6621957002207637,True,23,-1,0,15
Y2-S2-035K29,6,574,AS,exp,42,→,right,→,0.5791541999205947,True,23,1,1,16
Y2-S2-035K29,7,575,AS,intra_train,37,↓,down,↓,0.6400216999463737,True,22,-,-,-
Y2-S2-035K29,7,576,AS,intra_train,29,←,left,←,0.5983225000090897,True,22,-,-,-
Y2-S2-035K29,7,577,AS,intra_train,43,→,no_key,no_letter,-1.0,False,22,-,-,-
Y2-S2-035K29,7,578,AS,intra_train,28,↓,down,↓,0.8648036001250148,True,22,-,-,-
Y2-S2-035K29,7,579,AS,intra_train,48,↑,no_key,no_letter,-1.0,False,22,-,-,-
Y2-S2-035K29,7,580,AS,exp,38,→,down,↓,0.7996044997125864,False,15,-1,0,0
Y2-S2-035K29,7,581,AS,exp,33,↑,up,↑,0.8969017001800239,True,16,-1,0,0
Y2-S2-035K29,7,582,AS,exp,34,←,no_key,no_letter,-1.0,False,16,-1,0,0
Y2-S2-035K29,7,583,AS,exp,38,↑,no_key,no_letter,-1.0,False,17,-1,0,0
Y2-S2-035K29,7,584,AS,exp,34,↓,down,↓,0.727492299862206,True,18,-1,0,0
Y2-S2-035K29,7,585,AS,exp,37,↑,up,↑,0.6188829001039267,True,18,-1,0,0
Y2-S2-035K29,7,586,AS,exp,25,←,left,←,0.5112723000347614,True,18,1,1,1
Y2-S2-035K29,7,587,AS,exp,35,↑,up,↑,0.6253237999044359,True,17,1,0,1
Y2-S2-035K29,7,588,AS,exp,44,←,left,←,0.7706953003071249,True,17,1,0,1
Y2-S2-035K29,7,589,AS,exp,30,↓,down,↓,0.668315100017935,True,17,1,0,1
Y2-S2-035K29,7,590,AS,exp,28,↑,left,←,0.9578180997632444,False,16,-1,1,2
Y2-S2-035K29,7,591,AS,exp,36,↓,up,↑,0.6501982999034226,False,17,-1,0,2
Y2-S2-035K29,7,592,AS,exp,40,↑,no_key,no_letter,-1.0,False,18,-1,0,2
Y2-S2-035K29,7,593,AS,exp,44,←,left,←,0.6613631001673639,True,19,-1,0,2
Y2-S2-035K29,7,594,AS,exp,37,→,down,↓,1.029290699865669,False,19,-1,0,2
Y2-S2-035K29,7,595,AS,exp,30,↑,up,↑,0.6353028998710215,True,20,-1,0,2
Y2-S2-035K29,7,596,AS,exp,46,→,right,→,0.5948509001173079,True,20,-1,0,2
Y2-S2-035K29,7,597,AS,exp,48,←,left,←,0.5148518001660705,True,20,1,1,3
Y2-S2-035K29,7,598,AS,exp,37,↓,down,↓,0.6339658000506461,True,19,1,0,3
Y2-S2-035K29,7,599,AS,exp,48,→,left,←,0.672015099786222,False,19,-1,1,4
Y2-S2-035K29,7,600,AS,exp,48,↓,down,↓,0.6123894001357257,True,20,-1,0,4
Y2-S2-035K29,7,601,AS,exp,31,←,left,←,0.5135010001249611,True,20,-1,0,4
Y2-S2-035K29,7,602,AS,exp,41,↑,up,↑,0.6764395995996892,True,20,1,1,5
Y2-S2-035K29,7,603,AS,exp,32,↓,down,↓,0.6644040001556277,True,19,1,0,5
Y2-S2-035K29,7,604,AS,exp,44,→,left,←,0.5724011999554932,False,19,-1,1,6
Y2-S2-035K29,7,605,AS,exp,43,↑,no_key,no_letter,-1.0,False,20,-1,0,6
Y2-S2-035K29,7,606,AS,exp,46,↓,down,↓,1.038794900290668,True,21,-1,0,6
Y2-S2-035K29,7,607,AS,exp,50,←,left,←,0.7564970999956131,True,21,-1,0,6
Y2-S2-035K29,7,608,AS,exp,27,→,right,→,0.6290253000333905,True,21,1,1,7
Y2-S2-035K29,7,609,AS,exp,25,↑,up,↑,0.5525166001170874,True,20,1,0,7
Y2-S2-035K29,7,610,AS,exp,41,↓,down,↓,0.5844016000628471,True,20,1,0,7
Y2-S2-035K29,7,611,AS,exp,47,↑,up,↑,0.5253070998005569,True,20,1,0,7
Y2-S2-035K29,7,612,AS,exp,45,←,left,←,0.5575059000402689,True,19,1,0,7
Y2-S2-035K29,7,613,AS,exp,47,↓,down,↓,0.576747799757868,True,19,1,0,7
Y2-S2-035K29,7,614,AS,exp,49,↑,up,↑,0.5365863000042737,True,19,1,0,7
Y2-S2-035K29,7,615,AS,exp,25,↓,up,↑,0.7360702999867499,False,18,-1,1,8
Y2-S2-035K29,7,616,AS,exp,28,→,right,→,0.5102248000912368,True,19,-1,0,8
Y2-S2-035K29,7,617,AS,exp,45,↑,no_key,no_letter,-1.0,False,19,-1,0,8
Y2-S2-035K29,7,618,AS,exp,43,←,left,←,0.621979400049895,True,20,-1,0,8
Y2-S2-035K29,7,619,AS,exp,40,→,right,→,0.6043263003230095,True,20,-1,0,8
Y2-S2-035K29,7,620,AS,exp,26,↓,down,↓,0.6362808002158999,True,20,1,1,9
Y2-S2-035K29,7,621,AS,exp,47,↑,down,↓,0.7234848998486996,False,19,-1,1,10
Y2-S2-035K29,7,622,AS,exp,38,→,right,→,0.541234300006181,True,20,-1,0,10
Y2-S2-035K29,7,623,AS,exp,33,↓,down,↓,0.5388283999636769,True,20,-1,0,10
Y2-S2-035K29,7,624,AS,exp,41,↑,up,↑,0.4675187999382615,True,20,1,1,11
Y2-S2-035K29,7,625,AS,exp,27,←,right,→,0.894114900380373,False,19,-1,1,12
Y2-S2-035K29,7,626,AS,exp,50,↓,down,↓,0.5927773001603782,True,20,-1,0,12
Y2-S2-035K29,7,627,AS,exp,40,←,left,←,0.5130185000598431,True,20,-1,0,12
Y2-S2-035K29,7,628,AS,exp,26,↓,down,↓,0.547535200137645,True,20,1,1,13
Y2-S2-035K29,7,629,AS,exp,41,→,right,→,0.5408756001852453,True,19,1,0,13
Y2-S2-035K29,7,630,AS,exp,44,↓,down,↓,0.5896812998689711,True,19,1,0,13
Y2-S2-035K29,7,631,AS,exp,38,→,right,→,0.5560043002478778,True,19,1,0,13
Y2-S2-035K29,7,632,AS,exp,47,↑,up,↑,0.5471882000565529,True,18,1,0,13
Y2-S2-035K29,7,633,AS,exp,50,↓,down,↓,0.6414283998310566,True,18,1,0,13
Y2-S2-035K29,7,634,AS,exp,50,↑,no_key,no_letter,-1.0,False,18,-1,1,14
Y2-S2-035K29,7,635,AS,exp,46,→,right,→,0.6724991002120078,True,19,-1,0,14
Y2-S2-035K29,7,636,AS,exp,36,↓,down,↓,0.781752800103277,True,19,-1,0,14
Y2-S2-035K29,7,637,AS,exp,36,←,left,←,0.5153669998981059,True,19,1,1,15
Y2-S2-035K29,7,638,AS,exp,32,→,right,→,0.6620169999077916,True,18,1,0,15
Y2-S2-035K29,7,639,AS,exp,35,←,left,←,0.6312721003778279,True,18,1,0,15
Y2-S2-035K29,7,640,AS,exp,35,↓,down,↓,0.6263028997927904,True,18,1,0,15
Y2-S2-035K29,7,641,AS,exp,40,←,left,←,0.5657135001383722,True,17,1,0,15
Y2-S2-035K29,7,642,AS,exp,43,→,up,↑,1.3909513000398874,False,17,-1,1,16
Y2-S2-035K29,8,643,PS,intra_train,49,↓,down,↓,1.0284172999672592,True,19,-,-,-
Y2-S2-035K29,8,644,PS,intra_train,40,←,left,←,0.5828944998793304,True,19,-,-,-
Y2-S2-035K29,8,645,PS,intra_train,38,→,right,→,0.49756389996036887,True,19,-,-,-
Y2-S2-035K29,8,646,PS,intra_train,42,←,left,←,0.5013985000550747,True,19,-,-,-
Y2-S2-035K29,8,647,PS,intra_train,40,→,right,→,0.5073508997447789,True,19,-,-,-
Y2-S2-035K29,8,648,PS,exp,35,←,left,←,0.5309901000000536,True,13,0,0,0
Y2-S2-035K29,8,649,PS,exp,47,↑,up,↑,0.46587720001116395,True,13,0,0,0
Y2-S2-035K29,8,650,PS,exp,28,↓,down,↓,0.5556805999949574,True,13,1,0,0
Y2-S2-035K29,8,651,PS,exp,28,→,right,→,0.6124040996655822,True,12,1,0,0
Y2-S2-035K29,8,652,PS,exp,44,↓,down,↓,0.5736027997918427,True,12,1,0,0
Y2-S2-035K29,8,653,PS,exp,27,↑,up,↑,0.4322375003248453,True,12,1,0,0
Y2-S2-035K29,8,654,PS,exp,37,↓,down,↓,0.5361262997612357,True,11,1,0,0
Y2-S2-035K29,8,655,PS,exp,31,↑,up,↑,0.39869390008971095,True,11,1,0,0
Y2-S2-035K29,8,656,PS,exp,31,↓,down,↓,0.7048295000568032,True,11,1,0,0
Y2-S2-035K29,8,657,PS,exp,30,←,left,←,0.4114550999365747,True,10,1,0,0
Y2-S2-035K29,8,658,PS,exp,27,↓,down,↓,0.5660741999745369,True,10,1,0,0
Y2-S2-035K29,8,659,PS,exp,43,←,left,←,0.4801769000478089,True,10,1,0,0
Y2-S2-035K29,8,660,PS,exp,25,↑,down,↓,0.5570526998490095,False,9,-1,1,1
Y2-S2-035K29,8,661,PS,exp,34,↓,down,↓,0.6050287000834942,True,10,-1,0,1
Y2-S2-035K29,8,662,PS,exp,41,←,left,←,0.4625439001247287,True,10,-1,0,1
Y2-S2-035K29,8,663,PS,exp,38,→,left,←,0.5919416998513043,False,10,-1,0,1
Y2-S2-035K29,8,664,PS,exp,50,↑,up,↑,0.4418611000292003,True,11,-1,0,1
Y2-S2-035K29,8,665,PS,exp,30,↓,down,↓,0.6044203001074493,True,11,-1,0,1
Y2-S2-035K29,8,666,PS,exp,48,←,left,←,0.48161570029333234,True,11,1,1,2
Y2-S2-035K29,8,667,PS,exp,25,↑,right,→,0.8860532999970019,False,10,-1,1,3
Y2-S2-035K29,8,668,PS,exp,49,←,left,←,0.48951639980077744,True,11,-1,0,3
Y2-S2-035K29,8,669,PS,exp,48,↑,up,↑,0.5014083003625274,True,11,-1,0,3
Y2-S2-035K29,8,670,PS,exp,46,→,right,→,0.6764885000884533,True,11,1,1,4
Y2-S2-035K29,8,671,PS,exp,27,←,left,←,0.48313580034300685,True,10,1,0,4
Y2-S2-035K29,8,672,PS,exp,45,→,right,→,0.4852840998210013,True,10,1,0,4
Y2-S2-035K29,8,673,PS,exp,28,↓,down,↓,0.6774494997225702,True,10,1,0,4
Y2-S2-035K29,8,674,PS,exp,39,↑,up,↑,0.44616020005196333,True,9,1,0,4
Y2-S2-035K29,8,675,PS,exp,48,→,right,→,0.472929900046438,True,9,1,0,4
Y2-S2-035K29,8,676,PS,exp,25,↓,down,↓,0.7692106999456882,True,9,1,0,4
Y2-S2-035K29,8,677,PS,exp,33,→,right,→,0.47776459995657206,True,8,1,0,4
Y2-S2-035K29,8,678,PS,exp,50,←,left,←,0.4656543000601232,True,8,1,0,4
Y2-S2-035K29,8,679,PS,exp,27,↓,right,→,0.9475344000384212,False,8,-1,1,5
Y2-S2-035K29,8,680,PS,exp,30,←,left,←,0.453876500017941,True,9,-1,0,5
Y2-S2-035K29,8,681,PS,exp,32,→,left,←,0.4705540998838842,False,9,-1,0,5
Y2-S2-035K29,8,682,PS,exp,49,←,left,←,0.3964773998595774,True,10,-1,0,5
Y2-S2-035K29,8,683,PS,exp,49,↓,down,↓,0.5709625002928078,True,10,-1,0,5
Y2-S2-035K29,8,684,PS,exp,28,↑,left,←,0.6741778003051877,False,10,-1,0,5
Y2-S2-035K29,8,685,PS,exp,29,→,left,←,0.43914709985256195,False,11,-1,0,5
Y2-S2-035K29,8,686,PS,exp,48,↓,down,↓,0.5808391999453306,True,12,-1,0,5
Y2-S2-035K29,8,687,PS,exp,35,↑,up,↑,0.5018325001001358,True,12,-1,0,5
Y2-S2-035K29,8,688,PS,exp,31,→,right,→,0.512272400315851,True,12,1,1,6
Y2-S2-035K29,8,689,PS,exp,32,←,right,→,0.7824675003066659,False,11,-1,1,7
Y2-S2-035K29,8,690,PS,exp,48,→,right,→,0.540026499889791,True,12,-1,0,7
Y2-S2-035K29,8,691,PS,exp,35,↑,up,↑,0.44180249981582165,True,12,-1,0,7
Y2-S2-035K29,8,692,PS,exp,41,←,left,←,0.6194265000522137,True,12,1,1,8
Y2-S2-035K29,8,693,PS,exp,25,→,right,→,0.768117000348866,True,11,1,0,8
Y2-S2-035K29,8,694,PS,exp,25,↓,down,↓,0.6421824996359646,True,11,1,0,8
Y2-S2-035K29,8,695,PS,exp,46,↑,up,↑,0.54394769994542,True,11,1,0,8
Y2-S2-035K29,8,696,PS,exp,29,↓,down,↓,0.6534974998794496,True,10,1,0,8
Y2-S2-035K29,8,697,PS,exp,30,↑,up,↑,0.485546899959445,True,10,1,0,8
Y2-S2-035K29,8,698,PS,exp,28,←,left,←,0.9689883003011346,True,10,1,0,8
Y2-S2-035K29,8,699,PS,exp,50,↓,down,↓,0.671694700140506,True,9,1,0,8
Y2-S2-035K29,8,700,PS,exp,41,←,left,←,0.5688604996539652,True,9,1,0,8
Y2-S2-035K29,8,701,PS,exp,25,↑,up,↑,0.5113117997534573,True,9,1,0,8
Y2-S2-035K29,8,702,PS,exp,47,←,down,↓,0.7776742000132799,False,8,-1,1,9
Y2-S2-035K29,8,703,PS,exp,28,↓,no_key,no_letter,-1.0,False,9,-1,0,9
Y2-S2-035K29,8,704,PS,exp,28,→,right,→,0.44061220018193126,True,10,-1,0,9
Y2-S2-035K29,8,705,PS,exp,31,↓,no_key,no_letter,-1.0,False,10,-1,0,9
Y2-S2-035K29,8,706,PS,exp,50,↑,up,↑,0.4652591999620199,True,11,-1,0,9
Y2-S2-035K29,8,707,PS,exp,30,↓,no_key,no_letter,-1.0,False,11,-1,0,9
Y2-S2-035K29,8,708,PS,exp,27,↑,up,↑,0.5143674002029002,True,12,-1,0,9
Y2-S2-035K29,8,709,PS,exp,48,←,left,←,0.501836400013417,True,12,-1,0,9
Y2-S2-035K29,8,710,PS,exp,48,↓,down,↓,0.5788305001333356,True,12,1,1,10
Y2-S2-035K29,8,711,PS,exp,36,←,left,←,0.4491326999850571,True,11,1,0,10
Y2-S2-035K29,8,712,PS,exp,44,↑,up,↑,0.5515848998911679,True,11,1,0,10
Y2-S2-035K29,8,713,PS,exp,41,→,right,→,0.4858287996612489,True,11,1,0,10
Y2-S2-035K29,8,714,PS,exp,43,↓,no_key,no_letter,-1.0,False,10,-1,1,11
Y2-S2-035K29,8,715,PS,exp,35,←,up,↑,0.5421976000070572,False,11,-1,0,11
Y2-S2-035K29,8,716,PS,exp,41,↑,up,↑,0.6704632001928985,True,12,-1,0,11
Y2-S2-035K29,8,717,PS,exp,33,↓,down,↓,0.6755973002873361,True,12,-1,0,11
Y2-S2-035K29,8,718,PS,exp,34,↑,up,↑,0.5358021999709308,True,12,1,1,12
Y2-S2-035K29,8,719,PS,exp,50,↓,down,↓,0.6819110997021198,True,11,1,0,12
Y2-S2-035K29,8,720,PS,exp,50,↑,right,→,0.8585586003027856,False,11,-1,1,13
Y2-S2-035K29,8,721,PS,exp,41,↓,down,↓,0.6978784999810159,True,12,-1,0,13
Y2-S2-035K29,8,722,PS,exp,34,↑,up,↑,0.4079983001574874,True,12,-1,0,13
Y2-S2-035K29,8,723,PS,exp,32,→,right,→,0.7024813001044095,True,12,1,1,14
Y2-S2-035K29,8,724,PS,exp,43,↓,down,↓,0.6471234001219273,True,11,1,0,14
Y2-S2-035K29,8,725,PS,exp,39,↑,up,↑,0.45426040003076196,True,11,1,0,14
Y2-S2-035K29,8,726,PS,exp,37,→,up,↑,0.9482120000757277,False,11,-1,1,15
Y2-S2-035K29,8,727,PS,exp,34,↓,down,↓,0.7307168003171682,True,12,-1,0,15
Y2-S2-035K29,8,728,PS,exp,31,→,right,→,0.5433120001107454,True,12,-1,0,15
Y2-S2-035K29,8,729,PS,exp,29,↑,up,↑,0.42597540002316236,True,12,1,1,16
