PART_ID,Block_no,Trial_no,Block_type,Trial_type,CSI,Stim_letter,Key_pressed,letter_choose,Rt,Corr,Stimulus Time,Level,Reversal,Revs_count
Y2-S2-278K20,1,1,PS,train,38,↓,down,↓,1.2984825996682048,True,30,-,-,-
Y2-S2-278K20,1,2,PS,train,29,↑,down,↓,0.8401767006143928,False,30,-,-,-
Y2-S2-278K20,1,3,PS,train,28,↓,down,↓,0.600530800409615,True,30,-,-,-
Y2-S2-278K20,1,4,PS,train,25,←,left,←,0.6782216997817159,True,30,-,-,-
Y2-S2-278K20,1,5,PS,train,26,↑,up,↑,0.6011310992762446,True,30,-,-,-
Y2-S2-278K20,1,6,PS,train,40,→,right,→,0.7573880003765225,True,30,-,-,-
Y2-S2-278K20,1,7,PS,train,33,←,left,←,0.8218053001910448,True,30,-,-,-
Y2-S2-278K20,1,8,PS,train,34,↓,down,↓,0.5838171001523733,True,30,-,-,-
Y2-S2-278K20,1,9,PS,train,42,→,right,→,0.5842580003663898,True,30,-,-,-
Y2-S2-278K20,1,10,PS,train,44,↓,down,↓,0.5514397993683815,True,30,-,-,-
Y2-S2-278K20,2,11,AS,train,27,→,right,→,0.5343174003064632,True,45,-,-,-
Y2-S2-278K20,2,12,AS,train,39,↓,down,↓,0.700364800170064,True,45,-,-,-
Y2-S2-278K20,2,13,AS,train,26,↑,up,↑,0.5675852997228503,True,45,-,-,-
Y2-S2-278K20,2,14,AS,train,34,→,right,→,0.5343502992764115,True,45,-,-,-
Y2-S2-278K20,2,15,AS,train,44,↑,up,↑,0.5683826999738812,True,45,-,-,-
Y2-S2-278K20,2,16,AS,train,40,↓,down,↓,0.6675260001793504,True,45,-,-,-
Y2-S2-278K20,2,17,AS,train,38,←,left,←,0.534379499964416,True,45,-,-,-
Y2-S2-278K20,2,18,AS,train,33,↓,down,↓,0.5845004003494978,True,45,-,-,-
Y2-S2-278K20,2,19,AS,train,42,→,right,→,0.7507308004423976,True,45,-,-,-
Y2-S2-278K20,2,20,AS,train,39,↓,down,↓,0.5509091997519135,True,45,-,-,-
Y2-S2-278K20,-,21,PS,adaptive,43,↑,up,↑,0.706840300001204,True,10,0,0,0
Y2-S2-278K20,-,22,PS,adaptive,41,↓,down,↓,1.3109836000949144,True,10,0,0,0
Y2-S2-278K20,-,23,PS,adaptive,26,↑,up,↑,0.6533520994707942,True,10,1,0,0
Y2-S2-278K20,-,24,PS,adaptive,44,↓,up,↑,0.6520983995869756,False,9,-1,1,1
Y2-S2-278K20,-,25,PS,adaptive,50,→,right,→,0.47905229963362217,True,10,-1,0,1
Y2-S2-278K20,-,26,PS,adaptive,30,↓,down,↓,0.7334163999184966,True,10,-1,0,1
Y2-S2-278K20,-,27,PS,adaptive,27,→,right,→,0.4975911993533373,True,10,1,1,2
Y2-S2-278K20,-,28,PS,adaptive,49,↑,right,→,0.6602972000837326,False,9,-1,1,3
Y2-S2-278K20,-,29,PS,adaptive,27,←,right,→,0.8087272001430392,False,10,-1,0,3
Y2-S2-278K20,-,30,PS,adaptive,25,↑,up,↑,0.49612489994615316,True,11,-1,0,3
Y2-S2-278K20,-,31,PS,adaptive,37,→,right,→,0.48331550043076277,True,11,-1,0,3
Y2-S2-278K20,-,32,PS,adaptive,34,↓,down,↓,0.530421900562942,True,11,1,1,4
Y2-S2-278K20,-,33,AS,adaptive,30,→,right,→,0.4171352004632354,True,20,0,0,0
Y2-S2-278K20,-,34,AS,adaptive,47,←,left,←,0.5805281000211835,True,20,0,0,0
Y2-S2-278K20,-,35,AS,adaptive,48,→,right,→,0.5173329999670386,True,20,1,0,0
Y2-S2-278K20,-,36,AS,adaptive,47,←,left,←,0.6240138001739979,True,19,1,0,0
Y2-S2-278K20,-,37,AS,adaptive,26,↓,down,↓,0.5941428001970053,True,19,1,0,0
Y2-S2-278K20,-,38,AS,adaptive,49,←,right,→,0.9013065993785858,False,19,-1,1,1
Y2-S2-278K20,-,39,AS,adaptive,49,↑,up,↑,0.5017935000360012,True,20,-1,0,1
Y2-S2-278K20,-,40,AS,adaptive,28,↓,down,↓,0.6459274999797344,True,20,-1,0,1
Y2-S2-278K20,-,41,AS,adaptive,34,←,left,←,0.5806236006319523,True,20,1,1,2
Y2-S2-278K20,-,42,AS,adaptive,35,→,right,→,0.48928469978272915,True,19,1,0,2
Y2-S2-278K20,-,43,AS,adaptive,32,↑,up,↑,0.6829204000532627,True,19,1,0,2
Y2-S2-278K20,-,44,AS,adaptive,32,→,right,→,0.6320932004600763,True,19,1,0,2
Y2-S2-278K20,-,45,AS,adaptive,28,←,left,←,0.6614308999851346,True,18,1,0,2
Y2-S2-278K20,-,46,AS,adaptive,49,↑,up,↑,0.4840009994804859,True,18,1,0,2
Y2-S2-278K20,-,47,AS,adaptive,27,↓,down,↓,0.6527466997504234,True,18,1,0,2
Y2-S2-278K20,-,48,AS,adaptive,31,↑,up,↑,0.5935142002999783,True,17,1,0,2
Y2-S2-278K20,-,49,AS,adaptive,30,→,right,→,0.4597052000463009,True,17,1,0,2
Y2-S2-278K20,-,50,AS,adaptive,29,↑,up,↑,0.5113169997930527,True,17,1,0,2
Y2-S2-278K20,-,51,AS,adaptive,50,→,right,→,0.4902838999405503,True,16,1,0,2
Y2-S2-278K20,-,52,AS,adaptive,34,←,left,←,0.7081720000132918,True,16,1,0,2
Y2-S2-278K20,-,53,AS,adaptive,38,↑,up,↑,0.48509739991277456,True,16,1,0,2
Y2-S2-278K20,-,54,AS,adaptive,45,←,left,←,0.6492934999987483,True,15,1,0,2
Y2-S2-278K20,-,55,AS,adaptive,37,↓,down,↓,0.6552897002547979,True,15,1,0,2
Y2-S2-278K20,-,56,AS,adaptive,35,→,right,→,0.675612099468708,True,15,1,0,2
Y2-S2-278K20,-,57,AS,adaptive,38,↓,down,↓,0.5612677000463009,True,14,1,0,2
Y2-S2-278K20,-,58,AS,adaptive,50,←,left,←,0.682663700543344,True,14,1,0,2
Y2-S2-278K20,-,59,AS,adaptive,29,→,right,→,0.5143099995329976,True,14,1,0,2
Y2-S2-278K20,-,60,AS,adaptive,31,←,right,→,0.7211220003664494,False,13,-1,1,3
Y2-S2-278K20,-,61,AS,adaptive,39,↑,up,↑,0.546089599840343,True,14,-1,0,3
Y2-S2-278K20,-,62,AS,adaptive,25,←,left,←,0.6177409002557397,True,14,-1,0,3
Y2-S2-278K20,-,63,AS,adaptive,50,↓,down,↓,0.6027922006323934,True,14,1,1,4
Y2-S2-278K20,1,64,PS,intra_train,35,↑,up,↑,0.6668493999168277,True,15,-,-,-
Y2-S2-278K20,1,65,PS,intra_train,40,→,right,→,0.4997516004368663,True,15,-,-,-
Y2-S2-278K20,1,66,PS,intra_train,50,←,left,←,0.5713237002491951,True,15,-,-,-
Y2-S2-278K20,1,67,PS,intra_train,47,↓,down,↓,0.6021612007170916,True,15,-,-,-
Y2-S2-278K20,1,68,PS,intra_train,37,←,left,←,0.6051018005236983,True,15,-,-,-
Y2-S2-278K20,1,69,PS,exp,32,↓,up,↑,0.6537538999691606,False,10,-1,0,0
Y2-S2-278K20,1,70,PS,exp,48,→,right,→,0.7380916001275182,True,11,-1,0,0
Y2-S2-278K20,1,71,PS,exp,33,↓,up,↑,0.5594839993864298,False,11,-1,0,0
Y2-S2-278K20,1,72,PS,exp,44,←,left,←,0.3976427000015974,True,12,-1,0,0
Y2-S2-278K20,1,73,PS,exp,50,↓,down,↓,0.5740557992830873,True,12,-1,0,0
Y2-S2-278K20,1,74,PS,exp,48,↑,up,↑,0.5510948998853564,True,12,1,1,1
Y2-S2-278K20,1,75,PS,exp,36,↓,up,↑,0.5866737002506852,False,11,-1,1,2
Y2-S2-278K20,1,76,PS,exp,28,↑,left,←,0.609171399846673,False,12,-1,0,2
Y2-S2-278K20,1,77,PS,exp,45,→,left,←,0.7385868998244405,False,13,-1,0,2
Y2-S2-278K20,1,78,PS,exp,33,←,left,←,0.4605701994150877,True,14,-1,0,2
Y2-S2-278K20,1,79,PS,exp,34,↑,up,↑,0.6556465001776814,True,14,-1,0,2
Y2-S2-278K20,1,80,PS,exp,25,↓,down,↓,0.647257199510932,True,14,1,1,3
Y2-S2-278K20,1,81,PS,exp,49,→,right,→,0.4937204997986555,True,13,1,0,3
Y2-S2-278K20,1,82,PS,exp,25,←,left,←,0.5857372004538774,True,13,1,0,3
Y2-S2-278K20,1,83,PS,exp,39,↓,down,↓,0.6775112999603152,True,13,1,0,3
Y2-S2-278K20,1,84,PS,exp,36,→,right,→,0.5009043999016285,True,12,1,0,3
Y2-S2-278K20,1,85,PS,exp,28,↑,up,↑,0.5148077998310328,True,12,1,0,3
Y2-S2-278K20,1,86,PS,exp,40,→,right,→,0.5070614004507661,True,12,1,0,3
Y2-S2-278K20,1,87,PS,exp,35,←,left,←,0.6513382000848651,True,11,1,0,3
Y2-S2-278K20,1,88,PS,exp,26,↓,down,↓,0.7155346004292369,True,11,1,0,3
Y2-S2-278K20,1,89,PS,exp,39,↑,right,→,0.8275458998978138,False,11,-1,1,4
Y2-S2-278K20,1,90,PS,exp,25,↓,down,↓,0.6411637999117374,True,12,-1,0,4
Y2-S2-278K20,1,91,PS,exp,40,←,left,←,0.4944072999060154,True,12,-1,0,4
Y2-S2-278K20,1,92,PS,exp,45,↑,left,←,0.7972935000434518,False,12,-1,0,4
Y2-S2-278K20,1,93,PS,exp,25,↓,down,↓,0.6149725001305342,True,13,-1,0,4
Y2-S2-278K20,1,94,PS,exp,27,→,right,→,0.5324793998152018,True,13,-1,0,4
Y2-S2-278K20,1,95,PS,exp,28,↑,up,↑,0.5465545002371073,True,13,1,1,5
Y2-S2-278K20,1,96,PS,exp,34,←,left,←,0.5701943999156356,True,12,1,0,5
Y2-S2-278K20,1,97,PS,exp,48,→,right,→,0.47308790031820536,True,12,1,0,5
Y2-S2-278K20,1,98,PS,exp,50,↓,down,↓,0.6033346997573972,True,12,1,0,5
Y2-S2-278K20,1,99,PS,exp,47,↑,up,↑,0.45657140016555786,True,11,1,0,5
Y2-S2-278K20,1,100,PS,exp,36,↓,up,↑,0.667161799967289,False,11,-1,1,6
Y2-S2-278K20,1,101,PS,exp,42,←,left,←,0.828855300322175,True,12,-1,0,6
Y2-S2-278K20,1,102,PS,exp,25,→,right,→,0.6889313999563456,True,12,-1,0,6
Y2-S2-278K20,1,103,PS,exp,27,←,left,←,0.592391999438405,True,12,1,1,7
Y2-S2-278K20,1,104,PS,exp,30,↑,left,←,0.6292283004149795,False,11,-1,1,8
Y2-S2-278K20,1,105,PS,exp,44,→,right,→,0.5473505994305015,True,12,-1,0,8
Y2-S2-278K20,1,106,PS,exp,42,↑,up,↑,0.4439967004582286,True,12,-1,0,8
Y2-S2-278K20,1,107,PS,exp,47,→,right,→,0.547546099871397,True,12,1,1,9
Y2-S2-278K20,1,108,PS,exp,37,↑,up,↑,0.5173300998285413,True,11,1,0,9
Y2-S2-278K20,1,109,PS,exp,40,←,left,←,0.48855260014533997,True,11,1,0,9
Y2-S2-278K20,1,110,PS,exp,37,→,right,→,0.9114632001146674,True,11,1,0,9
Y2-S2-278K20,1,111,PS,exp,41,↑,up,↑,0.4588355999439955,True,10,1,0,9
Y2-S2-278K20,1,112,PS,exp,43,→,right,→,0.5325894001871347,True,10,1,0,9
Y2-S2-278K20,1,113,PS,exp,49,↑,up,↑,0.5688231000676751,True,10,1,0,9
Y2-S2-278K20,1,114,PS,exp,39,→,right,→,0.4873452000319958,True,9,1,0,9
Y2-S2-278K20,1,115,PS,exp,50,←,right,→,0.5869329003617167,False,9,-1,1,10
Y2-S2-278K20,1,116,PS,exp,50,↓,right,→,0.5854462003335357,False,10,-1,0,10
Y2-S2-278K20,1,117,PS,exp,48,→,right,→,0.5627132998779416,True,11,-1,0,10
Y2-S2-278K20,1,118,PS,exp,45,↑,up,↑,0.43650330044329166,True,11,-1,0,10
Y2-S2-278K20,1,119,PS,exp,49,→,right,→,0.4234833996742964,True,11,1,1,11
Y2-S2-278K20,1,120,PS,exp,38,↑,up,↑,0.571709499694407,True,10,1,0,11
Y2-S2-278K20,1,121,PS,exp,39,←,left,←,0.5910122999921441,True,10,1,0,11
Y2-S2-278K20,1,122,PS,exp,33,↓,down,↓,0.561014000326395,True,10,1,0,11
Y2-S2-278K20,1,123,PS,exp,27,↑,down,↓,0.7845948003232479,False,9,-1,1,12
Y2-S2-278K20,1,124,PS,exp,43,↓,down,↓,0.6359666995704174,True,10,-1,0,12
Y2-S2-278K20,1,125,PS,exp,28,←,right,→,0.5812790999189019,False,10,-1,0,12
Y2-S2-278K20,1,126,PS,exp,39,↓,down,↓,0.5622077006846666,True,11,-1,0,12
Y2-S2-278K20,1,127,PS,exp,50,↑,up,↑,0.5727090993896127,True,11,-1,0,12
Y2-S2-278K20,1,128,PS,exp,30,←,left,←,0.5930615002289414,True,11,1,1,13
Y2-S2-278K20,1,129,PS,exp,33,↑,left,←,0.740599799901247,False,10,-1,1,14
Y2-S2-278K20,1,130,PS,exp,26,→,right,→,0.48337060026824474,True,11,-1,0,14
Y2-S2-278K20,1,131,PS,exp,37,←,left,←,0.5190955996513367,True,11,-1,0,14
Y2-S2-278K20,1,132,PS,exp,39,↓,down,↓,0.5134677002206445,True,11,1,1,15
Y2-S2-278K20,1,133,PS,exp,41,↑,up,↑,0.7731040995568037,True,10,1,0,15
Y2-S2-278K20,1,134,PS,exp,25,↓,down,↓,0.5580829996615648,True,10,1,0,15
Y2-S2-278K20,1,135,PS,exp,41,↑,up,↑,0.6283170999959111,True,10,1,0,15
Y2-S2-278K20,1,136,PS,exp,43,↓,down,↓,0.5005328003317118,True,9,1,0,15
Y2-S2-278K20,1,137,PS,exp,29,→,left,←,0.5589511003345251,False,9,-1,1,16
Y2-S2-278K20,2,138,AS,intra_train,45,←,left,←,0.631602599285543,True,19,-,-,-
Y2-S2-278K20,2,139,AS,intra_train,45,↓,up,↑,1.2766191000118852,False,19,-,-,-
Y2-S2-278K20,2,140,AS,intra_train,40,←,left,←,0.5889806002378464,True,19,-,-,-
Y2-S2-278K20,2,141,AS,intra_train,48,→,right,→,0.7020095000043511,True,19,-,-,-
Y2-S2-278K20,2,142,AS,intra_train,42,↓,down,↓,0.7104799998924136,True,19,-,-,-
Y2-S2-278K20,2,143,AS,exp,38,←,left,←,0.6017773998901248,True,13,0,0,0
Y2-S2-278K20,2,144,AS,exp,37,↓,down,↓,0.9838500004261732,True,13,0,0,0
Y2-S2-278K20,2,145,AS,exp,27,→,right,→,0.5999940000474453,True,13,1,0,0
Y2-S2-278K20,2,146,AS,exp,35,↑,up,↑,0.6268148999661207,True,12,1,0,0
Y2-S2-278K20,2,147,AS,exp,35,←,right,→,0.6815660996362567,False,12,-1,1,1
Y2-S2-278K20,2,148,AS,exp,41,↓,down,↓,0.6444234000518918,True,13,-1,0,1
Y2-S2-278K20,2,149,AS,exp,26,→,left,←,0.7993543995544314,False,13,-1,0,1
Y2-S2-278K20,2,150,AS,exp,49,↓,down,↓,0.5331867001950741,True,14,-1,0,1
Y2-S2-278K20,2,151,AS,exp,40,↑,down,↓,0.8567230002954602,False,14,-1,0,1
Y2-S2-278K20,2,152,AS,exp,33,→,right,→,0.5930658997967839,True,15,-1,0,1
Y2-S2-278K20,2,153,AS,exp,25,←,left,←,0.5922276005148888,True,15,-1,0,1
Y2-S2-278K20,2,154,AS,exp,41,→,right,→,0.8624812997877598,True,15,1,1,2
Y2-S2-278K20,2,155,AS,exp,39,←,right,→,0.8181138997897506,False,14,-1,1,3
Y2-S2-278K20,2,156,AS,exp,43,↓,down,↓,0.649847000837326,True,15,-1,0,3
Y2-S2-278K20,2,157,AS,exp,28,↑,up,↑,0.9149853000417352,True,15,-1,0,3
Y2-S2-278K20,2,158,AS,exp,32,↓,down,↓,0.5589143000543118,True,15,1,1,4
Y2-S2-278K20,2,159,AS,exp,27,↑,down,↓,0.9161349004134536,False,14,-1,1,5
Y2-S2-278K20,2,160,AS,exp,28,←,left,←,0.5811337996274233,True,15,-1,0,5
Y2-S2-278K20,2,161,AS,exp,37,↓,down,↓,0.5446772007271647,True,15,-1,0,5
Y2-S2-278K20,2,162,AS,exp,42,↑,up,↑,0.6484439000487328,True,15,1,1,6
Y2-S2-278K20,2,163,AS,exp,45,←,up,↑,1.087691600434482,False,14,-1,1,7
Y2-S2-278K20,2,164,AS,exp,43,↑,up,↑,0.8207122003659606,True,15,-1,0,7
Y2-S2-278K20,2,165,AS,exp,30,→,right,→,0.5483146999031305,True,15,-1,0,7
Y2-S2-278K20,2,166,AS,exp,40,←,up,↑,0.6785265998914838,False,15,-1,0,7
Y2-S2-278K20,2,167,AS,exp,42,↓,down,↓,0.5708160996437073,True,16,-1,0,7
Y2-S2-278K20,2,168,AS,exp,32,←,left,←,0.6940788002684712,True,16,-1,0,7
Y2-S2-278K20,2,169,AS,exp,44,↓,down,↓,0.6576049001887441,True,16,1,1,8
Y2-S2-278K20,2,170,AS,exp,30,→,right,→,0.5411453004926443,True,15,1,0,8
Y2-S2-278K20,2,171,AS,exp,50,←,left,←,0.9969424000009894,True,15,1,0,8
Y2-S2-278K20,2,172,AS,exp,41,↑,up,↑,0.569442399777472,True,15,1,0,8
Y2-S2-278K20,2,173,AS,exp,28,→,right,→,0.6451333994045854,True,14,1,0,8
Y2-S2-278K20,2,174,AS,exp,31,←,left,←,0.6526662996038795,True,14,1,0,8
Y2-S2-278K20,2,175,AS,exp,26,→,right,→,0.5467771999537945,True,14,1,0,8
Y2-S2-278K20,2,176,AS,exp,25,↓,down,↓,0.6136061996221542,True,13,1,0,8
Y2-S2-278K20,2,177,AS,exp,46,→,right,→,0.48176509980112314,True,13,1,0,8
Y2-S2-278K20,2,178,AS,exp,50,←,right,→,0.6522853998467326,False,13,-1,1,9
Y2-S2-278K20,2,179,AS,exp,29,↑,right,→,0.8442125003784895,False,14,-1,0,9
Y2-S2-278K20,2,180,AS,exp,26,↓,up,↑,0.6728631006553769,False,15,-1,0,9
Y2-S2-278K20,2,181,AS,exp,34,→,right,→,0.6278127999976277,True,16,-1,0,9
Y2-S2-278K20,2,182,AS,exp,35,←,left,←,0.6411223998293281,True,16,-1,0,9
Y2-S2-278K20,2,183,AS,exp,44,↑,up,↑,0.5269315000623465,True,16,1,1,10
Y2-S2-278K20,2,184,AS,exp,40,←,left,←,0.6392510002478957,True,15,1,0,10
Y2-S2-278K20,2,185,AS,exp,36,→,right,→,0.5725178997963667,True,15,1,0,10
Y2-S2-278K20,2,186,AS,exp,42,↓,down,↓,0.5963003998622298,True,15,1,0,10
Y2-S2-278K20,2,187,AS,exp,29,↑,down,↓,0.5953095005825162,False,14,-1,1,11
Y2-S2-278K20,2,188,AS,exp,30,→,down,↓,1.1011258997023106,False,15,-1,0,11
Y2-S2-278K20,2,189,AS,exp,45,↑,down,↓,0.729878700338304,False,16,-1,0,11
Y2-S2-278K20,2,190,AS,exp,38,→,right,→,0.47634079959243536,True,17,-1,0,11
Y2-S2-278K20,2,191,AS,exp,43,←,left,←,1.1841022996231914,True,17,-1,0,11
Y2-S2-278K20,2,192,AS,exp,26,→,right,→,0.4829043997451663,True,17,1,1,12
Y2-S2-278K20,2,193,AS,exp,37,←,left,←,0.7012696005403996,True,16,1,0,12
Y2-S2-278K20,2,194,AS,exp,30,↑,up,↑,0.6256691003218293,True,16,1,0,12
Y2-S2-278K20,2,195,AS,exp,32,↓,down,↓,0.6450347006320953,True,16,1,0,12
Y2-S2-278K20,2,196,AS,exp,44,→,right,→,0.49217330012470484,True,15,1,0,12
Y2-S2-278K20,2,197,AS,exp,27,↓,down,↓,0.5150102991610765,True,15,1,0,12
Y2-S2-278K20,2,198,AS,exp,40,←,up,↑,0.8890680000185966,False,15,-1,1,13
Y2-S2-278K20,2,199,AS,exp,39,→,right,→,0.5549873001873493,True,16,-1,0,13
Y2-S2-278K20,2,200,AS,exp,37,↑,left,←,1.195481799542904,False,16,-1,0,13
Y2-S2-278K20,2,201,AS,exp,43,←,left,←,0.6547574000433087,True,17,-1,0,13
Y2-S2-278K20,2,202,AS,exp,34,↑,up,↑,0.7695894995704293,True,17,-1,0,13
Y2-S2-278K20,2,203,AS,exp,47,←,left,←,0.6885530995205045,True,17,1,1,14
Y2-S2-278K20,2,204,AS,exp,35,↑,up,↑,0.47085179947316647,True,16,1,0,14
Y2-S2-278K20,2,205,AS,exp,41,→,right,→,0.7147340001538396,True,16,1,0,14
Y2-S2-278K20,2,206,AS,exp,27,↓,up,↑,0.6833126004785299,False,16,-1,1,15
Y2-S2-278K20,2,207,AS,exp,40,↑,up,↑,0.4655126007273793,True,17,-1,0,15
Y2-S2-278K20,2,208,AS,exp,39,→,left,←,1.8038392001762986,False,17,-1,0,15
Y2-S2-278K20,2,209,AS,exp,47,↑,up,↑,0.5376316998153925,True,18,-1,0,15
Y2-S2-278K20,2,210,AS,exp,47,←,left,←,0.4835330992937088,True,18,-1,0,15
Y2-S2-278K20,2,211,AS,exp,30,→,right,→,0.553162700496614,True,18,1,1,16
Y2-S2-278K20,3,212,AS,intra_train,50,↑,up,↑,0.5443087993189692,True,19,-,-,-
Y2-S2-278K20,3,213,AS,intra_train,41,→,right,→,0.5493056001141667,True,19,-,-,-
Y2-S2-278K20,3,214,AS,intra_train,30,←,left,←,0.5739417001605034,True,19,-,-,-
Y2-S2-278K20,3,215,AS,intra_train,25,→,right,→,0.5273882998153567,True,19,-,-,-
Y2-S2-278K20,3,216,AS,intra_train,50,↑,up,↑,0.5105221001431346,True,19,-,-,-
Y2-S2-278K20,3,217,AS,exp,42,↓,down,↓,0.6657648999243975,True,13,0,0,0
Y2-S2-278K20,3,218,AS,exp,37,←,left,←,0.49067620001733303,True,13,0,0,0
Y2-S2-278K20,3,219,AS,exp,32,→,right,→,0.6394627001136541,True,13,1,0,0
Y2-S2-278K20,3,220,AS,exp,28,↑,up,↑,0.6659786002710462,True,12,1,0,0
Y2-S2-278K20,3,221,AS,exp,41,→,right,→,0.49876169953495264,True,12,1,0,0
Y2-S2-278K20,3,222,AS,exp,26,↑,up,↑,0.598272499628365,True,12,1,0,0
Y2-S2-278K20,3,223,AS,exp,42,←,left,←,0.6027391999959946,True,11,1,0,0
Y2-S2-278K20,3,224,AS,exp,37,↓,down,↓,0.6183499004691839,True,11,1,0,0
Y2-S2-278K20,3,225,AS,exp,45,↑,down,↓,0.6159022003412247,False,11,-1,1,1
Y2-S2-278K20,3,226,AS,exp,46,↓,down,↓,0.5883305994793773,True,12,-1,0,1
Y2-S2-278K20,3,227,AS,exp,26,←,left,←,0.643940799869597,True,12,-1,0,1
Y2-S2-278K20,3,228,AS,exp,27,→,right,→,0.5729718999937177,True,12,1,1,2
Y2-S2-278K20,3,229,AS,exp,28,↓,down,↓,0.5279265996068716,True,11,1,0,2
Y2-S2-278K20,3,230,AS,exp,40,←,left,←,0.49124159943312407,True,11,1,0,2
Y2-S2-278K20,3,231,AS,exp,49,↓,down,↓,0.5794703001156449,True,11,1,0,2
Y2-S2-278K20,3,232,AS,exp,42,→,down,↓,0.7500775000080466,False,10,-1,1,3
Y2-S2-278K20,3,233,AS,exp,35,↑,down,↓,0.48629129957407713,False,11,-1,0,3
Y2-S2-278K20,3,234,AS,exp,42,←,right,→,0.5604487005621195,False,12,-1,0,3
Y2-S2-278K20,3,235,AS,exp,28,→,right,→,0.63916390016675,True,13,-1,0,3
Y2-S2-278K20,3,236,AS,exp,30,←,no_key,no_letter,-1.0,False,13,-1,0,3
Y2-S2-278K20,3,237,AS,exp,39,→,right,→,0.6370556000620127,True,14,-1,0,3
Y2-S2-278K20,3,238,AS,exp,29,↑,up,↑,0.665379099547863,True,14,-1,0,3
Y2-S2-278K20,3,239,AS,exp,34,→,right,→,0.5721287997439504,True,14,1,1,4
Y2-S2-278K20,3,240,AS,exp,44,↓,down,↓,0.6132370997220278,True,13,1,0,4
Y2-S2-278K20,3,241,AS,exp,30,←,right,→,1.0928849996998906,False,13,-1,1,5
Y2-S2-278K20,3,242,AS,exp,40,↓,down,↓,0.6308591002598405,True,14,-1,0,5
Y2-S2-278K20,3,243,AS,exp,40,↑,up,↑,0.6786108994856477,True,14,-1,0,5
Y2-S2-278K20,3,244,AS,exp,41,→,left,←,0.9062305996194482,False,14,-1,0,5
Y2-S2-278K20,3,245,AS,exp,42,↓,down,↓,0.5698572006076574,True,15,-1,0,5
Y2-S2-278K20,3,246,AS,exp,32,←,left,←,1.2729756003245711,True,15,-1,0,5
Y2-S2-278K20,3,247,AS,exp,42,↑,up,↑,0.7528677005320787,True,15,1,1,6
Y2-S2-278K20,3,248,AS,exp,29,→,right,→,1.1020989008247852,True,14,1,0,6
Y2-S2-278K20,3,249,AS,exp,49,↑,up,↑,0.7059022001922131,True,14,1,0,6
Y2-S2-278K20,3,250,AS,exp,50,←,left,←,0.5797060998156667,True,14,1,0,6
Y2-S2-278K20,3,251,AS,exp,50,↑,up,↑,0.7333289002999663,True,13,1,0,6
Y2-S2-278K20,3,252,AS,exp,40,←,right,→,0.6493464997038245,False,13,-1,1,7
Y2-S2-278K20,3,253,AS,exp,43,↑,up,↑,0.5546946004033089,True,14,-1,0,7
Y2-S2-278K20,3,254,AS,exp,33,→,right,→,0.5243787998333573,True,14,-1,0,7
Y2-S2-278K20,3,255,AS,exp,50,↑,up,↑,0.497181199491024,True,14,1,1,8
Y2-S2-278K20,3,256,AS,exp,48,←,right,→,0.6765697002410889,False,13,-1,1,9
Y2-S2-278K20,3,257,AS,exp,42,↑,up,↑,0.5294560994952917,True,14,-1,0,9
Y2-S2-278K20,3,258,AS,exp,43,←,right,→,0.6681520994752645,False,14,-1,0,9
Y2-S2-278K20,3,259,AS,exp,32,→,right,→,0.5324566997587681,True,15,-1,0,9
Y2-S2-278K20,3,260,AS,exp,38,↓,down,↓,0.7006389005109668,True,15,-1,0,9
Y2-S2-278K20,3,261,AS,exp,46,→,right,→,0.4982107998803258,True,15,1,1,10
Y2-S2-278K20,3,262,AS,exp,31,↓,down,↓,0.6294454000890255,True,14,1,0,10
Y2-S2-278K20,3,263,AS,exp,28,←,right,→,0.5496661001816392,False,14,-1,1,11
Y2-S2-278K20,3,264,AS,exp,27,↓,down,↓,0.7315103001892567,True,15,-1,0,11
Y2-S2-278K20,3,265,AS,exp,36,→,right,→,0.4769462998956442,True,15,-1,0,11
Y2-S2-278K20,3,266,AS,exp,41,↑,up,↑,0.6642935005947948,True,15,1,1,12
Y2-S2-278K20,3,267,AS,exp,39,→,left,←,0.6851091999560595,False,14,-1,1,13
Y2-S2-278K20,3,268,AS,exp,31,↓,right,→,0.9497395996004343,False,15,-1,0,13
Y2-S2-278K20,3,269,AS,exp,33,←,left,←,0.6292837001383305,True,16,-1,0,13
Y2-S2-278K20,3,270,AS,exp,29,↑,up,↑,0.573857800103724,True,16,-1,0,13
Y2-S2-278K20,3,271,AS,exp,45,←,left,←,0.6067546000704169,True,16,1,1,14
Y2-S2-278K20,3,272,AS,exp,37,→,right,→,0.5457344995811582,True,15,1,0,14
Y2-S2-278K20,3,273,AS,exp,40,↓,down,↓,0.762606299482286,True,15,1,0,14
Y2-S2-278K20,3,274,AS,exp,26,→,right,→,0.701778800226748,True,15,1,0,14
Y2-S2-278K20,3,275,AS,exp,32,←,right,→,1.18478689994663,False,14,-1,1,15
Y2-S2-278K20,3,276,AS,exp,29,↓,down,↓,0.6501299999654293,True,15,-1,0,15
Y2-S2-278K20,3,277,AS,exp,32,↑,up,↑,0.7073665000498295,True,15,-1,0,15
Y2-S2-278K20,3,278,AS,exp,27,↓,down,↓,0.631253500469029,True,15,1,1,16
Y2-S2-278K20,4,279,PS,intra_train,26,↑,up,↑,0.718920299783349,True,15,-,-,-
Y2-S2-278K20,4,280,PS,intra_train,40,↓,down,↓,0.6310219997540116,True,15,-,-,-
Y2-S2-278K20,4,281,PS,intra_train,50,←,left,←,0.592251599766314,True,15,-,-,-
Y2-S2-278K20,4,282,PS,intra_train,42,↓,down,↓,0.8045889995992184,True,15,-,-,-
Y2-S2-278K20,4,283,PS,intra_train,28,←,left,←,0.5358446994796395,True,15,-,-,-
Y2-S2-278K20,4,284,PS,exp,42,→,right,→,0.4884483003988862,True,10,0,0,0
Y2-S2-278K20,4,285,PS,exp,38,↓,down,↓,0.6287777004763484,True,10,0,0,0
Y2-S2-278K20,4,286,PS,exp,48,←,left,←,0.5945263002067804,True,10,1,0,0
Y2-S2-278K20,4,287,PS,exp,27,↑,right,→,0.9346161000430584,False,9,-1,1,1
Y2-S2-278K20,4,288,PS,exp,25,→,right,→,0.5934153003618121,True,10,-1,0,1
Y2-S2-278K20,4,289,PS,exp,48,←,left,←,0.504814499989152,True,10,-1,0,1
Y2-S2-278K20,4,290,PS,exp,37,→,left,←,0.61967539973557,False,10,-1,0,1
Y2-S2-278K20,4,291,PS,exp,38,↑,up,↑,0.4510385002940893,True,11,-1,0,1
Y2-S2-278K20,4,292,PS,exp,41,↓,down,↓,0.555876400321722,True,11,-1,0,1
Y2-S2-278K20,4,293,PS,exp,45,→,right,→,0.4565865993499756,True,11,1,1,2
Y2-S2-278K20,4,294,PS,exp,26,↓,down,↓,0.6334929997101426,True,10,1,0,2
Y2-S2-278K20,4,295,PS,exp,33,↑,up,↑,0.6577763995155692,True,10,1,0,2
Y2-S2-278K20,4,296,PS,exp,33,↓,down,↓,0.5813274998217821,True,10,1,0,2
Y2-S2-278K20,4,297,PS,exp,26,←,left,←,0.43011469952762127,True,9,1,0,2
Y2-S2-278K20,4,298,PS,exp,42,↓,down,↓,0.5726760998368263,True,9,1,0,2
Y2-S2-278K20,4,299,PS,exp,34,↑,down,↓,0.6412437995895743,False,9,-1,1,3
Y2-S2-278K20,4,300,PS,exp,38,→,left,←,0.5170958004891872,False,10,-1,0,3
Y2-S2-278K20,4,301,PS,exp,46,↓,down,↓,0.504929100163281,True,11,-1,0,3
Y2-S2-278K20,4,302,PS,exp,47,←,left,←,0.7739671999588609,True,11,-1,0,3
Y2-S2-278K20,4,303,PS,exp,28,↑,down,↓,0.6541454996913671,False,11,-1,0,3
Y2-S2-278K20,4,304,PS,exp,32,→,right,→,0.5763119999319315,True,12,-1,0,3
Y2-S2-278K20,4,305,PS,exp,27,←,left,←,0.8855359004810452,True,12,-1,0,3
Y2-S2-278K20,4,306,PS,exp,47,↓,down,↓,0.6339146997779608,True,12,1,1,4
Y2-S2-278K20,4,307,PS,exp,27,↑,up,↑,0.6113120000809431,True,11,1,0,4
Y2-S2-278K20,4,308,PS,exp,46,→,right,→,0.4845177000388503,True,11,1,0,4
Y2-S2-278K20,4,309,PS,exp,28,←,left,←,0.5303563997149467,True,11,1,0,4
Y2-S2-278K20,4,310,PS,exp,38,↑,up,↑,0.5507819997146726,True,10,1,0,4
Y2-S2-278K20,4,311,PS,exp,46,←,left,←,0.5068520000204444,True,10,1,0,4
Y2-S2-278K20,4,312,PS,exp,49,→,right,→,0.4649071004241705,True,10,1,0,4
Y2-S2-278K20,4,313,PS,exp,35,↑,left,←,0.7935445997864008,False,9,-1,1,5
Y2-S2-278K20,4,314,PS,exp,49,↓,down,↓,0.4680597996339202,True,10,-1,0,5
Y2-S2-278K20,4,315,PS,exp,25,→,right,→,0.49666740000247955,True,10,-1,0,5
Y2-S2-278K20,4,316,PS,exp,38,↑,down,↓,1.022614499554038,False,10,-1,0,5
Y2-S2-278K20,4,317,PS,exp,33,←,left,←,0.5893335994333029,True,11,-1,0,5
Y2-S2-278K20,4,318,PS,exp,26,↑,up,↑,0.5711783999577165,True,11,-1,0,5
Y2-S2-278K20,4,319,PS,exp,30,→,right,→,0.5216520000249147,True,11,1,1,6
Y2-S2-278K20,4,320,PS,exp,46,↓,down,↓,0.5150000005960464,True,10,1,0,6
Y2-S2-278K20,4,321,PS,exp,40,←,left,←,0.6780680008232594,True,10,1,0,6
Y2-S2-278K20,4,322,PS,exp,40,↓,down,↓,0.6387723004445434,True,10,1,0,6
Y2-S2-278K20,4,323,PS,exp,44,→,right,→,0.44460800010710955,True,9,1,0,6
Y2-S2-278K20,4,324,PS,exp,48,↓,down,↓,0.5434245998039842,True,9,1,0,6
Y2-S2-278K20,4,325,PS,exp,50,↑,down,↓,0.6852516997605562,False,9,-1,1,7
Y2-S2-278K20,4,326,PS,exp,40,→,right,→,0.9759331000968814,True,10,-1,0,7
Y2-S2-278K20,4,327,PS,exp,50,↓,down,↓,0.7407767996191978,True,10,-1,0,7
Y2-S2-278K20,4,328,PS,exp,49,→,right,→,0.5392939001321793,True,10,1,1,8
Y2-S2-278K20,4,329,PS,exp,36,←,left,←,0.6125647993758321,True,9,1,0,8
Y2-S2-278K20,4,330,PS,exp,50,↓,down,↓,0.5121806003153324,True,9,1,0,8
Y2-S2-278K20,4,331,PS,exp,27,↑,up,↑,0.726324399933219,True,9,1,0,8
Y2-S2-278K20,4,332,PS,exp,34,→,right,→,0.45373750012367964,True,8,1,0,8
Y2-S2-278K20,4,333,PS,exp,32,↓,down,↓,0.5285694003105164,True,8,1,0,8
Y2-S2-278K20,4,334,PS,exp,42,↑,right,→,0.3722538994625211,False,8,-1,1,9
Y2-S2-278K20,4,335,PS,exp,45,→,right,→,0.4965241001918912,True,9,-1,0,9
Y2-S2-278K20,4,336,PS,exp,29,←,left,←,0.5336271999403834,True,9,-1,0,9
Y2-S2-278K20,4,337,PS,exp,33,→,right,→,0.7218396002426744,True,9,1,1,10
Y2-S2-278K20,4,338,PS,exp,37,↓,right,→,0.5788607997819781,False,8,-1,1,11
Y2-S2-278K20,4,339,PS,exp,47,←,left,←,0.5708672003820539,True,9,-1,0,11
Y2-S2-278K20,4,340,PS,exp,41,↓,down,↓,0.5638755997642875,True,9,-1,0,11
Y2-S2-278K20,4,341,PS,exp,27,←,left,←,0.5700000002980232,True,9,1,1,12
Y2-S2-278K20,4,342,PS,exp,45,↑,up,↑,0.5411219000816345,True,8,1,0,12
Y2-S2-278K20,4,343,PS,exp,27,→,up,↑,0.6985936006531119,False,8,-1,1,13
Y2-S2-278K20,4,344,PS,exp,50,←,right,→,0.7172780996188521,False,9,-1,0,13
Y2-S2-278K20,4,345,PS,exp,37,→,no_key,no_letter,-1.0,False,10,-1,0,13
Y2-S2-278K20,4,346,PS,exp,28,↓,down,↓,0.5988159999251366,True,11,-1,0,13
Y2-S2-278K20,4,347,PS,exp,40,←,left,←,0.5143624991178513,True,11,-1,0,13
Y2-S2-278K20,4,348,PS,exp,48,↓,down,↓,0.5337468003854156,True,11,1,1,14
Y2-S2-278K20,4,349,PS,exp,44,↑,up,↑,0.4775831000879407,True,10,1,0,14
Y2-S2-278K20,4,350,PS,exp,46,→,right,→,0.4430427001789212,True,10,1,0,14
Y2-S2-278K20,4,351,PS,exp,35,←,right,→,0.5772136002779007,False,10,-1,1,15
Y2-S2-278K20,4,352,PS,exp,34,→,right,→,0.4485630998387933,True,11,-1,0,15
Y2-S2-278K20,4,353,PS,exp,50,←,right,→,0.5195666002109647,False,11,-1,0,15
Y2-S2-278K20,4,354,PS,exp,42,↑,right,→,0.3771050004288554,False,12,-1,0,15
Y2-S2-278K20,4,355,PS,exp,33,←,left,←,0.582409500144422,True,13,-1,0,15
Y2-S2-278K20,4,356,PS,exp,43,→,right,→,0.40558100026100874,True,13,-1,0,15
Y2-S2-278K20,4,357,PS,exp,49,←,left,←,0.47726699989289045,True,13,1,1,16
Y2-S2-278K20,5,358,PS,intra_train,42,↑,left,←,1.198984599672258,False,15,-,-,-
Y2-S2-278K20,5,359,PS,intra_train,36,↓,right,→,0.8361208001151681,False,15,-,-,-
Y2-S2-278K20,5,360,PS,intra_train,47,←,down,↓,1.2547864001244307,False,15,-,-,-
Y2-S2-278K20,5,361,PS,intra_train,26,↑,up,↑,0.47685080021619797,True,15,-,-,-
Y2-S2-278K20,5,362,PS,intra_train,39,←,left,←,0.44876329973340034,True,15,-,-,-
Y2-S2-278K20,5,363,PS,exp,44,→,right,→,0.47527700010687113,True,10,0,0,0
Y2-S2-278K20,5,364,PS,exp,39,←,left,←,0.5734273996204138,True,10,0,0,0
Y2-S2-278K20,5,365,PS,exp,31,→,left,←,0.6461133006960154,False,10,-1,0,0
Y2-S2-278K20,5,366,PS,exp,40,↑,up,↑,0.4512530006468296,True,11,-1,0,0
Y2-S2-278K20,5,367,PS,exp,25,↓,up,↑,0.6595050999894738,False,11,-1,0,0
Y2-S2-278K20,5,368,PS,exp,41,←,left,←,0.45082619972527027,True,12,-1,0,0
Y2-S2-278K20,5,369,PS,exp,40,→,right,→,0.40649749990552664,True,12,-1,0,0
Y2-S2-278K20,5,370,PS,exp,47,↓,down,↓,0.5656814007088542,True,12,1,1,1
Y2-S2-278K20,5,371,PS,exp,40,→,right,→,0.8544442001730204,True,11,1,0,1
Y2-S2-278K20,5,372,PS,exp,28,↑,up,↑,0.5868688002228737,True,11,1,0,1
Y2-S2-278K20,5,373,PS,exp,33,↓,down,↓,0.5248822001740336,True,11,1,0,1
Y2-S2-278K20,5,374,PS,exp,39,↑,up,↑,0.4511091001331806,True,10,1,0,1
Y2-S2-278K20,5,375,PS,exp,30,←,left,←,0.5228017000481486,True,10,1,0,1
Y2-S2-278K20,5,376,PS,exp,43,↓,down,↓,0.669892399571836,True,10,1,0,1
Y2-S2-278K20,5,377,PS,exp,33,←,left,←,0.6566548002883792,True,9,1,0,1
Y2-S2-278K20,5,378,PS,exp,39,↓,down,↓,0.4432437000796199,True,9,1,0,1
Y2-S2-278K20,5,379,PS,exp,29,↑,up,↑,0.5829988000914454,True,9,1,0,1
Y2-S2-278K20,5,380,PS,exp,40,↓,up,↑,0.6446847999468446,False,8,-1,1,2
Y2-S2-278K20,5,381,PS,exp,25,↑,up,↑,0.4613524992018938,True,9,-1,0,2
Y2-S2-278K20,5,382,PS,exp,48,→,right,→,0.5149972001090646,True,9,-1,0,2
Y2-S2-278K20,5,383,PS,exp,25,↑,up,↑,0.47454920038580894,True,9,1,1,3
Y2-S2-278K20,5,384,PS,exp,48,←,left,←,0.5712019000202417,True,8,1,0,3
Y2-S2-278K20,5,385,PS,exp,50,↑,up,↑,0.5039585996419191,True,8,1,0,3
Y2-S2-278K20,5,386,PS,exp,41,→,left,←,0.560576000250876,False,8,-1,1,4
Y2-S2-278K20,5,387,PS,exp,43,↓,down,↓,0.6300064995884895,True,9,-1,0,4
Y2-S2-278K20,5,388,PS,exp,27,↑,left,←,0.6924120001494884,False,9,-1,0,4
Y2-S2-278K20,5,389,PS,exp,49,←,left,←,0.4870951995253563,True,10,-1,0,4
Y2-S2-278K20,5,390,PS,exp,30,↓,down,↓,0.5122764995321631,True,10,-1,0,4
Y2-S2-278K20,5,391,PS,exp,25,←,left,←,0.48051129933446646,True,10,1,1,5
Y2-S2-278K20,5,392,PS,exp,46,↑,up,↑,0.4899552995339036,True,9,1,0,5
Y2-S2-278K20,5,393,PS,exp,35,↓,up,↑,0.5758937997743487,False,9,-1,1,6
Y2-S2-278K20,5,394,PS,exp,40,←,left,←,0.4514336995780468,True,10,-1,0,6
Y2-S2-278K20,5,395,PS,exp,46,↓,down,↓,0.5388868004083633,True,10,-1,0,6
Y2-S2-278K20,5,396,PS,exp,46,↑,up,↑,0.5068561993539333,True,10,1,1,7
Y2-S2-278K20,5,397,PS,exp,46,→,right,→,0.47243400011211634,True,9,1,0,7
Y2-S2-278K20,5,398,PS,exp,27,↓,down,↓,0.7566405003890395,True,9,1,0,7
Y2-S2-278K20,5,399,PS,exp,25,→,right,→,0.5673158001154661,True,9,1,0,7
Y2-S2-278K20,5,400,PS,exp,41,←,left,←,0.6080999998375773,True,8,1,0,7
Y2-S2-278K20,5,401,PS,exp,49,↓,down,↓,0.4983671996742487,True,8,1,0,7
Y2-S2-278K20,5,402,PS,exp,39,→,right,→,0.530587200075388,True,8,1,0,7
Y2-S2-278K20,5,403,PS,exp,43,↑,down,↓,0.5242762006819248,False,7,-1,1,8
Y2-S2-278K20,5,404,PS,exp,34,→,right,→,0.4765858994796872,True,8,-1,0,8
Y2-S2-278K20,5,405,PS,exp,42,↓,down,↓,0.5274820001795888,True,8,-1,0,8
Y2-S2-278K20,5,406,PS,exp,30,↑,down,↓,0.4746585004031658,False,8,-1,0,8
Y2-S2-278K20,5,407,PS,exp,34,↓,down,↓,0.48384360037744045,True,9,-1,0,8
Y2-S2-278K20,5,408,PS,exp,41,←,left,←,0.5370415998622775,True,9,-1,0,8
Y2-S2-278K20,5,409,PS,exp,43,↓,down,↓,0.42374239955097437,True,9,1,1,9
Y2-S2-278K20,5,410,PS,exp,47,←,left,←,0.5623238999396563,True,8,1,0,9
Y2-S2-278K20,5,411,PS,exp,47,↓,down,↓,0.603073799982667,True,8,1,0,9
Y2-S2-278K20,5,412,PS,exp,36,→,right,→,0.41885909996926785,True,8,1,0,9
Y2-S2-278K20,5,413,PS,exp,48,↑,up,↑,0.4728962006047368,True,7,1,0,9
Y2-S2-278K20,5,414,PS,exp,41,↓,down,↓,0.8680843003094196,True,7,1,0,9
Y2-S2-278K20,5,415,PS,exp,49,→,up,↑,0.45620059967041016,False,7,-1,1,10
Y2-S2-278K20,5,416,PS,exp,42,←,left,←,0.4454582007601857,True,8,-1,0,10
Y2-S2-278K20,5,417,PS,exp,34,→,right,→,0.4205986000597477,True,8,-1,0,10
Y2-S2-278K20,5,418,PS,exp,34,←,left,←,0.6852973997592926,True,8,1,1,11
Y2-S2-278K20,5,419,PS,exp,46,→,right,→,0.4008697997778654,True,7,1,0,11
Y2-S2-278K20,5,420,PS,exp,40,↑,up,↑,0.5032295007258654,True,7,1,0,11
Y2-S2-278K20,5,421,PS,exp,50,↓,down,↓,0.5320998998358846,True,7,1,0,11
Y2-S2-278K20,5,422,PS,exp,26,↑,up,↑,0.6071850005537271,True,6,1,0,11
Y2-S2-278K20,5,423,PS,exp,33,←,left,←,0.5304359998553991,True,6,1,0,11
Y2-S2-278K20,5,424,PS,exp,39,→,left,←,0.8501837998628616,False,6,-1,1,12
Y2-S2-278K20,5,425,PS,exp,35,↓,no_key,no_letter,-1.0,False,7,-1,0,12
Y2-S2-278K20,5,426,PS,exp,49,→,right,→,0.4921671999618411,True,8,-1,0,12
Y2-S2-278K20,5,427,PS,exp,48,↓,down,↓,0.511739999987185,True,8,-1,0,12
Y2-S2-278K20,5,428,PS,exp,47,↑,up,↑,0.4248775001615286,True,8,1,1,13
Y2-S2-278K20,5,429,PS,exp,37,←,right,→,0.618070799857378,False,7,-1,1,14
Y2-S2-278K20,5,430,PS,exp,31,→,right,→,0.6899427995085716,True,8,-1,0,14
Y2-S2-278K20,5,431,PS,exp,39,←,right,→,1.103188400156796,False,8,-1,0,14
Y2-S2-278K20,5,432,PS,exp,30,↓,down,↓,0.5544086005538702,True,9,-1,0,14
Y2-S2-278K20,5,433,PS,exp,32,↑,down,↓,0.6290303999558091,False,9,-1,0,14
Y2-S2-278K20,5,434,PS,exp,35,←,left,←,0.5193448998034,True,10,-1,0,14
Y2-S2-278K20,5,435,PS,exp,39,↑,up,↑,0.7247000997886062,True,10,-1,0,14
Y2-S2-278K20,5,436,PS,exp,42,↓,down,↓,1.5307422000914812,True,10,1,1,15
Y2-S2-278K20,5,437,PS,exp,32,↑,right,→,0.7361322995275259,False,9,-1,1,16
Y2-S2-278K20,6,438,AS,intra_train,46,←,left,←,0.7791456002742052,True,19,-,-,-
Y2-S2-278K20,6,439,AS,intra_train,47,↓,down,↓,0.6348650995641947,True,19,-,-,-
Y2-S2-278K20,6,440,AS,intra_train,45,↑,up,↑,0.5851667998358607,True,19,-,-,-
Y2-S2-278K20,6,441,AS,intra_train,32,↓,down,↓,1.0977222006767988,True,19,-,-,-
Y2-S2-278K20,6,442,AS,intra_train,47,↑,up,↑,0.6477851998060942,True,19,-,-,-
Y2-S2-278K20,6,443,AS,exp,27,←,left,←,0.5689183007925749,True,13,0,0,0
Y2-S2-278K20,6,444,AS,exp,47,↑,up,↑,0.6519441995769739,True,13,0,0,0
Y2-S2-278K20,6,445,AS,exp,33,→,left,←,0.5805592993274331,False,13,-1,0,0
Y2-S2-278K20,6,446,AS,exp,41,↓,down,↓,0.6559263002127409,True,14,-1,0,0
Y2-S2-278K20,6,447,AS,exp,41,↑,up,↑,0.7227467996999621,True,14,-1,0,0
Y2-S2-278K20,6,448,AS,exp,40,↓,down,↓,0.7395724002271891,True,14,1,1,1
Y2-S2-278K20,6,449,AS,exp,31,→,right,→,0.5172835998237133,True,13,1,0,1
Y2-S2-278K20,6,450,AS,exp,43,↓,down,↓,0.48877899907529354,True,13,1,0,1
Y2-S2-278K20,6,451,AS,exp,48,↑,down,↓,0.794141000136733,False,13,-1,1,2
Y2-S2-278K20,6,452,AS,exp,49,←,left,←,0.6224186001345515,True,14,-1,0,2
Y2-S2-278K20,6,453,AS,exp,32,↑,up,↑,0.7296369997784495,True,14,-1,0,2
Y2-S2-278K20,6,454,AS,exp,43,→,left,←,0.5686223991215229,False,14,-1,0,2
Y2-S2-278K20,6,455,AS,exp,31,←,left,←,0.4698529001325369,True,15,-1,0,2
Y2-S2-278K20,6,456,AS,exp,28,↑,up,↑,0.706882500089705,True,15,-1,0,2
Y2-S2-278K20,6,457,AS,exp,36,→,right,→,0.45457050018012524,True,15,1,1,3
Y2-S2-278K20,6,458,AS,exp,45,←,left,←,0.5277418997138739,True,14,1,0,3
Y2-S2-278K20,6,459,AS,exp,36,↑,up,↑,0.6139099998399615,True,14,1,0,3
Y2-S2-278K20,6,460,AS,exp,27,→,right,→,0.48256109934300184,True,14,1,0,3
Y2-S2-278K20,6,461,AS,exp,30,↓,down,↓,0.6584544004872441,True,13,1,0,3
Y2-S2-278K20,6,462,AS,exp,44,←,up,↑,1.0650688000023365,False,13,-1,1,4
Y2-S2-278K20,6,463,AS,exp,36,→,right,→,0.6337935999035835,True,14,-1,0,4
Y2-S2-278K20,6,464,AS,exp,38,↑,up,↑,0.49575719982385635,True,14,-1,0,4
Y2-S2-278K20,6,465,AS,exp,32,↓,down,↓,0.588955900631845,True,14,1,1,5
Y2-S2-278K20,6,466,AS,exp,37,→,right,→,0.6458251001313329,True,13,1,0,5
Y2-S2-278K20,6,467,AS,exp,43,←,right,→,0.652268199250102,False,13,-1,1,6
Y2-S2-278K20,6,468,AS,exp,25,↑,left,←,0.8487764000892639,False,14,-1,0,6
Y2-S2-278K20,6,469,AS,exp,41,↓,up,↑,0.9464365998283029,False,15,-1,0,6
Y2-S2-278K20,6,470,AS,exp,25,↑,up,↑,0.46049669943749905,True,16,-1,0,6
Y2-S2-278K20,6,471,AS,exp,29,↓,down,↓,0.7075875997543335,True,16,-1,0,6
Y2-S2-278K20,6,472,AS,exp,44,→,right,→,0.4733019005507231,True,16,1,1,7
Y2-S2-278K20,6,473,AS,exp,44,←,right,→,0.4468887001276016,False,15,-1,1,8
Y2-S2-278K20,6,474,AS,exp,37,↑,up,↑,0.583636499941349,True,16,-1,0,8
Y2-S2-278K20,6,475,AS,exp,26,←,left,←,0.8058069003745914,True,16,-1,0,8
Y2-S2-278K20,6,476,AS,exp,39,↓,down,↓,0.6871368000283837,True,16,1,1,9
Y2-S2-278K20,6,477,AS,exp,32,→,right,→,0.5318112997338176,True,15,1,0,9
Y2-S2-278K20,6,478,AS,exp,46,←,right,→,1.0656420001760125,False,15,-1,1,10
Y2-S2-278K20,6,479,AS,exp,49,↑,down,↓,0.6038927007466555,False,16,-1,0,10
Y2-S2-278K20,6,480,AS,exp,42,→,right,→,1.4271365003660321,True,17,-1,0,10
Y2-S2-278K20,6,481,AS,exp,35,↑,up,↑,0.5983786005526781,True,17,-1,0,10
Y2-S2-278K20,6,482,AS,exp,47,→,right,→,0.5391121003776789,True,17,1,1,11
Y2-S2-278K20,6,483,AS,exp,46,↑,up,↑,0.7657094998285174,True,16,1,0,11
Y2-S2-278K20,6,484,AS,exp,28,→,up,↑,0.7526032999157906,False,16,-1,1,12
Y2-S2-278K20,6,485,AS,exp,39,←,left,←,0.6627545999363065,True,17,-1,0,12
Y2-S2-278K20,6,486,AS,exp,50,→,right,→,0.685240900143981,True,17,-1,0,12
Y2-S2-278K20,6,487,AS,exp,28,↓,down,↓,0.6736677000299096,True,17,1,1,13
Y2-S2-278K20,6,488,AS,exp,40,→,right,→,0.7820629002526402,True,16,1,0,13
Y2-S2-278K20,6,489,AS,exp,42,↓,down,↓,0.6614528996869922,True,16,1,0,13
Y2-S2-278K20,6,490,AS,exp,39,→,right,→,1.100747300311923,True,16,1,0,13
Y2-S2-278K20,6,491,AS,exp,40,←,left,←,0.6610007993876934,True,15,1,0,13
Y2-S2-278K20,6,492,AS,exp,35,↑,up,↑,0.5573054999113083,True,15,1,0,13
Y2-S2-278K20,6,493,AS,exp,39,←,right,→,0.6943236002698541,False,15,-1,1,14
Y2-S2-278K20,6,494,AS,exp,44,↓,down,↓,0.8083837004378438,True,16,-1,0,14
Y2-S2-278K20,6,495,AS,exp,34,→,left,←,0.5562353003770113,False,16,-1,0,14
Y2-S2-278K20,6,496,AS,exp,35,↓,down,↓,0.5378795005381107,True,17,-1,0,14
Y2-S2-278K20,6,497,AS,exp,31,↑,up,↑,0.8913198001682758,True,17,-1,0,14
Y2-S2-278K20,6,498,AS,exp,30,←,right,→,0.7243953999131918,False,17,-1,0,14
Y2-S2-278K20,6,499,AS,exp,39,↓,down,↓,0.648356799967587,True,18,-1,0,14
Y2-S2-278K20,6,500,AS,exp,26,←,left,←,0.539436100050807,True,18,-1,0,14
Y2-S2-278K20,6,501,AS,exp,32,→,right,→,0.6795151997357607,True,18,1,1,15
Y2-S2-278K20,6,502,AS,exp,26,↓,up,↑,0.6352134998887777,False,17,-1,1,16
Y2-S2-278K20,7,503,AS,intra_train,40,←,left,←,0.6370084993541241,True,19,-,-,-
Y2-S2-278K20,7,504,AS,intra_train,34,↓,down,↓,0.6090428996831179,True,19,-,-,-
Y2-S2-278K20,7,505,AS,intra_train,25,→,right,→,0.4989489996805787,True,19,-,-,-
Y2-S2-278K20,7,506,AS,intra_train,41,↓,down,↓,0.5336758000776172,True,19,-,-,-
Y2-S2-278K20,7,507,AS,intra_train,44,→,right,→,0.5576099995523691,True,19,-,-,-
Y2-S2-278K20,7,508,AS,exp,31,↓,down,↓,0.5493187997490168,True,13,0,0,0
Y2-S2-278K20,7,509,AS,exp,37,→,right,→,0.6094777993857861,True,13,0,0,0
Y2-S2-278K20,7,510,AS,exp,49,↑,down,↓,0.5981852002441883,False,13,-1,0,0
Y2-S2-278K20,7,511,AS,exp,41,←,left,←,0.44656640011817217,True,14,-1,0,0
Y2-S2-278K20,7,512,AS,exp,27,↑,up,↑,0.6324720997363329,True,14,-1,0,0
Y2-S2-278K20,7,513,AS,exp,37,↓,down,↓,0.6626729005947709,True,14,1,1,1
Y2-S2-278K20,7,514,AS,exp,27,→,right,→,0.6306154001504183,True,13,1,0,1
Y2-S2-278K20,7,515,AS,exp,45,←,left,←,0.5393589995801449,True,13,1,0,1
Y2-S2-278K20,7,516,AS,exp,39,↓,down,↓,0.5948580000549555,True,13,1,0,1
Y2-S2-278K20,7,517,AS,exp,36,←,right,→,0.4601360997185111,False,12,-1,1,2
Y2-S2-278K20,7,518,AS,exp,42,↑,down,↓,0.609337099827826,False,13,-1,0,2
Y2-S2-278K20,7,519,AS,exp,40,→,left,←,0.623678800649941,False,14,-1,0,2
Y2-S2-278K20,7,520,AS,exp,46,↑,up,↑,0.7203384004533291,True,15,-1,0,2
Y2-S2-278K20,7,521,AS,exp,46,←,left,←,0.573959500528872,True,15,-1,0,2
Y2-S2-278K20,7,522,AS,exp,27,→,left,←,0.6401598993688822,False,15,-1,0,2
Y2-S2-278K20,7,523,AS,exp,32,↓,down,↓,0.5570374997332692,True,16,-1,0,2
Y2-S2-278K20,7,524,AS,exp,44,→,right,→,0.5926804998889565,True,16,-1,0,2
Y2-S2-278K20,7,525,AS,exp,36,↓,down,↓,0.5596356000751257,True,16,1,1,3
Y2-S2-278K20,7,526,AS,exp,42,↑,down,↓,0.7891741003841162,False,15,-1,1,4
Y2-S2-278K20,7,527,AS,exp,28,←,left,←,0.6246750997379422,True,16,-1,0,4
Y2-S2-278K20,7,528,AS,exp,26,↓,down,↓,0.6049458999186754,True,16,-1,0,4
Y2-S2-278K20,7,529,AS,exp,30,↑,up,↑,0.6857514996081591,True,16,1,1,5
Y2-S2-278K20,7,530,AS,exp,36,←,right,→,0.5741133997216821,False,15,-1,1,6
Y2-S2-278K20,7,531,AS,exp,28,→,left,←,1.3019176991656423,False,16,-1,0,6
Y2-S2-278K20,7,532,AS,exp,45,←,left,←,0.46853290032595396,True,17,-1,0,6
Y2-S2-278K20,7,533,AS,exp,38,→,right,→,0.6366187008097768,True,17,-1,0,6
Y2-S2-278K20,7,534,AS,exp,44,↑,up,↑,0.6934968996793032,True,17,1,1,7
Y2-S2-278K20,7,535,AS,exp,43,←,left,←,0.5557266995310783,True,16,1,0,7
Y2-S2-278K20,7,536,AS,exp,45,↓,down,↓,0.5700698001310229,True,16,1,0,7
Y2-S2-278K20,7,537,AS,exp,28,→,right,→,0.5607955008745193,True,16,1,0,7
Y2-S2-278K20,7,538,AS,exp,38,←,left,←,0.6018179999664426,True,15,1,0,7
Y2-S2-278K20,7,539,AS,exp,49,→,right,→,0.5238230004906654,True,15,1,0,7
Y2-S2-278K20,7,540,AS,exp,38,↑,up,↑,0.7852020999416709,True,15,1,0,7
Y2-S2-278K20,7,541,AS,exp,47,↓,down,↓,0.6433129999786615,True,14,1,0,7
Y2-S2-278K20,7,542,AS,exp,45,←,left,←,0.5431898003444076,True,14,1,0,7
Y2-S2-278K20,7,543,AS,exp,29,↑,up,↑,0.5131541993469,True,14,1,0,7
Y2-S2-278K20,7,544,AS,exp,45,↓,up,↑,0.7243381999433041,False,13,-1,1,8
Y2-S2-278K20,7,545,AS,exp,43,↑,down,↓,0.5951812006533146,False,14,-1,0,8
Y2-S2-278K20,7,546,AS,exp,35,↓,down,↓,0.5978755000978708,True,15,-1,0,8
Y2-S2-278K20,7,547,AS,exp,44,←,left,←,0.5718817003071308,True,15,-1,0,8
Y2-S2-278K20,7,548,AS,exp,47,↑,up,↑,0.5102252997457981,True,15,1,1,9
Y2-S2-278K20,7,549,AS,exp,29,←,left,←,0.5301891006529331,True,14,1,0,9
Y2-S2-278K20,7,550,AS,exp,25,→,right,→,0.5177084999158978,True,14,1,0,9
Y2-S2-278K20,7,551,AS,exp,44,←,left,←,0.5892505999654531,True,14,1,0,9
Y2-S2-278K20,7,552,AS,exp,37,↓,down,↓,0.6215097000822425,True,13,1,0,9
Y2-S2-278K20,7,553,AS,exp,26,↑,down,↓,0.7448012996464968,False,13,-1,1,10
Y2-S2-278K20,7,554,AS,exp,48,←,left,←,0.6188527001067996,True,14,-1,0,10
Y2-S2-278K20,7,555,AS,exp,37,↓,down,↓,0.6556107001379132,True,14,-1,0,10
Y2-S2-278K20,7,556,AS,exp,34,→,right,→,0.8561451006680727,True,14,1,1,11
Y2-S2-278K20,7,557,AS,exp,39,↑,up,↑,0.7369889002293348,True,13,1,0,11
Y2-S2-278K20,7,558,AS,exp,45,↓,up,↑,0.6838114000856876,False,13,-1,1,12
Y2-S2-278K20,7,559,AS,exp,48,←,left,←,0.5106819001957774,True,14,-1,0,12
Y2-S2-278K20,7,560,AS,exp,32,↑,up,↑,0.5051426999270916,True,14,-1,0,12
Y2-S2-278K20,7,561,AS,exp,47,←,left,←,0.7326775994151831,True,14,1,1,13
Y2-S2-278K20,7,562,AS,exp,35,↑,up,↑,0.5160006005316973,True,13,1,0,13
Y2-S2-278K20,7,563,AS,exp,44,←,left,←,0.48263589944690466,True,13,1,0,13
Y2-S2-278K20,7,564,AS,exp,46,→,right,→,0.7072636000812054,True,13,1,0,13
Y2-S2-278K20,7,565,AS,exp,48,←,left,←,0.5685482993721962,True,12,1,0,13
Y2-S2-278K20,7,566,AS,exp,44,→,left,←,0.6204228000715375,False,12,-1,1,14
Y2-S2-278K20,7,567,AS,exp,48,←,left,←,0.6305667003616691,True,13,-1,0,14
Y2-S2-278K20,7,568,AS,exp,28,↓,left,←,0.6046402994543314,False,13,-1,0,14
Y2-S2-278K20,7,569,AS,exp,30,↑,up,↑,0.5833312999457121,True,14,-1,0,14
Y2-S2-278K20,7,570,AS,exp,35,←,left,←,0.4993978999555111,True,14,-1,0,14
Y2-S2-278K20,7,571,AS,exp,41,→,left,←,0.7999470997601748,False,14,-1,0,14
Y2-S2-278K20,7,572,AS,exp,35,↓,up,↑,0.4992286004126072,False,15,-1,0,14
Y2-S2-278K20,7,573,AS,exp,47,→,right,→,0.5493172006681561,True,16,-1,0,14
Y2-S2-278K20,7,574,AS,exp,46,↑,up,↑,0.4830665998160839,True,16,-1,0,14
Y2-S2-278K20,7,575,AS,exp,39,↓,up,↑,1.3839219007641077,False,16,-1,0,14
Y2-S2-278K20,7,576,AS,exp,43,→,right,→,0.5387943992391229,True,17,-1,0,14
Y2-S2-278K20,7,577,AS,exp,37,↓,up,↑,0.5017212005332112,False,17,-1,0,14
Y2-S2-278K20,7,578,AS,exp,40,←,right,→,0.48081000056117773,False,18,-1,0,14
Y2-S2-278K20,7,579,AS,exp,39,↓,down,↓,0.7725388994440436,True,19,-1,0,14
Y2-S2-278K20,7,580,AS,exp,39,→,right,→,0.5275624999776483,True,19,-1,0,14
Y2-S2-278K20,7,581,AS,exp,26,←,left,←,0.6390284998342395,True,19,1,1,15
Y2-S2-278K20,7,582,AS,exp,29,↑,up,↑,0.672219100408256,True,18,1,0,15
Y2-S2-278K20,7,583,AS,exp,45,←,right,→,0.5412424001842737,False,18,-1,1,16
Y2-S2-278K20,8,584,PS,intra_train,50,↓,down,↓,0.7616916000843048,True,15,-,-,-
Y2-S2-278K20,8,585,PS,intra_train,29,→,right,→,0.5917154001072049,True,15,-,-,-
Y2-S2-278K20,8,586,PS,intra_train,50,↑,down,↓,0.7695783004164696,False,15,-,-,-
Y2-S2-278K20,8,587,PS,intra_train,38,←,right,→,0.6387579003348947,False,15,-,-,-
Y2-S2-278K20,8,588,PS,intra_train,42,↑,right,→,0.7996546002104878,False,15,-,-,-
Y2-S2-278K20,8,589,PS,exp,43,←,left,←,0.497435100376606,True,10,0,0,0
Y2-S2-278K20,8,590,PS,exp,43,↑,right,→,0.7525186995044351,False,10,-1,0,0
Y2-S2-278K20,8,591,PS,exp,41,←,left,←,0.57819680031389,True,11,-1,0,0
Y2-S2-278K20,8,592,PS,exp,34,→,left,←,0.609098800458014,False,11,-1,0,0
Y2-S2-278K20,8,593,PS,exp,42,←,left,←,0.5314576998353004,True,12,-1,0,0
Y2-S2-278K20,8,594,PS,exp,32,↓,down,↓,0.6336777005344629,True,12,-1,0,0
Y2-S2-278K20,8,595,PS,exp,44,→,right,→,0.4753293003886938,True,12,1,1,1
Y2-S2-278K20,8,596,PS,exp,39,↑,up,↑,0.531602100469172,True,11,1,0,1
Y2-S2-278K20,8,597,PS,exp,31,↓,down,↓,0.5449801003560424,True,11,1,0,1
Y2-S2-278K20,8,598,PS,exp,35,→,right,→,0.4429686004295945,True,11,1,0,1
Y2-S2-278K20,8,599,PS,exp,41,←,left,←,0.5488512003794312,True,10,1,0,1
Y2-S2-278K20,8,600,PS,exp,36,↑,up,↑,0.5550332991406322,True,10,1,0,1
Y2-S2-278K20,8,601,PS,exp,34,→,right,→,0.522249000146985,True,10,1,0,1
Y2-S2-278K20,8,602,PS,exp,26,↓,up,↑,0.6706801000982523,False,9,-1,1,2
Y2-S2-278K20,8,603,PS,exp,33,→,right,→,0.4304748997092247,True,10,-1,0,2
Y2-S2-278K20,8,604,PS,exp,44,↑,up,↑,0.7045866996049881,True,10,-1,0,2
Y2-S2-278K20,8,605,PS,exp,46,↓,down,↓,0.5611731000244617,True,10,1,1,3
Y2-S2-278K20,8,606,PS,exp,37,↑,up,↑,0.9515489004552364,True,9,1,0,3
Y2-S2-278K20,8,607,PS,exp,50,←,left,←,0.6013949001207948,True,9,1,0,3
Y2-S2-278K20,8,608,PS,exp,38,→,right,→,0.5047070998698473,True,9,1,0,3
Y2-S2-278K20,8,609,PS,exp,48,←,left,←,0.8305952996015549,True,8,1,0,3
Y2-S2-278K20,8,610,PS,exp,43,↓,down,↓,0.5848810998722911,True,8,1,0,3
Y2-S2-278K20,8,611,PS,exp,45,↑,right,→,0.6515735005959868,False,8,-1,1,4
Y2-S2-278K20,8,612,PS,exp,35,→,right,→,0.7489125998690724,True,9,-1,0,4
Y2-S2-278K20,8,613,PS,exp,38,←,left,←,0.5475182998925447,True,9,-1,0,4
Y2-S2-278K20,8,614,PS,exp,48,↑,up,↑,0.5986603004857898,True,9,1,1,5
Y2-S2-278K20,8,615,PS,exp,37,←,right,→,1.146504300646484,False,8,-1,1,6
Y2-S2-278K20,8,616,PS,exp,34,→,right,→,0.4643403999507427,True,9,-1,0,6
Y2-S2-278K20,8,617,PS,exp,34,↑,left,←,1.2016831999644637,False,9,-1,0,6
Y2-S2-278K20,8,618,PS,exp,30,↓,down,↓,0.5350213004276156,True,10,-1,0,6
Y2-S2-278K20,8,619,PS,exp,42,←,left,←,0.47805339936167,True,10,-1,0,6
Y2-S2-278K20,8,620,PS,exp,46,↓,down,↓,0.8151008002460003,True,10,1,1,7
Y2-S2-278K20,8,621,PS,exp,32,→,left,←,0.7740583997219801,False,9,-1,1,8
Y2-S2-278K20,8,622,PS,exp,37,↓,left,←,0.8315794002264738,False,10,-1,0,8
Y2-S2-278K20,8,623,PS,exp,33,↑,left,←,0.6675560995936394,False,11,-1,0,8
Y2-S2-278K20,8,624,PS,exp,36,↓,down,↓,0.5587969999760389,True,12,-1,0,8
Y2-S2-278K20,8,625,PS,exp,50,→,right,→,0.48340329993516207,True,12,-1,0,8
Y2-S2-278K20,8,626,PS,exp,34,↓,down,↓,0.5574536994099617,True,12,1,1,9
Y2-S2-278K20,8,627,PS,exp,25,↑,up,↑,0.5402464000508189,True,11,1,0,9
Y2-S2-278K20,8,628,PS,exp,27,↓,down,↓,0.537322299554944,True,11,1,0,9
Y2-S2-278K20,8,629,PS,exp,46,→,right,→,0.5249953996390104,True,11,1,0,9
Y2-S2-278K20,8,630,PS,exp,38,↓,down,↓,0.5036782994866371,True,10,1,0,9
Y2-S2-278K20,8,631,PS,exp,37,←,left,←,0.603795699775219,True,10,1,0,9
Y2-S2-278K20,8,632,PS,exp,36,→,left,←,0.5823517004027963,False,10,-1,1,10
Y2-S2-278K20,8,633,PS,exp,41,←,left,←,0.5076590003445745,True,11,-1,0,10
Y2-S2-278K20,8,634,PS,exp,44,→,right,→,0.5588508006185293,True,11,-1,0,10
Y2-S2-278K20,8,635,PS,exp,44,↑,up,↑,0.4878859994933009,True,11,1,1,11
Y2-S2-278K20,8,636,PS,exp,43,→,right,→,0.4969319999217987,True,10,1,0,11
Y2-S2-278K20,8,637,PS,exp,48,↓,down,↓,0.5415464993566275,True,10,1,0,11
Y2-S2-278K20,8,638,PS,exp,50,→,right,→,0.4224394001066685,True,10,1,0,11
Y2-S2-278K20,8,639,PS,exp,43,↑,up,↑,0.5116103999316692,True,9,1,0,11
Y2-S2-278K20,8,640,PS,exp,36,→,right,→,0.4373799003660679,True,9,1,0,11
Y2-S2-278K20,8,641,PS,exp,34,↓,down,↓,0.6546944994479418,True,9,1,0,11
Y2-S2-278K20,8,642,PS,exp,47,←,left,←,0.5695828003808856,True,8,1,0,11
Y2-S2-278K20,8,643,PS,exp,46,→,right,→,0.6829551998525858,True,8,1,0,11
Y2-S2-278K20,8,644,PS,exp,39,←,left,←,0.5404631001874804,True,8,1,0,11
Y2-S2-278K20,8,645,PS,exp,28,↑,right,→,0.7416137997061014,False,7,-1,1,12
Y2-S2-278K20,8,646,PS,exp,33,↓,down,↓,0.6678714994341135,True,8,-1,0,12
Y2-S2-278K20,8,647,PS,exp,25,↑,down,↓,0.8053297000005841,False,8,-1,0,12
Y2-S2-278K20,8,648,PS,exp,36,→,right,→,0.4523681001737714,True,9,-1,0,12
Y2-S2-278K20,8,649,PS,exp,35,↑,down,↓,0.6220598006621003,False,9,-1,0,12
Y2-S2-278K20,8,650,PS,exp,41,←,left,←,0.5331019004806876,True,10,-1,0,12
Y2-S2-278K20,8,651,PS,exp,45,↑,up,↑,0.42502159997820854,True,10,-1,0,12
Y2-S2-278K20,8,652,PS,exp,40,→,right,→,0.5263101998716593,True,10,1,1,13
Y2-S2-278K20,8,653,PS,exp,42,↓,down,↓,0.5162370000034571,True,9,1,0,13
Y2-S2-278K20,8,654,PS,exp,44,←,left,←,0.6216330006718636,True,9,1,0,13
Y2-S2-278K20,8,655,PS,exp,26,↓,down,↓,0.5216564992442727,True,9,1,0,13
Y2-S2-278K20,8,656,PS,exp,50,↑,left,←,0.6650173999369144,False,8,-1,1,14
Y2-S2-278K20,8,657,PS,exp,49,↓,up,↑,0.5744655998423696,False,9,-1,0,14
Y2-S2-278K20,8,658,PS,exp,44,→,left,←,0.4929339000955224,False,10,-1,0,14
Y2-S2-278K20,8,659,PS,exp,33,←,left,←,0.6738675003871322,True,11,-1,0,14
Y2-S2-278K20,8,660,PS,exp,36,→,right,→,0.5318425996229053,True,11,-1,0,14
Y2-S2-278K20,8,661,PS,exp,25,←,left,←,0.609421500004828,True,11,1,1,15
Y2-S2-278K20,8,662,PS,exp,26,↓,down,↓,0.5962522001937032,True,10,1,0,15
Y2-S2-278K20,8,663,PS,exp,45,↑,up,↑,0.6252528000622988,True,10,1,0,15
Y2-S2-278K20,8,664,PS,exp,40,→,right,→,0.4754139995202422,True,10,1,0,15
Y2-S2-278K20,8,665,PS,exp,37,↓,down,↓,0.5620086006820202,True,9,1,0,15
Y2-S2-278K20,8,666,PS,exp,45,→,down,↓,0.5410658996552229,False,9,-1,1,16
