PART_ID,Block_no,Trial_no,Block_type,Trial_type,CSI,Stim_letter,Key_pressed,letter_choose,Rt,Corr,Stimulus Time,Level,Reversal,Revs_count
Y2-S2-146K21,1,1,PS,train,41,→,right,→,0.5837729999329895,True,30,-,-,-
Y2-S2-146K21,1,2,PS,train,30,↑,up,↑,0.6340987998992205,True,30,-,-,-
Y2-S2-146K21,1,3,PS,train,46,↓,down,↓,0.8187748999334872,True,30,-,-,-
Y2-S2-146K21,1,4,PS,train,49,→,right,→,0.6005929000675678,True,30,-,-,-
Y2-S2-146K21,1,5,PS,train,37,←,left,←,0.5503535000607371,True,30,-,-,-
Y2-S2-146K21,1,6,PS,train,41,↑,up,↑,0.6002086000517011,True,30,-,-,-
Y2-S2-146K21,1,7,PS,train,35,↓,down,↓,0.6177254999056458,True,30,-,-,-
Y2-S2-146K21,1,8,PS,train,39,→,right,→,0.5836902000010014,True,30,-,-,-
Y2-S2-146K21,1,9,PS,train,41,←,left,←,0.5837231001351029,True,30,-,-,-
Y2-S2-146K21,1,10,PS,train,29,→,right,→,0.4838117000181228,True,30,-,-,-
Y2-S2-146K21,2,11,AS,train,41,←,right,→,0.5178219000808895,False,45,-,-,-
Y2-S2-146K21,2,12,AS,train,33,↑,up,↑,0.7177037999499589,True,45,-,-,-
Y2-S2-146K21,2,13,AS,train,45,↓,down,↓,0.8509836997836828,True,45,-,-,-
Y2-S2-146K21,2,14,AS,train,43,↑,up,↑,0.7836144999600947,True,45,-,-,-
Y2-S2-146K21,2,15,AS,train,42,↓,left,←,0.5178119000047445,False,45,-,-,-
Y2-S2-146K21,2,16,AS,train,28,↑,up,↑,0.617969200015068,True,45,-,-,-
Y2-S2-146K21,2,17,AS,train,37,→,right,→,0.7008598998654634,True,45,-,-,-
Y2-S2-146K21,2,18,AS,train,46,←,left,←,0.6344232999254018,True,45,-,-,-
Y2-S2-146K21,2,19,AS,train,25,↓,down,↓,0.7007007000502199,True,45,-,-,-
Y2-S2-146K21,2,20,AS,train,32,→,right,→,0.6011051998939365,True,45,-,-,-
Y2-S2-146K21,-,21,PS,adaptive,29,←,left,←,0.5008281997870654,True,10,0,0,0
Y2-S2-146K21,-,22,PS,adaptive,36,→,right,→,0.5115064999554306,True,10,0,0,0
Y2-S2-146K21,-,23,PS,adaptive,35,↑,up,↑,0.5315835999790579,True,10,1,0,0
Y2-S2-146K21,-,24,PS,adaptive,40,←,up,↑,0.7678681001998484,False,9,-1,1,1
Y2-S2-146K21,-,25,PS,adaptive,49,→,right,→,0.5383805001620203,True,10,-1,0,1
Y2-S2-146K21,-,26,PS,adaptive,31,↑,up,↑,0.5509425001218915,True,10,-1,0,1
Y2-S2-146K21,-,27,PS,adaptive,28,→,right,→,0.5844843999948353,True,10,1,1,2
Y2-S2-146K21,-,28,PS,adaptive,37,↑,left,←,1.0875327000394464,False,9,-1,1,3
Y2-S2-146K21,-,29,PS,adaptive,46,←,left,←,0.7177711999975145,True,10,-1,0,3
Y2-S2-146K21,-,30,PS,adaptive,30,↑,up,↑,0.48619079985655844,True,10,-1,0,3
Y2-S2-146K21,-,31,PS,adaptive,45,→,right,→,0.49351399997249246,True,10,1,1,4
Y2-S2-146K21,-,32,AS,adaptive,30,←,left,←,0.6593522999901325,True,20,0,0,0
Y2-S2-146K21,-,33,AS,adaptive,27,↑,up,↑,0.5607756997924298,True,20,0,0,0
Y2-S2-146K21,-,34,AS,adaptive,37,←,left,←,0.6436490002088249,True,20,1,0,0
Y2-S2-146K21,-,35,AS,adaptive,29,↓,down,↓,0.7371803999412805,True,19,1,0,0
Y2-S2-146K21,-,36,AS,adaptive,47,→,right,→,0.6713442001491785,True,19,1,0,0
Y2-S2-146K21,-,37,AS,adaptive,28,←,left,←,0.5907738998066634,True,19,1,0,0
Y2-S2-146K21,-,38,AS,adaptive,33,↑,up,↑,0.6846185000613332,True,18,1,0,0
Y2-S2-146K21,-,39,AS,adaptive,27,→,right,→,0.6323797001969069,True,18,1,0,0
Y2-S2-146K21,-,40,AS,adaptive,33,↓,down,↓,0.7298700998071581,True,18,1,0,0
Y2-S2-146K21,-,41,AS,adaptive,50,→,right,→,0.5069707001093775,True,17,1,0,0
Y2-S2-146K21,-,42,AS,adaptive,50,↓,down,↓,0.7445320000406355,True,17,1,0,0
Y2-S2-146K21,-,43,AS,adaptive,26,←,left,←,0.6048767000902444,True,17,1,0,0
Y2-S2-146K21,-,44,AS,adaptive,38,→,right,→,0.5943535999394953,True,16,1,0,0
Y2-S2-146K21,-,45,AS,adaptive,28,↑,up,↑,0.7466710999142379,True,16,1,0,0
Y2-S2-146K21,-,46,AS,adaptive,42,→,right,→,0.6025660000741482,True,16,1,0,0
Y2-S2-146K21,-,47,AS,adaptive,47,↓,down,↓,0.7362094998825341,True,15,1,0,0
Y2-S2-146K21,-,48,AS,adaptive,48,←,left,←,0.6594018000178039,True,15,1,0,0
Y2-S2-146K21,-,49,AS,adaptive,26,↓,down,↓,0.7238058000802994,True,15,1,0,0
Y2-S2-146K21,-,50,AS,adaptive,41,←,left,←,0.5569370000157505,True,14,1,0,0
Y2-S2-146K21,-,51,AS,adaptive,36,↓,down,↓,0.759572200011462,True,14,1,0,0
Y2-S2-146K21,-,52,AS,adaptive,38,←,left,←,0.6430790000595152,True,14,1,0,0
Y2-S2-146K21,-,53,AS,adaptive,46,→,right,→,0.6186787001788616,True,13,1,0,0
Y2-S2-146K21,-,54,AS,adaptive,36,↑,up,↑,0.7034418999683112,True,13,1,0,0
Y2-S2-146K21,-,55,AS,adaptive,27,↓,down,↓,0.5297859001439065,True,13,1,0,0
Y2-S2-146K21,-,56,AS,adaptive,35,←,left,←,0.5740039001684636,True,12,1,0,0
Y2-S2-146K21,-,57,AS,adaptive,39,→,left,←,0.716574699850753,False,12,-1,1,1
Y2-S2-146K21,-,58,AS,adaptive,44,←,left,←,0.5802696000318974,True,13,-1,0,1
Y2-S2-146K21,-,59,AS,adaptive,41,↑,up,↑,0.5836649001576006,True,13,-1,0,1
Y2-S2-146K21,-,60,AS,adaptive,25,↓,up,↑,0.8109702998772264,False,13,-1,0,1
Y2-S2-146K21,-,61,AS,adaptive,46,→,right,→,0.8718429000582546,True,14,-1,0,1
Y2-S2-146K21,-,62,AS,adaptive,31,↑,up,↑,0.6749897000845522,True,14,-1,0,1
Y2-S2-146K21,-,63,AS,adaptive,48,→,right,→,0.735461600124836,True,14,1,1,2
Y2-S2-146K21,-,64,AS,adaptive,50,←,right,→,0.7391023000236601,False,13,-1,1,3
Y2-S2-146K21,-,65,AS,adaptive,33,↑,up,↑,0.7121815998107195,True,14,-1,0,3
Y2-S2-146K21,-,66,AS,adaptive,47,↓,down,↓,0.724061300046742,True,14,-1,0,3
Y2-S2-146K21,-,67,AS,adaptive,30,→,right,→,0.5677243999671191,True,14,1,1,4
Y2-S2-146K21,1,68,PS,intra_train,48,←,left,←,0.7397141000255942,True,13,-,-,-
Y2-S2-146K21,1,69,PS,intra_train,42,↑,up,↑,0.5363334000576288,True,13,-,-,-
Y2-S2-146K21,1,70,PS,intra_train,33,→,right,→,0.4776966997887939,True,13,-,-,-
Y2-S2-146K21,1,71,PS,intra_train,27,↑,up,↑,0.7694616999942809,True,13,-,-,-
Y2-S2-146K21,1,72,PS,intra_train,28,←,left,←,0.5498560999985784,True,13,-,-,-
Y2-S2-146K21,1,73,PS,exp,33,→,right,→,0.5003475998528302,True,9,0,0,0
Y2-S2-146K21,1,74,PS,exp,34,↑,right,→,0.9972025998868048,False,9,-1,0,0
Y2-S2-146K21,1,75,PS,exp,33,↓,left,←,0.7987021000590175,False,10,-1,0,0
Y2-S2-146K21,1,76,PS,exp,49,→,right,→,0.5042113000527024,True,11,-1,0,0
Y2-S2-146K21,1,77,PS,exp,47,↓,down,↓,0.6205333999823779,True,11,-1,0,0
Y2-S2-146K21,1,78,PS,exp,43,↑,up,↑,0.575526800006628,True,11,1,1,1
Y2-S2-146K21,1,79,PS,exp,35,↓,down,↓,0.4903498999774456,True,10,1,0,1
Y2-S2-146K21,1,80,PS,exp,35,→,right,→,0.4965516000520438,True,10,1,0,1
Y2-S2-146K21,1,81,PS,exp,48,↓,down,↓,0.5910390999633819,True,10,1,0,1
Y2-S2-146K21,1,82,PS,exp,35,→,left,←,0.6439091998618096,False,9,-1,1,2
Y2-S2-146K21,1,83,PS,exp,50,↓,down,↓,0.654381699860096,True,10,-1,0,2
Y2-S2-146K21,1,84,PS,exp,28,↑,up,↑,0.5049857001286,True,10,-1,0,2
Y2-S2-146K21,1,85,PS,exp,48,→,right,→,0.48328469996340573,True,10,1,1,3
Y2-S2-146K21,1,86,PS,exp,50,↑,left,←,0.33340030000545084,False,9,-1,1,4
Y2-S2-146K21,1,87,PS,exp,48,↓,left,←,0.9658436998724937,False,10,-1,0,4
Y2-S2-146K21,1,88,PS,exp,35,↑,up,↑,0.46044689998961985,True,11,-1,0,4
Y2-S2-146K21,1,89,PS,exp,44,→,right,→,0.5517486000899225,True,11,-1,0,4
Y2-S2-146K21,1,90,PS,exp,35,↓,left,←,1.2416852999012917,False,11,-1,0,4
Y2-S2-146K21,1,91,PS,exp,27,→,right,→,0.4470261000096798,True,12,-1,0,4
Y2-S2-146K21,1,92,PS,exp,45,↑,up,↑,0.5014253000263125,True,12,-1,0,4
Y2-S2-146K21,1,93,PS,exp,44,←,left,←,0.513400400057435,True,12,1,1,5
Y2-S2-146K21,1,94,PS,exp,43,→,left,←,0.59734580013901,False,11,-1,1,6
Y2-S2-146K21,1,95,PS,exp,33,↑,up,↑,0.5598977999761701,True,12,-1,0,6
Y2-S2-146K21,1,96,PS,exp,35,↓,down,↓,0.7249183000531048,True,12,-1,0,6
Y2-S2-146K21,1,97,PS,exp,45,↑,up,↑,0.5109032997861505,True,12,1,1,7
Y2-S2-146K21,1,98,PS,exp,37,↓,down,↓,0.7838403999339789,True,11,1,0,7
Y2-S2-146K21,1,99,PS,exp,44,→,right,→,0.5410849000327289,True,11,1,0,7
Y2-S2-146K21,1,100,PS,exp,30,↑,up,↑,0.5433024000376463,True,11,1,0,7
Y2-S2-146K21,1,101,PS,exp,31,↓,down,↓,0.5235699000768363,True,10,1,0,7
Y2-S2-146K21,1,102,PS,exp,30,←,left,←,0.5108137000352144,True,10,1,0,7
Y2-S2-146K21,1,103,PS,exp,43,→,right,→,0.5099943000823259,True,10,1,0,7
Y2-S2-146K21,1,104,PS,exp,47,↓,down,↓,0.5935771998483688,True,9,1,0,7
Y2-S2-146K21,1,105,PS,exp,41,→,up,↑,0.8650960999075323,False,9,-1,1,8
Y2-S2-146K21,1,106,PS,exp,39,↑,up,↑,0.6658934000879526,True,10,-1,0,8
Y2-S2-146K21,1,107,PS,exp,37,↓,down,↓,0.7206629000138491,True,10,-1,0,8
Y2-S2-146K21,1,108,PS,exp,28,↑,up,↑,0.5332555999048054,True,10,1,1,9
Y2-S2-146K21,1,109,PS,exp,40,←,left,←,0.6081687000114471,True,9,1,0,9
Y2-S2-146K21,1,110,PS,exp,39,↓,up,↑,0.9252203002106398,False,9,-1,1,10
Y2-S2-146K21,1,111,PS,exp,44,→,right,→,0.6453329001087695,True,10,-1,0,10
Y2-S2-146K21,1,112,PS,exp,44,↓,down,↓,0.6005549000110477,True,10,-1,0,10
Y2-S2-146K21,1,113,PS,exp,34,←,left,←,0.5768641999457031,True,10,1,1,11
Y2-S2-146K21,1,114,PS,exp,28,↑,right,→,0.7355826999992132,False,9,-1,1,12
Y2-S2-146K21,1,115,PS,exp,44,↓,down,↓,0.8117295999545604,True,10,-1,0,12
Y2-S2-146K21,1,116,PS,exp,43,↑,up,↑,0.5664567998610437,True,10,-1,0,12
Y2-S2-146K21,1,117,PS,exp,37,←,left,←,0.6355587001889944,True,10,1,1,13
Y2-S2-146K21,1,118,PS,exp,41,↓,right,→,0.8568833998870105,False,9,-1,1,14
Y2-S2-146K21,1,119,PS,exp,37,←,left,←,0.5472088998649269,True,10,-1,0,14
Y2-S2-146K21,1,120,PS,exp,25,↓,down,↓,0.6843535001389682,True,10,-1,0,14
Y2-S2-146K21,1,121,PS,exp,45,←,left,←,0.45002959994599223,True,10,1,1,15
Y2-S2-146K21,1,122,PS,exp,42,↑,up,↑,0.6409346000291407,True,9,1,0,15
Y2-S2-146K21,1,123,PS,exp,50,←,left,←,0.5999517000745982,True,9,1,0,15
Y2-S2-146K21,1,124,PS,exp,25,↓,down,↓,0.6100520000327379,True,9,1,0,15
Y2-S2-146K21,1,125,PS,exp,30,→,right,→,0.5210502000991255,True,8,1,0,15
Y2-S2-146K21,1,126,PS,exp,43,↑,down,↓,0.711634200066328,False,8,-1,1,16
Y2-S2-146K21,2,127,AS,intra_train,46,←,left,←,0.6651349000167102,True,19,-,-,-
Y2-S2-146K21,2,128,AS,intra_train,42,↓,down,↓,0.7753806000109762,True,19,-,-,-
Y2-S2-146K21,2,129,AS,intra_train,36,←,left,←,0.5839782999828458,True,19,-,-,-
Y2-S2-146K21,2,130,AS,intra_train,47,↑,up,↑,0.6364760999567807,True,19,-,-,-
Y2-S2-146K21,2,131,AS,intra_train,41,→,right,→,0.6900543998926878,True,19,-,-,-
Y2-S2-146K21,2,132,AS,exp,46,↓,down,↓,0.6374319999013096,True,13,0,0,0
Y2-S2-146K21,2,133,AS,exp,47,←,left,←,0.8129719002172351,True,13,0,0,0
Y2-S2-146K21,2,134,AS,exp,29,↓,up,↑,0.8162244001869112,False,13,-1,0,0
Y2-S2-146K21,2,135,AS,exp,32,↑,down,↓,0.74140530009754,False,14,-1,0,0
Y2-S2-146K21,2,136,AS,exp,27,←,left,←,0.516427299939096,True,15,-1,0,0
Y2-S2-146K21,2,137,AS,exp,37,↓,down,↓,0.6718429001048207,True,15,-1,0,0
Y2-S2-146K21,2,138,AS,exp,48,←,left,←,0.5865080000367016,True,15,1,1,1
Y2-S2-146K21,2,139,AS,exp,48,→,right,→,0.6801575999706984,True,14,1,0,1
Y2-S2-146K21,2,140,AS,exp,34,←,no_key,no_letter,-1.0,False,14,-1,1,2
Y2-S2-146K21,2,141,AS,exp,33,↓,down,↓,0.5927434000186622,True,15,-1,0,2
Y2-S2-146K21,2,142,AS,exp,26,→,right,→,0.5935305999591947,True,15,-1,0,2
Y2-S2-146K21,2,143,AS,exp,29,↑,up,↑,0.780237999977544,True,15,1,1,3
Y2-S2-146K21,2,144,AS,exp,30,←,left,←,0.588272700086236,True,14,1,0,3
Y2-S2-146K21,2,145,AS,exp,28,→,right,→,0.6002519999165088,True,14,1,0,3
Y2-S2-146K21,2,146,AS,exp,33,↑,down,↓,0.6127324001863599,False,14,-1,1,4
Y2-S2-146K21,2,147,AS,exp,48,↓,down,↓,0.6187305999919772,True,15,-1,0,4
Y2-S2-146K21,2,148,AS,exp,35,←,left,←,0.5367507000919431,True,15,-1,0,4
Y2-S2-146K21,2,149,AS,exp,32,↓,down,↓,0.6516617001034319,True,15,1,1,5
Y2-S2-146K21,2,150,AS,exp,44,←,left,←,0.5946437998209149,True,14,1,0,5
Y2-S2-146K21,2,151,AS,exp,35,↑,up,↑,0.7570017999969423,True,14,1,0,5
Y2-S2-146K21,2,152,AS,exp,38,→,right,→,0.6220656000077724,True,14,1,0,5
Y2-S2-146K21,2,153,AS,exp,35,←,left,←,0.7067762000951916,True,13,1,0,5
Y2-S2-146K21,2,154,AS,exp,28,↓,down,↓,0.7875884999521077,True,13,1,0,5
Y2-S2-146K21,2,155,AS,exp,44,→,right,→,0.5570012000389397,True,13,1,0,5
Y2-S2-146K21,2,156,AS,exp,36,↑,right,→,0.7123461000155658,False,12,-1,1,6
Y2-S2-146K21,2,157,AS,exp,38,→,right,→,0.5843869000673294,True,13,-1,0,6
Y2-S2-146K21,2,158,AS,exp,29,↑,left,←,0.8407461999449879,False,13,-1,0,6
Y2-S2-146K21,2,159,AS,exp,31,→,right,→,0.6135637999977916,True,14,-1,0,6
Y2-S2-146K21,2,160,AS,exp,50,↑,up,↑,0.7370950998738408,True,14,-1,0,6
Y2-S2-146K21,2,161,AS,exp,30,↓,down,↓,0.6824183999560773,True,14,1,1,7
Y2-S2-146K21,2,162,AS,exp,42,→,right,→,0.6069163999054581,True,13,1,0,7
Y2-S2-146K21,2,163,AS,exp,48,←,up,↑,0.7312056000810117,False,13,-1,1,8
Y2-S2-146K21,2,164,AS,exp,36,↑,up,↑,0.5464737999718636,True,14,-1,0,8
Y2-S2-146K21,2,165,AS,exp,35,↓,down,↓,0.6548063000664115,True,14,-1,0,8
Y2-S2-146K21,2,166,AS,exp,40,↑,up,↑,0.7106995999347419,True,14,1,1,9
Y2-S2-146K21,2,167,AS,exp,36,↓,down,↓,0.7292229000013322,True,13,1,0,9
Y2-S2-146K21,2,168,AS,exp,48,←,right,→,0.4980581998825073,False,13,-1,1,10
Y2-S2-146K21,2,169,AS,exp,44,↑,up,↑,0.7200420999433845,True,14,-1,0,10
Y2-S2-146K21,2,170,AS,exp,25,←,left,←,0.5099388998933136,True,14,-1,0,10
Y2-S2-146K21,2,171,AS,exp,36,→,right,→,0.5129044000059366,True,14,1,1,11
Y2-S2-146K21,2,172,AS,exp,28,←,left,←,0.6315472000278533,True,13,1,0,11
Y2-S2-146K21,2,173,AS,exp,41,↑,up,↑,0.7811650999356061,True,13,1,0,11
Y2-S2-146K21,2,174,AS,exp,49,←,up,↑,0.6650819999631494,False,13,-1,1,12
Y2-S2-146K21,2,175,AS,exp,25,↑,down,↓,0.7777722000610083,False,14,-1,0,12
Y2-S2-146K21,2,176,AS,exp,25,↓,up,↑,0.8120347000658512,False,15,-1,0,12
Y2-S2-146K21,2,177,AS,exp,38,←,left,←,0.5491607000585645,True,16,-1,0,12
Y2-S2-146K21,2,178,AS,exp,27,↑,up,↑,0.46407680003903806,True,16,-1,0,12
Y2-S2-146K21,2,179,AS,exp,43,←,left,←,0.7611118999775499,True,16,1,1,13
Y2-S2-146K21,2,180,AS,exp,50,→,up,↑,0.7397417998872697,False,15,-1,1,14
Y2-S2-146K21,2,181,AS,exp,27,←,left,←,0.6767480000853539,True,16,-1,0,14
Y2-S2-146K21,2,182,AS,exp,49,↓,down,↓,0.7260811999440193,True,16,-1,0,14
Y2-S2-146K21,2,183,AS,exp,48,→,left,←,0.6781341000460088,False,16,-1,0,14
Y2-S2-146K21,2,184,AS,exp,46,↓,down,↓,0.7432879998814315,True,17,-1,0,14
Y2-S2-146K21,2,185,AS,exp,34,←,left,←,0.5655605997890234,True,17,-1,0,14
Y2-S2-146K21,2,186,AS,exp,48,↓,down,↓,0.809059799881652,True,17,1,1,15
Y2-S2-146K21,2,187,AS,exp,28,←,left,←,0.5773827000521123,True,16,1,0,15
Y2-S2-146K21,2,188,AS,exp,29,↓,down,↓,0.7295372001826763,True,16,1,0,15
Y2-S2-146K21,2,189,AS,exp,31,↑,up,↑,0.5573834001552314,True,16,1,0,15
Y2-S2-146K21,2,190,AS,exp,44,←,left,←,0.5266549999359995,True,15,1,0,15
Y2-S2-146K21,2,191,AS,exp,31,↓,down,↓,0.6724708001129329,True,15,1,0,15
Y2-S2-146K21,2,192,AS,exp,27,↑,up,↑,0.6877825001720339,True,15,1,0,15
Y2-S2-146K21,2,193,AS,exp,31,←,down,↓,0.6387875999789685,False,14,-1,1,16
Y2-S2-146K21,3,194,AS,intra_train,36,→,right,→,0.6309060999192297,True,19,-,-,-
Y2-S2-146K21,3,195,AS,intra_train,38,↓,down,↓,0.7731323998887092,True,19,-,-,-
Y2-S2-146K21,3,196,AS,intra_train,38,→,right,→,0.603348899865523,True,19,-,-,-
Y2-S2-146K21,3,197,AS,intra_train,41,←,left,←,0.596279599936679,True,19,-,-,-
Y2-S2-146K21,3,198,AS,intra_train,46,↑,up,↑,0.6691136001609266,True,19,-,-,-
Y2-S2-146K21,3,199,AS,exp,45,↓,up,↑,0.8136034000199288,False,13,-1,0,0
Y2-S2-146K21,3,200,AS,exp,32,←,left,←,0.7416282000485808,True,14,-1,0,0
Y2-S2-146K21,3,201,AS,exp,25,↑,up,↑,0.862587200012058,True,14,-1,0,0
Y2-S2-146K21,3,202,AS,exp,46,→,right,→,0.6422477001324296,True,14,1,1,1
Y2-S2-146K21,3,203,AS,exp,42,↓,left,←,0.6667979001067579,False,13,-1,1,2
Y2-S2-146K21,3,204,AS,exp,37,→,right,→,0.5588889000937343,True,14,-1,0,2
Y2-S2-146K21,3,205,AS,exp,38,←,left,←,0.5350313999224454,True,14,-1,0,2
Y2-S2-146K21,3,206,AS,exp,36,→,right,→,0.5996767000760883,True,14,1,1,3
Y2-S2-146K21,3,207,AS,exp,45,←,left,←,0.7310416998807341,True,13,1,0,3
Y2-S2-146K21,3,208,AS,exp,36,↓,down,↓,0.681477699894458,True,13,1,0,3
Y2-S2-146K21,3,209,AS,exp,38,→,left,←,0.7258984998334199,False,13,-1,1,4
Y2-S2-146K21,3,210,AS,exp,41,←,left,←,0.6004681999329478,True,14,-1,0,4
Y2-S2-146K21,3,211,AS,exp,48,↑,up,↑,0.7144802999682724,True,14,-1,0,4
Y2-S2-146K21,3,212,AS,exp,31,↓,up,↑,0.6019011000171304,False,14,-1,0,4
Y2-S2-146K21,3,213,AS,exp,44,↑,up,↑,0.7432311000302434,True,15,-1,0,4
Y2-S2-146K21,3,214,AS,exp,31,↓,down,↓,0.6439593001268804,True,15,-1,0,4
Y2-S2-146K21,3,215,AS,exp,26,↑,up,↑,0.7082392999436706,True,15,1,1,5
Y2-S2-146K21,3,216,AS,exp,37,→,right,→,0.4377849001903087,True,14,1,0,5
Y2-S2-146K21,3,217,AS,exp,36,↑,up,↑,0.6171488000545651,True,14,1,0,5
Y2-S2-146K21,3,218,AS,exp,43,→,up,↑,1.272807699861005,False,14,-1,1,6
Y2-S2-146K21,3,219,AS,exp,30,←,left,←,0.5779317000415176,True,15,-1,0,6
Y2-S2-146K21,3,220,AS,exp,50,↑,up,↑,0.5804473999887705,True,15,-1,0,6
Y2-S2-146K21,3,221,AS,exp,26,→,right,→,0.6675971001386642,True,15,1,1,7
Y2-S2-146K21,3,222,AS,exp,33,←,left,←,0.69450269988738,True,14,1,0,7
Y2-S2-146K21,3,223,AS,exp,29,↓,down,↓,0.6661917001474649,True,14,1,0,7
Y2-S2-146K21,3,224,AS,exp,35,←,left,←,0.5841558000538498,True,14,1,0,7
Y2-S2-146K21,3,225,AS,exp,40,↓,down,↓,0.7599400000181049,True,13,1,0,7
Y2-S2-146K21,3,226,AS,exp,47,←,left,←,0.5407294000033289,True,13,1,0,7
Y2-S2-146K21,3,227,AS,exp,26,→,right,→,0.5781528998631984,True,13,1,0,7
Y2-S2-146K21,3,228,AS,exp,33,↓,down,↓,0.8060608999803662,True,12,1,0,7
Y2-S2-146K21,3,229,AS,exp,30,↑,down,↓,0.6999938001390547,False,12,-1,1,8
Y2-S2-146K21,3,230,AS,exp,46,→,right,→,0.5795020000077784,True,13,-1,0,8
Y2-S2-146K21,3,231,AS,exp,50,↑,down,↓,0.8455440998077393,False,13,-1,0,8
Y2-S2-146K21,3,232,AS,exp,33,→,right,→,0.6562240000348538,True,14,-1,0,8
Y2-S2-146K21,3,233,AS,exp,30,↓,down,↓,0.5500445999205112,True,14,-1,0,8
Y2-S2-146K21,3,234,AS,exp,28,↑,down,↓,0.9428614000789821,False,14,-1,0,8
Y2-S2-146K21,3,235,AS,exp,28,↓,down,↓,0.6332315998151898,True,15,-1,0,8
Y2-S2-146K21,3,236,AS,exp,34,↑,down,↓,0.6727104000747204,False,15,-1,0,8
Y2-S2-146K21,3,237,AS,exp,38,←,left,←,0.7044423001352698,True,16,-1,0,8
Y2-S2-146K21,3,238,AS,exp,44,↓,down,↓,0.7694439999759197,True,16,-1,0,8
Y2-S2-146K21,3,239,AS,exp,47,←,left,←,0.930018600076437,True,16,1,1,9
Y2-S2-146K21,3,240,AS,exp,26,↑,up,↑,0.6681770998984575,True,15,1,0,9
Y2-S2-146K21,3,241,AS,exp,37,→,right,→,0.5041292998939753,True,15,1,0,9
Y2-S2-146K21,3,242,AS,exp,32,↑,left,←,0.8564846999943256,False,15,-1,1,10
Y2-S2-146K21,3,243,AS,exp,48,↓,down,↓,0.6242925000842661,True,16,-1,0,10
Y2-S2-146K21,3,244,AS,exp,39,→,right,→,0.531840099953115,True,16,-1,0,10
Y2-S2-146K21,3,245,AS,exp,41,↑,up,↑,0.7523586000315845,True,16,1,1,11
Y2-S2-146K21,3,246,AS,exp,34,←,left,←,0.5822594000492245,True,15,1,0,11
Y2-S2-146K21,3,247,AS,exp,43,→,left,←,0.8782560999970883,False,15,-1,1,12
Y2-S2-146K21,3,248,AS,exp,26,↑,up,↑,0.5605636001564562,True,16,-1,0,12
Y2-S2-146K21,3,249,AS,exp,48,↓,up,↑,0.7540351999923587,False,16,-1,0,12
Y2-S2-146K21,3,250,AS,exp,36,←,up,↑,0.7918337001465261,False,17,-1,0,12
Y2-S2-146K21,3,251,AS,exp,27,→,right,→,0.5613043999765068,True,18,-1,0,12
Y2-S2-146K21,3,252,AS,exp,47,←,left,←,0.6340908000711352,True,18,-1,0,12
Y2-S2-146K21,3,253,AS,exp,37,↑,up,↑,0.5645605998579413,True,18,1,1,13
Y2-S2-146K21,3,254,AS,exp,40,↓,down,↓,0.7348001000937074,True,17,1,0,13
Y2-S2-146K21,3,255,AS,exp,47,←,left,←,0.8334069999400526,True,17,1,0,13
Y2-S2-146K21,3,256,AS,exp,42,↑,up,↑,0.6699584999587387,True,17,1,0,13
Y2-S2-146K21,3,257,AS,exp,47,→,right,→,0.6770860999822617,True,16,1,0,13
Y2-S2-146K21,3,258,AS,exp,45,←,left,←,0.7131088001187891,True,16,1,0,13
Y2-S2-146K21,3,259,AS,exp,49,↑,up,↑,0.8619172999169677,True,16,1,0,13
Y2-S2-146K21,3,260,AS,exp,34,↓,down,↓,0.6840976998209953,True,15,1,0,13
Y2-S2-146K21,3,261,AS,exp,40,↑,up,↑,0.8431877000257373,True,15,1,0,13
Y2-S2-146K21,3,262,AS,exp,35,←,left,←,0.527470099972561,True,15,1,0,13
Y2-S2-146K21,3,263,AS,exp,49,↓,up,↑,0.7232784000225365,False,14,-1,1,14
Y2-S2-146K21,3,264,AS,exp,45,←,left,←,0.7058969000354409,True,15,-1,0,14
Y2-S2-146K21,3,265,AS,exp,46,→,left,←,0.6719571999274194,False,15,-1,0,14
Y2-S2-146K21,3,266,AS,exp,38,↑,up,↑,0.5946440000552684,True,16,-1,0,14
Y2-S2-146K21,3,267,AS,exp,46,↓,right,→,0.7204728999640793,False,16,-1,0,14
Y2-S2-146K21,3,268,AS,exp,30,←,left,←,0.6920207999646664,True,17,-1,0,14
Y2-S2-146K21,3,269,AS,exp,26,→,left,←,0.6229558999184519,False,17,-1,0,14
Y2-S2-146K21,3,270,AS,exp,30,↓,up,↑,0.9382230998016894,False,18,-1,0,14
Y2-S2-146K21,3,271,AS,exp,36,←,left,←,0.6995278000831604,True,19,-1,0,14
Y2-S2-146K21,3,272,AS,exp,49,↑,up,↑,0.7849946999922395,True,19,-1,0,14
Y2-S2-146K21,3,273,AS,exp,49,→,right,→,0.658941000001505,True,19,1,1,15
Y2-S2-146K21,3,274,AS,exp,25,←,left,←,0.5783801998477429,True,18,1,0,15
Y2-S2-146K21,3,275,AS,exp,29,→,left,←,0.5946929999627173,False,18,-1,1,16
Y2-S2-146K21,4,276,PS,intra_train,26,←,right,→,0.6588510998990387,False,13,-,-,-
Y2-S2-146K21,4,277,PS,intra_train,36,↑,up,↑,0.5293048000894487,True,13,-,-,-
Y2-S2-146K21,4,278,PS,intra_train,27,↓,down,↓,0.6450871999841183,True,13,-,-,-
Y2-S2-146K21,4,279,PS,intra_train,32,←,left,←,0.47589760017581284,True,13,-,-,-
Y2-S2-146K21,4,280,PS,intra_train,35,→,right,→,0.5549494998995215,True,13,-,-,-
Y2-S2-146K21,4,281,PS,exp,35,←,left,←,0.5727333000395447,True,9,0,0,0
Y2-S2-146K21,4,282,PS,exp,46,→,right,→,0.8024424999020994,True,9,0,0,0
Y2-S2-146K21,4,283,PS,exp,34,↓,down,↓,0.6397343999706209,True,9,1,0,0
Y2-S2-146K21,4,284,PS,exp,40,↑,left,←,0.7759626999031752,False,8,-1,1,1
Y2-S2-146K21,4,285,PS,exp,49,←,left,←,0.49216199992224574,True,9,-1,0,1
Y2-S2-146K21,4,286,PS,exp,36,→,right,→,0.5130357001908123,True,9,-1,0,1
Y2-S2-146K21,4,287,PS,exp,30,↓,down,↓,0.608417300041765,True,9,1,1,2
Y2-S2-146K21,4,288,PS,exp,46,←,down,↓,0.6169267001096159,False,8,-1,1,3
Y2-S2-146K21,4,289,PS,exp,39,↓,down,↓,0.6327506001107395,True,9,-1,0,3
Y2-S2-146K21,4,290,PS,exp,25,↑,up,↑,0.5161979999393225,True,9,-1,0,3
Y2-S2-146K21,4,291,PS,exp,28,→,down,↓,0.7584369999822229,False,9,-1,0,3
Y2-S2-146K21,4,292,PS,exp,50,↑,up,↑,0.4708382000681013,True,10,-1,0,3
Y2-S2-146K21,4,293,PS,exp,28,→,right,→,0.4961612999904901,True,10,-1,0,3
Y2-S2-146K21,4,294,PS,exp,40,↓,down,↓,0.5357964998111129,True,10,1,1,4
Y2-S2-146K21,4,295,PS,exp,41,←,left,←,0.6737593999132514,True,9,1,0,4
Y2-S2-146K21,4,296,PS,exp,44,↓,down,↓,0.5842554999981076,True,9,1,0,4
Y2-S2-146K21,4,297,PS,exp,44,→,right,→,0.5283355999272317,True,9,1,0,4
Y2-S2-146K21,4,298,PS,exp,37,←,left,←,0.5187087999656796,True,8,1,0,4
Y2-S2-146K21,4,299,PS,exp,35,→,right,→,0.578644199995324,True,8,1,0,4
Y2-S2-146K21,4,300,PS,exp,36,←,left,←,0.43490039999596775,True,8,1,0,4
Y2-S2-146K21,4,301,PS,exp,26,↓,left,←,0.6309322998858988,False,7,-1,1,5
Y2-S2-146K21,4,302,PS,exp,43,←,left,←,0.5849703000858426,True,8,-1,0,5
Y2-S2-146K21,4,303,PS,exp,49,↓,right,→,0.5142727999482304,False,8,-1,0,5
Y2-S2-146K21,4,304,PS,exp,38,↑,right,→,0.46581419999711215,False,9,-1,0,5
Y2-S2-146K21,4,305,PS,exp,29,↓,down,↓,0.7545545999892056,True,10,-1,0,5
Y2-S2-146K21,4,306,PS,exp,50,→,right,→,0.4444333000574261,True,10,-1,0,5
Y2-S2-146K21,4,307,PS,exp,46,←,left,←,0.509345900034532,True,10,1,1,6
Y2-S2-146K21,4,308,PS,exp,33,→,right,→,0.5096074000466615,True,9,1,0,6
Y2-S2-146K21,4,309,PS,exp,36,↓,down,↓,0.5618111998774111,True,9,1,0,6
Y2-S2-146K21,4,310,PS,exp,36,→,right,→,0.967479299986735,True,9,1,0,6
Y2-S2-146K21,4,311,PS,exp,36,←,left,←,0.5704049998894334,True,8,1,0,6
Y2-S2-146K21,4,312,PS,exp,38,→,right,→,0.48246690002270043,True,8,1,0,6
Y2-S2-146K21,4,313,PS,exp,26,↓,down,↓,0.6097184000536799,True,8,1,0,6
Y2-S2-146K21,4,314,PS,exp,25,←,right,→,0.46090950001962483,False,7,-1,1,7
Y2-S2-146K21,4,315,PS,exp,36,↓,down,↓,0.44634190015494823,True,8,-1,0,7
Y2-S2-146K21,4,316,PS,exp,28,↑,down,↓,0.7332136000040919,False,8,-1,0,7
Y2-S2-146K21,4,317,PS,exp,27,→,down,↓,0.8431645999662578,False,9,-1,0,7
Y2-S2-146K21,4,318,PS,exp,37,↑,right,→,0.6585343999322504,False,10,-1,0,7
Y2-S2-146K21,4,319,PS,exp,38,→,right,→,0.5200086000841111,True,11,-1,0,7
Y2-S2-146K21,4,320,PS,exp,28,←,left,←,0.6546068000607193,True,11,-1,0,7
Y2-S2-146K21,4,321,PS,exp,43,↑,up,↑,0.5730318001005799,True,11,1,1,8
Y2-S2-146K21,4,322,PS,exp,39,→,left,←,1.335757200140506,False,10,-1,1,9
Y2-S2-146K21,4,323,PS,exp,39,↑,up,↑,0.5517558001447469,True,11,-1,0,9
Y2-S2-146K21,4,324,PS,exp,36,←,left,←,0.5700141000561416,True,11,-1,0,9
Y2-S2-146K21,4,325,PS,exp,25,→,right,→,0.46235169982537627,True,11,1,1,10
Y2-S2-146K21,4,326,PS,exp,33,↑,up,↑,0.505131300073117,True,10,1,0,10
Y2-S2-146K21,4,327,PS,exp,36,↓,down,↓,0.6712270001880825,True,10,1,0,10
Y2-S2-146K21,4,328,PS,exp,32,←,left,←,0.45393349998630583,True,10,1,0,10
Y2-S2-146K21,4,329,PS,exp,37,↓,left,←,0.6782625999767333,False,9,-1,1,11
Y2-S2-146K21,4,330,PS,exp,38,←,up,↑,0.6665326000656933,False,10,-1,0,11
Y2-S2-146K21,4,331,PS,exp,28,↑,up,↑,0.5450947000645101,True,11,-1,0,11
Y2-S2-146K21,4,332,PS,exp,42,←,left,←,0.45998889999464154,True,11,-1,0,11
Y2-S2-146K21,4,333,PS,exp,26,↑,up,↑,0.5873889999929816,True,11,1,1,12
Y2-S2-146K21,4,334,PS,exp,45,↓,down,↓,0.6433249998372048,True,10,1,0,12
Y2-S2-146K21,4,335,PS,exp,28,↑,up,↑,0.5239885000046343,True,10,1,0,12
Y2-S2-146K21,4,336,PS,exp,42,←,left,←,0.5379262000788003,True,10,1,0,12
Y2-S2-146K21,4,337,PS,exp,45,↑,left,←,0.8132337999995798,False,9,-1,1,13
Y2-S2-146K21,4,338,PS,exp,38,→,right,→,0.5057065999135375,True,10,-1,0,13
Y2-S2-146K21,4,339,PS,exp,45,↑,up,↑,0.5095146000385284,True,10,-1,0,13
Y2-S2-146K21,4,340,PS,exp,28,→,right,→,0.6763540001120418,True,10,1,1,14
Y2-S2-146K21,4,341,PS,exp,47,↑,up,↑,0.6515114000067115,True,9,1,0,14
Y2-S2-146K21,4,342,PS,exp,26,↓,left,←,0.5356878999155015,False,9,-1,1,15
Y2-S2-146K21,4,343,PS,exp,27,↑,up,↑,0.5897079999558628,True,10,-1,0,15
Y2-S2-146K21,4,344,PS,exp,31,→,right,→,0.5228728000074625,True,10,-1,0,15
Y2-S2-146K21,4,345,PS,exp,28,←,left,←,0.48421590006910264,True,10,1,1,16
Y2-S2-146K21,5,346,PS,intra_train,35,↑,up,↑,0.5069633999373764,True,13,-,-,-
Y2-S2-146K21,5,347,PS,intra_train,44,←,left,←,0.4844228997826576,True,13,-,-,-
Y2-S2-146K21,5,348,PS,intra_train,32,↓,down,↓,0.7360347001813352,True,13,-,-,-
Y2-S2-146K21,5,349,PS,intra_train,32,↑,up,↑,0.7087790998630226,True,13,-,-,-
Y2-S2-146K21,5,350,PS,intra_train,29,↓,down,↓,0.6834719001781195,True,13,-,-,-
Y2-S2-146K21,5,351,PS,exp,28,→,down,↓,0.7407374000176787,False,9,-1,0,0
Y2-S2-146K21,5,352,PS,exp,48,←,left,←,0.6012540000956506,True,10,-1,0,0
Y2-S2-146K21,5,353,PS,exp,45,→,right,→,0.5141845000907779,True,10,-1,0,0
Y2-S2-146K21,5,354,PS,exp,27,↑,up,↑,0.522012900095433,True,10,1,1,1
Y2-S2-146K21,5,355,PS,exp,30,↓,left,←,0.8066332000307739,False,9,-1,1,2
Y2-S2-146K21,5,356,PS,exp,30,→,right,→,0.4921317999251187,True,10,-1,0,2
Y2-S2-146K21,5,357,PS,exp,26,↑,up,↑,0.4684009999036789,True,10,-1,0,2
Y2-S2-146K21,5,358,PS,exp,26,←,left,←,0.6284811999648809,True,10,1,1,3
Y2-S2-146K21,5,359,PS,exp,28,→,right,→,0.5353911998681724,True,9,1,0,3
Y2-S2-146K21,5,360,PS,exp,39,↓,down,↓,0.7346926999744028,True,9,1,0,3
Y2-S2-146K21,5,361,PS,exp,40,→,left,←,0.520085500087589,False,9,-1,1,4
Y2-S2-146K21,5,362,PS,exp,26,←,left,←,0.5058618998154998,True,10,-1,0,4
Y2-S2-146K21,5,363,PS,exp,44,↓,down,↓,0.6717095000203699,True,10,-1,0,4
Y2-S2-146K21,5,364,PS,exp,40,↑,up,↑,0.4869360998272896,True,10,1,1,5
Y2-S2-146K21,5,365,PS,exp,47,↓,down,↓,0.5163613001350313,True,9,1,0,5
Y2-S2-146K21,5,366,PS,exp,39,→,down,↓,0.5867740998510271,False,9,-1,1,6
Y2-S2-146K21,5,367,PS,exp,39,←,left,←,0.5453118998557329,True,10,-1,0,6
Y2-S2-146K21,5,368,PS,exp,26,↑,up,↑,0.5590178000275046,True,10,-1,0,6
Y2-S2-146K21,5,369,PS,exp,50,→,right,→,0.5276476999279112,True,10,1,1,7
Y2-S2-146K21,5,370,PS,exp,44,↓,up,↑,0.7827866000588983,False,9,-1,1,8
Y2-S2-146K21,5,371,PS,exp,37,←,left,←,0.46592800016514957,True,10,-1,0,8
Y2-S2-146K21,5,372,PS,exp,38,→,right,→,0.49115919996984303,True,10,-1,0,8
Y2-S2-146K21,5,373,PS,exp,41,←,left,←,0.49363699997775257,True,10,1,1,9
Y2-S2-146K21,5,374,PS,exp,49,↓,down,↓,0.6892151997890323,True,9,1,0,9
Y2-S2-146K21,5,375,PS,exp,41,←,right,→,0.583941200049594,False,9,-1,1,10
Y2-S2-146K21,5,376,PS,exp,47,↑,up,↑,0.5215413998812437,True,10,-1,0,10
Y2-S2-146K21,5,377,PS,exp,39,→,right,→,0.5238793999888003,True,10,-1,0,10
Y2-S2-146K21,5,378,PS,exp,50,↑,up,↑,0.5137010999023914,True,10,1,1,11
Y2-S2-146K21,5,379,PS,exp,49,←,left,←,0.5447348000016063,True,9,1,0,11
Y2-S2-146K21,5,380,PS,exp,42,↓,down,↓,0.5838033999316394,True,9,1,0,11
Y2-S2-146K21,5,381,PS,exp,28,↑,up,↑,0.49334080005064607,True,9,1,0,11
Y2-S2-146K21,5,382,PS,exp,44,←,left,←,0.7780869000125676,True,8,1,0,11
Y2-S2-146K21,5,383,PS,exp,28,↓,up,↑,0.4967394999694079,False,8,-1,1,12
Y2-S2-146K21,5,384,PS,exp,46,↑,up,↑,0.5401294000912458,True,9,-1,0,12
Y2-S2-146K21,5,385,PS,exp,50,→,left,←,0.5712190999183804,False,9,-1,0,12
Y2-S2-146K21,5,386,PS,exp,46,↓,down,↓,0.6238537000026554,True,10,-1,0,12
Y2-S2-146K21,5,387,PS,exp,30,↑,up,↑,0.5950321001000702,True,10,-1,0,12
Y2-S2-146K21,5,388,PS,exp,49,→,right,→,0.521186500089243,True,10,1,1,13
Y2-S2-146K21,5,389,PS,exp,26,↓,up,↑,0.6126108998432755,False,9,-1,1,14
Y2-S2-146K21,5,390,PS,exp,39,←,left,←,0.6171029000543058,True,10,-1,0,14
Y2-S2-146K21,5,391,PS,exp,26,→,right,→,0.4662370001897216,True,10,-1,0,14
Y2-S2-146K21,5,392,PS,exp,25,↓,down,↓,0.5917932000011206,True,10,1,1,15
Y2-S2-146K21,5,393,PS,exp,48,←,left,←,0.4596977001056075,True,9,1,0,15
Y2-S2-146K21,5,394,PS,exp,47,↑,up,↑,0.6232635001651943,True,9,1,0,15
Y2-S2-146K21,5,395,PS,exp,41,↓,down,↓,0.5437996000982821,True,9,1,0,15
Y2-S2-146K21,5,396,PS,exp,36,↑,down,↓,0.8930974998511374,False,8,-1,1,16
Y2-S2-146K21,6,397,AS,intra_train,49,→,no_key,no_letter,-1.0,False,19,-,-,-
Y2-S2-146K21,6,398,AS,intra_train,26,↓,left,←,0.9747853002045304,False,19,-,-,-
Y2-S2-146K21,6,399,AS,intra_train,41,→,right,→,0.5798590998165309,True,19,-,-,-
Y2-S2-146K21,6,400,AS,intra_train,34,↑,up,↑,0.6828447999432683,True,19,-,-,-
Y2-S2-146K21,6,401,AS,intra_train,46,↓,down,↓,0.7279552000109106,True,19,-,-,-
Y2-S2-146K21,6,402,AS,exp,37,↑,up,↑,0.7059206000994891,True,13,0,0,0
Y2-S2-146K21,6,403,AS,exp,41,→,right,→,0.560750599950552,True,13,0,0,0
Y2-S2-146K21,6,404,AS,exp,29,↓,down,↓,0.7060573999769986,True,13,1,0,0
Y2-S2-146K21,6,405,AS,exp,35,←,right,→,0.6499212000053376,False,12,-1,1,1
Y2-S2-146K21,6,406,AS,exp,38,↓,down,↓,0.728681999957189,True,13,-1,0,1
Y2-S2-146K21,6,407,AS,exp,29,↑,up,↑,0.5154630998149514,True,13,-1,0,1
Y2-S2-146K21,6,408,AS,exp,48,↓,down,↓,0.6419639999512583,True,13,1,1,2
Y2-S2-146K21,6,409,AS,exp,28,→,right,→,0.482524799881503,True,12,1,0,2
Y2-S2-146K21,6,410,AS,exp,40,↑,up,↑,0.5111344000324607,True,12,1,0,2
Y2-S2-146K21,6,411,AS,exp,37,↓,down,↓,0.5144379001576453,True,12,1,0,2
Y2-S2-146K21,6,412,AS,exp,46,↑,down,↓,0.6886299001052976,False,11,-1,1,3
Y2-S2-146K21,6,413,AS,exp,43,→,right,→,0.5146788000129163,True,12,-1,0,3
Y2-S2-146K21,6,414,AS,exp,49,↓,down,↓,0.6761090999934822,True,12,-1,0,3
Y2-S2-146K21,6,415,AS,exp,31,↑,up,↑,0.5022251999471337,True,12,1,1,4
Y2-S2-146K21,6,416,AS,exp,30,↓,up,↑,0.8458035998046398,False,11,-1,1,5
Y2-S2-146K21,6,417,AS,exp,42,←,left,←,0.6347811999730766,True,12,-1,0,5
Y2-S2-146K21,6,418,AS,exp,50,↓,down,↓,0.8105297998990864,True,12,-1,0,5
Y2-S2-146K21,6,419,AS,exp,33,→,down,↓,1.0376919000409544,False,12,-1,0,5
Y2-S2-146K21,6,420,AS,exp,43,←,left,←,0.794493299908936,True,13,-1,0,5
Y2-S2-146K21,6,421,AS,exp,31,→,left,←,0.8190802000463009,False,13,-1,0,5
Y2-S2-146K21,6,422,AS,exp,40,↓,down,↓,0.5250862000975758,True,14,-1,0,5
Y2-S2-146K21,6,423,AS,exp,47,→,down,↓,0.6653117998503149,False,14,-1,0,5
Y2-S2-146K21,6,424,AS,exp,42,↓,down,↓,0.612001899862662,True,15,-1,0,5
Y2-S2-146K21,6,425,AS,exp,28,→,right,→,0.5348370999563485,True,15,-1,0,5
Y2-S2-146K21,6,426,AS,exp,42,↓,down,↓,0.5965392999351025,True,15,1,1,6
Y2-S2-146K21,6,427,AS,exp,29,↑,down,↓,1.0386202998925,False,14,-1,1,7
Y2-S2-146K21,6,428,AS,exp,26,↓,down,↓,0.6731191999278963,True,15,-1,0,7
Y2-S2-146K21,6,429,AS,exp,35,←,left,←,0.6045975999440998,True,15,-1,0,7
Y2-S2-146K21,6,430,AS,exp,47,↑,up,↑,0.6750068999826908,True,15,1,1,8
Y2-S2-146K21,6,431,AS,exp,48,↓,down,↓,0.7015951999928802,True,14,1,0,8
Y2-S2-146K21,6,432,AS,exp,40,←,left,←,0.5557587000075728,True,14,1,0,8
Y2-S2-146K21,6,433,AS,exp,36,↑,right,→,0.8199961001519114,False,14,-1,1,9
Y2-S2-146K21,6,434,AS,exp,32,←,right,→,0.5933903998229653,False,15,-1,0,9
Y2-S2-146K21,6,435,AS,exp,38,↑,up,↑,0.5147474999539554,True,16,-1,0,9
Y2-S2-146K21,6,436,AS,exp,33,←,right,→,0.7926554998848587,False,16,-1,0,9
Y2-S2-146K21,6,437,AS,exp,25,↑,left,←,0.809267400065437,False,17,-1,0,9
Y2-S2-146K21,6,438,AS,exp,41,→,right,→,0.6844220000784844,True,18,-1,0,9
Y2-S2-146K21,6,439,AS,exp,31,↓,down,↓,0.7794215998146683,True,18,-1,0,9
Y2-S2-146K21,6,440,AS,exp,27,←,right,→,0.7468697999138385,False,18,-1,0,9
Y2-S2-146K21,6,441,AS,exp,30,→,left,←,0.8568361001089215,False,19,-1,0,9
Y2-S2-146K21,6,442,AS,exp,37,←,left,←,0.6766631999053061,True,20,-1,0,9
Y2-S2-146K21,6,443,AS,exp,48,→,right,→,0.8084720000624657,True,20,-1,0,9
Y2-S2-146K21,6,444,AS,exp,44,↓,down,↓,0.7258458000142127,True,20,1,1,10
Y2-S2-146K21,6,445,AS,exp,47,→,right,→,0.4340675000566989,True,19,1,0,10
Y2-S2-146K21,6,446,AS,exp,38,↓,down,↓,0.6929232999682426,True,19,1,0,10
Y2-S2-146K21,6,447,AS,exp,37,↑,right,→,0.8006995001342148,False,19,-1,1,11
Y2-S2-146K21,6,448,AS,exp,39,↓,down,↓,0.7193766999989748,True,20,-1,0,11
Y2-S2-146K21,6,449,AS,exp,30,→,right,→,0.6079155001789331,True,20,-1,0,11
Y2-S2-146K21,6,450,AS,exp,38,←,down,↓,0.8520385001320392,False,20,-1,0,11
Y2-S2-146K21,6,451,AS,exp,30,↑,up,↑,0.6814097000751644,True,21,-1,0,11
Y2-S2-146K21,6,452,AS,exp,30,←,left,←,0.570621799910441,True,21,-1,0,11
Y2-S2-146K21,6,453,AS,exp,28,↓,down,↓,0.7121592999901623,True,21,1,1,12
Y2-S2-146K21,6,454,AS,exp,48,→,right,→,0.5742866999935359,True,20,1,0,12
Y2-S2-146K21,6,455,AS,exp,30,↑,up,↑,0.8469374999403954,True,20,1,0,12
Y2-S2-146K21,6,456,AS,exp,39,↓,down,↓,0.5455378000624478,True,20,1,0,12
Y2-S2-146K21,6,457,AS,exp,45,→,right,→,0.5760510000400245,True,19,1,0,12
Y2-S2-146K21,6,458,AS,exp,26,↑,down,↓,0.6766624001320451,False,19,-1,1,13
Y2-S2-146K21,6,459,AS,exp,37,↓,down,↓,0.7257674001157284,True,20,-1,0,13
Y2-S2-146K21,6,460,AS,exp,37,←,right,→,0.5310575999319553,False,20,-1,0,13
Y2-S2-146K21,6,461,AS,exp,44,→,right,→,0.5275766998529434,True,21,-1,0,13
Y2-S2-146K21,6,462,AS,exp,49,↓,down,↓,0.6374629999045283,True,21,-1,0,13
Y2-S2-146K21,6,463,AS,exp,29,↑,up,↑,1.008643199922517,True,21,1,1,14
Y2-S2-146K21,6,464,AS,exp,33,↓,down,↓,0.5948998001404107,True,20,1,0,14
Y2-S2-146K21,6,465,AS,exp,42,←,left,←,0.5808586999773979,True,20,1,0,14
Y2-S2-146K21,6,466,AS,exp,30,↓,down,↓,0.5653645000420511,True,20,1,0,14
Y2-S2-146K21,6,467,AS,exp,35,→,right,→,0.6492461999878287,True,19,1,0,14
Y2-S2-146K21,6,468,AS,exp,43,←,left,←,0.5457605000119656,True,19,1,0,14
Y2-S2-146K21,6,469,AS,exp,26,→,left,←,0.8475434000138193,False,19,-1,1,15
Y2-S2-146K21,6,470,AS,exp,45,↑,up,↑,0.6123017999343574,True,20,-1,0,15
Y2-S2-146K21,6,471,AS,exp,45,←,left,←,0.7011132999323308,True,20,-1,0,15
Y2-S2-146K21,6,472,AS,exp,33,↓,down,↓,0.6263835998252034,True,20,1,1,16
Y2-S2-146K21,7,473,AS,intra_train,31,←,left,←,0.6573503999970853,True,19,-,-,-
Y2-S2-146K21,7,474,AS,intra_train,44,↑,up,↑,0.6005117001477629,True,19,-,-,-
Y2-S2-146K21,7,475,AS,intra_train,27,←,left,←,0.533128899987787,True,19,-,-,-
Y2-S2-146K21,7,476,AS,intra_train,28,↓,up,↑,0.7237850001547486,False,19,-,-,-
Y2-S2-146K21,7,477,AS,intra_train,30,↑,up,↑,0.6066493999678642,True,19,-,-,-
Y2-S2-146K21,7,478,AS,exp,31,→,right,→,0.735160999931395,True,13,0,0,0
Y2-S2-146K21,7,479,AS,exp,31,↓,up,↑,0.8195085998158902,False,13,-1,0,0
Y2-S2-146K21,7,480,AS,exp,38,→,right,→,0.6557046000380069,True,14,-1,0,0
Y2-S2-146K21,7,481,AS,exp,36,↑,up,↑,0.5228828999679536,True,14,-1,0,0
Y2-S2-146K21,7,482,AS,exp,34,→,right,→,0.6647393999155611,True,14,1,1,1
Y2-S2-146K21,7,483,AS,exp,37,←,left,←,0.5475693999323994,True,13,1,0,1
Y2-S2-146K21,7,484,AS,exp,31,↑,up,↑,0.5535697999875993,True,13,1,0,1
Y2-S2-146K21,7,485,AS,exp,25,→,right,→,0.5961758000776172,True,13,1,0,1
Y2-S2-146K21,7,486,AS,exp,39,↑,up,↑,0.5025032998528332,True,12,1,0,1
Y2-S2-146K21,7,487,AS,exp,36,→,right,→,0.542628699913621,True,12,1,0,1
Y2-S2-146K21,7,488,AS,exp,35,↑,up,↑,0.634622200159356,True,12,1,0,1
Y2-S2-146K21,7,489,AS,exp,33,→,right,→,0.755964000010863,True,11,1,0,1
Y2-S2-146K21,7,490,AS,exp,32,↓,down,↓,0.8428251999430358,True,11,1,0,1
Y2-S2-146K21,7,491,AS,exp,47,↑,up,↑,0.7389215999282897,True,11,1,0,1
Y2-S2-146K21,7,492,AS,exp,48,↓,up,↑,1.1937879999168217,False,10,-1,1,2
Y2-S2-146K21,7,493,AS,exp,41,↑,up,↑,0.6758536999113858,True,11,-1,0,2
Y2-S2-146K21,7,494,AS,exp,50,→,left,←,0.6037035000044852,False,11,-1,0,2
Y2-S2-146K21,7,495,AS,exp,39,←,left,←,0.5437139999121428,True,12,-1,0,2
Y2-S2-146K21,7,496,AS,exp,40,↓,up,↑,0.6103430001530796,False,12,-1,0,2
Y2-S2-146K21,7,497,AS,exp,35,↑,up,↑,0.42692120000720024,True,13,-1,0,2
Y2-S2-146K21,7,498,AS,exp,37,→,right,→,0.5803396999835968,True,13,-1,0,2
Y2-S2-146K21,7,499,AS,exp,37,↓,up,↑,0.7917473001871258,False,13,-1,0,2
Y2-S2-146K21,7,500,AS,exp,36,←,left,←,0.5858358999248594,True,14,-1,0,2
Y2-S2-146K21,7,501,AS,exp,50,↓,up,↑,0.5485565001145005,False,14,-1,0,2
Y2-S2-146K21,7,502,AS,exp,31,→,right,→,0.578127000015229,True,15,-1,0,2
Y2-S2-146K21,7,503,AS,exp,39,↓,up,↑,0.6229507999960333,False,15,-1,0,2
Y2-S2-146K21,7,504,AS,exp,39,→,right,→,0.676961800083518,True,16,-1,0,2
Y2-S2-146K21,7,505,AS,exp,43,↑,right,→,0.8886220001149923,False,16,-1,0,2
Y2-S2-146K21,7,506,AS,exp,36,→,right,→,0.4941802001558244,True,17,-1,0,2
Y2-S2-146K21,7,507,AS,exp,25,←,left,←,0.7588399001397192,True,17,-1,0,2
Y2-S2-146K21,7,508,AS,exp,31,↓,left,←,0.7160033998079598,False,17,-1,0,2
Y2-S2-146K21,7,509,AS,exp,27,↑,right,→,0.6795977998990566,False,18,-1,0,2
Y2-S2-146K21,7,510,AS,exp,41,←,left,←,0.5543323000892997,True,19,-1,0,2
Y2-S2-146K21,7,511,AS,exp,41,→,right,→,0.5427463999949396,True,19,-1,0,2
Y2-S2-146K21,7,512,AS,exp,36,↓,down,↓,0.6735928000416607,True,19,1,1,3
Y2-S2-146K21,7,513,AS,exp,28,←,left,←,0.5852516999002546,True,18,1,0,3
Y2-S2-146K21,7,514,AS,exp,37,↓,down,↓,0.7275833999738097,True,18,1,0,3
Y2-S2-146K21,7,515,AS,exp,27,→,right,→,0.6691872000228614,True,18,1,0,3
Y2-S2-146K21,7,516,AS,exp,30,↑,up,↑,0.6625317998696119,True,17,1,0,3
Y2-S2-146K21,7,517,AS,exp,48,←,right,→,0.45958980009891093,False,17,-1,1,4
Y2-S2-146K21,7,518,AS,exp,49,→,right,→,0.5730425000656396,True,18,-1,0,4
Y2-S2-146K21,7,519,AS,exp,40,↓,down,↓,0.9473860000725836,True,18,-1,0,4
Y2-S2-146K21,7,520,AS,exp,40,↑,up,↑,0.41783319995738566,True,18,1,1,5
Y2-S2-146K21,7,521,AS,exp,49,←,left,←,0.5420123001094908,True,17,1,0,5
Y2-S2-146K21,7,522,AS,exp,27,→,right,→,0.6171007000375539,True,17,1,0,5
Y2-S2-146K21,7,523,AS,exp,42,←,left,←,0.5994049999862909,True,17,1,0,5
Y2-S2-146K21,7,524,AS,exp,32,→,right,→,0.5730822999030352,True,16,1,0,5
Y2-S2-146K21,7,525,AS,exp,35,←,left,←,0.5726671000011265,True,16,1,0,5
Y2-S2-146K21,7,526,AS,exp,42,↑,up,↑,0.6663921000435948,True,16,1,0,5
Y2-S2-146K21,7,527,AS,exp,38,↓,right,→,0.8104483000934124,False,15,-1,1,6
Y2-S2-146K21,7,528,AS,exp,44,←,right,→,0.6022954999934882,False,16,-1,0,6
Y2-S2-146K21,7,529,AS,exp,42,→,right,→,0.5817754000891,True,17,-1,0,6
Y2-S2-146K21,7,530,AS,exp,43,←,left,←,0.4996637001167983,True,17,-1,0,6
Y2-S2-146K21,7,531,AS,exp,44,↓,down,↓,0.6907512999605387,True,17,1,1,7
Y2-S2-146K21,7,532,AS,exp,33,→,right,→,0.7427457000594586,True,16,1,0,7
Y2-S2-146K21,7,533,AS,exp,34,←,left,←,0.5238645998761058,True,16,1,0,7
Y2-S2-146K21,7,534,AS,exp,29,↑,up,↑,0.5755785999353975,True,16,1,0,7
Y2-S2-146K21,7,535,AS,exp,36,←,left,←,0.7409060001373291,True,15,1,0,7
Y2-S2-146K21,7,536,AS,exp,34,↓,down,↓,0.7444657001178712,True,15,1,0,7
Y2-S2-146K21,7,537,AS,exp,33,←,right,→,0.7171126001048833,False,15,-1,1,8
Y2-S2-146K21,7,538,AS,exp,48,→,no_key,no_letter,-1.0,False,16,-1,0,8
Y2-S2-146K21,7,539,AS,exp,50,←,no_key,no_letter,-1.0,False,17,-1,0,8
Y2-S2-146K21,7,540,AS,exp,34,↓,down,↓,0.5852318000979722,True,18,-1,0,8
Y2-S2-146K21,7,541,AS,exp,25,→,right,→,0.4995522000826895,True,18,-1,0,8
Y2-S2-146K21,7,542,AS,exp,42,↑,up,↑,1.0841360001359135,True,18,1,1,9
Y2-S2-146K21,7,543,AS,exp,40,→,down,↓,0.8423605000134557,False,17,-1,1,10
Y2-S2-146K21,7,544,AS,exp,49,↑,up,↑,0.47730599995702505,True,18,-1,0,10
Y2-S2-146K21,7,545,AS,exp,26,↓,down,↓,0.6570840999484062,True,18,-1,0,10
Y2-S2-146K21,7,546,AS,exp,37,←,left,←,0.5913741001859307,True,18,1,1,11
Y2-S2-146K21,7,547,AS,exp,50,→,right,→,0.5362875000573695,True,17,1,0,11
Y2-S2-146K21,7,548,AS,exp,49,↑,right,→,0.671313599916175,False,17,-1,1,12
Y2-S2-146K21,7,549,AS,exp,31,→,right,→,0.4876635998953134,True,18,-1,0,12
Y2-S2-146K21,7,550,AS,exp,50,↓,down,↓,0.6441530999727547,True,18,-1,0,12
Y2-S2-146K21,7,551,AS,exp,47,→,no_key,no_letter,-1.0,False,18,-1,0,12
Y2-S2-146K21,7,552,AS,exp,30,↓,down,↓,0.6293734000064433,True,19,-1,0,12
Y2-S2-146K21,7,553,AS,exp,29,↑,up,↑,0.49163240008056164,True,19,-1,0,12
Y2-S2-146K21,7,554,AS,exp,50,→,right,→,0.9320183000527322,True,19,1,1,13
Y2-S2-146K21,7,555,AS,exp,47,↓,down,↓,0.6434082000050694,True,18,1,0,13
Y2-S2-146K21,7,556,AS,exp,31,↑,up,↑,0.6795080001465976,True,18,1,0,13
Y2-S2-146K21,7,557,AS,exp,29,→,right,→,0.4728844000492245,True,18,1,0,13
Y2-S2-146K21,7,558,AS,exp,36,↑,up,↑,0.7461126998532563,True,17,1,0,13
Y2-S2-146K21,7,559,AS,exp,43,→,right,→,0.5663004999514669,True,17,1,0,13
Y2-S2-146K21,7,560,AS,exp,36,←,left,←,1.4767720999661833,True,17,1,0,13
Y2-S2-146K21,7,561,AS,exp,32,↑,down,↓,0.7116368999704719,False,16,-1,1,14
Y2-S2-146K21,7,562,AS,exp,32,←,right,→,0.5680976998992264,False,17,-1,0,14
Y2-S2-146K21,7,563,AS,exp,42,→,right,→,0.4967536998447031,True,18,-1,0,14
Y2-S2-146K21,7,564,AS,exp,25,↑,down,↓,0.6805605997797102,False,18,-1,0,14
Y2-S2-146K21,7,565,AS,exp,47,→,right,→,0.702032099943608,True,19,-1,0,14
Y2-S2-146K21,7,566,AS,exp,27,↑,down,↓,0.8601740000303835,False,19,-1,0,14
Y2-S2-146K21,7,567,AS,exp,37,↓,down,↓,0.9442263999953866,True,20,-1,0,14
Y2-S2-146K21,7,568,AS,exp,33,←,left,←,0.669296600157395,True,20,-1,0,14
Y2-S2-146K21,7,569,AS,exp,33,→,right,→,0.599966499954462,True,20,1,1,15
Y2-S2-146K21,7,570,AS,exp,45,←,left,←,0.6851311998907477,True,19,1,0,15
Y2-S2-146K21,7,571,AS,exp,37,↓,down,↓,0.8107986999675632,True,19,1,0,15
Y2-S2-146K21,7,572,AS,exp,49,←,left,←,1.201565499883145,True,19,1,0,15
Y2-S2-146K21,7,573,AS,exp,26,↓,down,↓,0.7972082998603582,True,18,1,0,15
Y2-S2-146K21,7,574,AS,exp,50,↑,up,↑,0.6325596000533551,True,18,1,0,15
Y2-S2-146K21,7,575,AS,exp,31,←,left,←,0.5431409000884742,True,18,1,0,15
Y2-S2-146K21,7,576,AS,exp,46,↑,up,↑,0.897194700082764,True,17,1,0,15
Y2-S2-146K21,7,577,AS,exp,26,→,right,→,0.548309399979189,True,17,1,0,15
Y2-S2-146K21,7,578,AS,exp,45,↓,down,↓,0.6169682999607176,True,17,1,0,15
Y2-S2-146K21,7,579,AS,exp,37,↑,up,↑,0.826591799966991,True,16,1,0,15
Y2-S2-146K21,7,580,AS,exp,43,↓,left,←,0.8517967001534998,False,16,-1,1,16
Y2-S2-146K21,8,581,PS,intra_train,30,→,right,→,0.5025547000113875,True,13,-,-,-
Y2-S2-146K21,8,582,PS,intra_train,39,↓,down,↓,0.7144894001539797,True,13,-,-,-
Y2-S2-146K21,8,583,PS,intra_train,27,→,right,→,0.463060500100255,True,13,-,-,-
Y2-S2-146K21,8,584,PS,intra_train,47,↑,up,↑,0.4687653000000864,True,13,-,-,-
Y2-S2-146K21,8,585,PS,intra_train,25,↓,up,↑,0.5986220000777394,False,13,-,-,-
Y2-S2-146K21,8,586,PS,exp,49,→,right,→,0.46390159986913204,True,9,0,0,0
Y2-S2-146K21,8,587,PS,exp,27,←,left,←,0.5241946999449283,True,9,0,0,0
Y2-S2-146K21,8,588,PS,exp,33,↓,left,←,0.8836010000668466,False,9,-1,0,0
Y2-S2-146K21,8,589,PS,exp,49,↑,up,↑,0.46372060012072325,True,10,-1,0,0
Y2-S2-146K21,8,590,PS,exp,44,→,right,→,0.4836917999200523,True,10,-1,0,0
Y2-S2-146K21,8,591,PS,exp,40,↑,up,↑,0.446122599998489,True,10,1,1,1
Y2-S2-146K21,8,592,PS,exp,36,←,left,←,0.49222609982825816,True,9,1,0,1
Y2-S2-146K21,8,593,PS,exp,27,↑,up,↑,0.44936309987679124,True,9,1,0,1
Y2-S2-146K21,8,594,PS,exp,26,←,left,←,0.5795731998514384,True,9,1,0,1
Y2-S2-146K21,8,595,PS,exp,50,↓,down,↓,0.6046740000601858,True,8,1,0,1
Y2-S2-146K21,8,596,PS,exp,33,→,up,↑,0.8701198999769986,False,8,-1,1,2
Y2-S2-146K21,8,597,PS,exp,39,↓,down,↓,0.5886955000460148,True,9,-1,0,2
Y2-S2-146K21,8,598,PS,exp,45,↑,up,↑,0.4646220998838544,True,9,-1,0,2
Y2-S2-146K21,8,599,PS,exp,33,←,left,←,0.6136798998340964,True,9,1,1,3
Y2-S2-146K21,8,600,PS,exp,35,→,up,↑,0.6176298998761922,False,8,-1,1,4
Y2-S2-146K21,8,601,PS,exp,27,←,right,→,0.8113917000591755,False,9,-1,0,4
Y2-S2-146K21,8,602,PS,exp,38,↑,up,↑,0.47048330004327,True,10,-1,0,4
Y2-S2-146K21,8,603,PS,exp,44,←,left,←,0.5321643999777734,True,10,-1,0,4
Y2-S2-146K21,8,604,PS,exp,26,↑,up,↑,0.43878949992358685,True,10,1,1,5
Y2-S2-146K21,8,605,PS,exp,36,←,left,←,0.7383604999631643,True,9,1,0,5
Y2-S2-146K21,8,606,PS,exp,30,↑,up,↑,0.5467580000404269,True,9,1,0,5
Y2-S2-146K21,8,607,PS,exp,28,←,left,←,0.4528483999893069,True,9,1,0,5
Y2-S2-146K21,8,608,PS,exp,38,→,left,←,0.5515371998772025,False,8,-1,1,6
Y2-S2-146K21,8,609,PS,exp,47,↑,up,↑,0.4584467001259327,True,9,-1,0,6
Y2-S2-146K21,8,610,PS,exp,33,→,right,→,0.4630722999572754,True,9,-1,0,6
Y2-S2-146K21,8,611,PS,exp,48,←,left,←,0.48165359999984503,True,9,1,1,7
Y2-S2-146K21,8,612,PS,exp,49,↑,left,←,0.5837493999861181,False,8,-1,1,8
Y2-S2-146K21,8,613,PS,exp,38,→,right,→,0.5349808000028133,True,9,-1,0,8
Y2-S2-146K21,8,614,PS,exp,30,↓,down,↓,0.5803868998773396,True,9,-1,0,8
Y2-S2-146K21,8,615,PS,exp,39,↑,up,↑,0.5990524999797344,True,9,1,1,9
Y2-S2-146K21,8,616,PS,exp,43,←,right,→,0.4904155000112951,False,8,-1,1,10
Y2-S2-146K21,8,617,PS,exp,44,↑,left,←,0.5617823000065982,False,9,-1,0,10
Y2-S2-146K21,8,618,PS,exp,27,→,right,→,0.5559320000465959,True,10,-1,0,10
Y2-S2-146K21,8,619,PS,exp,33,↑,right,→,0.4360209000296891,False,10,-1,0,10
Y2-S2-146K21,8,620,PS,exp,41,↓,down,↓,0.5655441000126302,True,11,-1,0,10
Y2-S2-146K21,8,621,PS,exp,47,→,left,←,0.621298799989745,False,11,-1,0,10
Y2-S2-146K21,8,622,PS,exp,26,↑,down,↓,0.7234117998741567,False,12,-1,0,10
Y2-S2-146K21,8,623,PS,exp,34,←,left,←,0.46016940008848906,True,13,-1,0,10
Y2-S2-146K21,8,624,PS,exp,38,↓,down,↓,0.5405852000694722,True,13,-1,0,10
Y2-S2-146K21,8,625,PS,exp,32,→,left,←,0.45278019993565977,False,13,-1,0,10
Y2-S2-146K21,8,626,PS,exp,31,↑,up,↑,0.5024100998416543,True,14,-1,0,10
Y2-S2-146K21,8,627,PS,exp,40,↓,down,↓,0.6466361000202596,True,14,-1,0,10
Y2-S2-146K21,8,628,PS,exp,48,↑,up,↑,0.6303020999766886,True,14,1,1,11
Y2-S2-146K21,8,629,PS,exp,29,←,left,←,0.5310990998987108,True,13,1,0,11
Y2-S2-146K21,8,630,PS,exp,39,↑,up,↑,0.5113836999516934,True,13,1,0,11
Y2-S2-146K21,8,631,PS,exp,36,←,left,←,0.453482500044629,True,13,1,0,11
Y2-S2-146K21,8,632,PS,exp,42,↓,down,↓,0.5513575000222772,True,12,1,0,11
Y2-S2-146K21,8,633,PS,exp,31,←,up,↑,0.8969909001607448,False,12,-1,1,12
Y2-S2-146K21,8,634,PS,exp,40,↓,right,→,0.5395988998934627,False,13,-1,0,12
Y2-S2-146K21,8,635,PS,exp,47,↑,up,↑,0.43205670011229813,True,14,-1,0,12
Y2-S2-146K21,8,636,PS,exp,39,↓,down,↓,0.6084999002050608,True,14,-1,0,12
Y2-S2-146K21,8,637,PS,exp,34,←,down,↓,0.8441896000877023,False,14,-1,0,12
Y2-S2-146K21,8,638,PS,exp,30,→,right,→,0.47163600008934736,True,15,-1,0,12
Y2-S2-146K21,8,639,PS,exp,33,←,left,←,0.46089329989627004,True,15,-1,0,12
Y2-S2-146K21,8,640,PS,exp,31,↓,left,←,0.6780916000716388,False,15,-1,0,12
Y2-S2-146K21,8,641,PS,exp,47,→,left,←,0.6148854000493884,False,16,-1,0,12
Y2-S2-146K21,8,642,PS,exp,28,↓,down,↓,0.6337405000813305,True,17,-1,0,12
Y2-S2-146K21,8,643,PS,exp,36,→,right,→,0.46708470000885427,True,17,-1,0,12
Y2-S2-146K21,8,644,PS,exp,42,←,left,←,0.5890492999460548,True,17,1,1,13
Y2-S2-146K21,8,645,PS,exp,25,→,right,→,0.549325600033626,True,16,1,0,13
Y2-S2-146K21,8,646,PS,exp,42,↓,down,↓,0.6610129000619054,True,16,1,0,13
Y2-S2-146K21,8,647,PS,exp,45,→,right,→,0.7037094000261277,True,16,1,0,13
Y2-S2-146K21,8,648,PS,exp,27,←,left,←,0.35052460012957454,True,15,1,0,13
Y2-S2-146K21,8,649,PS,exp,48,→,right,→,0.5014731001574546,True,15,1,0,13
Y2-S2-146K21,8,650,PS,exp,46,↑,up,↑,0.5365057999733835,True,15,1,0,13
Y2-S2-146K21,8,651,PS,exp,32,→,right,→,0.4985551000572741,True,14,1,0,13
Y2-S2-146K21,8,652,PS,exp,45,↓,right,→,0.8856973999645561,False,14,-1,1,14
Y2-S2-146K21,8,653,PS,exp,38,←,left,←,0.5486119999550283,True,15,-1,0,14
Y2-S2-146K21,8,654,PS,exp,46,↑,down,↓,0.7080906999763101,False,15,-1,0,14
Y2-S2-146K21,8,655,PS,exp,42,↓,down,↓,0.5784167998936027,True,16,-1,0,14
Y2-S2-146K21,8,656,PS,exp,49,↑,up,↑,1.116100799990818,True,16,-1,0,14
Y2-S2-146K21,8,657,PS,exp,46,←,left,←,0.4940682000014931,True,16,1,1,15
Y2-S2-146K21,8,658,PS,exp,50,↑,up,↑,0.5708657999057323,True,15,1,0,15
Y2-S2-146K21,8,659,PS,exp,37,↓,down,↓,0.6912526998203248,True,15,1,0,15
Y2-S2-146K21,8,660,PS,exp,50,↑,up,↑,0.49044269998557866,True,15,1,0,15
Y2-S2-146K21,8,661,PS,exp,46,→,right,→,0.7613196999300271,True,14,1,0,15
Y2-S2-146K21,8,662,PS,exp,49,↓,down,↓,0.7102269998285919,True,14,1,0,15
Y2-S2-146K21,8,663,PS,exp,45,↑,up,↑,0.5958765000104904,True,14,1,0,15
Y2-S2-146K21,8,664,PS,exp,25,↓,down,↓,0.7115501998923719,True,13,1,0,15
Y2-S2-146K21,8,665,PS,exp,43,→,right,→,0.45065669994801283,True,13,1,0,15
Y2-S2-146K21,8,666,PS,exp,25,←,left,←,0.44660970009863377,True,13,1,0,15
Y2-S2-146K21,8,667,PS,exp,31,↓,down,↓,0.6437558000907302,True,12,1,0,15
Y2-S2-146K21,8,668,PS,exp,36,→,right,→,0.4742764998227358,True,12,1,0,15
Y2-S2-146K21,8,669,PS,exp,36,↑,up,↑,0.4878551000729203,True,12,1,0,15
Y2-S2-146K21,8,670,PS,exp,41,←,left,←,0.56253039999865,True,11,1,0,15
Y2-S2-146K21,8,671,PS,exp,27,↓,down,↓,0.5916402000002563,True,11,1,0,15
Y2-S2-146K21,8,672,PS,exp,40,→,left,←,0.5153597998432815,False,11,-1,1,16
