PART_ID,Block_no,Trial_no,Block_type,Trial_type,CSI,Stim_letter,Key_pressed,letter_choose,Rt,Corr,Stimulus Time,Level,Reversal,Revs_count
Y2-S2-175K21,1,1,PS,train,43,↑,up,↑,0.616892599966377,True,30,-,-,-
Y2-S2-175K21,1,2,PS,train,43,→,right,→,0.5837894000578672,True,30,-,-,-
Y2-S2-175K21,1,3,PS,train,48,↓,down,↓,0.7655450999736786,True,30,-,-,-
Y2-S2-175K21,1,4,PS,train,43,→,right,→,1.1400484000332654,True,30,-,-,-
Y2-S2-175K21,1,5,PS,train,42,↑,up,↑,0.756198399933055,True,30,-,-,-
Y2-S2-175K21,1,6,PS,train,47,←,left,←,0.617116600042209,True,30,-,-,-
Y2-S2-175K21,1,7,PS,train,26,↑,up,↑,1.0723199000349268,True,30,-,-,-
Y2-S2-175K21,1,8,PS,train,46,←,left,←,0.6172996000386775,True,30,-,-,-
Y2-S2-175K21,1,9,PS,train,35,→,no_key,no_letter,-1.0,False,30,-,-,-
Y2-S2-175K21,1,10,PS,train,37,←,left,←,1.0745037000160664,True,30,-,-,-
Y2-S2-175K21,2,11,AS,train,36,→,right,→,0.6679387999465689,True,45,-,-,-
Y2-S2-175K21,2,12,AS,train,50,↑,up,↑,0.8338318000314757,True,45,-,-,-
Y2-S2-175K21,2,13,AS,train,41,↓,down,↓,0.6344439999666065,True,45,-,-,-
Y2-S2-175K21,2,14,AS,train,43,↑,up,↑,0.8005867999745533,True,45,-,-,-
Y2-S2-175K21,2,15,AS,train,47,→,right,→,0.6522616998990998,True,45,-,-,-
Y2-S2-175K21,2,16,AS,train,31,↑,up,↑,1.7999983000336215,True,45,-,-,-
Y2-S2-175K21,2,17,AS,train,50,↓,down,↓,0.9373270999640226,True,45,-,-,-
Y2-S2-175K21,2,18,AS,train,33,←,left,←,0.8504846000578254,True,45,-,-,-
Y2-S2-175K21,2,19,AS,train,32,↑,up,↑,0.6178874999750406,True,45,-,-,-
Y2-S2-175K21,2,20,AS,train,25,→,right,→,0.7011831999989226,True,45,-,-,-
Y2-S2-175K21,-,21,PS,adaptive,29,↓,down,↓,0.6988705000840127,True,10,0,0,0
Y2-S2-175K21,-,22,PS,adaptive,50,↑,up,↑,0.5599416000768542,True,10,0,0,0
Y2-S2-175K21,-,23,PS,adaptive,28,↓,down,↓,0.44681460002902895,True,10,1,0,0
Y2-S2-175K21,-,24,PS,adaptive,31,→,right,→,0.643026200006716,True,9,1,0,0
Y2-S2-175K21,-,25,PS,adaptive,49,↓,down,↓,0.6773206999059767,True,9,1,0,0
Y2-S2-175K21,-,26,PS,adaptive,39,→,right,→,0.46092540002427995,True,9,1,0,0
Y2-S2-175K21,-,27,PS,adaptive,33,↑,up,↑,0.5009105999488384,True,8,1,0,0
Y2-S2-175K21,-,28,PS,adaptive,45,→,right,→,0.5023100000107661,True,8,1,0,0
Y2-S2-175K21,-,29,PS,adaptive,34,↑,up,↑,0.42559850006364286,True,8,1,0,0
Y2-S2-175K21,-,30,PS,adaptive,35,→,right,→,0.6004954000236467,True,7,1,0,0
Y2-S2-175K21,-,31,PS,adaptive,30,↓,left,←,0.8125934000127017,False,7,-1,1,1
Y2-S2-175K21,-,32,PS,adaptive,44,→,right,→,0.6813434000359848,True,8,-1,0,1
Y2-S2-175K21,-,33,PS,adaptive,42,↑,up,↑,0.6889955999795347,True,8,-1,0,1
Y2-S2-175K21,-,34,PS,adaptive,44,←,left,←,0.6196908999700099,True,8,1,1,2
Y2-S2-175K21,-,35,PS,adaptive,42,↑,left,←,0.6577464999863878,False,7,-1,1,3
Y2-S2-175K21,-,36,PS,adaptive,43,→,right,→,0.44146050000563264,True,8,-1,0,3
Y2-S2-175K21,-,37,PS,adaptive,45,↓,up,↑,0.6338063000002876,False,8,-1,0,3
Y2-S2-175K21,-,38,PS,adaptive,35,←,left,←,0.4937443999806419,True,9,-1,0,3
Y2-S2-175K21,-,39,PS,adaptive,25,↓,down,↓,0.7222131000598893,True,9,-1,0,3
Y2-S2-175K21,-,40,PS,adaptive,31,↑,up,↑,0.7299299000296742,True,9,1,1,4
Y2-S2-175K21,-,41,AS,adaptive,40,→,right,→,0.5236194001045078,True,20,0,0,0
Y2-S2-175K21,-,42,AS,adaptive,48,↓,down,↓,0.9005434999708086,True,20,0,0,0
Y2-S2-175K21,-,43,AS,adaptive,36,→,right,→,0.6880250000394881,True,20,1,0,0
Y2-S2-175K21,-,44,AS,adaptive,30,↓,down,↓,0.8199884999776259,True,19,1,0,0
Y2-S2-175K21,-,45,AS,adaptive,41,↑,up,↑,0.7398461999837309,True,19,1,0,0
Y2-S2-175K21,-,46,AS,adaptive,36,←,left,←,0.785985599970445,True,19,1,0,0
Y2-S2-175K21,-,47,AS,adaptive,30,→,right,→,0.683702600072138,True,18,1,0,0
Y2-S2-175K21,-,48,AS,adaptive,48,←,left,←,0.63946139998734,True,18,1,0,0
Y2-S2-175K21,-,49,AS,adaptive,45,↑,down,↓,0.8673061000881717,False,18,-1,1,1
Y2-S2-175K21,-,50,AS,adaptive,49,←,left,←,0.7313634000020102,True,19,-1,0,1
Y2-S2-175K21,-,51,AS,adaptive,29,↑,down,↓,1.1649216000223532,False,19,-1,0,1
Y2-S2-175K21,-,52,AS,adaptive,38,→,right,→,0.5886357000563294,True,20,-1,0,1
Y2-S2-175K21,-,53,AS,adaptive,50,←,left,←,0.6059217000147328,True,20,-1,0,1
Y2-S2-175K21,-,54,AS,adaptive,39,↓,down,↓,0.8191804999951273,True,20,1,1,2
Y2-S2-175K21,-,55,AS,adaptive,26,←,left,←,0.6842759000137448,True,19,1,0,2
Y2-S2-175K21,-,56,AS,adaptive,48,↓,down,↓,0.6063262999523431,True,19,1,0,2
Y2-S2-175K21,-,57,AS,adaptive,30,→,right,→,0.8334754999959841,True,19,1,0,2
Y2-S2-175K21,-,58,AS,adaptive,32,↓,down,↓,0.6141983000561595,True,18,1,0,2
Y2-S2-175K21,-,59,AS,adaptive,39,↑,down,↓,0.7279053999809548,False,18,-1,1,3
Y2-S2-175K21,-,60,AS,adaptive,26,↓,down,↓,0.7617488000541925,True,19,-1,0,3
Y2-S2-175K21,-,61,AS,adaptive,35,←,no_key,no_letter,-1.0,False,19,-1,0,3
Y2-S2-175K21,-,62,AS,adaptive,43,↓,down,↓,1.0697609999915585,True,20,-1,0,3
Y2-S2-175K21,-,63,AS,adaptive,37,↑,up,↑,1.575967299984768,True,20,-1,0,3
Y2-S2-175K21,-,64,AS,adaptive,47,←,left,←,1.0570380999706686,True,20,1,1,4
Y2-S2-175K21,1,65,AS,intra_train,27,↑,up,↑,0.43440960010048,True,28,-,-,-
Y2-S2-175K21,1,66,AS,intra_train,26,←,left,←,0.6876026999671012,True,28,-,-,-
Y2-S2-175K21,1,67,AS,intra_train,40,↓,down,↓,1.7222574999323115,True,28,-,-,-
Y2-S2-175K21,1,68,AS,intra_train,40,↑,up,↑,0.6646187000442296,True,28,-,-,-
Y2-S2-175K21,1,69,AS,intra_train,30,↓,down,↓,1.564045799896121,True,28,-,-,-
Y2-S2-175K21,1,70,AS,exp,35,↑,up,↑,0.7439593999879435,True,19,0,0,0
Y2-S2-175K21,1,71,AS,exp,33,↓,down,↓,0.9999612999381498,True,19,0,0,0
Y2-S2-175K21,1,72,AS,exp,39,←,left,←,0.7458373999688774,True,19,1,0,0
Y2-S2-175K21,1,73,AS,exp,48,↑,up,↑,0.7972900999011472,True,18,1,0,0
Y2-S2-175K21,1,74,AS,exp,49,→,right,→,0.7758379000006244,True,18,1,0,0
Y2-S2-175K21,1,75,AS,exp,40,←,left,←,0.6611180999316275,True,18,1,0,0
Y2-S2-175K21,1,76,AS,exp,32,↑,up,↑,0.8146920000435784,True,17,1,0,0
Y2-S2-175K21,1,77,AS,exp,37,←,left,←,0.7055581999011338,True,17,1,0,0
Y2-S2-175K21,1,78,AS,exp,36,↑,up,↑,0.8010429000714794,True,17,1,0,0
Y2-S2-175K21,1,79,AS,exp,27,→,right,→,0.9536239999579266,True,16,1,0,0
Y2-S2-175K21,1,80,AS,exp,40,↑,up,↑,0.6818163000280038,True,16,1,0,0
Y2-S2-175K21,1,81,AS,exp,25,↓,down,↓,0.8121939999982715,True,16,1,0,0
Y2-S2-175K21,1,82,AS,exp,42,↑,up,↑,0.708130200044252,True,15,1,0,0
Y2-S2-175K21,1,83,AS,exp,32,→,down,↓,0.976729099988006,False,15,-1,1,1
Y2-S2-175K21,1,84,AS,exp,38,↓,down,↓,0.6178450000006706,True,16,-1,0,1
Y2-S2-175K21,1,85,AS,exp,45,→,right,→,0.6792660999344662,True,16,-1,0,1
Y2-S2-175K21,1,86,AS,exp,46,←,left,←,0.6059704000363126,True,16,1,1,2
Y2-S2-175K21,1,87,AS,exp,40,→,right,→,0.587245799950324,True,15,1,0,2
Y2-S2-175K21,1,88,AS,exp,49,↑,left,←,1.035961200017482,False,15,-1,1,3
Y2-S2-175K21,1,89,AS,exp,34,→,right,→,0.6799214000348002,True,16,-1,0,3
Y2-S2-175K21,1,90,AS,exp,28,←,up,↑,1.3167744999518618,False,16,-1,0,3
Y2-S2-175K21,1,91,AS,exp,48,→,right,→,0.6860075000440702,True,17,-1,0,3
Y2-S2-175K21,1,92,AS,exp,46,←,left,←,1.124694800004363,True,17,-1,0,3
Y2-S2-175K21,1,93,AS,exp,35,↑,up,↑,0.6917807999998331,True,17,1,1,4
Y2-S2-175K21,1,94,AS,exp,49,→,right,→,0.6967663000104949,True,16,1,0,4
Y2-S2-175K21,1,95,AS,exp,46,←,left,←,0.6118753999471664,True,16,1,0,4
Y2-S2-175K21,1,96,AS,exp,33,↓,up,↑,0.6944765000371262,False,16,-1,1,5
Y2-S2-175K21,1,97,AS,exp,43,←,left,←,0.5216960000107065,True,17,-1,0,5
Y2-S2-175K21,1,98,AS,exp,48,↑,up,↑,0.5368027000222355,True,17,-1,0,5
Y2-S2-175K21,1,99,AS,exp,30,↓,up,↑,0.7980705999070778,False,17,-1,0,5
Y2-S2-175K21,1,100,AS,exp,26,←,left,←,0.7172258000355214,True,18,-1,0,5
Y2-S2-175K21,1,101,AS,exp,35,↑,up,↑,0.7475761999376118,True,18,-1,0,5
Y2-S2-175K21,1,102,AS,exp,41,→,right,→,0.8171384000452235,True,18,1,1,6
Y2-S2-175K21,1,103,AS,exp,37,←,left,←,0.6722282000118867,True,17,1,0,6
Y2-S2-175K21,1,104,AS,exp,37,→,right,→,0.7417929000221193,True,17,1,0,6
Y2-S2-175K21,1,105,AS,exp,43,↓,down,↓,0.7463800000259653,True,17,1,0,6
Y2-S2-175K21,1,106,AS,exp,48,←,down,↓,1.1032640000339597,False,16,-1,1,7
Y2-S2-175K21,1,107,AS,exp,33,↓,down,↓,0.5802589999511838,True,17,-1,0,7
Y2-S2-175K21,1,108,AS,exp,26,→,right,→,0.6797198998974636,True,17,-1,0,7
Y2-S2-175K21,1,109,AS,exp,41,↑,up,↑,0.5417245000135154,True,17,1,1,8
Y2-S2-175K21,1,110,AS,exp,48,→,right,→,0.9396784000564367,True,16,1,0,8
Y2-S2-175K21,1,111,AS,exp,47,↓,down,↓,0.8714361999882385,True,16,1,0,8
Y2-S2-175K21,1,112,AS,exp,35,↑,up,↑,0.4756975999334827,True,16,1,0,8
Y2-S2-175K21,1,113,AS,exp,48,←,left,←,0.658575400011614,True,15,1,0,8
Y2-S2-175K21,1,114,AS,exp,27,→,right,→,0.7494100000476465,True,15,1,0,8
Y2-S2-175K21,1,115,AS,exp,42,↓,left,←,0.8819939999375492,False,15,-1,1,9
Y2-S2-175K21,1,116,AS,exp,31,←,left,←,0.6231265999376774,True,16,-1,0,9
Y2-S2-175K21,1,117,AS,exp,26,↑,up,↑,0.6782241000328213,True,16,-1,0,9
Y2-S2-175K21,1,118,AS,exp,34,→,right,→,0.7911527999676764,True,16,1,1,10
Y2-S2-175K21,1,119,AS,exp,25,↑,up,↑,0.7445159000344574,True,15,1,0,10
Y2-S2-175K21,1,120,AS,exp,35,←,up,↑,0.9285805999534205,False,15,-1,1,11
Y2-S2-175K21,1,121,AS,exp,33,→,right,→,0.5772759999381378,True,16,-1,0,11
Y2-S2-175K21,1,122,AS,exp,48,↓,down,↓,0.7750034999335185,True,16,-1,0,11
Y2-S2-175K21,1,123,AS,exp,50,→,right,→,0.7287386000389233,True,16,1,1,12
Y2-S2-175K21,1,124,AS,exp,31,←,left,←,0.84697650000453,True,15,1,0,12
Y2-S2-175K21,1,125,AS,exp,28,↑,down,↓,1.2277555000036955,False,15,-1,1,13
Y2-S2-175K21,1,126,AS,exp,26,←,left,←,0.8571166999172419,True,16,-1,0,13
Y2-S2-175K21,1,127,AS,exp,26,↓,up,↑,0.7493832999607548,False,16,-1,0,13
Y2-S2-175K21,1,128,AS,exp,28,→,up,↑,1.075423900038004,False,17,-1,0,13
Y2-S2-175K21,1,129,AS,exp,31,↑,up,↑,0.9210855999263003,True,18,-1,0,13
Y2-S2-175K21,1,130,AS,exp,44,→,right,→,0.6338271000422537,True,18,-1,0,13
Y2-S2-175K21,1,131,AS,exp,44,←,right,→,1.180417099967599,False,18,-1,0,13
Y2-S2-175K21,1,132,AS,exp,44,↓,down,↓,0.9119377000024542,True,19,-1,0,13
Y2-S2-175K21,1,133,AS,exp,49,←,left,←,0.746058400021866,True,19,-1,0,13
Y2-S2-175K21,1,134,AS,exp,42,↓,down,↓,0.804501699982211,True,19,1,1,14
Y2-S2-175K21,1,135,AS,exp,28,↑,up,↑,0.7872412001015618,True,18,1,0,14
Y2-S2-175K21,1,136,AS,exp,25,→,down,↓,0.8959610000019893,False,18,-1,1,15
Y2-S2-175K21,1,137,AS,exp,50,↑,up,↑,0.6331547000445426,True,19,-1,0,15
Y2-S2-175K21,1,138,AS,exp,30,→,up,↑,0.7505384999094531,False,19,-1,0,15
Y2-S2-175K21,1,139,AS,exp,39,↓,down,↓,0.8752531000645831,True,20,-1,0,15
Y2-S2-175K21,1,140,AS,exp,48,→,right,→,0.8238104999763891,True,20,-1,0,15
Y2-S2-175K21,1,141,AS,exp,37,↓,down,↓,0.7395988000789657,True,20,1,1,16
Y2-S2-175K21,2,142,PS,intra_train,47,→,right,→,0.6474828999489546,True,12,-,-,-
Y2-S2-175K21,2,143,PS,intra_train,44,←,left,←,0.6325156999519095,True,12,-,-,-
Y2-S2-175K21,2,144,PS,intra_train,38,↓,down,↓,0.7052522000158206,True,12,-,-,-
Y2-S2-175K21,2,145,PS,intra_train,28,→,right,→,0.6304119999986142,True,12,-,-,-
Y2-S2-175K21,2,146,PS,intra_train,34,↓,down,↓,0.7216580999083817,True,12,-,-,-
Y2-S2-175K21,2,147,PS,exp,46,←,right,→,0.7865585999097675,False,8,-1,0,0
Y2-S2-175K21,2,148,PS,exp,25,→,left,←,1.0106102999998257,False,9,-1,0,0
Y2-S2-175K21,2,149,PS,exp,41,↓,down,↓,0.8007562001002952,True,10,-1,0,0
Y2-S2-175K21,2,150,PS,exp,35,←,left,←,0.6579550000606105,True,10,-1,0,0
Y2-S2-175K21,2,151,PS,exp,28,→,right,→,0.6709454000229016,True,10,1,1,1
Y2-S2-175K21,2,152,PS,exp,32,↑,right,→,0.8841602000175044,False,9,-1,1,2
Y2-S2-175K21,2,153,PS,exp,44,↓,down,↓,0.6856149999657646,True,10,-1,0,2
Y2-S2-175K21,2,154,PS,exp,50,←,left,←,0.6563768000341952,True,10,-1,0,2
Y2-S2-175K21,2,155,PS,exp,30,↓,down,↓,0.6383696999400854,True,10,1,1,3
Y2-S2-175K21,2,156,PS,exp,45,→,right,→,0.5457535999594256,True,9,1,0,3
Y2-S2-175K21,2,157,PS,exp,47,↑,up,↑,0.637091499986127,True,9,1,0,3
Y2-S2-175K21,2,158,PS,exp,44,↓,down,↓,0.7789603999117389,True,9,1,0,3
Y2-S2-175K21,2,159,PS,exp,45,→,right,→,0.7008033000165597,True,8,1,0,3
Y2-S2-175K21,2,160,PS,exp,42,↑,up,↑,0.6409210000419989,True,8,1,0,3
Y2-S2-175K21,2,161,PS,exp,26,→,left,←,0.8399313000263646,False,8,-1,1,4
Y2-S2-175K21,2,162,PS,exp,39,↓,down,↓,0.5437890000175685,True,9,-1,0,4
Y2-S2-175K21,2,163,PS,exp,30,↑,down,↓,0.9026698999805376,False,9,-1,0,4
Y2-S2-175K21,2,164,PS,exp,39,←,left,←,0.6539315999252722,True,10,-1,0,4
Y2-S2-175K21,2,165,PS,exp,41,↑,up,↑,0.7368577000452206,True,10,-1,0,4
Y2-S2-175K21,2,166,PS,exp,38,→,up,↑,0.6811810000799596,False,10,-1,0,4
Y2-S2-175K21,2,167,PS,exp,30,←,left,←,0.5845913999946788,True,11,-1,0,4
Y2-S2-175K21,2,168,PS,exp,27,↑,up,↑,0.6841904999455437,True,11,-1,0,4
Y2-S2-175K21,2,169,PS,exp,31,↓,up,↑,0.6096997999120504,False,11,-1,0,4
Y2-S2-175K21,2,170,PS,exp,30,→,right,→,0.6171853000996634,True,12,-1,0,4
Y2-S2-175K21,2,171,PS,exp,43,←,left,←,0.6921625999966636,True,12,-1,0,4
Y2-S2-175K21,2,172,PS,exp,35,→,right,→,0.5174184999195859,True,12,1,1,5
Y2-S2-175K21,2,173,PS,exp,35,←,left,←,0.6719767999602482,True,11,1,0,5
Y2-S2-175K21,2,174,PS,exp,28,→,right,→,0.46739340003114194,True,11,1,0,5
Y2-S2-175K21,2,175,PS,exp,32,↑,up,↑,0.7891395000042394,True,11,1,0,5
Y2-S2-175K21,2,176,PS,exp,38,↓,down,↓,0.7365824000444263,True,10,1,0,5
Y2-S2-175K21,2,177,PS,exp,42,←,left,←,0.6980624999850988,True,10,1,0,5
Y2-S2-175K21,2,178,PS,exp,37,→,right,→,0.6283117000712082,True,10,1,0,5
Y2-S2-175K21,2,179,PS,exp,45,↓,down,↓,0.64339270000346,True,9,1,0,5
Y2-S2-175K21,2,180,PS,exp,25,→,right,→,0.651300499914214,True,9,1,0,5
Y2-S2-175K21,2,181,PS,exp,33,↓,down,↓,0.7199230999685824,True,9,1,0,5
Y2-S2-175K21,2,182,PS,exp,41,→,down,↓,0.953489699983038,False,8,-1,1,6
Y2-S2-175K21,2,183,PS,exp,36,↑,up,↑,0.4949551000026986,True,9,-1,0,6
Y2-S2-175K21,2,184,PS,exp,43,←,left,←,0.7898707001004368,True,9,-1,0,6
Y2-S2-175K21,2,185,PS,exp,49,→,right,→,0.7751749999588355,True,9,1,1,7
Y2-S2-175K21,2,186,PS,exp,43,↓,down,↓,0.8228858999209478,True,8,1,0,7
Y2-S2-175K21,2,187,PS,exp,39,←,left,←,1.074019500054419,True,8,1,0,7
Y2-S2-175K21,2,188,PS,exp,29,→,right,→,0.676371100009419,True,8,1,0,7
Y2-S2-175K21,2,189,PS,exp,46,↑,up,↑,1.0083716999506578,True,7,1,0,7
Y2-S2-175K21,2,190,PS,exp,44,→,right,→,0.6147508999565616,True,7,1,0,7
Y2-S2-175K21,2,191,PS,exp,35,←,right,→,0.8278646999970078,False,7,-1,1,8
Y2-S2-175K21,2,192,PS,exp,29,→,right,→,0.5507520000683144,True,8,-1,0,8
Y2-S2-175K21,2,193,PS,exp,44,↑,up,↑,0.5560862999409437,True,8,-1,0,8
Y2-S2-175K21,2,194,PS,exp,41,←,left,←,0.6220910999691114,True,8,1,1,9
Y2-S2-175K21,2,195,PS,exp,38,→,right,→,0.6724475000519305,True,7,1,0,9
Y2-S2-175K21,2,196,PS,exp,27,↑,right,→,0.682522299932316,False,7,-1,1,10
Y2-S2-175K21,2,197,PS,exp,34,↓,right,→,1.3173958999104798,False,8,-1,0,10
Y2-S2-175K21,2,198,PS,exp,44,→,right,→,0.5366269000805914,True,9,-1,0,10
Y2-S2-175K21,2,199,PS,exp,28,←,left,←,0.6522818000521511,True,9,-1,0,10
Y2-S2-175K21,2,200,PS,exp,33,↓,down,↓,0.670550600043498,True,9,1,1,11
Y2-S2-175K21,2,201,PS,exp,28,→,right,→,0.450657399953343,True,8,1,0,11
Y2-S2-175K21,2,202,PS,exp,25,↓,down,↓,0.6002313999924809,True,8,1,0,11
Y2-S2-175K21,2,203,PS,exp,37,→,right,→,0.6367366999620572,True,8,1,0,11
Y2-S2-175K21,2,204,PS,exp,34,↓,down,↓,0.563655500067398,True,7,1,0,11
Y2-S2-175K21,2,205,PS,exp,28,→,right,→,0.5671449999790639,True,7,1,0,11
Y2-S2-175K21,2,206,PS,exp,26,↑,right,→,0.6040917999343947,False,7,-1,1,12
Y2-S2-175K21,2,207,PS,exp,31,↓,down,↓,0.6549632999813184,True,8,-1,0,12
Y2-S2-175K21,2,208,PS,exp,47,↑,down,↓,0.7434694999828935,False,8,-1,0,12
Y2-S2-175K21,2,209,PS,exp,34,←,left,←,0.6489820999559015,True,9,-1,0,12
Y2-S2-175K21,2,210,PS,exp,50,↓,down,↓,0.6230540000833571,True,9,-1,0,12
Y2-S2-175K21,2,211,PS,exp,48,→,right,→,0.8838972999947146,True,9,1,1,13
Y2-S2-175K21,2,212,PS,exp,46,↑,up,↑,0.5967648000223562,True,8,1,0,13
Y2-S2-175K21,2,213,PS,exp,46,↓,down,↓,0.6596877999836579,True,8,1,0,13
Y2-S2-175K21,2,214,PS,exp,28,→,right,→,0.8507949000922963,True,8,1,0,13
Y2-S2-175K21,2,215,PS,exp,29,←,right,→,0.972123600076884,False,7,-1,1,14
Y2-S2-175K21,2,216,PS,exp,43,↓,down,↓,0.7477465000702068,True,8,-1,0,14
Y2-S2-175K21,2,217,PS,exp,32,↑,up,↑,0.7909445000113919,True,8,-1,0,14
Y2-S2-175K21,2,218,PS,exp,49,↓,down,↓,0.7772345000412315,True,8,1,1,15
Y2-S2-175K21,2,219,PS,exp,26,→,right,→,0.5353657999075949,True,7,1,0,15
Y2-S2-175K21,2,220,PS,exp,44,←,left,←,0.583366799983196,True,7,1,0,15
Y2-S2-175K21,2,221,PS,exp,48,↑,right,→,0.5670000000391155,False,7,-1,1,16
Y2-S2-175K21,3,222,PS,intra_train,36,→,right,→,0.4612998999655247,True,12,-,-,-
Y2-S2-175K21,3,223,PS,intra_train,47,←,left,←,0.6292989000212401,True,12,-,-,-
Y2-S2-175K21,3,224,PS,intra_train,40,→,right,→,0.5639944999711588,True,12,-,-,-
Y2-S2-175K21,3,225,PS,intra_train,45,↓,down,↓,0.6602515000849962,True,12,-,-,-
Y2-S2-175K21,3,226,PS,intra_train,26,→,right,→,0.3834662999724969,True,12,-,-,-
Y2-S2-175K21,3,227,PS,exp,46,←,left,←,0.6190422000363469,True,8,0,0,0
Y2-S2-175K21,3,228,PS,exp,39,↑,up,↑,0.7086709999712184,True,8,0,0,0
Y2-S2-175K21,3,229,PS,exp,36,→,up,↑,0.966072199982591,False,8,-1,0,0
Y2-S2-175K21,3,230,PS,exp,30,←,left,←,0.5486806000117213,True,9,-1,0,0
Y2-S2-175K21,3,231,PS,exp,27,↑,up,↑,0.5090001000789925,True,9,-1,0,0
Y2-S2-175K21,3,232,PS,exp,36,→,right,→,0.4608564000809565,True,9,1,1,1
Y2-S2-175K21,3,233,PS,exp,45,↓,down,↓,0.6951654000440612,True,8,1,0,1
Y2-S2-175K21,3,234,PS,exp,37,↑,up,↑,0.511651299893856,True,8,1,0,1
Y2-S2-175K21,3,235,PS,exp,50,↓,down,↓,0.7015671000117436,True,8,1,0,1
Y2-S2-175K21,3,236,PS,exp,48,←,left,←,0.5938628000440076,True,7,1,0,1
Y2-S2-175K21,3,237,PS,exp,28,↓,up,↑,0.878634300082922,False,7,-1,1,2
Y2-S2-175K21,3,238,PS,exp,26,↑,up,↑,1.0371615999611095,True,8,-1,0,2
Y2-S2-175K21,3,239,PS,exp,43,→,right,→,0.5779315999243408,True,8,-1,0,2
Y2-S2-175K21,3,240,PS,exp,38,←,left,←,0.6154364999383688,True,8,1,1,3
Y2-S2-175K21,3,241,PS,exp,50,→,right,→,0.582702900050208,True,7,1,0,3
Y2-S2-175K21,3,242,PS,exp,43,←,left,←,0.6626405999995768,True,7,1,0,3
Y2-S2-175K21,3,243,PS,exp,38,↑,up,↑,0.5738918000133708,True,7,1,0,3
Y2-S2-175K21,3,244,PS,exp,48,←,left,←,0.392206700053066,True,6,1,0,3
Y2-S2-175K21,3,245,PS,exp,45,→,left,←,0.5367030999623239,False,6,-1,1,4
Y2-S2-175K21,3,246,PS,exp,28,↑,left,←,0.6223541999934241,False,7,-1,0,4
Y2-S2-175K21,3,247,PS,exp,45,↓,right,→,0.6984647000208497,False,8,-1,0,4
Y2-S2-175K21,3,248,PS,exp,31,↑,right,→,0.7577653999906033,False,9,-1,0,4
Y2-S2-175K21,3,249,PS,exp,28,↓,down,↓,1.0730136999627575,True,10,-1,0,4
Y2-S2-175K21,3,250,PS,exp,44,↑,up,↑,0.4902521000476554,True,10,-1,0,4
Y2-S2-175K21,3,251,PS,exp,44,↓,down,↓,1.0170266999630257,True,10,1,1,5
Y2-S2-175K21,3,252,PS,exp,26,→,right,→,0.6741776000708342,True,9,1,0,5
Y2-S2-175K21,3,253,PS,exp,29,↓,down,↓,1.4384720000671223,True,9,1,0,5
Y2-S2-175K21,3,254,PS,exp,34,→,right,→,0.5233127999817953,True,9,1,0,5
Y2-S2-175K21,3,255,PS,exp,32,↓,down,↓,0.7446552999317646,True,8,1,0,5
Y2-S2-175K21,3,256,PS,exp,34,←,left,←,0.6005740000400692,True,8,1,0,5
Y2-S2-175K21,3,257,PS,exp,43,↓,left,←,0.6921562999486923,False,8,-1,1,6
Y2-S2-175K21,3,258,PS,exp,28,←,right,→,0.698199599981308,False,9,-1,0,6
Y2-S2-175K21,3,259,PS,exp,35,↓,right,→,0.7311910999706015,False,10,-1,0,6
Y2-S2-175K21,3,260,PS,exp,41,→,right,→,0.6279532000189647,True,11,-1,0,6
Y2-S2-175K21,3,261,PS,exp,36,↑,up,↑,0.6532484000781551,True,11,-1,0,6
Y2-S2-175K21,3,262,PS,exp,49,↓,down,↓,1.556527099921368,True,11,1,1,7
Y2-S2-175K21,3,263,PS,exp,48,→,right,→,0.5220559000736102,True,10,1,0,7
Y2-S2-175K21,3,264,PS,exp,33,←,left,←,0.6426201000576839,True,10,1,0,7
Y2-S2-175K21,3,265,PS,exp,39,→,right,→,0.666112000006251,True,10,1,0,7
Y2-S2-175K21,3,266,PS,exp,49,↑,up,↑,0.7800120000028983,True,9,1,0,7
Y2-S2-175K21,3,267,PS,exp,38,→,right,→,0.5062795999692753,True,9,1,0,7
Y2-S2-175K21,3,268,PS,exp,33,↓,down,↓,0.6539482999360189,True,9,1,0,7
Y2-S2-175K21,3,269,PS,exp,26,←,right,→,0.6188758000498638,False,8,-1,1,8
Y2-S2-175K21,3,270,PS,exp,37,↓,down,↓,0.6596099999733269,True,9,-1,0,8
Y2-S2-175K21,3,271,PS,exp,39,→,right,→,0.444024300086312,True,9,-1,0,8
Y2-S2-175K21,3,272,PS,exp,33,↑,up,↑,0.5918017999501899,True,9,1,1,9
Y2-S2-175K21,3,273,PS,exp,40,↓,down,↓,0.6419530999846756,True,8,1,0,9
Y2-S2-175K21,3,274,PS,exp,25,↑,down,↓,1.220379599952139,False,8,-1,1,10
Y2-S2-175K21,3,275,PS,exp,35,↓,down,↓,1.7082688000518829,True,9,-1,0,10
Y2-S2-175K21,3,276,PS,exp,33,←,left,←,0.7373669999651611,True,9,-1,0,10
Y2-S2-175K21,3,277,PS,exp,43,↓,down,↓,0.6041114999679849,True,9,1,1,11
Y2-S2-175K21,3,278,PS,exp,36,→,down,↓,1.094950099941343,False,8,-1,1,12
Y2-S2-175K21,3,279,PS,exp,41,↑,up,↑,0.6980475999880582,True,9,-1,0,12
Y2-S2-175K21,3,280,PS,exp,32,↓,down,↓,0.5856495999032632,True,9,-1,0,12
Y2-S2-175K21,3,281,PS,exp,45,→,down,↓,1.206864499952644,False,9,-1,0,12
Y2-S2-175K21,3,282,PS,exp,25,↑,up,↑,0.4760000000242144,True,10,-1,0,12
Y2-S2-175K21,3,283,PS,exp,28,↓,down,↓,0.878931500017643,True,10,-1,0,12
Y2-S2-175K21,3,284,PS,exp,46,→,right,→,0.5125831000041217,True,10,1,1,13
Y2-S2-175K21,3,285,PS,exp,47,↓,down,↓,0.7585373000474647,True,9,1,0,13
Y2-S2-175K21,3,286,PS,exp,32,↑,down,↓,0.9334869000595063,False,9,-1,1,14
Y2-S2-175K21,3,287,PS,exp,26,→,right,→,0.517537200008519,True,10,-1,0,14
Y2-S2-175K21,3,288,PS,exp,34,↑,up,↑,0.5939796000020579,True,10,-1,0,14
Y2-S2-175K21,3,289,PS,exp,28,→,right,→,0.4766497000819072,True,10,1,1,15
Y2-S2-175K21,3,290,PS,exp,25,↓,down,↓,0.5536429999629036,True,9,1,0,15
Y2-S2-175K21,3,291,PS,exp,47,→,right,→,0.42776580003555864,True,9,1,0,15
Y2-S2-175K21,3,292,PS,exp,29,←,left,←,0.5488217000383884,True,9,1,0,15
Y2-S2-175K21,3,293,PS,exp,36,↑,up,↑,0.496396099915728,True,8,1,0,15
Y2-S2-175K21,3,294,PS,exp,47,←,left,←,0.5859806999797001,True,8,1,0,15
Y2-S2-175K21,3,295,PS,exp,36,↑,up,↑,0.5094752999721095,True,8,1,0,15
Y2-S2-175K21,3,296,PS,exp,31,→,right,→,0.49040999996941537,True,7,1,0,15
Y2-S2-175K21,3,297,PS,exp,38,↓,down,↓,0.9561259000329301,True,7,1,0,15
Y2-S2-175K21,3,298,PS,exp,45,→,right,→,0.633011500001885,True,7,1,0,15
Y2-S2-175K21,3,299,PS,exp,35,↓,left,←,0.6646345999324694,False,6,-1,1,16
Y2-S2-175K21,4,300,AS,intra_train,29,→,right,→,0.6004850000608712,True,28,-,-,-
Y2-S2-175K21,4,301,AS,intra_train,29,↑,up,↑,0.5506267000455409,True,28,-,-,-
Y2-S2-175K21,4,302,AS,intra_train,28,←,left,←,0.7714933999814093,True,28,-,-,-
Y2-S2-175K21,4,303,AS,intra_train,25,↑,up,↑,0.5839018999831751,True,28,-,-,-
Y2-S2-175K21,4,304,AS,intra_train,28,↓,down,↓,0.7812543999170884,True,28,-,-,-
Y2-S2-175K21,4,305,AS,exp,46,↑,up,↑,0.5884870999725536,True,19,0,0,0
Y2-S2-175K21,4,306,AS,exp,31,←,left,←,0.7644407999468967,True,19,0,0,0
Y2-S2-175K21,4,307,AS,exp,38,↓,down,↓,0.8479405000107363,True,19,1,0,0
Y2-S2-175K21,4,308,AS,exp,38,→,right,→,0.6370235000504181,True,18,1,0,0
Y2-S2-175K21,4,309,AS,exp,41,↓,down,↓,0.5698667999822646,True,18,1,0,0
Y2-S2-175K21,4,310,AS,exp,40,←,left,←,0.7445639999350533,True,18,1,0,0
Y2-S2-175K21,4,311,AS,exp,38,↑,down,↓,0.862982299993746,False,17,-1,1,1
Y2-S2-175K21,4,312,AS,exp,32,↓,down,↓,0.8269878999562934,True,18,-1,0,1
Y2-S2-175K21,4,313,AS,exp,41,→,left,←,1.9232386000221595,False,18,-1,0,1
Y2-S2-175K21,4,314,AS,exp,50,↑,up,↑,0.797318400000222,True,19,-1,0,1
Y2-S2-175K21,4,315,AS,exp,41,←,left,←,0.7628385999705642,True,19,-1,0,1
Y2-S2-175K21,4,316,AS,exp,38,↑,up,↑,0.7529075000202283,True,19,1,1,2
Y2-S2-175K21,4,317,AS,exp,47,←,left,←,0.5402543999953195,True,18,1,0,2
Y2-S2-175K21,4,318,AS,exp,36,↓,down,↓,0.48642080009449273,True,18,1,0,2
Y2-S2-175K21,4,319,AS,exp,49,←,up,↑,1.009155600098893,False,18,-1,1,3
Y2-S2-175K21,4,320,AS,exp,40,→,left,←,1.1079016999574378,False,19,-1,0,3
Y2-S2-175K21,4,321,AS,exp,35,↓,down,↓,0.6099115000106394,True,20,-1,0,3
Y2-S2-175K21,4,322,AS,exp,37,←,left,←,1.608238499960862,True,20,-1,0,3
Y2-S2-175K21,4,323,AS,exp,33,↑,up,↑,0.6909101000055671,True,20,1,1,4
Y2-S2-175K21,4,324,AS,exp,33,→,right,→,0.9984649000689387,True,19,1,0,4
Y2-S2-175K21,4,325,AS,exp,47,↑,up,↑,0.7498882999643683,True,19,1,0,4
Y2-S2-175K21,4,326,AS,exp,50,↓,down,↓,0.6028341999044642,True,19,1,0,4
Y2-S2-175K21,4,327,AS,exp,42,←,left,←,0.7030411999439821,True,18,1,0,4
Y2-S2-175K21,4,328,AS,exp,27,↑,up,↑,0.7251357999630272,True,18,1,0,4
Y2-S2-175K21,4,329,AS,exp,46,→,right,→,0.6808182999957353,True,18,1,0,4
Y2-S2-175K21,4,330,AS,exp,31,↑,up,↑,0.6774249000009149,True,17,1,0,4
Y2-S2-175K21,4,331,AS,exp,37,→,right,→,0.6392817000159994,True,17,1,0,4
Y2-S2-175K21,4,332,AS,exp,41,↑,up,↑,0.687988999998197,True,17,1,0,4
Y2-S2-175K21,4,333,AS,exp,49,→,right,→,0.4982375999679789,True,16,1,0,4
Y2-S2-175K21,4,334,AS,exp,39,←,left,←,0.6575957000022754,True,16,1,0,4
Y2-S2-175K21,4,335,AS,exp,47,↑,up,↑,0.7316618000622839,True,16,1,0,4
Y2-S2-175K21,4,336,AS,exp,31,→,right,→,0.7112206999445334,True,15,1,0,4
Y2-S2-175K21,4,337,AS,exp,33,↓,up,↑,0.8546507999999449,False,15,-1,1,5
Y2-S2-175K21,4,338,AS,exp,25,←,left,←,0.714864999987185,True,16,-1,0,5
Y2-S2-175K21,4,339,AS,exp,45,↓,up,↑,0.8087317999452353,False,16,-1,0,5
Y2-S2-175K21,4,340,AS,exp,37,←,left,←,0.6756706000305712,True,17,-1,0,5
Y2-S2-175K21,4,341,AS,exp,48,↑,up,↑,0.6313822999363765,True,17,-1,0,5
Y2-S2-175K21,4,342,AS,exp,29,→,right,→,0.6139961000299081,True,17,1,1,6
Y2-S2-175K21,4,343,AS,exp,34,←,no_key,no_letter,-1.0,False,16,-1,1,7
Y2-S2-175K21,4,344,AS,exp,25,→,right,→,0.502569800009951,True,17,-1,0,7
Y2-S2-175K21,4,345,AS,exp,47,↑,no_key,no_letter,-1.0,False,17,-1,0,7
Y2-S2-175K21,4,346,AS,exp,36,←,no_key,no_letter,-1.0,False,18,-1,0,7
Y2-S2-175K21,4,347,AS,exp,44,→,right,→,0.6655256999656558,True,19,-1,0,7
Y2-S2-175K21,4,348,AS,exp,40,↓,left,←,1.3436665000626817,False,19,-1,0,7
Y2-S2-175K21,4,349,AS,exp,41,→,right,→,0.5429829999338835,True,20,-1,0,7
Y2-S2-175K21,4,350,AS,exp,35,↓,right,→,1.0405640999088064,False,20,-1,0,7
Y2-S2-175K21,4,351,AS,exp,37,←,no_key,no_letter,-1.0,False,21,-1,0,7
Y2-S2-175K21,4,352,AS,exp,36,→,right,→,0.4504726000595838,True,22,-1,0,7
Y2-S2-175K21,4,353,AS,exp,43,↓,down,↓,0.8664003999438137,True,22,-1,0,7
Y2-S2-175K21,4,354,AS,exp,46,←,left,←,0.6698180999374017,True,22,1,1,8
Y2-S2-175K21,4,355,AS,exp,27,↑,up,↑,0.43385619996115565,True,21,1,0,8
Y2-S2-175K21,4,356,AS,exp,32,↓,down,↓,0.6478842000942677,True,21,1,0,8
Y2-S2-175K21,4,357,AS,exp,34,←,left,←,0.5936542999697849,True,21,1,0,8
Y2-S2-175K21,4,358,AS,exp,39,→,right,→,0.6027669999748468,True,20,1,0,8
Y2-S2-175K21,4,359,AS,exp,46,↑,up,↑,0.6424742999952286,True,20,1,0,8
Y2-S2-175K21,4,360,AS,exp,41,←,left,←,0.5792557999957353,True,20,1,0,8
Y2-S2-175K21,4,361,AS,exp,34,→,right,→,0.5766963999485597,True,19,1,0,8
Y2-S2-175K21,4,362,AS,exp,39,↓,right,→,1.3804822999518365,False,19,-1,1,9
Y2-S2-175K21,4,363,AS,exp,36,→,left,←,0.7768035000190139,False,20,-1,0,9
Y2-S2-175K21,4,364,AS,exp,47,←,left,←,0.9008372999960557,True,21,-1,0,9
Y2-S2-175K21,4,365,AS,exp,39,↓,down,↓,0.6088688999880105,True,21,-1,0,9
Y2-S2-175K21,4,366,AS,exp,31,←,left,←,0.7032340000150725,True,21,1,1,10
Y2-S2-175K21,4,367,AS,exp,32,↓,no_key,no_letter,-1.0,False,20,-1,1,11
Y2-S2-175K21,4,368,AS,exp,38,→,right,→,0.45065120002254844,True,21,-1,0,11
Y2-S2-175K21,4,369,AS,exp,41,↓,down,↓,0.7834960999898612,True,21,-1,0,11
Y2-S2-175K21,4,370,AS,exp,26,←,no_key,no_letter,-1.0,False,21,-1,0,11
Y2-S2-175K21,4,371,AS,exp,38,↓,down,↓,0.8803065000101924,True,22,-1,0,11
Y2-S2-175K21,4,372,AS,exp,27,↑,up,↑,0.6841031000949442,True,22,-1,0,11
Y2-S2-175K21,4,373,AS,exp,47,↓,down,↓,0.6542505999095738,True,22,1,1,12
Y2-S2-175K21,4,374,AS,exp,47,←,no_key,no_letter,-1.0,False,21,-1,1,13
Y2-S2-175K21,4,375,AS,exp,41,↑,up,↑,0.615000499994494,True,22,-1,0,13
Y2-S2-175K21,4,376,AS,exp,34,↓,down,↓,1.5650936000747606,True,22,-1,0,13
Y2-S2-175K21,4,377,AS,exp,32,→,right,→,1.174297400051728,True,22,1,1,14
Y2-S2-175K21,4,378,AS,exp,44,↑,up,↑,1.0268821999197826,True,21,1,0,14
Y2-S2-175K21,4,379,AS,exp,40,→,right,→,0.555917999939993,True,21,1,0,14
Y2-S2-175K21,4,380,AS,exp,26,←,left,←,1.0935546000255272,True,21,1,0,14
Y2-S2-175K21,4,381,AS,exp,37,→,right,→,0.9612716999836266,True,20,1,0,14
Y2-S2-175K21,4,382,AS,exp,46,↓,down,↓,0.7779876999557018,True,20,1,0,14
Y2-S2-175K21,4,383,AS,exp,26,←,left,←,0.8537399999331683,True,20,1,0,14
Y2-S2-175K21,4,384,AS,exp,27,↓,down,↓,0.6652028999524191,True,19,1,0,14
Y2-S2-175K21,4,385,AS,exp,41,←,right,→,0.773603199981153,False,19,-1,1,15
Y2-S2-175K21,4,386,AS,exp,31,→,right,→,1.28670730011072,True,20,-1,0,15
Y2-S2-175K21,4,387,AS,exp,27,↓,down,↓,0.5739180999808013,True,20,-1,0,15
Y2-S2-175K21,4,388,AS,exp,46,→,right,→,0.6128270999761298,True,20,1,1,16
Y2-S2-175K21,5,389,AS,intra_train,44,←,left,←,0.517331299954094,True,28,-,-,-
Y2-S2-175K21,5,390,AS,intra_train,34,↑,up,↑,0.8599640999455005,True,28,-,-,-
Y2-S2-175K21,5,391,AS,intra_train,43,↓,down,↓,0.7053560999920592,True,28,-,-,-
Y2-S2-175K21,5,392,AS,intra_train,45,←,left,←,0.5506294000661001,True,28,-,-,-
Y2-S2-175K21,5,393,AS,intra_train,44,→,right,→,0.6643336000852287,True,28,-,-,-
Y2-S2-175K21,5,394,AS,exp,32,←,left,←,0.743395600002259,True,19,0,0,0
Y2-S2-175K21,5,395,AS,exp,35,→,right,→,0.6657992999535054,True,19,0,0,0
Y2-S2-175K21,5,396,AS,exp,47,↑,up,↑,0.7615902000106871,True,19,1,0,0
Y2-S2-175K21,5,397,AS,exp,37,←,left,←,1.024686299962923,True,18,1,0,0
Y2-S2-175K21,5,398,AS,exp,35,↓,down,↓,0.8601241998840123,True,18,1,0,0
Y2-S2-175K21,5,399,AS,exp,50,←,left,←,0.6986685999436304,True,18,1,0,0
Y2-S2-175K21,5,400,AS,exp,34,→,right,→,0.586115000071004,True,17,1,0,0
Y2-S2-175K21,5,401,AS,exp,44,↓,right,→,1.2718062999192625,False,17,-1,1,1
Y2-S2-175K21,5,402,AS,exp,25,←,left,←,0.5855607000412419,True,18,-1,0,1
Y2-S2-175K21,5,403,AS,exp,40,↑,up,↑,0.4871661000652239,True,18,-1,0,1
Y2-S2-175K21,5,404,AS,exp,43,↓,down,↓,0.9227384999394417,True,18,1,1,2
Y2-S2-175K21,5,405,AS,exp,50,↑,up,↑,0.6871700000483543,True,17,1,0,2
Y2-S2-175K21,5,406,AS,exp,41,→,no_key,no_letter,-1.0,False,17,-1,1,3
Y2-S2-175K21,5,407,AS,exp,31,←,no_key,no_letter,-1.0,False,18,-1,0,3
Y2-S2-175K21,5,408,AS,exp,28,↓,up,↑,0.912971599958837,False,19,-1,0,3
Y2-S2-175K21,5,409,AS,exp,38,→,right,→,0.6657366999424994,True,20,-1,0,3
Y2-S2-175K21,5,410,AS,exp,32,←,left,←,0.5477114000823349,True,20,-1,0,3
Y2-S2-175K21,5,411,AS,exp,49,↑,right,→,0.9503670000704005,False,20,-1,0,3
Y2-S2-175K21,5,412,AS,exp,33,↓,down,↓,0.8654605000047013,True,21,-1,0,3
Y2-S2-175K21,5,413,AS,exp,32,↑,up,↑,0.5379465000005439,True,21,-1,0,3
Y2-S2-175K21,5,414,AS,exp,26,←,left,←,0.7605492000002414,True,21,1,1,4
Y2-S2-175K21,5,415,AS,exp,44,↓,down,↓,0.8575341999530792,True,20,1,0,4
Y2-S2-175K21,5,416,AS,exp,42,→,right,→,0.6280680000782013,True,20,1,0,4
Y2-S2-175K21,5,417,AS,exp,40,←,left,←,0.594509799964726,True,20,1,0,4
Y2-S2-175K21,5,418,AS,exp,44,↓,down,↓,0.6035543999169022,True,19,1,0,4
Y2-S2-175K21,5,419,AS,exp,29,→,right,→,0.49465989996679127,True,19,1,0,4
Y2-S2-175K21,5,420,AS,exp,28,←,left,←,0.7324834000319242,True,19,1,0,4
Y2-S2-175K21,5,421,AS,exp,49,↑,up,↑,0.5563381999963894,True,18,1,0,4
Y2-S2-175K21,5,422,AS,exp,46,→,right,→,0.6161827000323683,True,18,1,0,4
Y2-S2-175K21,5,423,AS,exp,45,←,up,↑,0.8901796999853104,False,18,-1,1,5
Y2-S2-175K21,5,424,AS,exp,37,↓,down,↓,0.8625115000177175,True,19,-1,0,5
Y2-S2-175K21,5,425,AS,exp,48,←,left,←,0.6970666000852361,True,19,-1,0,5
Y2-S2-175K21,5,426,AS,exp,41,↓,down,↓,0.7041036000009626,True,19,1,1,6
Y2-S2-175K21,5,427,AS,exp,28,↑,down,↓,1.2020276999101043,False,18,-1,1,7
Y2-S2-175K21,5,428,AS,exp,49,→,left,←,1.14898129994981,False,19,-1,0,7
Y2-S2-175K21,5,429,AS,exp,47,←,left,←,0.6837288000388071,True,20,-1,0,7
Y2-S2-175K21,5,430,AS,exp,37,↑,up,↑,0.6164435000391677,True,20,-1,0,7
Y2-S2-175K21,5,431,AS,exp,38,→,no_key,no_letter,-1.0,False,20,-1,0,7
Y2-S2-175K21,5,432,AS,exp,34,↓,down,↓,0.6698372000828385,True,21,-1,0,7
Y2-S2-175K21,5,433,AS,exp,25,→,right,→,0.5176938000367954,True,21,-1,0,7
Y2-S2-175K21,5,434,AS,exp,28,↑,up,↑,0.6571384998969734,True,21,1,1,8
Y2-S2-175K21,5,435,AS,exp,38,→,right,→,0.6132304000202566,True,20,1,0,8
Y2-S2-175K21,5,436,AS,exp,42,↓,down,↓,0.7329077000031248,True,20,1,0,8
Y2-S2-175K21,5,437,AS,exp,29,↑,up,↑,0.3839681000681594,True,20,1,0,8
Y2-S2-175K21,5,438,AS,exp,45,↓,down,↓,0.6080128999892622,True,19,1,0,8
Y2-S2-175K21,5,439,AS,exp,50,→,left,←,0.9973973999731243,False,19,-1,1,9
Y2-S2-175K21,5,440,AS,exp,34,↑,up,↑,0.5874651999911293,True,20,-1,0,9
Y2-S2-175K21,5,441,AS,exp,39,↓,down,↓,1.407532799988985,True,20,-1,0,9
Y2-S2-175K21,5,442,AS,exp,49,→,right,→,0.5937806000001729,True,20,1,1,10
Y2-S2-175K21,5,443,AS,exp,40,↑,up,↑,0.6409917999990284,True,19,1,0,10
Y2-S2-175K21,5,444,AS,exp,39,↓,down,↓,1.3291236000368372,True,19,1,0,10
Y2-S2-175K21,5,445,AS,exp,30,←,right,→,0.723136999993585,False,19,-1,1,11
Y2-S2-175K21,5,446,AS,exp,32,→,right,→,0.6715045000892133,True,20,-1,0,11
Y2-S2-175K21,5,447,AS,exp,42,↓,down,↓,1.2928005999419838,True,20,-1,0,11
Y2-S2-175K21,5,448,AS,exp,28,→,right,→,1.0471542999148369,True,20,1,1,12
Y2-S2-175K21,5,449,AS,exp,49,←,left,←,0.8133199000731111,True,19,1,0,12
Y2-S2-175K21,5,450,AS,exp,26,→,right,→,1.0028633000329137,True,19,1,0,12
Y2-S2-175K21,5,451,AS,exp,25,↑,up,↑,0.5556354000000283,True,19,1,0,12
Y2-S2-175K21,5,452,AS,exp,38,→,right,→,0.6791430999292061,True,18,1,0,12
Y2-S2-175K21,5,453,AS,exp,45,←,left,←,0.6634024999802932,True,18,1,0,12
Y2-S2-175K21,5,454,AS,exp,45,↓,up,↑,0.7298141999635845,False,18,-1,1,13
Y2-S2-175K21,5,455,AS,exp,28,←,no_key,no_letter,-1.0,False,19,-1,0,13
Y2-S2-175K21,5,456,AS,exp,46,↓,down,↓,0.628326499951072,True,20,-1,0,13
Y2-S2-175K21,5,457,AS,exp,39,↑,up,↑,0.7004631999880075,True,20,-1,0,13
Y2-S2-175K21,5,458,AS,exp,46,←,left,←,0.6780132000567392,True,20,1,1,14
Y2-S2-175K21,5,459,AS,exp,38,↑,up,↑,0.5297910000663251,True,19,1,0,14
Y2-S2-175K21,5,460,AS,exp,29,←,left,←,0.4503681999631226,True,19,1,0,14
Y2-S2-175K21,5,461,AS,exp,42,→,left,←,0.6086261000018567,False,19,-1,1,15
Y2-S2-175K21,5,462,AS,exp,50,←,left,←,0.5988541999831796,True,20,-1,0,15
Y2-S2-175K21,5,463,AS,exp,47,→,up,↑,0.8611111999489367,False,20,-1,0,15
Y2-S2-175K21,5,464,AS,exp,35,↓,down,↓,0.6774921000469476,True,21,-1,0,15
Y2-S2-175K21,5,465,AS,exp,41,←,left,←,0.5978394000558183,True,21,-1,0,15
Y2-S2-175K21,5,466,AS,exp,31,↓,down,↓,0.77938229998108,True,21,1,1,16
Y2-S2-175K21,6,467,PS,intra_train,26,→,right,→,0.46698929998092353,True,12,-,-,-
Y2-S2-175K21,6,468,PS,intra_train,36,←,left,←,0.40229439991526306,True,12,-,-,-
Y2-S2-175K21,6,469,PS,intra_train,34,↑,up,↑,0.6655501000350341,True,12,-,-,-
Y2-S2-175K21,6,470,PS,intra_train,48,→,right,→,0.4661740999436006,True,12,-,-,-
Y2-S2-175K21,6,471,PS,intra_train,26,↑,up,↑,0.564094000030309,True,12,-,-,-
Y2-S2-175K21,6,472,PS,exp,48,→,right,→,0.7634049000917003,True,8,0,0,0
Y2-S2-175K21,6,473,PS,exp,44,↑,up,↑,0.46227800007909536,True,8,0,0,0
Y2-S2-175K21,6,474,PS,exp,34,→,right,→,0.4754727000836283,True,8,1,0,0
Y2-S2-175K21,6,475,PS,exp,35,↑,right,→,0.6146879000589252,False,7,-1,1,1
Y2-S2-175K21,6,476,PS,exp,41,→,right,→,0.6328338000457734,True,8,-1,0,1
Y2-S2-175K21,6,477,PS,exp,42,↑,up,↑,0.5460811000084504,True,8,-1,0,1
Y2-S2-175K21,6,478,PS,exp,34,→,up,↑,0.6891863999189809,False,8,-1,0,1
Y2-S2-175K21,6,479,PS,exp,27,↓,down,↓,0.6428671999601647,True,9,-1,0,1
Y2-S2-175K21,6,480,PS,exp,44,←,left,←,0.5081624999875203,True,9,-1,0,1
Y2-S2-175K21,6,481,PS,exp,35,↑,up,↑,0.5110988999949768,True,9,1,1,2
Y2-S2-175K21,6,482,PS,exp,40,↓,up,↑,0.7329209999879822,False,8,-1,1,3
Y2-S2-175K21,6,483,PS,exp,38,←,left,←,0.715835600043647,True,9,-1,0,3
Y2-S2-175K21,6,484,PS,exp,25,→,right,→,0.7162180999293923,True,9,-1,0,3
Y2-S2-175K21,6,485,PS,exp,32,←,left,←,0.6948394000064582,True,9,1,1,4
Y2-S2-175K21,6,486,PS,exp,50,→,right,→,0.46532650000881404,True,8,1,0,4
Y2-S2-175K21,6,487,PS,exp,33,↓,right,→,0.8748436999740079,False,8,-1,1,5
Y2-S2-175K21,6,488,PS,exp,38,↑,up,↑,0.6738328000064939,True,9,-1,0,5
Y2-S2-175K21,6,489,PS,exp,39,↓,right,→,0.7720624000066891,False,9,-1,0,5
Y2-S2-175K21,6,490,PS,exp,32,←,right,→,0.6314986000070348,False,10,-1,0,5
Y2-S2-175K21,6,491,PS,exp,40,↑,right,→,0.6165496000321582,False,11,-1,0,5
Y2-S2-175K21,6,492,PS,exp,46,↓,down,↓,0.733436300070025,True,12,-1,0,5
Y2-S2-175K21,6,493,PS,exp,42,↑,up,↑,0.6492107000667602,True,12,-1,0,5
Y2-S2-175K21,6,494,PS,exp,46,↓,down,↓,0.5934207000536844,True,12,1,1,6
Y2-S2-175K21,6,495,PS,exp,34,↑,down,↓,0.6407266000751406,False,11,-1,1,7
Y2-S2-175K21,6,496,PS,exp,46,←,left,←,0.629379199934192,True,12,-1,0,7
Y2-S2-175K21,6,497,PS,exp,35,↑,up,↑,0.5362650000024587,True,12,-1,0,7
Y2-S2-175K21,6,498,PS,exp,49,←,left,←,0.7040448999032378,True,12,1,1,8
Y2-S2-175K21,6,499,PS,exp,47,↓,down,↓,0.676619500038214,True,11,1,0,8
Y2-S2-175K21,6,500,PS,exp,49,↑,up,↑,0.7742968000238761,True,11,1,0,8
Y2-S2-175K21,6,501,PS,exp,42,→,right,→,0.5266484000021592,True,11,1,0,8
Y2-S2-175K21,6,502,PS,exp,48,↓,down,↓,0.548646799987182,True,10,1,0,8
Y2-S2-175K21,6,503,PS,exp,30,→,right,→,0.43862709996756166,True,10,1,0,8
Y2-S2-175K21,6,504,PS,exp,37,←,left,←,0.5391846999991685,True,10,1,0,8
Y2-S2-175K21,6,505,PS,exp,48,↓,down,↓,0.6308798999525607,True,9,1,0,8
Y2-S2-175K21,6,506,PS,exp,25,←,left,←,0.5291616000467911,True,9,1,0,8
Y2-S2-175K21,6,507,PS,exp,36,↓,down,↓,0.5634654000168666,True,9,1,0,8
Y2-S2-175K21,6,508,PS,exp,45,←,left,←,0.4909031999995932,True,8,1,0,8
Y2-S2-175K21,6,509,PS,exp,49,→,right,→,0.5844296000432223,True,8,1,0,8
Y2-S2-175K21,6,510,PS,exp,47,↓,right,→,0.9214324000058696,False,8,-1,1,9
Y2-S2-175K21,6,511,PS,exp,44,→,right,→,0.34572160011157393,True,9,-1,0,9
Y2-S2-175K21,6,512,PS,exp,27,↑,up,↑,0.7000486999750137,True,9,-1,0,9
Y2-S2-175K21,6,513,PS,exp,48,↓,down,↓,0.5765102999284863,True,9,1,1,10
Y2-S2-175K21,6,514,PS,exp,46,→,left,←,0.7442975000012666,False,8,-1,1,11
Y2-S2-175K21,6,515,PS,exp,29,↑,up,↑,0.5426857999991626,True,9,-1,0,11
Y2-S2-175K21,6,516,PS,exp,31,→,right,→,0.4097829000093043,True,9,-1,0,11
Y2-S2-175K21,6,517,PS,exp,49,↑,up,↑,0.7847931999713182,True,9,1,1,12
Y2-S2-175K21,6,518,PS,exp,38,↓,down,↓,0.8074363000923768,True,8,1,0,12
Y2-S2-175K21,6,519,PS,exp,48,←,right,→,0.7177123000146821,False,8,-1,1,13
Y2-S2-175K21,6,520,PS,exp,38,→,right,→,0.4051012999843806,True,9,-1,0,13
Y2-S2-175K21,6,521,PS,exp,38,↓,right,→,0.8915044000605121,False,9,-1,0,13
Y2-S2-175K21,6,522,PS,exp,43,↑,up,↑,0.5971680999500677,True,10,-1,0,13
Y2-S2-175K21,6,523,PS,exp,30,↓,up,↑,0.9316034000366926,False,10,-1,0,13
Y2-S2-175K21,6,524,PS,exp,25,↑,up,↑,0.49280939996242523,True,11,-1,0,13
Y2-S2-175K21,6,525,PS,exp,40,→,down,↓,0.8618643999798223,False,11,-1,0,13
Y2-S2-175K21,6,526,PS,exp,48,↓,up,↑,0.8436040000524372,False,12,-1,0,13
Y2-S2-175K21,6,527,PS,exp,33,←,left,←,1.4523496000329033,True,13,-1,0,13
Y2-S2-175K21,6,528,PS,exp,42,→,left,←,1.0031039000023156,False,13,-1,0,13
Y2-S2-175K21,6,529,PS,exp,36,←,left,←,0.5032954000635073,True,14,-1,0,13
Y2-S2-175K21,6,530,PS,exp,37,→,right,→,0.7714598999591544,True,14,-1,0,13
Y2-S2-175K21,6,531,PS,exp,34,↑,up,↑,0.6675197000149637,True,14,1,1,14
Y2-S2-175K21,6,532,PS,exp,28,→,right,→,0.5047226999886334,True,13,1,0,14
Y2-S2-175K21,6,533,PS,exp,47,↓,down,↓,1.03464129997883,True,13,1,0,14
Y2-S2-175K21,6,534,PS,exp,39,→,right,→,0.4260738999582827,True,13,1,0,14
Y2-S2-175K21,6,535,PS,exp,40,↑,up,↑,0.49805579998064786,True,12,1,0,14
Y2-S2-175K21,6,536,PS,exp,46,↓,down,↓,0.5114308999618515,True,12,1,0,14
Y2-S2-175K21,6,537,PS,exp,32,↑,up,↑,0.5339963999576867,True,12,1,0,14
Y2-S2-175K21,6,538,PS,exp,41,→,right,→,0.6156999999657273,True,11,1,0,14
Y2-S2-175K21,6,539,PS,exp,34,←,right,→,0.5987833000253886,False,11,-1,1,15
Y2-S2-175K21,6,540,PS,exp,30,↑,up,↑,0.445460099959746,True,12,-1,0,15
Y2-S2-175K21,6,541,PS,exp,50,↓,down,↓,0.5129690000321716,True,12,-1,0,15
Y2-S2-175K21,6,542,PS,exp,34,→,right,→,0.4881754000671208,True,12,1,1,16
Y2-S2-175K21,7,543,PS,intra_train,35,←,left,←,0.4925765000516549,True,12,-,-,-
Y2-S2-175K21,7,544,PS,intra_train,44,→,right,→,0.43028949992731214,True,12,-,-,-
Y2-S2-175K21,7,545,PS,intra_train,50,↑,up,↑,0.378118299995549,True,12,-,-,-
Y2-S2-175K21,7,546,PS,intra_train,33,→,right,→,0.48017780005466193,True,12,-,-,-
Y2-S2-175K21,7,547,PS,intra_train,50,↑,up,↑,0.33400649996474385,True,12,-,-,-
Y2-S2-175K21,7,548,PS,exp,49,↓,down,↓,0.6005943999625742,True,8,0,0,0
Y2-S2-175K21,7,549,PS,exp,45,←,left,←,0.4725337999407202,True,8,0,0,0
Y2-S2-175K21,7,550,PS,exp,38,→,right,→,0.40601149993017316,True,8,1,0,0
Y2-S2-175K21,7,551,PS,exp,26,↓,up,↑,0.49357110005803406,False,7,-1,1,1
Y2-S2-175K21,7,552,PS,exp,41,←,left,←,0.4931497999932617,True,8,-1,0,1
Y2-S2-175K21,7,553,PS,exp,29,→,right,→,0.5428154000546783,True,8,-1,0,1
Y2-S2-175K21,7,554,PS,exp,46,↓,down,↓,0.7384445000207052,True,8,1,1,2
Y2-S2-175K21,7,555,PS,exp,25,→,down,↓,0.6644033000338823,False,7,-1,1,3
Y2-S2-175K21,7,556,PS,exp,45,←,left,←,0.48524309997446835,True,8,-1,0,3
Y2-S2-175K21,7,557,PS,exp,39,↑,up,↑,0.47175350005272776,True,8,-1,0,3
Y2-S2-175K21,7,558,PS,exp,40,↓,down,↓,0.6632715000305325,True,8,1,1,4
Y2-S2-175K21,7,559,PS,exp,45,←,left,←,0.7138806000584736,True,7,1,0,4
Y2-S2-175K21,7,560,PS,exp,31,↑,up,↑,0.5085183000192046,True,7,1,0,4
Y2-S2-175K21,7,561,PS,exp,44,←,left,←,0.5636576999677345,True,7,1,0,4
Y2-S2-175K21,7,562,PS,exp,41,↓,right,→,0.7271179999224842,False,6,-1,1,5
Y2-S2-175K21,7,563,PS,exp,43,↑,up,↑,0.44238849997054785,True,7,-1,0,5
Y2-S2-175K21,7,564,PS,exp,27,↓,down,↓,0.7219593999907374,True,7,-1,0,5
Y2-S2-175K21,7,565,PS,exp,29,←,left,←,0.6027076001046225,True,7,1,1,6
Y2-S2-175K21,7,566,PS,exp,46,→,right,→,0.7157173999585211,True,6,1,0,6
Y2-S2-175K21,7,567,PS,exp,37,↓,left,←,0.9754899999825284,False,6,-1,1,7
Y2-S2-175K21,7,568,PS,exp,39,↑,up,↑,1.0163263999857008,True,7,-1,0,7
Y2-S2-175K21,7,569,PS,exp,27,←,left,←,0.7175987000809982,True,7,-1,0,7
Y2-S2-175K21,7,570,PS,exp,50,↑,right,→,0.8572431999491528,False,7,-1,0,7
Y2-S2-175K21,7,571,PS,exp,29,→,right,→,0.5131981000304222,True,8,-1,0,7
Y2-S2-175K21,7,572,PS,exp,38,←,left,←,0.7279638000763953,True,8,-1,0,7
Y2-S2-175K21,7,573,PS,exp,36,→,left,←,0.847467300016433,False,8,-1,0,7
Y2-S2-175K21,7,574,PS,exp,29,↓,down,↓,0.9622600999427959,True,9,-1,0,7
Y2-S2-175K21,7,575,PS,exp,47,↑,up,↑,0.5977276000194252,True,9,-1,0,7
Y2-S2-175K21,7,576,PS,exp,29,→,right,→,0.6207306999713182,True,9,1,1,8
Y2-S2-175K21,7,577,PS,exp,50,↑,up,↑,0.4439749999437481,True,8,1,0,8
Y2-S2-175K21,7,578,PS,exp,46,↓,down,↓,0.7645352999679744,True,8,1,0,8
Y2-S2-175K21,7,579,PS,exp,34,↑,up,↑,0.7202983000315726,True,8,1,0,8
Y2-S2-175K21,7,580,PS,exp,28,↓,down,↓,0.8640946000814438,True,7,1,0,8
Y2-S2-175K21,7,581,PS,exp,32,→,left,←,0.5859888000413775,False,7,-1,1,9
Y2-S2-175K21,7,582,PS,exp,45,↓,down,↓,0.8567105999682099,True,8,-1,0,9
Y2-S2-175K21,7,583,PS,exp,31,↑,up,↑,0.6947191999061033,True,8,-1,0,9
Y2-S2-175K21,7,584,PS,exp,25,↓,down,↓,0.7911139000207186,True,8,1,1,10
Y2-S2-175K21,7,585,PS,exp,28,↑,no_key,no_letter,-1.0,False,7,-1,1,11
Y2-S2-175K21,7,586,PS,exp,34,↓,down,↓,0.7518579000607133,True,8,-1,0,11
Y2-S2-175K21,7,587,PS,exp,35,↑,up,↑,0.502021300024353,True,8,-1,0,11
Y2-S2-175K21,7,588,PS,exp,48,←,left,←,0.6049163999268785,True,8,1,1,12
Y2-S2-175K21,7,589,PS,exp,29,↑,left,←,0.8863237999612466,False,7,-1,1,13
Y2-S2-175K21,7,590,PS,exp,48,→,up,↑,0.660172599949874,False,8,-1,0,13
Y2-S2-175K21,7,591,PS,exp,50,←,left,←,0.6423530000029132,True,9,-1,0,13
Y2-S2-175K21,7,592,PS,exp,41,↑,down,↓,1.2000579999294132,False,9,-1,0,13
Y2-S2-175K21,7,593,PS,exp,25,←,left,←,0.7050473000854254,True,10,-1,0,13
Y2-S2-175K21,7,594,PS,exp,39,↑,left,←,1.015971799963154,False,10,-1,0,13
Y2-S2-175K21,7,595,PS,exp,43,↓,down,↓,0.7924721000017598,True,11,-1,0,13
Y2-S2-175K21,7,596,PS,exp,28,→,right,→,0.5204509999603033,True,11,-1,0,13
Y2-S2-175K21,7,597,PS,exp,47,↑,up,↑,0.5302254999987781,True,11,1,1,14
Y2-S2-175K21,7,598,PS,exp,31,↓,down,↓,0.7151602999074385,True,10,1,0,14
Y2-S2-175K21,7,599,PS,exp,46,↑,up,↑,1.0811906000599265,True,10,1,0,14
Y2-S2-175K21,7,600,PS,exp,34,→,right,→,0.48773219995200634,True,10,1,0,14
Y2-S2-175K21,7,601,PS,exp,44,←,left,←,0.7453441000543535,True,9,1,0,14
Y2-S2-175K21,7,602,PS,exp,34,↓,down,↓,0.49520260002464056,True,9,1,0,14
Y2-S2-175K21,7,603,PS,exp,26,←,no_key,no_letter,-1.0,False,9,-1,1,15
Y2-S2-175K21,7,604,PS,exp,48,↓,down,↓,0.5943643000209704,True,10,-1,0,15
Y2-S2-175K21,7,605,PS,exp,42,←,left,←,0.7872731999959797,True,10,-1,0,15
Y2-S2-175K21,7,606,PS,exp,31,↑,up,↑,0.4347112999530509,True,10,1,1,16
Y2-S2-175K21,8,607,AS,intra_train,40,←,left,←,0.6004685999359936,True,28,-,-,-
Y2-S2-175K21,8,608,AS,intra_train,31,↑,up,↑,0.5339061999693513,True,28,-,-,-
Y2-S2-175K21,8,609,AS,intra_train,41,←,right,→,0.7236540000885725,False,28,-,-,-
Y2-S2-175K21,8,610,AS,intra_train,35,→,right,→,0.9309335999423638,True,28,-,-,-
Y2-S2-175K21,8,611,AS,intra_train,43,←,left,←,1.1511854000855237,True,28,-,-,-
Y2-S2-175K21,8,612,AS,exp,50,↑,up,↑,1.464771099970676,True,19,0,0,0
Y2-S2-175K21,8,613,AS,exp,26,←,left,←,0.6105037999805063,True,19,0,0,0
Y2-S2-175K21,8,614,AS,exp,30,→,right,→,0.5058776000514627,True,19,1,0,0
Y2-S2-175K21,8,615,AS,exp,34,↓,down,↓,0.7596354000270367,True,18,1,0,0
Y2-S2-175K21,8,616,AS,exp,41,←,left,←,0.6384879000252113,True,18,1,0,0
Y2-S2-175K21,8,617,AS,exp,35,↓,down,↓,0.8008982000174001,True,18,1,0,0
Y2-S2-175K21,8,618,AS,exp,38,←,left,←,0.7856487999670208,True,17,1,0,0
Y2-S2-175K21,8,619,AS,exp,34,→,right,→,0.5185946000274271,True,17,1,0,0
Y2-S2-175K21,8,620,AS,exp,28,↑,up,↑,0.7189652000088245,True,17,1,0,0
Y2-S2-175K21,8,621,AS,exp,29,↓,down,↓,0.6903254999779165,True,16,1,0,0
Y2-S2-175K21,8,622,AS,exp,43,→,right,→,0.6428062000777572,True,16,1,0,0
Y2-S2-175K21,8,623,AS,exp,28,↓,down,↓,0.6103572999127209,True,16,1,0,0
Y2-S2-175K21,8,624,AS,exp,47,↑,down,↓,0.6459158000070602,False,15,-1,1,1
Y2-S2-175K21,8,625,AS,exp,30,→,right,→,0.5602268000366166,True,16,-1,0,1
Y2-S2-175K21,8,626,AS,exp,45,↓,up,↑,0.8687574999639764,False,16,-1,0,1
Y2-S2-175K21,8,627,AS,exp,38,←,left,←,0.6489173000445589,True,17,-1,0,1
Y2-S2-175K21,8,628,AS,exp,48,↓,down,↓,1.1918342999415472,True,17,-1,0,1
Y2-S2-175K21,8,629,AS,exp,36,←,left,←,0.5981730999192223,True,17,1,1,2
Y2-S2-175K21,8,630,AS,exp,47,↑,down,↓,0.8371543999528512,False,16,-1,1,3
Y2-S2-175K21,8,631,AS,exp,31,→,right,→,0.5254827999742702,True,17,-1,0,3
Y2-S2-175K21,8,632,AS,exp,36,←,left,←,0.6309439999749884,True,17,-1,0,3
Y2-S2-175K21,8,633,AS,exp,49,↓,down,↓,0.4871236999752,True,17,1,1,4
Y2-S2-175K21,8,634,AS,exp,45,←,right,→,0.7346498999977484,False,16,-1,1,5
Y2-S2-175K21,8,635,AS,exp,37,↓,down,↓,0.5139777000294998,True,17,-1,0,5
Y2-S2-175K21,8,636,AS,exp,50,←,right,→,0.7850556999910623,False,17,-1,0,5
Y2-S2-175K21,8,637,AS,exp,44,→,right,→,0.6753090999554843,True,18,-1,0,5
Y2-S2-175K21,8,638,AS,exp,27,↓,no_key,no_letter,-1.0,False,18,-1,0,5
Y2-S2-175K21,8,639,AS,exp,39,→,left,←,0.5502368999877945,False,19,-1,0,5
Y2-S2-175K21,8,640,AS,exp,45,←,left,←,0.5481719999806955,True,20,-1,0,5
Y2-S2-175K21,8,641,AS,exp,40,↓,down,↓,0.6852334999712184,True,20,-1,0,5
Y2-S2-175K21,8,642,AS,exp,43,←,left,←,0.6393539999844506,True,20,1,1,6
Y2-S2-175K21,8,643,AS,exp,27,↑,up,↑,0.9584618000080809,True,19,1,0,6
Y2-S2-175K21,8,644,AS,exp,43,↓,down,↓,0.8579614999471232,True,19,1,0,6
Y2-S2-175K21,8,645,AS,exp,49,→,right,→,0.8372432999312878,True,19,1,0,6
Y2-S2-175K21,8,646,AS,exp,33,←,right,→,1.014246999984607,False,18,-1,1,7
Y2-S2-175K21,8,647,AS,exp,29,→,right,→,0.716895499965176,True,19,-1,0,7
Y2-S2-175K21,8,648,AS,exp,45,←,left,←,0.7538395000156015,True,19,-1,0,7
Y2-S2-175K21,8,649,AS,exp,36,↑,right,→,1.151147500029765,False,19,-1,0,7
Y2-S2-175K21,8,650,AS,exp,42,←,left,←,0.7133554000174627,True,20,-1,0,7
Y2-S2-175K21,8,651,AS,exp,43,↑,up,↑,0.6400742999976501,True,20,-1,0,7
Y2-S2-175K21,8,652,AS,exp,29,↓,down,↓,0.6785070999758318,True,20,1,1,8
Y2-S2-175K21,8,653,AS,exp,35,→,right,→,0.8174895999254659,True,19,1,0,8
Y2-S2-175K21,8,654,AS,exp,46,↑,up,↑,0.6442595000844449,True,19,1,0,8
Y2-S2-175K21,8,655,AS,exp,28,↓,down,↓,0.511718999943696,True,19,1,0,8
Y2-S2-175K21,8,656,AS,exp,32,→,left,←,0.8381411000154912,False,18,-1,1,9
Y2-S2-175K21,8,657,AS,exp,36,↓,down,↓,0.8242201999528334,True,19,-1,0,9
Y2-S2-175K21,8,658,AS,exp,31,→,right,→,0.8955468999920413,True,19,-1,0,9
Y2-S2-175K21,8,659,AS,exp,46,↓,down,↓,0.5791922999778762,True,19,1,1,10
Y2-S2-175K21,8,660,AS,exp,31,→,left,←,1.0547242999309674,False,18,-1,1,11
Y2-S2-175K21,8,661,AS,exp,40,↑,up,↑,0.48580010002478957,True,19,-1,0,11
Y2-S2-175K21,8,662,AS,exp,29,→,right,→,0.9054720000131056,True,19,-1,0,11
Y2-S2-175K21,8,663,AS,exp,30,↓,down,↓,0.9706980999326333,True,19,1,1,12
Y2-S2-175K21,8,664,AS,exp,47,↑,up,↑,0.5941808000206947,True,18,1,0,12
Y2-S2-175K21,8,665,AS,exp,32,←,left,←,0.7398070999188349,True,18,1,0,12
Y2-S2-175K21,8,666,AS,exp,50,↑,up,↑,0.62984960002359,True,18,1,0,12
Y2-S2-175K21,8,667,AS,exp,47,↓,down,↓,0.7222252000356093,True,17,1,0,12
Y2-S2-175K21,8,668,AS,exp,27,←,right,→,0.8964066000189632,False,17,-1,1,13
Y2-S2-175K21,8,669,AS,exp,33,↑,no_key,no_letter,-1.0,False,18,-1,0,13
Y2-S2-175K21,8,670,AS,exp,39,↓,up,↑,0.8567717999685556,False,19,-1,0,13
Y2-S2-175K21,8,671,AS,exp,25,↑,down,↓,0.7451269000303,False,20,-1,0,13
Y2-S2-175K21,8,672,AS,exp,31,←,left,←,1.0149003999540582,True,21,-1,0,13
Y2-S2-175K21,8,673,AS,exp,25,→,up,↑,0.7899729000637308,False,21,-1,0,13
Y2-S2-175K21,8,674,AS,exp,35,←,left,←,0.708839499973692,True,22,-1,0,13
Y2-S2-175K21,8,675,AS,exp,43,→,right,→,0.5382319000782445,True,22,-1,0,13
Y2-S2-175K21,8,676,AS,exp,27,↑,no_key,no_letter,-1.0,False,22,-1,0,13
Y2-S2-175K21,8,677,AS,exp,26,←,left,←,0.7909731999970973,True,23,-1,0,13
Y2-S2-175K21,8,678,AS,exp,26,→,left,←,0.91833030001726,False,23,-1,0,13
Y2-S2-175K21,8,679,AS,exp,31,←,left,←,0.534130800049752,True,24,-1,0,13
Y2-S2-175K21,8,680,AS,exp,45,↑,up,↑,0.46743940003216267,True,24,-1,0,13
Y2-S2-175K21,8,681,AS,exp,42,↓,down,↓,0.7711840000702068,True,24,1,1,14
Y2-S2-175K21,8,682,AS,exp,26,→,right,→,0.3838593000546098,True,23,1,0,14
Y2-S2-175K21,8,683,AS,exp,40,↑,up,↑,0.6007999000139534,True,23,1,0,14
Y2-S2-175K21,8,684,AS,exp,49,→,right,→,0.5760014000115916,True,23,1,0,14
Y2-S2-175K21,8,685,AS,exp,32,←,left,←,0.6591434000292793,True,22,1,0,14
Y2-S2-175K21,8,686,AS,exp,49,↓,down,↓,0.8953280999558046,True,22,1,0,14
Y2-S2-175K21,8,687,AS,exp,25,→,right,→,0.5639811999863014,True,22,1,0,14
Y2-S2-175K21,8,688,AS,exp,39,↑,up,↑,0.6524843999650329,True,21,1,0,14
Y2-S2-175K21,8,689,AS,exp,31,↓,down,↓,0.6862908999901265,True,21,1,0,14
Y2-S2-175K21,8,690,AS,exp,49,←,left,←,0.9467843000311404,True,21,1,0,14
Y2-S2-175K21,8,691,AS,exp,34,↑,up,↑,0.5611662000883371,True,20,1,0,14
Y2-S2-175K21,8,692,AS,exp,44,→,right,→,0.7830214999848977,True,20,1,0,14
Y2-S2-175K21,8,693,AS,exp,46,↓,down,↓,0.7315938000101596,True,20,1,0,14
Y2-S2-175K21,8,694,AS,exp,42,↑,up,↑,0.5009871999500319,True,19,1,0,14
Y2-S2-175K21,8,695,AS,exp,30,↓,down,↓,0.6934575999621302,True,19,1,0,14
Y2-S2-175K21,8,696,AS,exp,28,←,left,←,0.8677549000130966,True,19,1,0,14
Y2-S2-175K21,8,697,AS,exp,47,↓,down,↓,0.627375700045377,True,18,1,0,14
Y2-S2-175K21,8,698,AS,exp,47,←,left,←,0.9569848000537604,True,18,1,0,14
Y2-S2-175K21,8,699,AS,exp,32,→,right,→,1.0292008999967948,True,18,1,0,14
Y2-S2-175K21,8,700,AS,exp,41,←,left,←,0.8819481000537053,True,17,1,0,14
Y2-S2-175K21,8,701,AS,exp,46,→,right,→,0.8088914001127705,True,17,1,0,14
Y2-S2-175K21,8,702,AS,exp,44,↑,up,↑,0.9276143000461161,True,17,1,0,14
Y2-S2-175K21,8,703,AS,exp,50,↓,down,↓,0.8050018000649288,True,16,1,0,14
Y2-S2-175K21,8,704,AS,exp,38,→,right,→,0.6669592000544071,True,16,1,0,14
Y2-S2-175K21,8,705,AS,exp,48,↑,up,↑,1.250935300020501,True,16,1,0,14
Y2-S2-175K21,8,706,AS,exp,27,↓,down,↓,0.5475978000322357,True,15,1,0,14
Y2-S2-175K21,8,707,AS,exp,32,→,right,→,1.1109158999752253,True,15,1,0,14
Y2-S2-175K21,8,708,AS,exp,33,←,up,↑,0.9799686999758705,False,15,-1,1,15
Y2-S2-175K21,8,709,AS,exp,44,↑,up,↑,0.9500432999338955,True,16,-1,0,15
Y2-S2-175K21,8,710,AS,exp,49,↓,down,↓,0.5983225000090897,True,16,-1,0,15
Y2-S2-175K21,8,711,AS,exp,29,→,right,→,0.7168934000656009,True,16,1,1,16
