PART_ID,Block_no,Trial_no,Block_type,Trial_type,CSI,Stim_letter,Key_pressed,letter_choose,Rt,Corr,Stimulus Time,Level,Reversal,Revs_count
Y2-S2-180K21,1,1,PS,train,46,↑,up,↑,1.081837399979122,True,30,-,-,-
Y2-S2-180K21,1,2,PS,train,34,←,left,←,0.748176399996737,True,30,-,-,-
Y2-S2-180K21,1,3,PS,train,29,→,no_key,no_letter,-1.0,False,30,-,-,-
Y2-S2-180K21,1,4,PS,train,30,↑,up,↑,0.8389153000025544,True,30,-,-,-
Y2-S2-180K21,1,5,PS,train,50,↓,down,↓,0.5670149000070523,True,30,-,-,-
Y2-S2-180K21,1,6,PS,train,37,↑,up,↑,0.5340626999968663,True,30,-,-,-
Y2-S2-180K21,1,7,PS,train,48,↓,down,↓,0.8111301999888383,True,30,-,-,-
Y2-S2-180K21,1,8,PS,train,26,→,right,→,0.5169896000006702,True,30,-,-,-
Y2-S2-180K21,1,9,PS,train,41,←,left,←,0.550419300008798,True,30,-,-,-
Y2-S2-180K21,1,10,PS,train,32,↓,down,↓,0.5004542999959085,True,30,-,-,-
Y2-S2-180K21,2,11,AS,train,49,←,right,→,0.783895999978995,False,45,-,-,-
Y2-S2-180K21,2,12,AS,train,49,↑,up,↑,1.6043473999889102,True,45,-,-,-
Y2-S2-180K21,2,13,AS,train,48,→,right,→,0.7836744000087492,True,45,-,-,-
Y2-S2-180K21,2,14,AS,train,31,↑,up,↑,0.8007642999873497,True,45,-,-,-
Y2-S2-180K21,2,15,AS,train,27,←,left,←,0.5342884999990929,True,45,-,-,-
Y2-S2-180K21,2,16,AS,train,25,↓,down,↓,0.9968687999935355,True,45,-,-,-
Y2-S2-180K21,2,17,AS,train,44,→,right,→,0.5176360000041313,True,45,-,-,-
Y2-S2-180K21,2,18,AS,train,36,↓,down,↓,0.9790639000129886,True,45,-,-,-
Y2-S2-180K21,2,19,AS,train,28,↑,up,↑,0.4012271999963559,True,45,-,-,-
Y2-S2-180K21,2,20,AS,train,26,→,right,→,0.8672643000027165,True,45,-,-,-
Y2-S2-180K21,-,21,PS,adaptive,38,↓,down,↓,0.7471362000214867,True,10,0,0,0
Y2-S2-180K21,-,22,PS,adaptive,34,↑,up,↑,0.45533050000085495,True,10,0,0,0
Y2-S2-180K21,-,23,PS,adaptive,25,→,right,→,0.46447239999542944,True,10,1,0,0
Y2-S2-180K21,-,24,PS,adaptive,27,←,right,→,0.6031709999952,False,9,-1,1,1
Y2-S2-180K21,-,25,PS,adaptive,32,↓,left,←,1.1091170999861788,False,10,-1,0,1
Y2-S2-180K21,-,26,PS,adaptive,43,←,left,←,0.43175129999872297,True,11,-1,0,1
Y2-S2-180K21,-,27,PS,adaptive,38,↑,up,↑,0.8956055000016931,True,11,-1,0,1
Y2-S2-180K21,-,28,PS,adaptive,25,→,right,→,0.502560299995821,True,11,1,1,2
Y2-S2-180K21,-,29,PS,adaptive,30,↓,down,↓,0.8356961999961641,True,10,1,0,2
Y2-S2-180K21,-,30,PS,adaptive,45,↑,up,↑,0.45587560001877137,True,10,1,0,2
Y2-S2-180K21,-,31,PS,adaptive,32,←,right,→,0.7455186999868602,False,10,-1,1,3
Y2-S2-180K21,-,32,PS,adaptive,32,↑,up,↑,0.4858814000035636,True,11,-1,0,3
Y2-S2-180K21,-,33,PS,adaptive,26,←,right,→,0.8384428000135813,False,11,-1,0,3
Y2-S2-180K21,-,34,PS,adaptive,33,→,right,→,0.48781619998044334,True,12,-1,0,3
Y2-S2-180K21,-,35,PS,adaptive,27,↑,up,↑,0.48440929999924265,True,12,-1,0,3
Y2-S2-180K21,-,36,PS,adaptive,44,→,right,→,0.46372910001082346,True,12,1,1,4
Y2-S2-180K21,-,37,AS,adaptive,44,↓,down,↓,0.7707545000012033,True,20,0,0,0
Y2-S2-180K21,-,38,AS,adaptive,39,←,right,→,0.6189515999867581,False,20,-1,0,0
Y2-S2-180K21,-,39,AS,adaptive,47,↓,down,↓,0.8224845000077039,True,21,-1,0,0
Y2-S2-180K21,-,40,AS,adaptive,45,→,right,→,0.46734619999188,True,21,-1,0,0
Y2-S2-180K21,-,41,AS,adaptive,44,↑,up,↑,0.6583578999852762,True,21,1,1,1
Y2-S2-180K21,-,42,AS,adaptive,32,←,up,↑,0.5589646000007633,False,20,-1,1,2
Y2-S2-180K21,-,43,AS,adaptive,46,→,left,←,0.6777012000093237,False,21,-1,0,2
Y2-S2-180K21,-,44,AS,adaptive,45,↓,up,↑,0.6187989999889396,False,22,-1,0,2
Y2-S2-180K21,-,45,AS,adaptive,34,→,right,→,0.517534299986437,True,23,-1,0,2
Y2-S2-180K21,-,46,AS,adaptive,42,←,left,←,0.66660649998812,True,23,-1,0,2
Y2-S2-180K21,-,47,AS,adaptive,31,↓,down,↓,1.1848815999983344,True,23,1,1,3
Y2-S2-180K21,-,48,AS,adaptive,26,←,left,←,0.9664446999959182,True,22,1,0,3
Y2-S2-180K21,-,49,AS,adaptive,49,↑,up,↑,1.9478103999863379,True,22,1,0,3
Y2-S2-180K21,-,50,AS,adaptive,27,↓,up,↑,0.6061184000282083,False,22,-1,1,4
Y2-S2-180K21,1,51,AS,intra_train,39,←,left,←,0.5507897000061348,True,34,-,-,-
Y2-S2-180K21,1,52,AS,intra_train,34,↓,down,↓,0.5506170000007842,True,34,-,-,-
Y2-S2-180K21,1,53,AS,intra_train,33,→,right,→,0.5506160999939311,True,34,-,-,-
Y2-S2-180K21,1,54,AS,intra_train,46,↓,left,←,0.46796149999136105,False,34,-,-,-
Y2-S2-180K21,1,55,AS,intra_train,31,↑,up,↑,0.534358400007477,True,34,-,-,-
Y2-S2-180K21,1,56,AS,exp,37,←,right,→,0.48404260000097565,False,23,-1,0,0
Y2-S2-180K21,1,57,AS,exp,34,↑,left,←,0.7789654000080191,False,24,-1,0,0
Y2-S2-180K21,1,58,AS,exp,47,←,up,↑,0.26783850000356324,False,25,-1,0,0
Y2-S2-180K21,1,59,AS,exp,35,→,left,←,0.35093630000483245,False,26,-1,0,0
Y2-S2-180K21,1,60,AS,exp,47,←,left,←,0.4339924000087194,True,27,-1,0,0
Y2-S2-180K21,1,61,AS,exp,37,↓,down,↓,0.9673413999844342,True,27,-1,0,0
Y2-S2-180K21,1,62,AS,exp,39,→,right,→,0.40135190001456067,True,27,1,1,1
Y2-S2-180K21,1,63,AS,exp,41,↑,up,↑,0.4173226999992039,True,26,1,0,1
Y2-S2-180K21,1,64,AS,exp,30,→,right,→,0.5336963000008836,True,26,1,0,1
Y2-S2-180K21,1,65,AS,exp,31,↓,down,↓,0.5004951000155415,True,26,1,0,1
Y2-S2-180K21,1,66,AS,exp,46,←,right,→,0.6094619999930728,False,25,-1,1,2
Y2-S2-180K21,1,67,AS,exp,50,↑,up,↑,0.8946968999807723,True,26,-1,0,2
Y2-S2-180K21,1,68,AS,exp,40,→,right,→,0.7042692999821156,True,26,-1,0,2
Y2-S2-180K21,1,69,AS,exp,46,↑,up,↑,0.6565414000069723,True,26,1,1,3
Y2-S2-180K21,1,70,AS,exp,49,↓,up,↑,0.3346009000088088,False,25,-1,1,4
Y2-S2-180K21,1,71,AS,exp,43,←,down,↓,0.41689940000651404,False,26,-1,0,4
Y2-S2-180K21,1,72,AS,exp,42,↓,left,←,0.2511168000055477,False,27,-1,0,4
Y2-S2-180K21,1,73,AS,exp,47,↑,up,↑,0.4345483999932185,True,28,-1,0,4
Y2-S2-180K21,1,74,AS,exp,35,→,right,→,0.6404252999927849,True,28,-1,0,4
Y2-S2-180K21,1,75,AS,exp,25,←,left,←,0.41774330000043847,True,28,1,1,5
Y2-S2-180K21,1,76,AS,exp,32,↓,right,→,0.6578073000127915,False,27,-1,1,6
Y2-S2-180K21,1,77,AS,exp,26,↑,down,↓,0.300947499985341,False,28,-1,0,6
Y2-S2-180K21,1,78,AS,exp,27,←,left,←,0.5173354000144172,True,29,-1,0,6
Y2-S2-180K21,1,79,AS,exp,30,↑,up,↑,0.4670095999899786,True,29,-1,0,6
Y2-S2-180K21,1,80,AS,exp,48,←,left,←,0.5840333999949507,True,29,1,1,7
Y2-S2-180K21,1,81,AS,exp,33,↓,no_key,no_letter,-1.0,False,28,-1,1,8
Y2-S2-180K21,1,82,AS,exp,33,↑,left,←,0.4344965000054799,False,29,-1,0,8
Y2-S2-180K21,1,83,AS,exp,36,→,up,↑,0.36777419998543337,False,30,-1,0,8
Y2-S2-180K21,1,84,AS,exp,29,←,no_key,no_letter,-1.0,False,31,-1,0,8
Y2-S2-180K21,1,85,AS,exp,42,↓,up,↑,0.3510707000095863,False,32,-1,0,8
Y2-S2-180K21,1,86,AS,exp,25,←,down,↓,0.3844641000032425,False,33,-1,0,8
Y2-S2-180K21,1,87,AS,exp,29,↓,up,↑,0.2175015000102576,False,34,-1,0,8
Y2-S2-180K21,1,88,AS,exp,27,←,left,←,0.1675884999858681,True,35,-1,0,8
Y2-S2-180K21,1,89,AS,exp,27,↑,left,←,0.23442929997690953,False,35,-1,0,8
Y2-S2-180K21,1,90,AS,exp,30,→,left,←,0.3510532999935094,False,36,-1,0,8
Y2-S2-180K21,1,91,AS,exp,36,←,up,↑,0.4345282000140287,False,37,-1,0,8
Y2-S2-180K21,1,92,AS,exp,41,↓,left,←,0.2510085999965668,False,38,-1,0,8
Y2-S2-180K21,1,93,AS,exp,34,→,left,←,0.53450249999878,False,39,-1,0,8
Y2-S2-180K21,1,94,AS,exp,37,↑,left,←,0.3008798999944702,False,40,-1,0,8
Y2-S2-180K21,1,95,AS,exp,27,→,left,←,0.5677526000072248,False,41,-1,0,8
Y2-S2-180K21,1,96,AS,exp,41,↓,up,↑,0.5847157999814954,False,42,-1,0,8
Y2-S2-180K21,1,97,AS,exp,39,↑,up,↑,0.4008559000212699,True,43,-1,0,8
Y2-S2-180K21,1,98,AS,exp,45,←,left,←,0.5344945999968331,True,43,-1,0,8
Y2-S2-180K21,1,99,AS,exp,28,→,right,→,0.484361800015904,True,43,1,1,9
Y2-S2-180K21,1,100,AS,exp,29,←,left,←,0.5170359000039753,True,42,1,0,9
Y2-S2-180K21,1,101,AS,exp,27,→,right,→,0.4844706000003498,True,42,1,0,9
Y2-S2-180K21,1,102,AS,exp,25,↓,up,↑,0.5010162999969907,False,42,-1,1,10
Y2-S2-180K21,1,103,AS,exp,28,→,left,←,0.48500139999669045,False,43,-1,0,10
Y2-S2-180K21,1,104,AS,exp,43,↑,up,↑,0.6177083000075072,True,44,-1,0,10
Y2-S2-180K21,1,105,AS,exp,44,→,right,→,0.5008773000154179,True,44,-1,0,10
Y2-S2-180K21,1,106,AS,exp,30,↑,up,↑,0.6344707999960519,True,44,1,1,11
Y2-S2-180K21,1,107,AS,exp,33,↓,down,↓,0.9502949999878183,True,43,1,0,11
Y2-S2-180K21,1,108,AS,exp,25,↑,up,↑,0.36817770000197925,True,43,1,0,11
Y2-S2-180K21,1,109,AS,exp,40,↓,down,↓,0.945658699987689,True,43,1,0,11
Y2-S2-180K21,1,110,AS,exp,31,←,left,←,0.43440559998271056,True,42,1,0,11
Y2-S2-180K21,1,111,AS,exp,36,→,right,→,0.6839873999997508,True,42,1,0,11
Y2-S2-180K21,1,112,AS,exp,36,↑,up,↑,0.41798510000808164,True,42,1,0,11
Y2-S2-180K21,1,113,AS,exp,26,→,right,→,0.4845301000168547,True,41,1,0,11
Y2-S2-180K21,1,114,AS,exp,50,↓,up,↑,0.567673100013053,False,41,-1,1,12
Y2-S2-180K21,1,115,AS,exp,33,←,down,↓,0.534379299991997,False,42,-1,0,12
Y2-S2-180K21,1,116,AS,exp,35,↑,left,←,0.4178970999782905,False,43,-1,0,12
Y2-S2-180K21,1,117,AS,exp,34,←,left,←,0.3677268999745138,True,44,-1,0,12
Y2-S2-180K21,1,118,AS,exp,37,↓,up,↑,0.5675764999759849,False,44,-1,0,12
Y2-S2-180K21,1,119,AS,exp,43,↑,up,↑,0.6344612000102643,True,45,-1,0,12
Y2-S2-180K21,1,120,AS,exp,37,←,left,←,0.5679442999826279,True,45,-1,0,12
Y2-S2-180K21,1,121,AS,exp,36,↓,down,↓,0.6342524999927264,True,45,1,1,13
Y2-S2-180K21,1,122,AS,exp,27,↑,up,↑,0.5012365999864414,True,44,1,0,13
Y2-S2-180K21,1,123,AS,exp,45,←,right,→,0.584513000008883,False,44,-1,1,14
Y2-S2-180K21,1,124,AS,exp,29,↓,down,↓,0.5510623999871314,True,45,-1,0,14
Y2-S2-180K21,1,125,AS,exp,34,←,left,←,0.6845841000031214,True,45,-1,0,14
Y2-S2-180K21,1,126,AS,exp,43,↓,right,→,0.5681358999863733,False,45,-1,0,14
Y2-S2-180K21,1,127,AS,exp,40,←,up,↑,0.2845319999905769,False,46,-1,0,14
Y2-S2-180K21,1,128,AS,exp,45,→,left,←,0.35119320001103915,False,47,-1,0,14
Y2-S2-180K21,1,129,AS,exp,46,↓,down,↓,0.4842499000078533,True,48,-1,0,14
Y2-S2-180K21,1,130,AS,exp,41,↑,up,↑,0.33405830000992864,True,48,-1,0,14
Y2-S2-180K21,1,131,AS,exp,50,←,right,→,0.5679623000032734,False,48,-1,0,14
Y2-S2-180K21,1,132,AS,exp,30,↑,left,←,0.7841740000003483,False,49,-1,0,14
Y2-S2-180K21,1,133,AS,exp,46,→,right,→,0.7344212999742012,True,50,-1,0,14
Y2-S2-180K21,1,134,AS,exp,29,↓,up,↑,0.5677692999888677,False,50,-1,0,14
Y2-S2-180K21,1,135,AS,exp,33,↑,up,↑,0.26760099999955855,True,51,-1,0,14
Y2-S2-180K21,1,136,AS,exp,33,→,up,↑,0.3179967000032775,False,51,-1,0,14
Y2-S2-180K21,1,137,AS,exp,29,←,left,←,0.5011641000164673,True,52,-1,0,14
Y2-S2-180K21,1,138,AS,exp,37,→,right,→,0.48446330000297166,True,52,-1,0,14
Y2-S2-180K21,1,139,AS,exp,34,↓,down,↓,0.6845961000071838,True,52,1,1,15
Y2-S2-180K21,1,140,AS,exp,49,↑,up,↑,0.3844447000010405,True,51,1,0,15
Y2-S2-180K21,1,141,AS,exp,40,←,left,←,0.618237400020007,True,51,1,0,15
Y2-S2-180K21,1,142,AS,exp,49,↓,down,↓,0.9342074999876786,True,51,1,0,15
Y2-S2-180K21,1,143,AS,exp,36,←,left,←,0.7013005999906454,True,50,1,0,15
Y2-S2-180K21,1,144,AS,exp,34,↑,up,↑,0.5680065999913495,True,50,1,0,15
Y2-S2-180K21,1,145,AS,exp,49,←,left,←,0.6012627000163775,True,50,1,0,15
Y2-S2-180K21,1,146,AS,exp,35,↓,down,↓,0.7679772000119556,True,49,1,0,15
Y2-S2-180K21,1,147,AS,exp,26,←,left,←,0.5011808999988716,True,49,1,0,15
Y2-S2-180K21,1,148,AS,exp,39,↓,left,←,0.3677925000083633,False,49,-1,1,16
Y2-S2-180K21,2,149,PS,intra_train,25,↑,up,↑,0.5115864000108559,True,16,-,-,-
Y2-S2-180K21,2,150,PS,intra_train,42,→,right,→,0.6004651999974158,True,16,-,-,-
Y2-S2-180K21,2,151,PS,intra_train,29,←,left,←,0.8268046000157483,True,16,-,-,-
Y2-S2-180K21,2,152,PS,intra_train,27,↓,right,→,0.8994684999925084,False,16,-,-,-
Y2-S2-180K21,2,153,PS,intra_train,50,←,no_key,no_letter,-1.0,False,16,-,-,-
Y2-S2-180K21,2,154,PS,exp,44,↑,up,↑,0.6338258000032511,True,11,0,0,0
Y2-S2-180K21,2,155,PS,exp,25,←,up,↑,0.5697693999973126,False,11,-1,0,0
Y2-S2-180K21,2,156,PS,exp,49,↑,left,←,0.23392490000696853,False,12,-1,0,0
Y2-S2-180K21,2,157,PS,exp,30,→,right,→,0.5242685000121128,True,13,-1,0,0
Y2-S2-180K21,2,158,PS,exp,40,←,up,↑,0.2509098000009544,False,13,-1,0,0
Y2-S2-180K21,2,159,PS,exp,42,→,right,→,0.5505692999868188,True,14,-1,0,0
Y2-S2-180K21,2,160,PS,exp,39,↓,down,↓,0.6590577000170015,True,14,-1,0,0
Y2-S2-180K21,2,161,PS,exp,34,↑,up,↑,0.48813489999156445,True,14,1,1,1
Y2-S2-180K21,2,162,PS,exp,31,→,right,→,0.48285570001462474,True,13,1,0,1
Y2-S2-180K21,2,163,PS,exp,50,←,left,←,0.4288494999927934,True,13,1,0,1
Y2-S2-180K21,2,164,PS,exp,40,↓,right,→,0.6759803000022657,False,13,-1,1,2
Y2-S2-180K21,2,165,PS,exp,26,→,no_key,no_letter,-1.0,False,14,-1,0,2
Y2-S2-180K21,2,166,PS,exp,38,←,left,←,0.5321649000106845,True,15,-1,0,2
Y2-S2-180K21,2,167,PS,exp,44,↑,left,←,0.3502474999986589,False,15,-1,0,2
Y2-S2-180K21,2,168,PS,exp,47,←,right,→,0.36710189998848364,False,16,-1,0,2
Y2-S2-180K21,2,169,PS,exp,46,↑,no_key,no_letter,-1.0,False,17,-1,0,2
Y2-S2-180K21,2,170,PS,exp,41,→,right,→,0.3507030000037048,True,18,-1,0,2
Y2-S2-180K21,2,171,PS,exp,40,←,left,←,0.367389799997909,True,18,-1,0,2
Y2-S2-180K21,2,172,PS,exp,46,↑,up,↑,0.3506249999918509,True,18,1,1,3
Y2-S2-180K21,2,173,PS,exp,27,↓,up,↑,0.3839559000043664,False,17,-1,1,4
Y2-S2-180K21,2,174,PS,exp,40,↑,right,→,0.3344984999857843,False,18,-1,0,4
Y2-S2-180K21,2,175,PS,exp,40,←,left,←,0.5015267000126187,True,19,-1,0,4
Y2-S2-180K21,2,176,PS,exp,49,↑,up,↑,0.5547877999779303,True,19,-1,0,4
Y2-S2-180K21,2,177,PS,exp,31,←,left,←,0.6685686999990139,True,19,1,1,5
Y2-S2-180K21,2,178,PS,exp,33,↓,down,↓,0.46743900000001304,True,18,1,0,5
Y2-S2-180K21,2,179,PS,exp,38,↑,up,↑,0.40053890002309345,True,18,1,0,5
Y2-S2-180K21,2,180,PS,exp,36,↓,left,←,0.7670018999779131,False,18,-1,1,6
Y2-S2-180K21,2,181,PS,exp,45,→,right,→,0.7101343999966048,True,19,-1,0,6
Y2-S2-180K21,2,182,PS,exp,48,←,right,→,0.7189224000030663,False,19,-1,0,6
Y2-S2-180K21,2,183,PS,exp,31,↓,right,→,0.5684189999883529,False,20,-1,0,6
Y2-S2-180K21,2,184,PS,exp,49,↑,up,↑,0.45055239999783225,True,21,-1,0,6
Y2-S2-180K21,2,185,PS,exp,35,→,no_key,no_letter,-1.0,False,21,-1,0,6
Y2-S2-180K21,2,186,PS,exp,29,←,no_key,no_letter,-1.0,False,22,-1,0,6
Y2-S2-180K21,2,187,PS,exp,32,→,right,→,0.6272350999934133,True,23,-1,0,6
Y2-S2-180K21,2,188,PS,exp,41,←,no_key,no_letter,-1.0,False,23,-1,0,6
Y2-S2-180K21,2,189,PS,exp,34,→,right,→,0.6410939999914262,True,24,-1,0,6
Y2-S2-180K21,2,190,PS,exp,31,↑,up,↑,1.2427757999976166,True,24,-1,0,6
Y2-S2-180K21,2,191,PS,exp,39,←,left,←,0.5684979000070598,True,24,1,1,7
Y2-S2-180K21,2,192,PS,exp,36,↓,down,↓,0.6437307000160217,True,23,1,0,7
Y2-S2-180K21,2,193,PS,exp,39,←,right,→,0.43402320001041517,False,23,-1,1,8
Y2-S2-180K21,2,194,PS,exp,36,→,left,←,0.5979616999975406,False,24,-1,0,8
Y2-S2-180K21,2,195,PS,exp,30,↓,down,↓,0.5172050000110175,True,25,-1,0,8
Y2-S2-180K21,2,196,PS,exp,28,→,right,→,0.5338186000008136,True,25,-1,0,8
Y2-S2-180K21,2,197,PS,exp,34,↓,left,←,0.5171604999923147,False,25,-1,0,8
Y2-S2-180K21,2,198,PS,exp,43,→,down,↓,0.18438099999912083,False,26,-1,0,8
Y2-S2-180K21,2,199,PS,exp,46,↑,up,↑,0.40093559998786077,True,27,-1,0,8
Y2-S2-180K21,2,200,PS,exp,43,←,left,←,0.0843923999927938,True,27,-1,0,8
Y2-S2-180K21,2,201,PS,exp,36,→,right,→,0.466944899992086,True,27,1,1,9
Y2-S2-180K21,2,202,PS,exp,45,↑,left,←,0.3849776999850292,False,26,-1,1,10
Y2-S2-180K21,2,203,PS,exp,37,←,left,←,0.8524520000210032,True,27,-1,0,10
Y2-S2-180K21,2,204,PS,exp,25,↑,up,↑,0.43421040000976063,True,27,-1,0,10
Y2-S2-180K21,2,205,PS,exp,48,→,left,←,0.4007411999918986,False,27,-1,0,10
Y2-S2-180K21,2,206,PS,exp,44,←,left,←,0.467222999985097,True,28,-1,0,10
Y2-S2-180K21,2,207,PS,exp,31,↑,up,↑,0.5005433000042103,True,28,-1,0,10
Y2-S2-180K21,2,208,PS,exp,30,→,right,→,0.5677409000054467,True,28,1,1,11
Y2-S2-180K21,2,209,PS,exp,31,↑,up,↑,0.5170263000181876,True,27,1,0,11
Y2-S2-180K21,2,210,PS,exp,40,↓,no_key,no_letter,-1.0,False,27,-1,1,12
Y2-S2-180K21,2,211,PS,exp,25,↑,up,↑,0.46713020000606775,True,28,-1,0,12
Y2-S2-180K21,2,212,PS,exp,37,←,left,←,0.46716609998838976,True,28,-1,0,12
Y2-S2-180K21,2,213,PS,exp,30,↑,up,↑,0.4502789000107441,True,28,1,1,13
Y2-S2-180K21,2,214,PS,exp,42,↓,down,↓,0.4337557000108063,True,27,1,0,13
Y2-S2-180K21,2,215,PS,exp,49,←,left,←,0.7787049999751616,True,27,1,0,13
Y2-S2-180K21,2,216,PS,exp,31,↑,up,↑,0.5331120000046212,True,27,1,0,13
Y2-S2-180K21,2,217,PS,exp,39,→,right,→,0.6775518000067677,True,26,1,0,13
Y2-S2-180K21,2,218,PS,exp,38,←,left,←,0.4012304999923799,True,26,1,0,13
Y2-S2-180K21,2,219,PS,exp,35,↓,right,→,0.721335000009276,False,26,-1,1,14
Y2-S2-180K21,2,220,PS,exp,29,↑,down,↓,0.46711889997823164,False,27,-1,0,14
Y2-S2-180K21,2,221,PS,exp,48,↓,down,↓,0.8857553999987431,True,28,-1,0,14
Y2-S2-180K21,2,222,PS,exp,32,←,left,←,0.6784208999888506,True,28,-1,0,14
Y2-S2-180K21,2,223,PS,exp,38,→,right,→,0.7211218000156805,True,28,1,1,15
Y2-S2-180K21,2,224,PS,exp,31,↓,down,↓,0.9059325999987777,True,27,1,0,15
Y2-S2-180K21,2,225,PS,exp,34,↑,up,↑,0.4671972999931313,True,27,1,0,15
Y2-S2-180K21,2,226,PS,exp,26,←,left,←,0.5006506000063382,True,27,1,0,15
Y2-S2-180K21,2,227,PS,exp,46,→,right,→,0.7704355999885593,True,26,1,0,15
Y2-S2-180K21,2,228,PS,exp,38,←,left,←,0.7600716000015382,True,26,1,0,15
Y2-S2-180K21,2,229,PS,exp,33,→,right,→,0.567686299997149,True,26,1,0,15
Y2-S2-180K21,2,230,PS,exp,42,←,left,←,0.6341571000230033,True,25,1,0,15
Y2-S2-180K21,2,231,PS,exp,32,↑,up,↑,0.4671647000068333,True,25,1,0,15
Y2-S2-180K21,2,232,PS,exp,30,←,left,←,0.701085000007879,True,25,1,0,15
Y2-S2-180K21,2,233,PS,exp,48,↓,down,↓,0.6028895000054035,True,24,1,0,15
Y2-S2-180K21,2,234,PS,exp,34,↑,up,↑,0.4504008999792859,True,24,1,0,15
Y2-S2-180K21,2,235,PS,exp,25,↓,left,←,0.9602859999868087,False,24,-1,1,16
Y2-S2-180K21,3,236,PS,intra_train,48,↑,up,↑,0.49713669999619015,True,16,-,-,-
Y2-S2-180K21,3,237,PS,intra_train,43,←,left,←,0.3510283999785315,True,16,-,-,-
Y2-S2-180K21,3,238,PS,intra_train,39,↑,up,↑,0.4556326000019908,True,16,-,-,-
Y2-S2-180K21,3,239,PS,intra_train,34,←,left,←,0.5137361999950372,True,16,-,-,-
Y2-S2-180K21,3,240,PS,intra_train,30,→,right,→,0.6888716999965254,True,16,-,-,-
Y2-S2-180K21,3,241,PS,exp,29,↑,up,↑,0.5288058999867644,True,11,0,0,0
Y2-S2-180K21,3,242,PS,exp,50,←,no_key,no_letter,-1.0,False,11,-1,0,0
Y2-S2-180K21,3,243,PS,exp,28,↓,down,↓,0.737538899993524,True,12,-1,0,0
Y2-S2-180K21,3,244,PS,exp,31,←,left,←,0.3894589000265114,True,12,-1,0,0
Y2-S2-180K21,3,245,PS,exp,32,→,right,→,0.5674150999984704,True,12,1,1,1
Y2-S2-180K21,3,246,PS,exp,42,↑,up,↑,0.5798400999919977,True,11,1,0,1
Y2-S2-180K21,3,247,PS,exp,38,→,right,→,0.5551674000162166,True,11,1,0,1
Y2-S2-180K21,3,248,PS,exp,49,↓,left,←,0.3760533999884501,False,11,-1,1,2
Y2-S2-180K21,3,249,PS,exp,44,←,left,←,0.5767683999729343,True,12,-1,0,2
Y2-S2-180K21,3,250,PS,exp,41,↑,left,←,0.28394809999736026,False,12,-1,0,2
Y2-S2-180K21,3,251,PS,exp,32,↓,up,↑,1.1290435999981128,False,13,-1,0,2
Y2-S2-180K21,3,252,PS,exp,47,↑,down,↓,0.3671926000097301,False,14,-1,0,2
Y2-S2-180K21,3,253,PS,exp,46,↓,up,↑,0.23403409999446012,False,15,-1,0,2
Y2-S2-180K21,3,254,PS,exp,44,←,right,→,0.6228913999802899,False,16,-1,0,2
Y2-S2-180K21,3,255,PS,exp,49,→,up,↑,0.5832031000172719,False,17,-1,0,2
Y2-S2-180K21,3,256,PS,exp,44,↓,left,←,0.801341099984711,False,18,-1,0,2
Y2-S2-180K21,3,257,PS,exp,49,↑,down,↓,0.6443052000249736,False,19,-1,0,2
Y2-S2-180K21,3,258,PS,exp,35,→,up,↑,0.6548641999834217,False,20,-1,0,2
Y2-S2-180K21,3,259,PS,exp,38,↓,right,→,0.3178122999961488,False,21,-1,0,2
Y2-S2-180K21,3,260,PS,exp,41,←,right,→,0.3349354000238236,False,22,-1,0,2
Y2-S2-180K21,3,261,PS,exp,33,→,left,←,0.10101250000298023,False,23,-1,0,2
Y2-S2-180K21,3,262,PS,exp,29,↓,left,←,0.5685141999856569,False,24,-1,0,2
Y2-S2-180K21,3,263,PS,exp,44,←,down,↓,0.3845705999992788,False,25,-1,0,2
Y2-S2-180K21,3,264,PS,exp,49,↓,up,↑,1.1573161999986041,False,26,-1,0,2
Y2-S2-180K21,3,265,PS,exp,38,↑,up,↑,1.1356020000239369,True,27,-1,0,2
Y2-S2-180K21,3,266,PS,exp,47,←,left,←,0.8015881999745034,True,27,-1,0,2
Y2-S2-180K21,3,267,PS,exp,41,↑,left,←,0.10127460001967847,False,27,-1,0,2
Y2-S2-180K21,3,268,PS,exp,31,←,left,←,0.45057239997549914,True,28,-1,0,2
Y2-S2-180K21,3,269,PS,exp,42,↑,up,↑,0.5005845999985468,True,28,-1,0,2
Y2-S2-180K21,3,270,PS,exp,32,→,right,→,0.5839538000000175,True,28,1,1,3
Y2-S2-180K21,3,271,PS,exp,45,←,left,←,0.4672363999998197,True,27,1,0,3
Y2-S2-180K21,3,272,PS,exp,40,↑,up,↑,0.4341118999873288,True,27,1,0,3
Y2-S2-180K21,3,273,PS,exp,37,→,up,↑,1.5262177999829873,False,27,-1,1,4
Y2-S2-180K21,3,274,PS,exp,41,↓,left,←,1.016749800008256,False,28,-1,0,4
Y2-S2-180K21,3,275,PS,exp,33,←,up,↑,0.3347117000084836,False,29,-1,0,4
Y2-S2-180K21,3,276,PS,exp,35,↓,no_key,no_letter,-1.0,False,30,-1,0,4
Y2-S2-180K21,3,277,PS,exp,27,↑,up,↑,1.5302659000153653,True,31,-1,0,4
Y2-S2-180K21,3,278,PS,exp,43,↓,down,↓,0.7383612999983598,True,31,-1,0,4
Y2-S2-180K21,3,279,PS,exp,41,←,down,↓,0.7493507000035606,False,31,-1,0,4
Y2-S2-180K21,3,280,PS,exp,42,↑,no_key,no_letter,-1.0,False,32,-1,0,4
Y2-S2-180K21,3,281,PS,exp,47,←,down,↓,1.203822699986631,False,33,-1,0,4
Y2-S2-180K21,3,282,PS,exp,41,↑,down,↓,0.01758799998788163,False,34,-1,0,4
Y2-S2-180K21,3,283,PS,exp,32,→,down,↓,0.1178568999748677,False,35,-1,0,4
Y2-S2-180K21,3,284,PS,exp,35,↑,left,←,0.3177535999857355,False,36,-1,0,4
Y2-S2-180K21,3,285,PS,exp,31,←,right,→,2.0975566999986768,False,37,-1,0,4
Y2-S2-180K21,3,286,PS,exp,50,→,right,→,0.45115439998335205,True,38,-1,0,4
Y2-S2-180K21,3,287,PS,exp,45,↑,up,↑,2.299158699985128,True,38,-1,0,4
Y2-S2-180K21,3,288,PS,exp,39,←,down,↓,1.079793199984124,False,38,-1,0,4
Y2-S2-180K21,3,289,PS,exp,25,↓,left,←,0.7338158000202384,False,39,-1,0,4
Y2-S2-180K21,3,290,PS,exp,28,→,left,←,0.31781259999843314,False,40,-1,0,4
Y2-S2-180K21,3,291,PS,exp,32,←,left,←,0.7172510999953374,True,41,-1,0,4
Y2-S2-180K21,3,292,PS,exp,37,↓,right,→,1.4089169999933802,False,41,-1,0,4
Y2-S2-180K21,3,293,PS,exp,26,→,right,→,0.4677461000101175,True,42,-1,0,4
Y2-S2-180K21,3,294,PS,exp,32,↑,right,→,0.3177737000223715,False,42,-1,0,4
Y2-S2-180K21,3,295,PS,exp,28,→,no_key,no_letter,-1.0,False,43,-1,0,4
Y2-S2-180K21,3,296,PS,exp,35,←,left,←,0.6842301999859046,True,44,-1,0,4
Y2-S2-180K21,3,297,PS,exp,31,→,down,↓,0.7012032000056934,False,44,-1,0,4
Y2-S2-180K21,3,298,PS,exp,44,↓,right,→,0.5511585000203922,False,45,-1,0,4
Y2-S2-180K21,3,299,PS,exp,47,↑,up,↑,0.3842454999976326,True,46,-1,0,4
Y2-S2-180K21,3,300,PS,exp,41,←,left,←,1.8543038000061642,True,46,-1,0,4
Y2-S2-180K21,3,301,PS,exp,45,↓,right,→,0.3178481000068132,False,46,-1,0,4
Y2-S2-180K21,3,302,PS,exp,32,↑,down,↓,0.46815269999206066,False,47,-1,0,4
Y2-S2-180K21,3,303,PS,exp,37,→,right,→,0.5182893000019249,True,48,-1,0,4
Y2-S2-180K21,3,304,PS,exp,25,↑,up,↑,0.46804490001522936,True,48,-1,0,4
Y2-S2-180K21,3,305,PS,exp,46,→,right,→,0.6344417000073008,True,48,1,1,5
Y2-S2-180K21,3,306,PS,exp,30,←,down,↓,0.5842347999860067,False,47,-1,1,6
Y2-S2-180K21,3,307,PS,exp,43,↓,down,↓,0.401345999998739,True,48,-1,0,6
Y2-S2-180K21,3,308,PS,exp,26,↑,down,↓,0.5509756000246853,False,48,-1,0,6
Y2-S2-180K21,3,309,PS,exp,30,←,left,←,0.7677576999994926,True,49,-1,0,6
Y2-S2-180K21,3,310,PS,exp,42,↓,down,↓,0.5177647999953479,True,49,-1,0,6
Y2-S2-180K21,3,311,PS,exp,46,→,down,↓,2.34594100000686,False,49,-1,0,6
Y2-S2-180K21,3,312,PS,exp,29,↓,down,↓,1.326305599999614,True,50,-1,0,6
Y2-S2-180K21,3,313,PS,exp,38,←,left,←,0.6175386999966577,True,50,-1,0,6
Y2-S2-180K21,3,314,PS,exp,45,↓,left,←,1.4734389999939594,False,50,-1,0,6
Y2-S2-180K21,3,315,PS,exp,41,←,left,←,0.20215520000783727,True,51,-1,0,6
Y2-S2-180K21,3,316,PS,exp,40,↓,down,↓,0.5342335999885108,True,51,-1,0,6
Y2-S2-180K21,3,317,PS,exp,33,→,down,↓,0.4676822999899741,False,51,-1,0,6
Y2-S2-180K21,3,318,PS,exp,48,←,left,←,1.1135396000172477,True,52,-1,0,6
Y2-S2-180K21,3,319,PS,exp,47,↑,down,↓,0.7176127000129782,False,52,-1,0,6
Y2-S2-180K21,3,320,PS,exp,38,↓,no_key,no_letter,-1.0,False,53,-1,0,6
Y2-S2-180K21,3,321,PS,exp,39,↑,up,↑,1.2956345000129659,True,54,-1,0,6
Y2-S2-180K21,3,322,PS,exp,42,←,left,←,1.2217705999792088,True,54,-1,0,6
Y2-S2-180K21,3,323,PS,exp,39,↑,up,↑,0.5678084999963176,True,54,1,1,7
Y2-S2-180K21,3,324,PS,exp,36,↓,down,↓,0.6511318999982905,True,53,1,0,7
Y2-S2-180K21,3,325,PS,exp,44,→,right,→,0.7510280999995302,True,53,1,0,7
Y2-S2-180K21,3,326,PS,exp,38,←,left,←,1.409464399999706,True,53,1,0,7
Y2-S2-180K21,3,327,PS,exp,35,→,down,↓,1.518970300006913,False,52,-1,1,8
Y2-S2-180K21,3,328,PS,exp,28,←,up,↑,1.7880096000153571,False,53,-1,0,8
Y2-S2-180K21,3,329,PS,exp,30,→,down,↓,1.6722511999832932,False,54,-1,0,8
Y2-S2-180K21,3,330,PS,exp,41,←,left,←,0.7014717000129167,True,55,-1,0,8
Y2-S2-180K21,3,331,PS,exp,39,↑,up,↑,0.48422470001969486,True,55,-1,0,8
Y2-S2-180K21,3,332,PS,exp,42,↓,down,↓,0.8342782000254374,True,55,1,1,9
Y2-S2-180K21,3,333,PS,exp,41,→,right,→,0.8679235000163317,True,54,1,0,9
Y2-S2-180K21,3,334,PS,exp,28,↓,down,↓,0.6844481000152882,True,54,1,0,9
Y2-S2-180K21,3,335,PS,exp,25,←,left,←,0.7510721000144258,True,54,1,0,9
Y2-S2-180K21,3,336,PS,exp,39,→,right,→,0.5508826999866869,True,53,1,0,9
Y2-S2-180K21,3,337,PS,exp,37,←,left,←,0.5009381000127178,True,53,1,0,9
Y2-S2-180K21,3,338,PS,exp,50,↓,down,↓,0.5679071999911685,True,53,1,0,9
Y2-S2-180K21,3,339,PS,exp,27,→,right,→,0.5677731999894604,True,52,1,0,9
Y2-S2-180K21,3,340,PS,exp,39,↑,up,↑,0.6510874999803491,True,52,1,0,9
Y2-S2-180K21,3,341,PS,exp,32,→,right,→,0.517894000018714,True,52,1,0,9
Y2-S2-180K21,3,342,PS,exp,27,↑,up,↑,0.7677555000118446,True,51,1,0,9
Y2-S2-180K21,3,343,PS,exp,48,→,down,↓,0.30105860001640394,False,51,-1,1,10
Y2-S2-180K21,3,344,PS,exp,29,↑,down,↓,0.46756839999579825,False,52,-1,0,10
Y2-S2-180K21,3,345,PS,exp,26,↓,down,↓,0.6674160000111442,True,53,-1,0,10
Y2-S2-180K21,3,346,PS,exp,47,→,right,→,0.6346618999959901,True,53,-1,0,10
Y2-S2-180K21,3,347,PS,exp,30,↓,down,↓,0.5178874999983236,True,53,1,1,11
Y2-S2-180K21,3,348,PS,exp,31,↑,up,↑,1.1461579000169877,True,52,1,0,11
Y2-S2-180K21,3,349,PS,exp,39,←,left,←,0.7011392000131309,True,52,1,0,11
Y2-S2-180K21,3,350,PS,exp,44,↑,up,↑,0.5010257999820169,True,52,1,0,11
Y2-S2-180K21,3,351,PS,exp,37,←,left,←,0.7676840999920387,True,51,1,0,11
Y2-S2-180K21,3,352,PS,exp,37,↑,down,↓,0.46782819999498315,False,51,-1,1,12
Y2-S2-180K21,3,353,PS,exp,48,←,left,←,0.551160200004233,True,52,-1,0,12
Y2-S2-180K21,3,354,PS,exp,41,→,right,→,0.751301100011915,True,52,-1,0,12
Y2-S2-180K21,3,355,PS,exp,47,↑,up,↑,0.5844432000012603,True,52,1,1,13
Y2-S2-180K21,3,356,PS,exp,50,→,right,→,0.5007866999949329,True,51,1,0,13
Y2-S2-180K21,3,357,PS,exp,26,←,left,←,0.45122479999554344,True,51,1,0,13
Y2-S2-180K21,3,358,PS,exp,32,↑,up,↑,0.6336134999874048,True,51,1,0,13
Y2-S2-180K21,3,359,PS,exp,43,←,left,←,0.33430099999532104,True,50,1,0,13
Y2-S2-180K21,3,360,PS,exp,50,↑,up,↑,0.4679454999859445,True,50,1,0,13
Y2-S2-180K21,3,361,PS,exp,42,↓,left,←,0.5341549000004306,False,50,-1,1,14
Y2-S2-180K21,3,362,PS,exp,37,→,right,→,0.5848737000196707,True,51,-1,0,14
Y2-S2-180K21,3,363,PS,exp,26,↓,left,←,0.7511541999992914,False,51,-1,0,14
Y2-S2-180K21,3,364,PS,exp,40,←,left,←,0.4512747999979183,True,52,-1,0,14
Y2-S2-180K21,3,365,PS,exp,42,→,no_key,no_letter,-1.0,False,52,-1,0,14
Y2-S2-180K21,3,366,PS,exp,30,←,left,←,0.3341407999978401,True,53,-1,0,14
Y2-S2-180K21,3,367,PS,exp,28,↓,down,↓,0.6178176000248641,True,53,-1,0,14
Y2-S2-180K21,3,368,PS,exp,37,←,left,←,0.4510858000139706,True,53,1,1,15
Y2-S2-180K21,3,369,PS,exp,32,↓,down,↓,0.5012583000061568,True,52,1,0,15
Y2-S2-180K21,3,370,PS,exp,28,←,left,←,0.3510562999872491,True,52,1,0,15
Y2-S2-180K21,3,371,PS,exp,46,↓,down,↓,0.634753999998793,True,52,1,0,15
Y2-S2-180K21,3,372,PS,exp,37,→,left,←,0.3343909000104759,False,51,-1,1,16
Y2-S2-180K21,4,373,AS,intra_train,33,←,left,←,0.66731499999878,True,34,-,-,-
Y2-S2-180K21,4,374,AS,intra_train,41,↑,up,↑,0.5344177999941166,True,34,-,-,-
Y2-S2-180K21,4,375,AS,intra_train,44,←,left,←,0.5503893999848515,True,34,-,-,-
Y2-S2-180K21,4,376,AS,intra_train,40,→,right,→,1.5321530000073835,True,34,-,-,-
Y2-S2-180K21,4,377,AS,intra_train,37,←,left,←,0.8163362999912351,True,34,-,-,-
Y2-S2-180K21,4,378,AS,exp,41,↓,down,↓,0.5005798999918625,True,23,0,0,0
Y2-S2-180K21,4,379,AS,exp,26,↑,up,↑,0.6046470000001136,True,23,0,0,0
Y2-S2-180K21,4,380,AS,exp,46,↓,down,↓,0.591266600007657,True,23,1,0,0
Y2-S2-180K21,4,381,AS,exp,31,←,left,←,0.5653705000004265,True,22,1,0,0
Y2-S2-180K21,4,382,AS,exp,25,↓,down,↓,0.5705967000103556,True,22,1,0,0
Y2-S2-180K21,4,383,AS,exp,42,→,left,←,0.6193038999917917,False,22,-1,1,1
Y2-S2-180K21,4,384,AS,exp,38,↑,down,↓,0.21811220000381581,False,23,-1,0,1
Y2-S2-180K21,4,385,AS,exp,41,→,left,←,0.6242215000092983,False,24,-1,0,1
Y2-S2-180K21,4,386,AS,exp,38,↓,up,↑,0.6017789000179619,False,25,-1,0,1
Y2-S2-180K21,4,387,AS,exp,26,→,down,↓,0.30117709998739883,False,26,-1,0,1
Y2-S2-180K21,4,388,AS,exp,33,↑,up,↑,0.351245600002585,True,27,-1,0,1
Y2-S2-180K21,4,389,AS,exp,28,←,right,→,0.6405138999980409,False,27,-1,0,1
Y2-S2-180K21,4,390,AS,exp,29,→,right,→,0.6007662999909371,True,28,-1,0,1
Y2-S2-180K21,4,391,AS,exp,38,↓,left,←,0.6005488999944646,False,28,-1,0,1
Y2-S2-180K21,4,392,AS,exp,31,↑,no_key,no_letter,-1.0,False,29,-1,0,1
Y2-S2-180K21,4,393,AS,exp,32,→,right,→,0.7310722999973223,True,30,-1,0,1
Y2-S2-180K21,4,394,AS,exp,40,←,left,←,0.8170781999942847,True,30,-1,0,1
Y2-S2-180K21,4,395,AS,exp,34,↑,up,↑,0.517153299995698,True,30,1,1,2
Y2-S2-180K21,4,396,AS,exp,26,→,right,→,0.484253099974012,True,29,1,0,2
Y2-S2-180K21,4,397,AS,exp,36,↑,up,↑,0.3665731999790296,True,29,1,0,2
Y2-S2-180K21,4,398,AS,exp,35,←,left,←,0.7221923999895807,True,29,1,0,2
Y2-S2-180K21,4,399,AS,exp,38,→,right,→,0.8609903999895323,True,28,1,0,2
Y2-S2-180K21,4,400,AS,exp,38,↓,down,↓,0.773904700006824,True,28,1,0,2
Y2-S2-180K21,4,401,AS,exp,28,↑,up,↑,0.5006911999953445,True,28,1,0,2
Y2-S2-180K21,4,402,AS,exp,29,←,left,←,0.45056309999199584,True,27,1,0,2
Y2-S2-180K21,4,403,AS,exp,40,↑,up,↑,0.3847696000011638,True,27,1,0,2
Y2-S2-180K21,4,404,AS,exp,32,←,left,←,0.4338583000062499,True,27,1,0,2
Y2-S2-180K21,4,405,AS,exp,30,↓,down,↓,0.6931019000185188,True,26,1,0,2
Y2-S2-180K21,4,406,AS,exp,37,↑,up,↑,0.3680694999929983,True,26,1,0,2
Y2-S2-180K21,4,407,AS,exp,46,←,left,←,0.6146590000134893,True,26,1,0,2
Y2-S2-180K21,4,408,AS,exp,38,↓,up,↑,0.7358810000005178,False,25,-1,1,3
Y2-S2-180K21,4,409,AS,exp,43,→,right,→,0.5168218000035267,True,26,-1,0,3
Y2-S2-180K21,4,410,AS,exp,27,↓,down,↓,2.050203499995405,True,26,-1,0,3
Y2-S2-180K21,4,411,AS,exp,46,↑,up,↑,0.6017967000079807,True,26,1,1,4
Y2-S2-180K21,4,412,AS,exp,28,↓,down,↓,0.41736729998956434,True,25,1,0,4
Y2-S2-180K21,4,413,AS,exp,42,↑,left,←,0.2512962999753654,False,25,-1,1,5
Y2-S2-180K21,4,414,AS,exp,39,→,left,←,0.6151104999880772,False,26,-1,0,5
Y2-S2-180K21,4,415,AS,exp,40,↓,down,↓,0.7356109000102151,True,27,-1,0,5
Y2-S2-180K21,4,416,AS,exp,48,↑,down,↓,0.5676112000073772,False,27,-1,0,5
Y2-S2-180K21,4,417,AS,exp,25,→,right,→,0.45061649999115616,True,28,-1,0,5
Y2-S2-180K21,4,418,AS,exp,25,↓,down,↓,0.3177092999976594,True,28,-1,0,5
Y2-S2-180K21,4,419,AS,exp,43,↑,down,↓,0.3011693000153173,False,28,-1,0,5
Y2-S2-180K21,4,420,AS,exp,35,←,left,←,0.48393570000189357,True,29,-1,0,5
Y2-S2-180K21,4,421,AS,exp,30,↓,right,→,0.6856838999956381,False,29,-1,0,5
Y2-S2-180K21,4,422,AS,exp,29,↑,down,↓,0.41755129999364726,False,30,-1,0,5
Y2-S2-180K21,4,423,AS,exp,27,←,left,←,0.6172220000007655,True,31,-1,0,5
Y2-S2-180K21,4,424,AS,exp,45,↓,down,↓,0.4511847000103444,True,31,-1,0,5
Y2-S2-180K21,4,425,AS,exp,36,←,right,→,0.5011631999805104,False,31,-1,0,5
Y2-S2-180K21,4,426,AS,exp,26,↑,down,↓,0.3677711000200361,False,32,-1,0,5
Y2-S2-180K21,4,427,AS,exp,36,←,left,←,0.43456580000929534,True,33,-1,0,5
Y2-S2-180K21,4,428,AS,exp,26,↑,up,↑,0.5341637000092305,True,33,-1,0,5
Y2-S2-180K21,4,429,AS,exp,25,↓,down,↓,0.5176630999776535,True,33,1,1,6
Y2-S2-180K21,4,430,AS,exp,30,↑,up,↑,0.6173405000008643,True,32,1,0,6
Y2-S2-180K21,4,431,AS,exp,35,↓,down,↓,0.633897399995476,True,32,1,0,6
Y2-S2-180K21,4,432,AS,exp,26,→,left,←,0.5340297000075225,False,32,-1,1,7
Y2-S2-180K21,4,433,AS,exp,32,←,left,←,0.8415678000019398,True,33,-1,0,7
Y2-S2-180K21,4,434,AS,exp,26,→,down,↓,0.6008931999967899,False,33,-1,0,7
Y2-S2-180K21,4,435,AS,exp,42,↓,down,↓,0.43418569999630563,True,34,-1,0,7
Y2-S2-180K21,4,436,AS,exp,48,←,left,←,0.43451869999989867,True,34,-1,0,7
Y2-S2-180K21,4,437,AS,exp,44,↓,down,↓,0.7004840000008699,True,34,1,1,8
Y2-S2-180K21,4,438,AS,exp,37,←,right,→,0.5840323000156786,False,33,-1,1,9
Y2-S2-180K21,4,439,AS,exp,32,↓,down,↓,0.5508052999794018,True,34,-1,0,9
Y2-S2-180K21,4,440,AS,exp,43,←,left,←,0.9014753999945242,True,34,-1,0,9
Y2-S2-180K21,4,441,AS,exp,48,↓,down,↓,0.6839983999961987,True,34,1,1,10
Y2-S2-180K21,4,442,AS,exp,34,←,right,→,0.46806289997766726,False,33,-1,1,11
Y2-S2-180K21,4,443,AS,exp,27,→,left,←,0.03445430001011118,False,34,-1,0,11
Y2-S2-180K21,4,444,AS,exp,28,←,up,↑,0.3680093000002671,False,35,-1,0,11
Y2-S2-180K21,4,445,AS,exp,40,→,left,←,0.6172696999856271,False,36,-1,0,11
Y2-S2-180K21,4,446,AS,exp,45,↓,up,↑,0.7171151999791618,False,37,-1,0,11
Y2-S2-180K21,4,447,AS,exp,45,←,left,←,0.4179727000009734,True,38,-1,0,11
Y2-S2-180K21,4,448,AS,exp,40,→,right,→,0.45101329998578876,True,38,-1,0,11
Y2-S2-180K21,4,449,AS,exp,30,↓,left,←,0.567900499998359,False,38,-1,0,11
Y2-S2-180K21,4,450,AS,exp,46,←,left,←,0.7338411999808159,True,39,-1,0,11
Y2-S2-180K21,4,451,AS,exp,40,↑,up,↑,0.9785554000118282,True,39,-1,0,11
Y2-S2-180K21,4,452,AS,exp,30,↓,down,↓,0.20110410000779666,True,39,1,1,12
Y2-S2-180K21,4,453,AS,exp,31,→,right,→,0.41765670001041144,True,38,1,0,12
Y2-S2-180K21,4,454,AS,exp,35,↓,down,↓,0.6174477000022307,True,38,1,0,12
Y2-S2-180K21,4,455,AS,exp,45,↑,up,↑,0.767249600001378,True,38,1,0,12
Y2-S2-180K21,4,456,AS,exp,45,→,right,→,0.45087090000743046,True,37,1,0,12
Y2-S2-180K21,4,457,AS,exp,49,↑,up,↑,0.4342516000033356,True,37,1,0,12
Y2-S2-180K21,4,458,AS,exp,49,↓,down,↓,0.4342647999874316,True,37,1,0,12
Y2-S2-180K21,4,459,AS,exp,27,→,left,←,0.5180202999908943,False,36,-1,1,13
Y2-S2-180K21,4,460,AS,exp,49,←,left,←,0.6005379000271205,True,37,-1,0,13
Y2-S2-180K21,4,461,AS,exp,25,↓,down,↓,0.9582781000062823,True,37,-1,0,13
Y2-S2-180K21,4,462,AS,exp,50,↑,down,↓,2.0546955000027083,False,37,-1,0,13
Y2-S2-180K21,4,463,AS,exp,34,↓,down,↓,0.7004864999908023,True,38,-1,0,13
Y2-S2-180K21,4,464,AS,exp,37,→,right,→,0.5010148000146728,True,38,-1,0,13
Y2-S2-180K21,4,465,AS,exp,29,↑,up,↑,0.4509282999788411,True,38,1,1,14
Y2-S2-180K21,4,466,AS,exp,50,→,right,→,0.5344659000111278,True,37,1,0,14
Y2-S2-180K21,4,467,AS,exp,46,←,left,←,0.40106679999735206,True,37,1,0,14
Y2-S2-180K21,4,468,AS,exp,42,→,right,→,0.7178137000009883,True,37,1,0,14
Y2-S2-180K21,4,469,AS,exp,35,↑,up,↑,0.6339046999928541,True,36,1,0,14
Y2-S2-180K21,4,470,AS,exp,33,→,right,→,0.6505362000025343,True,36,1,0,14
Y2-S2-180K21,4,471,AS,exp,37,↓,down,↓,0.38405429999693297,True,36,1,0,14
Y2-S2-180K21,4,472,AS,exp,41,↑,up,↑,0.6334714999829885,True,35,1,0,14
Y2-S2-180K21,4,473,AS,exp,27,↓,no_key,no_letter,-1.0,False,35,-1,1,15
Y2-S2-180K21,4,474,AS,exp,45,→,right,→,0.4678225000097882,True,36,-1,0,15
Y2-S2-180K21,4,475,AS,exp,35,←,left,←,0.1511896999727469,True,36,-1,0,15
Y2-S2-180K21,4,476,AS,exp,48,↑,down,↓,0.4181222999759484,False,36,-1,0,15
Y2-S2-180K21,4,477,AS,exp,37,←,up,↑,0.7004795000248123,False,37,-1,0,15
Y2-S2-180K21,4,478,AS,exp,41,→,up,↑,1.304338199988706,False,38,-1,0,15
Y2-S2-180K21,4,479,AS,exp,44,↓,left,←,1.8905743000213988,False,39,-1,0,15
Y2-S2-180K21,4,480,AS,exp,25,→,left,←,0.1513347000000067,False,40,-1,0,15
Y2-S2-180K21,4,481,AS,exp,37,←,left,←,0.5842911999789067,True,41,-1,0,15
Y2-S2-180K21,4,482,AS,exp,38,→,left,←,1.0191924000100698,False,41,-1,0,15
Y2-S2-180K21,4,483,AS,exp,26,↑,up,↑,1.6343728000065312,True,42,-1,0,15
Y2-S2-180K21,4,484,AS,exp,41,→,up,↑,1.1678855000063777,False,42,-1,0,15
Y2-S2-180K21,4,485,AS,exp,30,↑,up,↑,1.108742499985965,True,43,-1,0,15
Y2-S2-180K21,4,486,AS,exp,45,↓,up,↑,1.1686628000170458,False,43,-1,0,15
Y2-S2-180K21,4,487,AS,exp,40,→,right,→,0.21788939999532886,True,44,-1,0,15
Y2-S2-180K21,4,488,AS,exp,28,↑,right,→,0.06777699998929165,False,44,-1,0,15
Y2-S2-180K21,4,489,AS,exp,27,→,up,↑,0.3511401000141632,False,45,-1,0,15
Y2-S2-180K21,4,490,AS,exp,48,↑,right,→,0.6344996999832802,False,46,-1,0,15
Y2-S2-180K21,4,491,AS,exp,40,→,up,↑,0.06793180000386201,False,47,-1,0,15
Y2-S2-180K21,4,492,AS,exp,41,↓,up,↑,0.5176493000180926,False,48,-1,0,15
Y2-S2-180K21,4,493,AS,exp,38,→,right,→,0.4678909000067506,True,49,-1,0,15
Y2-S2-180K21,4,494,AS,exp,35,↑,up,↑,0.3843174999929033,True,49,-1,0,15
Y2-S2-180K21,4,495,AS,exp,35,↓,up,↑,0.5010933000012301,False,49,-1,0,15
Y2-S2-180K21,4,496,AS,exp,43,←,left,←,0.418156400002772,True,50,-1,0,15
Y2-S2-180K21,4,497,AS,exp,43,→,left,←,0.35127929999725893,False,50,-1,0,15
Y2-S2-180K21,4,498,AS,exp,31,↓,up,↑,0.5345102000283077,False,51,-1,0,15
Y2-S2-180K21,4,499,AS,exp,50,→,down,↓,0.401283000013791,False,52,-1,0,15
Y2-S2-180K21,4,500,AS,exp,28,↓,down,↓,0.6675988000060897,True,53,-1,0,15
Y2-S2-180K21,4,501,AS,exp,37,→,right,→,0.7007645000121556,True,53,-1,0,15
Y2-S2-180K21,4,502,AS,exp,29,↓,down,↓,0.6176890000060666,True,53,1,1,16
Y2-S2-180K21,5,503,AS,intra_train,38,→,left,←,0.5010165999992751,False,34,-,-,-
Y2-S2-180K21,5,504,AS,intra_train,50,↓,down,↓,0.7854433999746107,True,34,-,-,-
Y2-S2-180K21,5,505,AS,intra_train,34,←,left,←,0.46765989999403246,True,34,-,-,-
Y2-S2-180K21,5,506,AS,intra_train,27,↑,up,↑,0.46789309999439865,True,34,-,-,-
Y2-S2-180K21,5,507,AS,intra_train,40,→,right,→,0.7541325000056531,True,34,-,-,-
Y2-S2-180K21,5,508,AS,exp,28,←,left,←,0.4338673999882303,True,23,0,0,0
Y2-S2-180K21,5,509,AS,exp,45,↓,down,↓,0.809913700009929,True,23,0,0,0
Y2-S2-180K21,5,510,AS,exp,34,→,right,→,0.6791316000162624,True,23,1,0,0
Y2-S2-180K21,5,511,AS,exp,40,↑,left,←,0.7731797999877017,False,22,-1,1,1
Y2-S2-180K21,5,512,AS,exp,28,↓,down,↓,0.6997935000108555,True,23,-1,0,1
Y2-S2-180K21,5,513,AS,exp,49,←,left,←,0.46716110000852495,True,23,-1,0,1
Y2-S2-180K21,5,514,AS,exp,34,→,left,←,0.35100050002802163,False,23,-1,0,1
Y2-S2-180K21,5,515,AS,exp,45,↑,up,↑,1.5279360999993514,True,24,-1,0,1
Y2-S2-180K21,5,516,AS,exp,33,←,up,↑,0.20125660000485368,False,24,-1,0,1
Y2-S2-180K21,5,517,AS,exp,39,→,up,↑,0.3176151999796275,False,25,-1,0,1
Y2-S2-180K21,5,518,AS,exp,43,↓,left,←,0.06780089999665506,False,26,-1,0,1
Y2-S2-180K21,5,519,AS,exp,48,↑,up,↑,0.31783489999361336,True,27,-1,0,1
Y2-S2-180K21,5,520,AS,exp,49,←,left,←,0.5838439000071958,True,27,-1,0,1
Y2-S2-180K21,5,521,AS,exp,26,↑,left,←,0.2675648999866098,False,27,-1,0,1
Y2-S2-180K21,5,522,AS,exp,33,→,up,↑,0.31765689997700974,False,28,-1,0,1
Y2-S2-180K21,5,523,AS,exp,34,↓,left,←,0.7514739999896847,False,29,-1,0,1
Y2-S2-180K21,5,524,AS,exp,38,↑,down,↓,0.21760550001636147,False,30,-1,0,1
Y2-S2-180K21,5,525,AS,exp,43,←,up,↑,1.6130953000101727,False,31,-1,0,1
Y2-S2-180K21,5,526,AS,exp,25,↑,right,→,0.43445229998906143,False,32,-1,0,1
Y2-S2-180K21,5,527,AS,exp,26,→,up,↑,0.8534625999745913,False,33,-1,0,1
Y2-S2-180K21,5,528,AS,exp,38,↓,up,↑,0.30105590002494864,False,34,-1,0,1
Y2-S2-180K21,5,529,AS,exp,41,←,up,↑,0.4011309999914374,False,35,-1,0,1
Y2-S2-180K21,5,530,AS,exp,40,→,up,↑,0.017766500008292496,False,36,-1,0,1
Y2-S2-180K21,5,531,AS,exp,34,↓,up,↑,1.9685871999827214,False,37,-1,0,1
Y2-S2-180K21,5,532,AS,exp,50,←,left,←,0.8596121000009589,True,38,-1,0,1
Y2-S2-180K21,5,533,AS,exp,31,↑,up,↑,0.40087430001585744,True,38,-1,0,1
Y2-S2-180K21,5,534,AS,exp,37,←,up,↑,0.33454619999974966,False,38,-1,0,1
Y2-S2-180K21,5,535,AS,exp,44,→,left,←,0.4010820999974385,False,39,-1,0,1
Y2-S2-180K21,5,536,AS,exp,45,↓,right,→,0.5012058000138495,False,40,-1,0,1
Y2-S2-180K21,5,537,AS,exp,39,←,down,↓,0.5011354000016581,False,41,-1,0,1
Y2-S2-180K21,5,538,AS,exp,44,→,left,←,0.6008350999909453,False,42,-1,0,1
Y2-S2-180K21,5,539,AS,exp,30,↑,down,↓,1.0830370000039693,False,43,-1,0,1
Y2-S2-180K21,5,540,AS,exp,25,→,right,→,0.6674888000125065,True,44,-1,0,1
Y2-S2-180K21,5,541,AS,exp,43,←,left,←,0.5181180000072345,True,44,-1,0,1
Y2-S2-180K21,5,542,AS,exp,44,↓,down,↓,0.8337493000144605,True,44,1,1,2
Y2-S2-180K21,5,543,AS,exp,37,↑,up,↑,0.6009581999969669,True,43,1,0,2
Y2-S2-180K21,5,544,AS,exp,42,→,right,→,0.5343789999897126,True,43,1,0,2
Y2-S2-180K21,5,545,AS,exp,38,←,down,↓,0.5841804000083357,False,43,-1,1,3
Y2-S2-180K21,5,546,AS,exp,28,↓,left,←,0.50120609998703,False,44,-1,0,3
Y2-S2-180K21,5,547,AS,exp,42,↑,down,↓,0.350936200004071,False,45,-1,0,3
Y2-S2-180K21,5,548,AS,exp,42,→,left,←,0.4842044999822974,False,46,-1,0,3
Y2-S2-180K21,5,549,AS,exp,47,←,right,→,0.6178874000033829,False,47,-1,0,3
Y2-S2-180K21,5,550,AS,exp,42,→,right,→,0.6011001000006218,True,48,-1,0,3
Y2-S2-180K21,5,551,AS,exp,34,↑,down,↓,0.4843970000219997,False,48,-1,0,3
Y2-S2-180K21,5,552,AS,exp,37,→,right,→,0.6678185999917332,True,49,-1,0,3
Y2-S2-180K21,5,553,AS,exp,41,↓,down,↓,0.7510964999964926,True,49,-1,0,3
Y2-S2-180K21,5,554,AS,exp,32,←,left,←,0.5177945000177715,True,49,1,1,4
Y2-S2-180K21,5,555,AS,exp,32,↓,left,←,0.501211000024341,False,48,-1,1,5
Y2-S2-180K21,5,556,AS,exp,29,←,left,←,0.7176084999809973,True,49,-1,0,5
Y2-S2-180K21,5,557,AS,exp,29,→,left,←,0.3343472999986261,False,49,-1,0,5
Y2-S2-180K21,5,558,AS,exp,36,↓,down,↓,0.5681890000123531,True,50,-1,0,5
Y2-S2-180K21,5,559,AS,exp,43,←,left,←,0.651099599985173,True,50,-1,0,5
Y2-S2-180K21,5,560,AS,exp,27,↑,left,←,0.26818690000800416,False,50,-1,0,5
Y2-S2-180K21,5,561,AS,exp,26,→,up,↑,0.48458170000230893,False,51,-1,0,5
Y2-S2-180K21,5,562,AS,exp,44,←,left,←,1.9758571999846026,True,52,-1,0,5
Y2-S2-180K21,5,563,AS,exp,44,↓,left,←,0.6344721000059508,False,52,-1,0,5
Y2-S2-180K21,5,564,AS,exp,41,→,left,←,0.11824819998582825,False,53,-1,0,5
Y2-S2-180K21,5,565,AS,exp,38,↓,down,↓,0.48418169998330995,True,54,-1,0,5
Y2-S2-180K21,5,566,AS,exp,26,→,right,→,0.4011657999944873,True,54,-1,0,5
Y2-S2-180K21,5,567,AS,exp,36,↓,down,↓,0.6511820000014268,True,54,1,1,6
Y2-S2-180K21,5,568,AS,exp,46,↑,up,↑,0.41758750000735745,True,53,1,0,6
Y2-S2-180K21,5,569,AS,exp,34,→,up,↑,0.08442950001335703,False,53,-1,1,7
Y2-S2-180K21,5,570,AS,exp,45,←,right,→,0.08408289999351837,False,54,-1,0,7
Y2-S2-180K21,5,571,AS,exp,37,↑,up,↑,0.4176989000116009,True,55,-1,0,7
Y2-S2-180K21,5,572,AS,exp,29,→,right,→,0.7013054999988526,True,55,-1,0,7
Y2-S2-180K21,5,573,AS,exp,43,↑,up,↑,0.5008265000069514,True,55,1,1,8
Y2-S2-180K21,5,574,AS,exp,45,↓,up,↑,0.5505975999985822,False,54,-1,1,9
Y2-S2-180K21,5,575,AS,exp,42,↑,up,↑,0.9670243999862578,True,55,-1,0,9
Y2-S2-180K21,5,576,AS,exp,43,←,left,←,0.6508159000077285,True,55,-1,0,9
Y2-S2-180K21,5,577,AS,exp,33,→,right,→,0.7345040999935009,True,55,1,1,10
Y2-S2-180K21,5,578,AS,exp,49,↑,up,↑,0.41787909998674877,True,54,1,0,10
Y2-S2-180K21,5,579,AS,exp,36,↓,down,↓,1.089274400001159,True,54,1,0,10
Y2-S2-180K21,5,580,AS,exp,49,←,left,←,2.1033035999862477,True,54,1,0,10
Y2-S2-180K21,5,581,AS,exp,31,→,right,→,1.0173152999777813,True,53,1,0,10
Y2-S2-180K21,5,582,AS,exp,25,←,left,←,0.4845363999775145,True,53,1,0,10
Y2-S2-180K21,5,583,AS,exp,27,→,right,→,0.7179908000107389,True,53,1,0,10
Y2-S2-180K21,5,584,AS,exp,46,↓,up,↑,0.5343437000119593,False,52,-1,1,11
Y2-S2-180K21,5,585,AS,exp,47,←,left,←,0.5845140999881551,True,53,-1,0,11
Y2-S2-180K21,5,586,AS,exp,39,↑,up,↑,0.8840416000166442,True,53,-1,0,11
Y2-S2-180K21,5,587,AS,exp,37,←,left,←,0.6511819000006653,True,53,1,1,12
Y2-S2-180K21,5,588,AS,exp,31,→,left,←,0.651181200024439,False,52,-1,1,13
Y2-S2-180K21,5,589,AS,exp,41,↓,down,↓,0.7511845999979414,True,53,-1,0,13
Y2-S2-180K21,5,590,AS,exp,50,←,left,←,0.8842940000176895,True,53,-1,0,13
Y2-S2-180K21,5,591,AS,exp,25,→,right,→,0.5345224000047892,True,53,1,1,14
Y2-S2-180K21,5,592,AS,exp,48,↓,down,↓,0.9505586999875959,True,52,1,0,14
Y2-S2-180K21,5,593,AS,exp,34,←,left,←,0.6846133999933954,True,52,1,0,14
Y2-S2-180K21,5,594,AS,exp,35,↓,down,↓,0.9178278000035789,True,52,1,0,14
Y2-S2-180K21,5,595,AS,exp,49,←,left,←,0.5011699000024237,True,51,1,0,14
Y2-S2-180K21,5,596,AS,exp,39,↓,down,↓,0.8509160999965388,True,51,1,0,14
Y2-S2-180K21,5,597,AS,exp,28,→,right,→,0.9005503999942448,True,51,1,0,14
Y2-S2-180K21,5,598,AS,exp,26,↑,up,↑,1.244000499980757,True,50,1,0,14
Y2-S2-180K21,5,599,AS,exp,25,→,no_key,no_letter,-1.0,False,50,-1,1,15
Y2-S2-180K21,5,600,AS,exp,38,←,left,←,0.5177476999815553,True,51,-1,0,15
Y2-S2-180K21,5,601,AS,exp,38,↓,down,↓,0.7343963999883272,True,51,-1,0,15
Y2-S2-180K21,5,602,AS,exp,26,↑,up,↑,0.7845259000023361,True,51,1,1,16
Y2-S2-180K21,6,603,PS,intra_train,34,←,right,→,0.542563599999994,False,16,-,-,-
Y2-S2-180K21,6,604,PS,intra_train,47,↓,down,↓,0.6797239000152331,True,16,-,-,-
Y2-S2-180K21,6,605,PS,intra_train,33,↑,up,↑,0.561127899971325,True,16,-,-,-
Y2-S2-180K21,6,606,PS,intra_train,41,←,left,←,0.5410571999964304,True,16,-,-,-
Y2-S2-180K21,6,607,PS,intra_train,28,↑,up,↑,0.5609885999874678,True,16,-,-,-
Y2-S2-180K21,6,608,PS,exp,26,↓,right,→,0.7205077999969944,False,11,-1,0,0
Y2-S2-180K21,6,609,PS,exp,26,↑,down,↓,0.7034819999826141,False,12,-1,0,0
Y2-S2-180K21,6,610,PS,exp,27,↓,down,↓,0.773502299998654,True,13,-1,0,0
Y2-S2-180K21,6,611,PS,exp,25,↑,left,←,0.18425339998793788,False,13,-1,0,0
Y2-S2-180K21,6,612,PS,exp,37,↓,left,←,0.21782469999743626,False,14,-1,0,0
Y2-S2-180K21,6,613,PS,exp,27,→,up,↑,0.2012564999749884,False,15,-1,0,0
Y2-S2-180K21,6,614,PS,exp,31,←,down,↓,1.3669081999978516,False,16,-1,0,0
Y2-S2-180K21,6,615,PS,exp,48,→,left,←,1.278790200012736,False,17,-1,0,0
Y2-S2-180K21,6,616,PS,exp,50,←,up,↑,0.964856200007489,False,18,-1,0,0
Y2-S2-180K21,6,617,PS,exp,29,↑,left,←,1.3492285000102129,False,19,-1,0,0
Y2-S2-180K21,6,618,PS,exp,50,↓,up,↑,0.050880299997515976,False,20,-1,0,0
Y2-S2-180K21,6,619,PS,exp,34,↑,left,←,0.46752659999765456,False,21,-1,0,0
Y2-S2-180K21,6,620,PS,exp,37,→,up,↑,0.3670505000045523,False,22,-1,0,0
Y2-S2-180K21,6,621,PS,exp,25,←,down,↓,0.5825879000185523,False,23,-1,0,0
Y2-S2-180K21,6,622,PS,exp,45,↑,left,←,0.21760530001483858,False,24,-1,0,0
Y2-S2-180K21,6,623,PS,exp,43,→,right,→,0.6351157000171952,True,25,-1,0,0
Y2-S2-180K21,6,624,PS,exp,27,↑,left,←,0.06775019998895004,False,25,-1,0,0
Y2-S2-180K21,6,625,PS,exp,31,↓,up,↑,0.23447729999315925,False,26,-1,0,0
Y2-S2-180K21,6,626,PS,exp,40,→,down,↓,1.0575557999836747,False,27,-1,0,0
Y2-S2-180K21,6,627,PS,exp,46,←,left,←,1.3727807000104804,True,28,-1,0,0
Y2-S2-180K21,6,628,PS,exp,32,→,up,↑,0.5839542000030633,False,28,-1,0,0
Y2-S2-180K21,6,629,PS,exp,32,↑,left,←,0.5505954999825917,False,29,-1,0,0
Y2-S2-180K21,6,630,PS,exp,31,→,up,↑,0.2677125000045635,False,30,-1,0,0
Y2-S2-180K21,6,631,PS,exp,45,←,down,↓,0.11767340000369586,False,31,-1,0,0
Y2-S2-180K21,6,632,PS,exp,36,↓,right,→,0.859235300013097,False,32,-1,0,0
Y2-S2-180K21,6,633,PS,exp,31,→,left,←,1.3713476000120863,False,33,-1,0,0
Y2-S2-180K21,6,634,PS,exp,39,↑,right,→,1.3059368999965955,False,34,-1,0,0
Y2-S2-180K21,6,635,PS,exp,37,←,right,→,0.7615815000026487,False,35,-1,0,0
Y2-S2-180K21,6,636,PS,exp,38,→,up,↑,0.4344809000031091,False,36,-1,0,0
Y2-S2-180K21,6,637,PS,exp,38,↑,left,←,0.40102930000284687,False,37,-1,0,0
Y2-S2-180K21,6,638,PS,exp,25,↓,down,↓,0.4510244999837596,True,38,-1,0,0
Y2-S2-180K21,6,639,PS,exp,35,↑,right,→,0.3677738000114914,False,38,-1,0,0
Y2-S2-180K21,6,640,PS,exp,31,→,no_key,no_letter,-1.0,False,39,-1,0,0
Y2-S2-180K21,6,641,PS,exp,46,↑,left,←,0.1508855999854859,False,40,-1,0,0
Y2-S2-180K21,6,642,PS,exp,33,↓,up,↑,0.9460402999829967,False,41,-1,0,0
Y2-S2-180K21,6,643,PS,exp,46,←,up,↑,0.6176487000193447,False,42,-1,0,0
Y2-S2-180K21,6,644,PS,exp,33,↑,left,←,0.4014702999847941,False,43,-1,0,0
Y2-S2-180K21,6,645,PS,exp,29,↓,right,→,0.9022527000051923,False,44,-1,0,0
Y2-S2-180K21,6,646,PS,exp,28,←,up,↑,0.5010918999905698,False,45,-1,0,0
Y2-S2-180K21,6,647,PS,exp,42,→,right,→,0.26778659998672083,True,46,-1,0,0
Y2-S2-180K21,6,648,PS,exp,47,←,right,→,0.05124770000111312,False,46,-1,0,0
Y2-S2-180K21,6,649,PS,exp,47,↓,up,↑,0.43363690000842325,False,47,-1,0,0
Y2-S2-180K21,6,650,PS,exp,41,→,left,←,0.3178970000008121,False,48,-1,0,0
Y2-S2-180K21,6,651,PS,exp,45,↓,left,←,1.1908017999958247,False,49,-1,0,0
Y2-S2-180K21,6,652,PS,exp,45,→,left,←,0.7180507000011858,False,50,-1,0,0
Y2-S2-180K21,6,653,PS,exp,28,↑,left,←,0.5015406000020448,False,51,-1,0,0
Y2-S2-180K21,6,654,PS,exp,48,↓,no_key,no_letter,-1.0,False,52,-1,0,0
Y2-S2-180K21,6,655,PS,exp,35,↑,up,↑,0.5343767000013031,True,53,-1,0,0
Y2-S2-180K21,6,656,PS,exp,50,→,left,←,0.3511352999776136,False,53,-1,0,0
Y2-S2-180K21,6,657,PS,exp,35,↑,up,↑,0.5343893000099342,True,54,-1,0,0
Y2-S2-180K21,6,658,PS,exp,28,→,right,→,0.4671764000086114,True,54,-1,0,0
Y2-S2-180K21,6,659,PS,exp,32,←,left,←,0.434591500001261,True,54,1,1,1
Y2-S2-180K21,6,660,PS,exp,45,↑,no_key,no_letter,-1.0,False,53,-1,1,2
Y2-S2-180K21,6,661,PS,exp,41,←,up,↑,1.2484648999816272,False,54,-1,0,2
Y2-S2-180K21,6,662,PS,exp,41,→,up,↑,1.9423603000177536,False,55,-1,0,2
Y2-S2-180K21,6,663,PS,exp,33,←,left,←,0.5843772999942303,True,56,-1,0,2
Y2-S2-180K21,6,664,PS,exp,36,→,right,→,0.45102680000127293,True,56,-1,0,2
Y2-S2-180K21,6,665,PS,exp,25,↓,down,↓,0.8512303000024986,True,56,1,1,3
Y2-S2-180K21,6,666,PS,exp,45,↑,up,↑,0.7842978999833576,True,55,1,0,3
Y2-S2-180K21,6,667,PS,exp,34,↓,no_key,no_letter,-1.0,False,55,-1,1,4
Y2-S2-180K21,6,668,PS,exp,36,←,left,←,1.2307858999993186,True,56,-1,0,4
Y2-S2-180K21,6,669,PS,exp,25,→,right,→,0.45085190000827424,True,56,-1,0,4
Y2-S2-180K21,6,670,PS,exp,32,←,left,←,0.3841477000096347,True,56,1,1,5
Y2-S2-180K21,6,671,PS,exp,35,↑,right,→,0.28445279999868944,False,55,-1,1,6
Y2-S2-180K21,6,672,PS,exp,50,←,left,←,0.43445400000200607,True,56,-1,0,6
Y2-S2-180K21,6,673,PS,exp,29,↑,up,↑,0.4174885999818798,True,56,-1,0,6
Y2-S2-180K21,6,674,PS,exp,50,→,right,→,0.5009378000104334,True,56,1,1,7
Y2-S2-180K21,6,675,PS,exp,45,←,up,↑,0.25092010002117604,False,55,-1,1,8
Y2-S2-180K21,6,676,PS,exp,43,↓,left,←,0.3342485999746714,False,56,-1,0,8
Y2-S2-180K21,6,677,PS,exp,43,←,up,↑,0.35111019999021664,False,57,-1,0,8
Y2-S2-180K21,6,678,PS,exp,34,↑,left,←,0.5843838000146206,False,58,-1,0,8
Y2-S2-180K21,6,679,PS,exp,29,↓,down,↓,0.7012658000166994,True,59,-1,0,8
Y2-S2-180K21,6,680,PS,exp,41,←,left,←,0.35110339999664575,True,59,-1,0,8
Y2-S2-180K21,6,681,PS,exp,36,↓,left,←,0.48444189998554066,False,59,-1,0,8
Y2-S2-180K21,6,682,PS,exp,34,←,up,↑,0.501219099998707,False,60,-1,0,8
Y2-S2-180K21,6,683,PS,exp,37,→,right,→,0.5011842999956571,True,61,-1,0,8
Y2-S2-180K21,6,684,PS,exp,43,↓,left,←,0.5011690999963321,False,61,-1,0,8
Y2-S2-180K21,6,685,PS,exp,37,←,left,←,0.7012258000031579,True,62,-1,0,8
Y2-S2-180K21,6,686,PS,exp,38,↓,down,↓,0.5512708000023849,True,62,-1,0,8
Y2-S2-180K21,6,687,PS,exp,32,→,up,↑,0.4180408999964129,False,62,-1,0,8
Y2-S2-180K21,6,688,PS,exp,25,↑,right,→,0.4677134999947157,False,63,-1,0,8
Y2-S2-180K21,6,689,PS,exp,48,→,up,↑,0.18454290000954643,False,64,-1,0,8
Y2-S2-180K21,6,690,PS,exp,44,↓,down,↓,0.6679998000035994,True,65,-1,0,8
Y2-S2-180K21,6,691,PS,exp,32,→,right,→,0.5842987000069115,True,65,-1,0,8
Y2-S2-180K21,6,692,PS,exp,38,↑,up,↑,0.5343266999989282,True,65,1,1,9
Y2-S2-180K21,6,693,PS,exp,45,→,up,↑,0.4343540999980178,False,64,-1,1,10
Y2-S2-180K21,6,694,PS,exp,43,←,left,←,0.7011344999773428,True,65,-1,0,10
Y2-S2-180K21,6,695,PS,exp,34,→,right,→,0.5844896000053268,True,65,-1,0,10
Y2-S2-180K21,6,696,PS,exp,26,←,left,←,0.5845623000059277,True,65,1,1,11
Y2-S2-180K21,6,697,PS,exp,37,→,down,↓,0.40136200000415556,False,64,-1,1,12
Y2-S2-180K21,6,698,PS,exp,45,↑,up,↑,0.6843044000270311,True,65,-1,0,12
Y2-S2-180K21,6,699,PS,exp,41,→,right,→,0.784520799992606,True,65,-1,0,12
Y2-S2-180K21,6,700,PS,exp,46,↑,up,↑,0.7011376000009477,True,65,1,1,13
Y2-S2-180K21,6,701,PS,exp,39,←,down,↓,0.21779859997332096,False,64,-1,1,14
Y2-S2-180K21,6,702,PS,exp,48,→,left,←,0.3846424999937881,False,65,-1,0,14
Y2-S2-180K21,6,703,PS,exp,27,←,down,↓,0.1846201000153087,False,66,-1,0,14
Y2-S2-180K21,6,704,PS,exp,29,↑,up,↑,0.6678480000118725,True,67,-1,0,14
Y2-S2-180K21,6,705,PS,exp,43,↓,left,←,0.30126500001642853,False,67,-1,0,14
Y2-S2-180K21,6,706,PS,exp,25,←,left,←,0.5845000999979675,True,68,-1,0,14
Y2-S2-180K21,6,707,PS,exp,27,↑,up,↑,0.46810610001557507,True,68,-1,0,14
Y2-S2-180K21,6,708,PS,exp,30,←,left,←,0.5841278999869246,True,68,1,1,15
Y2-S2-180K21,6,709,PS,exp,32,↑,up,↑,0.5179357999877539,True,67,1,0,15
Y2-S2-180K21,6,710,PS,exp,40,→,left,←,0.35082160000456497,False,67,-1,1,16
Y2-S2-180K21,7,711,PS,intra_train,39,←,left,←,0.4005290000059176,True,16,-,-,-
Y2-S2-180K21,7,712,PS,intra_train,35,→,right,→,0.47422350000124425,True,16,-,-,-
Y2-S2-180K21,7,713,PS,intra_train,43,↓,down,↓,0.5001061999937519,True,16,-,-,-
Y2-S2-180K21,7,714,PS,intra_train,39,↑,up,↑,0.5392256999912206,True,16,-,-,-
Y2-S2-180K21,7,715,PS,intra_train,47,→,left,←,0.36736679999739863,False,16,-,-,-
Y2-S2-180K21,7,716,PS,exp,41,↑,down,↓,0.8472342000168283,False,11,-1,0,0
Y2-S2-180K21,7,717,PS,exp,42,↓,up,↑,0.453517699992517,False,12,-1,0,0
Y2-S2-180K21,7,718,PS,exp,43,→,left,←,0.5903921999852173,False,13,-1,0,0
Y2-S2-180K21,7,719,PS,exp,42,↓,left,←,0.31722259998787194,False,14,-1,0,0
Y2-S2-180K21,7,720,PS,exp,44,↑,up,↑,0.5398762999975588,True,15,-1,0,0
Y2-S2-180K21,7,721,PS,exp,48,←,left,←,0.481447099999059,True,15,-1,0,0
Y2-S2-180K21,7,722,PS,exp,46,↑,left,←,0.3672145000018645,False,15,-1,0,0
Y2-S2-180K21,7,723,PS,exp,38,→,right,→,0.6398613999772351,True,16,-1,0,0
Y2-S2-180K21,7,724,PS,exp,35,↓,down,↓,0.3836799999990035,True,16,-1,0,0
Y2-S2-180K21,7,725,PS,exp,50,→,up,↑,0.3505587999825366,False,16,-1,0,0
Y2-S2-180K21,7,726,PS,exp,37,↑,right,→,0.35058030000072904,False,17,-1,0,0
Y2-S2-180K21,7,727,PS,exp,28,←,up,↑,0.06794360000640154,False,18,-1,0,0
Y2-S2-180K21,7,728,PS,exp,43,→,up,↑,0.5346696999913547,False,19,-1,0,0
Y2-S2-180K21,7,729,PS,exp,32,←,right,→,0.5324072000221349,False,20,-1,0,0
Y2-S2-180K21,7,730,PS,exp,38,→,left,←,0.35035659998538904,False,21,-1,0,0
Y2-S2-180K21,7,731,PS,exp,29,↑,down,↓,0.9080377999925986,False,22,-1,0,0
Y2-S2-180K21,7,732,PS,exp,36,→,right,→,0.46710509998956695,True,23,-1,0,0
Y2-S2-180K21,7,733,PS,exp,50,↓,down,↓,0.6815369999967515,True,23,-1,0,0
Y2-S2-180K21,7,734,PS,exp,29,←,left,←,0.5919290999881923,True,23,1,1,1
Y2-S2-180K21,7,735,PS,exp,35,↓,no_key,no_letter,-1.0,False,22,-1,1,2
Y2-S2-180K21,7,736,PS,exp,47,←,right,→,0.06757059998926707,False,23,-1,0,2
Y2-S2-180K21,7,737,PS,exp,49,↓,right,→,0.35081559998798184,False,24,-1,0,2
Y2-S2-180K21,7,738,PS,exp,50,←,down,↓,0.2509972999978345,False,25,-1,0,2
Y2-S2-180K21,7,739,PS,exp,40,↑,up,↑,0.3844888000166975,True,26,-1,0,2
Y2-S2-180K21,7,740,PS,exp,34,←,down,↓,0.5504591999924742,False,26,-1,0,2
Y2-S2-180K21,7,741,PS,exp,25,↑,down,↓,0.06777870000223629,False,27,-1,0,2
Y2-S2-180K21,7,742,PS,exp,39,↓,down,↓,0.5004639999824576,True,28,-1,0,2
Y2-S2-180K21,7,743,PS,exp,34,←,left,←,0.7875006000103895,True,28,-1,0,2
Y2-S2-180K21,7,744,PS,exp,31,↑,up,↑,0.03383090000716038,True,28,1,1,3
Y2-S2-180K21,7,745,PS,exp,49,←,left,←,0.41779390000738204,True,27,1,0,3
Y2-S2-180K21,7,746,PS,exp,31,↓,down,↓,0.5669753999973182,True,27,1,0,3
Y2-S2-180K21,7,747,PS,exp,46,←,down,↓,0.0841262000030838,False,27,-1,1,4
Y2-S2-180K21,7,748,PS,exp,40,↓,left,←,0.33437930000945926,False,28,-1,0,4
Y2-S2-180K21,7,749,PS,exp,33,→,down,↓,0.38450600000214763,False,29,-1,0,4
Y2-S2-180K21,7,750,PS,exp,40,←,down,↓,0.21746350001194514,False,30,-1,0,4
Y2-S2-180K21,7,751,PS,exp,47,→,left,←,0.3679368000011891,False,31,-1,0,4
Y2-S2-180K21,7,752,PS,exp,36,←,right,→,0.5839234999730252,False,32,-1,0,4
Y2-S2-180K21,7,753,PS,exp,50,↑,left,←,0.2678256999934092,False,33,-1,0,4
Y2-S2-180K21,7,754,PS,exp,45,↓,up,↑,1.0364453000074718,False,34,-1,0,4
Y2-S2-180K21,7,755,PS,exp,31,↑,down,↓,0.351166500011459,False,35,-1,0,4
Y2-S2-180K21,7,756,PS,exp,33,↓,down,↓,0.38434309998410754,True,36,-1,0,4
Y2-S2-180K21,7,757,PS,exp,37,←,left,←,0.4836259000003338,True,36,-1,0,4
Y2-S2-180K21,7,758,PS,exp,30,→,right,→,0.4679331000079401,True,36,1,1,5
Y2-S2-180K21,7,759,PS,exp,38,↑,up,↑,0.33448889999999665,True,35,1,0,5
Y2-S2-180K21,7,760,PS,exp,42,←,left,←,0.5012582000053953,True,35,1,0,5
Y2-S2-180K21,7,761,PS,exp,50,→,right,→,0.5176484000112396,True,35,1,0,5
Y2-S2-180K21,7,762,PS,exp,25,↓,down,↓,0.8215970000019297,True,34,1,0,5
Y2-S2-180K21,7,763,PS,exp,39,→,right,→,0.5504742999910377,True,34,1,0,5
Y2-S2-180K21,7,764,PS,exp,47,←,left,←,0.7974727999826428,True,34,1,0,5
Y2-S2-180K21,7,765,PS,exp,45,↓,up,↑,0.28441880000173114,False,33,-1,1,6
Y2-S2-180K21,7,766,PS,exp,39,←,left,←,0.5672728999925312,True,34,-1,0,6
Y2-S2-180K21,7,767,PS,exp,30,↑,left,←,0.3179377000196837,False,34,-1,0,6
Y2-S2-180K21,7,768,PS,exp,38,↓,left,←,0.5839054999814834,False,35,-1,0,6
Y2-S2-180K21,7,769,PS,exp,35,↑,up,↑,0.45082430000184104,True,36,-1,0,6
Y2-S2-180K21,7,770,PS,exp,42,→,left,←,0.2678371999936644,False,36,-1,0,6
Y2-S2-180K21,7,771,PS,exp,30,↓,left,←,0.4678610000119079,False,37,-1,0,6
Y2-S2-180K21,7,772,PS,exp,39,→,left,←,0.4178457999951206,False,38,-1,0,6
Y2-S2-180K21,7,773,PS,exp,45,↓,up,↑,0.5511400999967009,False,39,-1,0,6
Y2-S2-180K21,7,774,PS,exp,32,→,up,↑,0.20107520002056845,False,40,-1,0,6
Y2-S2-180K21,7,775,PS,exp,31,←,left,←,0.45139830000698566,True,41,-1,0,6
Y2-S2-180K21,7,776,PS,exp,36,→,right,→,0.5678282000008039,True,41,-1,0,6
Y2-S2-180K21,7,777,PS,exp,33,↑,left,←,0.25104279999504797,False,41,-1,0,6
Y2-S2-180K21,7,778,PS,exp,43,←,left,←,0.534674399998039,True,42,-1,0,6
Y2-S2-180K21,7,779,PS,exp,46,→,up,↑,0.3509143999835942,False,42,-1,0,6
Y2-S2-180K21,7,780,PS,exp,36,↑,up,↑,0.33419100000173785,True,43,-1,0,6
Y2-S2-180K21,7,781,PS,exp,43,→,right,→,0.5512407000060193,True,43,-1,0,6
Y2-S2-180K21,7,782,PS,exp,29,←,right,→,0.40138139997725375,False,43,-1,0,6
Y2-S2-180K21,7,783,PS,exp,47,→,left,←,0.3513890999893192,False,44,-1,0,6
Y2-S2-180K21,7,784,PS,exp,45,←,right,→,0.43470719998003915,False,45,-1,0,6
Y2-S2-180K21,7,785,PS,exp,41,↑,left,←,0.017767899989848956,False,46,-1,0,6
Y2-S2-180K21,7,786,PS,exp,46,←,left,←,0.4676941999932751,True,47,-1,0,6
Y2-S2-180K21,7,787,PS,exp,31,↑,left,←,0.10115880001103505,False,47,-1,0,6
Y2-S2-180K21,7,788,PS,exp,43,↓,up,↑,0.38420850000693463,False,48,-1,0,6
Y2-S2-180K21,7,789,PS,exp,25,→,up,↑,0.651333199988585,False,49,-1,0,6
Y2-S2-180K21,7,790,PS,exp,35,↓,down,↓,0.5178825000184588,True,50,-1,0,6
Y2-S2-180K21,7,791,PS,exp,28,↑,up,↑,0.35128200001781806,True,50,-1,0,6
Y2-S2-180K21,7,792,PS,exp,41,←,left,←,0.43413190002320334,True,50,1,1,7
Y2-S2-180K21,7,793,PS,exp,49,↑,up,↑,0.301042300008703,True,49,1,0,7
Y2-S2-180K21,7,794,PS,exp,38,→,left,←,0.7177006999845617,False,49,-1,1,8
Y2-S2-180K21,7,795,PS,exp,29,↓,up,↑,0.7844539000070654,False,50,-1,0,8
Y2-S2-180K21,7,796,PS,exp,47,↑,up,↑,0.4511904999963008,True,51,-1,0,8
Y2-S2-180K21,7,797,PS,exp,31,←,left,←,0.417697800003225,True,51,-1,0,8
Y2-S2-180K21,7,798,PS,exp,29,↑,up,↑,0.41771609999705106,True,51,1,1,9
Y2-S2-180K21,7,799,PS,exp,47,→,right,→,0.6512492000183556,True,50,1,0,9
Y2-S2-180K21,7,800,PS,exp,50,↑,up,↑,0.4178525000170339,True,50,1,0,9
Y2-S2-180K21,7,801,PS,exp,26,↓,right,→,0.6844008000043686,False,50,-1,1,10
Y2-S2-180K21,7,802,PS,exp,35,←,left,←,0.5846441000176128,True,51,-1,0,10
Y2-S2-180K21,7,803,PS,exp,41,↓,down,↓,0.6176648999971803,True,51,-1,0,10
Y2-S2-180K21,7,804,PS,exp,50,→,left,←,0.5011580999998841,False,51,-1,0,10
Y2-S2-180K21,7,805,PS,exp,40,←,right,→,0.7345193999935873,False,52,-1,0,10
Y2-S2-180K21,7,806,PS,exp,25,↓,down,↓,0.9006387999979779,True,53,-1,0,10
Y2-S2-180K21,7,807,PS,exp,36,←,left,←,0.5511202000197954,True,53,-1,0,10
Y2-S2-180K21,7,808,PS,exp,26,↓,down,↓,0.5844864000100642,True,53,1,1,11
Y2-S2-180K21,7,809,PS,exp,34,↑,up,↑,0.4842130000179168,True,52,1,0,11
Y2-S2-180K21,7,810,PS,exp,32,→,right,→,0.5510340000037104,True,52,1,0,11
Y2-S2-180K21,7,811,PS,exp,26,↑,up,↑,0.4843252999999095,True,52,1,0,11
Y2-S2-180K21,7,812,PS,exp,31,↓,down,↓,0.5177822000114247,True,51,1,0,11
Y2-S2-180K21,7,813,PS,exp,46,↑,up,↑,0.4844784000015352,True,51,1,0,11
Y2-S2-180K21,7,814,PS,exp,43,←,left,←,0.4009154999803286,True,51,1,0,11
Y2-S2-180K21,7,815,PS,exp,46,→,right,→,0.5177699000050779,True,50,1,0,11
Y2-S2-180K21,7,816,PS,exp,30,↓,down,↓,0.7677191999973729,True,50,1,0,11
Y2-S2-180K21,7,817,PS,exp,50,←,left,←,0.45095570001285523,True,50,1,0,11
Y2-S2-180K21,7,818,PS,exp,35,↓,down,↓,0.5842627999954857,True,49,1,0,11
Y2-S2-180K21,7,819,PS,exp,30,←,left,←,0.8342797999794129,True,49,1,0,11
Y2-S2-180K21,7,820,PS,exp,38,↑,up,↑,0.4514545999991242,True,49,1,0,11
Y2-S2-180K21,7,821,PS,exp,33,↓,down,↓,0.6178131000197027,True,48,1,0,11
Y2-S2-180K21,7,822,PS,exp,29,←,left,←,0.5178310999763198,True,48,1,0,11
Y2-S2-180K21,7,823,PS,exp,37,↓,down,↓,0.8506309999793302,True,48,1,0,11
Y2-S2-180K21,7,824,PS,exp,26,←,up,↑,0.4678662000223994,False,47,-1,1,12
Y2-S2-180K21,7,825,PS,exp,33,↓,down,↓,0.45133540002279915,True,48,-1,0,12
Y2-S2-180K21,7,826,PS,exp,35,→,right,→,0.4677038999798242,True,48,-1,0,12
Y2-S2-180K21,7,827,PS,exp,49,↓,down,↓,0.467762300017057,True,48,1,1,13
Y2-S2-180K21,7,828,PS,exp,25,↑,up,↑,0.6503414000035264,True,47,1,0,13
Y2-S2-180K21,7,829,PS,exp,34,↓,down,↓,0.6848813999968115,True,47,1,0,13
Y2-S2-180K21,7,830,PS,exp,38,←,left,←,0.6843523000134155,True,47,1,0,13
Y2-S2-180K21,7,831,PS,exp,32,↓,down,↓,0.5178799999994226,True,46,1,0,13
Y2-S2-180K21,7,832,PS,exp,25,↑,up,↑,0.36707949999254197,True,46,1,0,13
Y2-S2-180K21,7,833,PS,exp,46,↓,down,↓,0.6841387999884319,True,46,1,0,13
Y2-S2-180K21,7,834,PS,exp,49,←,left,←,0.43435940000927076,True,45,1,0,13
Y2-S2-180K21,7,835,PS,exp,32,↑,left,←,0.4012533000204712,False,45,-1,1,14
Y2-S2-180K21,7,836,PS,exp,26,↓,down,↓,0.4510174000170082,True,46,-1,0,14
Y2-S2-180K21,7,837,PS,exp,45,→,right,→,0.5177517000120133,True,46,-1,0,14
Y2-S2-180K21,7,838,PS,exp,46,↓,down,↓,0.5346049999934621,True,46,1,1,15
Y2-S2-180K21,7,839,PS,exp,50,→,right,→,0.5011906999861822,True,45,1,0,15
Y2-S2-180K21,7,840,PS,exp,42,←,left,←,0.6677447000110988,True,45,1,0,15
Y2-S2-180K21,7,841,PS,exp,43,↓,down,↓,0.6843370999849867,True,45,1,0,15
Y2-S2-180K21,7,842,PS,exp,44,←,left,←,0.4681420000270009,True,44,1,0,15
Y2-S2-180K21,7,843,PS,exp,37,↑,up,↑,0.5680655000032857,True,44,1,0,15
Y2-S2-180K21,7,844,PS,exp,46,←,left,←,0.5510619999840856,True,44,1,0,15
Y2-S2-180K21,7,845,PS,exp,25,↑,up,↑,0.48438330000499263,True,43,1,0,15
Y2-S2-180K21,7,846,PS,exp,38,→,right,→,0.6347371999872848,True,43,1,0,15
Y2-S2-180K21,7,847,PS,exp,29,↑,up,↑,0.4509826999856159,True,43,1,0,15
Y2-S2-180K21,7,848,PS,exp,39,↓,down,↓,0.6677393999998458,True,42,1,0,15
Y2-S2-180K21,7,849,PS,exp,43,←,left,←,0.7174533999932464,True,42,1,0,15
Y2-S2-180K21,7,850,PS,exp,29,↑,up,↑,0.9549386000144295,True,42,1,0,15
Y2-S2-180K21,7,851,PS,exp,30,↓,down,↓,0.4512713000003714,True,41,1,0,15
Y2-S2-180K21,7,852,PS,exp,25,→,right,→,0.4344691000005696,True,41,1,0,15
Y2-S2-180K21,7,853,PS,exp,33,↑,down,↓,0.517880100000184,False,41,-1,1,16
Y2-S2-180K21,8,854,AS,intra_train,49,←,left,←,0.9958776000130456,True,34,-,-,-
Y2-S2-180K21,8,855,AS,intra_train,45,→,right,→,1.4875338999845553,True,34,-,-,-
Y2-S2-180K21,8,856,AS,intra_train,28,↑,up,↑,0.4675042000017129,True,34,-,-,-
Y2-S2-180K21,8,857,AS,intra_train,32,→,right,→,0.4844034000125248,True,34,-,-,-
Y2-S2-180K21,8,858,AS,intra_train,44,↑,up,↑,0.6674583999847528,True,34,-,-,-
Y2-S2-180K21,8,859,AS,exp,37,→,right,→,0.7827306999824941,True,23,0,0,0
Y2-S2-180K21,8,860,AS,exp,38,↑,up,↑,1.1493709000060335,True,23,0,0,0
Y2-S2-180K21,8,861,AS,exp,32,→,up,↑,0.28455229999963194,False,23,-1,0,0
Y2-S2-180K21,8,862,AS,exp,32,←,up,↑,0.36690470000030473,False,24,-1,0,0
Y2-S2-180K21,8,863,AS,exp,42,↓,left,←,0.15120130000286736,False,25,-1,0,0
Y2-S2-180K21,8,864,AS,exp,35,↑,right,→,0.31767210000543855,False,26,-1,0,0
Y2-S2-180K21,8,865,AS,exp,42,↓,up,↑,1.165047799993772,False,27,-1,0,0
Y2-S2-180K21,8,866,AS,exp,28,→,right,→,1.3695856999838725,True,28,-1,0,0
Y2-S2-180K21,8,867,AS,exp,26,↑,up,↑,0.5673461999977008,True,28,-1,0,0
Y2-S2-180K21,8,868,AS,exp,37,←,left,←,0.8261632000212558,True,28,1,1,1
Y2-S2-180K21,8,869,AS,exp,26,↑,up,↑,0.8802258999785408,True,27,1,0,1
Y2-S2-180K21,8,870,AS,exp,40,←,up,↑,0.36790579999797046,False,27,-1,1,2
Y2-S2-180K21,8,871,AS,exp,38,→,left,←,0.5172652000037488,False,28,-1,0,2
Y2-S2-180K21,8,872,AS,exp,30,↑,left,←,1.8338828000123613,False,29,-1,0,2
Y2-S2-180K21,8,873,AS,exp,31,←,left,←,0.284610500006238,True,30,-1,0,2
Y2-S2-180K21,8,874,AS,exp,41,→,left,←,0.03440890001365915,False,30,-1,0,2
Y2-S2-180K21,8,875,AS,exp,31,↑,right,→,0.0010714999807532877,False,31,-1,0,2
Y2-S2-180K21,8,876,AS,exp,32,←,left,←,0.500924899999518,True,32,-1,0,2
Y2-S2-180K21,8,877,AS,exp,38,→,left,←,0.35111700001289137,False,32,-1,0,2
Y2-S2-180K21,8,878,AS,exp,41,↓,right,→,0.3842156999744475,False,33,-1,0,2
Y2-S2-180K21,8,879,AS,exp,26,↑,down,↓,0.4344874000234995,False,34,-1,0,2
Y2-S2-180K21,8,880,AS,exp,31,↓,down,↓,0.3842819999845233,True,35,-1,0,2
Y2-S2-180K21,8,881,AS,exp,48,→,up,↑,0.4346873000031337,False,35,-1,0,2
Y2-S2-180K21,8,882,AS,exp,43,↓,up,↑,0.5676027999725193,False,36,-1,0,2
Y2-S2-180K21,8,883,AS,exp,27,↑,left,←,0.23445290001109242,False,37,-1,0,2
Y2-S2-180K21,8,884,AS,exp,50,→,up,↑,0.1843691999965813,False,38,-1,0,2
Y2-S2-180K21,8,885,AS,exp,50,←,left,←,1.166169899981469,True,39,-1,0,2
Y2-S2-180K21,8,886,AS,exp,28,↓,up,↑,0.6838053000101354,False,39,-1,0,2
Y2-S2-180K21,8,887,AS,exp,50,↑,right,→,0.3177600000053644,False,40,-1,0,2
Y2-S2-180K21,8,888,AS,exp,25,↓,up,↑,0.38444090000120923,False,41,-1,0,2
Y2-S2-180K21,8,889,AS,exp,26,↑,down,↓,0.03448999999091029,False,42,-1,0,2
Y2-S2-180K21,8,890,AS,exp,35,←,left,←,0.4844079000176862,True,43,-1,0,2
Y2-S2-180K21,8,891,AS,exp,38,↑,down,↓,0.6677694999962114,False,43,-1,0,2
Y2-S2-180K21,8,892,AS,exp,44,→,right,→,0.700769000017317,True,44,-1,0,2
Y2-S2-180K21,8,893,AS,exp,46,↑,up,↑,0.4679197999939788,True,44,-1,0,2
Y2-S2-180K21,8,894,AS,exp,32,↓,down,↓,0.46770319997449405,True,44,1,1,3
Y2-S2-180K21,8,895,AS,exp,44,↑,down,↓,0.5177994999976363,False,43,-1,1,4
Y2-S2-180K21,8,896,AS,exp,41,←,left,←,0.43444670000462793,True,44,-1,0,4
Y2-S2-180K21,8,897,AS,exp,44,→,right,→,0.6677596000081394,True,44,-1,0,4
Y2-S2-180K21,8,898,AS,exp,35,←,left,←,0.5677381999848876,True,44,1,1,5
Y2-S2-180K21,8,899,AS,exp,45,↑,down,↓,0.5342072999919765,False,43,-1,1,6
Y2-S2-180K21,8,900,AS,exp,43,←,left,←,0.2679813999857288,True,44,-1,0,6
Y2-S2-180K21,8,901,AS,exp,25,↑,up,↑,0.8004413000016939,True,44,-1,0,6
Y2-S2-180K21,8,902,AS,exp,27,↓,down,↓,0.2009232999989763,True,44,1,1,7
Y2-S2-180K21,8,903,AS,exp,26,←,left,←,0.5342602000164334,True,43,1,0,7
Y2-S2-180K21,8,904,AS,exp,27,→,right,→,0.6842785000044387,True,43,1,0,7
Y2-S2-180K21,8,905,AS,exp,33,↓,down,↓,0.35150180000346154,True,43,1,0,7
Y2-S2-180K21,8,906,AS,exp,36,→,left,←,0.6011704000120517,False,42,-1,1,8
Y2-S2-180K21,8,907,AS,exp,40,↓,up,↑,0.35108880000188947,False,43,-1,0,8
Y2-S2-180K21,8,908,AS,exp,40,←,down,↓,0.5511360999953467,False,44,-1,0,8
Y2-S2-180K21,8,909,AS,exp,48,↓,left,←,1.5260179000033531,False,45,-1,0,8
Y2-S2-180K21,8,910,AS,exp,34,←,left,←,0.33446810001623817,True,46,-1,0,8
Y2-S2-180K21,8,911,AS,exp,29,↑,up,↑,0.6178891999879852,True,46,-1,0,8
Y2-S2-180K21,8,912,AS,exp,48,←,down,↓,0.23448590000043623,False,46,-1,0,8
Y2-S2-180K21,8,913,AS,exp,48,↓,right,→,0.4845633000077214,False,47,-1,0,8
Y2-S2-180K21,8,914,AS,exp,30,↑,down,↓,0.5178990999993403,False,48,-1,0,8
Y2-S2-180K21,8,915,AS,exp,31,↓,down,↓,1.00083150001592,True,49,-1,0,8
Y2-S2-180K21,8,916,AS,exp,39,↑,up,↑,0.7012063000001945,True,49,-1,0,8
Y2-S2-180K21,8,917,AS,exp,38,→,right,→,0.46777970000403,True,49,1,1,9
Y2-S2-180K21,8,918,AS,exp,35,↓,down,↓,0.6843716000148561,True,48,1,0,9
Y2-S2-180K21,8,919,AS,exp,47,↑,up,↑,1.0337776000087615,True,48,1,0,9
Y2-S2-180K21,8,920,AS,exp,45,→,right,→,0.43439199999556877,True,48,1,0,9
Y2-S2-180K21,8,921,AS,exp,29,←,down,↓,0.9007203000073787,False,47,-1,1,10
Y2-S2-180K21,8,922,AS,exp,27,↓,up,↑,0.30106500000692904,False,48,-1,0,10
Y2-S2-180K21,8,923,AS,exp,39,↑,up,↑,0.3846058999770321,True,49,-1,0,10
Y2-S2-180K21,8,924,AS,exp,37,↓,up,↑,0.7179183000116609,False,49,-1,0,10
Y2-S2-180K21,8,925,AS,exp,34,↑,left,←,1.5595601000241004,False,50,-1,0,10
Y2-S2-180K21,8,926,AS,exp,42,↓,down,↓,0.317848500009859,True,51,-1,0,10
Y2-S2-180K21,8,927,AS,exp,47,↑,up,↑,0.8012302999850363,True,51,-1,0,10
Y2-S2-180K21,8,928,AS,exp,47,↓,down,↓,0.9004242999944836,True,51,1,1,11
Y2-S2-180K21,8,929,AS,exp,50,←,left,←,0.8170494999794755,True,50,1,0,11
Y2-S2-180K21,8,930,AS,exp,36,↓,right,→,0.35105539998039603,False,50,-1,1,12
Y2-S2-180K21,8,931,AS,exp,45,→,up,↑,0.5176224000169896,False,51,-1,0,12
Y2-S2-180K21,8,932,AS,exp,49,←,left,←,0.6344353999884333,True,52,-1,0,12
Y2-S2-180K21,8,933,AS,exp,31,↑,down,↓,1.0005304999940563,False,52,-1,0,12
Y2-S2-180K21,8,934,AS,exp,26,←,right,→,1.2335146999976132,False,53,-1,0,12
Y2-S2-180K21,8,935,AS,exp,35,→,right,→,0.5010770999942906,True,54,-1,0,12
Y2-S2-180K21,8,936,AS,exp,44,←,left,←,0.6174138999776915,True,54,-1,0,12
Y2-S2-180K21,8,937,AS,exp,26,↑,up,↑,0.534869199997047,True,54,1,1,13
Y2-S2-180K21,8,938,AS,exp,33,←,right,→,0.5844457999919541,False,53,-1,1,14
Y2-S2-180K21,8,939,AS,exp,45,↓,left,←,0.3012213999754749,False,54,-1,0,14
Y2-S2-180K21,8,940,AS,exp,30,→,up,↑,0.6179950000077952,False,55,-1,0,14
Y2-S2-180K21,8,941,AS,exp,32,↓,down,↓,0.7342839999764692,True,56,-1,0,14
Y2-S2-180K21,8,942,AS,exp,44,←,left,←,0.717761200008681,True,56,-1,0,14
Y2-S2-180K21,8,943,AS,exp,27,↓,down,↓,0.6012170999892987,True,56,1,1,15
Y2-S2-180K21,8,944,AS,exp,25,↑,up,↑,0.45128100001602434,True,55,1,0,15
Y2-S2-180K21,8,945,AS,exp,44,↓,down,↓,0.5176319000020158,True,55,1,0,15
Y2-S2-180K21,8,946,AS,exp,37,←,left,←,0.46791159998974763,True,55,1,0,15
Y2-S2-180K21,8,947,AS,exp,34,↑,up,↑,0.6012295999971684,True,54,1,0,15
Y2-S2-180K21,8,948,AS,exp,39,↓,down,↓,0.5348199000000022,True,54,1,0,15
Y2-S2-180K21,8,949,AS,exp,36,→,right,→,0.6675747999979649,True,54,1,0,15
Y2-S2-180K21,8,950,AS,exp,50,↓,down,↓,0.5011052000045311,True,53,1,0,15
Y2-S2-180K21,8,951,AS,exp,26,←,left,←,0.7510378999868408,True,53,1,0,15
Y2-S2-180K21,8,952,AS,exp,50,↑,up,↑,0.8512398999882862,True,53,1,0,15
Y2-S2-180K21,8,953,AS,exp,26,→,left,←,0.6845023999921978,False,52,-1,1,16
