PART_ID,Block_no,Trial_no,Block_type,Trial_type,CSI,Stim_letter,Key_pressed,letter_choose,Rt,Corr,Stimulus Time,Level,Reversal,Revs_count
Y2-S2-266K22,1,1,PS,train,25,↑,up,↑,0.6002299999818206,True,30,-,-,-
Y2-S2-266K22,1,2,PS,train,28,→,right,→,0.6006283001042902,True,30,-,-,-
Y2-S2-266K22,1,3,PS,train,35,←,left,←,0.5502963997423649,True,30,-,-,-
Y2-S2-266K22,1,4,PS,train,32,↑,up,↑,0.6008482999168336,True,30,-,-,-
Y2-S2-266K22,1,5,PS,train,33,↓,down,↓,1.0872246995568275,True,30,-,-,-
Y2-S2-266K22,1,6,PS,train,45,→,right,→,1.6688711000606418,True,30,-,-,-
Y2-S2-266K22,1,7,PS,train,43,←,left,←,1.1870472999289632,True,30,-,-,-
Y2-S2-266K22,1,8,PS,train,33,→,right,→,0.9642083998769522,True,30,-,-,-
Y2-S2-266K22,1,9,PS,train,49,↓,down,↓,1.0048883999697864,True,30,-,-,-
Y2-S2-266K22,1,10,PS,train,30,↑,up,↑,0.794401400256902,True,30,-,-,-
Y2-S2-266K22,2,11,AS,train,42,←,left,←,0.973221099935472,True,45,-,-,-
Y2-S2-266K22,2,12,AS,train,26,→,right,→,1.1139159998856485,True,45,-,-,-
Y2-S2-266K22,2,13,AS,train,45,←,left,←,1.1444677002727985,True,45,-,-,-
Y2-S2-266K22,2,14,AS,train,30,→,right,→,0.9940867000259459,True,45,-,-,-
Y2-S2-266K22,2,15,AS,train,40,←,left,←,0.9641222003847361,True,45,-,-,-
Y2-S2-266K22,2,16,AS,train,42,→,right,→,0.5677664000540972,True,45,-,-,-
Y2-S2-266K22,2,17,AS,train,42,←,left,←,0.8506334000267088,True,45,-,-,-
Y2-S2-266K22,2,18,AS,train,41,↓,down,↓,1.135944599751383,True,45,-,-,-
Y2-S2-266K22,2,19,AS,train,41,→,right,→,1.1507314001210034,True,45,-,-,-
Y2-S2-266K22,2,20,AS,train,38,↓,down,↓,1.2554779998026788,True,45,-,-,-
Y2-S2-266K22,-,21,PS,adaptive,43,→,right,→,0.6267107999883592,True,10,0,0,0
Y2-S2-266K22,-,22,PS,adaptive,27,↓,right,→,0.9580056997947395,False,10,-1,0,0
Y2-S2-266K22,-,23,PS,adaptive,28,↑,up,↑,0.6186315999366343,True,11,-1,0,0
Y2-S2-266K22,-,24,PS,adaptive,28,→,right,→,0.6481638997793198,True,11,-1,0,0
Y2-S2-266K22,-,25,PS,adaptive,42,↓,down,↓,0.5860840999521315,True,11,1,1,1
Y2-S2-266K22,-,26,PS,adaptive,34,→,left,←,0.9023430999368429,False,10,-1,1,2
Y2-S2-266K22,-,27,PS,adaptive,27,↓,down,↓,0.7094942000694573,True,11,-1,0,2
Y2-S2-266K22,-,28,PS,adaptive,36,→,right,→,0.5877598999068141,True,11,-1,0,2
Y2-S2-266K22,-,29,PS,adaptive,40,←,left,←,0.8241773997433484,True,11,1,1,3
Y2-S2-266K22,-,30,PS,adaptive,29,→,right,→,0.8347940002568066,True,10,1,0,3
Y2-S2-266K22,-,31,PS,adaptive,31,↓,down,↓,0.5811360999941826,True,10,1,0,3
Y2-S2-266K22,-,32,PS,adaptive,40,↑,down,↓,0.8346263999119401,False,10,-1,1,4
Y2-S2-266K22,-,33,AS,adaptive,42,↓,down,↓,0.8387150000780821,True,20,0,0,0
Y2-S2-266K22,-,34,AS,adaptive,37,→,right,→,0.5790981999598444,True,20,0,0,0
Y2-S2-266K22,-,35,AS,adaptive,35,↑,up,↑,0.6467536999844015,True,20,1,0,0
Y2-S2-266K22,-,36,AS,adaptive,30,←,left,←,0.5602387003600597,True,19,1,0,0
Y2-S2-266K22,-,37,AS,adaptive,38,↓,down,↓,0.667092100251466,True,19,1,0,0
Y2-S2-266K22,-,38,AS,adaptive,38,↑,up,↑,0.8802025001496077,True,19,1,0,0
Y2-S2-266K22,-,39,AS,adaptive,46,↓,right,→,1.1596634001471102,False,18,-1,1,1
Y2-S2-266K22,-,40,AS,adaptive,33,←,left,←,0.7896721996366978,True,19,-1,0,1
Y2-S2-266K22,-,41,AS,adaptive,31,→,right,→,0.6828246996738017,True,19,-1,0,1
Y2-S2-266K22,-,42,AS,adaptive,48,↓,down,↓,0.6260676998645067,True,19,1,1,2
Y2-S2-266K22,-,43,AS,adaptive,36,↑,up,↑,1.0246970998123288,True,18,1,0,2
Y2-S2-266K22,-,44,AS,adaptive,32,↓,down,↓,0.5620194002985954,True,18,1,0,2
Y2-S2-266K22,-,45,AS,adaptive,28,↑,up,↑,0.5945128998719156,True,18,1,0,2
Y2-S2-266K22,-,46,AS,adaptive,50,→,right,→,0.6058605001308024,True,17,1,0,2
Y2-S2-266K22,-,47,AS,adaptive,32,↑,right,→,1.0828986000269651,False,17,-1,1,3
Y2-S2-266K22,-,48,AS,adaptive,31,←,left,←,0.7757195001468062,True,18,-1,0,3
Y2-S2-266K22,-,49,AS,adaptive,30,↑,up,↑,0.6450998997315764,True,18,-1,0,3
Y2-S2-266K22,-,50,AS,adaptive,46,←,left,←,0.7690349998883903,True,18,1,1,4
Y2-S2-266K22,1,51,PS,intra_train,28,→,right,→,0.5583790000528097,True,16,-,-,-
Y2-S2-266K22,1,52,PS,intra_train,33,↑,up,↑,0.6203381000086665,True,16,-,-,-
Y2-S2-266K22,1,53,PS,intra_train,34,↓,right,→,0.8561163004487753,False,16,-,-,-
Y2-S2-266K22,1,54,PS,intra_train,37,↑,up,↑,0.6125940000638366,True,16,-,-,-
Y2-S2-266K22,1,55,PS,intra_train,43,→,right,→,0.5779504999518394,True,16,-,-,-
Y2-S2-266K22,1,56,PS,exp,28,↑,up,↑,0.7804119996726513,True,11,0,0,0
Y2-S2-266K22,1,57,PS,exp,31,←,right,→,0.7265132996253669,False,11,-1,0,0
Y2-S2-266K22,1,58,PS,exp,48,↓,up,↑,0.8166196001693606,False,12,-1,0,0
Y2-S2-266K22,1,59,PS,exp,25,→,right,→,0.649278599768877,True,13,-1,0,0
Y2-S2-266K22,1,60,PS,exp,49,↓,down,↓,0.9839448998682201,True,13,-1,0,0
Y2-S2-266K22,1,61,PS,exp,48,→,right,→,0.45195520017296076,True,13,1,1,1
Y2-S2-266K22,1,62,PS,exp,34,↓,down,↓,0.5383009002543986,True,12,1,0,1
Y2-S2-266K22,1,63,PS,exp,37,←,left,←,0.6276837000623345,True,12,1,0,1
Y2-S2-266K22,1,64,PS,exp,43,↑,up,↑,0.6101717003621161,True,12,1,0,1
Y2-S2-266K22,1,65,PS,exp,35,↓,down,↓,0.5781772998161614,True,11,1,0,1
Y2-S2-266K22,1,66,PS,exp,37,←,left,←,0.5398773001506925,True,11,1,0,1
Y2-S2-266K22,1,67,PS,exp,42,↑,up,↑,0.8010578998364508,True,11,1,0,1
Y2-S2-266K22,1,68,PS,exp,42,←,left,←,0.5187512999400496,True,10,1,0,1
Y2-S2-266K22,1,69,PS,exp,41,→,right,→,0.49067500000819564,True,10,1,0,1
Y2-S2-266K22,1,70,PS,exp,45,←,left,←,0.566640299744904,True,10,1,0,1
Y2-S2-266K22,1,71,PS,exp,39,↑,down,↓,1.220891600009054,False,9,-1,1,2
Y2-S2-266K22,1,72,PS,exp,42,←,left,←,0.6268458999693394,True,10,-1,0,2
Y2-S2-266K22,1,73,PS,exp,41,↓,down,↓,0.5718364003114402,True,10,-1,0,2
Y2-S2-266K22,1,74,PS,exp,50,←,right,→,0.9990138001739979,False,10,-1,0,2
Y2-S2-266K22,1,75,PS,exp,47,↑,up,↑,0.6246608002111316,True,11,-1,0,2
Y2-S2-266K22,1,76,PS,exp,49,↓,down,↓,0.6990681001916528,True,11,-1,0,2
Y2-S2-266K22,1,77,PS,exp,46,↑,down,↓,0.8636705996468663,False,11,-1,0,2
Y2-S2-266K22,1,78,PS,exp,36,→,right,→,0.5828796997666359,True,12,-1,0,2
Y2-S2-266K22,1,79,PS,exp,35,↓,down,↓,0.64497089991346,True,12,-1,0,2
Y2-S2-266K22,1,80,PS,exp,47,↑,down,↓,0.688169099856168,False,12,-1,0,2
Y2-S2-266K22,1,81,PS,exp,33,→,right,→,0.5810242001898587,True,13,-1,0,2
Y2-S2-266K22,1,82,PS,exp,44,↑,up,↑,0.5967476000078022,True,13,-1,0,2
Y2-S2-266K22,1,83,PS,exp,33,←,left,←,0.5973934000357985,True,13,1,1,3
Y2-S2-266K22,1,84,PS,exp,29,→,right,→,0.4556248998269439,True,12,1,0,3
Y2-S2-266K22,1,85,PS,exp,43,←,left,←,0.8662066999822855,True,12,1,0,3
Y2-S2-266K22,1,86,PS,exp,32,↑,up,↑,0.463192000053823,True,12,1,0,3
Y2-S2-266K22,1,87,PS,exp,31,↓,down,↓,0.582262999843806,True,11,1,0,3
Y2-S2-266K22,1,88,PS,exp,35,↑,up,↑,0.6968683996237814,True,11,1,0,3
Y2-S2-266K22,1,89,PS,exp,45,←,left,←,0.6975467000156641,True,11,1,0,3
Y2-S2-266K22,1,90,PS,exp,27,↑,up,↑,0.6454950999468565,True,10,1,0,3
Y2-S2-266K22,1,91,PS,exp,30,→,right,→,0.658706699963659,True,10,1,0,3
Y2-S2-266K22,1,92,PS,exp,26,↓,left,←,0.7197990999557078,False,10,-1,1,4
Y2-S2-266K22,1,93,PS,exp,50,→,right,→,0.7101386999711394,True,11,-1,0,4
Y2-S2-266K22,1,94,PS,exp,30,←,left,←,0.6162463999353349,True,11,-1,0,4
Y2-S2-266K22,1,95,PS,exp,45,↓,down,↓,0.5724545000120997,True,11,1,1,5
Y2-S2-266K22,1,96,PS,exp,46,↑,up,↑,0.6190510001033545,True,10,1,0,5
Y2-S2-266K22,1,97,PS,exp,40,↓,down,↓,0.606831300072372,True,10,1,0,5
Y2-S2-266K22,1,98,PS,exp,28,→,right,→,0.5580795998685062,True,10,1,0,5
Y2-S2-266K22,1,99,PS,exp,38,←,left,←,0.5391270001418889,True,9,1,0,5
Y2-S2-266K22,1,100,PS,exp,38,↓,down,↓,0.5546012003906071,True,9,1,0,5
Y2-S2-266K22,1,101,PS,exp,50,←,left,←,0.5869537997059524,True,9,1,0,5
Y2-S2-266K22,1,102,PS,exp,42,↓,down,↓,0.4931308003142476,True,8,1,0,5
Y2-S2-266K22,1,103,PS,exp,41,→,down,↓,0.5249700001440942,False,8,-1,1,6
Y2-S2-266K22,1,104,PS,exp,35,↓,down,↓,0.4844065997749567,True,9,-1,0,6
Y2-S2-266K22,1,105,PS,exp,41,→,right,→,0.5139832999557257,True,9,-1,0,6
Y2-S2-266K22,1,106,PS,exp,32,←,left,←,0.5888932999223471,True,9,1,1,7
Y2-S2-266K22,1,107,PS,exp,40,↓,down,↓,0.5800840998999774,True,8,1,0,7
Y2-S2-266K22,1,108,PS,exp,46,↑,up,↑,0.5278822998516262,True,8,1,0,7
Y2-S2-266K22,1,109,PS,exp,45,↓,right,→,0.5120466998778284,False,8,-1,1,8
Y2-S2-266K22,1,110,PS,exp,37,←,left,←,0.4190928996540606,True,9,-1,0,8
Y2-S2-266K22,1,111,PS,exp,44,→,left,←,0.6086932998150587,False,9,-1,0,8
Y2-S2-266K22,1,112,PS,exp,49,↓,down,↓,0.522787599824369,True,10,-1,0,8
Y2-S2-266K22,1,113,PS,exp,34,↑,up,↑,0.5354483001865447,True,10,-1,0,8
Y2-S2-266K22,1,114,PS,exp,50,↓,down,↓,0.7548829996958375,True,10,1,1,9
Y2-S2-266K22,1,115,PS,exp,34,←,left,←,0.519627199973911,True,9,1,0,9
Y2-S2-266K22,1,116,PS,exp,39,→,left,←,0.5196278002113104,False,9,-1,1,10
Y2-S2-266K22,1,117,PS,exp,27,←,left,←,0.589463499840349,True,10,-1,0,10
Y2-S2-266K22,1,118,PS,exp,39,↑,left,←,0.5843958002515137,False,10,-1,0,10
Y2-S2-266K22,1,119,PS,exp,26,←,left,←,0.45988230034708977,True,11,-1,0,10
Y2-S2-266K22,1,120,PS,exp,29,→,right,→,0.5104094999842346,True,11,-1,0,10
Y2-S2-266K22,1,121,PS,exp,33,↓,down,↓,0.5469146999530494,True,11,1,1,11
Y2-S2-266K22,1,122,PS,exp,50,↑,up,↑,0.5680716000497341,True,10,1,0,11
Y2-S2-266K22,1,123,PS,exp,32,←,right,→,0.5938800000585616,False,10,-1,1,12
Y2-S2-266K22,1,124,PS,exp,34,→,right,→,0.4266873998567462,True,11,-1,0,12
Y2-S2-266K22,1,125,PS,exp,37,↓,down,↓,0.7826966000720859,True,11,-1,0,12
Y2-S2-266K22,1,126,PS,exp,48,←,left,←,0.5615693000145257,True,11,1,1,13
Y2-S2-266K22,1,127,PS,exp,35,↓,down,↓,0.612253800034523,True,10,1,0,13
Y2-S2-266K22,1,128,PS,exp,27,←,left,←,0.4933825000189245,True,10,1,0,13
Y2-S2-266K22,1,129,PS,exp,42,↓,down,↓,0.6111325998790562,True,10,1,0,13
Y2-S2-266K22,1,130,PS,exp,32,→,right,→,0.5068989000283182,True,9,1,0,13
Y2-S2-266K22,1,131,PS,exp,40,↓,down,↓,0.5776935997419059,True,9,1,0,13
Y2-S2-266K22,1,132,PS,exp,39,↑,up,↑,0.5611505000852048,True,9,1,0,13
Y2-S2-266K22,1,133,PS,exp,42,↓,right,→,0.5354724996723235,False,8,-1,1,14
Y2-S2-266K22,1,134,PS,exp,43,←,right,→,0.5730326999910176,False,9,-1,0,14
Y2-S2-266K22,1,135,PS,exp,28,→,right,→,0.5379520002752542,True,10,-1,0,14
Y2-S2-266K22,1,136,PS,exp,26,←,left,←,0.5890063997358084,True,10,-1,0,14
Y2-S2-266K22,1,137,PS,exp,36,→,right,→,0.4372359002009034,True,10,1,1,15
Y2-S2-266K22,1,138,PS,exp,33,↑,right,→,0.685822400264442,False,9,-1,1,16
Y2-S2-266K22,2,139,AS,intra_train,45,↓,down,↓,0.8089052001014352,True,25,-,-,-
Y2-S2-266K22,2,140,AS,intra_train,29,→,right,→,0.5003534997813404,True,25,-,-,-
Y2-S2-266K22,2,141,AS,intra_train,44,↑,up,↑,0.8685987996868789,True,25,-,-,-
Y2-S2-266K22,2,142,AS,intra_train,48,↓,down,↓,0.6851535998284817,True,25,-,-,-
Y2-S2-266K22,2,143,AS,intra_train,37,→,right,→,0.8071677000261843,True,25,-,-,-
Y2-S2-266K22,2,144,AS,exp,25,↓,down,↓,0.9401750001125038,True,17,0,0,0
Y2-S2-266K22,2,145,AS,exp,34,←,left,←,0.6700265998952091,True,17,0,0,0
Y2-S2-266K22,2,146,AS,exp,40,→,right,→,0.5678292997181416,True,17,1,0,0
Y2-S2-266K22,2,147,AS,exp,33,↑,up,↑,0.6013365001417696,True,16,1,0,0
Y2-S2-266K22,2,148,AS,exp,29,←,left,←,0.9753956999629736,True,16,1,0,0
Y2-S2-266K22,2,149,AS,exp,41,→,left,←,1.0029993997886777,False,16,-1,1,1
Y2-S2-266K22,2,150,AS,exp,40,↓,down,↓,0.8206425998359919,True,17,-1,0,1
Y2-S2-266K22,2,151,AS,exp,46,→,right,→,0.6173849003389478,True,17,-1,0,1
Y2-S2-266K22,2,152,AS,exp,27,↓,down,↓,0.5061468998901546,True,17,1,1,2
Y2-S2-266K22,2,153,AS,exp,36,→,right,→,0.5212791999801993,True,16,1,0,2
Y2-S2-266K22,2,154,AS,exp,34,↑,right,→,0.6115846000611782,False,16,-1,1,3
Y2-S2-266K22,2,155,AS,exp,48,←,left,←,1.0932273999787867,True,17,-1,0,3
Y2-S2-266K22,2,156,AS,exp,31,↓,down,↓,0.7499396000057459,True,17,-1,0,3
Y2-S2-266K22,2,157,AS,exp,33,↑,up,↑,0.71119249984622,True,17,1,1,4
Y2-S2-266K22,2,158,AS,exp,33,←,right,→,0.6801354000344872,False,16,-1,1,5
Y2-S2-266K22,2,159,AS,exp,30,↑,up,↑,0.45890780026093125,True,17,-1,0,5
Y2-S2-266K22,2,160,AS,exp,41,←,left,←,1.083480500150472,True,17,-1,0,5
Y2-S2-266K22,2,161,AS,exp,26,→,right,→,0.6676333998329937,True,17,1,1,6
Y2-S2-266K22,2,162,AS,exp,25,↓,down,↓,0.6577453999780118,True,16,1,0,6
Y2-S2-266K22,2,163,AS,exp,26,→,left,←,0.7906312001869082,False,16,-1,1,7
Y2-S2-266K22,2,164,AS,exp,44,←,left,←,0.6703019998967648,True,17,-1,0,7
Y2-S2-266K22,2,165,AS,exp,28,↓,down,↓,0.6381084998138249,True,17,-1,0,7
Y2-S2-266K22,2,166,AS,exp,34,←,left,←,0.5234784996137023,True,17,1,1,8
Y2-S2-266K22,2,167,AS,exp,25,↓,down,↓,0.5908131999894977,True,16,1,0,8
Y2-S2-266K22,2,168,AS,exp,46,←,right,→,0.5521108000539243,False,16,-1,1,9
Y2-S2-266K22,2,169,AS,exp,45,↓,left,←,1.1873802999034524,False,17,-1,0,9
Y2-S2-266K22,2,170,AS,exp,36,←,right,→,0.7923036003485322,False,18,-1,0,9
Y2-S2-266K22,2,171,AS,exp,33,→,right,→,0.6706826998852193,True,19,-1,0,9
Y2-S2-266K22,2,172,AS,exp,44,↑,right,→,0.6177444001659751,False,19,-1,0,9
Y2-S2-266K22,2,173,AS,exp,29,→,right,→,0.7018589000217617,True,20,-1,0,9
Y2-S2-266K22,2,174,AS,exp,36,←,left,←,0.6463136998936534,True,20,-1,0,9
Y2-S2-266K22,2,175,AS,exp,41,↓,right,→,0.7912947996519506,False,20,-1,0,9
Y2-S2-266K22,2,176,AS,exp,47,←,left,←,0.7194146998226643,True,21,-1,0,9
Y2-S2-266K22,2,177,AS,exp,27,→,right,→,0.5590905998833477,True,21,-1,0,9
Y2-S2-266K22,2,178,AS,exp,27,←,left,←,0.40080949990078807,True,21,1,1,10
Y2-S2-266K22,2,179,AS,exp,28,↓,down,↓,0.6702295998111367,True,20,1,0,10
Y2-S2-266K22,2,180,AS,exp,43,←,left,←,0.6904438999481499,True,20,1,0,10
Y2-S2-266K22,2,181,AS,exp,32,→,right,→,0.584179500117898,True,20,1,0,10
Y2-S2-266K22,2,182,AS,exp,44,↑,up,↑,1.5715024000965059,True,19,1,0,10
Y2-S2-266K22,2,183,AS,exp,25,↓,down,↓,0.7094741999171674,True,19,1,0,10
Y2-S2-266K22,2,184,AS,exp,42,←,left,←,0.5402655000798404,True,19,1,0,10
Y2-S2-266K22,2,185,AS,exp,42,↑,up,↑,0.6973965000361204,True,18,1,0,10
Y2-S2-266K22,2,186,AS,exp,29,→,right,→,0.6444886000826955,True,18,1,0,10
Y2-S2-266K22,2,187,AS,exp,25,↑,right,→,0.7299474999308586,False,18,-1,1,11
Y2-S2-266K22,2,188,AS,exp,37,→,right,→,0.5833668000996113,True,19,-1,0,11
Y2-S2-266K22,2,189,AS,exp,29,↓,down,↓,0.6111406004056334,True,19,-1,0,11
Y2-S2-266K22,2,190,AS,exp,31,→,right,→,0.5292736999690533,True,19,1,1,12
Y2-S2-266K22,2,191,AS,exp,34,←,left,←,1.6731906002387404,True,18,1,0,12
Y2-S2-266K22,2,192,AS,exp,44,→,right,→,1.0464272000826895,True,18,1,0,12
Y2-S2-266K22,2,193,AS,exp,27,←,left,←,1.027575199957937,True,18,1,0,12
Y2-S2-266K22,2,194,AS,exp,37,↓,up,↑,0.9132371000014246,False,17,-1,1,13
Y2-S2-266K22,2,195,AS,exp,27,↑,up,↑,0.680394200142473,True,18,-1,0,13
Y2-S2-266K22,2,196,AS,exp,45,→,right,→,0.5557364001870155,True,18,-1,0,13
Y2-S2-266K22,2,197,AS,exp,25,↓,down,↓,0.8266875999979675,True,18,1,1,14
Y2-S2-266K22,2,198,AS,exp,33,↑,up,↑,0.5804959000088274,True,17,1,0,14
Y2-S2-266K22,2,199,AS,exp,50,→,right,→,0.49680509977042675,True,17,1,0,14
Y2-S2-266K22,2,200,AS,exp,49,↑,up,↑,0.5103911999613047,True,17,1,0,14
Y2-S2-266K22,2,201,AS,exp,41,→,right,→,0.5243167001754045,True,16,1,0,14
Y2-S2-266K22,2,202,AS,exp,30,↑,up,↑,0.6842865999788046,True,16,1,0,14
Y2-S2-266K22,2,203,AS,exp,49,↓,up,↑,0.7185189998708665,False,16,-1,1,15
Y2-S2-266K22,2,204,AS,exp,43,↑,up,↑,0.6051178001798689,True,17,-1,0,15
Y2-S2-266K22,2,205,AS,exp,43,→,left,←,0.9691922003403306,False,17,-1,0,15
Y2-S2-266K22,2,206,AS,exp,44,↑,up,↑,0.5340496003627777,True,18,-1,0,15
Y2-S2-266K22,2,207,AS,exp,37,→,right,→,0.5094820000231266,True,18,-1,0,15
Y2-S2-266K22,2,208,AS,exp,35,↑,up,↑,0.5632357997819781,True,18,1,1,16
Y2-S2-266K22,3,209,AS,intra_train,35,→,right,→,0.6139114000834525,True,25,-,-,-
Y2-S2-266K22,3,210,AS,intra_train,30,←,left,←,0.7037470997311175,True,25,-,-,-
Y2-S2-266K22,3,211,AS,intra_train,34,↑,up,↑,0.6368554998189211,True,25,-,-,-
Y2-S2-266K22,3,212,AS,intra_train,35,→,right,→,1.1292512998916209,True,25,-,-,-
Y2-S2-266K22,3,213,AS,intra_train,26,↑,up,↑,0.8687034999020398,True,25,-,-,-
Y2-S2-266K22,3,214,AS,exp,37,←,left,←,1.0653873002156615,True,17,0,0,0
Y2-S2-266K22,3,215,AS,exp,28,↓,right,→,1.0773411998525262,False,17,-1,0,0
Y2-S2-266K22,3,216,AS,exp,50,↑,up,↑,0.47176130022853613,True,18,-1,0,0
Y2-S2-266K22,3,217,AS,exp,25,←,left,←,0.70213139988482,True,18,-1,0,0
Y2-S2-266K22,3,218,AS,exp,25,↑,up,↑,0.6517360997386277,True,18,1,1,1
Y2-S2-266K22,3,219,AS,exp,31,↓,down,↓,0.7499412000179291,True,17,1,0,1
Y2-S2-266K22,3,220,AS,exp,37,→,right,→,1.0374449002556503,True,17,1,0,1
Y2-S2-266K22,3,221,AS,exp,43,↑,up,↑,0.8328872001729906,True,17,1,0,1
Y2-S2-266K22,3,222,AS,exp,32,←,right,→,0.737311199773103,False,16,-1,1,2
Y2-S2-266K22,3,223,AS,exp,28,↓,down,↓,0.7971006999723613,True,17,-1,0,2
Y2-S2-266K22,3,224,AS,exp,50,↑,up,↑,0.4794834000058472,True,17,-1,0,2
Y2-S2-266K22,3,225,AS,exp,42,←,left,←,0.7458785003982484,True,17,1,1,3
Y2-S2-266K22,3,226,AS,exp,27,↓,down,↓,0.968961900100112,True,16,1,0,3
Y2-S2-266K22,3,227,AS,exp,33,←,left,←,1.0479598003439605,True,16,1,0,3
Y2-S2-266K22,3,228,AS,exp,32,↓,down,↓,0.7601152001880109,True,16,1,0,3
Y2-S2-266K22,3,229,AS,exp,31,→,left,←,0.9680562000721693,False,15,-1,1,4
Y2-S2-266K22,3,230,AS,exp,46,←,left,←,0.4375191000290215,True,16,-1,0,4
Y2-S2-266K22,3,231,AS,exp,46,→,right,→,1.0683550001122057,True,16,-1,0,4
Y2-S2-266K22,3,232,AS,exp,47,↑,up,↑,0.7853070003911853,True,16,1,1,5
Y2-S2-266K22,3,233,AS,exp,30,↓,down,↓,0.6559299998916686,True,15,1,0,5
Y2-S2-266K22,3,234,AS,exp,30,←,left,←,0.5207773996517062,True,15,1,0,5
Y2-S2-266K22,3,235,AS,exp,30,→,right,→,0.6267289998941123,True,15,1,0,5
Y2-S2-266K22,3,236,AS,exp,32,↓,down,↓,0.6085705002769828,True,14,1,0,5
Y2-S2-266K22,3,237,AS,exp,38,←,right,→,0.5688176997937262,False,14,-1,1,6
Y2-S2-266K22,3,238,AS,exp,43,↑,right,→,0.6501862998120487,False,15,-1,0,6
Y2-S2-266K22,3,239,AS,exp,48,↓,down,↓,0.7039856999181211,True,16,-1,0,6
Y2-S2-266K22,3,240,AS,exp,45,→,right,→,0.5820883996784687,True,16,-1,0,6
Y2-S2-266K22,3,241,AS,exp,38,↓,down,↓,0.6458242000080645,True,16,1,1,7
Y2-S2-266K22,3,242,AS,exp,41,←,left,←,0.5974920000880957,True,15,1,0,7
Y2-S2-266K22,3,243,AS,exp,36,↓,down,↓,0.7283549001440406,True,15,1,0,7
Y2-S2-266K22,3,244,AS,exp,45,←,left,←,0.5400924002751708,True,15,1,0,7
Y2-S2-266K22,3,245,AS,exp,36,↓,down,↓,0.5122251003049314,True,14,1,0,7
Y2-S2-266K22,3,246,AS,exp,41,↑,down,↓,0.6966492002829909,False,14,-1,1,8
Y2-S2-266K22,3,247,AS,exp,28,↓,down,↓,0.5558029999956489,True,15,-1,0,8
Y2-S2-266K22,3,248,AS,exp,29,↑,up,↑,0.5450903996825218,True,15,-1,0,8
Y2-S2-266K22,3,249,AS,exp,29,→,right,→,0.4620318999513984,True,15,1,1,9
Y2-S2-266K22,3,250,AS,exp,37,←,right,→,0.6945639001205564,False,14,-1,1,10
Y2-S2-266K22,3,251,AS,exp,41,↑,up,↑,0.4737399001605809,True,15,-1,0,10
Y2-S2-266K22,3,252,AS,exp,29,↓,right,→,0.7440867000259459,False,15,-1,0,10
Y2-S2-266K22,3,253,AS,exp,35,→,right,→,0.5466645997948945,True,16,-1,0,10
Y2-S2-266K22,3,254,AS,exp,46,←,left,←,1.4630644000135362,True,16,-1,0,10
Y2-S2-266K22,3,255,AS,exp,43,↓,down,↓,0.6024847999215126,True,16,1,1,11
Y2-S2-266K22,3,256,AS,exp,48,→,right,→,0.4342491999268532,True,15,1,0,11
Y2-S2-266K22,3,257,AS,exp,39,↑,right,→,0.7516874000430107,False,15,-1,1,12
Y2-S2-266K22,3,258,AS,exp,26,→,right,→,1.038645800203085,True,16,-1,0,12
Y2-S2-266K22,3,259,AS,exp,26,←,left,←,0.5502766999416053,True,16,-1,0,12
Y2-S2-266K22,3,260,AS,exp,29,↑,up,↑,0.6381660001352429,True,16,1,1,13
Y2-S2-266K22,3,261,AS,exp,25,↓,right,→,0.8135901000350714,False,15,-1,1,14
Y2-S2-266K22,3,262,AS,exp,33,↑,up,↑,0.6488743997178972,True,16,-1,0,14
Y2-S2-266K22,3,263,AS,exp,39,↓,down,↓,0.7324292003177106,True,16,-1,0,14
Y2-S2-266K22,3,264,AS,exp,30,↑,up,↑,0.56663510017097,True,16,1,1,15
Y2-S2-266K22,3,265,AS,exp,43,→,right,→,0.5510454000905156,True,15,1,0,15
Y2-S2-266K22,3,266,AS,exp,26,↑,up,↑,0.4755029999651015,True,15,1,0,15
Y2-S2-266K22,3,267,AS,exp,32,↓,right,→,0.6464173002168536,False,15,-1,1,16
Y2-S2-266K22,4,268,PS,intra_train,39,↑,up,↑,0.9337915000505745,True,16,-,-,-
Y2-S2-266K22,4,269,PS,intra_train,31,→,right,→,0.634451599791646,True,16,-,-,-
Y2-S2-266K22,4,270,PS,intra_train,37,←,right,→,0.7468973002396524,False,16,-,-,-
Y2-S2-266K22,4,271,PS,intra_train,36,↑,up,↑,0.6723350998945534,True,16,-,-,-
Y2-S2-266K22,4,272,PS,intra_train,45,←,left,←,0.6644910001195967,True,16,-,-,-
Y2-S2-266K22,4,273,PS,exp,45,↓,down,↓,0.9016808997839689,True,11,0,0,0
Y2-S2-266K22,4,274,PS,exp,40,↑,up,↑,0.5342704001814127,True,11,0,0,0
Y2-S2-266K22,4,275,PS,exp,36,↓,down,↓,0.553339600097388,True,11,1,0,0
Y2-S2-266K22,4,276,PS,exp,48,←,left,←,0.4779439000412822,True,10,1,0,0
Y2-S2-266K22,4,277,PS,exp,34,→,right,→,0.4998623998835683,True,10,1,0,0
Y2-S2-266K22,4,278,PS,exp,26,←,right,→,0.6005561999045312,False,10,-1,1,1
Y2-S2-266K22,4,279,PS,exp,38,↑,right,→,0.4905865998007357,False,11,-1,0,1
Y2-S2-266K22,4,280,PS,exp,39,↓,down,↓,0.6387261999770999,True,12,-1,0,1
Y2-S2-266K22,4,281,PS,exp,29,←,left,←,0.5134932999499142,True,12,-1,0,1
Y2-S2-266K22,4,282,PS,exp,47,↑,up,↑,0.5607655998319387,True,12,1,1,2
Y2-S2-266K22,4,283,PS,exp,40,↓,down,↓,0.5144154001027346,True,11,1,0,2
Y2-S2-266K22,4,284,PS,exp,34,↑,up,↑,0.47320260014384985,True,11,1,0,2
Y2-S2-266K22,4,285,PS,exp,33,→,right,→,0.4310894999653101,True,11,1,0,2
Y2-S2-266K22,4,286,PS,exp,49,↓,down,↓,0.5184407997876406,True,10,1,0,2
Y2-S2-266K22,4,287,PS,exp,46,↑,up,↑,0.6806594002991915,True,10,1,0,2
Y2-S2-266K22,4,288,PS,exp,44,↓,down,↓,0.6745256995782256,True,10,1,0,2
Y2-S2-266K22,4,289,PS,exp,43,→,right,→,0.4513071998953819,True,9,1,0,2
Y2-S2-266K22,4,290,PS,exp,29,←,left,←,0.5749731999821961,True,9,1,0,2
Y2-S2-266K22,4,291,PS,exp,30,↑,right,→,0.6005449998192489,False,9,-1,1,3
Y2-S2-266K22,4,292,PS,exp,47,←,right,→,0.9309264002367854,False,10,-1,0,3
Y2-S2-266K22,4,293,PS,exp,32,↑,up,↑,0.45123809995129704,True,11,-1,0,3
Y2-S2-266K22,4,294,PS,exp,41,→,left,←,0.6242370996624231,False,11,-1,0,3
Y2-S2-266K22,4,295,PS,exp,50,↑,up,↑,0.5597008001059294,True,12,-1,0,3
Y2-S2-266K22,4,296,PS,exp,34,↓,down,↓,0.538895399775356,True,12,-1,0,3
Y2-S2-266K22,4,297,PS,exp,26,→,right,→,0.45118420012295246,True,12,1,1,4
Y2-S2-266K22,4,298,PS,exp,43,↑,up,↑,0.4705091998912394,True,11,1,0,4
Y2-S2-266K22,4,299,PS,exp,33,←,right,→,0.5620878003537655,False,11,-1,1,5
Y2-S2-266K22,4,300,PS,exp,29,↓,right,→,0.5124634001404047,False,12,-1,0,5
Y2-S2-266K22,4,301,PS,exp,40,→,left,←,0.6687257001176476,False,13,-1,0,5
Y2-S2-266K22,4,302,PS,exp,33,↓,left,←,0.46889170026406646,False,14,-1,0,5
Y2-S2-266K22,4,303,PS,exp,40,←,left,←,0.367569399997592,True,15,-1,0,5
Y2-S2-266K22,4,304,PS,exp,43,→,right,→,0.4864753996953368,True,15,-1,0,5
Y2-S2-266K22,4,305,PS,exp,37,←,left,←,1.2438313998281956,True,15,1,1,6
Y2-S2-266K22,4,306,PS,exp,26,→,right,→,0.4685627003200352,True,14,1,0,6
Y2-S2-266K22,4,307,PS,exp,25,↑,up,↑,0.6914097000844777,True,14,1,0,6
Y2-S2-266K22,4,308,PS,exp,50,→,right,→,0.4769329000264406,True,14,1,0,6
Y2-S2-266K22,4,309,PS,exp,45,↓,down,↓,0.6228168001398444,True,13,1,0,6
Y2-S2-266K22,4,310,PS,exp,43,←,left,←,0.7563199000433087,True,13,1,0,6
Y2-S2-266K22,4,311,PS,exp,33,↑,up,↑,0.5269184000790119,True,13,1,0,6
Y2-S2-266K22,4,312,PS,exp,27,→,right,→,0.5182314999401569,True,12,1,0,6
Y2-S2-266K22,4,313,PS,exp,44,←,left,←,0.7963463002815843,True,12,1,0,6
Y2-S2-266K22,4,314,PS,exp,47,↓,down,↓,0.8091289000585675,True,12,1,0,6
Y2-S2-266K22,4,315,PS,exp,34,←,left,←,0.6686114999465644,True,11,1,0,6
Y2-S2-266K22,4,316,PS,exp,32,↓,down,↓,0.5830259998328984,True,11,1,0,6
Y2-S2-266K22,4,317,PS,exp,46,←,left,←,0.5913264998234808,True,11,1,0,6
Y2-S2-266K22,4,318,PS,exp,32,↑,up,↑,0.5972863999195397,True,10,1,0,6
Y2-S2-266K22,4,319,PS,exp,48,←,up,↑,0.9975678999908268,False,10,-1,1,7
Y2-S2-266K22,4,320,PS,exp,40,↓,down,↓,0.6963919000700116,True,11,-1,0,7
Y2-S2-266K22,4,321,PS,exp,41,→,right,→,0.4147593001835048,True,11,-1,0,7
Y2-S2-266K22,4,322,PS,exp,26,↑,up,↑,0.6926723001524806,True,11,1,1,8
Y2-S2-266K22,4,323,PS,exp,34,→,right,→,0.4706500000320375,True,10,1,0,8
Y2-S2-266K22,4,324,PS,exp,27,↑,up,↑,0.47138099977746606,True,10,1,0,8
Y2-S2-266K22,4,325,PS,exp,37,↓,down,↓,0.587132700253278,True,10,1,0,8
Y2-S2-266K22,4,326,PS,exp,34,→,down,↓,0.8257590997964144,False,9,-1,1,9
Y2-S2-266K22,4,327,PS,exp,31,↓,down,↓,0.4775857999920845,True,10,-1,0,9
Y2-S2-266K22,4,328,PS,exp,36,←,left,←,0.5581811000593007,True,10,-1,0,9
Y2-S2-266K22,4,329,PS,exp,39,↑,up,↑,0.55435899971053,True,10,1,1,10
Y2-S2-266K22,4,330,PS,exp,28,←,left,←,0.6680681998841465,True,9,1,0,10
Y2-S2-266K22,4,331,PS,exp,50,↓,down,↓,0.5230986000970006,True,9,1,0,10
Y2-S2-266K22,4,332,PS,exp,42,←,left,←,0.6824851999990642,True,9,1,0,10
Y2-S2-266K22,4,333,PS,exp,27,↑,up,↑,0.5837354003451765,True,8,1,0,10
Y2-S2-266K22,4,334,PS,exp,26,↓,down,↓,0.5573240001685917,True,8,1,0,10
Y2-S2-266K22,4,335,PS,exp,47,←,left,←,0.4936624998226762,True,8,1,0,10
Y2-S2-266K22,4,336,PS,exp,44,→,left,←,0.7053360999561846,False,7,-1,1,11
Y2-S2-266K22,4,337,PS,exp,48,←,left,←,0.5182150998152792,True,8,-1,0,11
Y2-S2-266K22,4,338,PS,exp,49,↓,left,←,0.5394292999990284,False,8,-1,0,11
Y2-S2-266K22,4,339,PS,exp,42,←,left,←,0.5559433000162244,True,9,-1,0,11
Y2-S2-266K22,4,340,PS,exp,49,→,right,→,0.4558552000671625,True,9,-1,0,11
Y2-S2-266K22,4,341,PS,exp,46,←,right,→,0.4755068998783827,False,9,-1,0,11
Y2-S2-266K22,4,342,PS,exp,42,↑,up,↑,0.5608554002828896,True,10,-1,0,11
Y2-S2-266K22,4,343,PS,exp,26,↓,down,↓,0.6767422002740204,True,10,-1,0,11
Y2-S2-266K22,4,344,PS,exp,46,↑,up,↑,1.0784482001326978,True,10,1,1,12
Y2-S2-266K22,4,345,PS,exp,49,→,right,→,0.45636129984632134,True,9,1,0,12
Y2-S2-266K22,4,346,PS,exp,48,↑,up,↑,0.7539501003921032,True,9,1,0,12
Y2-S2-266K22,4,347,PS,exp,25,→,right,→,0.42472789995372295,True,9,1,0,12
Y2-S2-266K22,4,348,PS,exp,45,←,left,←,0.5611417000181973,True,8,1,0,12
Y2-S2-266K22,4,349,PS,exp,39,↑,up,↑,0.4978777999058366,True,8,1,0,12
Y2-S2-266K22,4,350,PS,exp,46,↓,down,↓,0.809510899707675,True,8,1,0,12
Y2-S2-266K22,4,351,PS,exp,35,→,right,→,0.6367067000828683,True,7,1,0,12
Y2-S2-266K22,4,352,PS,exp,29,↓,down,↓,0.5564042003825307,True,7,1,0,12
Y2-S2-266K22,4,353,PS,exp,41,↑,right,→,0.4904539999552071,False,7,-1,1,13
Y2-S2-266K22,4,354,PS,exp,47,←,right,→,0.5654903003014624,False,8,-1,0,13
Y2-S2-266K22,4,355,PS,exp,50,↑,right,→,0.4641598002053797,False,9,-1,0,13
Y2-S2-266K22,4,356,PS,exp,36,→,left,←,0.563714399933815,False,10,-1,0,13
Y2-S2-266K22,4,357,PS,exp,25,↓,down,↓,0.472259399946779,True,11,-1,0,13
Y2-S2-266K22,4,358,PS,exp,34,←,left,←,0.5851986999623477,True,11,-1,0,13
Y2-S2-266K22,4,359,PS,exp,46,↓,down,↓,0.4200779004022479,True,11,1,1,14
Y2-S2-266K22,4,360,PS,exp,42,→,right,→,0.43434019992128015,True,10,1,0,14
Y2-S2-266K22,4,361,PS,exp,30,←,right,→,0.48889749962836504,False,10,-1,1,15
Y2-S2-266K22,4,362,PS,exp,29,↓,down,↓,0.4359869002364576,True,11,-1,0,15
Y2-S2-266K22,4,363,PS,exp,37,↑,up,↑,0.6881065000779927,True,11,-1,0,15
Y2-S2-266K22,4,364,PS,exp,36,←,left,←,0.48992970027029514,True,11,1,1,16
Y2-S2-266K22,5,365,PS,intra_train,29,↑,up,↑,0.7069264003075659,True,16,-,-,-
Y2-S2-266K22,5,366,PS,intra_train,29,←,left,←,0.5253137000836432,True,16,-,-,-
Y2-S2-266K22,5,367,PS,intra_train,42,↓,down,↓,0.5703751998953521,True,16,-,-,-
Y2-S2-266K22,5,368,PS,intra_train,32,→,right,→,0.9167537000030279,True,16,-,-,-
Y2-S2-266K22,5,369,PS,intra_train,48,↑,up,↑,0.5711906999349594,True,16,-,-,-
Y2-S2-266K22,5,370,PS,exp,36,→,down,↓,1.0083282999694347,False,11,-1,0,0
Y2-S2-266K22,5,371,PS,exp,43,↓,down,↓,0.524225200060755,True,12,-1,0,0
Y2-S2-266K22,5,372,PS,exp,33,↑,left,←,1.219526099972427,False,12,-1,0,0
Y2-S2-266K22,5,373,PS,exp,48,→,right,→,0.4706569002009928,True,13,-1,0,0
Y2-S2-266K22,5,374,PS,exp,33,←,left,←,0.3842937001027167,True,13,-1,0,0
Y2-S2-266K22,5,375,PS,exp,38,↑,up,↑,0.474186799954623,True,13,1,1,1
Y2-S2-266K22,5,376,PS,exp,46,↓,down,↓,0.5132149998098612,True,12,1,0,1
Y2-S2-266K22,5,377,PS,exp,50,→,right,→,0.4630527002736926,True,12,1,0,1
Y2-S2-266K22,5,378,PS,exp,49,↑,up,↑,1.0704275001771748,True,12,1,0,1
Y2-S2-266K22,5,379,PS,exp,39,←,left,←,0.5597713999450207,True,11,1,0,1
Y2-S2-266K22,5,380,PS,exp,31,→,left,←,0.6053789001889527,False,11,-1,1,2
Y2-S2-266K22,5,381,PS,exp,47,←,right,→,0.6809555003419518,False,12,-1,0,2
Y2-S2-266K22,5,382,PS,exp,28,↓,down,↓,0.8471803003922105,True,13,-1,0,2
Y2-S2-266K22,5,383,PS,exp,39,→,right,→,0.5710776001214981,True,13,-1,0,2
Y2-S2-266K22,5,384,PS,exp,49,←,left,←,0.5435283998958766,True,13,1,1,3
Y2-S2-266K22,5,385,PS,exp,36,↑,up,↑,0.6155423996970057,True,12,1,0,3
Y2-S2-266K22,5,386,PS,exp,30,←,left,←,0.5144479000009596,True,12,1,0,3
Y2-S2-266K22,5,387,PS,exp,37,↑,up,↑,0.5139767001383007,True,12,1,0,3
Y2-S2-266K22,5,388,PS,exp,25,→,right,→,0.8702743998728693,True,11,1,0,3
Y2-S2-266K22,5,389,PS,exp,30,←,left,←,0.7165747997350991,True,11,1,0,3
Y2-S2-266K22,5,390,PS,exp,37,↓,down,↓,0.7995150000788271,True,11,1,0,3
Y2-S2-266K22,5,391,PS,exp,28,←,left,←,0.7704301001504064,True,10,1,0,3
Y2-S2-266K22,5,392,PS,exp,28,↓,right,→,0.7001736997626722,False,10,-1,1,4
Y2-S2-266K22,5,393,PS,exp,41,↑,up,↑,0.6038353997282684,True,11,-1,0,4
Y2-S2-266K22,5,394,PS,exp,27,←,down,↓,0.8466965002007782,False,11,-1,0,4
Y2-S2-266K22,5,395,PS,exp,41,→,right,→,1.2134674000553787,True,12,-1,0,4
Y2-S2-266K22,5,396,PS,exp,29,↑,up,↑,0.5518653001636267,True,12,-1,0,4
Y2-S2-266K22,5,397,PS,exp,50,←,left,←,0.5420356001704931,True,12,1,1,5
Y2-S2-266K22,5,398,PS,exp,36,↑,up,↑,0.4835006999783218,True,11,1,0,5
Y2-S2-266K22,5,399,PS,exp,27,←,up,↑,0.6192517997696996,False,11,-1,1,6
Y2-S2-266K22,5,400,PS,exp,29,→,right,→,0.5876376000232995,True,12,-1,0,6
Y2-S2-266K22,5,401,PS,exp,26,↑,up,↑,0.3340032999403775,True,12,-1,0,6
Y2-S2-266K22,5,402,PS,exp,46,←,left,←,0.7584320995956659,True,12,1,1,7
Y2-S2-266K22,5,403,PS,exp,35,↑,up,↑,0.4079032000154257,True,11,1,0,7
Y2-S2-266K22,5,404,PS,exp,33,↓,down,↓,0.5908065000548959,True,11,1,0,7
Y2-S2-266K22,5,405,PS,exp,25,→,right,→,0.6287912996485829,True,11,1,0,7
Y2-S2-266K22,5,406,PS,exp,45,←,right,→,0.4685003999620676,False,10,-1,1,8
Y2-S2-266K22,5,407,PS,exp,44,↓,down,↓,0.4120807000435889,True,11,-1,0,8
Y2-S2-266K22,5,408,PS,exp,41,↑,up,↑,0.4767505996860564,True,11,-1,0,8
Y2-S2-266K22,5,409,PS,exp,41,→,right,→,0.6155685996636748,True,11,1,1,9
Y2-S2-266K22,5,410,PS,exp,34,↓,down,↓,0.5370992999523878,True,10,1,0,9
Y2-S2-266K22,5,411,PS,exp,26,←,left,←,0.5014527998864651,True,10,1,0,9
Y2-S2-266K22,5,412,PS,exp,32,↑,up,↑,0.4772975998930633,True,10,1,0,9
Y2-S2-266K22,5,413,PS,exp,42,←,right,→,0.5079601998440921,False,9,-1,1,10
Y2-S2-266K22,5,414,PS,exp,41,→,right,→,0.5380857000127435,True,10,-1,0,10
Y2-S2-266K22,5,415,PS,exp,33,↑,up,↑,0.5706223999150097,True,10,-1,0,10
Y2-S2-266K22,5,416,PS,exp,37,←,left,←,0.5285958996973932,True,10,1,1,11
Y2-S2-266K22,5,417,PS,exp,36,↑,up,↑,0.8983817999251187,True,9,1,0,11
Y2-S2-266K22,5,418,PS,exp,38,↓,down,↓,0.5687198000960052,True,9,1,0,11
Y2-S2-266K22,5,419,PS,exp,39,→,right,→,0.7090616002678871,True,9,1,0,11
Y2-S2-266K22,5,420,PS,exp,38,←,right,→,0.8000159999355674,False,8,-1,1,12
Y2-S2-266K22,5,421,PS,exp,36,→,right,→,0.7075636000372469,True,9,-1,0,12
Y2-S2-266K22,5,422,PS,exp,43,↑,up,↑,0.8702338002622128,True,9,-1,0,12
Y2-S2-266K22,5,423,PS,exp,35,→,right,→,0.6040750001557171,True,9,1,1,13
Y2-S2-266K22,5,424,PS,exp,26,↑,right,→,0.8208996998146176,False,8,-1,1,14
Y2-S2-266K22,5,425,PS,exp,41,↓,right,→,0.49560280004516244,False,9,-1,0,14
Y2-S2-266K22,5,426,PS,exp,38,↑,up,↑,0.5019588996656239,True,10,-1,0,14
Y2-S2-266K22,5,427,PS,exp,35,↓,left,←,1.1531751002185047,False,10,-1,0,14
Y2-S2-266K22,5,428,PS,exp,31,→,right,→,0.5137237999588251,True,11,-1,0,14
Y2-S2-266K22,5,429,PS,exp,28,↑,up,↑,0.5572293000295758,True,11,-1,0,14
Y2-S2-266K22,5,430,PS,exp,42,↓,down,↓,0.5904542999342084,True,11,1,1,15
Y2-S2-266K22,5,431,PS,exp,34,→,right,→,0.42886519990861416,True,10,1,0,15
Y2-S2-266K22,5,432,PS,exp,25,←,left,←,0.5697113997302949,True,10,1,0,15
Y2-S2-266K22,5,433,PS,exp,37,→,right,→,0.3808625000528991,True,10,1,0,15
Y2-S2-266K22,5,434,PS,exp,37,↑,up,↑,0.6252202000468969,True,9,1,0,15
Y2-S2-266K22,5,435,PS,exp,46,↓,down,↓,0.5966794001869857,True,9,1,0,15
Y2-S2-266K22,5,436,PS,exp,44,↑,up,↑,0.547454500105232,True,9,1,0,15
Y2-S2-266K22,5,437,PS,exp,36,→,left,←,0.6631403998471797,False,8,-1,1,16
Y2-S2-266K22,6,438,AS,intra_train,49,↓,left,←,1.1868590000085533,False,25,-,-,-
Y2-S2-266K22,6,439,AS,intra_train,27,→,right,→,0.7562140999361873,True,25,-,-,-
Y2-S2-266K22,6,440,AS,intra_train,25,↑,up,↑,0.7011728002689779,True,25,-,-,-
Y2-S2-266K22,6,441,AS,intra_train,38,←,left,←,0.802195199765265,True,25,-,-,-
Y2-S2-266K22,6,442,AS,intra_train,36,→,right,→,0.8615055000409484,True,25,-,-,-
Y2-S2-266K22,6,443,AS,exp,27,↓,left,←,0.8629975998774171,False,17,-1,0,0
Y2-S2-266K22,6,444,AS,exp,40,←,right,→,0.41702300030738115,False,18,-1,0,0
Y2-S2-266K22,6,445,AS,exp,31,↑,left,←,1.274558199569583,False,19,-1,0,0
Y2-S2-266K22,6,446,AS,exp,49,↓,down,↓,0.7846093997359276,True,20,-1,0,0
Y2-S2-266K22,6,447,AS,exp,44,←,left,←,0.6378557002171874,True,20,-1,0,0
Y2-S2-266K22,6,448,AS,exp,42,↓,down,↓,0.46703270031139255,True,20,1,1,1
Y2-S2-266K22,6,449,AS,exp,31,←,left,←,0.6692554000765085,True,19,1,0,1
Y2-S2-266K22,6,450,AS,exp,28,↓,down,↓,0.5188224003650248,True,19,1,0,1
Y2-S2-266K22,6,451,AS,exp,50,→,right,→,0.6299183000810444,True,19,1,0,1
Y2-S2-266K22,6,452,AS,exp,28,↓,down,↓,0.7328818999230862,True,18,1,0,1
Y2-S2-266K22,6,453,AS,exp,43,←,left,←,0.5320025999099016,True,18,1,0,1
Y2-S2-266K22,6,454,AS,exp,32,↑,up,↑,0.7280782996676862,True,18,1,0,1
Y2-S2-266K22,6,455,AS,exp,30,↓,down,↓,0.6997382002882659,True,17,1,0,1
Y2-S2-266K22,6,456,AS,exp,39,←,left,←,0.5791796003468335,True,17,1,0,1
Y2-S2-266K22,6,457,AS,exp,25,↓,down,↓,0.7456634999252856,True,17,1,0,1
Y2-S2-266K22,6,458,AS,exp,28,←,left,←,0.6513129998929799,True,16,1,0,1
Y2-S2-266K22,6,459,AS,exp,26,↑,up,↑,0.46486099995672703,True,16,1,0,1
Y2-S2-266K22,6,460,AS,exp,49,←,left,←,0.858988800086081,True,16,1,0,1
Y2-S2-266K22,6,461,AS,exp,31,↑,up,↑,0.5470753000117838,True,15,1,0,1
Y2-S2-266K22,6,462,AS,exp,41,←,left,←,0.7382836998440325,True,15,1,0,1
Y2-S2-266K22,6,463,AS,exp,47,↑,up,↑,0.49236559960991144,True,15,1,0,1
Y2-S2-266K22,6,464,AS,exp,31,←,left,←,0.8785389000549912,True,14,1,0,1
Y2-S2-266K22,6,465,AS,exp,45,↓,down,↓,0.546934699639678,True,14,1,0,1
Y2-S2-266K22,6,466,AS,exp,47,→,right,→,0.5949844997376204,True,14,1,0,1
Y2-S2-266K22,6,467,AS,exp,41,←,right,→,0.7732020001858473,False,13,-1,1,2
Y2-S2-266K22,6,468,AS,exp,37,↑,down,↓,0.6940954998135567,False,14,-1,0,2
Y2-S2-266K22,6,469,AS,exp,44,→,right,→,0.6625494002364576,True,15,-1,0,2
Y2-S2-266K22,6,470,AS,exp,46,↑,up,↑,0.7984437998384237,True,15,-1,0,2
Y2-S2-266K22,6,471,AS,exp,45,←,left,←,0.7120257997885346,True,15,1,1,3
Y2-S2-266K22,6,472,AS,exp,28,↑,up,↑,0.5410317000932992,True,14,1,0,3
Y2-S2-266K22,6,473,AS,exp,27,←,right,→,0.47761570010334253,False,14,-1,1,4
Y2-S2-266K22,6,474,AS,exp,44,↑,up,↑,0.4841207000426948,True,15,-1,0,4
Y2-S2-266K22,6,475,AS,exp,28,↓,down,↓,0.7673080000095069,True,15,-1,0,4
Y2-S2-266K22,6,476,AS,exp,25,↑,up,↑,0.5943167000077665,True,15,1,1,5
Y2-S2-266K22,6,477,AS,exp,44,→,up,↑,0.7130070002749562,False,14,-1,1,6
Y2-S2-266K22,6,478,AS,exp,35,↓,down,↓,0.47247159993276,True,15,-1,0,6
Y2-S2-266K22,6,479,AS,exp,34,↑,up,↑,0.6982158003374934,True,15,-1,0,6
Y2-S2-266K22,6,480,AS,exp,29,→,right,→,0.4208282995969057,True,15,1,1,7
Y2-S2-266K22,6,481,AS,exp,26,←,left,←,0.564037499949336,True,14,1,0,7
Y2-S2-266K22,6,482,AS,exp,32,↓,down,↓,0.6919825002551079,True,14,1,0,7
Y2-S2-266K22,6,483,AS,exp,34,←,left,←,0.8616134999319911,True,14,1,0,7
Y2-S2-266K22,6,484,AS,exp,44,↓,down,↓,0.4781988998875022,True,13,1,0,7
Y2-S2-266K22,6,485,AS,exp,25,←,left,←,0.5594679997302592,True,13,1,0,7
Y2-S2-266K22,6,486,AS,exp,32,→,left,←,0.4865831998176873,False,13,-1,1,8
Y2-S2-266K22,6,487,AS,exp,37,↓,down,↓,0.42603940004482865,True,14,-1,0,8
Y2-S2-266K22,6,488,AS,exp,47,↑,down,↓,0.6609245003201067,False,14,-1,0,8
Y2-S2-266K22,6,489,AS,exp,44,←,left,←,0.428167499601841,True,15,-1,0,8
Y2-S2-266K22,6,490,AS,exp,25,↓,down,↓,0.6740081999450922,True,15,-1,0,8
Y2-S2-266K22,6,491,AS,exp,40,←,right,→,0.6880573001690209,False,15,-1,0,8
Y2-S2-266K22,6,492,AS,exp,41,→,right,→,0.7317606001161039,True,16,-1,0,8
Y2-S2-266K22,6,493,AS,exp,50,↑,right,→,0.8315829001367092,False,16,-1,0,8
Y2-S2-266K22,6,494,AS,exp,41,↓,down,↓,0.6947618001140654,True,17,-1,0,8
Y2-S2-266K22,6,495,AS,exp,29,→,right,→,0.5259329997934401,True,17,-1,0,8
Y2-S2-266K22,6,496,AS,exp,39,↓,down,↓,0.664549000095576,True,17,1,1,9
Y2-S2-266K22,6,497,AS,exp,27,↑,right,→,0.5469990000128746,False,16,-1,1,10
Y2-S2-266K22,6,498,AS,exp,37,←,left,←,0.5086369002237916,True,17,-1,0,10
Y2-S2-266K22,6,499,AS,exp,26,→,right,→,0.6678929999470711,True,17,-1,0,10
Y2-S2-266K22,6,500,AS,exp,39,↑,up,↑,0.5934186996892095,True,17,1,1,11
Y2-S2-266K22,6,501,AS,exp,49,↓,down,↓,0.5809005000628531,True,16,1,0,11
Y2-S2-266K22,6,502,AS,exp,26,↑,up,↑,0.5615170998498797,True,16,1,0,11
Y2-S2-266K22,6,503,AS,exp,32,→,right,→,0.5027773999609053,True,16,1,0,11
Y2-S2-266K22,6,504,AS,exp,39,↑,right,→,0.7836207002401352,False,15,-1,1,12
Y2-S2-266K22,6,505,AS,exp,27,↓,up,↑,0.5162160997278988,False,16,-1,0,12
Y2-S2-266K22,6,506,AS,exp,45,↑,up,↑,0.7640439001843333,True,17,-1,0,12
Y2-S2-266K22,6,507,AS,exp,26,→,right,→,1.257538499776274,True,17,-1,0,12
Y2-S2-266K22,6,508,AS,exp,28,↓,up,↑,0.6367305000312626,False,17,-1,0,12
Y2-S2-266K22,6,509,AS,exp,43,←,left,←,0.6558656999841332,True,18,-1,0,12
Y2-S2-266K22,6,510,AS,exp,38,↓,down,↓,0.703509499784559,True,18,-1,0,12
Y2-S2-266K22,6,511,AS,exp,44,←,left,←,1.3487356998957694,True,18,1,1,13
Y2-S2-266K22,6,512,AS,exp,37,↑,down,↓,0.7988628000020981,False,17,-1,1,14
Y2-S2-266K22,6,513,AS,exp,42,↓,down,↓,0.7195387999527156,True,18,-1,0,14
Y2-S2-266K22,6,514,AS,exp,33,←,left,←,0.5035885996185243,True,18,-1,0,14
Y2-S2-266K22,6,515,AS,exp,31,↓,down,↓,0.5700995000079274,True,18,1,1,15
Y2-S2-266K22,6,516,AS,exp,44,↑,up,↑,0.5962549997493625,True,17,1,0,15
Y2-S2-266K22,6,517,AS,exp,32,↓,down,↓,0.6358691002242267,True,17,1,0,15
Y2-S2-266K22,6,518,AS,exp,30,→,right,→,0.586659399792552,True,17,1,0,15
Y2-S2-266K22,6,519,AS,exp,41,↑,up,↑,0.6724147996865213,True,16,1,0,15
Y2-S2-266K22,6,520,AS,exp,35,←,left,←,0.79279899969697,True,16,1,0,15
Y2-S2-266K22,6,521,AS,exp,33,→,right,→,0.7826012000441551,True,16,1,0,15
Y2-S2-266K22,6,522,AS,exp,26,↓,down,↓,1.2372441999614239,True,15,1,0,15
Y2-S2-266K22,6,523,AS,exp,43,↑,up,↑,0.8671222999691963,True,15,1,0,15
Y2-S2-266K22,6,524,AS,exp,26,↓,down,↓,0.6134230997413397,True,15,1,0,15
Y2-S2-266K22,6,525,AS,exp,27,→,right,→,0.5256051002070308,True,14,1,0,15
Y2-S2-266K22,6,526,AS,exp,28,←,left,←,0.8923377003520727,True,14,1,0,15
Y2-S2-266K22,6,527,AS,exp,30,→,right,→,0.45763410022482276,True,14,1,0,15
Y2-S2-266K22,6,528,AS,exp,38,↓,down,↓,0.6066044000908732,True,13,1,0,15
Y2-S2-266K22,6,529,AS,exp,29,←,right,→,0.4947166000492871,False,13,-1,1,16
Y2-S2-266K22,7,530,AS,intra_train,29,→,right,→,0.5510607999749482,True,25,-,-,-
Y2-S2-266K22,7,531,AS,intra_train,31,↓,down,↓,1.1105684000067413,True,25,-,-,-
Y2-S2-266K22,7,532,AS,intra_train,42,←,left,←,1.1991510996595025,True,25,-,-,-
Y2-S2-266K22,7,533,AS,intra_train,37,↑,up,↑,1.0606308998540044,True,25,-,-,-
Y2-S2-266K22,7,534,AS,intra_train,42,←,left,←,0.892090099863708,True,25,-,-,-
Y2-S2-266K22,7,535,AS,exp,32,↑,left,←,1.2220683000050485,False,17,-1,0,0
Y2-S2-266K22,7,536,AS,exp,47,←,left,←,0.7850135997869074,True,18,-1,0,0
Y2-S2-266K22,7,537,AS,exp,27,↓,down,↓,1.1958146002143621,True,18,-1,0,0
Y2-S2-266K22,7,538,AS,exp,26,↑,up,↑,0.619446599856019,True,18,1,1,1
Y2-S2-266K22,7,539,AS,exp,39,↓,up,↑,0.6135025997646153,False,17,-1,1,2
Y2-S2-266K22,7,540,AS,exp,25,←,up,↑,0.648766899947077,False,18,-1,0,2
Y2-S2-266K22,7,541,AS,exp,25,↓,down,↓,0.7357057998888195,True,19,-1,0,2
Y2-S2-266K22,7,542,AS,exp,26,↑,down,↓,0.9144958998076618,False,19,-1,0,2
Y2-S2-266K22,7,543,AS,exp,45,↓,down,↓,0.5952770998701453,True,20,-1,0,2
Y2-S2-266K22,7,544,AS,exp,28,←,left,←,0.46749949967488647,True,20,-1,0,2
Y2-S2-266K22,7,545,AS,exp,37,↓,down,↓,0.7171437996439636,True,20,1,1,3
Y2-S2-266K22,7,546,AS,exp,37,←,left,←,0.5237213000655174,True,19,1,0,3
Y2-S2-266K22,7,547,AS,exp,27,↓,down,↓,0.5882186996750534,True,19,1,0,3
Y2-S2-266K22,7,548,AS,exp,47,←,left,←,0.49950059968978167,True,19,1,0,3
Y2-S2-266K22,7,549,AS,exp,41,→,right,→,1.1291971998289227,True,18,1,0,3
Y2-S2-266K22,7,550,AS,exp,41,←,left,←,0.6790510001592338,True,18,1,0,3
Y2-S2-266K22,7,551,AS,exp,33,↓,down,↓,0.617800900246948,True,18,1,0,3
Y2-S2-266K22,7,552,AS,exp,36,→,right,→,0.4723193999379873,True,17,1,0,3
Y2-S2-266K22,7,553,AS,exp,50,↓,down,↓,0.5018763998523355,True,17,1,0,3
Y2-S2-266K22,7,554,AS,exp,26,→,right,→,0.5891194995492697,True,17,1,0,3
Y2-S2-266K22,7,555,AS,exp,39,↓,up,↑,0.8362174998037517,False,16,-1,1,4
Y2-S2-266K22,7,556,AS,exp,48,→,right,→,0.4534173998981714,True,17,-1,0,4
Y2-S2-266K22,7,557,AS,exp,39,↓,down,↓,0.8264184999279678,True,17,-1,0,4
Y2-S2-266K22,7,558,AS,exp,48,↑,up,↑,0.4831090997904539,True,17,1,1,5
Y2-S2-266K22,7,559,AS,exp,40,←,up,↑,1.1991300000809133,False,16,-1,1,6
Y2-S2-266K22,7,560,AS,exp,40,↓,down,↓,0.5233521996997297,True,17,-1,0,6
Y2-S2-266K22,7,561,AS,exp,45,↑,up,↑,0.6852489998564124,True,17,-1,0,6
Y2-S2-266K22,7,562,AS,exp,45,→,right,→,0.722008700016886,True,17,1,1,7
Y2-S2-266K22,7,563,AS,exp,35,←,left,←,0.5712274997495115,True,16,1,0,7
Y2-S2-266K22,7,564,AS,exp,39,↓,down,↓,0.5163182001560926,True,16,1,0,7
Y2-S2-266K22,7,565,AS,exp,31,→,right,→,0.6160528999753296,True,16,1,0,7
Y2-S2-266K22,7,566,AS,exp,32,←,left,←,0.4810754000209272,True,15,1,0,7
Y2-S2-266K22,7,567,AS,exp,27,→,right,→,0.6553206001408398,True,15,1,0,7
Y2-S2-266K22,7,568,AS,exp,28,↑,up,↑,0.6454733996652067,True,15,1,0,7
Y2-S2-266K22,7,569,AS,exp,34,→,right,→,0.4125562999397516,True,14,1,0,7
Y2-S2-266K22,7,570,AS,exp,35,←,right,→,0.6255170996300876,False,14,-1,1,8
Y2-S2-266K22,7,571,AS,exp,25,→,right,→,0.6302249999716878,True,15,-1,0,8
Y2-S2-266K22,7,572,AS,exp,27,↓,right,→,0.6361491000279784,False,15,-1,0,8
Y2-S2-266K22,7,573,AS,exp,28,→,right,→,0.5350823998451233,True,16,-1,0,8
Y2-S2-266K22,7,574,AS,exp,29,↑,up,↑,0.5077978000044823,True,16,-1,0,8
Y2-S2-266K22,7,575,AS,exp,32,↓,right,→,0.6326628001406789,False,16,-1,0,8
Y2-S2-266K22,7,576,AS,exp,27,↑,up,↑,0.6357932998798788,True,17,-1,0,8
Y2-S2-266K22,7,577,AS,exp,49,↓,down,↓,0.6823084997013211,True,17,-1,0,8
Y2-S2-266K22,7,578,AS,exp,25,←,left,←,0.6782269002869725,True,17,1,1,9
Y2-S2-266K22,7,579,AS,exp,33,↑,up,↑,0.49235570011660457,True,16,1,0,9
Y2-S2-266K22,7,580,AS,exp,28,→,right,→,0.5432199998758733,True,16,1,0,9
Y2-S2-266K22,7,581,AS,exp,39,↓,right,→,0.5813511996529996,False,16,-1,1,10
Y2-S2-266K22,7,582,AS,exp,50,←,right,→,0.4661445003002882,False,17,-1,0,10
Y2-S2-266K22,7,583,AS,exp,30,↓,down,↓,0.711521599907428,True,18,-1,0,10
Y2-S2-266K22,7,584,AS,exp,45,←,left,←,0.5101028000935912,True,18,-1,0,10
Y2-S2-266K22,7,585,AS,exp,47,→,right,→,0.5455628000199795,True,18,1,1,11
Y2-S2-266K22,7,586,AS,exp,40,↓,down,↓,0.6051098997704685,True,17,1,0,11
Y2-S2-266K22,7,587,AS,exp,47,↑,up,↑,0.5281528001651168,True,17,1,0,11
Y2-S2-266K22,7,588,AS,exp,35,→,right,→,0.6841597002930939,True,17,1,0,11
Y2-S2-266K22,7,589,AS,exp,49,←,right,→,0.7836358002386987,False,16,-1,1,12
Y2-S2-266K22,7,590,AS,exp,45,↓,down,↓,0.4867842001840472,True,17,-1,0,12
Y2-S2-266K22,7,591,AS,exp,37,↑,up,↑,0.520204100292176,True,17,-1,0,12
Y2-S2-266K22,7,592,AS,exp,43,→,right,→,0.6545147001743317,True,17,1,1,13
Y2-S2-266K22,7,593,AS,exp,50,←,left,←,0.6020973999984562,True,16,1,0,13
Y2-S2-266K22,7,594,AS,exp,47,→,right,→,0.4681830001063645,True,16,1,0,13
Y2-S2-266K22,7,595,AS,exp,41,←,left,←,0.5330012999475002,True,16,1,0,13
Y2-S2-266K22,7,596,AS,exp,31,↑,right,→,0.6695985998958349,False,15,-1,1,14
Y2-S2-266K22,7,597,AS,exp,39,↓,down,↓,0.5151297999545932,True,16,-1,0,14
Y2-S2-266K22,7,598,AS,exp,28,→,right,→,0.7465964001603425,True,16,-1,0,14
Y2-S2-266K22,7,599,AS,exp,25,↑,up,↑,0.6253936998546124,True,16,1,1,15
Y2-S2-266K22,7,600,AS,exp,37,←,left,←,0.6830620998516679,True,15,1,0,15
Y2-S2-266K22,7,601,AS,exp,35,→,right,→,0.9579460001550615,True,15,1,0,15
Y2-S2-266K22,7,602,AS,exp,32,←,left,←,0.4729675999842584,True,15,1,0,15
Y2-S2-266K22,7,603,AS,exp,28,→,right,→,0.5870507997460663,True,14,1,0,15
Y2-S2-266K22,7,604,AS,exp,42,←,right,→,0.7553313001990318,False,14,-1,1,16
Y2-S2-266K22,8,605,PS,intra_train,47,→,right,→,0.4784109997563064,True,16,-,-,-
Y2-S2-266K22,8,606,PS,intra_train,29,←,left,←,0.6783194001764059,True,16,-,-,-
Y2-S2-266K22,8,607,PS,intra_train,40,↓,down,↓,0.6184163000434637,True,16,-,-,-
Y2-S2-266K22,8,608,PS,intra_train,47,↑,up,↑,0.49413989996537566,True,16,-,-,-
Y2-S2-266K22,8,609,PS,intra_train,43,→,right,→,0.44953430024906993,True,16,-,-,-
Y2-S2-266K22,8,610,PS,exp,34,↑,left,←,0.6693744002841413,False,11,-1,0,0
Y2-S2-266K22,8,611,PS,exp,32,←,right,→,0.5773271000944078,False,12,-1,0,0
Y2-S2-266K22,8,612,PS,exp,47,↑,up,↑,0.5839161002077162,True,13,-1,0,0
Y2-S2-266K22,8,613,PS,exp,32,↓,right,→,0.534332700073719,False,13,-1,0,0
Y2-S2-266K22,8,614,PS,exp,26,→,right,→,0.7349299998022616,True,14,-1,0,0
Y2-S2-266K22,8,615,PS,exp,46,↑,up,↑,0.6118418998084962,True,14,-1,0,0
Y2-S2-266K22,8,616,PS,exp,43,↓,down,↓,0.629536900203675,True,14,1,1,1
Y2-S2-266K22,8,617,PS,exp,35,↑,up,↑,0.8197813997976482,True,13,1,0,1
Y2-S2-266K22,8,618,PS,exp,28,→,right,→,0.9424010002985597,True,13,1,0,1
Y2-S2-266K22,8,619,PS,exp,47,↑,up,↑,0.6321874000132084,True,13,1,0,1
Y2-S2-266K22,8,620,PS,exp,48,↓,down,↓,0.6269918000325561,True,12,1,0,1
Y2-S2-266K22,8,621,PS,exp,41,→,right,→,0.5044378000311553,True,12,1,0,1
Y2-S2-266K22,8,622,PS,exp,37,↓,down,↓,0.4954618997871876,True,12,1,0,1
Y2-S2-266K22,8,623,PS,exp,49,↑,right,→,0.7329057999886572,False,11,-1,1,2
Y2-S2-266K22,8,624,PS,exp,49,→,right,→,0.5016217003576458,True,12,-1,0,2
Y2-S2-266K22,8,625,PS,exp,38,←,left,←,0.5388350998982787,True,12,-1,0,2
Y2-S2-266K22,8,626,PS,exp,48,↓,down,↓,0.49027329962700605,True,12,1,1,3
Y2-S2-266K22,8,627,PS,exp,30,→,right,→,0.4503687000833452,True,11,1,0,3
Y2-S2-266K22,8,628,PS,exp,45,↑,up,↑,0.5961901997216046,True,11,1,0,3
Y2-S2-266K22,8,629,PS,exp,39,←,left,←,0.48602369986474514,True,11,1,0,3
Y2-S2-266K22,8,630,PS,exp,29,↑,up,↑,0.4335268000140786,True,10,1,0,3
Y2-S2-266K22,8,631,PS,exp,32,↓,down,↓,0.5524581000208855,True,10,1,0,3
Y2-S2-266K22,8,632,PS,exp,37,↑,up,↑,0.5780664999037981,True,10,1,0,3
Y2-S2-266K22,8,633,PS,exp,32,↓,down,↓,0.6322576003149152,True,9,1,0,3
Y2-S2-266K22,8,634,PS,exp,29,←,left,←,0.7726050997152925,True,9,1,0,3
Y2-S2-266K22,8,635,PS,exp,37,→,right,→,0.47735440032556653,True,9,1,0,3
Y2-S2-266K22,8,636,PS,exp,43,↑,down,↓,0.6909171002916992,False,8,-1,1,4
Y2-S2-266K22,8,637,PS,exp,50,←,left,←,1.0314007000997663,True,9,-1,0,4
Y2-S2-266K22,8,638,PS,exp,45,↓,right,→,0.4411573000252247,False,9,-1,0,4
Y2-S2-266K22,8,639,PS,exp,45,→,right,→,0.5133224003948271,True,10,-1,0,4
Y2-S2-266K22,8,640,PS,exp,48,↑,up,↑,0.4262029998935759,True,10,-1,0,4
Y2-S2-266K22,8,641,PS,exp,31,↓,right,→,0.5836213999427855,False,10,-1,0,4
Y2-S2-266K22,8,642,PS,exp,29,←,left,←,0.42390190018340945,True,11,-1,0,4
Y2-S2-266K22,8,643,PS,exp,29,↓,right,→,0.5924438000656664,False,11,-1,0,4
Y2-S2-266K22,8,644,PS,exp,31,→,left,←,1.1588645000010729,False,12,-1,0,4
Y2-S2-266K22,8,645,PS,exp,30,↓,down,↓,0.627919000107795,True,13,-1,0,4
Y2-S2-266K22,8,646,PS,exp,49,←,left,←,0.44328050035983324,True,13,-1,0,4
Y2-S2-266K22,8,647,PS,exp,43,↓,down,↓,0.46155270002782345,True,13,1,1,5
Y2-S2-266K22,8,648,PS,exp,47,←,left,←,0.4354677000083029,True,12,1,0,5
Y2-S2-266K22,8,649,PS,exp,27,→,right,→,0.48111850023269653,True,12,1,0,5
Y2-S2-266K22,8,650,PS,exp,32,↑,right,→,0.5574953001923859,False,12,-1,1,6
Y2-S2-266K22,8,651,PS,exp,26,→,right,→,0.5523773999884725,True,13,-1,0,6
Y2-S2-266K22,8,652,PS,exp,46,↓,down,↓,0.5223674001172185,True,13,-1,0,6
Y2-S2-266K22,8,653,PS,exp,40,→,right,→,0.43175810016691685,True,13,1,1,7
Y2-S2-266K22,8,654,PS,exp,32,↓,down,↓,0.4889849000610411,True,12,1,0,7
Y2-S2-266K22,8,655,PS,exp,48,↑,right,→,0.6475474000908434,False,12,-1,1,8
Y2-S2-266K22,8,656,PS,exp,34,←,left,←,0.5626856996677816,True,13,-1,0,8
Y2-S2-266K22,8,657,PS,exp,27,↓,down,↓,0.6656880001537502,True,13,-1,0,8
Y2-S2-266K22,8,658,PS,exp,38,←,left,←,0.4809361998923123,True,13,1,1,9
Y2-S2-266K22,8,659,PS,exp,40,→,left,←,0.8343724999576807,False,12,-1,1,10
Y2-S2-266K22,8,660,PS,exp,28,←,left,←,0.44733469979837537,True,13,-1,0,10
Y2-S2-266K22,8,661,PS,exp,39,↑,up,↑,0.4578803996555507,True,13,-1,0,10
Y2-S2-266K22,8,662,PS,exp,48,→,right,→,0.5749543998390436,True,13,1,1,11
Y2-S2-266K22,8,663,PS,exp,37,↑,up,↑,0.7538032997399569,True,12,1,0,11
Y2-S2-266K22,8,664,PS,exp,44,↓,down,↓,0.5179411000572145,True,12,1,0,11
Y2-S2-266K22,8,665,PS,exp,38,↑,up,↑,0.47830289974808693,True,12,1,0,11
Y2-S2-266K22,8,666,PS,exp,31,↓,down,↓,0.5037496001459658,True,11,1,0,11
Y2-S2-266K22,8,667,PS,exp,47,←,left,←,0.5733849001117051,True,11,1,0,11
Y2-S2-266K22,8,668,PS,exp,35,→,right,→,0.6453035003505647,True,11,1,0,11
Y2-S2-266K22,8,669,PS,exp,40,↓,right,→,0.4818096999078989,False,10,-1,1,12
Y2-S2-266K22,8,670,PS,exp,26,←,right,→,0.5147079997695982,False,11,-1,0,12
Y2-S2-266K22,8,671,PS,exp,28,↑,up,↑,0.745607300195843,True,12,-1,0,12
Y2-S2-266K22,8,672,PS,exp,49,↓,down,↓,0.6101734000258148,True,12,-1,0,12
Y2-S2-266K22,8,673,PS,exp,40,→,right,→,0.4799194000661373,True,12,1,1,13
Y2-S2-266K22,8,674,PS,exp,36,↑,up,↑,0.47355129988864064,True,11,1,0,13
Y2-S2-266K22,8,675,PS,exp,38,←,left,←,0.64723140001297,True,11,1,0,13
Y2-S2-266K22,8,676,PS,exp,37,↑,left,←,0.9057112000882626,False,11,-1,1,14
Y2-S2-266K22,8,677,PS,exp,29,→,right,→,0.5872047999873757,True,12,-1,0,14
Y2-S2-266K22,8,678,PS,exp,44,↓,down,↓,0.5547153004445136,True,12,-1,0,14
Y2-S2-266K22,8,679,PS,exp,29,→,right,→,0.4308044002391398,True,12,1,1,15
Y2-S2-266K22,8,680,PS,exp,39,←,left,←,0.7453947998583317,True,11,1,0,15
Y2-S2-266K22,8,681,PS,exp,27,↑,right,→,0.476840500254184,False,11,-1,1,16
