PART_ID,Block_no,Trial_no,Block_type,Trial_type,CSI,Stim_letter,Key_pressed,letter_choose,Rt,Corr,Stimulus Time,Level,Reversal,Revs_count
Y2-S2-138K24,1,1,PS,train,30,→,right,→,0.8628256000811234,True,30,-,-,-
Y2-S2-138K24,1,2,PS,train,25,←,left,←,0.9473117999732494,True,30,-,-,-
Y2-S2-138K24,1,3,PS,train,36,↓,down,↓,0.8516080999979749,True,30,-,-,-
Y2-S2-138K24,1,4,PS,train,43,→,right,→,0.8818486999953166,True,30,-,-,-
Y2-S2-138K24,1,5,PS,train,47,↑,up,↑,0.9512555999681354,True,30,-,-,-
Y2-S2-138K24,1,6,PS,train,38,→,right,→,0.7271954000461847,True,30,-,-,-
Y2-S2-138K24,1,7,PS,train,28,←,left,←,0.9308356000110507,True,30,-,-,-
Y2-S2-138K24,1,8,PS,train,44,→,right,→,0.9229098999639973,True,30,-,-,-
Y2-S2-138K24,1,9,PS,train,25,←,left,←,0.5505770000163466,True,30,-,-,-
Y2-S2-138K24,1,10,PS,train,49,↓,down,↓,0.7534225999843329,True,30,-,-,-
Y2-S2-138K24,2,11,AS,train,37,↑,up,↑,0.7010353999212384,True,45,-,-,-
Y2-S2-138K24,2,12,AS,train,37,←,left,←,0.5677176000317559,True,45,-,-,-
Y2-S2-138K24,2,13,AS,train,32,→,right,→,0.9501861000899225,True,45,-,-,-
Y2-S2-138K24,2,14,AS,train,26,←,left,←,0.9861243999330327,True,45,-,-,-
Y2-S2-138K24,2,15,AS,train,29,↓,down,↓,0.8337825000053272,True,45,-,-,-
Y2-S2-138K24,2,16,AS,train,46,→,right,→,0.8005648000398651,True,45,-,-,-
Y2-S2-138K24,2,17,AS,train,37,↓,down,↓,0.7178951000096276,True,45,-,-,-
Y2-S2-138K24,2,18,AS,train,41,↑,up,↑,0.8170392999891192,True,45,-,-,-
Y2-S2-138K24,2,19,AS,train,50,↓,down,↓,0.834129000082612,True,45,-,-,-
Y2-S2-138K24,2,20,AS,train,34,←,left,←,1.018695699982345,True,45,-,-,-
Y2-S2-138K24,-,21,PS,adaptive,48,→,left,←,1.097740099998191,False,10,-1,0,0
Y2-S2-138K24,-,22,PS,adaptive,38,←,left,←,0.5934669999405742,True,11,-1,0,0
Y2-S2-138K24,-,23,PS,adaptive,32,→,right,→,0.48893459991086274,True,11,-1,0,0
Y2-S2-138K24,-,24,PS,adaptive,33,↑,up,↑,0.9032424000324681,True,11,1,1,1
Y2-S2-138K24,-,25,PS,adaptive,34,←,left,←,0.6451558999251574,True,10,1,0,1
Y2-S2-138K24,-,26,PS,adaptive,27,↓,down,↓,0.6907372999703512,True,10,1,0,1
Y2-S2-138K24,-,27,PS,adaptive,46,→,right,→,0.6857848999788985,True,10,1,0,1
Y2-S2-138K24,-,28,PS,adaptive,48,←,left,←,0.6741563000250608,True,9,1,0,1
Y2-S2-138K24,-,29,PS,adaptive,37,→,left,←,0.7205785000696778,False,9,-1,1,2
Y2-S2-138K24,-,30,PS,adaptive,36,←,left,←,0.5662077000597492,True,10,-1,0,2
Y2-S2-138K24,-,31,PS,adaptive,31,↓,down,↓,0.5869493999052793,True,10,-1,0,2
Y2-S2-138K24,-,32,PS,adaptive,42,→,right,→,0.585787900025025,True,10,1,1,3
Y2-S2-138K24,-,33,PS,adaptive,25,↑,up,↑,0.6061693999217823,True,9,1,0,3
Y2-S2-138K24,-,34,PS,adaptive,50,→,left,←,0.7666121999500319,False,9,-1,1,4
Y2-S2-138K24,-,35,AS,adaptive,34,↑,up,↑,0.5186075000092387,True,20,0,0,0
Y2-S2-138K24,-,36,AS,adaptive,45,→,right,→,0.5124811999266967,True,20,0,0,0
Y2-S2-138K24,-,37,AS,adaptive,42,←,left,←,0.5390798000153154,True,20,1,0,0
Y2-S2-138K24,-,38,AS,adaptive,41,↑,up,↑,0.6426846000831574,True,19,1,0,0
Y2-S2-138K24,-,39,AS,adaptive,37,←,left,←,0.5356750999344513,True,19,1,0,0
Y2-S2-138K24,-,40,AS,adaptive,34,→,right,→,0.5481137000024319,True,19,1,0,0
Y2-S2-138K24,-,41,AS,adaptive,31,↓,down,↓,0.4808245000895113,True,18,1,0,0
Y2-S2-138K24,-,42,AS,adaptive,50,→,right,→,0.472882799920626,True,18,1,0,0
Y2-S2-138K24,-,43,AS,adaptive,45,↓,down,↓,0.6646754000103101,True,18,1,0,0
Y2-S2-138K24,-,44,AS,adaptive,30,↑,up,↑,0.604640599922277,True,17,1,0,0
Y2-S2-138K24,-,45,AS,adaptive,36,↓,down,↓,0.5645248000510037,True,17,1,0,0
Y2-S2-138K24,-,46,AS,adaptive,32,→,right,→,0.41722289996687323,True,17,1,0,0
Y2-S2-138K24,-,47,AS,adaptive,46,←,right,→,0.9714872000040486,False,16,-1,1,1
Y2-S2-138K24,-,48,AS,adaptive,45,↓,up,↑,0.9260635999962687,False,17,-1,0,1
Y2-S2-138K24,-,49,AS,adaptive,32,→,right,→,0.5283819000469521,True,18,-1,0,1
Y2-S2-138K24,-,50,AS,adaptive,50,↓,down,↓,0.5098774000070989,True,18,-1,0,1
Y2-S2-138K24,-,51,AS,adaptive,44,→,right,→,0.6225824999855831,True,18,1,1,2
Y2-S2-138K24,-,52,AS,adaptive,26,←,left,←,0.6214627999579534,True,17,1,0,2
Y2-S2-138K24,-,53,AS,adaptive,42,↓,down,↓,0.6386132000479847,True,17,1,0,2
Y2-S2-138K24,-,54,AS,adaptive,26,←,right,→,0.7404736999887973,False,17,-1,1,3
Y2-S2-138K24,-,55,AS,adaptive,45,↓,down,↓,0.6992470999248326,True,18,-1,0,3
Y2-S2-138K24,-,56,AS,adaptive,46,↑,up,↑,0.6992956000613049,True,18,-1,0,3
Y2-S2-138K24,-,57,AS,adaptive,50,←,left,←,0.576885300106369,True,18,1,1,4
Y2-S2-138K24,1,58,PS,intra_train,25,↑,up,↑,0.612590300035663,True,15,-,-,-
Y2-S2-138K24,1,59,PS,intra_train,35,↓,down,↓,0.6284064000938088,True,15,-,-,-
Y2-S2-138K24,1,60,PS,intra_train,25,→,right,→,0.5307462000055239,True,15,-,-,-
Y2-S2-138K24,1,61,PS,intra_train,41,←,left,←,0.5076085000764579,True,15,-,-,-
Y2-S2-138K24,1,62,PS,intra_train,30,→,right,→,0.5506674000062048,True,15,-,-,-
Y2-S2-138K24,1,63,PS,exp,29,↓,down,↓,0.8916788999922574,True,10,0,0,0
Y2-S2-138K24,1,64,PS,exp,50,→,right,→,0.7008752999827266,True,10,0,0,0
Y2-S2-138K24,1,65,PS,exp,28,←,left,←,0.5624947000760585,True,10,1,0,0
Y2-S2-138K24,1,66,PS,exp,47,↓,right,→,0.7138897000113502,False,9,-1,1,1
Y2-S2-138K24,1,67,PS,exp,39,→,left,←,0.664742200053297,False,10,-1,0,1
Y2-S2-138K24,1,68,PS,exp,31,↓,down,↓,0.4133833999512717,True,11,-1,0,1
Y2-S2-138K24,1,69,PS,exp,29,→,left,←,0.6997805000282824,False,11,-1,0,1
Y2-S2-138K24,1,70,PS,exp,40,↓,down,↓,0.5957786999642849,True,12,-1,0,1
Y2-S2-138K24,1,71,PS,exp,33,→,right,→,0.640633299946785,True,12,-1,0,1
Y2-S2-138K24,1,72,PS,exp,45,↑,right,→,0.7904573000269011,False,12,-1,0,1
Y2-S2-138K24,1,73,PS,exp,31,←,left,←,0.47586130001582205,True,13,-1,0,1
Y2-S2-138K24,1,74,PS,exp,45,→,right,→,0.5171882000286132,True,13,-1,0,1
Y2-S2-138K24,1,75,PS,exp,50,↓,down,↓,0.48943030007649213,True,13,1,1,2
Y2-S2-138K24,1,76,PS,exp,41,→,right,→,0.4390702999662608,True,12,1,0,2
Y2-S2-138K24,1,77,PS,exp,37,←,left,←,0.478752400027588,True,12,1,0,2
Y2-S2-138K24,1,78,PS,exp,48,↑,up,↑,0.525304300012067,True,12,1,0,2
Y2-S2-138K24,1,79,PS,exp,38,↓,down,↓,0.5470418999902904,True,11,1,0,2
Y2-S2-138K24,1,80,PS,exp,27,→,right,→,0.41121389996260405,True,11,1,0,2
Y2-S2-138K24,1,81,PS,exp,46,←,right,→,1.0682748999679461,False,11,-1,1,3
Y2-S2-138K24,1,82,PS,exp,44,↑,up,↑,0.5880067000398412,True,12,-1,0,3
Y2-S2-138K24,1,83,PS,exp,25,→,left,←,0.8455285000381991,False,12,-1,0,3
Y2-S2-138K24,1,84,PS,exp,30,↓,down,↓,0.5214827000163496,True,13,-1,0,3
Y2-S2-138K24,1,85,PS,exp,45,←,left,←,0.568497599917464,True,13,-1,0,3
Y2-S2-138K24,1,86,PS,exp,27,→,right,→,0.4650936999823898,True,13,1,1,4
Y2-S2-138K24,1,87,PS,exp,30,↓,down,↓,0.4124299999093637,True,12,1,0,4
Y2-S2-138K24,1,88,PS,exp,49,↑,up,↑,0.7161438999464735,True,12,1,0,4
Y2-S2-138K24,1,89,PS,exp,26,→,right,→,1.4770788999740034,True,12,1,0,4
Y2-S2-138K24,1,90,PS,exp,38,↑,up,↑,0.4187792999437079,True,11,1,0,4
Y2-S2-138K24,1,91,PS,exp,29,↓,down,↓,0.46522629994433373,True,11,1,0,4
Y2-S2-138K24,1,92,PS,exp,40,↑,right,→,0.7110436999937519,False,11,-1,1,5
Y2-S2-138K24,1,93,PS,exp,38,←,right,→,0.9483275000238791,False,12,-1,0,5
Y2-S2-138K24,1,94,PS,exp,31,↓,down,↓,0.6621699999086559,True,13,-1,0,5
Y2-S2-138K24,1,95,PS,exp,40,→,right,→,0.588930599973537,True,13,-1,0,5
Y2-S2-138K24,1,96,PS,exp,34,←,left,←,0.5437367999693379,True,13,1,1,6
Y2-S2-138K24,1,97,PS,exp,36,↑,up,↑,0.5045433000195771,True,12,1,0,6
Y2-S2-138K24,1,98,PS,exp,29,↓,down,↓,0.6132679999573156,True,12,1,0,6
Y2-S2-138K24,1,99,PS,exp,32,→,right,→,0.45738760009407997,True,12,1,0,6
Y2-S2-138K24,1,100,PS,exp,35,←,left,←,0.4585319999605417,True,11,1,0,6
Y2-S2-138K24,1,101,PS,exp,32,↑,up,↑,1.6688027998898178,True,11,1,0,6
Y2-S2-138K24,1,102,PS,exp,38,←,left,←,0.4618260000133887,True,11,1,0,6
Y2-S2-138K24,1,103,PS,exp,34,↑,up,↑,0.5656621999805793,True,10,1,0,6
Y2-S2-138K24,1,104,PS,exp,28,↓,right,→,0.6995769001077861,False,10,-1,1,7
Y2-S2-138K24,1,105,PS,exp,48,→,right,→,0.6170215000165626,True,11,-1,0,7
Y2-S2-138K24,1,106,PS,exp,25,↑,up,↑,0.45698799996171147,True,11,-1,0,7
Y2-S2-138K24,1,107,PS,exp,37,←,left,←,0.4611492999829352,True,11,1,1,8
Y2-S2-138K24,1,108,PS,exp,33,↑,up,↑,0.39925479993689805,True,10,1,0,8
Y2-S2-138K24,1,109,PS,exp,43,→,up,↑,0.7511838000500575,False,10,-1,1,9
Y2-S2-138K24,1,110,PS,exp,47,←,left,←,0.5111129999859259,True,11,-1,0,9
Y2-S2-138K24,1,111,PS,exp,28,→,right,→,0.7754987999796867,True,11,-1,0,9
Y2-S2-138K24,1,112,PS,exp,28,←,left,←,0.47734009998384863,True,11,1,1,10
Y2-S2-138K24,1,113,PS,exp,40,→,right,→,0.4476843000156805,True,10,1,0,10
Y2-S2-138K24,1,114,PS,exp,32,←,left,←,0.5113992999540642,True,10,1,0,10
Y2-S2-138K24,1,115,PS,exp,27,↑,up,↑,0.46573629998601973,True,10,1,0,10
Y2-S2-138K24,1,116,PS,exp,31,←,left,←,0.7675872000399977,True,9,1,0,10
Y2-S2-138K24,1,117,PS,exp,28,→,right,→,0.7080315999919549,True,9,1,0,10
Y2-S2-138K24,1,118,PS,exp,27,↑,up,↑,0.42762820003554225,True,9,1,0,10
Y2-S2-138K24,1,119,PS,exp,46,↓,down,↓,0.6021466000238433,True,8,1,0,10
Y2-S2-138K24,1,120,PS,exp,36,↑,up,↑,0.5049735000357032,True,8,1,0,10
Y2-S2-138K24,1,121,PS,exp,48,↓,down,↓,0.4106769000645727,True,8,1,0,10
Y2-S2-138K24,1,122,PS,exp,41,↑,right,→,0.5955749000422657,False,7,-1,1,11
Y2-S2-138K24,1,123,PS,exp,32,↓,down,↓,0.6984483000123873,True,8,-1,0,11
Y2-S2-138K24,1,124,PS,exp,42,←,right,→,0.6892958000535145,False,8,-1,0,11
Y2-S2-138K24,1,125,PS,exp,46,↓,down,↓,0.48610960005316883,True,9,-1,0,11
Y2-S2-138K24,1,126,PS,exp,42,↑,right,→,0.530045099905692,False,9,-1,0,11
Y2-S2-138K24,1,127,PS,exp,35,→,right,→,0.4357441000174731,True,10,-1,0,11
Y2-S2-138K24,1,128,PS,exp,27,←,left,←,0.5914343999465927,True,10,-1,0,11
Y2-S2-138K24,1,129,PS,exp,38,→,right,→,0.46879729989450425,True,10,1,1,12
Y2-S2-138K24,1,130,PS,exp,47,↓,down,↓,0.45549140009097755,True,9,1,0,12
Y2-S2-138K24,1,131,PS,exp,28,←,left,←,0.47749479999765754,True,9,1,0,12
Y2-S2-138K24,1,132,PS,exp,28,→,right,→,0.4523005000082776,True,9,1,0,12
Y2-S2-138K24,1,133,PS,exp,49,←,left,←,0.6982988999225199,True,8,1,0,12
Y2-S2-138K24,1,134,PS,exp,32,↓,down,↓,0.41700030001811683,True,8,1,0,12
Y2-S2-138K24,1,135,PS,exp,38,↑,up,↑,0.5561335000675172,True,8,1,0,12
Y2-S2-138K24,1,136,PS,exp,35,←,left,←,0.5578343000961468,True,7,1,0,12
Y2-S2-138K24,1,137,PS,exp,41,↑,up,↑,0.5885813999921083,True,7,1,0,12
Y2-S2-138K24,1,138,PS,exp,45,↓,down,↓,0.42647119995672256,True,7,1,0,12
Y2-S2-138K24,1,139,PS,exp,48,↑,left,←,0.8183258000062779,False,6,-1,1,13
Y2-S2-138K24,1,140,PS,exp,26,↓,left,←,0.9851360999746248,False,7,-1,0,13
Y2-S2-138K24,1,141,PS,exp,26,→,right,→,0.5521114999428391,True,8,-1,0,13
Y2-S2-138K24,1,142,PS,exp,25,↑,left,←,0.6620203000493348,False,8,-1,0,13
Y2-S2-138K24,1,143,PS,exp,34,←,left,←,0.4499731999821961,True,9,-1,0,13
Y2-S2-138K24,1,144,PS,exp,36,→,right,→,0.41759029997047037,True,9,-1,0,13
Y2-S2-138K24,1,145,PS,exp,28,↓,right,→,0.6342783999862149,False,9,-1,0,13
Y2-S2-138K24,1,146,PS,exp,44,↑,up,↑,0.5472878000000492,True,10,-1,0,13
Y2-S2-138K24,1,147,PS,exp,49,↓,down,↓,0.6044318999629468,True,10,-1,0,13
Y2-S2-138K24,1,148,PS,exp,35,→,right,→,0.6581044000340626,True,10,1,1,14
Y2-S2-138K24,1,149,PS,exp,31,↑,up,↑,0.4890575000317767,True,9,1,0,14
Y2-S2-138K24,1,150,PS,exp,27,←,left,←,0.5152981999563053,True,9,1,0,14
Y2-S2-138K24,1,151,PS,exp,47,↓,down,↓,0.6334062999812886,True,9,1,0,14
Y2-S2-138K24,1,152,PS,exp,33,↑,up,↑,0.6310322999488562,True,8,1,0,14
Y2-S2-138K24,1,153,PS,exp,30,→,right,→,0.6392867000540718,True,8,1,0,14
Y2-S2-138K24,1,154,PS,exp,48,←,left,←,0.7796079999534413,True,8,1,0,14
Y2-S2-138K24,1,155,PS,exp,28,↑,up,↑,0.4528932999819517,True,7,1,0,14
Y2-S2-138K24,1,156,PS,exp,46,→,left,←,0.7719996999949217,False,7,-1,1,15
Y2-S2-138K24,1,157,PS,exp,28,←,left,←,0.45716009999159724,True,8,-1,0,15
Y2-S2-138K24,1,158,PS,exp,34,↓,right,→,0.9657581000356004,False,8,-1,0,15
Y2-S2-138K24,1,159,PS,exp,40,→,right,→,0.6390881000552326,True,9,-1,0,15
Y2-S2-138K24,1,160,PS,exp,29,←,left,←,0.5319548000115901,True,9,-1,0,15
Y2-S2-138K24,1,161,PS,exp,45,↓,up,↑,0.3992292999755591,False,9,-1,0,15
Y2-S2-138K24,1,162,PS,exp,25,→,right,→,0.5750375000061467,True,10,-1,0,15
Y2-S2-138K24,1,163,PS,exp,44,←,left,←,0.5936680999584496,True,10,-1,0,15
Y2-S2-138K24,1,164,PS,exp,40,→,right,→,0.6437089000828564,True,10,1,1,16
Y2-S2-138K24,2,165,AS,intra_train,42,↓,down,↓,0.7214136000256985,True,25,-,-,-
Y2-S2-138K24,2,166,AS,intra_train,48,→,right,→,0.6258608000352979,True,25,-,-,-
Y2-S2-138K24,2,167,AS,intra_train,50,↑,up,↑,0.6121693000895903,True,25,-,-,-
Y2-S2-138K24,2,168,AS,intra_train,43,←,left,←,0.6787049999693409,True,25,-,-,-
Y2-S2-138K24,2,169,AS,intra_train,26,↑,up,↑,0.6699273999547586,True,25,-,-,-
Y2-S2-138K24,2,170,AS,exp,34,↓,down,↓,0.6045354000525549,True,17,0,0,0
Y2-S2-138K24,2,171,AS,exp,43,↑,right,→,1.1315387999638915,False,17,-1,0,0
Y2-S2-138K24,2,172,AS,exp,45,→,right,→,0.7187412999337539,True,18,-1,0,0
Y2-S2-138K24,2,173,AS,exp,31,↓,down,↓,0.746396099915728,True,18,-1,0,0
Y2-S2-138K24,2,174,AS,exp,29,↑,up,↑,0.6478434999007732,True,18,1,1,1
Y2-S2-138K24,2,175,AS,exp,43,←,left,←,0.6447111999150366,True,17,1,0,1
Y2-S2-138K24,2,176,AS,exp,28,↑,up,↑,0.5610785000026226,True,17,1,0,1
Y2-S2-138K24,2,177,AS,exp,28,←,left,←,0.7110755000030622,True,17,1,0,1
Y2-S2-138K24,2,178,AS,exp,42,→,left,←,0.9618877000175416,False,16,-1,1,2
Y2-S2-138K24,2,179,AS,exp,34,↓,down,↓,0.5591018999693915,True,17,-1,0,2
Y2-S2-138K24,2,180,AS,exp,26,←,left,←,0.49593420000746846,True,17,-1,0,2
Y2-S2-138K24,2,181,AS,exp,35,↑,up,↑,0.6347264000214636,True,17,1,1,3
Y2-S2-138K24,2,182,AS,exp,31,↓,down,↓,0.5543598000658676,True,16,1,0,3
Y2-S2-138K24,2,183,AS,exp,49,←,left,←,0.48833109997212887,True,16,1,0,3
Y2-S2-138K24,2,184,AS,exp,40,→,right,→,0.559044299996458,True,16,1,0,3
Y2-S2-138K24,2,185,AS,exp,49,↑,up,↑,0.7511819000355899,True,15,1,0,3
Y2-S2-138K24,2,186,AS,exp,39,→,right,→,0.6823705999413505,True,15,1,0,3
Y2-S2-138K24,2,187,AS,exp,43,↑,up,↑,0.6279827000107616,True,15,1,0,3
Y2-S2-138K24,2,188,AS,exp,27,→,right,→,0.6306665999582037,True,14,1,0,3
Y2-S2-138K24,2,189,AS,exp,42,↓,down,↓,0.6504865000024438,True,14,1,0,3
Y2-S2-138K24,2,190,AS,exp,34,→,left,←,0.8031384999630973,False,14,-1,1,4
Y2-S2-138K24,2,191,AS,exp,35,↑,up,↑,0.6737394999945536,True,15,-1,0,4
Y2-S2-138K24,2,192,AS,exp,38,→,right,→,0.7661710999673232,True,15,-1,0,4
Y2-S2-138K24,2,193,AS,exp,50,↓,down,↓,0.6313583001028746,True,15,1,1,5
Y2-S2-138K24,2,194,AS,exp,48,→,right,→,0.8149785000132397,True,14,1,0,5
Y2-S2-138K24,2,195,AS,exp,37,↑,down,↓,0.4891281999880448,False,14,-1,1,6
Y2-S2-138K24,2,196,AS,exp,25,↓,down,↓,0.8716930999653414,True,15,-1,0,6
Y2-S2-138K24,2,197,AS,exp,38,→,right,→,0.6040268000215292,True,15,-1,0,6
Y2-S2-138K24,2,198,AS,exp,35,↑,up,↑,0.5631724999984726,True,15,1,1,7
Y2-S2-138K24,2,199,AS,exp,38,←,left,←,0.4677204000763595,True,14,1,0,7
Y2-S2-138K24,2,200,AS,exp,42,↑,up,↑,0.4559089000103995,True,14,1,0,7
Y2-S2-138K24,2,201,AS,exp,33,←,left,←,0.48817550006788224,True,14,1,0,7
Y2-S2-138K24,2,202,AS,exp,29,↓,down,↓,0.49154419999103993,True,13,1,0,7
Y2-S2-138K24,2,203,AS,exp,26,→,right,→,0.4261748999124393,True,13,1,0,7
Y2-S2-138K24,2,204,AS,exp,47,↓,down,↓,0.30033240001648664,True,13,1,0,7
Y2-S2-138K24,2,205,AS,exp,28,↑,up,↑,0.8316043000668287,True,12,1,0,7
Y2-S2-138K24,2,206,AS,exp,32,→,right,→,0.7866475000046194,True,12,1,0,7
Y2-S2-138K24,2,207,AS,exp,30,←,left,←,0.5480527000036091,True,12,1,0,7
Y2-S2-138K24,2,208,AS,exp,32,↑,up,↑,0.5030235999729484,True,11,1,0,7
Y2-S2-138K24,2,209,AS,exp,37,←,right,→,0.9792823999887332,False,11,-1,1,8
Y2-S2-138K24,2,210,AS,exp,35,↑,up,↑,0.708889800007455,True,12,-1,0,8
Y2-S2-138K24,2,211,AS,exp,39,←,left,←,0.554846299928613,True,12,-1,0,8
Y2-S2-138K24,2,212,AS,exp,37,↓,down,↓,0.581854599993676,True,12,1,1,9
Y2-S2-138K24,2,213,AS,exp,42,←,right,→,0.8562524999724701,False,11,-1,1,10
Y2-S2-138K24,2,214,AS,exp,38,↑,up,↑,0.4965703999623656,True,12,-1,0,10
Y2-S2-138K24,2,215,AS,exp,46,←,left,←,0.7418737000552937,True,12,-1,0,10
Y2-S2-138K24,2,216,AS,exp,33,↑,up,↑,0.6907225000904873,True,12,1,1,11
Y2-S2-138K24,2,217,AS,exp,30,→,left,←,0.8798992000520229,False,11,-1,1,12
Y2-S2-138K24,2,218,AS,exp,47,↓,left,←,1.0566919000120834,False,12,-1,0,12
Y2-S2-138K24,2,219,AS,exp,46,←,left,←,0.663535000057891,True,13,-1,0,12
Y2-S2-138K24,2,220,AS,exp,48,→,right,→,0.5013579999795184,True,13,-1,0,12
Y2-S2-138K24,2,221,AS,exp,39,←,left,←,0.6195204999530688,True,13,1,1,13
Y2-S2-138K24,2,222,AS,exp,31,↓,down,↓,0.7136625000275671,True,12,1,0,13
Y2-S2-138K24,2,223,AS,exp,28,→,right,→,0.4576614999677986,True,12,1,0,13
Y2-S2-138K24,2,224,AS,exp,38,↑,down,↓,0.7026736000552773,False,12,-1,1,14
Y2-S2-138K24,2,225,AS,exp,50,↓,up,↑,0.8656319000292569,False,13,-1,0,14
Y2-S2-138K24,2,226,AS,exp,47,→,left,←,0.5471091999206692,False,14,-1,0,14
Y2-S2-138K24,2,227,AS,exp,44,↓,down,↓,0.4454183999914676,True,15,-1,0,14
Y2-S2-138K24,2,228,AS,exp,47,↑,up,↑,0.584704399923794,True,15,-1,0,14
Y2-S2-138K24,2,229,AS,exp,39,↓,down,↓,0.5511525000911206,True,15,1,1,15
Y2-S2-138K24,2,230,AS,exp,30,↑,down,↓,0.685023199999705,False,14,-1,1,16
Y2-S2-138K24,3,231,AS,intra_train,31,↓,down,↓,0.6514645999995992,True,25,-,-,-
Y2-S2-138K24,3,232,AS,intra_train,28,←,left,←,1.1966076000826433,True,25,-,-,-
Y2-S2-138K24,3,233,AS,intra_train,50,↓,no_key,no_letter,-1.0,False,25,-,-,-
Y2-S2-138K24,3,234,AS,intra_train,36,→,right,→,0.6257892999565229,True,25,-,-,-
Y2-S2-138K24,3,235,AS,intra_train,29,↓,down,↓,0.6245311999227852,True,25,-,-,-
Y2-S2-138K24,3,236,AS,exp,40,→,right,→,0.6805255999788642,True,17,0,0,0
Y2-S2-138K24,3,237,AS,exp,35,↑,up,↑,0.6480663999682292,True,17,0,0,0
Y2-S2-138K24,3,238,AS,exp,47,→,right,→,0.47372329991776496,True,17,1,0,0
Y2-S2-138K24,3,239,AS,exp,25,↑,up,↑,0.5828309999778867,True,16,1,0,0
Y2-S2-138K24,3,240,AS,exp,43,←,left,←,0.5019288000185043,True,16,1,0,0
Y2-S2-138K24,3,241,AS,exp,47,↑,up,↑,0.48799220006912947,True,16,1,0,0
Y2-S2-138K24,3,242,AS,exp,36,→,left,←,0.6990800999337807,False,15,-1,1,1
Y2-S2-138K24,3,243,AS,exp,43,↓,down,↓,0.7060216999379918,True,16,-1,0,1
Y2-S2-138K24,3,244,AS,exp,40,↑,up,↑,1.3585805000038818,True,16,-1,0,1
Y2-S2-138K24,3,245,AS,exp,49,←,left,←,0.7359046000055969,True,16,1,1,2
Y2-S2-138K24,3,246,AS,exp,37,↑,up,↑,0.5326654999516904,True,15,1,0,2
Y2-S2-138K24,3,247,AS,exp,46,↓,down,↓,0.5618333000456914,True,15,1,0,2
Y2-S2-138K24,3,248,AS,exp,27,→,right,→,0.6611914000241086,True,15,1,0,2
Y2-S2-138K24,3,249,AS,exp,49,←,down,↓,0.8999212000053376,False,14,-1,1,3
Y2-S2-138K24,3,250,AS,exp,39,→,right,→,0.5709142000414431,True,15,-1,0,3
Y2-S2-138K24,3,251,AS,exp,34,↑,up,↑,0.6688403999432921,True,15,-1,0,3
Y2-S2-138K24,3,252,AS,exp,28,↓,up,↑,0.789940599934198,False,15,-1,0,3
Y2-S2-138K24,3,253,AS,exp,44,→,right,→,0.5970231000101194,True,16,-1,0,3
Y2-S2-138K24,3,254,AS,exp,40,←,left,←,0.6423203999875113,True,16,-1,0,3
Y2-S2-138K24,3,255,AS,exp,39,↓,down,↓,0.5765028999885544,True,16,1,1,4
Y2-S2-138K24,3,256,AS,exp,31,↑,up,↑,0.5599094000644982,True,15,1,0,4
Y2-S2-138K24,3,257,AS,exp,37,←,left,←,0.5159005000023171,True,15,1,0,4
Y2-S2-138K24,3,258,AS,exp,45,↓,down,↓,0.6135834000306204,True,15,1,0,4
Y2-S2-138K24,3,259,AS,exp,25,←,left,←,0.6581297001102939,True,14,1,0,4
Y2-S2-138K24,3,260,AS,exp,41,↑,up,↑,0.7828264000127092,True,14,1,0,4
Y2-S2-138K24,3,261,AS,exp,25,←,left,←,0.6063454999821261,True,14,1,0,4
Y2-S2-138K24,3,262,AS,exp,42,↑,up,↑,1.2056758999824524,True,13,1,0,4
Y2-S2-138K24,3,263,AS,exp,27,→,right,→,0.4665749000851065,True,13,1,0,4
Y2-S2-138K24,3,264,AS,exp,26,←,left,←,0.6257327999919653,True,13,1,0,4
Y2-S2-138K24,3,265,AS,exp,33,↑,up,↑,0.7271828000666574,True,12,1,0,4
Y2-S2-138K24,3,266,AS,exp,49,↓,down,↓,0.5584952000062913,True,12,1,0,4
Y2-S2-138K24,3,267,AS,exp,34,→,right,→,0.5994936999632046,True,12,1,0,4
Y2-S2-138K24,3,268,AS,exp,44,↑,up,↑,0.526960700051859,True,11,1,0,4
Y2-S2-138K24,3,269,AS,exp,36,←,left,←,0.44171539996750653,True,11,1,0,4
Y2-S2-138K24,3,270,AS,exp,30,↓,right,→,0.8071182999992743,False,11,-1,1,5
Y2-S2-138K24,3,271,AS,exp,35,←,left,←,0.8126445000525564,True,12,-1,0,5
Y2-S2-138K24,3,272,AS,exp,38,→,left,←,0.8231049999594688,False,12,-1,0,5
Y2-S2-138K24,3,273,AS,exp,33,↓,down,↓,0.8385166999651119,True,13,-1,0,5
Y2-S2-138K24,3,274,AS,exp,42,↑,up,↑,0.4950605999911204,True,13,-1,0,5
Y2-S2-138K24,3,275,AS,exp,31,↓,up,↑,0.793985900003463,False,13,-1,0,5
Y2-S2-138K24,3,276,AS,exp,47,↑,up,↑,0.5911887000547722,True,14,-1,0,5
Y2-S2-138K24,3,277,AS,exp,27,←,left,←,0.4621282999869436,True,14,-1,0,5
Y2-S2-138K24,3,278,AS,exp,28,↑,up,↑,0.585875799995847,True,14,1,1,6
Y2-S2-138K24,3,279,AS,exp,44,↓,down,↓,0.5279249999439344,True,13,1,0,6
Y2-S2-138K24,3,280,AS,exp,29,←,left,←,0.7581738999579102,True,13,1,0,6
Y2-S2-138K24,3,281,AS,exp,43,↑,down,↓,0.56693259999156,False,13,-1,1,7
Y2-S2-138K24,3,282,AS,exp,39,→,right,→,0.4587602000683546,True,14,-1,0,7
Y2-S2-138K24,3,283,AS,exp,50,←,left,←,0.6295058000832796,True,14,-1,0,7
Y2-S2-138K24,3,284,AS,exp,37,↓,down,↓,0.684125000028871,True,14,1,1,8
Y2-S2-138K24,3,285,AS,exp,50,←,left,←,0.45243050006683916,True,13,1,0,8
Y2-S2-138K24,3,286,AS,exp,26,↓,down,↓,0.5054349000565708,True,13,1,0,8
Y2-S2-138K24,3,287,AS,exp,47,→,right,→,0.520797900040634,True,13,1,0,8
Y2-S2-138K24,3,288,AS,exp,43,↓,down,↓,0.5098941000178456,True,12,1,0,8
Y2-S2-138K24,3,289,AS,exp,45,↑,left,←,0.7827207000227645,False,12,-1,1,9
Y2-S2-138K24,3,290,AS,exp,45,→,right,→,0.4679402000037953,True,13,-1,0,9
Y2-S2-138K24,3,291,AS,exp,31,←,left,←,0.7561099999584258,True,13,-1,0,9
Y2-S2-138K24,3,292,AS,exp,33,↓,left,←,0.6787999999942258,False,13,-1,0,9
Y2-S2-138K24,3,293,AS,exp,31,←,left,←,0.42212250002194196,True,14,-1,0,9
Y2-S2-138K24,3,294,AS,exp,34,→,left,←,0.4952612000051886,False,14,-1,0,9
Y2-S2-138K24,3,295,AS,exp,27,↑,up,↑,1.0441813999786973,True,15,-1,0,9
Y2-S2-138K24,3,296,AS,exp,47,↓,down,↓,0.6491129000205547,True,15,-1,0,9
Y2-S2-138K24,3,297,AS,exp,29,←,left,←,1.3563983999192715,True,15,1,1,10
Y2-S2-138K24,3,298,AS,exp,39,↓,down,↓,0.47274879994802177,True,14,1,0,10
Y2-S2-138K24,3,299,AS,exp,47,←,left,←,0.5222770000109449,True,14,1,0,10
Y2-S2-138K24,3,300,AS,exp,35,↑,up,↑,0.4695104999700561,True,14,1,0,10
Y2-S2-138K24,3,301,AS,exp,36,↓,down,↓,0.4494109000079334,True,13,1,0,10
Y2-S2-138K24,3,302,AS,exp,27,↑,up,↑,0.4083179000299424,True,13,1,0,10
Y2-S2-138K24,3,303,AS,exp,44,→,right,→,0.598667599959299,True,13,1,0,10
Y2-S2-138K24,3,304,AS,exp,45,←,up,↑,0.7309554000385106,False,12,-1,1,11
Y2-S2-138K24,3,305,AS,exp,26,↑,down,↓,0.6305659000063315,False,13,-1,0,11
Y2-S2-138K24,3,306,AS,exp,32,→,right,→,0.5575819999212399,True,14,-1,0,11
Y2-S2-138K24,3,307,AS,exp,48,↑,up,↑,0.45754840003792197,True,14,-1,0,11
Y2-S2-138K24,3,308,AS,exp,46,←,right,→,0.6641780999489129,False,14,-1,0,11
Y2-S2-138K24,3,309,AS,exp,43,→,right,→,0.6985627000685781,True,15,-1,0,11
Y2-S2-138K24,3,310,AS,exp,38,↓,left,←,0.929848299943842,False,15,-1,0,11
Y2-S2-138K24,3,311,AS,exp,31,↑,up,↑,0.4384479000000283,True,16,-1,0,11
Y2-S2-138K24,3,312,AS,exp,35,↓,down,↓,0.5633991999784485,True,16,-1,0,11
Y2-S2-138K24,3,313,AS,exp,40,→,right,→,0.5356254999060184,True,16,1,1,12
Y2-S2-138K24,3,314,AS,exp,42,↑,up,↑,0.4886842999840155,True,15,1,0,12
Y2-S2-138K24,3,315,AS,exp,43,→,right,→,1.3554066000506282,True,15,1,0,12
Y2-S2-138K24,3,316,AS,exp,50,↓,down,↓,0.46163809997960925,True,15,1,0,12
Y2-S2-138K24,3,317,AS,exp,42,→,right,→,0.9759567000437528,True,14,1,0,12
Y2-S2-138K24,3,318,AS,exp,43,↓,down,↓,0.6935980000998825,True,14,1,0,12
Y2-S2-138K24,3,319,AS,exp,45,→,right,→,0.43359370005782694,True,14,1,0,12
Y2-S2-138K24,3,320,AS,exp,33,←,left,←,0.5478526999941096,True,13,1,0,12
Y2-S2-138K24,3,321,AS,exp,41,↓,down,↓,0.6908593999687582,True,13,1,0,12
Y2-S2-138K24,3,322,AS,exp,47,↑,down,↓,0.6975484000286087,False,13,-1,1,13
Y2-S2-138K24,3,323,AS,exp,37,←,left,←,0.646900000050664,True,14,-1,0,13
Y2-S2-138K24,3,324,AS,exp,25,↓,down,↓,0.6244188999990001,True,14,-1,0,13
Y2-S2-138K24,3,325,AS,exp,39,←,left,←,0.7814624999882653,True,14,1,1,14
Y2-S2-138K24,3,326,AS,exp,39,↑,up,↑,0.6688986000372097,True,13,1,0,14
Y2-S2-138K24,3,327,AS,exp,47,→,right,→,0.7624394000740722,True,13,1,0,14
Y2-S2-138K24,3,328,AS,exp,29,↑,up,↑,0.6485952000366524,True,13,1,0,14
Y2-S2-138K24,3,329,AS,exp,37,↓,down,↓,0.5454776999540627,True,12,1,0,14
Y2-S2-138K24,3,330,AS,exp,48,←,right,→,1.007340700016357,False,12,-1,1,15
Y2-S2-138K24,3,331,AS,exp,44,↑,down,↓,0.7216494999593124,False,13,-1,0,15
Y2-S2-138K24,3,332,AS,exp,50,←,left,←,0.5807225999888033,True,14,-1,0,15
Y2-S2-138K24,3,333,AS,exp,37,↓,down,↓,0.45082609995733947,True,14,-1,0,15
Y2-S2-138K24,3,334,AS,exp,47,→,left,←,0.715618500020355,False,14,-1,0,15
Y2-S2-138K24,3,335,AS,exp,42,←,left,←,1.1309044999070466,True,15,-1,0,15
Y2-S2-138K24,3,336,AS,exp,32,↓,down,↓,1.053628099965863,True,15,-1,0,15
Y2-S2-138K24,3,337,AS,exp,46,↑,up,↑,0.5080167999258265,True,15,1,1,16
Y2-S2-138K24,4,338,PS,intra_train,45,←,left,←,0.6418824999127537,True,15,-,-,-
Y2-S2-138K24,4,339,PS,intra_train,25,↓,down,↓,0.671095099998638,True,15,-,-,-
Y2-S2-138K24,4,340,PS,intra_train,25,→,right,→,0.44633730000350624,True,15,-,-,-
Y2-S2-138K24,4,341,PS,intra_train,47,←,left,←,0.47428490000311285,True,15,-,-,-
Y2-S2-138K24,4,342,PS,intra_train,44,↑,up,↑,0.438928599935025,True,15,-,-,-
Y2-S2-138K24,4,343,PS,exp,48,←,right,→,0.8900397999677807,False,10,-1,0,0
Y2-S2-138K24,4,344,PS,exp,50,→,right,→,0.5128039999399334,True,11,-1,0,0
Y2-S2-138K24,4,345,PS,exp,36,↓,down,↓,0.5671606999821961,True,11,-1,0,0
Y2-S2-138K24,4,346,PS,exp,38,→,right,→,0.4365540000144392,True,11,1,1,1
Y2-S2-138K24,4,347,PS,exp,26,↑,up,↑,0.4697463000193238,True,10,1,0,1
Y2-S2-138K24,4,348,PS,exp,29,↓,down,↓,0.5108736999100074,True,10,1,0,1
Y2-S2-138K24,4,349,PS,exp,30,←,right,→,0.6671231999062002,False,10,-1,1,2
Y2-S2-138K24,4,350,PS,exp,50,↑,up,↑,0.6279057000065222,True,11,-1,0,2
Y2-S2-138K24,4,351,PS,exp,45,↓,right,→,0.8464928000466898,False,11,-1,0,2
Y2-S2-138K24,4,352,PS,exp,32,↑,up,↑,0.4373632000060752,True,12,-1,0,2
Y2-S2-138K24,4,353,PS,exp,38,→,right,→,0.5208709000144154,True,12,-1,0,2
Y2-S2-138K24,4,354,PS,exp,35,←,right,→,0.833647400024347,False,12,-1,0,2
Y2-S2-138K24,4,355,PS,exp,29,↑,up,↑,0.5532802999950945,True,13,-1,0,2
Y2-S2-138K24,4,356,PS,exp,48,→,right,→,0.3854427000042051,True,13,-1,0,2
Y2-S2-138K24,4,357,PS,exp,25,↑,up,↑,0.45780630002263933,True,13,1,1,3
Y2-S2-138K24,4,358,PS,exp,49,←,right,→,0.7131234999978915,False,12,-1,1,4
Y2-S2-138K24,4,359,PS,exp,50,→,right,→,0.43599990010261536,True,13,-1,0,4
Y2-S2-138K24,4,360,PS,exp,34,←,left,←,0.5323413000442088,True,13,-1,0,4
Y2-S2-138K24,4,361,PS,exp,48,↓,right,→,0.5779044999508187,False,13,-1,0,4
Y2-S2-138K24,4,362,PS,exp,25,↑,up,↑,0.4971285000210628,True,14,-1,0,4
Y2-S2-138K24,4,363,PS,exp,45,←,left,←,0.5117289000190794,True,14,-1,0,4
Y2-S2-138K24,4,364,PS,exp,41,↓,down,↓,0.5356210999889299,True,14,1,1,5
Y2-S2-138K24,4,365,PS,exp,41,→,right,→,0.4250796999549493,True,13,1,0,5
Y2-S2-138K24,4,366,PS,exp,47,↓,down,↓,0.5479173000203446,True,13,1,0,5
Y2-S2-138K24,4,367,PS,exp,38,→,right,→,0.44743399997241795,True,13,1,0,5
Y2-S2-138K24,4,368,PS,exp,45,↓,down,↓,0.4905657999916002,True,12,1,0,5
Y2-S2-138K24,4,369,PS,exp,32,↑,up,↑,0.4533423000248149,True,12,1,0,5
Y2-S2-138K24,4,370,PS,exp,50,←,left,←,1.288068100111559,True,12,1,0,5
Y2-S2-138K24,4,371,PS,exp,42,→,left,←,0.6985409000189975,False,11,-1,1,6
Y2-S2-138K24,4,372,PS,exp,44,←,left,←,0.4197833000216633,True,12,-1,0,6
Y2-S2-138K24,4,373,PS,exp,44,→,right,→,0.4443053000140935,True,12,-1,0,6
Y2-S2-138K24,4,374,PS,exp,35,↑,up,↑,0.5708050999091938,True,12,1,1,7
Y2-S2-138K24,4,375,PS,exp,38,↓,down,↓,0.3540430999128148,True,11,1,0,7
Y2-S2-138K24,4,376,PS,exp,45,↑,up,↑,0.4635818999959156,True,11,1,0,7
Y2-S2-138K24,4,377,PS,exp,46,→,right,→,0.5513165999436751,True,11,1,0,7
Y2-S2-138K24,4,378,PS,exp,31,←,left,←,0.4646686000050977,True,10,1,0,7
Y2-S2-138K24,4,379,PS,exp,36,→,right,→,0.6186593999154866,True,10,1,0,7
Y2-S2-138K24,4,380,PS,exp,45,←,left,←,0.38178850000258535,True,10,1,0,7
Y2-S2-138K24,4,381,PS,exp,25,↓,down,↓,0.4566841999767348,True,9,1,0,7
Y2-S2-138K24,4,382,PS,exp,44,→,right,→,0.4346803000662476,True,9,1,0,7
Y2-S2-138K24,4,383,PS,exp,48,↑,up,↑,0.4914413000224158,True,9,1,0,7
Y2-S2-138K24,4,384,PS,exp,34,→,right,→,0.5038988000014797,True,8,1,0,7
Y2-S2-138K24,4,385,PS,exp,28,←,left,←,0.5054198000580072,True,8,1,0,7
Y2-S2-138K24,4,386,PS,exp,33,↓,up,↑,0.7424090000567958,False,8,-1,1,8
Y2-S2-138K24,4,387,PS,exp,41,→,right,→,0.4199597999686375,True,9,-1,0,8
Y2-S2-138K24,4,388,PS,exp,34,←,left,←,0.4674366000108421,True,9,-1,0,8
Y2-S2-138K24,4,389,PS,exp,45,↓,down,↓,0.6112636000616476,True,9,1,1,9
Y2-S2-138K24,4,390,PS,exp,39,↑,left,←,0.9089839999796823,False,8,-1,1,10
Y2-S2-138K24,4,391,PS,exp,26,↓,down,↓,0.45208900002762675,True,9,-1,0,10
Y2-S2-138K24,4,392,PS,exp,35,→,right,→,0.4081333000212908,True,9,-1,0,10
Y2-S2-138K24,4,393,PS,exp,25,↑,up,↑,0.4943578999955207,True,9,1,1,11
Y2-S2-138K24,4,394,PS,exp,27,←,right,→,0.7141011999920011,False,8,-1,1,12
Y2-S2-138K24,4,395,PS,exp,46,↑,up,↑,0.4486699999542907,True,9,-1,0,12
Y2-S2-138K24,4,396,PS,exp,38,↓,right,→,0.7272981000132859,False,9,-1,0,12
Y2-S2-138K24,4,397,PS,exp,37,←,left,←,0.4958723000017926,True,10,-1,0,12
Y2-S2-138K24,4,398,PS,exp,47,→,right,→,0.4118741999845952,True,10,-1,0,12
Y2-S2-138K24,4,399,PS,exp,37,↓,down,↓,0.4240181000204757,True,10,1,1,13
Y2-S2-138K24,4,400,PS,exp,37,→,right,→,0.5317908999277279,True,9,1,0,13
Y2-S2-138K24,4,401,PS,exp,44,←,left,←,0.5805667999666184,True,9,1,0,13
Y2-S2-138K24,4,402,PS,exp,48,↑,up,↑,0.5548912999220192,True,9,1,0,13
Y2-S2-138K24,4,403,PS,exp,32,←,left,←,0.6105762000661343,True,8,1,0,13
Y2-S2-138K24,4,404,PS,exp,30,↑,up,↑,0.5572170000523329,True,8,1,0,13
Y2-S2-138K24,4,405,PS,exp,49,←,left,←,0.445386299979873,True,8,1,0,13
Y2-S2-138K24,4,406,PS,exp,28,↑,right,→,0.6484602000564337,False,7,-1,1,14
Y2-S2-138K24,4,407,PS,exp,29,↓,down,↓,0.4214871999574825,True,8,-1,0,14
Y2-S2-138K24,4,408,PS,exp,25,↑,right,→,0.5928621999919415,False,8,-1,0,14
Y2-S2-138K24,4,409,PS,exp,39,→,right,→,0.6262958999723196,True,9,-1,0,14
Y2-S2-138K24,4,410,PS,exp,25,↓,down,↓,0.484453700017184,True,9,-1,0,14
Y2-S2-138K24,4,411,PS,exp,47,→,right,→,0.4706862000748515,True,9,1,1,15
Y2-S2-138K24,4,412,PS,exp,30,↓,down,↓,0.44870239996816963,True,8,1,0,15
Y2-S2-138K24,4,413,PS,exp,47,←,left,←,0.49314360006246716,True,8,1,0,15
Y2-S2-138K24,4,414,PS,exp,26,↑,up,↑,0.47757250000722706,True,8,1,0,15
Y2-S2-138K24,4,415,PS,exp,42,↓,down,↓,0.4866744000464678,True,7,1,0,15
Y2-S2-138K24,4,416,PS,exp,25,↑,right,→,0.6547525000059977,False,7,-1,1,16
Y2-S2-138K24,5,417,PS,intra_train,47,→,right,→,0.42862189991865307,True,15,-,-,-
Y2-S2-138K24,5,418,PS,intra_train,43,←,left,←,0.5125580999301746,True,15,-,-,-
Y2-S2-138K24,5,419,PS,intra_train,43,↓,down,↓,1.1145818999502808,True,15,-,-,-
Y2-S2-138K24,5,420,PS,intra_train,44,↑,up,↑,0.5350072999717668,True,15,-,-,-
Y2-S2-138K24,5,421,PS,intra_train,45,↓,down,↓,0.9470054999692366,True,15,-,-,-
Y2-S2-138K24,5,422,PS,exp,34,↑,up,↑,0.4906867000972852,True,10,0,0,0
Y2-S2-138K24,5,423,PS,exp,48,←,left,←,0.523783199954778,True,10,0,0,0
Y2-S2-138K24,5,424,PS,exp,33,↑,up,↑,0.4962398000061512,True,10,1,0,0
Y2-S2-138K24,5,425,PS,exp,49,↓,down,↓,0.526819699909538,True,9,1,0,0
Y2-S2-138K24,5,426,PS,exp,41,↑,up,↑,0.43056010000873357,True,9,1,0,0
Y2-S2-138K24,5,427,PS,exp,34,←,left,←,0.5075310000684112,True,9,1,0,0
Y2-S2-138K24,5,428,PS,exp,39,↓,down,↓,0.5480351999867707,True,8,1,0,0
Y2-S2-138K24,5,429,PS,exp,45,←,left,←,0.5881057999795303,True,8,1,0,0
Y2-S2-138K24,5,430,PS,exp,31,↓,down,↓,0.36980860005132854,True,8,1,0,0
Y2-S2-138K24,5,431,PS,exp,28,→,right,→,0.5456729999277741,True,7,1,0,0
Y2-S2-138K24,5,432,PS,exp,33,←,left,←,0.590025799931027,True,7,1,0,0
Y2-S2-138K24,5,433,PS,exp,48,↓,down,↓,0.5589588999282569,True,7,1,0,0
Y2-S2-138K24,5,434,PS,exp,35,→,right,→,0.45864099997561425,True,6,1,0,0
Y2-S2-138K24,5,435,PS,exp,43,↓,down,↓,0.5173904000548646,True,6,1,0,0
Y2-S2-138K24,5,436,PS,exp,43,←,left,←,0.42440340004395694,True,6,1,0,0
Y2-S2-138K24,5,437,PS,exp,34,→,right,→,0.4401493000332266,True,5,1,0,0
Y2-S2-138K24,5,438,PS,exp,29,↓,down,↓,0.5364954000106081,True,5,1,0,0
Y2-S2-138K24,5,439,PS,exp,29,←,left,←,0.4080212999833748,True,5,1,0,0
Y2-S2-138K24,5,440,PS,exp,30,↑,up,↑,0.5163685999577865,True,4,1,0,0
Y2-S2-138K24,5,441,PS,exp,32,→,right,→,0.9228166999528185,True,4,1,0,0
Y2-S2-138K24,5,442,PS,exp,26,↑,left,←,0.8104468999663368,False,4,-1,1,1
Y2-S2-138K24,5,443,PS,exp,42,←,down,↓,0.6473381000105292,False,5,-1,0,1
Y2-S2-138K24,5,444,PS,exp,46,→,right,→,0.5288379000267014,True,6,-1,0,1
Y2-S2-138K24,5,445,PS,exp,42,↑,up,↑,0.49788889999035746,True,6,-1,0,1
Y2-S2-138K24,5,446,PS,exp,47,↓,right,→,0.8313830000115559,False,6,-1,0,1
Y2-S2-138K24,5,447,PS,exp,45,→,up,↑,0.6471567000262439,False,7,-1,0,1
Y2-S2-138K24,5,448,PS,exp,34,↑,up,↑,0.4459684999892488,True,8,-1,0,1
Y2-S2-138K24,5,449,PS,exp,31,↓,left,←,0.6409164000069723,False,8,-1,0,1
Y2-S2-138K24,5,450,PS,exp,45,→,right,→,0.8051175000146031,True,9,-1,0,1
Y2-S2-138K24,5,451,PS,exp,28,↑,up,↑,0.4752528000390157,True,9,-1,0,1
Y2-S2-138K24,5,452,PS,exp,46,←,up,↑,0.6000315999845043,False,9,-1,0,1
Y2-S2-138K24,5,453,PS,exp,49,→,right,→,0.4614408001070842,True,10,-1,0,1
Y2-S2-138K24,5,454,PS,exp,30,↓,down,↓,0.6073967999545857,True,10,-1,0,1
Y2-S2-138K24,5,455,PS,exp,25,←,left,←,0.4058335000881925,True,10,1,1,2
Y2-S2-138K24,5,456,PS,exp,42,↓,down,↓,0.5569353000028059,True,9,1,0,2
Y2-S2-138K24,5,457,PS,exp,30,←,right,→,0.5354046999709681,False,9,-1,1,3
Y2-S2-138K24,5,458,PS,exp,37,↑,left,←,0.7281997000100091,False,10,-1,0,3
Y2-S2-138K24,5,459,PS,exp,37,→,right,→,0.6078996999422088,True,11,-1,0,3
Y2-S2-138K24,5,460,PS,exp,50,↑,up,↑,0.5413203000789508,True,11,-1,0,3
Y2-S2-138K24,5,461,PS,exp,35,↓,down,↓,0.39168660005088896,True,11,1,1,4
Y2-S2-138K24,5,462,PS,exp,49,→,right,→,0.5309024999151006,True,10,1,0,4
Y2-S2-138K24,5,463,PS,exp,48,←,left,←,0.4708841999527067,True,10,1,0,4
Y2-S2-138K24,5,464,PS,exp,31,↓,left,←,0.706205099937506,False,10,-1,1,5
Y2-S2-138K24,5,465,PS,exp,39,←,right,→,0.46497279999312013,False,11,-1,0,5
Y2-S2-138K24,5,466,PS,exp,31,→,right,→,0.4703113000141457,True,12,-1,0,5
Y2-S2-138K24,5,467,PS,exp,41,↓,down,↓,0.48005689994897693,True,12,-1,0,5
Y2-S2-138K24,5,468,PS,exp,45,→,right,→,0.4519228000426665,True,12,1,1,6
Y2-S2-138K24,5,469,PS,exp,28,↑,up,↑,0.39342949993442744,True,11,1,0,6
Y2-S2-138K24,5,470,PS,exp,39,→,right,→,0.4315829999977723,True,11,1,0,6
Y2-S2-138K24,5,471,PS,exp,30,↓,down,↓,0.5727764999028295,True,11,1,0,6
Y2-S2-138K24,5,472,PS,exp,33,→,right,→,0.4229706999612972,True,10,1,0,6
Y2-S2-138K24,5,473,PS,exp,47,↓,down,↓,0.5164293999550864,True,10,1,0,6
Y2-S2-138K24,5,474,PS,exp,48,→,down,↓,0.9170283999992535,False,10,-1,1,7
Y2-S2-138K24,5,475,PS,exp,46,↓,down,↓,0.3990204998990521,True,11,-1,0,7
Y2-S2-138K24,5,476,PS,exp,29,↑,left,←,1.0980944000184536,False,11,-1,0,7
Y2-S2-138K24,5,477,PS,exp,26,↓,down,↓,0.5191914000315592,True,12,-1,0,7
Y2-S2-138K24,5,478,PS,exp,34,↑,up,↑,0.6745909999590367,True,12,-1,0,7
Y2-S2-138K24,5,479,PS,exp,31,←,left,←,0.5603839000687003,True,12,1,1,8
Y2-S2-138K24,5,480,PS,exp,36,↑,up,↑,0.59922390000429,True,11,1,0,8
Y2-S2-138K24,5,481,PS,exp,35,↓,down,↓,0.5130883000092581,True,11,1,0,8
Y2-S2-138K24,5,482,PS,exp,42,→,right,→,1.1567467999411747,True,11,1,0,8
Y2-S2-138K24,5,483,PS,exp,45,←,left,←,0.5155469999881461,True,10,1,0,8
Y2-S2-138K24,5,484,PS,exp,43,↓,down,↓,0.6304979000706226,True,10,1,0,8
Y2-S2-138K24,5,485,PS,exp,33,→,right,→,0.6292179001029581,True,10,1,0,8
Y2-S2-138K24,5,486,PS,exp,30,↑,up,↑,0.5322677000658587,True,9,1,0,8
Y2-S2-138K24,5,487,PS,exp,37,→,right,→,0.7125899000093341,True,9,1,0,8
Y2-S2-138K24,5,488,PS,exp,50,↑,up,↑,0.6009650999912992,True,9,1,0,8
Y2-S2-138K24,5,489,PS,exp,50,→,left,←,1.0776723000453785,False,8,-1,1,9
Y2-S2-138K24,5,490,PS,exp,36,←,left,←,0.3791348000522703,True,9,-1,0,9
Y2-S2-138K24,5,491,PS,exp,47,→,left,←,1.0150721999816597,False,9,-1,0,9
Y2-S2-138K24,5,492,PS,exp,40,↓,left,←,0.6700326000573114,False,10,-1,0,9
Y2-S2-138K24,5,493,PS,exp,30,↑,up,↑,0.5150515999412164,True,11,-1,0,9
Y2-S2-138K24,5,494,PS,exp,32,↓,right,→,1.3564088999992236,False,11,-1,0,9
Y2-S2-138K24,5,495,PS,exp,45,←,right,→,0.7178930999943987,False,12,-1,0,9
Y2-S2-138K24,5,496,PS,exp,38,→,right,→,0.45221869996748865,True,13,-1,0,9
Y2-S2-138K24,5,497,PS,exp,47,↑,up,↑,0.654287000070326,True,13,-1,0,9
Y2-S2-138K24,5,498,PS,exp,48,↓,down,↓,0.5564043000340462,True,13,1,1,10
Y2-S2-138K24,5,499,PS,exp,29,←,left,←,0.4698576999362558,True,12,1,0,10
Y2-S2-138K24,5,500,PS,exp,34,↓,left,←,0.6081597999436781,False,12,-1,1,11
Y2-S2-138K24,5,501,PS,exp,33,→,right,→,0.6018351999809965,True,13,-1,0,11
Y2-S2-138K24,5,502,PS,exp,36,↓,down,↓,0.5011282000923529,True,13,-1,0,11
Y2-S2-138K24,5,503,PS,exp,49,←,left,←,0.4415636999765411,True,13,1,1,12
Y2-S2-138K24,5,504,PS,exp,48,→,right,→,0.46242029999848455,True,12,1,0,12
Y2-S2-138K24,5,505,PS,exp,43,↑,up,↑,0.46613049996085465,True,12,1,0,12
Y2-S2-138K24,5,506,PS,exp,46,↓,down,↓,0.52435580000747,True,12,1,0,12
Y2-S2-138K24,5,507,PS,exp,25,→,right,→,0.5736270999768749,True,11,1,0,12
Y2-S2-138K24,5,508,PS,exp,36,↑,up,↑,0.720982400001958,True,11,1,0,12
Y2-S2-138K24,5,509,PS,exp,41,↓,down,↓,0.5745717000681907,True,11,1,0,12
Y2-S2-138K24,5,510,PS,exp,36,→,right,→,0.7117781999986619,True,10,1,0,12
Y2-S2-138K24,5,511,PS,exp,44,←,left,←,1.0483029000461102,True,10,1,0,12
Y2-S2-138K24,5,512,PS,exp,37,→,right,→,0.6754672999959439,True,10,1,0,12
Y2-S2-138K24,5,513,PS,exp,41,↑,up,↑,0.5706737999571487,True,9,1,0,12
Y2-S2-138K24,5,514,PS,exp,36,↓,down,↓,0.6315161000238732,True,9,1,0,12
Y2-S2-138K24,5,515,PS,exp,40,→,left,←,0.6845084000378847,False,9,-1,1,13
Y2-S2-138K24,5,516,PS,exp,44,←,left,←,0.7944480000296608,True,10,-1,0,13
Y2-S2-138K24,5,517,PS,exp,50,→,right,→,0.476360599976033,True,10,-1,0,13
Y2-S2-138K24,5,518,PS,exp,43,←,left,←,0.47317420004401356,True,10,1,1,14
Y2-S2-138K24,5,519,PS,exp,29,→,right,→,0.4838125000242144,True,9,1,0,14
Y2-S2-138K24,5,520,PS,exp,32,↓,down,↓,0.4873684999765828,True,9,1,0,14
Y2-S2-138K24,5,521,PS,exp,34,←,left,←,0.6481987000443041,True,9,1,0,14
Y2-S2-138K24,5,522,PS,exp,34,↑,up,↑,0.5803891000105068,True,8,1,0,14
Y2-S2-138K24,5,523,PS,exp,40,←,left,←,0.4553530999692157,True,8,1,0,14
Y2-S2-138K24,5,524,PS,exp,30,→,right,→,0.47128820000216365,True,8,1,0,14
Y2-S2-138K24,5,525,PS,exp,27,←,right,→,0.8321346000302583,False,7,-1,1,15
Y2-S2-138K24,5,526,PS,exp,50,↑,up,↑,0.4857448999537155,True,8,-1,0,15
Y2-S2-138K24,5,527,PS,exp,48,←,left,←,0.43701039999723434,True,8,-1,0,15
Y2-S2-138K24,5,528,PS,exp,37,↑,up,↑,0.48278299998492,True,8,1,1,16
Y2-S2-138K24,6,529,AS,intra_train,36,↓,down,↓,0.5338406000519171,True,25,-,-,-
Y2-S2-138K24,6,530,AS,intra_train,41,←,left,←,0.4003971000202,True,25,-,-,-
Y2-S2-138K24,6,531,AS,intra_train,26,↑,up,↑,0.6761342999525368,True,25,-,-,-
Y2-S2-138K24,6,532,AS,intra_train,34,←,left,←,0.618925700080581,True,25,-,-,-
Y2-S2-138K24,6,533,AS,intra_train,33,→,left,←,0.5172692000633106,False,25,-,-,-
Y2-S2-138K24,6,534,AS,exp,43,↓,down,↓,0.6576606000307947,True,17,0,0,0
Y2-S2-138K24,6,535,AS,exp,50,↑,up,↑,0.4172815999481827,True,17,0,0,0
Y2-S2-138K24,6,536,AS,exp,33,→,right,→,0.5357982999412343,True,17,1,0,0
Y2-S2-138K24,6,537,AS,exp,48,←,left,←,0.434654499986209,True,16,1,0,0
Y2-S2-138K24,6,538,AS,exp,26,↑,up,↑,0.5530434000538662,True,16,1,0,0
Y2-S2-138K24,6,539,AS,exp,48,→,right,→,0.5463859000010416,True,16,1,0,0
Y2-S2-138K24,6,540,AS,exp,36,↓,down,↓,0.6659578999970108,True,15,1,0,0
Y2-S2-138K24,6,541,AS,exp,39,→,right,→,1.0050013000145555,True,15,1,0,0
Y2-S2-138K24,6,542,AS,exp,44,↑,left,←,0.38353750004898757,False,15,-1,1,1
Y2-S2-138K24,6,543,AS,exp,35,←,right,→,0.7737326000351459,False,16,-1,0,1
Y2-S2-138K24,6,544,AS,exp,44,↓,up,↑,0.75737719994504,False,17,-1,0,1
Y2-S2-138K24,6,545,AS,exp,37,→,right,→,0.5761420999187976,True,18,-1,0,1
Y2-S2-138K24,6,546,AS,exp,46,↑,up,↑,0.4004104998894036,True,18,-1,0,1
Y2-S2-138K24,6,547,AS,exp,29,↓,down,↓,0.6176443999866024,True,18,1,1,2
Y2-S2-138K24,6,548,AS,exp,41,→,right,→,0.3671586000127718,True,17,1,0,2
Y2-S2-138K24,6,549,AS,exp,40,←,left,←,1.251195199904032,True,17,1,0,2
Y2-S2-138K24,6,550,AS,exp,28,→,right,→,0.5327607999788597,True,17,1,0,2
Y2-S2-138K24,6,551,AS,exp,40,←,left,←,0.3840917000779882,True,16,1,0,2
Y2-S2-138K24,6,552,AS,exp,41,→,right,→,0.3337756000692025,True,16,1,0,2
Y2-S2-138K24,6,553,AS,exp,29,↑,up,↑,0.4399415999650955,True,16,1,0,2
Y2-S2-138K24,6,554,AS,exp,43,←,left,←,1.0530699000228196,True,15,1,0,2
Y2-S2-138K24,6,555,AS,exp,45,↓,left,←,1.0238773999735713,False,15,-1,1,3
Y2-S2-138K24,6,556,AS,exp,39,↑,up,↑,0.36762580007780343,True,16,-1,0,3
Y2-S2-138K24,6,557,AS,exp,40,→,right,→,0.6048972000135109,True,16,-1,0,3
Y2-S2-138K24,6,558,AS,exp,32,↑,right,→,1.4122777000302449,False,16,-1,0,3
Y2-S2-138K24,6,559,AS,exp,25,↓,down,↓,0.5966055999742821,True,17,-1,0,3
Y2-S2-138K24,6,560,AS,exp,48,→,right,→,0.45485460001509637,True,17,-1,0,3
Y2-S2-138K24,6,561,AS,exp,40,←,left,←,0.4173251000465825,True,17,1,1,4
Y2-S2-138K24,6,562,AS,exp,36,↓,down,↓,0.7020216999808326,True,16,1,0,4
Y2-S2-138K24,6,563,AS,exp,47,↑,up,↑,0.6786062000319362,True,16,1,0,4
Y2-S2-138K24,6,564,AS,exp,30,↓,down,↓,0.5410426999442279,True,16,1,0,4
Y2-S2-138K24,6,565,AS,exp,43,↑,up,↑,1.2936545999255031,True,15,1,0,4
Y2-S2-138K24,6,566,AS,exp,33,←,left,←,0.45575979992281646,True,15,1,0,4
Y2-S2-138K24,6,567,AS,exp,49,↓,down,↓,0.742725900025107,True,15,1,0,4
Y2-S2-138K24,6,568,AS,exp,25,↑,up,↑,0.7820973999332637,True,14,1,0,4
Y2-S2-138K24,6,569,AS,exp,37,→,left,←,0.8547935000387952,False,14,-1,1,5
Y2-S2-138K24,6,570,AS,exp,36,↑,up,↑,0.425500400015153,True,15,-1,0,5
Y2-S2-138K24,6,571,AS,exp,26,↓,down,↓,0.5477033999050036,True,15,-1,0,5
Y2-S2-138K24,6,572,AS,exp,37,←,left,←,0.6130806999281049,True,15,1,1,6
Y2-S2-138K24,6,573,AS,exp,41,→,left,←,0.7634516999823973,False,14,-1,1,7
Y2-S2-138K24,6,574,AS,exp,40,←,left,←,1.0605804999358952,True,15,-1,0,7
Y2-S2-138K24,6,575,AS,exp,35,↓,down,↓,0.560617700102739,True,15,-1,0,7
Y2-S2-138K24,6,576,AS,exp,35,←,left,←,0.43669169989880174,True,15,1,1,8
Y2-S2-138K24,6,577,AS,exp,43,↓,down,↓,0.5663085000123829,True,14,1,0,8
Y2-S2-138K24,6,578,AS,exp,26,→,right,→,0.4737611000891775,True,14,1,0,8
Y2-S2-138K24,6,579,AS,exp,28,←,left,←,0.5197692000074312,True,14,1,0,8
Y2-S2-138K24,6,580,AS,exp,40,↑,up,↑,0.4795986000681296,True,13,1,0,8
Y2-S2-138K24,6,581,AS,exp,30,↓,down,↓,0.5131271999562159,True,13,1,0,8
Y2-S2-138K24,6,582,AS,exp,43,←,left,←,0.5775709000881761,True,13,1,0,8
Y2-S2-138K24,6,583,AS,exp,37,→,right,→,0.9492467999225482,True,12,1,0,8
Y2-S2-138K24,6,584,AS,exp,34,↑,down,↓,0.5832566999597475,False,12,-1,1,9
Y2-S2-138K24,6,585,AS,exp,28,↓,down,↓,0.5774009999586269,True,13,-1,0,9
Y2-S2-138K24,6,586,AS,exp,36,←,left,←,0.5285033999243751,True,13,-1,0,9
Y2-S2-138K24,6,587,AS,exp,32,↑,up,↑,0.5046802000142634,True,13,1,1,10
Y2-S2-138K24,6,588,AS,exp,44,→,left,←,0.7087980000069365,False,12,-1,1,11
Y2-S2-138K24,6,589,AS,exp,45,↑,left,←,0.6397628999548033,False,13,-1,0,11
Y2-S2-138K24,6,590,AS,exp,27,←,left,←,0.4624984000110999,True,14,-1,0,11
Y2-S2-138K24,6,591,AS,exp,29,↓,down,↓,0.6146402000449598,True,14,-1,0,11
Y2-S2-138K24,6,592,AS,exp,45,←,left,←,0.5740415999898687,True,14,1,1,12
Y2-S2-138K24,6,593,AS,exp,30,↑,right,→,0.7512200999772176,False,13,-1,1,13
Y2-S2-138K24,6,594,AS,exp,29,↓,down,↓,0.5051980999996886,True,14,-1,0,13
Y2-S2-138K24,6,595,AS,exp,46,↑,right,→,0.9704667999176309,False,14,-1,0,13
Y2-S2-138K24,6,596,AS,exp,36,↓,down,↓,0.5903221000917256,True,15,-1,0,13
Y2-S2-138K24,6,597,AS,exp,42,←,left,←,0.5375616999808699,True,15,-1,0,13
Y2-S2-138K24,6,598,AS,exp,42,↑,up,↑,0.6230702999746427,True,15,1,1,14
Y2-S2-138K24,6,599,AS,exp,40,↓,down,↓,0.7091080999234691,True,14,1,0,14
Y2-S2-138K24,6,600,AS,exp,28,↑,up,↑,0.4446551000000909,True,14,1,0,14
Y2-S2-138K24,6,601,AS,exp,32,↓,down,↓,0.6208477000473067,True,14,1,0,14
Y2-S2-138K24,6,602,AS,exp,40,→,right,→,0.6919980000238866,True,13,1,0,14
Y2-S2-138K24,6,603,AS,exp,27,↓,down,↓,0.5357277999864891,True,13,1,0,14
Y2-S2-138K24,6,604,AS,exp,45,→,right,→,0.3506977000506595,True,13,1,0,14
Y2-S2-138K24,6,605,AS,exp,46,↓,down,↓,0.7799147999612615,True,12,1,0,14
Y2-S2-138K24,6,606,AS,exp,33,↑,up,↑,0.520115299965255,True,12,1,0,14
Y2-S2-138K24,6,607,AS,exp,37,↓,up,↑,0.4892235998995602,False,12,-1,1,15
Y2-S2-138K24,6,608,AS,exp,36,→,right,→,0.5330518999835476,True,13,-1,0,15
Y2-S2-138K24,6,609,AS,exp,44,←,left,←,0.559481899952516,True,13,-1,0,15
Y2-S2-138K24,6,610,AS,exp,35,↑,down,↓,0.6278672000626102,False,13,-1,0,15
Y2-S2-138K24,6,611,AS,exp,31,←,left,←,0.41128000000026077,True,14,-1,0,15
Y2-S2-138K24,6,612,AS,exp,35,↑,up,↑,0.6432536999927834,True,14,-1,0,15
Y2-S2-138K24,6,613,AS,exp,39,↓,right,→,0.7555407000472769,False,14,-1,0,15
Y2-S2-138K24,6,614,AS,exp,50,←,left,←,0.43354640004690737,True,15,-1,0,15
Y2-S2-138K24,6,615,AS,exp,28,↓,down,↓,1.1875265999697149,True,15,-1,0,15
Y2-S2-138K24,6,616,AS,exp,25,↑,up,↑,0.4968268999364227,True,15,1,1,16
Y2-S2-138K24,7,617,AS,intra_train,36,→,right,→,0.38416980009060353,True,25,-,-,-
Y2-S2-138K24,7,618,AS,intra_train,31,↓,right,→,0.8255110000027344,False,25,-,-,-
Y2-S2-138K24,7,619,AS,intra_train,29,→,right,→,0.45045790006406605,True,25,-,-,-
Y2-S2-138K24,7,620,AS,intra_train,26,↓,down,↓,0.6770956000545993,True,25,-,-,-
Y2-S2-138K24,7,621,AS,intra_train,29,↑,up,↑,0.45077520003542304,True,25,-,-,-
Y2-S2-138K24,7,622,AS,exp,34,↓,down,↓,0.7373668999643996,True,17,0,0,0
Y2-S2-138K24,7,623,AS,exp,49,←,left,←,0.6946192999603227,True,17,0,0,0
Y2-S2-138K24,7,624,AS,exp,48,↓,down,↓,0.7017547000432387,True,17,1,0,0
Y2-S2-138K24,7,625,AS,exp,27,→,right,→,0.8037553000031039,True,16,1,0,0
Y2-S2-138K24,7,626,AS,exp,38,↑,up,↑,0.6404940000502393,True,16,1,0,0
Y2-S2-138K24,7,627,AS,exp,47,↓,down,↓,0.7371962000615895,True,16,1,0,0
Y2-S2-138K24,7,628,AS,exp,37,←,left,←,0.5356018000748008,True,15,1,0,0
Y2-S2-138K24,7,629,AS,exp,41,↑,down,↓,0.6868354000616819,False,15,-1,1,1
Y2-S2-138K24,7,630,AS,exp,27,↓,down,↓,0.45791060000192374,True,16,-1,0,1
Y2-S2-138K24,7,631,AS,exp,50,←,left,←,0.49654580000787973,True,16,-1,0,1
Y2-S2-138K24,7,632,AS,exp,44,↓,down,↓,0.5072091000620276,True,16,1,1,2
Y2-S2-138K24,7,633,AS,exp,33,→,right,→,0.5691769000841305,True,15,1,0,2
Y2-S2-138K24,7,634,AS,exp,49,↓,down,↓,1.0554603000637144,True,15,1,0,2
Y2-S2-138K24,7,635,AS,exp,40,←,left,←,1.0426535999868065,True,15,1,0,2
Y2-S2-138K24,7,636,AS,exp,38,↑,up,↑,0.4412280999822542,True,14,1,0,2
Y2-S2-138K24,7,637,AS,exp,28,→,right,→,0.4052608000347391,True,14,1,0,2
Y2-S2-138K24,7,638,AS,exp,42,↓,down,↓,0.6583071000641212,True,14,1,0,2
Y2-S2-138K24,7,639,AS,exp,29,↑,up,↑,0.6252820000518113,True,13,1,0,2
Y2-S2-138K24,7,640,AS,exp,49,↓,down,↓,0.5189101999858394,True,13,1,0,2
Y2-S2-138K24,7,641,AS,exp,46,↑,down,↓,0.6967042000032961,False,13,-1,1,3
Y2-S2-138K24,7,642,AS,exp,32,←,left,←,0.4216536999447271,True,14,-1,0,3
Y2-S2-138K24,7,643,AS,exp,47,↓,down,↓,0.6775443999795243,True,14,-1,0,3
Y2-S2-138K24,7,644,AS,exp,25,↑,up,↑,0.43983779998961836,True,14,1,1,4
Y2-S2-138K24,7,645,AS,exp,50,←,left,←,0.40473999991081655,True,13,1,0,4
Y2-S2-138K24,7,646,AS,exp,46,→,right,→,0.43935520004015416,True,13,1,0,4
Y2-S2-138K24,7,647,AS,exp,39,↓,up,↑,0.9553581998916343,False,13,-1,1,5
Y2-S2-138K24,7,648,AS,exp,48,→,right,→,0.36725020001176745,True,14,-1,0,5
Y2-S2-138K24,7,649,AS,exp,38,↑,up,↑,0.804514899966307,True,14,-1,0,5
Y2-S2-138K24,7,650,AS,exp,29,→,right,→,0.4720266000367701,True,14,1,1,6
Y2-S2-138K24,7,651,AS,exp,28,←,left,←,0.5820061999838799,True,13,1,0,6
Y2-S2-138K24,7,652,AS,exp,38,↑,up,↑,0.7351639000698924,True,13,1,0,6
Y2-S2-138K24,7,653,AS,exp,38,↓,down,↓,0.4984666999662295,True,13,1,0,6
Y2-S2-138K24,7,654,AS,exp,47,→,left,←,0.9027290000813082,False,12,-1,1,7
Y2-S2-138K24,7,655,AS,exp,28,↑,right,→,0.8231316999299452,False,13,-1,0,7
Y2-S2-138K24,7,656,AS,exp,46,↓,right,→,0.8846379000460729,False,14,-1,0,7
Y2-S2-138K24,7,657,AS,exp,42,→,right,→,0.5780467999866232,True,15,-1,0,7
Y2-S2-138K24,7,658,AS,exp,30,↓,down,↓,0.5212554999161512,True,15,-1,0,7
Y2-S2-138K24,7,659,AS,exp,31,↑,up,↑,1.3884979001013562,True,15,1,1,8
Y2-S2-138K24,7,660,AS,exp,34,←,right,→,0.7441767000127584,False,14,-1,1,9
Y2-S2-138K24,7,661,AS,exp,29,↑,up,↑,0.5162555000279099,True,15,-1,0,9
Y2-S2-138K24,7,662,AS,exp,49,→,right,→,0.43186000001151115,True,15,-1,0,9
Y2-S2-138K24,7,663,AS,exp,31,↑,up,↑,0.383669100003317,True,15,1,1,10
Y2-S2-138K24,7,664,AS,exp,33,←,left,←,0.5868817999726161,True,14,1,0,10
Y2-S2-138K24,7,665,AS,exp,32,↓,down,↓,0.6961020000744611,True,14,1,0,10
Y2-S2-138K24,7,666,AS,exp,25,←,left,←,0.43631050002295524,True,14,1,0,10
Y2-S2-138K24,7,667,AS,exp,35,↑,down,↓,1.292995100026019,False,13,-1,1,11
Y2-S2-138K24,7,668,AS,exp,33,←,left,←,0.663024100009352,True,14,-1,0,11
Y2-S2-138K24,7,669,AS,exp,39,→,right,→,0.9495938000036404,True,14,-1,0,11
Y2-S2-138K24,7,670,AS,exp,40,↓,right,→,0.8970550999511033,False,14,-1,0,11
Y2-S2-138K24,7,671,AS,exp,44,←,left,←,0.44005159998778254,True,15,-1,0,11
Y2-S2-138K24,7,672,AS,exp,41,↑,up,↑,0.4753339000744745,True,15,-1,0,11
Y2-S2-138K24,7,673,AS,exp,32,→,right,→,0.4288368000416085,True,15,1,1,12
Y2-S2-138K24,7,674,AS,exp,35,↑,up,↑,0.5126760000130162,True,14,1,0,12
Y2-S2-138K24,7,675,AS,exp,43,↓,down,↓,0.47521269996650517,True,14,1,0,12
Y2-S2-138K24,7,676,AS,exp,34,→,right,→,0.44231710000894964,True,14,1,0,12
Y2-S2-138K24,7,677,AS,exp,29,↓,down,↓,0.4664574000053108,True,13,1,0,12
Y2-S2-138K24,7,678,AS,exp,29,→,right,→,0.46775409998372197,True,13,1,0,12
Y2-S2-138K24,7,679,AS,exp,39,↓,right,→,0.5988497000653297,False,13,-1,1,13
Y2-S2-138K24,7,680,AS,exp,49,←,right,→,0.7155466000549495,False,14,-1,0,13
Y2-S2-138K24,7,681,AS,exp,28,→,right,→,0.3838662999914959,True,15,-1,0,13
Y2-S2-138K24,7,682,AS,exp,27,↑,up,↑,0.4314564000815153,True,15,-1,0,13
Y2-S2-138K24,7,683,AS,exp,41,→,right,→,0.6699416999472305,True,15,1,1,14
Y2-S2-138K24,7,684,AS,exp,25,↓,right,→,0.7333456000778824,False,14,-1,1,15
Y2-S2-138K24,7,685,AS,exp,43,←,left,←,0.568452600040473,True,15,-1,0,15
Y2-S2-138K24,7,686,AS,exp,49,→,right,→,0.38395499996840954,True,15,-1,0,15
Y2-S2-138K24,7,687,AS,exp,46,←,left,←,0.5217715000035241,True,15,1,1,16
Y2-S2-138K24,8,688,PS,intra_train,43,↑,right,→,1.1985489999642596,False,15,-,-,-
Y2-S2-138K24,8,689,PS,intra_train,35,←,left,←,1.3195917999837548,True,15,-,-,-
Y2-S2-138K24,8,690,PS,intra_train,29,↑,up,↑,0.5601032000267878,True,15,-,-,-
Y2-S2-138K24,8,691,PS,intra_train,41,↓,down,↓,0.6739170000655577,True,15,-,-,-
Y2-S2-138K24,8,692,PS,intra_train,29,↑,up,↑,0.6203618999570608,True,15,-,-,-
Y2-S2-138K24,8,693,PS,exp,33,↓,down,↓,0.45907640003133565,True,10,0,0,0
Y2-S2-138K24,8,694,PS,exp,44,→,right,→,0.49268110003322363,True,10,0,0,0
Y2-S2-138K24,8,695,PS,exp,45,↓,down,↓,0.5012942999601364,True,10,1,0,0
Y2-S2-138K24,8,696,PS,exp,48,←,left,←,0.5848649000981823,True,9,1,0,0
Y2-S2-138K24,8,697,PS,exp,34,↑,up,↑,0.4719233999494463,True,9,1,0,0
Y2-S2-138K24,8,698,PS,exp,48,→,right,→,0.4174418000038713,True,9,1,0,0
Y2-S2-138K24,8,699,PS,exp,26,←,left,←,0.41396909998729825,True,8,1,0,0
Y2-S2-138K24,8,700,PS,exp,37,→,right,→,0.4818845000118017,True,8,1,0,0
Y2-S2-138K24,8,701,PS,exp,33,↓,down,↓,0.5200592000037432,True,8,1,0,0
Y2-S2-138K24,8,702,PS,exp,36,→,right,→,0.4044255999615416,True,7,1,0,0
Y2-S2-138K24,8,703,PS,exp,38,←,right,→,0.7894289999967441,False,7,-1,1,1
Y2-S2-138K24,8,704,PS,exp,43,↓,down,↓,0.5994938999647275,True,8,-1,0,1
Y2-S2-138K24,8,705,PS,exp,33,←,left,←,0.45127630000934005,True,8,-1,0,1
Y2-S2-138K24,8,706,PS,exp,39,↑,up,↑,0.42274650000035763,True,8,1,1,2
Y2-S2-138K24,8,707,PS,exp,27,←,right,→,0.5136253999080509,False,7,-1,1,3
Y2-S2-138K24,8,708,PS,exp,27,→,right,→,0.4096407999750227,True,8,-1,0,3
Y2-S2-138K24,8,709,PS,exp,32,←,left,←,0.44460339995566756,True,8,-1,0,3
Y2-S2-138K24,8,710,PS,exp,43,↑,right,→,0.8809453999856487,False,8,-1,0,3
Y2-S2-138K24,8,711,PS,exp,43,↓,down,↓,0.6782839000225067,True,9,-1,0,3
Y2-S2-138K24,8,712,PS,exp,46,↑,up,↑,0.4678301999811083,True,9,-1,0,3
Y2-S2-138K24,8,713,PS,exp,29,↓,down,↓,0.5733775999397039,True,9,1,1,4
Y2-S2-138K24,8,714,PS,exp,48,↑,left,←,0.7758691000053659,False,8,-1,1,5
Y2-S2-138K24,8,715,PS,exp,38,→,right,→,0.4725030999397859,True,9,-1,0,5
Y2-S2-138K24,8,716,PS,exp,49,←,left,←,0.5390370000386611,True,9,-1,0,5
Y2-S2-138K24,8,717,PS,exp,25,↓,down,↓,0.5032272000098601,True,9,1,1,6
Y2-S2-138K24,8,718,PS,exp,32,↑,up,↑,0.5415088000008836,True,8,1,0,6
Y2-S2-138K24,8,719,PS,exp,37,→,right,→,0.41115530009847134,True,8,1,0,6
Y2-S2-138K24,8,720,PS,exp,42,↑,up,↑,0.4527272001141682,True,8,1,0,6
Y2-S2-138K24,8,721,PS,exp,47,←,left,←,0.6232767000328749,True,7,1,0,6
Y2-S2-138K24,8,722,PS,exp,43,↑,left,←,0.6623487999895588,False,7,-1,1,7
Y2-S2-138K24,8,723,PS,exp,39,→,right,→,0.5686347999144346,True,8,-1,0,7
Y2-S2-138K24,8,724,PS,exp,31,↓,left,←,0.6111146999755874,False,8,-1,0,7
Y2-S2-138K24,8,725,PS,exp,26,→,right,→,0.43287519994191825,True,9,-1,0,7
Y2-S2-138K24,8,726,PS,exp,28,↓,down,↓,0.5825631000334397,True,9,-1,0,7
Y2-S2-138K24,8,727,PS,exp,34,↑,up,↑,0.4099904999602586,True,9,1,1,8
Y2-S2-138K24,8,728,PS,exp,42,↓,down,↓,0.4801775000523776,True,8,1,0,8
Y2-S2-138K24,8,729,PS,exp,29,↑,up,↑,0.4726176999974996,True,8,1,0,8
Y2-S2-138K24,8,730,PS,exp,46,→,right,→,1.056821999954991,True,8,1,0,8
Y2-S2-138K24,8,731,PS,exp,41,↑,up,↑,0.5481154000153765,True,7,1,0,8
Y2-S2-138K24,8,732,PS,exp,45,↓,down,↓,0.6656459999503568,True,7,1,0,8
Y2-S2-138K24,8,733,PS,exp,36,←,right,→,0.46641039999667555,False,7,-1,1,9
Y2-S2-138K24,8,734,PS,exp,31,↑,left,←,0.6442845000419766,False,8,-1,0,9
Y2-S2-138K24,8,735,PS,exp,35,→,right,→,0.54651259991806,True,9,-1,0,9
Y2-S2-138K24,8,736,PS,exp,31,←,left,←,0.6605644999071956,True,9,-1,0,9
Y2-S2-138K24,8,737,PS,exp,35,↓,down,↓,0.4480255999369547,True,9,1,1,10
Y2-S2-138K24,8,738,PS,exp,41,←,right,→,0.7180139000993222,False,8,-1,1,11
Y2-S2-138K24,8,739,PS,exp,41,↑,up,↑,0.4828376000514254,True,9,-1,0,11
Y2-S2-138K24,8,740,PS,exp,44,→,right,→,0.4148176000453532,True,9,-1,0,11
Y2-S2-138K24,8,741,PS,exp,40,←,left,←,0.4302369999932125,True,9,1,1,12
Y2-S2-138K24,8,742,PS,exp,28,→,right,→,0.6624216999625787,True,8,1,0,12
Y2-S2-138K24,8,743,PS,exp,26,↑,up,↑,0.5307820000452921,True,8,1,0,12
Y2-S2-138K24,8,744,PS,exp,36,→,down,↓,0.5046502000186592,False,8,-1,1,13
Y2-S2-138K24,8,745,PS,exp,41,↑,left,←,0.5049154999433085,False,9,-1,0,13
Y2-S2-138K24,8,746,PS,exp,37,↓,right,→,0.55804839998018,False,10,-1,0,13
Y2-S2-138K24,8,747,PS,exp,39,←,right,→,0.5949666000669822,False,11,-1,0,13
Y2-S2-138K24,8,748,PS,exp,49,↑,up,↑,0.49726729991380125,True,12,-1,0,13
Y2-S2-138K24,8,749,PS,exp,49,←,right,→,0.46186799998395145,False,12,-1,0,13
Y2-S2-138K24,8,750,PS,exp,27,↑,left,←,0.7048257000278682,False,13,-1,0,13
Y2-S2-138K24,8,751,PS,exp,27,→,right,→,0.48503189999610186,True,14,-1,0,13
Y2-S2-138K24,8,752,PS,exp,34,↑,up,↑,0.6175001999363303,True,14,-1,0,13
Y2-S2-138K24,8,753,PS,exp,27,←,left,←,0.6009916999610141,True,14,1,1,14
Y2-S2-138K24,8,754,PS,exp,44,↓,down,↓,0.4886414000065997,True,13,1,0,14
Y2-S2-138K24,8,755,PS,exp,34,→,up,↑,0.7268974999897182,False,13,-1,1,15
Y2-S2-138K24,8,756,PS,exp,29,←,left,←,1.1934604999842122,True,14,-1,0,15
Y2-S2-138K24,8,757,PS,exp,42,→,right,→,0.45259920007083565,True,14,-1,0,15
Y2-S2-138K24,8,758,PS,exp,44,↓,down,↓,0.4222650999436155,True,14,1,1,16
