PART_ID,Block_no,Trial_no,Block_type,Trial_type,CSI,Stim_letter,Key_pressed,letter_choose,Rt,Corr,Stimulus Time,Level,Reversal,Revs_count
Y2-S2-027K22,1,1,PS,train,44,←,left,←,0.46784309996291995,True,30,-,-,-
Y2-S2-027K22,1,2,PS,train,30,↓,down,↓,0.5507540999678895,True,30,-,-,-
Y2-S2-027K22,1,3,PS,train,50,←,right,→,0.46795979992020875,False,30,-,-,-
Y2-S2-027K22,1,4,PS,train,28,↓,down,↓,0.5007815000135452,True,30,-,-,-
Y2-S2-027K22,1,5,PS,train,26,←,left,←,0.4178202000912279,True,30,-,-,-
Y2-S2-027K22,1,6,PS,train,39,↓,down,↓,0.5007381999166682,True,30,-,-,-
Y2-S2-027K22,1,7,PS,train,34,↑,up,↑,0.5671207000268623,True,30,-,-,-
Y2-S2-027K22,1,8,PS,train,47,→,right,→,0.4006078999955207,True,30,-,-,-
Y2-S2-027K22,1,9,PS,train,36,↓,left,←,0.7878895000321791,False,30,-,-,-
Y2-S2-027K22,1,10,PS,train,45,↑,up,↑,0.4840483999578282,True,30,-,-,-
Y2-S2-027K22,2,11,AS,train,46,←,left,←,0.4676295999670401,True,45,-,-,-
Y2-S2-027K22,2,12,AS,train,27,↓,down,↓,0.6002576999599114,True,45,-,-,-
Y2-S2-027K22,2,13,AS,train,39,↑,up,↑,0.618578499997966,True,45,-,-,-
Y2-S2-027K22,2,14,AS,train,29,→,right,→,0.5509172000456601,True,45,-,-,-
Y2-S2-027K22,2,15,AS,train,30,←,left,←,0.5519218000117689,True,45,-,-,-
Y2-S2-027K22,2,16,AS,train,33,↑,up,↑,0.4338838999392465,True,45,-,-,-
Y2-S2-027K22,2,17,AS,train,45,←,left,←,0.5008378999773413,True,45,-,-,-
Y2-S2-027K22,2,18,AS,train,38,→,right,→,0.48442440002691,True,45,-,-,-
Y2-S2-027K22,2,19,AS,train,39,←,down,↓,0.5840739000122994,False,45,-,-,-
Y2-S2-027K22,2,20,AS,train,50,↓,down,↓,0.5676265000365674,True,45,-,-,-
Y2-S2-027K22,-,21,PS,adaptive,37,←,left,←,0.4628017999930307,True,10,0,0,0
Y2-S2-027K22,-,22,PS,adaptive,36,↑,right,→,0.8013910000445321,False,10,-1,0,0
Y2-S2-027K22,-,23,PS,adaptive,33,↓,down,↓,0.4618246000027284,True,11,-1,0,0
Y2-S2-027K22,-,24,PS,adaptive,36,↑,up,↑,0.9331359999487177,True,11,-1,0,0
Y2-S2-027K22,-,25,PS,adaptive,33,←,left,←,0.42077500000596046,True,11,1,1,1
Y2-S2-027K22,-,26,PS,adaptive,31,→,right,→,0.46083110000472516,True,10,1,0,1
Y2-S2-027K22,-,27,PS,adaptive,42,←,left,←,0.4553033000556752,True,10,1,0,1
Y2-S2-027K22,-,28,PS,adaptive,26,→,right,→,0.40584250004030764,True,10,1,0,1
Y2-S2-027K22,-,29,PS,adaptive,25,↑,left,←,0.621500700013712,False,9,-1,1,2
Y2-S2-027K22,-,30,PS,adaptive,27,←,left,←,0.6831638000439852,True,10,-1,0,2
Y2-S2-027K22,-,31,PS,adaptive,33,↓,down,↓,0.4509465000592172,True,10,-1,0,2
Y2-S2-027K22,-,32,PS,adaptive,42,→,right,→,0.3501084999879822,True,10,1,1,3
Y2-S2-027K22,-,33,PS,adaptive,45,↑,up,↑,0.4473918000003323,True,9,1,0,3
Y2-S2-027K22,-,34,PS,adaptive,39,←,right,→,0.5315555999986827,False,9,-1,1,4
Y2-S2-027K22,-,35,AS,adaptive,42,→,right,→,0.9052826999686658,True,20,0,0,0
Y2-S2-027K22,-,36,AS,adaptive,27,←,left,←,0.4674232000252232,True,20,0,0,0
Y2-S2-027K22,-,37,AS,adaptive,41,↑,up,↑,0.6264122000429779,True,20,1,0,0
Y2-S2-027K22,-,38,AS,adaptive,39,←,left,←,0.3680938999168575,True,19,1,0,0
Y2-S2-027K22,-,39,AS,adaptive,41,↑,up,↑,0.7780132000334561,True,19,1,0,0
Y2-S2-027K22,-,40,AS,adaptive,30,→,right,→,0.5325859000440687,True,19,1,0,0
Y2-S2-027K22,-,41,AS,adaptive,48,←,left,←,0.6651099000591785,True,18,1,0,0
Y2-S2-027K22,-,42,AS,adaptive,27,↑,up,↑,0.48673150001559407,True,18,1,0,0
Y2-S2-027K22,-,43,AS,adaptive,29,→,right,→,0.6164007000625134,True,18,1,0,0
Y2-S2-027K22,-,44,AS,adaptive,50,↓,left,←,0.723528099944815,False,17,-1,1,1
Y2-S2-027K22,-,45,AS,adaptive,38,→,left,←,0.4697274999925867,False,18,-1,0,1
Y2-S2-027K22,-,46,AS,adaptive,33,←,left,←,0.5779237999813631,True,19,-1,0,1
Y2-S2-027K22,-,47,AS,adaptive,25,↓,down,↓,0.5708220000378788,True,19,-1,0,1
Y2-S2-027K22,-,48,AS,adaptive,25,←,left,←,0.6604123000288382,True,19,1,1,2
Y2-S2-027K22,-,49,AS,adaptive,34,↓,down,↓,0.47948099998757243,True,18,1,0,2
Y2-S2-027K22,-,50,AS,adaptive,36,↑,up,↑,0.5079297000775114,True,18,1,0,2
Y2-S2-027K22,-,51,AS,adaptive,34,←,left,←,0.5476602000417188,True,18,1,0,2
Y2-S2-027K22,-,52,AS,adaptive,44,→,right,→,0.6305241000372916,True,17,1,0,2
Y2-S2-027K22,-,53,AS,adaptive,42,←,left,←,0.5839901000726968,True,17,1,0,2
Y2-S2-027K22,-,54,AS,adaptive,40,→,right,→,0.6100836999248713,True,17,1,0,2
Y2-S2-027K22,-,55,AS,adaptive,35,↑,up,↑,0.687480799970217,True,16,1,0,2
Y2-S2-027K22,-,56,AS,adaptive,32,←,left,←,0.5733025999506935,True,16,1,0,2
Y2-S2-027K22,-,57,AS,adaptive,27,↑,up,↑,0.4736044999444857,True,16,1,0,2
Y2-S2-027K22,-,58,AS,adaptive,36,↓,right,→,0.7066197000676766,False,15,-1,1,3
Y2-S2-027K22,-,59,AS,adaptive,25,↑,up,↑,0.49021219997666776,True,16,-1,0,3
Y2-S2-027K22,-,60,AS,adaptive,37,←,left,←,0.4640748000238091,True,16,-1,0,3
Y2-S2-027K22,-,61,AS,adaptive,39,↓,down,↓,0.45968889992218465,True,16,1,1,4
Y2-S2-027K22,1,62,PS,intra_train,28,↑,up,↑,0.4211440000217408,True,15,-,-,-
Y2-S2-027K22,1,63,PS,intra_train,46,↓,down,↓,0.5532129999483004,True,15,-,-,-
Y2-S2-027K22,1,64,PS,intra_train,48,→,right,→,0.44798119994811714,True,15,-,-,-
Y2-S2-027K22,1,65,PS,intra_train,35,↑,up,↑,0.4293381000170484,True,15,-,-,-
Y2-S2-027K22,1,66,PS,intra_train,26,←,left,←,0.9154201000928879,True,15,-,-,-
Y2-S2-027K22,1,67,PS,exp,35,↓,down,↓,0.6674969000741839,True,10,0,0,0
Y2-S2-027K22,1,68,PS,exp,44,→,right,→,0.447200599941425,True,10,0,0,0
Y2-S2-027K22,1,69,PS,exp,30,↓,down,↓,0.5961799999931827,True,10,1,0,0
Y2-S2-027K22,1,70,PS,exp,34,↑,up,↑,0.3914145000744611,True,9,1,0,0
Y2-S2-027K22,1,71,PS,exp,34,←,left,←,0.4118307000026107,True,9,1,0,0
Y2-S2-027K22,1,72,PS,exp,40,↓,down,↓,0.47302869998384267,True,9,1,0,0
Y2-S2-027K22,1,73,PS,exp,49,→,right,→,0.47482540004421026,True,8,1,0,0
Y2-S2-027K22,1,74,PS,exp,47,↑,up,↑,0.4762773000402376,True,8,1,0,0
Y2-S2-027K22,1,75,PS,exp,37,←,left,←,0.4549465999007225,True,8,1,0,0
Y2-S2-027K22,1,76,PS,exp,44,→,right,→,0.5272272999864072,True,7,1,0,0
Y2-S2-027K22,1,77,PS,exp,29,↑,left,←,0.9994638999924064,False,7,-1,1,1
Y2-S2-027K22,1,78,PS,exp,31,↓,down,↓,0.5098915999988094,True,8,-1,0,1
Y2-S2-027K22,1,79,PS,exp,49,←,left,←,0.48038990003988147,True,8,-1,0,1
Y2-S2-027K22,1,80,PS,exp,50,↓,down,↓,0.5139308999059722,True,8,1,1,2
Y2-S2-027K22,1,81,PS,exp,25,→,right,→,0.4451205999357626,True,7,1,0,2
Y2-S2-027K22,1,82,PS,exp,29,↑,up,↑,0.5648507999721915,True,7,1,0,2
Y2-S2-027K22,1,83,PS,exp,44,→,right,→,0.4163489999482408,True,7,1,0,2
Y2-S2-027K22,1,84,PS,exp,26,↓,down,↓,0.5046365999151021,True,6,1,0,2
Y2-S2-027K22,1,85,PS,exp,28,↑,right,→,1.0831363999750465,False,6,-1,1,3
Y2-S2-027K22,1,86,PS,exp,26,→,right,→,0.4125059999059886,True,7,-1,0,3
Y2-S2-027K22,1,87,PS,exp,36,↓,down,↓,0.5277690999209881,True,7,-1,0,3
Y2-S2-027K22,1,88,PS,exp,29,↑,right,→,0.5231582000851631,False,7,-1,0,3
Y2-S2-027K22,1,89,PS,exp,39,→,right,→,0.5436454000882804,True,8,-1,0,3
Y2-S2-027K22,1,90,PS,exp,33,↑,left,←,0.5931454999372363,False,8,-1,0,3
Y2-S2-027K22,1,91,PS,exp,25,↓,down,↓,0.5194158999947831,True,9,-1,0,3
Y2-S2-027K22,1,92,PS,exp,33,↑,up,↑,0.5037185000255704,True,9,-1,0,3
Y2-S2-027K22,1,93,PS,exp,42,↓,right,→,0.9962452999316156,False,9,-1,0,3
Y2-S2-027K22,1,94,PS,exp,45,←,left,←,0.5603295000037178,True,10,-1,0,3
Y2-S2-027K22,1,95,PS,exp,29,↓,down,↓,0.5251028999919072,True,10,-1,0,3
Y2-S2-027K22,1,96,PS,exp,48,←,left,←,0.495538100018166,True,10,1,1,4
Y2-S2-027K22,1,97,PS,exp,34,↑,up,↑,0.48949419998098165,True,9,1,0,4
Y2-S2-027K22,1,98,PS,exp,41,↓,down,↓,0.6044359999941662,True,9,1,0,4
Y2-S2-027K22,1,99,PS,exp,27,→,left,←,0.6096604000777006,False,9,-1,1,5
Y2-S2-027K22,1,100,PS,exp,32,↓,left,←,0.5667975000105798,False,10,-1,0,5
Y2-S2-027K22,1,101,PS,exp,35,→,right,→,0.5378602999262512,True,11,-1,0,5
Y2-S2-027K22,1,102,PS,exp,41,↑,up,↑,0.5264485999941826,True,11,-1,0,5
Y2-S2-027K22,1,103,PS,exp,48,↓,left,←,0.5457248999737203,False,11,-1,0,5
Y2-S2-027K22,1,104,PS,exp,47,→,right,→,0.4380628999788314,True,12,-1,0,5
Y2-S2-027K22,1,105,PS,exp,44,↓,down,↓,0.5998285000678152,True,12,-1,0,5
Y2-S2-027K22,1,106,PS,exp,31,→,right,→,0.4768702000146732,True,12,1,1,6
Y2-S2-027K22,1,107,PS,exp,44,↑,up,↑,0.4525998999597505,True,11,1,0,6
Y2-S2-027K22,1,108,PS,exp,26,←,left,←,0.45067399996332824,True,11,1,0,6
Y2-S2-027K22,1,109,PS,exp,37,↓,down,↓,0.5651828000554815,True,11,1,0,6
Y2-S2-027K22,1,110,PS,exp,49,←,left,←,0.3844970000209287,True,10,1,0,6
Y2-S2-027K22,1,111,PS,exp,37,↓,down,↓,0.5469436999410391,True,10,1,0,6
Y2-S2-027K22,1,112,PS,exp,25,→,right,→,0.4677783000515774,True,10,1,0,6
Y2-S2-027K22,1,113,PS,exp,38,↑,up,↑,0.48141070001292974,True,9,1,0,6
Y2-S2-027K22,1,114,PS,exp,45,→,right,→,0.4241688000038266,True,9,1,0,6
Y2-S2-027K22,1,115,PS,exp,47,↓,down,↓,0.5647229999303818,True,9,1,0,6
Y2-S2-027K22,1,116,PS,exp,33,↑,up,↑,0.5265150000341237,True,8,1,0,6
Y2-S2-027K22,1,117,PS,exp,34,←,right,→,0.5767766999779269,False,8,-1,1,7
Y2-S2-027K22,1,118,PS,exp,29,→,right,→,0.3384590999921784,True,9,-1,0,7
Y2-S2-027K22,1,119,PS,exp,40,↓,down,↓,0.563110800110735,True,9,-1,0,7
Y2-S2-027K22,1,120,PS,exp,47,←,left,←,0.4811242000432685,True,9,1,1,8
Y2-S2-027K22,1,121,PS,exp,50,↑,up,↑,0.43001340003684163,True,8,1,0,8
Y2-S2-027K22,1,122,PS,exp,31,→,right,→,0.3993824999779463,True,8,1,0,8
Y2-S2-027K22,1,123,PS,exp,46,←,left,←,0.36135989998001605,True,8,1,0,8
Y2-S2-027K22,1,124,PS,exp,32,→,left,←,0.569510699948296,False,7,-1,1,9
Y2-S2-027K22,1,125,PS,exp,32,↑,up,↑,0.4457884000148624,True,8,-1,0,9
Y2-S2-027K22,1,126,PS,exp,33,→,right,→,0.4516496000578627,True,8,-1,0,9
Y2-S2-027K22,1,127,PS,exp,44,↑,left,←,0.7628139000153169,False,8,-1,0,9
Y2-S2-027K22,1,128,PS,exp,49,↓,down,↓,0.6567901999223977,True,9,-1,0,9
Y2-S2-027K22,1,129,PS,exp,44,→,right,→,0.4087533999700099,True,9,-1,0,9
Y2-S2-027K22,1,130,PS,exp,29,←,right,→,0.579843100043945,False,9,-1,0,9
Y2-S2-027K22,1,131,PS,exp,38,→,right,→,0.4194582999916747,True,10,-1,0,9
Y2-S2-027K22,1,132,PS,exp,45,←,left,←,0.45688120007980615,True,10,-1,0,9
Y2-S2-027K22,1,133,PS,exp,25,→,right,→,0.4401588999899104,True,10,1,1,10
Y2-S2-027K22,1,134,PS,exp,47,←,left,←,0.4850077999290079,True,9,1,0,10
Y2-S2-027K22,1,135,PS,exp,42,↓,right,→,0.7247601998969913,False,9,-1,1,11
Y2-S2-027K22,1,136,PS,exp,42,→,right,→,0.4344104001065716,True,10,-1,0,11
Y2-S2-027K22,1,137,PS,exp,46,←,left,←,0.5236388000193983,True,10,-1,0,11
Y2-S2-027K22,1,138,PS,exp,34,↓,down,↓,0.6236581000266597,True,10,1,1,12
Y2-S2-027K22,1,139,PS,exp,29,↑,left,←,0.5758113000774756,False,9,-1,1,13
Y2-S2-027K22,1,140,PS,exp,32,→,right,→,0.7421202999539673,True,10,-1,0,13
Y2-S2-027K22,1,141,PS,exp,42,↓,down,↓,0.882892599911429,True,10,-1,0,13
Y2-S2-027K22,1,142,PS,exp,31,→,right,→,0.4918588000582531,True,10,1,1,14
Y2-S2-027K22,1,143,PS,exp,28,←,left,←,0.3675614999374375,True,9,1,0,14
Y2-S2-027K22,1,144,PS,exp,33,↑,up,↑,0.4859849000349641,True,9,1,0,14
Y2-S2-027K22,1,145,PS,exp,44,↓,right,→,0.359936699969694,False,9,-1,1,15
Y2-S2-027K22,1,146,PS,exp,35,←,right,→,0.4929563000332564,False,10,-1,0,15
Y2-S2-027K22,1,147,PS,exp,33,↓,left,←,0.562902000034228,False,11,-1,0,15
Y2-S2-027K22,1,148,PS,exp,31,←,left,←,0.5384037999901921,True,12,-1,0,15
Y2-S2-027K22,1,149,PS,exp,34,↑,up,↑,0.5075584000442177,True,12,-1,0,15
Y2-S2-027K22,1,150,PS,exp,49,→,left,←,0.3341278999578208,False,12,-1,0,15
Y2-S2-027K22,1,151,PS,exp,44,↓,down,↓,0.5160312000662088,True,13,-1,0,15
Y2-S2-027K22,1,152,PS,exp,29,↑,up,↑,0.4150652999524027,True,13,-1,0,15
Y2-S2-027K22,1,153,PS,exp,30,←,left,←,0.3338864999823272,True,13,1,1,16
Y2-S2-027K22,2,154,AS,intra_train,45,↓,down,↓,0.5813694000244141,True,22,-,-,-
Y2-S2-027K22,2,155,AS,intra_train,27,→,right,→,0.5002638000296429,True,22,-,-,-
Y2-S2-027K22,2,156,AS,intra_train,46,←,left,←,0.5466025000205263,True,22,-,-,-
Y2-S2-027K22,2,157,AS,intra_train,28,→,right,→,0.9820859000319615,True,22,-,-,-
Y2-S2-027K22,2,158,AS,intra_train,48,←,right,→,0.4671616000123322,False,22,-,-,-
Y2-S2-027K22,2,159,AS,exp,41,↓,down,↓,0.6296646000118926,True,15,0,0,0
Y2-S2-027K22,2,160,AS,exp,44,←,left,←,0.5787593999411911,True,15,0,0,0
Y2-S2-027K22,2,161,AS,exp,45,→,right,→,0.6356869000010192,True,15,1,0,0
Y2-S2-027K22,2,162,AS,exp,50,←,left,←,0.41262949991505593,True,14,1,0,0
Y2-S2-027K22,2,163,AS,exp,38,→,right,→,0.47627250000368804,True,14,1,0,0
Y2-S2-027K22,2,164,AS,exp,26,←,right,→,0.5536890999646857,False,14,-1,1,1
Y2-S2-027K22,2,165,AS,exp,31,↓,down,↓,0.5477612999966368,True,15,-1,0,1
Y2-S2-027K22,2,166,AS,exp,49,↑,down,↓,0.42222109995782375,False,15,-1,0,1
Y2-S2-027K22,2,167,AS,exp,42,↓,down,↓,0.5085334000177681,True,16,-1,0,1
Y2-S2-027K22,2,168,AS,exp,39,←,right,→,0.4663985000224784,False,16,-1,0,1
Y2-S2-027K22,2,169,AS,exp,32,→,right,→,0.8572613000869751,True,17,-1,0,1
Y2-S2-027K22,2,170,AS,exp,41,←,left,←,0.7234172000316903,True,17,-1,0,1
Y2-S2-027K22,2,171,AS,exp,45,↓,down,↓,0.4608417999697849,True,17,1,1,2
Y2-S2-027K22,2,172,AS,exp,47,←,left,←,0.6126923999981955,True,16,1,0,2
Y2-S2-027K22,2,173,AS,exp,30,↑,up,↑,0.8575178999453783,True,16,1,0,2
Y2-S2-027K22,2,174,AS,exp,33,→,right,→,0.5297250000294298,True,16,1,0,2
Y2-S2-027K22,2,175,AS,exp,30,←,left,←,0.5693532000295818,True,15,1,0,2
Y2-S2-027K22,2,176,AS,exp,35,↑,up,↑,0.45863000000827014,True,15,1,0,2
Y2-S2-027K22,2,177,AS,exp,34,←,right,→,0.42444350000005215,False,15,-1,1,3
Y2-S2-027K22,2,178,AS,exp,37,↓,up,↑,0.4005493000149727,False,16,-1,0,3
Y2-S2-027K22,2,179,AS,exp,27,↑,left,←,0.46474520000629127,False,17,-1,0,3
Y2-S2-027K22,2,180,AS,exp,34,←,left,←,0.647936699911952,True,18,-1,0,3
Y2-S2-027K22,2,181,AS,exp,33,↑,up,↑,0.5212339999852702,True,18,-1,0,3
Y2-S2-027K22,2,182,AS,exp,36,→,right,→,0.5079164999770001,True,18,1,1,4
Y2-S2-027K22,2,183,AS,exp,33,↑,up,↑,0.4639258000534028,True,17,1,0,4
Y2-S2-027K22,2,184,AS,exp,42,↓,left,←,0.5265451000304893,False,17,-1,1,5
Y2-S2-027K22,2,185,AS,exp,43,↑,up,↑,0.5666173999197781,True,18,-1,0,5
Y2-S2-027K22,2,186,AS,exp,47,↓,down,↓,0.6709101999877021,True,18,-1,0,5
Y2-S2-027K22,2,187,AS,exp,26,←,left,←,0.9233567999908701,True,18,1,1,6
Y2-S2-027K22,2,188,AS,exp,32,→,right,→,0.8419353999197483,True,17,1,0,6
Y2-S2-027K22,2,189,AS,exp,40,←,left,←,0.5033846000442281,True,17,1,0,6
Y2-S2-027K22,2,190,AS,exp,39,→,right,→,0.8338129000039771,True,17,1,0,6
Y2-S2-027K22,2,191,AS,exp,42,↑,up,↑,0.6789240000071004,True,16,1,0,6
Y2-S2-027K22,2,192,AS,exp,34,↓,down,↓,0.5184551000129431,True,16,1,0,6
Y2-S2-027K22,2,193,AS,exp,48,↑,up,↑,0.5139200000558048,True,16,1,0,6
Y2-S2-027K22,2,194,AS,exp,31,←,left,←,0.43607069994322956,True,15,1,0,6
Y2-S2-027K22,2,195,AS,exp,45,↓,down,↓,0.5349972000112757,True,15,1,0,6
Y2-S2-027K22,2,196,AS,exp,34,→,right,→,0.4635314999613911,True,15,1,0,6
Y2-S2-027K22,2,197,AS,exp,41,↓,down,↓,0.7291333000175655,True,14,1,0,6
Y2-S2-027K22,2,198,AS,exp,32,→,right,→,0.4489271999336779,True,14,1,0,6
Y2-S2-027K22,2,199,AS,exp,47,←,left,←,0.5546666999580339,True,14,1,0,6
Y2-S2-027K22,2,200,AS,exp,26,→,right,→,0.5848845000145957,True,13,1,0,6
Y2-S2-027K22,2,201,AS,exp,28,↑,up,↑,0.4304120000451803,True,13,1,0,6
Y2-S2-027K22,2,202,AS,exp,37,←,right,→,0.5730682000285015,False,13,-1,1,7
Y2-S2-027K22,2,203,AS,exp,35,↓,down,↓,0.5054636999266222,True,14,-1,0,7
Y2-S2-027K22,2,204,AS,exp,27,↑,up,↑,0.5602213999954984,True,14,-1,0,7
Y2-S2-027K22,2,205,AS,exp,39,←,left,←,0.5309905000030994,True,14,1,1,8
Y2-S2-027K22,2,206,AS,exp,34,↑,up,↑,0.3947498999768868,True,13,1,0,8
Y2-S2-027K22,2,207,AS,exp,44,→,right,→,0.6704080000054091,True,13,1,0,8
Y2-S2-027K22,2,208,AS,exp,25,↓,up,↑,0.4322729998966679,False,13,-1,1,9
Y2-S2-027K22,2,209,AS,exp,42,↑,up,↑,0.8500481999944896,True,14,-1,0,9
Y2-S2-027K22,2,210,AS,exp,25,↓,up,↑,0.7198859999189153,False,14,-1,0,9
Y2-S2-027K22,2,211,AS,exp,27,↑,up,↑,0.4196722999913618,True,15,-1,0,9
Y2-S2-027K22,2,212,AS,exp,33,↓,up,↑,0.38551329995971173,False,15,-1,0,9
Y2-S2-027K22,2,213,AS,exp,26,←,left,←,0.502672899980098,True,16,-1,0,9
Y2-S2-027K22,2,214,AS,exp,25,→,right,→,0.4689522000262514,True,16,-1,0,9
Y2-S2-027K22,2,215,AS,exp,48,←,left,←,0.4528779999818653,True,16,1,1,10
Y2-S2-027K22,2,216,AS,exp,50,→,right,→,0.6623488001059741,True,15,1,0,10
Y2-S2-027K22,2,217,AS,exp,45,←,left,←,0.5097047000890598,True,15,1,0,10
Y2-S2-027K22,2,218,AS,exp,49,↑,up,↑,0.45691010006703436,True,15,1,0,10
Y2-S2-027K22,2,219,AS,exp,27,←,right,→,0.41513370000757277,False,14,-1,1,11
Y2-S2-027K22,2,220,AS,exp,29,↑,up,↑,0.4866191999753937,True,15,-1,0,11
Y2-S2-027K22,2,221,AS,exp,49,↓,down,↓,0.5081389000406489,True,15,-1,0,11
Y2-S2-027K22,2,222,AS,exp,30,↑,left,←,0.7152209999039769,False,15,-1,0,11
Y2-S2-027K22,2,223,AS,exp,40,↓,left,←,0.8098326999461278,False,16,-1,0,11
Y2-S2-027K22,2,224,AS,exp,44,↑,up,↑,0.5151708999183029,True,17,-1,0,11
Y2-S2-027K22,2,225,AS,exp,37,→,left,←,0.4583682999946177,False,17,-1,0,11
Y2-S2-027K22,2,226,AS,exp,49,↓,down,↓,0.609618499991484,True,18,-1,0,11
Y2-S2-027K22,2,227,AS,exp,49,↑,up,↑,1.1213051000377163,True,18,-1,0,11
Y2-S2-027K22,2,228,AS,exp,28,→,right,→,0.5130128000164405,True,18,1,1,12
Y2-S2-027K22,2,229,AS,exp,35,←,left,←,0.948725999915041,True,17,1,0,12
Y2-S2-027K22,2,230,AS,exp,36,→,right,→,0.5640928000211716,True,17,1,0,12
Y2-S2-027K22,2,231,AS,exp,41,←,left,←,0.5948661000002176,True,17,1,0,12
Y2-S2-027K22,2,232,AS,exp,33,↑,up,↑,0.4625579999992624,True,16,1,0,12
Y2-S2-027K22,2,233,AS,exp,27,←,left,←,0.6080961999250576,True,16,1,0,12
Y2-S2-027K22,2,234,AS,exp,43,↓,down,↓,0.6462545999092981,True,16,1,0,12
Y2-S2-027K22,2,235,AS,exp,27,→,right,→,0.7136607000138611,True,15,1,0,12
Y2-S2-027K22,2,236,AS,exp,44,↑,up,↑,0.6960342000238597,True,15,1,0,12
Y2-S2-027K22,2,237,AS,exp,31,↓,down,↓,0.5831623999401927,True,15,1,0,12
Y2-S2-027K22,2,238,AS,exp,49,→,right,→,0.4031331998994574,True,14,1,0,12
Y2-S2-027K22,2,239,AS,exp,44,←,left,←,0.40177480003330857,True,14,1,0,12
Y2-S2-027K22,2,240,AS,exp,28,↑,up,↑,0.49632440006826073,True,14,1,0,12
Y2-S2-027K22,2,241,AS,exp,47,←,right,→,0.6573995999060571,False,13,-1,1,13
Y2-S2-027K22,2,242,AS,exp,47,↓,down,↓,0.6079931000713259,True,14,-1,0,13
Y2-S2-027K22,2,243,AS,exp,40,→,right,→,0.6139195000287145,True,14,-1,0,13
Y2-S2-027K22,2,244,AS,exp,36,←,right,→,0.6124108000658453,False,14,-1,0,13
Y2-S2-027K22,2,245,AS,exp,38,↓,down,↓,0.6492557999445125,True,15,-1,0,13
Y2-S2-027K22,2,246,AS,exp,37,↑,up,↑,0.7040835999650881,True,15,-1,0,13
Y2-S2-027K22,2,247,AS,exp,43,←,left,←,0.6174668000312522,True,15,1,1,14
Y2-S2-027K22,2,248,AS,exp,48,↑,up,↑,0.48383050004485995,True,14,1,0,14
Y2-S2-027K22,2,249,AS,exp,47,→,right,→,0.7853143999818712,True,14,1,0,14
Y2-S2-027K22,2,250,AS,exp,48,↑,up,↑,0.5312586000654846,True,14,1,0,14
Y2-S2-027K22,2,251,AS,exp,34,↓,down,↓,0.7546997000463307,True,13,1,0,14
Y2-S2-027K22,2,252,AS,exp,41,→,left,←,0.48174820002168417,False,13,-1,1,15
Y2-S2-027K22,2,253,AS,exp,49,↓,down,↓,0.6204775999067351,True,14,-1,0,15
Y2-S2-027K22,2,254,AS,exp,41,←,left,←,0.4746630999725312,True,14,-1,0,15
Y2-S2-027K22,2,255,AS,exp,47,↓,down,↓,0.6215641999151558,True,14,1,1,16
Y2-S2-027K22,3,256,AS,intra_train,50,→,right,→,0.5006102999905124,True,22,-,-,-
Y2-S2-027K22,3,257,AS,intra_train,37,←,left,←,0.5710882999701425,True,22,-,-,-
Y2-S2-027K22,3,258,AS,intra_train,29,→,right,→,0.45053939998615533,True,22,-,-,-
Y2-S2-027K22,3,259,AS,intra_train,28,↑,up,↑,0.4508895999751985,True,22,-,-,-
Y2-S2-027K22,3,260,AS,intra_train,48,←,left,←,0.4007141999900341,True,22,-,-,-
Y2-S2-027K22,3,261,AS,exp,46,↑,up,↑,0.4214755001012236,True,15,0,0,0
Y2-S2-027K22,3,262,AS,exp,36,→,left,←,0.5678453000728041,False,15,-1,0,0
Y2-S2-027K22,3,263,AS,exp,25,↑,up,↑,0.4459531999891624,True,16,-1,0,0
Y2-S2-027K22,3,264,AS,exp,26,↓,down,↓,0.6141393000725657,True,16,-1,0,0
Y2-S2-027K22,3,265,AS,exp,31,←,left,←,0.5851115999976173,True,16,1,1,1
Y2-S2-027K22,3,266,AS,exp,43,↓,down,↓,0.5977909000357613,True,15,1,0,1
Y2-S2-027K22,3,267,AS,exp,36,→,left,←,0.6191767000127584,False,15,-1,1,2
Y2-S2-027K22,3,268,AS,exp,49,↓,down,↓,0.44458750006742775,True,16,-1,0,2
Y2-S2-027K22,3,269,AS,exp,31,←,left,←,0.9007186000235379,True,16,-1,0,2
Y2-S2-027K22,3,270,AS,exp,48,↓,down,↓,0.577005400089547,True,16,1,1,3
Y2-S2-027K22,3,271,AS,exp,29,↑,up,↑,0.5258582000387833,True,15,1,0,3
Y2-S2-027K22,3,272,AS,exp,42,→,left,←,0.4348417000146583,False,15,-1,1,4
Y2-S2-027K22,3,273,AS,exp,43,←,left,←,0.5492941999109462,True,16,-1,0,4
Y2-S2-027K22,3,274,AS,exp,37,→,right,→,0.882010200060904,True,16,-1,0,4
Y2-S2-027K22,3,275,AS,exp,31,↓,down,↓,0.5336677000159398,True,16,1,1,5
Y2-S2-027K22,3,276,AS,exp,43,←,left,←,0.46042959997430444,True,15,1,0,5
Y2-S2-027K22,3,277,AS,exp,28,↓,down,↓,0.6131264999276027,True,15,1,0,5
Y2-S2-027K22,3,278,AS,exp,48,↑,left,←,0.674890200025402,False,15,-1,1,6
Y2-S2-027K22,3,279,AS,exp,40,↓,down,↓,0.5342047000303864,True,16,-1,0,6
Y2-S2-027K22,3,280,AS,exp,35,→,right,→,0.5011580999707803,True,16,-1,0,6
Y2-S2-027K22,3,281,AS,exp,29,←,left,←,0.46057029999792576,True,16,1,1,7
Y2-S2-027K22,3,282,AS,exp,40,↑,up,↑,0.5555850999662653,True,15,1,0,7
Y2-S2-027K22,3,283,AS,exp,29,←,left,←,0.4887359000276774,True,15,1,0,7
Y2-S2-027K22,3,284,AS,exp,50,↓,down,↓,0.5287081999704242,True,15,1,0,7
Y2-S2-027K22,3,285,AS,exp,26,→,left,←,0.42256580002140254,False,14,-1,1,8
Y2-S2-027K22,3,286,AS,exp,47,↓,down,↓,0.436818000045605,True,15,-1,0,8
Y2-S2-027K22,3,287,AS,exp,29,←,left,←,0.48490929999388754,True,15,-1,0,8
Y2-S2-027K22,3,288,AS,exp,36,↓,down,↓,0.4840131000382826,True,15,1,1,9
Y2-S2-027K22,3,289,AS,exp,40,↑,up,↑,0.4670589999295771,True,14,1,0,9
Y2-S2-027K22,3,290,AS,exp,26,→,right,→,0.40604719996917993,True,14,1,0,9
Y2-S2-027K22,3,291,AS,exp,25,↑,down,↓,0.4726537000387907,False,14,-1,1,10
Y2-S2-027K22,3,292,AS,exp,47,→,left,←,0.4481431000167504,False,15,-1,0,10
Y2-S2-027K22,3,293,AS,exp,30,←,left,←,0.5212645999854431,True,16,-1,0,10
Y2-S2-027K22,3,294,AS,exp,40,→,right,→,0.8216160000301898,True,16,-1,0,10
Y2-S2-027K22,3,295,AS,exp,33,↓,down,↓,0.482778700068593,True,16,1,1,11
Y2-S2-027K22,3,296,AS,exp,29,←,left,←,0.46336860000155866,True,15,1,0,11
Y2-S2-027K22,3,297,AS,exp,25,→,right,→,0.452653200016357,True,15,1,0,11
Y2-S2-027K22,3,298,AS,exp,38,↓,down,↓,0.5759793999604881,True,15,1,0,11
Y2-S2-027K22,3,299,AS,exp,45,↑,up,↑,0.5804057000204921,True,14,1,0,11
Y2-S2-027K22,3,300,AS,exp,37,→,right,→,0.7515649000415578,True,14,1,0,11
Y2-S2-027K22,3,301,AS,exp,30,←,left,←,0.5199996000155807,True,14,1,0,11
Y2-S2-027K22,3,302,AS,exp,45,↑,up,↑,0.48565879999659956,True,13,1,0,11
Y2-S2-027K22,3,303,AS,exp,43,↓,down,↓,0.4913895999779925,True,13,1,0,11
Y2-S2-027K22,3,304,AS,exp,46,→,right,→,0.4759144999552518,True,13,1,0,11
Y2-S2-027K22,3,305,AS,exp,49,←,left,←,0.43986439995933324,True,12,1,0,11
Y2-S2-027K22,3,306,AS,exp,35,→,right,→,0.5713477999670431,True,12,1,0,11
Y2-S2-027K22,3,307,AS,exp,27,←,left,←,0.31707580003421754,True,12,1,0,11
Y2-S2-027K22,3,308,AS,exp,36,↑,down,↓,0.634109599981457,False,11,-1,1,12
Y2-S2-027K22,3,309,AS,exp,43,←,right,→,0.5730072000296786,False,12,-1,0,12
Y2-S2-027K22,3,310,AS,exp,43,↓,down,↓,0.7887592000188306,True,13,-1,0,12
Y2-S2-027K22,3,311,AS,exp,36,↑,left,←,0.3503760000457987,False,13,-1,0,12
Y2-S2-027K22,3,312,AS,exp,38,↓,up,↑,0.6481502000242472,False,14,-1,0,12
Y2-S2-027K22,3,313,AS,exp,25,←,right,→,0.546261899988167,False,15,-1,0,12
Y2-S2-027K22,3,314,AS,exp,37,↓,down,↓,0.5310446999501437,True,16,-1,0,12
Y2-S2-027K22,3,315,AS,exp,40,↑,up,↑,0.757411599974148,True,16,-1,0,12
Y2-S2-027K22,3,316,AS,exp,37,←,left,←,0.4392337999306619,True,16,1,1,13
Y2-S2-027K22,3,317,AS,exp,45,↓,down,↓,0.6958382000448182,True,15,1,0,13
Y2-S2-027K22,3,318,AS,exp,47,←,left,←,0.42607599997427315,True,15,1,0,13
Y2-S2-027K22,3,319,AS,exp,48,↓,left,←,0.6748334999429062,False,15,-1,1,14
Y2-S2-027K22,3,320,AS,exp,50,←,left,←,0.4347927999915555,True,16,-1,0,14
Y2-S2-027K22,3,321,AS,exp,34,↓,down,↓,0.706123000010848,True,16,-1,0,14
Y2-S2-027K22,3,322,AS,exp,46,→,left,←,0.4677928000455722,False,16,-1,0,14
Y2-S2-027K22,3,323,AS,exp,26,↓,down,↓,0.4723883999977261,True,17,-1,0,14
Y2-S2-027K22,3,324,AS,exp,47,→,right,→,0.47994759993162006,True,17,-1,0,14
Y2-S2-027K22,3,325,AS,exp,31,↑,up,↑,0.5256488000741228,True,17,1,1,15
Y2-S2-027K22,3,326,AS,exp,34,→,right,→,0.4546156999422237,True,16,1,0,15
Y2-S2-027K22,3,327,AS,exp,26,↓,down,↓,0.6186960000777617,True,16,1,0,15
Y2-S2-027K22,3,328,AS,exp,28,↑,up,↑,0.4007576999720186,True,16,1,0,15
Y2-S2-027K22,3,329,AS,exp,44,←,left,←,0.6117549000773579,True,15,1,0,15
Y2-S2-027K22,3,330,AS,exp,34,↑,up,↑,0.9238725999603048,True,15,1,0,15
Y2-S2-027K22,3,331,AS,exp,29,←,left,←,0.5038257000269368,True,15,1,0,15
Y2-S2-027K22,3,332,AS,exp,44,→,right,→,0.4498731999192387,True,14,1,0,15
Y2-S2-027K22,3,333,AS,exp,38,↑,up,↑,0.49090370000340044,True,14,1,0,15
Y2-S2-027K22,3,334,AS,exp,45,→,right,→,0.5918163999449462,True,14,1,0,15
Y2-S2-027K22,3,335,AS,exp,33,↑,up,↑,0.42036250000819564,True,13,1,0,15
Y2-S2-027K22,3,336,AS,exp,35,→,right,→,0.49939150002319366,True,13,1,0,15
Y2-S2-027K22,3,337,AS,exp,41,↓,down,↓,0.591181099996902,True,13,1,0,15
Y2-S2-027K22,3,338,AS,exp,33,↑,up,↑,0.6112057999707758,True,12,1,0,15
Y2-S2-027K22,3,339,AS,exp,36,→,left,←,0.5148034999147058,False,12,-1,1,16
Y2-S2-027K22,4,340,PS,intra_train,31,↓,down,↓,0.4930469000246376,True,15,-,-,-
Y2-S2-027K22,4,341,PS,intra_train,26,←,left,←,0.8257856999989599,True,15,-,-,-
Y2-S2-027K22,4,342,PS,intra_train,44,→,right,→,0.4425321000162512,True,15,-,-,-
Y2-S2-027K22,4,343,PS,intra_train,25,↑,up,↑,0.6711124000139534,True,15,-,-,-
Y2-S2-027K22,4,344,PS,intra_train,35,←,left,←,0.4183465000241995,True,15,-,-,-
Y2-S2-027K22,4,345,PS,exp,28,↑,up,↑,0.4400840000016615,True,10,0,0,0
Y2-S2-027K22,4,346,PS,exp,43,→,left,←,0.64580419997219,False,10,-1,0,0
Y2-S2-027K22,4,347,PS,exp,44,↓,down,↓,0.4882305000210181,True,11,-1,0,0
Y2-S2-027K22,4,348,PS,exp,31,↑,right,→,0.6503759999759495,False,11,-1,0,0
Y2-S2-027K22,4,349,PS,exp,42,←,left,←,0.39015630003996193,True,12,-1,0,0
Y2-S2-027K22,4,350,PS,exp,36,→,right,→,0.5573476999998093,True,12,-1,0,0
Y2-S2-027K22,4,351,PS,exp,36,↓,down,↓,0.4894973000045866,True,12,1,1,1
Y2-S2-027K22,4,352,PS,exp,28,↑,left,←,0.5638248999603093,False,11,-1,1,2
Y2-S2-027K22,4,353,PS,exp,36,→,right,→,0.4868502999888733,True,12,-1,0,2
Y2-S2-027K22,4,354,PS,exp,45,↑,up,↑,0.4196983000729233,True,12,-1,0,2
Y2-S2-027K22,4,355,PS,exp,49,←,left,←,0.3890890999464318,True,12,1,1,3
Y2-S2-027K22,4,356,PS,exp,48,→,right,→,0.36970050004310906,True,11,1,0,3
Y2-S2-027K22,4,357,PS,exp,33,↑,left,←,0.6241076000733301,False,11,-1,1,4
Y2-S2-027K22,4,358,PS,exp,43,↓,down,↓,0.5883431000402197,True,12,-1,0,4
Y2-S2-027K22,4,359,PS,exp,45,→,right,→,0.4180567000294104,True,12,-1,0,4
Y2-S2-027K22,4,360,PS,exp,43,↓,down,↓,0.567019599955529,True,12,1,1,5
Y2-S2-027K22,4,361,PS,exp,33,→,right,→,0.38528789998963475,True,11,1,0,5
Y2-S2-027K22,4,362,PS,exp,33,←,right,→,0.3752299000043422,False,11,-1,1,6
Y2-S2-027K22,4,363,PS,exp,48,↑,up,↑,0.4537393000209704,True,12,-1,0,6
Y2-S2-027K22,4,364,PS,exp,47,←,left,←,0.7963380999863148,True,12,-1,0,6
Y2-S2-027K22,4,365,PS,exp,31,↑,up,↑,0.46835699991788715,True,12,1,1,7
Y2-S2-027K22,4,366,PS,exp,49,←,left,←,0.42671089991927147,True,11,1,0,7
Y2-S2-027K22,4,367,PS,exp,30,→,right,→,0.40355440007988364,True,11,1,0,7
Y2-S2-027K22,4,368,PS,exp,34,←,right,→,0.6104541999520734,False,11,-1,1,8
Y2-S2-027K22,4,369,PS,exp,41,↓,down,↓,0.5724172999616712,True,12,-1,0,8
Y2-S2-027K22,4,370,PS,exp,30,↑,up,↑,0.8095434000715613,True,12,-1,0,8
Y2-S2-027K22,4,371,PS,exp,32,←,left,←,0.39915029995609075,True,12,1,1,9
Y2-S2-027K22,4,372,PS,exp,39,↑,up,↑,0.3729448999511078,True,11,1,0,9
Y2-S2-027K22,4,373,PS,exp,49,↓,down,↓,0.503930400009267,True,11,1,0,9
Y2-S2-027K22,4,374,PS,exp,44,←,left,←,0.7412124999100342,True,11,1,0,9
Y2-S2-027K22,4,375,PS,exp,32,↑,up,↑,0.5061900999862701,True,10,1,0,9
Y2-S2-027K22,4,376,PS,exp,32,→,right,→,0.3439536999212578,True,10,1,0,9
Y2-S2-027K22,4,377,PS,exp,26,←,left,←,0.4602350000059232,True,10,1,0,9
Y2-S2-027K22,4,378,PS,exp,50,↓,down,↓,0.562129299971275,True,9,1,0,9
Y2-S2-027K22,4,379,PS,exp,35,→,right,→,0.43630629999097437,True,9,1,0,9
Y2-S2-027K22,4,380,PS,exp,46,↑,up,↑,0.3717913000145927,True,9,1,0,9
Y2-S2-027K22,4,381,PS,exp,47,↓,left,←,0.6737448000349104,False,8,-1,1,10
Y2-S2-027K22,4,382,PS,exp,32,↑,up,↑,0.37622789992019534,True,9,-1,0,10
Y2-S2-027K22,4,383,PS,exp,50,←,left,←,0.42104739998467267,True,9,-1,0,10
Y2-S2-027K22,4,384,PS,exp,45,↓,right,→,0.6434179999632761,False,9,-1,0,10
Y2-S2-027K22,4,385,PS,exp,45,←,right,→,0.36011300003156066,False,10,-1,0,10
Y2-S2-027K22,4,386,PS,exp,29,→,right,→,0.3750644000247121,True,11,-1,0,10
Y2-S2-027K22,4,387,PS,exp,25,↓,down,↓,0.523550400044769,True,11,-1,0,10
Y2-S2-027K22,4,388,PS,exp,42,←,left,←,0.5073678999906406,True,11,1,1,11
Y2-S2-027K22,4,389,PS,exp,41,↑,up,↑,0.4357780999271199,True,10,1,0,11
Y2-S2-027K22,4,390,PS,exp,36,↓,down,↓,0.4832272999919951,True,10,1,0,11
Y2-S2-027K22,4,391,PS,exp,41,→,right,→,0.3742365000071004,True,10,1,0,11
Y2-S2-027K22,4,392,PS,exp,42,↑,right,→,0.7468429000582546,False,9,-1,1,12
Y2-S2-027K22,4,393,PS,exp,50,↓,right,→,0.5877600000239909,False,10,-1,0,12
Y2-S2-027K22,4,394,PS,exp,46,↑,up,↑,0.44139649998396635,True,11,-1,0,12
Y2-S2-027K22,4,395,PS,exp,40,↓,down,↓,0.46268430002965033,True,11,-1,0,12
Y2-S2-027K22,4,396,PS,exp,39,↑,up,↑,0.7637354000471532,True,11,1,1,13
Y2-S2-027K22,4,397,PS,exp,41,→,right,→,0.700977300060913,True,10,1,0,13
Y2-S2-027K22,4,398,PS,exp,37,↑,up,↑,0.3620936000952497,True,10,1,0,13
Y2-S2-027K22,4,399,PS,exp,43,←,left,←,0.4435960000846535,True,10,1,0,13
Y2-S2-027K22,4,400,PS,exp,33,↑,up,↑,0.41973890003282577,True,9,1,0,13
Y2-S2-027K22,4,401,PS,exp,46,↓,down,↓,0.4510739999823272,True,9,1,0,13
Y2-S2-027K22,4,402,PS,exp,37,↑,up,↑,0.4134322999743745,True,9,1,0,13
Y2-S2-027K22,4,403,PS,exp,36,→,right,→,0.362041600048542,True,8,1,0,13
Y2-S2-027K22,4,404,PS,exp,49,↓,down,↓,0.43773080001119524,True,8,1,0,13
Y2-S2-027K22,4,405,PS,exp,39,←,left,←,0.33811080001760274,True,8,1,0,13
Y2-S2-027K22,4,406,PS,exp,27,↓,right,→,0.5370070000644773,False,7,-1,1,14
Y2-S2-027K22,4,407,PS,exp,37,←,left,←,0.3203360000625253,True,8,-1,0,14
Y2-S2-027K22,4,408,PS,exp,29,→,right,→,0.47473170002922416,True,8,-1,0,14
Y2-S2-027K22,4,409,PS,exp,30,↑,left,←,0.6797840999206528,False,8,-1,0,14
Y2-S2-027K22,4,410,PS,exp,42,→,right,→,0.4875713000074029,True,9,-1,0,14
Y2-S2-027K22,4,411,PS,exp,46,↓,right,→,0.6430661999620497,False,9,-1,0,14
Y2-S2-027K22,4,412,PS,exp,26,→,right,→,0.3910844000056386,True,10,-1,0,14
Y2-S2-027K22,4,413,PS,exp,30,←,left,←,0.4409338999539614,True,10,-1,0,14
Y2-S2-027K22,4,414,PS,exp,42,↑,up,↑,0.40189570002257824,True,10,1,1,15
Y2-S2-027K22,4,415,PS,exp,42,→,right,→,0.34002220002003014,True,9,1,0,15
Y2-S2-027K22,4,416,PS,exp,38,↓,down,↓,0.5441174999577925,True,9,1,0,15
Y2-S2-027K22,4,417,PS,exp,46,↑,up,↑,0.6435232000658289,True,9,1,0,15
Y2-S2-027K22,4,418,PS,exp,39,↓,up,↑,0.47003480000421405,False,8,-1,1,16
Y2-S2-027K22,5,419,PS,intra_train,28,←,left,←,0.4426786999683827,True,15,-,-,-
Y2-S2-027K22,5,420,PS,intra_train,44,↓,down,↓,0.4609059999929741,True,15,-,-,-
Y2-S2-027K22,5,421,PS,intra_train,29,→,right,→,0.446507400018163,True,15,-,-,-
Y2-S2-027K22,5,422,PS,intra_train,50,←,left,←,0.44988309999462217,True,15,-,-,-
Y2-S2-027K22,5,423,PS,intra_train,48,↓,down,↓,0.5258893000427634,True,15,-,-,-
Y2-S2-027K22,5,424,PS,exp,30,→,right,→,0.3903438999550417,True,10,0,0,0
Y2-S2-027K22,5,425,PS,exp,47,↓,down,↓,0.45352959993761033,True,10,0,0,0
Y2-S2-027K22,5,426,PS,exp,41,→,right,→,0.4418712999904528,True,10,1,0,0
Y2-S2-027K22,5,427,PS,exp,28,↑,right,→,0.6905918000265956,False,9,-1,1,1
Y2-S2-027K22,5,428,PS,exp,31,←,left,←,0.42376919998787344,True,10,-1,0,1
Y2-S2-027K22,5,429,PS,exp,45,→,right,→,0.350978699978441,True,10,-1,0,1
Y2-S2-027K22,5,430,PS,exp,33,↑,up,↑,0.43456680001690984,True,10,1,1,2
Y2-S2-027K22,5,431,PS,exp,42,↓,down,↓,0.49436839995905757,True,9,1,0,2
Y2-S2-027K22,5,432,PS,exp,27,↑,up,↑,0.6408352999715135,True,9,1,0,2
Y2-S2-027K22,5,433,PS,exp,31,↓,down,↓,0.5151520000072196,True,9,1,0,2
Y2-S2-027K22,5,434,PS,exp,37,↑,up,↑,0.41463360004127026,True,8,1,0,2
Y2-S2-027K22,5,435,PS,exp,48,→,right,→,0.44711059995461255,True,8,1,0,2
Y2-S2-027K22,5,436,PS,exp,43,↑,up,↑,0.4852954000234604,True,8,1,0,2
Y2-S2-027K22,5,437,PS,exp,26,←,left,←,0.40971289994195104,True,7,1,0,2
Y2-S2-027K22,5,438,PS,exp,28,↑,left,←,0.735565899987705,False,7,-1,1,3
Y2-S2-027K22,5,439,PS,exp,45,→,right,→,0.4103610999882221,True,8,-1,0,3
Y2-S2-027K22,5,440,PS,exp,27,↑,up,↑,0.578167200088501,True,8,-1,0,3
Y2-S2-027K22,5,441,PS,exp,39,→,up,↑,0.5402545999968424,False,8,-1,0,3
Y2-S2-027K22,5,442,PS,exp,43,↓,down,↓,0.5679484999272972,True,9,-1,0,3
Y2-S2-027K22,5,443,PS,exp,31,↑,right,→,0.5638048000400886,False,9,-1,0,3
Y2-S2-027K22,5,444,PS,exp,35,↓,left,←,0.6035328999860212,False,10,-1,0,3
Y2-S2-027K22,5,445,PS,exp,43,→,right,→,0.44810079992748797,True,11,-1,0,3
Y2-S2-027K22,5,446,PS,exp,33,↓,right,→,0.5785761000588536,False,11,-1,0,3
Y2-S2-027K22,5,447,PS,exp,28,←,left,←,0.5739169000880793,True,12,-1,0,3
Y2-S2-027K22,5,448,PS,exp,46,↓,down,↓,0.5848739999346435,True,12,-1,0,3
Y2-S2-027K22,5,449,PS,exp,48,↑,up,↑,0.4500703999074176,True,12,1,1,4
Y2-S2-027K22,5,450,PS,exp,33,↓,down,↓,0.596890400047414,True,11,1,0,4
Y2-S2-027K22,5,451,PS,exp,49,→,right,→,0.8063879000255838,True,11,1,0,4
Y2-S2-027K22,5,452,PS,exp,29,↓,down,↓,0.8880486000562087,True,11,1,0,4
Y2-S2-027K22,5,453,PS,exp,42,←,left,←,0.4309586000163108,True,10,1,0,4
Y2-S2-027K22,5,454,PS,exp,36,↑,up,↑,0.5321610000682995,True,10,1,0,4
Y2-S2-027K22,5,455,PS,exp,44,→,right,→,0.47995509998872876,True,10,1,0,4
Y2-S2-027K22,5,456,PS,exp,43,←,right,→,0.5645959000103176,False,9,-1,1,5
Y2-S2-027K22,5,457,PS,exp,40,↓,down,↓,0.5727095999754965,True,10,-1,0,5
Y2-S2-027K22,5,458,PS,exp,36,→,right,→,0.410582699929364,True,10,-1,0,5
Y2-S2-027K22,5,459,PS,exp,36,←,left,←,0.4444532999768853,True,10,1,1,6
Y2-S2-027K22,5,460,PS,exp,32,→,left,←,0.6159899000776932,False,9,-1,1,7
Y2-S2-027K22,5,461,PS,exp,33,↑,up,↑,0.4614066999638453,True,10,-1,0,7
Y2-S2-027K22,5,462,PS,exp,47,→,right,→,0.45191090006846935,True,10,-1,0,7
Y2-S2-027K22,5,463,PS,exp,30,↓,left,←,0.3651006000582129,False,10,-1,0,7
Y2-S2-027K22,5,464,PS,exp,45,←,left,←,0.4214574000798166,True,11,-1,0,7
Y2-S2-027K22,5,465,PS,exp,44,↑,up,↑,0.4798533000284806,True,11,-1,0,7
Y2-S2-027K22,5,466,PS,exp,48,→,right,→,0.4162548000458628,True,11,1,1,8
Y2-S2-027K22,5,467,PS,exp,32,↓,down,↓,0.5074199000373483,True,10,1,0,8
Y2-S2-027K22,5,468,PS,exp,35,→,right,→,0.3905490000033751,True,10,1,0,8
Y2-S2-027K22,5,469,PS,exp,39,↑,up,↑,0.4443851000396535,True,10,1,0,8
Y2-S2-027K22,5,470,PS,exp,44,←,right,→,0.33230769995134324,False,9,-1,1,9
Y2-S2-027K22,5,471,PS,exp,30,↑,up,↑,0.42803800001274794,True,10,-1,0,9
Y2-S2-027K22,5,472,PS,exp,47,→,right,→,0.34468460001517087,True,10,-1,0,9
Y2-S2-027K22,5,473,PS,exp,25,←,left,←,0.5323396000312641,True,10,1,1,10
Y2-S2-027K22,5,474,PS,exp,36,→,right,→,0.5396307000191882,True,9,1,0,10
Y2-S2-027K22,5,475,PS,exp,33,←,right,→,0.6488826000131667,False,9,-1,1,11
Y2-S2-027K22,5,476,PS,exp,44,↓,right,→,0.6173248999984935,False,10,-1,0,11
Y2-S2-027K22,5,477,PS,exp,47,→,right,→,0.3686528999824077,True,11,-1,0,11
Y2-S2-027K22,5,478,PS,exp,40,←,left,←,0.47544619999825954,True,11,-1,0,11
Y2-S2-027K22,5,479,PS,exp,40,↓,down,↓,0.5571288999635726,True,11,1,1,12
Y2-S2-027K22,5,480,PS,exp,44,→,right,→,0.45755809999536723,True,10,1,0,12
Y2-S2-027K22,5,481,PS,exp,25,←,right,→,0.5099546000128612,False,10,-1,1,13
Y2-S2-027K22,5,482,PS,exp,45,→,right,→,0.424196399981156,True,11,-1,0,13
Y2-S2-027K22,5,483,PS,exp,29,↑,up,↑,0.5224455000134185,True,11,-1,0,13
Y2-S2-027K22,5,484,PS,exp,39,←,left,←,0.5105009000981227,True,11,1,1,14
Y2-S2-027K22,5,485,PS,exp,50,→,right,→,0.6552776000462472,True,10,1,0,14
Y2-S2-027K22,5,486,PS,exp,50,↑,up,↑,0.5158755999291316,True,10,1,0,14
Y2-S2-027K22,5,487,PS,exp,50,→,right,→,0.432684600003995,True,10,1,0,14
Y2-S2-027K22,5,488,PS,exp,41,←,left,←,0.49195970001164824,True,9,1,0,14
Y2-S2-027K22,5,489,PS,exp,40,↑,left,←,0.8204210000112653,False,9,-1,1,15
Y2-S2-027K22,5,490,PS,exp,40,←,left,←,0.4158389000222087,True,10,-1,0,15
Y2-S2-027K22,5,491,PS,exp,38,↓,down,↓,0.5661189999664202,True,10,-1,0,15
Y2-S2-027K22,5,492,PS,exp,38,→,right,→,0.4544159999350086,True,10,1,1,16
Y2-S2-027K22,6,493,AS,intra_train,42,↑,up,↑,0.5907341000856832,True,22,-,-,-
Y2-S2-027K22,6,494,AS,intra_train,45,→,left,←,0.8861339000286534,False,22,-,-,-
Y2-S2-027K22,6,495,AS,intra_train,37,↓,down,↓,0.545429400051944,True,22,-,-,-
Y2-S2-027K22,6,496,AS,intra_train,27,←,left,←,0.41714730008970946,True,22,-,-,-
Y2-S2-027K22,6,497,AS,intra_train,27,↑,up,↑,0.46706169995013624,True,22,-,-,-
Y2-S2-027K22,6,498,AS,exp,41,←,left,←,0.42991589999292046,True,15,0,0,0
Y2-S2-027K22,6,499,AS,exp,46,↑,up,↑,0.4386520000407472,True,15,0,0,0
Y2-S2-027K22,6,500,AS,exp,48,←,left,←,0.33373980002943426,True,15,1,0,0
Y2-S2-027K22,6,501,AS,exp,35,→,left,←,0.4116254000691697,False,14,-1,1,1
Y2-S2-027K22,6,502,AS,exp,34,↓,down,↓,0.6068463999545202,True,15,-1,0,1
Y2-S2-027K22,6,503,AS,exp,46,←,right,→,0.7021064000437036,False,15,-1,0,1
Y2-S2-027K22,6,504,AS,exp,42,↑,up,↑,0.5506993000162765,True,16,-1,0,1
Y2-S2-027K22,6,505,AS,exp,49,↓,up,↑,0.7920005000196397,False,16,-1,0,1
Y2-S2-027K22,6,506,AS,exp,27,→,right,→,0.5618214999558404,True,17,-1,0,1
Y2-S2-027K22,6,507,AS,exp,46,↓,down,↓,0.5495544000295922,True,17,-1,0,1
Y2-S2-027K22,6,508,AS,exp,38,←,left,←,0.5273900999454781,True,17,1,1,2
Y2-S2-027K22,6,509,AS,exp,48,→,right,→,0.4772862000390887,True,16,1,0,2
Y2-S2-027K22,6,510,AS,exp,41,←,left,←,0.4524408000288531,True,16,1,0,2
Y2-S2-027K22,6,511,AS,exp,35,↓,down,↓,0.5232369999866933,True,16,1,0,2
Y2-S2-027K22,6,512,AS,exp,32,→,right,→,0.49137129995506257,True,15,1,0,2
Y2-S2-027K22,6,513,AS,exp,36,↑,left,←,0.3509715999243781,False,15,-1,1,3
Y2-S2-027K22,6,514,AS,exp,29,→,left,←,0.4536855999613181,False,16,-1,0,3
Y2-S2-027K22,6,515,AS,exp,36,←,left,←,0.46705780003685504,True,17,-1,0,3
Y2-S2-027K22,6,516,AS,exp,47,↑,up,↑,0.48683000006712973,True,17,-1,0,3
Y2-S2-027K22,6,517,AS,exp,34,↓,down,↓,0.6454826999688521,True,17,1,1,4
Y2-S2-027K22,6,518,AS,exp,49,↑,up,↑,0.5662909999955446,True,16,1,0,4
Y2-S2-027K22,6,519,AS,exp,46,↓,up,↑,0.5171817999798805,False,16,-1,1,5
Y2-S2-027K22,6,520,AS,exp,30,→,right,→,0.9015676000854,True,17,-1,0,5
Y2-S2-027K22,6,521,AS,exp,25,↓,down,↓,0.5281360000371933,True,17,-1,0,5
Y2-S2-027K22,6,522,AS,exp,47,←,left,←,0.45878570002969354,True,17,1,1,6
Y2-S2-027K22,6,523,AS,exp,47,↓,down,↓,0.5266243000514805,True,16,1,0,6
Y2-S2-027K22,6,524,AS,exp,36,→,right,→,0.8742901999503374,True,16,1,0,6
Y2-S2-027K22,6,525,AS,exp,44,←,left,←,0.5839590999530628,True,16,1,0,6
Y2-S2-027K22,6,526,AS,exp,34,↓,down,↓,0.6085865000495687,True,15,1,0,6
Y2-S2-027K22,6,527,AS,exp,44,↑,up,↑,0.5669175999937579,True,15,1,0,6
Y2-S2-027K22,6,528,AS,exp,32,→,left,←,0.8265611999668181,False,15,-1,1,7
Y2-S2-027K22,6,529,AS,exp,48,↓,down,↓,0.5930781000060961,True,16,-1,0,7
Y2-S2-027K22,6,530,AS,exp,38,←,left,←,0.4567992000374943,True,16,-1,0,7
Y2-S2-027K22,6,531,AS,exp,40,↑,up,↑,0.5222683999454603,True,16,1,1,8
Y2-S2-027K22,6,532,AS,exp,36,→,right,→,0.45241140003781766,True,15,1,0,8
Y2-S2-027K22,6,533,AS,exp,32,←,left,←,0.4912028999533504,True,15,1,0,8
Y2-S2-027K22,6,534,AS,exp,45,↑,up,↑,0.5942669999785721,True,15,1,0,8
Y2-S2-027K22,6,535,AS,exp,27,←,left,←,0.5612059000413865,True,14,1,0,8
Y2-S2-027K22,6,536,AS,exp,29,↑,up,↑,0.4426069000037387,True,14,1,0,8
Y2-S2-027K22,6,537,AS,exp,26,→,right,→,0.5412046998972073,True,14,1,0,8
Y2-S2-027K22,6,538,AS,exp,43,←,left,←,0.4819714999757707,True,13,1,0,8
Y2-S2-027K22,6,539,AS,exp,26,↑,right,→,0.7562107000267133,False,13,-1,1,9
Y2-S2-027K22,6,540,AS,exp,46,↓,right,→,0.6439196000574157,False,14,-1,0,9
Y2-S2-027K22,6,541,AS,exp,40,←,left,←,0.48597669997252524,True,15,-1,0,9
Y2-S2-027K22,6,542,AS,exp,27,↑,up,↑,0.4460337999043986,True,15,-1,0,9
Y2-S2-027K22,6,543,AS,exp,41,→,right,→,0.43394689995329827,True,15,1,1,10
Y2-S2-027K22,6,544,AS,exp,45,↑,up,↑,0.5036207999801263,True,14,1,0,10
Y2-S2-027K22,6,545,AS,exp,43,→,left,←,0.5197581999236718,False,14,-1,1,11
Y2-S2-027K22,6,546,AS,exp,31,↑,up,↑,0.48971699993126094,True,15,-1,0,11
Y2-S2-027K22,6,547,AS,exp,26,←,left,←,0.5397633999818936,True,15,-1,0,11
Y2-S2-027K22,6,548,AS,exp,49,→,left,←,0.4192537000635639,False,15,-1,0,11
Y2-S2-027K22,6,549,AS,exp,50,↑,up,↑,0.8798320000059903,True,16,-1,0,11
Y2-S2-027K22,6,550,AS,exp,39,←,left,←,0.5851480000419542,True,16,-1,0,11
Y2-S2-027K22,6,551,AS,exp,36,→,right,→,0.5517089000204578,True,16,1,1,12
Y2-S2-027K22,6,552,AS,exp,31,↑,up,↑,0.523313199984841,True,15,1,0,12
Y2-S2-027K22,6,553,AS,exp,37,→,left,←,0.4312911999877542,False,15,-1,1,13
Y2-S2-027K22,6,554,AS,exp,48,←,left,←,0.4855360999936238,True,16,-1,0,13
Y2-S2-027K22,6,555,AS,exp,25,↑,up,↑,0.488912699976936,True,16,-1,0,13
Y2-S2-027K22,6,556,AS,exp,41,→,right,→,0.49791509995702654,True,16,1,1,14
Y2-S2-027K22,6,557,AS,exp,30,↑,up,↑,0.5590305000077933,True,15,1,0,14
Y2-S2-027K22,6,558,AS,exp,34,→,right,→,0.4211282000178471,True,15,1,0,14
Y2-S2-027K22,6,559,AS,exp,39,↓,down,↓,0.5252998999785632,True,15,1,0,14
Y2-S2-027K22,6,560,AS,exp,31,↑,down,↓,0.9003080999245867,False,14,-1,1,15
Y2-S2-027K22,6,561,AS,exp,42,→,right,→,0.8333589999238029,True,15,-1,0,15
Y2-S2-027K22,6,562,AS,exp,45,↓,down,↓,0.5279220000375062,True,15,-1,0,15
Y2-S2-027K22,6,563,AS,exp,42,↑,up,↑,0.4252571000251919,True,15,1,1,16
Y2-S2-027K22,7,564,AS,intra_train,34,→,right,→,0.97103470005095,True,22,-,-,-
Y2-S2-027K22,7,565,AS,intra_train,48,↓,down,↓,0.6668772000120953,True,22,-,-,-
Y2-S2-027K22,7,566,AS,intra_train,50,↑,up,↑,0.45068179990630597,True,22,-,-,-
Y2-S2-027K22,7,567,AS,intra_train,48,←,left,←,0.4338881999719888,True,22,-,-,-
Y2-S2-027K22,7,568,AS,intra_train,40,↓,down,↓,1.0704462000867352,True,22,-,-,-
Y2-S2-027K22,7,569,AS,exp,40,↑,up,↑,0.48152539995498955,True,15,0,0,0
Y2-S2-027K22,7,570,AS,exp,45,↓,down,↓,0.5925256999908015,True,15,0,0,0
Y2-S2-027K22,7,571,AS,exp,47,←,left,←,0.43018689996097237,True,15,1,0,0
Y2-S2-027K22,7,572,AS,exp,27,→,left,←,0.4447012000018731,False,14,-1,1,1
Y2-S2-027K22,7,573,AS,exp,35,←,left,←,0.49569409992545843,True,15,-1,0,1
Y2-S2-027K22,7,574,AS,exp,30,→,right,→,0.506573099992238,True,15,-1,0,1
Y2-S2-027K22,7,575,AS,exp,39,←,left,←,0.4175891000777483,True,15,1,1,2
Y2-S2-027K22,7,576,AS,exp,35,↓,down,↓,0.5232858000090346,True,14,1,0,2
Y2-S2-027K22,7,577,AS,exp,26,↑,up,↑,0.48288450005929917,True,14,1,0,2
Y2-S2-027K22,7,578,AS,exp,35,→,right,→,0.47837989998515695,True,14,1,0,2
Y2-S2-027K22,7,579,AS,exp,48,←,left,←,0.4245016999775544,True,13,1,0,2
Y2-S2-027K22,7,580,AS,exp,41,↓,down,↓,0.46404449990950525,True,13,1,0,2
Y2-S2-027K22,7,581,AS,exp,31,→,right,→,0.7855900999857113,True,13,1,0,2
Y2-S2-027K22,7,582,AS,exp,25,←,left,←,0.5320125999860466,True,12,1,0,2
Y2-S2-027K22,7,583,AS,exp,42,↑,up,↑,0.880695499945432,True,12,1,0,2
Y2-S2-027K22,7,584,AS,exp,26,→,right,→,0.6378794000484049,True,12,1,0,2
Y2-S2-027K22,7,585,AS,exp,50,↓,down,↓,0.572024799999781,True,11,1,0,2
Y2-S2-027K22,7,586,AS,exp,42,←,left,←,0.45499660004861653,True,11,1,0,2
Y2-S2-027K22,7,587,AS,exp,45,↓,right,→,0.6218430999433622,False,11,-1,1,3
Y2-S2-027K22,7,588,AS,exp,49,←,left,←,0.4241911000572145,True,12,-1,0,3
Y2-S2-027K22,7,589,AS,exp,36,↑,down,↓,0.6476684000808746,False,12,-1,0,3
Y2-S2-027K22,7,590,AS,exp,39,↓,down,↓,0.47962659993208945,True,13,-1,0,3
Y2-S2-027K22,7,591,AS,exp,25,→,left,←,0.4560877999756485,False,13,-1,0,3
Y2-S2-027K22,7,592,AS,exp,49,↑,up,↑,0.574143199948594,True,14,-1,0,3
Y2-S2-027K22,7,593,AS,exp,30,←,left,←,0.4414834000635892,True,14,-1,0,3
Y2-S2-027K22,7,594,AS,exp,31,→,right,→,0.5069845999823883,True,14,1,1,4
Y2-S2-027K22,7,595,AS,exp,48,←,left,←,0.5693523000227287,True,13,1,0,4
Y2-S2-027K22,7,596,AS,exp,28,↑,up,↑,0.44401550001930445,True,13,1,0,4
Y2-S2-027K22,7,597,AS,exp,25,↓,down,↓,0.6880631999811158,True,13,1,0,4
Y2-S2-027K22,7,598,AS,exp,35,↑,up,↑,0.40912600001320243,True,12,1,0,4
Y2-S2-027K22,7,599,AS,exp,27,↓,right,→,0.6250926000066102,False,12,-1,1,5
Y2-S2-027K22,7,600,AS,exp,40,→,right,→,0.4690949999494478,True,13,-1,0,5
Y2-S2-027K22,7,601,AS,exp,31,←,left,←,0.45874489995185286,True,13,-1,0,5
Y2-S2-027K22,7,602,AS,exp,31,→,right,→,0.4349874999606982,True,13,1,1,6
Y2-S2-027K22,7,603,AS,exp,30,↑,down,↓,0.6353509000036865,False,12,-1,1,7
Y2-S2-027K22,7,604,AS,exp,33,←,right,→,0.46237189997918904,False,13,-1,0,7
Y2-S2-027K22,7,605,AS,exp,39,↑,up,↑,0.5611683999886736,True,14,-1,0,7
Y2-S2-027K22,7,606,AS,exp,39,↓,down,↓,0.564982800045982,True,14,-1,0,7
Y2-S2-027K22,7,607,AS,exp,36,→,right,→,0.3167074000230059,True,14,1,1,8
Y2-S2-027K22,7,608,AS,exp,34,←,left,←,0.4369631999870762,True,13,1,0,8
Y2-S2-027K22,7,609,AS,exp,37,↓,down,↓,0.5444560000905767,True,13,1,0,8
Y2-S2-027K22,7,610,AS,exp,42,←,left,←,0.859139500069432,True,13,1,0,8
Y2-S2-027K22,7,611,AS,exp,29,↓,down,↓,0.5739929999690503,True,12,1,0,8
Y2-S2-027K22,7,612,AS,exp,46,←,right,→,0.4478647999931127,False,12,-1,1,9
Y2-S2-027K22,7,613,AS,exp,31,→,right,→,0.7478430999908596,True,13,-1,0,9
Y2-S2-027K22,7,614,AS,exp,49,↑,up,↑,0.6562279000645503,True,13,-1,0,9
Y2-S2-027K22,7,615,AS,exp,29,→,left,←,0.49128059996291995,False,13,-1,0,9
Y2-S2-027K22,7,616,AS,exp,35,↓,down,↓,0.4632243999512866,True,14,-1,0,9
Y2-S2-027K22,7,617,AS,exp,37,→,right,→,0.36721609998494387,True,14,-1,0,9
Y2-S2-027K22,7,618,AS,exp,46,↓,down,↓,0.5700139000546187,True,14,1,1,10
Y2-S2-027K22,7,619,AS,exp,41,→,right,→,0.7587378000607714,True,13,1,0,10
Y2-S2-027K22,7,620,AS,exp,45,←,left,←,0.4292012000223622,True,13,1,0,10
Y2-S2-027K22,7,621,AS,exp,41,↑,up,↑,0.8994927000021562,True,13,1,0,10
Y2-S2-027K22,7,622,AS,exp,41,↓,down,↓,0.5638443999923766,True,12,1,0,10
Y2-S2-027K22,7,623,AS,exp,32,←,right,→,0.3972934000194073,False,12,-1,1,11
Y2-S2-027K22,7,624,AS,exp,35,↑,up,↑,0.5686888000927866,True,13,-1,0,11
Y2-S2-027K22,7,625,AS,exp,42,↓,down,↓,0.4641463999869302,True,13,-1,0,11
Y2-S2-027K22,7,626,AS,exp,29,→,right,→,0.3868648000061512,True,13,1,1,12
Y2-S2-027K22,7,627,AS,exp,29,←,left,←,0.43156620010267943,True,12,1,0,12
Y2-S2-027K22,7,628,AS,exp,50,↓,right,→,0.6520162000088021,False,12,-1,1,13
Y2-S2-027K22,7,629,AS,exp,28,←,left,←,0.5748795999679714,True,13,-1,0,13
Y2-S2-027K22,7,630,AS,exp,49,↓,down,↓,0.6563529999693856,True,13,-1,0,13
Y2-S2-027K22,7,631,AS,exp,47,↑,up,↑,0.5674199999775738,True,13,1,1,14
Y2-S2-027K22,7,632,AS,exp,39,→,left,←,0.5163603000110015,False,12,-1,1,15
Y2-S2-027K22,7,633,AS,exp,41,↑,up,↑,0.5128607000224292,True,13,-1,0,15
Y2-S2-027K22,7,634,AS,exp,42,←,left,←,1.3956795999547467,True,13,-1,0,15
Y2-S2-027K22,7,635,AS,exp,27,→,right,→,0.5377058999147266,True,13,1,1,16
Y2-S2-027K22,8,636,PS,intra_train,35,←,right,→,0.43058119993656874,False,15,-,-,-
Y2-S2-027K22,8,637,PS,intra_train,34,→,right,→,0.38359480001963675,True,15,-,-,-
Y2-S2-027K22,8,638,PS,intra_train,26,↓,down,↓,0.4816955999704078,True,15,-,-,-
Y2-S2-027K22,8,639,PS,intra_train,34,←,right,→,0.3841658999444917,False,15,-,-,-
Y2-S2-027K22,8,640,PS,intra_train,49,↓,down,↓,0.47770210006274283,True,15,-,-,-
Y2-S2-027K22,8,641,PS,exp,26,→,right,→,0.46222700004000217,True,10,0,0,0
Y2-S2-027K22,8,642,PS,exp,37,↑,up,↑,0.436142300022766,True,10,0,0,0
Y2-S2-027K22,8,643,PS,exp,31,→,right,→,0.4501847999636084,True,10,1,0,0
Y2-S2-027K22,8,644,PS,exp,44,↓,down,↓,0.48196400003507733,True,9,1,0,0
Y2-S2-027K22,8,645,PS,exp,43,↑,right,→,0.6651137999724597,False,9,-1,1,1
Y2-S2-027K22,8,646,PS,exp,35,←,left,←,0.4331286000087857,True,10,-1,0,1
Y2-S2-027K22,8,647,PS,exp,31,↑,up,↑,0.46699200000148267,True,10,-1,0,1
Y2-S2-027K22,8,648,PS,exp,36,←,left,←,0.4213300000410527,True,10,1,1,2
Y2-S2-027K22,8,649,PS,exp,44,↓,down,↓,0.5403939000098035,True,9,1,0,2
Y2-S2-027K22,8,650,PS,exp,47,←,left,←,0.7686238000169396,True,9,1,0,2
Y2-S2-027K22,8,651,PS,exp,46,→,left,←,0.43186979996971786,False,9,-1,1,3
Y2-S2-027K22,8,652,PS,exp,43,↓,down,↓,0.5225240999134257,True,10,-1,0,3
Y2-S2-027K22,8,653,PS,exp,50,↑,up,↑,0.3959779000142589,True,10,-1,0,3
Y2-S2-027K22,8,654,PS,exp,29,↓,left,←,0.5393580000381917,False,10,-1,0,3
Y2-S2-027K22,8,655,PS,exp,35,→,right,→,0.40158740000333637,True,11,-1,0,3
Y2-S2-027K22,8,656,PS,exp,35,↓,down,↓,0.4374471000628546,True,11,-1,0,3
Y2-S2-027K22,8,657,PS,exp,45,↑,up,↑,0.42263189994264394,True,11,1,1,4
Y2-S2-027K22,8,658,PS,exp,42,↓,down,↓,0.469072200008668,True,10,1,0,4
Y2-S2-027K22,8,659,PS,exp,40,→,right,→,0.4438816999318078,True,10,1,0,4
Y2-S2-027K22,8,660,PS,exp,38,↓,right,→,0.6660888999467716,False,10,-1,1,5
Y2-S2-027K22,8,661,PS,exp,31,↑,up,↑,0.4053823999129236,True,11,-1,0,5
Y2-S2-027K22,8,662,PS,exp,45,←,left,←,0.5535639000590891,True,11,-1,0,5
Y2-S2-027K22,8,663,PS,exp,38,↓,down,↓,0.5130125998985022,True,11,1,1,6
Y2-S2-027K22,8,664,PS,exp,43,↑,up,↑,0.40019329998176545,True,10,1,0,6
Y2-S2-027K22,8,665,PS,exp,42,↓,down,↓,0.44069299998227507,True,10,1,0,6
Y2-S2-027K22,8,666,PS,exp,27,↑,up,↑,0.39416599995456636,True,10,1,0,6
Y2-S2-027K22,8,667,PS,exp,50,↓,left,←,0.34085950010921806,False,9,-1,1,7
Y2-S2-027K22,8,668,PS,exp,50,↑,up,↑,0.40030079998541623,True,10,-1,0,7
Y2-S2-027K22,8,669,PS,exp,32,←,left,←,0.39590680005494505,True,10,-1,0,7
Y2-S2-027K22,8,670,PS,exp,48,→,right,→,0.49492109997663647,True,10,1,1,8
Y2-S2-027K22,8,671,PS,exp,49,↓,left,←,0.3226119000464678,False,9,-1,1,9
Y2-S2-027K22,8,672,PS,exp,50,→,right,→,0.3865021000383422,True,10,-1,0,9
Y2-S2-027K22,8,673,PS,exp,47,↓,left,←,0.4609612999483943,False,10,-1,0,9
Y2-S2-027K22,8,674,PS,exp,38,→,right,→,0.3670029001077637,True,11,-1,0,9
Y2-S2-027K22,8,675,PS,exp,42,←,left,←,0.46391759999096394,True,11,-1,0,9
Y2-S2-027K22,8,676,PS,exp,39,↓,down,↓,0.5568530999589711,True,11,1,1,10
Y2-S2-027K22,8,677,PS,exp,43,←,left,←,0.41277120006270707,True,10,1,0,10
Y2-S2-027K22,8,678,PS,exp,41,↑,up,↑,0.40634869993664324,True,10,1,0,10
Y2-S2-027K22,8,679,PS,exp,41,→,right,→,0.36024330009240657,True,10,1,0,10
Y2-S2-027K22,8,680,PS,exp,30,↑,up,↑,0.43028849991969764,True,9,1,0,10
Y2-S2-027K22,8,681,PS,exp,28,←,left,←,0.629661799990572,True,9,1,0,10
Y2-S2-027K22,8,682,PS,exp,27,→,right,→,0.540081899962388,True,9,1,0,10
Y2-S2-027K22,8,683,PS,exp,50,↓,up,↑,0.5585617000469938,False,8,-1,1,11
Y2-S2-027K22,8,684,PS,exp,34,←,left,←,0.44292840000707656,True,9,-1,0,11
Y2-S2-027K22,8,685,PS,exp,26,↑,left,←,0.438687700079754,False,9,-1,0,11
Y2-S2-027K22,8,686,PS,exp,35,→,right,→,0.3729775999672711,True,10,-1,0,11
Y2-S2-027K22,8,687,PS,exp,27,↓,down,↓,0.9595894999802113,True,10,-1,0,11
Y2-S2-027K22,8,688,PS,exp,47,↑,up,↑,0.5082180000608787,True,10,1,1,12
Y2-S2-027K22,8,689,PS,exp,27,↓,down,↓,0.5704944999888539,True,9,1,0,12
Y2-S2-027K22,8,690,PS,exp,44,↑,up,↑,0.4571814000373706,True,9,1,0,12
Y2-S2-027K22,8,691,PS,exp,31,←,right,→,0.6117413999745622,False,9,-1,1,13
Y2-S2-027K22,8,692,PS,exp,48,↓,down,↓,0.510898599983193,True,10,-1,0,13
Y2-S2-027K22,8,693,PS,exp,30,↑,up,↑,0.4092473000055179,True,10,-1,0,13
Y2-S2-027K22,8,694,PS,exp,43,←,left,←,0.3994737999746576,True,10,1,1,14
Y2-S2-027K22,8,695,PS,exp,36,↓,down,↓,0.535227800020948,True,9,1,0,14
Y2-S2-027K22,8,696,PS,exp,39,→,right,→,0.4338937000138685,True,9,1,0,14
Y2-S2-027K22,8,697,PS,exp,28,←,left,←,0.5150934999110177,True,9,1,0,14
Y2-S2-027K22,8,698,PS,exp,26,↓,right,→,0.5967376000480726,False,8,-1,1,15
Y2-S2-027K22,8,699,PS,exp,26,↑,down,↓,0.8353784999344498,False,9,-1,0,15
Y2-S2-027K22,8,700,PS,exp,39,→,left,←,0.921480399905704,False,10,-1,0,15
Y2-S2-027K22,8,701,PS,exp,45,↑,left,←,0.5910623000236228,False,11,-1,0,15
Y2-S2-027K22,8,702,PS,exp,33,→,right,→,0.4071655999869108,True,12,-1,0,15
Y2-S2-027K22,8,703,PS,exp,45,←,left,←,0.4529116000048816,True,12,-1,0,15
Y2-S2-027K22,8,704,PS,exp,27,↓,down,↓,0.5670004000421613,True,12,1,1,16
