PART_ID,Block_no,Trial_no,Block_type,Trial_type,CSI,Stim_letter,Key_pressed,letter_choose,Rt,Corr,Stimulus Time,Level,Reversal,Revs_count
Y2-S2-064K19,1,1,PS,train,37,↑,up,↑,0.5841999999247491,True,30,-,-,-
Y2-S2-064K19,1,2,PS,train,40,↓,down,↓,0.700418199878186,True,30,-,-,-
Y2-S2-064K19,1,3,PS,train,36,→,right,→,0.517163600306958,True,30,-,-,-
Y2-S2-064K19,1,4,PS,train,25,↓,down,↓,0.6344634001143277,True,30,-,-,-
Y2-S2-064K19,1,5,PS,train,38,←,left,←,0.6869966997765005,True,30,-,-,-
Y2-S2-064K19,1,6,PS,train,27,→,right,→,0.4512225999496877,True,30,-,-,-
Y2-S2-064K19,1,7,PS,train,46,←,left,←,0.5342502002604306,True,30,-,-,-
Y2-S2-064K19,1,8,PS,train,34,→,right,→,0.5839938996359706,True,30,-,-,-
Y2-S2-064K19,1,9,PS,train,43,↓,down,↓,0.5674282996915281,True,30,-,-,-
Y2-S2-064K19,1,10,PS,train,28,↑,up,↑,0.6722069000825286,True,30,-,-,-
Y2-S2-064K19,2,11,AS,train,36,↓,down,↓,0.8171806000173092,True,45,-,-,-
Y2-S2-064K19,2,12,AS,train,38,←,left,←,0.6174944997765124,True,45,-,-,-
Y2-S2-064K19,2,13,AS,train,32,↑,up,↑,0.718072900082916,True,45,-,-,-
Y2-S2-064K19,2,14,AS,train,29,→,right,→,0.6845526001416147,True,45,-,-,-
Y2-S2-064K19,2,15,AS,train,45,←,left,←,0.6342523000203073,True,45,-,-,-
Y2-S2-064K19,2,16,AS,train,28,↑,up,↑,0.5514365001581609,True,45,-,-,-
Y2-S2-064K19,2,17,AS,train,36,←,left,←,0.6006439002230763,True,45,-,-,-
Y2-S2-064K19,2,18,AS,train,39,↑,up,↑,0.6011612000875175,True,45,-,-,-
Y2-S2-064K19,2,19,AS,train,50,←,left,←,0.634531700052321,True,45,-,-,-
Y2-S2-064K19,2,20,AS,train,25,↑,left,←,0.884199199732393,False,45,-,-,-
Y2-S2-064K19,-,21,PS,adaptive,46,←,no_key,no_letter,-1.0,False,10,-1,0,0
Y2-S2-064K19,-,22,PS,adaptive,29,↑,up,↑,0.38971999986097217,True,11,-1,0,0
Y2-S2-064K19,-,23,PS,adaptive,48,→,right,→,0.5139897996559739,True,11,-1,0,0
Y2-S2-064K19,-,24,PS,adaptive,28,↓,up,↑,0.8750531999394298,False,11,-1,0,0
Y2-S2-064K19,-,25,PS,adaptive,39,→,right,→,0.6135122003033757,True,12,-1,0,0
Y2-S2-064K19,-,26,PS,adaptive,32,←,left,←,0.5222014002501965,True,12,-1,0,0
Y2-S2-064K19,-,27,PS,adaptive,31,↓,down,↓,0.9864118997938931,True,12,1,1,1
Y2-S2-064K19,-,28,PS,adaptive,48,←,left,←,0.46734829992055893,True,11,1,0,1
Y2-S2-064K19,-,29,PS,adaptive,33,↑,left,←,0.9162801001220942,False,11,-1,1,2
Y2-S2-064K19,-,30,PS,adaptive,33,→,right,→,0.5396369998343289,True,12,-1,0,2
Y2-S2-064K19,-,31,PS,adaptive,26,←,left,←,0.7429177002049983,True,12,-1,0,2
Y2-S2-064K19,-,32,PS,adaptive,41,↓,down,↓,0.7747637997381389,True,12,1,1,3
Y2-S2-064K19,-,33,PS,adaptive,46,↑,up,↑,0.7097489000298083,True,11,1,0,3
Y2-S2-064K19,-,34,PS,adaptive,32,↓,up,↑,0.7269171997904778,False,11,-1,1,4
Y2-S2-064K19,-,35,AS,adaptive,27,←,up,↑,0.7333084000274539,False,20,-1,0,0
Y2-S2-064K19,-,36,AS,adaptive,33,↓,down,↓,0.8038842999376357,True,21,-1,0,0
Y2-S2-064K19,-,37,AS,adaptive,50,←,down,↓,0.8686060002073646,False,21,-1,0,0
Y2-S2-064K19,-,38,AS,adaptive,36,→,right,→,0.7159527000039816,True,22,-1,0,0
Y2-S2-064K19,-,39,AS,adaptive,40,←,left,←,0.5839164000935853,True,22,-1,0,0
Y2-S2-064K19,-,40,AS,adaptive,43,↑,up,↑,1.2785919001325965,True,22,1,1,1
Y2-S2-064K19,-,41,AS,adaptive,44,↓,down,↓,0.7412164001725614,True,21,1,0,1
Y2-S2-064K19,-,42,AS,adaptive,45,←,left,←,0.6489612003788352,True,21,1,0,1
Y2-S2-064K19,-,43,AS,adaptive,31,→,right,→,0.8025353997945786,True,21,1,0,1
Y2-S2-064K19,-,44,AS,adaptive,32,↑,up,↑,0.7291434998624027,True,20,1,0,1
Y2-S2-064K19,-,45,AS,adaptive,25,←,left,←,0.6975622000172734,True,20,1,0,1
Y2-S2-064K19,-,46,AS,adaptive,41,↓,down,↓,0.9440628001466393,True,20,1,0,1
Y2-S2-064K19,-,47,AS,adaptive,40,→,right,→,0.760230400133878,True,19,1,0,1
Y2-S2-064K19,-,48,AS,adaptive,45,↑,up,↑,0.5192199996672571,True,19,1,0,1
Y2-S2-064K19,-,49,AS,adaptive,46,→,right,→,0.583162599708885,True,19,1,0,1
Y2-S2-064K19,-,50,AS,adaptive,48,←,up,↑,0.7700223000720143,False,18,-1,1,2
Y2-S2-064K19,-,51,AS,adaptive,33,↓,up,↑,0.8783848998136818,False,19,-1,0,2
Y2-S2-064K19,-,52,AS,adaptive,30,↑,up,↑,0.6251735999248922,True,20,-1,0,2
Y2-S2-064K19,-,53,AS,adaptive,38,↓,down,↓,0.72087959991768,True,20,-1,0,2
Y2-S2-064K19,-,54,AS,adaptive,36,↑,up,↑,1.0021903002634645,True,20,1,1,3
Y2-S2-064K19,-,55,AS,adaptive,46,→,right,→,0.6560539999045432,True,19,1,0,3
Y2-S2-064K19,-,56,AS,adaptive,38,↓,up,↑,0.9769557998515666,False,19,-1,1,4
Y2-S2-064K19,1,57,PS,intra_train,34,←,no_key,no_letter,-1.0,False,18,-,-,-
Y2-S2-064K19,1,58,PS,intra_train,45,→,right,→,0.566087500192225,True,18,-,-,-
Y2-S2-064K19,1,59,PS,intra_train,38,↓,down,↓,0.6406322000548244,True,18,-,-,-
Y2-S2-064K19,1,60,PS,intra_train,33,→,right,→,0.616811600048095,True,18,-,-,-
Y2-S2-064K19,1,61,PS,intra_train,48,↓,down,↓,0.6611390002071857,True,18,-,-,-
Y2-S2-064K19,1,62,PS,exp,39,→,right,→,0.5374072003178298,True,12,0,0,0
Y2-S2-064K19,1,63,PS,exp,38,←,left,←,0.6917185997590423,True,12,0,0,0
Y2-S2-064K19,1,64,PS,exp,47,↑,up,↑,0.9056567000225186,True,12,1,0,0
Y2-S2-064K19,1,65,PS,exp,39,←,left,←,0.5658654002472758,True,11,1,0,0
Y2-S2-064K19,1,66,PS,exp,42,→,right,→,0.6821543001569808,True,11,1,0,0
Y2-S2-064K19,1,67,PS,exp,45,↓,down,↓,0.6597227999009192,True,11,1,0,0
Y2-S2-064K19,1,68,PS,exp,36,←,left,←,0.7631584000773728,True,10,1,0,0
Y2-S2-064K19,1,69,PS,exp,36,→,down,↓,0.8256859998218715,False,10,-1,1,1
Y2-S2-064K19,1,70,PS,exp,31,↓,up,↑,0.7329743998125196,False,11,-1,0,1
Y2-S2-064K19,1,71,PS,exp,38,↑,up,↑,0.6426066001877189,True,12,-1,0,1
Y2-S2-064K19,1,72,PS,exp,33,↓,right,→,0.8031891002319753,False,12,-1,0,1
Y2-S2-064K19,1,73,PS,exp,28,←,left,←,0.5762510998174548,True,13,-1,0,1
Y2-S2-064K19,1,74,PS,exp,34,↑,up,↑,0.7631359999068081,True,13,-1,0,1
Y2-S2-064K19,1,75,PS,exp,45,←,left,←,0.9718923000618815,True,13,1,1,2
Y2-S2-064K19,1,76,PS,exp,36,↑,left,←,0.8929932001046836,False,12,-1,1,3
Y2-S2-064K19,1,77,PS,exp,33,←,up,↑,1.1311051999218762,False,13,-1,0,3
Y2-S2-064K19,1,78,PS,exp,30,↑,up,↑,0.5549170998856425,True,14,-1,0,3
Y2-S2-064K19,1,79,PS,exp,38,←,left,←,0.6412272001616657,True,14,-1,0,3
Y2-S2-064K19,1,80,PS,exp,28,↓,left,←,0.8832287001423538,False,14,-1,0,3
Y2-S2-064K19,1,81,PS,exp,29,→,right,→,0.6683594998903573,True,15,-1,0,3
Y2-S2-064K19,1,82,PS,exp,48,↑,up,↑,0.5769213000312448,True,15,-1,0,3
Y2-S2-064K19,1,83,PS,exp,42,→,right,→,0.7274208003655076,True,15,1,1,4
Y2-S2-064K19,1,84,PS,exp,44,↑,up,↑,0.5538051002658904,True,14,1,0,4
Y2-S2-064K19,1,85,PS,exp,43,↓,down,↓,0.8466466004028916,True,14,1,0,4
Y2-S2-064K19,1,86,PS,exp,27,↑,up,↑,0.6236661002039909,True,14,1,0,4
Y2-S2-064K19,1,87,PS,exp,28,→,right,→,0.6318052001297474,True,13,1,0,4
Y2-S2-064K19,1,88,PS,exp,39,↑,up,↑,0.6208560997620225,True,13,1,0,4
Y2-S2-064K19,1,89,PS,exp,46,↓,up,↑,0.7693444001488388,False,13,-1,1,5
Y2-S2-064K19,1,90,PS,exp,41,←,left,←,0.7332446002401412,True,14,-1,0,5
Y2-S2-064K19,1,91,PS,exp,49,→,left,←,1.1224329001270235,False,14,-1,0,5
Y2-S2-064K19,1,92,PS,exp,32,←,left,←,0.8245920999906957,True,15,-1,0,5
Y2-S2-064K19,1,93,PS,exp,38,↓,right,→,1.4538215002976358,False,15,-1,0,5
Y2-S2-064K19,1,94,PS,exp,47,↑,up,↑,0.6952929999679327,True,16,-1,0,5
Y2-S2-064K19,1,95,PS,exp,47,←,left,←,0.6440876997075975,True,16,-1,0,5
Y2-S2-064K19,1,96,PS,exp,45,↓,left,←,1.2310163998045027,False,16,-1,0,5
Y2-S2-064K19,1,97,PS,exp,42,↑,down,↓,1.0660604001022875,False,17,-1,0,5
Y2-S2-064K19,1,98,PS,exp,34,←,left,←,0.6909851999953389,True,18,-1,0,5
Y2-S2-064K19,1,99,PS,exp,46,↓,down,↓,0.8298595999367535,True,18,-1,0,5
Y2-S2-064K19,1,100,PS,exp,31,↑,up,↑,0.7913490999490023,True,18,1,1,6
Y2-S2-064K19,1,101,PS,exp,46,↓,down,↓,0.8528762003406882,True,17,1,0,6
Y2-S2-064K19,1,102,PS,exp,42,←,left,←,0.7377923000603914,True,17,1,0,6
Y2-S2-064K19,1,103,PS,exp,49,↓,down,↓,0.8946624998934567,True,17,1,0,6
Y2-S2-064K19,1,104,PS,exp,32,↑,down,↓,1.124053900130093,False,16,-1,1,7
Y2-S2-064K19,1,105,PS,exp,41,→,right,→,0.7473407997749746,True,17,-1,0,7
Y2-S2-064K19,1,106,PS,exp,41,←,left,←,0.7082992000505328,True,17,-1,0,7
Y2-S2-064K19,1,107,PS,exp,48,↓,down,↓,1.133899699896574,True,17,1,1,8
Y2-S2-064K19,1,108,PS,exp,39,→,right,→,0.7936564004048705,True,16,1,0,8
Y2-S2-064K19,1,109,PS,exp,31,↑,down,↓,1.487587499897927,False,16,-1,1,9
Y2-S2-064K19,1,110,PS,exp,27,↓,down,↓,1.0628217002376914,True,17,-1,0,9
Y2-S2-064K19,1,111,PS,exp,50,←,left,←,0.5481229997240007,True,17,-1,0,9
Y2-S2-064K19,1,112,PS,exp,27,↓,right,→,1.4040489001199603,False,17,-1,0,9
Y2-S2-064K19,1,113,PS,exp,37,←,left,←,0.6580825001001358,True,18,-1,0,9
Y2-S2-064K19,1,114,PS,exp,46,↓,down,↓,0.9375227997079492,True,18,-1,0,9
Y2-S2-064K19,1,115,PS,exp,47,↑,down,↓,0.9596691997721791,False,18,-1,0,9
Y2-S2-064K19,1,116,PS,exp,49,→,left,←,0.8183951997198164,False,19,-1,0,9
Y2-S2-064K19,1,117,PS,exp,36,←,left,←,0.8086419999599457,True,20,-1,0,9
Y2-S2-064K19,1,118,PS,exp,30,↑,up,↑,0.7321976004168391,True,20,-1,0,9
Y2-S2-064K19,1,119,PS,exp,41,↓,down,↓,0.715501599945128,True,20,1,1,10
Y2-S2-064K19,1,120,PS,exp,32,↑,up,↑,0.6144089000299573,True,19,1,0,10
Y2-S2-064K19,1,121,PS,exp,43,→,right,→,0.5337176001630723,True,19,1,0,10
Y2-S2-064K19,1,122,PS,exp,47,←,left,←,0.6970152002759278,True,19,1,0,10
Y2-S2-064K19,1,123,PS,exp,29,↓,down,↓,0.8710377002134919,True,18,1,0,10
Y2-S2-064K19,1,124,PS,exp,32,→,right,→,0.6536376001313329,True,18,1,0,10
Y2-S2-064K19,1,125,PS,exp,44,←,left,←,0.5270503996871412,True,18,1,0,10
Y2-S2-064K19,1,126,PS,exp,39,↑,up,↑,0.5957474000751972,True,17,1,0,10
Y2-S2-064K19,1,127,PS,exp,39,←,left,←,0.5761525998823345,True,17,1,0,10
Y2-S2-064K19,1,128,PS,exp,50,→,left,←,0.9287868998944759,False,17,-1,1,11
Y2-S2-064K19,1,129,PS,exp,33,↓,down,↓,0.8511749003082514,True,18,-1,0,11
Y2-S2-064K19,1,130,PS,exp,40,←,left,←,0.5921546998433769,True,18,-1,0,11
Y2-S2-064K19,1,131,PS,exp,49,→,right,→,0.7591037000529468,True,18,1,1,12
Y2-S2-064K19,1,132,PS,exp,30,↓,down,↓,0.6840905998833477,True,17,1,0,12
Y2-S2-064K19,1,133,PS,exp,35,→,left,←,0.6096842000260949,False,17,-1,1,13
Y2-S2-064K19,1,134,PS,exp,31,↓,left,←,0.825316600035876,False,18,-1,0,13
Y2-S2-064K19,1,135,PS,exp,48,↑,up,↑,0.6252154996618629,True,19,-1,0,13
Y2-S2-064K19,1,136,PS,exp,35,↓,down,↓,0.8400228000245988,True,19,-1,0,13
Y2-S2-064K19,1,137,PS,exp,38,→,down,↓,1.2017099000513554,False,19,-1,0,13
Y2-S2-064K19,1,138,PS,exp,50,↓,down,↓,0.5523025998845696,True,20,-1,0,13
Y2-S2-064K19,1,139,PS,exp,34,←,left,←,0.738057800102979,True,20,-1,0,13
Y2-S2-064K19,1,140,PS,exp,34,↓,down,↓,0.6552218999713659,True,20,1,1,14
Y2-S2-064K19,1,141,PS,exp,48,↑,up,↑,0.6407476998865604,True,19,1,0,14
Y2-S2-064K19,1,142,PS,exp,33,→,no_key,no_letter,-1.0,False,19,-1,1,15
Y2-S2-064K19,1,143,PS,exp,28,←,left,←,0.6567454999312758,True,20,-1,0,15
Y2-S2-064K19,1,144,PS,exp,29,→,right,→,0.5366709004156291,True,20,-1,0,15
Y2-S2-064K19,1,145,PS,exp,40,↓,down,↓,0.6834364999085665,True,20,1,1,16
Y2-S2-064K19,2,146,AS,intra_train,38,→,left,←,0.7091990998014808,False,30,-,-,-
Y2-S2-064K19,2,147,AS,intra_train,31,↓,down,↓,0.6183994999155402,True,30,-,-,-
Y2-S2-064K19,2,148,AS,intra_train,38,←,left,←,0.8009015996940434,True,30,-,-,-
Y2-S2-064K19,2,149,AS,intra_train,48,↓,down,↓,0.5836355998180807,True,30,-,-,-
Y2-S2-064K19,2,150,AS,intra_train,25,←,left,←,0.7107764999382198,True,30,-,-,-
Y2-S2-064K19,2,151,AS,exp,26,↑,up,↑,0.666787900030613,True,20,0,0,0
Y2-S2-064K19,2,152,AS,exp,46,→,right,→,0.5644137002527714,True,20,0,0,0
Y2-S2-064K19,2,153,AS,exp,39,↑,up,↑,0.5879588001407683,True,20,1,0,0
Y2-S2-064K19,2,154,AS,exp,38,←,left,←,0.7044712998904288,True,19,1,0,0
Y2-S2-064K19,2,155,AS,exp,29,→,right,→,0.8491620002314448,True,19,1,0,0
Y2-S2-064K19,2,156,AS,exp,30,↓,up,↑,1.06312259985134,False,19,-1,1,1
Y2-S2-064K19,2,157,AS,exp,27,↑,up,↑,0.5166788999922574,True,20,-1,0,1
Y2-S2-064K19,2,158,AS,exp,31,←,left,←,0.7572615998797119,True,20,-1,0,1
Y2-S2-064K19,2,159,AS,exp,45,↑,up,↑,0.7980136000551283,True,20,1,1,2
Y2-S2-064K19,2,160,AS,exp,41,→,right,→,0.5927914003841579,True,19,1,0,2
Y2-S2-064K19,2,161,AS,exp,36,↓,up,↑,0.8931765002198517,False,19,-1,1,3
Y2-S2-064K19,2,162,AS,exp,27,↑,up,↑,0.9174115997739136,True,20,-1,0,3
Y2-S2-064K19,2,163,AS,exp,47,↓,up,↑,0.8781387000344694,False,20,-1,0,3
Y2-S2-064K19,2,164,AS,exp,37,→,right,→,1.290325399953872,True,21,-1,0,3
Y2-S2-064K19,2,165,AS,exp,40,↓,down,↓,0.9666134999133646,True,21,-1,0,3
Y2-S2-064K19,2,166,AS,exp,45,↑,up,↑,0.6531340000219643,True,21,1,1,4
Y2-S2-064K19,2,167,AS,exp,27,→,up,↑,1.0395189998671412,False,20,-1,1,5
Y2-S2-064K19,2,168,AS,exp,39,↓,up,↑,0.8681498002260923,False,21,-1,0,5
Y2-S2-064K19,2,169,AS,exp,33,→,right,→,0.5514353001490235,True,22,-1,0,5
Y2-S2-064K19,2,170,AS,exp,29,↑,down,↓,1.3109828000888228,False,22,-1,0,5
Y2-S2-064K19,2,171,AS,exp,50,→,right,→,0.7681821999140084,True,23,-1,0,5
Y2-S2-064K19,2,172,AS,exp,32,←,left,←,0.7187112998217344,True,23,-1,0,5
Y2-S2-064K19,2,173,AS,exp,44,↓,down,↓,0.9166676001623273,True,23,1,1,6
Y2-S2-064K19,2,174,AS,exp,39,←,left,←,0.7219275999814272,True,22,1,0,6
Y2-S2-064K19,2,175,AS,exp,25,↓,down,↓,0.8843904999084771,True,22,1,0,6
Y2-S2-064K19,2,176,AS,exp,39,→,right,→,0.8871369999833405,True,22,1,0,6
Y2-S2-064K19,2,177,AS,exp,25,↑,up,↑,0.7816558997146785,True,21,1,0,6
Y2-S2-064K19,2,178,AS,exp,27,↓,down,↓,0.9172795997001231,True,21,1,0,6
Y2-S2-064K19,2,179,AS,exp,33,←,left,←,0.9598989998921752,True,21,1,0,6
Y2-S2-064K19,2,180,AS,exp,26,↑,down,↓,0.9740478000603616,False,20,-1,1,7
Y2-S2-064K19,2,181,AS,exp,35,←,left,←,0.6732866996899247,True,21,-1,0,7
Y2-S2-064K19,2,182,AS,exp,38,↓,down,↓,0.7098781000822783,True,21,-1,0,7
Y2-S2-064K19,2,183,AS,exp,34,→,right,→,0.5543987997807562,True,21,1,1,8
Y2-S2-064K19,2,184,AS,exp,42,↑,down,↓,1.4531260002404451,False,20,-1,1,9
Y2-S2-064K19,2,185,AS,exp,48,→,left,←,1.295212000142783,False,21,-1,0,9
Y2-S2-064K19,2,186,AS,exp,45,←,left,←,0.8820156999863684,True,22,-1,0,9
Y2-S2-064K19,2,187,AS,exp,33,↓,down,↓,0.6932888999581337,True,22,-1,0,9
Y2-S2-064K19,2,188,AS,exp,38,↑,up,↑,0.8848982001654804,True,22,1,1,10
Y2-S2-064K19,2,189,AS,exp,27,→,right,→,0.54073949996382,True,21,1,0,10
Y2-S2-064K19,2,190,AS,exp,28,↑,up,↑,0.6744466000236571,True,21,1,0,10
Y2-S2-064K19,2,191,AS,exp,40,←,left,←,0.6738474001176655,True,21,1,0,10
Y2-S2-064K19,2,192,AS,exp,35,↓,down,↓,0.9247464998625219,True,20,1,0,10
Y2-S2-064K19,2,193,AS,exp,49,↑,up,↑,0.568591000046581,True,20,1,0,10
Y2-S2-064K19,2,194,AS,exp,46,←,up,↑,0.9323275997303426,False,20,-1,1,11
Y2-S2-064K19,2,195,AS,exp,26,↑,left,←,1.1075181001797318,False,21,-1,0,11
Y2-S2-064K19,2,196,AS,exp,35,←,left,←,0.8192819999530911,True,22,-1,0,11
Y2-S2-064K19,2,197,AS,exp,35,↓,down,↓,0.7014933000318706,True,22,-1,0,11
Y2-S2-064K19,2,198,AS,exp,34,↑,up,↑,0.594034000299871,True,22,1,1,12
Y2-S2-064K19,2,199,AS,exp,45,↓,up,↑,0.9149615000933409,False,21,-1,1,13
Y2-S2-064K19,2,200,AS,exp,42,←,left,←,0.7530233999714255,True,22,-1,0,13
Y2-S2-064K19,2,201,AS,exp,35,↑,right,→,1.034438299946487,False,22,-1,0,13
Y2-S2-064K19,2,202,AS,exp,28,↓,down,↓,0.8832757002674043,True,23,-1,0,13
Y2-S2-064K19,2,203,AS,exp,30,→,down,↓,1.0756883998401463,False,23,-1,0,13
Y2-S2-064K19,2,204,AS,exp,41,↓,down,↓,1.1278627999126911,True,24,-1,0,13
Y2-S2-064K19,2,205,AS,exp,29,→,right,→,0.6296590003184974,True,24,-1,0,13
Y2-S2-064K19,2,206,AS,exp,50,↑,up,↑,0.8793057999573648,True,24,1,1,14
Y2-S2-064K19,2,207,AS,exp,39,←,left,←,0.668369899969548,True,23,1,0,14
Y2-S2-064K19,2,208,AS,exp,36,↑,up,↑,0.8328723995946348,True,23,1,0,14
Y2-S2-064K19,2,209,AS,exp,31,←,up,↑,0.9711032998748124,False,23,-1,1,15
Y2-S2-064K19,2,210,AS,exp,39,→,right,→,1.7255873000249267,True,24,-1,0,15
Y2-S2-064K19,2,211,AS,exp,32,↑,up,↑,0.6735252998769283,True,24,-1,0,15
Y2-S2-064K19,2,212,AS,exp,40,↓,down,↓,1.1531134997494519,True,24,1,1,16
Y2-S2-064K19,3,213,AS,intra_train,40,→,right,→,0.517209299840033,True,30,-,-,-
Y2-S2-064K19,3,214,AS,intra_train,39,↓,down,↓,0.9401513002812862,True,30,-,-,-
Y2-S2-064K19,3,215,AS,intra_train,50,←,no_key,no_letter,-1.0,False,30,-,-,-
Y2-S2-064K19,3,216,AS,intra_train,44,→,right,→,0.6839083000086248,True,30,-,-,-
Y2-S2-064K19,3,217,AS,intra_train,30,←,left,←,1.471019099932164,True,30,-,-,-
Y2-S2-064K19,3,218,AS,exp,46,↓,down,↓,0.8778291000053287,True,20,0,0,0
Y2-S2-064K19,3,219,AS,exp,38,→,right,→,0.6119205001741648,True,20,0,0,0
Y2-S2-064K19,3,220,AS,exp,44,←,left,←,0.6177876000292599,True,20,1,0,0
Y2-S2-064K19,3,221,AS,exp,36,↑,up,↑,0.8429649998433888,True,19,1,0,0
Y2-S2-064K19,3,222,AS,exp,31,→,right,→,0.6678614998236299,True,19,1,0,0
Y2-S2-064K19,3,223,AS,exp,39,↑,up,↑,1.42914479970932,True,19,1,0,0
Y2-S2-064K19,3,224,AS,exp,27,←,right,→,1.2346852999180555,False,18,-1,1,1
Y2-S2-064K19,3,225,AS,exp,49,→,left,←,0.8000630997121334,False,19,-1,0,1
Y2-S2-064K19,3,226,AS,exp,31,←,left,←,0.774655899964273,True,20,-1,0,1
Y2-S2-064K19,3,227,AS,exp,45,↑,down,↓,1.1977261998690665,False,20,-1,0,1
Y2-S2-064K19,3,228,AS,exp,29,←,left,←,0.6385166998952627,True,21,-1,0,1
Y2-S2-064K19,3,229,AS,exp,39,↓,down,↓,0.7691060001961887,True,21,-1,0,1
Y2-S2-064K19,3,230,AS,exp,33,→,right,→,0.5732401995919645,True,21,1,1,2
Y2-S2-064K19,3,231,AS,exp,35,↓,down,↓,1.1511932997964323,True,20,1,0,2
Y2-S2-064K19,3,232,AS,exp,43,→,down,↓,0.9753787997178733,False,20,-1,1,3
Y2-S2-064K19,3,233,AS,exp,45,↓,down,↓,0.5322060999460518,True,21,-1,0,3
Y2-S2-064K19,3,234,AS,exp,50,←,left,←,0.5795765998773277,True,21,-1,0,3
Y2-S2-064K19,3,235,AS,exp,39,↑,up,↑,0.790539899840951,True,21,1,1,4
Y2-S2-064K19,3,236,AS,exp,25,←,left,←,0.5441185999661684,True,20,1,0,4
Y2-S2-064K19,3,237,AS,exp,32,→,right,→,0.7323115998879075,True,20,1,0,4
Y2-S2-064K19,3,238,AS,exp,43,↑,up,↑,0.5669013997539878,True,20,1,0,4
Y2-S2-064K19,3,239,AS,exp,41,↓,down,↓,0.7670791000127792,True,19,1,0,4
Y2-S2-064K19,3,240,AS,exp,27,→,right,→,0.6033648001030087,True,19,1,0,4
Y2-S2-064K19,3,241,AS,exp,42,↑,up,↑,0.7178893000818789,True,19,1,0,4
Y2-S2-064K19,3,242,AS,exp,29,→,right,→,0.8092375001870096,True,18,1,0,4
Y2-S2-064K19,3,243,AS,exp,40,←,right,→,1.0894328001886606,False,18,-1,1,5
Y2-S2-064K19,3,244,AS,exp,47,→,right,→,0.716830600053072,True,19,-1,0,5
Y2-S2-064K19,3,245,AS,exp,47,↓,down,↓,0.9971408001147211,True,19,-1,0,5
Y2-S2-064K19,3,246,AS,exp,25,↑,up,↑,1.0326479999348521,True,19,1,1,6
Y2-S2-064K19,3,247,AS,exp,30,→,no_key,no_letter,-1.0,False,18,-1,1,7
Y2-S2-064K19,3,248,AS,exp,47,↑,up,↑,0.6356297000311315,True,19,-1,0,7
Y2-S2-064K19,3,249,AS,exp,46,↓,down,↓,0.8714896002784371,True,19,-1,0,7
Y2-S2-064K19,3,250,AS,exp,39,←,left,←,0.7461211998015642,True,19,1,1,8
Y2-S2-064K19,3,251,AS,exp,45,→,right,→,0.5936774001456797,True,18,1,0,8
Y2-S2-064K19,3,252,AS,exp,49,←,left,←,0.5677603003568947,True,18,1,0,8
Y2-S2-064K19,3,253,AS,exp,46,↑,up,↑,0.7987842001020908,True,18,1,0,8
Y2-S2-064K19,3,254,AS,exp,36,→,right,→,0.6047563999891281,True,17,1,0,8
Y2-S2-064K19,3,255,AS,exp,28,↑,up,↑,0.7300654002465308,True,17,1,0,8
Y2-S2-064K19,3,256,AS,exp,28,→,right,→,0.5814829999580979,True,17,1,0,8
Y2-S2-064K19,3,257,AS,exp,50,←,left,←,0.6903881998732686,True,16,1,0,8
Y2-S2-064K19,3,258,AS,exp,43,↓,down,↓,0.9715946996584535,True,16,1,0,8
Y2-S2-064K19,3,259,AS,exp,33,→,right,→,0.8282637000083923,True,16,1,0,8
Y2-S2-064K19,3,260,AS,exp,26,↑,up,↑,0.6166779999621212,True,15,1,0,8
Y2-S2-064K19,3,261,AS,exp,25,→,up,↑,0.8192163999192417,False,15,-1,1,9
Y2-S2-064K19,3,262,AS,exp,42,↓,down,↓,0.7414879999123514,True,16,-1,0,9
Y2-S2-064K19,3,263,AS,exp,39,→,left,←,1.2714148997329175,False,16,-1,0,9
Y2-S2-064K19,3,264,AS,exp,43,↓,down,↓,0.9298633998259902,True,17,-1,0,9
Y2-S2-064K19,3,265,AS,exp,48,→,right,→,0.7210200997069478,True,17,-1,0,9
Y2-S2-064K19,3,266,AS,exp,39,↓,down,↓,1.1676728003658354,True,17,1,1,10
Y2-S2-064K19,3,267,AS,exp,43,→,down,↓,1.0404941998422146,False,16,-1,1,11
Y2-S2-064K19,3,268,AS,exp,30,↑,up,↑,0.7398475999943912,True,17,-1,0,11
Y2-S2-064K19,3,269,AS,exp,50,←,up,↑,0.7980965999886394,False,17,-1,0,11
Y2-S2-064K19,3,270,AS,exp,45,↓,down,↓,0.7849455000832677,True,18,-1,0,11
Y2-S2-064K19,3,271,AS,exp,49,←,left,←,1.0547524001449347,True,18,-1,0,11
Y2-S2-064K19,3,272,AS,exp,25,↑,up,↑,0.8698232001625001,True,18,1,1,12
Y2-S2-064K19,3,273,AS,exp,35,↓,up,↑,0.9771725996397436,False,17,-1,1,13
Y2-S2-064K19,3,274,AS,exp,33,←,left,←,0.7064315001480281,True,18,-1,0,13
Y2-S2-064K19,3,275,AS,exp,37,↑,right,→,0.9543016999959946,False,18,-1,0,13
Y2-S2-064K19,3,276,AS,exp,26,←,right,→,1.0627832999452949,False,19,-1,0,13
Y2-S2-064K19,3,277,AS,exp,33,↓,down,↓,0.9807135998271406,True,20,-1,0,13
Y2-S2-064K19,3,278,AS,exp,25,↑,down,↓,0.9171484997496009,False,20,-1,0,13
Y2-S2-064K19,3,279,AS,exp,38,↓,up,↑,1.1349591999314725,False,21,-1,0,13
Y2-S2-064K19,3,280,AS,exp,30,↑,up,↑,1.0625257003121078,True,22,-1,0,13
Y2-S2-064K19,3,281,AS,exp,40,↓,down,↓,0.7826538998633623,True,22,-1,0,13
Y2-S2-064K19,3,282,AS,exp,37,↑,left,←,1.0883308998309076,False,22,-1,0,13
Y2-S2-064K19,3,283,AS,exp,31,←,left,←,0.6369859999977052,True,23,-1,0,13
Y2-S2-064K19,3,284,AS,exp,29,↑,up,↑,1.2008889000862837,True,23,-1,0,13
Y2-S2-064K19,3,285,AS,exp,36,↓,down,↓,0.9520282000303268,True,23,1,1,14
Y2-S2-064K19,3,286,AS,exp,38,→,left,←,0.7946987999603152,False,22,-1,1,15
Y2-S2-064K19,3,287,AS,exp,49,←,left,←,0.9132635002024472,True,23,-1,0,15
Y2-S2-064K19,3,288,AS,exp,46,↓,right,→,1.0520159001462162,False,23,-1,0,15
Y2-S2-064K19,3,289,AS,exp,32,↑,up,↑,0.8916890001855791,True,24,-1,0,15
Y2-S2-064K19,3,290,AS,exp,43,←,left,←,0.6911063999868929,True,24,-1,0,15
Y2-S2-064K19,3,291,AS,exp,33,→,right,→,0.8281622002832592,True,24,1,1,16
Y2-S2-064K19,4,292,PS,intra_train,30,↑,up,↑,0.7510472997091711,True,18,-,-,-
Y2-S2-064K19,4,293,PS,intra_train,37,↓,down,↓,0.7397779999300838,True,18,-,-,-
Y2-S2-064K19,4,294,PS,intra_train,43,↑,up,↑,0.7119303997606039,True,18,-,-,-
Y2-S2-064K19,4,295,PS,intra_train,31,←,left,←,0.47412069980055094,True,18,-,-,-
Y2-S2-064K19,4,296,PS,intra_train,29,→,right,→,0.5493975002318621,True,18,-,-,-
Y2-S2-064K19,4,297,PS,exp,30,←,left,←,0.4725464996881783,True,12,0,0,0
Y2-S2-064K19,4,298,PS,exp,47,↓,down,↓,0.8712106002494693,True,12,0,0,0
Y2-S2-064K19,4,299,PS,exp,43,←,left,←,0.49535819981247187,True,12,1,0,0
Y2-S2-064K19,4,300,PS,exp,26,↓,right,→,0.6862974995747209,False,11,-1,1,1
Y2-S2-064K19,4,301,PS,exp,25,↑,right,→,0.6901036002673209,False,12,-1,0,1
Y2-S2-064K19,4,302,PS,exp,40,↓,down,↓,0.8480231002904475,True,13,-1,0,1
Y2-S2-064K19,4,303,PS,exp,40,←,down,↓,0.9768353002145886,False,13,-1,0,1
Y2-S2-064K19,4,304,PS,exp,47,↑,up,↑,0.6190402000211179,True,14,-1,0,1
Y2-S2-064K19,4,305,PS,exp,44,↓,up,↑,0.8392517003230751,False,14,-1,0,1
Y2-S2-064K19,4,306,PS,exp,31,←,left,←,0.839607400353998,True,15,-1,0,1
Y2-S2-064K19,4,307,PS,exp,31,↓,down,↓,0.8320243000052869,True,15,-1,0,1
Y2-S2-064K19,4,308,PS,exp,43,↑,right,→,0.8315778998658061,False,15,-1,0,1
Y2-S2-064K19,4,309,PS,exp,38,↓,down,↓,0.7592229000292718,True,16,-1,0,1
Y2-S2-064K19,4,310,PS,exp,33,←,up,↑,0.8279746002517641,False,16,-1,0,1
Y2-S2-064K19,4,311,PS,exp,48,↓,up,↑,0.8935165000148118,False,17,-1,0,1
Y2-S2-064K19,4,312,PS,exp,30,→,right,→,1.2495369999669492,True,18,-1,0,1
Y2-S2-064K19,4,313,PS,exp,35,←,left,←,0.6191908000037074,True,18,-1,0,1
Y2-S2-064K19,4,314,PS,exp,27,→,right,→,0.5548942997120321,True,18,1,1,2
Y2-S2-064K19,4,315,PS,exp,40,←,left,←,0.7394497999921441,True,17,1,0,2
Y2-S2-064K19,4,316,PS,exp,25,↑,up,↑,0.5296964002773166,True,17,1,0,2
Y2-S2-064K19,4,317,PS,exp,32,→,up,↑,0.7911227000877261,False,17,-1,1,3
Y2-S2-064K19,4,318,PS,exp,33,←,left,←,0.7117916997522116,True,18,-1,0,3
Y2-S2-064K19,4,319,PS,exp,38,→,right,→,0.5897570997476578,True,18,-1,0,3
Y2-S2-064K19,4,320,PS,exp,27,←,right,→,0.5516567002050579,False,18,-1,0,3
Y2-S2-064K19,4,321,PS,exp,44,→,right,→,1.78643099963665,True,19,-1,0,3
Y2-S2-064K19,4,322,PS,exp,47,↑,up,↑,0.781534899957478,True,19,-1,0,3
Y2-S2-064K19,4,323,PS,exp,49,←,no_key,no_letter,-1.0,False,19,-1,0,3
Y2-S2-064K19,4,324,PS,exp,42,→,right,→,0.7855068002827466,True,20,-1,0,3
Y2-S2-064K19,4,325,PS,exp,25,↓,no_key,no_letter,-1.0,False,20,-1,0,3
Y2-S2-064K19,4,326,PS,exp,36,←,left,←,0.5943375998176634,True,21,-1,0,3
Y2-S2-064K19,4,327,PS,exp,31,↓,right,→,0.92099229991436,False,21,-1,0,3
Y2-S2-064K19,4,328,PS,exp,31,↑,right,→,0.6022025998681784,False,22,-1,0,3
Y2-S2-064K19,4,329,PS,exp,25,↓,right,→,0.9610719000920653,False,23,-1,0,3
Y2-S2-064K19,4,330,PS,exp,41,↑,up,↑,1.7780476999469101,True,24,-1,0,3
Y2-S2-064K19,4,331,PS,exp,32,↓,down,↓,1.00379510037601,True,24,-1,0,3
Y2-S2-064K19,4,332,PS,exp,33,←,left,←,0.8703303998336196,True,24,1,1,4
Y2-S2-064K19,4,333,PS,exp,48,→,left,←,2.0252315001562238,False,23,-1,1,5
Y2-S2-064K19,4,334,PS,exp,30,←,right,→,0.7356338002718985,False,24,-1,0,5
Y2-S2-064K19,4,335,PS,exp,37,↑,up,↑,0.7228652997873724,True,25,-1,0,5
Y2-S2-064K19,4,336,PS,exp,46,←,left,←,0.7456098003312945,True,25,-1,0,5
Y2-S2-064K19,4,337,PS,exp,42,→,right,→,0.550604599993676,True,25,1,1,6
Y2-S2-064K19,4,338,PS,exp,38,↓,down,↓,0.7940926002338529,True,24,1,0,6
Y2-S2-064K19,4,339,PS,exp,34,↑,up,↑,0.6876926003023982,True,24,1,0,6
Y2-S2-064K19,4,340,PS,exp,46,↓,up,↑,0.6189660998061299,False,24,-1,1,7
Y2-S2-064K19,4,341,PS,exp,25,→,right,→,0.8856963999569416,True,25,-1,0,7
Y2-S2-064K19,4,342,PS,exp,27,↑,up,↑,0.9623488001525402,True,25,-1,0,7
Y2-S2-064K19,4,343,PS,exp,25,↓,no_key,no_letter,-1.0,False,25,-1,0,7
Y2-S2-064K19,4,344,PS,exp,46,→,right,→,0.6988067002967,True,26,-1,0,7
Y2-S2-064K19,4,345,PS,exp,41,←,left,←,0.7269206000491977,True,26,-1,0,7
Y2-S2-064K19,4,346,PS,exp,32,↑,up,↑,0.701156800147146,True,26,1,1,8
Y2-S2-064K19,4,347,PS,exp,45,→,right,→,0.5508209997788072,True,25,1,0,8
Y2-S2-064K19,4,348,PS,exp,42,↑,up,↑,0.6598563999868929,True,25,1,0,8
Y2-S2-064K19,4,349,PS,exp,32,←,right,→,1.2122395001351833,False,25,-1,1,9
Y2-S2-064K19,4,350,PS,exp,38,→,right,→,0.8590007997117937,True,26,-1,0,9
Y2-S2-064K19,4,351,PS,exp,47,↓,down,↓,0.9083755002357066,True,26,-1,0,9
Y2-S2-064K19,4,352,PS,exp,33,→,right,→,0.8515670001506805,True,26,1,1,10
Y2-S2-064K19,4,353,PS,exp,39,←,left,←,0.7130753002129495,True,25,1,0,10
Y2-S2-064K19,4,354,PS,exp,50,↓,down,↓,0.5981801999732852,True,25,1,0,10
Y2-S2-064K19,4,355,PS,exp,26,↑,no_key,no_letter,-1.0,False,25,-1,1,11
Y2-S2-064K19,4,356,PS,exp,32,←,left,←,0.7943576998077333,True,26,-1,0,11
Y2-S2-064K19,4,357,PS,exp,47,↑,up,↑,0.8649917002767324,True,26,-1,0,11
Y2-S2-064K19,4,358,PS,exp,27,←,no_key,no_letter,-1.0,False,26,-1,0,11
Y2-S2-064K19,4,359,PS,exp,43,↓,down,↓,0.6886227997019887,True,27,-1,0,11
Y2-S2-064K19,4,360,PS,exp,49,→,down,↓,1.366723199840635,False,27,-1,0,11
Y2-S2-064K19,4,361,PS,exp,41,↑,up,↑,0.867019800003618,True,28,-1,0,11
Y2-S2-064K19,4,362,PS,exp,44,←,no_key,no_letter,-1.0,False,28,-1,0,11
Y2-S2-064K19,4,363,PS,exp,36,→,no_key,no_letter,-1.0,False,29,-1,0,11
Y2-S2-064K19,4,364,PS,exp,33,↓,down,↓,0.8116381000727415,True,30,-1,0,11
Y2-S2-064K19,4,365,PS,exp,49,→,right,→,0.5841186000034213,True,30,-1,0,11
Y2-S2-064K19,4,366,PS,exp,45,↓,no_key,no_letter,-1.0,False,30,-1,0,11
Y2-S2-064K19,4,367,PS,exp,25,↑,up,↑,0.8147008996456861,True,31,-1,0,11
Y2-S2-064K19,4,368,PS,exp,29,↓,down,↓,0.8203727998770773,True,31,-1,0,11
Y2-S2-064K19,4,369,PS,exp,27,↑,up,↑,0.7909061000682414,True,31,1,1,12
Y2-S2-064K19,4,370,PS,exp,41,→,right,→,1.0101737999357283,True,30,1,0,12
Y2-S2-064K19,4,371,PS,exp,46,↓,no_key,no_letter,-1.0,False,30,-1,1,13
Y2-S2-064K19,4,372,PS,exp,28,↑,no_key,no_letter,-1.0,False,31,-1,0,13
Y2-S2-064K19,4,373,PS,exp,35,↓,down,↓,1.0056798998266459,True,32,-1,0,13
Y2-S2-064K19,4,374,PS,exp,37,←,left,←,0.9831056999973953,True,32,-1,0,13
Y2-S2-064K19,4,375,PS,exp,27,→,no_key,no_letter,-1.0,False,32,-1,0,13
Y2-S2-064K19,4,376,PS,exp,38,↑,up,↑,0.6339386003091931,True,33,-1,0,13
Y2-S2-064K19,4,377,PS,exp,25,←,left,←,0.7955542001873255,True,33,-1,0,13
Y2-S2-064K19,4,378,PS,exp,29,↑,up,↑,0.7384537998586893,True,33,1,1,14
Y2-S2-064K19,4,379,PS,exp,48,→,right,→,0.8522601001895964,True,32,1,0,14
Y2-S2-064K19,4,380,PS,exp,48,←,no_key,no_letter,-1.0,False,32,-1,1,15
Y2-S2-064K19,4,381,PS,exp,30,↑,up,↑,0.6340431999415159,True,33,-1,0,15
Y2-S2-064K19,4,382,PS,exp,45,←,no_key,no_letter,-1.0,False,33,-1,0,15
Y2-S2-064K19,4,383,PS,exp,39,↓,down,↓,1.1715589999221265,True,34,-1,0,15
Y2-S2-064K19,4,384,PS,exp,25,→,no_key,no_letter,-1.0,False,34,-1,0,15
Y2-S2-064K19,4,385,PS,exp,32,←,left,←,0.6842180001549423,True,35,-1,0,15
Y2-S2-064K19,4,386,PS,exp,50,→,right,→,0.61689000017941,True,35,-1,0,15
Y2-S2-064K19,4,387,PS,exp,44,↓,down,↓,0.8439488997682929,True,35,1,1,16
Y2-S2-064K19,5,388,PS,intra_train,26,←,right,→,0.5487000998109579,False,18,-,-,-
Y2-S2-064K19,5,389,PS,intra_train,28,↑,up,↑,0.4741196003742516,True,18,-,-,-
Y2-S2-064K19,5,390,PS,intra_train,40,→,right,→,0.5110972002148628,True,18,-,-,-
Y2-S2-064K19,5,391,PS,intra_train,32,←,left,←,0.6278174999170005,True,18,-,-,-
Y2-S2-064K19,5,392,PS,intra_train,38,↓,down,↓,0.8620388000272214,True,18,-,-,-
Y2-S2-064K19,5,393,PS,exp,30,↑,up,↑,0.5390324997715652,True,12,0,0,0
Y2-S2-064K19,5,394,PS,exp,47,↓,down,↓,0.6812622998841107,True,12,0,0,0
Y2-S2-064K19,5,395,PS,exp,41,↑,up,↑,0.5839118999429047,True,12,1,0,0
Y2-S2-064K19,5,396,PS,exp,41,→,up,↑,0.7854851000010967,False,11,-1,1,1
Y2-S2-064K19,5,397,PS,exp,37,↓,down,↓,0.889629399869591,True,12,-1,0,1
Y2-S2-064K19,5,398,PS,exp,40,↑,up,↑,0.7408141000196338,True,12,-1,0,1
Y2-S2-064K19,5,399,PS,exp,46,→,right,→,0.8483462003059685,True,12,1,1,2
Y2-S2-064K19,5,400,PS,exp,31,↓,no_key,no_letter,-1.0,False,11,-1,1,3
Y2-S2-064K19,5,401,PS,exp,27,←,right,→,1.2196523998863995,False,12,-1,0,3
Y2-S2-064K19,5,402,PS,exp,46,↓,up,↑,1.2430428001098335,False,13,-1,0,3
Y2-S2-064K19,5,403,PS,exp,36,↑,up,↑,0.6906873001717031,True,14,-1,0,3
Y2-S2-064K19,5,404,PS,exp,42,←,left,←,0.6797143998555839,True,14,-1,0,3
Y2-S2-064K19,5,405,PS,exp,26,↑,no_key,no_letter,-1.0,False,14,-1,0,3
Y2-S2-064K19,5,406,PS,exp,50,→,right,→,0.8685181001201272,True,15,-1,0,3
Y2-S2-064K19,5,407,PS,exp,28,↑,up,↑,0.592162299901247,True,15,-1,0,3
Y2-S2-064K19,5,408,PS,exp,32,↓,down,↓,0.8135842001065612,True,15,1,1,4
Y2-S2-064K19,5,409,PS,exp,29,↑,up,↑,0.679889100138098,True,14,1,0,4
Y2-S2-064K19,5,410,PS,exp,26,←,left,←,0.9695553001947701,True,14,1,0,4
Y2-S2-064K19,5,411,PS,exp,48,↑,up,↑,0.5900850999169052,True,14,1,0,4
Y2-S2-064K19,5,412,PS,exp,35,←,right,→,1.3494242997840047,False,13,-1,1,5
Y2-S2-064K19,5,413,PS,exp,41,↓,no_key,no_letter,-1.0,False,14,-1,0,5
Y2-S2-064K19,5,414,PS,exp,49,←,no_key,no_letter,-1.0,False,15,-1,0,5
Y2-S2-064K19,5,415,PS,exp,31,→,down,↓,1.7321852003224194,False,16,-1,0,5
Y2-S2-064K19,5,416,PS,exp,37,←,right,→,0.8055187002755702,False,17,-1,0,5
Y2-S2-064K19,5,417,PS,exp,42,→,right,→,0.8798090000636876,True,18,-1,0,5
Y2-S2-064K19,5,418,PS,exp,32,↑,up,↑,0.6137259998358786,True,18,-1,0,5
Y2-S2-064K19,5,419,PS,exp,25,←,left,←,0.6678480003029108,True,18,1,1,6
Y2-S2-064K19,5,420,PS,exp,48,↓,up,↑,1.1297028004191816,False,17,-1,1,7
Y2-S2-064K19,5,421,PS,exp,30,↑,up,↑,0.5684155998751521,True,18,-1,0,7
Y2-S2-064K19,5,422,PS,exp,42,→,right,→,0.49336749967187643,True,18,-1,0,7
Y2-S2-064K19,5,423,PS,exp,49,←,left,←,0.5358529998920858,True,18,1,1,8
Y2-S2-064K19,5,424,PS,exp,25,↑,up,↑,0.7184418002143502,True,17,1,0,8
Y2-S2-064K19,5,425,PS,exp,41,←,right,→,0.7021428998559713,False,17,-1,1,9
Y2-S2-064K19,5,426,PS,exp,48,→,no_key,no_letter,-1.0,False,18,-1,0,9
Y2-S2-064K19,5,427,PS,exp,37,←,no_key,no_letter,-1.0,False,19,-1,0,9
Y2-S2-064K19,5,428,PS,exp,46,→,right,→,0.8160172002390027,True,20,-1,0,9
Y2-S2-064K19,5,429,PS,exp,47,↑,left,←,0.9977428000420332,False,20,-1,0,9
Y2-S2-064K19,5,430,PS,exp,26,←,left,←,1.0441765002906322,True,21,-1,0,9
Y2-S2-064K19,5,431,PS,exp,40,↓,no_key,no_letter,-1.0,False,21,-1,0,9
Y2-S2-064K19,5,432,PS,exp,49,←,left,←,0.654785200022161,True,22,-1,0,9
Y2-S2-064K19,5,433,PS,exp,37,→,right,→,0.7493983996100724,True,22,-1,0,9
Y2-S2-064K19,5,434,PS,exp,27,↑,no_key,no_letter,-1.0,False,22,-1,0,9
Y2-S2-064K19,5,435,PS,exp,43,←,no_key,no_letter,-1.0,False,23,-1,0,9
Y2-S2-064K19,5,436,PS,exp,48,→,no_key,no_letter,-1.0,False,24,-1,0,9
Y2-S2-064K19,5,437,PS,exp,27,←,left,←,0.788852300029248,True,25,-1,0,9
Y2-S2-064K19,5,438,PS,exp,49,↑,up,↑,0.4837565002962947,True,25,-1,0,9
Y2-S2-064K19,5,439,PS,exp,36,←,left,←,0.6301043001003563,True,25,1,1,10
Y2-S2-064K19,5,440,PS,exp,48,→,no_key,no_letter,-1.0,False,24,-1,1,11
Y2-S2-064K19,5,441,PS,exp,42,↑,up,↑,0.48366309981793165,True,25,-1,0,11
Y2-S2-064K19,5,442,PS,exp,43,←,right,→,2.021946799941361,False,25,-1,0,11
Y2-S2-064K19,5,443,PS,exp,31,↓,down,↓,0.7503276001662016,True,26,-1,0,11
Y2-S2-064K19,5,444,PS,exp,25,→,right,→,0.8690422000363469,True,26,-1,0,11
Y2-S2-064K19,5,445,PS,exp,25,↑,up,↑,0.5501786996610463,True,26,1,1,12
Y2-S2-064K19,5,446,PS,exp,30,→,right,→,1.603152200113982,True,25,1,0,12
Y2-S2-064K19,5,447,PS,exp,36,↑,up,↑,1.5080575002357364,True,25,1,0,12
Y2-S2-064K19,5,448,PS,exp,25,↓,down,↓,0.7210133001208305,True,25,1,0,12
Y2-S2-064K19,5,449,PS,exp,40,→,right,→,0.4505432997830212,True,24,1,0,12
Y2-S2-064K19,5,450,PS,exp,39,←,left,←,0.6941156000830233,True,24,1,0,12
Y2-S2-064K19,5,451,PS,exp,47,↑,no_key,no_letter,-1.0,False,24,-1,1,13
Y2-S2-064K19,5,452,PS,exp,41,↓,down,↓,0.7082735002040863,True,25,-1,0,13
Y2-S2-064K19,5,453,PS,exp,32,→,right,→,1.5458455001935363,True,25,-1,0,13
Y2-S2-064K19,5,454,PS,exp,37,←,no_key,no_letter,-1.0,False,25,-1,0,13
Y2-S2-064K19,5,455,PS,exp,39,↑,no_key,no_letter,-1.0,False,26,-1,0,13
Y2-S2-064K19,5,456,PS,exp,45,↓,down,↓,0.8475274001248181,True,27,-1,0,13
Y2-S2-064K19,5,457,PS,exp,32,→,no_key,no_letter,-1.0,False,27,-1,0,13
Y2-S2-064K19,5,458,PS,exp,35,↑,up,↑,0.7483818000182509,True,28,-1,0,13
Y2-S2-064K19,5,459,PS,exp,41,↓,up,↑,1.1441342998296022,False,28,-1,0,13
Y2-S2-064K19,5,460,PS,exp,26,→,up,↑,1.1000701002776623,False,29,-1,0,13
Y2-S2-064K19,5,461,PS,exp,25,↑,up,↑,0.5838113999925554,True,30,-1,0,13
Y2-S2-064K19,5,462,PS,exp,45,←,no_key,no_letter,-1.0,False,30,-1,0,13
Y2-S2-064K19,5,463,PS,exp,41,→,right,→,0.6913597001694143,True,31,-1,0,13
Y2-S2-064K19,5,464,PS,exp,47,↓,down,↓,0.7416046997532248,True,31,-1,0,13
Y2-S2-064K19,5,465,PS,exp,41,↑,up,↑,0.8612812999635935,True,31,1,1,14
Y2-S2-064K19,5,466,PS,exp,46,→,right,→,0.7325373999774456,True,30,1,0,14
Y2-S2-064K19,5,467,PS,exp,50,↓,down,↓,0.7111197002232075,True,30,1,0,14
Y2-S2-064K19,5,468,PS,exp,37,↑,no_key,no_letter,-1.0,False,30,-1,1,15
Y2-S2-064K19,5,469,PS,exp,41,↓,down,↓,0.8919510003179312,True,31,-1,0,15
Y2-S2-064K19,5,470,PS,exp,37,→,no_key,no_letter,-1.0,False,31,-1,0,15
Y2-S2-064K19,5,471,PS,exp,46,↓,down,↓,0.7959698000922799,True,32,-1,0,15
Y2-S2-064K19,5,472,PS,exp,46,→,no_key,no_letter,-1.0,False,32,-1,0,15
Y2-S2-064K19,5,473,PS,exp,38,↑,up,↑,1.3335178000852466,True,33,-1,0,15
Y2-S2-064K19,5,474,PS,exp,41,←,left,←,1.0839534997940063,True,33,-1,0,15
Y2-S2-064K19,5,475,PS,exp,44,↑,up,↑,0.8255593003705144,True,33,1,1,16
Y2-S2-064K19,6,476,AS,intra_train,41,→,right,→,0.5506807002238929,True,30,-,-,-
Y2-S2-064K19,6,477,AS,intra_train,45,↓,up,↑,0.8129317001439631,False,30,-,-,-
Y2-S2-064K19,6,478,AS,intra_train,50,↑,up,↑,0.5668709999881685,True,30,-,-,-
Y2-S2-064K19,6,479,AS,intra_train,28,←,left,←,0.4338650000281632,True,30,-,-,-
Y2-S2-064K19,6,480,AS,intra_train,38,↑,up,↑,0.6962222997099161,True,30,-,-,-
Y2-S2-064K19,6,481,AS,exp,37,↓,up,↑,1.1266954001039267,False,20,-1,0,0
Y2-S2-064K19,6,482,AS,exp,34,→,right,→,0.6138174999505281,True,21,-1,0,0
Y2-S2-064K19,6,483,AS,exp,46,↑,up,↑,0.9463790003210306,True,21,-1,0,0
Y2-S2-064K19,6,484,AS,exp,38,←,no_key,no_letter,-1.0,False,21,-1,0,0
Y2-S2-064K19,6,485,AS,exp,48,↓,down,↓,0.8911846997216344,True,22,-1,0,0
Y2-S2-064K19,6,486,AS,exp,45,←,left,←,0.6233008000999689,True,22,-1,0,0
Y2-S2-064K19,6,487,AS,exp,47,↑,down,↓,0.8098551998846233,False,22,-1,0,0
Y2-S2-064K19,6,488,AS,exp,37,←,left,←,0.4836534997448325,True,23,-1,0,0
Y2-S2-064K19,6,489,AS,exp,44,↑,up,↑,0.7842739000916481,True,23,-1,0,0
Y2-S2-064K19,6,490,AS,exp,29,←,left,←,0.4337578001432121,True,23,1,1,1
Y2-S2-064K19,6,491,AS,exp,49,→,right,→,0.5834685997106135,True,22,1,0,1
Y2-S2-064K19,6,492,AS,exp,31,←,left,←,1.404178800061345,True,22,1,0,1
Y2-S2-064K19,6,493,AS,exp,33,→,right,→,0.6689177001826465,True,22,1,0,1
Y2-S2-064K19,6,494,AS,exp,32,↑,up,↑,0.563448500353843,True,21,1,0,1
Y2-S2-064K19,6,495,AS,exp,32,↓,down,↓,0.8205458000302315,True,21,1,0,1
Y2-S2-064K19,6,496,AS,exp,28,→,right,→,0.5689400001429021,True,21,1,0,1
Y2-S2-064K19,6,497,AS,exp,33,↓,down,↓,0.7215101001784205,True,20,1,0,1
Y2-S2-064K19,6,498,AS,exp,29,→,right,→,0.4670820003375411,True,20,1,0,1
Y2-S2-064K19,6,499,AS,exp,26,←,left,←,0.7545759999193251,True,20,1,0,1
Y2-S2-064K19,6,500,AS,exp,37,↓,down,↓,0.8182503003627062,True,19,1,0,1
Y2-S2-064K19,6,501,AS,exp,45,→,right,→,0.8715575998649001,True,19,1,0,1
Y2-S2-064K19,6,502,AS,exp,31,↓,down,↓,0.7735389000736177,True,19,1,0,1
Y2-S2-064K19,6,503,AS,exp,27,↑,up,↑,0.6424460001289845,True,18,1,0,1
Y2-S2-064K19,6,504,AS,exp,31,←,left,←,0.8763251001946628,True,18,1,0,1
Y2-S2-064K19,6,505,AS,exp,46,↓,down,↓,0.7382938996888697,True,18,1,0,1
Y2-S2-064K19,6,506,AS,exp,37,→,down,↓,0.6860876004211605,False,17,-1,1,2
Y2-S2-064K19,6,507,AS,exp,43,↓,down,↓,0.8606329998001456,True,18,-1,0,2
Y2-S2-064K19,6,508,AS,exp,41,↑,up,↑,0.5734081999398768,True,18,-1,0,2
Y2-S2-064K19,6,509,AS,exp,43,↓,up,↑,0.8236707001924515,False,18,-1,0,2
Y2-S2-064K19,6,510,AS,exp,36,←,left,←,0.6506509999744594,True,19,-1,0,2
Y2-S2-064K19,6,511,AS,exp,30,↑,right,→,1.0898687997832894,False,19,-1,0,2
Y2-S2-064K19,6,512,AS,exp,29,→,up,↑,0.9139303998090327,False,20,-1,0,2
Y2-S2-064K19,6,513,AS,exp,46,↑,up,↑,0.8449400998651981,True,21,-1,0,2
Y2-S2-064K19,6,514,AS,exp,28,↓,down,↓,0.7141241002827883,True,21,-1,0,2
Y2-S2-064K19,6,515,AS,exp,36,↑,no_key,no_letter,-1.0,False,21,-1,0,2
Y2-S2-064K19,6,516,AS,exp,49,→,right,→,0.6497585000470281,True,22,-1,0,2
Y2-S2-064K19,6,517,AS,exp,39,↓,down,↓,0.6727404999546707,True,22,-1,0,2
Y2-S2-064K19,6,518,AS,exp,38,↑,up,↑,0.7265484002418816,True,22,1,1,3
Y2-S2-064K19,6,519,AS,exp,46,↓,up,↑,0.9146857000887394,False,21,-1,1,4
Y2-S2-064K19,6,520,AS,exp,44,→,down,↓,0.8280593999661505,False,22,-1,0,4
Y2-S2-064K19,6,521,AS,exp,36,↑,up,↑,0.5773385004140437,True,23,-1,0,4
Y2-S2-064K19,6,522,AS,exp,48,→,right,→,0.7796069998294115,True,23,-1,0,4
Y2-S2-064K19,6,523,AS,exp,38,←,left,←,1.0414372002705932,True,23,1,1,5
Y2-S2-064K19,6,524,AS,exp,48,↓,down,↓,0.8929703002795577,True,22,1,0,5
Y2-S2-064K19,6,525,AS,exp,33,←,left,←,0.6270416998304427,True,22,1,0,5
Y2-S2-064K19,6,526,AS,exp,48,↓,down,↓,0.914251800160855,True,22,1,0,5
Y2-S2-064K19,6,527,AS,exp,35,↑,up,↑,0.897322699893266,True,21,1,0,5
Y2-S2-064K19,6,528,AS,exp,42,→,right,→,0.5418831002898514,True,21,1,0,5
Y2-S2-064K19,6,529,AS,exp,38,←,left,←,1.3861138001084328,True,21,1,0,5
Y2-S2-064K19,6,530,AS,exp,41,↓,down,↓,0.6944599999114871,True,20,1,0,5
Y2-S2-064K19,6,531,AS,exp,45,←,left,←,0.7192889000289142,True,20,1,0,5
Y2-S2-064K19,6,532,AS,exp,29,↑,down,↓,1.0458363997749984,False,20,-1,1,6
Y2-S2-064K19,6,533,AS,exp,50,←,left,←,0.8848223998211324,True,21,-1,0,6
Y2-S2-064K19,6,534,AS,exp,26,↓,down,↓,0.982178000267595,True,21,-1,0,6
Y2-S2-064K19,6,535,AS,exp,29,→,right,→,0.6510173999704421,True,21,1,1,7
Y2-S2-064K19,6,536,AS,exp,29,←,left,←,0.4671342996880412,True,20,1,0,7
Y2-S2-064K19,6,537,AS,exp,45,→,right,→,0.5766036002896726,True,20,1,0,7
Y2-S2-064K19,6,538,AS,exp,31,←,left,←,1.2396979997865856,True,20,1,0,7
Y2-S2-064K19,6,539,AS,exp,48,↓,right,→,0.7170037003234029,False,19,-1,1,8
Y2-S2-064K19,6,540,AS,exp,45,←,right,→,0.8275321000255644,False,20,-1,0,8
Y2-S2-064K19,6,541,AS,exp,40,↓,down,↓,0.5631702998653054,True,21,-1,0,8
Y2-S2-064K19,6,542,AS,exp,47,←,down,↓,1.1380201000720263,False,21,-1,0,8
Y2-S2-064K19,6,543,AS,exp,31,→,up,↑,1.2215436999686062,False,22,-1,0,8
Y2-S2-064K19,6,544,AS,exp,25,↑,up,↑,0.5173268001526594,True,23,-1,0,8
Y2-S2-064K19,6,545,AS,exp,38,→,right,→,0.8664982002228498,True,23,-1,0,8
Y2-S2-064K19,6,546,AS,exp,37,↓,down,↓,0.7470335001125932,True,23,1,1,9
Y2-S2-064K19,6,547,AS,exp,31,↑,up,↑,0.8686426002532244,True,22,1,0,9
Y2-S2-064K19,6,548,AS,exp,26,↓,down,↓,0.7063700999133289,True,22,1,0,9
Y2-S2-064K19,6,549,AS,exp,37,→,right,→,0.8772750999778509,True,22,1,0,9
Y2-S2-064K19,6,550,AS,exp,37,←,left,←,0.654755000025034,True,21,1,0,9
Y2-S2-064K19,6,551,AS,exp,30,→,right,→,0.905116000212729,True,21,1,0,9
Y2-S2-064K19,6,552,AS,exp,38,←,left,←,1.4795129001140594,True,21,1,0,9
Y2-S2-064K19,6,553,AS,exp,39,↑,up,↑,1.0145951001904905,True,20,1,0,9
Y2-S2-064K19,6,554,AS,exp,26,↓,right,→,1.344519800040871,False,20,-1,1,10
Y2-S2-064K19,6,555,AS,exp,39,←,left,←,0.9368519000709057,True,21,-1,0,10
Y2-S2-064K19,6,556,AS,exp,38,↑,left,←,0.8030916000716388,False,21,-1,0,10
Y2-S2-064K19,6,557,AS,exp,49,→,right,→,0.5710619003511965,True,22,-1,0,10
Y2-S2-064K19,6,558,AS,exp,48,↑,up,↑,0.6668862998485565,True,22,-1,0,10
Y2-S2-064K19,6,559,AS,exp,31,↓,down,↓,0.650530899874866,True,22,1,1,11
Y2-S2-064K19,6,560,AS,exp,42,←,left,←,0.611782199703157,True,21,1,0,11
Y2-S2-064K19,6,561,AS,exp,49,↑,up,↑,0.6311050001531839,True,21,1,0,11
Y2-S2-064K19,6,562,AS,exp,41,←,right,→,0.8791475002653897,False,21,-1,1,12
Y2-S2-064K19,6,563,AS,exp,35,↑,up,↑,0.7155074998736382,True,22,-1,0,12
Y2-S2-064K19,6,564,AS,exp,25,←,left,←,0.5006335000507534,True,22,-1,0,12
Y2-S2-064K19,6,565,AS,exp,42,↑,up,↑,0.5989611996337771,True,22,1,1,13
Y2-S2-064K19,6,566,AS,exp,33,↓,down,↓,0.7499843002296984,True,21,1,0,13
Y2-S2-064K19,6,567,AS,exp,44,↑,up,↑,1.9927070997655392,True,21,1,0,13
Y2-S2-064K19,6,568,AS,exp,40,←,right,→,0.9243892999365926,False,21,-1,1,14
Y2-S2-064K19,6,569,AS,exp,44,→,right,→,0.8578070998191833,True,22,-1,0,14
Y2-S2-064K19,6,570,AS,exp,48,↑,up,↑,0.9155447999946773,True,22,-1,0,14
Y2-S2-064K19,6,571,AS,exp,49,←,up,↑,1.026339199859649,False,22,-1,0,14
Y2-S2-064K19,6,572,AS,exp,35,↓,down,↓,0.8602800001390278,True,23,-1,0,14
Y2-S2-064K19,6,573,AS,exp,50,↑,down,↓,1.231222199741751,False,23,-1,0,14
Y2-S2-064K19,6,574,AS,exp,36,→,no_key,no_letter,-1.0,False,24,-1,0,14
Y2-S2-064K19,6,575,AS,exp,31,←,left,←,0.517166499979794,True,25,-1,0,14
Y2-S2-064K19,6,576,AS,exp,33,↑,up,↑,0.550447900313884,True,25,-1,0,14
Y2-S2-064K19,6,577,AS,exp,46,↓,up,↑,0.9589169002138078,False,25,-1,0,14
Y2-S2-064K19,6,578,AS,exp,41,→,right,→,0.5504501000978053,True,26,-1,0,14
Y2-S2-064K19,6,579,AS,exp,48,↓,up,↑,1.2579349000006914,False,26,-1,0,14
Y2-S2-064K19,6,580,AS,exp,29,←,no_key,no_letter,-1.0,False,27,-1,0,14
Y2-S2-064K19,6,581,AS,exp,26,→,right,→,0.70843859994784,True,28,-1,0,14
Y2-S2-064K19,6,582,AS,exp,39,←,left,←,0.48423629999160767,True,28,-1,0,14
Y2-S2-064K19,6,583,AS,exp,48,↓,down,↓,0.7233083001337945,True,28,1,1,15
Y2-S2-064K19,6,584,AS,exp,34,→,right,→,0.7129340996034443,True,27,1,0,15
Y2-S2-064K19,6,585,AS,exp,27,↓,no_key,no_letter,-1.0,False,27,-1,1,16
Y2-S2-064K19,7,586,AS,intra_train,31,→,right,→,1.8880176995880902,True,30,-,-,-
Y2-S2-064K19,7,587,AS,intra_train,32,↑,up,↑,1.125795100349933,True,30,-,-,-
Y2-S2-064K19,7,588,AS,intra_train,25,↓,down,↓,1.507682700175792,True,30,-,-,-
Y2-S2-064K19,7,589,AS,intra_train,37,↑,up,↑,1.085610999725759,True,30,-,-,-
Y2-S2-064K19,7,590,AS,intra_train,42,←,left,←,0.8050071001052856,True,30,-,-,-
Y2-S2-064K19,7,591,AS,exp,36,↑,up,↑,0.7971016997471452,True,20,0,0,0
Y2-S2-064K19,7,592,AS,exp,42,↓,down,↓,0.7540653999894857,True,20,0,0,0
Y2-S2-064K19,7,593,AS,exp,46,↑,up,↑,0.7712071002461016,True,20,1,0,0
Y2-S2-064K19,7,594,AS,exp,49,←,down,↓,0.815209399908781,False,19,-1,1,1
Y2-S2-064K19,7,595,AS,exp,30,↓,down,↓,0.5838564997538924,True,20,-1,0,1
Y2-S2-064K19,7,596,AS,exp,46,↑,up,↑,0.6729661002755165,True,20,-1,0,1
Y2-S2-064K19,7,597,AS,exp,31,→,up,↑,0.7960879001766443,False,20,-1,0,1
Y2-S2-064K19,7,598,AS,exp,47,↓,down,↓,0.805144099984318,True,21,-1,0,1
Y2-S2-064K19,7,599,AS,exp,42,→,right,→,0.7207295000553131,True,21,-1,0,1
Y2-S2-064K19,7,600,AS,exp,26,←,left,←,0.8703089999035001,True,21,1,1,2
Y2-S2-064K19,7,601,AS,exp,41,↑,up,↑,0.992851700168103,True,20,1,0,2
Y2-S2-064K19,7,602,AS,exp,32,↓,down,↓,0.6555467997677624,True,20,1,0,2
Y2-S2-064K19,7,603,AS,exp,34,←,down,↓,1.0177917000837624,False,20,-1,1,3
Y2-S2-064K19,7,604,AS,exp,46,↑,up,↑,0.86066780006513,True,21,-1,0,3
Y2-S2-064K19,7,605,AS,exp,38,↓,up,↑,1.086486800108105,False,21,-1,0,3
Y2-S2-064K19,7,606,AS,exp,47,←,left,←,0.6034892997704446,True,22,-1,0,3
Y2-S2-064K19,7,607,AS,exp,49,→,right,→,0.6278396998532116,True,22,-1,0,3
Y2-S2-064K19,7,608,AS,exp,40,←,right,→,1.0046343998983502,False,22,-1,0,3
Y2-S2-064K19,7,609,AS,exp,48,↑,up,↑,0.6441085003316402,True,23,-1,0,3
Y2-S2-064K19,7,610,AS,exp,41,→,right,→,0.7003178000450134,True,23,-1,0,3
Y2-S2-064K19,7,611,AS,exp,49,↑,up,↑,0.6191952000372112,True,23,1,1,4
Y2-S2-064K19,7,612,AS,exp,25,↓,down,↓,0.9849282996729016,True,22,1,0,4
Y2-S2-064K19,7,613,AS,exp,38,←,right,→,1.156249100342393,False,22,-1,1,5
Y2-S2-064K19,7,614,AS,exp,44,↓,up,↑,0.6663611996918917,False,23,-1,0,5
Y2-S2-064K19,7,615,AS,exp,31,↑,up,↑,0.7354270000942051,True,24,-1,0,5
Y2-S2-064K19,7,616,AS,exp,31,←,left,←,0.5961778997443616,True,24,-1,0,5
Y2-S2-064K19,7,617,AS,exp,48,→,right,→,0.8711163001134992,True,24,1,1,6
Y2-S2-064K19,7,618,AS,exp,35,↑,up,↑,0.7839537998661399,True,23,1,0,6
Y2-S2-064K19,7,619,AS,exp,40,←,up,↑,1.830926200374961,False,23,-1,1,7
Y2-S2-064K19,7,620,AS,exp,32,↑,up,↑,0.7302572000771761,True,24,-1,0,7
Y2-S2-064K19,7,621,AS,exp,43,←,left,←,0.6674293000251055,True,24,-1,0,7
Y2-S2-064K19,7,622,AS,exp,28,→,right,→,1.5787741001695395,True,24,1,1,8
Y2-S2-064K19,7,623,AS,exp,34,↑,left,←,1.862824299838394,False,23,-1,1,9
Y2-S2-064K19,7,624,AS,exp,48,→,right,→,0.6637158999219537,True,24,-1,0,9
Y2-S2-064K19,7,625,AS,exp,42,↓,down,↓,0.9409558000043035,True,24,-1,0,9
Y2-S2-064K19,7,626,AS,exp,26,↑,up,↑,0.9240799001418054,True,24,1,1,10
Y2-S2-064K19,7,627,AS,exp,43,←,left,←,0.7062023999169469,True,23,1,0,10
Y2-S2-064K19,7,628,AS,exp,26,→,no_key,no_letter,-1.0,False,23,-1,1,11
Y2-S2-064K19,7,629,AS,exp,28,↑,left,←,1.0241920999251306,False,24,-1,0,11
Y2-S2-064K19,7,630,AS,exp,42,→,right,→,0.7143541998229921,True,25,-1,0,11
Y2-S2-064K19,7,631,AS,exp,32,↓,down,↓,0.707404900342226,True,25,-1,0,11
Y2-S2-064K19,7,632,AS,exp,25,→,up,↑,1.1120472000911832,False,25,-1,0,11
Y2-S2-064K19,7,633,AS,exp,47,←,left,←,0.8553931000642478,True,26,-1,0,11
Y2-S2-064K19,7,634,AS,exp,33,↓,down,↓,1.5501359002664685,True,26,-1,0,11
Y2-S2-064K19,7,635,AS,exp,35,←,left,←,0.9433170999400318,True,26,1,1,12
Y2-S2-064K19,7,636,AS,exp,27,↓,right,→,0.9270871998742223,False,25,-1,1,13
Y2-S2-064K19,7,637,AS,exp,35,↑,up,↑,0.6307381996884942,True,26,-1,0,13
Y2-S2-064K19,7,638,AS,exp,43,←,right,→,1.244672100059688,False,26,-1,0,13
Y2-S2-064K19,7,639,AS,exp,30,→,right,→,1.110267300158739,True,27,-1,0,13
Y2-S2-064K19,7,640,AS,exp,37,←,left,←,0.7175882998853922,True,27,-1,0,13
Y2-S2-064K19,7,641,AS,exp,45,↑,up,↑,1.08616100018844,True,27,1,1,14
Y2-S2-064K19,7,642,AS,exp,38,↓,down,↓,0.8124941000714898,True,26,1,0,14
Y2-S2-064K19,7,643,AS,exp,29,←,left,←,0.83548319991678,True,26,1,0,14
Y2-S2-064K19,7,644,AS,exp,33,↓,down,↓,0.5674987998791039,True,26,1,0,14
Y2-S2-064K19,7,645,AS,exp,39,→,right,→,0.7807709001936018,True,25,1,0,14
Y2-S2-064K19,7,646,AS,exp,42,↑,up,↑,0.6017940999008715,True,25,1,0,14
Y2-S2-064K19,7,647,AS,exp,34,→,right,→,0.5006972001865506,True,25,1,0,14
Y2-S2-064K19,7,648,AS,exp,42,←,left,←,0.7135287001729012,True,24,1,0,14
Y2-S2-064K19,7,649,AS,exp,34,↓,right,→,0.5004464997909963,False,24,-1,1,15
Y2-S2-064K19,7,650,AS,exp,44,↑,up,↑,0.9362212000414729,True,25,-1,0,15
Y2-S2-064K19,7,651,AS,exp,33,→,up,↑,1.1270110001787543,False,25,-1,0,15
Y2-S2-064K19,7,652,AS,exp,46,↑,up,↑,0.6463017999194562,True,26,-1,0,15
Y2-S2-064K19,7,653,AS,exp,47,→,right,→,0.8389888000674546,True,26,-1,0,15
Y2-S2-064K19,7,654,AS,exp,49,←,left,←,0.5506800999864936,True,26,1,1,16
Y2-S2-064K19,8,655,PS,intra_train,48,↑,up,↑,0.46821069996804,True,18,-,-,-
Y2-S2-064K19,8,656,PS,intra_train,31,→,up,↑,0.8694980996660888,False,18,-,-,-
Y2-S2-064K19,8,657,PS,intra_train,26,↓,down,↓,0.5686646001413465,True,18,-,-,-
Y2-S2-064K19,8,658,PS,intra_train,33,←,left,←,0.5070917997509241,True,18,-,-,-
Y2-S2-064K19,8,659,PS,intra_train,48,→,right,→,0.5531981000676751,True,18,-,-,-
Y2-S2-064K19,8,660,PS,exp,27,↓,up,↑,0.808035199996084,False,12,-1,0,0
Y2-S2-064K19,8,661,PS,exp,38,→,up,↑,0.77626320021227,False,13,-1,0,0
Y2-S2-064K19,8,662,PS,exp,38,↓,right,→,0.767694900278002,False,14,-1,0,0
Y2-S2-064K19,8,663,PS,exp,47,↑,up,↑,0.5321280998177826,True,15,-1,0,0
Y2-S2-064K19,8,664,PS,exp,30,→,right,→,0.5341850002296269,True,15,-1,0,0
Y2-S2-064K19,8,665,PS,exp,35,←,left,←,0.5778014003299177,True,15,1,1,1
Y2-S2-064K19,8,666,PS,exp,32,↑,up,↑,1.029594900086522,True,14,1,0,1
Y2-S2-064K19,8,667,PS,exp,30,←,left,←,0.7557794000022113,True,14,1,0,1
Y2-S2-064K19,8,668,PS,exp,38,↑,up,↑,1.045810999814421,True,14,1,0,1
Y2-S2-064K19,8,669,PS,exp,39,↓,down,↓,0.7743423003703356,True,13,1,0,1
Y2-S2-064K19,8,670,PS,exp,33,↑,up,↑,0.5617279000580311,True,13,1,0,1
Y2-S2-064K19,8,671,PS,exp,38,→,right,→,1.023796800058335,True,13,1,0,1
Y2-S2-064K19,8,672,PS,exp,36,↓,up,↑,0.7883303998969495,False,12,-1,1,2
Y2-S2-064K19,8,673,PS,exp,31,↑,up,↑,0.5145681002177298,True,13,-1,0,2
Y2-S2-064K19,8,674,PS,exp,35,→,left,←,1.218083499930799,False,13,-1,0,2
Y2-S2-064K19,8,675,PS,exp,36,←,left,←,0.7496293997392058,True,14,-1,0,2
Y2-S2-064K19,8,676,PS,exp,40,↑,up,↑,0.662190499715507,True,14,-1,0,2
Y2-S2-064K19,8,677,PS,exp,38,→,right,→,0.6827004002407193,True,14,1,1,3
Y2-S2-064K19,8,678,PS,exp,37,↓,down,↓,0.7389512001536787,True,13,1,0,3
Y2-S2-064K19,8,679,PS,exp,48,↑,up,↑,0.6433350997976959,True,13,1,0,3
Y2-S2-064K19,8,680,PS,exp,32,↓,up,↑,0.8518738998100162,False,13,-1,1,4
Y2-S2-064K19,8,681,PS,exp,30,←,left,←,0.6299663004465401,True,14,-1,0,4
Y2-S2-064K19,8,682,PS,exp,33,→,right,→,0.5509914001449943,True,14,-1,0,4
Y2-S2-064K19,8,683,PS,exp,44,←,no_key,no_letter,-1.0,False,14,-1,0,4
Y2-S2-064K19,8,684,PS,exp,32,→,right,→,0.5057552997022867,True,15,-1,0,4
Y2-S2-064K19,8,685,PS,exp,26,↑,up,↑,0.6159496000036597,True,15,-1,0,4
Y2-S2-064K19,8,686,PS,exp,46,↓,right,→,1.06609410000965,False,15,-1,0,4
Y2-S2-064K19,8,687,PS,exp,40,←,up,↑,1.818503700196743,False,16,-1,0,4
Y2-S2-064K19,8,688,PS,exp,28,↓,up,↑,1.0731319999322295,False,17,-1,0,4
Y2-S2-064K19,8,689,PS,exp,39,↑,up,↑,0.5450976998545229,True,18,-1,0,4
Y2-S2-064K19,8,690,PS,exp,32,↓,down,↓,0.8404505997896194,True,18,-1,0,4
Y2-S2-064K19,8,691,PS,exp,36,↑,down,↓,0.9353414000943303,False,18,-1,0,4
Y2-S2-064K19,8,692,PS,exp,33,←,left,←,0.40068039996549487,True,19,-1,0,4
Y2-S2-064K19,8,693,PS,exp,34,↓,down,↓,0.7371061998419464,True,19,-1,0,4
Y2-S2-064K19,8,694,PS,exp,38,→,left,←,0.4172626002691686,False,19,-1,0,4
Y2-S2-064K19,8,695,PS,exp,38,↑,up,↑,0.5176977999508381,True,20,-1,0,4
Y2-S2-064K19,8,696,PS,exp,32,→,right,→,1.7146557001397014,True,20,-1,0,4
Y2-S2-064K19,8,697,PS,exp,27,↑,up,↑,0.689928499981761,True,20,1,1,5
Y2-S2-064K19,8,698,PS,exp,46,←,left,←,1.765827799681574,True,19,1,0,5
Y2-S2-064K19,8,699,PS,exp,34,↑,up,↑,0.6997247999534011,True,19,1,0,5
Y2-S2-064K19,8,700,PS,exp,40,←,left,←,0.6205172999761999,True,19,1,0,5
Y2-S2-064K19,8,701,PS,exp,50,↓,down,↓,0.7442308999598026,True,18,1,0,5
Y2-S2-064K19,8,702,PS,exp,49,→,right,→,0.6079744999296963,True,18,1,0,5
Y2-S2-064K19,8,703,PS,exp,50,↓,down,↓,0.6506181000731885,True,18,1,0,5
Y2-S2-064K19,8,704,PS,exp,30,←,down,↓,1.1473285998217762,False,17,-1,1,6
Y2-S2-064K19,8,705,PS,exp,45,→,right,→,1.0080101997591555,True,18,-1,0,6
Y2-S2-064K19,8,706,PS,exp,41,←,left,←,0.7158747999928892,True,18,-1,0,6
Y2-S2-064K19,8,707,PS,exp,32,↑,right,→,0.8328710999339819,False,18,-1,0,6
Y2-S2-064K19,8,708,PS,exp,39,↓,down,↓,0.7801492996513844,True,19,-1,0,6
Y2-S2-064K19,8,709,PS,exp,48,↑,up,↑,0.6954724998213351,True,19,-1,0,6
Y2-S2-064K19,8,710,PS,exp,44,←,left,←,0.6461752001196146,True,19,1,1,7
Y2-S2-064K19,8,711,PS,exp,26,↑,up,↑,0.6210417998954654,True,18,1,0,7
Y2-S2-064K19,8,712,PS,exp,39,←,left,←,0.600605099927634,True,18,1,0,7
Y2-S2-064K19,8,713,PS,exp,41,→,left,←,0.49375269981101155,False,18,-1,1,8
Y2-S2-064K19,8,714,PS,exp,41,↓,down,↓,0.9865480000153184,True,19,-1,0,8
Y2-S2-064K19,8,715,PS,exp,25,↑,up,↑,0.6076644002459943,True,19,-1,0,8
Y2-S2-064K19,8,716,PS,exp,42,↓,down,↓,0.833100900053978,True,19,1,1,9
Y2-S2-064K19,8,717,PS,exp,33,↑,up,↑,0.7677497998811305,True,18,1,0,9
Y2-S2-064K19,8,718,PS,exp,27,↓,down,↓,0.8845363999716938,True,18,1,0,9
Y2-S2-064K19,8,719,PS,exp,31,↑,up,↑,1.0483424002304673,True,18,1,0,9
Y2-S2-064K19,8,720,PS,exp,26,→,down,↓,1.10572180012241,False,17,-1,1,10
Y2-S2-064K19,8,721,PS,exp,27,↓,down,↓,0.9785165004432201,True,18,-1,0,10
Y2-S2-064K19,8,722,PS,exp,45,↑,up,↑,0.7355629000812769,True,18,-1,0,10
Y2-S2-064K19,8,723,PS,exp,35,←,up,↑,1.6786305997520685,False,18,-1,0,10
Y2-S2-064K19,8,724,PS,exp,48,↑,up,↑,0.8392309001646936,True,19,-1,0,10
Y2-S2-064K19,8,725,PS,exp,38,←,up,↑,0.8133178995922208,False,19,-1,0,10
Y2-S2-064K19,8,726,PS,exp,32,→,right,→,0.6551461000926793,True,20,-1,0,10
Y2-S2-064K19,8,727,PS,exp,47,↓,right,→,0.8126897001639009,False,20,-1,0,10
Y2-S2-064K19,8,728,PS,exp,25,←,left,←,0.5974773997440934,True,21,-1,0,10
Y2-S2-064K19,8,729,PS,exp,38,↓,down,↓,0.7573885000310838,True,21,-1,0,10
Y2-S2-064K19,8,730,PS,exp,43,↑,up,↑,0.6348882000893354,True,21,1,1,11
Y2-S2-064K19,8,731,PS,exp,49,←,left,←,0.6026631002314389,True,20,1,0,11
Y2-S2-064K19,8,732,PS,exp,42,↓,no_key,no_letter,-1.0,False,20,-1,1,12
Y2-S2-064K19,8,733,PS,exp,43,↑,up,↑,0.607005599886179,True,21,-1,0,12
Y2-S2-064K19,8,734,PS,exp,30,→,right,→,0.7159587000496686,True,21,-1,0,12
Y2-S2-064K19,8,735,PS,exp,41,↓,down,↓,0.5693621998652816,True,21,1,1,13
Y2-S2-064K19,8,736,PS,exp,39,↑,up,↑,1.799750900361687,True,20,1,0,13
Y2-S2-064K19,8,737,PS,exp,25,→,right,→,0.6521855001337826,True,20,1,0,13
Y2-S2-064K19,8,738,PS,exp,44,↑,up,↑,0.844340399838984,True,20,1,0,13
Y2-S2-064K19,8,739,PS,exp,49,→,right,→,0.6212352002039552,True,19,1,0,13
Y2-S2-064K19,8,740,PS,exp,48,↑,up,↑,0.5028809998184443,True,19,1,0,13
Y2-S2-064K19,8,741,PS,exp,35,↓,down,↓,0.8132977997884154,True,19,1,0,13
Y2-S2-064K19,8,742,PS,exp,34,←,left,←,1.4682370000518858,True,18,1,0,13
Y2-S2-064K19,8,743,PS,exp,31,↓,down,↓,0.7501837001182139,True,18,1,0,13
Y2-S2-064K19,8,744,PS,exp,46,↑,up,↑,0.5144595000892878,True,18,1,0,13
Y2-S2-064K19,8,745,PS,exp,33,←,left,←,0.6738189999014139,True,17,1,0,13
Y2-S2-064K19,8,746,PS,exp,49,↓,down,↓,0.5268588997423649,True,17,1,0,13
Y2-S2-064K19,8,747,PS,exp,46,↑,up,↑,0.5360671002417803,True,17,1,0,13
Y2-S2-064K19,8,748,PS,exp,40,→,right,→,0.49409629963338375,True,16,1,0,13
Y2-S2-064K19,8,749,PS,exp,37,←,left,←,0.49103290028870106,True,16,1,0,13
Y2-S2-064K19,8,750,PS,exp,33,→,right,→,0.5091204000636935,True,16,1,0,13
Y2-S2-064K19,8,751,PS,exp,48,←,left,←,0.6098833000287414,True,15,1,0,13
Y2-S2-064K19,8,752,PS,exp,34,↓,right,→,0.9140555001795292,False,15,-1,1,14
Y2-S2-064K19,8,753,PS,exp,34,←,left,←,0.5663606002926826,True,16,-1,0,14
Y2-S2-064K19,8,754,PS,exp,45,↑,right,→,0.757821099832654,False,16,-1,0,14
Y2-S2-064K19,8,755,PS,exp,31,←,right,→,0.7345181996934116,False,17,-1,0,14
Y2-S2-064K19,8,756,PS,exp,47,→,right,→,0.62941600009799,True,18,-1,0,14
Y2-S2-064K19,8,757,PS,exp,47,↓,down,↓,0.9508285000920296,True,18,-1,0,14
Y2-S2-064K19,8,758,PS,exp,45,→,right,→,0.6253890004009008,True,18,1,1,15
Y2-S2-064K19,8,759,PS,exp,27,↓,up,↑,1.6570605002343655,False,17,-1,1,16
