PART_ID,Block_no,Trial_no,Block_type,Trial_type,CSI,Stim_letter,Key_pressed,letter_choose,Rt,Corr,Stimulus Time,Level,Reversal,Revs_count
Y2-S2-070K25,1,1,PS,train,29,→,right,→,1.1116920001804829,True,30,-,-,-
Y2-S2-070K25,1,2,PS,train,34,↓,down,↓,1.121252799872309,True,30,-,-,-
Y2-S2-070K25,1,3,PS,train,25,←,left,←,0.8592795999720693,True,30,-,-,-
Y2-S2-070K25,1,4,PS,train,34,↓,down,↓,1.0535550001077354,True,30,-,-,-
Y2-S2-070K25,1,5,PS,train,37,→,right,→,0.7177987000904977,True,30,-,-,-
Y2-S2-070K25,1,6,PS,train,43,↑,up,↑,1.1713799997232854,True,30,-,-,-
Y2-S2-070K25,1,7,PS,train,50,←,left,←,0.8576495000161231,True,30,-,-,-
Y2-S2-070K25,1,8,PS,train,25,→,right,→,0.6003926997072995,True,30,-,-,-
Y2-S2-070K25,1,9,PS,train,46,↑,up,↑,0.9811317003332078,True,30,-,-,-
Y2-S2-070K25,1,10,PS,train,45,←,left,←,0.9934363998472691,True,30,-,-,-
Y2-S2-070K25,2,11,AS,train,46,→,right,→,2.0013112002052367,True,45,-,-,-
Y2-S2-070K25,2,12,AS,train,26,←,left,←,0.990193699952215,True,45,-,-,-
Y2-S2-070K25,2,13,AS,train,34,↓,down,↓,0.8503306000493467,True,45,-,-,-
Y2-S2-070K25,2,14,AS,train,26,↑,up,↑,1.2217516000382602,True,45,-,-,-
Y2-S2-070K25,2,15,AS,train,32,→,right,→,0.850512099917978,True,45,-,-,-
Y2-S2-070K25,2,16,AS,train,42,←,left,←,0.8505954002030194,True,45,-,-,-
Y2-S2-070K25,2,17,AS,train,47,→,right,→,0.7012062999419868,True,45,-,-,-
Y2-S2-070K25,2,18,AS,train,37,↓,down,↓,1.0266985995694995,True,45,-,-,-
Y2-S2-070K25,2,19,AS,train,37,→,no_key,no_letter,-1.0,False,45,-,-,-
Y2-S2-070K25,2,20,AS,train,41,↑,up,↑,1.1660164999775589,True,45,-,-,-
Y2-S2-070K25,-,21,PS,adaptive,37,→,right,→,0.7362989000976086,True,10,0,0,0
Y2-S2-070K25,-,22,PS,adaptive,50,↑,right,→,1.7144658998586237,False,10,-1,0,0
Y2-S2-070K25,-,23,PS,adaptive,32,↓,left,←,1.0778827997855842,False,11,-1,0,0
Y2-S2-070K25,-,24,PS,adaptive,44,↑,up,↑,1.197728400118649,True,12,-1,0,0
Y2-S2-070K25,-,25,PS,adaptive,42,←,left,←,1.39361899998039,True,12,-1,0,0
Y2-S2-070K25,-,26,PS,adaptive,47,↓,down,↓,0.8327648998238146,True,12,1,1,1
Y2-S2-070K25,-,27,PS,adaptive,27,→,right,→,0.7372377999126911,True,11,1,0,1
Y2-S2-070K25,-,28,PS,adaptive,27,↑,up,↑,0.7597030000761151,True,11,1,0,1
Y2-S2-070K25,-,29,PS,adaptive,48,→,right,→,0.9691548002883792,True,11,1,0,1
Y2-S2-070K25,-,30,PS,adaptive,34,←,left,←,0.6543311001732945,True,10,1,0,1
Y2-S2-070K25,-,31,PS,adaptive,35,↓,down,↓,0.7083593001589179,True,10,1,0,1
Y2-S2-070K25,-,32,PS,adaptive,50,↑,up,↑,0.7667738003656268,True,10,1,0,1
Y2-S2-070K25,-,33,PS,adaptive,49,↓,down,↓,0.8116474999114871,True,9,1,0,1
Y2-S2-070K25,-,34,PS,adaptive,41,←,left,←,0.6428157002665102,True,9,1,0,1
Y2-S2-070K25,-,35,PS,adaptive,40,→,right,→,0.7776552001014352,True,9,1,0,1
Y2-S2-070K25,-,36,PS,adaptive,43,↑,left,←,1.1981286001391709,False,8,-1,1,2
Y2-S2-070K25,-,37,PS,adaptive,48,←,left,←,1.202714600134641,True,9,-1,0,2
Y2-S2-070K25,-,38,PS,adaptive,38,↓,down,↓,0.9676773999817669,True,9,-1,0,2
Y2-S2-070K25,-,39,PS,adaptive,27,↑,up,↑,0.9525745999999344,True,9,1,1,3
Y2-S2-070K25,-,40,PS,adaptive,37,→,right,→,0.7037491002120078,True,8,1,0,3
Y2-S2-070K25,-,41,PS,adaptive,41,↑,up,↑,0.9685386000201106,True,8,1,0,3
Y2-S2-070K25,-,42,PS,adaptive,35,↓,up,↑,1.5622994001023471,False,8,-1,1,4
Y2-S2-070K25,-,43,AS,adaptive,33,←,left,←,1.212842300068587,True,20,0,0,0
Y2-S2-070K25,-,44,AS,adaptive,28,→,right,→,0.796945400070399,True,20,0,0,0
Y2-S2-070K25,-,45,AS,adaptive,45,↑,up,↑,1.4918205002322793,True,20,1,0,0
Y2-S2-070K25,-,46,AS,adaptive,45,↓,down,↓,1.138026099652052,True,19,1,0,0
Y2-S2-070K25,-,47,AS,adaptive,43,←,left,←,0.7438187999650836,True,19,1,0,0
Y2-S2-070K25,-,48,AS,adaptive,45,↑,up,↑,1.3926723999902606,True,19,1,0,0
Y2-S2-070K25,-,49,AS,adaptive,40,→,right,→,1.0367120001465082,True,18,1,0,0
Y2-S2-070K25,-,50,AS,adaptive,36,↑,up,↑,1.238114499952644,True,18,1,0,0
Y2-S2-070K25,-,51,AS,adaptive,43,↓,down,↓,1.022323700133711,True,18,1,0,0
Y2-S2-070K25,-,52,AS,adaptive,49,←,left,←,0.6186705003492534,True,17,1,0,0
Y2-S2-070K25,-,53,AS,adaptive,30,↑,right,→,0.9632039000280201,False,17,-1,1,1
Y2-S2-070K25,-,54,AS,adaptive,48,←,left,←,0.6937998998910189,True,18,-1,0,1
Y2-S2-070K25,-,55,AS,adaptive,35,→,right,→,0.7155100996606052,True,18,-1,0,1
Y2-S2-070K25,-,56,AS,adaptive,46,↑,up,↑,0.8920336998999119,True,18,1,1,2
Y2-S2-070K25,-,57,AS,adaptive,49,→,right,→,0.6570514999330044,True,17,1,0,2
Y2-S2-070K25,-,58,AS,adaptive,50,↓,right,→,0.7984961001202464,False,17,-1,1,3
Y2-S2-070K25,-,59,AS,adaptive,38,←,right,→,1.0599119998514652,False,18,-1,0,3
Y2-S2-070K25,-,60,AS,adaptive,26,↑,left,←,1.1698054000735283,False,19,-1,0,3
Y2-S2-070K25,-,61,AS,adaptive,36,←,left,←,0.8540839003399014,True,20,-1,0,3
Y2-S2-070K25,-,62,AS,adaptive,30,↑,up,↑,0.8251445000059903,True,20,-1,0,3
Y2-S2-070K25,-,63,AS,adaptive,49,↓,down,↓,0.673121599946171,True,20,1,1,4
Y2-S2-070K25,1,64,AS,intra_train,50,←,left,←,0.9813371002674103,True,28,-,-,-
Y2-S2-070K25,1,65,AS,intra_train,50,↑,up,↑,0.8984326999634504,True,28,-,-,-
Y2-S2-070K25,1,66,AS,intra_train,25,←,left,←,0.9281724998727441,True,28,-,-,-
Y2-S2-070K25,1,67,AS,intra_train,48,↓,down,↓,1.0173679003491998,True,28,-,-,-
Y2-S2-070K25,1,68,AS,intra_train,39,↑,up,↑,1.1698019001632929,True,28,-,-,-
Y2-S2-070K25,1,69,AS,exp,49,←,left,←,0.692049500066787,True,19,0,0,0
Y2-S2-070K25,1,70,AS,exp,26,↓,down,↓,0.9061368000693619,True,19,0,0,0
Y2-S2-070K25,1,71,AS,exp,25,←,left,←,1.0674244998954237,True,19,1,0,0
Y2-S2-070K25,1,72,AS,exp,28,↑,up,↑,1.0816784999333322,True,18,1,0,0
Y2-S2-070K25,1,73,AS,exp,39,↓,down,↓,1.1231325999833643,True,18,1,0,0
Y2-S2-070K25,1,74,AS,exp,29,←,left,←,0.9700090996921062,True,18,1,0,0
Y2-S2-070K25,1,75,AS,exp,31,↑,up,↑,0.84947369992733,True,17,1,0,0
Y2-S2-070K25,1,76,AS,exp,41,→,right,→,0.7290230998769403,True,17,1,0,0
Y2-S2-070K25,1,77,AS,exp,35,↑,up,↑,0.643548599909991,True,17,1,0,0
Y2-S2-070K25,1,78,AS,exp,25,→,right,→,1.716457299888134,True,16,1,0,0
Y2-S2-070K25,1,79,AS,exp,45,↓,down,↓,0.9255230999551713,True,16,1,0,0
Y2-S2-070K25,1,80,AS,exp,26,↑,down,↓,1.0588008998893201,False,16,-1,1,1
Y2-S2-070K25,1,81,AS,exp,32,↓,down,↓,0.9564798003993928,True,17,-1,0,1
Y2-S2-070K25,1,82,AS,exp,30,↑,up,↑,0.8742243996821344,True,17,-1,0,1
Y2-S2-070K25,1,83,AS,exp,37,→,right,→,0.6935871001332998,True,17,1,1,2
Y2-S2-070K25,1,84,AS,exp,45,↓,down,↓,0.9355453001335263,True,16,1,0,2
Y2-S2-070K25,1,85,AS,exp,48,↑,down,↓,0.8468405003659427,False,16,-1,1,3
Y2-S2-070K25,1,86,AS,exp,27,→,right,→,0.5704319998621941,True,17,-1,0,3
Y2-S2-070K25,1,87,AS,exp,27,↑,up,↑,0.6759450999088585,True,17,-1,0,3
Y2-S2-070K25,1,88,AS,exp,40,↓,down,↓,0.665993900038302,True,17,1,1,4
Y2-S2-070K25,1,89,AS,exp,43,→,right,→,0.5603143000043929,True,16,1,0,4
Y2-S2-070K25,1,90,AS,exp,41,↓,down,↓,0.8073470001108944,True,16,1,0,4
Y2-S2-070K25,1,91,AS,exp,46,→,right,→,0.6751818996854126,True,16,1,0,4
Y2-S2-070K25,1,92,AS,exp,38,←,right,→,1.4753351998515427,False,15,-1,1,5
Y2-S2-070K25,1,93,AS,exp,50,↑,up,↑,1.177018899936229,True,16,-1,0,5
Y2-S2-070K25,1,94,AS,exp,37,←,left,←,0.7104092999361455,True,16,-1,0,5
Y2-S2-070K25,1,95,AS,exp,45,↑,up,↑,0.6874053999781609,True,16,1,1,6
Y2-S2-070K25,1,96,AS,exp,26,→,right,→,0.9053923999890685,True,15,1,0,6
Y2-S2-070K25,1,97,AS,exp,44,↓,down,↓,0.73904770007357,True,15,1,0,6
Y2-S2-070K25,1,98,AS,exp,26,←,no_key,no_letter,-1.0,False,15,-1,1,7
Y2-S2-070K25,1,99,AS,exp,36,↓,down,↓,1.3489131997339427,True,16,-1,0,7
Y2-S2-070K25,1,100,AS,exp,26,↑,up,↑,0.646104899700731,True,16,-1,0,7
Y2-S2-070K25,1,101,AS,exp,29,←,up,↑,1.0113470000214875,False,16,-1,0,7
Y2-S2-070K25,1,102,AS,exp,40,↑,down,↓,1.369862399995327,False,17,-1,0,7
Y2-S2-070K25,1,103,AS,exp,47,↓,down,↓,0.5462372996844351,True,18,-1,0,7
Y2-S2-070K25,1,104,AS,exp,44,←,left,←,0.849938299972564,True,18,-1,0,7
Y2-S2-070K25,1,105,AS,exp,43,↑,down,↓,0.9278645999729633,False,18,-1,0,7
Y2-S2-070K25,1,106,AS,exp,40,→,right,→,0.9680866999551654,True,19,-1,0,7
Y2-S2-070K25,1,107,AS,exp,40,←,left,←,1.155617699958384,True,19,-1,0,7
Y2-S2-070K25,1,108,AS,exp,41,→,right,→,0.6809847000986338,True,19,1,1,8
Y2-S2-070K25,1,109,AS,exp,35,←,left,←,0.8056375999003649,True,18,1,0,8
Y2-S2-070K25,1,110,AS,exp,31,↓,down,↓,0.8389743999578059,True,18,1,0,8
Y2-S2-070K25,1,111,AS,exp,39,←,left,←,0.6365737002342939,True,18,1,0,8
Y2-S2-070K25,1,112,AS,exp,44,↓,down,↓,0.8785953000187874,True,17,1,0,8
Y2-S2-070K25,1,113,AS,exp,45,↑,up,↑,0.9927592999301851,True,17,1,0,8
Y2-S2-070K25,1,114,AS,exp,31,←,left,←,1.585192899685353,True,17,1,0,8
Y2-S2-070K25,1,115,AS,exp,27,↑,up,↑,1.0098180999048054,True,16,1,0,8
Y2-S2-070K25,1,116,AS,exp,40,↓,down,↓,0.6555681000463665,True,16,1,0,8
Y2-S2-070K25,1,117,AS,exp,36,←,left,←,0.6812424999661744,True,16,1,0,8
Y2-S2-070K25,1,118,AS,exp,31,→,right,→,0.7584811998531222,True,15,1,0,8
Y2-S2-070K25,1,119,AS,exp,26,↓,up,↑,1.2307366002351046,False,15,-1,1,9
Y2-S2-070K25,1,120,AS,exp,46,←,left,←,1.0818722997792065,True,16,-1,0,9
Y2-S2-070K25,1,121,AS,exp,43,↑,up,↑,0.7044730000197887,True,16,-1,0,9
Y2-S2-070K25,1,122,AS,exp,33,↓,down,↓,0.7159979999996722,True,16,1,1,10
Y2-S2-070K25,1,123,AS,exp,26,←,left,←,0.6267658001743257,True,15,1,0,10
Y2-S2-070K25,1,124,AS,exp,43,→,left,←,0.8060345998965204,False,15,-1,1,11
Y2-S2-070K25,1,125,AS,exp,47,←,left,←,0.8537571998313069,True,16,-1,0,11
Y2-S2-070K25,1,126,AS,exp,37,↓,left,←,1.5370132997632027,False,16,-1,0,11
Y2-S2-070K25,1,127,AS,exp,28,←,left,←,0.6805500001646578,True,17,-1,0,11
Y2-S2-070K25,1,128,AS,exp,39,→,left,←,1.158609400037676,False,17,-1,0,11
Y2-S2-070K25,1,129,AS,exp,38,←,right,→,1.3254319997504354,False,18,-1,0,11
Y2-S2-070K25,1,130,AS,exp,49,↑,up,↑,1.4172962000593543,True,19,-1,0,11
Y2-S2-070K25,1,131,AS,exp,35,→,right,→,0.6708671003580093,True,19,-1,0,11
Y2-S2-070K25,1,132,AS,exp,25,←,left,←,0.7995107001625001,True,19,1,1,12
Y2-S2-070K25,1,133,AS,exp,43,↓,down,↓,0.6824587997980416,True,18,1,0,12
Y2-S2-070K25,1,134,AS,exp,27,↑,up,↑,0.753954800311476,True,18,1,0,12
Y2-S2-070K25,1,135,AS,exp,48,←,left,←,0.9887469997629523,True,18,1,0,12
Y2-S2-070K25,1,136,AS,exp,40,→,right,→,0.6137049002572894,True,17,1,0,12
Y2-S2-070K25,1,137,AS,exp,35,↓,up,↑,1.6736542996950448,False,17,-1,1,13
Y2-S2-070K25,1,138,AS,exp,31,→,right,→,1.0267833997495472,True,18,-1,0,13
Y2-S2-070K25,1,139,AS,exp,32,←,left,←,1.2116650003008544,True,18,-1,0,13
Y2-S2-070K25,1,140,AS,exp,37,↑,up,↑,0.9747148002497852,True,18,1,1,14
Y2-S2-070K25,1,141,AS,exp,25,←,left,←,0.7586733996868134,True,17,1,0,14
Y2-S2-070K25,1,142,AS,exp,35,↑,up,↑,0.9154010000638664,True,17,1,0,14
Y2-S2-070K25,1,143,AS,exp,31,→,right,→,0.6239446001127362,True,17,1,0,14
Y2-S2-070K25,1,144,AS,exp,44,↓,up,↑,1.0176936998032033,False,16,-1,1,15
Y2-S2-070K25,1,145,AS,exp,26,↑,up,↑,0.775244299788028,True,17,-1,0,15
Y2-S2-070K25,1,146,AS,exp,36,→,right,→,0.6415432998910546,True,17,-1,0,15
Y2-S2-070K25,1,147,AS,exp,39,←,left,←,0.7093060999177396,True,17,1,1,16
Y2-S2-070K25,2,148,PS,intra_train,40,↓,right,→,0.9897170998156071,False,13,-,-,-
Y2-S2-070K25,2,149,PS,intra_train,41,↑,up,↑,0.8470951002091169,True,13,-,-,-
Y2-S2-070K25,2,150,PS,intra_train,27,←,left,←,1.6431197999045253,True,13,-,-,-
Y2-S2-070K25,2,151,PS,intra_train,35,→,right,→,0.7217192999087274,True,13,-,-,-
Y2-S2-070K25,2,152,PS,intra_train,41,←,left,←,0.6575326998718083,True,13,-,-,-
Y2-S2-070K25,2,153,PS,exp,40,↑,up,↑,0.7777887997217476,True,9,0,0,0
Y2-S2-070K25,2,154,PS,exp,39,→,right,→,1.3473342997021973,True,9,0,0,0
Y2-S2-070K25,2,155,PS,exp,46,↑,up,↑,0.6685637999325991,True,9,1,0,0
Y2-S2-070K25,2,156,PS,exp,44,→,right,→,0.7768806996755302,True,8,1,0,0
Y2-S2-070K25,2,157,PS,exp,41,←,right,→,0.8805819996632636,False,8,-1,1,1
Y2-S2-070K25,2,158,PS,exp,28,→,right,→,0.9286693003959954,True,9,-1,0,1
Y2-S2-070K25,2,159,PS,exp,49,↑,up,↑,0.7680023997090757,True,9,-1,0,1
Y2-S2-070K25,2,160,PS,exp,36,↓,down,↓,0.9905560999177396,True,9,1,1,2
Y2-S2-070K25,2,161,PS,exp,37,↑,right,→,1.1249011997133493,False,8,-1,1,3
Y2-S2-070K25,2,162,PS,exp,28,→,right,→,1.067675800062716,True,9,-1,0,3
Y2-S2-070K25,2,163,PS,exp,35,←,left,←,0.9080512998625636,True,9,-1,0,3
Y2-S2-070K25,2,164,PS,exp,32,↑,up,↑,1.2960402998141944,True,9,1,1,4
Y2-S2-070K25,2,165,PS,exp,40,←,left,←,0.8520602001808584,True,8,1,0,4
Y2-S2-070K25,2,166,PS,exp,50,↑,right,→,1.4263128000311553,False,8,-1,1,5
Y2-S2-070K25,2,167,PS,exp,38,↓,down,↓,0.8604477001354098,True,9,-1,0,5
Y2-S2-070K25,2,168,PS,exp,34,↑,up,↑,0.8750006998889148,True,9,-1,0,5
Y2-S2-070K25,2,169,PS,exp,45,←,right,→,1.2376453001052141,False,9,-1,0,5
Y2-S2-070K25,2,170,PS,exp,48,↑,left,←,1.7039952999912202,False,10,-1,0,5
Y2-S2-070K25,2,171,PS,exp,27,→,right,→,0.8651705998927355,True,11,-1,0,5
Y2-S2-070K25,2,172,PS,exp,47,←,left,←,0.9854466998949647,True,11,-1,0,5
Y2-S2-070K25,2,173,PS,exp,37,↑,up,↑,0.9275801000185311,True,11,1,1,6
Y2-S2-070K25,2,174,PS,exp,26,↓,right,→,0.947581599932164,False,10,-1,1,7
Y2-S2-070K25,2,175,PS,exp,45,↑,no_key,no_letter,-1.0,False,11,-1,0,7
Y2-S2-070K25,2,176,PS,exp,31,↓,down,↓,0.6503094998188317,True,12,-1,0,7
Y2-S2-070K25,2,177,PS,exp,30,←,left,←,0.8988189999945462,True,12,-1,0,7
Y2-S2-070K25,2,178,PS,exp,47,↓,down,↓,0.7911482998169959,True,12,1,1,8
Y2-S2-070K25,2,179,PS,exp,28,→,right,→,0.9707022001966834,True,11,1,0,8
Y2-S2-070K25,2,180,PS,exp,38,↓,down,↓,1.0658402000553906,True,11,1,0,8
Y2-S2-070K25,2,181,PS,exp,29,←,left,←,0.8518187999725342,True,11,1,0,8
Y2-S2-070K25,2,182,PS,exp,46,↓,down,↓,0.6745739998295903,True,10,1,0,8
Y2-S2-070K25,2,183,PS,exp,27,←,left,←,0.7603907003067434,True,10,1,0,8
Y2-S2-070K25,2,184,PS,exp,36,↑,up,↑,0.8198959999717772,True,10,1,0,8
Y2-S2-070K25,2,185,PS,exp,28,→,right,→,0.8027774998918176,True,9,1,0,8
Y2-S2-070K25,2,186,PS,exp,37,↓,down,↓,0.7087512002326548,True,9,1,0,8
Y2-S2-070K25,2,187,PS,exp,26,↑,right,→,0.8854486998170614,False,9,-1,1,9
Y2-S2-070K25,2,188,PS,exp,35,→,right,→,0.6596101997420192,True,10,-1,0,9
Y2-S2-070K25,2,189,PS,exp,44,↑,up,↑,0.8620454999618232,True,10,-1,0,9
Y2-S2-070K25,2,190,PS,exp,29,↓,down,↓,0.7016386999748647,True,10,1,1,10
Y2-S2-070K25,2,191,PS,exp,44,←,left,←,0.7305568000301719,True,9,1,0,10
Y2-S2-070K25,2,192,PS,exp,45,↓,down,↓,0.6765836998820305,True,9,1,0,10
Y2-S2-070K25,2,193,PS,exp,30,←,left,←,0.994877400342375,True,9,1,0,10
Y2-S2-070K25,2,194,PS,exp,30,→,right,→,0.8498053001239896,True,8,1,0,10
Y2-S2-070K25,2,195,PS,exp,42,↓,down,↓,0.9225676995702088,True,8,1,0,10
Y2-S2-070K25,2,196,PS,exp,34,→,right,→,0.8466635001823306,True,8,1,0,10
Y2-S2-070K25,2,197,PS,exp,25,↓,right,→,0.7919855997897685,False,7,-1,1,11
Y2-S2-070K25,2,198,PS,exp,50,←,left,←,0.8371688998304307,True,8,-1,0,11
Y2-S2-070K25,2,199,PS,exp,44,→,right,→,0.8228365001268685,True,8,-1,0,11
Y2-S2-070K25,2,200,PS,exp,39,←,left,←,0.7214230000972748,True,8,1,1,12
Y2-S2-070K25,2,201,PS,exp,34,↑,up,↑,0.8638005000539124,True,7,1,0,12
Y2-S2-070K25,2,202,PS,exp,39,→,right,→,0.7534288000315428,True,7,1,0,12
Y2-S2-070K25,2,203,PS,exp,45,←,left,←,0.9835624997504056,True,7,1,0,12
Y2-S2-070K25,2,204,PS,exp,45,→,left,←,1.063507600221783,False,6,-1,1,13
Y2-S2-070K25,2,205,PS,exp,33,←,left,←,0.922692600172013,True,7,-1,0,13
Y2-S2-070K25,2,206,PS,exp,42,→,right,→,1.4066892000846565,True,7,-1,0,13
Y2-S2-070K25,2,207,PS,exp,38,←,right,→,0.8424550001509488,False,7,-1,0,13
Y2-S2-070K25,2,208,PS,exp,47,↓,right,→,1.04372589988634,False,8,-1,0,13
Y2-S2-070K25,2,209,PS,exp,46,←,left,←,0.8105425001122057,True,9,-1,0,13
Y2-S2-070K25,2,210,PS,exp,32,↓,down,↓,0.962083799764514,True,9,-1,0,13
Y2-S2-070K25,2,211,PS,exp,50,↑,up,↑,1.0047403001226485,True,9,1,1,14
Y2-S2-070K25,2,212,PS,exp,46,←,left,←,0.869964400306344,True,8,1,0,14
Y2-S2-070K25,2,213,PS,exp,40,↑,left,←,0.9915855000726879,False,8,-1,1,15
Y2-S2-070K25,2,214,PS,exp,25,←,right,→,0.980532499961555,False,9,-1,0,15
Y2-S2-070K25,2,215,PS,exp,41,↓,down,↓,0.7593286000192165,True,10,-1,0,15
Y2-S2-070K25,2,216,PS,exp,28,↑,up,↑,0.9283413998782635,True,10,-1,0,15
Y2-S2-070K25,2,217,PS,exp,39,↓,down,↓,0.8471957999281585,True,10,1,1,16
Y2-S2-070K25,3,218,PS,intra_train,37,←,left,←,0.7658421997912228,True,13,-,-,-
Y2-S2-070K25,3,219,PS,intra_train,41,↑,up,↑,0.8325531003065407,True,13,-,-,-
Y2-S2-070K25,3,220,PS,intra_train,34,→,right,→,0.5916774999350309,True,13,-,-,-
Y2-S2-070K25,3,221,PS,intra_train,35,↑,up,↑,0.8022423000074923,True,13,-,-,-
Y2-S2-070K25,3,222,PS,intra_train,28,↓,down,↓,0.6988758002407849,True,13,-,-,-
Y2-S2-070K25,3,223,PS,exp,38,←,right,→,0.765574200078845,False,9,-1,0,0
Y2-S2-070K25,3,224,PS,exp,44,↓,left,←,0.9433176997117698,False,10,-1,0,0
Y2-S2-070K25,3,225,PS,exp,40,→,right,→,0.7819804004393518,True,11,-1,0,0
Y2-S2-070K25,3,226,PS,exp,50,↑,up,↑,0.7449827999807894,True,11,-1,0,0
Y2-S2-070K25,3,227,PS,exp,43,↓,down,↓,0.6916121998801827,True,11,1,1,1
Y2-S2-070K25,3,228,PS,exp,49,↑,up,↑,0.7030783998779953,True,10,1,0,1
Y2-S2-070K25,3,229,PS,exp,26,←,left,←,0.5604209001176059,True,10,1,0,1
Y2-S2-070K25,3,230,PS,exp,50,↓,down,↓,0.6011545001529157,True,10,1,0,1
Y2-S2-070K25,3,231,PS,exp,28,←,right,→,0.6575636002235115,False,9,-1,1,2
Y2-S2-070K25,3,232,PS,exp,36,↓,down,↓,0.620592599734664,True,10,-1,0,2
Y2-S2-070K25,3,233,PS,exp,38,↑,up,↑,0.6648908001370728,True,10,-1,0,2
Y2-S2-070K25,3,234,PS,exp,31,→,right,→,0.6026510996744037,True,10,1,1,3
Y2-S2-070K25,3,235,PS,exp,42,↑,up,↑,0.6046338002197444,True,9,1,0,3
Y2-S2-070K25,3,236,PS,exp,49,→,right,→,0.6044364999979734,True,9,1,0,3
Y2-S2-070K25,3,237,PS,exp,39,↓,down,↓,0.7198824002407491,True,9,1,0,3
Y2-S2-070K25,3,238,PS,exp,25,→,right,→,0.5128373000770807,True,8,1,0,3
Y2-S2-070K25,3,239,PS,exp,35,←,left,←,0.5810644002631307,True,8,1,0,3
Y2-S2-070K25,3,240,PS,exp,40,↑,right,→,0.7633026000112295,False,8,-1,1,4
Y2-S2-070K25,3,241,PS,exp,30,→,right,→,0.6509711998514831,True,9,-1,0,4
Y2-S2-070K25,3,242,PS,exp,47,←,right,→,0.8284647003747523,False,9,-1,0,4
Y2-S2-070K25,3,243,PS,exp,37,↑,right,→,0.9358990001492202,False,10,-1,0,4
Y2-S2-070K25,3,244,PS,exp,33,↓,down,↓,0.7790103000588715,True,11,-1,0,4
Y2-S2-070K25,3,245,PS,exp,33,↑,up,↑,1.1184302000328898,True,11,-1,0,4
Y2-S2-070K25,3,246,PS,exp,38,↓,right,→,0.9197982000187039,False,11,-1,0,4
Y2-S2-070K25,3,247,PS,exp,45,→,right,→,0.6353719998151064,True,12,-1,0,4
Y2-S2-070K25,3,248,PS,exp,31,↓,left,←,1.096244900021702,False,12,-1,0,4
Y2-S2-070K25,3,249,PS,exp,38,→,right,→,0.5945826000533998,True,13,-1,0,4
Y2-S2-070K25,3,250,PS,exp,34,←,left,←,0.646726300008595,True,13,-1,0,4
Y2-S2-070K25,3,251,PS,exp,44,→,right,→,0.53152159973979,True,13,1,1,5
Y2-S2-070K25,3,252,PS,exp,42,↑,up,↑,0.599964200053364,True,12,1,0,5
Y2-S2-070K25,3,253,PS,exp,26,→,right,→,0.5645250002853572,True,12,1,0,5
Y2-S2-070K25,3,254,PS,exp,45,←,right,→,0.798031700309366,False,12,-1,1,6
Y2-S2-070K25,3,255,PS,exp,44,↓,down,↓,0.7875937996432185,True,13,-1,0,6
Y2-S2-070K25,3,256,PS,exp,48,↑,no_key,no_letter,-1.0,False,13,-1,0,6
Y2-S2-070K25,3,257,PS,exp,38,→,right,→,0.5024876999668777,True,14,-1,0,6
Y2-S2-070K25,3,258,PS,exp,41,←,left,←,0.7759559000842273,True,14,-1,0,6
Y2-S2-070K25,3,259,PS,exp,44,→,right,→,0.7418130999431014,True,14,1,1,7
Y2-S2-070K25,3,260,PS,exp,26,↑,up,↑,0.7590149999596179,True,13,1,0,7
Y2-S2-070K25,3,261,PS,exp,36,↓,down,↓,0.7373783001676202,True,13,1,0,7
Y2-S2-070K25,3,262,PS,exp,46,→,right,→,0.736328300088644,True,13,1,0,7
Y2-S2-070K25,3,263,PS,exp,40,↓,right,→,0.7537316000089049,False,12,-1,1,8
Y2-S2-070K25,3,264,PS,exp,34,→,left,←,0.9391409000381827,False,13,-1,0,8
Y2-S2-070K25,3,265,PS,exp,40,↑,up,↑,0.7830822002142668,True,14,-1,0,8
Y2-S2-070K25,3,266,PS,exp,37,→,right,→,0.5961994999088347,True,14,-1,0,8
Y2-S2-070K25,3,267,PS,exp,40,←,left,←,0.5724635999649763,True,14,1,1,9
Y2-S2-070K25,3,268,PS,exp,31,↑,up,↑,0.6175784999504685,True,13,1,0,9
Y2-S2-070K25,3,269,PS,exp,43,↓,down,↓,0.6733884001150727,True,13,1,0,9
Y2-S2-070K25,3,270,PS,exp,48,→,right,→,0.5515713002532721,True,13,1,0,9
Y2-S2-070K25,3,271,PS,exp,45,↓,up,↑,1.7137947999872267,False,12,-1,1,10
Y2-S2-070K25,3,272,PS,exp,47,↑,no_key,no_letter,-1.0,False,13,-1,0,10
Y2-S2-070K25,3,273,PS,exp,45,←,left,←,0.6584960999898612,True,14,-1,0,10
Y2-S2-070K25,3,274,PS,exp,28,↑,up,↑,0.7534614996984601,True,14,-1,0,10
Y2-S2-070K25,3,275,PS,exp,42,↓,right,→,0.8678252003155649,False,14,-1,0,10
Y2-S2-070K25,3,276,PS,exp,49,↑,no_key,no_letter,-1.0,False,15,-1,0,10
Y2-S2-070K25,3,277,PS,exp,45,→,right,→,0.508546800352633,True,16,-1,0,10
Y2-S2-070K25,3,278,PS,exp,29,←,left,←,0.6075526997447014,True,16,-1,0,10
Y2-S2-070K25,3,279,PS,exp,43,↓,down,↓,0.6283176997676492,True,16,1,1,11
Y2-S2-070K25,3,280,PS,exp,40,→,right,→,0.5937164998613298,True,15,1,0,11
Y2-S2-070K25,3,281,PS,exp,30,←,left,←,0.655985000077635,True,15,1,0,11
Y2-S2-070K25,3,282,PS,exp,44,↓,down,↓,0.6727637001313269,True,15,1,0,11
Y2-S2-070K25,3,283,PS,exp,42,↑,up,↑,0.6537159997969866,True,14,1,0,11
Y2-S2-070K25,3,284,PS,exp,27,↓,down,↓,0.7178562004119158,True,14,1,0,11
Y2-S2-070K25,3,285,PS,exp,49,→,right,→,0.5331697002984583,True,14,1,0,11
Y2-S2-070K25,3,286,PS,exp,28,↑,up,↑,0.6228875000961125,True,13,1,0,11
Y2-S2-070K25,3,287,PS,exp,36,↓,down,↓,0.6532511999830604,True,13,1,0,11
Y2-S2-070K25,3,288,PS,exp,36,↑,up,↑,0.6764719001948833,True,13,1,0,11
Y2-S2-070K25,3,289,PS,exp,49,←,left,←,0.6372210998088121,True,12,1,0,11
Y2-S2-070K25,3,290,PS,exp,35,↑,up,↑,0.6603286997415125,True,12,1,0,11
Y2-S2-070K25,3,291,PS,exp,28,→,right,→,0.6918152002617717,True,12,1,0,11
Y2-S2-070K25,3,292,PS,exp,48,←,left,←,0.830955300014466,True,11,1,0,11
Y2-S2-070K25,3,293,PS,exp,37,→,right,→,0.9032606002874672,True,11,1,0,11
Y2-S2-070K25,3,294,PS,exp,39,↓,down,↓,0.6919212997891009,True,11,1,0,11
Y2-S2-070K25,3,295,PS,exp,31,←,right,→,1.018261999823153,False,10,-1,1,12
Y2-S2-070K25,3,296,PS,exp,35,↑,up,↑,0.7995507000014186,True,11,-1,0,12
Y2-S2-070K25,3,297,PS,exp,25,→,left,←,1.0944150001741946,False,11,-1,0,12
Y2-S2-070K25,3,298,PS,exp,38,↑,no_key,no_letter,-1.0,False,12,-1,0,12
Y2-S2-070K25,3,299,PS,exp,28,←,down,↓,1.2284189001657069,False,13,-1,0,12
Y2-S2-070K25,3,300,PS,exp,49,↓,down,↓,0.6448899996466935,True,14,-1,0,12
Y2-S2-070K25,3,301,PS,exp,29,←,left,←,0.8245198996737599,True,14,-1,0,12
Y2-S2-070K25,3,302,PS,exp,25,↓,down,↓,0.6056651999242604,True,14,1,1,13
Y2-S2-070K25,3,303,PS,exp,45,←,left,←,0.7922056000679731,True,13,1,0,13
Y2-S2-070K25,3,304,PS,exp,41,→,right,→,0.7238552002236247,True,13,1,0,13
Y2-S2-070K25,3,305,PS,exp,26,↑,up,↑,1.614118400029838,True,13,1,0,13
Y2-S2-070K25,3,306,PS,exp,40,→,right,→,0.5971683003008366,True,12,1,0,13
Y2-S2-070K25,3,307,PS,exp,32,↑,up,↑,0.7306122998706996,True,12,1,0,13
Y2-S2-070K25,3,308,PS,exp,28,↓,down,↓,0.6343990997411311,True,12,1,0,13
Y2-S2-070K25,3,309,PS,exp,26,→,right,→,0.5068079996854067,True,11,1,0,13
Y2-S2-070K25,3,310,PS,exp,33,←,left,←,0.5433967998251319,True,11,1,0,13
Y2-S2-070K25,3,311,PS,exp,39,↓,down,↓,0.6208472000434995,True,11,1,0,13
Y2-S2-070K25,3,312,PS,exp,43,←,left,←,0.5237087002024055,True,10,1,0,13
Y2-S2-070K25,3,313,PS,exp,46,↑,up,↑,0.7355456999503076,True,10,1,0,13
Y2-S2-070K25,3,314,PS,exp,50,→,right,→,0.602976500056684,True,10,1,0,13
Y2-S2-070K25,3,315,PS,exp,33,↓,down,↓,0.6122787999920547,True,9,1,0,13
Y2-S2-070K25,3,316,PS,exp,47,↑,up,↑,0.6297606001608074,True,9,1,0,13
Y2-S2-070K25,3,317,PS,exp,36,→,right,→,0.8242592001333833,True,9,1,0,13
Y2-S2-070K25,3,318,PS,exp,41,←,right,→,0.8565429002046585,False,8,-1,1,14
Y2-S2-070K25,3,319,PS,exp,47,↓,left,←,0.8628241000697017,False,9,-1,0,14
Y2-S2-070K25,3,320,PS,exp,49,←,left,←,0.7526352996937931,True,10,-1,0,14
Y2-S2-070K25,3,321,PS,exp,32,↑,up,↑,0.7346916999667883,True,10,-1,0,14
Y2-S2-070K25,3,322,PS,exp,42,↓,down,↓,0.6773127997294068,True,10,1,1,15
Y2-S2-070K25,3,323,PS,exp,25,←,left,←,0.6443398999981582,True,9,1,0,15
Y2-S2-070K25,3,324,PS,exp,27,↑,up,↑,0.6124897003173828,True,9,1,0,15
Y2-S2-070K25,3,325,PS,exp,43,→,right,→,0.619599400088191,True,9,1,0,15
Y2-S2-070K25,3,326,PS,exp,29,↑,up,↑,0.6556334001943469,True,8,1,0,15
Y2-S2-070K25,3,327,PS,exp,48,←,left,←,0.6047646999359131,True,8,1,0,15
Y2-S2-070K25,3,328,PS,exp,30,↓,right,→,0.652403499931097,False,8,-1,1,16
Y2-S2-070K25,4,329,AS,intra_train,39,↑,up,↑,1.1061286996118724,True,28,-,-,-
Y2-S2-070K25,4,330,AS,intra_train,43,←,left,←,0.9517704001627862,True,28,-,-,-
Y2-S2-070K25,4,331,AS,intra_train,29,→,right,→,0.8927378002554178,True,28,-,-,-
Y2-S2-070K25,4,332,AS,intra_train,25,↑,up,↑,0.8615521001629531,True,28,-,-,-
Y2-S2-070K25,4,333,AS,intra_train,39,↓,down,↓,0.8944196999073029,True,28,-,-,-
Y2-S2-070K25,4,334,AS,exp,39,→,left,←,0.8742029997520149,False,19,-1,0,0
Y2-S2-070K25,4,335,AS,exp,48,↑,up,↑,0.6360738999210298,True,20,-1,0,0
Y2-S2-070K25,4,336,AS,exp,50,→,right,→,0.7372808000072837,True,20,-1,0,0
Y2-S2-070K25,4,337,AS,exp,25,↓,down,↓,0.8262550001963973,True,20,1,1,1
Y2-S2-070K25,4,338,AS,exp,31,←,left,←,0.8489768002182245,True,19,1,0,1
Y2-S2-070K25,4,339,AS,exp,27,↓,down,↓,0.720093599986285,True,19,1,0,1
Y2-S2-070K25,4,340,AS,exp,35,←,left,←,0.6986042996868491,True,19,1,0,1
Y2-S2-070K25,4,341,AS,exp,48,→,right,→,0.7385795000009239,True,18,1,0,1
Y2-S2-070K25,4,342,AS,exp,37,←,left,←,0.615771200042218,True,18,1,0,1
Y2-S2-070K25,4,343,AS,exp,45,↑,up,↑,0.949482399970293,True,18,1,0,1
Y2-S2-070K25,4,344,AS,exp,26,→,right,→,0.5834844000637531,True,17,1,0,1
Y2-S2-070K25,4,345,AS,exp,31,↑,down,↓,0.8883628998883069,False,17,-1,1,2
Y2-S2-070K25,4,346,AS,exp,36,→,right,→,0.4954216000624001,True,18,-1,0,2
Y2-S2-070K25,4,347,AS,exp,41,↑,right,→,1.4185657002963126,False,18,-1,0,2
Y2-S2-070K25,4,348,AS,exp,48,←,up,↑,1.4843111000955105,False,19,-1,0,2
Y2-S2-070K25,4,349,AS,exp,25,↑,up,↑,0.823316500056535,True,20,-1,0,2
Y2-S2-070K25,4,350,AS,exp,38,↓,down,↓,1.0510943997651339,True,20,-1,0,2
Y2-S2-070K25,4,351,AS,exp,45,→,right,→,0.507958700414747,True,20,1,1,3
Y2-S2-070K25,4,352,AS,exp,50,↓,up,↑,1.2108400999568403,False,19,-1,1,4
Y2-S2-070K25,4,353,AS,exp,47,←,left,←,0.7578378999605775,True,20,-1,0,4
Y2-S2-070K25,4,354,AS,exp,40,→,right,→,0.7538282000459731,True,20,-1,0,4
Y2-S2-070K25,4,355,AS,exp,30,↑,up,↑,0.8872513002716005,True,20,1,1,5
Y2-S2-070K25,4,356,AS,exp,29,←,left,←,0.5400770003907382,True,19,1,0,5
Y2-S2-070K25,4,357,AS,exp,38,↑,up,↑,0.7661629002541304,True,19,1,0,5
Y2-S2-070K25,4,358,AS,exp,39,→,right,→,0.8103677001781762,True,19,1,0,5
Y2-S2-070K25,4,359,AS,exp,41,←,left,←,0.7726278998889029,True,18,1,0,5
Y2-S2-070K25,4,360,AS,exp,48,↑,up,↑,0.6475290996022522,True,18,1,0,5
Y2-S2-070K25,4,361,AS,exp,37,↓,down,↓,1.2644055997952819,True,18,1,0,5
Y2-S2-070K25,4,362,AS,exp,48,→,right,→,0.8712352998554707,True,17,1,0,5
Y2-S2-070K25,4,363,AS,exp,26,↑,up,↑,1.1482522999867797,True,17,1,0,5
Y2-S2-070K25,4,364,AS,exp,37,↓,down,↓,1.0313810999505222,True,17,1,0,5
Y2-S2-070K25,4,365,AS,exp,26,↑,up,↑,0.647225100081414,True,16,1,0,5
Y2-S2-070K25,4,366,AS,exp,47,↓,down,↓,0.7515398999676108,True,16,1,0,5
Y2-S2-070K25,4,367,AS,exp,47,↑,right,→,1.0511229000985622,False,16,-1,1,6
Y2-S2-070K25,4,368,AS,exp,39,←,left,←,0.5784346996806562,True,17,-1,0,6
Y2-S2-070K25,4,369,AS,exp,29,↑,up,↑,0.7886927002109587,True,17,-1,0,6
Y2-S2-070K25,4,370,AS,exp,38,↓,down,↓,0.708173000253737,True,17,1,1,7
Y2-S2-070K25,4,371,AS,exp,34,←,right,→,1.1448709997348487,False,16,-1,1,8
Y2-S2-070K25,4,372,AS,exp,41,↑,up,↑,0.6065227002836764,True,17,-1,0,8
Y2-S2-070K25,4,373,AS,exp,33,←,left,←,1.0108111998997629,True,17,-1,0,8
Y2-S2-070K25,4,374,AS,exp,34,↑,down,↓,1.06775109982118,False,17,-1,0,8
Y2-S2-070K25,4,375,AS,exp,33,→,right,→,0.6372634000144899,True,18,-1,0,8
Y2-S2-070K25,4,376,AS,exp,34,↓,left,←,1.0895306002348661,False,18,-1,0,8
Y2-S2-070K25,4,377,AS,exp,32,→,right,→,0.5565296001732349,True,19,-1,0,8
Y2-S2-070K25,4,378,AS,exp,47,←,left,←,0.5964009002782404,True,19,-1,0,8
Y2-S2-070K25,4,379,AS,exp,40,→,right,→,0.5079876999370754,True,19,1,1,9
Y2-S2-070K25,4,380,AS,exp,25,↑,up,↑,0.5860027996823192,True,18,1,0,9
Y2-S2-070K25,4,381,AS,exp,26,↓,down,↓,0.7615616000257432,True,18,1,0,9
Y2-S2-070K25,4,382,AS,exp,35,↑,up,↑,0.7661667000502348,True,18,1,0,9
Y2-S2-070K25,4,383,AS,exp,33,←,left,←,0.5630451999604702,True,17,1,0,9
Y2-S2-070K25,4,384,AS,exp,35,↑,down,↓,0.8804404004476964,False,17,-1,1,10
Y2-S2-070K25,4,385,AS,exp,42,→,up,↑,1.1419451995752752,False,18,-1,0,10
Y2-S2-070K25,4,386,AS,exp,30,↑,up,↑,0.6553431996144354,True,19,-1,0,10
Y2-S2-070K25,4,387,AS,exp,43,←,left,←,0.8570379000157118,True,19,-1,0,10
Y2-S2-070K25,4,388,AS,exp,38,→,right,→,0.7569989999756217,True,19,1,1,11
Y2-S2-070K25,4,389,AS,exp,42,↓,down,↓,0.6550251003354788,True,18,1,0,11
Y2-S2-070K25,4,390,AS,exp,41,→,right,→,0.6400708998553455,True,18,1,0,11
Y2-S2-070K25,4,391,AS,exp,30,←,left,←,0.6161495996639132,True,18,1,0,11
Y2-S2-070K25,4,392,AS,exp,33,→,right,→,0.5547345001250505,True,17,1,0,11
Y2-S2-070K25,4,393,AS,exp,30,↓,down,↓,0.6434898003935814,True,17,1,0,11
Y2-S2-070K25,4,394,AS,exp,37,←,right,→,0.924051699694246,False,17,-1,1,12
Y2-S2-070K25,4,395,AS,exp,36,↑,up,↑,0.6103133000433445,True,18,-1,0,12
Y2-S2-070K25,4,396,AS,exp,39,←,left,←,0.7153217997401953,True,18,-1,0,12
Y2-S2-070K25,4,397,AS,exp,38,→,right,→,0.4759404002688825,True,18,1,1,13
Y2-S2-070K25,4,398,AS,exp,38,←,left,←,0.46900789998471737,True,17,1,0,13
Y2-S2-070K25,4,399,AS,exp,41,→,right,→,0.5277108000591397,True,17,1,0,13
Y2-S2-070K25,4,400,AS,exp,47,←,down,↓,1.136101999785751,False,17,-1,1,14
Y2-S2-070K25,4,401,AS,exp,25,→,right,→,0.6594982999376953,True,18,-1,0,14
Y2-S2-070K25,4,402,AS,exp,48,↓,up,↑,0.9342553000897169,False,18,-1,0,14
Y2-S2-070K25,4,403,AS,exp,45,←,right,→,0.8837835001759231,False,19,-1,0,14
Y2-S2-070K25,4,404,AS,exp,34,→,left,←,1.1830098000355065,False,20,-1,0,14
Y2-S2-070K25,4,405,AS,exp,50,↑,up,↑,0.6788586997427046,True,21,-1,0,14
Y2-S2-070K25,4,406,AS,exp,30,→,right,→,0.6339026000350714,True,21,-1,0,14
Y2-S2-070K25,4,407,AS,exp,26,↑,up,↑,0.9993437002412975,True,21,1,1,15
Y2-S2-070K25,4,408,AS,exp,47,←,left,←,0.8051922000013292,True,20,1,0,15
Y2-S2-070K25,4,409,AS,exp,30,↑,up,↑,0.7180516999214888,True,20,1,0,15
Y2-S2-070K25,4,410,AS,exp,43,←,left,←,0.6001318995840847,True,20,1,0,15
Y2-S2-070K25,4,411,AS,exp,46,→,right,→,0.8197840000502765,True,19,1,0,15
Y2-S2-070K25,4,412,AS,exp,28,↓,down,↓,0.653057100251317,True,19,1,0,15
Y2-S2-070K25,4,413,AS,exp,36,→,no_key,no_letter,-1.0,False,19,-1,1,16
Y2-S2-070K25,5,414,AS,intra_train,35,↑,up,↑,1.0465318001806736,True,28,-,-,-
Y2-S2-070K25,5,415,AS,intra_train,32,↓,down,↓,0.6543870000168681,True,28,-,-,-
Y2-S2-070K25,5,416,AS,intra_train,48,↑,up,↑,0.7113884999416769,True,28,-,-,-
Y2-S2-070K25,5,417,AS,intra_train,28,→,right,→,0.7742907996289432,True,28,-,-,-
Y2-S2-070K25,5,418,AS,intra_train,33,↓,down,↓,0.65481310011819,True,28,-,-,-
Y2-S2-070K25,5,419,AS,exp,29,←,left,←,0.5098051000386477,True,19,0,0,0
Y2-S2-070K25,5,420,AS,exp,39,↑,up,↑,0.6437856000848114,True,19,0,0,0
Y2-S2-070K25,5,421,AS,exp,36,←,left,←,0.852155499625951,True,19,1,0,0
Y2-S2-070K25,5,422,AS,exp,49,→,right,→,0.6891975002363324,True,18,1,0,0
Y2-S2-070K25,5,423,AS,exp,38,↑,up,↑,0.7825266998261213,True,18,1,0,0
Y2-S2-070K25,5,424,AS,exp,47,←,left,←,0.795408200006932,True,18,1,0,0
Y2-S2-070K25,5,425,AS,exp,47,→,left,←,0.7638970999978483,False,17,-1,1,1
Y2-S2-070K25,5,426,AS,exp,42,↑,up,↑,0.8649373999796808,True,18,-1,0,1
Y2-S2-070K25,5,427,AS,exp,31,↓,down,↓,0.5084118000231683,True,18,-1,0,1
Y2-S2-070K25,5,428,AS,exp,50,→,right,→,0.9304586998187006,True,18,1,1,2
Y2-S2-070K25,5,429,AS,exp,30,↑,up,↑,0.928814799990505,True,17,1,0,2
Y2-S2-070K25,5,430,AS,exp,27,→,right,→,0.6833476000465453,True,17,1,0,2
Y2-S2-070K25,5,431,AS,exp,25,↑,up,↑,0.6355371000245214,True,17,1,0,2
Y2-S2-070K25,5,432,AS,exp,28,→,right,→,0.4481758000329137,True,16,1,0,2
Y2-S2-070K25,5,433,AS,exp,45,←,left,←,0.7666353001259267,True,16,1,0,2
Y2-S2-070K25,5,434,AS,exp,49,↓,down,↓,0.6185885001905262,True,16,1,0,2
Y2-S2-070K25,5,435,AS,exp,34,←,left,←,0.5355230001732707,True,15,1,0,2
Y2-S2-070K25,5,436,AS,exp,31,↓,down,↓,0.6970596997998655,True,15,1,0,2
Y2-S2-070K25,5,437,AS,exp,50,→,right,→,0.4609254999086261,True,15,1,0,2
Y2-S2-070K25,5,438,AS,exp,47,←,left,←,0.7059541000053287,True,14,1,0,2
Y2-S2-070K25,5,439,AS,exp,47,→,right,→,0.8850208995863795,True,14,1,0,2
Y2-S2-070K25,5,440,AS,exp,28,↑,left,←,1.2769710002467036,False,14,-1,1,3
Y2-S2-070K25,5,441,AS,exp,31,←,no_key,no_letter,-1.0,False,15,-1,0,3
Y2-S2-070K25,5,442,AS,exp,44,↓,down,↓,0.6250526998192072,True,16,-1,0,3
Y2-S2-070K25,5,443,AS,exp,40,↑,down,↓,0.8608494997024536,False,16,-1,0,3
Y2-S2-070K25,5,444,AS,exp,37,→,right,→,0.6339996000751853,True,17,-1,0,3
Y2-S2-070K25,5,445,AS,exp,27,←,right,→,1.0488292002119124,False,17,-1,0,3
Y2-S2-070K25,5,446,AS,exp,28,→,right,→,0.8678609002381563,True,18,-1,0,3
Y2-S2-070K25,5,447,AS,exp,27,↓,down,↓,0.7786365998908877,True,18,-1,0,3
Y2-S2-070K25,5,448,AS,exp,36,↑,up,↑,0.7032930999994278,True,18,1,1,4
Y2-S2-070K25,5,449,AS,exp,33,↓,down,↓,1.109122300054878,True,17,1,0,4
Y2-S2-070K25,5,450,AS,exp,40,→,right,→,0.8580482001416385,True,17,1,0,4
Y2-S2-070K25,5,451,AS,exp,27,←,left,←,0.8377996999770403,True,17,1,0,4
Y2-S2-070K25,5,452,AS,exp,35,↑,down,↓,1.1569149997085333,False,16,-1,1,5
Y2-S2-070K25,5,453,AS,exp,28,↓,down,↓,0.6871684999205172,True,17,-1,0,5
Y2-S2-070K25,5,454,AS,exp,26,→,left,←,0.8120745997875929,False,17,-1,0,5
Y2-S2-070K25,5,455,AS,exp,33,↑,up,↑,1.1956124999560416,True,18,-1,0,5
Y2-S2-070K25,5,456,AS,exp,42,←,left,←,1.051316499710083,True,18,-1,0,5
Y2-S2-070K25,5,457,AS,exp,39,↓,down,↓,1.084957899991423,True,18,1,1,6
Y2-S2-070K25,5,458,AS,exp,48,←,right,→,0.900821499992162,False,17,-1,1,7
Y2-S2-070K25,5,459,AS,exp,42,↓,down,↓,0.7625877000391483,True,18,-1,0,7
Y2-S2-070K25,5,460,AS,exp,30,←,left,←,0.4828556999564171,True,18,-1,0,7
Y2-S2-070K25,5,461,AS,exp,42,→,right,→,0.7353540002368391,True,18,1,1,8
Y2-S2-070K25,5,462,AS,exp,44,↓,down,↓,0.618232199922204,True,17,1,0,8
Y2-S2-070K25,5,463,AS,exp,37,←,left,←,0.5242774998769164,True,17,1,0,8
Y2-S2-070K25,5,464,AS,exp,35,→,right,→,0.628746900241822,True,17,1,0,8
Y2-S2-070K25,5,465,AS,exp,42,↓,down,↓,0.6948509002104402,True,16,1,0,8
Y2-S2-070K25,5,466,AS,exp,45,→,right,→,0.475745199713856,True,16,1,0,8
Y2-S2-070K25,5,467,AS,exp,29,←,left,←,0.7969757998362184,True,16,1,0,8
Y2-S2-070K25,5,468,AS,exp,44,→,right,→,0.6354339001700282,True,15,1,0,8
Y2-S2-070K25,5,469,AS,exp,42,↓,down,↓,0.6100713000632823,True,15,1,0,8
Y2-S2-070K25,5,470,AS,exp,33,→,right,→,0.7118909996934235,True,15,1,0,8
Y2-S2-070K25,5,471,AS,exp,37,←,left,←,0.9516226998530328,True,14,1,0,8
Y2-S2-070K25,5,472,AS,exp,27,→,down,↓,1.4377140998840332,False,14,-1,1,9
Y2-S2-070K25,5,473,AS,exp,37,↑,right,→,1.4034640998579562,False,15,-1,0,9
Y2-S2-070K25,5,474,AS,exp,25,↓,no_key,no_letter,-1.0,False,16,-1,0,9
Y2-S2-070K25,5,475,AS,exp,30,→,left,←,1.0315391002222896,False,17,-1,0,9
Y2-S2-070K25,5,476,AS,exp,50,←,left,←,0.5595646998845041,True,18,-1,0,9
Y2-S2-070K25,5,477,AS,exp,49,↑,up,↑,0.7583833998069167,True,18,-1,0,9
Y2-S2-070K25,5,478,AS,exp,43,→,right,→,0.5828919000923634,True,18,1,1,10
Y2-S2-070K25,5,479,AS,exp,38,↓,down,↓,0.643926499877125,True,17,1,0,10
Y2-S2-070K25,5,480,AS,exp,45,↑,up,↑,0.6643166998401284,True,17,1,0,10
Y2-S2-070K25,5,481,AS,exp,35,←,left,←,0.6470516002736986,True,17,1,0,10
Y2-S2-070K25,5,482,AS,exp,43,→,right,→,0.49934889981523156,True,16,1,0,10
Y2-S2-070K25,5,483,AS,exp,27,↑,up,↑,0.640451299957931,True,16,1,0,10
Y2-S2-070K25,5,484,AS,exp,40,→,right,→,0.8523736000061035,True,16,1,0,10
Y2-S2-070K25,5,485,AS,exp,34,↓,up,↑,1.0724733001552522,False,15,-1,1,11
Y2-S2-070K25,5,486,AS,exp,47,↑,down,↓,1.000488799996674,False,16,-1,0,11
Y2-S2-070K25,5,487,AS,exp,29,↓,right,→,1.211266199592501,False,17,-1,0,11
Y2-S2-070K25,5,488,AS,exp,28,↑,up,↑,0.8397541996091604,True,18,-1,0,11
Y2-S2-070K25,5,489,AS,exp,50,→,right,→,1.0285879001021385,True,18,-1,0,11
Y2-S2-070K25,5,490,AS,exp,27,↑,up,↑,0.9977325000800192,True,18,1,1,12
Y2-S2-070K25,5,491,AS,exp,28,↓,down,↓,1.6796419997699559,True,17,1,0,12
Y2-S2-070K25,5,492,AS,exp,35,→,left,←,0.9570436999201775,False,17,-1,1,13
Y2-S2-070K25,5,493,AS,exp,35,↑,up,↑,0.7112139002420008,True,18,-1,0,13
Y2-S2-070K25,5,494,AS,exp,34,←,left,←,0.688742300029844,True,18,-1,0,13
Y2-S2-070K25,5,495,AS,exp,49,→,right,→,0.7648891997523606,True,18,1,1,14
Y2-S2-070K25,5,496,AS,exp,50,←,right,→,0.712777900043875,False,17,-1,1,15
Y2-S2-070K25,5,497,AS,exp,37,→,right,→,0.5348221999593079,True,18,-1,0,15
Y2-S2-070K25,5,498,AS,exp,49,↓,down,↓,1.0111320996657014,True,18,-1,0,15
Y2-S2-070K25,5,499,AS,exp,40,←,left,←,0.5859065996482968,True,18,1,1,16
Y2-S2-070K25,6,500,PS,intra_train,32,↑,up,↑,0.7971854000352323,True,13,-,-,-
Y2-S2-070K25,6,501,PS,intra_train,33,←,left,←,1.2212995998561382,True,13,-,-,-
Y2-S2-070K25,6,502,PS,intra_train,38,↑,up,↑,0.7120374999940395,True,13,-,-,-
Y2-S2-070K25,6,503,PS,intra_train,38,→,right,→,0.8648975999094546,True,13,-,-,-
Y2-S2-070K25,6,504,PS,intra_train,42,↑,up,↑,0.7397827003151178,True,13,-,-,-
Y2-S2-070K25,6,505,PS,exp,27,←,right,→,1.1789099001325667,False,9,-1,0,0
Y2-S2-070K25,6,506,PS,exp,25,↑,up,↑,0.7148559000343084,True,10,-1,0,0
Y2-S2-070K25,6,507,PS,exp,40,↓,up,↑,1.1215449003502727,False,10,-1,0,0
Y2-S2-070K25,6,508,PS,exp,32,↑,right,→,0.7450425000861287,False,11,-1,0,0
Y2-S2-070K25,6,509,PS,exp,44,→,right,→,0.8149127997457981,True,12,-1,0,0
Y2-S2-070K25,6,510,PS,exp,41,↓,down,↓,0.779716799966991,True,12,-1,0,0
Y2-S2-070K25,6,511,PS,exp,42,←,left,←,0.6714150998741388,True,12,1,1,1
Y2-S2-070K25,6,512,PS,exp,41,→,right,→,0.5690294001251459,True,11,1,0,1
Y2-S2-070K25,6,513,PS,exp,36,↑,right,→,0.7244154997169971,False,11,-1,1,2
Y2-S2-070K25,6,514,PS,exp,38,→,up,↑,1.0634701000526547,False,12,-1,0,2
Y2-S2-070K25,6,515,PS,exp,43,↑,up,↑,0.9131303997710347,True,13,-1,0,2
Y2-S2-070K25,6,516,PS,exp,44,→,right,→,0.6329589001834393,True,13,-1,0,2
Y2-S2-070K25,6,517,PS,exp,42,↓,down,↓,0.6479875999502838,True,13,1,1,3
Y2-S2-070K25,6,518,PS,exp,43,→,right,→,0.5152873997576535,True,12,1,0,3
Y2-S2-070K25,6,519,PS,exp,29,↑,up,↑,1.0425956002436578,True,12,1,0,3
Y2-S2-070K25,6,520,PS,exp,34,↓,down,↓,0.7804129999130964,True,12,1,0,3
Y2-S2-070K25,6,521,PS,exp,38,↑,right,→,1.236575299873948,False,11,-1,1,4
Y2-S2-070K25,6,522,PS,exp,47,→,right,→,0.4786364999599755,True,12,-1,0,4
Y2-S2-070K25,6,523,PS,exp,25,↑,up,↑,0.7194667002186179,True,12,-1,0,4
Y2-S2-070K25,6,524,PS,exp,42,←,left,←,0.8698760000988841,True,12,1,1,5
Y2-S2-070K25,6,525,PS,exp,43,↓,right,→,0.6317059001885355,False,11,-1,1,6
Y2-S2-070K25,6,526,PS,exp,45,→,right,→,0.6046695001423359,True,12,-1,0,6
Y2-S2-070K25,6,527,PS,exp,41,↓,down,↓,0.750462600030005,True,12,-1,0,6
Y2-S2-070K25,6,528,PS,exp,40,←,left,←,0.4887493997812271,True,12,1,1,7
Y2-S2-070K25,6,529,PS,exp,26,→,right,→,0.36209069984033704,True,11,1,0,7
Y2-S2-070K25,6,530,PS,exp,49,↓,down,↓,0.7030996000394225,True,11,1,0,7
Y2-S2-070K25,6,531,PS,exp,50,←,left,←,0.6015352001413703,True,11,1,0,7
Y2-S2-070K25,6,532,PS,exp,50,→,right,→,0.40239399997517467,True,10,1,0,7
Y2-S2-070K25,6,533,PS,exp,25,↓,down,↓,0.6135532003827393,True,10,1,0,7
Y2-S2-070K25,6,534,PS,exp,41,→,right,→,0.5072788996621966,True,10,1,0,7
Y2-S2-070K25,6,535,PS,exp,32,↓,down,↓,0.5407014996744692,True,9,1,0,7
Y2-S2-070K25,6,536,PS,exp,49,→,right,→,0.5267819003202021,True,9,1,0,7
Y2-S2-070K25,6,537,PS,exp,49,←,left,←,0.5231471001170576,True,9,1,0,7
Y2-S2-070K25,6,538,PS,exp,26,↓,right,→,0.641049699857831,False,8,-1,1,8
Y2-S2-070K25,6,539,PS,exp,35,→,right,→,0.778158700093627,True,9,-1,0,8
Y2-S2-070K25,6,540,PS,exp,38,↑,up,↑,0.8783061001449823,True,9,-1,0,8
Y2-S2-070K25,6,541,PS,exp,33,↓,up,↑,0.7851778999902308,False,9,-1,0,8
Y2-S2-070K25,6,542,PS,exp,40,→,right,→,0.5805969000793993,True,10,-1,0,8
Y2-S2-070K25,6,543,PS,exp,33,↑,right,→,0.6755264000967145,False,10,-1,0,8
Y2-S2-070K25,6,544,PS,exp,41,←,left,←,0.5377867999486625,True,11,-1,0,8
Y2-S2-070K25,6,545,PS,exp,44,↑,up,↑,0.6128755998797715,True,11,-1,0,8
Y2-S2-070K25,6,546,PS,exp,30,↓,down,↓,0.8015224998816848,True,11,1,1,9
Y2-S2-070K25,6,547,PS,exp,36,↑,up,↑,0.5842613000422716,True,10,1,0,9
Y2-S2-070K25,6,548,PS,exp,50,→,right,→,0.510716600343585,True,10,1,0,9
Y2-S2-070K25,6,549,PS,exp,47,↓,right,→,0.6709685996174812,False,10,-1,1,10
Y2-S2-070K25,6,550,PS,exp,49,↑,left,←,0.7621647999621928,False,11,-1,0,10
Y2-S2-070K25,6,551,PS,exp,43,↓,down,↓,0.7005317998118699,True,12,-1,0,10
Y2-S2-070K25,6,552,PS,exp,28,↑,up,↑,0.5535418000072241,True,12,-1,0,10
Y2-S2-070K25,6,553,PS,exp,42,←,left,←,0.5092682000249624,True,12,1,1,11
Y2-S2-070K25,6,554,PS,exp,35,↓,down,↓,0.8051275997422636,True,11,1,0,11
Y2-S2-070K25,6,555,PS,exp,46,←,left,←,0.5102111999876797,True,11,1,0,11
Y2-S2-070K25,6,556,PS,exp,50,↑,up,↑,0.6344091999344528,True,11,1,0,11
Y2-S2-070K25,6,557,PS,exp,29,↓,down,↓,0.6516040000133216,True,10,1,0,11
Y2-S2-070K25,6,558,PS,exp,25,→,right,→,0.6965040001086891,True,10,1,0,11
Y2-S2-070K25,6,559,PS,exp,38,↓,down,↓,0.5679947002790868,True,10,1,0,11
Y2-S2-070K25,6,560,PS,exp,33,→,right,→,0.5018879999406636,True,9,1,0,11
Y2-S2-070K25,6,561,PS,exp,48,↓,down,↓,0.5997077003121376,True,9,1,0,11
Y2-S2-070K25,6,562,PS,exp,30,→,right,→,0.5276545002125204,True,9,1,0,11
Y2-S2-070K25,6,563,PS,exp,48,←,no_key,no_letter,-1.0,False,8,-1,1,12
Y2-S2-070K25,6,564,PS,exp,43,→,right,→,0.5376875000074506,True,9,-1,0,12
Y2-S2-070K25,6,565,PS,exp,47,↑,up,↑,0.7053745999000967,True,9,-1,0,12
Y2-S2-070K25,6,566,PS,exp,42,→,right,→,0.5945346001535654,True,9,1,1,13
Y2-S2-070K25,6,567,PS,exp,48,←,right,→,0.6676636999472976,False,8,-1,1,14
Y2-S2-070K25,6,568,PS,exp,30,↓,down,↓,0.6847970001399517,True,9,-1,0,14
Y2-S2-070K25,6,569,PS,exp,34,→,right,→,0.5383767997846007,True,9,-1,0,14
Y2-S2-070K25,6,570,PS,exp,30,←,left,←,0.5470707002095878,True,9,1,1,15
Y2-S2-070K25,6,571,PS,exp,33,↓,down,↓,0.5871151997707784,True,8,1,0,15
Y2-S2-070K25,6,572,PS,exp,48,←,right,→,0.5635290001519024,False,8,-1,1,16
Y2-S2-070K25,7,573,PS,intra_train,45,↑,right,→,1.144191199913621,False,13,-,-,-
Y2-S2-070K25,7,574,PS,intra_train,31,↓,down,↓,0.647308100014925,True,13,-,-,-
Y2-S2-070K25,7,575,PS,intra_train,25,→,right,→,0.5363452001474798,True,13,-,-,-
Y2-S2-070K25,7,576,PS,intra_train,50,↓,down,↓,0.6693779001943767,True,13,-,-,-
Y2-S2-070K25,7,577,PS,intra_train,31,→,right,→,0.54606580035761,True,13,-,-,-
Y2-S2-070K25,7,578,PS,exp,31,↓,down,↓,0.5929270996712148,True,9,0,0,0
Y2-S2-070K25,7,579,PS,exp,34,←,left,←,0.49566130014136434,True,9,0,0,0
Y2-S2-070K25,7,580,PS,exp,47,↓,right,→,0.5722472001798451,False,9,-1,0,0
Y2-S2-070K25,7,581,PS,exp,46,←,left,←,0.4880738998763263,True,10,-1,0,0
Y2-S2-070K25,7,582,PS,exp,30,→,right,→,0.4719677004031837,True,10,-1,0,0
Y2-S2-070K25,7,583,PS,exp,40,↑,up,↑,0.5693637998774648,True,10,1,1,1
Y2-S2-070K25,7,584,PS,exp,47,←,right,→,0.7338788001798093,False,9,-1,1,2
Y2-S2-070K25,7,585,PS,exp,49,↓,right,→,0.8786244997754693,False,10,-1,0,2
Y2-S2-070K25,7,586,PS,exp,36,↑,up,↑,0.5915752002038062,True,11,-1,0,2
Y2-S2-070K25,7,587,PS,exp,32,←,left,←,0.5564661002717912,True,11,-1,0,2
Y2-S2-070K25,7,588,PS,exp,34,→,right,→,0.5328261000104249,True,11,1,1,3
Y2-S2-070K25,7,589,PS,exp,26,↑,right,→,1.126386699732393,False,10,-1,1,4
Y2-S2-070K25,7,590,PS,exp,39,↓,down,↓,0.9234286001883447,True,11,-1,0,4
Y2-S2-070K25,7,591,PS,exp,45,→,up,↑,1.303495300002396,False,11,-1,0,4
Y2-S2-070K25,7,592,PS,exp,36,↑,up,↑,0.9402282000519335,True,12,-1,0,4
Y2-S2-070K25,7,593,PS,exp,38,←,left,←,0.5592690999619663,True,12,-1,0,4
Y2-S2-070K25,7,594,PS,exp,39,↑,up,↑,0.5534492000006139,True,12,1,1,5
Y2-S2-070K25,7,595,PS,exp,49,←,left,←,0.5427692998200655,True,11,1,0,5
Y2-S2-070K25,7,596,PS,exp,27,↑,up,↑,0.731814400292933,True,11,1,0,5
Y2-S2-070K25,7,597,PS,exp,26,←,up,↑,0.710748199839145,False,11,-1,1,6
Y2-S2-070K25,7,598,PS,exp,41,↓,down,↓,0.6305940998718143,True,12,-1,0,6
Y2-S2-070K25,7,599,PS,exp,48,→,right,→,0.5114172999747097,True,12,-1,0,6
Y2-S2-070K25,7,600,PS,exp,44,↑,up,↑,0.5588211002759635,True,12,1,1,7
Y2-S2-070K25,7,601,PS,exp,35,←,left,←,0.5773605997674167,True,11,1,0,7
Y2-S2-070K25,7,602,PS,exp,29,↓,down,↓,0.6558286999352276,True,11,1,0,7
Y2-S2-070K25,7,603,PS,exp,39,→,right,→,0.4657794996164739,True,11,1,0,7
Y2-S2-070K25,7,604,PS,exp,50,↓,down,↓,0.6914555998519063,True,10,1,0,7
Y2-S2-070K25,7,605,PS,exp,41,→,left,←,0.7051554000936449,False,10,-1,1,8
Y2-S2-070K25,7,606,PS,exp,31,←,right,→,0.7488375999964774,False,11,-1,0,8
Y2-S2-070K25,7,607,PS,exp,50,→,right,→,0.5452366000972688,True,12,-1,0,8
Y2-S2-070K25,7,608,PS,exp,29,←,left,←,0.9683195999823511,True,12,-1,0,8
Y2-S2-070K25,7,609,PS,exp,26,↑,up,↑,0.6296255998313427,True,12,1,1,9
Y2-S2-070K25,7,610,PS,exp,39,←,right,→,0.5298092002049088,False,11,-1,1,10
Y2-S2-070K25,7,611,PS,exp,29,↓,down,↓,0.5987197002395988,True,12,-1,0,10
Y2-S2-070K25,7,612,PS,exp,34,→,right,→,0.556776000186801,True,12,-1,0,10
Y2-S2-070K25,7,613,PS,exp,50,↑,up,↑,0.6248095999471843,True,12,1,1,11
Y2-S2-070K25,7,614,PS,exp,28,←,left,←,0.5386895001865923,True,11,1,0,11
Y2-S2-070K25,7,615,PS,exp,26,→,right,→,0.43309110030531883,True,11,1,0,11
Y2-S2-070K25,7,616,PS,exp,47,←,right,→,0.6585666001774371,False,11,-1,1,12
Y2-S2-070K25,7,617,PS,exp,26,→,right,→,0.7326732003130019,True,12,-1,0,12
Y2-S2-070K25,7,618,PS,exp,50,↓,down,↓,0.6241283002309501,True,12,-1,0,12
Y2-S2-070K25,7,619,PS,exp,28,←,left,←,0.5535135995596647,True,12,1,1,13
Y2-S2-070K25,7,620,PS,exp,36,↓,down,↓,0.6744427997618914,True,11,1,0,13
Y2-S2-070K25,7,621,PS,exp,49,↑,up,↑,0.7464317996054888,True,11,1,0,13
Y2-S2-070K25,7,622,PS,exp,34,→,right,→,0.744609700050205,True,11,1,0,13
Y2-S2-070K25,7,623,PS,exp,31,↑,right,→,0.7491382001899183,False,10,-1,1,14
Y2-S2-070K25,7,624,PS,exp,26,↓,down,↓,0.6084063001908362,True,11,-1,0,14
Y2-S2-070K25,7,625,PS,exp,38,→,right,→,0.568079300224781,True,11,-1,0,14
Y2-S2-070K25,7,626,PS,exp,34,↑,up,↑,0.7425556997768581,True,11,1,1,15
Y2-S2-070K25,7,627,PS,exp,26,↓,left,←,0.7709576999768615,False,10,-1,1,16
Y2-S2-070K25,8,628,AS,intra_train,28,→,right,→,0.7076511001214385,True,28,-,-,-
Y2-S2-070K25,8,629,AS,intra_train,29,↓,down,↓,0.8538140999153256,True,28,-,-,-
Y2-S2-070K25,8,630,AS,intra_train,50,→,right,→,0.8332365998066962,True,28,-,-,-
Y2-S2-070K25,8,631,AS,intra_train,39,↓,down,↓,0.7236640001647174,True,28,-,-,-
Y2-S2-070K25,8,632,AS,intra_train,30,→,right,→,0.7139900997281075,True,28,-,-,-
Y2-S2-070K25,8,633,AS,exp,32,↓,down,↓,1.1057351999916136,True,19,0,0,0
Y2-S2-070K25,8,634,AS,exp,36,→,right,→,0.7560203997418284,True,19,0,0,0
Y2-S2-070K25,8,635,AS,exp,49,↓,left,←,1.0065275998786092,False,19,-1,0,0
Y2-S2-070K25,8,636,AS,exp,27,←,left,←,0.5211387001909316,True,20,-1,0,0
Y2-S2-070K25,8,637,AS,exp,38,→,right,→,0.5038534002378583,True,20,-1,0,0
Y2-S2-070K25,8,638,AS,exp,50,↑,up,↑,0.664268100168556,True,20,1,1,1
Y2-S2-070K25,8,639,AS,exp,32,→,right,→,0.5622879997827113,True,19,1,0,1
Y2-S2-070K25,8,640,AS,exp,25,↑,up,↑,0.8409830001182854,True,19,1,0,1
Y2-S2-070K25,8,641,AS,exp,36,→,right,→,0.5190738001838326,True,19,1,0,1
Y2-S2-070K25,8,642,AS,exp,36,←,right,→,1.4712641001679003,False,18,-1,1,2
Y2-S2-070K25,8,643,AS,exp,26,↑,up,↑,0.8107281001284719,True,19,-1,0,2
Y2-S2-070K25,8,644,AS,exp,39,→,right,→,0.5728430999442935,True,19,-1,0,2
Y2-S2-070K25,8,645,AS,exp,44,↑,up,↑,0.6249131998047233,True,19,1,1,3
Y2-S2-070K25,8,646,AS,exp,42,←,left,←,0.5005572997033596,True,18,1,0,3
Y2-S2-070K25,8,647,AS,exp,29,→,right,→,0.5646045999601483,True,18,1,0,3
Y2-S2-070K25,8,648,AS,exp,33,←,left,←,0.5443221000023186,True,18,1,0,3
Y2-S2-070K25,8,649,AS,exp,49,→,right,→,0.7495589000172913,True,17,1,0,3
Y2-S2-070K25,8,650,AS,exp,34,↓,down,↓,0.6439022999256849,True,17,1,0,3
Y2-S2-070K25,8,651,AS,exp,33,←,left,←,0.5648345998488367,True,17,1,0,3
Y2-S2-070K25,8,652,AS,exp,47,↓,up,↑,0.9502439997158945,False,16,-1,1,4
Y2-S2-070K25,8,653,AS,exp,32,←,left,←,0.5371548999100924,True,17,-1,0,4
Y2-S2-070K25,8,654,AS,exp,33,→,right,→,0.7241775002330542,True,17,-1,0,4
Y2-S2-070K25,8,655,AS,exp,34,←,left,←,0.5741939996369183,True,17,1,1,5
Y2-S2-070K25,8,656,AS,exp,35,↑,up,↑,0.6365930996835232,True,16,1,0,5
Y2-S2-070K25,8,657,AS,exp,45,←,right,→,0.8737150002270937,False,16,-1,1,6
Y2-S2-070K25,8,658,AS,exp,34,↑,down,↓,0.7577059003524482,False,17,-1,0,6
Y2-S2-070K25,8,659,AS,exp,45,←,left,←,0.5742921000346541,True,18,-1,0,6
Y2-S2-070K25,8,660,AS,exp,48,→,right,→,0.8017122000455856,True,18,-1,0,6
Y2-S2-070K25,8,661,AS,exp,41,↓,down,↓,0.7863653004169464,True,18,1,1,7
Y2-S2-070K25,8,662,AS,exp,33,→,right,→,0.5540787000209093,True,17,1,0,7
Y2-S2-070K25,8,663,AS,exp,42,↑,down,↓,1.0363360000774264,False,17,-1,1,8
Y2-S2-070K25,8,664,AS,exp,25,←,right,→,0.9501781999133527,False,18,-1,0,8
Y2-S2-070K25,8,665,AS,exp,30,→,right,→,0.6775295999832451,True,19,-1,0,8
Y2-S2-070K25,8,666,AS,exp,28,↑,up,↑,0.6217604000121355,True,19,-1,0,8
Y2-S2-070K25,8,667,AS,exp,34,↓,down,↓,0.6628550998866558,True,19,1,1,9
Y2-S2-070K25,8,668,AS,exp,31,←,left,←,0.5400525000877678,True,18,1,0,9
Y2-S2-070K25,8,669,AS,exp,43,↑,up,↑,0.8233416001312435,True,18,1,0,9
Y2-S2-070K25,8,670,AS,exp,30,↓,down,↓,0.8753428002819419,True,18,1,0,9
Y2-S2-070K25,8,671,AS,exp,32,↑,up,↑,0.5836101998575032,True,17,1,0,9
Y2-S2-070K25,8,672,AS,exp,50,↓,down,↓,0.5896515003405511,True,17,1,0,9
Y2-S2-070K25,8,673,AS,exp,40,←,right,→,0.7836112999357283,False,17,-1,1,10
Y2-S2-070K25,8,674,AS,exp,31,→,right,→,0.611463500186801,True,18,-1,0,10
Y2-S2-070K25,8,675,AS,exp,27,↓,down,↓,0.8394226003438234,True,18,-1,0,10
Y2-S2-070K25,8,676,AS,exp,50,→,right,→,1.0065577002242208,True,18,1,1,11
Y2-S2-070K25,8,677,AS,exp,44,↓,left,←,0.9821789003908634,False,17,-1,1,12
Y2-S2-070K25,8,678,AS,exp,35,←,left,←,0.8334393003024161,True,18,-1,0,12
Y2-S2-070K25,8,679,AS,exp,43,↑,up,↑,0.6502906000241637,True,18,-1,0,12
Y2-S2-070K25,8,680,AS,exp,38,↓,down,↓,0.7116693002171814,True,18,1,1,13
Y2-S2-070K25,8,681,AS,exp,25,↑,up,↑,0.6656363001093268,True,17,1,0,13
Y2-S2-070K25,8,682,AS,exp,43,↓,down,↓,0.6189233995974064,True,17,1,0,13
Y2-S2-070K25,8,683,AS,exp,36,←,left,←,0.8642823998816311,True,17,1,0,13
Y2-S2-070K25,8,684,AS,exp,29,↑,up,↑,0.9265527999959886,True,16,1,0,13
Y2-S2-070K25,8,685,AS,exp,25,←,left,←,0.6303750998340547,True,16,1,0,13
Y2-S2-070K25,8,686,AS,exp,29,↓,up,↑,0.932873799931258,False,16,-1,1,14
Y2-S2-070K25,8,687,AS,exp,46,←,right,→,0.8786468002945185,False,17,-1,0,14
Y2-S2-070K25,8,688,AS,exp,42,↓,up,↑,0.8085976000875235,False,18,-1,0,14
Y2-S2-070K25,8,689,AS,exp,37,→,right,→,0.674671099986881,True,19,-1,0,14
Y2-S2-070K25,8,690,AS,exp,30,←,left,←,0.7572503001429141,True,19,-1,0,14
Y2-S2-070K25,8,691,AS,exp,49,→,right,→,0.7316411002539098,True,19,1,1,15
Y2-S2-070K25,8,692,AS,exp,46,↑,up,↑,0.7273013000376523,True,18,1,0,15
Y2-S2-070K25,8,693,AS,exp,29,↓,down,↓,0.7137787998653948,True,18,1,0,15
Y2-S2-070K25,8,694,AS,exp,35,←,up,↑,1.2089089001528919,False,18,-1,1,16
