PART_ID,Block_no,Trial_no,Block_type,Trial_type,CSI,Stim_letter,Key_pressed,letter_choose,Rt,Corr,Stimulus Time,Level,Reversal,Revs_count
Y2-S2-118K19,1,1,PS,train,40,↑,up,↑,0.7110385000123642,True,30,-,-,-
Y2-S2-118K19,1,2,PS,train,27,←,left,←,0.5672581000253558,True,30,-,-,-
Y2-S2-118K19,1,3,PS,train,27,↓,down,↓,0.6340298000141047,True,30,-,-,-
Y2-S2-118K19,1,4,PS,train,28,←,left,←,0.5506188999861479,True,30,-,-,-
Y2-S2-118K19,1,5,PS,train,42,↑,up,↑,0.567182699975092,True,30,-,-,-
Y2-S2-118K19,1,6,PS,train,25,→,right,→,0.40098189999116585,True,30,-,-,-
Y2-S2-118K19,1,7,PS,train,44,↑,no_key,no_letter,-1.0,False,30,-,-,-
Y2-S2-118K19,1,8,PS,train,42,→,right,→,0.5671934999991208,True,30,-,-,-
Y2-S2-118K19,1,9,PS,train,41,↓,down,↓,1.5338185000000522,True,30,-,-,-
Y2-S2-118K19,1,10,PS,train,34,←,left,←,0.6175652000238188,True,30,-,-,-
Y2-S2-118K19,2,11,AS,train,29,↓,down,↓,0.9565825000172481,True,45,-,-,-
Y2-S2-118K19,2,12,AS,train,29,←,left,←,0.4341662000515498,True,45,-,-,-
Y2-S2-118K19,2,13,AS,train,33,↓,down,↓,0.7507194000063464,True,45,-,-,-
Y2-S2-118K19,2,14,AS,train,48,→,right,→,0.5177518999553286,True,45,-,-,-
Y2-S2-118K19,2,15,AS,train,44,↑,up,↑,0.517672699992545,True,45,-,-,-
Y2-S2-118K19,2,16,AS,train,50,→,right,→,0.5508609999669716,True,45,-,-,-
Y2-S2-118K19,2,17,AS,train,32,↓,down,↓,0.6344686999800615,True,45,-,-,-
Y2-S2-118K19,2,18,AS,train,45,↑,up,↑,0.7015466999728233,True,45,-,-,-
Y2-S2-118K19,2,19,AS,train,25,↓,down,↓,0.601161599974148,True,45,-,-,-
Y2-S2-118K19,2,20,AS,train,42,↑,up,↑,0.717669100034982,True,45,-,-,-
Y2-S2-118K19,-,21,PS,adaptive,49,←,right,→,1.0784191999700852,False,10,-1,0,0
Y2-S2-118K19,-,22,PS,adaptive,29,↓,down,↓,0.6425396999693476,True,11,-1,0,0
Y2-S2-118K19,-,23,PS,adaptive,35,←,left,←,0.5780175999971107,True,11,-1,0,0
Y2-S2-118K19,-,24,PS,adaptive,31,→,left,←,0.7712067000102252,False,11,-1,0,0
Y2-S2-118K19,-,25,PS,adaptive,38,↑,up,↑,0.435155900020618,True,12,-1,0,0
Y2-S2-118K19,-,26,PS,adaptive,37,←,left,←,0.6371377999894321,True,12,-1,0,0
Y2-S2-118K19,-,27,PS,adaptive,44,↑,up,↑,0.5971312000183389,True,12,1,1,1
Y2-S2-118K19,-,28,PS,adaptive,36,↓,down,↓,0.7052090000361204,True,11,1,0,1
Y2-S2-118K19,-,29,PS,adaptive,35,↑,up,↑,0.40854390000458807,True,11,1,0,1
Y2-S2-118K19,-,30,PS,adaptive,33,→,right,→,0.45625579997431487,True,11,1,0,1
Y2-S2-118K19,-,31,PS,adaptive,38,↑,left,←,1.0179143999703228,False,10,-1,1,2
Y2-S2-118K19,-,32,PS,adaptive,45,←,left,←,0.46625940001104027,True,11,-1,0,2
Y2-S2-118K19,-,33,PS,adaptive,37,↑,left,←,0.9156156000099145,False,11,-1,0,2
Y2-S2-118K19,-,34,PS,adaptive,44,↓,down,↓,0.6457275000284426,True,12,-1,0,2
Y2-S2-118K19,-,35,PS,adaptive,27,↑,up,↑,0.4915387000073679,True,12,-1,0,2
Y2-S2-118K19,-,36,PS,adaptive,28,↓,down,↓,0.6574738000053912,True,12,1,1,3
Y2-S2-118K19,-,37,PS,adaptive,45,↑,up,↑,0.8807120999554172,True,11,1,0,3
Y2-S2-118K19,-,38,PS,adaptive,33,→,right,→,0.8052201999817044,True,11,1,0,3
Y2-S2-118K19,-,39,PS,adaptive,40,↓,down,↓,0.6392918999772519,True,11,1,0,3
Y2-S2-118K19,-,40,PS,adaptive,50,→,right,→,0.8320865000132471,True,10,1,0,3
Y2-S2-118K19,-,41,PS,adaptive,32,↓,down,↓,0.6693940000259317,True,10,1,0,3
Y2-S2-118K19,-,42,PS,adaptive,38,↑,up,↑,0.6526469999807887,True,10,1,0,3
Y2-S2-118K19,-,43,PS,adaptive,43,→,left,←,0.6297626000014134,False,9,-1,1,4
Y2-S2-118K19,-,44,AS,adaptive,44,↑,up,↑,0.6185421000118367,True,20,0,0,0
Y2-S2-118K19,-,45,AS,adaptive,25,↓,down,↓,0.7833177999709733,True,20,0,0,0
Y2-S2-118K19,-,46,AS,adaptive,34,←,left,←,1.4408538999850862,True,20,1,0,0
Y2-S2-118K19,-,47,AS,adaptive,26,↓,down,↓,0.6899738000356592,True,19,1,0,0
Y2-S2-118K19,-,48,AS,adaptive,41,←,left,←,0.5036768999998458,True,19,1,0,0
Y2-S2-118K19,-,49,AS,adaptive,39,→,left,←,0.7310719999950379,False,19,-1,1,1
Y2-S2-118K19,-,50,AS,adaptive,50,←,left,←,0.5589600999956019,True,20,-1,0,1
Y2-S2-118K19,-,51,AS,adaptive,46,↑,up,↑,0.41733960004057735,True,20,-1,0,1
Y2-S2-118K19,-,52,AS,adaptive,44,↓,down,↓,0.5516952999751084,True,20,1,1,2
Y2-S2-118K19,-,53,AS,adaptive,40,↑,up,↑,1.296365500020329,True,19,1,0,2
Y2-S2-118K19,-,54,AS,adaptive,34,↓,down,↓,0.5861173999728635,True,19,1,0,2
Y2-S2-118K19,-,55,AS,adaptive,29,↑,up,↑,0.7171420000377111,True,19,1,0,2
Y2-S2-118K19,-,56,AS,adaptive,41,↓,down,↓,0.529923299967777,True,18,1,0,2
Y2-S2-118K19,-,57,AS,adaptive,38,←,left,←,0.5733599999803118,True,18,1,0,2
Y2-S2-118K19,-,58,AS,adaptive,27,↓,down,↓,1.357211599999573,True,18,1,0,2
Y2-S2-118K19,-,59,AS,adaptive,48,→,left,←,0.8739788000239059,False,17,-1,1,3
Y2-S2-118K19,-,60,AS,adaptive,29,←,left,←,0.5083991000428796,True,18,-1,0,3
Y2-S2-118K19,-,61,AS,adaptive,42,→,right,→,0.596834099967964,True,18,-1,0,3
Y2-S2-118K19,-,62,AS,adaptive,32,↓,down,↓,0.8204638999886811,True,18,1,1,4
Y2-S2-118K19,1,63,PS,intra_train,45,↑,up,↑,0.50762610003585,True,15,-,-,-
Y2-S2-118K19,1,64,PS,intra_train,43,←,left,←,0.5021621999912895,True,15,-,-,-
Y2-S2-118K19,1,65,PS,intra_train,32,↓,down,↓,0.7231526999967173,True,15,-,-,-
Y2-S2-118K19,1,66,PS,intra_train,33,↑,up,↑,0.5882086000056006,True,15,-,-,-
Y2-S2-118K19,1,67,PS,intra_train,26,←,left,←,0.6134882000042126,True,15,-,-,-
Y2-S2-118K19,1,68,PS,exp,44,↓,left,←,0.7126901000156067,False,10,-1,0,0
Y2-S2-118K19,1,69,PS,exp,41,↑,up,↑,0.43978079996304587,True,11,-1,0,0
Y2-S2-118K19,1,70,PS,exp,26,→,left,←,0.4767415000242181,False,11,-1,0,0
Y2-S2-118K19,1,71,PS,exp,50,↑,up,↑,0.44979360001161695,True,12,-1,0,0
Y2-S2-118K19,1,72,PS,exp,46,←,left,←,0.8235970000387169,True,12,-1,0,0
Y2-S2-118K19,1,73,PS,exp,38,↑,up,↑,0.49689770000986755,True,12,1,1,1
Y2-S2-118K19,1,74,PS,exp,34,←,left,←,0.5323254000395536,True,11,1,0,1
Y2-S2-118K19,1,75,PS,exp,27,→,right,→,0.7869778000167571,True,11,1,0,1
Y2-S2-118K19,1,76,PS,exp,37,↑,up,↑,0.4630586000275798,True,11,1,0,1
Y2-S2-118K19,1,77,PS,exp,47,↓,up,↑,0.7365281999809667,False,10,-1,1,2
Y2-S2-118K19,1,78,PS,exp,43,→,right,→,0.5521815000101924,True,11,-1,0,2
Y2-S2-118K19,1,79,PS,exp,49,↓,down,↓,0.6547216000035405,True,11,-1,0,2
Y2-S2-118K19,1,80,PS,exp,48,↑,up,↑,0.46734159998595715,True,11,1,1,3
Y2-S2-118K19,1,81,PS,exp,35,←,left,←,0.45122569997329265,True,10,1,0,3
Y2-S2-118K19,1,82,PS,exp,26,→,left,←,0.6173646000097506,False,10,-1,1,4
Y2-S2-118K19,1,83,PS,exp,26,↓,up,↑,0.9066595999756828,False,11,-1,0,4
Y2-S2-118K19,1,84,PS,exp,37,↑,up,↑,0.8804748999536969,True,12,-1,0,4
Y2-S2-118K19,1,85,PS,exp,47,→,no_key,no_letter,-1.0,False,12,-1,0,4
Y2-S2-118K19,1,86,PS,exp,48,↓,no_key,no_letter,-1.0,False,13,-1,0,4
Y2-S2-118K19,1,87,PS,exp,45,←,left,←,0.844911599997431,True,14,-1,0,4
Y2-S2-118K19,1,88,PS,exp,43,↑,no_key,no_letter,-1.0,False,14,-1,0,4
Y2-S2-118K19,1,89,PS,exp,28,→,left,←,0.5854468999896199,False,15,-1,0,4
Y2-S2-118K19,1,90,PS,exp,49,↓,down,↓,0.5928422000142746,True,16,-1,0,4
Y2-S2-118K19,1,91,PS,exp,41,←,left,←,0.5078895000042394,True,16,-1,0,4
Y2-S2-118K19,1,92,PS,exp,43,↑,up,↑,0.5240133000188507,True,16,1,1,5
Y2-S2-118K19,1,93,PS,exp,27,→,right,→,0.628755200013984,True,15,1,0,5
Y2-S2-118K19,1,94,PS,exp,25,↑,no_key,no_letter,-1.0,False,15,-1,1,6
Y2-S2-118K19,1,95,PS,exp,38,→,right,→,0.45779959997162223,True,16,-1,0,6
Y2-S2-118K19,1,96,PS,exp,40,↑,up,↑,0.453156300005503,True,16,-1,0,6
Y2-S2-118K19,1,97,PS,exp,47,←,no_key,no_letter,-1.0,False,16,-1,0,6
Y2-S2-118K19,1,98,PS,exp,47,→,right,→,0.5336774000315927,True,17,-1,0,6
Y2-S2-118K19,1,99,PS,exp,37,←,left,←,0.5479682000004686,True,17,-1,0,6
Y2-S2-118K19,1,100,PS,exp,49,↓,down,↓,0.7627801000489853,True,17,1,1,7
Y2-S2-118K19,1,101,PS,exp,28,→,right,→,0.574487500009127,True,16,1,0,7
Y2-S2-118K19,1,102,PS,exp,37,↑,up,↑,0.4496660999720916,True,16,1,0,7
Y2-S2-118K19,1,103,PS,exp,44,↓,down,↓,0.5699420999735594,True,16,1,0,7
Y2-S2-118K19,1,104,PS,exp,29,←,left,←,0.43255630001658574,True,15,1,0,7
Y2-S2-118K19,1,105,PS,exp,48,↓,down,↓,0.5880555000039749,True,15,1,0,7
Y2-S2-118K19,1,106,PS,exp,45,←,left,←,0.4751786999986507,True,15,1,0,7
Y2-S2-118K19,1,107,PS,exp,37,→,right,→,0.6577938999980688,True,14,1,0,7
Y2-S2-118K19,1,108,PS,exp,31,←,left,←,0.44484140002168715,True,14,1,0,7
Y2-S2-118K19,1,109,PS,exp,30,↑,up,↑,0.5847118999809027,True,14,1,0,7
Y2-S2-118K19,1,110,PS,exp,33,→,right,→,0.6130257000331767,True,13,1,0,7
Y2-S2-118K19,1,111,PS,exp,33,↑,up,↑,1.6568922000005841,True,13,1,0,7
Y2-S2-118K19,1,112,PS,exp,43,→,right,→,0.557817300024908,True,13,1,0,7
Y2-S2-118K19,1,113,PS,exp,27,↑,up,↑,0.5278744000243023,True,12,1,0,7
Y2-S2-118K19,1,114,PS,exp,28,→,right,→,0.5929840999888256,True,12,1,0,7
Y2-S2-118K19,1,115,PS,exp,42,↑,up,↑,0.46599439997226,True,12,1,0,7
Y2-S2-118K19,1,116,PS,exp,30,←,left,←,0.49945770000340417,True,11,1,0,7
Y2-S2-118K19,1,117,PS,exp,48,↑,up,↑,0.41172209999058396,True,11,1,0,7
Y2-S2-118K19,1,118,PS,exp,44,←,left,←,0.6374810999841429,True,11,1,0,7
Y2-S2-118K19,1,119,PS,exp,26,↑,up,↑,0.41248359996825457,True,10,1,0,7
Y2-S2-118K19,1,120,PS,exp,49,←,right,→,0.7609741999767721,False,10,-1,1,8
Y2-S2-118K19,1,121,PS,exp,26,↑,up,↑,0.5724139999947511,True,11,-1,0,8
Y2-S2-118K19,1,122,PS,exp,33,←,left,←,0.5477019000099972,True,11,-1,0,8
Y2-S2-118K19,1,123,PS,exp,29,↑,up,↑,0.4772163000307046,True,11,1,1,9
Y2-S2-118K19,1,124,PS,exp,39,→,right,→,0.558382100018207,True,10,1,0,9
Y2-S2-118K19,1,125,PS,exp,45,←,left,←,0.47251089999917895,True,10,1,0,9
Y2-S2-118K19,1,126,PS,exp,49,↑,up,↑,0.4295032999943942,True,10,1,0,9
Y2-S2-118K19,1,127,PS,exp,40,↓,up,↑,0.8892595000215806,False,9,-1,1,10
Y2-S2-118K19,1,128,PS,exp,38,↑,right,→,0.8178759000147693,False,10,-1,0,10
Y2-S2-118K19,1,129,PS,exp,35,↓,down,↓,0.7466592999990098,True,11,-1,0,10
Y2-S2-118K19,1,130,PS,exp,46,→,right,→,0.6066391000058502,True,11,-1,0,10
Y2-S2-118K19,1,131,PS,exp,39,←,left,←,0.546428800036665,True,11,1,1,11
Y2-S2-118K19,1,132,PS,exp,31,↑,up,↑,0.5384696999681182,True,10,1,0,11
Y2-S2-118K19,1,133,PS,exp,28,↓,down,↓,0.6143557999748737,True,10,1,0,11
Y2-S2-118K19,1,134,PS,exp,41,←,left,←,0.40764009999111295,True,10,1,0,11
Y2-S2-118K19,1,135,PS,exp,28,→,right,→,0.7294274999876507,True,9,1,0,11
Y2-S2-118K19,1,136,PS,exp,34,←,left,←,0.7263195000123233,True,9,1,0,11
Y2-S2-118K19,1,137,PS,exp,26,↑,left,←,1.3318509999662638,False,9,-1,1,12
Y2-S2-118K19,1,138,PS,exp,29,↓,left,←,0.6160628999932669,False,10,-1,0,12
Y2-S2-118K19,1,139,PS,exp,43,←,left,←,1.3551904000341892,True,11,-1,0,12
Y2-S2-118K19,1,140,PS,exp,33,→,right,→,0.6170809000032023,True,11,-1,0,12
Y2-S2-118K19,1,141,PS,exp,41,←,left,←,0.42629160004435107,True,11,1,1,13
Y2-S2-118K19,1,142,PS,exp,31,↑,left,←,0.699322700034827,False,10,-1,1,14
Y2-S2-118K19,1,143,PS,exp,33,↓,down,↓,0.6213384000002407,True,11,-1,0,14
Y2-S2-118K19,1,144,PS,exp,29,↑,up,↑,0.7768587999744341,True,11,-1,0,14
Y2-S2-118K19,1,145,PS,exp,33,↓,up,↑,0.4898780999938026,False,11,-1,0,14
Y2-S2-118K19,1,146,PS,exp,43,←,left,←,0.5365061000338756,True,12,-1,0,14
Y2-S2-118K19,1,147,PS,exp,25,→,left,←,0.4783395999693312,False,12,-1,0,14
Y2-S2-118K19,1,148,PS,exp,32,↑,left,←,0.7101074999663979,False,13,-1,0,14
Y2-S2-118K19,1,149,PS,exp,48,←,left,←,0.5586747000343166,True,14,-1,0,14
Y2-S2-118K19,1,150,PS,exp,32,→,right,→,0.5391330000129528,True,14,-1,0,14
Y2-S2-118K19,1,151,PS,exp,43,←,left,←,0.5075262999744155,True,14,1,1,15
Y2-S2-118K19,1,152,PS,exp,48,↑,up,↑,0.6047891000052914,True,13,1,0,15
Y2-S2-118K19,1,153,PS,exp,44,↓,down,↓,0.6615723000140861,True,13,1,0,15
Y2-S2-118K19,1,154,PS,exp,49,→,right,→,0.538109099958092,True,13,1,0,15
Y2-S2-118K19,1,155,PS,exp,41,↓,down,↓,0.6356894999626093,True,12,1,0,15
Y2-S2-118K19,1,156,PS,exp,30,←,left,←,0.5629881999921054,True,12,1,0,15
Y2-S2-118K19,1,157,PS,exp,38,↓,down,↓,0.5279370999778621,True,12,1,0,15
Y2-S2-118K19,1,158,PS,exp,29,←,left,←,0.36860680003883317,True,11,1,0,15
Y2-S2-118K19,1,159,PS,exp,44,→,right,→,0.4509558000136167,True,11,1,0,15
Y2-S2-118K19,1,160,PS,exp,35,←,left,←,0.8347719999728724,True,11,1,0,15
Y2-S2-118K19,1,161,PS,exp,47,→,right,→,0.531766299973242,True,10,1,0,15
Y2-S2-118K19,1,162,PS,exp,43,↑,up,↑,0.5120370999793522,True,10,1,0,15
Y2-S2-118K19,1,163,PS,exp,37,←,left,←,0.47571239998796955,True,10,1,0,15
Y2-S2-118K19,1,164,PS,exp,28,→,left,←,0.829717900021933,False,9,-1,1,16
Y2-S2-118K19,2,165,AS,intra_train,30,↓,down,↓,0.6666836999938823,True,25,-,-,-
Y2-S2-118K19,2,166,AS,intra_train,32,←,left,←,0.6400945999776013,True,25,-,-,-
Y2-S2-118K19,2,167,AS,intra_train,25,→,right,→,1.5640639000339434,True,25,-,-,-
Y2-S2-118K19,2,168,AS,intra_train,45,↓,down,↓,0.8394794000196271,True,25,-,-,-
Y2-S2-118K19,2,169,AS,intra_train,30,→,right,→,0.7817058999789879,True,25,-,-,-
Y2-S2-118K19,2,170,AS,exp,25,↓,down,↓,0.5729842000291683,True,17,0,0,0
Y2-S2-118K19,2,171,AS,exp,27,↑,down,↓,0.8696081999805756,False,17,-1,0,0
Y2-S2-118K19,2,172,AS,exp,44,↓,down,↓,0.7562436999869533,True,18,-1,0,0
Y2-S2-118K19,2,173,AS,exp,28,←,left,←,0.48131439997814596,True,18,-1,0,0
Y2-S2-118K19,2,174,AS,exp,26,→,right,→,0.8188700000173412,True,18,1,1,1
Y2-S2-118K19,2,175,AS,exp,28,↓,down,↓,0.689042900048662,True,17,1,0,1
Y2-S2-118K19,2,176,AS,exp,44,←,left,←,0.49144920002436265,True,17,1,0,1
Y2-S2-118K19,2,177,AS,exp,46,→,right,→,0.48172270000213757,True,17,1,0,1
Y2-S2-118K19,2,178,AS,exp,37,↓,down,↓,0.5280957000213675,True,16,1,0,1
Y2-S2-118K19,2,179,AS,exp,50,→,right,→,0.48777760000666603,True,16,1,0,1
Y2-S2-118K19,2,180,AS,exp,47,←,down,↓,1.0148045999812894,False,16,-1,1,2
Y2-S2-118K19,2,181,AS,exp,30,→,right,→,0.6474885999923572,True,17,-1,0,2
Y2-S2-118K19,2,182,AS,exp,37,←,left,←,0.6876566999708302,True,17,-1,0,2
Y2-S2-118K19,2,183,AS,exp,40,↑,up,↑,0.6435959999798797,True,17,1,1,3
Y2-S2-118K19,2,184,AS,exp,37,←,left,←,1.4913131999783218,True,16,1,0,3
Y2-S2-118K19,2,185,AS,exp,34,↑,up,↑,0.7094255000120029,True,16,1,0,3
Y2-S2-118K19,2,186,AS,exp,29,→,right,→,0.5772223000531085,True,16,1,0,3
Y2-S2-118K19,2,187,AS,exp,50,←,left,←,0.644921799947042,True,15,1,0,3
Y2-S2-118K19,2,188,AS,exp,46,↑,up,↑,0.5944984999950975,True,15,1,0,3
Y2-S2-118K19,2,189,AS,exp,29,↓,down,↓,0.8185679000453092,True,15,1,0,3
Y2-S2-118K19,2,190,AS,exp,50,←,right,→,0.7295918999589048,False,14,-1,1,4
Y2-S2-118K19,2,191,AS,exp,48,↓,down,↓,0.9957085000351071,True,15,-1,0,4
Y2-S2-118K19,2,192,AS,exp,33,→,right,→,0.6213261000229977,True,15,-1,0,4
Y2-S2-118K19,2,193,AS,exp,36,↓,down,↓,0.8093568000476807,True,15,1,1,5
Y2-S2-118K19,2,194,AS,exp,32,↑,up,↑,0.8985725999809802,True,14,1,0,5
Y2-S2-118K19,2,195,AS,exp,40,→,left,←,0.7650174000300467,False,14,-1,1,6
Y2-S2-118K19,2,196,AS,exp,28,←,left,←,0.7293351999833249,True,15,-1,0,6
Y2-S2-118K19,2,197,AS,exp,35,↑,up,↑,0.48234400001820177,True,15,-1,0,6
Y2-S2-118K19,2,198,AS,exp,46,←,right,→,0.499599099974148,False,15,-1,0,6
Y2-S2-118K19,2,199,AS,exp,37,→,up,↑,1.8257417000131682,False,16,-1,0,6
Y2-S2-118K19,2,200,AS,exp,26,↓,down,↓,0.7483693999820389,True,17,-1,0,6
Y2-S2-118K19,2,201,AS,exp,45,→,right,→,0.6119549999712035,True,17,-1,0,6
Y2-S2-118K19,2,202,AS,exp,46,↓,down,↓,0.6696100999834016,True,17,1,1,7
Y2-S2-118K19,2,203,AS,exp,28,←,left,←,0.6722958000027575,True,16,1,0,7
Y2-S2-118K19,2,204,AS,exp,40,↓,down,↓,0.6630941000184976,True,16,1,0,7
Y2-S2-118K19,2,205,AS,exp,37,←,left,←,0.7478307000128552,True,16,1,0,7
Y2-S2-118K19,2,206,AS,exp,31,↑,up,↑,0.6108152000233531,True,15,1,0,7
Y2-S2-118K19,2,207,AS,exp,45,←,left,←,0.5477080999989994,True,15,1,0,7
Y2-S2-118K19,2,208,AS,exp,47,→,right,→,0.49252879997948185,True,15,1,0,7
Y2-S2-118K19,2,209,AS,exp,48,←,left,←,0.5843658999656327,True,14,1,0,7
Y2-S2-118K19,2,210,AS,exp,33,↑,up,↑,0.573531300004106,True,14,1,0,7
Y2-S2-118K19,2,211,AS,exp,31,→,right,→,0.46302140003535897,True,14,1,0,7
Y2-S2-118K19,2,212,AS,exp,27,↑,up,↑,0.7344630000297911,True,13,1,0,7
Y2-S2-118K19,2,213,AS,exp,38,←,left,←,0.6139078999985941,True,13,1,0,7
Y2-S2-118K19,2,214,AS,exp,47,→,right,→,0.7059591999859549,True,13,1,0,7
Y2-S2-118K19,2,215,AS,exp,43,↑,up,↑,0.6418348999577574,True,12,1,0,7
Y2-S2-118K19,2,216,AS,exp,32,→,right,→,0.7418393999687396,True,12,1,0,7
Y2-S2-118K19,2,217,AS,exp,36,↑,up,↑,0.4092190000228584,True,12,1,0,7
Y2-S2-118K19,2,218,AS,exp,27,←,right,→,0.6959689999930561,False,11,-1,1,8
Y2-S2-118K19,2,219,AS,exp,32,↓,down,↓,0.6055794999701902,True,12,-1,0,8
Y2-S2-118K19,2,220,AS,exp,40,↑,up,↑,0.5313170999870636,True,12,-1,0,8
Y2-S2-118K19,2,221,AS,exp,26,←,left,←,1.2205120000289753,True,12,1,1,9
Y2-S2-118K19,2,222,AS,exp,45,↓,down,↓,0.5187178999767639,True,11,1,0,9
Y2-S2-118K19,2,223,AS,exp,39,←,right,→,0.8409896999946795,False,11,-1,1,10
Y2-S2-118K19,2,224,AS,exp,37,↑,down,↓,0.746508400014136,False,12,-1,0,10
Y2-S2-118K19,2,225,AS,exp,44,←,left,←,0.7948631999897771,True,13,-1,0,10
Y2-S2-118K19,2,226,AS,exp,37,→,right,→,0.48696639999980107,True,13,-1,0,10
Y2-S2-118K19,2,227,AS,exp,30,↑,right,→,0.9872665000148118,False,13,-1,0,10
Y2-S2-118K19,2,228,AS,exp,46,←,left,←,0.5006224000244401,True,14,-1,0,10
Y2-S2-118K19,2,229,AS,exp,46,→,right,→,0.5511887999600731,True,14,-1,0,10
Y2-S2-118K19,2,230,AS,exp,42,↑,down,↓,0.7058369999867864,False,14,-1,0,10
Y2-S2-118K19,2,231,AS,exp,40,↓,down,↓,0.477161500020884,True,15,-1,0,10
Y2-S2-118K19,2,232,AS,exp,25,→,down,↓,0.9728302999865264,False,15,-1,0,10
Y2-S2-118K19,2,233,AS,exp,49,↑,up,↑,0.43950440001208335,True,16,-1,0,10
Y2-S2-118K19,2,234,AS,exp,37,→,right,→,0.7259134000050835,True,16,-1,0,10
Y2-S2-118K19,2,235,AS,exp,47,↓,down,↓,0.6604393000015989,True,16,1,1,11
Y2-S2-118K19,2,236,AS,exp,44,↑,up,↑,0.4696779999649152,True,15,1,0,11
Y2-S2-118K19,2,237,AS,exp,45,→,right,→,0.6294762000325136,True,15,1,0,11
Y2-S2-118K19,2,238,AS,exp,38,↑,up,↑,0.4743290999904275,True,15,1,0,11
Y2-S2-118K19,2,239,AS,exp,36,→,left,←,0.5827435000101104,False,14,-1,1,12
Y2-S2-118K19,2,240,AS,exp,50,↑,up,↑,0.48217679996741936,True,15,-1,0,12
Y2-S2-118K19,2,241,AS,exp,40,↓,down,↓,0.7617205000133254,True,15,-1,0,12
Y2-S2-118K19,2,242,AS,exp,33,↑,up,↑,0.5044357999577187,True,15,1,1,13
Y2-S2-118K19,2,243,AS,exp,44,↓,down,↓,0.7368428999907337,True,14,1,0,13
Y2-S2-118K19,2,244,AS,exp,33,←,left,←,0.5597142000333406,True,14,1,0,13
Y2-S2-118K19,2,245,AS,exp,46,→,right,→,0.5649397000088356,True,14,1,0,13
Y2-S2-118K19,2,246,AS,exp,47,↓,down,↓,0.47632770001655445,True,13,1,0,13
Y2-S2-118K19,2,247,AS,exp,33,←,left,←,0.6476591000100598,True,13,1,0,13
Y2-S2-118K19,2,248,AS,exp,34,↑,up,↑,0.5710746999830008,True,13,1,0,13
Y2-S2-118K19,2,249,AS,exp,28,↓,down,↓,0.7666698999819346,True,12,1,0,13
Y2-S2-118K19,2,250,AS,exp,27,↑,up,↑,1.3822913999902084,True,12,1,0,13
Y2-S2-118K19,2,251,AS,exp,49,←,left,←,0.48358669999288395,True,12,1,0,13
Y2-S2-118K19,2,252,AS,exp,48,↓,down,↓,0.61542119999649,True,11,1,0,13
Y2-S2-118K19,2,253,AS,exp,32,→,down,↓,0.8278212999575771,False,11,-1,1,14
Y2-S2-118K19,2,254,AS,exp,44,←,left,←,0.590988699987065,True,12,-1,0,14
Y2-S2-118K19,2,255,AS,exp,26,↓,down,↓,0.6190432000439614,True,12,-1,0,14
Y2-S2-118K19,2,256,AS,exp,35,→,right,→,0.6899266999680549,True,12,1,1,15
Y2-S2-118K19,2,257,AS,exp,43,↑,down,↓,0.6234657999593765,False,11,-1,1,16
Y2-S2-118K19,3,258,AS,intra_train,34,←,left,←,0.7170393000124022,True,25,-,-,-
Y2-S2-118K19,3,259,AS,intra_train,28,↑,up,↑,0.6489640999934636,True,25,-,-,-
Y2-S2-118K19,3,260,AS,intra_train,44,→,right,→,0.6177753999945708,True,25,-,-,-
Y2-S2-118K19,3,261,AS,intra_train,26,↑,up,↑,0.5005519000114873,True,25,-,-,-
Y2-S2-118K19,3,262,AS,intra_train,34,→,right,→,0.5985224000178277,True,25,-,-,-
Y2-S2-118K19,3,263,AS,exp,38,↓,down,↓,0.7148523000068963,True,17,0,0,0
Y2-S2-118K19,3,264,AS,exp,46,→,left,←,0.49313110002549365,False,17,-1,0,0
Y2-S2-118K19,3,265,AS,exp,27,↓,down,↓,0.958108099992387,True,18,-1,0,0
Y2-S2-118K19,3,266,AS,exp,29,↑,up,↑,0.7520727000082843,True,18,-1,0,0
Y2-S2-118K19,3,267,AS,exp,44,→,right,→,0.5380423999740742,True,18,1,1,1
Y2-S2-118K19,3,268,AS,exp,25,←,left,←,0.644889300048817,True,17,1,0,1
Y2-S2-118K19,3,269,AS,exp,27,→,left,←,0.5831932000000961,False,17,-1,1,2
Y2-S2-118K19,3,270,AS,exp,49,↓,up,↑,0.4969740000087768,False,18,-1,0,2
Y2-S2-118K19,3,271,AS,exp,49,←,left,←,0.5650992000009865,True,19,-1,0,2
Y2-S2-118K19,3,272,AS,exp,25,↑,up,↑,0.5985666000051424,True,19,-1,0,2
Y2-S2-118K19,3,273,AS,exp,32,←,left,←,0.5787122999900021,True,19,1,1,3
Y2-S2-118K19,3,274,AS,exp,36,↑,up,↑,0.4813932999968529,True,18,1,0,3
Y2-S2-118K19,3,275,AS,exp,32,←,left,←,0.4741972000338137,True,18,1,0,3
Y2-S2-118K19,3,276,AS,exp,30,→,right,→,0.7012210999964736,True,18,1,0,3
Y2-S2-118K19,3,277,AS,exp,28,↑,up,↑,0.41721520002465695,True,17,1,0,3
Y2-S2-118K19,3,278,AS,exp,42,←,left,←,0.5939643000019714,True,17,1,0,3
Y2-S2-118K19,3,279,AS,exp,47,↓,down,↓,0.6249399000080302,True,17,1,0,3
Y2-S2-118K19,3,280,AS,exp,50,↑,up,↑,0.7587269999785349,True,16,1,0,3
Y2-S2-118K19,3,281,AS,exp,25,←,left,←,0.7432458999683149,True,16,1,0,3
Y2-S2-118K19,3,282,AS,exp,32,↓,up,↑,0.4980676000122912,False,16,-1,1,4
Y2-S2-118K19,3,283,AS,exp,42,↑,up,↑,0.4664043000084348,True,17,-1,0,4
Y2-S2-118K19,3,284,AS,exp,28,←,left,←,0.6055182999698445,True,17,-1,0,4
Y2-S2-118K19,3,285,AS,exp,29,↓,up,↑,0.5910486999782734,False,17,-1,0,4
Y2-S2-118K19,3,286,AS,exp,43,↑,no_key,no_letter,-1.0,False,18,-1,0,4
Y2-S2-118K19,3,287,AS,exp,43,↓,up,↑,0.5835294999997132,False,19,-1,0,4
Y2-S2-118K19,3,288,AS,exp,30,←,left,←,0.5713161999592558,True,20,-1,0,4
Y2-S2-118K19,3,289,AS,exp,46,↑,up,↑,1.5732420000131242,True,20,-1,0,4
Y2-S2-118K19,3,290,AS,exp,33,←,left,←,0.4676786999916658,True,20,1,1,5
Y2-S2-118K19,3,291,AS,exp,27,→,right,→,0.4340231000096537,True,19,1,0,5
Y2-S2-118K19,3,292,AS,exp,43,←,no_key,no_letter,-1.0,False,19,-1,1,6
Y2-S2-118K19,3,293,AS,exp,25,↓,up,↑,0.8927397000370547,False,20,-1,0,6
Y2-S2-118K19,3,294,AS,exp,46,→,right,→,0.6680644999723881,True,21,-1,0,6
Y2-S2-118K19,3,295,AS,exp,28,←,left,←,0.577410299971234,True,21,-1,0,6
Y2-S2-118K19,3,296,AS,exp,31,↑,up,↑,0.5324016999802552,True,21,1,1,7
Y2-S2-118K19,3,297,AS,exp,46,↓,down,↓,0.8647778000449762,True,20,1,0,7
Y2-S2-118K19,3,298,AS,exp,48,↑,up,↑,0.5347956999903545,True,20,1,0,7
Y2-S2-118K19,3,299,AS,exp,35,→,right,→,0.7136293000075966,True,20,1,0,7
Y2-S2-118K19,3,300,AS,exp,50,↓,up,↑,0.9691736999666318,False,19,-1,1,8
Y2-S2-118K19,3,301,AS,exp,36,→,right,→,1.7811952999909408,True,20,-1,0,8
Y2-S2-118K19,3,302,AS,exp,33,↑,up,↑,0.5694684999762103,True,20,-1,0,8
Y2-S2-118K19,3,303,AS,exp,46,→,right,→,0.5203638999955729,True,20,1,1,9
Y2-S2-118K19,3,304,AS,exp,39,↓,down,↓,0.5954710000078194,True,19,1,0,9
Y2-S2-118K19,3,305,AS,exp,35,←,left,←,0.5617555999779142,True,19,1,0,9
Y2-S2-118K19,3,306,AS,exp,45,↓,down,↓,0.5962936000432819,True,19,1,0,9
Y2-S2-118K19,3,307,AS,exp,35,→,right,→,0.5873621999635361,True,18,1,0,9
Y2-S2-118K19,3,308,AS,exp,48,↓,down,↓,0.5380486999638379,True,18,1,0,9
Y2-S2-118K19,3,309,AS,exp,40,→,right,→,0.761429300007876,True,18,1,0,9
Y2-S2-118K19,3,310,AS,exp,31,↑,left,←,0.9907462999690324,False,17,-1,1,10
Y2-S2-118K19,3,311,AS,exp,28,↓,left,←,1.8773988999892026,False,18,-1,0,10
Y2-S2-118K19,3,312,AS,exp,40,→,right,→,0.5576634999597445,True,19,-1,0,10
Y2-S2-118K19,3,313,AS,exp,30,↑,up,↑,0.6769255999824964,True,19,-1,0,10
Y2-S2-118K19,3,314,AS,exp,28,←,left,←,0.5983437999966554,True,19,1,1,11
Y2-S2-118K19,3,315,AS,exp,49,→,right,→,0.47037220001220703,True,18,1,0,11
Y2-S2-118K19,3,316,AS,exp,28,←,left,←,0.6417943999986164,True,18,1,0,11
Y2-S2-118K19,3,317,AS,exp,42,→,left,←,0.7357309999642894,False,18,-1,1,12
Y2-S2-118K19,3,318,AS,exp,27,↑,up,↑,0.5656674999627285,True,19,-1,0,12
Y2-S2-118K19,3,319,AS,exp,40,↓,up,↑,0.5681405999930575,False,19,-1,0,12
Y2-S2-118K19,3,320,AS,exp,32,←,left,←,0.9011596000054851,True,20,-1,0,12
Y2-S2-118K19,3,321,AS,exp,49,↑,up,↑,0.43369640002492815,True,20,-1,0,12
Y2-S2-118K19,3,322,AS,exp,29,←,left,←,0.7684071999974549,True,20,1,1,13
Y2-S2-118K19,3,323,AS,exp,41,↑,up,↑,0.38416850002249703,True,19,1,0,13
Y2-S2-118K19,3,324,AS,exp,38,←,left,←,0.5044228999759071,True,19,1,0,13
Y2-S2-118K19,3,325,AS,exp,44,↑,left,←,0.7971504000015557,False,19,-1,1,14
Y2-S2-118K19,3,326,AS,exp,41,→,right,→,0.5065581999951974,True,20,-1,0,14
Y2-S2-118K19,3,327,AS,exp,48,↓,down,↓,0.8567376999999397,True,20,-1,0,14
Y2-S2-118K19,3,328,AS,exp,36,←,left,←,0.46712300000945106,True,20,1,1,15
Y2-S2-118K19,3,329,AS,exp,32,→,right,→,0.5424939999938942,True,19,1,0,15
Y2-S2-118K19,3,330,AS,exp,33,←,left,←,0.5153175999876112,True,19,1,0,15
Y2-S2-118K19,3,331,AS,exp,44,→,right,→,0.45079999999143183,True,19,1,0,15
Y2-S2-118K19,3,332,AS,exp,36,←,left,←,1.5614040999789722,True,18,1,0,15
Y2-S2-118K19,3,333,AS,exp,27,↓,up,↑,0.5215094999875873,False,18,-1,1,16
Y2-S2-118K19,4,334,PS,intra_train,28,↑,up,↑,0.5349629999836907,True,15,-,-,-
Y2-S2-118K19,4,335,PS,intra_train,35,→,right,→,0.6702827999833971,True,15,-,-,-
Y2-S2-118K19,4,336,PS,intra_train,46,←,left,←,0.5579954000422731,True,15,-,-,-
Y2-S2-118K19,4,337,PS,intra_train,34,→,right,→,0.4425970999873243,True,15,-,-,-
Y2-S2-118K19,4,338,PS,intra_train,49,←,right,→,0.638017299992498,False,15,-,-,-
Y2-S2-118K19,4,339,PS,exp,47,↑,up,↑,0.563644900044892,True,10,0,0,0
Y2-S2-118K19,4,340,PS,exp,31,↓,no_key,no_letter,-1.0,False,10,-1,0,0
Y2-S2-118K19,4,341,PS,exp,44,↑,right,→,0.5873538000159897,False,11,-1,0,0
Y2-S2-118K19,4,342,PS,exp,46,→,right,→,0.9367676999536343,True,12,-1,0,0
Y2-S2-118K19,4,343,PS,exp,43,←,left,←,0.5219863000093028,True,12,-1,0,0
Y2-S2-118K19,4,344,PS,exp,43,↓,up,↑,0.5600179000175558,False,12,-1,0,0
Y2-S2-118K19,4,345,PS,exp,35,↑,up,↑,0.4209701999789104,True,13,-1,0,0
Y2-S2-118K19,4,346,PS,exp,31,↓,down,↓,0.7384517000173219,True,13,-1,0,0
Y2-S2-118K19,4,347,PS,exp,31,→,right,→,0.5842910999781452,True,13,1,1,1
Y2-S2-118K19,4,348,PS,exp,34,↓,down,↓,0.6173428000183776,True,12,1,0,1
Y2-S2-118K19,4,349,PS,exp,28,↑,left,←,0.9007010000059381,False,12,-1,1,2
Y2-S2-118K19,4,350,PS,exp,38,↓,down,↓,0.5999200000078417,True,13,-1,0,2
Y2-S2-118K19,4,351,PS,exp,49,↑,down,↓,0.8679937000270002,False,13,-1,0,2
Y2-S2-118K19,4,352,PS,exp,31,←,left,←,0.5860638999729417,True,14,-1,0,2
Y2-S2-118K19,4,353,PS,exp,47,↓,down,↓,0.5550484000123106,True,14,-1,0,2
Y2-S2-118K19,4,354,PS,exp,36,↑,right,→,0.6376289000036195,False,14,-1,0,2
Y2-S2-118K19,4,355,PS,exp,38,→,right,→,0.6027093000011519,True,15,-1,0,2
Y2-S2-118K19,4,356,PS,exp,35,←,left,←,0.44110979995457456,True,15,-1,0,2
Y2-S2-118K19,4,357,PS,exp,34,↑,left,←,0.44084530003601685,False,15,-1,0,2
Y2-S2-118K19,4,358,PS,exp,27,↓,down,↓,0.5551105999620631,True,16,-1,0,2
Y2-S2-118K19,4,359,PS,exp,43,↑,up,↑,0.3840646999888122,True,16,-1,0,2
Y2-S2-118K19,4,360,PS,exp,33,←,left,←,0.6783005999750458,True,16,1,1,3
Y2-S2-118K19,4,361,PS,exp,26,↑,up,↑,0.36725939996540546,True,15,1,0,3
Y2-S2-118K19,4,362,PS,exp,48,←,left,←,0.5655344999977387,True,15,1,0,3
Y2-S2-118K19,4,363,PS,exp,35,→,right,→,0.5006754000205547,True,15,1,0,3
Y2-S2-118K19,4,364,PS,exp,25,←,right,→,1.0162695000180975,False,14,-1,1,4
Y2-S2-118K19,4,365,PS,exp,36,→,right,→,0.6662203999585472,True,15,-1,0,4
Y2-S2-118K19,4,366,PS,exp,32,↓,down,↓,0.5265650999499485,True,15,-1,0,4
Y2-S2-118K19,4,367,PS,exp,31,→,right,→,0.7564614999573678,True,15,1,1,5
Y2-S2-118K19,4,368,PS,exp,32,←,right,→,0.6907980000250973,False,14,-1,1,6
Y2-S2-118K19,4,369,PS,exp,36,↑,up,↑,0.48657100001582876,True,15,-1,0,6
Y2-S2-118K19,4,370,PS,exp,31,←,left,←,0.5978958000196144,True,15,-1,0,6
Y2-S2-118K19,4,371,PS,exp,43,→,right,→,0.6305843000300229,True,15,1,1,7
Y2-S2-118K19,4,372,PS,exp,45,←,left,←,0.4135060000116937,True,14,1,0,7
Y2-S2-118K19,4,373,PS,exp,35,→,right,→,0.4674144999589771,True,14,1,0,7
Y2-S2-118K19,4,374,PS,exp,30,↑,up,↑,0.7582380999810994,True,14,1,0,7
Y2-S2-118K19,4,375,PS,exp,25,←,left,←,0.5524722000118345,True,13,1,0,7
Y2-S2-118K19,4,376,PS,exp,37,→,right,→,0.6454232000396587,True,13,1,0,7
Y2-S2-118K19,4,377,PS,exp,25,←,left,←,0.6006121999816969,True,13,1,0,7
Y2-S2-118K19,4,378,PS,exp,31,→,right,→,0.5909174999687821,True,12,1,0,7
Y2-S2-118K19,4,379,PS,exp,36,←,left,←,0.4195758000132628,True,12,1,0,7
Y2-S2-118K19,4,380,PS,exp,30,↑,right,→,0.9866780000156723,False,12,-1,1,8
Y2-S2-118K19,4,381,PS,exp,33,←,left,←,0.5749736999860033,True,13,-1,0,8
Y2-S2-118K19,4,382,PS,exp,34,→,left,←,0.6606444999924861,False,13,-1,0,8
Y2-S2-118K19,4,383,PS,exp,34,↓,down,↓,0.631892700039316,True,14,-1,0,8
Y2-S2-118K19,4,384,PS,exp,26,→,left,←,0.8565210999804549,False,14,-1,0,8
Y2-S2-118K19,4,385,PS,exp,25,↑,up,↑,0.9375972999841906,True,15,-1,0,8
Y2-S2-118K19,4,386,PS,exp,27,→,right,→,0.517062500002794,True,15,-1,0,8
Y2-S2-118K19,4,387,PS,exp,39,←,left,←,0.5644183999975212,True,15,1,1,9
Y2-S2-118K19,4,388,PS,exp,32,↑,left,←,0.76667769998312,False,14,-1,1,10
Y2-S2-118K19,4,389,PS,exp,43,↓,down,↓,0.6340895000030287,True,15,-1,0,10
Y2-S2-118K19,4,390,PS,exp,34,←,left,←,0.4381851000362076,True,15,-1,0,10
Y2-S2-118K19,4,391,PS,exp,47,→,right,→,0.5704982999595813,True,15,1,1,11
Y2-S2-118K19,4,392,PS,exp,33,↓,right,→,0.8171038000145927,False,14,-1,1,12
Y2-S2-118K19,4,393,PS,exp,26,→,right,→,0.8764915999490768,True,15,-1,0,12
Y2-S2-118K19,4,394,PS,exp,37,↑,down,↓,0.8795120000140741,False,15,-1,0,12
Y2-S2-118K19,4,395,PS,exp,35,→,left,←,0.7290955000207759,False,16,-1,0,12
Y2-S2-118K19,4,396,PS,exp,31,↑,up,↑,0.510945999994874,True,17,-1,0,12
Y2-S2-118K19,4,397,PS,exp,40,←,left,←,0.5112188000348397,True,17,-1,0,12
Y2-S2-118K19,4,398,PS,exp,50,→,right,→,0.6520177000202239,True,17,1,1,13
Y2-S2-118K19,4,399,PS,exp,28,↑,up,↑,0.5201158000272699,True,16,1,0,13
Y2-S2-118K19,4,400,PS,exp,31,→,right,→,0.5141612999723293,True,16,1,0,13
Y2-S2-118K19,4,401,PS,exp,30,↓,right,→,0.9417073000222445,False,16,-1,1,14
Y2-S2-118K19,4,402,PS,exp,28,→,right,→,0.6850457999971695,True,17,-1,0,14
Y2-S2-118K19,4,403,PS,exp,45,↑,up,↑,1.3031993000186048,True,17,-1,0,14
Y2-S2-118K19,4,404,PS,exp,29,↓,down,↓,0.7104304999811575,True,17,1,1,15
Y2-S2-118K19,4,405,PS,exp,47,←,left,←,0.47694000002229586,True,16,1,0,15
Y2-S2-118K19,4,406,PS,exp,27,→,right,→,0.45646250003483146,True,16,1,0,15
Y2-S2-118K19,4,407,PS,exp,48,↓,down,↓,0.6758726999978535,True,16,1,0,15
Y2-S2-118K19,4,408,PS,exp,45,←,left,←,1.184026700037066,True,15,1,0,15
Y2-S2-118K19,4,409,PS,exp,33,↓,down,↓,0.5956179000204429,True,15,1,0,15
Y2-S2-118K19,4,410,PS,exp,26,←,left,←,0.45536690001608804,True,15,1,0,15
Y2-S2-118K19,4,411,PS,exp,28,↓,down,↓,0.6828265999793075,True,14,1,0,15
Y2-S2-118K19,4,412,PS,exp,46,←,left,←,0.44572839996544644,True,14,1,0,15
Y2-S2-118K19,4,413,PS,exp,47,↑,up,↑,1.0558947999961674,True,14,1,0,15
Y2-S2-118K19,4,414,PS,exp,27,←,left,←,0.40066169999772683,True,13,1,0,15
Y2-S2-118K19,4,415,PS,exp,28,↑,up,↑,1.0122320000082254,True,13,1,0,15
Y2-S2-118K19,4,416,PS,exp,43,←,left,←,0.43754539999645203,True,13,1,0,15
Y2-S2-118K19,4,417,PS,exp,26,↓,down,↓,0.5870316000073217,True,12,1,0,15
Y2-S2-118K19,4,418,PS,exp,26,←,left,←,0.4536530000041239,True,12,1,0,15
Y2-S2-118K19,4,419,PS,exp,31,↓,down,↓,0.5282706000143662,True,12,1,0,15
Y2-S2-118K19,4,420,PS,exp,46,←,left,←,0.5561430999659933,True,11,1,0,15
Y2-S2-118K19,4,421,PS,exp,30,↓,left,←,0.905578300007619,False,11,-1,1,16
Y2-S2-118K19,5,422,PS,intra_train,34,←,left,←,0.4857113999896683,True,15,-,-,-
Y2-S2-118K19,5,423,PS,intra_train,25,↑,up,↑,0.4882283000042662,True,15,-,-,-
Y2-S2-118K19,5,424,PS,intra_train,25,→,right,→,0.4841119999764487,True,15,-,-,-
Y2-S2-118K19,5,425,PS,intra_train,37,↓,down,↓,0.5340826999745332,True,15,-,-,-
Y2-S2-118K19,5,426,PS,intra_train,46,↑,up,↑,1.1891907999524847,True,15,-,-,-
Y2-S2-118K19,5,427,PS,exp,28,←,left,←,0.6475022999802604,True,10,0,0,0
Y2-S2-118K19,5,428,PS,exp,41,↑,up,↑,0.4546519999857992,True,10,0,0,0
Y2-S2-118K19,5,429,PS,exp,36,↓,down,↓,0.5198642000323161,True,10,1,0,0
Y2-S2-118K19,5,430,PS,exp,50,→,right,→,0.5867347000166774,True,9,1,0,0
Y2-S2-118K19,5,431,PS,exp,42,↓,down,↓,0.5621041000122204,True,9,1,0,0
Y2-S2-118K19,5,432,PS,exp,37,↑,up,↑,0.3992197000188753,True,9,1,0,0
Y2-S2-118K19,5,433,PS,exp,35,↓,left,←,0.5526462999987416,False,8,-1,1,1
Y2-S2-118K19,5,434,PS,exp,37,↑,up,↑,0.48473580001154914,True,9,-1,0,1
Y2-S2-118K19,5,435,PS,exp,34,↓,down,↓,0.5276184999966063,True,9,-1,0,1
Y2-S2-118K19,5,436,PS,exp,38,↑,up,↑,0.4597453000023961,True,9,1,1,2
Y2-S2-118K19,5,437,PS,exp,39,↓,right,→,0.7315413999604061,False,8,-1,1,3
Y2-S2-118K19,5,438,PS,exp,26,↑,right,→,0.958431400009431,False,9,-1,0,3
Y2-S2-118K19,5,439,PS,exp,41,↓,down,↓,0.5640569000388496,True,10,-1,0,3
Y2-S2-118K19,5,440,PS,exp,40,→,right,→,0.5820489999605343,True,10,-1,0,3
Y2-S2-118K19,5,441,PS,exp,38,↓,down,↓,0.4398716000141576,True,10,1,1,4
Y2-S2-118K19,5,442,PS,exp,49,→,right,→,0.5278339999495074,True,9,1,0,4
Y2-S2-118K19,5,443,PS,exp,49,←,left,←,0.5042232999694534,True,9,1,0,4
Y2-S2-118K19,5,444,PS,exp,25,↓,up,↑,0.8788771000108682,False,9,-1,1,5
Y2-S2-118K19,5,445,PS,exp,36,→,right,→,0.6852052999893203,True,10,-1,0,5
Y2-S2-118K19,5,446,PS,exp,48,↓,down,↓,0.4655353999696672,True,10,-1,0,5
Y2-S2-118K19,5,447,PS,exp,35,↑,right,→,0.7678163999808021,False,10,-1,0,5
Y2-S2-118K19,5,448,PS,exp,46,←,left,←,0.582148400018923,True,11,-1,0,5
Y2-S2-118K19,5,449,PS,exp,49,↓,down,↓,0.5259183999733068,True,11,-1,0,5
Y2-S2-118K19,5,450,PS,exp,45,→,right,→,0.569423699984327,True,11,1,1,6
Y2-S2-118K19,5,451,PS,exp,28,↓,right,→,0.983042599982582,False,10,-1,1,7
Y2-S2-118K19,5,452,PS,exp,48,←,left,←,0.6376967999967746,True,11,-1,0,7
Y2-S2-118K19,5,453,PS,exp,45,→,right,→,0.4480426000081934,True,11,-1,0,7
Y2-S2-118K19,5,454,PS,exp,42,↓,left,←,0.7629670000169426,False,11,-1,0,7
Y2-S2-118K19,5,455,PS,exp,38,↑,up,↑,0.5804712999961339,True,12,-1,0,7
Y2-S2-118K19,5,456,PS,exp,40,←,left,←,0.5018513000104576,True,12,-1,0,7
Y2-S2-118K19,5,457,PS,exp,29,↓,left,←,0.7834808999905363,False,12,-1,0,7
Y2-S2-118K19,5,458,PS,exp,41,→,right,→,0.5854066000320017,True,13,-1,0,7
Y2-S2-118K19,5,459,PS,exp,50,↑,up,↑,0.462394000031054,True,13,-1,0,7
Y2-S2-118K19,5,460,PS,exp,35,→,right,→,0.5625287999864668,True,13,1,1,8
Y2-S2-118K19,5,461,PS,exp,31,↓,down,↓,0.5902795000001788,True,12,1,0,8
Y2-S2-118K19,5,462,PS,exp,42,←,left,←,0.5844023000099696,True,12,1,0,8
Y2-S2-118K19,5,463,PS,exp,39,↓,down,↓,0.7120758999953978,True,12,1,0,8
Y2-S2-118K19,5,464,PS,exp,48,↑,down,↓,0.6279414999880828,False,11,-1,1,9
Y2-S2-118K19,5,465,PS,exp,49,←,left,←,0.45620519999647513,True,12,-1,0,9
Y2-S2-118K19,5,466,PS,exp,27,→,left,←,0.7596789000090212,False,12,-1,0,9
Y2-S2-118K19,5,467,PS,exp,33,↓,down,↓,0.707610499986913,True,13,-1,0,9
Y2-S2-118K19,5,468,PS,exp,37,→,right,→,0.5720846999902278,True,13,-1,0,9
Y2-S2-118K19,5,469,PS,exp,30,←,left,←,0.5659159999922849,True,13,1,1,10
Y2-S2-118K19,5,470,PS,exp,28,→,right,→,0.44005750003270805,True,12,1,0,10
Y2-S2-118K19,5,471,PS,exp,46,←,left,←,1.1751671000383794,True,12,1,0,10
Y2-S2-118K19,5,472,PS,exp,38,↑,left,←,0.8804456000216305,False,12,-1,1,11
Y2-S2-118K19,5,473,PS,exp,36,↓,down,↓,0.5107580000185408,True,13,-1,0,11
Y2-S2-118K19,5,474,PS,exp,44,↑,left,←,0.5601168999564834,False,13,-1,0,11
Y2-S2-118K19,5,475,PS,exp,43,↓,down,↓,0.5268257000134327,True,14,-1,0,11
Y2-S2-118K19,5,476,PS,exp,28,↑,up,↑,0.4834790999884717,True,14,-1,0,11
Y2-S2-118K19,5,477,PS,exp,48,←,left,←,0.488398400018923,True,14,1,1,12
Y2-S2-118K19,5,478,PS,exp,50,→,right,→,0.5765328999841586,True,13,1,0,12
Y2-S2-118K19,5,479,PS,exp,48,↓,down,↓,0.6266187999863178,True,13,1,0,12
Y2-S2-118K19,5,480,PS,exp,31,→,no_key,no_letter,-1.0,False,13,-1,1,13
Y2-S2-118K19,5,481,PS,exp,32,←,left,←,0.9268725999863818,True,14,-1,0,13
Y2-S2-118K19,5,482,PS,exp,43,↓,left,←,0.9603298000292853,False,14,-1,0,13
Y2-S2-118K19,5,483,PS,exp,30,→,right,→,0.6739546000026166,True,15,-1,0,13
Y2-S2-118K19,5,484,PS,exp,44,↑,right,→,0.8505661000381224,False,15,-1,0,13
Y2-S2-118K19,5,485,PS,exp,37,←,left,←,0.5369606000022031,True,16,-1,0,13
Y2-S2-118K19,5,486,PS,exp,48,→,right,→,0.837691199965775,True,16,-1,0,13
Y2-S2-118K19,5,487,PS,exp,39,↑,up,↑,0.4476851999643259,True,16,1,1,14
Y2-S2-118K19,5,488,PS,exp,28,→,right,→,0.525342200009618,True,15,1,0,14
Y2-S2-118K19,5,489,PS,exp,48,↓,down,↓,0.5723171000136063,True,15,1,0,14
Y2-S2-118K19,5,490,PS,exp,40,←,left,←,0.6947729999665171,True,15,1,0,14
Y2-S2-118K19,5,491,PS,exp,31,→,right,→,0.5743361000204459,True,14,1,0,14
Y2-S2-118K19,5,492,PS,exp,49,←,left,←,0.7129607999813743,True,14,1,0,14
Y2-S2-118K19,5,493,PS,exp,45,↑,up,↑,0.6191434999927878,True,14,1,0,14
Y2-S2-118K19,5,494,PS,exp,40,→,left,←,0.579139799985569,False,13,-1,1,15
Y2-S2-118K19,5,495,PS,exp,42,↓,down,↓,0.6529866000055335,True,14,-1,0,15
Y2-S2-118K19,5,496,PS,exp,30,←,left,←,0.5594504000036977,True,14,-1,0,15
Y2-S2-118K19,5,497,PS,exp,26,↑,up,↑,0.5730642999988049,True,14,1,1,16
Y2-S2-118K19,6,498,AS,intra_train,48,←,left,←,0.4335896999691613,True,25,-,-,-
Y2-S2-118K19,6,499,AS,intra_train,34,→,right,→,0.7178265000111423,True,25,-,-,-
Y2-S2-118K19,6,500,AS,intra_train,46,↑,up,↑,0.603087300027255,True,25,-,-,-
Y2-S2-118K19,6,501,AS,intra_train,48,→,right,→,0.8019419999909587,True,25,-,-,-
Y2-S2-118K19,6,502,AS,intra_train,28,←,left,←,0.4173218999640085,True,25,-,-,-
Y2-S2-118K19,6,503,AS,exp,28,↓,up,↑,0.7884768000221811,False,17,-1,0,0
Y2-S2-118K19,6,504,AS,exp,26,→,right,→,0.6513630999834277,True,18,-1,0,0
Y2-S2-118K19,6,505,AS,exp,37,↑,up,↑,0.5531927999691106,True,18,-1,0,0
Y2-S2-118K19,6,506,AS,exp,37,←,right,→,0.7136156000196934,False,18,-1,0,0
Y2-S2-118K19,6,507,AS,exp,44,↑,up,↑,0.5026441999943927,True,19,-1,0,0
Y2-S2-118K19,6,508,AS,exp,35,↓,down,↓,0.560944200027734,True,19,-1,0,0
Y2-S2-118K19,6,509,AS,exp,42,↑,up,↑,0.7537989999982528,True,19,1,1,1
Y2-S2-118K19,6,510,AS,exp,42,→,left,←,0.650156199990306,False,18,-1,1,2
Y2-S2-118K19,6,511,AS,exp,35,↑,up,↑,0.7002926000277512,True,19,-1,0,2
Y2-S2-118K19,6,512,AS,exp,30,→,right,→,0.6098086999845691,True,19,-1,0,2
Y2-S2-118K19,6,513,AS,exp,26,↓,down,↓,0.6454956000088714,True,19,1,1,3
Y2-S2-118K19,6,514,AS,exp,48,←,left,←,1.2453101999708451,True,18,1,0,3
Y2-S2-118K19,6,515,AS,exp,41,↑,up,↑,0.6241171999718063,True,18,1,0,3
Y2-S2-118K19,6,516,AS,exp,47,↓,up,↑,0.8318533000419848,False,18,-1,1,4
Y2-S2-118K19,6,517,AS,exp,50,←,left,←,0.7343934999662451,True,19,-1,0,4
Y2-S2-118K19,6,518,AS,exp,30,↓,down,↓,0.7982747000060044,True,19,-1,0,4
Y2-S2-118K19,6,519,AS,exp,46,←,left,←,0.5927790999994613,True,19,1,1,5
Y2-S2-118K19,6,520,AS,exp,46,↓,down,↓,0.5944012999534607,True,18,1,0,5
Y2-S2-118K19,6,521,AS,exp,50,↑,down,↓,0.6543660999741405,False,18,-1,1,6
Y2-S2-118K19,6,522,AS,exp,35,↓,down,↓,0.8569767999579199,True,19,-1,0,6
Y2-S2-118K19,6,523,AS,exp,40,→,right,→,0.6819263000506908,True,19,-1,0,6
Y2-S2-118K19,6,524,AS,exp,29,↑,up,↑,0.6790398000157438,True,19,1,1,7
Y2-S2-118K19,6,525,AS,exp,30,←,left,←,0.5751910000108182,True,18,1,0,7
Y2-S2-118K19,6,526,AS,exp,36,↑,up,↑,0.5497984999674372,True,18,1,0,7
Y2-S2-118K19,6,527,AS,exp,28,→,right,→,0.8725179999601096,True,18,1,0,7
Y2-S2-118K19,6,528,AS,exp,31,←,left,←,0.6902462000143714,True,17,1,0,7
Y2-S2-118K19,6,529,AS,exp,32,↑,up,↑,1.1727916999952868,True,17,1,0,7
Y2-S2-118K19,6,530,AS,exp,37,←,right,→,0.6024769999785349,False,17,-1,1,8
Y2-S2-118K19,6,531,AS,exp,26,↑,up,↑,0.5106375999748707,True,18,-1,0,8
Y2-S2-118K19,6,532,AS,exp,37,→,right,→,0.5826183999888599,True,18,-1,0,8
Y2-S2-118K19,6,533,AS,exp,34,↑,up,↑,0.5006711999885738,True,18,1,1,9
Y2-S2-118K19,6,534,AS,exp,43,←,left,←,0.5844340999610722,True,17,1,0,9
Y2-S2-118K19,6,535,AS,exp,36,→,right,→,0.5405830999952741,True,17,1,0,9
Y2-S2-118K19,6,536,AS,exp,46,←,left,←,0.7933405000367202,True,17,1,0,9
Y2-S2-118K19,6,537,AS,exp,42,↑,up,↑,0.4912715000100434,True,16,1,0,9
Y2-S2-118K19,6,538,AS,exp,39,→,right,→,0.49681570002576336,True,16,1,0,9
Y2-S2-118K19,6,539,AS,exp,41,↓,down,↓,0.6574623000342399,True,16,1,0,9
Y2-S2-118K19,6,540,AS,exp,31,↑,up,↑,0.506984600040596,True,15,1,0,9
Y2-S2-118K19,6,541,AS,exp,39,↓,down,↓,0.7615750000113621,True,15,1,0,9
Y2-S2-118K19,6,542,AS,exp,36,←,right,→,0.6577843999839388,False,15,-1,1,10
Y2-S2-118K19,6,543,AS,exp,48,→,right,→,0.6111793000018224,True,16,-1,0,10
Y2-S2-118K19,6,544,AS,exp,40,←,right,→,0.8961478000273928,False,16,-1,0,10
Y2-S2-118K19,6,545,AS,exp,43,↑,up,↑,0.6640935000032187,True,17,-1,0,10
Y2-S2-118K19,6,546,AS,exp,26,↓,up,↑,0.7996535999700427,False,17,-1,0,10
Y2-S2-118K19,6,547,AS,exp,34,→,right,→,0.5743281000177376,True,18,-1,0,10
Y2-S2-118K19,6,548,AS,exp,33,↑,up,↑,0.5410918000270613,True,18,-1,0,10
Y2-S2-118K19,6,549,AS,exp,27,↓,down,↓,0.7229149999911897,True,18,1,1,11
Y2-S2-118K19,6,550,AS,exp,47,↑,up,↑,0.47926960000768304,True,17,1,0,11
Y2-S2-118K19,6,551,AS,exp,45,→,right,→,0.5474348999559879,True,17,1,0,11
Y2-S2-118K19,6,552,AS,exp,30,←,up,↑,0.8794910999713466,False,17,-1,1,12
Y2-S2-118K19,6,553,AS,exp,29,↑,up,↑,0.6150435000308789,True,18,-1,0,12
Y2-S2-118K19,6,554,AS,exp,27,→,right,→,0.6045819999999367,True,18,-1,0,12
Y2-S2-118K19,6,555,AS,exp,40,←,left,←,0.9250133000314236,True,18,1,1,13
Y2-S2-118K19,6,556,AS,exp,30,↓,down,↓,0.642337299999781,True,17,1,0,13
Y2-S2-118K19,6,557,AS,exp,29,→,right,→,0.7063376000151038,True,17,1,0,13
Y2-S2-118K19,6,558,AS,exp,27,↑,up,↑,0.7390675999922678,True,17,1,0,13
Y2-S2-118K19,6,559,AS,exp,41,←,left,←,0.9930260999826714,True,16,1,0,13
Y2-S2-118K19,6,560,AS,exp,34,↓,left,←,0.8457895999890752,False,16,-1,1,14
Y2-S2-118K19,6,561,AS,exp,44,←,left,←,0.6380124000133947,True,17,-1,0,14
Y2-S2-118K19,6,562,AS,exp,46,↑,up,↑,0.8458174000261351,True,17,-1,0,14
Y2-S2-118K19,6,563,AS,exp,34,→,right,→,1.069157499994617,True,17,1,1,15
Y2-S2-118K19,6,564,AS,exp,50,↓,down,↓,0.7175667000119574,True,16,1,0,15
Y2-S2-118K19,6,565,AS,exp,37,↑,up,↑,1.241437099990435,True,16,1,0,15
Y2-S2-118K19,6,566,AS,exp,38,→,left,←,0.7625107999774627,False,16,-1,1,16
Y2-S2-118K19,7,567,AS,intra_train,48,↑,up,↑,1.8964185999939218,True,25,-,-,-
Y2-S2-118K19,7,568,AS,intra_train,48,→,right,→,1.968308600015007,True,25,-,-,-
Y2-S2-118K19,7,569,AS,intra_train,26,↑,up,↑,0.5958229000098072,True,25,-,-,-
Y2-S2-118K19,7,570,AS,intra_train,30,←,left,←,0.708510699972976,True,25,-,-,-
Y2-S2-118K19,7,571,AS,intra_train,43,↓,down,↓,0.8518782999599352,True,25,-,-,-
Y2-S2-118K19,7,572,AS,exp,26,←,left,←,1.1391517000156455,True,17,0,0,0
Y2-S2-118K19,7,573,AS,exp,43,→,left,←,0.8012122999643907,False,17,-1,0,0
Y2-S2-118K19,7,574,AS,exp,49,←,left,←,1.0885643999790773,True,18,-1,0,0
Y2-S2-118K19,7,575,AS,exp,28,→,right,→,1.0199335999786854,True,18,-1,0,0
Y2-S2-118K19,7,576,AS,exp,44,←,left,←,0.7755618999945,True,18,1,1,1
Y2-S2-118K19,7,577,AS,exp,43,↑,up,↑,0.4176799000124447,True,17,1,0,1
Y2-S2-118K19,7,578,AS,exp,44,↓,down,↓,0.534153199987486,True,17,1,0,1
Y2-S2-118K19,7,579,AS,exp,46,←,left,←,0.4953821999952197,True,17,1,0,1
Y2-S2-118K19,7,580,AS,exp,48,↓,down,↓,0.49479519994929433,True,16,1,0,1
Y2-S2-118K19,7,581,AS,exp,25,↑,up,↑,0.60210439999355,True,16,1,0,1
Y2-S2-118K19,7,582,AS,exp,42,→,right,→,0.45978969999123365,True,16,1,0,1
Y2-S2-118K19,7,583,AS,exp,33,↑,up,↑,0.45242520002648234,True,15,1,0,1
Y2-S2-118K19,7,584,AS,exp,46,→,right,→,0.5815118000027724,True,15,1,0,1
Y2-S2-118K19,7,585,AS,exp,37,↓,down,↓,0.5429034000262618,True,15,1,0,1
Y2-S2-118K19,7,586,AS,exp,27,→,right,→,0.7493075000238605,True,14,1,0,1
Y2-S2-118K19,7,587,AS,exp,44,↑,up,↑,0.44408410001778975,True,14,1,0,1
Y2-S2-118K19,7,588,AS,exp,32,→,right,→,0.5469553000293672,True,14,1,0,1
Y2-S2-118K19,7,589,AS,exp,41,↓,right,→,1.7066283999592997,False,13,-1,1,2
Y2-S2-118K19,7,590,AS,exp,42,→,left,←,0.6301592999952845,False,14,-1,0,2
Y2-S2-118K19,7,591,AS,exp,32,↓,up,↑,1.2958438000059687,False,15,-1,0,2
Y2-S2-118K19,7,592,AS,exp,35,↑,up,↑,1.0671269000158645,True,16,-1,0,2
Y2-S2-118K19,7,593,AS,exp,46,↓,down,↓,0.7385424999520183,True,16,-1,0,2
Y2-S2-118K19,7,594,AS,exp,26,↑,up,↑,0.4674459000234492,True,16,1,1,3
Y2-S2-118K19,7,595,AS,exp,35,→,right,→,0.6194826999562792,True,15,1,0,3
Y2-S2-118K19,7,596,AS,exp,33,↑,up,↑,0.5398913000244647,True,15,1,0,3
Y2-S2-118K19,7,597,AS,exp,45,→,right,→,0.58305959997233,True,15,1,0,3
Y2-S2-118K19,7,598,AS,exp,38,←,right,→,0.6847316000494175,False,14,-1,1,4
Y2-S2-118K19,7,599,AS,exp,41,→,right,→,1.5078692000242881,True,15,-1,0,4
Y2-S2-118K19,7,600,AS,exp,43,←,left,←,0.5211578000453301,True,15,-1,0,4
Y2-S2-118K19,7,601,AS,exp,37,↑,up,↑,0.4186587000149302,True,15,1,1,5
Y2-S2-118K19,7,602,AS,exp,28,←,right,→,0.56955380004365,False,14,-1,1,6
Y2-S2-118K19,7,603,AS,exp,35,↓,down,↓,0.6042788999620825,True,15,-1,0,6
Y2-S2-118K19,7,604,AS,exp,25,↑,down,↓,0.6926831000018865,False,15,-1,0,6
Y2-S2-118K19,7,605,AS,exp,29,→,right,→,0.4785492999944836,True,16,-1,0,6
Y2-S2-118K19,7,606,AS,exp,25,↑,down,↓,0.8946818999829702,False,16,-1,0,6
Y2-S2-118K19,7,607,AS,exp,44,←,right,→,0.6266179999802262,False,17,-1,0,6
Y2-S2-118K19,7,608,AS,exp,29,→,right,→,0.41715120000299066,True,18,-1,0,6
Y2-S2-118K19,7,609,AS,exp,30,↑,up,↑,0.5613613000023179,True,18,-1,0,6
Y2-S2-118K19,7,610,AS,exp,36,→,right,→,0.5519033999880776,True,18,1,1,7
Y2-S2-118K19,7,611,AS,exp,43,↓,up,↑,0.9769953999784775,False,17,-1,1,8
Y2-S2-118K19,7,612,AS,exp,50,←,left,←,0.4912301999866031,True,18,-1,0,8
Y2-S2-118K19,7,613,AS,exp,34,→,left,←,0.6435632999637164,False,18,-1,0,8
Y2-S2-118K19,7,614,AS,exp,29,←,left,←,0.5669202000135556,True,19,-1,0,8
Y2-S2-118K19,7,615,AS,exp,30,↑,up,↑,0.4172956999973394,True,19,-1,0,8
Y2-S2-118K19,7,616,AS,exp,39,→,right,→,0.7658026000135578,True,19,1,1,9
Y2-S2-118K19,7,617,AS,exp,30,↑,up,↑,0.4339860000181943,True,18,1,0,9
Y2-S2-118K19,7,618,AS,exp,40,↓,down,↓,0.7695525999879465,True,18,1,0,9
Y2-S2-118K19,7,619,AS,exp,50,↑,down,↓,0.7090877000009641,False,18,-1,1,10
Y2-S2-118K19,7,620,AS,exp,31,↓,right,→,0.6719047999940813,False,19,-1,0,10
Y2-S2-118K19,7,621,AS,exp,36,←,left,←,0.7074464000179432,True,20,-1,0,10
Y2-S2-118K19,7,622,AS,exp,45,↑,up,↑,0.3840353999985382,True,20,-1,0,10
Y2-S2-118K19,7,623,AS,exp,29,←,left,←,0.8043501999927685,True,20,1,1,11
Y2-S2-118K19,7,624,AS,exp,25,↓,up,↑,0.5940216999733821,False,19,-1,1,12
Y2-S2-118K19,7,625,AS,exp,37,↑,up,↑,0.6027042000205256,True,20,-1,0,12
Y2-S2-118K19,7,626,AS,exp,29,→,right,→,0.5626444999943487,True,20,-1,0,12
Y2-S2-118K19,7,627,AS,exp,39,↑,up,↑,0.6050271000131033,True,20,1,1,13
Y2-S2-118K19,7,628,AS,exp,33,↓,down,↓,0.6494823000393808,True,19,1,0,13
Y2-S2-118K19,7,629,AS,exp,50,↑,up,↑,0.45079710002755746,True,19,1,0,13
Y2-S2-118K19,7,630,AS,exp,31,→,right,→,0.6557305000023916,True,19,1,0,13
Y2-S2-118K19,7,631,AS,exp,39,←,right,→,1.488383400021121,False,18,-1,1,14
Y2-S2-118K19,7,632,AS,exp,25,→,right,→,0.5353892999701202,True,19,-1,0,14
Y2-S2-118K19,7,633,AS,exp,37,↓,up,↑,0.5235562000307254,False,19,-1,0,14
Y2-S2-118K19,7,634,AS,exp,40,→,left,←,0.5670438999659382,False,20,-1,0,14
Y2-S2-118K19,7,635,AS,exp,45,↑,up,↑,0.4005616000504233,True,21,-1,0,14
Y2-S2-118K19,7,636,AS,exp,29,→,right,→,0.4673641999834217,True,21,-1,0,14
Y2-S2-118K19,7,637,AS,exp,34,←,left,←,0.5242175000021234,True,21,1,1,15
Y2-S2-118K19,7,638,AS,exp,49,→,right,→,0.5646920999861322,True,20,1,0,15
Y2-S2-118K19,7,639,AS,exp,26,↓,down,↓,0.695723699987866,True,20,1,0,15
Y2-S2-118K19,7,640,AS,exp,27,→,right,→,0.6834421000094153,True,20,1,0,15
Y2-S2-118K19,7,641,AS,exp,29,↑,up,↑,0.5003840000135824,True,19,1,0,15
Y2-S2-118K19,7,642,AS,exp,38,→,left,←,0.7189153000363149,False,19,-1,1,16
Y2-S2-118K19,8,643,PS,intra_train,40,←,left,←,0.48055909998947755,True,15,-,-,-
Y2-S2-118K19,8,644,PS,intra_train,46,↓,down,↓,0.6348289999878034,True,15,-,-,-
Y2-S2-118K19,8,645,PS,intra_train,44,←,left,←,0.5116649000556208,True,15,-,-,-
Y2-S2-118K19,8,646,PS,intra_train,27,→,right,→,0.5815698999795131,True,15,-,-,-
Y2-S2-118K19,8,647,PS,intra_train,32,↓,down,↓,0.536994100024458,True,15,-,-,-
Y2-S2-118K19,8,648,PS,exp,50,←,right,→,0.6990407999837771,False,10,-1,0,0
Y2-S2-118K19,8,649,PS,exp,37,↑,up,↑,0.5049200000357814,True,11,-1,0,0
Y2-S2-118K19,8,650,PS,exp,27,↓,down,↓,0.5012444999883883,True,11,-1,0,0
Y2-S2-118K19,8,651,PS,exp,48,→,right,→,0.48067770001944155,True,11,1,1,1
Y2-S2-118K19,8,652,PS,exp,30,↑,up,↑,0.4694766000029631,True,10,1,0,1
Y2-S2-118K19,8,653,PS,exp,44,→,right,→,0.8063424999709241,True,10,1,0,1
Y2-S2-118K19,8,654,PS,exp,43,↑,up,↑,0.4439436999964528,True,10,1,0,1
Y2-S2-118K19,8,655,PS,exp,28,→,right,→,0.6474871999816969,True,9,1,0,1
Y2-S2-118K19,8,656,PS,exp,41,↑,left,←,1.0674389000050724,False,9,-1,1,2
Y2-S2-118K19,8,657,PS,exp,33,→,right,→,0.49594810005510226,True,10,-1,0,2
Y2-S2-118K19,8,658,PS,exp,40,↑,up,↑,0.40789039997616783,True,10,-1,0,2
Y2-S2-118K19,8,659,PS,exp,29,→,right,→,0.5297934000263922,True,10,1,1,3
Y2-S2-118K19,8,660,PS,exp,28,←,up,↑,1.082647499977611,False,9,-1,1,4
Y2-S2-118K19,8,661,PS,exp,43,→,right,→,0.5735344000277109,True,10,-1,0,4
Y2-S2-118K19,8,662,PS,exp,25,↓,down,↓,0.7662157999584451,True,10,-1,0,4
Y2-S2-118K19,8,663,PS,exp,38,↑,right,→,0.6200299999909475,False,10,-1,0,4
Y2-S2-118K19,8,664,PS,exp,38,↓,down,↓,0.5065783999743871,True,11,-1,0,4
Y2-S2-118K19,8,665,PS,exp,43,↑,left,←,0.8520742999971844,False,11,-1,0,4
Y2-S2-118K19,8,666,PS,exp,45,↓,down,↓,0.586361899971962,True,12,-1,0,4
Y2-S2-118K19,8,667,PS,exp,42,←,left,←,0.8050908999866806,True,12,-1,0,4
Y2-S2-118K19,8,668,PS,exp,49,↑,up,↑,0.5893995000515133,True,12,1,1,5
Y2-S2-118K19,8,669,PS,exp,37,→,right,→,0.5745886999648064,True,11,1,0,5
Y2-S2-118K19,8,670,PS,exp,32,←,left,←,0.4715897000278346,True,11,1,0,5
Y2-S2-118K19,8,671,PS,exp,46,↑,right,→,0.8194516999647021,False,11,-1,1,6
Y2-S2-118K19,8,672,PS,exp,47,←,left,←,0.5446226000203751,True,12,-1,0,6
Y2-S2-118K19,8,673,PS,exp,34,↓,left,←,0.7414065999910235,False,12,-1,0,6
Y2-S2-118K19,8,674,PS,exp,27,→,left,←,0.7446942999958992,False,13,-1,0,6
Y2-S2-118K19,8,675,PS,exp,26,←,no_key,no_letter,-1.0,False,14,-1,0,6
Y2-S2-118K19,8,676,PS,exp,36,↓,left,←,0.839883100008592,False,15,-1,0,6
Y2-S2-118K19,8,677,PS,exp,39,→,right,→,0.5129948999965563,True,16,-1,0,6
Y2-S2-118K19,8,678,PS,exp,26,↑,up,↑,0.5131820000242442,True,16,-1,0,6
Y2-S2-118K19,8,679,PS,exp,50,←,left,←,0.43612869997741655,True,16,1,1,7
Y2-S2-118K19,8,680,PS,exp,46,↑,up,↑,0.446540700038895,True,15,1,0,7
Y2-S2-118K19,8,681,PS,exp,27,→,right,→,0.6161998000461608,True,15,1,0,7
Y2-S2-118K19,8,682,PS,exp,33,←,left,←,0.42163449997315183,True,15,1,0,7
Y2-S2-118K19,8,683,PS,exp,27,↓,down,↓,0.5895590999862179,True,14,1,0,7
Y2-S2-118K19,8,684,PS,exp,48,↑,up,↑,0.4384907000348903,True,14,1,0,7
Y2-S2-118K19,8,685,PS,exp,32,←,right,→,0.6852517999941483,False,14,-1,1,8
Y2-S2-118K19,8,686,PS,exp,36,↓,down,↓,0.6688335000071675,True,15,-1,0,8
Y2-S2-118K19,8,687,PS,exp,26,↑,up,↑,1.2634202999761328,True,15,-1,0,8
Y2-S2-118K19,8,688,PS,exp,34,→,left,←,0.6569250000175089,False,15,-1,0,8
Y2-S2-118K19,8,689,PS,exp,25,↑,up,↑,0.47450280003249645,True,16,-1,0,8
Y2-S2-118K19,8,690,PS,exp,28,↓,down,↓,0.508972099982202,True,16,-1,0,8
Y2-S2-118K19,8,691,PS,exp,34,←,left,←,1.3035224999766797,True,16,1,1,9
Y2-S2-118K19,8,692,PS,exp,28,↓,left,←,0.9218863000278361,False,15,-1,1,10
Y2-S2-118K19,8,693,PS,exp,48,↑,up,↑,0.4763856999925338,True,16,-1,0,10
Y2-S2-118K19,8,694,PS,exp,29,→,right,→,0.585192000027746,True,16,-1,0,10
Y2-S2-118K19,8,695,PS,exp,35,↓,down,↓,0.6787976000341587,True,16,1,1,11
Y2-S2-118K19,8,696,PS,exp,41,→,left,←,0.6877869999734685,False,15,-1,1,12
Y2-S2-118K19,8,697,PS,exp,40,↓,down,↓,0.6736542000435293,True,16,-1,0,12
Y2-S2-118K19,8,698,PS,exp,43,→,right,→,0.5083332000067458,True,16,-1,0,12
Y2-S2-118K19,8,699,PS,exp,26,↑,up,↑,0.5016992000164464,True,16,1,1,13
Y2-S2-118K19,8,700,PS,exp,43,→,right,→,0.35063860000809655,True,15,1,0,13
Y2-S2-118K19,8,701,PS,exp,46,←,left,←,0.4821311999694444,True,15,1,0,13
Y2-S2-118K19,8,702,PS,exp,26,↑,up,↑,0.46032140002353117,True,15,1,0,13
Y2-S2-118K19,8,703,PS,exp,37,←,left,←,0.40550690004602075,True,14,1,0,13
Y2-S2-118K19,8,704,PS,exp,38,→,right,→,0.4399527999921702,True,14,1,0,13
Y2-S2-118K19,8,705,PS,exp,36,←,left,←,0.4997643000097014,True,14,1,0,13
Y2-S2-118K19,8,706,PS,exp,31,↓,left,←,0.7869799999753013,False,13,-1,1,14
Y2-S2-118K19,8,707,PS,exp,47,←,left,←,0.43110290000913665,True,14,-1,0,14
Y2-S2-118K19,8,708,PS,exp,38,→,right,→,0.4125554999918677,True,14,-1,0,14
Y2-S2-118K19,8,709,PS,exp,31,↓,down,↓,0.5878723999485373,True,14,1,1,15
Y2-S2-118K19,8,710,PS,exp,25,↑,up,↑,0.40702039998723194,True,13,1,0,15
Y2-S2-118K19,8,711,PS,exp,35,→,right,→,0.4886343000107445,True,13,1,0,15
Y2-S2-118K19,8,712,PS,exp,45,←,right,→,1.0924489999888465,False,13,-1,1,16
