PART_ID,Block_no,Trial_no,Block_type,Trial_type,CSI,Stim_letter,Key_pressed,letter_choose,Rt,Corr,Stimulus Time,Level,Reversal,Revs_count
Y2-S2-284K20,1,1,PS,train,36,↓,down,↓,0.7015763000817969,True,30,-,-,-
Y2-S2-284K20,1,2,PS,train,44,↑,up,↑,0.5341111000161618,True,30,-,-,-
Y2-S2-284K20,1,3,PS,train,50,←,left,←,0.6882360000163317,True,30,-,-,-
Y2-S2-284K20,1,4,PS,train,36,↑,up,↑,0.5342881999677047,True,30,-,-,-
Y2-S2-284K20,1,5,PS,train,38,←,left,←,0.6338294999441132,True,30,-,-,-
Y2-S2-284K20,1,6,PS,train,36,↓,down,↓,0.5004547999706119,True,30,-,-,-
Y2-S2-284K20,1,7,PS,train,36,↑,up,↑,0.9475711999693885,True,30,-,-,-
Y2-S2-284K20,1,8,PS,train,41,←,left,←,0.6008975999429822,True,30,-,-,-
Y2-S2-284K20,1,9,PS,train,49,↑,up,↑,0.6704996000044048,True,30,-,-,-
Y2-S2-284K20,1,10,PS,train,45,←,right,→,0.6339695999631658,False,30,-,-,-
Y2-S2-284K20,2,11,AS,train,42,↑,up,↑,0.784039800055325,True,45,-,-,-
Y2-S2-284K20,2,12,AS,train,44,→,right,→,0.6508777999551967,True,45,-,-,-
Y2-S2-284K20,2,13,AS,train,45,←,left,←,0.5846101000206545,True,45,-,-,-
Y2-S2-284K20,2,14,AS,train,25,↑,up,↑,0.7178861000575125,True,45,-,-,-
Y2-S2-284K20,2,15,AS,train,35,←,left,←,0.5347046999959275,True,45,-,-,-
Y2-S2-284K20,2,16,AS,train,25,↑,up,↑,0.45081609999760985,True,45,-,-,-
Y2-S2-284K20,2,17,AS,train,42,→,right,→,0.384355999995023,True,45,-,-,-
Y2-S2-284K20,2,18,AS,train,38,↓,down,↓,0.567958900006488,True,45,-,-,-
Y2-S2-284K20,2,19,AS,train,31,←,left,←,0.7506368999602273,True,45,-,-,-
Y2-S2-284K20,2,20,AS,train,48,→,right,→,0.4178185999626294,True,45,-,-,-
Y2-S2-284K20,-,21,PS,adaptive,46,↑,up,↑,0.5939185000024736,True,10,0,0,0
Y2-S2-284K20,-,22,PS,adaptive,26,↓,down,↓,0.5314588999608532,True,10,0,0,0
Y2-S2-284K20,-,23,PS,adaptive,42,↑,left,←,1.4936380999861285,False,10,-1,0,0
Y2-S2-284K20,-,24,PS,adaptive,38,←,left,←,0.5320514999330044,True,11,-1,0,0
Y2-S2-284K20,-,25,PS,adaptive,45,→,right,→,0.6159761999733746,True,11,-1,0,0
Y2-S2-284K20,-,26,PS,adaptive,29,↑,up,↑,0.5507899000076577,True,11,1,1,1
Y2-S2-284K20,-,27,PS,adaptive,48,←,left,←,0.7090468999231234,True,10,1,0,1
Y2-S2-284K20,-,28,PS,adaptive,49,↑,up,↑,0.5176913000177592,True,10,1,0,1
Y2-S2-284K20,-,29,PS,adaptive,47,←,left,←,0.538087600027211,True,10,1,0,1
Y2-S2-284K20,-,30,PS,adaptive,29,↑,up,↑,0.5032948000589386,True,9,1,0,1
Y2-S2-284K20,-,31,PS,adaptive,31,←,left,←,0.5146758999908343,True,9,1,0,1
Y2-S2-284K20,-,32,PS,adaptive,27,↓,up,↑,0.8464292000280693,False,9,-1,1,2
Y2-S2-284K20,-,33,PS,adaptive,34,↑,left,←,0.7592617999762297,False,10,-1,0,2
Y2-S2-284K20,-,34,PS,adaptive,35,←,left,←,0.4611280000535771,True,11,-1,0,2
Y2-S2-284K20,-,35,PS,adaptive,48,→,right,→,0.5131627999944612,True,11,-1,0,2
Y2-S2-284K20,-,36,PS,adaptive,30,↓,left,←,0.7363835000433028,False,11,-1,0,2
Y2-S2-284K20,-,37,PS,adaptive,38,→,left,←,0.655513699981384,False,12,-1,0,2
Y2-S2-284K20,-,38,PS,adaptive,31,↑,up,↑,0.5710277000907809,True,13,-1,0,2
Y2-S2-284K20,-,39,PS,adaptive,49,→,right,→,1.1543168000644073,True,13,-1,0,2
Y2-S2-284K20,-,40,PS,adaptive,49,↓,up,↑,0.614210500032641,False,13,-1,0,2
Y2-S2-284K20,-,41,PS,adaptive,29,↑,up,↑,0.5785184999695048,True,14,-1,0,2
Y2-S2-284K20,-,42,PS,adaptive,27,←,right,→,0.6728455999400467,False,14,-1,0,2
Y2-S2-284K20,-,43,PS,adaptive,32,↑,left,←,0.7551190999802202,False,15,-1,0,2
Y2-S2-284K20,-,44,PS,adaptive,32,←,left,←,0.5328093999996781,True,16,-1,0,2
Y2-S2-284K20,-,45,PS,adaptive,43,↑,up,↑,0.4501433999976143,True,16,-1,0,2
Y2-S2-284K20,-,46,PS,adaptive,37,←,left,←,0.7286881000036374,True,16,1,1,3
Y2-S2-284K20,-,47,PS,adaptive,45,→,left,←,0.6704033000860363,False,15,-1,1,4
Y2-S2-284K20,-,48,AS,adaptive,44,←,left,←,0.5098310000030324,True,20,0,0,0
Y2-S2-284K20,-,49,AS,adaptive,42,→,right,→,0.6053848000010476,True,20,0,0,0
Y2-S2-284K20,-,50,AS,adaptive,32,←,left,←,1.0577607000013813,True,20,1,0,0
Y2-S2-284K20,-,51,AS,adaptive,49,↓,up,↑,0.6132551999762654,False,19,-1,1,1
Y2-S2-284K20,-,52,AS,adaptive,49,←,right,→,0.7668554000556469,False,20,-1,0,1
Y2-S2-284K20,-,53,AS,adaptive,44,↓,up,↑,0.6174750999780372,False,21,-1,0,1
Y2-S2-284K20,-,54,AS,adaptive,47,→,right,→,0.45079530007205904,True,22,-1,0,1
Y2-S2-284K20,-,55,AS,adaptive,40,↑,up,↑,0.7792554999468848,True,22,-1,0,1
Y2-S2-284K20,-,56,AS,adaptive,30,←,left,←,0.7271495000459254,True,22,1,1,2
Y2-S2-284K20,-,57,AS,adaptive,29,→,right,→,0.5383140000049025,True,21,1,0,2
Y2-S2-284K20,-,58,AS,adaptive,26,←,left,←,0.5174575999844819,True,21,1,0,2
Y2-S2-284K20,-,59,AS,adaptive,25,↑,up,↑,0.48366060003172606,True,21,1,0,2
Y2-S2-284K20,-,60,AS,adaptive,43,→,right,→,1.0293806000845507,True,20,1,0,2
Y2-S2-284K20,-,61,AS,adaptive,31,↑,up,↑,1.1166413999162614,True,20,1,0,2
Y2-S2-284K20,-,62,AS,adaptive,30,←,left,←,0.6814694999484345,True,20,1,0,2
Y2-S2-284K20,-,63,AS,adaptive,31,↑,down,↓,0.7918199000414461,False,19,-1,1,3
Y2-S2-284K20,-,64,AS,adaptive,47,↓,down,↓,1.4067481000674888,True,20,-1,0,3
Y2-S2-284K20,-,65,AS,adaptive,27,↑,up,↑,0.6852151999482885,True,20,-1,0,3
Y2-S2-284K20,-,66,AS,adaptive,48,↓,down,↓,0.9119507001014426,True,20,1,1,4
Y2-S2-284K20,1,67,PS,intra_train,29,←,right,→,1.0352800000691786,False,24,-,-,-
Y2-S2-284K20,1,68,PS,intra_train,37,↑,right,→,1.0231854000594467,False,24,-,-,-
Y2-S2-284K20,1,69,PS,intra_train,48,→,right,→,1.0487464000470936,True,24,-,-,-
Y2-S2-284K20,1,70,PS,intra_train,29,↓,left,←,0.943748600082472,False,24,-,-,-
Y2-S2-284K20,1,71,PS,intra_train,45,↑,up,↑,0.5709308000514284,True,24,-,-,-
Y2-S2-284K20,1,72,PS,exp,48,→,right,→,0.583678099908866,True,16,0,0,0
Y2-S2-284K20,1,73,PS,exp,40,↓,down,↓,0.5865210000192747,True,16,0,0,0
Y2-S2-284K20,1,74,PS,exp,26,→,right,→,0.46229220007080585,True,16,1,0,0
Y2-S2-284K20,1,75,PS,exp,46,↓,down,↓,0.536610999959521,True,15,1,0,0
Y2-S2-284K20,1,76,PS,exp,41,←,left,←,0.45995719998609275,True,15,1,0,0
Y2-S2-284K20,1,77,PS,exp,43,↑,up,↑,0.5356476000742987,True,15,1,0,0
Y2-S2-284K20,1,78,PS,exp,32,←,left,←,0.5324533000821248,True,14,1,0,0
Y2-S2-284K20,1,79,PS,exp,45,↓,down,↓,0.5398430000059307,True,14,1,0,0
Y2-S2-284K20,1,80,PS,exp,28,→,right,→,0.8914743999484926,True,14,1,0,0
Y2-S2-284K20,1,81,PS,exp,31,←,right,→,0.8892111999448389,False,13,-1,1,1
Y2-S2-284K20,1,82,PS,exp,45,↑,up,↑,0.6790937999030575,True,14,-1,0,1
Y2-S2-284K20,1,83,PS,exp,49,←,left,←,0.47009069996420294,True,14,-1,0,1
Y2-S2-284K20,1,84,PS,exp,48,↑,up,↑,0.5512425000779331,True,14,1,1,2
Y2-S2-284K20,1,85,PS,exp,33,→,right,→,0.42466449993662536,True,13,1,0,2
Y2-S2-284K20,1,86,PS,exp,45,↓,down,↓,1.0122914999956265,True,13,1,0,2
Y2-S2-284K20,1,87,PS,exp,48,↑,up,↑,0.9121134000597522,True,13,1,0,2
Y2-S2-284K20,1,88,PS,exp,39,←,right,→,0.9124921000329778,False,12,-1,1,3
Y2-S2-284K20,1,89,PS,exp,30,→,right,→,0.6066607000539079,True,13,-1,0,3
Y2-S2-284K20,1,90,PS,exp,44,↑,up,↑,0.8061749000335112,True,13,-1,0,3
Y2-S2-284K20,1,91,PS,exp,39,←,left,←,0.7139146000845358,True,13,1,1,4
Y2-S2-284K20,1,92,PS,exp,48,→,right,→,0.8272385000018403,True,12,1,0,4
Y2-S2-284K20,1,93,PS,exp,41,←,left,←,0.46151140006259084,True,12,1,0,4
Y2-S2-284K20,1,94,PS,exp,48,↑,up,↑,0.45941120001953095,True,12,1,0,4
Y2-S2-284K20,1,95,PS,exp,37,←,right,→,0.6869521000189707,False,11,-1,1,5
Y2-S2-284K20,1,96,PS,exp,39,→,right,→,0.4186364999040961,True,12,-1,0,5
Y2-S2-284K20,1,97,PS,exp,32,↑,up,↑,0.4294955999357626,True,12,-1,0,5
Y2-S2-284K20,1,98,PS,exp,34,↓,right,→,0.6474781000288203,False,12,-1,0,5
Y2-S2-284K20,1,99,PS,exp,38,←,left,←,0.52308890002314,True,13,-1,0,5
Y2-S2-284K20,1,100,PS,exp,34,↑,up,↑,0.5506650999886915,True,13,-1,0,5
Y2-S2-284K20,1,101,PS,exp,50,→,right,→,0.513899700017646,True,13,1,1,6
Y2-S2-284K20,1,102,PS,exp,36,↓,down,↓,0.6107053000014275,True,12,1,0,6
Y2-S2-284K20,1,103,PS,exp,35,↑,left,←,1.0768164999317378,False,12,-1,1,7
Y2-S2-284K20,1,104,PS,exp,39,→,right,→,0.45248170010745525,True,13,-1,0,7
Y2-S2-284K20,1,105,PS,exp,39,↑,left,←,0.6740934000117704,False,13,-1,0,7
Y2-S2-284K20,1,106,PS,exp,49,←,right,→,0.557870400021784,False,14,-1,0,7
Y2-S2-284K20,1,107,PS,exp,45,↑,up,↑,0.5799331999151036,True,15,-1,0,7
Y2-S2-284K20,1,108,PS,exp,41,↓,down,↓,0.6506051999749616,True,15,-1,0,7
Y2-S2-284K20,1,109,PS,exp,27,↑,up,↑,0.45160499995108694,True,15,1,1,8
Y2-S2-284K20,1,110,PS,exp,31,→,right,→,0.8454999000532553,True,14,1,0,8
Y2-S2-284K20,1,111,PS,exp,37,↓,down,↓,0.542267500073649,True,14,1,0,8
Y2-S2-284K20,1,112,PS,exp,41,←,left,←,0.5625149999978021,True,14,1,0,8
Y2-S2-284K20,1,113,PS,exp,40,↓,down,↓,0.646635300014168,True,13,1,0,8
Y2-S2-284K20,1,114,PS,exp,39,↑,up,↑,0.4706179000204429,True,13,1,0,8
Y2-S2-284K20,1,115,PS,exp,48,←,down,↓,1.1264806999824941,False,13,-1,1,9
Y2-S2-284K20,1,116,PS,exp,31,↑,up,↑,0.46983760001603514,True,14,-1,0,9
Y2-S2-284K20,1,117,PS,exp,39,←,left,←,0.7480517999501899,True,14,-1,0,9
Y2-S2-284K20,1,118,PS,exp,35,↓,down,↓,0.5702245999127626,True,14,1,1,10
Y2-S2-284K20,1,119,PS,exp,33,↑,up,↑,0.4470580000197515,True,13,1,0,10
Y2-S2-284K20,1,120,PS,exp,38,→,right,→,0.4911822999129072,True,13,1,0,10
Y2-S2-284K20,1,121,PS,exp,49,←,left,←,0.5232288000406697,True,13,1,0,10
Y2-S2-284K20,1,122,PS,exp,40,↓,down,↓,0.6383549000602216,True,12,1,0,10
Y2-S2-284K20,1,123,PS,exp,25,→,right,→,0.452608700026758,True,12,1,0,10
Y2-S2-284K20,1,124,PS,exp,48,↑,up,↑,0.5215588000137359,True,12,1,0,10
Y2-S2-284K20,1,125,PS,exp,43,→,right,→,0.508527799975127,True,11,1,0,10
Y2-S2-284K20,1,126,PS,exp,44,↑,down,↓,0.8999801999889314,False,11,-1,1,11
Y2-S2-284K20,1,127,PS,exp,38,↓,down,↓,0.6350153000093997,True,12,-1,0,11
Y2-S2-284K20,1,128,PS,exp,45,←,left,←,0.6157108000479639,True,12,-1,0,11
Y2-S2-284K20,1,129,PS,exp,50,→,right,→,0.5072642000159249,True,12,1,1,12
Y2-S2-284K20,1,130,PS,exp,32,↓,down,↓,0.655971199972555,True,11,1,0,12
Y2-S2-284K20,1,131,PS,exp,43,→,right,→,0.4423855999484658,True,11,1,0,12
Y2-S2-284K20,1,132,PS,exp,49,←,down,↓,0.8226769999600947,False,11,-1,1,13
Y2-S2-284K20,1,133,PS,exp,28,↓,down,↓,0.58090409997385,True,12,-1,0,13
Y2-S2-284K20,1,134,PS,exp,50,↑,up,↑,0.549888200010173,True,12,-1,0,13
Y2-S2-284K20,1,135,PS,exp,48,→,right,→,0.5080980000784621,True,12,1,1,14
Y2-S2-284K20,1,136,PS,exp,31,←,left,←,0.670053799985908,True,11,1,0,14
Y2-S2-284K20,1,137,PS,exp,43,↓,down,↓,0.6623071000212803,True,11,1,0,14
Y2-S2-284K20,1,138,PS,exp,25,←,left,←,0.42477119993418455,True,11,1,0,14
Y2-S2-284K20,1,139,PS,exp,35,→,right,→,0.3730626000324264,True,10,1,0,14
Y2-S2-284K20,1,140,PS,exp,32,↑,up,↑,0.5149772999575362,True,10,1,0,14
Y2-S2-284K20,1,141,PS,exp,36,←,left,←,0.64194649993442,True,10,1,0,14
Y2-S2-284K20,1,142,PS,exp,36,→,left,←,0.5349539000308141,False,9,-1,1,15
Y2-S2-284K20,1,143,PS,exp,49,↑,up,↑,0.5094524999149144,True,10,-1,0,15
Y2-S2-284K20,1,144,PS,exp,35,→,right,→,0.829835299984552,True,10,-1,0,15
Y2-S2-284K20,1,145,PS,exp,29,←,down,↓,0.9099661000072956,False,10,-1,0,15
Y2-S2-284K20,1,146,PS,exp,41,↓,down,↓,0.5821065999334678,True,11,-1,0,15
Y2-S2-284K20,1,147,PS,exp,40,←,left,←,0.6526407001074404,True,11,-1,0,15
Y2-S2-284K20,1,148,PS,exp,43,↑,up,↑,0.517812000005506,True,11,1,1,16
Y2-S2-284K20,2,149,AS,intra_train,31,↓,down,↓,0.4679479000624269,True,28,-,-,-
Y2-S2-284K20,2,150,AS,intra_train,48,→,right,→,0.7408148000249639,True,28,-,-,-
Y2-S2-284K20,2,151,AS,intra_train,47,←,left,←,0.5336322999792174,True,28,-,-,-
Y2-S2-284K20,2,152,AS,intra_train,48,↓,down,↓,0.8493684999411926,True,28,-,-,-
Y2-S2-284K20,2,153,AS,intra_train,29,↑,up,↑,0.5171378999948502,True,28,-,-,-
Y2-S2-284K20,2,154,AS,exp,40,→,left,←,0.7992833000607789,False,19,-1,0,0
Y2-S2-284K20,2,155,AS,exp,27,←,left,←,0.6583022000268102,True,20,-1,0,0
Y2-S2-284K20,2,156,AS,exp,38,↓,right,→,0.5604106000391766,False,20,-1,0,0
Y2-S2-284K20,2,157,AS,exp,36,→,right,→,0.6067152000032365,True,21,-1,0,0
Y2-S2-284K20,2,158,AS,exp,42,←,left,←,0.6901109999744222,True,21,-1,0,0
Y2-S2-284K20,2,159,AS,exp,45,↓,down,↓,0.5537664000876248,True,21,1,1,1
Y2-S2-284K20,2,160,AS,exp,39,←,left,←,0.7802828999701887,True,20,1,0,1
Y2-S2-284K20,2,161,AS,exp,43,↑,up,↑,0.8349142000079155,True,20,1,0,1
Y2-S2-284K20,2,162,AS,exp,44,↓,down,↓,0.635875100037083,True,20,1,0,1
Y2-S2-284K20,2,163,AS,exp,50,→,right,→,0.6818195000523701,True,19,1,0,1
Y2-S2-284K20,2,164,AS,exp,47,↓,down,↓,0.8050480000674725,True,19,1,0,1
Y2-S2-284K20,2,165,AS,exp,48,↑,up,↑,0.6116535998880863,True,19,1,0,1
Y2-S2-284K20,2,166,AS,exp,39,→,right,→,0.7770768000045791,True,18,1,0,1
Y2-S2-284K20,2,167,AS,exp,27,←,right,→,0.5647635000059381,False,18,-1,1,2
Y2-S2-284K20,2,168,AS,exp,47,↑,right,→,0.9788914999226108,False,19,-1,0,2
Y2-S2-284K20,2,169,AS,exp,25,→,right,→,0.7603965000016615,True,20,-1,0,2
Y2-S2-284K20,2,170,AS,exp,39,↑,up,↑,0.7976970999734476,True,20,-1,0,2
Y2-S2-284K20,2,171,AS,exp,30,↓,down,↓,0.6811022999463603,True,20,1,1,3
Y2-S2-284K20,2,172,AS,exp,31,→,right,→,1.0217328999424353,True,19,1,0,3
Y2-S2-284K20,2,173,AS,exp,36,↓,down,↓,0.7556707999901846,True,19,1,0,3
Y2-S2-284K20,2,174,AS,exp,46,→,right,→,0.9714772999286652,True,19,1,0,3
Y2-S2-284K20,2,175,AS,exp,31,←,left,←,0.504989100038074,True,18,1,0,3
Y2-S2-284K20,2,176,AS,exp,46,→,right,→,0.4172721999930218,True,18,1,0,3
Y2-S2-284K20,2,177,AS,exp,44,↑,up,↑,0.6087013999931514,True,18,1,0,3
Y2-S2-284K20,2,178,AS,exp,40,↓,down,↓,0.4658248000778258,True,17,1,0,3
Y2-S2-284K20,2,179,AS,exp,32,←,left,←,0.4833945999853313,True,17,1,0,3
Y2-S2-284K20,2,180,AS,exp,35,↓,right,→,0.7326969000278041,False,17,-1,1,4
Y2-S2-284K20,2,181,AS,exp,39,←,left,←,0.7192504999693483,True,18,-1,0,4
Y2-S2-284K20,2,182,AS,exp,47,↑,up,↑,0.8169122999534011,True,18,-1,0,4
Y2-S2-284K20,2,183,AS,exp,42,↓,down,↓,0.9719553999602795,True,18,1,1,5
Y2-S2-284K20,2,184,AS,exp,34,→,right,→,0.3841508999466896,True,17,1,0,5
Y2-S2-284K20,2,185,AS,exp,45,↓,down,↓,0.5909265999216586,True,17,1,0,5
Y2-S2-284K20,2,186,AS,exp,49,↑,up,↑,1.017316700075753,True,17,1,0,5
Y2-S2-284K20,2,187,AS,exp,32,←,left,←,0.5232787999557331,True,16,1,0,5
Y2-S2-284K20,2,188,AS,exp,31,↑,right,→,0.8417319000000134,False,16,-1,1,6
Y2-S2-284K20,2,189,AS,exp,41,←,right,→,0.48480239999480546,False,17,-1,0,6
Y2-S2-284K20,2,190,AS,exp,32,→,right,→,0.4174815999576822,True,18,-1,0,6
Y2-S2-284K20,2,191,AS,exp,48,↑,up,↑,0.5346342000411823,True,18,-1,0,6
Y2-S2-284K20,2,192,AS,exp,27,←,left,←,0.4172270999988541,True,18,1,1,7
Y2-S2-284K20,2,193,AS,exp,44,↓,down,↓,0.4871555999852717,True,17,1,0,7
Y2-S2-284K20,2,194,AS,exp,33,→,right,→,0.5371687000151724,True,17,1,0,7
Y2-S2-284K20,2,195,AS,exp,41,↓,down,↓,0.6094274999340996,True,17,1,0,7
Y2-S2-284K20,2,196,AS,exp,35,→,right,→,0.4642586999107152,True,16,1,0,7
Y2-S2-284K20,2,197,AS,exp,44,↓,down,↓,0.9798081000335515,True,16,1,0,7
Y2-S2-284K20,2,198,AS,exp,30,↑,up,↑,0.6605952000245452,True,16,1,0,7
Y2-S2-284K20,2,199,AS,exp,40,↓,right,→,0.6298551000654697,False,15,-1,1,8
Y2-S2-284K20,2,200,AS,exp,26,→,right,→,0.4986881000222638,True,16,-1,0,8
Y2-S2-284K20,2,201,AS,exp,32,←,left,←,0.5045637999428436,True,16,-1,0,8
Y2-S2-284K20,2,202,AS,exp,36,→,right,→,0.57995020004455,True,16,1,1,9
Y2-S2-284K20,2,203,AS,exp,25,↑,down,↓,0.7612783999647945,False,15,-1,1,10
Y2-S2-284K20,2,204,AS,exp,47,←,left,←,0.6231400999240577,True,16,-1,0,10
Y2-S2-284K20,2,205,AS,exp,28,↑,up,↑,0.7108209000434726,True,16,-1,0,10
Y2-S2-284K20,2,206,AS,exp,30,←,left,←,0.5258131000446156,True,16,1,1,11
Y2-S2-284K20,2,207,AS,exp,26,↑,up,↑,0.7270658999914303,True,15,1,0,11
Y2-S2-284K20,2,208,AS,exp,48,→,left,←,0.7796866999706253,False,15,-1,1,12
Y2-S2-284K20,2,209,AS,exp,32,↑,up,↑,0.6345057999715209,True,16,-1,0,12
Y2-S2-284K20,2,210,AS,exp,35,↓,down,↓,0.8364838999696076,True,16,-1,0,12
Y2-S2-284K20,2,211,AS,exp,34,←,left,←,0.5547613999806345,True,16,1,1,13
Y2-S2-284K20,2,212,AS,exp,26,↑,up,↑,0.5059583999682218,True,15,1,0,13
Y2-S2-284K20,2,213,AS,exp,46,←,left,←,0.4957499000011012,True,15,1,0,13
Y2-S2-284K20,2,214,AS,exp,28,↓,up,↑,0.9258663000073284,False,15,-1,1,14
Y2-S2-284K20,2,215,AS,exp,38,↑,up,↑,0.4697794000385329,True,16,-1,0,14
Y2-S2-284K20,2,216,AS,exp,40,→,left,←,0.8310859999619424,False,16,-1,0,14
Y2-S2-284K20,2,217,AS,exp,45,↓,down,↓,0.6150369000388309,True,17,-1,0,14
Y2-S2-284K20,2,218,AS,exp,48,→,left,←,0.6842489999253303,False,17,-1,0,14
Y2-S2-284K20,2,219,AS,exp,30,↓,down,↓,0.5523183000041172,True,18,-1,0,14
Y2-S2-284K20,2,220,AS,exp,42,↑,down,↓,0.9687333999900147,False,18,-1,0,14
Y2-S2-284K20,2,221,AS,exp,49,←,left,←,0.5557814999483526,True,19,-1,0,14
Y2-S2-284K20,2,222,AS,exp,37,↓,down,↓,0.5104126000078395,True,19,-1,0,14
Y2-S2-284K20,2,223,AS,exp,38,→,right,→,0.9481563000008464,True,19,1,1,15
Y2-S2-284K20,2,224,AS,exp,41,↓,down,↓,0.5607929000398144,True,18,1,0,15
Y2-S2-284K20,2,225,AS,exp,30,↑,up,↑,0.9809490999905393,True,18,1,0,15
Y2-S2-284K20,2,226,AS,exp,38,←,left,←,0.557533000013791,True,18,1,0,15
Y2-S2-284K20,2,227,AS,exp,39,↓,down,↓,0.7100046999985352,True,17,1,0,15
Y2-S2-284K20,2,228,AS,exp,32,↑,up,↑,0.9134324999758974,True,17,1,0,15
Y2-S2-284K20,2,229,AS,exp,37,←,left,←,0.5498057000804693,True,17,1,0,15
Y2-S2-284K20,2,230,AS,exp,32,→,left,←,0.5292910999851301,False,16,-1,1,16
Y2-S2-284K20,3,231,AS,intra_train,43,↑,up,↑,0.6878318000817671,True,28,-,-,-
Y2-S2-284K20,3,232,AS,intra_train,47,↓,down,↓,0.8424403000390157,True,28,-,-,-
Y2-S2-284K20,3,233,AS,intra_train,49,←,left,←,0.500958799966611,True,28,-,-,-
Y2-S2-284K20,3,234,AS,intra_train,40,↓,left,←,0.7274639999959618,False,28,-,-,-
Y2-S2-284K20,3,235,AS,intra_train,42,←,left,←,0.7479487999808043,True,28,-,-,-
Y2-S2-284K20,3,236,AS,exp,45,↓,down,↓,1.1006656000390649,True,19,0,0,0
Y2-S2-284K20,3,237,AS,exp,27,↑,up,↑,0.8545254999771714,True,19,0,0,0
Y2-S2-284K20,3,238,AS,exp,49,↓,down,↓,0.5282039000885561,True,19,1,0,0
Y2-S2-284K20,3,239,AS,exp,50,→,right,→,0.929283200064674,True,18,1,0,0
Y2-S2-284K20,3,240,AS,exp,48,↑,up,↑,0.5549010999966413,True,18,1,0,0
Y2-S2-284K20,3,241,AS,exp,33,↓,down,↓,0.8007702000904828,True,18,1,0,0
Y2-S2-284K20,3,242,AS,exp,42,←,left,←,0.8950725001050159,True,17,1,0,0
Y2-S2-284K20,3,243,AS,exp,41,↓,down,↓,0.8146903000306338,True,17,1,0,0
Y2-S2-284K20,3,244,AS,exp,26,←,left,←,0.9260471001034603,True,17,1,0,0
Y2-S2-284K20,3,245,AS,exp,39,→,right,→,0.5195612999377772,True,16,1,0,0
Y2-S2-284K20,3,246,AS,exp,27,←,left,←,0.6188742999220267,True,16,1,0,0
Y2-S2-284K20,3,247,AS,exp,45,↑,down,↓,0.9959833000320941,False,16,-1,1,1
Y2-S2-284K20,3,248,AS,exp,28,→,right,→,0.8543090999592096,True,17,-1,0,1
Y2-S2-284K20,3,249,AS,exp,38,↓,down,↓,0.5263624999206513,True,17,-1,0,1
Y2-S2-284K20,3,250,AS,exp,43,←,left,←,0.5308780999621376,True,17,1,1,2
Y2-S2-284K20,3,251,AS,exp,33,↑,up,↑,0.5148954000324011,True,16,1,0,2
Y2-S2-284K20,3,252,AS,exp,31,→,right,→,0.6512437999481335,True,16,1,0,2
Y2-S2-284K20,3,253,AS,exp,39,↓,down,↓,0.5590987999457866,True,16,1,0,2
Y2-S2-284K20,3,254,AS,exp,35,→,right,→,0.6997584999771789,True,15,1,0,2
Y2-S2-284K20,3,255,AS,exp,45,↓,down,↓,0.5247491999762133,True,15,1,0,2
Y2-S2-284K20,3,256,AS,exp,45,→,right,→,0.8851560999173671,True,15,1,0,2
Y2-S2-284K20,3,257,AS,exp,33,↑,up,↑,0.5011981000425294,True,14,1,0,2
Y2-S2-284K20,3,258,AS,exp,36,↓,down,↓,0.5151163999689743,True,14,1,0,2
Y2-S2-284K20,3,259,AS,exp,30,↑,up,↑,0.5578746000537649,True,14,1,0,2
Y2-S2-284K20,3,260,AS,exp,33,↓,right,→,0.542274700012058,False,13,-1,1,3
Y2-S2-284K20,3,261,AS,exp,41,↑,up,↑,0.4596304999431595,True,14,-1,0,3
Y2-S2-284K20,3,262,AS,exp,39,↓,down,↓,0.6083232000237331,True,14,-1,0,3
Y2-S2-284K20,3,263,AS,exp,37,→,right,→,0.6690884999698028,True,14,1,1,4
Y2-S2-284K20,3,264,AS,exp,30,↑,up,↑,0.5310485999798402,True,13,1,0,4
Y2-S2-284K20,3,265,AS,exp,40,→,right,→,0.5006804999429733,True,13,1,0,4
Y2-S2-284K20,3,266,AS,exp,25,←,left,←,0.6067904999945313,True,13,1,0,4
Y2-S2-284K20,3,267,AS,exp,41,→,down,↓,0.5043888000072911,False,12,-1,1,5
Y2-S2-284K20,3,268,AS,exp,47,↑,up,↑,0.46174850000534207,True,13,-1,0,5
Y2-S2-284K20,3,269,AS,exp,44,←,right,→,0.5895737999817356,False,13,-1,0,5
Y2-S2-284K20,3,270,AS,exp,37,↑,up,↑,0.7465316000161693,True,14,-1,0,5
Y2-S2-284K20,3,271,AS,exp,28,→,right,→,0.40559370000846684,True,14,-1,0,5
Y2-S2-284K20,3,272,AS,exp,47,↓,up,↑,0.6318081999197602,False,14,-1,0,5
Y2-S2-284K20,3,273,AS,exp,34,↑,right,→,0.5951466000406072,False,15,-1,0,5
Y2-S2-284K20,3,274,AS,exp,35,←,right,→,0.6984565999591723,False,16,-1,0,5
Y2-S2-284K20,3,275,AS,exp,35,↓,down,↓,0.6107339999871328,True,17,-1,0,5
Y2-S2-284K20,3,276,AS,exp,45,←,right,→,0.608648500056006,False,17,-1,0,5
Y2-S2-284K20,3,277,AS,exp,34,→,right,→,0.9862358999671414,True,18,-1,0,5
Y2-S2-284K20,3,278,AS,exp,27,←,left,←,0.3674674000358209,True,18,-1,0,5
Y2-S2-284K20,3,279,AS,exp,38,↑,down,↓,0.9551605000160635,False,18,-1,0,5
Y2-S2-284K20,3,280,AS,exp,39,←,left,←,0.450494599994272,True,19,-1,0,5
Y2-S2-284K20,3,281,AS,exp,29,↓,down,↓,0.9078211999731138,True,19,-1,0,5
Y2-S2-284K20,3,282,AS,exp,40,←,right,→,0.5237317000282928,False,19,-1,0,5
Y2-S2-284K20,3,283,AS,exp,49,→,right,→,0.5389510999666527,True,20,-1,0,5
Y2-S2-284K20,3,284,AS,exp,33,↑,down,↓,0.8019006000831723,False,20,-1,0,5
Y2-S2-284K20,3,285,AS,exp,49,→,right,→,0.6395900000352412,True,21,-1,0,5
Y2-S2-284K20,3,286,AS,exp,47,←,left,←,0.36712540010921657,True,21,-1,0,5
Y2-S2-284K20,3,287,AS,exp,34,↑,up,↑,0.7862586000701413,True,21,1,1,6
Y2-S2-284K20,3,288,AS,exp,26,→,down,↓,0.9988262000260875,False,20,-1,1,7
Y2-S2-284K20,3,289,AS,exp,41,↓,down,↓,0.5725149000063539,True,21,-1,0,7
Y2-S2-284K20,3,290,AS,exp,32,→,right,→,0.45055910001974553,True,21,-1,0,7
Y2-S2-284K20,3,291,AS,exp,29,←,left,←,0.8271938000107184,True,21,1,1,8
Y2-S2-284K20,3,292,AS,exp,25,↑,down,↓,0.9452620999654755,False,20,-1,1,9
Y2-S2-284K20,3,293,AS,exp,47,←,left,←,0.31807959999423474,True,21,-1,0,9
Y2-S2-284K20,3,294,AS,exp,28,→,right,→,0.6707033000420779,True,21,-1,0,9
Y2-S2-284K20,3,295,AS,exp,31,↓,down,↓,0.9479082999750972,True,21,1,1,10
Y2-S2-284K20,3,296,AS,exp,26,→,right,→,0.4509633000707254,True,20,1,0,10
Y2-S2-284K20,3,297,AS,exp,46,↑,up,↑,0.7021924000000581,True,20,1,0,10
Y2-S2-284K20,3,298,AS,exp,31,↓,down,↓,0.5658745999680832,True,20,1,0,10
Y2-S2-284K20,3,299,AS,exp,41,↑,up,↑,0.6548570999875665,True,19,1,0,10
Y2-S2-284K20,3,300,AS,exp,42,→,right,→,0.4506919999839738,True,19,1,0,10
Y2-S2-284K20,3,301,AS,exp,25,↓,down,↓,0.610482000047341,True,19,1,0,10
Y2-S2-284K20,3,302,AS,exp,28,→,right,→,0.5471778999781236,True,18,1,0,10
Y2-S2-284K20,3,303,AS,exp,30,↑,up,↑,0.9110029999865219,True,18,1,0,10
Y2-S2-284K20,3,304,AS,exp,38,↓,down,↓,0.5168716999469325,True,18,1,0,10
Y2-S2-284K20,3,305,AS,exp,36,←,left,←,0.590777900069952,True,17,1,0,10
Y2-S2-284K20,3,306,AS,exp,29,→,right,→,0.714921599952504,True,17,1,0,10
Y2-S2-284K20,3,307,AS,exp,31,←,left,←,0.6344343000091612,True,17,1,0,10
Y2-S2-284K20,3,308,AS,exp,28,↓,down,↓,0.7270940000889823,True,16,1,0,10
Y2-S2-284K20,3,309,AS,exp,30,↑,up,↑,0.5262462999671698,True,16,1,0,10
Y2-S2-284K20,3,310,AS,exp,46,↓,down,↓,0.6965213998919353,True,16,1,0,10
Y2-S2-284K20,3,311,AS,exp,47,←,left,←,0.712550799944438,True,15,1,0,10
Y2-S2-284K20,3,312,AS,exp,25,→,right,→,0.42527799995150417,True,15,1,0,10
Y2-S2-284K20,3,313,AS,exp,32,↓,up,↑,0.5628761999541894,False,15,-1,1,11
Y2-S2-284K20,3,314,AS,exp,43,→,down,↓,0.33384959993418306,False,16,-1,0,11
Y2-S2-284K20,3,315,AS,exp,29,↑,up,↑,0.4885700000450015,True,17,-1,0,11
Y2-S2-284K20,3,316,AS,exp,34,←,left,←,0.6533667999319732,True,17,-1,0,11
Y2-S2-284K20,3,317,AS,exp,35,→,right,→,0.9492032000562176,True,17,1,1,12
Y2-S2-284K20,3,318,AS,exp,33,↑,up,↑,0.4810737998923287,True,16,1,0,12
Y2-S2-284K20,3,319,AS,exp,50,→,right,→,0.4577362999552861,True,16,1,0,12
Y2-S2-284K20,3,320,AS,exp,41,↑,up,↑,0.47615870006848127,True,16,1,0,12
Y2-S2-284K20,3,321,AS,exp,45,←,left,←,0.5219162000576034,True,15,1,0,12
Y2-S2-284K20,3,322,AS,exp,43,↑,up,↑,0.47645610000472516,True,15,1,0,12
Y2-S2-284K20,3,323,AS,exp,40,←,left,←,0.5995380999520421,True,15,1,0,12
Y2-S2-284K20,3,324,AS,exp,48,↓,down,↓,0.4682091000722721,True,14,1,0,12
Y2-S2-284K20,3,325,AS,exp,27,→,right,→,0.6451840000227094,True,14,1,0,12
Y2-S2-284K20,3,326,AS,exp,44,←,left,←,0.4583349999738857,True,14,1,0,12
Y2-S2-284K20,3,327,AS,exp,37,↓,up,↑,0.6712450999766588,False,13,-1,1,13
Y2-S2-284K20,3,328,AS,exp,40,→,right,→,0.757055800058879,True,14,-1,0,13
Y2-S2-284K20,3,329,AS,exp,44,↓,right,→,0.6071956000523642,False,14,-1,0,13
Y2-S2-284K20,3,330,AS,exp,45,→,right,→,0.5603925999021158,True,15,-1,0,13
Y2-S2-284K20,3,331,AS,exp,48,←,left,←,0.65301140001975,True,15,-1,0,13
Y2-S2-284K20,3,332,AS,exp,47,→,right,→,0.6370454999851063,True,15,1,1,14
Y2-S2-284K20,3,333,AS,exp,46,←,left,←,0.44737219996750355,True,14,1,0,14
Y2-S2-284K20,3,334,AS,exp,50,↓,down,↓,0.732632500003092,True,14,1,0,14
Y2-S2-284K20,3,335,AS,exp,27,→,left,←,0.8049844999331981,False,14,-1,1,15
Y2-S2-284K20,3,336,AS,exp,34,←,left,←,0.4661525000119582,True,15,-1,0,15
Y2-S2-284K20,3,337,AS,exp,41,↑,up,↑,0.5724013999570161,True,15,-1,0,15
Y2-S2-284K20,3,338,AS,exp,25,↓,right,→,0.7403102000243962,False,15,-1,0,15
Y2-S2-284K20,3,339,AS,exp,33,←,left,←,0.8944310999941081,True,16,-1,0,15
Y2-S2-284K20,3,340,AS,exp,27,→,right,→,0.8491371999261901,True,16,-1,0,15
Y2-S2-284K20,3,341,AS,exp,47,←,left,←,0.7424949000123888,True,16,1,1,16
Y2-S2-284K20,4,342,PS,intra_train,46,→,right,→,0.4674966000020504,True,24,-,-,-
Y2-S2-284K20,4,343,PS,intra_train,34,←,left,←,0.4343563999282196,True,24,-,-,-
Y2-S2-284K20,4,344,PS,intra_train,49,→,right,→,0.3341431999579072,True,24,-,-,-
Y2-S2-284K20,4,345,PS,intra_train,40,↑,left,←,0.36774579994380474,False,24,-,-,-
Y2-S2-284K20,4,346,PS,intra_train,25,←,left,←,0.36754620005376637,True,24,-,-,-
Y2-S2-284K20,4,347,PS,exp,30,↓,down,↓,0.7537795999087393,True,16,0,0,0
Y2-S2-284K20,4,348,PS,exp,30,←,right,→,0.3506465998943895,False,16,-1,0,0
Y2-S2-284K20,4,349,PS,exp,31,↑,left,←,0.6170142999617383,False,17,-1,0,0
Y2-S2-284K20,4,350,PS,exp,38,←,left,←,0.5220243000658229,True,18,-1,0,0
Y2-S2-284K20,4,351,PS,exp,49,→,right,→,0.9718222999945283,True,18,-1,0,0
Y2-S2-284K20,4,352,PS,exp,33,←,left,←,0.4732273999834433,True,18,1,1,1
Y2-S2-284K20,4,353,PS,exp,49,↑,up,↑,0.49376869993284345,True,17,1,0,1
Y2-S2-284K20,4,354,PS,exp,46,↓,down,↓,0.5321559000294656,True,17,1,0,1
Y2-S2-284K20,4,355,PS,exp,46,←,left,←,0.8097386999288574,True,17,1,0,1
Y2-S2-284K20,4,356,PS,exp,44,↑,up,↑,0.728169999900274,True,16,1,0,1
Y2-S2-284K20,4,357,PS,exp,47,←,right,→,0.6216564000351354,False,16,-1,1,2
Y2-S2-284K20,4,358,PS,exp,31,→,right,→,0.40043330006301403,True,17,-1,0,2
Y2-S2-284K20,4,359,PS,exp,26,←,down,↓,1.0438115999568254,False,17,-1,0,2
Y2-S2-284K20,4,360,PS,exp,37,↑,up,↑,1.600939300027676,True,18,-1,0,2
Y2-S2-284K20,4,361,PS,exp,35,→,right,→,0.8945923000574112,True,18,-1,0,2
Y2-S2-284K20,4,362,PS,exp,34,↑,down,↓,0.9745086999610066,False,18,-1,0,2
Y2-S2-284K20,4,363,PS,exp,25,→,right,→,0.5443087000166997,True,19,-1,0,2
Y2-S2-284K20,4,364,PS,exp,28,↓,down,↓,0.6148755000904202,True,19,-1,0,2
Y2-S2-284K20,4,365,PS,exp,41,→,right,→,0.4172946000471711,True,19,1,1,3
Y2-S2-284K20,4,366,PS,exp,42,↑,up,↑,0.5094077999237925,True,18,1,0,3
Y2-S2-284K20,4,367,PS,exp,35,→,right,→,0.951015800004825,True,18,1,0,3
Y2-S2-284K20,4,368,PS,exp,38,↓,down,↓,0.4982477999292314,True,18,1,0,3
Y2-S2-284K20,4,369,PS,exp,46,↑,right,→,0.8033643999369815,False,17,-1,1,4
Y2-S2-284K20,4,370,PS,exp,33,→,right,→,0.8844109999481589,True,18,-1,0,4
Y2-S2-284K20,4,371,PS,exp,48,↑,up,↑,0.5737868999131024,True,18,-1,0,4
Y2-S2-284K20,4,372,PS,exp,26,↓,down,↓,0.6311852000653744,True,18,1,1,5
Y2-S2-284K20,4,373,PS,exp,36,↑,up,↑,0.4173389000352472,True,17,1,0,5
Y2-S2-284K20,4,374,PS,exp,48,←,left,←,0.8683645999990404,True,17,1,0,5
Y2-S2-284K20,4,375,PS,exp,28,→,right,→,0.41714469995349646,True,17,1,0,5
Y2-S2-284K20,4,376,PS,exp,40,↓,down,↓,0.640641100006178,True,16,1,0,5
Y2-S2-284K20,4,377,PS,exp,49,→,right,→,0.46928860002662987,True,16,1,0,5
Y2-S2-284K20,4,378,PS,exp,50,↓,right,→,0.9413874000310898,False,16,-1,1,6
Y2-S2-284K20,4,379,PS,exp,48,←,left,←,0.5993197999196127,True,17,-1,0,6
Y2-S2-284K20,4,380,PS,exp,48,↓,down,↓,0.5870374999940395,True,17,-1,0,6
Y2-S2-284K20,4,381,PS,exp,47,↑,up,↑,0.5164633999811485,True,17,1,1,7
Y2-S2-284K20,4,382,PS,exp,46,←,right,→,0.6350717999739572,False,16,-1,1,8
Y2-S2-284K20,4,383,PS,exp,28,↓,down,↓,0.6410539000062272,True,17,-1,0,8
Y2-S2-284K20,4,384,PS,exp,35,→,left,←,0.8000352000817657,False,17,-1,0,8
Y2-S2-284K20,4,385,PS,exp,42,←,left,←,0.5980040999129415,True,18,-1,0,8
Y2-S2-284K20,4,386,PS,exp,32,↑,left,←,0.8997874000342563,False,18,-1,0,8
Y2-S2-284K20,4,387,PS,exp,46,→,right,→,0.43409010011237115,True,19,-1,0,8
Y2-S2-284K20,4,388,PS,exp,40,↑,left,←,0.8452956998953596,False,19,-1,0,8
Y2-S2-284K20,4,389,PS,exp,26,→,right,→,0.7813171000452712,True,20,-1,0,8
Y2-S2-284K20,4,390,PS,exp,39,↑,up,↑,1.1438984000124037,True,20,-1,0,8
Y2-S2-284K20,4,391,PS,exp,39,←,left,←,0.8566539000021294,True,20,1,1,9
Y2-S2-284K20,4,392,PS,exp,41,↑,up,↑,0.62345220008865,True,19,1,0,9
Y2-S2-284K20,4,393,PS,exp,40,↓,down,↓,0.6058448000112548,True,19,1,0,9
Y2-S2-284K20,4,394,PS,exp,32,↑,up,↑,0.43440070003271103,True,19,1,0,9
Y2-S2-284K20,4,395,PS,exp,50,→,right,→,0.4003845000406727,True,18,1,0,9
Y2-S2-284K20,4,396,PS,exp,47,↑,up,↑,0.6815731000388041,True,18,1,0,9
Y2-S2-284K20,4,397,PS,exp,33,↓,left,←,0.8499556999886408,False,18,-1,1,10
Y2-S2-284K20,4,398,PS,exp,48,→,right,→,1.4907603999599814,True,19,-1,0,10
Y2-S2-284K20,4,399,PS,exp,39,←,no_key,no_letter,-1.0,False,19,-1,0,10
Y2-S2-284K20,4,400,PS,exp,47,↑,up,↑,0.5837638999801129,True,20,-1,0,10
Y2-S2-284K20,4,401,PS,exp,50,←,left,←,0.46700679999776185,True,20,-1,0,10
Y2-S2-284K20,4,402,PS,exp,34,↓,left,←,0.9668290999252349,False,20,-1,0,10
Y2-S2-284K20,4,403,PS,exp,28,↑,up,↑,0.5451048999093473,True,21,-1,0,10
Y2-S2-284K20,4,404,PS,exp,42,←,left,←,0.5488787000067532,True,21,-1,0,10
Y2-S2-284K20,4,405,PS,exp,37,↑,up,↑,0.5897820999380201,True,21,1,1,11
Y2-S2-284K20,4,406,PS,exp,39,→,right,→,0.35050739999860525,True,20,1,0,11
Y2-S2-284K20,4,407,PS,exp,28,↓,down,↓,0.5958335000323132,True,20,1,0,11
Y2-S2-284K20,4,408,PS,exp,38,→,right,→,0.4004332999465987,True,20,1,0,11
Y2-S2-284K20,4,409,PS,exp,28,↓,up,↑,0.9142576999729499,False,19,-1,1,12
Y2-S2-284K20,4,410,PS,exp,36,←,left,←,0.4172502999426797,True,20,-1,0,12
Y2-S2-284K20,4,411,PS,exp,30,↑,right,→,0.36866869998630136,False,20,-1,0,12
Y2-S2-284K20,4,412,PS,exp,46,→,left,←,0.7304346000310034,False,21,-1,0,12
Y2-S2-284K20,4,413,PS,exp,40,↓,left,←,0.9096608000108972,False,22,-1,0,12
Y2-S2-284K20,4,414,PS,exp,30,↑,up,↑,0.6306350999511778,True,23,-1,0,12
Y2-S2-284K20,4,415,PS,exp,45,←,left,←,0.6354672000743449,True,23,-1,0,12
Y2-S2-284K20,4,416,PS,exp,48,↓,down,↓,0.6004409999586642,True,23,1,1,13
Y2-S2-284K20,4,417,PS,exp,47,←,left,←,0.593489499995485,True,22,1,0,13
Y2-S2-284K20,4,418,PS,exp,46,↑,up,↑,0.6086576000088826,True,22,1,0,13
Y2-S2-284K20,4,419,PS,exp,33,↓,down,↓,0.5968475000699982,True,22,1,0,13
Y2-S2-284K20,4,420,PS,exp,40,↑,up,↑,0.43398910004179925,True,21,1,0,13
Y2-S2-284K20,4,421,PS,exp,48,←,left,←,0.6785474000498652,True,21,1,0,13
Y2-S2-284K20,4,422,PS,exp,30,↓,down,↓,0.7276360000250861,True,21,1,0,13
Y2-S2-284K20,4,423,PS,exp,49,→,right,→,0.4673008000245318,True,20,1,0,13
Y2-S2-284K20,4,424,PS,exp,30,↓,down,↓,0.7195108000887558,True,20,1,0,13
Y2-S2-284K20,4,425,PS,exp,31,←,left,←,0.467848900007084,True,20,1,0,13
Y2-S2-284K20,4,426,PS,exp,49,↓,down,↓,0.6194118000566959,True,19,1,0,13
Y2-S2-284K20,4,427,PS,exp,33,←,left,←,0.506012300029397,True,19,1,0,13
Y2-S2-284K20,4,428,PS,exp,39,↑,up,↑,0.5835301999468356,True,19,1,0,13
Y2-S2-284K20,4,429,PS,exp,49,→,right,→,0.9725325999315828,True,18,1,0,13
Y2-S2-284K20,4,430,PS,exp,33,↑,up,↑,1.0205744999693707,True,18,1,0,13
Y2-S2-284K20,4,431,PS,exp,32,→,right,→,0.6776737999171019,True,18,1,0,13
Y2-S2-284K20,4,432,PS,exp,29,↓,down,↓,0.6967150999698788,True,17,1,0,13
Y2-S2-284K20,4,433,PS,exp,29,→,right,→,0.799369000014849,True,17,1,0,13
Y2-S2-284K20,4,434,PS,exp,38,↑,up,↑,0.6627500000176951,True,17,1,0,13
Y2-S2-284K20,4,435,PS,exp,48,→,right,→,0.4591062000254169,True,16,1,0,13
Y2-S2-284K20,4,436,PS,exp,45,↓,left,←,0.9566898999037221,False,16,-1,1,14
Y2-S2-284K20,4,437,PS,exp,41,↑,up,↑,0.4863837999291718,True,17,-1,0,14
Y2-S2-284K20,4,438,PS,exp,29,←,left,←,0.6286785000702366,True,17,-1,0,14
Y2-S2-284K20,4,439,PS,exp,31,↑,up,↑,0.6023092999821529,True,17,1,1,15
Y2-S2-284K20,4,440,PS,exp,46,→,right,→,0.46143059991300106,True,16,1,0,15
Y2-S2-284K20,4,441,PS,exp,40,↓,down,↓,0.6054737999802455,True,16,1,0,15
Y2-S2-284K20,4,442,PS,exp,43,←,left,←,0.7824646000517532,True,16,1,0,15
Y2-S2-284K20,4,443,PS,exp,29,↑,up,↑,0.6130102999741212,True,15,1,0,15
Y2-S2-284K20,4,444,PS,exp,39,→,right,→,0.4864983999868855,True,15,1,0,15
Y2-S2-284K20,4,445,PS,exp,26,↑,up,↑,0.6182520999573171,True,15,1,0,15
Y2-S2-284K20,4,446,PS,exp,31,↓,down,↓,0.5822098999051377,True,14,1,0,15
Y2-S2-284K20,4,447,PS,exp,49,↑,up,↑,0.452426900039427,True,14,1,0,15
Y2-S2-284K20,4,448,PS,exp,43,↓,down,↓,0.6268903999589384,True,14,1,0,15
Y2-S2-284K20,4,449,PS,exp,40,↑,right,→,0.6815811999840662,False,13,-1,1,16
Y2-S2-284K20,5,450,PS,intra_train,45,↓,left,←,1.193545800051652,False,24,-,-,-
Y2-S2-284K20,5,451,PS,intra_train,40,→,right,→,0.5340209000278264,True,24,-,-,-
Y2-S2-284K20,5,452,PS,intra_train,42,↓,down,↓,0.6321238999953493,True,24,-,-,-
Y2-S2-284K20,5,453,PS,intra_train,28,→,right,→,0.8407959999749437,True,24,-,-,-
Y2-S2-284K20,5,454,PS,intra_train,39,↓,down,↓,0.6068267000373453,True,24,-,-,-
Y2-S2-284K20,5,455,PS,exp,40,←,left,←,0.762761399964802,True,16,0,0,0
Y2-S2-284K20,5,456,PS,exp,28,→,right,→,0.4652542000403628,True,16,0,0,0
Y2-S2-284K20,5,457,PS,exp,28,↓,down,↓,0.5818537999875844,True,16,1,0,0
Y2-S2-284K20,5,458,PS,exp,28,←,left,←,0.591311699943617,True,15,1,0,0
Y2-S2-284K20,5,459,PS,exp,32,↓,down,↓,0.4403646000428125,True,15,1,0,0
Y2-S2-284K20,5,460,PS,exp,44,↑,up,↑,0.6569684999994934,True,15,1,0,0
Y2-S2-284K20,5,461,PS,exp,35,→,right,→,0.6173957999562845,True,14,1,0,0
Y2-S2-284K20,5,462,PS,exp,37,↑,up,↑,0.5045315999304876,True,14,1,0,0
Y2-S2-284K20,5,463,PS,exp,33,←,left,←,0.6955379999708384,True,14,1,0,0
Y2-S2-284K20,5,464,PS,exp,49,→,right,→,0.49106799997389317,True,13,1,0,0
Y2-S2-284K20,5,465,PS,exp,45,↑,up,↑,0.7149708000943065,True,13,1,0,0
Y2-S2-284K20,5,466,PS,exp,25,→,right,→,0.49980720004532486,True,13,1,0,0
Y2-S2-284K20,5,467,PS,exp,25,↑,up,↑,0.8876459000166506,True,12,1,0,0
Y2-S2-284K20,5,468,PS,exp,35,↓,down,↓,0.5549085000529885,True,12,1,0,0
Y2-S2-284K20,5,469,PS,exp,42,↑,up,↑,0.5297372000059113,True,12,1,0,0
Y2-S2-284K20,5,470,PS,exp,26,←,right,→,0.666671899962239,False,11,-1,1,1
Y2-S2-284K20,5,471,PS,exp,46,→,right,→,0.4892270000418648,True,12,-1,0,1
Y2-S2-284K20,5,472,PS,exp,32,↓,right,→,0.4673097999766469,False,12,-1,0,1
Y2-S2-284K20,5,473,PS,exp,35,→,right,→,0.482601199997589,True,13,-1,0,1
Y2-S2-284K20,5,474,PS,exp,43,←,left,←,0.3176448999438435,True,13,-1,0,1
Y2-S2-284K20,5,475,PS,exp,42,→,right,→,0.427686300012283,True,13,1,1,2
Y2-S2-284K20,5,476,PS,exp,50,↑,up,↑,0.596869400003925,True,12,1,0,2
Y2-S2-284K20,5,477,PS,exp,26,←,left,←,0.8846675000386313,True,12,1,0,2
Y2-S2-284K20,5,478,PS,exp,33,↑,up,↑,0.49637139996048063,True,12,1,0,2
Y2-S2-284K20,5,479,PS,exp,29,↓,right,→,0.3763723000884056,False,11,-1,1,3
Y2-S2-284K20,5,480,PS,exp,32,→,right,→,0.4483215999789536,True,12,-1,0,3
Y2-S2-284K20,5,481,PS,exp,47,←,left,←,0.6783818000694737,True,12,-1,0,3
Y2-S2-284K20,5,482,PS,exp,29,→,right,→,0.472213999950327,True,12,1,1,4
Y2-S2-284K20,5,483,PS,exp,33,↑,up,↑,0.9880425999872386,True,11,1,0,4
Y2-S2-284K20,5,484,PS,exp,50,→,right,→,0.41430180007591844,True,11,1,0,4
Y2-S2-284K20,5,485,PS,exp,33,↓,down,↓,0.6256084999768063,True,11,1,0,4
Y2-S2-284K20,5,486,PS,exp,47,←,left,←,0.6027152000460774,True,10,1,0,4
Y2-S2-284K20,5,487,PS,exp,25,↓,down,↓,0.7646800000220537,True,10,1,0,4
Y2-S2-284K20,5,488,PS,exp,28,←,left,←,0.48244139994494617,True,10,1,0,4
Y2-S2-284K20,5,489,PS,exp,28,↑,up,↑,0.4376276999246329,True,9,1,0,4
Y2-S2-284K20,5,490,PS,exp,42,→,right,→,0.7424878000747412,True,9,1,0,4
Y2-S2-284K20,5,491,PS,exp,35,←,left,←,0.5302287999074906,True,9,1,0,4
Y2-S2-284K20,5,492,PS,exp,49,→,right,→,0.4193574000382796,True,8,1,0,4
Y2-S2-284K20,5,493,PS,exp,26,↓,up,↑,0.7964946000138298,False,8,-1,1,5
Y2-S2-284K20,5,494,PS,exp,44,↑,right,→,0.4994135999586433,False,9,-1,0,5
Y2-S2-284K20,5,495,PS,exp,31,←,left,←,0.7077696000924334,True,10,-1,0,5
Y2-S2-284K20,5,496,PS,exp,41,↑,left,←,0.5725703000789508,False,10,-1,0,5
Y2-S2-284K20,5,497,PS,exp,33,→,right,→,0.41149600001517683,True,11,-1,0,5
Y2-S2-284K20,5,498,PS,exp,30,↑,up,↑,0.8860939999576658,True,11,-1,0,5
Y2-S2-284K20,5,499,PS,exp,45,←,left,←,0.7901683000382036,True,11,1,1,6
Y2-S2-284K20,5,500,PS,exp,44,↑,up,↑,0.5834322000155225,True,10,1,0,6
Y2-S2-284K20,5,501,PS,exp,31,←,left,←,0.7377297000493854,True,10,1,0,6
Y2-S2-284K20,5,502,PS,exp,35,→,right,→,0.5043451000237837,True,10,1,0,6
Y2-S2-284K20,5,503,PS,exp,41,↑,up,↑,0.5884440999943763,True,9,1,0,6
Y2-S2-284K20,5,504,PS,exp,28,↓,right,→,0.6213379999389872,False,9,-1,1,7
Y2-S2-284K20,5,505,PS,exp,35,→,right,→,0.5933999000117183,True,10,-1,0,7
Y2-S2-284K20,5,506,PS,exp,43,↓,down,↓,0.5737101000268012,True,10,-1,0,7
Y2-S2-284K20,5,507,PS,exp,50,←,right,→,0.631642600055784,False,10,-1,0,7
Y2-S2-284K20,5,508,PS,exp,37,→,right,→,0.3587640000041574,True,11,-1,0,7
Y2-S2-284K20,5,509,PS,exp,33,↓,down,↓,0.6495383000001311,True,11,-1,0,7
Y2-S2-284K20,5,510,PS,exp,41,←,right,→,0.39257409994024783,False,11,-1,0,7
Y2-S2-284K20,5,511,PS,exp,36,↓,down,↓,0.5228834999725223,True,12,-1,0,7
Y2-S2-284K20,5,512,PS,exp,42,↑,up,↑,0.45228580001275986,True,12,-1,0,7
Y2-S2-284K20,5,513,PS,exp,46,→,right,→,0.48662600002717227,True,12,1,1,8
Y2-S2-284K20,5,514,PS,exp,39,←,left,←,0.6819922000868246,True,11,1,0,8
Y2-S2-284K20,5,515,PS,exp,43,↓,down,↓,0.5741320999804884,True,11,1,0,8
Y2-S2-284K20,5,516,PS,exp,32,→,right,→,0.45415450003929436,True,11,1,0,8
Y2-S2-284K20,5,517,PS,exp,29,↓,down,↓,0.575742100016214,True,10,1,0,8
Y2-S2-284K20,5,518,PS,exp,45,→,right,→,0.39934930007439107,True,10,1,0,8
Y2-S2-284K20,5,519,PS,exp,37,↓,down,↓,0.7459693000419065,True,10,1,0,8
Y2-S2-284K20,5,520,PS,exp,28,↑,up,↑,0.4392010000301525,True,9,1,0,8
Y2-S2-284K20,5,521,PS,exp,26,←,left,←,0.6556000000564381,True,9,1,0,8
Y2-S2-284K20,5,522,PS,exp,47,→,right,→,0.4235708999913186,True,9,1,0,8
Y2-S2-284K20,5,523,PS,exp,41,↑,up,↑,0.4868369000032544,True,8,1,0,8
Y2-S2-284K20,5,524,PS,exp,31,↓,down,↓,0.7465953999198973,True,8,1,0,8
Y2-S2-284K20,5,525,PS,exp,37,←,left,←,0.5785927000688389,True,8,1,0,8
Y2-S2-284K20,5,526,PS,exp,41,↑,up,↑,0.5547689000377432,True,7,1,0,8
Y2-S2-284K20,5,527,PS,exp,42,↓,right,→,0.681405600043945,False,7,-1,1,9
Y2-S2-284K20,5,528,PS,exp,31,↑,down,↓,0.5360664000036195,False,8,-1,0,9
Y2-S2-284K20,5,529,PS,exp,42,↓,right,→,0.451579499989748,False,9,-1,0,9
Y2-S2-284K20,5,530,PS,exp,42,←,right,→,0.584900299902074,False,10,-1,0,9
Y2-S2-284K20,5,531,PS,exp,33,↑,up,↑,0.4828878999687731,True,11,-1,0,9
Y2-S2-284K20,5,532,PS,exp,40,→,right,→,0.4806305000092834,True,11,-1,0,9
Y2-S2-284K20,5,533,PS,exp,49,←,left,←,0.44819099991582334,True,11,1,1,10
Y2-S2-284K20,5,534,PS,exp,27,↓,right,→,0.77499910001643,False,10,-1,1,11
Y2-S2-284K20,5,535,PS,exp,47,←,right,→,0.4853696000063792,False,11,-1,0,11
Y2-S2-284K20,5,536,PS,exp,41,↓,right,→,0.37361170002259314,False,12,-1,0,11
Y2-S2-284K20,5,537,PS,exp,37,↑,up,↑,0.5378617999376729,True,13,-1,0,11
Y2-S2-284K20,5,538,PS,exp,34,↓,right,→,0.5528517999919131,False,13,-1,0,11
Y2-S2-284K20,5,539,PS,exp,37,←,left,←,0.48849649995099753,True,14,-1,0,11
Y2-S2-284K20,5,540,PS,exp,44,→,right,→,0.4375035000266507,True,14,-1,0,11
Y2-S2-284K20,5,541,PS,exp,37,↓,down,↓,0.6211734999669716,True,14,1,1,12
Y2-S2-284K20,5,542,PS,exp,36,↑,right,→,0.5470464999089018,False,13,-1,1,13
Y2-S2-284K20,5,543,PS,exp,26,↓,right,→,0.6115749999880791,False,14,-1,0,13
Y2-S2-284K20,5,544,PS,exp,27,←,left,←,0.38395600009243935,True,15,-1,0,13
Y2-S2-284K20,5,545,PS,exp,49,↑,up,↑,0.47821750002913177,True,15,-1,0,13
Y2-S2-284K20,5,546,PS,exp,28,←,left,←,0.48229250009171665,True,15,1,1,14
Y2-S2-284K20,5,547,PS,exp,48,↓,right,→,0.5196986999362707,False,14,-1,1,15
Y2-S2-284K20,5,548,PS,exp,26,→,right,→,0.4383731000125408,True,15,-1,0,15
Y2-S2-284K20,5,549,PS,exp,46,↑,right,→,0.7825753999641165,False,15,-1,0,15
Y2-S2-284K20,5,550,PS,exp,44,→,right,→,0.5953478999435902,True,16,-1,0,15
Y2-S2-284K20,5,551,PS,exp,47,↑,up,↑,0.6747391999233514,True,16,-1,0,15
Y2-S2-284K20,5,552,PS,exp,35,←,right,→,0.509626799961552,False,16,-1,0,15
Y2-S2-284K20,5,553,PS,exp,32,→,right,→,0.4169702000217512,True,17,-1,0,15
Y2-S2-284K20,5,554,PS,exp,33,←,left,←,0.6302409999771044,True,17,-1,0,15
Y2-S2-284K20,5,555,PS,exp,26,→,right,→,0.41726809996180236,True,17,1,1,16
Y2-S2-284K20,6,556,AS,intra_train,40,↓,down,↓,0.9233220999594778,True,28,-,-,-
Y2-S2-284K20,6,557,AS,intra_train,26,↑,up,↑,0.7451637000776827,True,28,-,-,-
Y2-S2-284K20,6,558,AS,intra_train,25,↓,down,↓,0.6355530000291765,True,28,-,-,-
Y2-S2-284K20,6,559,AS,intra_train,44,←,left,←,0.673962700064294,True,28,-,-,-
Y2-S2-284K20,6,560,AS,intra_train,33,↑,up,↑,1.2626067999517545,True,28,-,-,-
Y2-S2-284K20,6,561,AS,exp,39,→,left,←,0.6806100000394508,False,19,-1,0,0
Y2-S2-284K20,6,562,AS,exp,25,←,left,←,0.45079390006139874,True,20,-1,0,0
Y2-S2-284K20,6,563,AS,exp,28,↑,up,↑,0.5304172999458387,True,20,-1,0,0
Y2-S2-284K20,6,564,AS,exp,35,↓,right,→,0.4675297000212595,False,20,-1,0,0
Y2-S2-284K20,6,565,AS,exp,33,←,left,←,0.4841387999476865,True,21,-1,0,0
Y2-S2-284K20,6,566,AS,exp,38,↑,up,↑,0.5901512999553233,True,21,-1,0,0
Y2-S2-284K20,6,567,AS,exp,37,↓,down,↓,0.8153187000425532,True,21,1,1,1
Y2-S2-284K20,6,568,AS,exp,33,←,right,→,0.6296361000277102,False,20,-1,1,2
Y2-S2-284K20,6,569,AS,exp,42,↓,down,↓,0.5958059999393299,True,21,-1,0,2
Y2-S2-284K20,6,570,AS,exp,29,←,left,←,0.5321175999706611,True,21,-1,0,2
Y2-S2-284K20,6,571,AS,exp,27,↑,up,↑,0.6328287000069395,True,21,1,1,3
Y2-S2-284K20,6,572,AS,exp,34,←,left,←,0.5409952000482008,True,20,1,0,3
Y2-S2-284K20,6,573,AS,exp,36,→,right,→,0.4506937999976799,True,20,1,0,3
Y2-S2-284K20,6,574,AS,exp,41,↑,up,↑,0.6143485000357032,True,20,1,0,3
Y2-S2-284K20,6,575,AS,exp,35,→,left,←,0.8045503000030294,False,19,-1,1,4
Y2-S2-284K20,6,576,AS,exp,48,↑,up,↑,1.116508400067687,True,20,-1,0,4
Y2-S2-284K20,6,577,AS,exp,49,→,right,→,0.5605288000078872,True,20,-1,0,4
Y2-S2-284K20,6,578,AS,exp,45,↓,down,↓,0.7153620000462979,True,20,1,1,5
Y2-S2-284K20,6,579,AS,exp,26,↑,up,↑,0.7547698999987915,True,19,1,0,5
Y2-S2-284K20,6,580,AS,exp,35,↓,down,↓,0.5818743000272661,True,19,1,0,5
Y2-S2-284K20,6,581,AS,exp,32,↑,up,↑,0.6586837000213563,True,19,1,0,5
Y2-S2-284K20,6,582,AS,exp,26,→,right,→,0.41719810001086444,True,18,1,0,5
Y2-S2-284K20,6,583,AS,exp,37,←,right,→,0.6684532000217587,False,18,-1,1,6
Y2-S2-284K20,6,584,AS,exp,30,→,right,→,0.43359129992313683,True,19,-1,0,6
Y2-S2-284K20,6,585,AS,exp,37,↑,up,↑,0.7350834999233484,True,19,-1,0,6
Y2-S2-284K20,6,586,AS,exp,28,→,right,→,0.3838244000216946,True,19,1,1,7
Y2-S2-284K20,6,587,AS,exp,50,↑,up,↑,0.4767840000567958,True,18,1,0,7
Y2-S2-284K20,6,588,AS,exp,26,←,right,→,0.7310509999515489,False,18,-1,1,8
Y2-S2-284K20,6,589,AS,exp,48,↓,down,↓,0.8379371000919491,True,19,-1,0,8
Y2-S2-284K20,6,590,AS,exp,42,←,left,←,0.8388128000078723,True,19,-1,0,8
Y2-S2-284K20,6,591,AS,exp,44,↑,up,↑,0.5016790000954643,True,19,1,1,9
Y2-S2-284K20,6,592,AS,exp,34,↓,down,↓,0.7224222000222653,True,18,1,0,9
Y2-S2-284K20,6,593,AS,exp,33,↑,up,↑,0.7863886000122875,True,18,1,0,9
Y2-S2-284K20,6,594,AS,exp,28,→,right,→,0.5497373000252992,True,18,1,0,9
Y2-S2-284K20,6,595,AS,exp,39,←,left,←,0.6362881000386551,True,17,1,0,9
Y2-S2-284K20,6,596,AS,exp,46,→,right,→,0.6028915999922901,True,17,1,0,9
Y2-S2-284K20,6,597,AS,exp,29,↑,down,↓,0.8158564999466762,False,17,-1,1,10
Y2-S2-284K20,6,598,AS,exp,33,→,right,→,1.013894799980335,True,18,-1,0,10
Y2-S2-284K20,6,599,AS,exp,41,↓,down,↓,0.9065860999980941,True,18,-1,0,10
Y2-S2-284K20,6,600,AS,exp,49,←,left,←,0.5661046999739483,True,18,1,1,11
Y2-S2-284K20,6,601,AS,exp,37,↑,down,↓,0.8041487000882626,False,17,-1,1,12
Y2-S2-284K20,6,602,AS,exp,47,↓,down,↓,0.6161801000125706,True,18,-1,0,12
Y2-S2-284K20,6,603,AS,exp,30,↑,up,↑,0.5326646999455988,True,18,-1,0,12
Y2-S2-284K20,6,604,AS,exp,48,←,left,←,0.7822726999875158,True,18,1,1,13
Y2-S2-284K20,6,605,AS,exp,35,↓,down,↓,0.6012425000080839,True,17,1,0,13
Y2-S2-284K20,6,606,AS,exp,31,←,right,→,0.6026881999569014,False,17,-1,1,14
Y2-S2-284K20,6,607,AS,exp,43,→,right,→,0.6973959000315517,True,18,-1,0,14
Y2-S2-284K20,6,608,AS,exp,32,←,left,←,0.6456169000593945,True,18,-1,0,14
Y2-S2-284K20,6,609,AS,exp,27,↓,down,↓,0.7892475998960435,True,18,1,1,15
Y2-S2-284K20,6,610,AS,exp,33,↑,up,↑,0.6832369000185281,True,17,1,0,15
Y2-S2-284K20,6,611,AS,exp,49,→,right,→,0.5678249999182299,True,17,1,0,15
Y2-S2-284K20,6,612,AS,exp,28,↑,up,↑,0.6054274999769405,True,17,1,0,15
Y2-S2-284K20,6,613,AS,exp,42,→,right,→,0.4823528000852093,True,16,1,0,15
Y2-S2-284K20,6,614,AS,exp,33,↓,down,↓,0.7568207000149414,True,16,1,0,15
Y2-S2-284K20,6,615,AS,exp,30,↑,up,↑,0.47099040006287396,True,16,1,0,15
Y2-S2-284K20,6,616,AS,exp,40,→,right,→,0.6709163000341505,True,15,1,0,15
Y2-S2-284K20,6,617,AS,exp,27,↓,down,↓,0.7185853000264615,True,15,1,0,15
Y2-S2-284K20,6,618,AS,exp,28,←,left,←,0.46545420004986227,True,15,1,0,15
Y2-S2-284K20,6,619,AS,exp,39,↑,up,↑,0.588120200089179,True,14,1,0,15
Y2-S2-284K20,6,620,AS,exp,43,→,right,→,0.4099438999546692,True,14,1,0,15
Y2-S2-284K20,6,621,AS,exp,34,←,left,←,0.9357183000538498,True,14,1,0,15
Y2-S2-284K20,6,622,AS,exp,47,↓,down,↓,0.5878260000608861,True,13,1,0,15
Y2-S2-284K20,6,623,AS,exp,43,↑,up,↑,0.44255779997911304,True,13,1,0,15
Y2-S2-284K20,6,624,AS,exp,28,↓,down,↓,0.5392008000053465,True,13,1,0,15
Y2-S2-284K20,6,625,AS,exp,42,↑,down,↓,0.668842599960044,False,12,-1,1,16
Y2-S2-284K20,7,626,AS,intra_train,49,→,right,→,0.6514133000746369,True,28,-,-,-
Y2-S2-284K20,7,627,AS,intra_train,47,↑,up,↑,0.6658134000608698,True,28,-,-,-
Y2-S2-284K20,7,628,AS,intra_train,28,↓,down,↓,0.5510567999444902,True,28,-,-,-
Y2-S2-284K20,7,629,AS,intra_train,47,←,left,←,0.7505300999619067,True,28,-,-,-
Y2-S2-284K20,7,630,AS,intra_train,48,↑,up,↑,0.7234404999762774,True,28,-,-,-
Y2-S2-284K20,7,631,AS,exp,44,←,left,←,0.5344349999213591,True,19,0,0,0
Y2-S2-284K20,7,632,AS,exp,26,↑,up,↑,0.4338649999117479,True,19,0,0,0
Y2-S2-284K20,7,633,AS,exp,27,←,right,→,0.3506137999938801,False,19,-1,0,0
Y2-S2-284K20,7,634,AS,exp,42,↑,up,↑,0.6498443000018597,True,20,-1,0,0
Y2-S2-284K20,7,635,AS,exp,35,↓,down,↓,0.6365204999456182,True,20,-1,0,0
Y2-S2-284K20,7,636,AS,exp,29,→,right,→,0.6193072999594733,True,20,1,1,1
Y2-S2-284K20,7,637,AS,exp,25,↑,up,↑,0.5230677999788895,True,19,1,0,1
Y2-S2-284K20,7,638,AS,exp,44,↓,down,↓,0.5843596999766305,True,19,1,0,1
Y2-S2-284K20,7,639,AS,exp,46,→,right,→,0.5118521000258625,True,19,1,0,1
Y2-S2-284K20,7,640,AS,exp,30,↓,down,↓,0.5469119000481442,True,18,1,0,1
Y2-S2-284K20,7,641,AS,exp,34,↑,down,↓,0.7197250999743119,False,18,-1,1,2
Y2-S2-284K20,7,642,AS,exp,46,←,left,←,0.5079591000685468,True,19,-1,0,2
Y2-S2-284K20,7,643,AS,exp,30,→,right,→,1.7740967000136152,True,19,-1,0,2
Y2-S2-284K20,7,644,AS,exp,26,←,left,←,0.5778834000229836,True,19,1,1,3
Y2-S2-284K20,7,645,AS,exp,50,↑,up,↑,0.7273295000195503,True,18,1,0,3
Y2-S2-284K20,7,646,AS,exp,38,→,right,→,0.41757230006624013,True,18,1,0,3
Y2-S2-284K20,7,647,AS,exp,45,←,left,←,0.400470900000073,True,18,1,0,3
Y2-S2-284K20,7,648,AS,exp,39,↑,up,↑,0.4558255000738427,True,17,1,0,3
Y2-S2-284K20,7,649,AS,exp,42,←,left,←,0.6981025999411941,True,17,1,0,3
Y2-S2-284K20,7,650,AS,exp,40,→,right,→,0.38370780006516725,True,17,1,0,3
Y2-S2-284K20,7,651,AS,exp,35,←,right,→,0.7264575000153854,False,16,-1,1,4
Y2-S2-284K20,7,652,AS,exp,48,↑,up,↑,0.7847664000000805,True,17,-1,0,4
Y2-S2-284K20,7,653,AS,exp,26,←,left,←,0.6867795999860391,True,17,-1,0,4
Y2-S2-284K20,7,654,AS,exp,30,↓,down,↓,0.6315179000375792,True,17,1,1,5
Y2-S2-284K20,7,655,AS,exp,27,→,right,→,0.5508840000256896,True,16,1,0,5
Y2-S2-284K20,7,656,AS,exp,43,↑,up,↑,0.820647899992764,True,16,1,0,5
Y2-S2-284K20,7,657,AS,exp,25,←,right,→,0.7169698999496177,False,16,-1,1,6
Y2-S2-284K20,7,658,AS,exp,50,↑,up,↑,0.49005460005719215,True,17,-1,0,6
Y2-S2-284K20,7,659,AS,exp,30,↓,down,↓,1.0015137000009418,True,17,-1,0,6
Y2-S2-284K20,7,660,AS,exp,46,↑,up,↑,0.6778576000360772,True,17,1,1,7
Y2-S2-284K20,7,661,AS,exp,39,←,right,→,0.5671313999919221,False,16,-1,1,8
Y2-S2-284K20,7,662,AS,exp,28,↑,down,↓,0.7544935999903828,False,17,-1,0,8
Y2-S2-284K20,7,663,AS,exp,28,←,right,→,0.6125517999753356,False,18,-1,0,8
Y2-S2-284K20,7,664,AS,exp,30,↓,up,↑,0.7155772000551224,False,19,-1,0,8
Y2-S2-284K20,7,665,AS,exp,36,→,left,←,0.7272454999620095,False,20,-1,0,8
Y2-S2-284K20,7,666,AS,exp,40,↑,up,↑,1.115492400014773,True,21,-1,0,8
Y2-S2-284K20,7,667,AS,exp,36,↓,down,↓,0.613626700011082,True,21,-1,0,8
Y2-S2-284K20,7,668,AS,exp,34,←,left,←,0.5280743000330403,True,21,1,1,9
Y2-S2-284K20,7,669,AS,exp,29,→,right,→,0.6627592999720946,True,20,1,0,9
Y2-S2-284K20,7,670,AS,exp,47,↓,down,↓,0.5415781999472529,True,20,1,0,9
Y2-S2-284K20,7,671,AS,exp,32,←,left,←,0.6024507000111043,True,20,1,0,9
Y2-S2-284K20,7,672,AS,exp,50,→,left,←,0.5675825000507757,False,19,-1,1,10
Y2-S2-284K20,7,673,AS,exp,34,←,left,←,0.534372300026007,True,20,-1,0,10
Y2-S2-284K20,7,674,AS,exp,38,↓,down,↓,0.732427200069651,True,20,-1,0,10
Y2-S2-284K20,7,675,AS,exp,38,→,right,→,0.4675569999963045,True,20,1,1,11
Y2-S2-284K20,7,676,AS,exp,44,↓,down,↓,1.0118311999831349,True,19,1,0,11
Y2-S2-284K20,7,677,AS,exp,41,↑,up,↑,0.5214628000976518,True,19,1,0,11
Y2-S2-284K20,7,678,AS,exp,49,→,right,→,0.5403331000125036,True,19,1,0,11
Y2-S2-284K20,7,679,AS,exp,41,↑,down,↓,0.797106699901633,False,18,-1,1,12
Y2-S2-284K20,7,680,AS,exp,47,↓,right,→,0.5373868000460789,False,19,-1,0,12
Y2-S2-284K20,7,681,AS,exp,40,↑,up,↑,0.4671451000031084,True,20,-1,0,12
Y2-S2-284K20,7,682,AS,exp,35,→,right,→,0.7342879000352696,True,20,-1,0,12
Y2-S2-284K20,7,683,AS,exp,30,↓,down,↓,0.9782512000529096,True,20,1,1,13
Y2-S2-284K20,7,684,AS,exp,32,→,right,→,0.6566018000012264,True,19,1,0,13
Y2-S2-284K20,7,685,AS,exp,27,↓,up,↑,1.0641898999456316,False,19,-1,1,14
Y2-S2-284K20,7,686,AS,exp,44,→,right,→,0.679480699938722,True,20,-1,0,14
Y2-S2-284K20,7,687,AS,exp,45,↓,down,↓,0.7402577999746427,True,20,-1,0,14
Y2-S2-284K20,7,688,AS,exp,30,←,left,←,0.5925346999429166,True,20,1,1,15
Y2-S2-284K20,7,689,AS,exp,41,→,right,→,0.5647490000119433,True,19,1,0,15
Y2-S2-284K20,7,690,AS,exp,30,←,left,←,1.25484960002359,True,19,1,0,15
Y2-S2-284K20,7,691,AS,exp,29,↑,up,↑,0.7920478000305593,True,19,1,0,15
Y2-S2-284K20,7,692,AS,exp,27,←,left,←,0.7423007000470534,True,18,1,0,15
Y2-S2-284K20,7,693,AS,exp,34,↑,up,↑,0.5255087000550702,True,18,1,0,15
Y2-S2-284K20,7,694,AS,exp,49,←,left,←,0.7884323999751359,True,18,1,0,15
Y2-S2-284K20,7,695,AS,exp,46,↓,down,↓,0.689321200014092,True,17,1,0,15
Y2-S2-284K20,7,696,AS,exp,25,↑,up,↑,0.7008480000076815,True,17,1,0,15
Y2-S2-284K20,7,697,AS,exp,46,→,right,→,0.5074908999959007,True,17,1,0,15
Y2-S2-284K20,7,698,AS,exp,47,↑,up,↑,0.45740060007665306,True,16,1,0,15
Y2-S2-284K20,7,699,AS,exp,30,→,right,→,0.8522268000524491,True,16,1,0,15
Y2-S2-284K20,7,700,AS,exp,34,↑,up,↑,0.6858716999413446,True,16,1,0,15
Y2-S2-284K20,7,701,AS,exp,29,→,right,→,0.5314086999278516,True,15,1,0,15
Y2-S2-284K20,7,702,AS,exp,45,↓,down,↓,0.5479496999178082,True,15,1,0,15
Y2-S2-284K20,7,703,AS,exp,45,↑,up,↑,0.6884648000122979,True,15,1,0,15
Y2-S2-284K20,7,704,AS,exp,37,↓,right,→,0.7265303999884054,False,14,-1,1,16
Y2-S2-284K20,8,705,PS,intra_train,28,↑,up,↑,0.7587953000329435,True,24,-,-,-
Y2-S2-284K20,8,706,PS,intra_train,32,↓,down,↓,0.6952574999304488,True,24,-,-,-
Y2-S2-284K20,8,707,PS,intra_train,43,←,left,←,0.5172784000169486,True,24,-,-,-
Y2-S2-284K20,8,708,PS,intra_train,31,↑,up,↑,0.5171091000083834,True,24,-,-,-
Y2-S2-284K20,8,709,PS,intra_train,38,→,right,→,0.5004755000118166,True,24,-,-,-
Y2-S2-284K20,8,710,PS,exp,38,↑,up,↑,0.9070294999983162,True,16,0,0,0
Y2-S2-284K20,8,711,PS,exp,38,↓,down,↓,0.5003386999014765,True,16,0,0,0
Y2-S2-284K20,8,712,PS,exp,33,↑,right,→,0.5316259000683203,False,16,-1,0,0
Y2-S2-284K20,8,713,PS,exp,25,↓,down,↓,0.23438140004873276,True,17,-1,0,0
Y2-S2-284K20,8,714,PS,exp,32,←,left,←,0.489562000031583,True,17,-1,0,0
Y2-S2-284K20,8,715,PS,exp,27,→,right,→,0.4004316999344155,True,17,1,1,1
Y2-S2-284K20,8,716,PS,exp,46,↓,down,↓,0.4717849000589922,True,16,1,0,1
Y2-S2-284K20,8,717,PS,exp,48,→,right,→,0.46269389998633415,True,16,1,0,1
Y2-S2-284K20,8,718,PS,exp,26,←,left,←,0.7306389000732452,True,16,1,0,1
Y2-S2-284K20,8,719,PS,exp,31,↑,left,←,0.2837911000242457,False,15,-1,1,2
Y2-S2-284K20,8,720,PS,exp,39,←,down,↓,0.5218967000255361,False,16,-1,0,2
Y2-S2-284K20,8,721,PS,exp,42,↑,up,↑,0.4954067999497056,True,17,-1,0,2
Y2-S2-284K20,8,722,PS,exp,36,←,left,←,0.47264329995959997,True,17,-1,0,2
Y2-S2-284K20,8,723,PS,exp,46,→,right,→,0.6029448000481352,True,17,1,1,3
Y2-S2-284K20,8,724,PS,exp,32,←,right,→,0.6829802000429481,False,16,-1,1,4
Y2-S2-284K20,8,725,PS,exp,31,↑,up,↑,0.5519127999432385,True,17,-1,0,4
Y2-S2-284K20,8,726,PS,exp,41,↓,right,→,0.5173501999815926,False,17,-1,0,4
Y2-S2-284K20,8,727,PS,exp,36,→,right,→,0.4890265000285581,True,18,-1,0,4
Y2-S2-284K20,8,728,PS,exp,37,←,left,←,1.0426120999036357,True,18,-1,0,4
Y2-S2-284K20,8,729,PS,exp,36,→,right,→,0.7677174999844283,True,18,1,1,5
Y2-S2-284K20,8,730,PS,exp,38,←,right,→,0.6086656999541447,False,17,-1,1,6
Y2-S2-284K20,8,731,PS,exp,34,↓,right,→,0.6403575999429449,False,18,-1,0,6
Y2-S2-284K20,8,732,PS,exp,44,↑,up,↑,0.5163702999707311,True,19,-1,0,6
Y2-S2-284K20,8,733,PS,exp,39,→,right,→,0.41723229992203414,True,19,-1,0,6
Y2-S2-284K20,8,734,PS,exp,42,←,right,→,0.5616372000658885,False,19,-1,0,6
Y2-S2-284K20,8,735,PS,exp,32,↓,right,→,0.8969733000267297,False,20,-1,0,6
Y2-S2-284K20,8,736,PS,exp,47,←,left,←,0.4506117000710219,True,21,-1,0,6
Y2-S2-284K20,8,737,PS,exp,25,→,right,→,0.6739474999485537,True,21,-1,0,6
Y2-S2-284K20,8,738,PS,exp,30,↓,down,↓,0.7293160000117496,True,21,1,1,7
Y2-S2-284K20,8,739,PS,exp,28,→,right,→,0.4172880999976769,True,20,1,0,7
Y2-S2-284K20,8,740,PS,exp,27,↓,down,↓,0.46721270005218685,True,20,1,0,7
Y2-S2-284K20,8,741,PS,exp,32,↑,right,→,0.4672016000840813,False,20,-1,1,8
Y2-S2-284K20,8,742,PS,exp,40,↓,right,→,0.5732344000134617,False,21,-1,0,8
Y2-S2-284K20,8,743,PS,exp,37,↑,down,↓,0.5864049000665545,False,22,-1,0,8
Y2-S2-284K20,8,744,PS,exp,47,←,left,←,0.5526591000379995,True,23,-1,0,8
Y2-S2-284K20,8,745,PS,exp,26,→,right,→,0.500803800066933,True,23,-1,0,8
Y2-S2-284K20,8,746,PS,exp,50,↓,down,↓,1.6586725000524893,True,23,1,1,9
Y2-S2-284K20,8,747,PS,exp,47,←,left,←,0.6465949999401346,True,22,1,0,9
Y2-S2-284K20,8,748,PS,exp,35,↑,up,↑,0.763075300026685,True,22,1,0,9
Y2-S2-284K20,8,749,PS,exp,37,↓,down,↓,0.6321585999103263,True,22,1,0,9
Y2-S2-284K20,8,750,PS,exp,49,↑,up,↑,0.6091892999829724,True,21,1,0,9
Y2-S2-284K20,8,751,PS,exp,29,←,left,←,0.5881608999334276,True,21,1,0,9
Y2-S2-284K20,8,752,PS,exp,46,↓,down,↓,0.6540295000886545,True,21,1,0,9
Y2-S2-284K20,8,753,PS,exp,43,↑,up,↑,0.6784757999703288,True,20,1,0,9
Y2-S2-284K20,8,754,PS,exp,48,←,left,←,0.6160516999661922,True,20,1,0,9
Y2-S2-284K20,8,755,PS,exp,42,→,left,←,0.615023999940604,False,20,-1,1,10
Y2-S2-284K20,8,756,PS,exp,39,↑,up,↑,1.038886700058356,True,21,-1,0,10
Y2-S2-284K20,8,757,PS,exp,48,←,left,←,0.5203382999170572,True,21,-1,0,10
Y2-S2-284K20,8,758,PS,exp,32,→,right,→,0.48371489997953176,True,21,1,1,11
Y2-S2-284K20,8,759,PS,exp,33,↓,down,↓,0.6826113000279292,True,20,1,0,11
Y2-S2-284K20,8,760,PS,exp,49,←,left,←,0.45059960009530187,True,20,1,0,11
Y2-S2-284K20,8,761,PS,exp,41,↓,down,↓,0.7190290000289679,True,20,1,0,11
Y2-S2-284K20,8,762,PS,exp,31,↑,up,↑,1.2206044000340626,True,19,1,0,11
Y2-S2-284K20,8,763,PS,exp,33,↓,right,→,0.8805532000260428,False,19,-1,1,12
Y2-S2-284K20,8,764,PS,exp,45,→,right,→,0.40062890003900975,True,20,-1,0,12
Y2-S2-284K20,8,765,PS,exp,27,↓,down,↓,0.7252158999908715,True,20,-1,0,12
Y2-S2-284K20,8,766,PS,exp,47,→,right,→,0.45052439998835325,True,20,1,1,13
Y2-S2-284K20,8,767,PS,exp,32,↓,down,↓,0.5673643999034539,True,19,1,0,13
Y2-S2-284K20,8,768,PS,exp,29,↑,up,↑,0.8965956000611186,True,19,1,0,13
Y2-S2-284K20,8,769,PS,exp,32,→,right,→,0.7060209000483155,True,19,1,0,13
Y2-S2-284K20,8,770,PS,exp,46,↑,up,↑,0.6547977000009269,True,18,1,0,13
Y2-S2-284K20,8,771,PS,exp,48,←,left,←,0.9745484000304714,True,18,1,0,13
Y2-S2-284K20,8,772,PS,exp,41,↑,up,↑,0.526435500010848,True,18,1,0,13
Y2-S2-284K20,8,773,PS,exp,46,↓,up,↑,1.0257322998950258,False,17,-1,1,14
Y2-S2-284K20,8,774,PS,exp,33,→,right,→,0.523624200024642,True,18,-1,0,14
Y2-S2-284K20,8,775,PS,exp,25,←,up,↑,0.4906818999443203,False,18,-1,0,14
Y2-S2-284K20,8,776,PS,exp,25,→,right,→,1.00328280008398,True,19,-1,0,14
Y2-S2-284K20,8,777,PS,exp,38,↑,up,↑,0.6642144999932498,True,19,-1,0,14
Y2-S2-284K20,8,778,PS,exp,50,↓,down,↓,0.535846299957484,True,19,1,1,15
Y2-S2-284K20,8,779,PS,exp,38,↑,up,↑,0.9904094999656081,True,18,1,0,15
Y2-S2-284K20,8,780,PS,exp,35,→,right,→,0.4340270000975579,True,18,1,0,15
Y2-S2-284K20,8,781,PS,exp,33,↑,up,↑,0.9878084999509156,True,18,1,0,15
Y2-S2-284K20,8,782,PS,exp,49,→,right,→,0.881949600065127,True,17,1,0,15
Y2-S2-284K20,8,783,PS,exp,49,↑,up,↑,0.45187250000890344,True,17,1,0,15
Y2-S2-284K20,8,784,PS,exp,39,↓,down,↓,0.7779172000009567,True,17,1,0,15
Y2-S2-284K20,8,785,PS,exp,41,→,up,↑,0.5531004999065772,False,16,-1,1,16
