PART_ID,Block_no,Trial_no,Block_type,Trial_type,CSI,Stim_letter,Key_pressed,letter_choose,Rt,Corr,Stimulus Time,Level,Reversal,Revs_count
Y2-S2-155K19,1,1,PS,train,42,←,up,↑,2.048204000107944,False,30,-,-,-
Y2-S2-155K19,1,2,PS,train,31,↑,up,↑,1.0059989001601934,True,30,-,-,-
Y2-S2-155K19,1,3,PS,train,28,↓,down,↓,1.7930288007482886,True,30,-,-,-
Y2-S2-155K19,1,4,PS,train,39,←,left,←,0.8173380000516772,True,30,-,-,-
Y2-S2-155K19,1,5,PS,train,27,→,right,→,0.7313916003331542,True,30,-,-,-
Y2-S2-155K19,1,6,PS,train,50,↑,up,↑,1.2904136003926396,True,30,-,-,-
Y2-S2-155K19,1,7,PS,train,33,↓,down,↓,1.0163324000313878,True,30,-,-,-
Y2-S2-155K19,1,8,PS,train,47,→,right,→,0.7234597001224756,True,30,-,-,-
Y2-S2-155K19,1,9,PS,train,28,↑,up,↑,1.1318511003628373,True,30,-,-,-
Y2-S2-155K19,1,10,PS,train,40,←,left,←,0.939159500412643,True,30,-,-,-
Y2-S2-155K19,2,11,AS,train,41,→,down,↓,2.1996537996456027,False,45,-,-,-
Y2-S2-155K19,2,12,AS,train,32,↓,down,↓,1.1669572005048394,True,45,-,-,-
Y2-S2-155K19,2,13,AS,train,44,→,right,→,0.8506004000082612,True,45,-,-,-
Y2-S2-155K19,2,14,AS,train,45,↑,up,↑,1.1257925005629659,True,45,-,-,-
Y2-S2-155K19,2,15,AS,train,29,→,right,→,0.800454500131309,True,45,-,-,-
Y2-S2-155K19,2,16,AS,train,27,↑,up,↑,1.1352770002558827,True,45,-,-,-
Y2-S2-155K19,2,17,AS,train,28,→,right,→,1.099694600328803,True,45,-,-,-
Y2-S2-155K19,2,18,AS,train,35,←,left,←,0.9996106997132301,True,45,-,-,-
Y2-S2-155K19,2,19,AS,train,30,→,right,→,0.8840959006920457,True,45,-,-,-
Y2-S2-155K19,2,20,AS,train,32,←,left,←,1.2956216996535659,True,45,-,-,-
Y2-S2-155K19,-,21,PS,adaptive,27,↓,up,↑,1.2299001002684236,False,10,-1,0,0
Y2-S2-155K19,-,22,PS,adaptive,48,←,left,←,0.8071518000215292,True,11,-1,0,0
Y2-S2-155K19,-,23,PS,adaptive,26,→,right,→,1.0578259993344545,True,11,-1,0,0
Y2-S2-155K19,-,24,PS,adaptive,36,←,up,↑,1.1495447000488639,False,11,-1,0,0
Y2-S2-155K19,-,25,PS,adaptive,36,→,right,→,0.7386939004063606,True,12,-1,0,0
Y2-S2-155K19,-,26,PS,adaptive,29,↓,no_key,no_letter,-1.0,False,12,-1,0,0
Y2-S2-155K19,-,27,PS,adaptive,50,←,left,←,0.6628213999792933,True,13,-1,0,0
Y2-S2-155K19,-,28,PS,adaptive,33,↓,down,↓,1.020091900601983,True,13,-1,0,0
Y2-S2-155K19,-,29,PS,adaptive,40,↑,up,↑,0.972758200019598,True,13,1,1,1
Y2-S2-155K19,-,30,PS,adaptive,25,→,right,→,1.0528881000354886,True,12,1,0,1
Y2-S2-155K19,-,31,PS,adaptive,45,↓,down,↓,0.8982498999685049,True,12,1,0,1
Y2-S2-155K19,-,32,PS,adaptive,47,↑,up,↑,0.7981758005917072,True,12,1,0,1
Y2-S2-155K19,-,33,PS,adaptive,39,↓,down,↓,0.9300966998562217,True,11,1,0,1
Y2-S2-155K19,-,34,PS,adaptive,43,↑,up,↑,0.890234200283885,True,11,1,0,1
Y2-S2-155K19,-,35,PS,adaptive,47,↓,down,↓,1.0169733995571733,True,11,1,0,1
Y2-S2-155K19,-,36,PS,adaptive,36,↑,up,↑,0.9260325999930501,True,10,1,0,1
Y2-S2-155K19,-,37,PS,adaptive,28,←,left,←,0.8245804999023676,True,10,1,0,1
Y2-S2-155K19,-,38,PS,adaptive,31,↓,down,↓,0.8247143998742104,True,10,1,0,1
Y2-S2-155K19,-,39,PS,adaptive,32,↑,left,←,1.0368093000724912,False,9,-1,1,2
Y2-S2-155K19,-,40,PS,adaptive,43,↓,down,↓,0.9160593003034592,True,10,-1,0,2
Y2-S2-155K19,-,41,PS,adaptive,25,←,left,←,0.7000519996508956,True,10,-1,0,2
Y2-S2-155K19,-,42,PS,adaptive,47,→,right,→,0.6592870000749826,True,10,1,1,3
Y2-S2-155K19,-,43,PS,adaptive,37,←,left,←,0.7727413000538945,True,9,1,0,3
Y2-S2-155K19,-,44,PS,adaptive,35,↑,up,↑,1.4000592995435,True,9,1,0,3
Y2-S2-155K19,-,45,PS,adaptive,31,→,left,←,0.8595508998259902,False,9,-1,1,4
Y2-S2-155K19,-,46,AS,adaptive,26,←,left,←,0.8671377003192902,True,20,0,0,0
Y2-S2-155K19,-,47,AS,adaptive,46,↑,down,↓,1.5417648991569877,False,20,-1,0,0
Y2-S2-155K19,-,48,AS,adaptive,44,↓,down,↓,0.833959300071001,True,21,-1,0,0
Y2-S2-155K19,-,49,AS,adaptive,28,←,left,←,1.002042300067842,True,21,-1,0,0
Y2-S2-155K19,-,50,AS,adaptive,50,↓,down,↓,1.1977132000029087,True,21,1,1,1
Y2-S2-155K19,-,51,AS,adaptive,32,↑,up,↑,1.0170334996655583,True,20,1,0,1
Y2-S2-155K19,-,52,AS,adaptive,44,←,left,←,0.8204230992123485,True,20,1,0,1
Y2-S2-155K19,-,53,AS,adaptive,46,↓,down,↓,0.9426038004457951,True,20,1,0,1
Y2-S2-155K19,-,54,AS,adaptive,44,↑,down,↓,1.1914208997040987,False,19,-1,1,2
Y2-S2-155K19,-,55,AS,adaptive,27,→,right,→,0.7192272990942001,True,20,-1,0,2
Y2-S2-155K19,-,56,AS,adaptive,29,↓,up,↑,1.2138295006006956,False,20,-1,0,2
Y2-S2-155K19,-,57,AS,adaptive,30,↑,up,↑,0.6808796999976039,True,21,-1,0,2
Y2-S2-155K19,-,58,AS,adaptive,26,→,right,→,0.6261649001389742,True,21,-1,0,2
Y2-S2-155K19,-,59,AS,adaptive,26,↑,up,↑,1.1326810996979475,True,21,1,1,3
Y2-S2-155K19,-,60,AS,adaptive,43,↓,down,↓,0.9555845996364951,True,20,1,0,3
Y2-S2-155K19,-,61,AS,adaptive,28,→,right,→,0.80863600037992,True,20,1,0,3
Y2-S2-155K19,-,62,AS,adaptive,29,←,left,←,1.0936364997178316,True,20,1,0,3
Y2-S2-155K19,-,63,AS,adaptive,32,↑,up,↑,0.9995939005166292,True,19,1,0,3
Y2-S2-155K19,-,64,AS,adaptive,29,←,left,←,0.7240511002019048,True,19,1,0,3
Y2-S2-155K19,-,65,AS,adaptive,34,↓,down,↓,1.064524200744927,True,19,1,0,3
Y2-S2-155K19,-,66,AS,adaptive,38,↑,up,↑,1.0290392003953457,True,18,1,0,3
Y2-S2-155K19,-,67,AS,adaptive,29,↓,down,↓,0.7153516001999378,True,18,1,0,3
Y2-S2-155K19,-,68,AS,adaptive,32,→,down,↓,0.8055141000077128,False,18,-1,1,4
Y2-S2-155K19,1,69,PS,intra_train,25,←,right,→,0.9464258002117276,False,15,-,-,-
Y2-S2-155K19,1,70,PS,intra_train,31,↓,up,↑,1.3539257999509573,False,15,-,-,-
Y2-S2-155K19,1,71,PS,intra_train,32,→,right,→,0.6959427995607257,True,15,-,-,-
Y2-S2-155K19,1,72,PS,intra_train,45,↓,down,↓,0.8766658995300531,True,15,-,-,-
Y2-S2-155K19,1,73,PS,intra_train,36,←,right,→,1.028083799406886,False,15,-,-,-
Y2-S2-155K19,1,74,PS,exp,25,↓,down,↓,0.8080454003065825,True,10,0,0,0
Y2-S2-155K19,1,75,PS,exp,45,↑,up,↑,0.8668739004060626,True,10,0,0,0
Y2-S2-155K19,1,76,PS,exp,29,←,left,←,0.874384100548923,True,10,1,0,0
Y2-S2-155K19,1,77,PS,exp,49,↓,down,↓,0.7247575996443629,True,9,1,0,0
Y2-S2-155K19,1,78,PS,exp,29,→,right,→,0.7549299001693726,True,9,1,0,0
Y2-S2-155K19,1,79,PS,exp,47,↓,down,↓,0.8377423994243145,True,9,1,0,0
Y2-S2-155K19,1,80,PS,exp,30,↑,up,↑,1.0952175995334983,True,8,1,0,0
Y2-S2-155K19,1,81,PS,exp,36,←,left,←,0.7535546999424696,True,8,1,0,0
Y2-S2-155K19,1,82,PS,exp,42,→,right,→,0.7009996995329857,True,8,1,0,0
Y2-S2-155K19,1,83,PS,exp,47,←,left,←,0.8294276995584369,True,7,1,0,0
Y2-S2-155K19,1,84,PS,exp,32,↓,down,↓,0.855672599747777,True,7,1,0,0
Y2-S2-155K19,1,85,PS,exp,37,←,left,←,0.9132576994597912,True,7,1,0,0
Y2-S2-155K19,1,86,PS,exp,42,↑,left,←,0.965688900090754,False,6,-1,1,1
Y2-S2-155K19,1,87,PS,exp,40,↓,down,↓,0.9435189003124833,True,7,-1,0,1
Y2-S2-155K19,1,88,PS,exp,32,↑,right,→,0.9064734997227788,False,7,-1,0,1
Y2-S2-155K19,1,89,PS,exp,41,↓,down,↓,0.817404200322926,True,8,-1,0,1
Y2-S2-155K19,1,90,PS,exp,47,↑,down,↓,0.9429093999788165,False,8,-1,0,1
Y2-S2-155K19,1,91,PS,exp,45,↓,down,↓,0.9058362999930978,True,9,-1,0,1
Y2-S2-155K19,1,92,PS,exp,46,↑,left,←,1.2973592998459935,False,9,-1,0,1
Y2-S2-155K19,1,93,PS,exp,44,↓,down,↓,1.0709808999672532,True,10,-1,0,1
Y2-S2-155K19,1,94,PS,exp,41,→,right,→,0.8478298000991344,True,10,-1,0,1
Y2-S2-155K19,1,95,PS,exp,47,↓,left,←,1.2678606994450092,False,10,-1,0,1
Y2-S2-155K19,1,96,PS,exp,50,↑,up,↑,0.9202770004048944,True,11,-1,0,1
Y2-S2-155K19,1,97,PS,exp,43,→,right,→,0.7892392994835973,True,11,-1,0,1
Y2-S2-155K19,1,98,PS,exp,50,↑,up,↑,1.177037600427866,True,11,1,1,2
Y2-S2-155K19,1,99,PS,exp,48,↓,down,↓,0.7764074997976422,True,10,1,0,2
Y2-S2-155K19,1,100,PS,exp,40,↑,up,↑,0.9385468000546098,True,10,1,0,2
Y2-S2-155K19,1,101,PS,exp,49,→,right,→,0.6319495001807809,True,10,1,0,2
Y2-S2-155K19,1,102,PS,exp,49,←,left,←,0.8031620997935534,True,9,1,0,2
Y2-S2-155K19,1,103,PS,exp,41,↑,up,↑,1.2514593005180359,True,9,1,0,2
Y2-S2-155K19,1,104,PS,exp,35,↓,left,←,0.8473652992397547,False,9,-1,1,3
Y2-S2-155K19,1,105,PS,exp,40,↑,up,↑,0.7768269004300237,True,10,-1,0,3
Y2-S2-155K19,1,106,PS,exp,36,←,left,←,0.7620914001017809,True,10,-1,0,3
Y2-S2-155K19,1,107,PS,exp,25,→,right,→,0.6069646999239922,True,10,1,1,4
Y2-S2-155K19,1,108,PS,exp,26,↑,left,←,0.8073516003787518,False,9,-1,1,5
Y2-S2-155K19,1,109,PS,exp,50,←,right,→,0.69815309997648,False,10,-1,0,5
Y2-S2-155K19,1,110,PS,exp,45,↓,down,↓,0.565120100043714,True,11,-1,0,5
Y2-S2-155K19,1,111,PS,exp,37,←,left,←,0.8452180996537209,True,11,-1,0,5
Y2-S2-155K19,1,112,PS,exp,38,↓,right,→,0.7572726001963019,False,11,-1,0,5
Y2-S2-155K19,1,113,PS,exp,28,→,right,→,0.6747522000223398,True,12,-1,0,5
Y2-S2-155K19,1,114,PS,exp,32,←,right,→,1.0121426992118359,False,12,-1,0,5
Y2-S2-155K19,1,115,PS,exp,25,↓,down,↓,0.7997532999143004,True,13,-1,0,5
Y2-S2-155K19,1,116,PS,exp,34,←,left,←,1.077734800055623,True,13,-1,0,5
Y2-S2-155K19,1,117,PS,exp,47,↑,up,↑,0.9942732993513346,True,13,1,1,6
Y2-S2-155K19,1,118,PS,exp,34,←,up,↑,1.3640125999227166,False,12,-1,1,7
Y2-S2-155K19,1,119,PS,exp,47,↑,up,↑,0.8167810998857021,True,13,-1,0,7
Y2-S2-155K19,1,120,PS,exp,36,→,right,→,0.6309289000928402,True,13,-1,0,7
Y2-S2-155K19,1,121,PS,exp,27,↑,up,↑,0.624601099640131,True,13,1,1,8
Y2-S2-155K19,1,122,PS,exp,33,←,left,←,0.9874882996082306,True,12,1,0,8
Y2-S2-155K19,1,123,PS,exp,29,↑,up,↑,0.7288490999490023,True,12,1,0,8
Y2-S2-155K19,1,124,PS,exp,44,→,up,↑,1.4095558002591133,False,12,-1,1,9
Y2-S2-155K19,1,125,PS,exp,35,←,up,↑,0.882362199947238,False,13,-1,0,9
Y2-S2-155K19,1,126,PS,exp,43,↑,right,→,1.0392251005396247,False,14,-1,0,9
Y2-S2-155K19,1,127,PS,exp,36,←,left,←,0.8567400006577373,True,15,-1,0,9
Y2-S2-155K19,1,128,PS,exp,39,→,right,→,0.6962334997951984,True,15,-1,0,9
Y2-S2-155K19,1,129,PS,exp,40,↑,up,↑,1.1221829997375607,True,15,1,1,10
Y2-S2-155K19,1,130,PS,exp,46,→,right,→,0.6762667000293732,True,14,1,0,10
Y2-S2-155K19,1,131,PS,exp,46,↑,right,→,0.624099699780345,False,14,-1,1,11
Y2-S2-155K19,1,132,PS,exp,38,←,left,←,0.8831470999866724,True,15,-1,0,11
Y2-S2-155K19,1,133,PS,exp,25,→,right,→,0.6789055000990629,True,15,-1,0,11
Y2-S2-155K19,1,134,PS,exp,29,↓,down,↓,1.008394000120461,True,15,1,1,12
Y2-S2-155K19,1,135,PS,exp,39,→,left,←,1.0035406006500125,False,14,-1,1,13
Y2-S2-155K19,1,136,PS,exp,28,↑,up,↑,0.9014188004657626,True,15,-1,0,13
Y2-S2-155K19,1,137,PS,exp,31,↓,no_key,no_letter,-1.0,False,15,-1,0,13
Y2-S2-155K19,1,138,PS,exp,48,←,left,←,0.8987025003880262,True,16,-1,0,13
Y2-S2-155K19,1,139,PS,exp,35,→,right,→,0.6428976999595761,True,16,-1,0,13
Y2-S2-155K19,1,140,PS,exp,48,←,left,←,0.745392999611795,True,16,1,1,14
Y2-S2-155K19,1,141,PS,exp,38,↓,down,↓,0.7772071994841099,True,15,1,0,14
Y2-S2-155K19,1,142,PS,exp,38,→,right,→,0.5951421000063419,True,15,1,0,14
Y2-S2-155K19,1,143,PS,exp,41,↑,up,↑,1.106037700548768,True,15,1,0,14
Y2-S2-155K19,1,144,PS,exp,28,←,left,←,0.9587057000026107,True,14,1,0,14
Y2-S2-155K19,1,145,PS,exp,43,↑,up,↑,0.7293106000870466,True,14,1,0,14
Y2-S2-155K19,1,146,PS,exp,46,↓,no_key,no_letter,-1.0,False,14,-1,1,15
Y2-S2-155K19,1,147,PS,exp,48,←,left,←,0.8908040998503566,True,15,-1,0,15
Y2-S2-155K19,1,148,PS,exp,28,↓,up,↑,1.044417300261557,False,15,-1,0,15
Y2-S2-155K19,1,149,PS,exp,45,→,right,→,0.7006067996844649,True,16,-1,0,15
Y2-S2-155K19,1,150,PS,exp,42,←,left,←,1.5406139995902777,True,16,-1,0,15
Y2-S2-155K19,1,151,PS,exp,40,↓,left,←,1.0377683006227016,False,16,-1,0,15
Y2-S2-155K19,1,152,PS,exp,31,→,right,→,0.7069097999483347,True,17,-1,0,15
Y2-S2-155K19,1,153,PS,exp,50,↑,up,↑,1.1895602000877261,True,17,-1,0,15
Y2-S2-155K19,1,154,PS,exp,25,↓,down,↓,0.8526607993990183,True,17,1,1,16
Y2-S2-155K19,2,155,AS,intra_train,27,→,right,→,0.851299500092864,True,28,-,-,-
Y2-S2-155K19,2,156,AS,intra_train,25,←,left,←,0.7799796005710959,True,28,-,-,-
Y2-S2-155K19,2,157,AS,intra_train,40,↑,up,↑,0.7375686001032591,True,28,-,-,-
Y2-S2-155K19,2,158,AS,intra_train,39,↓,down,↓,1.2943505002185702,True,28,-,-,-
Y2-S2-155K19,2,159,AS,intra_train,31,→,left,←,1.4205483002588153,False,28,-,-,-
Y2-S2-155K19,2,160,AS,exp,38,↑,up,↑,0.9383629998192191,True,19,0,0,0
Y2-S2-155K19,2,161,AS,exp,27,→,right,→,0.8317805994302034,True,19,0,0,0
Y2-S2-155K19,2,162,AS,exp,40,←,left,←,0.8973703002557158,True,19,1,0,0
Y2-S2-155K19,2,163,AS,exp,34,↑,right,→,1.8684782003983855,False,18,-1,1,1
Y2-S2-155K19,2,164,AS,exp,46,→,right,→,0.9402946000918746,True,19,-1,0,1
Y2-S2-155K19,2,165,AS,exp,35,↑,up,↑,1.1987177999690175,True,19,-1,0,1
Y2-S2-155K19,2,166,AS,exp,41,→,right,→,0.8639035997912288,True,19,1,1,2
Y2-S2-155K19,2,167,AS,exp,30,↓,right,→,1.0373118994757533,False,18,-1,1,3
Y2-S2-155K19,2,168,AS,exp,49,↑,up,↑,1.1105293994769454,True,19,-1,0,3
Y2-S2-155K19,2,169,AS,exp,38,←,left,←,0.9246747000142932,True,19,-1,0,3
Y2-S2-155K19,2,170,AS,exp,27,↓,down,↓,1.4817698001861572,True,19,1,1,4
Y2-S2-155K19,2,171,AS,exp,32,→,right,→,1.1066530998796225,True,18,1,0,4
Y2-S2-155K19,2,172,AS,exp,37,↓,down,↓,1.4464654996991158,True,18,1,0,4
Y2-S2-155K19,2,173,AS,exp,46,←,left,←,0.906174199655652,True,18,1,0,4
Y2-S2-155K19,2,174,AS,exp,41,↓,down,↓,0.830442700535059,True,17,1,0,4
Y2-S2-155K19,2,175,AS,exp,45,↑,up,↑,0.9661903008818626,True,17,1,0,4
Y2-S2-155K19,2,176,AS,exp,32,↓,down,↓,0.8153432002291083,True,17,1,0,4
Y2-S2-155K19,2,177,AS,exp,32,←,left,←,1.236367099918425,True,16,1,0,4
Y2-S2-155K19,2,178,AS,exp,27,↓,left,←,1.1845501000061631,False,16,-1,1,5
Y2-S2-155K19,2,179,AS,exp,27,←,left,←,1.0355487000197172,True,17,-1,0,5
Y2-S2-155K19,2,180,AS,exp,29,↓,down,↓,0.8017890993505716,True,17,-1,0,5
Y2-S2-155K19,2,181,AS,exp,37,→,right,→,0.7854396002367139,True,17,1,1,6
Y2-S2-155K19,2,182,AS,exp,29,←,left,←,0.6481138002127409,True,16,1,0,6
Y2-S2-155K19,2,183,AS,exp,49,→,left,←,1.3728590002283454,False,16,-1,1,7
Y2-S2-155K19,2,184,AS,exp,46,←,left,←,0.7378179002553225,True,17,-1,0,7
Y2-S2-155K19,2,185,AS,exp,33,↑,up,↑,0.94416160043329,True,17,-1,0,7
Y2-S2-155K19,2,186,AS,exp,32,→,right,→,1.118006500415504,True,17,1,1,8
Y2-S2-155K19,2,187,AS,exp,36,↑,left,←,1.1722982004284859,False,16,-1,1,9
Y2-S2-155K19,2,188,AS,exp,33,→,right,→,0.7826356003060937,True,17,-1,0,9
Y2-S2-155K19,2,189,AS,exp,43,←,left,←,0.9992156997323036,True,17,-1,0,9
Y2-S2-155K19,2,190,AS,exp,36,↑,left,←,1.0636641001328826,False,17,-1,0,9
Y2-S2-155K19,2,191,AS,exp,48,→,right,→,0.6158299008384347,True,18,-1,0,9
Y2-S2-155K19,2,192,AS,exp,48,↓,down,↓,0.8221777006983757,True,18,-1,0,9
Y2-S2-155K19,2,193,AS,exp,27,→,right,→,0.8507572002708912,True,18,1,1,10
Y2-S2-155K19,2,194,AS,exp,28,↑,down,↓,0.6873530000448227,False,17,-1,1,11
Y2-S2-155K19,2,195,AS,exp,37,←,left,←,0.7680727997794747,True,18,-1,0,11
Y2-S2-155K19,2,196,AS,exp,36,→,right,→,1.6518900003284216,True,18,-1,0,11
Y2-S2-155K19,2,197,AS,exp,48,↑,up,↑,0.7216556007042527,True,18,1,1,12
Y2-S2-155K19,2,198,AS,exp,30,←,left,←,1.3000114001333714,True,17,1,0,12
Y2-S2-155K19,2,199,AS,exp,31,↑,up,↑,0.9620240004733205,True,17,1,0,12
Y2-S2-155K19,2,200,AS,exp,28,↓,left,←,1.0877782003954053,False,17,-1,1,13
Y2-S2-155K19,2,201,AS,exp,34,←,left,←,1.142434999346733,True,18,-1,0,13
Y2-S2-155K19,2,202,AS,exp,25,→,right,→,0.9450326999649405,True,18,-1,0,13
Y2-S2-155K19,2,203,AS,exp,50,←,left,←,0.6626667995005846,True,18,1,1,14
Y2-S2-155K19,2,204,AS,exp,27,↓,down,↓,0.5594533002004027,True,17,1,0,14
Y2-S2-155K19,2,205,AS,exp,46,←,left,←,1.3452190002426505,True,17,1,0,14
Y2-S2-155K19,2,206,AS,exp,37,↓,down,↓,0.9556582998484373,True,17,1,0,14
Y2-S2-155K19,2,207,AS,exp,33,←,left,←,1.1976242000237107,True,16,1,0,14
Y2-S2-155K19,2,208,AS,exp,47,↑,down,↓,1.3342199996113777,False,16,-1,1,15
Y2-S2-155K19,2,209,AS,exp,33,↓,left,←,1.0643971003592014,False,17,-1,0,15
Y2-S2-155K19,2,210,AS,exp,45,←,left,←,0.6460073003545403,True,18,-1,0,15
Y2-S2-155K19,2,211,AS,exp,32,↓,down,↓,0.7208335995674133,True,18,-1,0,15
Y2-S2-155K19,2,212,AS,exp,40,←,right,→,1.0007237000390887,False,18,-1,0,15
Y2-S2-155K19,2,213,AS,exp,43,↓,down,↓,1.5654750997200608,True,19,-1,0,15
Y2-S2-155K19,2,214,AS,exp,50,←,left,←,0.8099706005305052,True,19,-1,0,15
Y2-S2-155K19,2,215,AS,exp,36,↓,down,↓,0.6925120996311307,True,19,1,1,16
Y2-S2-155K19,3,216,AS,intra_train,26,→,right,→,1.8513770001009107,True,28,-,-,-
Y2-S2-155K19,3,217,AS,intra_train,39,↓,down,↓,0.9189140005037189,True,28,-,-,-
Y2-S2-155K19,3,218,AS,intra_train,46,←,left,←,1.0925171002745628,True,28,-,-,-
Y2-S2-155K19,3,219,AS,intra_train,32,↑,up,↑,1.0540130995213985,True,28,-,-,-
Y2-S2-155K19,3,220,AS,intra_train,38,←,left,←,0.9541774997487664,True,28,-,-,-
Y2-S2-155K19,3,221,AS,exp,39,↑,down,↓,0.909807700663805,False,19,-1,0,0
Y2-S2-155K19,3,222,AS,exp,40,↓,down,↓,1.3979767998680472,True,20,-1,0,0
Y2-S2-155K19,3,223,AS,exp,48,→,left,←,1.0249994993209839,False,20,-1,0,0
Y2-S2-155K19,3,224,AS,exp,40,←,left,←,1.1450310992076993,True,21,-1,0,0
Y2-S2-155K19,3,225,AS,exp,33,↑,right,→,1.160742100328207,False,21,-1,0,0
Y2-S2-155K19,3,226,AS,exp,47,←,left,←,0.9717629998922348,True,22,-1,0,0
Y2-S2-155K19,3,227,AS,exp,29,↓,right,→,1.2087492998689413,False,22,-1,0,0
Y2-S2-155K19,3,228,AS,exp,31,→,right,→,0.7590256994590163,True,23,-1,0,0
Y2-S2-155K19,3,229,AS,exp,35,↑,left,←,0.9617119999602437,False,23,-1,0,0
Y2-S2-155K19,3,230,AS,exp,40,↓,left,←,1.0728695001453161,False,24,-1,0,0
Y2-S2-155K19,3,231,AS,exp,25,←,left,←,1.1491175005212426,True,25,-1,0,0
Y2-S2-155K19,3,232,AS,exp,37,↓,down,↓,0.7764518996700644,True,25,-1,0,0
Y2-S2-155K19,3,233,AS,exp,37,→,left,←,1.2029106998816133,False,25,-1,0,0
Y2-S2-155K19,3,234,AS,exp,38,↑,up,↑,0.9233082998543978,True,26,-1,0,0
Y2-S2-155K19,3,235,AS,exp,48,↓,down,↓,1.1237182999029756,True,26,-1,0,0
Y2-S2-155K19,3,236,AS,exp,32,↑,up,↑,0.9020600998774171,True,26,1,1,1
Y2-S2-155K19,3,237,AS,exp,50,←,left,←,0.8372146999463439,True,25,1,0,1
Y2-S2-155K19,3,238,AS,exp,46,↑,up,↑,0.9271456999704242,True,25,1,0,1
Y2-S2-155K19,3,239,AS,exp,46,←,left,←,0.6522479001432657,True,25,1,0,1
Y2-S2-155K19,3,240,AS,exp,44,↓,down,↓,1.1625613002106547,True,24,1,0,1
Y2-S2-155K19,3,241,AS,exp,40,↑,up,↑,0.9689373001456261,True,24,1,0,1
Y2-S2-155K19,3,242,AS,exp,30,→,left,←,1.260712799616158,False,24,-1,1,2
Y2-S2-155K19,3,243,AS,exp,49,↓,no_key,no_letter,-1.0,False,25,-1,0,2
Y2-S2-155K19,3,244,AS,exp,33,←,left,←,0.6940821995958686,True,26,-1,0,2
Y2-S2-155K19,3,245,AS,exp,44,→,right,→,1.5723399994894862,True,26,-1,0,2
Y2-S2-155K19,3,246,AS,exp,36,←,left,←,0.9976757001131773,True,26,1,1,3
Y2-S2-155K19,3,247,AS,exp,48,↓,down,↓,0.8926967000588775,True,25,1,0,3
Y2-S2-155K19,3,248,AS,exp,29,↑,no_key,no_letter,-1.0,False,25,-1,1,4
Y2-S2-155K19,3,249,AS,exp,30,→,right,→,0.676036199554801,True,26,-1,0,4
Y2-S2-155K19,3,250,AS,exp,35,←,left,←,1.2626157999038696,True,26,-1,0,4
Y2-S2-155K19,3,251,AS,exp,29,↓,down,↓,1.2413240000605583,True,26,1,1,5
Y2-S2-155K19,3,252,AS,exp,36,↑,up,↑,0.9515988994389772,True,25,1,0,5
Y2-S2-155K19,3,253,AS,exp,28,→,right,→,0.8726225001737475,True,25,1,0,5
Y2-S2-155K19,3,254,AS,exp,37,↓,down,↓,1.2179061006754637,True,25,1,0,5
Y2-S2-155K19,3,255,AS,exp,29,↑,up,↑,1.042794800363481,True,24,1,0,5
Y2-S2-155K19,3,256,AS,exp,36,→,no_key,no_letter,-1.0,False,24,-1,1,6
Y2-S2-155K19,3,257,AS,exp,41,←,right,→,1.3071708008646965,False,25,-1,0,6
Y2-S2-155K19,3,258,AS,exp,33,↓,down,↓,1.9355606995522976,True,26,-1,0,6
Y2-S2-155K19,3,259,AS,exp,43,↑,up,↑,1.1261455994099379,True,26,-1,0,6
Y2-S2-155K19,3,260,AS,exp,48,→,no_key,no_letter,-1.0,False,26,-1,0,6
Y2-S2-155K19,3,261,AS,exp,50,←,left,←,1.1710745999589562,True,27,-1,0,6
Y2-S2-155K19,3,262,AS,exp,25,↑,up,↑,1.1757067991420627,True,27,-1,0,6
Y2-S2-155K19,3,263,AS,exp,27,→,right,→,0.6993177002295852,True,27,1,1,7
Y2-S2-155K19,3,264,AS,exp,42,↑,up,↑,0.744395799934864,True,26,1,0,7
Y2-S2-155K19,3,265,AS,exp,37,→,right,→,0.8224291997030377,True,26,1,0,7
Y2-S2-155K19,3,266,AS,exp,46,↓,down,↓,0.9526225998997688,True,26,1,0,7
Y2-S2-155K19,3,267,AS,exp,44,→,no_key,no_letter,-1.0,False,25,-1,1,8
Y2-S2-155K19,3,268,AS,exp,48,↓,down,↓,1.5447762999683619,True,26,-1,0,8
Y2-S2-155K19,3,269,AS,exp,28,→,right,→,0.7966048000380397,True,26,-1,0,8
Y2-S2-155K19,3,270,AS,exp,49,↓,down,↓,1.2346877995878458,True,26,1,1,9
Y2-S2-155K19,3,271,AS,exp,31,←,left,←,0.7470084996894002,True,25,1,0,9
Y2-S2-155K19,3,272,AS,exp,29,→,right,→,0.6127109993249178,True,25,1,0,9
Y2-S2-155K19,3,273,AS,exp,31,↑,up,↑,0.6786917997524142,True,25,1,0,9
Y2-S2-155K19,3,274,AS,exp,25,↓,left,←,1.5998956002295017,False,24,-1,1,10
Y2-S2-155K19,3,275,AS,exp,32,←,left,←,0.8477528002113104,True,25,-1,0,10
Y2-S2-155K19,3,276,AS,exp,50,↑,up,↑,0.9676951998844743,True,25,-1,0,10
Y2-S2-155K19,3,277,AS,exp,49,←,right,→,1.3660813001915812,False,25,-1,0,10
Y2-S2-155K19,3,278,AS,exp,27,→,left,←,1.4973614001646638,False,26,-1,0,10
Y2-S2-155K19,3,279,AS,exp,26,↑,up,↑,0.7687975000590086,True,27,-1,0,10
Y2-S2-155K19,3,280,AS,exp,48,↓,right,→,0.8759027002379298,False,27,-1,0,10
Y2-S2-155K19,3,281,AS,exp,46,→,right,→,0.9015691997483373,True,28,-1,0,10
Y2-S2-155K19,3,282,AS,exp,29,←,left,←,0.8041330995038152,True,28,-1,0,10
Y2-S2-155K19,3,283,AS,exp,41,→,right,→,0.7517296001315117,True,28,1,1,11
Y2-S2-155K19,3,284,AS,exp,49,←,left,←,0.8126801000908017,True,27,1,0,11
Y2-S2-155K19,3,285,AS,exp,46,→,right,→,0.5511449007317424,True,27,1,0,11
Y2-S2-155K19,3,286,AS,exp,26,↓,left,←,0.4676533006131649,False,27,-1,1,12
Y2-S2-155K19,3,287,AS,exp,29,↑,down,↓,1.303944499231875,False,28,-1,0,12
Y2-S2-155K19,3,288,AS,exp,40,→,right,→,0.6013625003397465,True,29,-1,0,12
Y2-S2-155K19,3,289,AS,exp,38,←,down,↓,1.6345218000933528,False,29,-1,0,12
Y2-S2-155K19,3,290,AS,exp,26,↑,left,←,1.394382900558412,False,30,-1,0,12
Y2-S2-155K19,3,291,AS,exp,36,→,right,→,0.7396836997941136,True,31,-1,0,12
Y2-S2-155K19,3,292,AS,exp,45,↑,up,↑,1.240641999989748,True,31,-1,0,12
Y2-S2-155K19,3,293,AS,exp,46,↓,down,↓,0.9014825997874141,True,31,1,1,13
Y2-S2-155K19,3,294,AS,exp,37,←,left,←,1.0984778003767133,True,30,1,0,13
Y2-S2-155K19,3,295,AS,exp,47,↓,down,↓,1.3268373999744654,True,30,1,0,13
Y2-S2-155K19,3,296,AS,exp,30,←,up,↑,1.55619109980762,False,30,-1,1,14
Y2-S2-155K19,3,297,AS,exp,42,↑,up,↑,0.8249606005847454,True,31,-1,0,14
Y2-S2-155K19,3,298,AS,exp,35,→,right,→,1.032231300137937,True,31,-1,0,14
Y2-S2-155K19,3,299,AS,exp,50,←,left,←,0.7859912002459168,True,31,1,1,15
Y2-S2-155K19,3,300,AS,exp,50,→,right,→,0.7622132003307343,True,30,1,0,15
Y2-S2-155K19,3,301,AS,exp,36,↑,up,↑,0.8727472992613912,True,30,1,0,15
Y2-S2-155K19,3,302,AS,exp,42,→,left,←,1.4486061995849013,False,30,-1,1,16
Y2-S2-155K19,4,303,PS,intra_train,37,←,left,←,0.7462311005219817,True,15,-,-,-
Y2-S2-155K19,4,304,PS,intra_train,31,↑,up,↑,0.9165384005755186,True,15,-,-,-
Y2-S2-155K19,4,305,PS,intra_train,37,←,left,←,0.6418377999216318,True,15,-,-,-
Y2-S2-155K19,4,306,PS,intra_train,31,→,right,→,0.5902925999835134,True,15,-,-,-
Y2-S2-155K19,4,307,PS,intra_train,25,↓,down,↓,0.8324298998340964,True,15,-,-,-
Y2-S2-155K19,4,308,PS,exp,27,→,right,→,0.9830845994874835,True,10,0,0,0
Y2-S2-155K19,4,309,PS,exp,36,↑,left,←,0.9940411997959018,False,10,-1,0,0
Y2-S2-155K19,4,310,PS,exp,25,→,right,→,0.5622488996013999,True,11,-1,0,0
Y2-S2-155K19,4,311,PS,exp,34,←,left,←,0.8056250000372529,True,11,-1,0,0
Y2-S2-155K19,4,312,PS,exp,26,↑,up,↑,0.8313960004597902,True,11,1,1,1
Y2-S2-155K19,4,313,PS,exp,37,→,right,→,0.7703753998503089,True,10,1,0,1
Y2-S2-155K19,4,314,PS,exp,43,←,left,←,0.9780203998088837,True,10,1,0,1
Y2-S2-155K19,4,315,PS,exp,36,→,right,→,0.694433300755918,True,10,1,0,1
Y2-S2-155K19,4,316,PS,exp,45,←,left,←,0.6821976006031036,True,9,1,0,1
Y2-S2-155K19,4,317,PS,exp,33,↓,down,↓,0.824256400577724,True,9,1,0,1
Y2-S2-155K19,4,318,PS,exp,25,→,right,→,0.6053983997553587,True,9,1,0,1
Y2-S2-155K19,4,319,PS,exp,33,↑,right,→,0.9287034003064036,False,8,-1,1,2
Y2-S2-155K19,4,320,PS,exp,45,→,right,→,1.0865623001009226,True,9,-1,0,2
Y2-S2-155K19,4,321,PS,exp,25,↑,up,↑,1.0483155995607376,True,9,-1,0,2
Y2-S2-155K19,4,322,PS,exp,45,↓,right,→,0.7883327007293701,False,9,-1,0,2
Y2-S2-155K19,4,323,PS,exp,34,↑,up,↑,0.7826816998422146,True,10,-1,0,2
Y2-S2-155K19,4,324,PS,exp,50,↓,right,→,0.8039891999214888,False,10,-1,0,2
Y2-S2-155K19,4,325,PS,exp,25,↑,right,→,1.1599408006295562,False,11,-1,0,2
Y2-S2-155K19,4,326,PS,exp,29,↓,down,↓,0.6973766991868615,True,12,-1,0,2
Y2-S2-155K19,4,327,PS,exp,30,↑,up,↑,0.6207528002560139,True,12,-1,0,2
Y2-S2-155K19,4,328,PS,exp,29,←,left,←,0.9354676995426416,True,12,1,1,3
Y2-S2-155K19,4,329,PS,exp,27,↑,up,↑,0.6316320998594165,True,11,1,0,3
Y2-S2-155K19,4,330,PS,exp,38,←,left,←,0.6556615000590682,True,11,1,0,3
Y2-S2-155K19,4,331,PS,exp,42,→,right,→,0.6715500000864267,True,11,1,0,3
Y2-S2-155K19,4,332,PS,exp,48,↑,right,→,0.7297954000532627,False,10,-1,1,4
Y2-S2-155K19,4,333,PS,exp,47,←,right,→,0.7767802998423576,False,11,-1,0,4
Y2-S2-155K19,4,334,PS,exp,38,→,right,→,0.6381505001336336,True,12,-1,0,4
Y2-S2-155K19,4,335,PS,exp,50,↓,left,←,1.0430902000516653,False,12,-1,0,4
Y2-S2-155K19,4,336,PS,exp,48,←,left,←,0.6840685000643134,True,13,-1,0,4
Y2-S2-155K19,4,337,PS,exp,46,→,right,→,0.6833541998639703,True,13,-1,0,4
Y2-S2-155K19,4,338,PS,exp,47,←,right,→,0.679263399913907,False,13,-1,0,4
Y2-S2-155K19,4,339,PS,exp,42,↓,left,←,0.9272971004247665,False,14,-1,0,4
Y2-S2-155K19,4,340,PS,exp,43,→,right,→,0.9223905000835657,True,15,-1,0,4
Y2-S2-155K19,4,341,PS,exp,44,↑,up,↑,0.8513767998665571,True,15,-1,0,4
Y2-S2-155K19,4,342,PS,exp,29,↓,down,↓,0.8952978001907468,True,15,1,1,5
Y2-S2-155K19,4,343,PS,exp,45,↑,up,↑,0.9767335997894406,True,14,1,0,5
Y2-S2-155K19,4,344,PS,exp,38,↓,no_key,no_letter,-1.0,False,14,-1,1,6
Y2-S2-155K19,4,345,PS,exp,39,←,left,←,0.7598819006234407,True,15,-1,0,6
Y2-S2-155K19,4,346,PS,exp,43,→,right,→,0.6053728004917502,True,15,-1,0,6
Y2-S2-155K19,4,347,PS,exp,50,↓,down,↓,0.9271123996004462,True,15,1,1,7
Y2-S2-155K19,4,348,PS,exp,41,←,right,→,0.7484971005469561,False,14,-1,1,8
Y2-S2-155K19,4,349,PS,exp,33,→,right,→,0.9044049996882677,True,15,-1,0,8
Y2-S2-155K19,4,350,PS,exp,29,↓,right,→,0.7665865002200007,False,15,-1,0,8
Y2-S2-155K19,4,351,PS,exp,29,→,right,→,0.8935117004439235,True,16,-1,0,8
Y2-S2-155K19,4,352,PS,exp,33,←,left,←,0.9839864000678062,True,16,-1,0,8
Y2-S2-155K19,4,353,PS,exp,50,→,right,→,0.6138349995017052,True,16,1,1,9
Y2-S2-155K19,4,354,PS,exp,40,↓,left,←,0.9065835000947118,False,15,-1,1,10
Y2-S2-155K19,4,355,PS,exp,46,↑,up,↑,0.8255305998027325,True,16,-1,0,10
Y2-S2-155K19,4,356,PS,exp,29,←,right,→,1.3961297003552318,False,16,-1,0,10
Y2-S2-155K19,4,357,PS,exp,27,↑,up,↑,0.9373575001955032,True,17,-1,0,10
Y2-S2-155K19,4,358,PS,exp,40,→,right,→,0.8227686006575823,True,17,-1,0,10
Y2-S2-155K19,4,359,PS,exp,32,←,right,→,0.7443204000592232,False,17,-1,0,10
Y2-S2-155K19,4,360,PS,exp,42,↓,down,↓,0.8230277001857758,True,18,-1,0,10
Y2-S2-155K19,4,361,PS,exp,28,←,right,→,0.7540603000670671,False,18,-1,0,10
Y2-S2-155K19,4,362,PS,exp,31,↓,right,→,0.79014159925282,False,19,-1,0,10
Y2-S2-155K19,4,363,PS,exp,31,↑,down,↓,1.8373062005266547,False,20,-1,0,10
Y2-S2-155K19,4,364,PS,exp,48,←,left,←,1.0007279999554157,True,21,-1,0,10
Y2-S2-155K19,4,365,PS,exp,27,→,left,←,1.5586329996585846,False,21,-1,0,10
Y2-S2-155K19,4,366,PS,exp,30,↓,down,↓,0.7094739992171526,True,22,-1,0,10
Y2-S2-155K19,4,367,PS,exp,37,↑,up,↑,1.2036184994503856,True,22,-1,0,10
Y2-S2-155K19,4,368,PS,exp,26,↓,down,↓,0.8389320997521281,True,22,1,1,11
Y2-S2-155K19,4,369,PS,exp,46,↑,no_key,no_letter,-1.0,False,21,-1,1,12
Y2-S2-155K19,4,370,PS,exp,42,←,left,←,0.9236663999035954,True,22,-1,0,12
Y2-S2-155K19,4,371,PS,exp,30,↑,left,←,1.4979090001434088,False,22,-1,0,12
Y2-S2-155K19,4,372,PS,exp,44,→,right,→,0.8055945001542568,True,23,-1,0,12
Y2-S2-155K19,4,373,PS,exp,26,←,left,←,0.8355125002563,True,23,-1,0,12
Y2-S2-155K19,4,374,PS,exp,46,↓,down,↓,0.7942498996853828,True,23,1,1,13
Y2-S2-155K19,4,375,PS,exp,27,←,left,←,1.0721758995205164,True,22,1,0,13
Y2-S2-155K19,4,376,PS,exp,48,↑,up,↑,0.5005330005660653,True,22,1,0,13
Y2-S2-155K19,4,377,PS,exp,43,→,no_key,no_letter,-1.0,False,22,-1,1,14
Y2-S2-155K19,4,378,PS,exp,29,←,no_key,no_letter,-1.0,False,23,-1,0,14
Y2-S2-155K19,4,379,PS,exp,30,↑,up,↑,0.8901089001446962,True,24,-1,0,14
Y2-S2-155K19,4,380,PS,exp,28,→,right,→,0.7455094996839762,True,24,-1,0,14
Y2-S2-155K19,4,381,PS,exp,44,←,left,←,0.7912109000608325,True,24,1,1,15
Y2-S2-155K19,4,382,PS,exp,28,→,right,→,1.003401399590075,True,23,1,0,15
Y2-S2-155K19,4,383,PS,exp,25,↓,left,←,1.4732753997668624,False,23,-1,1,16
Y2-S2-155K19,5,384,PS,intra_train,33,←,down,↓,1.126490999944508,False,15,-,-,-
Y2-S2-155K19,5,385,PS,intra_train,30,↑,up,↑,0.7422647997736931,True,15,-,-,-
Y2-S2-155K19,5,386,PS,intra_train,28,→,right,→,0.5933174006640911,True,15,-,-,-
Y2-S2-155K19,5,387,PS,intra_train,31,←,left,←,0.6144300000742078,True,15,-,-,-
Y2-S2-155K19,5,388,PS,intra_train,32,↓,right,→,0.7315966999158263,False,15,-,-,-
Y2-S2-155K19,5,389,PS,exp,39,→,right,→,0.5872112000361085,True,10,0,0,0
Y2-S2-155K19,5,390,PS,exp,46,↓,down,↓,1.1943111000582576,True,10,0,0,0
Y2-S2-155K19,5,391,PS,exp,37,→,right,→,0.815082099288702,True,10,1,0,0
Y2-S2-155K19,5,392,PS,exp,49,←,left,←,0.7725002998486161,True,9,1,0,0
Y2-S2-155K19,5,393,PS,exp,40,↑,left,←,0.6705218004062772,False,9,-1,1,1
Y2-S2-155K19,5,394,PS,exp,27,→,right,→,0.7656240006908774,True,10,-1,0,1
Y2-S2-155K19,5,395,PS,exp,25,↓,right,→,1.2892776997759938,False,10,-1,0,1
Y2-S2-155K19,5,396,PS,exp,29,←,no_key,no_letter,-1.0,False,11,-1,0,1
Y2-S2-155K19,5,397,PS,exp,35,→,right,→,0.7240351997315884,True,12,-1,0,1
Y2-S2-155K19,5,398,PS,exp,46,↓,down,↓,0.8125630998983979,True,12,-1,0,1
Y2-S2-155K19,5,399,PS,exp,27,←,right,→,0.9159001000225544,False,12,-1,0,1
Y2-S2-155K19,5,400,PS,exp,44,→,down,↓,0.94198780041188,False,13,-1,0,1
Y2-S2-155K19,5,401,PS,exp,45,↑,up,↑,0.9840436996892095,True,14,-1,0,1
Y2-S2-155K19,5,402,PS,exp,41,←,left,←,1.0709444005042315,True,14,-1,0,1
Y2-S2-155K19,5,403,PS,exp,46,↓,left,←,1.086540499702096,False,14,-1,0,1
Y2-S2-155K19,5,404,PS,exp,39,→,no_key,no_letter,-1.0,False,15,-1,0,1
Y2-S2-155K19,5,405,PS,exp,43,↓,down,↓,1.4187781000509858,True,16,-1,0,1
Y2-S2-155K19,5,406,PS,exp,26,←,left,←,0.8451894000172615,True,16,-1,0,1
Y2-S2-155K19,5,407,PS,exp,31,↓,left,←,0.7293723998591304,False,16,-1,0,1
Y2-S2-155K19,5,408,PS,exp,49,→,right,→,1.0697870003059506,True,17,-1,0,1
Y2-S2-155K19,5,409,PS,exp,36,←,right,→,1.1277826000005007,False,17,-1,0,1
Y2-S2-155K19,5,410,PS,exp,47,↓,down,↓,0.8632864998653531,True,18,-1,0,1
Y2-S2-155K19,5,411,PS,exp,47,↑,up,↑,0.9044940005987883,True,18,-1,0,1
Y2-S2-155K19,5,412,PS,exp,28,→,no_key,no_letter,-1.0,False,18,-1,0,1
Y2-S2-155K19,5,413,PS,exp,26,↑,right,→,1.5349068995565176,False,19,-1,0,1
Y2-S2-155K19,5,414,PS,exp,41,→,right,→,1.4328629998490214,True,20,-1,0,1
Y2-S2-155K19,5,415,PS,exp,35,←,up,↑,1.8058486999943852,False,20,-1,0,1
Y2-S2-155K19,5,416,PS,exp,32,↑,up,↑,1.0219188993796706,True,21,-1,0,1
Y2-S2-155K19,5,417,PS,exp,46,→,no_key,no_letter,-1.0,False,21,-1,0,1
Y2-S2-155K19,5,418,PS,exp,25,↑,left,←,1.331092900596559,False,22,-1,0,1
Y2-S2-155K19,5,419,PS,exp,45,→,right,→,1.4204360004514456,True,23,-1,0,1
Y2-S2-155K19,5,420,PS,exp,26,↑,right,→,1.072958500124514,False,23,-1,0,1
Y2-S2-155K19,5,421,PS,exp,41,↓,right,→,1.0106945997104049,False,24,-1,0,1
Y2-S2-155K19,5,422,PS,exp,47,←,up,↑,1.1071033999323845,False,25,-1,0,1
Y2-S2-155K19,5,423,PS,exp,28,↑,left,←,1.7349576000124216,False,26,-1,0,1
Y2-S2-155K19,5,424,PS,exp,32,←,right,→,0.7030386999249458,False,27,-1,0,1
Y2-S2-155K19,5,425,PS,exp,26,→,right,→,0.7878797994926572,True,28,-1,0,1
Y2-S2-155K19,5,426,PS,exp,49,↑,left,←,1.8757440000772476,False,28,-1,0,1
Y2-S2-155K19,5,427,PS,exp,43,→,left,←,1.5123367998749018,False,29,-1,0,1
Y2-S2-155K19,5,428,PS,exp,46,↓,right,→,1.587958900257945,False,30,-1,0,1
Y2-S2-155K19,5,429,PS,exp,40,←,left,←,0.7641585003584623,True,31,-1,0,1
Y2-S2-155K19,5,430,PS,exp,38,↑,down,↓,1.0553272003307939,False,31,-1,0,1
Y2-S2-155K19,5,431,PS,exp,43,←,down,↓,0.9429490994662046,False,32,-1,0,1
Y2-S2-155K19,5,432,PS,exp,28,↑,right,→,1.4962372994050384,False,33,-1,0,1
Y2-S2-155K19,5,433,PS,exp,46,↓,no_key,no_letter,-1.0,False,34,-1,0,1
Y2-S2-155K19,5,434,PS,exp,44,↑,no_key,no_letter,-1.0,False,35,-1,0,1
Y2-S2-155K19,5,435,PS,exp,25,→,left,←,1.8996707992628217,False,36,-1,0,1
Y2-S2-155K19,5,436,PS,exp,29,↑,right,→,0.8041985994204879,False,37,-1,0,1
Y2-S2-155K19,5,437,PS,exp,50,→,down,↓,1.599638500250876,False,38,-1,0,1
Y2-S2-155K19,5,438,PS,exp,49,↑,right,→,0.9289902001619339,False,39,-1,0,1
Y2-S2-155K19,5,439,PS,exp,34,←,right,→,2.0238258000463247,False,40,-1,0,1
Y2-S2-155K19,5,440,PS,exp,42,↓,down,↓,2.1881267996504903,True,41,-1,0,1
Y2-S2-155K19,5,441,PS,exp,46,→,right,→,2.320215499959886,True,41,-1,0,1
Y2-S2-155K19,5,442,PS,exp,49,↓,down,↓,0.7009137002751231,True,41,1,1,2
Y2-S2-155K19,5,443,PS,exp,38,↑,down,↓,1.722078800201416,False,40,-1,1,3
Y2-S2-155K19,5,444,PS,exp,41,→,right,→,0.6170705994591117,True,41,-1,0,3
Y2-S2-155K19,5,445,PS,exp,29,↓,left,←,0.4677064996212721,False,41,-1,0,3
Y2-S2-155K19,5,446,PS,exp,34,←,left,←,1.4093210995197296,True,42,-1,0,3
Y2-S2-155K19,5,447,PS,exp,37,→,right,→,0.6846553003415465,True,42,-1,0,3
Y2-S2-155K19,5,448,PS,exp,28,↑,right,→,0.7338037993758917,False,42,-1,0,3
Y2-S2-155K19,5,449,PS,exp,47,←,left,←,0.8180477004498243,True,43,-1,0,3
Y2-S2-155K19,5,450,PS,exp,44,↑,left,←,0.5173271000385284,False,43,-1,0,3
Y2-S2-155K19,5,451,PS,exp,44,←,left,←,0.767391299828887,True,44,-1,0,3
Y2-S2-155K19,5,452,PS,exp,48,→,left,←,0.8504807995632291,False,44,-1,0,3
Y2-S2-155K19,5,453,PS,exp,45,↑,no_key,no_letter,-1.0,False,45,-1,0,3
Y2-S2-155K19,5,454,PS,exp,46,↓,left,←,0.5508572002872825,False,46,-1,0,3
Y2-S2-155K19,5,455,PS,exp,39,←,no_key,no_letter,-1.0,False,47,-1,0,3
Y2-S2-155K19,5,456,PS,exp,28,→,up,↑,1.904130400158465,False,48,-1,0,3
Y2-S2-155K19,5,457,PS,exp,42,←,down,↓,1.954975700005889,False,49,-1,0,3
Y2-S2-155K19,5,458,PS,exp,32,↑,right,→,0.5842148996889591,False,50,-1,0,3
Y2-S2-155K19,5,459,PS,exp,30,→,right,→,0.7844112999737263,True,51,-1,0,3
Y2-S2-155K19,5,460,PS,exp,42,↑,no_key,no_letter,-1.0,False,51,-1,0,3
Y2-S2-155K19,5,461,PS,exp,44,←,left,←,2.196107800118625,True,52,-1,0,3
Y2-S2-155K19,5,462,PS,exp,35,→,right,→,0.7679110001772642,True,52,-1,0,3
Y2-S2-155K19,5,463,PS,exp,36,↓,right,→,0.7177721997722983,False,52,-1,0,3
Y2-S2-155K19,5,464,PS,exp,33,→,right,→,0.9005412999540567,True,53,-1,0,3
Y2-S2-155K19,5,465,PS,exp,46,←,left,←,2.3971667997539043,True,53,-1,0,3
Y2-S2-155K19,5,466,PS,exp,40,↑,left,←,2.08638200070709,False,53,-1,0,3
Y2-S2-155K19,5,467,PS,exp,34,←,down,↓,1.9343854002654552,False,54,-1,0,3
Y2-S2-155K19,5,468,PS,exp,28,→,no_key,no_letter,-1.0,False,55,-1,0,3
Y2-S2-155K19,5,469,PS,exp,35,↓,up,↑,0.634447299875319,False,56,-1,0,3
Y2-S2-155K19,5,470,PS,exp,41,←,no_key,no_letter,-1.0,False,57,-1,0,3
Y2-S2-155K19,5,471,PS,exp,29,↓,no_key,no_letter,-1.0,False,58,-1,0,3
Y2-S2-155K19,5,472,PS,exp,42,→,no_key,no_letter,-1.0,False,59,-1,0,3
Y2-S2-155K19,5,473,PS,exp,32,↑,no_key,no_letter,-1.0,False,60,-1,0,3
Y2-S2-155K19,5,474,PS,exp,35,→,right,→,0.7346124993637204,True,61,-1,0,3
Y2-S2-155K19,5,475,PS,exp,28,↓,down,↓,0.7177186002954841,True,61,-1,0,3
Y2-S2-155K19,5,476,PS,exp,27,↑,right,→,0.7678055996075273,False,61,-1,0,3
Y2-S2-155K19,5,477,PS,exp,45,↓,no_key,no_letter,-1.0,False,62,-1,0,3
Y2-S2-155K19,5,478,PS,exp,34,↑,right,→,0.6511602997779846,False,63,-1,0,3
Y2-S2-155K19,5,479,PS,exp,45,←,left,←,2.1829845001921058,True,64,-1,0,3
Y2-S2-155K19,5,480,PS,exp,32,↓,up,↑,0.9514216994866729,False,64,-1,0,3
Y2-S2-155K19,5,481,PS,exp,28,→,up,↑,0.8011500993743539,False,65,-1,0,3
Y2-S2-155K19,5,482,PS,exp,36,↓,left,←,1.3252650005742908,False,66,-1,0,3
Y2-S2-155K19,5,483,PS,exp,42,←,left,←,0.8679430996999145,True,67,-1,0,3
Y2-S2-155K19,5,484,PS,exp,50,↑,no_key,no_letter,-1.0,False,67,-1,0,3
Y2-S2-155K19,5,485,PS,exp,47,↓,left,←,0.48446060065180063,False,68,-1,0,3
Y2-S2-155K19,5,486,PS,exp,44,←,left,←,1.0507869003340602,True,69,-1,0,3
Y2-S2-155K19,5,487,PS,exp,47,↓,right,→,0.6682987995445728,False,69,-1,0,3
Y2-S2-155K19,5,488,PS,exp,37,↑,up,↑,0.851061400026083,True,70,-1,0,3
Y2-S2-155K19,5,489,PS,exp,46,↓,no_key,no_letter,-1.0,False,70,-1,0,3
Y2-S2-155K19,5,490,PS,exp,36,←,left,←,0.9012418994680047,True,71,-1,0,3
Y2-S2-155K19,5,491,PS,exp,40,↑,right,→,0.751290500164032,False,71,-1,0,3
Y2-S2-155K19,5,492,PS,exp,44,←,right,→,1.573399600572884,False,72,-1,0,3
Y2-S2-155K19,5,493,PS,exp,35,↑,up,↑,0.0011057006195187569,True,73,-1,0,3
Y2-S2-155K19,5,494,PS,exp,47,→,no_key,no_letter,-1.0,False,73,-1,0,3
Y2-S2-155K19,5,495,PS,exp,50,↑,no_key,no_letter,-1.0,False,74,-1,0,3
Y2-S2-155K19,5,496,PS,exp,36,←,left,←,2.721683799289167,True,75,-1,0,3
Y2-S2-155K19,5,497,PS,exp,33,→,no_key,no_letter,-1.0,False,75,-1,0,3
Y2-S2-155K19,5,498,PS,exp,37,↓,down,↓,1.2010082006454468,True,76,-1,0,3
Y2-S2-155K19,5,499,PS,exp,39,↑,no_key,no_letter,-1.0,False,76,-1,0,3
Y2-S2-155K19,5,500,PS,exp,32,↓,left,←,1.4762931000441313,False,77,-1,0,3
Y2-S2-155K19,5,501,PS,exp,36,←,left,←,0.6510685002431273,True,78,-1,0,3
Y2-S2-155K19,5,502,PS,exp,38,→,right,→,0.6847499003633857,True,78,-1,0,3
Y2-S2-155K19,5,503,PS,exp,34,↓,left,←,0.9342868998646736,False,78,-1,0,3
Y2-S2-155K19,5,504,PS,exp,34,→,left,←,0.5677241999655962,False,79,-1,0,3
Y2-S2-155K19,5,505,PS,exp,48,←,no_key,no_letter,-1.0,False,80,-1,0,3
Y2-S2-155K19,5,506,PS,exp,49,↑,up,↑,1.3838460994884372,True,81,-1,0,3
Y2-S2-155K19,5,507,PS,exp,38,→,no_key,no_letter,-1.0,False,81,-1,0,3
Y2-S2-155K19,5,508,PS,exp,33,↑,right,→,0.05136470030993223,False,82,-1,0,3
Y2-S2-155K19,5,509,PS,exp,49,→,left,←,0.9175468003377318,False,83,-1,0,3
Y2-S2-155K19,5,510,PS,exp,34,↓,right,→,0.6177759002894163,False,84,-1,0,3
Y2-S2-155K19,5,511,PS,exp,34,↑,right,→,0.4180894000455737,False,85,-1,0,3
Y2-S2-155K19,5,512,PS,exp,40,←,no_key,no_letter,-1.0,False,86,-1,0,3
Y2-S2-155K19,5,513,PS,exp,38,→,left,←,2.6134349992498755,False,87,-1,0,3
Y2-S2-155K19,5,514,PS,exp,42,←,left,←,0.8176410999149084,True,88,-1,0,3
Y2-S2-155K19,5,515,PS,exp,30,↓,right,→,1.5673955008387566,False,88,-1,0,3
Y2-S2-155K19,5,516,PS,exp,45,↑,left,←,2.7803368996828794,False,89,-1,0,3
Y2-S2-155K19,5,517,PS,exp,35,←,left,←,0.7844289997592568,True,90,-1,0,3
Y2-S2-155K19,5,518,PS,exp,45,→,right,→,0.7014148002490401,True,90,-1,0,3
Y2-S2-155K19,5,519,PS,exp,47,←,left,←,0.7676316006109118,True,90,1,1,4
Y2-S2-155K19,5,520,PS,exp,29,→,right,→,0.8845536997541785,True,89,1,0,4
Y2-S2-155K19,5,521,PS,exp,40,↓,left,←,0.567735000513494,False,89,-1,1,5
Y2-S2-155K19,5,522,PS,exp,44,↑,no_key,no_letter,-1.0,False,90,-1,0,5
Y2-S2-155K19,5,523,PS,exp,26,←,left,←,0.8012897996231914,True,91,-1,0,5
Y2-S2-155K19,5,524,PS,exp,42,→,no_key,no_letter,-1.0,False,91,-1,0,5
Y2-S2-155K19,5,525,PS,exp,29,↑,right,→,1.2340419003739953,False,92,-1,0,5
Y2-S2-155K19,5,526,PS,exp,26,→,up,↑,1.2176786996424198,False,93,-1,0,5
Y2-S2-155K19,5,527,PS,exp,42,↓,no_key,no_letter,-1.0,False,94,-1,0,5
Y2-S2-155K19,5,528,PS,exp,41,←,no_key,no_letter,-1.0,False,95,-1,0,5
Y2-S2-155K19,5,529,PS,exp,27,↓,right,→,2.241124000400305,False,96,-1,0,5
Y2-S2-155K19,5,530,PS,exp,40,→,down,↓,1.3509903000667691,False,97,-1,0,5
Y2-S2-155K19,5,531,PS,exp,46,↑,no_key,no_letter,-1.0,False,98,-1,0,5
Y2-S2-155K19,5,532,PS,exp,25,→,right,→,2.6569267995655537,True,99,-1,0,5
Y2-S2-155K19,5,533,PS,exp,29,↓,left,←,1.1852984996512532,False,99,-1,0,5
Y2-S2-155K19,5,534,PS,exp,46,→,right,→,0.7676392002031207,True,100,-1,0,5
Y2-S2-155K19,5,535,PS,exp,34,←,right,→,0.9175493996590376,False,100,-1,0,5
Y2-S2-155K19,5,536,PS,exp,33,↑,left,←,1.5677861999720335,False,101,-1,0,5
Y2-S2-155K19,5,537,PS,exp,35,↓,down,↓,2.4421013006940484,True,102,-1,0,5
Y2-S2-155K19,5,538,PS,exp,32,←,right,→,2.818223800510168,False,102,-1,0,5
Y2-S2-155K19,5,539,PS,exp,26,→,no_key,no_letter,-1.0,False,103,-1,0,5
Y2-S2-155K19,5,540,PS,exp,40,↑,left,←,1.4179529007524252,False,104,-1,0,5
Y2-S2-155K19,5,541,PS,exp,34,→,down,↓,0.7183154998347163,False,105,-1,0,5
Y2-S2-155K19,5,542,PS,exp,49,←,left,←,0.7012529000639915,True,106,-1,0,5
Y2-S2-155K19,5,543,PS,exp,46,→,up,↑,0.9678918002173305,False,106,-1,0,5
Y2-S2-155K19,5,544,PS,exp,43,←,right,→,1.7012021001428366,False,107,-1,0,5
Y2-S2-155K19,5,545,PS,exp,44,↑,up,↑,2.66392520070076,True,108,-1,0,5
Y2-S2-155K19,5,546,PS,exp,46,→,no_key,no_letter,-1.0,False,108,-1,0,5
Y2-S2-155K19,5,547,PS,exp,38,↓,right,→,1.068355799652636,False,109,-1,0,5
Y2-S2-155K19,5,548,PS,exp,50,↑,down,↓,2.6111316001042724,False,110,-1,0,5
Y2-S2-155K19,5,549,PS,exp,29,←,left,←,2.160251099616289,True,111,-1,0,5
Y2-S2-155K19,5,550,PS,exp,50,↓,no_key,no_letter,-1.0,False,111,-1,0,5
Y2-S2-155K19,5,551,PS,exp,37,←,no_key,no_letter,-1.0,False,112,-1,0,5
Y2-S2-155K19,5,552,PS,exp,32,↓,up,↑,0.13460469990968704,False,113,-1,0,5
Y2-S2-155K19,5,553,PS,exp,47,←,no_key,no_letter,-1.0,False,114,-1,0,5
Y2-S2-155K19,5,554,PS,exp,50,↓,left,←,3.0155526995658875,False,115,-1,0,5
Y2-S2-155K19,5,555,PS,exp,29,↑,up,↑,1.8009572001174092,True,116,-1,0,5
Y2-S2-155K19,5,556,PS,exp,26,↓,left,←,1.2342189000919461,False,116,-1,0,5
Y2-S2-155K19,5,557,PS,exp,40,↑,right,→,2.653881799429655,False,117,-1,0,5
Y2-S2-155K19,5,558,PS,exp,27,↓,no_key,no_letter,-1.0,False,118,-1,0,5
Y2-S2-155K19,5,559,PS,exp,28,←,right,→,1.317616400308907,False,119,-1,0,5
Y2-S2-155K19,5,560,PS,exp,43,→,right,→,0.8510389002040029,True,120,-1,0,5
Y2-S2-155K19,5,561,PS,exp,33,↑,right,→,1.951005400158465,False,120,-1,0,5
Y2-S2-155K19,5,562,PS,exp,28,←,left,←,2.99592010024935,True,121,-1,0,5
Y2-S2-155K19,5,563,PS,exp,48,↓,right,→,2.8144452003762126,False,121,-1,0,5
Y2-S2-155K19,5,564,PS,exp,42,→,right,→,1.134566099382937,True,122,-1,0,5
Y2-S2-155K19,5,565,PS,exp,43,↑,left,←,1.0345584005117416,False,122,-1,0,5
Y2-S2-155K19,5,566,PS,exp,38,→,right,→,0.601239699870348,True,123,-1,0,5
Y2-S2-155K19,5,567,PS,exp,38,↓,right,→,0.8009284008294344,False,123,-1,0,5
Y2-S2-155K19,5,568,PS,exp,43,←,up,↑,1.0843874998390675,False,124,-1,0,5
Y2-S2-155K19,5,569,PS,exp,30,↓,right,→,0.6832857001572847,False,125,-1,0,5
Y2-S2-155K19,5,570,PS,exp,30,←,left,←,2.051138000562787,True,126,-1,0,5
Y2-S2-155K19,5,571,PS,exp,43,↓,left,←,1.8677853997796774,False,126,-1,0,5
Y2-S2-155K19,5,572,PS,exp,49,→,no_key,no_letter,-1.0,False,127,-1,0,5
Y2-S2-155K19,5,573,PS,exp,33,↓,left,←,1.7511968007311225,False,128,-1,0,5
Y2-S2-155K19,5,574,PS,exp,38,↑,right,→,2.9005027003586292,False,129,-1,0,5
Y2-S2-155K19,5,575,PS,exp,29,↓,no_key,no_letter,-1.0,False,130,-1,0,5
Y2-S2-155K19,5,576,PS,exp,25,↑,left,←,3.8156161000952125,False,131,-1,0,5
Y2-S2-155K19,5,577,PS,exp,47,↓,left,←,2.9193462999537587,False,132,-1,0,5
Y2-S2-155K19,5,578,PS,exp,30,←,right,→,2.461277600377798,False,133,-1,0,5
Y2-S2-155K19,5,579,PS,exp,32,↓,left,←,2.7548708003014326,False,134,-1,0,5
Y2-S2-155K19,5,580,PS,exp,50,↑,left,←,2.051045600324869,False,135,-1,0,5
Y2-S2-155K19,5,581,PS,exp,41,←,no_key,no_letter,-1.0,False,136,-1,0,5
Y2-S2-155K19,5,582,PS,exp,34,→,right,→,0.9349138997495174,True,137,-1,0,5
Y2-S2-155K19,5,583,PS,exp,45,↓,left,←,0.6845624996349216,False,137,-1,0,5
Y2-S2-155K19,5,584,PS,exp,38,←,right,→,0.7357320999726653,False,138,-1,0,5
Y2-S2-155K19,5,585,PS,exp,48,↑,left,←,2.5319392001256347,False,139,-1,0,5
Y2-S2-155K19,5,586,PS,exp,33,←,left,←,2.9296407997608185,True,140,-1,0,5
Y2-S2-155K19,5,587,PS,exp,42,↑,up,↑,2.401033000089228,True,140,-1,0,5
Y2-S2-155K19,5,588,PS,exp,28,→,no_key,no_letter,-1.0,False,140,-1,0,5
Y2-S2-155K19,5,589,PS,exp,50,←,left,←,3.145269799977541,True,141,-1,0,5
Y2-S2-155K19,5,590,PS,exp,26,↓,left,←,0.7179057998582721,False,141,-1,0,5
Y2-S2-155K19,5,591,PS,exp,32,←,left,←,0.01756770070642233,True,142,-1,0,5
Y2-S2-155K19,5,592,PS,exp,32,↓,no_key,no_letter,-1.0,False,142,-1,0,5
Y2-S2-155K19,5,593,PS,exp,37,←,left,←,3.1149356001988053,True,143,-1,0,5
Y2-S2-155K19,5,594,PS,exp,34,↓,left,←,0.8678649999201298,False,143,-1,0,5
Y2-S2-155K19,5,595,PS,exp,37,↑,left,←,0.9343582997098565,False,144,-1,0,5
Y2-S2-155K19,5,596,PS,exp,46,↓,up,↑,1.6848451001569629,False,145,-1,0,5
Y2-S2-155K19,5,597,PS,exp,25,↑,up,↑,1.8179076993837953,True,146,-1,0,5
Y2-S2-155K19,5,598,PS,exp,41,←,left,←,1.9508971003815532,True,146,-1,0,5
Y2-S2-155K19,5,599,PS,exp,42,↓,left,←,1.3355953004211187,False,146,-1,0,5
Y2-S2-155K19,5,600,PS,exp,43,←,no_key,no_letter,-1.0,False,147,-1,0,5
Y2-S2-155K19,5,601,PS,exp,45,↓,down,↓,2.2345132008194923,True,148,-1,0,5
Y2-S2-155K19,5,602,PS,exp,45,←,left,←,0.9844521004706621,True,148,-1,0,5
Y2-S2-155K19,5,603,PS,exp,49,↑,down,↓,1.1510085994377732,False,148,-1,0,5
Y2-S2-155K19,5,604,PS,exp,30,→,right,→,1.4513405002653599,True,149,-1,0,5
Y2-S2-155K19,5,605,PS,exp,45,↑,up,↑,1.6839378997683525,True,149,-1,0,5
Y2-S2-155K19,5,606,PS,exp,30,←,down,↓,1.6844723001122475,False,149,-1,0,5
Y2-S2-155K19,5,607,PS,exp,44,→,right,→,1.4843638995662332,True,150,-1,0,5
Y2-S2-155K19,5,608,PS,exp,50,↑,left,←,2.0848388001322746,False,150,-1,0,5
Y2-S2-155K19,5,609,PS,exp,42,↓,left,←,2.0519491005688906,False,151,-1,0,5
Y2-S2-155K19,5,610,PS,exp,39,←,right,→,1.7679743999615312,False,152,-1,0,5
Y2-S2-155K19,5,611,PS,exp,49,↓,down,↓,1.3677403004840016,True,153,-1,0,5
Y2-S2-155K19,5,612,PS,exp,38,←,left,←,1.4680254999548197,True,153,-1,0,5
Y2-S2-155K19,5,613,PS,exp,48,→,right,→,1.9013059996068478,True,153,1,1,6
Y2-S2-155K19,5,614,PS,exp,25,↓,down,↓,1.734441900625825,True,152,1,0,6
Y2-S2-155K19,5,615,PS,exp,28,↑,up,↑,1.484460299834609,True,152,1,0,6
Y2-S2-155K19,5,616,PS,exp,34,↓,down,↓,1.5846916995942593,True,152,1,0,6
Y2-S2-155K19,5,617,PS,exp,37,→,left,←,2.117729799821973,False,151,-1,1,7
Y2-S2-155K19,5,618,PS,exp,47,↑,down,↓,1.517455500550568,False,152,-1,0,7
Y2-S2-155K19,5,619,PS,exp,29,→,right,→,1.3345583006739616,True,153,-1,0,7
Y2-S2-155K19,5,620,PS,exp,36,↑,right,→,1.83439140021801,False,153,-1,0,7
Y2-S2-155K19,5,621,PS,exp,50,↓,down,↓,1.5511467000469565,True,154,-1,0,7
Y2-S2-155K19,5,622,PS,exp,38,↑,down,↓,1.4185362998396158,False,154,-1,0,7
Y2-S2-155K19,5,623,PS,exp,40,→,right,→,1.5844471994787455,True,155,-1,0,7
Y2-S2-155K19,5,624,PS,exp,42,↓,down,↓,1.784448399208486,True,155,-1,0,7
Y2-S2-155K19,5,625,PS,exp,50,↑,up,↑,0.8010676000267267,True,155,1,1,8
Y2-S2-155K19,5,626,PS,exp,37,←,left,←,0.9009539000689983,True,154,1,0,8
Y2-S2-155K19,5,627,PS,exp,41,→,right,→,0.6844494994729757,True,154,1,0,8
Y2-S2-155K19,5,628,PS,exp,41,↑,down,↓,0.817578200250864,False,154,-1,1,9
Y2-S2-155K19,5,629,PS,exp,39,↓,down,↓,0.9510089000687003,True,155,-1,0,9
Y2-S2-155K19,5,630,PS,exp,32,→,up,↑,0.7677200995385647,False,155,-1,0,9
Y2-S2-155K19,5,631,PS,exp,45,↓,down,↓,0.6847323002293706,True,156,-1,0,9
Y2-S2-155K19,5,632,PS,exp,31,←,down,↓,1.1342899994924664,False,156,-1,0,9
Y2-S2-155K19,5,633,PS,exp,33,↓,left,←,1.0845718998461962,False,157,-1,0,9
Y2-S2-155K19,5,634,PS,exp,33,↑,left,←,0.7344539994373918,False,158,-1,0,9
Y2-S2-155K19,5,635,PS,exp,29,↓,left,←,2.6337851006537676,False,159,-1,0,9
Y2-S2-155K19,5,636,PS,exp,30,←,no_key,no_letter,-1.0,False,160,-1,0,9
Y2-S2-155K19,5,637,PS,exp,45,↑,no_key,no_letter,-1.0,False,161,-1,0,9
Y2-S2-155K19,5,638,PS,exp,31,←,left,←,1.2344663999974728,True,162,-1,0,9
Y2-S2-155K19,5,639,PS,exp,27,↓,down,↓,2.4677191004157066,True,162,-1,0,9
Y2-S2-155K19,5,640,PS,exp,48,↑,up,↑,1.801329500041902,True,162,1,1,10
Y2-S2-155K19,5,641,PS,exp,28,↓,down,↓,0.8843115996569395,True,161,1,0,10
Y2-S2-155K19,5,642,PS,exp,34,←,left,←,0.9180353004485369,True,161,1,0,10
Y2-S2-155K19,5,643,PS,exp,43,↓,up,↑,0.8846862995997071,False,161,-1,1,11
Y2-S2-155K19,5,644,PS,exp,35,↑,down,↓,0.8342613000422716,False,162,-1,0,11
Y2-S2-155K19,5,645,PS,exp,34,↓,left,←,4.225244000554085,False,163,-1,0,11
Y2-S2-155K19,5,646,PS,exp,34,←,no_key,no_letter,-1.0,False,164,-1,0,11
Y2-S2-155K19,5,647,PS,exp,49,↑,left,←,0.300874799489975,False,165,-1,0,11
Y2-S2-155K19,5,648,PS,exp,31,↓,down,↓,1.9345308998599648,True,166,-1,0,11
Y2-S2-155K19,5,649,PS,exp,30,←,left,←,1.3347370000556111,True,166,-1,0,11
Y2-S2-155K19,5,650,PS,exp,30,↓,down,↓,1.25091200042516,True,166,1,1,12
Y2-S2-155K19,5,651,PS,exp,31,←,up,↑,4.153694500215352,False,165,-1,1,13
Y2-S2-155K19,5,652,PS,exp,31,→,up,↑,3.2660657996311784,False,166,-1,0,13
Y2-S2-155K19,5,653,PS,exp,42,↓,left,←,1.5511354003101587,False,167,-1,0,13
Y2-S2-155K19,5,654,PS,exp,32,→,left,←,2.6854689000174403,False,168,-1,0,13
Y2-S2-155K19,5,655,PS,exp,43,↑,down,↓,4.242514000274241,False,169,-1,0,13
Y2-S2-155K19,5,656,PS,exp,48,←,left,←,1.0679860999807715,True,170,-1,0,13
Y2-S2-155K19,5,657,PS,exp,32,↑,left,←,0.46784349996596575,False,170,-1,0,13
Y2-S2-155K19,5,658,PS,exp,46,←,left,←,1.818035800009966,True,171,-1,0,13
Y2-S2-155K19,5,659,PS,exp,32,↓,no_key,no_letter,-1.0,False,171,-1,0,13
Y2-S2-155K19,5,660,PS,exp,38,→,no_key,no_letter,-1.0,False,172,-1,0,13
Y2-S2-155K19,5,661,PS,exp,39,↑,left,←,2.5177479004487395,False,173,-1,0,13
Y2-S2-155K19,5,662,PS,exp,33,←,left,←,0.7844866998493671,True,174,-1,0,13
Y2-S2-155K19,5,663,PS,exp,37,→,right,→,1.5174639001488686,True,174,-1,0,13
Y2-S2-155K19,5,664,PS,exp,36,↑,left,←,0.6348106004297733,False,174,-1,0,13
Y2-S2-155K19,5,665,PS,exp,47,→,right,→,1.0678228000178933,True,175,-1,0,13
Y2-S2-155K19,5,666,PS,exp,27,↓,left,←,0.8341378001496196,False,175,-1,0,13
Y2-S2-155K19,5,667,PS,exp,50,↑,right,→,2.251456200145185,False,176,-1,0,13
Y2-S2-155K19,5,668,PS,exp,45,↓,down,↓,1.534578999504447,True,177,-1,0,13
Y2-S2-155K19,5,669,PS,exp,29,←,left,←,1.5845816992223263,True,177,-1,0,13
Y2-S2-155K19,5,670,PS,exp,49,↓,down,↓,1.501073700375855,True,177,1,1,14
Y2-S2-155K19,5,671,PS,exp,39,←,left,←,1.7677233992144465,True,176,1,0,14
Y2-S2-155K19,5,672,PS,exp,43,↑,up,↑,1.5846066996455193,True,176,1,0,14
Y2-S2-155K19,5,673,PS,exp,26,→,right,→,1.3511517001315951,True,176,1,0,14
Y2-S2-155K19,5,674,PS,exp,50,↓,left,←,1.9012399008497596,False,175,-1,1,15
Y2-S2-155K19,5,675,PS,exp,30,→,up,↑,1.8677163999527693,False,176,-1,0,15
Y2-S2-155K19,5,676,PS,exp,37,←,left,←,1.5347468005493283,True,177,-1,0,15
Y2-S2-155K19,5,677,PS,exp,36,→,right,→,3.3640123000368476,True,177,-1,0,15
Y2-S2-155K19,5,678,PS,exp,39,↑,up,↑,2.201162099838257,True,177,1,1,16
Y2-S2-155K19,6,679,AS,intra_train,33,↓,right,→,1.6487667998299003,False,28,-,-,-
Y2-S2-155K19,6,680,AS,intra_train,32,←,left,←,1.7085357997566462,True,28,-,-,-
Y2-S2-155K19,6,681,AS,intra_train,49,↓,left,←,1.5942341992631555,False,28,-,-,-
Y2-S2-155K19,6,682,AS,intra_train,48,→,no_key,no_letter,-1.0,False,28,-,-,-
Y2-S2-155K19,6,683,AS,intra_train,28,←,no_key,no_letter,-1.0,False,28,-,-,-
Y2-S2-155K19,6,684,AS,exp,27,↑,up,↑,1.4817356998100877,True,19,0,0,0
Y2-S2-155K19,6,685,AS,exp,35,↓,up,↑,1.3557123998180032,False,19,-1,0,0
Y2-S2-155K19,6,686,AS,exp,25,↑,down,↓,1.4738955004140735,False,20,-1,0,0
Y2-S2-155K19,6,687,AS,exp,28,↓,down,↓,1.2797913001850247,True,21,-1,0,0
Y2-S2-155K19,6,688,AS,exp,30,→,right,→,1.6657034000381827,True,21,-1,0,0
Y2-S2-155K19,6,689,AS,exp,48,←,no_key,no_letter,-1.0,False,21,-1,0,0
Y2-S2-155K19,6,690,AS,exp,45,↓,right,→,1.2646131003275514,False,22,-1,0,0
Y2-S2-155K19,6,691,AS,exp,30,→,right,→,1.1802877001464367,True,23,-1,0,0
Y2-S2-155K19,6,692,AS,exp,29,↓,down,↓,1.7004634998738766,True,23,-1,0,0
Y2-S2-155K19,6,693,AS,exp,30,←,down,↓,1.8816526997834444,False,23,-1,0,0
Y2-S2-155K19,6,694,AS,exp,42,→,right,→,1.1149573996663094,True,24,-1,0,0
Y2-S2-155K19,6,695,AS,exp,29,←,left,←,1.1046500001102686,True,24,-1,0,0
Y2-S2-155K19,6,696,AS,exp,49,↑,down,↓,0.8574924003332853,False,24,-1,0,0
Y2-S2-155K19,6,697,AS,exp,49,←,left,←,1.1600964004173875,True,25,-1,0,0
Y2-S2-155K19,6,698,AS,exp,46,↓,down,↓,1.0849687000736594,True,25,-1,0,0
Y2-S2-155K19,6,699,AS,exp,47,→,down,↓,1.3628642996773124,False,25,-1,0,0
Y2-S2-155K19,6,700,AS,exp,40,↓,down,↓,1.3818386001512408,True,26,-1,0,0
Y2-S2-155K19,6,701,AS,exp,28,←,right,→,1.5121597005054355,False,26,-1,0,0
Y2-S2-155K19,6,702,AS,exp,42,↓,down,↓,1.425309999845922,True,27,-1,0,0
Y2-S2-155K19,6,703,AS,exp,31,←,left,←,1.2513445997610688,True,27,-1,0,0
Y2-S2-155K19,6,704,AS,exp,30,↓,down,↓,1.4730769991874695,True,27,1,1,1
Y2-S2-155K19,6,705,AS,exp,46,↑,up,↑,1.2223068000748754,True,26,1,0,1
Y2-S2-155K19,6,706,AS,exp,46,→,left,←,1.769510700367391,False,26,-1,1,2
Y2-S2-155K19,6,707,AS,exp,27,↑,up,↑,1.3729873998090625,True,27,-1,0,2
Y2-S2-155K19,6,708,AS,exp,42,↓,no_key,no_letter,-1.0,False,27,-1,0,2
Y2-S2-155K19,6,709,AS,exp,32,↑,up,↑,1.7440102007240057,True,28,-1,0,2
Y2-S2-155K19,6,710,AS,exp,48,←,left,←,1.0536957997828722,True,28,-1,0,2
Y2-S2-155K19,6,711,AS,exp,33,↓,right,→,1.202640200033784,False,28,-1,0,2
Y2-S2-155K19,6,712,AS,exp,32,←,left,←,1.0129418997094035,True,29,-1,0,2
Y2-S2-155K19,6,713,AS,exp,29,↑,up,↑,0.9959047995507717,True,29,-1,0,2
Y2-S2-155K19,6,714,AS,exp,26,↓,down,↓,1.0258488999679685,True,29,1,1,3
Y2-S2-155K19,6,715,AS,exp,36,→,right,→,0.8196617998182774,True,28,1,0,3
Y2-S2-155K19,6,716,AS,exp,33,←,left,←,0.6960757998749614,True,28,1,0,3
Y2-S2-155K19,6,717,AS,exp,27,↓,right,→,1.030974400229752,False,28,-1,1,4
Y2-S2-155K19,6,718,AS,exp,26,→,right,→,0.9365122001618147,True,29,-1,0,4
Y2-S2-155K19,6,719,AS,exp,49,↑,up,↑,1.684760699979961,True,29,-1,0,4
Y2-S2-155K19,6,720,AS,exp,35,→,left,←,1.160745699889958,False,29,-1,0,4
Y2-S2-155K19,6,721,AS,exp,34,↑,up,↑,1.0675347996875644,True,30,-1,0,4
Y2-S2-155K19,6,722,AS,exp,47,←,left,←,0.9679498998448253,True,30,-1,0,4
Y2-S2-155K19,6,723,AS,exp,36,→,right,→,1.0553195998072624,True,30,1,1,5
Y2-S2-155K19,6,724,AS,exp,48,←,left,←,0.884625899605453,True,29,1,0,5
Y2-S2-155K19,6,725,AS,exp,46,↓,down,↓,1.346794900484383,True,29,1,0,5
Y2-S2-155K19,6,726,AS,exp,48,↑,down,↓,1.3374137999489903,False,29,-1,1,6
Y2-S2-155K19,6,727,AS,exp,47,→,right,→,0.9396359995007515,True,30,-1,0,6
Y2-S2-155K19,6,728,AS,exp,30,←,left,←,1.0638095000758767,True,30,-1,0,6
Y2-S2-155K19,6,729,AS,exp,50,↓,right,→,1.1326158996671438,False,30,-1,0,6
Y2-S2-155K19,6,730,AS,exp,45,←,left,←,1.0820800000801682,True,31,-1,0,6
Y2-S2-155K19,6,731,AS,exp,45,↓,down,↓,0.9623930994421244,True,31,-1,0,6
Y2-S2-155K19,6,732,AS,exp,47,←,down,↓,1.2146813003346324,False,31,-1,0,6
Y2-S2-155K19,6,733,AS,exp,31,→,right,→,1.1840613996610045,True,32,-1,0,6
Y2-S2-155K19,6,734,AS,exp,43,↓,down,↓,0.8554544998332858,True,32,-1,0,6
Y2-S2-155K19,6,735,AS,exp,29,↑,down,↓,1.5778646003454924,False,32,-1,0,6
Y2-S2-155K19,6,736,AS,exp,26,←,left,←,1.2268145997077227,True,33,-1,0,6
Y2-S2-155K19,6,737,AS,exp,38,↑,down,↓,1.5054282005876303,False,33,-1,0,6
Y2-S2-155K19,6,738,AS,exp,38,→,left,←,1.5752582997083664,False,34,-1,0,6
Y2-S2-155K19,6,739,AS,exp,34,↓,left,←,1.1782670002430677,False,35,-1,0,6
Y2-S2-155K19,6,740,AS,exp,32,↑,left,←,0.5176721001043916,False,36,-1,0,6
Y2-S2-155K19,6,741,AS,exp,33,↓,left,←,1.6706248000264168,False,37,-1,0,6
Y2-S2-155K19,6,742,AS,exp,27,→,left,←,2.177426000125706,False,38,-1,0,6
Y2-S2-155K19,6,743,AS,exp,34,↑,left,←,2.0826832000166178,False,39,-1,0,6
Y2-S2-155K19,6,744,AS,exp,50,←,left,←,1.3763246992602944,True,40,-1,0,6
Y2-S2-155K19,6,745,AS,exp,37,→,right,→,1.1484682001173496,True,40,-1,0,6
Y2-S2-155K19,6,746,AS,exp,30,↑,up,↑,1.5627235006541014,True,40,1,1,7
Y2-S2-155K19,6,747,AS,exp,27,→,right,→,0.7505981000140309,True,39,1,0,7
Y2-S2-155K19,6,748,AS,exp,44,↓,right,→,0.8306479007005692,False,39,-1,1,8
Y2-S2-155K19,6,749,AS,exp,44,→,right,→,2.3248750995844603,True,40,-1,0,8
Y2-S2-155K19,6,750,AS,exp,34,←,down,↓,1.3702068999409676,False,40,-1,0,8
Y2-S2-155K19,6,751,AS,exp,44,→,right,→,0.8006174005568027,True,41,-1,0,8
Y2-S2-155K19,6,752,AS,exp,31,↑,up,↑,1.5816636998206377,True,41,-1,0,8
Y2-S2-155K19,6,753,AS,exp,28,→,left,←,1.9638664005324244,False,41,-1,0,8
Y2-S2-155K19,6,754,AS,exp,47,↑,right,→,1.315718600526452,False,42,-1,0,8
Y2-S2-155K19,6,755,AS,exp,25,↓,up,↑,1.0947842001914978,False,43,-1,0,8
Y2-S2-155K19,6,756,AS,exp,35,→,down,↓,0.9907796997576952,False,44,-1,0,8
Y2-S2-155K19,6,757,AS,exp,46,←,left,←,1.0949378004297614,True,45,-1,0,8
Y2-S2-155K19,6,758,AS,exp,47,↓,right,→,1.349528199993074,False,45,-1,0,8
Y2-S2-155K19,6,759,AS,exp,48,→,left,←,1.6031268006190658,False,46,-1,0,8
Y2-S2-155K19,6,760,AS,exp,39,←,no_key,no_letter,-1.0,False,47,-1,0,8
Y2-S2-155K19,6,761,AS,exp,36,→,right,→,1.3816638002172112,True,48,-1,0,8
Y2-S2-155K19,6,762,AS,exp,25,↑,no_key,no_letter,-1.0,False,48,-1,0,8
Y2-S2-155K19,6,763,AS,exp,37,↓,left,←,0.988998900167644,False,49,-1,0,8
Y2-S2-155K19,6,764,AS,exp,35,→,no_key,no_letter,-1.0,False,50,-1,0,8
Y2-S2-155K19,6,765,AS,exp,41,←,down,↓,1.6452128002420068,False,51,-1,0,8
Y2-S2-155K19,6,766,AS,exp,38,↓,no_key,no_letter,-1.0,False,52,-1,0,8
Y2-S2-155K19,6,767,AS,exp,30,↑,down,↓,1.9494853001087904,False,53,-1,0,8
Y2-S2-155K19,6,768,AS,exp,28,→,right,→,0.7176874997094274,True,54,-1,0,8
Y2-S2-155K19,6,769,AS,exp,36,↓,down,↓,1.1194134000688791,True,54,-1,0,8
Y2-S2-155K19,6,770,AS,exp,36,←,left,←,0.9506320003420115,True,54,1,1,9
Y2-S2-155K19,6,771,AS,exp,31,↑,right,→,1.3231935994699597,False,53,-1,1,10
Y2-S2-155K19,6,772,AS,exp,40,←,left,←,1.033847900107503,True,54,-1,0,10
Y2-S2-155K19,6,773,AS,exp,45,↓,no_key,no_letter,-1.0,False,54,-1,0,10
Y2-S2-155K19,6,774,AS,exp,40,→,left,←,2.4201246993616223,False,55,-1,0,10
Y2-S2-155K19,6,775,AS,exp,34,←,left,←,1.2589952992275357,True,56,-1,0,10
Y2-S2-155K19,6,776,AS,exp,33,↓,right,→,1.5926692998036742,False,56,-1,0,10
Y2-S2-155K19,6,777,AS,exp,32,←,down,↓,1.9648096999153495,False,57,-1,0,10
Y2-S2-155K19,6,778,AS,exp,25,→,left,←,2.0176463006064296,False,58,-1,0,10
Y2-S2-155K19,6,779,AS,exp,46,←,left,←,0.7345724003389478,True,59,-1,0,10
Y2-S2-155K19,6,780,AS,exp,45,↓,right,→,1.1817648001015186,False,59,-1,0,10
Y2-S2-155K19,6,781,AS,exp,25,↑,no_key,no_letter,-1.0,False,60,-1,0,10
Y2-S2-155K19,6,782,AS,exp,39,→,left,←,1.7571445005014539,False,61,-1,0,10
Y2-S2-155K19,6,783,AS,exp,41,↓,left,←,2.5790415005758405,False,62,-1,0,10
Y2-S2-155K19,6,784,AS,exp,35,←,left,←,2.5322024999186397,True,63,-1,0,10
Y2-S2-155K19,6,785,AS,exp,34,↓,no_key,no_letter,-1.0,False,63,-1,0,10
Y2-S2-155K19,6,786,AS,exp,45,→,no_key,no_letter,-1.0,False,64,-1,0,10
Y2-S2-155K19,6,787,AS,exp,33,←,no_key,no_letter,-1.0,False,65,-1,0,10
Y2-S2-155K19,6,788,AS,exp,28,→,left,←,1.2172971004620194,False,66,-1,0,10
Y2-S2-155K19,6,789,AS,exp,31,↓,no_key,no_letter,-1.0,False,67,-1,0,10
Y2-S2-155K19,6,790,AS,exp,45,→,left,←,0.8344019996002316,False,68,-1,0,10
Y2-S2-155K19,6,791,AS,exp,35,↑,no_key,no_letter,-1.0,False,69,-1,0,10
Y2-S2-155K19,6,792,AS,exp,39,↓,no_key,no_letter,-1.0,False,70,-1,0,10
Y2-S2-155K19,6,793,AS,exp,37,↑,no_key,no_letter,-1.0,False,71,-1,0,10
Y2-S2-155K19,6,794,AS,exp,38,↓,down,↓,0.48428270034492016,True,72,-1,0,10
Y2-S2-155K19,6,795,AS,exp,37,←,no_key,no_letter,-1.0,False,72,-1,0,10
Y2-S2-155K19,6,796,AS,exp,34,↑,left,←,2.0196692999452353,False,73,-1,0,10
Y2-S2-155K19,6,797,AS,exp,44,↓,right,→,2.3085695998743176,False,74,-1,0,10
Y2-S2-155K19,6,798,AS,exp,26,↑,no_key,no_letter,-1.0,False,75,-1,0,10
Y2-S2-155K19,6,799,AS,exp,40,↓,left,←,1.7697213999927044,False,76,-1,0,10
Y2-S2-155K19,6,800,AS,exp,28,↑,down,↓,1.7351315999403596,False,77,-1,0,10
Y2-S2-155K19,6,801,AS,exp,39,←,left,←,1.051002399995923,True,78,-1,0,10
Y2-S2-155K19,6,802,AS,exp,27,→,right,→,1.2511708000674844,True,78,-1,0,10
Y2-S2-155K19,6,803,AS,exp,25,←,right,→,2.3357413997873664,False,78,-1,0,10
Y2-S2-155K19,6,804,AS,exp,49,→,left,←,2.3427918003872037,False,79,-1,0,10
Y2-S2-155K19,6,805,AS,exp,33,←,no_key,no_letter,-1.0,False,80,-1,0,10
Y2-S2-155K19,6,806,AS,exp,29,↓,no_key,no_letter,-1.0,False,81,-1,0,10
Y2-S2-155K19,6,807,AS,exp,27,←,no_key,no_letter,-1.0,False,82,-1,0,10
Y2-S2-155K19,6,808,AS,exp,43,↑,down,↓,2.982189499773085,False,83,-1,0,10
Y2-S2-155K19,6,809,AS,exp,28,↓,down,↓,2.7712030997499824,True,84,-1,0,10
Y2-S2-155K19,6,810,AS,exp,30,↑,no_key,no_letter,-1.0,False,84,-1,0,10
Y2-S2-155K19,6,811,AS,exp,39,→,right,→,2.44067670032382,True,85,-1,0,10
Y2-S2-155K19,6,812,AS,exp,26,←,right,→,1.5865193996578455,False,85,-1,0,10
Y2-S2-155K19,6,813,AS,exp,33,↑,no_key,no_letter,-1.0,False,86,-1,0,10
Y2-S2-155K19,6,814,AS,exp,50,↓,down,↓,1.7185412999242544,True,87,-1,0,10
Y2-S2-155K19,6,815,AS,exp,40,↑,left,←,1.6194670991972089,False,87,-1,0,10
Y2-S2-155K19,6,816,AS,exp,30,←,down,↓,1.1009526001289487,False,88,-1,0,10
Y2-S2-155K19,6,817,AS,exp,49,→,no_key,no_letter,-1.0,False,89,-1,0,10
Y2-S2-155K19,6,818,AS,exp,38,↓,no_key,no_letter,-1.0,False,90,-1,0,10
Y2-S2-155K19,6,819,AS,exp,44,↑,right,→,2.366203900426626,False,91,-1,0,10
Y2-S2-155K19,6,820,AS,exp,40,←,down,↓,1.1843771999701858,False,92,-1,0,10
Y2-S2-155K19,6,821,AS,exp,45,↑,no_key,no_letter,-1.0,False,93,-1,0,10
Y2-S2-155K19,6,822,AS,exp,50,→,right,→,1.0676498003304005,True,94,-1,0,10
Y2-S2-155K19,6,823,AS,exp,48,↓,left,←,1.6339641995728016,False,94,-1,0,10
Y2-S2-155K19,6,824,AS,exp,44,↑,up,↑,1.534455499611795,True,95,-1,0,10
Y2-S2-155K19,6,825,AS,exp,31,←,left,←,2.5997502002865076,True,95,-1,0,10
Y2-S2-155K19,6,826,AS,exp,33,→,down,↓,2.194553299807012,False,95,-1,0,10
Y2-S2-155K19,6,827,AS,exp,44,↓,no_key,no_letter,-1.0,False,96,-1,0,10
Y2-S2-155K19,6,828,AS,exp,27,→,no_key,no_letter,-1.0,False,97,-1,0,10
Y2-S2-155K19,6,829,AS,exp,46,↑,no_key,no_letter,-1.0,False,98,-1,0,10
Y2-S2-155K19,6,830,AS,exp,37,↓,left,←,0.3842253992334008,False,99,-1,0,10
Y2-S2-155K19,6,831,AS,exp,29,→,no_key,no_letter,-1.0,False,100,-1,0,10
Y2-S2-155K19,6,832,AS,exp,41,↑,right,→,0.05112310033291578,False,101,-1,0,10
Y2-S2-155K19,6,833,AS,exp,37,←,down,↓,3.292891800403595,False,102,-1,0,10
Y2-S2-155K19,6,834,AS,exp,49,↓,no_key,no_letter,-1.0,False,103,-1,0,10
Y2-S2-155K19,6,835,AS,exp,39,↑,down,↓,3.2143113994970918,False,104,-1,0,10
Y2-S2-155K19,6,836,AS,exp,46,↓,no_key,no_letter,-1.0,False,105,-1,0,10
Y2-S2-155K19,6,837,AS,exp,27,↑,no_key,no_letter,-1.0,False,106,-1,0,10
Y2-S2-155K19,6,838,AS,exp,34,←,down,↓,1.5341397998854518,False,107,-1,0,10
Y2-S2-155K19,6,839,AS,exp,45,↓,left,←,1.3680814998224378,False,108,-1,0,10
Y2-S2-155K19,6,840,AS,exp,28,↑,down,↓,1.6179039999842644,False,109,-1,0,10
Y2-S2-155K19,6,841,AS,exp,28,→,down,↓,2.0151233999058604,False,110,-1,0,10
Y2-S2-155K19,6,842,AS,exp,40,↓,down,↓,2.3615955002605915,True,111,-1,0,10
Y2-S2-155K19,6,843,AS,exp,35,→,no_key,no_letter,-1.0,False,111,-1,0,10
Y2-S2-155K19,6,844,AS,exp,39,↓,down,↓,3.2497135000303388,True,112,-1,0,10
Y2-S2-155K19,6,845,AS,exp,40,→,down,↓,0.8516032993793488,False,112,-1,0,10
Y2-S2-155K19,6,846,AS,exp,41,↓,left,←,1.017493300139904,False,113,-1,0,10
Y2-S2-155K19,6,847,AS,exp,30,→,right,→,0.5177582008764148,True,114,-1,0,10
Y2-S2-155K19,6,848,AS,exp,47,↑,left,←,0.7512645004317164,False,114,-1,0,10
Y2-S2-155K19,6,849,AS,exp,32,→,down,↓,0.435156499966979,False,115,-1,0,10
Y2-S2-155K19,6,850,AS,exp,29,↑,up,↑,1.0844529997557402,True,116,-1,0,10
Y2-S2-155K19,6,851,AS,exp,38,→,no_key,no_letter,-1.0,False,116,-1,0,10
Y2-S2-155K19,6,852,AS,exp,28,↓,no_key,no_letter,-1.0,False,117,-1,0,10
Y2-S2-155K19,6,853,AS,exp,32,→,right,→,1.1008301004767418,True,118,-1,0,10
Y2-S2-155K19,6,854,AS,exp,48,↓,no_key,no_letter,-1.0,False,118,-1,0,10
Y2-S2-155K19,6,855,AS,exp,46,←,left,←,2.2535649994388223,True,119,-1,0,10
Y2-S2-155K19,6,856,AS,exp,41,↑,left,←,0.6511887991800904,False,119,-1,0,10
Y2-S2-155K19,6,857,AS,exp,47,←,down,↓,0.9008929999545217,False,120,-1,0,10
Y2-S2-155K19,6,858,AS,exp,27,↑,no_key,no_letter,-1.0,False,121,-1,0,10
Y2-S2-155K19,6,859,AS,exp,32,←,right,→,0.2175886007025838,False,122,-1,0,10
Y2-S2-155K19,6,860,AS,exp,40,↑,no_key,no_letter,-1.0,False,123,-1,0,10
Y2-S2-155K19,6,861,AS,exp,31,←,right,→,3.388441000133753,False,124,-1,0,10
Y2-S2-155K19,6,862,AS,exp,36,↑,no_key,no_letter,-1.0,False,125,-1,0,10
Y2-S2-155K19,6,863,AS,exp,26,↓,right,→,3.6830524001270533,False,126,-1,0,10
Y2-S2-155K19,6,864,AS,exp,29,↑,no_key,no_letter,-1.0,False,127,-1,0,10
Y2-S2-155K19,6,865,AS,exp,45,→,right,→,0.40108799934387207,True,128,-1,0,10
Y2-S2-155K19,6,866,AS,exp,39,↓,left,←,3.0617650002241135,False,128,-1,0,10
Y2-S2-155K19,6,867,AS,exp,26,←,no_key,no_letter,-1.0,False,129,-1,0,10
Y2-S2-155K19,6,868,AS,exp,29,↑,right,→,3.43399260006845,False,130,-1,0,10
Y2-S2-155K19,6,869,AS,exp,50,→,left,←,3.135550200007856,False,131,-1,0,10
Y2-S2-155K19,6,870,AS,exp,37,↑,right,→,3.520265200175345,False,132,-1,0,10
Y2-S2-155K19,6,871,AS,exp,26,→,left,←,3.3665592996403575,False,133,-1,0,10
Y2-S2-155K19,6,872,AS,exp,28,↑,no_key,no_letter,-1.0,False,134,-1,0,10
Y2-S2-155K19,6,873,AS,exp,48,←,right,→,3.781473300419748,False,135,-1,0,10
Y2-S2-155K19,6,874,AS,exp,29,↑,left,←,3.4136733999475837,False,136,-1,0,10
Y2-S2-155K19,6,875,AS,exp,42,→,no_key,no_letter,-1.0,False,137,-1,0,10
Y2-S2-155K19,6,876,AS,exp,37,←,down,↓,3.3232402997091413,False,138,-1,0,10
Y2-S2-155K19,6,877,AS,exp,44,↓,down,↓,1.8176151001825929,True,139,-1,0,10
Y2-S2-155K19,6,878,AS,exp,25,↑,right,→,1.2677509998902678,False,139,-1,0,10
Y2-S2-155K19,6,879,AS,exp,48,←,no_key,no_letter,-1.0,False,140,-1,0,10
Y2-S2-155K19,6,880,AS,exp,46,↓,left,←,3.1511496994644403,False,141,-1,0,10
Y2-S2-155K19,6,881,AS,exp,34,↑,right,→,3.4559126999229193,False,142,-1,0,10
Y2-S2-155K19,6,882,AS,exp,35,→,down,↓,3.356747600249946,False,143,-1,0,10
Y2-S2-155K19,6,883,AS,exp,33,↑,no_key,no_letter,-1.0,False,144,-1,0,10
Y2-S2-155K19,6,884,AS,exp,36,←,right,→,0.9179932996630669,False,145,-1,0,10
Y2-S2-155K19,6,885,AS,exp,28,→,up,↑,3.4247166998684406,False,146,-1,0,10
Y2-S2-155K19,6,886,AS,exp,35,←,left,←,3.7174413995817304,True,147,-1,0,10
Y2-S2-155K19,6,887,AS,exp,45,→,down,↓,3.4151503993198276,False,147,-1,0,10
Y2-S2-155K19,6,888,AS,exp,41,↑,left,←,3.703701300546527,False,148,-1,0,10
Y2-S2-155K19,6,889,AS,exp,38,↓,no_key,no_letter,-1.0,False,149,-1,0,10
Y2-S2-155K19,6,890,AS,exp,34,←,down,↓,3.7176228994503617,False,150,-1,0,10
Y2-S2-155K19,6,891,AS,exp,34,↑,up,↑,1.5345248999074101,True,151,-1,0,10
Y2-S2-155K19,6,892,AS,exp,48,↓,down,↓,1.0676354002207518,True,151,-1,0,10
Y2-S2-155K19,6,893,AS,exp,41,←,down,↓,0.7511088997125626,False,151,-1,0,10
Y2-S2-155K19,6,894,AS,exp,43,↓,right,→,1.4181252997368574,False,152,-1,0,10
Y2-S2-155K19,6,895,AS,exp,43,←,up,↑,0.8178997002542019,False,153,-1,0,10
Y2-S2-155K19,6,896,AS,exp,31,↑,left,←,1.8347065998241305,False,154,-1,0,10
Y2-S2-155K19,6,897,AS,exp,41,→,right,→,1.0842712000012398,True,155,-1,0,10
Y2-S2-155K19,6,898,AS,exp,49,↓,down,↓,1.1008502999320626,True,155,-1,0,10
Y2-S2-155K19,6,899,AS,exp,46,←,left,←,0.884497799910605,True,155,1,1,11
Y2-S2-155K19,6,900,AS,exp,42,→,right,→,0.7511097006499767,True,154,1,0,11
Y2-S2-155K19,6,901,AS,exp,45,↓,down,↓,0.9178344001993537,True,154,1,0,11
Y2-S2-155K19,6,902,AS,exp,45,↑,up,↑,1.1176950000226498,True,154,1,0,11
Y2-S2-155K19,6,903,AS,exp,37,↓,down,↓,0.9517528992146254,True,153,1,0,11
Y2-S2-155K19,6,904,AS,exp,47,→,right,→,0.8509566998109221,True,153,1,0,11
Y2-S2-155K19,6,905,AS,exp,45,←,left,←,1.0510860998183489,True,153,1,0,11
Y2-S2-155K19,6,906,AS,exp,26,↑,up,↑,1.5174951003864408,True,152,1,0,11
Y2-S2-155K19,6,907,AS,exp,43,→,right,→,0.6513862004503608,True,152,1,0,11
Y2-S2-155K19,6,908,AS,exp,30,↓,no_key,no_letter,-1.0,False,152,-1,1,12
Y2-S2-155K19,6,909,AS,exp,40,←,left,←,0.9345848998054862,True,153,-1,0,12
Y2-S2-155K19,6,910,AS,exp,29,→,right,→,0.751163499429822,True,153,-1,0,12
Y2-S2-155K19,6,911,AS,exp,34,↑,no_key,no_letter,-1.0,False,153,-1,0,12
Y2-S2-155K19,6,912,AS,exp,35,→,right,→,0.6013465002179146,True,154,-1,0,12
Y2-S2-155K19,6,913,AS,exp,35,←,left,←,1.9180843001231551,True,154,-1,0,12
Y2-S2-155K19,6,914,AS,exp,44,→,no_key,no_letter,-1.0,False,154,-1,0,12
Y2-S2-155K19,6,915,AS,exp,38,↓,left,←,4.039836999960244,False,155,-1,0,12
Y2-S2-155K19,6,916,AS,exp,48,→,right,→,1.1505853002890944,True,156,-1,0,12
Y2-S2-155K19,6,917,AS,exp,38,↓,down,↓,1.4011987000703812,True,156,-1,0,12
Y2-S2-155K19,6,918,AS,exp,40,←,left,←,2.4513777997344732,True,156,1,1,13
Y2-S2-155K19,6,919,AS,exp,29,↓,down,↓,1.967743800021708,True,155,1,0,13
Y2-S2-155K19,6,920,AS,exp,39,→,no_key,no_letter,-1.0,False,155,-1,1,14
Y2-S2-155K19,6,921,AS,exp,32,↑,no_key,no_letter,-1.0,False,156,-1,0,14
Y2-S2-155K19,6,922,AS,exp,30,←,left,←,0.8511864999309182,True,157,-1,0,14
Y2-S2-155K19,6,923,AS,exp,28,↑,right,→,0.9012209996581078,False,157,-1,0,14
Y2-S2-155K19,6,924,AS,exp,33,→,right,→,1.0845988001674414,True,158,-1,0,14
Y2-S2-155K19,6,925,AS,exp,40,←,left,←,0.6844774996861815,True,158,-1,0,14
Y2-S2-155K19,6,926,AS,exp,29,↓,no_key,no_letter,-1.0,False,158,-1,0,14
Y2-S2-155K19,6,927,AS,exp,41,↑,left,←,2.0010024001821876,False,159,-1,0,14
Y2-S2-155K19,6,928,AS,exp,38,←,right,→,0.9177744006738067,False,160,-1,0,14
Y2-S2-155K19,6,929,AS,exp,26,↑,no_key,no_letter,-1.0,False,161,-1,0,14
Y2-S2-155K19,6,930,AS,exp,35,←,no_key,no_letter,-1.0,False,162,-1,0,14
Y2-S2-155K19,6,931,AS,exp,46,↑,no_key,no_letter,-1.0,False,163,-1,0,14
Y2-S2-155K19,6,932,AS,exp,50,←,down,↓,0.5185994999483228,False,164,-1,0,14
Y2-S2-155K19,6,933,AS,exp,45,↑,down,↓,0.718070600181818,False,165,-1,0,14
Y2-S2-155K19,6,934,AS,exp,36,←,right,→,0.7678278991952538,False,166,-1,0,14
Y2-S2-155K19,6,935,AS,exp,45,↓,down,↓,1.251104200258851,True,167,-1,0,14
Y2-S2-155K19,6,936,AS,exp,29,→,no_key,no_letter,-1.0,False,167,-1,0,14
Y2-S2-155K19,6,937,AS,exp,38,↑,down,↓,0.9846481001004577,False,168,-1,0,14
Y2-S2-155K19,6,938,AS,exp,29,←,left,←,3.016533499583602,True,169,-1,0,14
Y2-S2-155K19,6,939,AS,exp,35,↓,down,↓,1.4342546993866563,True,169,-1,0,14
Y2-S2-155K19,6,940,AS,exp,43,→,right,→,1.2345240991562605,True,169,1,1,15
Y2-S2-155K19,6,941,AS,exp,29,↓,down,↓,1.3843336999416351,True,168,1,0,15
Y2-S2-155K19,6,942,AS,exp,34,↑,right,→,1.6010498004034162,False,168,-1,1,16
Y2-S2-155K19,7,943,AS,intra_train,43,→,right,→,1.7774796998128295,True,28,-,-,-
Y2-S2-155K19,7,944,AS,intra_train,30,←,left,←,1.312932699918747,True,28,-,-,-
Y2-S2-155K19,7,945,AS,intra_train,31,↑,up,↑,1.2948452001437545,True,28,-,-,-
Y2-S2-155K19,7,946,AS,intra_train,32,→,right,→,0.9128559995442629,True,28,-,-,-
Y2-S2-155K19,7,947,AS,intra_train,43,↓,down,↓,1.0190832996740937,True,28,-,-,-
Y2-S2-155K19,7,948,AS,exp,36,←,left,←,1.0786795997992158,True,19,0,0,0
Y2-S2-155K19,7,949,AS,exp,33,→,right,→,1.6845236998051405,True,19,0,0,0
Y2-S2-155K19,7,950,AS,exp,27,↓,down,↓,1.4808939006179571,True,19,1,0,0
Y2-S2-155K19,7,951,AS,exp,29,←,no_key,no_letter,-1.0,False,18,-1,1,1
Y2-S2-155K19,7,952,AS,exp,41,→,no_key,no_letter,-1.0,False,19,-1,0,1
Y2-S2-155K19,7,953,AS,exp,33,←,no_key,no_letter,-1.0,False,20,-1,0,1
Y2-S2-155K19,7,954,AS,exp,49,↑,down,↓,1.3014577003195882,False,21,-1,0,1
Y2-S2-155K19,7,955,AS,exp,34,←,left,←,1.0695009995251894,True,22,-1,0,1
Y2-S2-155K19,7,956,AS,exp,29,→,down,↓,1.286446399986744,False,22,-1,0,1
Y2-S2-155K19,7,957,AS,exp,42,↓,down,↓,1.475916599854827,True,23,-1,0,1
Y2-S2-155K19,7,958,AS,exp,36,↑,left,←,1.327993799932301,False,23,-1,0,1
Y2-S2-155K19,7,959,AS,exp,25,←,left,←,1.3853634996339679,True,24,-1,0,1
Y2-S2-155K19,7,960,AS,exp,28,↑,up,↑,1.3134686006233096,True,24,-1,0,1
Y2-S2-155K19,7,961,AS,exp,45,↓,right,→,1.3260847991332412,False,24,-1,0,1
Y2-S2-155K19,7,962,AS,exp,26,↑,left,←,1.5694229993969202,False,25,-1,0,1
Y2-S2-155K19,7,963,AS,exp,44,→,left,←,1.4378062998875976,False,26,-1,0,1
Y2-S2-155K19,7,964,AS,exp,41,←,left,←,1.2768866997212172,True,27,-1,0,1
Y2-S2-155K19,7,965,AS,exp,36,↑,up,↑,1.5401457995176315,True,27,-1,0,1
Y2-S2-155K19,7,966,AS,exp,39,←,down,↓,1.3082411997020245,False,27,-1,0,1
Y2-S2-155K19,7,967,AS,exp,26,↓,down,↓,0.6498523000627756,True,28,-1,0,1
Y2-S2-155K19,7,968,AS,exp,47,←,right,→,0.6375032002106309,False,28,-1,0,1
Y2-S2-155K19,7,969,AS,exp,26,↑,left,←,1.3423851998522878,False,29,-1,0,1
Y2-S2-155K19,7,970,AS,exp,42,↓,left,←,0.31758670043200254,False,30,-1,0,1
Y2-S2-155K19,7,971,AS,exp,48,←,right,→,0.5342824999243021,False,31,-1,0,1
Y2-S2-155K19,7,972,AS,exp,28,↓,no_key,no_letter,-1.0,False,32,-1,0,1
Y2-S2-155K19,7,973,AS,exp,30,↑,up,↑,1.5746081992983818,True,33,-1,0,1
Y2-S2-155K19,7,974,AS,exp,25,→,no_key,no_letter,-1.0,False,33,-1,0,1
Y2-S2-155K19,7,975,AS,exp,43,←,left,←,0.5346144996583462,True,34,-1,0,1
Y2-S2-155K19,7,976,AS,exp,38,→,no_key,no_letter,-1.0,False,34,-1,0,1
Y2-S2-155K19,7,977,AS,exp,50,↑,no_key,no_letter,-1.0,False,35,-1,0,1
Y2-S2-155K19,7,978,AS,exp,30,→,right,→,1.00909089948982,True,36,-1,0,1
Y2-S2-155K19,7,979,AS,exp,38,↑,no_key,no_letter,-1.0,False,36,-1,0,1
Y2-S2-155K19,7,980,AS,exp,39,→,no_key,no_letter,-1.0,False,37,-1,0,1
Y2-S2-155K19,7,981,AS,exp,38,↑,left,←,1.6221378995105624,False,38,-1,0,1
Y2-S2-155K19,7,982,AS,exp,26,↓,no_key,no_letter,-1.0,False,39,-1,0,1
Y2-S2-155K19,7,983,AS,exp,46,→,right,→,0.784013100899756,True,40,-1,0,1
Y2-S2-155K19,7,984,AS,exp,42,↓,down,↓,0.9296878995373845,True,40,-1,0,1
Y2-S2-155K19,7,985,AS,exp,46,←,left,←,1.5604428993538022,True,40,1,1,2
Y2-S2-155K19,7,986,AS,exp,39,↑,up,↑,1.2549536004662514,True,39,1,0,2
Y2-S2-155K19,7,987,AS,exp,40,←,left,←,1.4357009995728731,True,39,1,0,2
Y2-S2-155K19,7,988,AS,exp,49,↑,left,←,1.6569164004176855,False,39,-1,1,3
Y2-S2-155K19,7,989,AS,exp,30,←,left,←,1.5978525001555681,True,40,-1,0,3
Y2-S2-155K19,7,990,AS,exp,31,↓,right,→,1.4230485996231437,False,40,-1,0,3
Y2-S2-155K19,7,991,AS,exp,35,→,left,←,1.323365299962461,False,41,-1,0,3
Y2-S2-155K19,7,992,AS,exp,40,←,down,↓,1.828282100148499,False,42,-1,0,3
Y2-S2-155K19,7,993,AS,exp,47,→,right,→,1.233750400133431,True,43,-1,0,3
Y2-S2-155K19,7,994,AS,exp,48,↑,right,→,1.3241078006103635,False,43,-1,0,3
Y2-S2-155K19,7,995,AS,exp,28,←,no_key,no_letter,-1.0,False,44,-1,0,3
Y2-S2-155K19,7,996,AS,exp,41,→,no_key,no_letter,-1.0,False,45,-1,0,3
Y2-S2-155K19,7,997,AS,exp,38,↓,right,→,2.316830899566412,False,46,-1,0,3
Y2-S2-155K19,7,998,AS,exp,49,←,no_key,no_letter,-1.0,False,47,-1,0,3
Y2-S2-155K19,7,999,AS,exp,37,↓,no_key,no_letter,-1.0,False,48,-1,0,3
Y2-S2-155K19,7,1000,AS,exp,30,←,left,←,0.9990699999034405,True,49,-1,0,3
Y2-S2-155K19,7,1001,AS,exp,33,→,no_key,no_letter,-1.0,False,49,-1,0,3
Y2-S2-155K19,7,1002,AS,exp,42,←,left,←,0.9176428001374006,True,50,-1,0,3
Y2-S2-155K19,7,1003,AS,exp,26,↑,left,←,2.156110900454223,False,50,-1,0,3
Y2-S2-155K19,7,1004,AS,exp,35,↓,no_key,no_letter,-1.0,False,51,-1,0,3
Y2-S2-155K19,7,1005,AS,exp,43,↑,left,←,1.8434399999678135,False,52,-1,0,3
Y2-S2-155K19,7,1006,AS,exp,46,→,no_key,no_letter,-1.0,False,53,-1,0,3
Y2-S2-155K19,7,1007,AS,exp,42,↑,left,←,0.5847263997420669,False,54,-1,0,3
Y2-S2-155K19,7,1008,AS,exp,31,↓,no_key,no_letter,-1.0,False,55,-1,0,3
Y2-S2-155K19,7,1009,AS,exp,27,↑,left,←,2.0689413007348776,False,56,-1,0,3
Y2-S2-155K19,7,1010,AS,exp,44,↓,left,←,1.3319432009011507,False,57,-1,0,3
Y2-S2-155K19,7,1011,AS,exp,31,↑,right,→,1.3008515005931258,False,58,-1,0,3
Y2-S2-155K19,7,1012,AS,exp,40,↓,no_key,no_letter,-1.0,False,59,-1,0,3
Y2-S2-155K19,7,1013,AS,exp,26,←,no_key,no_letter,-1.0,False,60,-1,0,3
Y2-S2-155K19,7,1014,AS,exp,42,↓,right,→,0.017987399362027645,False,61,-1,0,3
Y2-S2-155K19,7,1015,AS,exp,48,←,no_key,no_letter,-1.0,False,62,-1,0,3
Y2-S2-155K19,7,1016,AS,exp,48,→,no_key,no_letter,-1.0,False,63,-1,0,3
Y2-S2-155K19,7,1017,AS,exp,49,↑,left,←,0.4676010999828577,False,64,-1,0,3
Y2-S2-155K19,7,1018,AS,exp,45,←,no_key,no_letter,-1.0,False,65,-1,0,3
Y2-S2-155K19,7,1019,AS,exp,32,→,down,↓,1.9470438994467258,False,66,-1,0,3
Y2-S2-155K19,7,1020,AS,exp,48,↑,down,↓,0.667935200035572,False,67,-1,0,3
Y2-S2-155K19,7,1021,AS,exp,31,↓,down,↓,0.4844081997871399,True,68,-1,0,3
Y2-S2-155K19,7,1022,AS,exp,26,↑,no_key,no_letter,-1.0,False,68,-1,0,3
Y2-S2-155K19,7,1023,AS,exp,34,↓,no_key,no_letter,-1.0,False,69,-1,0,3
Y2-S2-155K19,7,1024,AS,exp,34,←,no_key,no_letter,-1.0,False,70,-1,0,3
Y2-S2-155K19,7,1025,AS,exp,29,↑,left,←,0.6500563994050026,False,71,-1,0,3
Y2-S2-155K19,7,1026,AS,exp,34,↓,left,←,2.062445200048387,False,72,-1,0,3
Y2-S2-155K19,7,1027,AS,exp,31,←,up,↑,1.2837282000109553,False,73,-1,0,3
Y2-S2-155K19,7,1028,AS,exp,29,↑,up,↑,1.2173985000699759,True,74,-1,0,3
Y2-S2-155K19,7,1029,AS,exp,40,←,no_key,no_letter,-1.0,False,74,-1,0,3
Y2-S2-155K19,7,1030,AS,exp,45,→,no_key,no_letter,-1.0,False,75,-1,0,3
Y2-S2-155K19,7,1031,AS,exp,33,↑,no_key,no_letter,-1.0,False,76,-1,0,3
Y2-S2-155K19,7,1032,AS,exp,26,↓,left,←,2.725425699725747,False,77,-1,0,3
Y2-S2-155K19,7,1033,AS,exp,34,↑,no_key,no_letter,-1.0,False,78,-1,0,3
Y2-S2-155K19,7,1034,AS,exp,31,←,left,←,2.5278883008286357,True,79,-1,0,3
Y2-S2-155K19,7,1035,AS,exp,47,↓,no_key,no_letter,-1.0,False,79,-1,0,3
Y2-S2-155K19,7,1036,AS,exp,35,←,left,←,0.6175504997372627,True,80,-1,0,3
Y2-S2-155K19,7,1037,AS,exp,49,↑,left,←,2.1820482993498445,False,80,-1,0,3
Y2-S2-155K19,7,1038,AS,exp,43,↓,left,←,1.7305977996438742,False,81,-1,0,3
Y2-S2-155K19,7,1039,AS,exp,28,→,left,←,1.384225799702108,False,82,-1,0,3
Y2-S2-155K19,7,1040,AS,exp,32,←,left,←,0.9841628996655345,True,83,-1,0,3
Y2-S2-155K19,7,1041,AS,exp,27,→,right,→,0.8845646996051073,True,83,-1,0,3
Y2-S2-155K19,7,1042,AS,exp,41,↑,down,↓,1.0516480999067426,False,83,-1,0,3
Y2-S2-155K19,7,1043,AS,exp,38,←,down,↓,0.7684092996641994,False,84,-1,0,3
Y2-S2-155K19,7,1044,AS,exp,46,→,right,→,1.3513339003548026,True,85,-1,0,3
Y2-S2-155K19,7,1045,AS,exp,33,↓,left,←,2.400482900440693,False,85,-1,0,3
Y2-S2-155K19,7,1046,AS,exp,34,←,down,↓,0.9176605995744467,False,86,-1,0,3
Y2-S2-155K19,7,1047,AS,exp,36,→,up,↑,1.8338338006287813,False,87,-1,0,3
Y2-S2-155K19,7,1048,AS,exp,34,←,no_key,no_letter,-1.0,False,88,-1,0,3
Y2-S2-155K19,7,1049,AS,exp,30,↓,left,←,1.9976327000185847,False,89,-1,0,3
Y2-S2-155K19,7,1050,AS,exp,34,↑,right,→,0.7010622005909681,False,90,-1,0,3
Y2-S2-155K19,7,1051,AS,exp,42,→,right,→,1.3347169002518058,True,91,-1,0,3
Y2-S2-155K19,7,1052,AS,exp,49,↑,up,↑,0.7183654000982642,True,91,-1,0,3
Y2-S2-155K19,7,1053,AS,exp,40,↓,up,↑,0.8842682996764779,False,91,-1,0,3
Y2-S2-155K19,7,1054,AS,exp,44,→,right,→,1.8628503996878862,True,92,-1,0,3
Y2-S2-155K19,7,1055,AS,exp,49,↓,up,↑,2.758691900409758,False,92,-1,0,3
Y2-S2-155K19,7,1056,AS,exp,34,↑,up,↑,1.1675929995253682,True,93,-1,0,3
Y2-S2-155K19,7,1057,AS,exp,42,→,right,→,0.9008582001551986,True,93,-1,0,3
Y2-S2-155K19,7,1058,AS,exp,46,←,up,↑,1.683805299922824,False,93,-1,0,3
Y2-S2-155K19,7,1059,AS,exp,25,↑,up,↑,1.0516448002308607,True,94,-1,0,3
Y2-S2-155K19,7,1060,AS,exp,31,←,left,←,1.4844414005056024,True,94,-1,0,3
Y2-S2-155K19,7,1061,AS,exp,42,↓,down,↓,0.9842074001207948,True,94,1,1,4
Y2-S2-155K19,7,1062,AS,exp,30,→,right,→,0.6346033001318574,True,93,1,0,4
Y2-S2-155K19,7,1063,AS,exp,30,↓,down,↓,1.1513017006218433,True,93,1,0,4
Y2-S2-155K19,7,1064,AS,exp,35,→,right,→,1.2010383997112513,True,93,1,0,4
Y2-S2-155K19,7,1065,AS,exp,49,↑,no_key,no_letter,-1.0,False,92,-1,1,5
Y2-S2-155K19,7,1066,AS,exp,40,→,down,↓,2.301936499774456,False,93,-1,0,5
Y2-S2-155K19,7,1067,AS,exp,48,↑,no_key,no_letter,-1.0,False,94,-1,0,5
Y2-S2-155K19,7,1068,AS,exp,40,→,right,→,1.4013229003176093,True,95,-1,0,5
Y2-S2-155K19,7,1069,AS,exp,50,←,down,↓,2.567018000409007,False,95,-1,0,5
Y2-S2-155K19,7,1070,AS,exp,31,↑,right,→,2.9821811998263,False,96,-1,0,5
Y2-S2-155K19,7,1071,AS,exp,49,←,right,→,0.7678998997434974,False,97,-1,0,5
Y2-S2-155K19,7,1072,AS,exp,44,↑,up,↑,0.9008619002997875,True,98,-1,0,5
Y2-S2-155K19,7,1073,AS,exp,47,↓,no_key,no_letter,-1.0,False,98,-1,0,5
Y2-S2-155K19,7,1074,AS,exp,31,→,no_key,no_letter,-1.0,False,99,-1,0,5
Y2-S2-155K19,7,1075,AS,exp,36,←,down,↓,2.459335600025952,False,100,-1,0,5
Y2-S2-155K19,7,1076,AS,exp,45,→,down,↓,1.10104910004884,False,101,-1,0,5
Y2-S2-155K19,7,1077,AS,exp,31,↓,left,←,3.2431985000148416,False,102,-1,0,5
Y2-S2-155K19,7,1078,AS,exp,34,↑,no_key,no_letter,-1.0,False,103,-1,0,5
Y2-S2-155K19,7,1079,AS,exp,26,↓,no_key,no_letter,-1.0,False,104,-1,0,5
Y2-S2-155K19,7,1080,AS,exp,28,←,no_key,no_letter,-1.0,False,105,-1,0,5
Y2-S2-155K19,7,1081,AS,exp,35,→,down,↓,0.8667786996811628,False,106,-1,0,5
Y2-S2-155K19,7,1082,AS,exp,48,←,left,←,1.6846165005117655,True,107,-1,0,5
Y2-S2-155K19,7,1083,AS,exp,32,→,right,→,1.100760200060904,True,107,-1,0,5
Y2-S2-155K19,7,1084,AS,exp,37,↓,left,←,2.006934399716556,False,107,-1,0,5
Y2-S2-155K19,7,1085,AS,exp,44,←,no_key,no_letter,-1.0,False,108,-1,0,5
Y2-S2-155K19,7,1086,AS,exp,26,↑,no_key,no_letter,-1.0,False,109,-1,0,5
Y2-S2-155K19,7,1087,AS,exp,27,→,no_key,no_letter,-1.0,False,110,-1,0,5
Y2-S2-155K19,7,1088,AS,exp,31,←,left,←,2.9008118994534016,True,111,-1,0,5
Y2-S2-155K19,7,1089,AS,exp,40,↑,up,↑,1.9673653999343514,True,111,-1,0,5
Y2-S2-155K19,7,1090,AS,exp,42,→,right,→,1.4342063004150987,True,111,1,1,6
Y2-S2-155K19,7,1091,AS,exp,38,←,down,↓,1.684812200255692,False,110,-1,1,7
Y2-S2-155K19,7,1092,AS,exp,34,↑,up,↑,1.86712889932096,True,111,-1,0,7
Y2-S2-155K19,7,1093,AS,exp,34,↓,down,↓,1.4678247002884746,True,111,-1,0,7
Y2-S2-155K19,7,1094,AS,exp,37,→,right,→,1.7510367995128036,True,111,1,1,8
Y2-S2-155K19,7,1095,AS,exp,35,↓,down,↓,1.4674625992774963,True,110,1,0,8
Y2-S2-155K19,7,1096,AS,exp,47,→,right,→,1.1512791002169251,True,110,1,0,8
Y2-S2-155K19,7,1097,AS,exp,30,↑,right,→,1.934098799712956,False,110,-1,1,9
Y2-S2-155K19,7,1098,AS,exp,30,→,left,←,1.7174493996426463,False,111,-1,0,9
Y2-S2-155K19,7,1099,AS,exp,34,←,left,←,0.6177620999515057,True,112,-1,0,9
Y2-S2-155K19,7,1100,AS,exp,31,↑,left,←,0.4510896001011133,False,112,-1,0,9
Y2-S2-155K19,7,1101,AS,exp,39,←,left,←,1.8513535000383854,True,113,-1,0,9
Y2-S2-155K19,7,1102,AS,exp,40,↑,up,↑,1.3346351999789476,True,113,-1,0,9
Y2-S2-155K19,7,1103,AS,exp,32,→,no_key,no_letter,-1.0,False,113,-1,0,9
Y2-S2-155K19,7,1104,AS,exp,43,↓,right,→,2.450485499575734,False,114,-1,0,9
Y2-S2-155K19,7,1105,AS,exp,30,→,no_key,no_letter,-1.0,False,115,-1,0,9
Y2-S2-155K19,7,1106,AS,exp,39,↑,up,↑,1.2679212000221014,True,116,-1,0,9
Y2-S2-155K19,7,1107,AS,exp,32,←,no_key,no_letter,-1.0,False,116,-1,0,9
Y2-S2-155K19,7,1108,AS,exp,25,→,no_key,no_letter,-1.0,False,117,-1,0,9
Y2-S2-155K19,7,1109,AS,exp,25,↓,no_key,no_letter,-1.0,False,118,-1,0,9
Y2-S2-155K19,7,1110,AS,exp,30,↑,no_key,no_letter,-1.0,False,119,-1,0,9
Y2-S2-155K19,7,1111,AS,exp,50,←,no_key,no_letter,-1.0,False,120,-1,0,9
Y2-S2-155K19,7,1112,AS,exp,40,→,right,→,1.151092099957168,True,121,-1,0,9
Y2-S2-155K19,7,1113,AS,exp,43,↓,no_key,no_letter,-1.0,False,121,-1,0,9
Y2-S2-155K19,7,1114,AS,exp,37,←,right,→,0.10094560030847788,False,122,-1,0,9
Y2-S2-155K19,7,1115,AS,exp,49,↓,down,↓,0.9176620999351144,True,123,-1,0,9
Y2-S2-155K19,7,1116,AS,exp,46,→,no_key,no_letter,-1.0,False,123,-1,0,9
Y2-S2-155K19,7,1117,AS,exp,30,↓,no_key,no_letter,-1.0,False,124,-1,0,9
Y2-S2-155K19,7,1118,AS,exp,39,→,no_key,no_letter,-1.0,False,125,-1,0,9
Y2-S2-155K19,7,1119,AS,exp,46,↓,no_key,no_letter,-1.0,False,126,-1,0,9
Y2-S2-155K19,7,1120,AS,exp,33,↑,down,↓,3.607864400371909,False,127,-1,0,9
Y2-S2-155K19,7,1121,AS,exp,48,→,right,→,1.4013030994683504,True,128,-1,0,9
Y2-S2-155K19,7,1122,AS,exp,45,↓,up,↑,1.0843262998387218,False,128,-1,0,9
Y2-S2-155K19,7,1123,AS,exp,36,←,down,↓,0.7512515000998974,False,129,-1,0,9
Y2-S2-155K19,7,1124,AS,exp,49,→,left,←,0.7177468994632363,False,130,-1,0,9
Y2-S2-155K19,7,1125,AS,exp,33,←,left,←,1.267913299612701,True,131,-1,0,9
Y2-S2-155K19,7,1126,AS,exp,46,→,right,→,0.9676206996664405,True,131,-1,0,9
Y2-S2-155K19,7,1127,AS,exp,48,↓,down,↓,1.151334099471569,True,131,1,1,10
Y2-S2-155K19,7,1128,AS,exp,31,↑,down,↓,1.2519208993762732,False,130,-1,1,11
Y2-S2-155K19,7,1129,AS,exp,48,←,left,←,0.7022243002429605,True,131,-1,0,11
Y2-S2-155K19,7,1130,AS,exp,41,↑,up,↑,0.9677234999835491,True,131,-1,0,11
Y2-S2-155K19,7,1131,AS,exp,50,→,right,→,0.8168575996533036,True,131,1,1,12
Y2-S2-155K19,7,1132,AS,exp,36,←,left,←,0.7009023996070027,True,130,1,0,12
Y2-S2-155K19,7,1133,AS,exp,49,→,right,→,1.2342149000614882,True,130,1,0,12
Y2-S2-155K19,7,1134,AS,exp,35,↓,no_key,no_letter,-1.0,False,130,-1,1,13
Y2-S2-155K19,7,1135,AS,exp,27,→,no_key,no_letter,-1.0,False,131,-1,0,13
Y2-S2-155K19,7,1136,AS,exp,49,↓,down,↓,1.1512467004358768,True,132,-1,0,13
Y2-S2-155K19,7,1137,AS,exp,25,→,up,↑,2.0510162003338337,False,132,-1,0,13
Y2-S2-155K19,7,1138,AS,exp,26,↓,no_key,no_letter,-1.0,False,133,-1,0,13
Y2-S2-155K19,7,1139,AS,exp,44,←,up,↑,0.46782639995217323,False,134,-1,0,13
Y2-S2-155K19,7,1140,AS,exp,39,→,no_key,no_letter,-1.0,False,135,-1,0,13
Y2-S2-155K19,7,1141,AS,exp,36,↑,no_key,no_letter,-1.0,False,136,-1,0,13
Y2-S2-155K19,7,1142,AS,exp,26,→,no_key,no_letter,-1.0,False,137,-1,0,13
Y2-S2-155K19,7,1143,AS,exp,32,↓,no_key,no_letter,-1.0,False,138,-1,0,13
Y2-S2-155K19,7,1144,AS,exp,25,←,no_key,no_letter,-1.0,False,139,-1,0,13
Y2-S2-155K19,7,1145,AS,exp,46,→,no_key,no_letter,-1.0,False,140,-1,0,13
Y2-S2-155K19,7,1146,AS,exp,27,↓,down,↓,2.8889572005718946,True,141,-1,0,13
Y2-S2-155K19,7,1147,AS,exp,26,→,down,↓,0.15101740043610334,False,141,-1,0,13
Y2-S2-155K19,7,1148,AS,exp,29,←,no_key,no_letter,-1.0,False,142,-1,0,13
Y2-S2-155K19,7,1149,AS,exp,48,↓,no_key,no_letter,-1.0,False,143,-1,0,13
Y2-S2-155K19,7,1150,AS,exp,39,↑,no_key,no_letter,-1.0,False,144,-1,0,13
Y2-S2-155K19,7,1151,AS,exp,28,→,down,↓,0.7008798997849226,False,145,-1,0,13
Y2-S2-155K19,7,1152,AS,exp,28,←,down,↓,0.9509915001690388,False,146,-1,0,13
Y2-S2-155K19,7,1153,AS,exp,47,↑,down,↓,2.1343706995248795,False,147,-1,0,13
Y2-S2-155K19,7,1154,AS,exp,43,↓,down,↓,1.8343083998188376,True,148,-1,0,13
Y2-S2-155K19,7,1155,AS,exp,32,←,down,↓,1.2510475004091859,False,148,-1,0,13
Y2-S2-155K19,7,1156,AS,exp,27,↑,up,↑,2.234403700567782,True,149,-1,0,13
Y2-S2-155K19,7,1157,AS,exp,42,↓,down,↓,1.9342461004853249,True,149,-1,0,13
Y2-S2-155K19,7,1158,AS,exp,29,↑,down,↓,1.5170835005119443,False,149,-1,0,13
Y2-S2-155K19,7,1159,AS,exp,35,←,left,←,1.834608200006187,True,150,-1,0,13
Y2-S2-155K19,7,1160,AS,exp,42,↓,down,↓,1.167616200633347,True,150,-1,0,13
Y2-S2-155K19,7,1161,AS,exp,44,→,right,→,1.7514335000887513,True,150,1,1,14
Y2-S2-155K19,7,1162,AS,exp,46,←,down,↓,1.31799509935081,False,149,-1,1,15
Y2-S2-155K19,7,1163,AS,exp,39,↑,no_key,no_letter,-1.0,False,150,-1,0,15
Y2-S2-155K19,7,1164,AS,exp,33,↓,down,↓,3.7279875995591283,True,151,-1,0,15
Y2-S2-155K19,7,1165,AS,exp,30,↑,up,↑,1.8176592998206615,True,151,-1,0,15
Y2-S2-155K19,7,1166,AS,exp,36,→,right,→,1.7179881995543838,True,151,1,1,16
Y2-S2-155K19,8,1167,PS,intra_train,37,←,no_key,no_letter,-1.0,False,15,-,-,-
Y2-S2-155K19,8,1168,PS,intra_train,37,↑,right,→,1.1000157995149493,False,15,-,-,-
Y2-S2-155K19,8,1169,PS,intra_train,48,→,right,→,0.9094126997515559,True,15,-,-,-
Y2-S2-155K19,8,1170,PS,intra_train,48,↓,right,→,0.7267928998917341,False,15,-,-,-
Y2-S2-155K19,8,1171,PS,intra_train,47,↑,right,→,0.8046183995902538,False,15,-,-,-
Y2-S2-155K19,8,1172,PS,exp,44,→,up,↑,1.1901622004806995,False,10,-1,0,0
Y2-S2-155K19,8,1173,PS,exp,43,←,right,→,0.7830563001334667,False,11,-1,0,0
Y2-S2-155K19,8,1174,PS,exp,33,↓,right,→,0.7175668999552727,False,12,-1,0,0
Y2-S2-155K19,8,1175,PS,exp,46,→,up,↑,0.8848234005272388,False,13,-1,0,0
Y2-S2-155K19,8,1176,PS,exp,43,↑,right,→,0.5746911996975541,False,14,-1,0,0
Y2-S2-155K19,8,1177,PS,exp,26,←,left,←,0.7518411995843053,True,15,-1,0,0
Y2-S2-155K19,8,1178,PS,exp,27,→,right,→,0.7283057998865843,True,15,-1,0,0
Y2-S2-155K19,8,1179,PS,exp,43,←,right,→,0.7450222996994853,False,15,-1,0,0
Y2-S2-155K19,8,1180,PS,exp,25,→,right,→,0.8554223999381065,True,16,-1,0,0
Y2-S2-155K19,8,1181,PS,exp,37,↑,right,→,0.5085957003757358,False,16,-1,0,0
Y2-S2-155K19,8,1182,PS,exp,44,←,left,←,0.6912120999768376,True,17,-1,0,0
Y2-S2-155K19,8,1183,PS,exp,50,↑,up,↑,0.7689888998866081,True,17,-1,0,0
Y2-S2-155K19,8,1184,PS,exp,33,↓,right,→,0.7201586998999119,False,17,-1,0,0
Y2-S2-155K19,8,1185,PS,exp,47,↑,right,→,0.6933428002521396,False,18,-1,0,0
Y2-S2-155K19,8,1186,PS,exp,31,→,right,→,0.5868248995393515,True,19,-1,0,0
Y2-S2-155K19,8,1187,PS,exp,40,←,left,←,0.5135605996474624,True,19,-1,0,0
Y2-S2-155K19,8,1188,PS,exp,39,↑,left,←,0.5643490999937057,False,19,-1,0,0
Y2-S2-155K19,8,1189,PS,exp,34,↓,no_key,no_letter,-1.0,False,20,-1,0,0
Y2-S2-155K19,8,1190,PS,exp,48,↑,right,→,0.01752519980072975,False,21,-1,0,0
Y2-S2-155K19,8,1191,PS,exp,38,↓,right,→,0.8343005003407598,False,22,-1,0,0
Y2-S2-155K19,8,1192,PS,exp,46,←,right,→,0.5011201007291675,False,23,-1,0,0
Y2-S2-155K19,8,1193,PS,exp,50,↓,right,→,0.4005313003435731,False,24,-1,0,0
Y2-S2-155K19,8,1194,PS,exp,31,↑,down,↓,0.7305844007059932,False,25,-1,0,0
Y2-S2-155K19,8,1195,PS,exp,48,←,right,→,1.0336977001279593,False,26,-1,0,0
Y2-S2-155K19,8,1196,PS,exp,29,↑,left,←,1.230884499847889,False,27,-1,0,0
Y2-S2-155K19,8,1197,PS,exp,37,←,right,→,1.2478103004395962,False,28,-1,0,0
Y2-S2-155K19,8,1198,PS,exp,27,↑,no_key,no_letter,-1.0,False,29,-1,0,0
Y2-S2-155K19,8,1199,PS,exp,46,↓,no_key,no_letter,-1.0,False,30,-1,0,0
Y2-S2-155K19,8,1200,PS,exp,35,←,right,→,0.28439199924468994,False,31,-1,0,0
Y2-S2-155K19,8,1201,PS,exp,27,→,left,←,1.622019300237298,False,32,-1,0,0
Y2-S2-155K19,8,1202,PS,exp,28,←,left,←,0.8735756007954478,True,33,-1,0,0
Y2-S2-155K19,8,1203,PS,exp,26,↑,up,↑,1.209170600399375,True,33,-1,0,0
Y2-S2-155K19,8,1204,PS,exp,35,→,right,→,1.2582944994792342,True,33,1,1,1
Y2-S2-155K19,8,1205,PS,exp,46,←,down,↓,0.8708957005292177,False,32,-1,1,2
Y2-S2-155K19,8,1206,PS,exp,43,↓,down,↓,1.3508492996916175,True,33,-1,0,2
Y2-S2-155K19,8,1207,PS,exp,33,→,right,→,1.0828782003372908,True,33,-1,0,2
Y2-S2-155K19,8,1208,PS,exp,28,←,no_key,no_letter,-1.0,False,33,-1,0,2
Y2-S2-155K19,8,1209,PS,exp,28,↑,no_key,no_letter,-1.0,False,34,-1,0,2
Y2-S2-155K19,8,1210,PS,exp,35,↓,no_key,no_letter,-1.0,False,35,-1,0,2
Y2-S2-155K19,8,1211,PS,exp,33,↑,up,↑,1.5303352000191808,True,36,-1,0,2
Y2-S2-155K19,8,1212,PS,exp,46,→,right,→,0.46787730045616627,True,36,-1,0,2
Y2-S2-155K19,8,1213,PS,exp,37,↑,up,↑,0.972852099686861,True,36,1,1,3
Y2-S2-155K19,8,1214,PS,exp,25,↓,down,↓,1.0537306005135179,True,35,1,0,3
Y2-S2-155K19,8,1215,PS,exp,42,→,right,→,0.5508607001975179,True,35,1,0,3
Y2-S2-155K19,8,1216,PS,exp,36,↓,no_key,no_letter,-1.0,False,35,-1,1,4
Y2-S2-155K19,8,1217,PS,exp,34,←,left,←,0.6348471995443106,True,36,-1,0,4
Y2-S2-155K19,8,1218,PS,exp,49,↑,up,↑,0.7940873997285962,True,36,-1,0,4
Y2-S2-155K19,8,1219,PS,exp,32,→,right,→,0.6335901003330946,True,36,1,1,5
Y2-S2-155K19,8,1220,PS,exp,32,←,left,←,0.566695399582386,True,35,1,0,5
Y2-S2-155K19,8,1221,PS,exp,48,→,right,→,0.6841428996995091,True,35,1,0,5
Y2-S2-155K19,8,1222,PS,exp,47,↑,up,↑,0.8219133000820875,True,35,1,0,5
Y2-S2-155K19,8,1223,PS,exp,38,↓,down,↓,0.7006812999024987,True,34,1,0,5
Y2-S2-155K19,8,1224,PS,exp,30,→,right,→,0.6006413996219635,True,34,1,0,5
Y2-S2-155K19,8,1225,PS,exp,45,↑,up,↑,1.034507100470364,True,34,1,0,5
Y2-S2-155K19,8,1226,PS,exp,37,→,right,→,0.5178593005985022,True,33,1,0,5
Y2-S2-155K19,8,1227,PS,exp,38,←,left,←,0.5339775001630187,True,33,1,0,5
Y2-S2-155K19,8,1228,PS,exp,32,→,right,→,0.5840472001582384,True,33,1,0,5
Y2-S2-155K19,8,1229,PS,exp,40,↑,up,↑,0.6338639995083213,True,32,1,0,5
Y2-S2-155K19,8,1230,PS,exp,42,←,left,←,0.7846860997378826,True,32,1,0,5
Y2-S2-155K19,8,1231,PS,exp,45,↓,down,↓,0.6331897005438805,True,32,1,0,5
Y2-S2-155K19,8,1232,PS,exp,25,→,right,→,0.500420699827373,True,31,1,0,5
Y2-S2-155K19,8,1233,PS,exp,28,↓,down,↓,1.04376329947263,True,31,1,0,5
Y2-S2-155K19,8,1234,PS,exp,33,↑,up,↑,0.8794749993830919,True,31,1,0,5
Y2-S2-155K19,8,1235,PS,exp,32,↓,down,↓,2.0364247001707554,True,30,1,0,5
Y2-S2-155K19,8,1236,PS,exp,25,→,right,→,0.8035175995901227,True,30,1,0,5
Y2-S2-155K19,8,1237,PS,exp,27,←,left,←,0.742586700245738,True,30,1,0,5
Y2-S2-155K19,8,1238,PS,exp,39,↑,up,↑,0.717293799854815,True,29,1,0,5
Y2-S2-155K19,8,1239,PS,exp,43,←,left,←,0.729700899682939,True,29,1,0,5
Y2-S2-155K19,8,1240,PS,exp,28,↑,up,↑,0.899151099845767,True,29,1,0,5
Y2-S2-155K19,8,1241,PS,exp,31,←,left,←,0.7115613995119929,True,28,1,0,5
Y2-S2-155K19,8,1242,PS,exp,50,↓,down,↓,0.764813800342381,True,28,1,0,5
Y2-S2-155K19,8,1243,PS,exp,30,→,right,→,0.80812309961766,True,28,1,0,5
Y2-S2-155K19,8,1244,PS,exp,44,↓,down,↓,0.5335985003039241,True,27,1,0,5
Y2-S2-155K19,8,1245,PS,exp,45,→,right,→,1.6107280002906919,True,27,1,0,5
Y2-S2-155K19,8,1246,PS,exp,50,↑,up,↑,0.7465297002345324,True,27,1,0,5
Y2-S2-155K19,8,1247,PS,exp,41,→,right,→,0.6047796001657844,True,26,1,0,5
Y2-S2-155K19,8,1248,PS,exp,44,↓,down,↓,1.5546356001868844,True,26,1,0,5
Y2-S2-155K19,8,1249,PS,exp,37,←,left,←,0.6405209004878998,True,26,1,0,5
Y2-S2-155K19,8,1250,PS,exp,32,↑,up,↑,1.00804110057652,True,25,1,0,5
Y2-S2-155K19,8,1251,PS,exp,34,←,left,←,0.9409421002492309,True,25,1,0,5
Y2-S2-155K19,8,1252,PS,exp,50,↓,down,↓,0.6927466001361609,True,25,1,0,5
Y2-S2-155K19,8,1253,PS,exp,25,→,right,→,1.0243438994511962,True,24,1,0,5
Y2-S2-155K19,8,1254,PS,exp,44,↑,up,↑,0.8642446994781494,True,24,1,0,5
Y2-S2-155K19,8,1255,PS,exp,49,→,right,→,0.8157342001795769,True,24,1,0,5
Y2-S2-155K19,8,1256,PS,exp,35,←,left,←,0.7716586999595165,True,23,1,0,5
Y2-S2-155K19,8,1257,PS,exp,28,→,right,→,0.8943705996498466,True,23,1,0,5
Y2-S2-155K19,8,1258,PS,exp,44,↑,up,↑,1.3238546000793576,True,23,1,0,5
Y2-S2-155K19,8,1259,PS,exp,26,→,right,→,0.6474972004070878,True,22,1,0,5
Y2-S2-155K19,8,1260,PS,exp,29,↓,down,↓,0.9571641003713012,True,22,1,0,5
Y2-S2-155K19,8,1261,PS,exp,43,↑,up,↑,0.7827134998515248,True,22,1,0,5
Y2-S2-155K19,8,1262,PS,exp,48,↓,down,↓,0.6172139002010226,True,21,1,0,5
Y2-S2-155K19,8,1263,PS,exp,45,↑,up,↑,0.6373964995145798,True,21,1,0,5
Y2-S2-155K19,8,1264,PS,exp,46,→,right,→,0.6562176002189517,True,21,1,0,5
Y2-S2-155K19,8,1265,PS,exp,26,↓,down,↓,1.760270000435412,True,20,1,0,5
Y2-S2-155K19,8,1266,PS,exp,42,↑,up,↑,0.7998615996912122,True,20,1,0,5
Y2-S2-155K19,8,1267,PS,exp,35,↓,down,↓,1.4848782001063228,True,20,1,0,5
Y2-S2-155K19,8,1268,PS,exp,38,↑,up,↑,0.7302913004532456,True,19,1,0,5
Y2-S2-155K19,8,1269,PS,exp,28,↓,down,↓,1.347992000170052,True,19,1,0,5
Y2-S2-155K19,8,1270,PS,exp,45,←,left,←,0.9468904994428158,True,19,1,0,5
Y2-S2-155K19,8,1271,PS,exp,36,↑,up,↑,0.7786766001954675,True,18,1,0,5
Y2-S2-155K19,8,1272,PS,exp,36,↓,down,↓,0.5924084996804595,True,18,1,0,5
Y2-S2-155K19,8,1273,PS,exp,31,←,left,←,0.6812091004103422,True,18,1,0,5
Y2-S2-155K19,8,1274,PS,exp,40,→,right,→,0.6272594993934035,True,17,1,0,5
Y2-S2-155K19,8,1275,PS,exp,45,↑,up,↑,0.7198213003575802,True,17,1,0,5
Y2-S2-155K19,8,1276,PS,exp,41,←,left,←,0.7598826996982098,True,17,1,0,5
Y2-S2-155K19,8,1277,PS,exp,49,↓,down,↓,0.6511407000944018,True,16,1,0,5
Y2-S2-155K19,8,1278,PS,exp,37,←,left,←,0.8417273005470634,True,16,1,0,5
Y2-S2-155K19,8,1279,PS,exp,43,↑,up,↑,0.8444429999217391,True,16,1,0,5
Y2-S2-155K19,8,1280,PS,exp,49,←,up,↑,0.7877981998026371,False,15,-1,1,6
Y2-S2-155K19,8,1281,PS,exp,35,↓,down,↓,0.9663891000673175,True,16,-1,0,6
Y2-S2-155K19,8,1282,PS,exp,32,→,right,→,0.734374400228262,True,16,-1,0,6
Y2-S2-155K19,8,1283,PS,exp,43,↓,down,↓,0.659667800180614,True,16,1,1,7
Y2-S2-155K19,8,1284,PS,exp,25,↑,up,↑,0.5896595995873213,True,15,1,0,7
Y2-S2-155K19,8,1285,PS,exp,25,←,left,←,1.1329450998455286,True,15,1,0,7
Y2-S2-155K19,8,1286,PS,exp,42,↓,down,↓,0.7162990001961589,True,15,1,0,7
Y2-S2-155K19,8,1287,PS,exp,32,→,right,→,0.5558062996715307,True,14,1,0,7
Y2-S2-155K19,8,1288,PS,exp,27,↑,up,↑,0.6167190996930003,True,14,1,0,7
Y2-S2-155K19,8,1289,PS,exp,38,↓,down,↓,0.7706466997042298,True,14,1,0,7
Y2-S2-155K19,8,1290,PS,exp,33,→,right,→,0.5537344999611378,True,13,1,0,7
Y2-S2-155K19,8,1291,PS,exp,30,↓,down,↓,1.1930547999218106,True,13,1,0,7
Y2-S2-155K19,8,1292,PS,exp,33,↑,up,↑,0.625453700311482,True,13,1,0,7
Y2-S2-155K19,8,1293,PS,exp,39,↓,right,→,0.7522056996822357,False,12,-1,1,8
Y2-S2-155K19,8,1294,PS,exp,29,←,left,←,0.9532630005851388,True,13,-1,0,8
Y2-S2-155K19,8,1295,PS,exp,27,→,right,→,0.8985372995957732,True,13,-1,0,8
Y2-S2-155K19,8,1296,PS,exp,29,←,left,←,0.8211083002388477,True,13,1,1,9
Y2-S2-155K19,8,1297,PS,exp,38,↑,right,→,0.7327663004398346,False,12,-1,1,10
Y2-S2-155K19,8,1298,PS,exp,34,←,left,←,0.8251823000609875,True,13,-1,0,10
Y2-S2-155K19,8,1299,PS,exp,37,→,right,→,0.7347918003797531,True,13,-1,0,10
Y2-S2-155K19,8,1300,PS,exp,25,↑,up,↑,0.5807433007284999,True,13,1,1,11
Y2-S2-155K19,8,1301,PS,exp,36,→,right,→,0.5761225000023842,True,12,1,0,11
Y2-S2-155K19,8,1302,PS,exp,26,↓,down,↓,1.3893550001084805,True,12,1,0,11
Y2-S2-155K19,8,1303,PS,exp,27,↑,up,↑,0.9471599999815226,True,12,1,0,11
Y2-S2-155K19,8,1304,PS,exp,33,↓,down,↓,0.696437300182879,True,11,1,0,11
Y2-S2-155K19,8,1305,PS,exp,45,↑,up,↑,0.6129919001832604,True,11,1,0,11
Y2-S2-155K19,8,1306,PS,exp,35,↓,down,↓,0.5343984002247453,True,11,1,0,11
Y2-S2-155K19,8,1307,PS,exp,36,←,right,→,0.7551215998828411,False,10,-1,1,12
Y2-S2-155K19,8,1308,PS,exp,39,↓,right,→,0.8466171007603407,False,11,-1,0,12
Y2-S2-155K19,8,1309,PS,exp,49,↑,up,↑,0.6963094994425774,True,12,-1,0,12
Y2-S2-155K19,8,1310,PS,exp,36,→,right,→,0.6303367000073195,True,12,-1,0,12
Y2-S2-155K19,8,1311,PS,exp,45,←,left,←,0.6354192001745105,True,12,1,1,13
Y2-S2-155K19,8,1312,PS,exp,36,↑,up,↑,0.5757160997018218,True,11,1,0,13
Y2-S2-155K19,8,1313,PS,exp,45,↓,down,↓,0.8105741003528237,True,11,1,0,13
Y2-S2-155K19,8,1314,PS,exp,29,↑,up,↑,0.7006999002769589,True,11,1,0,13
Y2-S2-155K19,8,1315,PS,exp,29,←,left,←,0.7556272000074387,True,10,1,0,13
Y2-S2-155K19,8,1316,PS,exp,38,↑,up,↑,0.6421403996646404,True,10,1,0,13
Y2-S2-155K19,8,1317,PS,exp,47,↓,down,↓,0.6485368004068732,True,10,1,0,13
Y2-S2-155K19,8,1318,PS,exp,35,←,left,←,0.5918139005079865,True,9,1,0,13
Y2-S2-155K19,8,1319,PS,exp,43,↑,right,→,0.9151038005948067,False,9,-1,1,14
Y2-S2-155K19,8,1320,PS,exp,40,←,up,↑,0.9119647005572915,False,10,-1,0,14
Y2-S2-155K19,8,1321,PS,exp,43,↓,down,↓,0.80636449996382,True,11,-1,0,14
Y2-S2-155K19,8,1322,PS,exp,39,→,right,→,0.5778406001627445,True,11,-1,0,14
Y2-S2-155K19,8,1323,PS,exp,32,↑,right,→,0.8621720997616649,False,11,-1,0,14
Y2-S2-155K19,8,1324,PS,exp,49,→,right,→,0.7169724004343152,True,12,-1,0,14
Y2-S2-155K19,8,1325,PS,exp,33,↑,right,→,0.8834327002987266,False,12,-1,0,14
Y2-S2-155K19,8,1326,PS,exp,25,↓,down,↓,0.7579366993159056,True,13,-1,0,14
Y2-S2-155K19,8,1327,PS,exp,44,↑,right,→,1.0416476000100374,False,13,-1,0,14
Y2-S2-155K19,8,1328,PS,exp,26,→,right,→,0.537457499653101,True,14,-1,0,14
Y2-S2-155K19,8,1329,PS,exp,29,←,left,←,0.8523051999509335,True,14,-1,0,14
Y2-S2-155K19,8,1330,PS,exp,32,↑,up,↑,0.7356205005198717,True,14,1,1,15
Y2-S2-155K19,8,1331,PS,exp,40,→,right,→,0.8700540000572801,True,13,1,0,15
Y2-S2-155K19,8,1332,PS,exp,26,←,left,←,0.6011604992672801,True,13,1,0,15
Y2-S2-155K19,8,1333,PS,exp,31,↓,down,↓,0.6200505997985601,True,13,1,0,15
Y2-S2-155K19,8,1334,PS,exp,28,↑,up,↑,0.6994883995503187,True,12,1,0,15
Y2-S2-155K19,8,1335,PS,exp,28,↓,right,→,0.7713027000427246,False,12,-1,1,16
