PART_ID,Block_no,Trial_no,Block_type,Trial_type,CSI,Stim_letter,Key_pressed,letter_choose,Rt,Corr,Stimulus Time,Level,Reversal,Revs_count
Y2-S2-250K25,1,1,PS,train,39,←,left,←,0.8382692001760006,True,30,-,-,-
Y2-S2-250K25,1,2,PS,train,40,→,right,→,0.683213499840349,True,30,-,-,-
Y2-S2-250K25,1,3,PS,train,43,↓,no_key,no_letter,-1.0,False,30,-,-,-
Y2-S2-250K25,1,4,PS,train,28,→,right,→,1.1800983999855816,True,30,-,-,-
Y2-S2-250K25,1,5,PS,train,25,↑,up,↑,0.67446230025962,True,30,-,-,-
Y2-S2-250K25,1,6,PS,train,49,↓,down,↓,0.7663728003390133,True,30,-,-,-
Y2-S2-250K25,1,7,PS,train,29,↑,up,↑,0.7623148001730442,True,30,-,-,-
Y2-S2-250K25,1,8,PS,train,39,↓,down,↓,0.6922975000925362,True,30,-,-,-
Y2-S2-250K25,1,9,PS,train,41,↑,up,↑,0.8919568001292646,True,30,-,-,-
Y2-S2-250K25,1,10,PS,train,26,↓,down,↓,0.5340384002774954,True,30,-,-,-
Y2-S2-250K25,2,11,AS,train,47,←,left,←,0.701125199906528,True,45,-,-,-
Y2-S2-250K25,2,12,AS,train,39,↓,down,↓,0.6510811997577548,True,45,-,-,-
Y2-S2-250K25,2,13,AS,train,30,←,left,←,0.6177676003426313,True,45,-,-,-
Y2-S2-250K25,2,14,AS,train,45,↑,up,↑,0.7678119000047445,True,45,-,-,-
Y2-S2-250K25,2,15,AS,train,48,←,left,←,0.684595599770546,True,45,-,-,-
Y2-S2-250K25,2,16,AS,train,29,↑,up,↑,0.7841627998277545,True,45,-,-,-
Y2-S2-250K25,2,17,AS,train,42,←,left,←,0.6675011003389955,True,45,-,-,-
Y2-S2-250K25,2,18,AS,train,49,↓,down,↓,0.6679463000036776,True,45,-,-,-
Y2-S2-250K25,2,19,AS,train,48,←,left,←,0.4842942003160715,True,45,-,-,-
Y2-S2-250K25,2,20,AS,train,37,→,right,→,0.8169045001268387,True,45,-,-,-
Y2-S2-250K25,-,21,PS,adaptive,49,↓,down,↓,0.8112480998970568,True,10,0,0,0
Y2-S2-250K25,-,22,PS,adaptive,41,←,left,←,0.8356105000711977,True,10,0,0,0
Y2-S2-250K25,-,23,PS,adaptive,45,→,right,→,0.7233754000626504,True,10,1,0,0
Y2-S2-250K25,-,24,PS,adaptive,38,↑,up,↑,0.5020606997422874,True,9,1,0,0
Y2-S2-250K25,-,25,PS,adaptive,50,↓,down,↓,0.7676455001346767,True,9,1,0,0
Y2-S2-250K25,-,26,PS,adaptive,25,↑,right,→,0.8242621999233961,False,9,-1,1,1
Y2-S2-250K25,-,27,PS,adaptive,34,↓,down,↓,0.8065626001916826,True,10,-1,0,1
Y2-S2-250K25,-,28,PS,adaptive,28,→,right,→,0.8135453998111188,True,10,-1,0,1
Y2-S2-250K25,-,29,PS,adaptive,41,↑,up,↑,0.7545626000501215,True,10,1,1,2
Y2-S2-250K25,-,30,PS,adaptive,38,←,left,←,0.7481527999043465,True,9,1,0,2
Y2-S2-250K25,-,31,PS,adaptive,40,→,right,→,0.6743671000003815,True,9,1,0,2
Y2-S2-250K25,-,32,PS,adaptive,27,←,left,←,0.6549289003014565,True,9,1,0,2
Y2-S2-250K25,-,33,PS,adaptive,48,↑,up,↑,0.6897187000140548,True,8,1,0,2
Y2-S2-250K25,-,34,PS,adaptive,41,→,right,→,0.822065600194037,True,8,1,0,2
Y2-S2-250K25,-,35,PS,adaptive,49,↓,down,↓,0.6972177997231483,True,8,1,0,2
Y2-S2-250K25,-,36,PS,adaptive,34,→,right,→,0.5706058996729553,True,7,1,0,2
Y2-S2-250K25,-,37,PS,adaptive,38,←,left,←,0.5200062999501824,True,7,1,0,2
Y2-S2-250K25,-,38,PS,adaptive,27,↑,up,↑,0.5344604998826981,True,7,1,0,2
Y2-S2-250K25,-,39,PS,adaptive,25,→,right,→,0.7622715998440981,True,6,1,0,2
Y2-S2-250K25,-,40,PS,adaptive,45,↑,right,→,0.5741111002862453,False,6,-1,1,3
Y2-S2-250K25,-,41,PS,adaptive,27,←,left,←,0.4678651001304388,True,7,-1,0,3
Y2-S2-250K25,-,42,PS,adaptive,46,↑,up,↑,0.6073335004039109,True,7,-1,0,3
Y2-S2-250K25,-,43,PS,adaptive,26,←,right,→,0.7904346999712288,False,7,-1,0,3
Y2-S2-250K25,-,44,PS,adaptive,34,↑,up,↑,0.6647185999900103,True,8,-1,0,3
Y2-S2-250K25,-,45,PS,adaptive,39,←,left,←,0.670085099991411,True,8,-1,0,3
Y2-S2-250K25,-,46,PS,adaptive,50,↑,right,→,0.5081098000518978,False,8,-1,0,3
Y2-S2-250K25,-,47,PS,adaptive,34,←,left,←,0.8205722998827696,True,9,-1,0,3
Y2-S2-250K25,-,48,PS,adaptive,34,↑,up,↑,0.5802889997139573,True,9,-1,0,3
Y2-S2-250K25,-,49,PS,adaptive,33,↓,right,→,0.8851037998683751,False,9,-1,0,3
Y2-S2-250K25,-,50,PS,adaptive,45,→,left,←,0.7358570997603238,False,10,-1,0,3
Y2-S2-250K25,-,51,PS,adaptive,39,↑,up,↑,0.544100099708885,True,11,-1,0,3
Y2-S2-250K25,-,52,PS,adaptive,28,←,left,←,0.704230900388211,True,11,-1,0,3
Y2-S2-250K25,-,53,PS,adaptive,31,↓,down,↓,0.7204833002761006,True,11,1,1,4
Y2-S2-250K25,-,54,AS,adaptive,40,←,right,→,1.3093416998162866,False,20,-1,0,0
Y2-S2-250K25,-,55,AS,adaptive,43,→,right,→,0.9156448999419808,True,21,-1,0,0
Y2-S2-250K25,-,56,AS,adaptive,45,←,left,←,0.8244345998391509,True,21,-1,0,0
Y2-S2-250K25,-,57,AS,adaptive,47,↓,down,↓,0.5583901000209153,True,21,1,1,1
Y2-S2-250K25,-,58,AS,adaptive,26,→,right,→,0.8299881997518241,True,20,1,0,1
Y2-S2-250K25,-,59,AS,adaptive,25,↓,down,↓,0.6548289000056684,True,20,1,0,1
Y2-S2-250K25,-,60,AS,adaptive,46,←,left,←,0.8594769001938403,True,20,1,0,1
Y2-S2-250K25,-,61,AS,adaptive,33,→,no_key,no_letter,-1.0,False,19,-1,1,2
Y2-S2-250K25,-,62,AS,adaptive,46,↓,down,↓,0.8436230001971126,True,20,-1,0,2
Y2-S2-250K25,-,63,AS,adaptive,42,→,right,→,0.9611116000451148,True,20,-1,0,2
Y2-S2-250K25,-,64,AS,adaptive,37,←,left,←,0.7211405001580715,True,20,1,1,3
Y2-S2-250K25,-,65,AS,adaptive,45,→,right,→,0.8105516000650823,True,19,1,0,3
Y2-S2-250K25,-,66,AS,adaptive,50,↓,down,↓,0.8996941996738315,True,19,1,0,3
Y2-S2-250K25,-,67,AS,adaptive,44,→,right,→,0.8418418997898698,True,19,1,0,3
Y2-S2-250K25,-,68,AS,adaptive,43,↑,down,↓,0.9257951001636684,False,18,-1,1,4
Y2-S2-250K25,1,69,PS,intra_train,43,→,right,→,0.8396767000667751,True,15,-,-,-
Y2-S2-250K25,1,70,PS,intra_train,26,←,left,←,0.4229049002751708,True,15,-,-,-
Y2-S2-250K25,1,71,PS,intra_train,30,↓,down,↓,0.5388024998828769,True,15,-,-,-
Y2-S2-250K25,1,72,PS,intra_train,30,↑,up,↑,0.6071303999051452,True,15,-,-,-
Y2-S2-250K25,1,73,PS,intra_train,39,→,right,→,0.6789683001115918,True,15,-,-,-
Y2-S2-250K25,1,74,PS,exp,41,←,left,←,0.7373726000078022,True,10,0,0,0
Y2-S2-250K25,1,75,PS,exp,25,→,right,→,0.6128850001841784,True,10,0,0,0
Y2-S2-250K25,1,76,PS,exp,49,↑,up,↑,0.7142272000201046,True,10,1,0,0
Y2-S2-250K25,1,77,PS,exp,26,→,right,→,0.5997101999819279,True,9,1,0,0
Y2-S2-250K25,1,78,PS,exp,38,↓,down,↓,0.558606400154531,True,9,1,0,0
Y2-S2-250K25,1,79,PS,exp,46,↑,up,↑,0.5860771997831762,True,9,1,0,0
Y2-S2-250K25,1,80,PS,exp,26,←,left,←,0.5663066003471613,True,8,1,0,0
Y2-S2-250K25,1,81,PS,exp,26,→,left,←,0.7360279001295567,False,8,-1,1,1
Y2-S2-250K25,1,82,PS,exp,27,←,left,←,0.6302535999566317,True,9,-1,0,1
Y2-S2-250K25,1,83,PS,exp,31,→,right,→,0.5114800999872386,True,9,-1,0,1
Y2-S2-250K25,1,84,PS,exp,50,↑,left,←,0.8129220004193485,False,9,-1,0,1
Y2-S2-250K25,1,85,PS,exp,32,↓,right,→,0.5963061996735632,False,10,-1,0,1
Y2-S2-250K25,1,86,PS,exp,37,→,right,→,0.7744626998901367,True,11,-1,0,1
Y2-S2-250K25,1,87,PS,exp,31,↑,up,↑,0.5621087001636624,True,11,-1,0,1
Y2-S2-250K25,1,88,PS,exp,26,←,left,←,0.6053782999515533,True,11,1,1,2
Y2-S2-250K25,1,89,PS,exp,42,↓,down,↓,0.7615347998216748,True,10,1,0,2
Y2-S2-250K25,1,90,PS,exp,34,←,left,←,0.7032269998453557,True,10,1,0,2
Y2-S2-250K25,1,91,PS,exp,36,↑,left,←,1.4839404998347163,False,10,-1,1,3
Y2-S2-250K25,1,92,PS,exp,47,→,left,←,0.6989678000099957,False,11,-1,0,3
Y2-S2-250K25,1,93,PS,exp,28,↑,up,↑,1.0915572000667453,True,12,-1,0,3
Y2-S2-250K25,1,94,PS,exp,36,↓,down,↓,0.7848537997342646,True,12,-1,0,3
Y2-S2-250K25,1,95,PS,exp,32,↑,up,↑,0.5297550996765494,True,12,1,1,4
Y2-S2-250K25,1,96,PS,exp,25,→,right,→,0.6426480999216437,True,11,1,0,4
Y2-S2-250K25,1,97,PS,exp,26,←,left,←,0.5982462000101805,True,11,1,0,4
Y2-S2-250K25,1,98,PS,exp,37,↑,up,↑,0.519549900200218,True,11,1,0,4
Y2-S2-250K25,1,99,PS,exp,42,↓,down,↓,0.5453210999257863,True,10,1,0,4
Y2-S2-250K25,1,100,PS,exp,33,→,right,→,0.5074839000590146,True,10,1,0,4
Y2-S2-250K25,1,101,PS,exp,28,←,left,←,0.41730770003050566,True,10,1,0,4
Y2-S2-250K25,1,102,PS,exp,50,↓,down,↓,0.5524138999171555,True,9,1,0,4
Y2-S2-250K25,1,103,PS,exp,38,←,left,←,0.5580693003721535,True,9,1,0,4
Y2-S2-250K25,1,104,PS,exp,36,→,right,→,0.5035830000415444,True,9,1,0,4
Y2-S2-250K25,1,105,PS,exp,28,↓,down,↓,0.5614519999362528,True,8,1,0,4
Y2-S2-250K25,1,106,PS,exp,46,←,right,→,0.5893005998805165,False,8,-1,1,5
Y2-S2-250K25,1,107,PS,exp,38,→,right,→,0.751031800173223,True,9,-1,0,5
Y2-S2-250K25,1,108,PS,exp,32,↓,right,→,0.9494783999398351,False,9,-1,0,5
Y2-S2-250K25,1,109,PS,exp,35,→,right,→,0.6897241002880037,True,10,-1,0,5
Y2-S2-250K25,1,110,PS,exp,28,↓,down,↓,0.5538946995511651,True,10,-1,0,5
Y2-S2-250K25,1,111,PS,exp,50,←,left,←,0.5728134997189045,True,10,1,1,6
Y2-S2-250K25,1,112,PS,exp,44,→,right,→,0.6704148999415338,True,9,1,0,6
Y2-S2-250K25,1,113,PS,exp,30,↑,up,↑,0.5588241000659764,True,9,1,0,6
Y2-S2-250K25,1,114,PS,exp,39,→,left,←,1.1475305003114045,False,9,-1,1,7
Y2-S2-250K25,1,115,PS,exp,35,←,left,←,0.6003542998805642,True,10,-1,0,7
Y2-S2-250K25,1,116,PS,exp,50,→,right,→,0.5139186000451446,True,10,-1,0,7
Y2-S2-250K25,1,117,PS,exp,27,↓,down,↓,0.5605798996984959,True,10,1,1,8
Y2-S2-250K25,1,118,PS,exp,29,←,left,←,0.6015908000990748,True,9,1,0,8
Y2-S2-250K25,1,119,PS,exp,31,↓,down,↓,0.677176299970597,True,9,1,0,8
Y2-S2-250K25,1,120,PS,exp,44,↑,up,↑,0.5188963003456593,True,9,1,0,8
Y2-S2-250K25,1,121,PS,exp,26,←,up,↑,1.099628500174731,False,8,-1,1,9
Y2-S2-250K25,1,122,PS,exp,27,↓,down,↓,0.6406775000505149,True,9,-1,0,9
Y2-S2-250K25,1,123,PS,exp,25,→,right,→,0.7082462999969721,True,9,-1,0,9
Y2-S2-250K25,1,124,PS,exp,36,↓,down,↓,0.5400820998474956,True,9,1,1,10
Y2-S2-250K25,1,125,PS,exp,44,←,left,←,0.46155110001564026,True,8,1,0,10
Y2-S2-250K25,1,126,PS,exp,33,↓,left,←,0.9841244001872838,False,8,-1,1,11
Y2-S2-250K25,1,127,PS,exp,48,←,left,←,0.6526550999842584,True,9,-1,0,11
Y2-S2-250K25,1,128,PS,exp,50,→,right,→,0.45871090004220605,True,9,-1,0,11
Y2-S2-250K25,1,129,PS,exp,25,↓,down,↓,0.5091631999239326,True,9,1,1,12
Y2-S2-250K25,1,130,PS,exp,30,→,right,→,0.4632578999735415,True,8,1,0,12
Y2-S2-250K25,1,131,PS,exp,27,↑,left,←,0.8741585998795927,False,8,-1,1,13
Y2-S2-250K25,1,132,PS,exp,27,←,left,←,0.555901899933815,True,9,-1,0,13
Y2-S2-250K25,1,133,PS,exp,33,↑,down,↓,0.5632865997031331,False,9,-1,0,13
Y2-S2-250K25,1,134,PS,exp,27,↓,down,↓,0.46795189986005425,True,10,-1,0,13
Y2-S2-250K25,1,135,PS,exp,27,→,right,→,0.4679950000718236,True,10,-1,0,13
Y2-S2-250K25,1,136,PS,exp,34,↑,right,→,0.6689684996381402,False,10,-1,0,13
Y2-S2-250K25,1,137,PS,exp,43,↓,down,↓,0.48509400011971593,True,11,-1,0,13
Y2-S2-250K25,1,138,PS,exp,30,→,right,→,0.6785804997198284,True,11,-1,0,13
Y2-S2-250K25,1,139,PS,exp,42,↑,up,↑,0.5879426002502441,True,11,1,1,14
Y2-S2-250K25,1,140,PS,exp,41,↓,down,↓,0.5132906003855169,True,10,1,0,14
Y2-S2-250K25,1,141,PS,exp,41,↑,up,↑,0.5632318998686969,True,10,1,0,14
Y2-S2-250K25,1,142,PS,exp,49,↓,down,↓,0.5801168000325561,True,10,1,0,14
Y2-S2-250K25,1,143,PS,exp,27,←,right,→,0.5870495000854135,False,9,-1,1,15
Y2-S2-250K25,1,144,PS,exp,48,↓,down,↓,0.5100997998379171,True,10,-1,0,15
Y2-S2-250K25,1,145,PS,exp,34,↑,up,↑,0.5393356997519732,True,10,-1,0,15
Y2-S2-250K25,1,146,PS,exp,37,→,down,↓,0.6567472000606358,False,10,-1,0,15
Y2-S2-250K25,1,147,PS,exp,30,←,left,←,0.6682720999233425,True,11,-1,0,15
Y2-S2-250K25,1,148,PS,exp,31,↓,down,↓,0.7035992997698486,True,11,-1,0,15
Y2-S2-250K25,1,149,PS,exp,41,←,left,←,1.079421800095588,True,11,1,1,16
Y2-S2-250K25,2,150,AS,intra_train,49,↑,up,↑,0.700904699973762,True,28,-,-,-
Y2-S2-250K25,2,151,AS,intra_train,44,←,left,←,0.6383691001683474,True,28,-,-,-
Y2-S2-250K25,2,152,AS,intra_train,43,→,left,←,0.5506906998343766,False,28,-,-,-
Y2-S2-250K25,2,153,AS,intra_train,46,←,left,←,0.6631714003160596,True,28,-,-,-
Y2-S2-250K25,2,154,AS,intra_train,46,→,right,→,0.43431989988312125,True,28,-,-,-
Y2-S2-250K25,2,155,AS,exp,38,↓,down,↓,0.5123672001063824,True,19,0,0,0
Y2-S2-250K25,2,156,AS,exp,40,↑,up,↑,0.5155798997730017,True,19,0,0,0
Y2-S2-250K25,2,157,AS,exp,39,→,right,→,0.4984361999668181,True,19,1,0,0
Y2-S2-250K25,2,158,AS,exp,50,↓,up,↑,1.1040909001603723,False,18,-1,1,1
Y2-S2-250K25,2,159,AS,exp,36,→,right,→,0.7393644000403583,True,19,-1,0,1
Y2-S2-250K25,2,160,AS,exp,32,←,left,←,0.5706910998560488,True,19,-1,0,1
Y2-S2-250K25,2,161,AS,exp,28,→,right,→,0.7532550003379583,True,19,1,1,2
Y2-S2-250K25,2,162,AS,exp,27,↓,down,↓,0.7403401001356542,True,18,1,0,2
Y2-S2-250K25,2,163,AS,exp,28,←,left,←,0.49224660033360124,True,18,1,0,2
Y2-S2-250K25,2,164,AS,exp,27,→,right,→,0.5947563000954688,True,18,1,0,2
Y2-S2-250K25,2,165,AS,exp,47,↑,up,↑,0.789816299919039,True,17,1,0,2
Y2-S2-250K25,2,166,AS,exp,27,→,no_key,no_letter,-1.0,False,17,-1,1,3
Y2-S2-250K25,2,167,AS,exp,50,↓,down,↓,0.5080000995658338,True,18,-1,0,3
Y2-S2-250K25,2,168,AS,exp,37,→,right,→,0.433914499823004,True,18,-1,0,3
Y2-S2-250K25,2,169,AS,exp,46,↑,down,↓,0.823112899903208,False,18,-1,0,3
Y2-S2-250K25,2,170,AS,exp,35,→,right,→,0.367550500202924,True,19,-1,0,3
Y2-S2-250K25,2,171,AS,exp,40,↓,down,↓,0.599921299610287,True,19,-1,0,3
Y2-S2-250K25,2,172,AS,exp,49,←,left,←,0.5306457998231053,True,19,1,1,4
Y2-S2-250K25,2,173,AS,exp,43,↑,down,↓,0.625859800260514,False,18,-1,1,5
Y2-S2-250K25,2,174,AS,exp,28,↓,down,↓,0.5978709002956748,True,19,-1,0,5
Y2-S2-250K25,2,175,AS,exp,50,→,right,→,0.7469318998046219,True,19,-1,0,5
Y2-S2-250K25,2,176,AS,exp,39,←,left,←,1.4758207998238504,True,19,1,1,6
Y2-S2-250K25,2,177,AS,exp,29,↑,up,↑,1.368620399851352,True,18,1,0,6
Y2-S2-250K25,2,178,AS,exp,32,←,right,→,0.6480201003141701,False,18,-1,1,7
Y2-S2-250K25,2,179,AS,exp,39,↓,up,↑,0.7685468001291156,False,19,-1,0,7
Y2-S2-250K25,2,180,AS,exp,43,←,left,←,1.2733702003024518,True,20,-1,0,7
Y2-S2-250K25,2,181,AS,exp,26,↓,down,↓,0.527182700112462,True,20,-1,0,7
Y2-S2-250K25,2,182,AS,exp,50,→,no_key,no_letter,-1.0,False,20,-1,0,7
Y2-S2-250K25,2,183,AS,exp,45,↓,no_key,no_letter,-1.0,False,21,-1,0,7
Y2-S2-250K25,2,184,AS,exp,30,→,right,→,0.4511528997682035,True,22,-1,0,7
Y2-S2-250K25,2,185,AS,exp,40,←,right,→,1.1020724000409245,False,22,-1,0,7
Y2-S2-250K25,2,186,AS,exp,33,↓,down,↓,0.7449403000064194,True,23,-1,0,7
Y2-S2-250K25,2,187,AS,exp,35,→,right,→,0.4676509997807443,True,23,-1,0,7
Y2-S2-250K25,2,188,AS,exp,45,←,left,←,0.4672882999293506,True,23,1,1,8
Y2-S2-250K25,2,189,AS,exp,36,↓,up,↑,1.0596872996538877,False,22,-1,1,9
Y2-S2-250K25,2,190,AS,exp,32,↑,down,↓,0.8875975999981165,False,23,-1,0,9
Y2-S2-250K25,2,191,AS,exp,45,←,left,←,0.9040493001230061,True,24,-1,0,9
Y2-S2-250K25,2,192,AS,exp,46,→,right,→,0.7194413002580404,True,24,-1,0,9
Y2-S2-250K25,2,193,AS,exp,33,←,left,←,0.5173742999322712,True,24,1,1,10
Y2-S2-250K25,2,194,AS,exp,47,→,right,→,0.5866515999659896,True,23,1,0,10
Y2-S2-250K25,2,195,AS,exp,43,↑,up,↑,0.71477170009166,True,23,1,0,10
Y2-S2-250K25,2,196,AS,exp,29,←,left,←,0.5004920996725559,True,23,1,0,10
Y2-S2-250K25,2,197,AS,exp,43,↑,up,↑,0.4505608002655208,True,22,1,0,10
Y2-S2-250K25,2,198,AS,exp,49,↓,down,↓,0.7718547997064888,True,22,1,0,10
Y2-S2-250K25,2,199,AS,exp,44,←,left,←,0.8209099997766316,True,22,1,0,10
Y2-S2-250K25,2,200,AS,exp,32,↓,down,↓,0.5371464001946151,True,21,1,0,10
Y2-S2-250K25,2,201,AS,exp,28,↑,down,↓,0.7784261000342667,False,21,-1,1,11
Y2-S2-250K25,2,202,AS,exp,25,↓,down,↓,1.231371299829334,True,22,-1,0,11
Y2-S2-250K25,2,203,AS,exp,27,→,right,→,0.4506728001870215,True,22,-1,0,11
Y2-S2-250K25,2,204,AS,exp,39,←,left,←,0.7688875999301672,True,22,1,1,12
Y2-S2-250K25,2,205,AS,exp,45,↑,up,↑,0.6047598998993635,True,21,1,0,12
Y2-S2-250K25,2,206,AS,exp,35,→,right,→,0.7161694001406431,True,21,1,0,12
Y2-S2-250K25,2,207,AS,exp,43,↓,down,↓,1.49508549971506,True,21,1,0,12
Y2-S2-250K25,2,208,AS,exp,41,→,left,←,0.743875200394541,False,20,-1,1,13
Y2-S2-250K25,2,209,AS,exp,47,←,left,←,0.7567289001308382,True,21,-1,0,13
Y2-S2-250K25,2,210,AS,exp,42,↑,left,←,0.838578199967742,False,21,-1,0,13
Y2-S2-250K25,2,211,AS,exp,41,←,left,←,0.5010052002035081,True,22,-1,0,13
Y2-S2-250K25,2,212,AS,exp,43,→,right,→,0.8974419999867678,True,22,-1,0,13
Y2-S2-250K25,2,213,AS,exp,50,←,left,←,0.8858169000595808,True,22,1,1,14
Y2-S2-250K25,2,214,AS,exp,48,↑,up,↑,0.8194945999421179,True,21,1,0,14
Y2-S2-250K25,2,215,AS,exp,28,→,right,→,0.6677851998247206,True,21,1,0,14
Y2-S2-250K25,2,216,AS,exp,46,↓,down,↓,0.5506369997747242,True,21,1,0,14
Y2-S2-250K25,2,217,AS,exp,45,↑,up,↑,0.7499107997864485,True,20,1,0,14
Y2-S2-250K25,2,218,AS,exp,28,↓,down,↓,0.5947679998353124,True,20,1,0,14
Y2-S2-250K25,2,219,AS,exp,25,↑,up,↑,0.7332052001729608,True,20,1,0,14
Y2-S2-250K25,2,220,AS,exp,33,↓,down,↓,0.7695982996374369,True,19,1,0,14
Y2-S2-250K25,2,221,AS,exp,27,↑,up,↑,0.4952948000282049,True,19,1,0,14
Y2-S2-250K25,2,222,AS,exp,36,↓,down,↓,0.5282825999893248,True,19,1,0,14
Y2-S2-250K25,2,223,AS,exp,27,→,up,↑,0.8303791000507772,False,18,-1,1,15
Y2-S2-250K25,2,224,AS,exp,33,←,left,←,0.4509453000500798,True,19,-1,0,15
Y2-S2-250K25,2,225,AS,exp,49,↑,up,↑,0.63899220013991,True,19,-1,0,15
Y2-S2-250K25,2,226,AS,exp,46,↓,down,↓,0.5525646000169218,True,19,1,1,16
Y2-S2-250K25,3,227,AS,intra_train,26,→,right,→,0.5337199000641704,True,28,-,-,-
Y2-S2-250K25,3,228,AS,intra_train,37,↑,up,↑,0.5178284998983145,True,28,-,-,-
Y2-S2-250K25,3,229,AS,intra_train,44,←,left,←,0.5170893003232777,True,28,-,-,-
Y2-S2-250K25,3,230,AS,intra_train,42,↑,up,↑,0.7279667998664081,True,28,-,-,-
Y2-S2-250K25,3,231,AS,intra_train,39,←,left,←,0.4515619999729097,True,28,-,-,-
Y2-S2-250K25,3,232,AS,exp,49,↑,up,↑,0.7250171001069248,True,19,0,0,0
Y2-S2-250K25,3,233,AS,exp,47,→,left,←,0.7063858998008072,False,19,-1,0,0
Y2-S2-250K25,3,234,AS,exp,36,↑,up,↑,0.6047984999604523,True,20,-1,0,0
Y2-S2-250K25,3,235,AS,exp,32,←,left,←,0.552877000067383,True,20,-1,0,0
Y2-S2-250K25,3,236,AS,exp,25,↑,up,↑,0.5476053999736905,True,20,1,1,1
Y2-S2-250K25,3,237,AS,exp,28,→,no_key,no_letter,-1.0,False,19,-1,1,2
Y2-S2-250K25,3,238,AS,exp,34,↑,up,↑,0.8717169999144971,True,20,-1,0,2
Y2-S2-250K25,3,239,AS,exp,48,←,left,←,1.2816178002394736,True,20,-1,0,2
Y2-S2-250K25,3,240,AS,exp,49,↓,down,↓,1.2718945001251996,True,20,1,1,3
Y2-S2-250K25,3,241,AS,exp,46,↑,up,↑,0.7393577001057565,True,19,1,0,3
Y2-S2-250K25,3,242,AS,exp,33,←,right,→,0.7246566996909678,False,19,-1,1,4
Y2-S2-250K25,3,243,AS,exp,33,→,right,→,0.7100769998505712,True,20,-1,0,4
Y2-S2-250K25,3,244,AS,exp,30,↓,down,↓,0.7356724003329873,True,20,-1,0,4
Y2-S2-250K25,3,245,AS,exp,45,→,right,→,0.761801399756223,True,20,1,1,5
Y2-S2-250K25,3,246,AS,exp,47,↑,up,↑,1.843141600023955,True,19,1,0,5
Y2-S2-250K25,3,247,AS,exp,47,↓,down,↓,0.7628482999280095,True,19,1,0,5
Y2-S2-250K25,3,248,AS,exp,39,↑,down,↓,0.9478301997296512,False,19,-1,1,6
Y2-S2-250K25,3,249,AS,exp,49,→,right,→,0.5462493998929858,True,20,-1,0,6
Y2-S2-250K25,3,250,AS,exp,45,←,right,→,0.737307199742645,False,20,-1,0,6
Y2-S2-250K25,3,251,AS,exp,47,↑,up,↑,0.519344599917531,True,21,-1,0,6
Y2-S2-250K25,3,252,AS,exp,40,→,right,→,0.6796985999681056,True,21,-1,0,6
Y2-S2-250K25,3,253,AS,exp,39,↑,up,↑,0.7904329998418689,True,21,1,1,7
Y2-S2-250K25,3,254,AS,exp,47,←,left,←,0.6935707000084221,True,20,1,0,7
Y2-S2-250K25,3,255,AS,exp,31,↓,down,↓,0.5434402003884315,True,20,1,0,7
Y2-S2-250K25,3,256,AS,exp,29,→,right,→,0.7711685001850128,True,20,1,0,7
Y2-S2-250K25,3,257,AS,exp,44,↑,up,↑,1.1790009001269937,True,19,1,0,7
Y2-S2-250K25,3,258,AS,exp,46,←,left,←,0.7976272003725171,True,19,1,0,7
Y2-S2-250K25,3,259,AS,exp,31,↓,down,↓,1.1158317998051643,True,19,1,0,7
Y2-S2-250K25,3,260,AS,exp,45,←,left,←,0.7170440000481904,True,18,1,0,7
Y2-S2-250K25,3,261,AS,exp,42,↓,down,↓,0.4992446997202933,True,18,1,0,7
Y2-S2-250K25,3,262,AS,exp,43,←,left,←,1.0912472000345588,True,18,1,0,7
Y2-S2-250K25,3,263,AS,exp,39,→,right,→,0.6519113001413643,True,17,1,0,7
Y2-S2-250K25,3,264,AS,exp,37,←,left,←,0.46429309993982315,True,17,1,0,7
Y2-S2-250K25,3,265,AS,exp,49,→,right,→,0.5334336999803782,True,17,1,0,7
Y2-S2-250K25,3,266,AS,exp,28,←,left,←,0.9891470996662974,True,16,1,0,7
Y2-S2-250K25,3,267,AS,exp,49,↓,down,↓,0.7004554998129606,True,16,1,0,7
Y2-S2-250K25,3,268,AS,exp,31,←,left,←,0.5184006998315454,True,16,1,0,7
Y2-S2-250K25,3,269,AS,exp,38,↓,down,↓,0.47334650019183755,True,15,1,0,7
Y2-S2-250K25,3,270,AS,exp,44,←,left,←,0.4635260999202728,True,15,1,0,7
Y2-S2-250K25,3,271,AS,exp,32,↓,down,↓,0.5227542999200523,True,15,1,0,7
Y2-S2-250K25,3,272,AS,exp,40,↑,down,↓,0.8443245999515057,False,14,-1,1,8
Y2-S2-250K25,3,273,AS,exp,31,→,right,→,0.44677519984543324,True,15,-1,0,8
Y2-S2-250K25,3,274,AS,exp,32,↑,up,↑,0.7282954999245703,True,15,-1,0,8
Y2-S2-250K25,3,275,AS,exp,36,←,left,←,0.5998666998930275,True,15,1,1,9
Y2-S2-250K25,3,276,AS,exp,50,→,right,→,0.4225917998701334,True,14,1,0,9
Y2-S2-250K25,3,277,AS,exp,46,←,right,→,0.6230639996938407,False,14,-1,1,10
Y2-S2-250K25,3,278,AS,exp,25,↑,down,↓,0.6994889997877181,False,15,-1,0,10
Y2-S2-250K25,3,279,AS,exp,37,↓,down,↓,0.724853000137955,True,16,-1,0,10
Y2-S2-250K25,3,280,AS,exp,32,→,right,→,1.1821136996150017,True,16,-1,0,10
Y2-S2-250K25,3,281,AS,exp,40,←,right,→,0.6394783998839557,False,16,-1,0,10
Y2-S2-250K25,3,282,AS,exp,47,↓,down,↓,0.6988442996516824,True,17,-1,0,10
Y2-S2-250K25,3,283,AS,exp,44,←,right,→,0.5166476997546852,False,17,-1,0,10
Y2-S2-250K25,3,284,AS,exp,27,→,right,→,1.2263730997219682,True,18,-1,0,10
Y2-S2-250K25,3,285,AS,exp,35,←,left,←,0.4695206000469625,True,18,-1,0,10
Y2-S2-250K25,3,286,AS,exp,38,→,right,→,0.5852691000327468,True,18,1,1,11
Y2-S2-250K25,3,287,AS,exp,45,↓,down,↓,1.2754179001785815,True,17,1,0,11
Y2-S2-250K25,3,288,AS,exp,34,→,right,→,0.6848661000840366,True,17,1,0,11
Y2-S2-250K25,3,289,AS,exp,31,↑,right,→,0.9229937000200152,False,17,-1,1,12
Y2-S2-250K25,3,290,AS,exp,25,↓,down,↓,0.7407849002629519,True,18,-1,0,12
Y2-S2-250K25,3,291,AS,exp,40,↑,up,↑,0.540436299983412,True,18,-1,0,12
Y2-S2-250K25,3,292,AS,exp,45,↓,right,→,0.5392990997061133,False,18,-1,0,12
Y2-S2-250K25,3,293,AS,exp,28,↑,up,↑,0.5712721003219485,True,19,-1,0,12
Y2-S2-250K25,3,294,AS,exp,49,↓,down,↓,1.2108176001347601,True,19,-1,0,12
Y2-S2-250K25,3,295,AS,exp,40,↑,up,↑,0.5009638001210988,True,19,1,1,13
Y2-S2-250K25,3,296,AS,exp,46,→,right,→,0.4989057998172939,True,18,1,0,13
Y2-S2-250K25,3,297,AS,exp,49,←,right,→,0.5996662001125515,False,18,-1,1,14
Y2-S2-250K25,3,298,AS,exp,28,↓,right,→,0.6539442003704607,False,19,-1,0,14
Y2-S2-250K25,3,299,AS,exp,32,→,right,→,0.593363800086081,True,20,-1,0,14
Y2-S2-250K25,3,300,AS,exp,30,↓,right,→,1.1816401001997292,False,20,-1,0,14
Y2-S2-250K25,3,301,AS,exp,45,→,right,→,0.48406590009108186,True,21,-1,0,14
Y2-S2-250K25,3,302,AS,exp,31,↑,up,↑,1.3110540001653135,True,21,-1,0,14
Y2-S2-250K25,3,303,AS,exp,41,←,left,←,0.5221615000627935,True,21,1,1,15
Y2-S2-250K25,3,304,AS,exp,45,↑,right,→,0.9958938998170197,False,20,-1,1,16
Y2-S2-250K25,4,305,PS,intra_train,25,→,right,→,0.8358714999631047,True,15,-,-,-
Y2-S2-250K25,4,306,PS,intra_train,30,↑,up,↑,0.859332799911499,True,15,-,-,-
Y2-S2-250K25,4,307,PS,intra_train,27,↓,down,↓,0.868266399949789,True,15,-,-,-
Y2-S2-250K25,4,308,PS,intra_train,43,→,right,→,0.7123352000489831,True,15,-,-,-
Y2-S2-250K25,4,309,PS,intra_train,29,↓,down,↓,0.9394300999119878,True,15,-,-,-
Y2-S2-250K25,4,310,PS,exp,26,→,right,→,0.7451686998829246,True,10,0,0,0
Y2-S2-250K25,4,311,PS,exp,28,↓,down,↓,0.5448755999095738,True,10,0,0,0
Y2-S2-250K25,4,312,PS,exp,45,↑,up,↑,0.6639490001834929,True,10,1,0,0
Y2-S2-250K25,4,313,PS,exp,26,↓,down,↓,0.4835315002128482,True,9,1,0,0
Y2-S2-250K25,4,314,PS,exp,49,←,left,←,0.5405704001896083,True,9,1,0,0
Y2-S2-250K25,4,315,PS,exp,36,→,right,→,0.6004618001170456,True,9,1,0,0
Y2-S2-250K25,4,316,PS,exp,28,↓,down,↓,0.4225496998988092,True,8,1,0,0
Y2-S2-250K25,4,317,PS,exp,27,←,left,←,0.4818030004389584,True,8,1,0,0
Y2-S2-250K25,4,318,PS,exp,49,→,right,→,0.47604670003056526,True,8,1,0,0
Y2-S2-250K25,4,319,PS,exp,47,←,left,←,0.5114704999141395,True,7,1,0,0
Y2-S2-250K25,4,320,PS,exp,37,↑,up,↑,0.5018767998553813,True,7,1,0,0
Y2-S2-250K25,4,321,PS,exp,46,↓,down,↓,0.561385199893266,True,7,1,0,0
Y2-S2-250K25,4,322,PS,exp,25,→,right,→,0.4693598998710513,True,6,1,0,0
Y2-S2-250K25,4,323,PS,exp,28,↓,down,↓,0.4673129003494978,True,6,1,0,0
Y2-S2-250K25,4,324,PS,exp,40,→,left,←,1.0810554004274309,False,6,-1,1,1
Y2-S2-250K25,4,325,PS,exp,50,↑,down,↓,0.7056678999215364,False,7,-1,0,1
Y2-S2-250K25,4,326,PS,exp,38,←,left,←,0.5278590000234544,True,8,-1,0,1
Y2-S2-250K25,4,327,PS,exp,25,→,right,→,0.4647202999331057,True,8,-1,0,1
Y2-S2-250K25,4,328,PS,exp,25,↓,right,→,0.6462493003346026,False,8,-1,0,1
Y2-S2-250K25,4,329,PS,exp,26,↑,right,→,0.873870899900794,False,9,-1,0,1
Y2-S2-250K25,4,330,PS,exp,35,↓,left,←,0.5619556996971369,False,10,-1,0,1
Y2-S2-250K25,4,331,PS,exp,41,↑,right,→,0.6817439999431372,False,11,-1,0,1
Y2-S2-250K25,4,332,PS,exp,43,↓,down,↓,0.7195413000881672,True,12,-1,0,1
Y2-S2-250K25,4,333,PS,exp,37,→,right,→,0.7760594002902508,True,12,-1,0,1
Y2-S2-250K25,4,334,PS,exp,35,↓,right,→,1.130368999671191,False,12,-1,0,1
Y2-S2-250K25,4,335,PS,exp,47,←,left,←,0.6264621000736952,True,13,-1,0,1
Y2-S2-250K25,4,336,PS,exp,45,→,right,→,0.7922898000106215,True,13,-1,0,1
Y2-S2-250K25,4,337,PS,exp,44,↓,left,←,0.7235941998660564,False,13,-1,0,1
Y2-S2-250K25,4,338,PS,exp,30,←,right,→,0.5847962000407279,False,14,-1,0,1
Y2-S2-250K25,4,339,PS,exp,50,→,right,→,0.5551145002245903,True,15,-1,0,1
Y2-S2-250K25,4,340,PS,exp,33,↓,right,→,0.5997739001177251,False,15,-1,0,1
Y2-S2-250K25,4,341,PS,exp,38,←,left,←,0.7096069999970496,True,16,-1,0,1
Y2-S2-250K25,4,342,PS,exp,36,→,no_key,no_letter,-1.0,False,16,-1,0,1
Y2-S2-250K25,4,343,PS,exp,46,↑,up,↑,0.8900013999082148,True,17,-1,0,1
Y2-S2-250K25,4,344,PS,exp,39,←,left,←,0.5197817999869585,True,17,-1,0,1
Y2-S2-250K25,4,345,PS,exp,31,↓,down,↓,0.48973200004547834,True,17,1,1,2
Y2-S2-250K25,4,346,PS,exp,41,↑,up,↑,0.5127032999880612,True,16,1,0,2
Y2-S2-250K25,4,347,PS,exp,49,↓,down,↓,0.739794900175184,True,16,1,0,2
Y2-S2-250K25,4,348,PS,exp,36,→,right,→,0.44446250004693866,True,16,1,0,2
Y2-S2-250K25,4,349,PS,exp,26,↑,up,↑,0.6432888000272214,True,15,1,0,2
Y2-S2-250K25,4,350,PS,exp,47,←,left,←,0.6261008996516466,True,15,1,0,2
Y2-S2-250K25,4,351,PS,exp,25,↑,right,→,0.8666937001980841,False,15,-1,1,3
Y2-S2-250K25,4,352,PS,exp,34,↓,down,↓,0.5070585999637842,True,16,-1,0,3
Y2-S2-250K25,4,353,PS,exp,44,→,right,→,0.45280470000579953,True,16,-1,0,3
Y2-S2-250K25,4,354,PS,exp,29,↓,down,↓,0.5061821001581848,True,16,1,1,4
Y2-S2-250K25,4,355,PS,exp,50,←,left,←,0.44664360024034977,True,15,1,0,4
Y2-S2-250K25,4,356,PS,exp,49,↓,down,↓,0.5623521995730698,True,15,1,0,4
Y2-S2-250K25,4,357,PS,exp,25,↑,right,→,0.43184039974585176,False,15,-1,1,5
Y2-S2-250K25,4,358,PS,exp,28,↓,down,↓,0.4859853000380099,True,16,-1,0,5
Y2-S2-250K25,4,359,PS,exp,30,↑,up,↑,0.6147405998781323,True,16,-1,0,5
Y2-S2-250K25,4,360,PS,exp,42,↓,down,↓,0.5864790002815425,True,16,1,1,6
Y2-S2-250K25,4,361,PS,exp,46,↑,up,↑,0.4468421000055969,True,15,1,0,6
Y2-S2-250K25,4,362,PS,exp,48,→,right,→,0.6186024998314679,True,15,1,0,6
Y2-S2-250K25,4,363,PS,exp,27,←,left,←,0.42128469981253147,True,15,1,0,6
Y2-S2-250K25,4,364,PS,exp,27,↓,down,↓,0.6675490001216531,True,14,1,0,6
Y2-S2-250K25,4,365,PS,exp,27,→,right,→,0.485720899887383,True,14,1,0,6
Y2-S2-250K25,4,366,PS,exp,25,←,left,←,0.5531848999671638,True,14,1,0,6
Y2-S2-250K25,4,367,PS,exp,41,↑,up,↑,0.5533638000488281,True,13,1,0,6
Y2-S2-250K25,4,368,PS,exp,46,←,left,←,0.5015576998703182,True,13,1,0,6
Y2-S2-250K25,4,369,PS,exp,37,↓,down,↓,0.4737354996614158,True,13,1,0,6
Y2-S2-250K25,4,370,PS,exp,42,←,left,←,0.45346019975841045,True,12,1,0,6
Y2-S2-250K25,4,371,PS,exp,28,→,right,→,0.5319884000346065,True,12,1,0,6
Y2-S2-250K25,4,372,PS,exp,40,↑,up,↑,0.5550971999764442,True,12,1,0,6
Y2-S2-250K25,4,373,PS,exp,45,→,right,→,0.4376735999248922,True,11,1,0,6
Y2-S2-250K25,4,374,PS,exp,42,↑,right,→,0.707392199896276,False,11,-1,1,7
Y2-S2-250K25,4,375,PS,exp,36,→,right,→,0.4879095000214875,True,12,-1,0,7
Y2-S2-250K25,4,376,PS,exp,31,↓,right,→,0.3866131999529898,False,12,-1,0,7
Y2-S2-250K25,4,377,PS,exp,28,↑,up,↑,0.7130081998184323,True,13,-1,0,7
Y2-S2-250K25,4,378,PS,exp,36,→,right,→,0.5805591996759176,True,13,-1,0,7
Y2-S2-250K25,4,379,PS,exp,35,←,left,←,0.5093212998472154,True,13,1,1,8
Y2-S2-250K25,4,380,PS,exp,48,↑,up,↑,0.5207410999573767,True,12,1,0,8
Y2-S2-250K25,4,381,PS,exp,27,↓,down,↓,0.5445472998544574,True,12,1,0,8
Y2-S2-250K25,4,382,PS,exp,36,↑,right,→,0.6292564999312162,False,12,-1,1,9
Y2-S2-250K25,4,383,PS,exp,41,→,right,→,0.5447856998071074,True,13,-1,0,9
Y2-S2-250K25,4,384,PS,exp,41,↑,right,→,0.6319551998749375,False,13,-1,0,9
Y2-S2-250K25,4,385,PS,exp,30,↓,up,↑,1.1487972000613809,False,14,-1,0,9
Y2-S2-250K25,4,386,PS,exp,31,←,left,←,0.5488625001162291,True,15,-1,0,9
Y2-S2-250K25,4,387,PS,exp,28,↓,down,↓,0.4675785000436008,True,15,-1,0,9
Y2-S2-250K25,4,388,PS,exp,27,↑,up,↑,1.0769957001321018,True,15,1,1,10
Y2-S2-250K25,4,389,PS,exp,39,←,left,←,0.42314499989151955,True,14,1,0,10
Y2-S2-250K25,4,390,PS,exp,37,↓,down,↓,0.5989589998498559,True,14,1,0,10
Y2-S2-250K25,4,391,PS,exp,37,↑,up,↑,0.476133500225842,True,14,1,0,10
Y2-S2-250K25,4,392,PS,exp,29,→,right,→,0.5705007002688944,True,13,1,0,10
Y2-S2-250K25,4,393,PS,exp,36,↓,right,→,0.6300618997775018,False,13,-1,1,11
Y2-S2-250K25,4,394,PS,exp,47,←,left,←,0.5918316999450326,True,14,-1,0,11
Y2-S2-250K25,4,395,PS,exp,45,↓,right,→,0.7474777000024915,False,14,-1,0,11
Y2-S2-250K25,4,396,PS,exp,35,←,left,←,0.6049964996054769,True,15,-1,0,11
Y2-S2-250K25,4,397,PS,exp,36,→,right,→,0.4889249000698328,True,15,-1,0,11
Y2-S2-250K25,4,398,PS,exp,34,↑,up,↑,0.5430270000360906,True,15,1,1,12
Y2-S2-250K25,4,399,PS,exp,30,↓,down,↓,0.5025365999899805,True,14,1,0,12
Y2-S2-250K25,4,400,PS,exp,46,←,left,←,0.4120368999429047,True,14,1,0,12
Y2-S2-250K25,4,401,PS,exp,42,→,right,→,0.5972447004169226,True,14,1,0,12
Y2-S2-250K25,4,402,PS,exp,45,↑,right,→,0.8392336000688374,False,13,-1,1,13
Y2-S2-250K25,4,403,PS,exp,25,↓,down,↓,0.6508921002969146,True,14,-1,0,13
Y2-S2-250K25,4,404,PS,exp,41,↑,up,↑,0.7058922001160681,True,14,-1,0,13
Y2-S2-250K25,4,405,PS,exp,40,→,right,→,1.6190745998173952,True,14,1,1,14
Y2-S2-250K25,4,406,PS,exp,39,↓,up,↑,1.0282848998904228,False,13,-1,1,15
Y2-S2-250K25,4,407,PS,exp,35,←,left,←,0.737457999959588,True,14,-1,0,15
Y2-S2-250K25,4,408,PS,exp,31,↓,down,↓,0.5728012002073228,True,14,-1,0,15
Y2-S2-250K25,4,409,PS,exp,41,←,left,←,1.334449500311166,True,14,1,1,16
Y2-S2-250K25,5,410,PS,intra_train,28,↓,down,↓,0.7034773998893797,True,15,-,-,-
Y2-S2-250K25,5,411,PS,intra_train,45,↑,up,↑,0.800420599989593,True,15,-,-,-
Y2-S2-250K25,5,412,PS,intra_train,25,←,left,←,0.6285425997339189,True,15,-,-,-
Y2-S2-250K25,5,413,PS,intra_train,30,↓,down,↓,0.7561598997563124,True,15,-,-,-
Y2-S2-250K25,5,414,PS,intra_train,30,→,right,→,0.7516620997339487,True,15,-,-,-
Y2-S2-250K25,5,415,PS,exp,33,←,left,←,0.7216520998626947,True,10,0,0,0
Y2-S2-250K25,5,416,PS,exp,36,↓,down,↓,0.6615113997831941,True,10,0,0,0
Y2-S2-250K25,5,417,PS,exp,33,↑,right,→,0.6163468998856843,False,10,-1,0,0
Y2-S2-250K25,5,418,PS,exp,39,←,left,←,0.4085030001588166,True,11,-1,0,0
Y2-S2-250K25,5,419,PS,exp,28,↓,down,↓,0.6240321001969278,True,11,-1,0,0
Y2-S2-250K25,5,420,PS,exp,47,↑,down,↓,0.9600393995642662,False,11,-1,0,0
Y2-S2-250K25,5,421,PS,exp,31,↓,down,↓,0.7593423002399504,True,12,-1,0,0
Y2-S2-250K25,5,422,PS,exp,36,↑,up,↑,0.6436684997752309,True,12,-1,0,0
Y2-S2-250K25,5,423,PS,exp,29,→,right,→,0.8606735002249479,True,12,1,1,1
Y2-S2-250K25,5,424,PS,exp,46,←,left,←,0.6903777001425624,True,11,1,0,1
Y2-S2-250K25,5,425,PS,exp,30,↑,up,↑,0.6601950000040233,True,11,1,0,1
Y2-S2-250K25,5,426,PS,exp,37,←,right,→,0.9357067001983523,False,11,-1,1,2
Y2-S2-250K25,5,427,PS,exp,25,↓,right,→,1.012757099699229,False,12,-1,0,2
Y2-S2-250K25,5,428,PS,exp,33,↑,up,↑,0.616325800307095,True,13,-1,0,2
Y2-S2-250K25,5,429,PS,exp,40,↓,down,↓,0.6044351002201438,True,13,-1,0,2
Y2-S2-250K25,5,430,PS,exp,37,→,left,←,0.7413343000225723,False,13,-1,0,2
Y2-S2-250K25,5,431,PS,exp,48,←,left,←,0.6231307997368276,True,14,-1,0,2
Y2-S2-250K25,5,432,PS,exp,35,↑,up,↑,0.4923282000236213,True,14,-1,0,2
Y2-S2-250K25,5,433,PS,exp,25,↓,down,↓,0.49924790021032095,True,14,1,1,3
Y2-S2-250K25,5,434,PS,exp,42,↑,up,↑,0.4857677002437413,True,13,1,0,3
Y2-S2-250K25,5,435,PS,exp,45,→,right,→,0.5554819996468723,True,13,1,0,3
Y2-S2-250K25,5,436,PS,exp,28,←,left,←,0.4455403001047671,True,13,1,0,3
Y2-S2-250K25,5,437,PS,exp,25,→,right,→,0.4835369000211358,True,12,1,0,3
Y2-S2-250K25,5,438,PS,exp,50,↓,right,→,0.5878108004108071,False,12,-1,1,4
Y2-S2-250K25,5,439,PS,exp,45,←,left,←,0.6983095002360642,True,13,-1,0,4
Y2-S2-250K25,5,440,PS,exp,38,↓,right,→,0.46815240010619164,False,13,-1,0,4
Y2-S2-250K25,5,441,PS,exp,41,→,right,→,0.5217357003130019,True,14,-1,0,4
Y2-S2-250K25,5,442,PS,exp,30,←,left,←,0.45655269967392087,True,14,-1,0,4
Y2-S2-250K25,5,443,PS,exp,41,→,right,→,0.45911539997905493,True,14,1,1,5
Y2-S2-250K25,5,444,PS,exp,44,↓,right,→,0.4135374999605119,False,13,-1,1,6
Y2-S2-250K25,5,445,PS,exp,44,←,right,→,0.4724005996249616,False,14,-1,0,6
Y2-S2-250K25,5,446,PS,exp,37,→,right,→,1.3851156001910567,True,15,-1,0,6
Y2-S2-250K25,5,447,PS,exp,50,↓,down,↓,0.5200203000567853,True,15,-1,0,6
Y2-S2-250K25,5,448,PS,exp,35,→,right,→,0.4909360003657639,True,15,1,1,7
Y2-S2-250K25,5,449,PS,exp,30,↓,right,→,0.4627656997181475,False,14,-1,1,8
Y2-S2-250K25,5,450,PS,exp,46,←,right,→,0.6572024999186397,False,15,-1,0,8
Y2-S2-250K25,5,451,PS,exp,40,↓,down,↓,0.46595160011202097,True,16,-1,0,8
Y2-S2-250K25,5,452,PS,exp,41,↑,up,↑,0.8091723998077214,True,16,-1,0,8
Y2-S2-250K25,5,453,PS,exp,47,←,left,←,0.4438062999397516,True,16,1,1,9
Y2-S2-250K25,5,454,PS,exp,43,↓,down,↓,0.4236829997971654,True,15,1,0,9
Y2-S2-250K25,5,455,PS,exp,26,←,left,←,0.663304999936372,True,15,1,0,9
Y2-S2-250K25,5,456,PS,exp,48,↑,up,↑,0.8784994999878109,True,15,1,0,9
Y2-S2-250K25,5,457,PS,exp,40,←,left,←,0.6340948999859393,True,14,1,0,9
Y2-S2-250K25,5,458,PS,exp,28,→,right,→,0.6561066000722349,True,14,1,0,9
Y2-S2-250K25,5,459,PS,exp,50,↓,right,→,0.6541377999819815,False,14,-1,1,10
Y2-S2-250K25,5,460,PS,exp,41,↑,up,↑,0.9103258000686765,True,15,-1,0,10
Y2-S2-250K25,5,461,PS,exp,43,←,right,→,0.7683933000080287,False,15,-1,0,10
Y2-S2-250K25,5,462,PS,exp,32,↑,up,↑,0.503887599799782,True,16,-1,0,10
Y2-S2-250K25,5,463,PS,exp,45,↓,down,↓,0.6344887004233897,True,16,-1,0,10
Y2-S2-250K25,5,464,PS,exp,27,↑,up,↑,0.5646966001950204,True,16,1,1,11
Y2-S2-250K25,5,465,PS,exp,47,←,left,←,0.5447619999758899,True,15,1,0,11
Y2-S2-250K25,5,466,PS,exp,41,→,right,→,0.4185770000331104,True,15,1,0,11
Y2-S2-250K25,5,467,PS,exp,37,↓,down,↓,0.5733185997232795,True,15,1,0,11
Y2-S2-250K25,5,468,PS,exp,39,→,right,→,0.7135827001184225,True,14,1,0,11
Y2-S2-250K25,5,469,PS,exp,36,↓,down,↓,0.477146599907428,True,14,1,0,11
Y2-S2-250K25,5,470,PS,exp,36,←,left,←,0.5180896003730595,True,14,1,0,11
Y2-S2-250K25,5,471,PS,exp,40,↓,down,↓,0.5212218998931348,True,13,1,0,11
Y2-S2-250K25,5,472,PS,exp,44,←,left,←,0.5620929002761841,True,13,1,0,11
Y2-S2-250K25,5,473,PS,exp,36,↓,down,↓,0.49731740029528737,True,13,1,0,11
Y2-S2-250K25,5,474,PS,exp,43,→,right,→,0.6272558001801372,True,12,1,0,11
Y2-S2-250K25,5,475,PS,exp,26,←,left,←,0.33363759983330965,True,12,1,0,11
Y2-S2-250K25,5,476,PS,exp,39,→,right,→,0.7035933001898229,True,12,1,0,11
Y2-S2-250K25,5,477,PS,exp,50,↑,up,↑,0.7094181003049016,True,11,1,0,11
Y2-S2-250K25,5,478,PS,exp,26,→,right,→,0.48245059978216887,True,11,1,0,11
Y2-S2-250K25,5,479,PS,exp,46,↓,down,↓,0.6093144998885691,True,11,1,0,11
Y2-S2-250K25,5,480,PS,exp,41,←,left,←,0.5615369998849928,True,10,1,0,11
Y2-S2-250K25,5,481,PS,exp,46,↑,up,↑,0.6108993999660015,True,10,1,0,11
Y2-S2-250K25,5,482,PS,exp,25,←,left,←,0.5719071002677083,True,10,1,0,11
Y2-S2-250K25,5,483,PS,exp,34,↑,right,→,0.5334822000004351,False,9,-1,1,12
Y2-S2-250K25,5,484,PS,exp,27,→,right,→,0.5200395998544991,True,10,-1,0,12
Y2-S2-250K25,5,485,PS,exp,39,←,left,←,0.3900914997793734,True,10,-1,0,12
Y2-S2-250K25,5,486,PS,exp,48,↑,up,↑,0.6098007000982761,True,10,1,1,13
Y2-S2-250K25,5,487,PS,exp,36,→,right,→,1.1989509998820722,True,9,1,0,13
Y2-S2-250K25,5,488,PS,exp,26,↑,right,→,0.650273300241679,False,9,-1,1,14
Y2-S2-250K25,5,489,PS,exp,33,↓,left,←,0.514812100213021,False,10,-1,0,14
Y2-S2-250K25,5,490,PS,exp,46,↑,down,↓,0.649218900129199,False,11,-1,0,14
Y2-S2-250K25,5,491,PS,exp,36,↓,right,→,0.7049302998930216,False,12,-1,0,14
Y2-S2-250K25,5,492,PS,exp,47,←,left,←,0.4547710004262626,True,13,-1,0,14
Y2-S2-250K25,5,493,PS,exp,34,↓,down,↓,0.5647765002213418,True,13,-1,0,14
Y2-S2-250K25,5,494,PS,exp,25,←,left,←,0.47553890012204647,True,13,1,1,15
Y2-S2-250K25,5,495,PS,exp,49,↑,up,↑,0.4941825997084379,True,12,1,0,15
Y2-S2-250K25,5,496,PS,exp,48,→,right,→,0.3338923999108374,True,12,1,0,15
Y2-S2-250K25,5,497,PS,exp,41,←,left,←,0.3824122999794781,True,12,1,0,15
Y2-S2-250K25,5,498,PS,exp,44,→,right,→,0.5173363997600973,True,11,1,0,15
Y2-S2-250K25,5,499,PS,exp,46,↓,down,↓,0.5128346998244524,True,11,1,0,15
Y2-S2-250K25,5,500,PS,exp,42,←,left,←,0.5420250999741256,True,11,1,0,15
Y2-S2-250K25,5,501,PS,exp,46,↑,right,→,0.526751599740237,False,10,-1,1,16
Y2-S2-250K25,6,502,AS,intra_train,33,↓,down,↓,1.1005208999849856,True,28,-,-,-
Y2-S2-250K25,6,503,AS,intra_train,49,→,right,→,0.7123783002607524,True,28,-,-,-
Y2-S2-250K25,6,504,AS,intra_train,33,←,right,→,0.6917329002171755,False,28,-,-,-
Y2-S2-250K25,6,505,AS,intra_train,33,→,no_key,no_letter,-1.0,False,28,-,-,-
Y2-S2-250K25,6,506,AS,intra_train,30,←,left,←,0.5839945003390312,True,28,-,-,-
Y2-S2-250K25,6,507,AS,exp,36,→,left,←,0.8719063000753522,False,19,-1,0,0
Y2-S2-250K25,6,508,AS,exp,29,←,left,←,0.6949799000285566,True,20,-1,0,0
Y2-S2-250K25,6,509,AS,exp,37,↓,down,↓,1.2174752000719309,True,20,-1,0,0
Y2-S2-250K25,6,510,AS,exp,28,→,left,←,0.9451222000643611,False,20,-1,0,0
Y2-S2-250K25,6,511,AS,exp,26,←,right,→,0.6636667000129819,False,21,-1,0,0
Y2-S2-250K25,6,512,AS,exp,31,↓,no_key,no_letter,-1.0,False,22,-1,0,0
Y2-S2-250K25,6,513,AS,exp,33,→,right,→,0.3838225998915732,True,23,-1,0,0
Y2-S2-250K25,6,514,AS,exp,37,↑,up,↑,0.5177886998280883,True,23,-1,0,0
Y2-S2-250K25,6,515,AS,exp,31,←,left,←,0.517158200033009,True,23,1,1,1
Y2-S2-250K25,6,516,AS,exp,50,→,right,→,0.5006268001161516,True,22,1,0,1
Y2-S2-250K25,6,517,AS,exp,44,↓,down,↓,0.5005218000151217,True,22,1,0,1
Y2-S2-250K25,6,518,AS,exp,36,↑,right,→,0.9082589000463486,False,22,-1,1,2
Y2-S2-250K25,6,519,AS,exp,36,→,right,→,0.7174592996016145,True,23,-1,0,2
Y2-S2-250K25,6,520,AS,exp,38,←,left,←,0.7631339002400637,True,23,-1,0,2
Y2-S2-250K25,6,521,AS,exp,47,↓,down,↓,0.9491546000353992,True,23,1,1,3
Y2-S2-250K25,6,522,AS,exp,42,→,right,→,0.9286992000415921,True,22,1,0,3
Y2-S2-250K25,6,523,AS,exp,48,↓,down,↓,0.8938062996603549,True,22,1,0,3
Y2-S2-250K25,6,524,AS,exp,35,→,left,←,1.0381491999141872,False,22,-1,1,4
Y2-S2-250K25,6,525,AS,exp,46,↑,right,→,0.9260330996476114,False,23,-1,0,4
Y2-S2-250K25,6,526,AS,exp,30,→,right,→,0.8887199000455439,True,24,-1,0,4
Y2-S2-250K25,6,527,AS,exp,36,↑,up,↑,0.930617599748075,True,24,-1,0,4
Y2-S2-250K25,6,528,AS,exp,26,↓,down,↓,0.6353380996733904,True,24,1,1,5
Y2-S2-250K25,6,529,AS,exp,29,↑,up,↑,0.450458399951458,True,23,1,0,5
Y2-S2-250K25,6,530,AS,exp,30,↓,down,↓,0.45065739983692765,True,23,1,0,5
Y2-S2-250K25,6,531,AS,exp,33,↑,up,↑,1.538464699871838,True,23,1,0,5
Y2-S2-250K25,6,532,AS,exp,38,←,left,←,0.8886003000661731,True,22,1,0,5
Y2-S2-250K25,6,533,AS,exp,34,↓,down,↓,0.8222898002713919,True,22,1,0,5
Y2-S2-250K25,6,534,AS,exp,33,←,left,←,0.769397399853915,True,22,1,0,5
Y2-S2-250K25,6,535,AS,exp,30,↑,up,↑,0.4343437999486923,True,21,1,0,5
Y2-S2-250K25,6,536,AS,exp,33,←,left,←,0.7237744997255504,True,21,1,0,5
Y2-S2-250K25,6,537,AS,exp,49,↑,right,→,0.9892445001751184,False,21,-1,1,6
Y2-S2-250K25,6,538,AS,exp,34,←,left,←,0.4674758999608457,True,22,-1,0,6
Y2-S2-250K25,6,539,AS,exp,43,↓,up,↑,0.8553458000533283,False,22,-1,0,6
Y2-S2-250K25,6,540,AS,exp,42,↑,up,↑,0.8672120999544859,True,23,-1,0,6
Y2-S2-250K25,6,541,AS,exp,26,←,left,←,0.5006042998284101,True,23,-1,0,6
Y2-S2-250K25,6,542,AS,exp,45,→,right,→,0.383903999812901,True,23,1,1,7
Y2-S2-250K25,6,543,AS,exp,30,←,left,←,0.4840954001992941,True,22,1,0,7
Y2-S2-250K25,6,544,AS,exp,37,↓,down,↓,0.5006976001895964,True,22,1,0,7
Y2-S2-250K25,6,545,AS,exp,46,→,right,→,0.8367771999910474,True,22,1,0,7
Y2-S2-250K25,6,546,AS,exp,26,↑,up,↑,0.4674732997082174,True,21,1,0,7
Y2-S2-250K25,6,547,AS,exp,35,↓,down,↓,0.7820133999921381,True,21,1,0,7
Y2-S2-250K25,6,548,AS,exp,28,↑,up,↑,1.2764805001206696,True,21,1,0,7
Y2-S2-250K25,6,549,AS,exp,36,↓,right,→,0.9381702998653054,False,20,-1,1,8
Y2-S2-250K25,6,550,AS,exp,33,←,right,→,1.5066972998902202,False,21,-1,0,8
Y2-S2-250K25,6,551,AS,exp,28,→,left,←,0.7863889001309872,False,22,-1,0,8
Y2-S2-250K25,6,552,AS,exp,39,↑,up,↑,0.48461930034682155,True,23,-1,0,8
Y2-S2-250K25,6,553,AS,exp,46,←,left,←,0.6838841997087002,True,23,-1,0,8
Y2-S2-250K25,6,554,AS,exp,26,↓,left,←,0.9588111001066864,False,23,-1,0,8
Y2-S2-250K25,6,555,AS,exp,34,→,right,→,0.48365870025008917,True,24,-1,0,8
Y2-S2-250K25,6,556,AS,exp,39,↑,right,→,0.8544296002946794,False,24,-1,0,8
Y2-S2-250K25,6,557,AS,exp,30,↓,right,→,1.1066705002449453,False,25,-1,0,8
Y2-S2-250K25,6,558,AS,exp,35,←,left,←,0.9793913001194596,True,26,-1,0,8
Y2-S2-250K25,6,559,AS,exp,39,↑,up,↑,0.9130822997540236,True,26,-1,0,8
Y2-S2-250K25,6,560,AS,exp,47,→,right,→,0.7194674001075327,True,26,1,1,9
Y2-S2-250K25,6,561,AS,exp,31,↓,down,↓,0.7551381997764111,True,25,1,0,9
Y2-S2-250K25,6,562,AS,exp,44,←,right,→,0.9758319999091327,False,25,-1,1,10
Y2-S2-250K25,6,563,AS,exp,34,↓,down,↓,0.5332909999415278,True,26,-1,0,10
Y2-S2-250K25,6,564,AS,exp,45,←,left,←,0.45068860007449985,True,26,-1,0,10
Y2-S2-250K25,6,565,AS,exp,35,→,right,→,0.8492307001724839,True,26,1,1,11
Y2-S2-250K25,6,566,AS,exp,27,↓,right,→,1.8138723000884056,False,25,-1,1,12
Y2-S2-250K25,6,567,AS,exp,30,←,left,←,0.86157470010221,True,26,-1,0,12
Y2-S2-250K25,6,568,AS,exp,31,→,right,→,0.40084500005468726,True,26,-1,0,12
Y2-S2-250K25,6,569,AS,exp,26,↑,up,↑,0.8373524001799524,True,26,1,1,13
Y2-S2-250K25,6,570,AS,exp,41,←,left,←,0.8841739003546536,True,25,1,0,13
Y2-S2-250K25,6,571,AS,exp,42,↓,down,↓,0.5172669002786279,True,25,1,0,13
Y2-S2-250K25,6,572,AS,exp,27,↑,up,↑,0.5174722000956535,True,25,1,0,13
Y2-S2-250K25,6,573,AS,exp,38,↓,down,↓,0.5005529001355171,True,24,1,0,13
Y2-S2-250K25,6,574,AS,exp,48,←,left,←,0.5003257002681494,True,24,1,0,13
Y2-S2-250K25,6,575,AS,exp,32,→,right,→,0.40055649960413575,True,24,1,0,13
Y2-S2-250K25,6,576,AS,exp,45,↑,down,↓,0.9583079996518791,False,23,-1,1,14
Y2-S2-250K25,6,577,AS,exp,49,→,right,→,0.4507117001339793,True,24,-1,0,14
Y2-S2-250K25,6,578,AS,exp,45,↑,up,↑,0.783249800093472,True,24,-1,0,14
Y2-S2-250K25,6,579,AS,exp,27,→,right,→,0.467573500238359,True,24,1,1,15
Y2-S2-250K25,6,580,AS,exp,27,↓,down,↓,0.7298181997612119,True,23,1,0,15
Y2-S2-250K25,6,581,AS,exp,39,←,left,←,0.4840274997986853,True,23,1,0,15
Y2-S2-250K25,6,582,AS,exp,36,↓,down,↓,0.4337057997472584,True,23,1,0,15
Y2-S2-250K25,6,583,AS,exp,26,←,right,→,0.5600003995932639,False,22,-1,1,16
Y2-S2-250K25,7,584,AS,intra_train,49,→,right,→,0.735949800349772,True,28,-,-,-
Y2-S2-250K25,7,585,AS,intra_train,36,↓,down,↓,0.67126170033589,True,28,-,-,-
Y2-S2-250K25,7,586,AS,intra_train,36,→,right,→,0.7837709998711944,True,28,-,-,-
Y2-S2-250K25,7,587,AS,intra_train,43,↓,down,↓,0.7462438000366092,True,28,-,-,-
Y2-S2-250K25,7,588,AS,intra_train,26,→,right,→,0.8067196998745203,True,28,-,-,-
Y2-S2-250K25,7,589,AS,exp,42,↑,up,↑,0.5318621001206338,True,19,0,0,0
Y2-S2-250K25,7,590,AS,exp,29,←,right,→,0.8272786997258663,False,19,-1,0,0
Y2-S2-250K25,7,591,AS,exp,31,↑,up,↑,0.4674065001308918,True,20,-1,0,0
Y2-S2-250K25,7,592,AS,exp,46,→,right,→,0.659712300170213,True,20,-1,0,0
Y2-S2-250K25,7,593,AS,exp,32,↓,down,↓,0.41714749997481704,True,20,1,1,1
Y2-S2-250K25,7,594,AS,exp,26,→,right,→,0.6356583000160754,True,19,1,0,1
Y2-S2-250K25,7,595,AS,exp,43,↓,down,↓,0.6871909000910819,True,19,1,0,1
Y2-S2-250K25,7,596,AS,exp,38,↑,up,↑,0.49909779988229275,True,19,1,0,1
Y2-S2-250K25,7,597,AS,exp,32,→,right,→,0.735695700161159,True,18,1,0,1
Y2-S2-250K25,7,598,AS,exp,38,↑,up,↑,0.4992645997554064,True,18,1,0,1
Y2-S2-250K25,7,599,AS,exp,50,←,down,↓,0.8992812000215054,False,18,-1,1,2
Y2-S2-250K25,7,600,AS,exp,39,↑,up,↑,0.5083591002039611,True,19,-1,0,2
Y2-S2-250K25,7,601,AS,exp,36,→,right,→,0.7404901999980211,True,19,-1,0,2
Y2-S2-250K25,7,602,AS,exp,29,↓,down,↓,0.4878973001614213,True,19,1,1,3
Y2-S2-250K25,7,603,AS,exp,40,→,right,→,0.4173004999756813,True,18,1,0,3
Y2-S2-250K25,7,604,AS,exp,26,←,left,←,0.47151709999889135,True,18,1,0,3
Y2-S2-250K25,7,605,AS,exp,49,↓,up,↑,1.1762799001298845,False,18,-1,1,4
Y2-S2-250K25,7,606,AS,exp,44,←,right,→,0.7302618999965489,False,19,-1,0,4
Y2-S2-250K25,7,607,AS,exp,39,→,right,→,0.4674132000654936,True,20,-1,0,4
Y2-S2-250K25,7,608,AS,exp,37,↑,right,→,1.0410445998422801,False,20,-1,0,4
Y2-S2-250K25,7,609,AS,exp,28,←,left,←,0.4672364997677505,True,21,-1,0,4
Y2-S2-250K25,7,610,AS,exp,29,↑,up,↑,0.7931216000579298,True,21,-1,0,4
Y2-S2-250K25,7,611,AS,exp,33,←,left,←,0.5700032003223896,True,21,1,1,5
Y2-S2-250K25,7,612,AS,exp,50,↓,down,↓,0.4673812002874911,True,20,1,0,5
Y2-S2-250K25,7,613,AS,exp,49,→,right,→,0.8815623000264168,True,20,1,0,5
Y2-S2-250K25,7,614,AS,exp,28,↓,down,↓,0.4008763995952904,True,20,1,0,5
Y2-S2-250K25,7,615,AS,exp,26,↑,up,↑,0.5086072999984026,True,19,1,0,5
Y2-S2-250K25,7,616,AS,exp,39,←,left,←,0.4510094001889229,True,19,1,0,5
Y2-S2-250K25,7,617,AS,exp,45,→,right,→,0.9944922998547554,True,19,1,0,5
Y2-S2-250K25,7,618,AS,exp,50,↑,up,↑,0.38463079975917935,True,18,1,0,5
Y2-S2-250K25,7,619,AS,exp,49,↓,left,←,0.7951393001712859,False,18,-1,1,6
Y2-S2-250K25,7,620,AS,exp,43,←,right,→,0.8862469997256994,False,19,-1,0,6
Y2-S2-250K25,7,621,AS,exp,38,↑,left,←,0.8194132000207901,False,20,-1,0,6
Y2-S2-250K25,7,622,AS,exp,38,↓,down,↓,0.579042199999094,True,21,-1,0,6
Y2-S2-250K25,7,623,AS,exp,42,→,right,→,0.8262363001704216,True,21,-1,0,6
Y2-S2-250K25,7,624,AS,exp,30,←,left,←,0.9166540000587702,True,21,1,1,7
Y2-S2-250K25,7,625,AS,exp,33,↑,up,↑,0.46773399971425533,True,20,1,0,7
Y2-S2-250K25,7,626,AS,exp,39,↓,up,↑,0.848397099878639,False,20,-1,1,8
Y2-S2-250K25,7,627,AS,exp,49,←,right,→,0.7445013001561165,False,21,-1,0,8
Y2-S2-250K25,7,628,AS,exp,47,↓,down,↓,1.0482609998434782,True,22,-1,0,8
Y2-S2-250K25,7,629,AS,exp,46,→,right,→,0.48412320017814636,True,22,-1,0,8
Y2-S2-250K25,7,630,AS,exp,46,↓,right,→,0.9300402998924255,False,22,-1,0,8
Y2-S2-250K25,7,631,AS,exp,42,↑,up,↑,1.431745400186628,True,23,-1,0,8
Y2-S2-250K25,7,632,AS,exp,50,←,right,→,0.807372699957341,False,23,-1,0,8
Y2-S2-250K25,7,633,AS,exp,45,↓,right,→,1.5297348997555673,False,24,-1,0,8
Y2-S2-250K25,7,634,AS,exp,29,→,right,→,0.4339709999039769,True,25,-1,0,8
Y2-S2-250K25,7,635,AS,exp,34,↓,down,↓,0.7338918000459671,True,25,-1,0,8
Y2-S2-250K25,7,636,AS,exp,42,→,right,→,0.3849153001792729,True,25,1,1,9
Y2-S2-250K25,7,637,AS,exp,37,↓,down,↓,0.5004678000696003,True,24,1,0,9
Y2-S2-250K25,7,638,AS,exp,30,←,left,←,0.517045599874109,True,24,1,0,9
Y2-S2-250K25,7,639,AS,exp,30,→,right,→,0.434024800080806,True,24,1,0,9
Y2-S2-250K25,7,640,AS,exp,32,←,left,←,0.8338470999151468,True,23,1,0,9
Y2-S2-250K25,7,641,AS,exp,29,→,right,→,0.9597209002822638,True,23,1,0,9
Y2-S2-250K25,7,642,AS,exp,48,↓,right,→,0.467091899830848,False,23,-1,1,10
Y2-S2-250K25,7,643,AS,exp,29,←,left,←,0.4005887000821531,True,24,-1,0,10
Y2-S2-250K25,7,644,AS,exp,38,↓,left,←,0.5172015996649861,False,24,-1,0,10
Y2-S2-250K25,7,645,AS,exp,46,←,left,←,0.41718450002372265,True,25,-1,0,10
Y2-S2-250K25,7,646,AS,exp,37,→,right,→,0.4837834001518786,True,25,-1,0,10
Y2-S2-250K25,7,647,AS,exp,29,↑,right,→,0.6008477997966111,False,25,-1,0,10
Y2-S2-250K25,7,648,AS,exp,45,→,right,→,0.4011306003667414,True,26,-1,0,10
Y2-S2-250K25,7,649,AS,exp,49,←,left,←,1.7562265996821225,True,26,-1,0,10
Y2-S2-250K25,7,650,AS,exp,41,→,right,→,0.4011860000900924,True,26,1,1,11
Y2-S2-250K25,7,651,AS,exp,25,←,right,→,0.7673611999489367,False,25,-1,1,12
Y2-S2-250K25,7,652,AS,exp,31,↓,left,←,1.1184774995781481,False,26,-1,0,12
Y2-S2-250K25,7,653,AS,exp,39,→,right,→,0.5171429002657533,True,27,-1,0,12
Y2-S2-250K25,7,654,AS,exp,40,↑,up,↑,0.7723534000106156,True,27,-1,0,12
Y2-S2-250K25,7,655,AS,exp,31,←,left,←,0.5005907998420298,True,27,1,1,13
Y2-S2-250K25,7,656,AS,exp,47,→,right,→,0.7895713001489639,True,26,1,0,13
Y2-S2-250K25,7,657,AS,exp,36,↑,up,↑,0.6850658003240824,True,26,1,0,13
Y2-S2-250K25,7,658,AS,exp,29,→,right,→,0.7931498000398278,True,26,1,0,13
Y2-S2-250K25,7,659,AS,exp,40,↓,down,↓,0.7529211998917162,True,25,1,0,13
Y2-S2-250K25,7,660,AS,exp,32,→,right,→,0.45066529978066683,True,25,1,0,13
Y2-S2-250K25,7,661,AS,exp,44,←,right,→,1.2805123999714851,False,25,-1,1,14
Y2-S2-250K25,7,662,AS,exp,40,↓,down,↓,0.9275449002161622,True,26,-1,0,14
Y2-S2-250K25,7,663,AS,exp,43,↑,up,↑,0.9751808000728488,True,26,-1,0,14
Y2-S2-250K25,7,664,AS,exp,33,↓,down,↓,0.8104395000264049,True,26,1,1,15
Y2-S2-250K25,7,665,AS,exp,45,→,right,→,0.5007502003572881,True,25,1,0,15
Y2-S2-250K25,7,666,AS,exp,25,↓,down,↓,0.48410969972610474,True,25,1,0,15
Y2-S2-250K25,7,667,AS,exp,48,→,right,→,0.6931580998934805,True,25,1,0,15
Y2-S2-250K25,7,668,AS,exp,31,↑,up,↑,1.0148813002742827,True,24,1,0,15
Y2-S2-250K25,7,669,AS,exp,35,←,left,←,0.5173608995974064,True,24,1,0,15
Y2-S2-250K25,7,670,AS,exp,26,→,right,→,0.6667944001965225,True,24,1,0,15
Y2-S2-250K25,7,671,AS,exp,30,←,left,←,1.1884361002594233,True,23,1,0,15
Y2-S2-250K25,7,672,AS,exp,32,→,right,→,0.5743904998525977,True,23,1,0,15
Y2-S2-250K25,7,673,AS,exp,26,↓,right,→,0.9027439998462796,False,23,-1,1,16
Y2-S2-250K25,8,674,PS,intra_train,39,←,left,←,0.9022886003367603,True,15,-,-,-
Y2-S2-250K25,8,675,PS,intra_train,40,↑,up,↑,0.6168388002552092,True,15,-,-,-
Y2-S2-250K25,8,676,PS,intra_train,33,↓,down,↓,1.0486730001866817,True,15,-,-,-
Y2-S2-250K25,8,677,PS,intra_train,31,←,left,←,0.5334570999257267,True,15,-,-,-
Y2-S2-250K25,8,678,PS,intra_train,43,↑,up,↑,0.839398100040853,True,15,-,-,-
Y2-S2-250K25,8,679,PS,exp,32,←,up,↑,1.1052163997665048,False,10,-1,0,0
Y2-S2-250K25,8,680,PS,exp,30,↓,down,↓,0.7164416997693479,True,11,-1,0,0
Y2-S2-250K25,8,681,PS,exp,48,←,down,↓,1.1593009000644088,False,11,-1,0,0
Y2-S2-250K25,8,682,PS,exp,31,→,left,←,0.9494998003356159,False,12,-1,0,0
Y2-S2-250K25,8,683,PS,exp,29,↑,right,→,1.569955499842763,False,13,-1,0,0
Y2-S2-250K25,8,684,PS,exp,49,↓,left,←,0.797805399633944,False,14,-1,0,0
Y2-S2-250K25,8,685,PS,exp,41,←,left,←,0.6521303001791239,True,15,-1,0,0
Y2-S2-250K25,8,686,PS,exp,47,→,right,→,0.35025270003825426,True,15,-1,0,0
Y2-S2-250K25,8,687,PS,exp,26,↓,down,↓,0.7007013997063041,True,15,1,1,1
Y2-S2-250K25,8,688,PS,exp,37,→,left,←,0.6575945997610688,False,14,-1,1,2
Y2-S2-250K25,8,689,PS,exp,35,↓,down,↓,0.49545340007171035,True,15,-1,0,2
Y2-S2-250K25,8,690,PS,exp,28,←,left,←,0.6647646999917924,True,15,-1,0,2
Y2-S2-250K25,8,691,PS,exp,35,↑,up,↑,0.5882187001407146,True,15,1,1,3
Y2-S2-250K25,8,692,PS,exp,33,↓,no_key,no_letter,-1.0,False,14,-1,1,4
Y2-S2-250K25,8,693,PS,exp,43,→,down,↓,0.7798361000604928,False,15,-1,0,4
Y2-S2-250K25,8,694,PS,exp,45,↑,up,↑,0.927723899949342,True,16,-1,0,4
Y2-S2-250K25,8,695,PS,exp,48,↓,down,↓,0.6801114999689162,True,16,-1,0,4
Y2-S2-250K25,8,696,PS,exp,28,→,right,→,0.7039812002331018,True,16,1,1,5
Y2-S2-250K25,8,697,PS,exp,42,↑,up,↑,0.8363477997481823,True,15,1,0,5
Y2-S2-250K25,8,698,PS,exp,47,←,left,←,0.5253670001402497,True,15,1,0,5
Y2-S2-250K25,8,699,PS,exp,49,→,right,→,0.45752189960330725,True,15,1,0,5
Y2-S2-250K25,8,700,PS,exp,44,↑,up,↑,0.5633272002451122,True,14,1,0,5
Y2-S2-250K25,8,701,PS,exp,38,←,left,←,0.44129829993471503,True,14,1,0,5
Y2-S2-250K25,8,702,PS,exp,35,→,right,→,0.5812873998656869,True,14,1,0,5
Y2-S2-250K25,8,703,PS,exp,44,↓,down,↓,0.5221680998802185,True,13,1,0,5
Y2-S2-250K25,8,704,PS,exp,31,←,left,←,0.40538480039685965,True,13,1,0,5
Y2-S2-250K25,8,705,PS,exp,25,→,right,→,0.48318189987912774,True,13,1,0,5
Y2-S2-250K25,8,706,PS,exp,33,↓,right,→,0.5521642998792231,False,12,-1,1,6
Y2-S2-250K25,8,707,PS,exp,40,↑,up,↑,0.5626755999401212,True,13,-1,0,6
Y2-S2-250K25,8,708,PS,exp,37,↓,up,↑,0.9969170996919274,False,13,-1,0,6
Y2-S2-250K25,8,709,PS,exp,45,→,right,→,0.43579160002991557,True,14,-1,0,6
Y2-S2-250K25,8,710,PS,exp,33,←,left,←,1.027288599871099,True,14,-1,0,6
Y2-S2-250K25,8,711,PS,exp,26,↑,up,↑,0.5958927003666759,True,14,1,1,7
Y2-S2-250K25,8,712,PS,exp,32,→,right,→,0.5804492998868227,True,13,1,0,7
Y2-S2-250K25,8,713,PS,exp,28,←,left,←,0.4605249003507197,True,13,1,0,7
Y2-S2-250K25,8,714,PS,exp,49,↓,down,↓,0.7548417998477817,True,13,1,0,7
Y2-S2-250K25,8,715,PS,exp,43,↑,up,↑,0.5374176995828748,True,12,1,0,7
Y2-S2-250K25,8,716,PS,exp,33,←,left,←,0.5071151000447571,True,12,1,0,7
Y2-S2-250K25,8,717,PS,exp,26,→,right,→,0.4785354998894036,True,12,1,0,7
Y2-S2-250K25,8,718,PS,exp,35,↓,down,↓,0.5946143004111946,True,11,1,0,7
Y2-S2-250K25,8,719,PS,exp,37,→,right,→,0.4203964998014271,True,11,1,0,7
Y2-S2-250K25,8,720,PS,exp,37,↓,down,↓,0.4864360997453332,True,11,1,0,7
Y2-S2-250K25,8,721,PS,exp,33,←,right,→,0.5554097997955978,False,10,-1,1,8
Y2-S2-250K25,8,722,PS,exp,27,↑,right,→,0.6117893001064658,False,11,-1,0,8
Y2-S2-250K25,8,723,PS,exp,32,↓,down,↓,0.5073195002041757,True,12,-1,0,8
Y2-S2-250K25,8,724,PS,exp,40,↑,up,↑,0.6929361000657082,True,12,-1,0,8
Y2-S2-250K25,8,725,PS,exp,36,↓,right,→,0.7989082997664809,False,12,-1,0,8
Y2-S2-250K25,8,726,PS,exp,31,←,left,←,0.6628251001238823,True,13,-1,0,8
Y2-S2-250K25,8,727,PS,exp,30,↑,left,←,0.6464017000980675,False,13,-1,0,8
Y2-S2-250K25,8,728,PS,exp,48,←,left,←,0.7415824998170137,True,14,-1,0,8
Y2-S2-250K25,8,729,PS,exp,42,→,right,→,0.4291415996849537,True,14,-1,0,8
Y2-S2-250K25,8,730,PS,exp,44,↓,down,↓,0.5366936000064015,True,14,1,1,9
Y2-S2-250K25,8,731,PS,exp,30,←,left,←,0.9625113001093268,True,13,1,0,9
Y2-S2-250K25,8,732,PS,exp,39,↑,up,↑,0.6259049000218511,True,13,1,0,9
Y2-S2-250K25,8,733,PS,exp,45,→,right,→,0.5147210001014173,True,13,1,0,9
Y2-S2-250K25,8,734,PS,exp,31,←,left,←,0.48481479985639453,True,12,1,0,9
Y2-S2-250K25,8,735,PS,exp,25,↑,up,↑,0.561750499997288,True,12,1,0,9
Y2-S2-250K25,8,736,PS,exp,32,↓,down,↓,0.4892580001614988,True,12,1,0,9
Y2-S2-250K25,8,737,PS,exp,37,↑,up,↑,0.6505082002840936,True,11,1,0,9
Y2-S2-250K25,8,738,PS,exp,40,←,left,←,0.5293490001931787,True,11,1,0,9
Y2-S2-250K25,8,739,PS,exp,39,↑,up,↑,0.6147328000515699,True,11,1,0,9
Y2-S2-250K25,8,740,PS,exp,49,↓,down,↓,0.5326042999513447,True,10,1,0,9
Y2-S2-250K25,8,741,PS,exp,43,↑,up,↑,0.5290320999920368,True,10,1,0,9
Y2-S2-250K25,8,742,PS,exp,42,→,right,→,0.46396780014038086,True,10,1,0,9
Y2-S2-250K25,8,743,PS,exp,30,↑,up,↑,0.5539510999806225,True,9,1,0,9
Y2-S2-250K25,8,744,PS,exp,28,↓,down,↓,0.5292569999583066,True,9,1,0,9
Y2-S2-250K25,8,745,PS,exp,48,←,right,→,0.7857018001377583,False,9,-1,1,10
Y2-S2-250K25,8,746,PS,exp,29,→,right,→,0.5589958000928164,True,10,-1,0,10
Y2-S2-250K25,8,747,PS,exp,41,↓,down,↓,0.5479073999449611,True,10,-1,0,10
Y2-S2-250K25,8,748,PS,exp,42,←,left,←,0.5353156998753548,True,10,1,1,11
Y2-S2-250K25,8,749,PS,exp,30,↑,up,↑,0.5189553000964224,True,9,1,0,11
Y2-S2-250K25,8,750,PS,exp,36,→,right,→,0.5368443997576833,True,9,1,0,11
Y2-S2-250K25,8,751,PS,exp,50,↑,left,←,1.0609155003912747,False,9,-1,1,12
Y2-S2-250K25,8,752,PS,exp,45,↓,down,↓,0.6667586001567543,True,10,-1,0,12
Y2-S2-250K25,8,753,PS,exp,36,→,right,→,0.47057879995554686,True,10,-1,0,12
Y2-S2-250K25,8,754,PS,exp,49,↓,right,→,0.7487649000249803,False,10,-1,0,12
Y2-S2-250K25,8,755,PS,exp,27,←,left,←,0.6204238999634981,True,11,-1,0,12
Y2-S2-250K25,8,756,PS,exp,26,↑,down,↓,0.6976135997101665,False,11,-1,0,12
Y2-S2-250K25,8,757,PS,exp,26,→,right,→,0.5208196002058685,True,12,-1,0,12
Y2-S2-250K25,8,758,PS,exp,42,←,left,←,0.5761584001593292,True,12,-1,0,12
Y2-S2-250K25,8,759,PS,exp,50,→,left,←,0.7730215000919998,False,12,-1,0,12
Y2-S2-250K25,8,760,PS,exp,28,←,left,←,0.7593208001926541,True,13,-1,0,12
Y2-S2-250K25,8,761,PS,exp,36,↑,right,→,0.6954040001146495,False,13,-1,0,12
Y2-S2-250K25,8,762,PS,exp,37,→,right,→,0.5371854999102652,True,14,-1,0,12
Y2-S2-250K25,8,763,PS,exp,31,↓,down,↓,0.5752127002924681,True,14,-1,0,12
Y2-S2-250K25,8,764,PS,exp,25,→,left,←,1.1808036002330482,False,14,-1,0,12
Y2-S2-250K25,8,765,PS,exp,26,←,left,←,0.649309600237757,True,15,-1,0,12
Y2-S2-250K25,8,766,PS,exp,50,→,right,→,0.7486400003544986,True,15,-1,0,12
Y2-S2-250K25,8,767,PS,exp,41,↓,right,→,0.5972959999926388,False,15,-1,0,12
Y2-S2-250K25,8,768,PS,exp,47,→,right,→,0.6267506000585854,True,16,-1,0,12
Y2-S2-250K25,8,769,PS,exp,39,↓,down,↓,0.6138829002156854,True,16,-1,0,12
Y2-S2-250K25,8,770,PS,exp,29,↑,up,↑,0.5003916001878679,True,16,1,1,13
Y2-S2-250K25,8,771,PS,exp,46,→,right,→,0.5421584001742303,True,15,1,0,13
Y2-S2-250K25,8,772,PS,exp,38,↓,down,↓,0.7403746997006238,True,15,1,0,13
Y2-S2-250K25,8,773,PS,exp,37,→,right,→,0.48128890013322234,True,15,1,0,13
Y2-S2-250K25,8,774,PS,exp,39,↓,down,↓,0.7453791000880301,True,14,1,0,13
Y2-S2-250K25,8,775,PS,exp,45,↑,right,→,0.7855239999480546,False,14,-1,1,14
Y2-S2-250K25,8,776,PS,exp,38,↓,right,→,0.7046675002202392,False,15,-1,0,14
Y2-S2-250K25,8,777,PS,exp,42,←,left,←,0.4819956999272108,True,16,-1,0,14
Y2-S2-250K25,8,778,PS,exp,41,↓,left,←,0.9692812003195286,False,16,-1,0,14
Y2-S2-250K25,8,779,PS,exp,32,←,left,←,0.7147776996716857,True,17,-1,0,14
Y2-S2-250K25,8,780,PS,exp,42,↓,down,↓,0.5355863999575377,True,17,-1,0,14
Y2-S2-250K25,8,781,PS,exp,42,→,right,→,0.5154449003748596,True,17,1,1,15
Y2-S2-250K25,8,782,PS,exp,39,↑,up,↑,0.5722080999985337,True,16,1,0,15
Y2-S2-250K25,8,783,PS,exp,43,→,right,→,0.6436137002892792,True,16,1,0,15
Y2-S2-250K25,8,784,PS,exp,42,←,left,←,0.5465796999633312,True,16,1,0,15
Y2-S2-250K25,8,785,PS,exp,27,→,right,→,0.4701039004139602,True,15,1,0,15
Y2-S2-250K25,8,786,PS,exp,43,←,right,→,1.1890929001383483,False,15,-1,1,16
