PART_ID,Block_no,Trial_no,Block_type,Trial_type,CSI,Stim_letter,Key_pressed,letter_choose,Rt,Corr,Stimulus Time,Level,Reversal,Revs_count
Y2-S2-190K21,1,1,PS,train,28,←,left,←,0.5006078998558223,True,30,-,-,-
Y2-S2-190K21,1,2,PS,train,29,↑,up,↑,0.5172846000641584,True,30,-,-,-
Y2-S2-190K21,1,3,PS,train,38,↓,down,↓,0.5838671997189522,True,30,-,-,-
Y2-S2-190K21,1,4,PS,train,48,←,left,←,0.41791850002482533,True,30,-,-,-
Y2-S2-190K21,1,5,PS,train,49,↓,down,↓,1.636717100162059,True,30,-,-,-
Y2-S2-190K21,1,6,PS,train,50,→,right,→,0.4515996999107301,True,30,-,-,-
Y2-S2-190K21,1,7,PS,train,29,←,left,←,0.5171186001971364,True,30,-,-,-
Y2-S2-190K21,1,8,PS,train,43,↓,down,↓,0.6007065000012517,True,30,-,-,-
Y2-S2-190K21,1,9,PS,train,41,→,right,→,0.4837541999295354,True,30,-,-,-
Y2-S2-190K21,1,10,PS,train,39,←,left,←,0.4676369000226259,True,30,-,-,-
Y2-S2-190K21,2,11,AS,train,43,↓,down,↓,0.7010556999593973,True,45,-,-,-
Y2-S2-190K21,2,12,AS,train,38,→,right,→,0.5504129999317229,True,45,-,-,-
Y2-S2-190K21,2,13,AS,train,41,↑,up,↑,0.8010692996904254,True,45,-,-,-
Y2-S2-190K21,2,14,AS,train,44,→,right,→,0.667879399843514,True,45,-,-,-
Y2-S2-190K21,2,15,AS,train,40,↑,up,↑,0.7010825001634657,True,45,-,-,-
Y2-S2-190K21,2,16,AS,train,28,→,right,→,0.9235297003760934,True,45,-,-,-
Y2-S2-190K21,2,17,AS,train,40,↓,down,↓,0.8341848999261856,True,45,-,-,-
Y2-S2-190K21,2,18,AS,train,35,←,left,←,0.7672461001202464,True,45,-,-,-
Y2-S2-190K21,2,19,AS,train,27,→,right,→,0.7341295997612178,True,45,-,-,-
Y2-S2-190K21,2,20,AS,train,33,↓,down,↓,0.6342739998362958,True,45,-,-,-
Y2-S2-190K21,-,21,PS,adaptive,25,←,left,←,0.4119620998390019,True,10,0,0,0
Y2-S2-190K21,-,22,PS,adaptive,44,↓,up,↑,0.49499480007216334,False,10,-1,0,0
Y2-S2-190K21,-,23,PS,adaptive,30,→,right,→,0.5205856999382377,True,11,-1,0,0
Y2-S2-190K21,-,24,PS,adaptive,39,←,left,←,0.5816353000700474,True,11,-1,0,0
Y2-S2-190K21,-,25,PS,adaptive,47,↑,right,→,0.8900584997609258,False,11,-1,0,0
Y2-S2-190K21,-,26,PS,adaptive,33,←,left,←,0.659676699899137,True,12,-1,0,0
Y2-S2-190K21,-,27,PS,adaptive,49,→,right,→,0.661120199598372,True,12,-1,0,0
Y2-S2-190K21,-,28,PS,adaptive,25,↓,down,↓,0.7392110000364482,True,12,1,1,1
Y2-S2-190K21,-,29,PS,adaptive,44,←,left,←,0.6578414998948574,True,11,1,0,1
Y2-S2-190K21,-,30,PS,adaptive,38,↓,down,↓,0.8080787998624146,True,11,1,0,1
Y2-S2-190K21,-,31,PS,adaptive,32,←,left,←,0.5767307002097368,True,11,1,0,1
Y2-S2-190K21,-,32,PS,adaptive,50,→,right,→,0.7356807999312878,True,10,1,0,1
Y2-S2-190K21,-,33,PS,adaptive,28,↑,up,↑,0.5521094002760947,True,10,1,0,1
Y2-S2-190K21,-,34,PS,adaptive,26,→,left,←,0.8053749999962747,False,10,-1,1,2
Y2-S2-190K21,-,35,PS,adaptive,30,←,left,←,1.1085714995861053,True,11,-1,0,2
Y2-S2-190K21,-,36,PS,adaptive,27,→,right,→,0.8549608001485467,True,11,-1,0,2
Y2-S2-190K21,-,37,PS,adaptive,37,↑,down,↓,0.8834288003854454,False,11,-1,0,2
Y2-S2-190K21,-,38,PS,adaptive,31,↓,down,↓,0.7555569997057319,True,12,-1,0,2
Y2-S2-190K21,-,39,PS,adaptive,40,→,right,→,0.8775344998575747,True,12,-1,0,2
Y2-S2-190K21,-,40,PS,adaptive,45,↓,down,↓,0.7161888997070491,True,12,1,1,3
Y2-S2-190K21,-,41,PS,adaptive,34,←,down,↓,0.8207912002690136,False,11,-1,1,4
Y2-S2-190K21,-,42,AS,adaptive,43,↓,left,←,1.0335805998183787,False,20,-1,0,0
Y2-S2-190K21,-,43,AS,adaptive,30,←,left,←,0.48384409956634045,True,21,-1,0,0
Y2-S2-190K21,-,44,AS,adaptive,28,→,right,→,0.7532394002191722,True,21,-1,0,0
Y2-S2-190K21,-,45,AS,adaptive,46,↑,up,↑,0.7389954002574086,True,21,1,1,1
Y2-S2-190K21,-,46,AS,adaptive,33,→,left,←,1.134307499974966,False,20,-1,1,2
Y2-S2-190K21,-,47,AS,adaptive,46,↑,right,→,0.9858661000616848,False,21,-1,0,2
Y2-S2-190K21,-,48,AS,adaptive,38,→,right,→,0.5568659999407828,True,22,-1,0,2
Y2-S2-190K21,-,49,AS,adaptive,29,↓,down,↓,0.7193161998875439,True,22,-1,0,2
Y2-S2-190K21,-,50,AS,adaptive,43,→,right,→,1.0248143002390862,True,22,1,1,3
Y2-S2-190K21,-,51,AS,adaptive,50,↑,down,↓,1.2576553001999855,False,21,-1,1,4
Y2-S2-190K21,1,52,PS,intra_train,42,↓,down,↓,0.667431699577719,True,18,-,-,-
Y2-S2-190K21,1,53,PS,intra_train,29,→,right,→,0.7014959999360144,True,18,-,-,-
Y2-S2-190K21,1,54,PS,intra_train,27,↑,up,↑,0.5112215001136065,True,18,-,-,-
Y2-S2-190K21,1,55,PS,intra_train,49,←,left,←,0.4741134000942111,True,18,-,-,-
Y2-S2-190K21,1,56,PS,intra_train,30,↓,down,↓,0.5943575999699533,True,18,-,-,-
Y2-S2-190K21,1,57,PS,exp,36,↑,up,↑,0.5025992998853326,True,12,0,0,0
Y2-S2-190K21,1,58,PS,exp,37,↓,left,←,1.0667280000634491,False,12,-1,0,0
Y2-S2-190K21,1,59,PS,exp,30,→,right,→,0.6796479001641273,True,13,-1,0,0
Y2-S2-190K21,1,60,PS,exp,26,↓,down,↓,0.7075302000157535,True,13,-1,0,0
Y2-S2-190K21,1,61,PS,exp,32,←,left,←,0.7373743001371622,True,13,1,1,1
Y2-S2-190K21,1,62,PS,exp,40,↑,up,↑,0.6095139998942614,True,12,1,0,1
Y2-S2-190K21,1,63,PS,exp,29,↓,up,↑,0.7865269999019802,False,12,-1,1,2
Y2-S2-190K21,1,64,PS,exp,40,↑,up,↑,0.526857300195843,True,13,-1,0,2
Y2-S2-190K21,1,65,PS,exp,36,→,right,→,0.4763000002130866,True,13,-1,0,2
Y2-S2-190K21,1,66,PS,exp,29,↑,up,↑,0.7335679000243545,True,13,1,1,3
Y2-S2-190K21,1,67,PS,exp,43,→,no_key,no_letter,-1.0,False,12,-1,1,4
Y2-S2-190K21,1,68,PS,exp,37,←,left,←,0.43590279994532466,True,13,-1,0,4
Y2-S2-190K21,1,69,PS,exp,39,↓,down,↓,0.6865918999537826,True,13,-1,0,4
Y2-S2-190K21,1,70,PS,exp,50,↑,up,↑,0.5492448001168668,True,13,1,1,5
Y2-S2-190K21,1,71,PS,exp,29,←,right,→,0.7997385999187827,False,12,-1,1,6
Y2-S2-190K21,1,72,PS,exp,44,↓,down,↓,0.6066847997717559,True,13,-1,0,6
Y2-S2-190K21,1,73,PS,exp,45,↑,up,↑,0.44998890021815896,True,13,-1,0,6
Y2-S2-190K21,1,74,PS,exp,25,→,right,→,0.6846850998699665,True,13,1,1,7
Y2-S2-190K21,1,75,PS,exp,35,←,left,←,0.4478390999138355,True,12,1,0,7
Y2-S2-190K21,1,76,PS,exp,28,↓,down,↓,0.6693384000100195,True,12,1,0,7
Y2-S2-190K21,1,77,PS,exp,37,↑,up,↑,0.43678840016946197,True,12,1,0,7
Y2-S2-190K21,1,78,PS,exp,28,←,left,←,0.7782031004317105,True,11,1,0,7
Y2-S2-190K21,1,79,PS,exp,36,↓,down,↓,0.5279442998580635,True,11,1,0,7
Y2-S2-190K21,1,80,PS,exp,44,↑,up,↑,0.5724822003394365,True,11,1,0,7
Y2-S2-190K21,1,81,PS,exp,32,→,right,→,0.8007374997250736,True,10,1,0,7
Y2-S2-190K21,1,82,PS,exp,34,↑,up,↑,0.5180700002238154,True,10,1,0,7
Y2-S2-190K21,1,83,PS,exp,43,←,left,←,0.6017112997360528,True,10,1,0,7
Y2-S2-190K21,1,84,PS,exp,41,↑,up,↑,0.5399294998496771,True,9,1,0,7
Y2-S2-190K21,1,85,PS,exp,43,→,right,→,0.5045661996118724,True,9,1,0,7
Y2-S2-190K21,1,86,PS,exp,50,↑,up,↑,0.47635360015556216,True,9,1,0,7
Y2-S2-190K21,1,87,PS,exp,33,←,left,←,0.6314504002220929,True,8,1,0,7
Y2-S2-190K21,1,88,PS,exp,30,→,right,→,0.9452293002977967,True,8,1,0,7
Y2-S2-190K21,1,89,PS,exp,29,←,left,←,0.5711642997339368,True,8,1,0,7
Y2-S2-190K21,1,90,PS,exp,32,↑,up,↑,0.5027541001327336,True,7,1,0,7
Y2-S2-190K21,1,91,PS,exp,31,←,left,←,0.7902439995668828,True,7,1,0,7
Y2-S2-190K21,1,92,PS,exp,40,↓,down,↓,0.7586063998751342,True,7,1,0,7
Y2-S2-190K21,1,93,PS,exp,37,→,right,→,0.7887071999721229,True,6,1,0,7
Y2-S2-190K21,1,94,PS,exp,31,↓,down,↓,0.6179865999147296,True,6,1,0,7
Y2-S2-190K21,1,95,PS,exp,26,←,down,↓,0.8422664999961853,False,6,-1,1,8
Y2-S2-190K21,1,96,PS,exp,31,→,right,→,0.6839494998566806,True,7,-1,0,8
Y2-S2-190K21,1,97,PS,exp,47,↓,right,→,0.5270929001271725,False,7,-1,0,8
Y2-S2-190K21,1,98,PS,exp,26,←,left,←,0.43801379995420575,True,8,-1,0,8
Y2-S2-190K21,1,99,PS,exp,39,↓,down,↓,0.6478163003921509,True,8,-1,0,8
Y2-S2-190K21,1,100,PS,exp,28,→,right,→,0.7557856999337673,True,8,1,1,9
Y2-S2-190K21,1,101,PS,exp,35,↑,right,→,0.8580369004048407,False,7,-1,1,10
Y2-S2-190K21,1,102,PS,exp,49,↓,right,→,0.702464499976486,False,8,-1,0,10
Y2-S2-190K21,1,103,PS,exp,48,←,left,←,0.8120023002848029,True,9,-1,0,10
Y2-S2-190K21,1,104,PS,exp,50,↑,left,←,0.6992401997558773,False,9,-1,0,10
Y2-S2-190K21,1,105,PS,exp,38,←,left,←,0.5614251000806689,True,10,-1,0,10
Y2-S2-190K21,1,106,PS,exp,31,→,left,←,0.6226919000037014,False,10,-1,0,10
Y2-S2-190K21,1,107,PS,exp,39,←,left,←,0.4890457997098565,True,11,-1,0,10
Y2-S2-190K21,1,108,PS,exp,42,↑,up,↑,0.585022899787873,True,11,-1,0,10
Y2-S2-190K21,1,109,PS,exp,41,←,left,←,0.6464803996495903,True,11,1,1,11
Y2-S2-190K21,1,110,PS,exp,27,→,right,→,0.7083533001132309,True,10,1,0,11
Y2-S2-190K21,1,111,PS,exp,29,←,left,←,0.695957699790597,True,10,1,0,11
Y2-S2-190K21,1,112,PS,exp,43,↑,up,↑,0.5873308000154793,True,10,1,0,11
Y2-S2-190K21,1,113,PS,exp,49,←,left,←,0.5224713999778032,True,9,1,0,11
Y2-S2-190K21,1,114,PS,exp,46,↓,right,→,0.626349899917841,False,9,-1,1,12
Y2-S2-190K21,1,115,PS,exp,42,←,left,←,0.7272825003601611,True,10,-1,0,12
Y2-S2-190K21,1,116,PS,exp,44,↑,up,↑,0.7459982996806502,True,10,-1,0,12
Y2-S2-190K21,1,117,PS,exp,32,↓,down,↓,0.6585346995852888,True,10,1,1,13
Y2-S2-190K21,1,118,PS,exp,35,→,right,→,0.9087811000645161,True,9,1,0,13
Y2-S2-190K21,1,119,PS,exp,49,←,left,←,0.5395534001290798,True,9,1,0,13
Y2-S2-190K21,1,120,PS,exp,50,→,right,→,0.7507563000544906,True,9,1,0,13
Y2-S2-190K21,1,121,PS,exp,45,←,right,→,0.6374395000748336,False,8,-1,1,14
Y2-S2-190K21,1,122,PS,exp,47,↓,down,↓,0.7333367997780442,True,9,-1,0,14
Y2-S2-190K21,1,123,PS,exp,34,↑,up,↑,0.6109291999600828,True,9,-1,0,14
Y2-S2-190K21,1,124,PS,exp,31,←,right,→,0.7370889997109771,False,9,-1,0,14
Y2-S2-190K21,1,125,PS,exp,50,→,right,→,0.5688211000524461,True,10,-1,0,14
Y2-S2-190K21,1,126,PS,exp,49,←,left,←,0.4893757002428174,True,10,-1,0,14
Y2-S2-190K21,1,127,PS,exp,47,→,right,→,0.5482334000989795,True,10,1,1,15
Y2-S2-190K21,1,128,PS,exp,44,←,left,←,0.47830400010570884,True,9,1,0,15
Y2-S2-190K21,1,129,PS,exp,33,↑,left,←,0.8886458999477327,False,9,-1,1,16
Y2-S2-190K21,2,130,AS,intra_train,27,↓,left,←,0.36766690015792847,False,33,-,-,-
Y2-S2-190K21,2,131,AS,intra_train,41,↑,right,→,0.45134259993210435,False,33,-,-,-
Y2-S2-190K21,2,132,AS,intra_train,30,→,right,→,0.6004172000102699,True,33,-,-,-
Y2-S2-190K21,2,133,AS,intra_train,34,↓,down,↓,0.6675170003436506,True,33,-,-,-
Y2-S2-190K21,2,134,AS,intra_train,43,←,left,←,0.5841280999593437,True,33,-,-,-
Y2-S2-190K21,2,135,AS,exp,45,↓,down,↓,0.636958799790591,True,22,0,0,0
Y2-S2-190K21,2,136,AS,exp,28,↑,up,↑,0.8456900003366172,True,22,0,0,0
Y2-S2-190K21,2,137,AS,exp,28,↓,down,↓,0.8886979003436863,True,22,1,0,0
Y2-S2-190K21,2,138,AS,exp,48,↑,left,←,0.5874889995902777,False,21,-1,1,1
Y2-S2-190K21,2,139,AS,exp,31,←,left,←,0.5749413003213704,True,22,-1,0,1
Y2-S2-190K21,2,140,AS,exp,44,↓,down,↓,0.6652778000570834,True,22,-1,0,1
Y2-S2-190K21,2,141,AS,exp,37,←,left,←,0.535676599945873,True,22,1,1,2
Y2-S2-190K21,2,142,AS,exp,34,↓,down,↓,0.6263226997107267,True,21,1,0,2
Y2-S2-190K21,2,143,AS,exp,37,→,down,↓,0.8848717999644578,False,21,-1,1,3
Y2-S2-190K21,2,144,AS,exp,44,←,left,←,0.6909952000714839,True,22,-1,0,3
Y2-S2-190K21,2,145,AS,exp,26,↑,down,↓,0.7319897999987006,False,22,-1,0,3
Y2-S2-190K21,2,146,AS,exp,45,←,left,←,0.4840575000271201,True,23,-1,0,3
Y2-S2-190K21,2,147,AS,exp,31,→,right,→,0.6553682000376284,True,23,-1,0,3
Y2-S2-190K21,2,148,AS,exp,26,←,left,←,0.5645360997878015,True,23,1,1,4
Y2-S2-190K21,2,149,AS,exp,45,→,right,→,0.7619803999550641,True,22,1,0,4
Y2-S2-190K21,2,150,AS,exp,48,↓,down,↓,0.655337399803102,True,22,1,0,4
Y2-S2-190K21,2,151,AS,exp,33,←,left,←,0.6394909000955522,True,22,1,0,4
Y2-S2-190K21,2,152,AS,exp,26,→,right,→,1.0782827995717525,True,21,1,0,4
Y2-S2-190K21,2,153,AS,exp,28,↑,up,↑,0.8321946999058127,True,21,1,0,4
Y2-S2-190K21,2,154,AS,exp,49,↓,down,↓,0.7513937000185251,True,21,1,0,4
Y2-S2-190K21,2,155,AS,exp,32,↑,up,↑,0.6494338996708393,True,20,1,0,4
Y2-S2-190K21,2,156,AS,exp,31,←,left,←,0.7558786999434233,True,20,1,0,4
Y2-S2-190K21,2,157,AS,exp,29,↓,down,↓,0.8344252998940647,True,20,1,0,4
Y2-S2-190K21,2,158,AS,exp,47,↑,up,↑,0.6477812002412975,True,19,1,0,4
Y2-S2-190K21,2,159,AS,exp,44,↓,up,↑,0.6562490002252162,False,19,-1,1,5
Y2-S2-190K21,2,160,AS,exp,36,↑,up,↑,0.5927242003381252,True,20,-1,0,5
Y2-S2-190K21,2,161,AS,exp,48,↓,down,↓,0.9053318998776376,True,20,-1,0,5
Y2-S2-190K21,2,162,AS,exp,32,↑,up,↑,0.7805500002577901,True,20,1,1,6
Y2-S2-190K21,2,163,AS,exp,37,→,right,→,0.7757966001518071,True,19,1,0,6
Y2-S2-190K21,2,164,AS,exp,40,↑,right,→,1.0359213999472558,False,19,-1,1,7
Y2-S2-190K21,2,165,AS,exp,37,←,left,←,0.9778619999997318,True,20,-1,0,7
Y2-S2-190K21,2,166,AS,exp,38,↑,up,↑,0.8749614004045725,True,20,-1,0,7
Y2-S2-190K21,2,167,AS,exp,34,↓,down,↓,0.8243228001520038,True,20,1,1,8
Y2-S2-190K21,2,168,AS,exp,48,↑,up,↑,0.6780715002678335,True,19,1,0,8
Y2-S2-190K21,2,169,AS,exp,50,←,left,←,0.7815620000474155,True,19,1,0,8
Y2-S2-190K21,2,170,AS,exp,47,↑,up,↑,0.7125983997248113,True,19,1,0,8
Y2-S2-190K21,2,171,AS,exp,45,→,left,←,0.8145618000999093,False,18,-1,1,9
Y2-S2-190K21,2,172,AS,exp,49,←,up,↑,0.9056525002233684,False,19,-1,0,9
Y2-S2-190K21,2,173,AS,exp,50,↓,down,↓,0.8928979998454452,True,20,-1,0,9
Y2-S2-190K21,2,174,AS,exp,44,←,left,←,0.7606673003174365,True,20,-1,0,9
Y2-S2-190K21,2,175,AS,exp,28,↓,down,↓,1.3029090003110468,True,20,1,1,10
Y2-S2-190K21,2,176,AS,exp,31,→,right,→,0.8334991000592709,True,19,1,0,10
Y2-S2-190K21,2,177,AS,exp,42,←,left,←,0.5230518002063036,True,19,1,0,10
Y2-S2-190K21,2,178,AS,exp,43,↓,left,←,0.8586696996353567,False,19,-1,1,11
Y2-S2-190K21,2,179,AS,exp,33,←,left,←,0.76812560018152,True,20,-1,0,11
Y2-S2-190K21,2,180,AS,exp,39,↓,left,←,0.5494399997405708,False,20,-1,0,11
Y2-S2-190K21,2,181,AS,exp,49,←,left,←,0.621926199644804,True,21,-1,0,11
Y2-S2-190K21,2,182,AS,exp,31,↑,up,↑,0.6565336002968252,True,21,-1,0,11
Y2-S2-190K21,2,183,AS,exp,50,→,right,→,0.6588221997953951,True,21,1,1,12
Y2-S2-190K21,2,184,AS,exp,46,↓,left,←,0.8504619002342224,False,20,-1,1,13
Y2-S2-190K21,2,185,AS,exp,37,←,left,←,0.7027332996949553,True,21,-1,0,13
Y2-S2-190K21,2,186,AS,exp,31,→,right,→,0.673787500243634,True,21,-1,0,13
Y2-S2-190K21,2,187,AS,exp,48,↓,left,←,1.2612418001517653,False,21,-1,0,13
Y2-S2-190K21,2,188,AS,exp,36,→,right,→,0.6290054996497929,True,22,-1,0,13
Y2-S2-190K21,2,189,AS,exp,42,←,left,←,0.6232373001985252,True,22,-1,0,13
Y2-S2-190K21,2,190,AS,exp,36,→,right,→,0.6057622996158898,True,22,1,1,14
Y2-S2-190K21,2,191,AS,exp,38,↑,up,↑,0.565051699988544,True,21,1,0,14
Y2-S2-190K21,2,192,AS,exp,41,↓,down,↓,0.8984980997629464,True,21,1,0,14
Y2-S2-190K21,2,193,AS,exp,34,↑,up,↑,0.6162009001709521,True,21,1,0,14
Y2-S2-190K21,2,194,AS,exp,33,←,left,←,0.7288687997497618,True,20,1,0,14
Y2-S2-190K21,2,195,AS,exp,29,→,right,→,0.7456358000636101,True,20,1,0,14
Y2-S2-190K21,2,196,AS,exp,36,←,left,←,0.6597418999299407,True,20,1,0,14
Y2-S2-190K21,2,197,AS,exp,32,↑,up,↑,0.5341293998062611,True,19,1,0,14
Y2-S2-190K21,2,198,AS,exp,41,←,left,←,0.6505211000330746,True,19,1,0,14
Y2-S2-190K21,2,199,AS,exp,34,↓,left,←,0.8298213998787105,False,19,-1,1,15
Y2-S2-190K21,2,200,AS,exp,35,←,left,←,0.6509020002558827,True,20,-1,0,15
Y2-S2-190K21,2,201,AS,exp,33,↑,up,↑,0.550914800260216,True,20,-1,0,15
Y2-S2-190K21,2,202,AS,exp,41,→,left,←,1.047143999952823,False,20,-1,0,15
Y2-S2-190K21,2,203,AS,exp,50,↓,left,←,0.589326299726963,False,21,-1,0,15
Y2-S2-190K21,2,204,AS,exp,25,←,left,←,0.6311646001413465,True,22,-1,0,15
Y2-S2-190K21,2,205,AS,exp,38,↓,down,↓,0.5592072997242212,True,22,-1,0,15
Y2-S2-190K21,2,206,AS,exp,49,→,right,→,1.060643999837339,True,22,1,1,16
Y2-S2-190K21,3,207,AS,intra_train,50,←,left,←,0.7614388996735215,True,33,-,-,-
Y2-S2-190K21,3,208,AS,intra_train,36,↓,down,↓,0.9194494998082519,True,33,-,-,-
Y2-S2-190K21,3,209,AS,intra_train,29,→,right,→,0.8181231999769807,True,33,-,-,-
Y2-S2-190K21,3,210,AS,intra_train,36,↓,down,↓,0.6337111000902951,True,33,-,-,-
Y2-S2-190K21,3,211,AS,intra_train,28,→,right,→,0.7605579001829028,True,33,-,-,-
Y2-S2-190K21,3,212,AS,exp,40,↓,down,↓,0.6240158998407423,True,22,0,0,0
Y2-S2-190K21,3,213,AS,exp,45,↑,up,↑,1.0619296003133059,True,22,0,0,0
Y2-S2-190K21,3,214,AS,exp,36,←,right,→,1.2351397001184523,False,22,-1,0,0
Y2-S2-190K21,3,215,AS,exp,29,↓,down,↓,0.7461829003877938,True,23,-1,0,0
Y2-S2-190K21,3,216,AS,exp,30,↑,up,↑,0.9328323001973331,True,23,-1,0,0
Y2-S2-190K21,3,217,AS,exp,44,→,right,→,1.0677016000263393,True,23,1,1,1
Y2-S2-190K21,3,218,AS,exp,35,←,left,←,0.7535255001857877,True,22,1,0,1
Y2-S2-190K21,3,219,AS,exp,40,↓,down,↓,0.6912054000422359,True,22,1,0,1
Y2-S2-190K21,3,220,AS,exp,39,←,left,←,0.7415908998809755,True,22,1,0,1
Y2-S2-190K21,3,221,AS,exp,37,↓,down,↓,0.8582733999937773,True,21,1,0,1
Y2-S2-190K21,3,222,AS,exp,33,←,left,←,0.5858987998217344,True,21,1,0,1
Y2-S2-190K21,3,223,AS,exp,46,↓,down,↓,0.9171468000859022,True,21,1,0,1
Y2-S2-190K21,3,224,AS,exp,44,↑,up,↑,0.7910863999277353,True,20,1,0,1
Y2-S2-190K21,3,225,AS,exp,44,←,left,←,0.8332250998355448,True,20,1,0,1
Y2-S2-190K21,3,226,AS,exp,29,↓,down,↓,1.173335500061512,True,20,1,0,1
Y2-S2-190K21,3,227,AS,exp,30,↑,down,↓,1.297829800285399,False,19,-1,1,2
Y2-S2-190K21,3,228,AS,exp,30,→,right,→,0.6841707001440227,True,20,-1,0,2
Y2-S2-190K21,3,229,AS,exp,40,↓,down,↓,0.6638347003608942,True,20,-1,0,2
Y2-S2-190K21,3,230,AS,exp,42,↑,up,↑,0.7495049997232854,True,20,1,1,3
Y2-S2-190K21,3,231,AS,exp,28,→,right,→,0.8053592001087964,True,19,1,0,3
Y2-S2-190K21,3,232,AS,exp,25,←,left,←,0.7210419001057744,True,19,1,0,3
Y2-S2-190K21,3,233,AS,exp,37,↓,up,↑,0.8503531999886036,False,19,-1,1,4
Y2-S2-190K21,3,234,AS,exp,29,→,right,→,0.6832402995787561,True,20,-1,0,4
Y2-S2-190K21,3,235,AS,exp,46,↓,down,↓,0.6390998996794224,True,20,-1,0,4
Y2-S2-190K21,3,236,AS,exp,33,→,right,→,0.6498359004035592,True,20,1,1,5
Y2-S2-190K21,3,237,AS,exp,25,↑,up,↑,0.7226582998409867,True,19,1,0,5
Y2-S2-190K21,3,238,AS,exp,30,↓,down,↓,0.7133907997049391,True,19,1,0,5
Y2-S2-190K21,3,239,AS,exp,38,←,left,←,0.9595466000027955,True,19,1,0,5
Y2-S2-190K21,3,240,AS,exp,46,→,right,→,0.8495879000984132,True,18,1,0,5
Y2-S2-190K21,3,241,AS,exp,47,←,right,→,0.7171971001662314,False,18,-1,1,6
Y2-S2-190K21,3,242,AS,exp,31,→,left,←,0.4940945999696851,False,19,-1,0,6
Y2-S2-190K21,3,243,AS,exp,35,↑,up,↑,0.6551760998554528,True,20,-1,0,6
Y2-S2-190K21,3,244,AS,exp,25,↓,down,↓,0.7175412997603416,True,20,-1,0,6
Y2-S2-190K21,3,245,AS,exp,36,←,left,←,0.6152626001276076,True,20,1,1,7
Y2-S2-190K21,3,246,AS,exp,33,→,right,→,0.9335417002439499,True,19,1,0,7
Y2-S2-190K21,3,247,AS,exp,30,↑,up,↑,0.6681868000887334,True,19,1,0,7
Y2-S2-190K21,3,248,AS,exp,39,←,left,←,0.6097007002681494,True,19,1,0,7
Y2-S2-190K21,3,249,AS,exp,38,↓,down,↓,0.7865348998457193,True,18,1,0,7
Y2-S2-190K21,3,250,AS,exp,39,↑,up,↑,0.6790338000282645,True,18,1,0,7
Y2-S2-190K21,3,251,AS,exp,44,←,left,←,0.7536965003237128,True,18,1,0,7
Y2-S2-190K21,3,252,AS,exp,27,↓,down,↓,0.6453729998320341,True,17,1,0,7
Y2-S2-190K21,3,253,AS,exp,30,↑,up,↑,0.7217774000018835,True,17,1,0,7
Y2-S2-190K21,3,254,AS,exp,35,→,right,→,1.0227902000769973,True,17,1,0,7
Y2-S2-190K21,3,255,AS,exp,29,↓,down,↓,0.7427027998492122,True,16,1,0,7
Y2-S2-190K21,3,256,AS,exp,45,←,right,→,0.7397209000773728,False,16,-1,1,8
Y2-S2-190K21,3,257,AS,exp,42,↓,down,↓,0.9658018997870386,True,17,-1,0,8
Y2-S2-190K21,3,258,AS,exp,34,→,left,←,0.8397057000547647,False,17,-1,0,8
Y2-S2-190K21,3,259,AS,exp,40,↓,down,↓,0.5391019997186959,True,18,-1,0,8
Y2-S2-190K21,3,260,AS,exp,48,↑,up,↑,0.7451117997989058,True,18,-1,0,8
Y2-S2-190K21,3,261,AS,exp,32,↓,right,→,0.9370315996930003,False,18,-1,0,8
Y2-S2-190K21,3,262,AS,exp,34,↑,up,↑,1.3020561998710036,True,19,-1,0,8
Y2-S2-190K21,3,263,AS,exp,47,←,left,←,0.9120121002197266,True,19,-1,0,8
Y2-S2-190K21,3,264,AS,exp,35,↑,right,→,0.7941100001335144,False,19,-1,0,8
Y2-S2-190K21,3,265,AS,exp,40,←,left,←,0.5501691997051239,True,20,-1,0,8
Y2-S2-190K21,3,266,AS,exp,44,↑,up,↑,0.7193601001054049,True,20,-1,0,8
Y2-S2-190K21,3,267,AS,exp,34,↓,down,↓,0.7315325001254678,True,20,1,1,9
Y2-S2-190K21,3,268,AS,exp,48,↑,up,↑,0.654534799978137,True,19,1,0,9
Y2-S2-190K21,3,269,AS,exp,45,→,right,→,0.7503468003123999,True,19,1,0,9
Y2-S2-190K21,3,270,AS,exp,31,←,left,←,0.7554759001359344,True,19,1,0,9
Y2-S2-190K21,3,271,AS,exp,32,↑,up,↑,0.7611962999217212,True,18,1,0,9
Y2-S2-190K21,3,272,AS,exp,42,→,right,→,0.7195874997414649,True,18,1,0,9
Y2-S2-190K21,3,273,AS,exp,49,←,left,←,0.6072207000106573,True,18,1,0,9
Y2-S2-190K21,3,274,AS,exp,43,↑,up,↑,0.6932912999764085,True,17,1,0,9
Y2-S2-190K21,3,275,AS,exp,44,←,left,←,0.6002150997519493,True,17,1,0,9
Y2-S2-190K21,3,276,AS,exp,25,→,right,→,0.7932543000206351,True,17,1,0,9
Y2-S2-190K21,3,277,AS,exp,49,↓,right,→,0.7066796999424696,False,16,-1,1,10
Y2-S2-190K21,3,278,AS,exp,36,←,left,←,0.6304383003152907,True,17,-1,0,10
Y2-S2-190K21,3,279,AS,exp,27,↑,up,↑,0.6299799000844359,True,17,-1,0,10
Y2-S2-190K21,3,280,AS,exp,27,↓,up,↑,0.8648067000322044,False,17,-1,0,10
Y2-S2-190K21,3,281,AS,exp,36,↑,up,↑,0.6416662996634841,True,18,-1,0,10
Y2-S2-190K21,3,282,AS,exp,39,↓,down,↓,0.8749445001594722,True,18,-1,0,10
Y2-S2-190K21,3,283,AS,exp,43,↑,up,↑,1.584298999980092,True,18,1,1,11
Y2-S2-190K21,3,284,AS,exp,26,→,left,←,0.46178919961676,False,17,-1,1,12
Y2-S2-190K21,3,285,AS,exp,42,↑,up,↑,0.49757140036672354,True,18,-1,0,12
Y2-S2-190K21,3,286,AS,exp,44,↓,down,↓,0.8101737000979483,True,18,-1,0,12
Y2-S2-190K21,3,287,AS,exp,38,→,right,→,0.7049781996756792,True,18,1,1,13
Y2-S2-190K21,3,288,AS,exp,35,←,left,←,0.612888399977237,True,17,1,0,13
Y2-S2-190K21,3,289,AS,exp,28,↓,down,↓,0.9293251000344753,True,17,1,0,13
Y2-S2-190K21,3,290,AS,exp,35,→,right,→,0.9735865998081863,True,17,1,0,13
Y2-S2-190K21,3,291,AS,exp,28,↓,down,↓,0.7151139001362026,True,16,1,0,13
Y2-S2-190K21,3,292,AS,exp,48,↑,left,←,1.048541100230068,False,16,-1,1,14
Y2-S2-190K21,3,293,AS,exp,31,→,right,→,0.6857286002486944,True,17,-1,0,14
Y2-S2-190K21,3,294,AS,exp,48,←,right,→,0.7438838998787105,False,17,-1,0,14
Y2-S2-190K21,3,295,AS,exp,30,→,right,→,0.8657451998442411,True,18,-1,0,14
Y2-S2-190K21,3,296,AS,exp,41,←,left,←,0.7793366000987589,True,18,-1,0,14
Y2-S2-190K21,3,297,AS,exp,38,↓,down,↓,0.604579099919647,True,18,1,1,15
Y2-S2-190K21,3,298,AS,exp,29,←,left,←,0.6219668001867831,True,17,1,0,15
Y2-S2-190K21,3,299,AS,exp,46,→,right,→,0.4173305998556316,True,17,1,0,15
Y2-S2-190K21,3,300,AS,exp,31,←,right,→,0.5143288001418114,False,17,-1,1,16
Y2-S2-190K21,4,301,PS,intra_train,30,↓,down,↓,0.6557610002346337,True,18,-,-,-
Y2-S2-190K21,4,302,PS,intra_train,34,→,right,→,0.5419721002690494,True,18,-,-,-
Y2-S2-190K21,4,303,PS,intra_train,44,↓,down,↓,0.5371254999190569,True,18,-,-,-
Y2-S2-190K21,4,304,PS,intra_train,38,↑,down,↓,0.566083500161767,False,18,-,-,-
Y2-S2-190K21,4,305,PS,intra_train,50,→,right,→,0.5790321999229491,True,18,-,-,-
Y2-S2-190K21,4,306,PS,exp,42,←,left,←,0.45252780010923743,True,12,0,0,0
Y2-S2-190K21,4,307,PS,exp,50,↓,down,↓,0.5701728002168238,True,12,0,0,0
Y2-S2-190K21,4,308,PS,exp,32,←,left,←,0.4788603000342846,True,12,1,0,0
Y2-S2-190K21,4,309,PS,exp,44,↓,down,↓,0.47784500010311604,True,11,1,0,0
Y2-S2-190K21,4,310,PS,exp,38,↑,up,↑,0.7196920001879334,True,11,1,0,0
Y2-S2-190K21,4,311,PS,exp,44,→,right,→,0.5650873999111354,True,11,1,0,0
Y2-S2-190K21,4,312,PS,exp,38,↑,up,↑,0.6770147997885942,True,10,1,0,0
Y2-S2-190K21,4,313,PS,exp,32,→,right,→,0.45322819985449314,True,10,1,0,0
Y2-S2-190K21,4,314,PS,exp,25,↓,down,↓,0.5477016000077128,True,10,1,0,0
Y2-S2-190K21,4,315,PS,exp,27,←,left,←,0.6702728001400828,True,9,1,0,0
Y2-S2-190K21,4,316,PS,exp,36,↑,up,↑,0.5263665998354554,True,9,1,0,0
Y2-S2-190K21,4,317,PS,exp,49,→,right,→,0.5332559999078512,True,9,1,0,0
Y2-S2-190K21,4,318,PS,exp,40,↓,down,↓,0.5599777000024915,True,8,1,0,0
Y2-S2-190K21,4,319,PS,exp,43,←,left,←,0.759453599806875,True,8,1,0,0
Y2-S2-190K21,4,320,PS,exp,27,↑,up,↑,0.5893484996631742,True,8,1,0,0
Y2-S2-190K21,4,321,PS,exp,39,←,left,←,0.47145549999549985,True,7,1,0,0
Y2-S2-190K21,4,322,PS,exp,33,↓,down,↓,0.7162868999876082,True,7,1,0,0
Y2-S2-190K21,4,323,PS,exp,37,→,right,→,0.661436399910599,True,7,1,0,0
Y2-S2-190K21,4,324,PS,exp,48,↓,down,↓,0.5264711999334395,True,6,1,0,0
Y2-S2-190K21,4,325,PS,exp,25,→,down,↓,1.1155153000727296,False,6,-1,1,1
Y2-S2-190K21,4,326,PS,exp,32,↓,down,↓,0.5426735999062657,True,7,-1,0,1
Y2-S2-190K21,4,327,PS,exp,31,↑,left,←,0.756239699665457,False,7,-1,0,1
Y2-S2-190K21,4,328,PS,exp,25,→,left,←,0.8113456000573933,False,8,-1,0,1
Y2-S2-190K21,4,329,PS,exp,33,←,left,←,0.6036713998764753,True,9,-1,0,1
Y2-S2-190K21,4,330,PS,exp,47,→,right,→,0.5704246000386775,True,9,-1,0,1
Y2-S2-190K21,4,331,PS,exp,45,↓,down,↓,0.6507596997544169,True,9,1,1,2
Y2-S2-190K21,4,332,PS,exp,28,→,right,→,0.799779400229454,True,8,1,0,2
Y2-S2-190K21,4,333,PS,exp,35,↓,down,↓,0.6450557000935078,True,8,1,0,2
Y2-S2-190K21,4,334,PS,exp,30,↑,down,↓,0.6254222998395562,False,8,-1,1,3
Y2-S2-190K21,4,335,PS,exp,35,↓,down,↓,0.7327522002160549,True,9,-1,0,3
Y2-S2-190K21,4,336,PS,exp,50,←,left,←,0.5548902000300586,True,9,-1,0,3
Y2-S2-190K21,4,337,PS,exp,26,→,right,→,0.7082102000713348,True,9,1,1,4
Y2-S2-190K21,4,338,PS,exp,34,↓,down,↓,0.6733277998864651,True,8,1,0,4
Y2-S2-190K21,4,339,PS,exp,43,↑,up,↑,0.5299010998569429,True,8,1,0,4
Y2-S2-190K21,4,340,PS,exp,45,→,right,→,0.7568771000951529,True,8,1,0,4
Y2-S2-190K21,4,341,PS,exp,29,↑,down,↓,0.7690461999736726,False,7,-1,1,5
Y2-S2-190K21,4,342,PS,exp,45,↓,left,←,1.0973330000415444,False,8,-1,0,5
Y2-S2-190K21,4,343,PS,exp,38,→,right,→,0.645649699959904,True,9,-1,0,5
Y2-S2-190K21,4,344,PS,exp,26,↓,right,→,0.9997572000138462,False,9,-1,0,5
Y2-S2-190K21,4,345,PS,exp,36,↑,up,↑,0.8930518003180623,True,10,-1,0,5
Y2-S2-190K21,4,346,PS,exp,36,→,right,→,0.6715367003343999,True,10,-1,0,5
Y2-S2-190K21,4,347,PS,exp,30,←,left,←,0.6163035999052227,True,10,1,1,6
Y2-S2-190K21,4,348,PS,exp,37,↓,down,↓,0.5507495002821088,True,9,1,0,6
Y2-S2-190K21,4,349,PS,exp,32,←,left,←,0.47812650026753545,True,9,1,0,6
Y2-S2-190K21,4,350,PS,exp,42,↑,up,↑,0.49319589976221323,True,9,1,0,6
Y2-S2-190K21,4,351,PS,exp,34,←,left,←,0.4306756001897156,True,8,1,0,6
Y2-S2-190K21,4,352,PS,exp,25,→,right,→,0.6140300999395549,True,8,1,0,6
Y2-S2-190K21,4,353,PS,exp,40,↑,up,↑,0.502592199947685,True,8,1,0,6
Y2-S2-190K21,4,354,PS,exp,36,↓,down,↓,0.5974034001119435,True,7,1,0,6
Y2-S2-190K21,4,355,PS,exp,50,↑,no_key,no_letter,-1.0,False,7,-1,1,7
Y2-S2-190K21,4,356,PS,exp,30,→,left,←,1.502012699842453,False,8,-1,0,7
Y2-S2-190K21,4,357,PS,exp,39,↑,up,↑,1.1906488998793066,True,9,-1,0,7
Y2-S2-190K21,4,358,PS,exp,41,↓,down,↓,0.5750301997177303,True,9,-1,0,7
Y2-S2-190K21,4,359,PS,exp,26,↑,up,↑,0.5121753998100758,True,9,1,1,8
Y2-S2-190K21,4,360,PS,exp,50,←,right,→,0.8173572001978755,False,8,-1,1,9
Y2-S2-190K21,4,361,PS,exp,43,↓,down,↓,0.5785552002489567,True,9,-1,0,9
Y2-S2-190K21,4,362,PS,exp,42,→,down,↓,0.5739909000694752,False,9,-1,0,9
Y2-S2-190K21,4,363,PS,exp,43,↓,down,↓,0.4461759002879262,True,10,-1,0,9
Y2-S2-190K21,4,364,PS,exp,41,→,right,→,0.6705569997429848,True,10,-1,0,9
Y2-S2-190K21,4,365,PS,exp,34,←,left,←,0.7045407998375595,True,10,1,1,10
Y2-S2-190K21,4,366,PS,exp,41,→,right,→,0.5712689999490976,True,9,1,0,10
Y2-S2-190K21,4,367,PS,exp,45,↑,up,↑,0.6510912999510765,True,9,1,0,10
Y2-S2-190K21,4,368,PS,exp,37,→,right,→,0.5761272003874183,True,9,1,0,10
Y2-S2-190K21,4,369,PS,exp,37,↓,down,↓,0.8605244997888803,True,8,1,0,10
Y2-S2-190K21,4,370,PS,exp,40,→,right,→,0.36454980028793216,True,8,1,0,10
Y2-S2-190K21,4,371,PS,exp,47,↓,down,↓,0.601056800223887,True,8,1,0,10
Y2-S2-190K21,4,372,PS,exp,47,→,right,→,0.5016050999984145,True,7,1,0,10
Y2-S2-190K21,4,373,PS,exp,49,←,left,←,0.6675717001780868,True,7,1,0,10
Y2-S2-190K21,4,374,PS,exp,50,↓,down,↓,0.6471176999621093,True,7,1,0,10
Y2-S2-190K21,4,375,PS,exp,45,→,right,→,0.825295299757272,True,6,1,0,10
Y2-S2-190K21,4,376,PS,exp,38,←,left,←,0.708451199810952,True,6,1,0,10
Y2-S2-190K21,4,377,PS,exp,35,↓,down,↓,0.516901099588722,True,6,1,0,10
Y2-S2-190K21,4,378,PS,exp,27,→,left,←,0.6830438999459147,False,5,-1,1,11
Y2-S2-190K21,4,379,PS,exp,34,↓,right,→,0.5305100004188716,False,6,-1,0,11
Y2-S2-190K21,4,380,PS,exp,38,→,right,→,0.7887098998762667,True,7,-1,0,11
Y2-S2-190K21,4,381,PS,exp,42,←,no_key,no_letter,-1.0,False,7,-1,0,11
Y2-S2-190K21,4,382,PS,exp,28,↓,up,↑,0.9521956001408398,False,8,-1,0,11
Y2-S2-190K21,4,383,PS,exp,49,←,left,←,0.5196191999129951,True,9,-1,0,11
Y2-S2-190K21,4,384,PS,exp,49,↓,right,→,0.8393004001118243,False,9,-1,0,11
Y2-S2-190K21,4,385,PS,exp,36,↑,up,↑,0.4691708995960653,True,10,-1,0,11
Y2-S2-190K21,4,386,PS,exp,25,←,left,←,0.6503387000411749,True,10,-1,0,11
Y2-S2-190K21,4,387,PS,exp,37,↓,left,←,0.6707107000984251,False,10,-1,0,11
Y2-S2-190K21,4,388,PS,exp,39,↑,right,→,0.7133324001915753,False,11,-1,0,11
Y2-S2-190K21,4,389,PS,exp,32,←,right,→,0.4529947000555694,False,12,-1,0,11
Y2-S2-190K21,4,390,PS,exp,44,→,right,→,0.5888247000984848,True,13,-1,0,11
Y2-S2-190K21,4,391,PS,exp,44,↑,left,←,0.6836945000104606,False,13,-1,0,11
Y2-S2-190K21,4,392,PS,exp,49,←,left,←,0.6117775999009609,True,14,-1,0,11
Y2-S2-190K21,4,393,PS,exp,30,→,right,→,0.6867792000994086,True,14,-1,0,11
Y2-S2-190K21,4,394,PS,exp,42,↑,left,←,0.8736799000762403,False,14,-1,0,11
Y2-S2-190K21,4,395,PS,exp,35,↓,down,↓,0.8789562000893056,True,15,-1,0,11
Y2-S2-190K21,4,396,PS,exp,28,←,left,←,0.9211538997478783,True,15,-1,0,11
Y2-S2-190K21,4,397,PS,exp,40,↑,up,↑,0.5194953000172973,True,15,1,1,12
Y2-S2-190K21,4,398,PS,exp,42,↓,down,↓,0.6658671996556222,True,14,1,0,12
Y2-S2-190K21,4,399,PS,exp,34,→,right,→,0.5383860999718308,True,14,1,0,12
Y2-S2-190K21,4,400,PS,exp,37,↑,up,↑,0.5199996000155807,True,14,1,0,12
Y2-S2-190K21,4,401,PS,exp,25,←,left,←,0.6532550002448261,True,13,1,0,12
Y2-S2-190K21,4,402,PS,exp,50,↑,up,↑,0.4807743998244405,True,13,1,0,12
Y2-S2-190K21,4,403,PS,exp,44,←,left,←,0.460744499694556,True,13,1,0,12
Y2-S2-190K21,4,404,PS,exp,45,→,right,→,0.6397150000557303,True,12,1,0,12
Y2-S2-190K21,4,405,PS,exp,33,↓,down,↓,0.5935955001041293,True,12,1,0,12
Y2-S2-190K21,4,406,PS,exp,38,→,right,→,0.5633550998754799,True,12,1,0,12
Y2-S2-190K21,4,407,PS,exp,32,←,left,←,0.5367225999943912,True,11,1,0,12
Y2-S2-190K21,4,408,PS,exp,31,↑,up,↑,0.45930839981883764,True,11,1,0,12
Y2-S2-190K21,4,409,PS,exp,49,↓,down,↓,0.6982495998963714,True,11,1,0,12
Y2-S2-190K21,4,410,PS,exp,41,→,right,→,0.529901800211519,True,10,1,0,12
Y2-S2-190K21,4,411,PS,exp,48,↑,up,↑,0.4752013999968767,True,10,1,0,12
Y2-S2-190K21,4,412,PS,exp,25,←,left,←,0.5006842999719083,True,10,1,0,12
Y2-S2-190K21,4,413,PS,exp,31,→,right,→,0.5034659001976252,True,9,1,0,12
Y2-S2-190K21,4,414,PS,exp,30,↓,left,←,0.6934346999041736,False,9,-1,1,13
Y2-S2-190K21,4,415,PS,exp,43,→,right,→,0.5437170998193324,True,10,-1,0,13
Y2-S2-190K21,4,416,PS,exp,32,↑,up,↑,0.524203899782151,True,10,-1,0,13
Y2-S2-190K21,4,417,PS,exp,33,↓,down,↓,0.684404999949038,True,10,1,1,14
Y2-S2-190K21,4,418,PS,exp,49,←,right,→,0.724851000122726,False,9,-1,1,15
Y2-S2-190K21,4,419,PS,exp,36,↑,up,↑,0.4891046001575887,True,10,-1,0,15
Y2-S2-190K21,4,420,PS,exp,50,←,left,←,0.4943027999252081,True,10,-1,0,15
Y2-S2-190K21,4,421,PS,exp,31,↑,up,↑,0.4441550998017192,True,10,1,1,16
Y2-S2-190K21,5,422,PS,intra_train,39,←,left,←,0.4990523001179099,True,18,-,-,-
Y2-S2-190K21,5,423,PS,intra_train,49,→,right,→,0.7899952996522188,True,18,-,-,-
Y2-S2-190K21,5,424,PS,intra_train,32,↑,up,↑,0.5088617000728846,True,18,-,-,-
Y2-S2-190K21,5,425,PS,intra_train,41,→,right,→,0.666550500318408,True,18,-,-,-
Y2-S2-190K21,5,426,PS,intra_train,40,↓,down,↓,0.7697032000869513,True,18,-,-,-
Y2-S2-190K21,5,427,PS,exp,43,←,left,←,0.40322120022028685,True,12,0,0,0
Y2-S2-190K21,5,428,PS,exp,39,→,up,↑,1.257211800199002,False,12,-1,0,0
Y2-S2-190K21,5,429,PS,exp,38,↓,down,↓,0.8963692998513579,True,13,-1,0,0
Y2-S2-190K21,5,430,PS,exp,30,↑,up,↑,0.8864557999186218,True,13,-1,0,0
Y2-S2-190K21,5,431,PS,exp,41,→,right,→,0.5397872999310493,True,13,1,1,1
Y2-S2-190K21,5,432,PS,exp,45,↑,up,↑,0.5343391001224518,True,12,1,0,1
Y2-S2-190K21,5,433,PS,exp,34,←,left,←,0.9414774999022484,True,12,1,0,1
Y2-S2-190K21,5,434,PS,exp,49,↓,right,→,0.9401961998082697,False,12,-1,1,2
Y2-S2-190K21,5,435,PS,exp,42,←,left,←,0.41912420000880957,True,13,-1,0,2
Y2-S2-190K21,5,436,PS,exp,44,↑,up,↑,0.4974211002700031,True,13,-1,0,2
Y2-S2-190K21,5,437,PS,exp,50,→,right,→,0.5393111002631485,True,13,1,1,3
Y2-S2-190K21,5,438,PS,exp,48,↑,up,↑,0.422295100055635,True,12,1,0,3
Y2-S2-190K21,5,439,PS,exp,34,↓,up,↑,0.39843229996040463,False,12,-1,1,4
Y2-S2-190K21,5,440,PS,exp,27,↑,up,↑,0.4968777997419238,True,13,-1,0,4
Y2-S2-190K21,5,441,PS,exp,44,→,right,→,0.5778449000790715,True,13,-1,0,4
Y2-S2-190K21,5,442,PS,exp,48,←,left,←,0.4930091998539865,True,13,1,1,5
Y2-S2-190K21,5,443,PS,exp,35,↑,up,↑,0.7858738000504673,True,12,1,0,5
Y2-S2-190K21,5,444,PS,exp,29,→,right,→,0.6334290001541376,True,12,1,0,5
Y2-S2-190K21,5,445,PS,exp,45,↑,up,↑,0.4828154998831451,True,12,1,0,5
Y2-S2-190K21,5,446,PS,exp,42,↓,down,↓,0.56055310042575,True,11,1,0,5
Y2-S2-190K21,5,447,PS,exp,31,↑,up,↑,0.5037744003348053,True,11,1,0,5
Y2-S2-190K21,5,448,PS,exp,46,→,right,→,0.5588925997726619,True,11,1,0,5
Y2-S2-190K21,5,449,PS,exp,31,←,left,←,0.5698629999533296,True,10,1,0,5
Y2-S2-190K21,5,450,PS,exp,33,→,right,→,0.6528123999014497,True,10,1,0,5
Y2-S2-190K21,5,451,PS,exp,40,←,left,←,0.5400455999188125,True,10,1,0,5
Y2-S2-190K21,5,452,PS,exp,43,→,right,→,0.5862651998177171,True,9,1,0,5
Y2-S2-190K21,5,453,PS,exp,38,←,left,←,0.500670799985528,True,9,1,0,5
Y2-S2-190K21,5,454,PS,exp,25,→,right,→,0.5186803000979125,True,9,1,0,5
Y2-S2-190K21,5,455,PS,exp,26,↓,down,↓,1.0392189999110997,True,8,1,0,5
Y2-S2-190K21,5,456,PS,exp,34,←,left,←,0.3968956000171602,True,8,1,0,5
Y2-S2-190K21,5,457,PS,exp,43,↑,up,↑,1.1734221000224352,True,8,1,0,5
Y2-S2-190K21,5,458,PS,exp,27,←,left,←,0.4878467000089586,True,7,1,0,5
Y2-S2-190K21,5,459,PS,exp,48,→,right,→,0.4717837003991008,True,7,1,0,5
Y2-S2-190K21,5,460,PS,exp,34,↓,right,→,0.8802863000892103,False,7,-1,1,6
Y2-S2-190K21,5,461,PS,exp,46,←,left,←,0.6122150998562574,True,8,-1,0,6
Y2-S2-190K21,5,462,PS,exp,42,→,right,→,0.4838645001873374,True,8,-1,0,6
Y2-S2-190K21,5,463,PS,exp,34,↑,up,↑,0.5216659000143409,True,8,1,1,7
Y2-S2-190K21,5,464,PS,exp,34,←,left,←,0.5549877001903951,True,7,1,0,7
Y2-S2-190K21,5,465,PS,exp,42,↓,down,↓,0.7396975997835398,True,7,1,0,7
Y2-S2-190K21,5,466,PS,exp,42,←,left,←,0.7162069999612868,True,7,1,0,7
Y2-S2-190K21,5,467,PS,exp,39,↓,down,↓,0.6730989003553987,True,6,1,0,7
Y2-S2-190K21,5,468,PS,exp,50,←,left,←,0.6833975999616086,True,6,1,0,7
Y2-S2-190K21,5,469,PS,exp,30,→,right,→,0.4987843004055321,True,6,1,0,7
Y2-S2-190K21,5,470,PS,exp,45,↓,down,↓,0.6978739001788199,True,5,1,0,7
Y2-S2-190K21,5,471,PS,exp,49,→,right,→,0.49252690002322197,True,5,1,0,7
Y2-S2-190K21,5,472,PS,exp,39,↓,left,←,0.7685976000502706,False,5,-1,1,8
Y2-S2-190K21,5,473,PS,exp,45,↑,left,←,0.7365690995939076,False,6,-1,0,8
Y2-S2-190K21,5,474,PS,exp,40,↓,down,↓,0.9780619000084698,True,7,-1,0,8
Y2-S2-190K21,5,475,PS,exp,29,→,right,→,1.1496704001910985,True,7,-1,0,8
Y2-S2-190K21,5,476,PS,exp,40,↑,right,→,0.5781271997839212,False,7,-1,0,8
Y2-S2-190K21,5,477,PS,exp,38,→,right,→,0.688627399969846,True,8,-1,0,8
Y2-S2-190K21,5,478,PS,exp,30,←,right,→,0.9468568000011146,False,8,-1,0,8
Y2-S2-190K21,5,479,PS,exp,32,↑,up,↑,0.5653429999947548,True,9,-1,0,8
Y2-S2-190K21,5,480,PS,exp,31,↓,down,↓,1.0889250999316573,True,9,-1,0,8
Y2-S2-190K21,5,481,PS,exp,41,↑,up,↑,0.9049526997841895,True,9,1,1,9
Y2-S2-190K21,5,482,PS,exp,47,→,right,→,0.8119617998600006,True,8,1,0,9
Y2-S2-190K21,5,483,PS,exp,43,←,right,→,0.7015172000974417,False,8,-1,1,10
Y2-S2-190K21,5,484,PS,exp,28,↓,down,↓,0.9572200002148747,True,9,-1,0,10
Y2-S2-190K21,5,485,PS,exp,39,←,left,←,0.6154307997785509,True,9,-1,0,10
Y2-S2-190K21,5,486,PS,exp,33,↑,up,↑,0.7347398004494607,True,9,1,1,11
Y2-S2-190K21,5,487,PS,exp,38,↓,down,↓,0.9153195996768773,True,8,1,0,11
Y2-S2-190K21,5,488,PS,exp,44,←,left,←,0.43381879990920424,True,8,1,0,11
Y2-S2-190K21,5,489,PS,exp,29,→,right,→,0.6777026997879148,True,8,1,0,11
Y2-S2-190K21,5,490,PS,exp,41,↑,up,↑,1.012236099690199,True,7,1,0,11
Y2-S2-190K21,5,491,PS,exp,46,↓,down,↓,1.019115500152111,True,7,1,0,11
Y2-S2-190K21,5,492,PS,exp,27,←,right,→,0.5877104001119733,False,7,-1,1,12
Y2-S2-190K21,5,493,PS,exp,30,→,right,→,0.5233436999842525,True,8,-1,0,12
Y2-S2-190K21,5,494,PS,exp,36,←,left,←,0.5665014996193349,True,8,-1,0,12
Y2-S2-190K21,5,495,PS,exp,34,↓,down,↓,0.8247680999338627,True,8,1,1,13
Y2-S2-190K21,5,496,PS,exp,41,←,left,←,0.5655443998984993,True,7,1,0,13
Y2-S2-190K21,5,497,PS,exp,41,→,left,←,0.733566400129348,False,7,-1,1,14
Y2-S2-190K21,5,498,PS,exp,26,↓,down,↓,0.8941978998482227,True,8,-1,0,14
Y2-S2-190K21,5,499,PS,exp,36,→,no_key,no_letter,-1.0,False,8,-1,0,14
Y2-S2-190K21,5,500,PS,exp,30,↑,up,↑,0.6566932001151145,True,9,-1,0,14
Y2-S2-190K21,5,501,PS,exp,50,→,right,→,0.5222525997087359,True,9,-1,0,14
Y2-S2-190K21,5,502,PS,exp,49,←,left,←,0.5961848003789783,True,9,1,1,15
Y2-S2-190K21,5,503,PS,exp,49,↑,up,↑,1.375766399782151,True,8,1,0,15
Y2-S2-190K21,5,504,PS,exp,44,→,right,→,0.6382536003366113,True,8,1,0,15
Y2-S2-190K21,5,505,PS,exp,31,↑,up,↑,0.6912881000898778,True,8,1,0,15
Y2-S2-190K21,5,506,PS,exp,48,↓,right,→,0.5707343998365104,False,7,-1,1,16
Y2-S2-190K21,6,507,AS,intra_train,36,↑,up,↑,1.5460645998828113,True,33,-,-,-
Y2-S2-190K21,6,508,AS,intra_train,37,←,left,←,0.8669352000579238,True,33,-,-,-
Y2-S2-190K21,6,509,AS,intra_train,48,↓,down,↓,1.1475033001042902,True,33,-,-,-
Y2-S2-190K21,6,510,AS,intra_train,46,→,right,→,1.1909075998701155,True,33,-,-,-
Y2-S2-190K21,6,511,AS,intra_train,49,←,left,←,1.309241000097245,True,33,-,-,-
Y2-S2-190K21,6,512,AS,exp,38,→,right,→,1.0405453001148999,True,22,0,0,0
Y2-S2-190K21,6,513,AS,exp,27,←,left,←,0.7569148000329733,True,22,0,0,0
Y2-S2-190K21,6,514,AS,exp,41,↓,down,↓,1.0791179998777807,True,22,1,0,0
Y2-S2-190K21,6,515,AS,exp,49,↑,up,↑,0.6341409999877214,True,21,1,0,0
Y2-S2-190K21,6,516,AS,exp,39,↓,left,←,1.2394264000467956,False,21,-1,1,1
Y2-S2-190K21,6,517,AS,exp,46,↑,up,↑,0.5425443002022803,True,22,-1,0,1
Y2-S2-190K21,6,518,AS,exp,41,↓,down,↓,0.8638505004346371,True,22,-1,0,1
Y2-S2-190K21,6,519,AS,exp,37,←,left,←,0.6774841998703778,True,22,1,1,2
Y2-S2-190K21,6,520,AS,exp,37,↓,down,↓,0.6605885997414589,True,21,1,0,2
Y2-S2-190K21,6,521,AS,exp,30,←,left,←,0.5828895000740886,True,21,1,0,2
Y2-S2-190K21,6,522,AS,exp,42,→,right,→,0.5909433998167515,True,21,1,0,2
Y2-S2-190K21,6,523,AS,exp,35,↑,up,↑,0.6104672001674771,True,20,1,0,2
Y2-S2-190K21,6,524,AS,exp,30,←,left,←,0.5827433001250029,True,20,1,0,2
Y2-S2-190K21,6,525,AS,exp,41,→,right,→,0.6227903002873063,True,20,1,0,2
Y2-S2-190K21,6,526,AS,exp,27,↑,up,↑,0.6084579997695982,True,19,1,0,2
Y2-S2-190K21,6,527,AS,exp,32,←,left,←,0.5420236000791192,True,19,1,0,2
Y2-S2-190K21,6,528,AS,exp,25,↓,up,↑,0.5505423001013696,False,19,-1,1,3
Y2-S2-190K21,6,529,AS,exp,31,←,left,←,0.7705501997843385,True,20,-1,0,3
Y2-S2-190K21,6,530,AS,exp,45,↑,up,↑,1.2278216001577675,True,20,-1,0,3
Y2-S2-190K21,6,531,AS,exp,41,←,left,←,0.5195957999676466,True,20,1,1,4
Y2-S2-190K21,6,532,AS,exp,38,→,right,→,0.7123400997370481,True,19,1,0,4
Y2-S2-190K21,6,533,AS,exp,34,↑,up,↑,0.7302890997380018,True,19,1,0,4
Y2-S2-190K21,6,534,AS,exp,25,←,left,←,0.8326917998492718,True,19,1,0,4
Y2-S2-190K21,6,535,AS,exp,39,→,no_key,no_letter,-1.0,False,18,-1,1,5
Y2-S2-190K21,6,536,AS,exp,32,←,left,←,1.051715699955821,True,19,-1,0,5
Y2-S2-190K21,6,537,AS,exp,33,→,right,→,0.7577452999539673,True,19,-1,0,5
Y2-S2-190K21,6,538,AS,exp,31,←,left,←,1.3760633999481797,True,19,1,1,6
Y2-S2-190K21,6,539,AS,exp,49,↓,down,↓,0.6268044002354145,True,18,1,0,6
Y2-S2-190K21,6,540,AS,exp,40,←,left,←,0.5194141999818385,True,18,1,0,6
Y2-S2-190K21,6,541,AS,exp,38,↓,down,↓,0.7166021000593901,True,18,1,0,6
Y2-S2-190K21,6,542,AS,exp,32,↑,right,→,1.0437159999273717,False,17,-1,1,7
Y2-S2-190K21,6,543,AS,exp,50,↓,down,↓,0.5833995998837054,True,18,-1,0,7
Y2-S2-190K21,6,544,AS,exp,40,←,left,←,0.7310442999005318,True,18,-1,0,7
Y2-S2-190K21,6,545,AS,exp,27,→,right,→,0.5658966000191867,True,18,1,1,8
Y2-S2-190K21,6,546,AS,exp,45,←,left,←,0.5034941001795232,True,17,1,0,8
Y2-S2-190K21,6,547,AS,exp,30,→,up,↑,0.7141762999817729,False,17,-1,1,9
Y2-S2-190K21,6,548,AS,exp,29,↑,left,←,0.8833151999861002,False,18,-1,0,9
Y2-S2-190K21,6,549,AS,exp,42,↓,down,↓,1.079380199778825,True,19,-1,0,9
Y2-S2-190K21,6,550,AS,exp,30,→,right,→,0.685821000020951,True,19,-1,0,9
Y2-S2-190K21,6,551,AS,exp,32,↑,up,↑,0.7150512002408504,True,19,1,1,10
Y2-S2-190K21,6,552,AS,exp,41,→,right,→,1.0606924998573959,True,18,1,0,10
Y2-S2-190K21,6,553,AS,exp,39,←,left,←,0.7779777999967337,True,18,1,0,10
Y2-S2-190K21,6,554,AS,exp,42,↓,down,↓,0.8933970998041332,True,18,1,0,10
Y2-S2-190K21,6,555,AS,exp,33,→,right,→,0.7285525999031961,True,17,1,0,10
Y2-S2-190K21,6,556,AS,exp,37,↑,down,↓,1.0926978001371026,False,17,-1,1,11
Y2-S2-190K21,6,557,AS,exp,42,←,left,←,0.6228112000972033,True,18,-1,0,11
Y2-S2-190K21,6,558,AS,exp,34,→,right,→,0.9297541999258101,True,18,-1,0,11
Y2-S2-190K21,6,559,AS,exp,49,↓,down,↓,0.7264551999978721,True,18,1,1,12
Y2-S2-190K21,6,560,AS,exp,39,↑,up,↑,0.5576788997277617,True,17,1,0,12
Y2-S2-190K21,6,561,AS,exp,26,↓,down,↓,1.159822199959308,True,17,1,0,12
Y2-S2-190K21,6,562,AS,exp,27,←,left,←,1.0023280996829271,True,17,1,0,12
Y2-S2-190K21,6,563,AS,exp,38,↓,right,→,1.0051354998722672,False,16,-1,1,13
Y2-S2-190K21,6,564,AS,exp,33,←,left,←,1.0357111999765038,True,17,-1,0,13
Y2-S2-190K21,6,565,AS,exp,50,↑,right,→,0.9353489000350237,False,17,-1,0,13
Y2-S2-190K21,6,566,AS,exp,33,→,left,←,0.8670139000751078,False,18,-1,0,13
Y2-S2-190K21,6,567,AS,exp,47,←,left,←,1.2394882999360561,True,19,-1,0,13
Y2-S2-190K21,6,568,AS,exp,30,→,right,→,1.031881700269878,True,19,-1,0,13
Y2-S2-190K21,6,569,AS,exp,33,↓,down,↓,0.8520925999619067,True,19,1,1,14
Y2-S2-190K21,6,570,AS,exp,42,←,left,←,0.7476764000020921,True,18,1,0,14
Y2-S2-190K21,6,571,AS,exp,32,↓,down,↓,1.4185186000540853,True,18,1,0,14
Y2-S2-190K21,6,572,AS,exp,31,→,right,→,0.7043857001699507,True,18,1,0,14
Y2-S2-190K21,6,573,AS,exp,27,←,left,←,0.858958899974823,True,17,1,0,14
Y2-S2-190K21,6,574,AS,exp,41,↓,down,↓,0.694624500349164,True,17,1,0,14
Y2-S2-190K21,6,575,AS,exp,48,→,right,→,0.8573026000522077,True,17,1,0,14
Y2-S2-190K21,6,576,AS,exp,41,↓,down,↓,0.7662317999638617,True,16,1,0,14
Y2-S2-190K21,6,577,AS,exp,37,→,left,←,0.8760668998584151,False,16,-1,1,15
Y2-S2-190K21,6,578,AS,exp,42,↑,right,→,0.9215429001487792,False,17,-1,0,15
Y2-S2-190K21,6,579,AS,exp,46,←,left,←,0.7177027002908289,True,18,-1,0,15
Y2-S2-190K21,6,580,AS,exp,39,↑,left,←,1.331110400147736,False,18,-1,0,15
Y2-S2-190K21,6,581,AS,exp,50,←,left,←,0.7933291997760534,True,19,-1,0,15
Y2-S2-190K21,6,582,AS,exp,49,→,right,→,0.6449376996606588,True,19,-1,0,15
Y2-S2-190K21,6,583,AS,exp,34,↓,down,↓,0.9729075999930501,True,19,1,1,16
Y2-S2-190K21,7,584,AS,intra_train,28,←,left,←,0.7602050001733005,True,33,-,-,-
Y2-S2-190K21,7,585,AS,intra_train,48,→,left,←,0.5350278997793794,False,33,-,-,-
Y2-S2-190K21,7,586,AS,intra_train,44,↓,down,↓,0.8229416999965906,True,33,-,-,-
Y2-S2-190K21,7,587,AS,intra_train,34,↑,up,↑,0.6007738001644611,True,33,-,-,-
Y2-S2-190K21,7,588,AS,intra_train,26,↓,down,↓,0.8014982999302447,True,33,-,-,-
Y2-S2-190K21,7,589,AS,exp,44,→,right,→,0.8544569001533091,True,22,0,0,0
Y2-S2-190K21,7,590,AS,exp,49,↓,down,↓,0.824910500086844,True,22,0,0,0
Y2-S2-190K21,7,591,AS,exp,25,→,right,→,0.5666027003899217,True,22,1,0,0
Y2-S2-190K21,7,592,AS,exp,33,↑,down,↓,1.455310800112784,False,21,-1,1,1
Y2-S2-190K21,7,593,AS,exp,49,←,left,←,0.7239846000447869,True,22,-1,0,1
Y2-S2-190K21,7,594,AS,exp,48,↓,down,↓,0.7293980000540614,True,22,-1,0,1
Y2-S2-190K21,7,595,AS,exp,29,→,right,→,0.7645854000002146,True,22,1,1,2
Y2-S2-190K21,7,596,AS,exp,40,↓,left,←,0.8099336000159383,False,21,-1,1,3
Y2-S2-190K21,7,597,AS,exp,38,↑,up,↑,0.8000904000364244,True,22,-1,0,3
Y2-S2-190K21,7,598,AS,exp,47,→,right,→,1.4048665002919734,True,22,-1,0,3
Y2-S2-190K21,7,599,AS,exp,25,↓,down,↓,0.7040712996385992,True,22,1,1,4
Y2-S2-190K21,7,600,AS,exp,50,↑,up,↑,1.1601171996444464,True,21,1,0,4
Y2-S2-190K21,7,601,AS,exp,46,↓,down,↓,1.189056200440973,True,21,1,0,4
Y2-S2-190K21,7,602,AS,exp,29,→,right,→,0.9542495999485254,True,21,1,0,4
Y2-S2-190K21,7,603,AS,exp,29,↑,up,↑,1.2247681999579072,True,20,1,0,4
Y2-S2-190K21,7,604,AS,exp,45,↓,down,↓,0.7616014000959694,True,20,1,0,4
Y2-S2-190K21,7,605,AS,exp,47,→,right,→,0.7390928999520838,True,20,1,0,4
Y2-S2-190K21,7,606,AS,exp,29,↑,down,↓,1.2344403001479805,False,19,-1,1,5
Y2-S2-190K21,7,607,AS,exp,50,→,right,→,0.7357842000201344,True,20,-1,0,5
Y2-S2-190K21,7,608,AS,exp,26,↓,down,↓,0.7359211002476513,True,20,-1,0,5
Y2-S2-190K21,7,609,AS,exp,26,←,left,←,0.9364645997993648,True,20,1,1,6
Y2-S2-190K21,7,610,AS,exp,49,↑,down,↓,1.00488519994542,False,19,-1,1,7
Y2-S2-190K21,7,611,AS,exp,28,←,left,←,0.8735952000133693,True,20,-1,0,7
Y2-S2-190K21,7,612,AS,exp,40,↓,left,←,0.5859662997536361,False,20,-1,0,7
Y2-S2-190K21,7,613,AS,exp,36,↑,right,→,0.7385722999460995,False,21,-1,0,7
Y2-S2-190K21,7,614,AS,exp,38,→,right,→,0.6891812002286315,True,22,-1,0,7
Y2-S2-190K21,7,615,AS,exp,29,←,left,←,0.9792825002223253,True,22,-1,0,7
Y2-S2-190K21,7,616,AS,exp,41,↑,left,←,0.38389849988743663,False,22,-1,0,7
Y2-S2-190K21,7,617,AS,exp,32,←,left,←,0.7399793998338282,True,23,-1,0,7
Y2-S2-190K21,7,618,AS,exp,46,→,right,→,0.7615479999221861,True,23,-1,0,7
Y2-S2-190K21,7,619,AS,exp,30,←,right,→,0.5977619998157024,False,23,-1,0,7
Y2-S2-190K21,7,620,AS,exp,33,↑,left,←,0.7856682003475726,False,24,-1,0,7
Y2-S2-190K21,7,621,AS,exp,28,←,left,←,1.2771021998487413,True,25,-1,0,7
Y2-S2-190K21,7,622,AS,exp,34,↑,up,↑,1.2023922000080347,True,25,-1,0,7
Y2-S2-190K21,7,623,AS,exp,44,→,left,←,0.9823789000511169,False,25,-1,0,7
Y2-S2-190K21,7,624,AS,exp,29,↑,down,↓,1.058340399991721,False,26,-1,0,7
Y2-S2-190K21,7,625,AS,exp,31,↓,down,↓,0.8480444001033902,True,27,-1,0,7
Y2-S2-190K21,7,626,AS,exp,38,←,left,←,1.2157574999146163,True,27,-1,0,7
Y2-S2-190K21,7,627,AS,exp,27,↑,up,↑,1.2678531999699771,True,27,1,1,8
Y2-S2-190K21,7,628,AS,exp,35,←,left,←,0.8891135999001563,True,26,1,0,8
Y2-S2-190K21,7,629,AS,exp,31,↓,no_key,no_letter,-1.0,False,26,-1,1,9
Y2-S2-190K21,7,630,AS,exp,36,→,down,↓,1.1950008003041148,False,27,-1,0,9
Y2-S2-190K21,7,631,AS,exp,38,↑,up,↑,0.8982240003533661,True,28,-1,0,9
Y2-S2-190K21,7,632,AS,exp,39,↓,down,↓,0.939945500344038,True,28,-1,0,9
Y2-S2-190K21,7,633,AS,exp,27,→,right,→,1.0936401998624206,True,28,1,1,10
Y2-S2-190K21,7,634,AS,exp,30,←,left,←,0.6780267003923655,True,27,1,0,10
Y2-S2-190K21,7,635,AS,exp,30,→,no_key,no_letter,-1.0,False,27,-1,1,11
Y2-S2-190K21,7,636,AS,exp,46,↑,up,↑,0.9180018003098667,True,28,-1,0,11
Y2-S2-190K21,7,637,AS,exp,29,→,right,→,0.8478410998359323,True,28,-1,0,11
Y2-S2-190K21,7,638,AS,exp,28,←,left,←,0.7908890000544488,True,28,1,1,12
Y2-S2-190K21,7,639,AS,exp,41,↑,up,↑,0.8004159997217357,True,27,1,0,12
Y2-S2-190K21,7,640,AS,exp,27,←,right,→,0.8000157997012138,False,27,-1,1,13
Y2-S2-190K21,7,641,AS,exp,36,↑,up,↑,0.8171104998327792,True,28,-1,0,13
Y2-S2-190K21,7,642,AS,exp,29,→,right,→,0.7308859000913799,True,28,-1,0,13
Y2-S2-190K21,7,643,AS,exp,36,←,left,←,1.0707632000558078,True,28,1,1,14
Y2-S2-190K21,7,644,AS,exp,38,↓,down,↓,0.859073399566114,True,27,1,0,14
Y2-S2-190K21,7,645,AS,exp,34,↑,up,↑,0.8612363999709487,True,27,1,0,14
Y2-S2-190K21,7,646,AS,exp,30,←,left,←,0.9798778998665512,True,27,1,0,14
Y2-S2-190K21,7,647,AS,exp,42,→,right,→,1.0116266999393702,True,26,1,0,14
Y2-S2-190K21,7,648,AS,exp,31,←,left,←,1.1766152996569872,True,26,1,0,14
Y2-S2-190K21,7,649,AS,exp,29,→,right,→,1.0157026001252234,True,26,1,0,14
Y2-S2-190K21,7,650,AS,exp,46,↓,down,↓,0.8357470999471843,True,25,1,0,14
Y2-S2-190K21,7,651,AS,exp,36,←,left,←,1.3622066001407802,True,25,1,0,14
Y2-S2-190K21,7,652,AS,exp,43,↓,down,↓,0.8952123997732997,True,25,1,0,14
Y2-S2-190K21,7,653,AS,exp,30,←,left,←,0.8835096000693738,True,24,1,0,14
Y2-S2-190K21,7,654,AS,exp,39,→,right,→,1.543873299844563,True,24,1,0,14
Y2-S2-190K21,7,655,AS,exp,31,←,left,←,0.853103700093925,True,24,1,0,14
Y2-S2-190K21,7,656,AS,exp,37,→,right,→,0.8137179003097117,True,23,1,0,14
Y2-S2-190K21,7,657,AS,exp,36,←,left,←,1.0966173000633717,True,23,1,0,14
Y2-S2-190K21,7,658,AS,exp,37,↓,right,→,1.0399941997602582,False,23,-1,1,15
Y2-S2-190K21,7,659,AS,exp,41,→,right,→,0.772628600243479,True,24,-1,0,15
Y2-S2-190K21,7,660,AS,exp,32,←,left,←,0.7362093003466725,True,24,-1,0,15
Y2-S2-190K21,7,661,AS,exp,41,↑,up,↑,1.476022099610418,True,24,1,1,16
Y2-S2-190K21,8,662,PS,intra_train,39,↓,down,↓,0.6834603999741375,True,18,-,-,-
Y2-S2-190K21,8,663,PS,intra_train,44,↑,up,↑,0.7369597000069916,True,18,-,-,-
Y2-S2-190K21,8,664,PS,intra_train,29,→,right,→,0.8077132999897003,True,18,-,-,-
Y2-S2-190K21,8,665,PS,intra_train,48,←,left,←,0.7331679002381861,True,18,-,-,-
Y2-S2-190K21,8,666,PS,intra_train,48,↑,up,↑,0.7435278999619186,True,18,-,-,-
Y2-S2-190K21,8,667,PS,exp,34,→,right,→,0.63667430030182,True,12,0,0,0
Y2-S2-190K21,8,668,PS,exp,35,↓,down,↓,0.729782999958843,True,12,0,0,0
Y2-S2-190K21,8,669,PS,exp,50,→,right,→,0.6701275003142655,True,12,1,0,0
Y2-S2-190K21,8,670,PS,exp,37,←,right,→,0.8009409997612238,False,11,-1,1,1
Y2-S2-190K21,8,671,PS,exp,48,↑,up,↑,0.4452809002250433,True,12,-1,0,1
Y2-S2-190K21,8,672,PS,exp,28,↓,right,→,1.0208038999699056,False,12,-1,0,1
Y2-S2-190K21,8,673,PS,exp,47,→,right,→,0.46499500004574656,True,13,-1,0,1
Y2-S2-190K21,8,674,PS,exp,32,↓,down,↓,0.5541611001826823,True,13,-1,0,1
Y2-S2-190K21,8,675,PS,exp,48,↑,up,↑,0.5253416998311877,True,13,1,1,2
Y2-S2-190K21,8,676,PS,exp,49,→,right,→,0.8741176002658904,True,12,1,0,2
Y2-S2-190K21,8,677,PS,exp,39,←,right,→,0.5097525999881327,False,12,-1,1,3
Y2-S2-190K21,8,678,PS,exp,28,↑,right,→,0.8222085000015795,False,13,-1,0,3
Y2-S2-190K21,8,679,PS,exp,40,→,right,→,0.7777307997457683,True,14,-1,0,3
Y2-S2-190K21,8,680,PS,exp,39,↓,right,→,0.8889124998822808,False,14,-1,0,3
Y2-S2-190K21,8,681,PS,exp,33,→,right,→,0.6389919999055564,True,15,-1,0,3
Y2-S2-190K21,8,682,PS,exp,42,↑,up,↑,0.8500733999535441,True,15,-1,0,3
Y2-S2-190K21,8,683,PS,exp,38,→,right,→,0.5528087001293898,True,15,1,1,4
Y2-S2-190K21,8,684,PS,exp,47,↓,down,↓,0.5093546998687088,True,14,1,0,4
Y2-S2-190K21,8,685,PS,exp,38,↑,up,↑,1.7701544002629817,True,14,1,0,4
Y2-S2-190K21,8,686,PS,exp,34,↓,down,↓,0.9205534998327494,True,14,1,0,4
Y2-S2-190K21,8,687,PS,exp,27,→,right,→,1.1277034999802709,True,13,1,0,4
Y2-S2-190K21,8,688,PS,exp,33,↑,up,↑,0.8180284998379648,True,13,1,0,4
Y2-S2-190K21,8,689,PS,exp,43,↓,down,↓,0.9408082999289036,True,13,1,0,4
Y2-S2-190K21,8,690,PS,exp,48,→,right,→,0.6141563998535275,True,12,1,0,4
Y2-S2-190K21,8,691,PS,exp,25,↓,down,↓,0.9523574002087116,True,12,1,0,4
Y2-S2-190K21,8,692,PS,exp,30,→,right,→,0.7076603998430073,True,12,1,0,4
Y2-S2-190K21,8,693,PS,exp,33,←,left,←,0.9935066001489758,True,11,1,0,4
Y2-S2-190K21,8,694,PS,exp,38,→,right,→,0.7862077997997403,True,11,1,0,4
Y2-S2-190K21,8,695,PS,exp,44,←,left,←,0.5718020000495017,True,11,1,0,4
Y2-S2-190K21,8,696,PS,exp,31,↑,up,↑,0.7039775997400284,True,10,1,0,4
Y2-S2-190K21,8,697,PS,exp,42,↓,down,↓,0.6060218000784516,True,10,1,0,4
Y2-S2-190K21,8,698,PS,exp,38,↑,up,↑,0.6215237001888454,True,10,1,0,4
Y2-S2-190K21,8,699,PS,exp,42,→,right,→,0.7162012998014688,True,9,1,0,4
Y2-S2-190K21,8,700,PS,exp,29,←,left,←,0.778418299742043,True,9,1,0,4
Y2-S2-190K21,8,701,PS,exp,41,↓,down,↓,0.9995625000447035,True,9,1,0,4
Y2-S2-190K21,8,702,PS,exp,44,←,left,←,0.9788282997906208,True,8,1,0,4
Y2-S2-190K21,8,703,PS,exp,32,→,right,→,0.7833193000406027,True,8,1,0,4
Y2-S2-190K21,8,704,PS,exp,32,↑,up,↑,0.8369444999843836,True,8,1,0,4
Y2-S2-190K21,8,705,PS,exp,48,←,left,←,0.5739329000934958,True,7,1,0,4
Y2-S2-190K21,8,706,PS,exp,31,↓,left,←,0.6310149002820253,False,7,-1,1,5
Y2-S2-190K21,8,707,PS,exp,31,←,left,←,0.6586099001578987,True,8,-1,0,5
Y2-S2-190K21,8,708,PS,exp,37,↑,up,↑,0.5077541000209749,True,8,-1,0,5
Y2-S2-190K21,8,709,PS,exp,28,↓,down,↓,0.6301481002010405,True,8,1,1,6
Y2-S2-190K21,8,710,PS,exp,47,←,left,←,0.9422672996297479,True,7,1,0,6
Y2-S2-190K21,8,711,PS,exp,25,→,right,→,0.8337865998037159,True,7,1,0,6
Y2-S2-190K21,8,712,PS,exp,39,↑,right,→,0.717956599779427,False,7,-1,1,7
Y2-S2-190K21,8,713,PS,exp,42,→,right,→,0.7757919998839498,True,8,-1,0,7
Y2-S2-190K21,8,714,PS,exp,38,↓,right,→,0.9196839001961052,False,8,-1,0,7
Y2-S2-190K21,8,715,PS,exp,48,→,right,→,0.620533199980855,True,9,-1,0,7
Y2-S2-190K21,8,716,PS,exp,32,←,left,←,0.8589543998241425,True,9,-1,0,7
Y2-S2-190K21,8,717,PS,exp,27,↑,up,↑,0.5876977001316845,True,9,1,1,8
Y2-S2-190K21,8,718,PS,exp,37,↓,down,↓,1.00143130030483,True,8,1,0,8
Y2-S2-190K21,8,719,PS,exp,28,→,right,→,0.9955978002399206,True,8,1,0,8
Y2-S2-190K21,8,720,PS,exp,46,←,up,↑,0.9613903001882136,False,8,-1,1,9
Y2-S2-190K21,8,721,PS,exp,36,↓,down,↓,0.8275136002339423,True,9,-1,0,9
Y2-S2-190K21,8,722,PS,exp,31,→,right,→,0.647184900008142,True,9,-1,0,9
Y2-S2-190K21,8,723,PS,exp,45,↑,up,↑,0.7216179999522865,True,9,1,1,10
Y2-S2-190K21,8,724,PS,exp,50,→,right,→,0.6962221004068851,True,8,1,0,10
Y2-S2-190K21,8,725,PS,exp,27,←,left,←,0.7066923999227583,True,8,1,0,10
Y2-S2-190K21,8,726,PS,exp,45,↑,up,↑,0.5529223997145891,True,8,1,0,10
Y2-S2-190K21,8,727,PS,exp,43,←,right,→,0.6671783998608589,False,7,-1,1,11
Y2-S2-190K21,8,728,PS,exp,25,→,right,→,0.5640567000955343,True,8,-1,0,11
Y2-S2-190K21,8,729,PS,exp,44,↓,down,↓,0.8223061999306083,True,8,-1,0,11
Y2-S2-190K21,8,730,PS,exp,26,→,right,→,0.6765177003107965,True,8,1,1,12
Y2-S2-190K21,8,731,PS,exp,25,↑,up,↑,0.713293899782002,True,7,1,0,12
Y2-S2-190K21,8,732,PS,exp,33,←,left,←,1.1692248000763357,True,7,1,0,12
Y2-S2-190K21,8,733,PS,exp,26,↑,down,↓,0.9445855002850294,False,7,-1,1,13
Y2-S2-190K21,8,734,PS,exp,43,↓,down,↓,0.6876500998623669,True,8,-1,0,13
Y2-S2-190K21,8,735,PS,exp,45,↑,up,↑,0.5066819000057876,True,8,-1,0,13
Y2-S2-190K21,8,736,PS,exp,32,←,right,→,0.7627560999244452,False,8,-1,0,13
Y2-S2-190K21,8,737,PS,exp,47,↓,down,↓,0.7117538000456989,True,9,-1,0,13
Y2-S2-190K21,8,738,PS,exp,48,←,left,←,0.6056400001980364,True,9,-1,0,13
Y2-S2-190K21,8,739,PS,exp,36,→,right,→,0.6295488998293877,True,9,1,1,14
Y2-S2-190K21,8,740,PS,exp,45,←,left,←,1.2989370999857783,True,8,1,0,14
Y2-S2-190K21,8,741,PS,exp,42,↓,down,↓,0.7301097996532917,True,8,1,0,14
Y2-S2-190K21,8,742,PS,exp,37,↑,up,↑,0.8138643000274897,True,8,1,0,14
Y2-S2-190K21,8,743,PS,exp,48,↓,down,↓,0.8158216001465917,True,7,1,0,14
Y2-S2-190K21,8,744,PS,exp,47,←,left,←,0.612697800155729,True,7,1,0,14
Y2-S2-190K21,8,745,PS,exp,33,↓,right,→,0.8754783999174833,False,7,-1,1,15
Y2-S2-190K21,8,746,PS,exp,33,↑,up,↑,0.6810407997108996,True,8,-1,0,15
Y2-S2-190K21,8,747,PS,exp,26,↓,right,→,0.9010077002458274,False,8,-1,0,15
Y2-S2-190K21,8,748,PS,exp,25,↑,up,↑,0.596125100273639,True,9,-1,0,15
Y2-S2-190K21,8,749,PS,exp,50,←,left,←,0.5513086998835206,True,9,-1,0,15
Y2-S2-190K21,8,750,PS,exp,49,↓,down,↓,0.5867310999892652,True,9,1,1,16
