PART_ID,Block_no,Trial_no,Block_type,Trial_type,CSI,Stim_letter,Key_pressed,letter_choose,Rt,Corr,Stimulus Time,Level,Reversal,Revs_count
Y2-S2-193K20,1,1,PS,train,41,↑,up,↑,0.9699617000005674,True,30,-,-,-
Y2-S2-193K20,1,2,PS,train,37,→,right,→,0.7749191999901086,True,30,-,-,-
Y2-S2-193K20,1,3,PS,train,44,↑,up,↑,0.5839469999773428,True,30,-,-,-
Y2-S2-193K20,1,4,PS,train,41,←,left,←,0.8112472000066191,True,30,-,-,-
Y2-S2-193K20,1,5,PS,train,29,→,right,→,0.7442609000136144,True,30,-,-,-
Y2-S2-193K20,1,6,PS,train,49,↓,down,↓,0.7936044000089169,True,30,-,-,-
Y2-S2-193K20,1,7,PS,train,28,→,right,→,0.7602172000042628,True,30,-,-,-
Y2-S2-193K20,1,8,PS,train,41,←,left,←,0.7835983000113629,True,30,-,-,-
Y2-S2-193K20,1,9,PS,train,41,↑,up,↑,0.9069870000239462,True,30,-,-,-
Y2-S2-193K20,1,10,PS,train,34,→,right,→,0.9339070999994874,True,30,-,-,-
Y2-S2-193K20,2,11,AS,train,35,←,left,←,0.6511982000083663,True,45,-,-,-
Y2-S2-193K20,2,12,AS,train,29,→,right,→,0.6680171999905724,True,45,-,-,-
Y2-S2-193K20,2,13,AS,train,32,←,left,←,0.6177934000152163,True,45,-,-,-
Y2-S2-193K20,2,14,AS,train,28,↑,up,↑,0.8341797000030056,True,45,-,-,-
Y2-S2-193K20,2,15,AS,train,46,→,right,→,0.7009080999996513,True,45,-,-,-
Y2-S2-193K20,2,16,AS,train,37,←,left,←,0.6009629000036512,True,45,-,-,-
Y2-S2-193K20,2,17,AS,train,25,↑,up,↑,0.6177782000158913,True,45,-,-,-
Y2-S2-193K20,2,18,AS,train,35,←,left,←,0.651172600017162,True,45,-,-,-
Y2-S2-193K20,2,19,AS,train,31,→,right,→,0.6675092999939807,True,45,-,-,-
Y2-S2-193K20,2,20,AS,train,30,←,left,←,0.6678042999992613,True,45,-,-,-
Y2-S2-193K20,-,21,PS,adaptive,31,↑,left,←,1.4152980000071693,False,10,-1,0,0
Y2-S2-193K20,-,22,PS,adaptive,42,←,up,↑,1.573536799987778,False,11,-1,0,0
Y2-S2-193K20,-,23,PS,adaptive,44,↓,down,↓,0.8112549999787007,True,12,-1,0,0
Y2-S2-193K20,-,24,PS,adaptive,43,→,up,↑,1.21927100000903,False,12,-1,0,0
Y2-S2-193K20,-,25,PS,adaptive,26,←,right,→,1.1380231000075582,False,13,-1,0,0
Y2-S2-193K20,-,26,PS,adaptive,35,↓,down,↓,0.7781526999897324,True,14,-1,0,0
Y2-S2-193K20,-,27,PS,adaptive,43,↑,up,↑,0.7052401999826543,True,14,-1,0,0
Y2-S2-193K20,-,28,PS,adaptive,49,→,right,→,1.2674968999926932,True,14,1,1,1
Y2-S2-193K20,-,29,PS,adaptive,41,↑,up,↑,0.7744622000027448,True,13,1,0,1
Y2-S2-193K20,-,30,PS,adaptive,31,↓,down,↓,0.7206681999959983,True,13,1,0,1
Y2-S2-193K20,-,31,PS,adaptive,42,↑,up,↑,1.04941899998812,True,13,1,0,1
Y2-S2-193K20,-,32,PS,adaptive,30,←,left,←,0.8024120999907609,True,12,1,0,1
Y2-S2-193K20,-,33,PS,adaptive,41,↑,up,↑,0.7905762000009418,True,12,1,0,1
Y2-S2-193K20,-,34,PS,adaptive,46,→,up,↑,1.2166802999854553,False,12,-1,1,2
Y2-S2-193K20,-,35,PS,adaptive,40,↓,down,↓,0.7368087000213563,True,13,-1,0,2
Y2-S2-193K20,-,36,PS,adaptive,43,←,left,←,0.6329302999947686,True,13,-1,0,2
Y2-S2-193K20,-,37,PS,adaptive,50,→,left,←,0.7777808999817353,False,13,-1,0,2
Y2-S2-193K20,-,38,PS,adaptive,38,↓,up,↑,1.0716138999850955,False,14,-1,0,2
Y2-S2-193K20,-,39,PS,adaptive,48,→,right,→,0.5062349000072572,True,15,-1,0,2
Y2-S2-193K20,-,40,PS,adaptive,48,↓,up,↑,0.8165628999995533,False,15,-1,0,2
Y2-S2-193K20,-,41,PS,adaptive,33,↑,up,↑,0.8571721999906003,True,16,-1,0,2
Y2-S2-193K20,-,42,PS,adaptive,39,←,left,←,0.6296070999815129,True,16,-1,0,2
Y2-S2-193K20,-,43,PS,adaptive,37,→,left,←,0.8999110999866389,False,16,-1,0,2
Y2-S2-193K20,-,44,PS,adaptive,27,←,right,→,0.8416682000097353,False,17,-1,0,2
Y2-S2-193K20,-,45,PS,adaptive,28,↑,up,↑,0.6711371999990661,True,18,-1,0,2
Y2-S2-193K20,-,46,PS,adaptive,27,↓,down,↓,0.7558613000146579,True,18,-1,0,2
Y2-S2-193K20,-,47,PS,adaptive,33,←,left,←,0.5031168000132311,True,18,1,1,3
Y2-S2-193K20,-,48,PS,adaptive,41,↓,down,↓,0.7163117000018246,True,17,1,0,3
Y2-S2-193K20,-,49,PS,adaptive,36,→,right,→,0.7026829999813344,True,17,1,0,3
Y2-S2-193K20,-,50,PS,adaptive,27,←,left,←,0.580537000001641,True,17,1,0,3
Y2-S2-193K20,-,51,PS,adaptive,47,→,right,→,0.6315881999908015,True,16,1,0,3
Y2-S2-193K20,-,52,PS,adaptive,48,↑,up,↑,0.8047998000110965,True,16,1,0,3
Y2-S2-193K20,-,53,PS,adaptive,48,←,left,←,0.6403905999904964,True,16,1,0,3
Y2-S2-193K20,-,54,PS,adaptive,45,↓,down,↓,0.6249822000099812,True,15,1,0,3
Y2-S2-193K20,-,55,PS,adaptive,42,↑,up,↑,0.8901698000263423,True,15,1,0,3
Y2-S2-193K20,-,56,PS,adaptive,25,←,left,←,0.5668154999730177,True,15,1,0,3
Y2-S2-193K20,-,57,PS,adaptive,26,↓,down,↓,0.687023299979046,True,14,1,0,3
Y2-S2-193K20,-,58,PS,adaptive,45,←,left,←,0.414644699980272,True,14,1,0,3
Y2-S2-193K20,-,59,PS,adaptive,41,→,right,→,0.668235499993898,True,14,1,0,3
Y2-S2-193K20,-,60,PS,adaptive,32,↓,left,←,0.6419956999889109,False,13,-1,1,4
Y2-S2-193K20,-,61,AS,adaptive,35,→,right,→,0.6861057999776676,True,20,0,0,0
Y2-S2-193K20,-,62,AS,adaptive,30,↓,down,↓,0.7874427000060678,True,20,0,0,0
Y2-S2-193K20,-,63,AS,adaptive,30,→,right,→,0.6834698999882676,True,20,1,0,0
Y2-S2-193K20,-,64,AS,adaptive,33,←,left,←,0.5907326999877114,True,19,1,0,0
Y2-S2-193K20,-,65,AS,adaptive,29,↓,down,↓,0.7081454000144731,True,19,1,0,0
Y2-S2-193K20,-,66,AS,adaptive,32,→,right,→,0.6498356000229251,True,19,1,0,0
Y2-S2-193K20,-,67,AS,adaptive,33,↑,up,↑,0.6594871000270359,True,18,1,0,0
Y2-S2-193K20,-,68,AS,adaptive,33,←,left,←,0.7128099999972619,True,18,1,0,0
Y2-S2-193K20,-,69,AS,adaptive,48,↓,down,↓,0.7323055999877397,True,18,1,0,0
Y2-S2-193K20,-,70,AS,adaptive,44,←,left,←,0.6438507999991998,True,17,1,0,0
Y2-S2-193K20,-,71,AS,adaptive,40,↓,down,↓,0.6450807999935932,True,17,1,0,0
Y2-S2-193K20,-,72,AS,adaptive,33,↑,down,↓,0.7523805999953765,False,17,-1,1,1
Y2-S2-193K20,-,73,AS,adaptive,42,↓,down,↓,0.7508766000100877,True,18,-1,0,1
Y2-S2-193K20,-,74,AS,adaptive,35,→,right,→,0.7686554999963846,True,18,-1,0,1
Y2-S2-193K20,-,75,AS,adaptive,28,←,left,←,0.7226261999749113,True,18,1,1,2
Y2-S2-193K20,-,76,AS,adaptive,28,↑,up,↑,0.7349565000040457,True,17,1,0,2
Y2-S2-193K20,-,77,AS,adaptive,50,→,right,→,0.6222783999983221,True,17,1,0,2
Y2-S2-193K20,-,78,AS,adaptive,32,↓,down,↓,0.6884024000028148,True,17,1,0,2
Y2-S2-193K20,-,79,AS,adaptive,38,←,left,←,0.5803908999951091,True,16,1,0,2
Y2-S2-193K20,-,80,AS,adaptive,34,↓,up,↑,0.8808047999918927,False,16,-1,1,3
Y2-S2-193K20,-,81,AS,adaptive,39,→,right,→,0.6517272999917623,True,17,-1,0,3
Y2-S2-193K20,-,82,AS,adaptive,41,↑,up,↑,0.6873981999815442,True,17,-1,0,3
Y2-S2-193K20,-,83,AS,adaptive,40,→,right,→,0.6213728000002448,True,17,1,1,4
Y2-S2-193K20,1,84,AS,intra_train,35,↓,down,↓,0.6599380999978166,True,24,-,-,-
Y2-S2-193K20,1,85,AS,intra_train,50,←,left,←,0.6154761999787297,True,24,-,-,-
Y2-S2-193K20,1,86,AS,intra_train,49,→,right,→,0.6565444000007119,True,24,-,-,-
Y2-S2-193K20,1,87,AS,intra_train,34,←,left,←,0.6606439999886788,True,24,-,-,-
Y2-S2-193K20,1,88,AS,intra_train,36,↑,up,↑,0.6396078999969177,True,24,-,-,-
Y2-S2-193K20,1,89,AS,exp,45,↓,down,↓,0.5951340000028722,True,16,0,0,0
Y2-S2-193K20,1,90,AS,exp,42,↑,up,↑,0.6850181999907363,True,16,0,0,0
Y2-S2-193K20,1,91,AS,exp,30,←,left,←,0.5765495999949053,True,16,1,0,0
Y2-S2-193K20,1,92,AS,exp,37,→,right,→,0.5557919999992009,True,15,1,0,0
Y2-S2-193K20,1,93,AS,exp,49,↑,up,↑,0.5664113000093494,True,15,1,0,0
Y2-S2-193K20,1,94,AS,exp,40,←,left,←,0.5775775000220165,True,15,1,0,0
Y2-S2-193K20,1,95,AS,exp,47,↓,down,↓,0.5976013999897987,True,14,1,0,0
Y2-S2-193K20,1,96,AS,exp,48,↑,up,↑,0.5328985000087414,True,14,1,0,0
Y2-S2-193K20,1,97,AS,exp,47,←,left,←,0.7163547999807633,True,14,1,0,0
Y2-S2-193K20,1,98,AS,exp,43,↓,up,↑,0.6947678000142332,False,13,-1,1,1
Y2-S2-193K20,1,99,AS,exp,31,←,left,←,0.6217624999990221,True,14,-1,0,1
Y2-S2-193K20,1,100,AS,exp,46,↑,up,↑,0.6109137999883387,True,14,-1,0,1
Y2-S2-193K20,1,101,AS,exp,45,←,left,←,0.5775967999943532,True,14,1,1,2
Y2-S2-193K20,1,102,AS,exp,50,→,right,→,1.430411200009985,True,13,1,0,2
Y2-S2-193K20,1,103,AS,exp,41,↑,up,↑,0.614880200009793,True,13,1,0,2
Y2-S2-193K20,1,104,AS,exp,44,←,left,←,0.5593007999996189,True,13,1,0,2
Y2-S2-193K20,1,105,AS,exp,25,↑,up,↑,0.8270773999975063,True,12,1,0,2
Y2-S2-193K20,1,106,AS,exp,47,→,right,→,0.8291086000099313,True,12,1,0,2
Y2-S2-193K20,1,107,AS,exp,32,↓,down,↓,0.7489732999820262,True,12,1,0,2
Y2-S2-193K20,1,108,AS,exp,29,↑,up,↑,0.6612239999813028,True,11,1,0,2
Y2-S2-193K20,1,109,AS,exp,25,↓,down,↓,0.6329174999846146,True,11,1,0,2
Y2-S2-193K20,1,110,AS,exp,35,←,right,→,0.9931213000090793,False,11,-1,1,3
Y2-S2-193K20,1,111,AS,exp,50,→,right,→,0.9940919000073336,True,12,-1,0,3
Y2-S2-193K20,1,112,AS,exp,31,←,left,←,0.6931870999978855,True,12,-1,0,3
Y2-S2-193K20,1,113,AS,exp,37,↓,down,↓,0.7033859999792185,True,12,1,1,4
Y2-S2-193K20,1,114,AS,exp,41,→,left,←,0.717176100006327,False,11,-1,1,5
Y2-S2-193K20,1,115,AS,exp,33,←,left,←,0.6527925000118557,True,12,-1,0,5
Y2-S2-193K20,1,116,AS,exp,38,→,left,←,0.5814489000185858,False,12,-1,0,5
Y2-S2-193K20,1,117,AS,exp,42,↓,up,↑,0.786341099999845,False,13,-1,0,5
Y2-S2-193K20,1,118,AS,exp,44,←,left,←,0.6762509999971371,True,14,-1,0,5
Y2-S2-193K20,1,119,AS,exp,42,↑,down,↓,0.6881071999960113,False,14,-1,0,5
Y2-S2-193K20,1,120,AS,exp,48,↓,down,↓,0.9177998999948613,True,15,-1,0,5
Y2-S2-193K20,1,121,AS,exp,30,→,right,→,0.6605588000093121,True,15,-1,0,5
Y2-S2-193K20,1,122,AS,exp,44,↑,up,↑,0.7788387000036892,True,15,1,1,6
Y2-S2-193K20,1,123,AS,exp,41,←,left,←,0.7091598999977577,True,14,1,0,6
Y2-S2-193K20,1,124,AS,exp,50,↓,down,↓,0.635494899994228,True,14,1,0,6
Y2-S2-193K20,1,125,AS,exp,45,→,right,→,0.7608177999791224,True,14,1,0,6
Y2-S2-193K20,1,126,AS,exp,38,←,left,←,0.7662537999858614,True,13,1,0,6
Y2-S2-193K20,1,127,AS,exp,27,↓,down,↓,0.6905378999945242,True,13,1,0,6
Y2-S2-193K20,1,128,AS,exp,31,→,right,→,0.7320254000078421,True,13,1,0,6
Y2-S2-193K20,1,129,AS,exp,44,↓,down,↓,0.6469228999922052,True,12,1,0,6
Y2-S2-193K20,1,130,AS,exp,47,→,right,→,0.6692149000009522,True,12,1,0,6
Y2-S2-193K20,1,131,AS,exp,45,↑,up,↑,0.9258184999926016,True,12,1,0,6
Y2-S2-193K20,1,132,AS,exp,33,↓,down,↓,0.6184786000230815,True,11,1,0,6
Y2-S2-193K20,1,133,AS,exp,38,↑,up,↑,0.9296361000160687,True,11,1,0,6
Y2-S2-193K20,1,134,AS,exp,41,→,right,→,0.5861665999982506,True,11,1,0,6
Y2-S2-193K20,1,135,AS,exp,42,←,right,→,0.694918699999107,False,10,-1,1,7
Y2-S2-193K20,1,136,AS,exp,38,↑,down,↓,1.2821523000020534,False,11,-1,0,7
Y2-S2-193K20,1,137,AS,exp,49,→,right,→,0.6491800000076182,True,12,-1,0,7
Y2-S2-193K20,1,138,AS,exp,27,↑,down,↓,1.032680000003893,False,12,-1,0,7
Y2-S2-193K20,1,139,AS,exp,48,←,left,←,1.1632936999958474,True,13,-1,0,7
Y2-S2-193K20,1,140,AS,exp,29,↓,down,↓,0.7143028999853414,True,13,-1,0,7
Y2-S2-193K20,1,141,AS,exp,45,←,left,←,0.6619162999850232,True,13,1,1,8
Y2-S2-193K20,1,142,AS,exp,34,↓,down,↓,0.6429284000187181,True,12,1,0,8
Y2-S2-193K20,1,143,AS,exp,34,↑,up,↑,1.1484626999881584,True,12,1,0,8
Y2-S2-193K20,1,144,AS,exp,41,←,right,→,0.700256400014041,False,12,-1,1,9
Y2-S2-193K20,1,145,AS,exp,48,↓,down,↓,0.6399404000258073,True,13,-1,0,9
Y2-S2-193K20,1,146,AS,exp,29,→,right,→,0.6516618999885395,True,13,-1,0,9
Y2-S2-193K20,1,147,AS,exp,27,↑,up,↑,0.724634900019737,True,13,1,1,10
Y2-S2-193K20,1,148,AS,exp,41,→,right,→,0.5412788999965414,True,12,1,0,10
Y2-S2-193K20,1,149,AS,exp,29,←,left,←,0.7076760999916587,True,12,1,0,10
Y2-S2-193K20,1,150,AS,exp,48,→,right,→,0.5381915000034496,True,12,1,0,10
Y2-S2-193K20,1,151,AS,exp,35,↓,up,↑,0.8303558999905363,False,11,-1,1,11
Y2-S2-193K20,1,152,AS,exp,49,→,right,→,0.6151971000072081,True,12,-1,0,11
Y2-S2-193K20,1,153,AS,exp,38,↑,up,↑,0.7888477999949828,True,12,-1,0,11
Y2-S2-193K20,1,154,AS,exp,42,↓,down,↓,0.660954600025434,True,12,1,1,12
Y2-S2-193K20,1,155,AS,exp,35,↑,up,↑,0.6693459999805782,True,11,1,0,12
Y2-S2-193K20,1,156,AS,exp,39,→,right,→,0.688492099987343,True,11,1,0,12
Y2-S2-193K20,1,157,AS,exp,46,↓,up,↑,0.7123199000197928,False,11,-1,1,13
Y2-S2-193K20,1,158,AS,exp,34,↑,up,↑,0.6283074999810196,True,12,-1,0,13
Y2-S2-193K20,1,159,AS,exp,36,←,left,←,0.7446782999904826,True,12,-1,0,13
Y2-S2-193K20,1,160,AS,exp,26,→,right,→,0.7823608000180684,True,12,1,1,14
Y2-S2-193K20,1,161,AS,exp,46,↑,up,↑,0.8263489000091795,True,11,1,0,14
Y2-S2-193K20,1,162,AS,exp,33,←,left,←,0.6768867000064347,True,11,1,0,14
Y2-S2-193K20,1,163,AS,exp,45,↑,up,↑,0.6925033000006806,True,11,1,0,14
Y2-S2-193K20,1,164,AS,exp,42,←,right,→,0.598954799992498,False,10,-1,1,15
Y2-S2-193K20,1,165,AS,exp,44,→,right,→,0.6345152000139933,True,11,-1,0,15
Y2-S2-193K20,1,166,AS,exp,37,↓,down,↓,0.6612428000080399,True,11,-1,0,15
Y2-S2-193K20,1,167,AS,exp,38,↑,down,↓,0.9616224000055809,False,11,-1,0,15
Y2-S2-193K20,1,168,AS,exp,40,←,left,←,0.6184042999811936,True,12,-1,0,15
Y2-S2-193K20,1,169,AS,exp,45,→,left,←,0.665578899992397,False,12,-1,0,15
Y2-S2-193K20,1,170,AS,exp,39,↑,up,↑,0.6163213000108954,True,13,-1,0,15
Y2-S2-193K20,1,171,AS,exp,43,↓,down,↓,0.6335479999834206,True,13,-1,0,15
Y2-S2-193K20,1,172,AS,exp,44,←,left,←,0.6159028999973089,True,13,1,1,16
Y2-S2-193K20,2,173,PS,intra_train,41,→,right,→,0.882714000006672,True,21,-,-,-
Y2-S2-193K20,2,174,PS,intra_train,27,↑,up,↑,0.8168960000039078,True,21,-,-,-
Y2-S2-193K20,2,175,PS,intra_train,49,→,right,→,0.7374546999926679,True,21,-,-,-
Y2-S2-193K20,2,176,PS,intra_train,45,↑,up,↑,0.6855507000000216,True,21,-,-,-
Y2-S2-193K20,2,177,PS,intra_train,46,→,right,→,0.6664480999752413,True,21,-,-,-
Y2-S2-193K20,2,178,PS,exp,50,↓,down,↓,0.8167089000053238,True,14,0,0,0
Y2-S2-193K20,2,179,PS,exp,48,↑,no_key,no_letter,-1.0,False,14,-1,0,0
Y2-S2-193K20,2,180,PS,exp,46,↓,down,↓,0.7063261000148486,True,15,-1,0,0
Y2-S2-193K20,2,181,PS,exp,31,←,right,→,1.0878514999931213,False,15,-1,0,0
Y2-S2-193K20,2,182,PS,exp,50,↑,up,↑,0.5841924000123981,True,16,-1,0,0
Y2-S2-193K20,2,183,PS,exp,26,←,left,←,1.6610523000126705,True,16,-1,0,0
Y2-S2-193K20,2,184,PS,exp,38,↑,up,↑,0.627017299993895,True,16,1,1,1
Y2-S2-193K20,2,185,PS,exp,34,→,right,→,0.6330272000050172,True,15,1,0,1
Y2-S2-193K20,2,186,PS,exp,32,↓,up,↑,1.0349665000103414,False,15,-1,1,2
Y2-S2-193K20,2,187,PS,exp,38,↑,up,↑,0.5676673999987543,True,16,-1,0,2
Y2-S2-193K20,2,188,PS,exp,41,→,left,←,1.0715569999883883,False,16,-1,0,2
Y2-S2-193K20,2,189,PS,exp,48,←,left,←,0.7041730000055395,True,17,-1,0,2
Y2-S2-193K20,2,190,PS,exp,41,↓,down,↓,1.0280974000052083,True,17,-1,0,2
Y2-S2-193K20,2,191,PS,exp,27,→,right,→,0.8198610999970697,True,17,1,1,3
Y2-S2-193K20,2,192,PS,exp,46,↓,down,↓,0.5048913999926299,True,16,1,0,3
Y2-S2-193K20,2,193,PS,exp,46,↑,down,↓,0.4662240000034217,False,16,-1,1,4
Y2-S2-193K20,2,194,PS,exp,36,→,right,→,0.6612655000062659,True,17,-1,0,4
Y2-S2-193K20,2,195,PS,exp,42,←,left,←,0.5919634000165388,True,17,-1,0,4
Y2-S2-193K20,2,196,PS,exp,33,↑,up,↑,0.5691001999948639,True,17,1,1,5
Y2-S2-193K20,2,197,PS,exp,25,→,right,→,0.6550723999971524,True,16,1,0,5
Y2-S2-193K20,2,198,PS,exp,34,↑,up,↑,0.5758157000236679,True,16,1,0,5
Y2-S2-193K20,2,199,PS,exp,42,→,right,→,0.5474307999829762,True,16,1,0,5
Y2-S2-193K20,2,200,PS,exp,45,↓,down,↓,0.6940764999890234,True,15,1,0,5
Y2-S2-193K20,2,201,PS,exp,43,→,right,→,0.9350327999854926,True,15,1,0,5
Y2-S2-193K20,2,202,PS,exp,42,←,left,←,0.7687381999858189,True,15,1,0,5
Y2-S2-193K20,2,203,PS,exp,44,↑,up,↑,0.602395100024296,True,14,1,0,5
Y2-S2-193K20,2,204,PS,exp,45,←,left,←,0.558397499989951,True,14,1,0,5
Y2-S2-193K20,2,205,PS,exp,28,↓,down,↓,0.7862551999860443,True,14,1,0,5
Y2-S2-193K20,2,206,PS,exp,36,↑,up,↑,0.6512873000174295,True,13,1,0,5
Y2-S2-193K20,2,207,PS,exp,30,↓,down,↓,0.6489684999978635,True,13,1,0,5
Y2-S2-193K20,2,208,PS,exp,27,→,right,→,0.5467354000138585,True,13,1,0,5
Y2-S2-193K20,2,209,PS,exp,29,↓,down,↓,0.5728086000017356,True,12,1,0,5
Y2-S2-193K20,2,210,PS,exp,27,←,left,←,0.5214165000070352,True,12,1,0,5
Y2-S2-193K20,2,211,PS,exp,28,↑,up,↑,0.7587092000176199,True,12,1,0,5
Y2-S2-193K20,2,212,PS,exp,47,→,right,→,0.510578399989754,True,11,1,0,5
Y2-S2-193K20,2,213,PS,exp,49,↑,down,↓,0.8460930999717675,False,11,-1,1,6
Y2-S2-193K20,2,214,PS,exp,27,←,right,→,0.8167252999846824,False,12,-1,0,6
Y2-S2-193K20,2,215,PS,exp,44,→,right,→,0.5665365000022575,True,13,-1,0,6
Y2-S2-193K20,2,216,PS,exp,39,↑,up,↑,0.6414152000215836,True,13,-1,0,6
Y2-S2-193K20,2,217,PS,exp,33,→,right,→,0.5753630000108387,True,13,1,1,7
Y2-S2-193K20,2,218,PS,exp,50,↑,up,↑,0.531420999992406,True,12,1,0,7
Y2-S2-193K20,2,219,PS,exp,39,→,right,→,0.46377759997267276,True,12,1,0,7
Y2-S2-193K20,2,220,PS,exp,30,↑,up,↑,0.5814353000023402,True,12,1,0,7
Y2-S2-193K20,2,221,PS,exp,30,←,left,←,0.555424199992558,True,11,1,0,7
Y2-S2-193K20,2,222,PS,exp,28,↑,up,↑,1.0162649000121746,True,11,1,0,7
Y2-S2-193K20,2,223,PS,exp,47,↓,down,↓,0.6286775000044145,True,11,1,0,7
Y2-S2-193K20,2,224,PS,exp,36,↑,up,↑,1.1335071999928914,True,10,1,0,7
Y2-S2-193K20,2,225,PS,exp,40,←,left,←,1.7922936999821104,True,10,1,0,7
Y2-S2-193K20,2,226,PS,exp,47,↑,up,↑,0.5828402000188362,True,10,1,0,7
Y2-S2-193K20,2,227,PS,exp,27,↓,up,↑,0.883643299981486,False,9,-1,1,8
Y2-S2-193K20,2,228,PS,exp,35,→,right,→,0.6240745999966748,True,10,-1,0,8
Y2-S2-193K20,2,229,PS,exp,30,↓,down,↓,0.6753115000028629,True,10,-1,0,8
Y2-S2-193K20,2,230,PS,exp,25,→,up,↑,1.3353483999962918,False,10,-1,0,8
Y2-S2-193K20,2,231,PS,exp,31,↑,no_key,no_letter,-1.0,False,11,-1,0,8
Y2-S2-193K20,2,232,PS,exp,31,↓,left,←,1.1362491000036243,False,12,-1,0,8
Y2-S2-193K20,2,233,PS,exp,39,←,left,←,0.6234268000116572,True,13,-1,0,8
Y2-S2-193K20,2,234,PS,exp,49,→,right,→,0.5070487999764737,True,13,-1,0,8
Y2-S2-193K20,2,235,PS,exp,37,↑,up,↑,0.7525476000155322,True,13,1,1,9
Y2-S2-193K20,2,236,PS,exp,43,→,right,→,0.7437111999897752,True,12,1,0,9
Y2-S2-193K20,2,237,PS,exp,36,←,left,←,1.636349699983839,True,12,1,0,9
Y2-S2-193K20,2,238,PS,exp,38,→,left,←,0.8893322999938391,False,12,-1,1,10
Y2-S2-193K20,2,239,PS,exp,44,↑,up,↑,0.5980551999818999,True,13,-1,0,10
Y2-S2-193K20,2,240,PS,exp,28,←,left,←,0.7732700000051409,True,13,-1,0,10
Y2-S2-193K20,2,241,PS,exp,34,↑,up,↑,0.5886547999980394,True,13,1,1,11
Y2-S2-193K20,2,242,PS,exp,40,→,right,→,0.853037900000345,True,12,1,0,11
Y2-S2-193K20,2,243,PS,exp,49,↑,up,↑,0.5980480999860447,True,12,1,0,11
Y2-S2-193K20,2,244,PS,exp,38,↓,down,↓,1.2218223999952897,True,12,1,0,11
Y2-S2-193K20,2,245,PS,exp,28,→,right,→,0.8336462999868672,True,11,1,0,11
Y2-S2-193K20,2,246,PS,exp,46,←,left,←,0.7394298999861348,True,11,1,0,11
Y2-S2-193K20,2,247,PS,exp,36,↑,up,↑,1.5806184000102803,True,11,1,0,11
Y2-S2-193K20,2,248,PS,exp,28,→,left,←,1.082057599996915,False,10,-1,1,12
Y2-S2-193K20,2,249,PS,exp,35,↓,left,←,1.509587200009264,False,11,-1,0,12
Y2-S2-193K20,2,250,PS,exp,28,←,up,↑,1.236696200008737,False,12,-1,0,12
Y2-S2-193K20,2,251,PS,exp,36,↑,up,↑,0.6803657000127714,True,13,-1,0,12
Y2-S2-193K20,2,252,PS,exp,26,→,right,→,0.5677120000182185,True,13,-1,0,12
Y2-S2-193K20,2,253,PS,exp,29,←,left,←,0.7289909000101034,True,13,1,1,13
Y2-S2-193K20,2,254,PS,exp,30,→,right,→,1.045489499985706,True,12,1,0,13
Y2-S2-193K20,2,255,PS,exp,42,↑,up,↑,0.9565910999954212,True,12,1,0,13
Y2-S2-193K20,2,256,PS,exp,50,←,left,←,0.6422340999997687,True,12,1,0,13
Y2-S2-193K20,2,257,PS,exp,42,↑,up,↑,0.8990233999793418,True,11,1,0,13
Y2-S2-193K20,2,258,PS,exp,37,→,right,→,0.589238300017314,True,11,1,0,13
Y2-S2-193K20,2,259,PS,exp,40,↑,up,↑,0.5342971000063699,True,11,1,0,13
Y2-S2-193K20,2,260,PS,exp,35,↓,down,↓,0.6493866000091657,True,10,1,0,13
Y2-S2-193K20,2,261,PS,exp,39,←,left,←,0.4969727999996394,True,10,1,0,13
Y2-S2-193K20,2,262,PS,exp,50,↓,right,→,0.7982780000020284,False,10,-1,1,14
Y2-S2-193K20,2,263,PS,exp,26,→,right,→,0.765122299984796,True,11,-1,0,14
Y2-S2-193K20,2,264,PS,exp,50,↓,down,↓,0.704773200006457,True,11,-1,0,14
Y2-S2-193K20,2,265,PS,exp,34,→,right,→,0.46530239999992773,True,11,1,1,15
Y2-S2-193K20,2,266,PS,exp,26,↓,left,←,0.9707050000142772,False,10,-1,1,16
Y2-S2-193K20,3,267,PS,intra_train,48,↑,up,↑,1.009959599992726,True,21,-,-,-
Y2-S2-193K20,3,268,PS,intra_train,31,↓,down,↓,0.7278732999984641,True,21,-,-,-
Y2-S2-193K20,3,269,PS,intra_train,35,↑,up,↑,0.6384001999977045,True,21,-,-,-
Y2-S2-193K20,3,270,PS,intra_train,41,←,left,←,0.648097900004359,True,21,-,-,-
Y2-S2-193K20,3,271,PS,intra_train,29,↓,down,↓,0.6695550000004005,True,21,-,-,-
Y2-S2-193K20,3,272,PS,exp,31,→,right,→,0.6139293000160251,True,14,0,0,0
Y2-S2-193K20,3,273,PS,exp,30,←,left,←,0.8007698000001255,True,14,0,0,0
Y2-S2-193K20,3,274,PS,exp,30,→,right,→,0.5396516000037082,True,14,1,0,0
Y2-S2-193K20,3,275,PS,exp,34,←,left,←,0.5533036999986507,True,13,1,0,0
Y2-S2-193K20,3,276,PS,exp,40,→,right,→,0.4996726999816019,True,13,1,0,0
Y2-S2-193K20,3,277,PS,exp,29,↓,down,↓,0.666225699998904,True,13,1,0,0
Y2-S2-193K20,3,278,PS,exp,48,←,left,←,0.5587778000044636,True,12,1,0,0
Y2-S2-193K20,3,279,PS,exp,37,↓,down,↓,0.6437252000032458,True,12,1,0,0
Y2-S2-193K20,3,280,PS,exp,33,↑,up,↑,0.8095188000006601,True,12,1,0,0
Y2-S2-193K20,3,281,PS,exp,44,←,left,←,0.647299500007648,True,11,1,0,0
Y2-S2-193K20,3,282,PS,exp,48,↑,down,↓,0.8079849999921862,False,11,-1,1,1
Y2-S2-193K20,3,283,PS,exp,38,↓,down,↓,0.514889400015818,True,12,-1,0,1
Y2-S2-193K20,3,284,PS,exp,25,←,left,←,0.5676015000208281,True,12,-1,0,1
Y2-S2-193K20,3,285,PS,exp,42,→,right,→,0.6580339999927673,True,12,1,1,2
Y2-S2-193K20,3,286,PS,exp,25,↓,down,↓,0.5565430000133347,True,11,1,0,2
Y2-S2-193K20,3,287,PS,exp,32,←,right,→,0.5372901999799069,False,11,-1,1,3
Y2-S2-193K20,3,288,PS,exp,30,↓,down,↓,0.6576262000016868,True,12,-1,0,3
Y2-S2-193K20,3,289,PS,exp,38,←,left,←,0.6107726999907754,True,12,-1,0,3
Y2-S2-193K20,3,290,PS,exp,28,→,right,→,0.6258369999995921,True,12,1,1,4
Y2-S2-193K20,3,291,PS,exp,49,←,left,←,0.4958755999978166,True,11,1,0,4
Y2-S2-193K20,3,292,PS,exp,46,↓,down,↓,0.5568171000049915,True,11,1,0,4
Y2-S2-193K20,3,293,PS,exp,39,←,left,←,0.5747649000259116,True,11,1,0,4
Y2-S2-193K20,3,294,PS,exp,27,↑,left,←,0.777116000012029,False,10,-1,1,5
Y2-S2-193K20,3,295,PS,exp,50,←,left,←,0.6671460999932606,True,11,-1,0,5
Y2-S2-193K20,3,296,PS,exp,49,↑,left,←,0.573410100012552,False,11,-1,0,5
Y2-S2-193K20,3,297,PS,exp,45,←,left,←,0.6044718999764882,True,12,-1,0,5
Y2-S2-193K20,3,298,PS,exp,26,→,right,→,0.5384991000173613,True,12,-1,0,5
Y2-S2-193K20,3,299,PS,exp,44,←,left,←,0.4981695000024047,True,12,1,1,6
Y2-S2-193K20,3,300,PS,exp,41,→,right,→,0.6583623000187799,True,11,1,0,6
Y2-S2-193K20,3,301,PS,exp,29,↓,down,↓,0.6106094999995548,True,11,1,0,6
Y2-S2-193K20,3,302,PS,exp,47,←,left,←,0.5320515000203159,True,11,1,0,6
Y2-S2-193K20,3,303,PS,exp,39,↑,up,↑,0.7371917999989819,True,10,1,0,6
Y2-S2-193K20,3,304,PS,exp,32,↓,down,↓,0.7028789999894798,True,10,1,0,6
Y2-S2-193K20,3,305,PS,exp,42,→,right,→,0.8802897999994457,True,10,1,0,6
Y2-S2-193K20,3,306,PS,exp,31,←,left,←,0.47476759998244233,True,9,1,0,6
Y2-S2-193K20,3,307,PS,exp,36,↓,right,→,0.7114476999850012,False,9,-1,1,7
Y2-S2-193K20,3,308,PS,exp,28,→,right,→,0.7197206999990158,True,10,-1,0,7
Y2-S2-193K20,3,309,PS,exp,44,↓,down,↓,0.6465094000159297,True,10,-1,0,7
Y2-S2-193K20,3,310,PS,exp,25,←,left,←,0.6078573999984656,True,10,1,1,8
Y2-S2-193K20,3,311,PS,exp,36,↑,up,↑,0.627880100015318,True,9,1,0,8
Y2-S2-193K20,3,312,PS,exp,40,←,right,→,0.7235125000006519,False,9,-1,1,9
Y2-S2-193K20,3,313,PS,exp,28,↓,down,↓,0.8634671000181697,True,10,-1,0,9
Y2-S2-193K20,3,314,PS,exp,35,→,right,→,0.705838699999731,True,10,-1,0,9
Y2-S2-193K20,3,315,PS,exp,42,←,down,↓,1.211701299995184,False,10,-1,0,9
Y2-S2-193K20,3,316,PS,exp,46,↑,down,↓,0.8121508999902289,False,11,-1,0,9
Y2-S2-193K20,3,317,PS,exp,44,→,right,→,0.546190299995942,True,12,-1,0,9
Y2-S2-193K20,3,318,PS,exp,43,↑,up,↑,0.7600436999928206,True,12,-1,0,9
Y2-S2-193K20,3,319,PS,exp,35,→,right,→,0.5855655999912415,True,12,1,1,10
Y2-S2-193K20,3,320,PS,exp,32,←,left,←,0.6587030999944545,True,11,1,0,10
Y2-S2-193K20,3,321,PS,exp,38,↑,up,↑,0.7959240000054706,True,11,1,0,10
Y2-S2-193K20,3,322,PS,exp,27,↓,down,↓,0.6516267999832053,True,11,1,0,10
Y2-S2-193K20,3,323,PS,exp,45,←,left,←,0.6679009999788832,True,10,1,0,10
Y2-S2-193K20,3,324,PS,exp,47,↑,left,←,1.361786099994788,False,10,-1,1,11
Y2-S2-193K20,3,325,PS,exp,47,→,right,→,0.4941175999992993,True,11,-1,0,11
Y2-S2-193K20,3,326,PS,exp,48,↑,up,↑,0.7092723000096157,True,11,-1,0,11
Y2-S2-193K20,3,327,PS,exp,46,↓,right,→,0.8454082999960519,False,11,-1,0,11
Y2-S2-193K20,3,328,PS,exp,29,→,left,←,0.7358392000023741,False,12,-1,0,11
Y2-S2-193K20,3,329,PS,exp,34,←,left,←,0.5633959000115283,True,13,-1,0,11
Y2-S2-193K20,3,330,PS,exp,39,↑,up,↑,0.6021322000015061,True,13,-1,0,11
Y2-S2-193K20,3,331,PS,exp,32,←,left,←,0.5294290999881923,True,13,1,1,12
Y2-S2-193K20,3,332,PS,exp,41,→,right,→,0.5696428999945056,True,12,1,0,12
Y2-S2-193K20,3,333,PS,exp,37,↑,up,↑,0.47156199999153614,True,12,1,0,12
Y2-S2-193K20,3,334,PS,exp,48,←,left,←,0.43272770001203753,True,12,1,0,12
Y2-S2-193K20,3,335,PS,exp,25,→,right,→,0.7633691999944858,True,11,1,0,12
Y2-S2-193K20,3,336,PS,exp,25,←,left,←,0.506186600017827,True,11,1,0,12
Y2-S2-193K20,3,337,PS,exp,43,→,right,→,0.5139706000045408,True,11,1,0,12
Y2-S2-193K20,3,338,PS,exp,31,↑,left,←,1.1328706000058446,False,10,-1,1,13
Y2-S2-193K20,3,339,PS,exp,41,↓,left,←,1.6154281000199262,False,11,-1,0,13
Y2-S2-193K20,3,340,PS,exp,44,←,left,←,0.5543236999947112,True,12,-1,0,13
Y2-S2-193K20,3,341,PS,exp,26,→,left,←,0.7584422999934759,False,12,-1,0,13
Y2-S2-193K20,3,342,PS,exp,26,↑,up,↑,0.6831171000085305,True,13,-1,0,13
Y2-S2-193K20,3,343,PS,exp,40,↓,down,↓,1.0919078000006266,True,13,-1,0,13
Y2-S2-193K20,3,344,PS,exp,50,←,left,←,0.5354443999822251,True,13,1,1,14
Y2-S2-193K20,3,345,PS,exp,44,↑,down,↓,0.8351276000030339,False,12,-1,1,15
Y2-S2-193K20,3,346,PS,exp,50,←,left,←,0.5855380000139121,True,13,-1,0,15
Y2-S2-193K20,3,347,PS,exp,37,↓,down,↓,0.6111011000175495,True,13,-1,0,15
Y2-S2-193K20,3,348,PS,exp,33,↑,up,↑,0.6583138999994844,True,13,1,1,16
Y2-S2-193K20,4,349,AS,intra_train,28,↓,down,↓,0.8762912999955006,True,24,-,-,-
Y2-S2-193K20,4,350,AS,intra_train,50,←,left,←,0.6164040000003297,True,24,-,-,-
Y2-S2-193K20,4,351,AS,intra_train,25,→,right,→,0.6102161000017077,True,24,-,-,-
Y2-S2-193K20,4,352,AS,intra_train,43,↑,up,↑,0.5995778999931645,True,24,-,-,-
Y2-S2-193K20,4,353,AS,intra_train,25,↓,down,↓,0.6177379000000656,True,24,-,-,-
Y2-S2-193K20,4,354,AS,exp,29,↑,up,↑,0.6048524999932852,True,16,0,0,0
Y2-S2-193K20,4,355,AS,exp,27,↓,down,↓,0.684946100023808,True,16,0,0,0
Y2-S2-193K20,4,356,AS,exp,33,→,right,→,0.7174284000066109,True,16,1,0,0
Y2-S2-193K20,4,357,AS,exp,35,↑,down,↓,0.6505204999994021,False,15,-1,1,1
Y2-S2-193K20,4,358,AS,exp,50,←,down,↓,0.5758879000204615,False,16,-1,0,1
Y2-S2-193K20,4,359,AS,exp,48,→,right,→,0.5393044999800622,True,17,-1,0,1
Y2-S2-193K20,4,360,AS,exp,30,←,left,←,0.5626637999957893,True,17,-1,0,1
Y2-S2-193K20,4,361,AS,exp,50,↓,down,↓,0.5927968999894802,True,17,1,1,2
Y2-S2-193K20,4,362,AS,exp,40,↑,up,↑,0.6018705000169575,True,16,1,0,2
Y2-S2-193K20,4,363,AS,exp,43,↓,down,↓,0.5873163000214845,True,16,1,0,2
Y2-S2-193K20,4,364,AS,exp,45,→,right,→,0.5919903000176419,True,16,1,0,2
Y2-S2-193K20,4,365,AS,exp,44,←,left,←,0.5303996999864466,True,15,1,0,2
Y2-S2-193K20,4,366,AS,exp,33,↑,up,↑,0.5680897999845911,True,15,1,0,2
Y2-S2-193K20,4,367,AS,exp,50,→,right,→,0.4814353999972809,True,15,1,0,2
Y2-S2-193K20,4,368,AS,exp,41,↑,up,↑,0.6453469000116456,True,14,1,0,2
Y2-S2-193K20,4,369,AS,exp,31,←,left,←,0.5719793000025675,True,14,1,0,2
Y2-S2-193K20,4,370,AS,exp,25,↑,up,↑,0.5417480999894906,True,14,1,0,2
Y2-S2-193K20,4,371,AS,exp,42,↓,up,↑,0.7256793999986257,False,13,-1,1,3
Y2-S2-193K20,4,372,AS,exp,43,↑,up,↑,0.47676839999621734,True,14,-1,0,3
Y2-S2-193K20,4,373,AS,exp,27,←,left,←,0.4763428999867756,True,14,-1,0,3
Y2-S2-193K20,4,374,AS,exp,25,↑,up,↑,0.5099966000125278,True,14,1,1,4
Y2-S2-193K20,4,375,AS,exp,34,↓,up,↑,0.44914710000739433,False,13,-1,1,5
Y2-S2-193K20,4,376,AS,exp,27,↑,up,↑,1.0813449999841396,True,14,-1,0,5
Y2-S2-193K20,4,377,AS,exp,29,→,right,→,0.7107700000051409,True,14,-1,0,5
Y2-S2-193K20,4,378,AS,exp,26,↓,down,↓,0.6366957999998704,True,14,1,1,6
Y2-S2-193K20,4,379,AS,exp,32,→,right,→,0.5843501000199467,True,13,1,0,6
Y2-S2-193K20,4,380,AS,exp,42,↓,down,↓,0.5606187999946997,True,13,1,0,6
Y2-S2-193K20,4,381,AS,exp,32,→,right,→,0.6188868000172079,True,13,1,0,6
Y2-S2-193K20,4,382,AS,exp,47,↑,down,↓,0.5838785000087228,False,12,-1,1,7
Y2-S2-193K20,4,383,AS,exp,42,↓,down,↓,0.4939017999859061,True,13,-1,0,7
Y2-S2-193K20,4,384,AS,exp,28,←,left,←,1.2278141000133473,True,13,-1,0,7
Y2-S2-193K20,4,385,AS,exp,33,→,left,←,0.6480218000069726,False,13,-1,0,7
Y2-S2-193K20,4,386,AS,exp,40,←,left,←,0.6391145999950822,True,14,-1,0,7
Y2-S2-193K20,4,387,AS,exp,33,→,left,←,0.6000478999922052,False,14,-1,0,7
Y2-S2-193K20,4,388,AS,exp,37,←,left,←,0.5855312999919988,True,15,-1,0,7
Y2-S2-193K20,4,389,AS,exp,42,→,right,→,0.7893084999814164,True,15,-1,0,7
Y2-S2-193K20,4,390,AS,exp,33,↑,up,↑,0.608440599986352,True,15,1,1,8
Y2-S2-193K20,4,391,AS,exp,37,→,right,→,0.5965647000120953,True,14,1,0,8
Y2-S2-193K20,4,392,AS,exp,46,↓,down,↓,0.6886002999963239,True,14,1,0,8
Y2-S2-193K20,4,393,AS,exp,42,→,right,→,0.5681112000020221,True,14,1,0,8
Y2-S2-193K20,4,394,AS,exp,47,↑,up,↑,0.6680629000184126,True,13,1,0,8
Y2-S2-193K20,4,395,AS,exp,28,↓,down,↓,0.6268827999883797,True,13,1,0,8
Y2-S2-193K20,4,396,AS,exp,26,←,left,←,0.7657160999951884,True,13,1,0,8
Y2-S2-193K20,4,397,AS,exp,38,→,right,→,0.7582262000069022,True,12,1,0,8
Y2-S2-193K20,4,398,AS,exp,44,↓,down,↓,0.6427492999937385,True,12,1,0,8
Y2-S2-193K20,4,399,AS,exp,29,↑,up,↑,0.7455637000093702,True,12,1,0,8
Y2-S2-193K20,4,400,AS,exp,30,→,no_key,no_letter,-1.0,False,11,-1,1,9
Y2-S2-193K20,4,401,AS,exp,27,←,right,→,0.6432199999981094,False,12,-1,0,9
Y2-S2-193K20,4,402,AS,exp,39,↑,up,↑,0.6549748000106774,True,13,-1,0,9
Y2-S2-193K20,4,403,AS,exp,44,↓,down,↓,0.6852691999811213,True,13,-1,0,9
Y2-S2-193K20,4,404,AS,exp,28,←,left,←,0.5484052000101656,True,13,1,1,10
Y2-S2-193K20,4,405,AS,exp,34,↑,up,↑,0.5969972000166308,True,12,1,0,10
Y2-S2-193K20,4,406,AS,exp,41,→,left,←,0.4888308999943547,False,12,-1,1,11
Y2-S2-193K20,4,407,AS,exp,33,←,left,←,0.841610400006175,True,13,-1,0,11
Y2-S2-193K20,4,408,AS,exp,25,↓,down,↓,0.6974241999851074,True,13,-1,0,11
Y2-S2-193K20,4,409,AS,exp,33,↑,up,↑,0.614942800020799,True,13,1,1,12
Y2-S2-193K20,4,410,AS,exp,39,←,right,→,0.7644403999729548,False,12,-1,1,13
Y2-S2-193K20,4,411,AS,exp,41,↓,down,↓,0.635954600002151,True,13,-1,0,13
Y2-S2-193K20,4,412,AS,exp,35,←,left,←,0.5651310000102967,True,13,-1,0,13
Y2-S2-193K20,4,413,AS,exp,38,↑,up,↑,0.5891611000115518,True,13,1,1,14
Y2-S2-193K20,4,414,AS,exp,27,→,right,→,0.5376746999972966,True,12,1,0,14
Y2-S2-193K20,4,415,AS,exp,37,↑,down,↓,0.7318775000167079,False,12,-1,1,15
Y2-S2-193K20,4,416,AS,exp,36,→,left,←,0.5424666000180878,False,13,-1,0,15
Y2-S2-193K20,4,417,AS,exp,46,←,left,←,0.5225902000092901,True,14,-1,0,15
Y2-S2-193K20,4,418,AS,exp,33,↓,down,↓,0.485152500012191,True,14,-1,0,15
Y2-S2-193K20,4,419,AS,exp,37,↑,up,↑,0.5875820000073873,True,14,1,1,16
Y2-S2-193K20,5,420,AS,intra_train,48,↓,down,↓,0.7543828000198118,True,24,-,-,-
Y2-S2-193K20,5,421,AS,intra_train,39,←,no_key,no_letter,-1.0,False,24,-,-,-
Y2-S2-193K20,5,422,AS,intra_train,31,→,right,→,0.7405766000156291,True,24,-,-,-
Y2-S2-193K20,5,423,AS,intra_train,36,↓,down,↓,0.6382460000168066,True,24,-,-,-
Y2-S2-193K20,5,424,AS,intra_train,31,←,left,←,0.587912699993467,True,24,-,-,-
Y2-S2-193K20,5,425,AS,exp,34,↑,up,↑,0.6026032000081614,True,16,0,0,0
Y2-S2-193K20,5,426,AS,exp,36,→,right,→,0.532345699990401,True,16,0,0,0
Y2-S2-193K20,5,427,AS,exp,26,↑,up,↑,0.5645168000191916,True,16,1,0,0
Y2-S2-193K20,5,428,AS,exp,28,↓,down,↓,0.6080861999944318,True,15,1,0,0
Y2-S2-193K20,5,429,AS,exp,37,←,right,→,0.42805950000183657,False,15,-1,1,1
Y2-S2-193K20,5,430,AS,exp,49,↓,down,↓,0.5982694000122137,True,16,-1,0,1
Y2-S2-193K20,5,431,AS,exp,41,↑,up,↑,0.6402531999920029,True,16,-1,0,1
Y2-S2-193K20,5,432,AS,exp,44,→,right,→,0.5966830999823287,True,16,1,1,2
Y2-S2-193K20,5,433,AS,exp,32,↑,up,↑,0.5738060999719892,True,15,1,0,2
Y2-S2-193K20,5,434,AS,exp,43,←,left,←,0.4767406999890227,True,15,1,0,2
Y2-S2-193K20,5,435,AS,exp,43,→,right,→,0.5087262000015471,True,15,1,0,2
Y2-S2-193K20,5,436,AS,exp,35,↑,up,↑,0.6260073000157718,True,14,1,0,2
Y2-S2-193K20,5,437,AS,exp,29,→,right,→,0.577305199985858,True,14,1,0,2
Y2-S2-193K20,5,438,AS,exp,27,↓,down,↓,0.6472712000249885,True,14,1,0,2
Y2-S2-193K20,5,439,AS,exp,26,←,left,←,0.5586533999885432,True,13,1,0,2
Y2-S2-193K20,5,440,AS,exp,37,↑,up,↑,0.6205746999767143,True,13,1,0,2
Y2-S2-193K20,5,441,AS,exp,26,↓,down,↓,0.5310346999904141,True,13,1,0,2
Y2-S2-193K20,5,442,AS,exp,40,←,left,←,1.1367641999968328,True,12,1,0,2
Y2-S2-193K20,5,443,AS,exp,46,→,right,→,0.5628623999946285,True,12,1,0,2
Y2-S2-193K20,5,444,AS,exp,36,↓,down,↓,0.5711913999984972,True,12,1,0,2
Y2-S2-193K20,5,445,AS,exp,39,↑,up,↑,0.6617831999901682,True,11,1,0,2
Y2-S2-193K20,5,446,AS,exp,50,↓,up,↑,0.6897254000068642,False,11,-1,1,3
Y2-S2-193K20,5,447,AS,exp,25,→,right,→,0.6154618000146002,True,12,-1,0,3
Y2-S2-193K20,5,448,AS,exp,33,↑,up,↑,0.5931719000218436,True,12,-1,0,3
Y2-S2-193K20,5,449,AS,exp,38,→,left,←,0.6390181000169832,False,12,-1,0,3
Y2-S2-193K20,5,450,AS,exp,27,←,left,←,0.550961200002348,True,13,-1,0,3
Y2-S2-193K20,5,451,AS,exp,30,↓,down,↓,0.6431079000176396,True,13,-1,0,3
Y2-S2-193K20,5,452,AS,exp,29,→,right,→,0.4997972999990452,True,13,1,1,4
Y2-S2-193K20,5,453,AS,exp,27,↓,down,↓,0.602131100022234,True,12,1,0,4
Y2-S2-193K20,5,454,AS,exp,32,↑,up,↑,0.7140824999951292,True,12,1,0,4
Y2-S2-193K20,5,455,AS,exp,30,←,right,→,0.6418542000174057,False,12,-1,1,5
Y2-S2-193K20,5,456,AS,exp,35,↑,up,↑,0.5642921999969985,True,13,-1,0,5
Y2-S2-193K20,5,457,AS,exp,31,→,left,←,0.5230444999760948,False,13,-1,0,5
Y2-S2-193K20,5,458,AS,exp,45,←,left,←,0.6344329999992624,True,14,-1,0,5
Y2-S2-193K20,5,459,AS,exp,33,↓,down,↓,0.6483807000040542,True,14,-1,0,5
Y2-S2-193K20,5,460,AS,exp,26,→,left,←,0.5416560999874491,False,14,-1,0,5
Y2-S2-193K20,5,461,AS,exp,25,↑,up,↑,0.6757526000146754,True,15,-1,0,5
Y2-S2-193K20,5,462,AS,exp,48,→,left,←,0.599062799999956,False,15,-1,0,5
Y2-S2-193K20,5,463,AS,exp,46,↑,up,↑,0.5600036000250839,True,16,-1,0,5
Y2-S2-193K20,5,464,AS,exp,39,→,left,←,0.4853708999871742,False,16,-1,0,5
Y2-S2-193K20,5,465,AS,exp,46,↑,up,↑,0.509901900019031,True,17,-1,0,5
Y2-S2-193K20,5,466,AS,exp,39,←,left,←,0.528218299994478,True,17,-1,0,5
Y2-S2-193K20,5,467,AS,exp,33,→,right,→,0.6987357000180054,True,17,1,1,6
Y2-S2-193K20,5,468,AS,exp,33,↑,up,↑,0.5286298000137322,True,16,1,0,6
Y2-S2-193K20,5,469,AS,exp,50,↓,down,↓,0.7325616000161972,True,16,1,0,6
Y2-S2-193K20,5,470,AS,exp,28,→,right,→,0.8522097999812104,True,16,1,0,6
Y2-S2-193K20,5,471,AS,exp,28,↑,up,↑,0.9022216000012122,True,15,1,0,6
Y2-S2-193K20,5,472,AS,exp,41,→,right,→,0.7928505000018049,True,15,1,0,6
Y2-S2-193K20,5,473,AS,exp,31,↓,down,↓,0.7510671000054572,True,15,1,0,6
Y2-S2-193K20,5,474,AS,exp,50,←,left,←,0.7297403000120539,True,14,1,0,6
Y2-S2-193K20,5,475,AS,exp,41,↑,up,↑,0.6346595000068191,True,14,1,0,6
Y2-S2-193K20,5,476,AS,exp,50,←,left,←,0.5661142999888398,True,14,1,0,6
Y2-S2-193K20,5,477,AS,exp,28,↑,up,↑,0.6814828000206035,True,13,1,0,6
Y2-S2-193K20,5,478,AS,exp,35,←,left,←,0.5981537999759894,True,13,1,0,6
Y2-S2-193K20,5,479,AS,exp,27,→,right,→,0.7991580000089016,True,13,1,0,6
Y2-S2-193K20,5,480,AS,exp,25,↓,down,↓,0.6789699999790173,True,12,1,0,6
Y2-S2-193K20,5,481,AS,exp,27,↑,up,↑,1.2540933999989647,True,12,1,0,6
Y2-S2-193K20,5,482,AS,exp,29,↓,down,↓,0.6288268000062089,True,12,1,0,6
Y2-S2-193K20,5,483,AS,exp,49,←,left,←,1.476470399997197,True,11,1,0,6
Y2-S2-193K20,5,484,AS,exp,46,→,right,→,0.620590100006666,True,11,1,0,6
Y2-S2-193K20,5,485,AS,exp,35,←,left,←,0.8949078000150621,True,11,1,0,6
Y2-S2-193K20,5,486,AS,exp,49,↓,down,↓,0.6025949000031687,True,10,1,0,6
Y2-S2-193K20,5,487,AS,exp,34,↑,up,↑,0.6267150999919977,True,10,1,0,6
Y2-S2-193K20,5,488,AS,exp,47,→,right,→,0.6049509000149556,True,10,1,0,6
Y2-S2-193K20,5,489,AS,exp,43,↑,down,↓,0.6123987000028137,False,9,-1,1,7
Y2-S2-193K20,5,490,AS,exp,42,↓,up,↑,0.7196549999935087,False,10,-1,0,7
Y2-S2-193K20,5,491,AS,exp,48,→,right,→,0.7795583999832161,True,11,-1,0,7
Y2-S2-193K20,5,492,AS,exp,47,↑,up,↑,0.6322875999903772,True,11,-1,0,7
Y2-S2-193K20,5,493,AS,exp,29,→,right,→,0.7380500000144821,True,11,1,1,8
Y2-S2-193K20,5,494,AS,exp,37,←,left,←,0.6432131000037771,True,10,1,0,8
Y2-S2-193K20,5,495,AS,exp,30,→,left,←,0.9247464000072796,False,10,-1,1,9
Y2-S2-193K20,5,496,AS,exp,38,←,right,→,0.6379300999979023,False,11,-1,0,9
Y2-S2-193K20,5,497,AS,exp,39,→,right,→,0.6356584000168368,True,12,-1,0,9
Y2-S2-193K20,5,498,AS,exp,49,↓,down,↓,0.6290072000119835,True,12,-1,0,9
Y2-S2-193K20,5,499,AS,exp,38,↑,up,↑,0.6974498000054155,True,12,1,1,10
Y2-S2-193K20,5,500,AS,exp,29,↓,down,↓,0.6174203999980818,True,11,1,0,10
Y2-S2-193K20,5,501,AS,exp,33,↑,up,↑,0.9425938999920618,True,11,1,0,10
Y2-S2-193K20,5,502,AS,exp,43,←,left,←,0.5423964000074193,True,11,1,0,10
Y2-S2-193K20,5,503,AS,exp,46,↑,up,↑,0.5342975000094157,True,10,1,0,10
Y2-S2-193K20,5,504,AS,exp,42,→,right,→,0.591862500004936,True,10,1,0,10
Y2-S2-193K20,5,505,AS,exp,25,↓,down,↓,0.6016709000105038,True,10,1,0,10
Y2-S2-193K20,5,506,AS,exp,50,→,right,→,0.595761999982642,True,9,1,0,10
Y2-S2-193K20,5,507,AS,exp,35,↓,down,↓,0.6602683999808505,True,9,1,0,10
Y2-S2-193K20,5,508,AS,exp,39,→,right,→,0.7617702999850735,True,9,1,0,10
Y2-S2-193K20,5,509,AS,exp,46,↑,up,↑,0.6113822000043001,True,8,1,0,10
Y2-S2-193K20,5,510,AS,exp,47,↓,up,↑,0.6570202000148129,False,8,-1,1,11
Y2-S2-193K20,5,511,AS,exp,29,↑,up,↑,0.6701929999981076,True,9,-1,0,11
Y2-S2-193K20,5,512,AS,exp,41,←,left,←,0.6120013000036124,True,9,-1,0,11
Y2-S2-193K20,5,513,AS,exp,42,→,right,→,0.5534890000126325,True,9,1,1,12
Y2-S2-193K20,5,514,AS,exp,27,↑,up,↑,0.59378550000838,True,8,1,0,12
Y2-S2-193K20,5,515,AS,exp,29,↓,down,↓,0.6443741999974009,True,8,1,0,12
Y2-S2-193K20,5,516,AS,exp,43,←,up,↑,0.5974833999935072,False,8,-1,1,13
Y2-S2-193K20,5,517,AS,exp,25,→,no_key,no_letter,-1.0,False,9,-1,0,13
Y2-S2-193K20,5,518,AS,exp,50,↓,down,↓,0.770209700014675,True,10,-1,0,13
Y2-S2-193K20,5,519,AS,exp,41,↑,down,↓,0.6192050000245217,False,10,-1,0,13
Y2-S2-193K20,5,520,AS,exp,25,↓,up,↑,0.7394583999994211,False,11,-1,0,13
Y2-S2-193K20,5,521,AS,exp,30,↑,up,↑,0.6051833000092302,True,12,-1,0,13
Y2-S2-193K20,5,522,AS,exp,39,←,right,→,0.9970785999903455,False,12,-1,0,13
Y2-S2-193K20,5,523,AS,exp,27,↑,up,↑,0.6705332999990787,True,13,-1,0,13
Y2-S2-193K20,5,524,AS,exp,30,←,left,←,0.7620572000159882,True,13,-1,0,13
Y2-S2-193K20,5,525,AS,exp,50,↑,up,↑,0.8017853000201285,True,13,1,1,14
Y2-S2-193K20,5,526,AS,exp,39,←,left,←,0.5858452999964356,True,12,1,0,14
Y2-S2-193K20,5,527,AS,exp,28,↑,down,↓,0.6861268999928143,False,12,-1,1,15
Y2-S2-193K20,5,528,AS,exp,42,←,left,←,0.6911764999968,True,13,-1,0,15
Y2-S2-193K20,5,529,AS,exp,33,↑,up,↑,0.6357554999995045,True,13,-1,0,15
Y2-S2-193K20,5,530,AS,exp,43,→,right,→,0.5981475999869872,True,13,1,1,16
Y2-S2-193K20,6,531,PS,intra_train,49,↓,down,↓,0.9732447999995202,True,21,-,-,-
Y2-S2-193K20,6,532,PS,intra_train,49,→,right,→,0.640408799983561,True,21,-,-,-
Y2-S2-193K20,6,533,PS,intra_train,46,↓,down,↓,0.7493046000017785,True,21,-,-,-
Y2-S2-193K20,6,534,PS,intra_train,27,←,left,←,0.5901767999748699,True,21,-,-,-
Y2-S2-193K20,6,535,PS,intra_train,34,→,no_key,no_letter,-1.0,False,21,-,-,-
Y2-S2-193K20,6,536,PS,exp,45,↑,down,↓,0.7403900999925099,False,14,-1,0,0
Y2-S2-193K20,6,537,PS,exp,49,↓,down,↓,0.6408415999903809,True,15,-1,0,0
Y2-S2-193K20,6,538,PS,exp,34,←,left,←,0.6194774000032339,True,15,-1,0,0
Y2-S2-193K20,6,539,PS,exp,46,→,right,→,0.6056796999764629,True,15,1,1,1
Y2-S2-193K20,6,540,PS,exp,33,↑,up,↑,0.5418281999882311,True,14,1,0,1
Y2-S2-193K20,6,541,PS,exp,38,↓,down,↓,0.6804149999807123,True,14,1,0,1
Y2-S2-193K20,6,542,PS,exp,28,→,right,→,0.5137427999870852,True,14,1,0,1
Y2-S2-193K20,6,543,PS,exp,29,↑,up,↑,0.6245693000091705,True,13,1,0,1
Y2-S2-193K20,6,544,PS,exp,35,↓,down,↓,0.5516397000174038,True,13,1,0,1
Y2-S2-193K20,6,545,PS,exp,30,↑,up,↑,0.5566480999987107,True,13,1,0,1
Y2-S2-193K20,6,546,PS,exp,28,↓,down,↓,0.5552905999938957,True,12,1,0,1
Y2-S2-193K20,6,547,PS,exp,28,→,right,→,0.5512010999955237,True,12,1,0,1
Y2-S2-193K20,6,548,PS,exp,34,←,down,↓,0.8888052999973297,False,12,-1,1,2
Y2-S2-193K20,6,549,PS,exp,50,↑,up,↑,0.5346358999959193,True,13,-1,0,2
Y2-S2-193K20,6,550,PS,exp,49,↓,down,↓,0.5715593000059016,True,13,-1,0,2
Y2-S2-193K20,6,551,PS,exp,43,↑,up,↑,0.550244100013515,True,13,1,1,3
Y2-S2-193K20,6,552,PS,exp,36,↓,down,↓,0.5966608999879099,True,12,1,0,3
Y2-S2-193K20,6,553,PS,exp,27,←,left,←,0.8037194000207819,True,12,1,0,3
Y2-S2-193K20,6,554,PS,exp,39,→,right,→,0.5311430000001565,True,12,1,0,3
Y2-S2-193K20,6,555,PS,exp,39,↓,down,↓,0.6369539000152145,True,11,1,0,3
Y2-S2-193K20,6,556,PS,exp,32,→,right,→,0.5655096000118647,True,11,1,0,3
Y2-S2-193K20,6,557,PS,exp,48,↑,up,↑,0.8446698999905493,True,11,1,0,3
Y2-S2-193K20,6,558,PS,exp,40,←,left,←,0.5753064000164159,True,10,1,0,3
Y2-S2-193K20,6,559,PS,exp,40,↑,up,↑,0.5567872000101488,True,10,1,0,3
Y2-S2-193K20,6,560,PS,exp,43,→,right,→,0.5796642000204884,True,10,1,0,3
Y2-S2-193K20,6,561,PS,exp,29,↓,down,↓,0.588165699999081,True,9,1,0,3
Y2-S2-193K20,6,562,PS,exp,34,↑,up,↑,0.7953065000183415,True,9,1,0,3
Y2-S2-193K20,6,563,PS,exp,28,↓,down,↓,0.6929307999962475,True,9,1,0,3
Y2-S2-193K20,6,564,PS,exp,46,→,up,↑,0.9233964000013657,False,8,-1,1,4
Y2-S2-193K20,6,565,PS,exp,42,↓,left,←,1.540279400011059,False,9,-1,0,4
Y2-S2-193K20,6,566,PS,exp,44,→,right,→,1.6352989000151865,True,10,-1,0,4
Y2-S2-193K20,6,567,PS,exp,35,←,left,←,1.0598702999996021,True,10,-1,0,4
Y2-S2-193K20,6,568,PS,exp,38,→,left,←,0.7906811999855563,False,10,-1,0,4
Y2-S2-193K20,6,569,PS,exp,33,←,right,→,1.6424770999874454,False,11,-1,0,4
Y2-S2-193K20,6,570,PS,exp,43,→,left,←,1.33122409999487,False,12,-1,0,4
Y2-S2-193K20,6,571,PS,exp,47,↑,up,↑,0.5985818000044674,True,13,-1,0,4
Y2-S2-193K20,6,572,PS,exp,31,→,left,←,1.2324003000103403,False,13,-1,0,4
Y2-S2-193K20,6,573,PS,exp,29,←,left,←,0.6556947000208311,True,14,-1,0,4
Y2-S2-193K20,6,574,PS,exp,29,↓,down,↓,0.7669862000038847,True,14,-1,0,4
Y2-S2-193K20,6,575,PS,exp,44,↑,up,↑,0.829069499974139,True,14,1,1,5
Y2-S2-193K20,6,576,PS,exp,38,↓,down,↓,0.6235940000042319,True,13,1,0,5
Y2-S2-193K20,6,577,PS,exp,33,←,left,←,0.660610099992482,True,13,1,0,5
Y2-S2-193K20,6,578,PS,exp,30,→,right,→,0.6014523000048939,True,13,1,0,5
Y2-S2-193K20,6,579,PS,exp,49,↑,up,↑,0.6393339000060223,True,12,1,0,5
Y2-S2-193K20,6,580,PS,exp,27,←,right,→,0.6170772000041325,False,12,-1,1,6
Y2-S2-193K20,6,581,PS,exp,36,↓,down,↓,0.7004974000155926,True,13,-1,0,6
Y2-S2-193K20,6,582,PS,exp,39,←,left,←,0.5290031000040472,True,13,-1,0,6
Y2-S2-193K20,6,583,PS,exp,35,↓,down,↓,0.6909213999751955,True,13,1,1,7
Y2-S2-193K20,6,584,PS,exp,49,→,right,→,0.5777730999980122,True,12,1,0,7
Y2-S2-193K20,6,585,PS,exp,32,↑,up,↑,0.5608323999913409,True,12,1,0,7
Y2-S2-193K20,6,586,PS,exp,25,→,right,→,1.0915861999965273,True,12,1,0,7
Y2-S2-193K20,6,587,PS,exp,50,↓,down,↓,0.6701071000134107,True,11,1,0,7
Y2-S2-193K20,6,588,PS,exp,35,→,right,→,0.5297261000087019,True,11,1,0,7
Y2-S2-193K20,6,589,PS,exp,45,↑,down,↓,0.921942199987825,False,11,-1,1,8
Y2-S2-193K20,6,590,PS,exp,43,←,left,←,0.6034772999992128,True,12,-1,0,8
Y2-S2-193K20,6,591,PS,exp,43,→,right,→,0.5241911999764852,True,12,-1,0,8
Y2-S2-193K20,6,592,PS,exp,34,↓,down,↓,0.7940884999989066,True,12,1,1,9
Y2-S2-193K20,6,593,PS,exp,37,→,right,→,0.5817957000108436,True,11,1,0,9
Y2-S2-193K20,6,594,PS,exp,33,↑,up,↑,0.5484890000079758,True,11,1,0,9
Y2-S2-193K20,6,595,PS,exp,32,↓,down,↓,0.6484244999883231,True,11,1,0,9
Y2-S2-193K20,6,596,PS,exp,25,→,right,→,0.7531105999951251,True,10,1,0,9
Y2-S2-193K20,6,597,PS,exp,34,↓,down,↓,0.5274554000061471,True,10,1,0,9
Y2-S2-193K20,6,598,PS,exp,40,→,right,→,0.5749109000025783,True,10,1,0,9
Y2-S2-193K20,6,599,PS,exp,48,←,left,←,0.6316990999912377,True,9,1,0,9
Y2-S2-193K20,6,600,PS,exp,35,→,right,→,1.0732659000204876,True,9,1,0,9
Y2-S2-193K20,6,601,PS,exp,30,↑,up,↑,0.9740005999919958,True,9,1,0,9
Y2-S2-193K20,6,602,PS,exp,43,↓,down,↓,0.6856838999956381,True,8,1,0,9
Y2-S2-193K20,6,603,PS,exp,31,→,right,→,0.5807068000140134,True,8,1,0,9
Y2-S2-193K20,6,604,PS,exp,49,←,right,→,0.8681196999968961,False,8,-1,1,10
Y2-S2-193K20,6,605,PS,exp,47,↑,up,↑,0.6419890999968629,True,9,-1,0,10
Y2-S2-193K20,6,606,PS,exp,45,→,down,↓,0.8352231000026222,False,9,-1,0,10
Y2-S2-193K20,6,607,PS,exp,50,↑,up,↑,0.6591055000026245,True,10,-1,0,10
Y2-S2-193K20,6,608,PS,exp,37,←,right,→,0.7027716000156943,False,10,-1,0,10
Y2-S2-193K20,6,609,PS,exp,30,↑,up,↑,0.6873538999934681,True,11,-1,0,10
Y2-S2-193K20,6,610,PS,exp,27,↓,left,←,0.9778300000180025,False,11,-1,0,10
Y2-S2-193K20,6,611,PS,exp,25,←,left,←,1.3058676999935415,True,12,-1,0,10
Y2-S2-193K20,6,612,PS,exp,43,↑,up,↑,1.349229599989485,True,12,-1,0,10
Y2-S2-193K20,6,613,PS,exp,30,→,right,→,0.7780893000017386,True,12,1,1,11
Y2-S2-193K20,6,614,PS,exp,46,↑,up,↑,0.8328433000133373,True,11,1,0,11
Y2-S2-193K20,6,615,PS,exp,35,↓,left,←,1.008922300010454,False,11,-1,1,12
Y2-S2-193K20,6,616,PS,exp,38,→,right,→,0.6314418999827467,True,12,-1,0,12
Y2-S2-193K20,6,617,PS,exp,46,↑,up,↑,1.1467325999983586,True,12,-1,0,12
Y2-S2-193K20,6,618,PS,exp,34,↓,down,↓,0.6940146000124514,True,12,1,1,13
Y2-S2-193K20,6,619,PS,exp,25,↑,down,↓,0.8217702999827452,False,11,-1,1,14
Y2-S2-193K20,6,620,PS,exp,39,↓,down,↓,0.8268651000107639,True,12,-1,0,14
Y2-S2-193K20,6,621,PS,exp,42,←,left,←,0.8760486000101082,True,12,-1,0,14
Y2-S2-193K20,6,622,PS,exp,43,↓,down,↓,1.1977795999846421,True,12,1,1,15
Y2-S2-193K20,6,623,PS,exp,25,→,down,↓,0.987108100001933,False,11,-1,1,16
Y2-S2-193K20,7,624,PS,intra_train,25,↑,up,↑,1.1255866000137758,True,21,-,-,-
Y2-S2-193K20,7,625,PS,intra_train,48,←,left,←,0.6495166000095196,True,21,-,-,-
Y2-S2-193K20,7,626,PS,intra_train,45,↑,up,↑,0.6505307999905199,True,21,-,-,-
Y2-S2-193K20,7,627,PS,intra_train,44,←,left,←,0.5559119000099599,True,21,-,-,-
Y2-S2-193K20,7,628,PS,intra_train,44,↓,down,↓,0.6923448000161443,True,21,-,-,-
Y2-S2-193K20,7,629,PS,exp,26,←,right,→,1.061098000005586,False,14,-1,0,0
Y2-S2-193K20,7,630,PS,exp,38,↑,up,↑,0.6642258000210859,True,15,-1,0,0
Y2-S2-193K20,7,631,PS,exp,28,→,right,→,0.7166732999903616,True,15,-1,0,0
Y2-S2-193K20,7,632,PS,exp,26,↑,up,↑,0.5778704000113066,True,15,1,1,1
Y2-S2-193K20,7,633,PS,exp,44,→,right,→,0.5910561000055168,True,14,1,0,1
Y2-S2-193K20,7,634,PS,exp,34,↑,up,↑,0.5878276000148617,True,14,1,0,1
Y2-S2-193K20,7,635,PS,exp,46,→,right,→,0.5353629999735858,True,14,1,0,1
Y2-S2-193K20,7,636,PS,exp,37,↑,up,↑,0.45157380000455305,True,13,1,0,1
Y2-S2-193K20,7,637,PS,exp,40,←,left,←,0.6603912999853492,True,13,1,0,1
Y2-S2-193K20,7,638,PS,exp,46,→,right,→,0.5060756999882869,True,13,1,0,1
Y2-S2-193K20,7,639,PS,exp,35,←,left,←,0.6315502999932505,True,12,1,0,1
Y2-S2-193K20,7,640,PS,exp,31,↓,down,↓,0.6805748000042513,True,12,1,0,1
Y2-S2-193K20,7,641,PS,exp,28,←,left,←,0.5625847000046633,True,12,1,0,1
Y2-S2-193K20,7,642,PS,exp,31,↓,down,↓,0.6626879000104964,True,11,1,0,1
Y2-S2-193K20,7,643,PS,exp,38,←,left,←,0.6213409999909345,True,11,1,0,1
Y2-S2-193K20,7,644,PS,exp,48,↑,up,↑,0.5899574999930337,True,11,1,0,1
Y2-S2-193K20,7,645,PS,exp,40,←,right,→,0.5862589000025764,False,10,-1,1,2
Y2-S2-193K20,7,646,PS,exp,26,↓,down,↓,0.6408530999906361,True,11,-1,0,2
Y2-S2-193K20,7,647,PS,exp,50,←,left,←,0.6233154000074137,True,11,-1,0,2
Y2-S2-193K20,7,648,PS,exp,28,↓,down,↓,0.5924558999831788,True,11,1,1,3
Y2-S2-193K20,7,649,PS,exp,25,←,left,←,0.64940339999157,True,10,1,0,3
Y2-S2-193K20,7,650,PS,exp,45,→,left,←,0.7440208000189159,False,10,-1,1,4
Y2-S2-193K20,7,651,PS,exp,34,↑,up,↑,0.6562321000092197,True,11,-1,0,4
Y2-S2-193K20,7,652,PS,exp,47,←,left,←,0.5874809000233654,True,11,-1,0,4
Y2-S2-193K20,7,653,PS,exp,47,↓,down,↓,0.5969097000197507,True,11,1,1,5
Y2-S2-193K20,7,654,PS,exp,41,←,left,←,1.0213280000025406,True,10,1,0,5
Y2-S2-193K20,7,655,PS,exp,31,↑,down,↓,0.8665157999785151,False,10,-1,1,6
Y2-S2-193K20,7,656,PS,exp,36,↓,down,↓,0.5455851999868173,True,11,-1,0,6
Y2-S2-193K20,7,657,PS,exp,27,→,right,→,0.5974553000123706,True,11,-1,0,6
Y2-S2-193K20,7,658,PS,exp,47,↑,up,↑,0.9552292999869678,True,11,1,1,7
Y2-S2-193K20,7,659,PS,exp,25,←,right,→,1.1929954999941401,False,10,-1,1,8
Y2-S2-193K20,7,660,PS,exp,45,→,left,←,0.6828534000087529,False,11,-1,0,8
Y2-S2-193K20,7,661,PS,exp,49,←,up,↑,1.200861099991016,False,12,-1,0,8
Y2-S2-193K20,7,662,PS,exp,41,↑,down,↓,0.904922700021416,False,13,-1,0,8
Y2-S2-193K20,7,663,PS,exp,44,→,right,→,0.6154468000167981,True,14,-1,0,8
Y2-S2-193K20,7,664,PS,exp,33,↑,up,↑,0.7113926000020001,True,14,-1,0,8
Y2-S2-193K20,7,665,PS,exp,25,→,right,→,0.6799044999934267,True,14,1,1,9
Y2-S2-193K20,7,666,PS,exp,25,↓,down,↓,0.8069894000072964,True,13,1,0,9
Y2-S2-193K20,7,667,PS,exp,43,↑,up,↑,0.6447324000182562,True,13,1,0,9
Y2-S2-193K20,7,668,PS,exp,48,→,right,→,0.5016156999918167,True,13,1,0,9
Y2-S2-193K20,7,669,PS,exp,36,↑,up,↑,0.6098420000053011,True,12,1,0,9
Y2-S2-193K20,7,670,PS,exp,49,→,right,→,0.5453772000037134,True,12,1,0,9
Y2-S2-193K20,7,671,PS,exp,30,↓,down,↓,0.7759731000114698,True,12,1,0,9
Y2-S2-193K20,7,672,PS,exp,50,←,left,←,0.5700469000148587,True,11,1,0,9
Y2-S2-193K20,7,673,PS,exp,32,↓,down,↓,0.6274775999772828,True,11,1,0,9
Y2-S2-193K20,7,674,PS,exp,28,←,left,←,0.539471299998695,True,11,1,0,9
Y2-S2-193K20,7,675,PS,exp,49,↑,up,↑,0.5351740000187419,True,10,1,0,9
Y2-S2-193K20,7,676,PS,exp,35,↓,down,↓,0.6152748999884352,True,10,1,0,9
Y2-S2-193K20,7,677,PS,exp,40,←,down,↓,0.6473312999878544,False,10,-1,1,10
Y2-S2-193K20,7,678,PS,exp,30,↓,down,↓,0.6906653000041842,True,11,-1,0,10
Y2-S2-193K20,7,679,PS,exp,44,→,right,→,0.6191402999975253,True,11,-1,0,10
Y2-S2-193K20,7,680,PS,exp,42,←,left,←,0.5473033000016585,True,11,1,1,11
Y2-S2-193K20,7,681,PS,exp,35,↓,up,↑,0.7127703999867663,False,10,-1,1,12
Y2-S2-193K20,7,682,PS,exp,48,→,right,→,0.6095730000233743,True,11,-1,0,12
Y2-S2-193K20,7,683,PS,exp,25,↓,down,↓,0.6638519999978598,True,11,-1,0,12
Y2-S2-193K20,7,684,PS,exp,47,←,left,←,0.5567190000147093,True,11,1,1,13
Y2-S2-193K20,7,685,PS,exp,39,↓,down,↓,0.6258909000025596,True,10,1,0,13
Y2-S2-193K20,7,686,PS,exp,29,←,left,←,0.48782400001073256,True,10,1,0,13
Y2-S2-193K20,7,687,PS,exp,39,↑,up,↑,0.7453950999770314,True,10,1,0,13
Y2-S2-193K20,7,688,PS,exp,46,↓,down,↓,0.6365300999896135,True,9,1,0,13
Y2-S2-193K20,7,689,PS,exp,36,←,left,←,0.5236098000023048,True,9,1,0,13
Y2-S2-193K20,7,690,PS,exp,29,↓,down,↓,0.5356668000167701,True,9,1,0,13
Y2-S2-193K20,7,691,PS,exp,43,↑,up,↑,0.7550916000036523,True,8,1,0,13
Y2-S2-193K20,7,692,PS,exp,28,↓,down,↓,0.592218400008278,True,8,1,0,13
Y2-S2-193K20,7,693,PS,exp,35,←,down,↓,0.9347754000045825,False,8,-1,1,14
Y2-S2-193K20,7,694,PS,exp,40,↓,left,←,0.7075710000062827,False,9,-1,0,14
Y2-S2-193K20,7,695,PS,exp,29,→,right,→,0.6647957999957725,True,10,-1,0,14
Y2-S2-193K20,7,696,PS,exp,29,↑,up,↑,0.5898442000034265,True,10,-1,0,14
Y2-S2-193K20,7,697,PS,exp,46,→,right,→,0.5697305999929085,True,10,1,1,15
Y2-S2-193K20,7,698,PS,exp,30,←,up,↑,1.3727896999916993,False,9,-1,1,16
Y2-S2-193K20,8,699,AS,intra_train,36,→,right,→,0.6451049000024796,True,24,-,-,-
Y2-S2-193K20,8,700,AS,intra_train,36,↑,up,↑,0.590140699991025,True,24,-,-,-
Y2-S2-193K20,8,701,AS,intra_train,33,↓,down,↓,0.6472249000216834,True,24,-,-,-
Y2-S2-193K20,8,702,AS,intra_train,31,↑,down,↓,0.4339922000071965,False,24,-,-,-
Y2-S2-193K20,8,703,AS,intra_train,49,→,right,→,0.630930300016189,True,24,-,-,-
Y2-S2-193K20,8,704,AS,exp,46,↓,down,↓,0.6565493000089191,True,16,0,0,0
Y2-S2-193K20,8,705,AS,exp,28,→,right,→,0.628348600002937,True,16,0,0,0
Y2-S2-193K20,8,706,AS,exp,45,←,left,←,0.603551799984416,True,16,1,0,0
Y2-S2-193K20,8,707,AS,exp,32,→,right,→,0.6317277000052854,True,15,1,0,0
Y2-S2-193K20,8,708,AS,exp,44,←,left,←,0.6194048000033945,True,15,1,0,0
Y2-S2-193K20,8,709,AS,exp,42,↑,down,↓,0.9426595999975689,False,15,-1,1,1
Y2-S2-193K20,8,710,AS,exp,41,↓,down,↓,0.5965339000103995,True,16,-1,0,1
Y2-S2-193K20,8,711,AS,exp,29,→,right,→,0.6088438000006136,True,16,-1,0,1
Y2-S2-193K20,8,712,AS,exp,49,↓,down,↓,0.5664184000052046,True,16,1,1,2
Y2-S2-193K20,8,713,AS,exp,40,←,left,←,0.5886212000041269,True,15,1,0,2
Y2-S2-193K20,8,714,AS,exp,45,↑,up,↑,0.6764001999981701,True,15,1,0,2
Y2-S2-193K20,8,715,AS,exp,46,→,right,→,0.550588299985975,True,15,1,0,2
Y2-S2-193K20,8,716,AS,exp,33,↑,up,↑,0.6798677000042517,True,14,1,0,2
Y2-S2-193K20,8,717,AS,exp,50,↓,down,↓,0.5733211000042502,True,14,1,0,2
Y2-S2-193K20,8,718,AS,exp,29,↑,up,↑,0.601439299993217,True,14,1,0,2
Y2-S2-193K20,8,719,AS,exp,36,→,right,→,0.8000520000059623,True,13,1,0,2
Y2-S2-193K20,8,720,AS,exp,47,←,left,←,0.5595099000202026,True,13,1,0,2
Y2-S2-193K20,8,721,AS,exp,45,→,right,→,0.657971099979477,True,13,1,0,2
Y2-S2-193K20,8,722,AS,exp,38,←,left,←,0.5235622999898624,True,12,1,0,2
Y2-S2-193K20,8,723,AS,exp,45,↑,up,↑,0.5556892000022344,True,12,1,0,2
Y2-S2-193K20,8,724,AS,exp,40,↓,up,↑,0.9031785999832209,False,12,-1,1,3
Y2-S2-193K20,8,725,AS,exp,34,↑,down,↓,0.7720101000159048,False,13,-1,0,3
Y2-S2-193K20,8,726,AS,exp,50,←,left,←,0.5493122999905609,True,14,-1,0,3
Y2-S2-193K20,8,727,AS,exp,29,→,right,→,0.525784500001464,True,14,-1,0,3
Y2-S2-193K20,8,728,AS,exp,41,↓,down,↓,0.5503499000042211,True,14,1,1,4
Y2-S2-193K20,8,729,AS,exp,36,→,right,→,0.7784186000062618,True,13,1,0,4
Y2-S2-193K20,8,730,AS,exp,25,↑,down,↓,0.5278398999944329,False,13,-1,1,5
Y2-S2-193K20,8,731,AS,exp,26,→,right,→,0.5997293000109494,True,14,-1,0,5
Y2-S2-193K20,8,732,AS,exp,40,←,left,←,0.7402177999902051,True,14,-1,0,5
Y2-S2-193K20,8,733,AS,exp,36,→,right,→,0.6282626999891363,True,14,1,1,6
Y2-S2-193K20,8,734,AS,exp,50,←,right,→,0.7843160000047646,False,13,-1,1,7
Y2-S2-193K20,8,735,AS,exp,32,↓,down,↓,0.5778210999851581,True,14,-1,0,7
Y2-S2-193K20,8,736,AS,exp,25,→,right,→,0.7425730999966618,True,14,-1,0,7
Y2-S2-193K20,8,737,AS,exp,49,←,left,←,0.48623890001908876,True,14,1,1,8
Y2-S2-193K20,8,738,AS,exp,33,→,right,→,0.541671100014355,True,13,1,0,8
Y2-S2-193K20,8,739,AS,exp,25,↓,down,↓,0.5606053000083193,True,13,1,0,8
Y2-S2-193K20,8,740,AS,exp,44,→,right,→,0.5947684000129811,True,13,1,0,8
Y2-S2-193K20,8,741,AS,exp,34,←,left,←,0.5251081000023987,True,12,1,0,8
Y2-S2-193K20,8,742,AS,exp,38,↑,up,↑,0.8912889000202995,True,12,1,0,8
Y2-S2-193K20,8,743,AS,exp,42,↓,down,↓,0.6260960999934468,True,12,1,0,8
Y2-S2-193K20,8,744,AS,exp,25,←,left,←,0.569114299985813,True,11,1,0,8
Y2-S2-193K20,8,745,AS,exp,41,↑,up,↑,0.6531751999864355,True,11,1,0,8
Y2-S2-193K20,8,746,AS,exp,27,→,right,→,0.8767424000252504,True,11,1,0,8
Y2-S2-193K20,8,747,AS,exp,43,↑,up,↑,0.5981819000153337,True,10,1,0,8
Y2-S2-193K20,8,748,AS,exp,48,↓,down,↓,0.563185999984853,True,10,1,0,8
Y2-S2-193K20,8,749,AS,exp,35,→,right,→,0.5928017999976873,True,10,1,0,8
Y2-S2-193K20,8,750,AS,exp,43,←,right,→,0.5622680000087712,False,9,-1,1,9
Y2-S2-193K20,8,751,AS,exp,25,↑,up,↑,0.6070769999932963,True,10,-1,0,9
Y2-S2-193K20,8,752,AS,exp,33,←,left,←,0.5434649999951944,True,10,-1,0,9
Y2-S2-193K20,8,753,AS,exp,32,→,right,→,0.5492364999954589,True,10,1,1,10
Y2-S2-193K20,8,754,AS,exp,33,↑,up,↑,0.537248799984809,True,9,1,0,10
Y2-S2-193K20,8,755,AS,exp,47,↓,up,↑,0.6973387000034563,False,9,-1,1,11
Y2-S2-193K20,8,756,AS,exp,29,←,left,←,0.5424191000056453,True,10,-1,0,11
Y2-S2-193K20,8,757,AS,exp,30,→,left,←,0.5649481000145897,False,10,-1,0,11
Y2-S2-193K20,8,758,AS,exp,25,↑,up,↑,0.848485399998026,True,11,-1,0,11
Y2-S2-193K20,8,759,AS,exp,45,↓,up,↑,0.8185743000067305,False,11,-1,0,11
Y2-S2-193K20,8,760,AS,exp,30,↑,up,↑,0.539654199994402,True,12,-1,0,11
Y2-S2-193K20,8,761,AS,exp,28,→,right,→,0.5749590000195894,True,12,-1,0,11
Y2-S2-193K20,8,762,AS,exp,47,↓,down,↓,0.9167026999930386,True,12,1,1,12
Y2-S2-193K20,8,763,AS,exp,44,→,right,→,0.5409231999947224,True,11,1,0,12
Y2-S2-193K20,8,764,AS,exp,47,←,left,←,0.5185009999840986,True,11,1,0,12
Y2-S2-193K20,8,765,AS,exp,42,→,left,←,0.5286362000042573,False,11,-1,1,13
Y2-S2-193K20,8,766,AS,exp,36,←,left,←,1.3115779999934603,True,12,-1,0,13
Y2-S2-193K20,8,767,AS,exp,32,↑,up,↑,0.5981508999830112,True,12,-1,0,13
Y2-S2-193K20,8,768,AS,exp,26,←,left,←,0.5362338999984786,True,12,1,1,14
Y2-S2-193K20,8,769,AS,exp,40,↑,up,↑,0.5969800000020768,True,11,1,0,14
Y2-S2-193K20,8,770,AS,exp,25,→,left,←,0.5559036000049673,False,11,-1,1,15
Y2-S2-193K20,8,771,AS,exp,29,←,right,→,0.5506173000030685,False,12,-1,0,15
Y2-S2-193K20,8,772,AS,exp,41,→,left,←,0.52405480001471,False,13,-1,0,15
Y2-S2-193K20,8,773,AS,exp,43,←,left,←,0.6304075999942143,True,14,-1,0,15
Y2-S2-193K20,8,774,AS,exp,45,→,left,←,0.5553444000252057,False,14,-1,0,15
Y2-S2-193K20,8,775,AS,exp,25,↑,up,↑,0.5660146999871358,True,15,-1,0,15
Y2-S2-193K20,8,776,AS,exp,31,→,right,→,0.8262456000084057,True,15,-1,0,15
Y2-S2-193K20,8,777,AS,exp,43,↑,up,↑,0.5394303000066429,True,15,1,1,16
