PART_ID,Block_no,Trial_no,Block_type,Trial_type,CSI,Stim_letter,Key_pressed,letter_choose,Rt,Corr,Stimulus Time,Level,Reversal,Revs_count
Y2-S2-183K22,1,1,PS,train,48,←,left,←,0.2178615997545421,True,30,-,-,-
Y2-S2-183K22,1,2,PS,train,47,↓,down,↓,0.8400154998525977,True,30,-,-,-
Y2-S2-183K22,1,3,PS,train,44,→,right,→,0.6708045001141727,True,30,-,-,-
Y2-S2-183K22,1,4,PS,train,27,↓,down,↓,0.50086440006271,True,30,-,-,-
Y2-S2-183K22,1,5,PS,train,41,→,right,→,0.6918358001857996,True,30,-,-,-
Y2-S2-183K22,1,6,PS,train,50,↑,up,↑,1.2192786000669003,True,30,-,-,-
Y2-S2-183K22,1,7,PS,train,37,→,right,→,0.5171557003632188,True,30,-,-,-
Y2-S2-183K22,1,8,PS,train,35,↑,up,↑,0.9859468000940979,True,30,-,-,-
Y2-S2-183K22,1,9,PS,train,25,→,right,→,0.6758372001349926,True,30,-,-,-
Y2-S2-183K22,1,10,PS,train,25,↑,up,↑,0.9503089999780059,True,30,-,-,-
Y2-S2-183K22,2,11,AS,train,28,←,left,←,0.7339237001724541,True,45,-,-,-
Y2-S2-183K22,2,12,AS,train,35,↓,down,↓,0.6343372003175318,True,45,-,-,-
Y2-S2-183K22,2,13,AS,train,32,↑,up,↑,0.80049500009045,True,45,-,-,-
Y2-S2-183K22,2,14,AS,train,33,←,left,←,0.5008124997839332,True,45,-,-,-
Y2-S2-183K22,2,15,AS,train,27,↓,up,↑,0.6679028999060392,False,45,-,-,-
Y2-S2-183K22,2,16,AS,train,34,↑,down,↓,0.6678394000045955,False,45,-,-,-
Y2-S2-183K22,2,17,AS,train,46,→,left,←,0.58430300001055,False,45,-,-,-
Y2-S2-183K22,2,18,AS,train,27,←,left,←,0.6011407999321818,True,45,-,-,-
Y2-S2-183K22,2,19,AS,train,45,↑,up,↑,0.5846747001633048,True,45,-,-,-
Y2-S2-183K22,2,20,AS,train,49,↓,down,↓,0.7837979001924396,True,45,-,-,-
Y2-S2-183K22,-,21,PS,adaptive,48,←,left,←,0.6547086001373827,True,10,0,0,0
Y2-S2-183K22,-,22,PS,adaptive,49,→,right,→,0.5790279996581376,True,10,0,0,0
Y2-S2-183K22,-,23,PS,adaptive,33,↑,up,↑,0.7192615000531077,True,10,1,0,0
Y2-S2-183K22,-,24,PS,adaptive,48,↓,down,↓,0.859167399816215,True,9,1,0,0
Y2-S2-183K22,-,25,PS,adaptive,27,↑,up,↑,1.717807300388813,True,9,1,0,0
Y2-S2-183K22,-,26,PS,adaptive,49,←,left,←,0.5907303998246789,True,9,1,0,0
Y2-S2-183K22,-,27,PS,adaptive,29,↓,down,↓,0.5003144000656903,True,8,1,0,0
Y2-S2-183K22,-,28,PS,adaptive,38,↑,up,↑,0.49463840015232563,True,8,1,0,0
Y2-S2-183K22,-,29,PS,adaptive,48,←,left,←,0.4320577001199126,True,8,1,0,0
Y2-S2-183K22,-,30,PS,adaptive,38,↑,up,↑,0.7746461001224816,True,7,1,0,0
Y2-S2-183K22,-,31,PS,adaptive,40,→,right,→,0.6520056002773345,True,7,1,0,0
Y2-S2-183K22,-,32,PS,adaptive,25,←,left,←,0.485878299921751,True,7,1,0,0
Y2-S2-183K22,-,33,PS,adaptive,34,↓,up,↑,0.5769839002750814,False,6,-1,1,1
Y2-S2-183K22,-,34,PS,adaptive,41,↑,up,↑,0.4633156000636518,True,7,-1,0,1
Y2-S2-183K22,-,35,PS,adaptive,35,↓,down,↓,0.5544290998950601,True,7,-1,0,1
Y2-S2-183K22,-,36,PS,adaptive,46,→,right,→,0.44392160000279546,True,7,1,1,2
Y2-S2-183K22,-,37,PS,adaptive,38,↓,up,↑,0.6081321998499334,False,6,-1,1,3
Y2-S2-183K22,-,38,PS,adaptive,35,→,right,→,0.4304979001171887,True,7,-1,0,3
Y2-S2-183K22,-,39,PS,adaptive,33,↑,up,↑,0.424343999940902,True,7,-1,0,3
Y2-S2-183K22,-,40,PS,adaptive,26,→,right,→,0.4396289000287652,True,7,1,1,4
Y2-S2-183K22,-,41,AS,adaptive,45,↑,up,↑,0.5564953000284731,True,20,0,0,0
Y2-S2-183K22,-,42,AS,adaptive,32,↓,down,↓,0.5569655997678638,True,20,0,0,0
Y2-S2-183K22,-,43,AS,adaptive,37,↑,down,↓,0.6540713999420404,False,20,-1,0,0
Y2-S2-183K22,-,44,AS,adaptive,46,←,right,→,0.7301777000539005,False,21,-1,0,0
Y2-S2-183K22,-,45,AS,adaptive,44,↑,up,↑,0.5614229999482632,True,22,-1,0,0
Y2-S2-183K22,-,46,AS,adaptive,47,↓,up,↑,0.5439029997214675,False,22,-1,0,0
Y2-S2-183K22,-,47,AS,adaptive,36,→,right,→,0.6266308999620378,True,23,-1,0,0
Y2-S2-183K22,-,48,AS,adaptive,45,←,left,←,0.8164158998988569,True,23,-1,0,0
Y2-S2-183K22,-,49,AS,adaptive,46,↓,down,↓,0.7387600000947714,True,23,1,1,1
Y2-S2-183K22,-,50,AS,adaptive,34,←,left,←,0.6882833996787667,True,22,1,0,1
Y2-S2-183K22,-,51,AS,adaptive,27,↓,down,↓,0.5489686001092196,True,22,1,0,1
Y2-S2-183K22,-,52,AS,adaptive,26,↑,up,↑,0.4836774002760649,True,22,1,0,1
Y2-S2-183K22,-,53,AS,adaptive,37,↓,down,↓,0.5274951001629233,True,21,1,0,1
Y2-S2-183K22,-,54,AS,adaptive,29,←,left,←,0.43448719987645745,True,21,1,0,1
Y2-S2-183K22,-,55,AS,adaptive,43,→,right,→,0.6391557999886572,True,21,1,0,1
Y2-S2-183K22,-,56,AS,adaptive,47,↑,up,↑,0.5295215998776257,True,20,1,0,1
Y2-S2-183K22,-,57,AS,adaptive,49,←,right,→,0.6908998000435531,False,20,-1,1,2
Y2-S2-183K22,-,58,AS,adaptive,47,↑,down,↓,0.9883133000694215,False,21,-1,0,2
Y2-S2-183K22,-,59,AS,adaptive,36,↓,down,↓,0.5350207998417318,True,22,-1,0,2
Y2-S2-183K22,-,60,AS,adaptive,25,↑,up,↑,0.46717309998348355,True,22,-1,0,2
Y2-S2-183K22,-,61,AS,adaptive,44,→,right,→,0.5815296997316182,True,22,1,1,3
Y2-S2-183K22,-,62,AS,adaptive,49,←,left,←,0.48403329961001873,True,21,1,0,3
Y2-S2-183K22,-,63,AS,adaptive,34,↑,up,↑,0.6610950999893248,True,21,1,0,3
Y2-S2-183K22,-,64,AS,adaptive,40,→,right,→,0.6265193000435829,True,21,1,0,3
Y2-S2-183K22,-,65,AS,adaptive,44,↑,up,↑,0.5278924000449479,True,20,1,0,3
Y2-S2-183K22,-,66,AS,adaptive,28,↓,down,↓,0.5159680000506341,True,20,1,0,3
Y2-S2-183K22,-,67,AS,adaptive,45,↑,up,↑,0.4340669000521302,True,20,1,0,3
Y2-S2-183K22,-,68,AS,adaptive,49,→,right,→,0.5751358000561595,True,19,1,0,3
Y2-S2-183K22,-,69,AS,adaptive,36,↓,down,↓,0.6289537004195154,True,19,1,0,3
Y2-S2-183K22,-,70,AS,adaptive,42,↑,up,↑,0.6449171998538077,True,19,1,0,3
Y2-S2-183K22,-,71,AS,adaptive,34,←,left,←,0.6746438997797668,True,18,1,0,3
Y2-S2-183K22,-,72,AS,adaptive,32,↓,down,↓,0.5747087001800537,True,18,1,0,3
Y2-S2-183K22,-,73,AS,adaptive,41,↑,down,↓,0.7038922999054193,False,18,-1,1,4
Y2-S2-183K22,1,74,PS,intra_train,46,←,right,→,0.6371702998876572,False,9,-,-,-
Y2-S2-183K22,1,75,PS,intra_train,39,↑,up,↑,0.488474200014025,True,9,-,-,-
Y2-S2-183K22,1,76,PS,intra_train,47,←,left,←,0.5067561999894679,True,9,-,-,-
Y2-S2-183K22,1,77,PS,intra_train,50,→,right,→,0.5016797999851406,True,9,-,-,-
Y2-S2-183K22,1,78,PS,intra_train,47,↑,up,↑,0.5563409002497792,True,9,-,-,-
Y2-S2-183K22,1,79,PS,exp,27,→,left,←,0.6930405995808542,False,6,-1,0,0
Y2-S2-183K22,1,80,PS,exp,37,↓,up,↑,0.544983500149101,False,7,-1,0,0
Y2-S2-183K22,1,81,PS,exp,36,↑,right,→,0.5777513002976775,False,8,-1,0,0
Y2-S2-183K22,1,82,PS,exp,42,↓,up,↑,0.5325504001230001,False,9,-1,0,0
Y2-S2-183K22,1,83,PS,exp,44,→,right,→,0.568635200150311,True,10,-1,0,0
Y2-S2-183K22,1,84,PS,exp,39,↑,up,↑,0.5175899001769722,True,10,-1,0,0
Y2-S2-183K22,1,85,PS,exp,25,→,right,→,0.5710032000206411,True,10,1,1,1
Y2-S2-183K22,1,86,PS,exp,34,↑,up,↑,0.8694222997874022,True,9,1,0,1
Y2-S2-183K22,1,87,PS,exp,31,→,right,→,0.4435216998681426,True,9,1,0,1
Y2-S2-183K22,1,88,PS,exp,35,↑,up,↑,0.6192199001088738,True,9,1,0,1
Y2-S2-183K22,1,89,PS,exp,26,→,right,→,0.5484440000727773,True,8,1,0,1
Y2-S2-183K22,1,90,PS,exp,43,↑,up,↑,0.7540686000138521,True,8,1,0,1
Y2-S2-183K22,1,91,PS,exp,48,↓,down,↓,0.6816510995849967,True,8,1,0,1
Y2-S2-183K22,1,92,PS,exp,39,→,right,→,0.4834139999002218,True,7,1,0,1
Y2-S2-183K22,1,93,PS,exp,40,←,right,→,0.38531980011612177,False,7,-1,1,2
Y2-S2-183K22,1,94,PS,exp,43,↑,no_key,no_letter,-1.0,False,8,-1,0,2
Y2-S2-183K22,1,95,PS,exp,45,↓,left,←,0.4763191002421081,False,9,-1,0,2
Y2-S2-183K22,1,96,PS,exp,29,→,right,→,0.4149083998054266,True,10,-1,0,2
Y2-S2-183K22,1,97,PS,exp,38,↓,down,↓,0.5638206000439823,True,10,-1,0,2
Y2-S2-183K22,1,98,PS,exp,43,←,right,→,0.5280267000198364,False,10,-1,0,2
Y2-S2-183K22,1,99,PS,exp,49,↓,down,↓,0.5421221000142395,True,11,-1,0,2
Y2-S2-183K22,1,100,PS,exp,30,↑,up,↑,0.5556278000585735,True,11,-1,0,2
Y2-S2-183K22,1,101,PS,exp,25,→,right,→,0.48583100037649274,True,11,1,1,3
Y2-S2-183K22,1,102,PS,exp,35,↑,up,↑,0.5019582998938859,True,10,1,0,3
Y2-S2-183K22,1,103,PS,exp,43,←,left,←,0.5558007000945508,True,10,1,0,3
Y2-S2-183K22,1,104,PS,exp,41,↑,up,↑,0.5100468997843564,True,10,1,0,3
Y2-S2-183K22,1,105,PS,exp,29,↓,down,↓,0.5358855999074876,True,9,1,0,3
Y2-S2-183K22,1,106,PS,exp,38,→,right,→,0.489397999830544,True,9,1,0,3
Y2-S2-183K22,1,107,PS,exp,25,↑,up,↑,0.4425041996873915,True,9,1,0,3
Y2-S2-183K22,1,108,PS,exp,50,→,right,→,0.5559117998927832,True,8,1,0,3
Y2-S2-183K22,1,109,PS,exp,39,↑,up,↑,0.5652501001022756,True,8,1,0,3
Y2-S2-183K22,1,110,PS,exp,50,→,right,→,0.41669620014727116,True,8,1,0,3
Y2-S2-183K22,1,111,PS,exp,36,↑,up,↑,0.4313659998588264,True,7,1,0,3
Y2-S2-183K22,1,112,PS,exp,34,↓,left,←,1.210401900112629,False,7,-1,1,4
Y2-S2-183K22,1,113,PS,exp,39,←,left,←,0.6082534003071487,True,8,-1,0,4
Y2-S2-183K22,1,114,PS,exp,41,↑,right,→,0.8861104003153741,False,8,-1,0,4
Y2-S2-183K22,1,115,PS,exp,43,←,right,→,0.727813099976629,False,9,-1,0,4
Y2-S2-183K22,1,116,PS,exp,29,→,right,→,0.7284715999849141,True,10,-1,0,4
Y2-S2-183K22,1,117,PS,exp,35,←,right,→,0.8529125996865332,False,10,-1,0,4
Y2-S2-183K22,1,118,PS,exp,28,↓,down,↓,0.5352223999798298,True,11,-1,0,4
Y2-S2-183K22,1,119,PS,exp,33,↑,down,↓,0.7948787002824247,False,11,-1,0,4
Y2-S2-183K22,1,120,PS,exp,30,↓,down,↓,0.6109201996587217,True,12,-1,0,4
Y2-S2-183K22,1,121,PS,exp,45,→,right,→,0.5071139996871352,True,12,-1,0,4
Y2-S2-183K22,1,122,PS,exp,43,←,left,←,0.5089793000370264,True,12,1,1,5
Y2-S2-183K22,1,123,PS,exp,46,→,right,→,0.5562828001566231,True,11,1,0,5
Y2-S2-183K22,1,124,PS,exp,48,↑,up,↑,0.43499650014564395,True,11,1,0,5
Y2-S2-183K22,1,125,PS,exp,35,→,right,→,0.4833048000000417,True,11,1,0,5
Y2-S2-183K22,1,126,PS,exp,43,↑,up,↑,0.48861660016700625,True,10,1,0,5
Y2-S2-183K22,1,127,PS,exp,41,→,right,→,0.38927549961954355,True,10,1,0,5
Y2-S2-183K22,1,128,PS,exp,32,↓,down,↓,0.5990981999784708,True,10,1,0,5
Y2-S2-183K22,1,129,PS,exp,26,←,left,←,0.5248484001494944,True,9,1,0,5
Y2-S2-183K22,1,130,PS,exp,50,↑,left,←,0.7365172998979688,False,9,-1,1,6
Y2-S2-183K22,1,131,PS,exp,35,←,left,←,0.7007014001719654,True,10,-1,0,6
Y2-S2-183K22,1,132,PS,exp,30,↑,up,↑,0.4469163999892771,True,10,-1,0,6
Y2-S2-183K22,1,133,PS,exp,48,→,left,←,0.41860709991306067,False,10,-1,0,6
Y2-S2-183K22,1,134,PS,exp,37,↓,down,↓,0.47584780026227236,True,11,-1,0,6
Y2-S2-183K22,1,135,PS,exp,43,→,right,→,0.512249100022018,True,11,-1,0,6
Y2-S2-183K22,1,136,PS,exp,49,↑,down,↓,0.8054521000012755,False,11,-1,0,6
Y2-S2-183K22,1,137,PS,exp,41,↓,down,↓,0.7026462000794709,True,12,-1,0,6
Y2-S2-183K22,1,138,PS,exp,30,↑,up,↑,0.778116799890995,True,12,-1,0,6
Y2-S2-183K22,1,139,PS,exp,33,←,left,←,0.5341799003072083,True,12,1,1,7
Y2-S2-183K22,1,140,PS,exp,42,↓,down,↓,0.5236618998460472,True,11,1,0,7
Y2-S2-183K22,1,141,PS,exp,49,←,left,←,0.37005869997665286,True,11,1,0,7
Y2-S2-183K22,1,142,PS,exp,30,↓,down,↓,0.639205299783498,True,11,1,0,7
Y2-S2-183K22,1,143,PS,exp,40,←,left,←,0.45081060007214546,True,10,1,0,7
Y2-S2-183K22,1,144,PS,exp,36,→,left,←,0.4295252999290824,False,10,-1,1,8
Y2-S2-183K22,1,145,PS,exp,50,↓,down,↓,0.6309515000320971,True,11,-1,0,8
Y2-S2-183K22,1,146,PS,exp,40,↑,up,↑,0.56839539995417,True,11,-1,0,8
Y2-S2-183K22,1,147,PS,exp,34,→,right,→,0.4149575000628829,True,11,1,1,9
Y2-S2-183K22,1,148,PS,exp,25,↑,up,↑,0.5193158001638949,True,10,1,0,9
Y2-S2-183K22,1,149,PS,exp,48,↓,down,↓,0.46960899978876114,True,10,1,0,9
Y2-S2-183K22,1,150,PS,exp,43,↑,up,↑,0.6021966999396682,True,10,1,0,9
Y2-S2-183K22,1,151,PS,exp,41,↓,down,↓,0.49180780025199056,True,9,1,0,9
Y2-S2-183K22,1,152,PS,exp,45,←,left,←,0.5869261999614537,True,9,1,0,9
Y2-S2-183K22,1,153,PS,exp,50,→,right,→,1.5854473998770118,True,9,1,0,9
Y2-S2-183K22,1,154,PS,exp,41,←,left,←,0.40766469994559884,True,8,1,0,9
Y2-S2-183K22,1,155,PS,exp,32,→,down,↓,0.5491712996736169,False,8,-1,1,10
Y2-S2-183K22,1,156,PS,exp,43,←,left,←,0.5113652003929019,True,9,-1,0,10
Y2-S2-183K22,1,157,PS,exp,49,↑,up,↑,0.6684141997247934,True,9,-1,0,10
Y2-S2-183K22,1,158,PS,exp,47,↓,down,↓,0.5357186999171972,True,9,1,1,11
Y2-S2-183K22,1,159,PS,exp,42,→,left,←,0.6947396998293698,False,8,-1,1,12
Y2-S2-183K22,1,160,PS,exp,30,←,left,←,0.35235009994357824,True,9,-1,0,12
Y2-S2-183K22,1,161,PS,exp,46,↓,down,↓,0.606061200145632,True,9,-1,0,12
Y2-S2-183K22,1,162,PS,exp,39,←,left,←,0.5137319997884333,True,9,1,1,13
Y2-S2-183K22,1,163,PS,exp,27,↑,no_key,no_letter,-1.0,False,8,-1,1,14
Y2-S2-183K22,1,164,PS,exp,35,←,left,←,0.49897760013118386,True,9,-1,0,14
Y2-S2-183K22,1,165,PS,exp,29,↑,up,↑,0.48099019983783364,True,9,-1,0,14
Y2-S2-183K22,1,166,PS,exp,49,↓,down,↓,0.45681479992344975,True,9,1,1,15
Y2-S2-183K22,1,167,PS,exp,27,←,left,←,0.5426079998724163,True,8,1,0,15
Y2-S2-183K22,1,168,PS,exp,33,↑,left,←,0.5671517001464963,False,8,-1,1,16
Y2-S2-183K22,2,169,AS,intra_train,33,←,left,←,0.6578693999908864,True,28,-,-,-
Y2-S2-183K22,2,170,AS,intra_train,47,→,right,→,0.6008433001115918,True,28,-,-,-
Y2-S2-183K22,2,171,AS,intra_train,50,↑,down,↓,1.3069130000658333,False,28,-,-,-
Y2-S2-183K22,2,172,AS,intra_train,30,→,right,→,0.5504887001588941,True,28,-,-,-
Y2-S2-183K22,2,173,AS,intra_train,43,←,left,←,1.3549182997085154,True,28,-,-,-
Y2-S2-183K22,2,174,AS,exp,46,↑,left,←,1.0715635996311903,False,19,-1,0,0
Y2-S2-183K22,2,175,AS,exp,30,→,right,→,0.663929000031203,True,20,-1,0,0
Y2-S2-183K22,2,176,AS,exp,34,←,left,←,0.6359311998821795,True,20,-1,0,0
Y2-S2-183K22,2,177,AS,exp,35,→,right,→,0.5514484997838736,True,20,1,1,1
Y2-S2-183K22,2,178,AS,exp,26,←,left,←,0.7431197999976575,True,19,1,0,1
Y2-S2-183K22,2,179,AS,exp,48,→,right,→,0.5340066999197006,True,19,1,0,1
Y2-S2-183K22,2,180,AS,exp,42,↑,up,↑,1.1155761000700295,True,19,1,0,1
Y2-S2-183K22,2,181,AS,exp,27,←,left,←,0.5477428999729455,True,18,1,0,1
Y2-S2-183K22,2,182,AS,exp,50,↓,right,→,0.9037905000150204,False,18,-1,1,2
Y2-S2-183K22,2,183,AS,exp,47,↑,up,↑,0.5923889996483922,True,19,-1,0,2
Y2-S2-183K22,2,184,AS,exp,25,→,right,→,0.6241544997319579,True,19,-1,0,2
Y2-S2-183K22,2,185,AS,exp,35,↑,up,↑,0.5593656999990344,True,19,1,1,3
Y2-S2-183K22,2,186,AS,exp,32,→,right,→,0.5519206998869777,True,18,1,0,3
Y2-S2-183K22,2,187,AS,exp,44,↑,up,↑,0.5703155999071896,True,18,1,0,3
Y2-S2-183K22,2,188,AS,exp,46,→,left,←,0.6710415999405086,False,18,-1,1,4
Y2-S2-183K22,2,189,AS,exp,47,↑,up,↑,0.6663847998715937,True,19,-1,0,4
Y2-S2-183K22,2,190,AS,exp,37,←,left,←,0.5336329001002014,True,19,-1,0,4
Y2-S2-183K22,2,191,AS,exp,32,↓,down,↓,0.6332843001000583,True,19,1,1,5
Y2-S2-183K22,2,192,AS,exp,32,→,up,↑,0.6216578003950417,False,18,-1,1,6
Y2-S2-183K22,2,193,AS,exp,46,←,left,←,0.6673546000383794,True,19,-1,0,6
Y2-S2-183K22,2,194,AS,exp,45,↑,up,↑,0.7724105999805033,True,19,-1,0,6
Y2-S2-183K22,2,195,AS,exp,39,↓,down,↓,0.6216152003034949,True,19,1,1,7
Y2-S2-183K22,2,196,AS,exp,44,↑,up,↑,0.5127799999900162,True,18,1,0,7
Y2-S2-183K22,2,197,AS,exp,37,→,right,→,0.6065316000021994,True,18,1,0,7
Y2-S2-183K22,2,198,AS,exp,26,←,left,←,0.6063879001885653,True,18,1,0,7
Y2-S2-183K22,2,199,AS,exp,27,→,right,→,0.5470059001818299,True,17,1,0,7
Y2-S2-183K22,2,200,AS,exp,45,↓,down,↓,0.49973230017349124,True,17,1,0,7
Y2-S2-183K22,2,201,AS,exp,28,←,left,←,0.9094616998918355,True,17,1,0,7
Y2-S2-183K22,2,202,AS,exp,48,↓,down,↓,0.5010166000574827,True,16,1,0,7
Y2-S2-183K22,2,203,AS,exp,35,↑,up,↑,0.6464657001197338,True,16,1,0,7
Y2-S2-183K22,2,204,AS,exp,41,←,left,←,0.6445908998139203,True,16,1,0,7
Y2-S2-183K22,2,205,AS,exp,30,↓,down,↓,0.8173684999346733,True,15,1,0,7
Y2-S2-183K22,2,206,AS,exp,41,↑,up,↑,0.5916120000183582,True,15,1,0,7
Y2-S2-183K22,2,207,AS,exp,37,→,left,←,0.5570123000070453,False,15,-1,1,8
Y2-S2-183K22,2,208,AS,exp,34,←,left,←,0.6084102001041174,True,16,-1,0,8
Y2-S2-183K22,2,209,AS,exp,47,↑,up,↑,0.5175327002070844,True,16,-1,0,8
Y2-S2-183K22,2,210,AS,exp,48,↓,down,↓,0.641089899931103,True,16,1,1,9
Y2-S2-183K22,2,211,AS,exp,40,↑,left,←,0.8219393999315798,False,15,-1,1,10
Y2-S2-183K22,2,212,AS,exp,37,↓,down,↓,0.626174499746412,True,16,-1,0,10
Y2-S2-183K22,2,213,AS,exp,34,↑,up,↑,0.5698155998252332,True,16,-1,0,10
Y2-S2-183K22,2,214,AS,exp,47,→,right,→,0.5283237998373806,True,16,1,1,11
Y2-S2-183K22,2,215,AS,exp,37,↓,down,↓,0.5262062000110745,True,15,1,0,11
Y2-S2-183K22,2,216,AS,exp,25,→,left,←,0.7104434999637306,False,15,-1,1,12
Y2-S2-183K22,2,217,AS,exp,46,↓,down,↓,0.6846818998456001,True,16,-1,0,12
Y2-S2-183K22,2,218,AS,exp,32,→,right,→,0.5491575002670288,True,16,-1,0,12
Y2-S2-183K22,2,219,AS,exp,28,←,left,←,0.6363161001354456,True,16,1,1,13
Y2-S2-183K22,2,220,AS,exp,47,→,right,→,0.5931251998990774,True,15,1,0,13
Y2-S2-183K22,2,221,AS,exp,39,↑,up,↑,0.5759028997272253,True,15,1,0,13
Y2-S2-183K22,2,222,AS,exp,32,→,right,→,0.5073978998698294,True,15,1,0,13
Y2-S2-183K22,2,223,AS,exp,47,↑,up,↑,0.5816382002085447,True,14,1,0,13
Y2-S2-183K22,2,224,AS,exp,40,→,right,→,0.4674639003351331,True,14,1,0,13
Y2-S2-183K22,2,225,AS,exp,37,↑,down,↓,0.9137292001396418,False,14,-1,1,14
Y2-S2-183K22,2,226,AS,exp,44,→,right,→,0.5624228999949992,True,15,-1,0,14
Y2-S2-183K22,2,227,AS,exp,41,←,left,←,0.686652900185436,True,15,-1,0,14
Y2-S2-183K22,2,228,AS,exp,27,↑,up,↑,0.674335400108248,True,15,1,1,15
Y2-S2-183K22,2,229,AS,exp,42,↓,down,↓,0.44891640031710267,True,14,1,0,15
Y2-S2-183K22,2,230,AS,exp,30,↑,up,↑,0.5623980001546443,True,14,1,0,15
Y2-S2-183K22,2,231,AS,exp,28,→,right,→,0.5766263999976218,True,14,1,0,15
Y2-S2-183K22,2,232,AS,exp,37,↓,down,↓,0.5840753000229597,True,13,1,0,15
Y2-S2-183K22,2,233,AS,exp,44,→,right,→,0.5844788998365402,True,13,1,0,15
Y2-S2-183K22,2,234,AS,exp,36,←,left,←,0.5402421001344919,True,13,1,0,15
Y2-S2-183K22,2,235,AS,exp,28,→,right,→,0.5733674997463822,True,12,1,0,15
Y2-S2-183K22,2,236,AS,exp,25,↓,down,↓,0.5045324000529945,True,12,1,0,15
Y2-S2-183K22,2,237,AS,exp,29,→,right,→,0.5477207000367343,True,12,1,0,15
Y2-S2-183K22,2,238,AS,exp,30,←,down,↓,0.6542603000998497,False,11,-1,1,16
Y2-S2-183K22,3,239,AS,intra_train,43,↓,down,↓,0.5671006999909878,True,28,-,-,-
Y2-S2-183K22,3,240,AS,intra_train,37,↑,down,↓,0.3841732000000775,False,28,-,-,-
Y2-S2-183K22,3,241,AS,intra_train,47,→,up,↑,0.167650300078094,False,28,-,-,-
Y2-S2-183K22,3,242,AS,intra_train,41,←,left,←,0.7120165000669658,True,28,-,-,-
Y2-S2-183K22,3,243,AS,intra_train,48,↑,up,↑,0.6805654997006059,True,28,-,-,-
Y2-S2-183K22,3,244,AS,exp,50,→,left,←,0.9434186997823417,False,19,-1,0,0
Y2-S2-183K22,3,245,AS,exp,35,←,left,←,0.5540171996690333,True,20,-1,0,0
Y2-S2-183K22,3,246,AS,exp,50,↑,up,↑,0.6804001997224987,True,20,-1,0,0
Y2-S2-183K22,3,247,AS,exp,46,↓,down,↓,0.7087349002249539,True,20,1,1,1
Y2-S2-183K22,3,248,AS,exp,44,↑,up,↑,0.48768069967627525,True,19,1,0,1
Y2-S2-183K22,3,249,AS,exp,26,↓,down,↓,0.7490526996552944,True,19,1,0,1
Y2-S2-183K22,3,250,AS,exp,40,←,right,→,0.7972491001710296,False,19,-1,1,2
Y2-S2-183K22,3,251,AS,exp,47,↓,down,↓,0.5029515000060201,True,20,-1,0,2
Y2-S2-183K22,3,252,AS,exp,36,↑,up,↑,0.5127430995926261,True,20,-1,0,2
Y2-S2-183K22,3,253,AS,exp,27,←,left,←,1.122621700167656,True,20,1,1,3
Y2-S2-183K22,3,254,AS,exp,48,↑,up,↑,0.48445519991219044,True,19,1,0,3
Y2-S2-183K22,3,255,AS,exp,29,→,down,↓,0.7201886000111699,False,19,-1,1,4
Y2-S2-183K22,3,256,AS,exp,28,←,left,←,0.5711779999546707,True,20,-1,0,4
Y2-S2-183K22,3,257,AS,exp,38,→,left,←,0.7099475003778934,False,20,-1,0,4
Y2-S2-183K22,3,258,AS,exp,42,↓,down,↓,0.6179953999817371,True,21,-1,0,4
Y2-S2-183K22,3,259,AS,exp,38,↑,up,↑,0.582784699741751,True,21,-1,0,4
Y2-S2-183K22,3,260,AS,exp,28,↓,down,↓,0.8343510995618999,True,21,1,1,5
Y2-S2-183K22,3,261,AS,exp,25,↑,up,↑,0.7253993996419013,True,20,1,0,5
Y2-S2-183K22,3,262,AS,exp,43,←,left,←,0.6791380997747183,True,20,1,0,5
Y2-S2-183K22,3,263,AS,exp,33,↓,down,↓,0.7701384997926652,True,20,1,0,5
Y2-S2-183K22,3,264,AS,exp,50,→,right,→,0.8046745001338422,True,19,1,0,5
Y2-S2-183K22,3,265,AS,exp,26,↓,down,↓,0.6094202003441751,True,19,1,0,5
Y2-S2-183K22,3,266,AS,exp,36,←,right,→,0.7023054999299347,False,19,-1,1,6
Y2-S2-183K22,3,267,AS,exp,46,↑,up,↑,0.6416503000073135,True,20,-1,0,6
Y2-S2-183K22,3,268,AS,exp,45,↓,down,↓,0.7974474998190999,True,20,-1,0,6
Y2-S2-183K22,3,269,AS,exp,49,←,left,←,0.7719327001832426,True,20,1,1,7
Y2-S2-183K22,3,270,AS,exp,50,→,right,→,0.43384640011936426,True,19,1,0,7
Y2-S2-183K22,3,271,AS,exp,41,↑,up,↑,0.49422620004042983,True,19,1,0,7
Y2-S2-183K22,3,272,AS,exp,33,←,left,←,0.5154896997846663,True,19,1,0,7
Y2-S2-183K22,3,273,AS,exp,42,↑,up,↑,1.017839000094682,True,18,1,0,7
Y2-S2-183K22,3,274,AS,exp,43,→,right,→,0.47614079993218184,True,18,1,0,7
Y2-S2-183K22,3,275,AS,exp,30,←,left,←,0.478772200178355,True,18,1,0,7
Y2-S2-183K22,3,276,AS,exp,30,↑,up,↑,0.38388740038499236,True,17,1,0,7
Y2-S2-183K22,3,277,AS,exp,27,←,left,←,0.46158269979059696,True,17,1,0,7
Y2-S2-183K22,3,278,AS,exp,43,↑,up,↑,0.38394369976595044,True,17,1,0,7
Y2-S2-183K22,3,279,AS,exp,39,→,right,→,0.7073243004269898,True,16,1,0,7
Y2-S2-183K22,3,280,AS,exp,38,↑,up,↑,0.3842492001131177,True,16,1,0,7
Y2-S2-183K22,3,281,AS,exp,26,←,left,←,1.3849542001262307,True,16,1,0,7
Y2-S2-183K22,3,282,AS,exp,45,↓,down,↓,0.9119828003458679,True,15,1,0,7
Y2-S2-183K22,3,283,AS,exp,45,→,right,→,0.6152808000333607,True,15,1,0,7
Y2-S2-183K22,3,284,AS,exp,38,↓,right,→,0.9275012998841703,False,15,-1,1,8
Y2-S2-183K22,3,285,AS,exp,31,←,left,←,0.7117317002266645,True,16,-1,0,8
Y2-S2-183K22,3,286,AS,exp,32,↓,down,↓,0.7556564002297819,True,16,-1,0,8
Y2-S2-183K22,3,287,AS,exp,29,→,right,→,0.6717521003447473,True,16,1,1,9
Y2-S2-183K22,3,288,AS,exp,49,↑,up,↑,0.5785960000939667,True,15,1,0,9
Y2-S2-183K22,3,289,AS,exp,40,→,no_key,no_letter,-1.0,False,15,-1,1,10
Y2-S2-183K22,3,290,AS,exp,41,↓,up,↑,0.9649782003834844,False,16,-1,0,10
Y2-S2-183K22,3,291,AS,exp,30,↑,up,↑,0.5698973000980914,True,17,-1,0,10
Y2-S2-183K22,3,292,AS,exp,32,←,left,←,0.7666601999662817,True,17,-1,0,10
Y2-S2-183K22,3,293,AS,exp,28,↑,up,↑,0.4939720998518169,True,17,1,1,11
Y2-S2-183K22,3,294,AS,exp,38,↓,down,↓,0.6850080001167953,True,16,1,0,11
Y2-S2-183K22,3,295,AS,exp,41,←,left,←,0.5775080001913011,True,16,1,0,11
Y2-S2-183K22,3,296,AS,exp,34,→,left,←,0.8629733002744615,False,16,-1,1,12
Y2-S2-183K22,3,297,AS,exp,33,↓,down,↓,0.4819192001596093,True,17,-1,0,12
Y2-S2-183K22,3,298,AS,exp,45,→,right,→,0.5015926002524793,True,17,-1,0,12
Y2-S2-183K22,3,299,AS,exp,38,↑,down,↓,0.6216735001653433,False,17,-1,0,12
Y2-S2-183K22,3,300,AS,exp,26,→,no_key,no_letter,-1.0,False,18,-1,0,12
Y2-S2-183K22,3,301,AS,exp,39,←,left,←,0.45042969984933734,True,19,-1,0,12
Y2-S2-183K22,3,302,AS,exp,47,↓,down,↓,0.6523346998728812,True,19,-1,0,12
Y2-S2-183K22,3,303,AS,exp,28,←,right,→,0.8263036999851465,False,19,-1,0,12
Y2-S2-183K22,3,304,AS,exp,47,↑,up,↑,0.46756199980154634,True,20,-1,0,12
Y2-S2-183K22,3,305,AS,exp,39,←,left,←,1.1527617000974715,True,20,-1,0,12
Y2-S2-183K22,3,306,AS,exp,45,↓,no_key,no_letter,-1.0,False,20,-1,0,12
Y2-S2-183K22,3,307,AS,exp,27,↑,no_key,no_letter,-1.0,False,21,-1,0,12
Y2-S2-183K22,3,308,AS,exp,36,→,right,→,0.6737568001262844,True,22,-1,0,12
Y2-S2-183K22,3,309,AS,exp,36,↑,up,↑,0.7333158003166318,True,22,-1,0,12
Y2-S2-183K22,3,310,AS,exp,25,→,right,→,0.4837632002308965,True,22,1,1,13
Y2-S2-183K22,3,311,AS,exp,31,←,left,←,0.538181799929589,True,21,1,0,13
Y2-S2-183K22,3,312,AS,exp,33,↓,down,↓,0.6182936001569033,True,21,1,0,13
Y2-S2-183K22,3,313,AS,exp,46,→,left,←,0.5206832000985742,False,21,-1,1,14
Y2-S2-183K22,3,314,AS,exp,30,←,left,←,0.8348032999783754,True,22,-1,0,14
Y2-S2-183K22,3,315,AS,exp,37,↓,down,↓,0.5600406997837126,True,22,-1,0,14
Y2-S2-183K22,3,316,AS,exp,30,↑,no_key,no_letter,-1.0,False,22,-1,0,14
Y2-S2-183K22,3,317,AS,exp,49,↓,down,↓,1.0605397997424006,True,23,-1,0,14
Y2-S2-183K22,3,318,AS,exp,25,→,right,→,0.5177079997956753,True,23,-1,0,14
Y2-S2-183K22,3,319,AS,exp,43,↑,up,↑,0.6831462001428008,True,23,1,1,15
Y2-S2-183K22,3,320,AS,exp,25,→,right,→,0.708568699657917,True,22,1,0,15
Y2-S2-183K22,3,321,AS,exp,31,↓,down,↓,0.5367692997679114,True,22,1,0,15
Y2-S2-183K22,3,322,AS,exp,48,→,right,→,0.4841892998665571,True,22,1,0,15
Y2-S2-183K22,3,323,AS,exp,48,↑,up,↑,0.48404960008338094,True,21,1,0,15
Y2-S2-183K22,3,324,AS,exp,43,↓,down,↓,1.0090197999961674,True,21,1,0,15
Y2-S2-183K22,3,325,AS,exp,35,←,right,→,0.5863028997555375,False,21,-1,1,16
Y2-S2-183K22,4,326,PS,intra_train,39,→,right,→,0.6572032999247313,True,9,-,-,-
Y2-S2-183K22,4,327,PS,intra_train,37,←,no_key,no_letter,-1.0,False,9,-,-,-
Y2-S2-183K22,4,328,PS,intra_train,34,↓,down,↓,0.561958400066942,True,9,-,-,-
Y2-S2-183K22,4,329,PS,intra_train,40,←,left,←,0.8223426002077758,True,9,-,-,-
Y2-S2-183K22,4,330,PS,intra_train,41,↑,right,→,0.4733974998816848,False,9,-,-,-
Y2-S2-183K22,4,331,PS,exp,31,←,left,←,0.7103820000775158,True,6,0,0,0
Y2-S2-183K22,4,332,PS,exp,38,→,right,→,0.7140254001133144,True,6,0,0,0
Y2-S2-183K22,4,333,PS,exp,47,←,left,←,0.4751113997772336,True,6,1,0,0
Y2-S2-183K22,4,334,PS,exp,30,↑,left,←,0.923674900084734,False,5,-1,1,1
Y2-S2-183K22,4,335,PS,exp,29,←,left,←,0.47433049976825714,True,6,-1,0,1
Y2-S2-183K22,4,336,PS,exp,31,→,right,→,0.8836559001356363,True,6,-1,0,1
Y2-S2-183K22,4,337,PS,exp,35,↓,down,↓,0.5477781998924911,True,6,1,1,2
Y2-S2-183K22,4,338,PS,exp,44,←,right,→,0.7438909001648426,False,5,-1,1,3
Y2-S2-183K22,4,339,PS,exp,25,→,right,→,0.5517116999253631,True,6,-1,0,3
Y2-S2-183K22,4,340,PS,exp,35,↑,right,→,0.5724744000472128,False,6,-1,0,3
Y2-S2-183K22,4,341,PS,exp,39,↓,down,↓,0.5139019000343978,True,7,-1,0,3
Y2-S2-183K22,4,342,PS,exp,47,←,left,←,0.4677456999197602,True,7,-1,0,3
Y2-S2-183K22,4,343,PS,exp,48,→,left,←,0.6146257999353111,False,7,-1,0,3
Y2-S2-183K22,4,344,PS,exp,36,↑,left,←,0.39500279957428575,False,8,-1,0,3
Y2-S2-183K22,4,345,PS,exp,27,→,left,←,0.7730020000599325,False,9,-1,0,3
Y2-S2-183K22,4,346,PS,exp,30,↓,left,←,0.7423625001683831,False,10,-1,0,3
Y2-S2-183K22,4,347,PS,exp,37,←,left,←,0.7597051002085209,True,11,-1,0,3
Y2-S2-183K22,4,348,PS,exp,31,↓,down,↓,0.5202774000354111,True,11,-1,0,3
Y2-S2-183K22,4,349,PS,exp,47,←,no_key,no_letter,-1.0,False,11,-1,0,3
Y2-S2-183K22,4,350,PS,exp,31,↑,up,↑,0.5784757002256811,True,12,-1,0,3
Y2-S2-183K22,4,351,PS,exp,48,→,right,→,0.49744229996576905,True,12,-1,0,3
Y2-S2-183K22,4,352,PS,exp,42,↑,up,↑,0.5647831000387669,True,12,1,1,4
Y2-S2-183K22,4,353,PS,exp,26,←,left,←,0.4877396998926997,True,11,1,0,4
Y2-S2-183K22,4,354,PS,exp,44,→,right,→,0.5746593996882439,True,11,1,0,4
Y2-S2-183K22,4,355,PS,exp,40,←,left,←,0.7461407999508083,True,11,1,0,4
Y2-S2-183K22,4,356,PS,exp,26,→,left,←,0.6065898002125323,False,10,-1,1,5
Y2-S2-183K22,4,357,PS,exp,48,↑,up,↑,0.5013013002462685,True,11,-1,0,5
Y2-S2-183K22,4,358,PS,exp,38,↓,right,→,1.4356618002057076,False,11,-1,0,5
Y2-S2-183K22,4,359,PS,exp,39,←,left,←,0.4939096001908183,True,12,-1,0,5
Y2-S2-183K22,4,360,PS,exp,39,→,right,→,0.4484248999506235,True,12,-1,0,5
Y2-S2-183K22,4,361,PS,exp,28,↑,up,↑,0.5014158999547362,True,12,1,1,6
Y2-S2-183K22,4,362,PS,exp,42,←,right,→,0.48965749982744455,False,11,-1,1,7
Y2-S2-183K22,4,363,PS,exp,42,↑,up,↑,0.453732299618423,True,12,-1,0,7
Y2-S2-183K22,4,364,PS,exp,42,→,right,→,0.5689371996559203,True,12,-1,0,7
Y2-S2-183K22,4,365,PS,exp,25,←,left,←,0.6419286001473665,True,12,1,1,8
Y2-S2-183K22,4,366,PS,exp,40,→,right,→,0.4928305000066757,True,11,1,0,8
Y2-S2-183K22,4,367,PS,exp,40,↓,down,↓,0.9877487001940608,True,11,1,0,8
Y2-S2-183K22,4,368,PS,exp,25,↑,down,↓,1.1197369997389615,False,11,-1,1,9
Y2-S2-183K22,4,369,PS,exp,32,↓,down,↓,0.6549518997780979,True,12,-1,0,9
Y2-S2-183K22,4,370,PS,exp,36,←,left,←,0.5002506002783775,True,12,-1,0,9
Y2-S2-183K22,4,371,PS,exp,50,↓,down,↓,1.2551386998966336,True,12,1,1,10
Y2-S2-183K22,4,372,PS,exp,27,←,right,→,0.6317420997656882,False,11,-1,1,11
Y2-S2-183K22,4,373,PS,exp,38,↑,up,↑,0.4923368999734521,True,12,-1,0,11
Y2-S2-183K22,4,374,PS,exp,41,→,right,→,0.4858101001009345,True,12,-1,0,11
Y2-S2-183K22,4,375,PS,exp,40,←,left,←,0.7906046002171934,True,12,1,1,12
Y2-S2-183K22,4,376,PS,exp,48,→,right,→,0.49806630006060004,True,11,1,0,12
Y2-S2-183K22,4,377,PS,exp,27,↓,no_key,no_letter,-1.0,False,11,-1,1,13
Y2-S2-183K22,4,378,PS,exp,46,↑,up,↑,0.5286228000186384,True,12,-1,0,13
Y2-S2-183K22,4,379,PS,exp,31,←,left,←,0.6711264001205564,True,12,-1,0,13
Y2-S2-183K22,4,380,PS,exp,50,↓,down,↓,0.95170640014112,True,12,1,1,14
Y2-S2-183K22,4,381,PS,exp,38,←,left,←,0.4518268001265824,True,11,1,0,14
Y2-S2-183K22,4,382,PS,exp,41,→,left,←,0.6459373999387026,False,11,-1,1,15
Y2-S2-183K22,4,383,PS,exp,36,←,left,←,0.43824459984898567,True,12,-1,0,15
Y2-S2-183K22,4,384,PS,exp,35,→,left,←,0.7308960002847016,False,12,-1,0,15
Y2-S2-183K22,4,385,PS,exp,25,↓,down,↓,0.6016847002319992,True,13,-1,0,15
Y2-S2-183K22,4,386,PS,exp,42,↑,up,↑,0.5663765002973378,True,13,-1,0,15
Y2-S2-183K22,4,387,PS,exp,38,←,left,←,0.48348869988694787,True,13,1,1,16
Y2-S2-183K22,5,388,PS,intra_train,27,→,right,→,0.6040428997948766,True,9,-,-,-
Y2-S2-183K22,5,389,PS,intra_train,34,↑,up,↑,0.5377062000334263,True,9,-,-,-
Y2-S2-183K22,5,390,PS,intra_train,46,→,right,→,0.5339329997077584,True,9,-,-,-
Y2-S2-183K22,5,391,PS,intra_train,34,↓,down,↓,0.47243309998884797,True,9,-,-,-
Y2-S2-183K22,5,392,PS,intra_train,36,←,left,←,0.53046889975667,True,9,-,-,-
Y2-S2-183K22,5,393,PS,exp,31,→,left,←,0.7475240002386272,False,6,-1,0,0
Y2-S2-183K22,5,394,PS,exp,27,↓,left,←,0.692940799985081,False,7,-1,0,0
Y2-S2-183K22,5,395,PS,exp,40,↑,up,↑,0.4557261997833848,True,8,-1,0,0
Y2-S2-183K22,5,396,PS,exp,31,↓,down,↓,0.521554599981755,True,8,-1,0,0
Y2-S2-183K22,5,397,PS,exp,40,↑,up,↑,0.5775003000162542,True,8,1,1,1
Y2-S2-183K22,5,398,PS,exp,25,↓,down,↓,0.6055511999875307,True,7,1,0,1
Y2-S2-183K22,5,399,PS,exp,47,↑,left,←,0.5138356001116335,False,7,-1,1,2
Y2-S2-183K22,5,400,PS,exp,35,←,left,←,0.6512083997949958,True,8,-1,0,2
Y2-S2-183K22,5,401,PS,exp,47,↓,down,↓,0.7256979998201132,True,8,-1,0,2
Y2-S2-183K22,5,402,PS,exp,46,↑,up,↑,0.604683100245893,True,8,1,1,3
Y2-S2-183K22,5,403,PS,exp,49,→,left,←,0.36919219978153706,False,7,-1,1,4
Y2-S2-183K22,5,404,PS,exp,28,↓,up,↑,0.6170910000801086,False,8,-1,0,4
Y2-S2-183K22,5,405,PS,exp,27,→,right,→,0.5005741002969444,True,9,-1,0,4
Y2-S2-183K22,5,406,PS,exp,36,↑,up,↑,0.5316010997630656,True,9,-1,0,4
Y2-S2-183K22,5,407,PS,exp,37,↓,up,↑,0.7233768999576569,False,9,-1,0,4
Y2-S2-183K22,5,408,PS,exp,43,←,left,←,0.5843155002221465,True,10,-1,0,4
Y2-S2-183K22,5,409,PS,exp,33,↓,left,←,1.046845399774611,False,10,-1,0,4
Y2-S2-183K22,5,410,PS,exp,50,→,right,→,0.4685164000838995,True,11,-1,0,4
Y2-S2-183K22,5,411,PS,exp,36,↓,down,↓,0.5455412999726832,True,11,-1,0,4
Y2-S2-183K22,5,412,PS,exp,48,←,right,→,0.6198190003633499,False,11,-1,0,4
Y2-S2-183K22,5,413,PS,exp,28,↑,up,↑,0.47039050003513694,True,12,-1,0,4
Y2-S2-183K22,5,414,PS,exp,29,←,left,←,0.5760891996324062,True,12,-1,0,4
Y2-S2-183K22,5,415,PS,exp,32,↑,down,↓,1.6662265001796186,False,12,-1,0,4
Y2-S2-183K22,5,416,PS,exp,39,→,right,→,0.5192770999856293,True,13,-1,0,4
Y2-S2-183K22,5,417,PS,exp,40,↓,down,↓,0.5151317999698222,True,13,-1,0,4
Y2-S2-183K22,5,418,PS,exp,27,←,right,→,1.1433764998801053,False,13,-1,0,4
Y2-S2-183K22,5,419,PS,exp,32,↓,down,↓,0.7141547002829611,True,14,-1,0,4
Y2-S2-183K22,5,420,PS,exp,27,←,left,←,0.6672669998370111,True,14,-1,0,4
Y2-S2-183K22,5,421,PS,exp,38,→,right,→,0.42513540014624596,True,14,1,1,5
Y2-S2-183K22,5,422,PS,exp,37,↓,down,↓,0.5110432002693415,True,13,1,0,5
Y2-S2-183K22,5,423,PS,exp,26,←,left,←,0.5421064998954535,True,13,1,0,5
Y2-S2-183K22,5,424,PS,exp,31,↓,down,↓,0.5393540002405643,True,13,1,0,5
Y2-S2-183K22,5,425,PS,exp,32,→,right,→,0.38307320000603795,True,12,1,0,5
Y2-S2-183K22,5,426,PS,exp,41,↑,up,↑,0.5275694001466036,True,12,1,0,5
Y2-S2-183K22,5,427,PS,exp,35,↓,down,↓,0.5292409998364747,True,12,1,0,5
Y2-S2-183K22,5,428,PS,exp,40,↑,down,↓,0.7414305000565946,False,11,-1,1,6
Y2-S2-183K22,5,429,PS,exp,46,←,left,←,0.521571600344032,True,12,-1,0,6
Y2-S2-183K22,5,430,PS,exp,31,→,right,→,0.5170077998191118,True,12,-1,0,6
Y2-S2-183K22,5,431,PS,exp,27,↓,down,↓,0.4435564000159502,True,12,1,1,7
Y2-S2-183K22,5,432,PS,exp,29,→,right,→,0.6320368000306189,True,11,1,0,7
Y2-S2-183K22,5,433,PS,exp,50,←,left,←,0.5694866999983788,True,11,1,0,7
Y2-S2-183K22,5,434,PS,exp,36,→,right,→,0.614434499759227,True,11,1,0,7
Y2-S2-183K22,5,435,PS,exp,30,↑,down,↓,0.6563865002244711,False,10,-1,1,8
Y2-S2-183K22,5,436,PS,exp,50,→,left,←,1.250373000279069,False,11,-1,0,8
Y2-S2-183K22,5,437,PS,exp,35,←,left,←,0.7765502003021538,True,12,-1,0,8
Y2-S2-183K22,5,438,PS,exp,31,↓,down,↓,0.47772490000352263,True,12,-1,0,8
Y2-S2-183K22,5,439,PS,exp,25,←,left,←,0.6051084999926388,True,12,1,1,9
Y2-S2-183K22,5,440,PS,exp,37,↓,down,↓,0.458009600173682,True,11,1,0,9
Y2-S2-183K22,5,441,PS,exp,28,↑,up,↑,0.4771774997934699,True,11,1,0,9
Y2-S2-183K22,5,442,PS,exp,29,→,right,→,0.4767293999902904,True,11,1,0,9
Y2-S2-183K22,5,443,PS,exp,37,↑,up,↑,0.4884834000840783,True,10,1,0,9
Y2-S2-183K22,5,444,PS,exp,30,→,right,→,0.4687276999466121,True,10,1,0,9
Y2-S2-183K22,5,445,PS,exp,38,↓,down,↓,0.5886013000272214,True,10,1,0,9
Y2-S2-183K22,5,446,PS,exp,32,←,left,←,0.5463263997808099,True,9,1,0,9
Y2-S2-183K22,5,447,PS,exp,50,↑,right,→,0.6883855001069605,False,9,-1,1,10
Y2-S2-183K22,5,448,PS,exp,49,→,right,→,0.4572385000064969,True,10,-1,0,10
Y2-S2-183K22,5,449,PS,exp,47,↑,up,↑,0.44000030029565096,True,10,-1,0,10
Y2-S2-183K22,5,450,PS,exp,37,←,left,←,0.7214067000895739,True,10,1,1,11
Y2-S2-183K22,5,451,PS,exp,28,↑,up,↑,0.45257799979299307,True,9,1,0,11
Y2-S2-183K22,5,452,PS,exp,46,↓,down,↓,0.5382326999679208,True,9,1,0,11
Y2-S2-183K22,5,453,PS,exp,35,→,left,←,0.692422500345856,False,9,-1,1,12
Y2-S2-183K22,5,454,PS,exp,47,←,left,←,0.4435852998867631,True,10,-1,0,12
Y2-S2-183K22,5,455,PS,exp,45,→,right,→,0.66792819974944,True,10,-1,0,12
Y2-S2-183K22,5,456,PS,exp,30,↓,down,↓,0.5545125999487936,True,10,1,1,13
Y2-S2-183K22,5,457,PS,exp,34,→,right,→,0.6163183003664017,True,9,1,0,13
Y2-S2-183K22,5,458,PS,exp,38,↑,up,↑,0.4432647000066936,True,9,1,0,13
Y2-S2-183K22,5,459,PS,exp,26,↓,down,↓,0.6725209997966886,True,9,1,0,13
Y2-S2-183K22,5,460,PS,exp,34,↑,up,↑,0.4787979000248015,True,8,1,0,13
Y2-S2-183K22,5,461,PS,exp,48,→,right,→,0.6182245998643339,True,8,1,0,13
Y2-S2-183K22,5,462,PS,exp,29,←,left,←,0.43294670013710856,True,8,1,0,13
Y2-S2-183K22,5,463,PS,exp,36,↑,up,↑,0.5403712997213006,True,7,1,0,13
Y2-S2-183K22,5,464,PS,exp,49,←,left,←,0.7934821001254022,True,7,1,0,13
Y2-S2-183K22,5,465,PS,exp,30,↓,left,←,0.5645134998485446,False,7,-1,1,14
Y2-S2-183K22,5,466,PS,exp,49,→,right,→,0.3813446001149714,True,8,-1,0,14
Y2-S2-183K22,5,467,PS,exp,27,↑,left,←,0.514936899766326,False,8,-1,0,14
Y2-S2-183K22,5,468,PS,exp,50,→,right,→,0.3835605001077056,True,9,-1,0,14
Y2-S2-183K22,5,469,PS,exp,40,←,left,←,0.5421003000810742,True,9,-1,0,14
Y2-S2-183K22,5,470,PS,exp,38,↑,up,↑,0.4547174000181258,True,9,1,1,15
Y2-S2-183K22,5,471,PS,exp,46,→,up,↑,0.8207851001061499,False,8,-1,1,16
Y2-S2-183K22,6,472,AS,intra_train,29,↑,up,↑,0.5340132000856102,True,28,-,-,-
Y2-S2-183K22,6,473,AS,intra_train,44,→,right,→,0.6611067000776529,True,28,-,-,-
Y2-S2-183K22,6,474,AS,intra_train,37,↓,down,↓,0.5841065999120474,True,28,-,-,-
Y2-S2-183K22,6,475,AS,intra_train,50,←,left,←,0.5008708001114428,True,28,-,-,-
Y2-S2-183K22,6,476,AS,intra_train,45,↑,up,↑,0.6521923998370767,True,28,-,-,-
Y2-S2-183K22,6,477,AS,exp,36,→,right,→,0.7648518001660705,True,19,0,0,0
Y2-S2-183K22,6,478,AS,exp,25,←,right,→,0.7999485000036657,False,19,-1,0,0
Y2-S2-183K22,6,479,AS,exp,41,↓,down,↓,0.5488248998299241,True,20,-1,0,0
Y2-S2-183K22,6,480,AS,exp,32,←,left,←,0.5032357997260988,True,20,-1,0,0
Y2-S2-183K22,6,481,AS,exp,39,→,right,→,0.5240949001163244,True,20,1,1,1
Y2-S2-183K22,6,482,AS,exp,43,↑,up,↑,0.6755230003036559,True,19,1,0,1
Y2-S2-183K22,6,483,AS,exp,41,←,left,←,0.6232185997068882,True,19,1,0,1
Y2-S2-183K22,6,484,AS,exp,39,↓,down,↓,0.548235900234431,True,19,1,0,1
Y2-S2-183K22,6,485,AS,exp,45,↑,up,↑,0.6054031997919083,True,18,1,0,1
Y2-S2-183K22,6,486,AS,exp,34,←,left,←,0.6695913998410106,True,18,1,0,1
Y2-S2-183K22,6,487,AS,exp,31,↓,down,↓,0.49122760025784373,True,18,1,0,1
Y2-S2-183K22,6,488,AS,exp,28,↑,up,↑,0.6025391002185643,True,17,1,0,1
Y2-S2-183K22,6,489,AS,exp,49,↓,no_key,no_letter,-1.0,False,17,-1,1,2
Y2-S2-183K22,6,490,AS,exp,42,↑,up,↑,0.36732929991558194,True,18,-1,0,2
Y2-S2-183K22,6,491,AS,exp,41,→,right,→,0.5336795002222061,True,18,-1,0,2
Y2-S2-183K22,6,492,AS,exp,34,↑,up,↑,0.5929438001476228,True,18,1,1,3
Y2-S2-183K22,6,493,AS,exp,42,←,left,←,0.5203304998576641,True,17,1,0,3
Y2-S2-183K22,6,494,AS,exp,40,→,right,→,0.4769517001695931,True,17,1,0,3
Y2-S2-183K22,6,495,AS,exp,48,↑,up,↑,0.49470150005072355,True,17,1,0,3
Y2-S2-183K22,6,496,AS,exp,34,←,left,←,0.7405473999679089,True,16,1,0,3
Y2-S2-183K22,6,497,AS,exp,41,→,no_key,no_letter,-1.0,False,16,-1,1,4
Y2-S2-183K22,6,498,AS,exp,36,↑,up,↑,0.49942569993436337,True,17,-1,0,4
Y2-S2-183K22,6,499,AS,exp,34,↓,left,←,1.1580431000329554,False,17,-1,0,4
Y2-S2-183K22,6,500,AS,exp,44,→,right,→,1.161074100062251,True,18,-1,0,4
Y2-S2-183K22,6,501,AS,exp,29,↓,down,↓,0.5770554998889565,True,18,-1,0,4
Y2-S2-183K22,6,502,AS,exp,50,→,left,←,0.6884762002155185,False,18,-1,0,4
Y2-S2-183K22,6,503,AS,exp,44,↑,up,↑,0.568099900148809,True,19,-1,0,4
Y2-S2-183K22,6,504,AS,exp,49,→,right,→,0.5062337997369468,True,19,-1,0,4
Y2-S2-183K22,6,505,AS,exp,38,↓,down,↓,0.5879138000309467,True,19,1,1,5
Y2-S2-183K22,6,506,AS,exp,50,↑,up,↑,0.3839819999411702,True,18,1,0,5
Y2-S2-183K22,6,507,AS,exp,27,↓,left,←,1.1832262999378145,False,18,-1,1,6
Y2-S2-183K22,6,508,AS,exp,30,↑,up,↑,0.48539690021425486,True,19,-1,0,6
Y2-S2-183K22,6,509,AS,exp,39,→,right,→,1.2212037998251617,True,19,-1,0,6
Y2-S2-183K22,6,510,AS,exp,46,↓,down,↓,0.7296254001557827,True,19,1,1,7
Y2-S2-183K22,6,511,AS,exp,29,↑,left,←,0.7863493002951145,False,18,-1,1,8
Y2-S2-183K22,6,512,AS,exp,44,→,right,→,0.7050197003409266,True,19,-1,0,8
Y2-S2-183K22,6,513,AS,exp,40,↑,up,↑,0.5229841000400484,True,19,-1,0,8
Y2-S2-183K22,6,514,AS,exp,37,→,right,→,0.5337168001569808,True,19,1,1,9
Y2-S2-183K22,6,515,AS,exp,27,↑,up,↑,0.4914508000947535,True,18,1,0,9
Y2-S2-183K22,6,516,AS,exp,31,→,right,→,0.4815291999839246,True,18,1,0,9
Y2-S2-183K22,6,517,AS,exp,36,↓,down,↓,0.7333579999394715,True,18,1,0,9
Y2-S2-183K22,6,518,AS,exp,27,←,right,→,0.5240534995682538,False,17,-1,1,10
Y2-S2-183K22,6,519,AS,exp,41,↑,up,↑,0.6871210997924209,True,18,-1,0,10
Y2-S2-183K22,6,520,AS,exp,47,↓,down,↓,0.5491945999674499,True,18,-1,0,10
Y2-S2-183K22,6,521,AS,exp,39,↑,up,↑,0.7400353001430631,True,18,1,1,11
Y2-S2-183K22,6,522,AS,exp,50,→,right,→,0.6427598996087909,True,17,1,0,11
Y2-S2-183K22,6,523,AS,exp,33,↓,down,↓,0.5528455004096031,True,17,1,0,11
Y2-S2-183K22,6,524,AS,exp,26,←,left,←,0.47559700021520257,True,17,1,0,11
Y2-S2-183K22,6,525,AS,exp,26,→,right,→,0.4721911000087857,True,16,1,0,11
Y2-S2-183K22,6,526,AS,exp,30,←,left,←,0.622382799629122,True,16,1,0,11
Y2-S2-183K22,6,527,AS,exp,48,→,right,→,0.690635200124234,True,16,1,0,11
Y2-S2-183K22,6,528,AS,exp,41,↓,down,↓,0.9948288998566568,True,15,1,0,11
Y2-S2-183K22,6,529,AS,exp,43,→,right,→,0.48127719992771745,True,15,1,0,11
Y2-S2-183K22,6,530,AS,exp,50,←,left,←,0.617879900150001,True,15,1,0,11
Y2-S2-183K22,6,531,AS,exp,30,↑,right,→,0.8004613998346031,False,14,-1,1,12
Y2-S2-183K22,6,532,AS,exp,48,→,right,→,0.4894225001335144,True,15,-1,0,12
Y2-S2-183K22,6,533,AS,exp,47,↓,down,↓,0.6075313999317586,True,15,-1,0,12
Y2-S2-183K22,6,534,AS,exp,26,↑,up,↑,0.6574690998531878,True,15,1,1,13
Y2-S2-183K22,6,535,AS,exp,38,↓,up,↑,0.9099566997028887,False,14,-1,1,14
Y2-S2-183K22,6,536,AS,exp,42,←,left,←,0.536342500243336,True,15,-1,0,14
Y2-S2-183K22,6,537,AS,exp,36,↑,up,↑,0.5180798000656068,True,15,-1,0,14
Y2-S2-183K22,6,538,AS,exp,47,←,left,←,0.4933862998150289,True,15,1,1,15
Y2-S2-183K22,6,539,AS,exp,36,↑,up,↑,0.5398464999161661,True,14,1,0,15
Y2-S2-183K22,6,540,AS,exp,33,→,right,→,0.6691410997882485,True,14,1,0,15
Y2-S2-183K22,6,541,AS,exp,26,↓,up,↑,1.1702477000653744,False,14,-1,1,16
Y2-S2-183K22,7,542,AS,intra_train,39,→,right,→,0.5172900999896228,True,28,-,-,-
Y2-S2-183K22,7,543,AS,intra_train,47,←,left,←,1.0593141000717878,True,28,-,-,-
Y2-S2-183K22,7,544,AS,intra_train,35,↓,down,↓,0.7220570002682507,True,28,-,-,-
Y2-S2-183K22,7,545,AS,intra_train,40,→,right,→,0.9237887002527714,True,28,-,-,-
Y2-S2-183K22,7,546,AS,intra_train,39,↓,down,↓,0.8751143999397755,True,28,-,-,-
Y2-S2-183K22,7,547,AS,exp,31,←,right,→,0.8674983996897936,False,19,-1,0,0
Y2-S2-183K22,7,548,AS,exp,43,→,right,→,0.6377102001570165,True,20,-1,0,0
Y2-S2-183K22,7,549,AS,exp,48,↓,down,↓,0.5227100998163223,True,20,-1,0,0
Y2-S2-183K22,7,550,AS,exp,38,→,right,→,0.4346827999688685,True,20,1,1,1
Y2-S2-183K22,7,551,AS,exp,36,←,left,←,0.6377270999364555,True,19,1,0,1
Y2-S2-183K22,7,552,AS,exp,43,↑,up,↑,0.4993361998349428,True,19,1,0,1
Y2-S2-183K22,7,553,AS,exp,25,←,left,←,1.2982284999452531,True,19,1,0,1
Y2-S2-183K22,7,554,AS,exp,32,↑,up,↑,0.5050033996812999,True,18,1,0,1
Y2-S2-183K22,7,555,AS,exp,28,←,left,←,0.4001584998331964,True,18,1,0,1
Y2-S2-183K22,7,556,AS,exp,35,→,right,→,0.576377300079912,True,18,1,0,1
Y2-S2-183K22,7,557,AS,exp,34,↑,up,↑,0.553927700035274,True,17,1,0,1
Y2-S2-183K22,7,558,AS,exp,46,→,right,→,0.41757409973070025,True,17,1,0,1
Y2-S2-183K22,7,559,AS,exp,41,↑,up,↑,0.4549221000634134,True,17,1,0,1
Y2-S2-183K22,7,560,AS,exp,50,←,left,←,0.7342530996538699,True,16,1,0,1
Y2-S2-183K22,7,561,AS,exp,45,↑,up,↑,0.8935198998078704,True,16,1,0,1
Y2-S2-183K22,7,562,AS,exp,43,↓,down,↓,0.6708486997522414,True,16,1,0,1
Y2-S2-183K22,7,563,AS,exp,47,←,left,←,0.45471520023420453,True,15,1,0,1
Y2-S2-183K22,7,564,AS,exp,34,↑,up,↑,0.4593163002282381,True,15,1,0,1
Y2-S2-183K22,7,565,AS,exp,29,→,left,←,0.6500421999953687,False,15,-1,1,2
Y2-S2-183K22,7,566,AS,exp,31,↑,up,↑,0.5242638997733593,True,16,-1,0,2
Y2-S2-183K22,7,567,AS,exp,44,→,right,→,0.6073619998060167,True,16,-1,0,2
Y2-S2-183K22,7,568,AS,exp,26,↓,up,↑,0.9172768001444638,False,16,-1,0,2
Y2-S2-183K22,7,569,AS,exp,45,↑,up,↑,0.5498015000484884,True,17,-1,0,2
Y2-S2-183K22,7,570,AS,exp,47,←,right,→,0.6373125999234617,False,17,-1,0,2
Y2-S2-183K22,7,571,AS,exp,44,↑,up,↑,0.5167439999058843,True,18,-1,0,2
Y2-S2-183K22,7,572,AS,exp,32,←,left,←,0.6219355999492109,True,18,-1,0,2
Y2-S2-183K22,7,573,AS,exp,44,→,right,→,0.5500479997135699,True,18,1,1,3
Y2-S2-183K22,7,574,AS,exp,44,←,left,←,0.9346487000584602,True,17,1,0,3
Y2-S2-183K22,7,575,AS,exp,50,↑,up,↑,1.0685967998579144,True,17,1,0,3
Y2-S2-183K22,7,576,AS,exp,47,←,left,←,0.7090814001858234,True,17,1,0,3
Y2-S2-183K22,7,577,AS,exp,39,↓,left,←,0.7557430998422205,False,16,-1,1,4
Y2-S2-183K22,7,578,AS,exp,40,→,right,→,0.5129853999242187,True,17,-1,0,4
Y2-S2-183K22,7,579,AS,exp,31,↑,up,↑,0.5303226001560688,True,17,-1,0,4
Y2-S2-183K22,7,580,AS,exp,44,↓,down,↓,0.5584141998551786,True,17,1,1,5
Y2-S2-183K22,7,581,AS,exp,30,↑,up,↑,0.6013620998710394,True,16,1,0,5
Y2-S2-183K22,7,582,AS,exp,27,←,right,→,0.49292870005592704,False,16,-1,1,6
Y2-S2-183K22,7,583,AS,exp,46,→,left,←,0.8114892998710275,False,17,-1,0,6
Y2-S2-183K22,7,584,AS,exp,46,↑,up,↑,0.5108739002607763,True,18,-1,0,6
Y2-S2-183K22,7,585,AS,exp,36,→,right,→,0.532321899663657,True,18,-1,0,6
Y2-S2-183K22,7,586,AS,exp,32,↓,down,↓,0.5584714999422431,True,18,1,1,7
Y2-S2-183K22,7,587,AS,exp,49,→,right,→,0.6285625998862088,True,17,1,0,7
Y2-S2-183K22,7,588,AS,exp,36,←,left,←,0.654036299791187,True,17,1,0,7
Y2-S2-183K22,7,589,AS,exp,29,↑,up,↑,0.5414389995858073,True,17,1,0,7
Y2-S2-183K22,7,590,AS,exp,32,↓,down,↓,0.6545886998064816,True,16,1,0,7
Y2-S2-183K22,7,591,AS,exp,46,↑,up,↑,0.5621537999249995,True,16,1,0,7
Y2-S2-183K22,7,592,AS,exp,40,←,right,→,0.5178070003166795,False,16,-1,1,8
Y2-S2-183K22,7,593,AS,exp,32,→,right,→,1.0894977003335953,True,17,-1,0,8
Y2-S2-183K22,7,594,AS,exp,33,←,left,←,1.2552657001651824,True,17,-1,0,8
Y2-S2-183K22,7,595,AS,exp,33,↓,left,←,0.8695799000561237,False,17,-1,0,8
Y2-S2-183K22,7,596,AS,exp,47,↑,left,←,0.6662872000597417,False,18,-1,0,8
Y2-S2-183K22,7,597,AS,exp,43,←,left,←,0.5603005001321435,True,19,-1,0,8
Y2-S2-183K22,7,598,AS,exp,31,↑,no_key,no_letter,-1.0,False,19,-1,0,8
Y2-S2-183K22,7,599,AS,exp,46,←,left,←,0.5176939996890724,True,20,-1,0,8
Y2-S2-183K22,7,600,AS,exp,33,→,right,→,0.5998383997939527,True,20,-1,0,8
Y2-S2-183K22,7,601,AS,exp,39,↓,down,↓,0.586389800067991,True,20,1,1,9
Y2-S2-183K22,7,602,AS,exp,34,↑,up,↑,0.6502693998627365,True,19,1,0,9
Y2-S2-183K22,7,603,AS,exp,46,↓,down,↓,0.8139250003732741,True,19,1,0,9
Y2-S2-183K22,7,604,AS,exp,44,←,left,←,0.5265740999020636,True,19,1,0,9
Y2-S2-183K22,7,605,AS,exp,35,↓,down,↓,0.66160609992221,True,18,1,0,9
Y2-S2-183K22,7,606,AS,exp,44,↑,up,↑,0.7908268999308348,True,18,1,0,9
Y2-S2-183K22,7,607,AS,exp,31,↓,down,↓,0.6463842997327447,True,18,1,0,9
Y2-S2-183K22,7,608,AS,exp,36,←,left,←,0.6019775997847319,True,17,1,0,9
Y2-S2-183K22,7,609,AS,exp,38,→,right,→,0.7773973001167178,True,17,1,0,9
Y2-S2-183K22,7,610,AS,exp,27,↓,down,↓,0.7938764002174139,True,17,1,0,9
Y2-S2-183K22,7,611,AS,exp,43,→,right,→,0.5970030999742448,True,16,1,0,9
Y2-S2-183K22,7,612,AS,exp,26,←,left,←,0.5880805999040604,True,16,1,0,9
Y2-S2-183K22,7,613,AS,exp,29,→,right,→,0.530698399990797,True,16,1,0,9
Y2-S2-183K22,7,614,AS,exp,40,↓,down,↓,0.6128536998294294,True,15,1,0,9
Y2-S2-183K22,7,615,AS,exp,30,↑,up,↑,0.8248952003195882,True,15,1,0,9
Y2-S2-183K22,7,616,AS,exp,42,→,right,→,0.5671403999440372,True,15,1,0,9
Y2-S2-183K22,7,617,AS,exp,47,↑,up,↑,0.8927406999282539,True,14,1,0,9
Y2-S2-183K22,7,618,AS,exp,32,←,left,←,0.6251268996857107,True,14,1,0,9
Y2-S2-183K22,7,619,AS,exp,34,→,right,→,0.5034909998066723,True,14,1,0,9
Y2-S2-183K22,7,620,AS,exp,37,↓,down,↓,0.7912437999621034,True,13,1,0,9
Y2-S2-183K22,7,621,AS,exp,38,↑,up,↑,0.6697324002161622,True,13,1,0,9
Y2-S2-183K22,7,622,AS,exp,50,→,right,→,0.4880729001015425,True,13,1,0,9
Y2-S2-183K22,7,623,AS,exp,43,↑,up,↑,0.5117702004499733,True,12,1,0,9
Y2-S2-183K22,7,624,AS,exp,43,→,right,→,0.6392648001201451,True,12,1,0,9
Y2-S2-183K22,7,625,AS,exp,35,↑,up,↑,0.7233084999024868,True,12,1,0,9
Y2-S2-183K22,7,626,AS,exp,26,→,right,→,0.6416036998853087,True,11,1,0,9
Y2-S2-183K22,7,627,AS,exp,42,↓,down,↓,0.6582690998911858,True,11,1,0,9
Y2-S2-183K22,7,628,AS,exp,40,↑,right,→,0.43207090022042394,False,11,-1,1,10
Y2-S2-183K22,7,629,AS,exp,44,↓,right,→,0.6832244000397623,False,12,-1,0,10
Y2-S2-183K22,7,630,AS,exp,30,→,right,→,0.5155629999935627,True,13,-1,0,10
Y2-S2-183K22,7,631,AS,exp,33,↓,down,↓,0.5587015999481082,True,13,-1,0,10
Y2-S2-183K22,7,632,AS,exp,47,↑,up,↑,0.4806182999163866,True,13,1,1,11
Y2-S2-183K22,7,633,AS,exp,41,↓,down,↓,0.7385777002200484,True,12,1,0,11
Y2-S2-183K22,7,634,AS,exp,28,←,right,→,0.6083215996623039,False,12,-1,1,12
Y2-S2-183K22,7,635,AS,exp,48,→,no_key,no_letter,-1.0,False,13,-1,0,12
Y2-S2-183K22,7,636,AS,exp,38,↓,right,→,0.8064168998971581,False,14,-1,0,12
Y2-S2-183K22,7,637,AS,exp,32,→,right,→,0.6498744999989867,True,15,-1,0,12
Y2-S2-183K22,7,638,AS,exp,30,←,left,←,0.623515899758786,True,15,-1,0,12
Y2-S2-183K22,7,639,AS,exp,34,↓,down,↓,0.6603343999013305,True,15,1,1,13
Y2-S2-183K22,7,640,AS,exp,40,↑,up,↑,0.5754023999907076,True,14,1,0,13
Y2-S2-183K22,7,641,AS,exp,37,↓,left,←,0.8918818002566695,False,14,-1,1,14
Y2-S2-183K22,7,642,AS,exp,33,↑,up,↑,0.5511412001214921,True,15,-1,0,14
Y2-S2-183K22,7,643,AS,exp,32,↓,down,↓,0.7926082997582853,True,15,-1,0,14
Y2-S2-183K22,7,644,AS,exp,48,↑,up,↑,0.5604181000962853,True,15,1,1,15
Y2-S2-183K22,7,645,AS,exp,35,↓,down,↓,0.5427472000010312,True,14,1,0,15
Y2-S2-183K22,7,646,AS,exp,27,←,no_key,no_letter,-1.0,False,14,-1,1,16
Y2-S2-183K22,8,647,PS,intra_train,26,↑,up,↑,0.617884200066328,True,9,-,-,-
Y2-S2-183K22,8,648,PS,intra_train,26,→,right,→,0.5352035001851618,True,9,-,-,-
Y2-S2-183K22,8,649,PS,intra_train,25,←,right,→,0.5305345002561808,False,9,-,-,-
Y2-S2-183K22,8,650,PS,intra_train,44,→,right,→,0.5048066996969283,True,9,-,-,-
Y2-S2-183K22,8,651,PS,intra_train,50,↓,down,↓,0.5073547000065446,True,9,-,-,-
Y2-S2-183K22,8,652,PS,exp,49,↑,right,→,0.4821485001593828,False,6,-1,0,0
Y2-S2-183K22,8,653,PS,exp,34,→,right,→,0.5496253003366292,True,7,-1,0,0
Y2-S2-183K22,8,654,PS,exp,44,↑,up,↑,0.4218581998720765,True,7,-1,0,0
Y2-S2-183K22,8,655,PS,exp,47,←,left,←,0.7789114997722208,True,7,1,1,1
Y2-S2-183K22,8,656,PS,exp,41,↑,up,↑,0.45486530009657145,True,6,1,0,1
Y2-S2-183K22,8,657,PS,exp,35,→,right,→,0.4553510998375714,True,6,1,0,1
Y2-S2-183K22,8,658,PS,exp,32,←,right,→,0.42806300008669496,False,6,-1,1,2
Y2-S2-183K22,8,659,PS,exp,37,↑,up,↑,0.46500479988753796,True,7,-1,0,2
Y2-S2-183K22,8,660,PS,exp,36,↓,left,←,0.5153080001473427,False,7,-1,0,2
Y2-S2-183K22,8,661,PS,exp,46,←,right,→,0.391970899887383,False,8,-1,0,2
Y2-S2-183K22,8,662,PS,exp,49,→,right,→,0.49535859981551766,True,9,-1,0,2
Y2-S2-183K22,8,663,PS,exp,29,↓,down,↓,0.7570952996611595,True,9,-1,0,2
Y2-S2-183K22,8,664,PS,exp,48,←,left,←,0.5406554001383483,True,9,1,1,3
Y2-S2-183K22,8,665,PS,exp,28,↓,down,↓,0.5404496998526156,True,8,1,0,3
Y2-S2-183K22,8,666,PS,exp,43,→,right,→,0.47242380026727915,True,8,1,0,3
Y2-S2-183K22,8,667,PS,exp,47,←,left,←,0.43240860011428595,True,8,1,0,3
Y2-S2-183K22,8,668,PS,exp,45,→,right,→,0.5164331998676062,True,7,1,0,3
Y2-S2-183K22,8,669,PS,exp,45,↑,up,↑,0.4106942997314036,True,7,1,0,3
Y2-S2-183K22,8,670,PS,exp,38,→,right,→,0.5062588998116553,True,7,1,0,3
Y2-S2-183K22,8,671,PS,exp,47,↓,down,↓,0.476897899992764,True,6,1,0,3
Y2-S2-183K22,8,672,PS,exp,29,←,right,→,0.4016875997185707,False,6,-1,1,4
Y2-S2-183K22,8,673,PS,exp,39,↓,right,→,0.548758499789983,False,7,-1,0,4
Y2-S2-183K22,8,674,PS,exp,31,→,right,→,0.5420526000671089,True,8,-1,0,4
Y2-S2-183K22,8,675,PS,exp,49,←,right,→,0.38973370008170605,False,8,-1,0,4
Y2-S2-183K22,8,676,PS,exp,41,↑,up,↑,0.8149725999683142,True,9,-1,0,4
Y2-S2-183K22,8,677,PS,exp,33,→,right,→,0.4291817001067102,True,9,-1,0,4
Y2-S2-183K22,8,678,PS,exp,27,↑,up,↑,0.49802799988538027,True,9,1,1,5
Y2-S2-183K22,8,679,PS,exp,33,←,left,←,0.5865307999774814,True,8,1,0,5
Y2-S2-183K22,8,680,PS,exp,26,→,right,→,0.5025109997950494,True,8,1,0,5
Y2-S2-183K22,8,681,PS,exp,39,↓,left,←,0.5037989001721144,False,8,-1,1,6
Y2-S2-183K22,8,682,PS,exp,29,→,right,→,0.43977059982717037,True,9,-1,0,6
Y2-S2-183K22,8,683,PS,exp,30,↑,up,↑,0.43410110007971525,True,9,-1,0,6
Y2-S2-183K22,8,684,PS,exp,34,←,left,←,0.5075254999101162,True,9,1,1,7
Y2-S2-183K22,8,685,PS,exp,47,→,right,→,0.390873400028795,True,8,1,0,7
Y2-S2-183K22,8,686,PS,exp,46,←,left,←,0.4913503001444042,True,8,1,0,7
Y2-S2-183K22,8,687,PS,exp,37,↓,down,↓,0.518596800044179,True,8,1,0,7
Y2-S2-183K22,8,688,PS,exp,25,↑,up,↑,0.5565482000820339,True,7,1,0,7
Y2-S2-183K22,8,689,PS,exp,39,→,left,←,0.715814399998635,False,7,-1,1,8
Y2-S2-183K22,8,690,PS,exp,47,↑,up,↑,0.8883883003145456,True,8,-1,0,8
Y2-S2-183K22,8,691,PS,exp,42,→,right,→,0.4694765997119248,True,8,-1,0,8
Y2-S2-183K22,8,692,PS,exp,33,←,left,←,0.42448189994320273,True,8,1,1,9
Y2-S2-183K22,8,693,PS,exp,49,↓,down,↓,0.5214726999402046,True,7,1,0,9
Y2-S2-183K22,8,694,PS,exp,33,←,left,←,0.5311802998185158,True,7,1,0,9
Y2-S2-183K22,8,695,PS,exp,35,↑,up,↑,0.47044110018759966,True,7,1,0,9
Y2-S2-183K22,8,696,PS,exp,46,←,left,←,0.42633929988369346,True,6,1,0,9
Y2-S2-183K22,8,697,PS,exp,35,→,right,→,0.5367529997602105,True,6,1,0,9
Y2-S2-183K22,8,698,PS,exp,49,↑,up,↑,0.43963970011100173,True,6,1,0,9
Y2-S2-183K22,8,699,PS,exp,42,↓,left,←,0.6054004998877645,False,5,-1,1,10
Y2-S2-183K22,8,700,PS,exp,43,↑,left,←,0.7611369001679122,False,6,-1,0,10
Y2-S2-183K22,8,701,PS,exp,25,←,left,←,0.6558163999579847,True,7,-1,0,10
Y2-S2-183K22,8,702,PS,exp,45,→,left,←,0.770978800021112,False,7,-1,0,10
Y2-S2-183K22,8,703,PS,exp,46,↑,left,←,0.7096402999013662,False,8,-1,0,10
Y2-S2-183K22,8,704,PS,exp,36,→,left,←,0.5888343001715839,False,9,-1,0,10
Y2-S2-183K22,8,705,PS,exp,33,↓,no_key,no_letter,-1.0,False,10,-1,0,10
Y2-S2-183K22,8,706,PS,exp,30,←,left,←,0.5295743998140097,True,11,-1,0,10
Y2-S2-183K22,8,707,PS,exp,29,↓,down,↓,0.9239238002337515,True,11,-1,0,10
Y2-S2-183K22,8,708,PS,exp,32,↑,up,↑,0.5838647000491619,True,11,1,1,11
Y2-S2-183K22,8,709,PS,exp,39,←,left,←,0.762546599842608,True,10,1,0,11
Y2-S2-183K22,8,710,PS,exp,48,↑,up,↑,0.5056826998479664,True,10,1,0,11
Y2-S2-183K22,8,711,PS,exp,41,↓,down,↓,0.5439138002693653,True,10,1,0,11
Y2-S2-183K22,8,712,PS,exp,25,↑,up,↑,0.6314530000090599,True,9,1,0,11
Y2-S2-183K22,8,713,PS,exp,35,↓,no_key,no_letter,-1.0,False,9,-1,1,12
Y2-S2-183K22,8,714,PS,exp,45,↑,up,↑,0.503792000003159,True,10,-1,0,12
Y2-S2-183K22,8,715,PS,exp,47,←,left,←,0.4062125999480486,True,10,-1,0,12
Y2-S2-183K22,8,716,PS,exp,35,→,right,→,0.42904349975287914,True,10,1,1,13
Y2-S2-183K22,8,717,PS,exp,35,↓,down,↓,0.5702206999994814,True,9,1,0,13
Y2-S2-183K22,8,718,PS,exp,48,↑,up,↑,0.5764218000695109,True,9,1,0,13
Y2-S2-183K22,8,719,PS,exp,50,←,left,←,0.5365557000041008,True,9,1,0,13
Y2-S2-183K22,8,720,PS,exp,48,→,left,←,0.6760813998989761,False,8,-1,1,14
Y2-S2-183K22,8,721,PS,exp,43,←,left,←,0.5492690997198224,True,9,-1,0,14
Y2-S2-183K22,8,722,PS,exp,47,↑,up,↑,0.4538936000317335,True,9,-1,0,14
Y2-S2-183K22,8,723,PS,exp,39,↓,up,↑,0.6001651999540627,False,9,-1,0,14
Y2-S2-183K22,8,724,PS,exp,47,↑,left,←,0.7130788001231849,False,10,-1,0,14
Y2-S2-183K22,8,725,PS,exp,40,↓,down,↓,0.7815037998370826,True,11,-1,0,14
Y2-S2-183K22,8,726,PS,exp,27,→,right,→,0.5209011998958886,True,11,-1,0,14
Y2-S2-183K22,8,727,PS,exp,47,←,left,←,0.4169585998170078,True,11,1,1,15
Y2-S2-183K22,8,728,PS,exp,39,↓,down,↓,0.6516095995903015,True,10,1,0,15
Y2-S2-183K22,8,729,PS,exp,37,↑,up,↑,0.584822699893266,True,10,1,0,15
Y2-S2-183K22,8,730,PS,exp,33,←,left,←,0.4021629998460412,True,10,1,0,15
Y2-S2-183K22,8,731,PS,exp,41,↓,down,↓,0.6872712997719646,True,9,1,0,15
Y2-S2-183K22,8,732,PS,exp,26,↑,up,↑,0.605871600098908,True,9,1,0,15
Y2-S2-183K22,8,733,PS,exp,31,↓,down,↓,0.5820657000876963,True,9,1,0,15
Y2-S2-183K22,8,734,PS,exp,46,↑,up,↑,0.4663277002982795,True,8,1,0,15
Y2-S2-183K22,8,735,PS,exp,43,↓,left,←,0.5661453995853662,False,8,-1,1,16
