PART_ID,Block_no,Trial_no,Block_type,Trial_type,CSI,Stim_letter,Key_pressed,letter_choose,Rt,Corr,Stimulus Time,Level,Reversal,Revs_count
Y2-S2-012K28,1,1,PS,train,29,↓,up,↑,1.5457376000122167,False,30,-,-,-
Y2-S2-012K28,1,2,PS,train,39,←,left,←,1.2472233999869786,True,30,-,-,-
Y2-S2-012K28,1,3,PS,train,30,↓,down,↓,1.035258799965959,True,30,-,-,-
Y2-S2-012K28,1,4,PS,train,46,←,left,←,0.5171145999920554,True,30,-,-,-
Y2-S2-012K28,1,5,PS,train,46,↑,up,↑,1.2235988000174984,True,30,-,-,-
Y2-S2-012K28,1,6,PS,train,30,→,right,→,0.7099648999865167,True,30,-,-,-
Y2-S2-012K28,1,7,PS,train,34,↑,up,↑,0.7180312999989837,True,30,-,-,-
Y2-S2-012K28,1,8,PS,train,38,→,right,→,0.5008372000302188,True,30,-,-,-
Y2-S2-012K28,1,9,PS,train,30,↑,up,↑,1.1277004000148736,True,30,-,-,-
Y2-S2-012K28,1,10,PS,train,38,→,right,→,0.5170919999945909,True,30,-,-,-
Y2-S2-012K28,2,11,AS,train,43,←,left,←,0.6678379999939352,True,45,-,-,-
Y2-S2-012K28,2,12,AS,train,44,↑,up,↑,0.3848205999820493,True,45,-,-,-
Y2-S2-012K28,2,13,AS,train,38,↓,down,↓,0.8673047000193037,True,45,-,-,-
Y2-S2-012K28,2,14,AS,train,27,→,right,→,0.48431369999889284,True,45,-,-,-
Y2-S2-012K28,2,15,AS,train,30,↑,up,↑,0.48456609999993816,True,45,-,-,-
Y2-S2-012K28,2,16,AS,train,41,↓,down,↓,0.6175506999716163,True,45,-,-,-
Y2-S2-012K28,2,17,AS,train,25,→,right,→,0.41801689995918423,True,45,-,-,-
Y2-S2-012K28,2,18,AS,train,39,↓,down,↓,0.6509349000407383,True,45,-,-,-
Y2-S2-012K28,2,19,AS,train,42,→,right,→,0.4679863000055775,True,45,-,-,-
Y2-S2-012K28,2,20,AS,train,49,←,left,←,0.5842813000199385,True,45,-,-,-
Y2-S2-012K28,-,21,PS,adaptive,43,→,left,←,0.7632484000059776,False,10,-1,0,0
Y2-S2-012K28,-,22,PS,adaptive,39,←,right,→,0.7540970999980345,False,11,-1,0,0
Y2-S2-012K28,-,23,PS,adaptive,38,→,left,←,0.8637435000273399,False,12,-1,0,0
Y2-S2-012K28,-,24,PS,adaptive,26,↓,left,←,0.9910040000104345,False,13,-1,0,0
Y2-S2-012K28,-,25,PS,adaptive,25,→,right,→,0.4272393999854103,True,14,-1,0,0
Y2-S2-012K28,-,26,PS,adaptive,50,↓,down,↓,0.7217042000265792,True,14,-1,0,0
Y2-S2-012K28,-,27,PS,adaptive,30,←,left,←,0.48394599999301136,True,14,1,1,1
Y2-S2-012K28,-,28,PS,adaptive,28,→,right,→,0.6370999999926426,True,13,1,0,1
Y2-S2-012K28,-,29,PS,adaptive,38,↓,down,↓,0.6438162000267766,True,13,1,0,1
Y2-S2-012K28,-,30,PS,adaptive,36,→,left,←,0.7610730999731459,False,13,-1,1,2
Y2-S2-012K28,-,31,PS,adaptive,34,↓,down,↓,0.7723560000304133,True,14,-1,0,2
Y2-S2-012K28,-,32,PS,adaptive,37,↑,up,↑,0.5440626000054181,True,14,-1,0,2
Y2-S2-012K28,-,33,PS,adaptive,30,↓,down,↓,0.7352626000065356,True,14,1,1,3
Y2-S2-012K28,-,34,PS,adaptive,49,→,right,→,0.5908537000068463,True,13,1,0,3
Y2-S2-012K28,-,35,PS,adaptive,28,↓,down,↓,0.5932594999903813,True,13,1,0,3
Y2-S2-012K28,-,36,PS,adaptive,49,→,right,→,0.5661337000201456,True,13,1,0,3
Y2-S2-012K28,-,37,PS,adaptive,47,↓,down,↓,0.6589642000035383,True,12,1,0,3
Y2-S2-012K28,-,38,PS,adaptive,50,→,right,→,0.4991423999890685,True,12,1,0,3
Y2-S2-012K28,-,39,PS,adaptive,33,↑,down,↓,0.9013030999922194,False,12,-1,1,4
Y2-S2-012K28,-,40,AS,adaptive,49,↓,down,↓,0.6965421999921091,True,20,0,0,0
Y2-S2-012K28,-,41,AS,adaptive,37,→,right,→,0.5915173999965191,True,20,0,0,0
Y2-S2-012K28,-,42,AS,adaptive,43,↑,up,↑,0.980398999992758,True,20,1,0,0
Y2-S2-012K28,-,43,AS,adaptive,31,→,right,→,0.608224900031928,True,19,1,0,0
Y2-S2-012K28,-,44,AS,adaptive,49,←,left,←,0.9329919000156224,True,19,1,0,0
Y2-S2-012K28,-,45,AS,adaptive,44,→,left,←,0.7310086999787018,False,19,-1,1,1
Y2-S2-012K28,-,46,AS,adaptive,37,←,right,→,0.6524648999911733,False,20,-1,0,1
Y2-S2-012K28,-,47,AS,adaptive,34,→,right,→,0.6709952999954112,True,21,-1,0,1
Y2-S2-012K28,-,48,AS,adaptive,37,←,left,←,0.5621108000050299,True,21,-1,0,1
Y2-S2-012K28,-,49,AS,adaptive,49,→,right,→,0.6659307000227273,True,21,1,1,2
Y2-S2-012K28,-,50,AS,adaptive,26,↑,up,↑,0.8500228000339121,True,20,1,0,2
Y2-S2-012K28,-,51,AS,adaptive,31,→,left,←,0.6796176999923773,False,20,-1,1,3
Y2-S2-012K28,-,52,AS,adaptive,32,↑,up,↑,0.48411710001528263,True,21,-1,0,3
Y2-S2-012K28,-,53,AS,adaptive,47,↓,down,↓,0.7717930999933742,True,21,-1,0,3
Y2-S2-012K28,-,54,AS,adaptive,48,→,right,→,0.5992582999751903,True,21,1,1,4
Y2-S2-012K28,1,55,PS,intra_train,48,←,left,←,0.5445952999871224,True,19,-,-,-
Y2-S2-012K28,1,56,PS,intra_train,45,→,right,→,0.8262377000064589,True,19,-,-,-
Y2-S2-012K28,1,57,PS,intra_train,26,↑,down,↓,0.4996133999666199,False,19,-,-,-
Y2-S2-012K28,1,58,PS,intra_train,41,→,right,→,0.5253728000097908,True,19,-,-,-
Y2-S2-012K28,1,59,PS,intra_train,33,↓,up,↑,0.9181333999731578,False,19,-,-,-
Y2-S2-012K28,1,60,PS,exp,37,→,right,→,0.7097056999919005,True,13,0,0,0
Y2-S2-012K28,1,61,PS,exp,44,↑,down,↓,0.9882898000068963,False,13,-1,0,0
Y2-S2-012K28,1,62,PS,exp,49,→,left,←,0.8441776999970898,False,14,-1,0,0
Y2-S2-012K28,1,63,PS,exp,29,↓,down,↓,0.6959222999867052,True,15,-1,0,0
Y2-S2-012K28,1,64,PS,exp,31,←,left,←,0.7694728000205941,True,15,-1,0,0
Y2-S2-012K28,1,65,PS,exp,41,↑,down,↓,1.188205599959474,False,15,-1,0,0
Y2-S2-012K28,1,66,PS,exp,33,↓,up,↑,0.6988066000049002,False,16,-1,0,0
Y2-S2-012K28,1,67,PS,exp,27,↑,up,↑,0.7007680000388063,True,17,-1,0,0
Y2-S2-012K28,1,68,PS,exp,25,←,left,←,0.5749520999961533,True,17,-1,0,0
Y2-S2-012K28,1,69,PS,exp,33,↑,left,←,0.7791781999985687,False,17,-1,0,0
Y2-S2-012K28,1,70,PS,exp,27,↓,down,↓,0.6899794000200927,True,18,-1,0,0
Y2-S2-012K28,1,71,PS,exp,33,←,left,←,0.6400083000189625,True,18,-1,0,0
Y2-S2-012K28,1,72,PS,exp,48,↑,up,↑,0.5996318999677896,True,18,1,1,1
Y2-S2-012K28,1,73,PS,exp,32,→,right,→,0.5531289000064135,True,17,1,0,1
Y2-S2-012K28,1,74,PS,exp,39,←,left,←,0.5825188999879174,True,17,1,0,1
Y2-S2-012K28,1,75,PS,exp,30,→,right,→,0.7613711000303738,True,17,1,0,1
Y2-S2-012K28,1,76,PS,exp,28,↑,up,↑,0.566118499962613,True,16,1,0,1
Y2-S2-012K28,1,77,PS,exp,46,↓,down,↓,0.6111745000234805,True,16,1,0,1
Y2-S2-012K28,1,78,PS,exp,25,↑,right,→,0.7544729000073858,False,16,-1,1,2
Y2-S2-012K28,1,79,PS,exp,34,↓,down,↓,0.7396837999694981,True,17,-1,0,2
Y2-S2-012K28,1,80,PS,exp,29,↑,right,→,0.7719979000394233,False,17,-1,0,2
Y2-S2-012K28,1,81,PS,exp,33,←,left,←,0.664005599974189,True,18,-1,0,2
Y2-S2-012K28,1,82,PS,exp,47,↑,down,↓,1.0511608999804594,False,18,-1,0,2
Y2-S2-012K28,1,83,PS,exp,29,→,right,→,0.607885199948214,True,19,-1,0,2
Y2-S2-012K28,1,84,PS,exp,48,↑,up,↑,0.8451011999859475,True,19,-1,0,2
Y2-S2-012K28,1,85,PS,exp,49,↓,down,↓,0.6276377000031061,True,19,1,1,3
Y2-S2-012K28,1,86,PS,exp,34,←,left,←,0.48487879999447614,True,18,1,0,3
Y2-S2-012K28,1,87,PS,exp,35,↓,down,↓,0.6618063000496477,True,18,1,0,3
Y2-S2-012K28,1,88,PS,exp,36,→,right,→,0.47590160003164783,True,18,1,0,3
Y2-S2-012K28,1,89,PS,exp,44,←,left,←,1.2512522999895737,True,17,1,0,3
Y2-S2-012K28,1,90,PS,exp,41,↑,up,↑,0.49161750002531335,True,17,1,0,3
Y2-S2-012K28,1,91,PS,exp,50,↓,down,↓,0.6235487000085413,True,17,1,0,3
Y2-S2-012K28,1,92,PS,exp,26,↑,left,←,0.770125100039877,False,16,-1,1,4
Y2-S2-012K28,1,93,PS,exp,47,→,left,←,0.7317974999896251,False,17,-1,0,4
Y2-S2-012K28,1,94,PS,exp,30,↓,down,↓,0.6725295999785885,True,18,-1,0,4
Y2-S2-012K28,1,95,PS,exp,42,↑,up,↑,0.4910103000001982,True,18,-1,0,4
Y2-S2-012K28,1,96,PS,exp,50,←,left,←,0.7186214000103064,True,18,1,1,5
Y2-S2-012K28,1,97,PS,exp,30,→,right,→,0.617848000023514,True,17,1,0,5
Y2-S2-012K28,1,98,PS,exp,45,↓,down,↓,0.7784759000060149,True,17,1,0,5
Y2-S2-012K28,1,99,PS,exp,42,←,left,←,0.5268100999528542,True,17,1,0,5
Y2-S2-012K28,1,100,PS,exp,28,→,right,→,0.509178000036627,True,16,1,0,5
Y2-S2-012K28,1,101,PS,exp,43,↓,down,↓,0.7423559000017121,True,16,1,0,5
Y2-S2-012K28,1,102,PS,exp,39,←,left,←,0.7785243000253104,True,16,1,0,5
Y2-S2-012K28,1,103,PS,exp,34,↓,down,↓,0.5308589999913238,True,15,1,0,5
Y2-S2-012K28,1,104,PS,exp,44,→,right,→,0.5096083000535145,True,15,1,0,5
Y2-S2-012K28,1,105,PS,exp,35,←,left,←,0.7942414000281133,True,15,1,0,5
Y2-S2-012K28,1,106,PS,exp,31,→,left,←,0.6738809000235051,False,14,-1,1,6
Y2-S2-012K28,1,107,PS,exp,28,←,up,↑,0.7983375000185333,False,15,-1,0,6
Y2-S2-012K28,1,108,PS,exp,33,↓,down,↓,0.5681504000094719,True,16,-1,0,6
Y2-S2-012K28,1,109,PS,exp,39,←,left,←,0.5076164999627508,True,16,-1,0,6
Y2-S2-012K28,1,110,PS,exp,43,→,right,→,0.621910099987872,True,16,1,1,7
Y2-S2-012K28,1,111,PS,exp,47,↓,left,←,0.7561476000119001,False,15,-1,1,8
Y2-S2-012K28,1,112,PS,exp,46,↑,left,←,0.6703697999473661,False,16,-1,0,8
Y2-S2-012K28,1,113,PS,exp,47,↓,left,←,0.6857286999584176,False,17,-1,0,8
Y2-S2-012K28,1,114,PS,exp,39,→,left,←,0.7098501000436954,False,18,-1,0,8
Y2-S2-012K28,1,115,PS,exp,29,↓,right,→,0.6802949999691918,False,19,-1,0,8
Y2-S2-012K28,1,116,PS,exp,31,→,right,→,0.5116236999747343,True,20,-1,0,8
Y2-S2-012K28,1,117,PS,exp,41,←,left,←,0.46729810000397265,True,20,-1,0,8
Y2-S2-012K28,1,118,PS,exp,40,↑,up,↑,0.996450399979949,True,20,1,1,9
Y2-S2-012K28,1,119,PS,exp,39,↓,down,↓,0.6228424999862909,True,19,1,0,9
Y2-S2-012K28,1,120,PS,exp,43,↑,right,→,0.7703749000211246,False,19,-1,1,10
Y2-S2-012K28,1,121,PS,exp,42,←,left,←,0.5478727000299841,True,20,-1,0,10
Y2-S2-012K28,1,122,PS,exp,40,↓,down,↓,0.7915650000213645,True,20,-1,0,10
Y2-S2-012K28,1,123,PS,exp,29,←,left,←,0.618230800027959,True,20,1,1,11
Y2-S2-012K28,1,124,PS,exp,42,→,right,→,0.7107254000147805,True,19,1,0,11
Y2-S2-012K28,1,125,PS,exp,40,↑,up,↑,0.48774280003271997,True,19,1,0,11
Y2-S2-012K28,1,126,PS,exp,36,↓,down,↓,0.593405099993106,True,19,1,0,11
Y2-S2-012K28,1,127,PS,exp,43,↑,left,←,0.6263939999626018,False,18,-1,1,12
Y2-S2-012K28,1,128,PS,exp,45,↓,up,↑,0.960695699963253,False,19,-1,0,12
Y2-S2-012K28,1,129,PS,exp,31,→,right,→,0.4171874000458047,True,20,-1,0,12
Y2-S2-012K28,1,130,PS,exp,45,←,left,←,0.3338462999672629,True,20,-1,0,12
Y2-S2-012K28,1,131,PS,exp,33,↑,left,←,0.6030183000257239,False,20,-1,0,12
Y2-S2-012K28,1,132,PS,exp,31,→,right,→,0.467425600043498,True,21,-1,0,12
Y2-S2-012K28,1,133,PS,exp,49,←,left,←,0.6014347999589518,True,21,-1,0,12
Y2-S2-012K28,1,134,PS,exp,45,↓,down,↓,0.6869426000048406,True,21,1,1,13
Y2-S2-012K28,1,135,PS,exp,29,↑,right,→,0.632118100009393,False,20,-1,1,14
Y2-S2-012K28,1,136,PS,exp,29,←,left,←,0.5223609000095166,True,21,-1,0,14
Y2-S2-012K28,1,137,PS,exp,42,↓,down,↓,0.6848510999698192,True,21,-1,0,14
Y2-S2-012K28,1,138,PS,exp,26,←,left,←,0.6190039999783039,True,21,1,1,15
Y2-S2-012K28,1,139,PS,exp,46,→,right,→,0.5483391999732703,True,20,1,0,15
Y2-S2-012K28,1,140,PS,exp,45,←,left,←,0.7925758000346832,True,20,1,0,15
Y2-S2-012K28,1,141,PS,exp,40,→,left,←,0.5750772999599576,False,20,-1,1,16
Y2-S2-012K28,2,142,AS,intra_train,26,↑,up,↑,0.6847433000220917,True,30,-,-,-
Y2-S2-012K28,2,143,AS,intra_train,31,←,left,←,0.41746329999295995,True,30,-,-,-
Y2-S2-012K28,2,144,AS,intra_train,40,↓,down,↓,0.6855518000083975,True,30,-,-,-
Y2-S2-012K28,2,145,AS,intra_train,42,←,left,←,0.6172196999541484,True,30,-,-,-
Y2-S2-012K28,2,146,AS,intra_train,26,→,right,→,0.5672635000082664,True,30,-,-,-
Y2-S2-012K28,2,147,AS,exp,45,↑,up,↑,0.5276610999717377,True,20,0,0,0
Y2-S2-012K28,2,148,AS,exp,40,←,left,←,0.6975233000121079,True,20,0,0,0
Y2-S2-012K28,2,149,AS,exp,32,↓,down,↓,0.7633613999933004,True,20,1,0,0
Y2-S2-012K28,2,150,AS,exp,39,→,right,→,0.6574525000178255,True,19,1,0,0
Y2-S2-012K28,2,151,AS,exp,49,↑,down,↓,0.7801595000200905,False,19,-1,1,1
Y2-S2-012K28,2,152,AS,exp,37,→,right,→,0.6524292000103742,True,20,-1,0,1
Y2-S2-012K28,2,153,AS,exp,39,↓,down,↓,0.6265598000027239,True,20,-1,0,1
Y2-S2-012K28,2,154,AS,exp,30,→,right,→,0.5043434000108391,True,20,1,1,2
Y2-S2-012K28,2,155,AS,exp,32,↓,down,↓,0.7006419000099413,True,19,1,0,2
Y2-S2-012K28,2,156,AS,exp,37,↑,up,↑,1.05387319996953,True,19,1,0,2
Y2-S2-012K28,2,157,AS,exp,29,←,left,←,0.6381353000178933,True,19,1,0,2
Y2-S2-012K28,2,158,AS,exp,44,↑,up,↑,0.6766770999529399,True,18,1,0,2
Y2-S2-012K28,2,159,AS,exp,45,←,left,←,0.6784824999631383,True,18,1,0,2
Y2-S2-012K28,2,160,AS,exp,28,→,right,→,0.4739807000150904,True,18,1,0,2
Y2-S2-012K28,2,161,AS,exp,25,↑,up,↑,0.49147990002529696,True,17,1,0,2
Y2-S2-012K28,2,162,AS,exp,47,↓,up,↑,0.6984674999839626,False,17,-1,1,3
Y2-S2-012K28,2,163,AS,exp,43,↑,up,↑,0.4171504999976605,True,18,-1,0,3
Y2-S2-012K28,2,164,AS,exp,33,→,right,→,0.47247389995027333,True,18,-1,0,3
Y2-S2-012K28,2,165,AS,exp,30,↓,up,↑,0.7137963999994099,False,18,-1,0,3
Y2-S2-012K28,2,166,AS,exp,45,←,left,←,0.6322647999622859,True,19,-1,0,3
Y2-S2-012K28,2,167,AS,exp,27,↑,up,↑,0.7085265000350773,True,19,-1,0,3
Y2-S2-012K28,2,168,AS,exp,41,↓,down,↓,0.7794389000046067,True,19,1,1,4
Y2-S2-012K28,2,169,AS,exp,41,→,right,→,0.6539582999539562,True,18,1,0,4
Y2-S2-012K28,2,170,AS,exp,48,←,right,→,0.651004399987869,False,18,-1,1,5
Y2-S2-012K28,2,171,AS,exp,31,↓,down,↓,0.7928550000069663,True,19,-1,0,5
Y2-S2-012K28,2,172,AS,exp,45,←,right,→,0.5566840000101365,False,19,-1,0,5
Y2-S2-012K28,2,173,AS,exp,32,→,right,→,0.6899384999996983,True,20,-1,0,5
Y2-S2-012K28,2,174,AS,exp,32,↑,down,↓,0.511266199988313,False,20,-1,0,5
Y2-S2-012K28,2,175,AS,exp,30,→,left,←,0.5571537000359967,False,21,-1,0,5
Y2-S2-012K28,2,176,AS,exp,27,↓,down,↓,0.6161825999733992,True,22,-1,0,5
Y2-S2-012K28,2,177,AS,exp,27,→,right,→,0.7238889000145718,True,22,-1,0,5
Y2-S2-012K28,2,178,AS,exp,25,↑,up,↑,0.7922812000033446,True,22,1,1,6
Y2-S2-012K28,2,179,AS,exp,35,↓,down,↓,0.6034694999689236,True,21,1,0,6
Y2-S2-012K28,2,180,AS,exp,38,←,left,←,0.6053238000022247,True,21,1,0,6
Y2-S2-012K28,2,181,AS,exp,36,→,right,→,0.48402420000638813,True,21,1,0,6
Y2-S2-012K28,2,182,AS,exp,26,↓,down,↓,0.804404099995736,True,20,1,0,6
Y2-S2-012K28,2,183,AS,exp,37,←,left,←,0.7084018000168726,True,20,1,0,6
Y2-S2-012K28,2,184,AS,exp,27,↓,down,↓,0.9281720999861136,True,20,1,0,6
Y2-S2-012K28,2,185,AS,exp,33,↑,up,↑,0.6711176999961026,True,19,1,0,6
Y2-S2-012K28,2,186,AS,exp,37,→,right,→,0.7590201999992132,True,19,1,0,6
Y2-S2-012K28,2,187,AS,exp,48,↓,down,↓,0.7540385000174865,True,19,1,0,6
Y2-S2-012K28,2,188,AS,exp,44,→,right,→,0.4900286999763921,True,18,1,0,6
Y2-S2-012K28,2,189,AS,exp,42,↓,down,↓,0.7869232999510132,True,18,1,0,6
Y2-S2-012K28,2,190,AS,exp,38,↑,up,↑,1.0495640999870375,True,18,1,0,6
Y2-S2-012K28,2,191,AS,exp,32,←,left,←,0.574383300030604,True,17,1,0,6
Y2-S2-012K28,2,192,AS,exp,43,↑,up,↑,0.6979392999783158,True,17,1,0,6
Y2-S2-012K28,2,193,AS,exp,34,↓,down,↓,0.6866439000004902,True,17,1,0,6
Y2-S2-012K28,2,194,AS,exp,49,←,left,←,0.5234610000043176,True,16,1,0,6
Y2-S2-012K28,2,195,AS,exp,39,→,right,→,0.6156234000227414,True,16,1,0,6
Y2-S2-012K28,2,196,AS,exp,39,↑,up,↑,0.5220150999957696,True,16,1,0,6
Y2-S2-012K28,2,197,AS,exp,37,→,right,→,0.5644043000065722,True,15,1,0,6
Y2-S2-012K28,2,198,AS,exp,25,↑,left,←,0.8170826999703422,False,15,-1,1,7
Y2-S2-012K28,2,199,AS,exp,32,←,left,←,0.5224506999948062,True,16,-1,0,7
Y2-S2-012K28,2,200,AS,exp,31,↓,up,↑,0.7748922000173479,False,16,-1,0,7
Y2-S2-012K28,2,201,AS,exp,28,↑,up,↑,0.5083771999925375,True,17,-1,0,7
Y2-S2-012K28,2,202,AS,exp,38,←,left,←,0.5241332000005059,True,17,-1,0,7
Y2-S2-012K28,2,203,AS,exp,38,↑,down,↓,0.8856407999992371,False,17,-1,0,7
Y2-S2-012K28,2,204,AS,exp,40,→,right,→,0.5506464999634773,True,18,-1,0,7
Y2-S2-012K28,2,205,AS,exp,44,↑,up,↑,0.713420899992343,True,18,-1,0,7
Y2-S2-012K28,2,206,AS,exp,46,←,left,←,0.6177590999868698,True,18,1,1,8
Y2-S2-012K28,2,207,AS,exp,31,↓,left,←,0.6331823000218719,False,17,-1,1,9
Y2-S2-012K28,2,208,AS,exp,26,→,right,→,0.4344586000079289,True,18,-1,0,9
Y2-S2-012K28,2,209,AS,exp,34,↑,up,↑,0.9954803999862634,True,18,-1,0,9
Y2-S2-012K28,2,210,AS,exp,49,←,left,←,0.9666801000130363,True,18,1,1,10
Y2-S2-012K28,2,211,AS,exp,43,→,right,→,0.7084385000052862,True,17,1,0,10
Y2-S2-012K28,2,212,AS,exp,50,↑,up,↑,0.6525393999763764,True,17,1,0,10
Y2-S2-012K28,2,213,AS,exp,33,→,up,↑,0.8848205999820493,False,17,-1,1,11
Y2-S2-012K28,2,214,AS,exp,43,↑,up,↑,0.8632866999832913,True,18,-1,0,11
Y2-S2-012K28,2,215,AS,exp,42,→,right,→,0.707884700037539,True,18,-1,0,11
Y2-S2-012K28,2,216,AS,exp,45,↑,up,↑,0.6475061000091955,True,18,1,1,12
Y2-S2-012K28,2,217,AS,exp,45,←,left,←,0.5736901999916881,True,17,1,0,12
Y2-S2-012K28,2,218,AS,exp,38,→,left,←,0.615725299983751,False,17,-1,1,13
Y2-S2-012K28,2,219,AS,exp,33,←,left,←,0.5376897999667563,True,18,-1,0,13
Y2-S2-012K28,2,220,AS,exp,36,↑,up,↑,0.5649163000052795,True,18,-1,0,13
Y2-S2-012K28,2,221,AS,exp,34,→,right,→,0.6142077000113204,True,18,1,1,14
Y2-S2-012K28,2,222,AS,exp,50,←,left,←,0.46897340001305565,True,17,1,0,14
Y2-S2-012K28,2,223,AS,exp,45,↑,left,←,0.7130131999729201,False,17,-1,1,15
Y2-S2-012K28,2,224,AS,exp,46,←,left,←,0.6162149999872781,True,18,-1,0,15
Y2-S2-012K28,2,225,AS,exp,25,↑,up,↑,0.5918300999910571,True,18,-1,0,15
Y2-S2-012K28,2,226,AS,exp,42,→,right,→,0.703560900001321,True,18,1,1,16
Y2-S2-012K28,3,227,AS,intra_train,40,↑,up,↑,0.5670045000151731,True,30,-,-,-
Y2-S2-012K28,3,228,AS,intra_train,35,↓,down,↓,0.6172592000220902,True,30,-,-,-
Y2-S2-012K28,3,229,AS,intra_train,40,←,left,←,0.517988300009165,True,30,-,-,-
Y2-S2-012K28,3,230,AS,intra_train,33,→,left,←,0.5671761000412516,False,30,-,-,-
Y2-S2-012K28,3,231,AS,intra_train,41,↑,up,↑,0.517129699990619,True,30,-,-,-
Y2-S2-012K28,3,232,AS,exp,42,→,left,←,0.7915406000101939,False,20,-1,0,0
Y2-S2-012K28,3,233,AS,exp,29,↓,down,↓,0.7153974999673665,True,21,-1,0,0
Y2-S2-012K28,3,234,AS,exp,26,←,left,←,0.6882345000049099,True,21,-1,0,0
Y2-S2-012K28,3,235,AS,exp,41,↑,up,↑,0.6210525999777019,True,21,1,1,1
Y2-S2-012K28,3,236,AS,exp,35,←,left,←,0.5745324999443255,True,20,1,0,1
Y2-S2-012K28,3,237,AS,exp,35,↓,down,↓,0.7109455000027083,True,20,1,0,1
Y2-S2-012K28,3,238,AS,exp,31,↑,up,↑,0.5235059999977238,True,20,1,0,1
Y2-S2-012K28,3,239,AS,exp,37,→,right,→,0.48723049997352064,True,19,1,0,1
Y2-S2-012K28,3,240,AS,exp,49,↑,up,↑,0.9692954000202008,True,19,1,0,1
Y2-S2-012K28,3,241,AS,exp,38,←,left,←,0.4340277999872342,True,19,1,0,1
Y2-S2-012K28,3,242,AS,exp,34,→,right,→,0.507728899945505,True,18,1,0,1
Y2-S2-012K28,3,243,AS,exp,43,↓,down,↓,0.8784927999950014,True,18,1,0,1
Y2-S2-012K28,3,244,AS,exp,29,→,right,→,0.5747748999856412,True,18,1,0,1
Y2-S2-012K28,3,245,AS,exp,32,↑,up,↑,0.5193825000314973,True,17,1,0,1
Y2-S2-012K28,3,246,AS,exp,50,→,right,→,0.4604041000129655,True,17,1,0,1
Y2-S2-012K28,3,247,AS,exp,35,←,left,←,0.591486299992539,True,17,1,0,1
Y2-S2-012K28,3,248,AS,exp,32,↓,down,↓,0.8346084000077099,True,16,1,0,1
Y2-S2-012K28,3,249,AS,exp,34,→,right,→,0.6159976999624632,True,16,1,0,1
Y2-S2-012K28,3,250,AS,exp,25,←,left,←,0.583885200030636,True,16,1,0,1
Y2-S2-012K28,3,251,AS,exp,36,→,right,→,0.7786102999816649,True,15,1,0,1
Y2-S2-012K28,3,252,AS,exp,34,↓,down,↓,0.7359072000253946,True,15,1,0,1
Y2-S2-012K28,3,253,AS,exp,36,→,right,→,0.6101025000098161,True,15,1,0,1
Y2-S2-012K28,3,254,AS,exp,37,←,left,←,0.5694194000097923,True,14,1,0,1
Y2-S2-012K28,3,255,AS,exp,31,↓,left,←,0.6699063999694772,False,14,-1,1,2
Y2-S2-012K28,3,256,AS,exp,49,←,right,→,0.7009967999765649,False,15,-1,0,2
Y2-S2-012K28,3,257,AS,exp,42,↓,down,↓,0.7242849000031129,True,16,-1,0,2
Y2-S2-012K28,3,258,AS,exp,35,→,down,↓,0.7462581000290811,False,16,-1,0,2
Y2-S2-012K28,3,259,AS,exp,48,↓,down,↓,0.6486965999938548,True,17,-1,0,2
Y2-S2-012K28,3,260,AS,exp,32,→,left,←,0.6553272000164725,False,17,-1,0,2
Y2-S2-012K28,3,261,AS,exp,30,←,left,←,0.5630191000527702,True,18,-1,0,2
Y2-S2-012K28,3,262,AS,exp,30,↑,up,↑,0.6090599999879487,True,18,-1,0,2
Y2-S2-012K28,3,263,AS,exp,38,←,left,←,0.4698022000375204,True,18,1,1,3
Y2-S2-012K28,3,264,AS,exp,37,→,down,↓,1.0301333999959752,False,17,-1,1,4
Y2-S2-012K28,3,265,AS,exp,29,↓,down,↓,0.6482318000053056,True,18,-1,0,4
Y2-S2-012K28,3,266,AS,exp,49,←,right,→,0.8041242999606766,False,18,-1,0,4
Y2-S2-012K28,3,267,AS,exp,45,↓,down,↓,0.7344926000223495,True,19,-1,0,4
Y2-S2-012K28,3,268,AS,exp,31,←,right,→,0.8631820000009611,False,19,-1,0,4
Y2-S2-012K28,3,269,AS,exp,27,→,left,←,0.5263256000471301,False,20,-1,0,4
Y2-S2-012K28,3,270,AS,exp,34,↑,up,↑,0.5481793999788351,True,21,-1,0,4
Y2-S2-012K28,3,271,AS,exp,37,→,right,→,0.6393263000063598,True,21,-1,0,4
Y2-S2-012K28,3,272,AS,exp,27,←,left,←,0.5223563000326976,True,21,1,1,5
Y2-S2-012K28,3,273,AS,exp,26,→,right,→,1.011716399982106,True,20,1,0,5
Y2-S2-012K28,3,274,AS,exp,42,←,left,←,0.5268258000141941,True,20,1,0,5
Y2-S2-012K28,3,275,AS,exp,42,↑,up,↑,0.8646922000334598,True,20,1,0,5
Y2-S2-012K28,3,276,AS,exp,26,→,right,→,0.6086183000006713,True,19,1,0,5
Y2-S2-012K28,3,277,AS,exp,38,↑,up,↑,0.5115454999613576,True,19,1,0,5
Y2-S2-012K28,3,278,AS,exp,50,←,right,→,0.7998063000268303,False,19,-1,1,6
Y2-S2-012K28,3,279,AS,exp,44,↓,down,↓,0.9513742999988608,True,20,-1,0,6
Y2-S2-012K28,3,280,AS,exp,48,→,right,→,0.5621848999871872,True,20,-1,0,6
Y2-S2-012K28,3,281,AS,exp,26,↓,down,↓,0.7038260999834165,True,20,1,1,7
Y2-S2-012K28,3,282,AS,exp,29,←,left,←,0.5569444000138901,True,19,1,0,7
Y2-S2-012K28,3,283,AS,exp,29,↑,up,↑,0.5232833999907598,True,19,1,0,7
Y2-S2-012K28,3,284,AS,exp,50,↓,right,→,0.7977727000252344,False,19,-1,1,8
Y2-S2-012K28,3,285,AS,exp,35,←,left,←,0.6911273000296205,True,20,-1,0,8
Y2-S2-012K28,3,286,AS,exp,25,↓,down,↓,0.6868309999699704,True,20,-1,0,8
Y2-S2-012K28,3,287,AS,exp,25,→,right,→,0.8194685999769717,True,20,1,1,9
Y2-S2-012K28,3,288,AS,exp,32,↑,down,↓,1.020962700014934,False,19,-1,1,10
Y2-S2-012K28,3,289,AS,exp,41,←,left,←,0.7947282000095583,True,20,-1,0,10
Y2-S2-012K28,3,290,AS,exp,41,→,right,→,0.6714869000134058,True,20,-1,0,10
Y2-S2-012K28,3,291,AS,exp,26,←,left,←,0.7073207999928854,True,20,1,1,11
Y2-S2-012K28,3,292,AS,exp,37,↓,down,↓,0.7438847000012174,True,19,1,0,11
Y2-S2-012K28,3,293,AS,exp,25,←,left,←,0.6779221000033431,True,19,1,0,11
Y2-S2-012K28,3,294,AS,exp,48,↓,down,↓,0.6876250000204891,True,19,1,0,11
Y2-S2-012K28,3,295,AS,exp,35,→,left,←,0.5855299000395462,False,18,-1,1,12
Y2-S2-012K28,3,296,AS,exp,41,↑,up,↑,0.7805731000262313,True,19,-1,0,12
Y2-S2-012K28,3,297,AS,exp,27,↓,down,↓,0.6844083999749273,True,19,-1,0,12
Y2-S2-012K28,3,298,AS,exp,32,←,left,←,0.680301199958194,True,19,1,1,13
Y2-S2-012K28,3,299,AS,exp,39,→,right,→,0.5371703000273556,True,18,1,0,13
Y2-S2-012K28,3,300,AS,exp,27,←,left,←,0.5605668000061996,True,18,1,0,13
Y2-S2-012K28,3,301,AS,exp,27,→,right,→,0.559644999972079,True,18,1,0,13
Y2-S2-012K28,3,302,AS,exp,48,←,left,←,0.6209920999826863,True,17,1,0,13
Y2-S2-012K28,3,303,AS,exp,48,↓,down,↓,0.8394838999956846,True,17,1,0,13
Y2-S2-012K28,3,304,AS,exp,31,←,left,←,0.49305759998969734,True,17,1,0,13
Y2-S2-012K28,3,305,AS,exp,50,↑,up,↑,0.4404062000103295,True,16,1,0,13
Y2-S2-012K28,3,306,AS,exp,33,↓,left,←,0.615968799975235,False,16,-1,1,14
Y2-S2-012K28,3,307,AS,exp,48,→,up,↑,0.6871050000190735,False,17,-1,0,14
Y2-S2-012K28,3,308,AS,exp,31,←,left,←,0.5223900999990292,True,18,-1,0,14
Y2-S2-012K28,3,309,AS,exp,38,→,right,→,0.6937094000168145,True,18,-1,0,14
Y2-S2-012K28,3,310,AS,exp,50,↑,up,↑,0.6962286999914795,True,18,1,1,15
Y2-S2-012K28,3,311,AS,exp,33,→,right,→,0.6987384000094607,True,17,1,0,15
Y2-S2-012K28,3,312,AS,exp,36,↑,left,←,0.3841293000150472,False,17,-1,1,16
Y2-S2-012K28,4,313,PS,intra_train,30,↓,up,↑,0.7317146999994293,False,19,-,-,-
Y2-S2-012K28,4,314,PS,intra_train,30,→,right,→,0.48624269996071234,True,19,-,-,-
Y2-S2-012K28,4,315,PS,intra_train,44,↑,up,↑,0.7047279000398703,True,19,-,-,-
Y2-S2-012K28,4,316,PS,intra_train,36,←,left,←,0.4967062999494374,True,19,-,-,-
Y2-S2-012K28,4,317,PS,intra_train,44,→,right,→,0.5216577999526635,True,19,-,-,-
Y2-S2-012K28,4,318,PS,exp,31,←,left,←,0.7291452999925241,True,13,0,0,0
Y2-S2-012K28,4,319,PS,exp,49,↓,up,↑,0.7257526000030339,False,13,-1,0,0
Y2-S2-012K28,4,320,PS,exp,49,←,left,←,0.5951697999844328,True,14,-1,0,0
Y2-S2-012K28,4,321,PS,exp,33,↓,down,↓,0.7368415999808349,True,14,-1,0,0
Y2-S2-012K28,4,322,PS,exp,41,↑,down,↓,0.6918420000001788,False,14,-1,0,0
Y2-S2-012K28,4,323,PS,exp,27,→,right,→,0.7218916999991052,True,15,-1,0,0
Y2-S2-012K28,4,324,PS,exp,39,↑,up,↑,0.6731915999553166,True,15,-1,0,0
Y2-S2-012K28,4,325,PS,exp,42,↓,up,↑,0.7459417000063695,False,15,-1,0,0
Y2-S2-012K28,4,326,PS,exp,41,→,right,→,0.5469075999571942,True,16,-1,0,0
Y2-S2-012K28,4,327,PS,exp,42,↓,down,↓,0.6630717000225559,True,16,-1,0,0
Y2-S2-012K28,4,328,PS,exp,39,↑,up,↑,0.6668653000378981,True,16,1,1,1
Y2-S2-012K28,4,329,PS,exp,31,→,down,↓,0.9089259000029415,False,15,-1,1,2
Y2-S2-012K28,4,330,PS,exp,37,←,right,→,0.6732520000077784,False,16,-1,0,2
Y2-S2-012K28,4,331,PS,exp,47,↓,down,↓,0.6394901999738067,True,17,-1,0,2
Y2-S2-012K28,4,332,PS,exp,41,→,right,→,0.5384480999782681,True,17,-1,0,2
Y2-S2-012K28,4,333,PS,exp,46,↓,down,↓,0.6848096999456175,True,17,1,1,3
Y2-S2-012K28,4,334,PS,exp,32,↑,down,↓,0.8127292999997735,False,16,-1,1,4
Y2-S2-012K28,4,335,PS,exp,28,↓,right,→,0.7673830999992788,False,17,-1,0,4
Y2-S2-012K28,4,336,PS,exp,33,↑,up,↑,0.48659359995508566,True,18,-1,0,4
Y2-S2-012K28,4,337,PS,exp,35,←,up,↑,0.48872030002530664,False,18,-1,0,4
Y2-S2-012K28,4,338,PS,exp,28,↑,right,→,0.7285040999995545,False,19,-1,0,4
Y2-S2-012K28,4,339,PS,exp,38,→,right,→,0.5032930999877863,True,20,-1,0,4
Y2-S2-012K28,4,340,PS,exp,30,←,left,←,0.4675777000375092,True,20,-1,0,4
Y2-S2-012K28,4,341,PS,exp,37,↓,left,←,0.8209128999733366,False,20,-1,0,4
Y2-S2-012K28,4,342,PS,exp,50,←,left,←,1.6404853999847546,True,21,-1,0,4
Y2-S2-012K28,4,343,PS,exp,47,→,right,→,0.5512576000182889,True,21,-1,0,4
Y2-S2-012K28,4,344,PS,exp,47,↓,down,↓,0.7742816000245512,True,21,1,1,5
Y2-S2-012K28,4,345,PS,exp,46,↑,up,↑,0.5584116000100039,True,20,1,0,5
Y2-S2-012K28,4,346,PS,exp,33,→,right,→,0.43389400001615286,True,20,1,0,5
Y2-S2-012K28,4,347,PS,exp,27,←,left,←,0.4505481999949552,True,20,1,0,5
Y2-S2-012K28,4,348,PS,exp,32,↓,down,↓,0.5999987000250258,True,19,1,0,5
Y2-S2-012K28,4,349,PS,exp,32,→,right,→,0.4004069000366144,True,19,1,0,5
Y2-S2-012K28,4,350,PS,exp,47,↓,down,↓,0.9266677999985404,True,19,1,0,5
Y2-S2-012K28,4,351,PS,exp,40,↑,up,↑,0.5249132000026293,True,18,1,0,5
Y2-S2-012K28,4,352,PS,exp,46,↓,down,↓,0.620175999996718,True,18,1,0,5
Y2-S2-012K28,4,353,PS,exp,48,→,left,←,0.7576853999635205,False,18,-1,1,6
Y2-S2-012K28,4,354,PS,exp,27,↑,right,→,0.7920007000211626,False,19,-1,0,6
Y2-S2-012K28,4,355,PS,exp,31,→,left,←,0.7557137999683619,False,20,-1,0,6
Y2-S2-012K28,4,356,PS,exp,30,←,left,←,0.5413603999768384,True,21,-1,0,6
Y2-S2-012K28,4,357,PS,exp,37,→,right,→,0.8390493000042625,True,21,-1,0,6
Y2-S2-012K28,4,358,PS,exp,36,↓,left,←,0.7596420999616385,False,21,-1,0,6
Y2-S2-012K28,4,359,PS,exp,35,→,right,→,0.547608399996534,True,22,-1,0,6
Y2-S2-012K28,4,360,PS,exp,42,←,left,←,0.6163504000287503,True,22,-1,0,6
Y2-S2-012K28,4,361,PS,exp,30,↑,up,↑,0.5665412000380456,True,22,1,1,7
Y2-S2-012K28,4,362,PS,exp,35,→,left,←,0.7498281000298448,False,21,-1,1,8
Y2-S2-012K28,4,363,PS,exp,33,↓,down,↓,1.2646863000118174,True,22,-1,0,8
Y2-S2-012K28,4,364,PS,exp,36,↑,up,↑,0.825015300011728,True,22,-1,0,8
Y2-S2-012K28,4,365,PS,exp,48,←,left,←,0.6772861999925226,True,22,1,1,9
Y2-S2-012K28,4,366,PS,exp,27,↑,down,↓,1.004884399997536,False,21,-1,1,10
Y2-S2-012K28,4,367,PS,exp,49,→,left,←,0.5809100999613293,False,22,-1,0,10
Y2-S2-012K28,4,368,PS,exp,50,←,left,←,0.4507890999666415,True,23,-1,0,10
Y2-S2-012K28,4,369,PS,exp,43,↓,down,↓,0.756267899996601,True,23,-1,0,10
Y2-S2-012K28,4,370,PS,exp,27,↑,up,↑,0.9511167000164278,True,23,1,1,11
Y2-S2-012K28,4,371,PS,exp,34,→,up,↑,1.915961199963931,False,22,-1,1,12
Y2-S2-012K28,4,372,PS,exp,37,←,left,←,0.48376510001253337,True,23,-1,0,12
Y2-S2-012K28,4,373,PS,exp,34,→,right,→,0.6794860999798402,True,23,-1,0,12
Y2-S2-012K28,4,374,PS,exp,37,←,left,←,1.0513138999813236,True,23,1,1,13
Y2-S2-012K28,4,375,PS,exp,30,↓,down,↓,0.9853854000102729,True,22,1,0,13
Y2-S2-012K28,4,376,PS,exp,25,→,right,→,0.6273196000256576,True,22,1,0,13
Y2-S2-012K28,4,377,PS,exp,36,↓,down,↓,0.637430000002496,True,22,1,0,13
Y2-S2-012K28,4,378,PS,exp,27,↑,up,↑,0.5252374000265263,True,21,1,0,13
Y2-S2-012K28,4,379,PS,exp,42,→,right,→,0.4842147000017576,True,21,1,0,13
Y2-S2-012K28,4,380,PS,exp,28,←,right,→,0.8601753000402823,False,21,-1,1,14
Y2-S2-012K28,4,381,PS,exp,49,→,right,→,0.41728980001062155,True,22,-1,0,14
Y2-S2-012K28,4,382,PS,exp,34,↓,left,←,0.7255532999988645,False,22,-1,0,14
Y2-S2-012K28,4,383,PS,exp,50,↑,right,→,0.7748538999585435,False,23,-1,0,14
Y2-S2-012K28,4,384,PS,exp,46,↓,down,↓,0.8667264999821782,True,24,-1,0,14
Y2-S2-012K28,4,385,PS,exp,32,←,left,←,0.5336265999940224,True,24,-1,0,14
Y2-S2-012K28,4,386,PS,exp,45,↓,down,↓,0.5914534000330605,True,24,1,1,15
Y2-S2-012K28,4,387,PS,exp,47,→,left,←,0.8150094999582507,False,23,-1,1,16
Y2-S2-012K28,5,388,PS,intra_train,38,←,left,←,0.9891695000114851,True,19,-,-,-
Y2-S2-012K28,5,389,PS,intra_train,25,↓,down,↓,0.7059137999895029,True,19,-,-,-
Y2-S2-012K28,5,390,PS,intra_train,27,↑,down,↓,0.9626513000112027,False,19,-,-,-
Y2-S2-012K28,5,391,PS,intra_train,47,↓,down,↓,0.580049299984239,True,19,-,-,-
Y2-S2-012K28,5,392,PS,intra_train,47,←,left,←,0.4506524999742396,True,19,-,-,-
Y2-S2-012K28,5,393,PS,exp,37,→,right,→,0.518800400022883,True,13,0,0,0
Y2-S2-012K28,5,394,PS,exp,25,←,left,←,0.7385248999926262,True,13,0,0,0
Y2-S2-012K28,5,395,PS,exp,38,↑,right,→,0.7253151000477374,False,13,-1,0,0
Y2-S2-012K28,5,396,PS,exp,42,↓,down,↓,0.6213632999570109,True,14,-1,0,0
Y2-S2-012K28,5,397,PS,exp,29,→,right,→,0.46699600003194064,True,14,-1,0,0
Y2-S2-012K28,5,398,PS,exp,30,↓,down,↓,0.5467500999802724,True,14,1,1,1
Y2-S2-012K28,5,399,PS,exp,36,→,left,←,0.576340599975083,False,13,-1,1,2
Y2-S2-012K28,5,400,PS,exp,45,↑,right,→,0.68603029998485,False,14,-1,0,2
Y2-S2-012K28,5,401,PS,exp,41,→,left,←,0.8281580999610014,False,15,-1,0,2
Y2-S2-012K28,5,402,PS,exp,25,↑,up,↑,0.5610682000406086,True,16,-1,0,2
Y2-S2-012K28,5,403,PS,exp,29,←,right,→,0.6433140999870375,False,16,-1,0,2
Y2-S2-012K28,5,404,PS,exp,30,→,left,←,1.1114835999906063,False,17,-1,0,2
Y2-S2-012K28,5,405,PS,exp,25,↑,up,↑,0.5058296999777667,True,18,-1,0,2
Y2-S2-012K28,5,406,PS,exp,32,←,left,←,0.932349799957592,True,18,-1,0,2
Y2-S2-012K28,5,407,PS,exp,40,↑,up,↑,0.5992594000417739,True,18,1,1,3
Y2-S2-012K28,5,408,PS,exp,44,→,left,←,0.6470497999689542,False,17,-1,1,4
Y2-S2-012K28,5,409,PS,exp,25,↓,down,↓,0.7564093000255525,True,18,-1,0,4
Y2-S2-012K28,5,410,PS,exp,42,↑,up,↑,0.7553220999543555,True,18,-1,0,4
Y2-S2-012K28,5,411,PS,exp,25,↓,down,↓,0.6735917999758385,True,18,1,1,5
Y2-S2-012K28,5,412,PS,exp,50,←,left,←,0.45913109998218715,True,17,1,0,5
Y2-S2-012K28,5,413,PS,exp,30,↑,up,↑,0.5255777999991551,True,17,1,0,5
Y2-S2-012K28,5,414,PS,exp,37,↓,down,↓,0.6853874000371434,True,17,1,0,5
Y2-S2-012K28,5,415,PS,exp,35,→,right,→,0.4742375999921933,True,16,1,0,5
Y2-S2-012K28,5,416,PS,exp,45,↑,up,↑,0.44062889995984733,True,16,1,0,5
Y2-S2-012K28,5,417,PS,exp,38,→,down,↓,0.6489113999996334,False,16,-1,1,6
Y2-S2-012K28,5,418,PS,exp,49,↑,up,↑,0.7267614000011235,True,17,-1,0,6
Y2-S2-012K28,5,419,PS,exp,39,→,down,↓,0.7343908000038937,False,17,-1,0,6
Y2-S2-012K28,5,420,PS,exp,45,←,left,←,0.43399359995964915,True,18,-1,0,6
Y2-S2-012K28,5,421,PS,exp,42,↑,up,↑,0.5985874000471085,True,18,-1,0,6
Y2-S2-012K28,5,422,PS,exp,41,←,left,←,0.977809400006663,True,18,1,1,7
Y2-S2-012K28,5,423,PS,exp,42,→,right,→,0.4746921000187285,True,17,1,0,7
Y2-S2-012K28,5,424,PS,exp,34,↑,up,↑,0.8349588999990374,True,17,1,0,7
Y2-S2-012K28,5,425,PS,exp,45,↓,left,←,0.6657673000008799,False,17,-1,1,8
Y2-S2-012K28,5,426,PS,exp,34,↑,up,↑,0.5011707000085153,True,18,-1,0,8
Y2-S2-012K28,5,427,PS,exp,26,←,left,←,0.4736001000273973,True,18,-1,0,8
Y2-S2-012K28,5,428,PS,exp,25,↓,down,↓,0.7763236000319012,True,18,1,1,9
Y2-S2-012K28,5,429,PS,exp,45,↑,up,↑,0.472073899989482,True,17,1,0,9
Y2-S2-012K28,5,430,PS,exp,37,←,left,←,0.8911445999983698,True,17,1,0,9
Y2-S2-012K28,5,431,PS,exp,39,→,right,→,0.8421745999949053,True,17,1,0,9
Y2-S2-012K28,5,432,PS,exp,38,↓,up,↑,0.7071600999915972,False,16,-1,1,10
Y2-S2-012K28,5,433,PS,exp,35,←,up,↑,0.7441620000172406,False,17,-1,0,10
Y2-S2-012K28,5,434,PS,exp,44,↑,up,↑,0.7203965000226162,True,18,-1,0,10
Y2-S2-012K28,5,435,PS,exp,45,←,left,←,0.6016482000122778,True,18,-1,0,10
Y2-S2-012K28,5,436,PS,exp,50,→,right,→,0.8882429999648593,True,18,1,1,11
Y2-S2-012K28,5,437,PS,exp,49,↓,down,↓,0.6753067999961786,True,17,1,0,11
Y2-S2-012K28,5,438,PS,exp,44,←,up,↑,0.7065688999718986,False,17,-1,1,12
Y2-S2-012K28,5,439,PS,exp,29,↑,up,↑,0.5176619000267237,True,18,-1,0,12
Y2-S2-012K28,5,440,PS,exp,46,↓,right,→,0.6419768999912776,False,18,-1,0,12
Y2-S2-012K28,5,441,PS,exp,45,←,left,←,0.38408809999236837,True,19,-1,0,12
Y2-S2-012K28,5,442,PS,exp,42,↑,up,↑,0.4505394999869168,True,19,-1,0,12
Y2-S2-012K28,5,443,PS,exp,50,←,left,←,0.40101190004497766,True,19,1,1,13
Y2-S2-012K28,5,444,PS,exp,48,↑,up,↑,0.5176633999799378,True,18,1,0,13
Y2-S2-012K28,5,445,PS,exp,25,↓,left,←,0.7239728999556974,False,18,-1,1,14
Y2-S2-012K28,5,446,PS,exp,41,→,right,→,0.8873114000307396,True,19,-1,0,14
Y2-S2-012K28,5,447,PS,exp,28,↑,right,→,0.7388734999694861,False,19,-1,0,14
Y2-S2-012K28,5,448,PS,exp,38,←,left,←,0.6917345999972895,True,20,-1,0,14
Y2-S2-012K28,5,449,PS,exp,44,↑,up,↑,0.922787299961783,True,20,-1,0,14
Y2-S2-012K28,5,450,PS,exp,34,→,right,→,0.5258787999628112,True,20,1,1,15
Y2-S2-012K28,5,451,PS,exp,46,↑,left,←,0.6379942999919876,False,19,-1,1,16
Y2-S2-012K28,6,452,AS,intra_train,26,→,left,←,0.600554300006479,False,30,-,-,-
Y2-S2-012K28,6,453,AS,intra_train,34,↓,down,↓,0.7873638999881223,True,30,-,-,-
Y2-S2-012K28,6,454,AS,intra_train,36,←,left,←,0.7805680999881588,True,30,-,-,-
Y2-S2-012K28,6,455,AS,intra_train,43,→,right,→,0.8184510000282899,True,30,-,-,-
Y2-S2-012K28,6,456,AS,intra_train,50,↓,down,↓,0.8920241000014357,True,30,-,-,-
Y2-S2-012K28,6,457,AS,exp,28,↑,down,↓,0.7035754000535235,False,20,-1,0,0
Y2-S2-012K28,6,458,AS,exp,39,←,left,←,0.60221719997935,True,21,-1,0,0
Y2-S2-012K28,6,459,AS,exp,35,→,right,→,0.450930800056085,True,21,-1,0,0
Y2-S2-012K28,6,460,AS,exp,45,↑,up,↑,0.7543529000249691,True,21,1,1,1
Y2-S2-012K28,6,461,AS,exp,25,→,left,←,0.6026811999618076,False,20,-1,1,2
Y2-S2-012K28,6,462,AS,exp,46,←,left,←,0.5536686999839731,True,21,-1,0,2
Y2-S2-012K28,6,463,AS,exp,25,↑,up,↑,0.9382466000388376,True,21,-1,0,2
Y2-S2-012K28,6,464,AS,exp,31,↓,down,↓,0.6027431999682449,True,21,1,1,3
Y2-S2-012K28,6,465,AS,exp,34,→,right,→,1.2385367999668233,True,20,1,0,3
Y2-S2-012K28,6,466,AS,exp,31,↑,up,↑,0.5063343999790959,True,20,1,0,3
Y2-S2-012K28,6,467,AS,exp,35,←,left,←,0.40079320000950247,True,20,1,0,3
Y2-S2-012K28,6,468,AS,exp,43,↑,up,↑,0.9059452000074089,True,19,1,0,3
Y2-S2-012K28,6,469,AS,exp,42,↓,down,↓,0.5619945999933407,True,19,1,0,3
Y2-S2-012K28,6,470,AS,exp,29,←,left,←,0.7279910000506788,True,19,1,0,3
Y2-S2-012K28,6,471,AS,exp,43,↓,down,↓,0.6656992000062019,True,18,1,0,3
Y2-S2-012K28,6,472,AS,exp,25,↑,up,↑,0.47769130003871396,True,18,1,0,3
Y2-S2-012K28,6,473,AS,exp,43,←,left,←,0.526187099982053,True,18,1,0,3
Y2-S2-012K28,6,474,AS,exp,40,↓,up,↑,0.8090317999594845,False,17,-1,1,4
Y2-S2-012K28,6,475,AS,exp,42,→,left,←,0.5735239000059664,False,18,-1,0,4
Y2-S2-012K28,6,476,AS,exp,28,←,left,←,0.6904292000108398,True,19,-1,0,4
Y2-S2-012K28,6,477,AS,exp,50,→,right,→,0.874075300002005,True,19,-1,0,4
Y2-S2-012K28,6,478,AS,exp,38,↑,up,↑,0.4966081000166014,True,19,1,1,5
Y2-S2-012K28,6,479,AS,exp,49,→,left,←,0.5772296999930404,False,18,-1,1,6
Y2-S2-012K28,6,480,AS,exp,47,↑,up,↑,0.4177336000138894,True,19,-1,0,6
Y2-S2-012K28,6,481,AS,exp,28,←,left,←,0.6271440999698825,True,19,-1,0,6
Y2-S2-012K28,6,482,AS,exp,37,→,right,→,0.556929099955596,True,19,1,1,7
Y2-S2-012K28,6,483,AS,exp,41,←,left,←,0.41765449999365956,True,18,1,0,7
Y2-S2-012K28,6,484,AS,exp,47,→,right,→,0.40074180002557114,True,18,1,0,7
Y2-S2-012K28,6,485,AS,exp,39,↑,up,↑,0.4005627000005916,True,18,1,0,7
Y2-S2-012K28,6,486,AS,exp,34,→,right,→,0.49307750002481043,True,17,1,0,7
Y2-S2-012K28,6,487,AS,exp,31,↓,down,↓,0.6150635000085458,True,17,1,0,7
Y2-S2-012K28,6,488,AS,exp,42,←,right,→,0.680669300025329,False,17,-1,1,8
Y2-S2-012K28,6,489,AS,exp,27,↑,left,←,0.7030278999591246,False,18,-1,0,8
Y2-S2-012K28,6,490,AS,exp,50,←,left,←,0.9572673999937251,True,19,-1,0,8
Y2-S2-012K28,6,491,AS,exp,36,↓,down,↓,0.6847725000116043,True,19,-1,0,8
Y2-S2-012K28,6,492,AS,exp,25,↑,up,↑,0.43415129999630153,True,19,1,1,9
Y2-S2-012K28,6,493,AS,exp,45,↓,left,←,0.7170426000375301,False,18,-1,1,10
Y2-S2-012K28,6,494,AS,exp,31,→,right,→,0.417536300024949,True,19,-1,0,10
Y2-S2-012K28,6,495,AS,exp,47,↓,down,↓,0.6718263999791816,True,19,-1,0,10
Y2-S2-012K28,6,496,AS,exp,49,↑,up,↑,0.40072949999012053,True,19,1,1,11
Y2-S2-012K28,6,497,AS,exp,42,→,right,→,0.48874260002048686,True,18,1,0,11
Y2-S2-012K28,6,498,AS,exp,32,↓,down,↓,0.8131009999779053,True,18,1,0,11
Y2-S2-012K28,6,499,AS,exp,26,↑,up,↑,0.8588866000063717,True,18,1,0,11
Y2-S2-012K28,6,500,AS,exp,45,←,left,←,0.5368082000059076,True,17,1,0,11
Y2-S2-012K28,6,501,AS,exp,34,↓,down,↓,0.6120328999822959,True,17,1,0,11
Y2-S2-012K28,6,502,AS,exp,26,↑,up,↑,0.7347484000492841,True,17,1,0,11
Y2-S2-012K28,6,503,AS,exp,25,↓,down,↓,0.6125977000338025,True,16,1,0,11
Y2-S2-012K28,6,504,AS,exp,50,↑,up,↑,0.7254524000454694,True,16,1,0,11
Y2-S2-012K28,6,505,AS,exp,33,←,left,←,0.5372578999958932,True,16,1,0,11
Y2-S2-012K28,6,506,AS,exp,43,↓,down,↓,0.6596108000376262,True,15,1,0,11
Y2-S2-012K28,6,507,AS,exp,49,→,up,↑,0.7621154999942519,False,15,-1,1,12
Y2-S2-012K28,6,508,AS,exp,45,←,left,←,0.6636986000230536,True,16,-1,0,12
Y2-S2-012K28,6,509,AS,exp,50,↓,down,↓,0.6536420999909751,True,16,-1,0,12
Y2-S2-012K28,6,510,AS,exp,39,→,down,↓,0.7169973999843933,False,16,-1,0,12
Y2-S2-012K28,6,511,AS,exp,49,↑,up,↑,0.5352316999924369,True,17,-1,0,12
Y2-S2-012K28,6,512,AS,exp,43,↓,down,↓,0.7989977999823168,True,17,-1,0,12
Y2-S2-012K28,6,513,AS,exp,44,←,left,←,0.7357558999792673,True,17,1,1,13
Y2-S2-012K28,6,514,AS,exp,40,↓,down,↓,0.6024864999926649,True,16,1,0,13
Y2-S2-012K28,6,515,AS,exp,35,↑,up,↑,0.4555524000315927,True,16,1,0,13
Y2-S2-012K28,6,516,AS,exp,29,↓,up,↑,0.7351971000316553,False,16,-1,1,14
Y2-S2-012K28,6,517,AS,exp,34,←,left,←,0.5559546999866143,True,17,-1,0,14
Y2-S2-012K28,6,518,AS,exp,39,↑,up,↑,0.9349217999842949,True,17,-1,0,14
Y2-S2-012K28,6,519,AS,exp,48,→,left,←,0.5470042999950238,False,17,-1,0,14
Y2-S2-012K28,6,520,AS,exp,44,↑,up,↑,0.6271734000183642,True,18,-1,0,14
Y2-S2-012K28,6,521,AS,exp,39,↓,down,↓,0.7481709000421688,True,18,-1,0,14
Y2-S2-012K28,6,522,AS,exp,25,↑,up,↑,0.5544716999866068,True,18,1,1,15
Y2-S2-012K28,6,523,AS,exp,41,→,right,→,0.9458410000079311,True,17,1,0,15
Y2-S2-012K28,6,524,AS,exp,33,↑,up,↑,0.6224105999572203,True,17,1,0,15
Y2-S2-012K28,6,525,AS,exp,39,↓,down,↓,0.7423426000168547,True,17,1,0,15
Y2-S2-012K28,6,526,AS,exp,30,←,left,←,0.6564315999858081,True,16,1,0,15
Y2-S2-012K28,6,527,AS,exp,36,→,right,→,0.5124046999844722,True,16,1,0,15
Y2-S2-012K28,6,528,AS,exp,27,←,left,←,0.6284814000246115,True,16,1,0,15
Y2-S2-012K28,6,529,AS,exp,44,↑,up,↑,0.6673172000446357,True,15,1,0,15
Y2-S2-012K28,6,530,AS,exp,28,↓,up,↑,0.7916890000342391,False,15,-1,1,16
Y2-S2-012K28,7,531,AS,intra_train,31,→,right,→,0.5509381999727339,True,30,-,-,-
Y2-S2-012K28,7,532,AS,intra_train,41,↓,down,↓,0.8315340999979526,True,30,-,-,-
Y2-S2-012K28,7,533,AS,intra_train,31,←,left,←,1.1289260999765247,True,30,-,-,-
Y2-S2-012K28,7,534,AS,intra_train,37,→,right,→,0.6007999000139534,True,30,-,-,-
Y2-S2-012K28,7,535,AS,intra_train,44,↓,down,↓,0.6009225999587215,True,30,-,-,-
Y2-S2-012K28,7,536,AS,exp,26,↑,down,↓,0.6490698999841698,False,20,-1,0,0
Y2-S2-012K28,7,537,AS,exp,25,↓,up,↑,0.7988238999969326,False,21,-1,0,0
Y2-S2-012K28,7,538,AS,exp,35,←,left,←,0.6809795000008307,True,22,-1,0,0
Y2-S2-012K28,7,539,AS,exp,30,→,right,→,0.6936710000154562,True,22,-1,0,0
Y2-S2-012K28,7,540,AS,exp,43,←,left,←,0.6034576999954879,True,22,1,1,1
Y2-S2-012K28,7,541,AS,exp,35,→,left,←,0.5702681000111625,False,21,-1,1,2
Y2-S2-012K28,7,542,AS,exp,35,←,left,←,0.6533078000065871,True,22,-1,0,2
Y2-S2-012K28,7,543,AS,exp,33,→,right,→,0.5636525999871083,True,22,-1,0,2
Y2-S2-012K28,7,544,AS,exp,35,↓,left,←,0.6097202000091784,False,22,-1,0,2
Y2-S2-012K28,7,545,AS,exp,31,→,right,→,0.6550793999922462,True,23,-1,0,2
Y2-S2-012K28,7,546,AS,exp,38,↓,down,↓,0.7044012999976985,True,23,-1,0,2
Y2-S2-012K28,7,547,AS,exp,38,←,left,←,0.5541268000379205,True,23,1,1,3
Y2-S2-012K28,7,548,AS,exp,36,↑,up,↑,0.6828328999690711,True,22,1,0,3
Y2-S2-012K28,7,549,AS,exp,32,↓,down,↓,0.6439973999513313,True,22,1,0,3
Y2-S2-012K28,7,550,AS,exp,33,→,right,→,0.9481584000168368,True,22,1,0,3
Y2-S2-012K28,7,551,AS,exp,49,←,left,←,0.9814372000400908,True,21,1,0,3
Y2-S2-012K28,7,552,AS,exp,42,↑,up,↑,0.48371010000118986,True,21,1,0,3
Y2-S2-012K28,7,553,AS,exp,47,←,right,→,0.5229602999752387,False,21,-1,1,4
Y2-S2-012K28,7,554,AS,exp,30,→,left,←,0.5481926000211388,False,22,-1,0,4
Y2-S2-012K28,7,555,AS,exp,44,↓,down,↓,0.7125997000257485,True,23,-1,0,4
Y2-S2-012K28,7,556,AS,exp,42,→,right,→,0.5006336999940686,True,23,-1,0,4
Y2-S2-012K28,7,557,AS,exp,45,↓,down,↓,0.6161066999775358,True,23,1,1,5
Y2-S2-012K28,7,558,AS,exp,28,↑,up,↑,0.4509591999812983,True,22,1,0,5
Y2-S2-012K28,7,559,AS,exp,48,←,left,←,0.6369780999957584,True,22,1,0,5
Y2-S2-012K28,7,560,AS,exp,28,↓,down,↓,0.7469984999625012,True,22,1,0,5
Y2-S2-012K28,7,561,AS,exp,32,↑,up,↑,0.4838637000066228,True,21,1,0,5
Y2-S2-012K28,7,562,AS,exp,32,←,left,←,0.6311192999710329,True,21,1,0,5
Y2-S2-012K28,7,563,AS,exp,49,→,right,→,0.46725360001437366,True,21,1,0,5
Y2-S2-012K28,7,564,AS,exp,49,↑,up,↑,0.5895579000352882,True,20,1,0,5
Y2-S2-012K28,7,565,AS,exp,42,←,left,←,0.36713010002858937,True,20,1,0,5
Y2-S2-012K28,7,566,AS,exp,33,→,right,→,0.7394144999561831,True,20,1,0,5
Y2-S2-012K28,7,567,AS,exp,26,↓,down,↓,0.5502829999895766,True,19,1,0,5
Y2-S2-012K28,7,568,AS,exp,27,↑,up,↑,0.6228003000142053,True,19,1,0,5
Y2-S2-012K28,7,569,AS,exp,35,↓,down,↓,0.6472846000106074,True,19,1,0,5
Y2-S2-012K28,7,570,AS,exp,30,→,right,→,0.4764361000270583,True,18,1,0,5
Y2-S2-012K28,7,571,AS,exp,30,↓,down,↓,0.7576716000330634,True,18,1,0,5
Y2-S2-012K28,7,572,AS,exp,46,→,right,→,1.0336419999948703,True,18,1,0,5
Y2-S2-012K28,7,573,AS,exp,29,←,left,←,0.49223580001853406,True,17,1,0,5
Y2-S2-012K28,7,574,AS,exp,44,↑,up,↑,0.9397019000025466,True,17,1,0,5
Y2-S2-012K28,7,575,AS,exp,25,←,right,→,0.5141457000281662,False,17,-1,1,6
Y2-S2-012K28,7,576,AS,exp,30,→,right,→,0.552121399960015,True,18,-1,0,6
Y2-S2-012K28,7,577,AS,exp,41,↓,down,↓,0.5048420999664813,True,18,-1,0,6
Y2-S2-012K28,7,578,AS,exp,42,→,right,→,0.6043147000018507,True,18,1,1,7
Y2-S2-012K28,7,579,AS,exp,42,↓,down,↓,0.6354088999796659,True,17,1,0,7
Y2-S2-012K28,7,580,AS,exp,25,↑,up,↑,0.5634944000048563,True,17,1,0,7
Y2-S2-012K28,7,581,AS,exp,40,↓,down,↓,0.5853893000166863,True,17,1,0,7
Y2-S2-012K28,7,582,AS,exp,29,←,left,←,0.538730799977202,True,16,1,0,7
Y2-S2-012K28,7,583,AS,exp,27,↑,up,↑,0.5617551999748684,True,16,1,0,7
Y2-S2-012K28,7,584,AS,exp,26,→,left,←,0.6339596000034362,False,16,-1,1,8
Y2-S2-012K28,7,585,AS,exp,38,←,left,←,0.7098519999999553,True,17,-1,0,8
Y2-S2-012K28,7,586,AS,exp,35,→,left,←,0.7508266000077128,False,17,-1,0,8
Y2-S2-012K28,7,587,AS,exp,27,←,right,→,0.5821676999912597,False,18,-1,0,8
Y2-S2-012K28,7,588,AS,exp,36,→,right,→,0.669459700002335,True,19,-1,0,8
Y2-S2-012K28,7,589,AS,exp,31,↑,up,↑,0.6408906999859028,True,19,-1,0,8
Y2-S2-012K28,7,590,AS,exp,34,↓,left,←,0.5973236999707296,False,19,-1,0,8
Y2-S2-012K28,7,591,AS,exp,49,↑,up,↑,0.6733063000137918,True,20,-1,0,8
Y2-S2-012K28,7,592,AS,exp,29,↓,down,↓,0.8407458000001498,True,20,-1,0,8
Y2-S2-012K28,7,593,AS,exp,25,←,left,←,0.579884700011462,True,20,1,1,9
Y2-S2-012K28,7,594,AS,exp,27,↑,up,↑,0.9878701000125147,True,19,1,0,9
Y2-S2-012K28,7,595,AS,exp,49,↓,down,↓,0.49094200000399724,True,19,1,0,9
Y2-S2-012K28,7,596,AS,exp,32,←,left,←,0.795603700040374,True,19,1,0,9
Y2-S2-012K28,7,597,AS,exp,43,↑,up,↑,0.48374140000669286,True,18,1,0,9
Y2-S2-012K28,7,598,AS,exp,39,↓,down,↓,0.6065665999776684,True,18,1,0,9
Y2-S2-012K28,7,599,AS,exp,32,→,right,→,0.4910834999755025,True,18,1,0,9
Y2-S2-012K28,7,600,AS,exp,45,←,left,←,0.624742400017567,True,17,1,0,9
Y2-S2-012K28,7,601,AS,exp,38,↓,down,↓,0.6253484999760985,True,17,1,0,9
Y2-S2-012K28,7,602,AS,exp,47,→,right,→,0.6078159000026062,True,17,1,0,9
Y2-S2-012K28,7,603,AS,exp,39,↓,left,←,0.8396010000142269,False,16,-1,1,10
Y2-S2-012K28,7,604,AS,exp,25,→,left,←,0.5976397999911569,False,17,-1,0,10
Y2-S2-012K28,7,605,AS,exp,26,↑,up,↑,0.7135834000073373,True,18,-1,0,10
Y2-S2-012K28,7,606,AS,exp,41,→,left,←,0.5904862000024877,False,18,-1,0,10
Y2-S2-012K28,7,607,AS,exp,35,↑,up,↑,0.5876663000090048,True,19,-1,0,10
Y2-S2-012K28,7,608,AS,exp,38,→,right,→,0.6413973000016995,True,19,-1,0,10
Y2-S2-012K28,7,609,AS,exp,37,↓,down,↓,0.710434099950362,True,19,1,1,11
Y2-S2-012K28,7,610,AS,exp,27,→,right,→,0.6523473000270315,True,18,1,0,11
Y2-S2-012K28,7,611,AS,exp,38,↓,down,↓,0.6841014000237919,True,18,1,0,11
Y2-S2-012K28,7,612,AS,exp,27,←,left,←,0.4756288999924436,True,18,1,0,11
Y2-S2-012K28,7,613,AS,exp,50,↓,down,↓,0.5062886999803595,True,17,1,0,11
Y2-S2-012K28,7,614,AS,exp,30,→,right,→,0.5110931000090204,True,17,1,0,11
Y2-S2-012K28,7,615,AS,exp,37,↑,up,↑,0.9202864000108093,True,17,1,0,11
Y2-S2-012K28,7,616,AS,exp,35,←,left,←,0.5063911999459378,True,16,1,0,11
Y2-S2-012K28,7,617,AS,exp,50,↓,down,↓,0.5167297000298277,True,16,1,0,11
Y2-S2-012K28,7,618,AS,exp,27,↑,down,↓,0.6633152000140399,False,16,-1,1,12
Y2-S2-012K28,7,619,AS,exp,44,↓,down,↓,0.47782139998162165,True,17,-1,0,12
Y2-S2-012K28,7,620,AS,exp,29,←,left,←,0.5355014999513514,True,17,-1,0,12
Y2-S2-012K28,7,621,AS,exp,34,→,right,→,0.5927511000190862,True,17,1,1,13
Y2-S2-012K28,7,622,AS,exp,35,↑,down,↓,0.6764734999742359,False,16,-1,1,14
Y2-S2-012K28,7,623,AS,exp,37,↓,down,↓,0.5984101000358351,True,17,-1,0,14
Y2-S2-012K28,7,624,AS,exp,31,↑,up,↑,0.7316959000308998,True,17,-1,0,14
Y2-S2-012K28,7,625,AS,exp,28,→,left,←,0.6434409000212327,False,17,-1,0,14
Y2-S2-012K28,7,626,AS,exp,42,↑,up,↑,0.5226567999925464,True,18,-1,0,14
Y2-S2-012K28,7,627,AS,exp,45,←,left,←,0.5768679000320844,True,18,-1,0,14
Y2-S2-012K28,7,628,AS,exp,46,→,left,←,0.7162180999876,False,18,-1,0,14
Y2-S2-012K28,7,629,AS,exp,46,↓,up,↑,0.6559762000106275,False,19,-1,0,14
Y2-S2-012K28,7,630,AS,exp,45,←,left,←,0.5370631999685429,True,20,-1,0,14
Y2-S2-012K28,7,631,AS,exp,45,→,right,→,0.6873412999557331,True,20,-1,0,14
Y2-S2-012K28,7,632,AS,exp,48,↓,up,↑,0.6819483999861404,False,20,-1,0,14
Y2-S2-012K28,7,633,AS,exp,48,←,left,←,1.035038300033193,True,21,-1,0,14
Y2-S2-012K28,7,634,AS,exp,50,→,right,→,0.525228199956473,True,21,-1,0,14
Y2-S2-012K28,7,635,AS,exp,33,←,left,←,0.4009432999882847,True,21,1,1,15
Y2-S2-012K28,7,636,AS,exp,45,→,right,→,0.5538141999859363,True,20,1,0,15
Y2-S2-012K28,7,637,AS,exp,44,↑,up,↑,0.663688300002832,True,20,1,0,15
Y2-S2-012K28,7,638,AS,exp,48,→,right,→,0.5469576999894343,True,20,1,0,15
Y2-S2-012K28,7,639,AS,exp,31,↑,up,↑,0.4843014000216499,True,19,1,0,15
Y2-S2-012K28,7,640,AS,exp,39,↓,right,→,0.7977981999865733,False,19,-1,1,16
Y2-S2-012K28,8,641,PS,intra_train,38,←,left,←,0.5487112000118941,True,19,-,-,-
Y2-S2-012K28,8,642,PS,intra_train,35,→,right,→,0.4008087000111118,True,19,-,-,-
Y2-S2-012K28,8,643,PS,intra_train,28,↑,up,↑,0.5172923000063747,True,19,-,-,-
Y2-S2-012K28,8,644,PS,intra_train,35,←,left,←,0.688195499998983,True,19,-,-,-
Y2-S2-012K28,8,645,PS,intra_train,47,↓,down,↓,0.6357109000091441,True,19,-,-,-
Y2-S2-012K28,8,646,PS,exp,28,↑,right,→,0.6879073000163771,False,13,-1,0,0
Y2-S2-012K28,8,647,PS,exp,37,→,right,→,0.6075463999877684,True,14,-1,0,0
Y2-S2-012K28,8,648,PS,exp,29,←,down,↓,0.6868302000220865,False,14,-1,0,0
Y2-S2-012K28,8,649,PS,exp,41,→,right,→,0.5779029999976046,True,15,-1,0,0
Y2-S2-012K28,8,650,PS,exp,50,↑,up,↑,0.6909372000372969,True,15,-1,0,0
Y2-S2-012K28,8,651,PS,exp,27,↓,right,→,0.6065669000381604,False,15,-1,0,0
Y2-S2-012K28,8,652,PS,exp,31,→,right,→,0.4726834000321105,True,16,-1,0,0
Y2-S2-012K28,8,653,PS,exp,31,←,left,←,0.5271485999692231,True,16,-1,0,0
Y2-S2-012K28,8,654,PS,exp,33,→,right,→,1.0376553000533022,True,16,1,1,1
Y2-S2-012K28,8,655,PS,exp,26,↑,left,←,0.6858597000245936,False,15,-1,1,2
Y2-S2-012K28,8,656,PS,exp,39,→,right,→,0.46895130001939833,True,16,-1,0,2
Y2-S2-012K28,8,657,PS,exp,30,←,right,→,0.5511986999772489,False,16,-1,0,2
Y2-S2-012K28,8,658,PS,exp,34,↓,left,←,0.5765707000391558,False,17,-1,0,2
Y2-S2-012K28,8,659,PS,exp,48,↑,right,→,0.60632020002231,False,18,-1,0,2
Y2-S2-012K28,8,660,PS,exp,32,←,left,←,1.011470899975393,True,19,-1,0,2
Y2-S2-012K28,8,661,PS,exp,30,→,right,→,0.6956688999780454,True,19,-1,0,2
Y2-S2-012K28,8,662,PS,exp,34,←,left,←,0.5906630999525078,True,19,1,1,3
Y2-S2-012K28,8,663,PS,exp,38,↓,down,↓,1.3267828000243753,True,18,1,0,3
Y2-S2-012K28,8,664,PS,exp,35,←,left,←,0.48046140000224113,True,18,1,0,3
Y2-S2-012K28,8,665,PS,exp,40,→,right,→,0.5961668000090867,True,18,1,0,3
Y2-S2-012K28,8,666,PS,exp,31,↑,up,↑,0.5810198999824934,True,17,1,0,3
Y2-S2-012K28,8,667,PS,exp,32,←,left,←,0.5486262999475002,True,17,1,0,3
Y2-S2-012K28,8,668,PS,exp,40,↓,right,→,0.6109313999768347,False,17,-1,1,4
Y2-S2-012K28,8,669,PS,exp,40,→,right,→,0.6451220000162721,True,18,-1,0,4
Y2-S2-012K28,8,670,PS,exp,47,←,left,←,0.905109999992419,True,18,-1,0,4
Y2-S2-012K28,8,671,PS,exp,28,↑,right,→,0.8038257000152953,False,18,-1,0,4
Y2-S2-012K28,8,672,PS,exp,43,↓,down,↓,0.6423914000042714,True,19,-1,0,4
Y2-S2-012K28,8,673,PS,exp,30,→,left,←,0.5980113000259735,False,19,-1,0,4
Y2-S2-012K28,8,674,PS,exp,29,↑,up,↑,0.7506003000307828,True,20,-1,0,4
Y2-S2-012K28,8,675,PS,exp,28,→,left,←,1.388478800014127,False,20,-1,0,4
Y2-S2-012K28,8,676,PS,exp,39,↓,down,↓,0.8389726000023074,True,21,-1,0,4
Y2-S2-012K28,8,677,PS,exp,40,→,left,←,0.5872697000158951,False,21,-1,0,4
Y2-S2-012K28,8,678,PS,exp,37,↓,down,↓,0.6616341000190005,True,22,-1,0,4
Y2-S2-012K28,8,679,PS,exp,30,↑,down,↓,0.768072500010021,False,22,-1,0,4
Y2-S2-012K28,8,680,PS,exp,46,→,right,→,0.5804843999794684,True,23,-1,0,4
Y2-S2-012K28,8,681,PS,exp,49,↑,down,↓,0.6069902000017464,False,23,-1,0,4
Y2-S2-012K28,8,682,PS,exp,30,→,right,→,0.5945757000008598,True,24,-1,0,4
Y2-S2-012K28,8,683,PS,exp,44,←,left,←,0.46716429997468367,True,24,-1,0,4
Y2-S2-012K28,8,684,PS,exp,25,↓,down,↓,0.6818517000065185,True,24,1,1,5
Y2-S2-012K28,8,685,PS,exp,38,→,right,→,0.45086280000396073,True,23,1,0,5
Y2-S2-012K28,8,686,PS,exp,27,↓,down,↓,0.7232503000413999,True,23,1,0,5
Y2-S2-012K28,8,687,PS,exp,45,→,right,→,0.5670534999808297,True,23,1,0,5
Y2-S2-012K28,8,688,PS,exp,43,↑,up,↑,0.8999640999827534,True,22,1,0,5
Y2-S2-012K28,8,689,PS,exp,45,←,right,→,0.5798446999979205,False,22,-1,1,6
Y2-S2-012K28,8,690,PS,exp,47,↑,up,↑,0.46711649995995685,True,23,-1,0,6
Y2-S2-012K28,8,691,PS,exp,41,→,right,→,0.45046870002988726,True,23,-1,0,6
Y2-S2-012K28,8,692,PS,exp,32,←,right,→,0.8893380999797955,False,23,-1,0,6
Y2-S2-012K28,8,693,PS,exp,35,→,right,→,0.5171067999908701,True,24,-1,0,6
Y2-S2-012K28,8,694,PS,exp,33,↓,down,↓,0.6596583999926224,True,24,-1,0,6
Y2-S2-012K28,8,695,PS,exp,40,←,left,←,0.6652375999838114,True,24,1,1,7
Y2-S2-012K28,8,696,PS,exp,38,→,right,→,0.5164593000081368,True,23,1,0,7
Y2-S2-012K28,8,697,PS,exp,48,↑,down,↓,0.6494951999629848,False,23,-1,1,8
Y2-S2-012K28,8,698,PS,exp,46,↓,up,↑,0.5339791000005789,False,24,-1,0,8
Y2-S2-012K28,8,699,PS,exp,44,→,right,→,0.71679989999393,True,25,-1,0,8
Y2-S2-012K28,8,700,PS,exp,28,↓,down,↓,0.6942946000490338,True,25,-1,0,8
Y2-S2-012K28,8,701,PS,exp,42,↑,left,←,0.5903643000056036,False,25,-1,0,8
Y2-S2-012K28,8,702,PS,exp,40,←,left,←,0.43376000004354864,True,26,-1,0,8
Y2-S2-012K28,8,703,PS,exp,43,↑,up,↑,1.0471238000318408,True,26,-1,0,8
Y2-S2-012K28,8,704,PS,exp,43,←,left,←,0.6850914999959059,True,26,1,1,9
Y2-S2-012K28,8,705,PS,exp,49,→,right,→,0.5339463999844156,True,25,1,0,9
Y2-S2-012K28,8,706,PS,exp,37,↑,up,↑,0.7838485999964178,True,25,1,0,9
Y2-S2-012K28,8,707,PS,exp,35,→,right,→,0.41765449999365956,True,25,1,0,9
Y2-S2-012K28,8,708,PS,exp,40,←,left,←,0.7409564999979921,True,24,1,0,9
Y2-S2-012K28,8,709,PS,exp,31,→,right,→,0.5962195000029169,True,24,1,0,9
Y2-S2-012K28,8,710,PS,exp,46,←,left,←,0.40049979998730123,True,24,1,0,9
Y2-S2-012K28,8,711,PS,exp,30,↑,up,↑,1.029081300017424,True,23,1,0,9
Y2-S2-012K28,8,712,PS,exp,50,←,right,→,0.8392347000190057,False,23,-1,1,10
Y2-S2-012K28,8,713,PS,exp,31,↓,left,←,0.5334589999984019,False,24,-1,0,10
Y2-S2-012K28,8,714,PS,exp,45,↑,up,↑,0.6663967999629676,True,25,-1,0,10
Y2-S2-012K28,8,715,PS,exp,31,↓,down,↓,0.5332410999690183,True,25,-1,0,10
Y2-S2-012K28,8,716,PS,exp,40,←,left,←,0.8403468999895267,True,25,1,1,11
Y2-S2-012K28,8,717,PS,exp,48,↑,up,↑,0.8898762000026181,True,24,1,0,11
Y2-S2-012K28,8,718,PS,exp,41,→,left,←,0.684299899963662,False,24,-1,1,12
Y2-S2-012K28,8,719,PS,exp,40,↓,down,↓,0.612883800000418,True,25,-1,0,12
Y2-S2-012K28,8,720,PS,exp,27,↑,up,↑,0.5008812000160106,True,25,-1,0,12
Y2-S2-012K28,8,721,PS,exp,40,←,left,←,0.4341736999922432,True,25,1,1,13
Y2-S2-012K28,8,722,PS,exp,29,↑,up,↑,0.4676331999944523,True,24,1,0,13
Y2-S2-012K28,8,723,PS,exp,35,←,left,←,0.43389819998992607,True,24,1,0,13
Y2-S2-012K28,8,724,PS,exp,42,→,up,↑,0.9413035999750718,False,24,-1,1,14
Y2-S2-012K28,8,725,PS,exp,39,↓,down,↓,0.6321984999813139,True,25,-1,0,14
Y2-S2-012K28,8,726,PS,exp,28,→,right,→,0.5507401999784634,True,25,-1,0,14
Y2-S2-012K28,8,727,PS,exp,37,↓,down,↓,0.7734722999739461,True,25,1,1,15
Y2-S2-012K28,8,728,PS,exp,32,←,down,↓,1.0334070000099018,False,24,-1,1,16
