PART_ID,Block_no,Trial_no,Block_type,Trial_type,CSI,Stim_letter,Key_pressed,letter_choose,Rt,Corr,Stimulus Time,Level,Reversal,Revs_count
Y2-S2-137K20,1,1,PS,train,44,←,left,←,0.6930213999003172,True,30,-,-,-
Y2-S2-137K20,1,2,PS,train,35,↑,up,↑,0.4509093000087887,True,30,-,-,-
Y2-S2-137K20,1,3,PS,train,42,←,left,←,0.4347135000862181,True,30,-,-,-
Y2-S2-137K20,1,4,PS,train,45,→,right,→,0.500440799864009,True,30,-,-,-
Y2-S2-137K20,1,5,PS,train,46,↑,up,↑,0.45142080006189644,True,30,-,-,-
Y2-S2-137K20,1,6,PS,train,31,→,right,→,0.4508525999262929,True,30,-,-,-
Y2-S2-137K20,1,7,PS,train,31,↓,down,↓,1.044430200010538,True,30,-,-,-
Y2-S2-137K20,1,8,PS,train,46,←,left,←,0.5173303000628948,True,30,-,-,-
Y2-S2-137K20,1,9,PS,train,50,↓,down,↓,0.5508050001226366,True,30,-,-,-
Y2-S2-137K20,1,10,PS,train,34,↑,up,↑,0.8594412999227643,True,30,-,-,-
Y2-S2-137K20,2,11,AS,train,30,↓,down,↓,0.7343372001778334,True,45,-,-,-
Y2-S2-137K20,2,12,AS,train,26,↑,up,↑,0.9679179000668228,True,45,-,-,-
Y2-S2-137K20,2,13,AS,train,41,→,right,→,0.6515120000112802,True,45,-,-,-
Y2-S2-137K20,2,14,AS,train,43,←,left,←,0.6514597001951188,True,45,-,-,-
Y2-S2-137K20,2,15,AS,train,50,↑,up,↑,0.5010742000304163,True,45,-,-,-
Y2-S2-137K20,2,16,AS,train,43,↓,down,↓,0.6845195000059903,True,45,-,-,-
Y2-S2-137K20,2,17,AS,train,39,→,right,→,0.5514487000182271,True,45,-,-,-
Y2-S2-137K20,2,18,AS,train,41,←,left,←,0.48429480008780956,True,45,-,-,-
Y2-S2-137K20,2,19,AS,train,42,→,right,→,1.0236599000636488,True,45,-,-,-
Y2-S2-137K20,2,20,AS,train,43,↑,up,↑,0.4510871998500079,True,45,-,-,-
Y2-S2-137K20,-,21,PS,adaptive,39,→,right,→,0.5527447001077235,True,10,0,0,0
Y2-S2-137K20,-,22,PS,adaptive,31,↓,no_key,no_letter,-1.0,False,10,-1,0,0
Y2-S2-137K20,-,23,PS,adaptive,28,↑,up,↑,0.6758826000150293,True,11,-1,0,0
Y2-S2-137K20,-,24,PS,adaptive,32,←,left,←,0.39546000002883375,True,11,-1,0,0
Y2-S2-137K20,-,25,PS,adaptive,47,→,right,→,0.472212600056082,True,11,1,1,1
Y2-S2-137K20,-,26,PS,adaptive,46,↑,up,↑,0.5331276000943035,True,10,1,0,1
Y2-S2-137K20,-,27,PS,adaptive,33,→,right,→,0.44922870001755655,True,10,1,0,1
Y2-S2-137K20,-,28,PS,adaptive,37,↓,down,↓,0.4777760999277234,True,10,1,0,1
Y2-S2-137K20,-,29,PS,adaptive,46,→,right,→,0.3636419998947531,True,9,1,0,1
Y2-S2-137K20,-,30,PS,adaptive,29,←,left,←,0.5304080999922007,True,9,1,0,1
Y2-S2-137K20,-,31,PS,adaptive,33,→,left,←,0.7564227001275867,False,9,-1,1,2
Y2-S2-137K20,-,32,PS,adaptive,43,↓,down,↓,0.4474367001093924,True,10,-1,0,2
Y2-S2-137K20,-,33,PS,adaptive,39,←,up,↑,0.6302730001043528,False,10,-1,0,2
Y2-S2-137K20,-,34,PS,adaptive,44,↓,left,←,0.7164183999411762,False,11,-1,0,2
Y2-S2-137K20,-,35,PS,adaptive,39,←,left,←,0.4654713000636548,True,12,-1,0,2
Y2-S2-137K20,-,36,PS,adaptive,29,↑,right,→,0.6889141001738608,False,12,-1,0,2
Y2-S2-137K20,-,37,PS,adaptive,42,↓,down,↓,0.5099166000727564,True,13,-1,0,2
Y2-S2-137K20,-,38,PS,adaptive,41,→,right,→,0.4262357000261545,True,13,-1,0,2
Y2-S2-137K20,-,39,PS,adaptive,49,↓,down,↓,0.4665540000423789,True,13,1,1,3
Y2-S2-137K20,-,40,PS,adaptive,42,→,left,←,0.6467718998901546,False,12,-1,1,4
Y2-S2-137K20,-,41,AS,adaptive,48,↑,right,→,0.6732652001082897,False,20,-1,0,0
Y2-S2-137K20,-,42,AS,adaptive,44,←,left,←,0.48403110005892813,True,21,-1,0,0
Y2-S2-137K20,-,43,AS,adaptive,31,→,right,→,0.45035500009544194,True,21,-1,0,0
Y2-S2-137K20,-,44,AS,adaptive,36,↓,up,↑,1.0341215000953525,False,21,-1,0,0
Y2-S2-137K20,-,45,AS,adaptive,28,↑,up,↑,0.7506317000370473,True,22,-1,0,0
Y2-S2-137K20,-,46,AS,adaptive,34,←,left,←,0.43409299990162253,True,22,-1,0,0
Y2-S2-137K20,-,47,AS,adaptive,50,↓,right,→,0.9081901998724788,False,22,-1,0,0
Y2-S2-137K20,-,48,AS,adaptive,27,←,left,←,0.41731569985859096,True,23,-1,0,0
Y2-S2-137K20,-,49,AS,adaptive,38,↑,down,↓,0.9156140999402851,False,23,-1,0,0
Y2-S2-137K20,-,50,AS,adaptive,31,↓,down,↓,0.5340799000114202,True,24,-1,0,0
Y2-S2-137K20,-,51,AS,adaptive,49,↑,up,↑,0.4334839000366628,True,24,-1,0,0
Y2-S2-137K20,-,52,AS,adaptive,50,←,left,←,0.3840955998748541,True,24,1,1,1
Y2-S2-137K20,-,53,AS,adaptive,48,↑,left,←,0.5174049001652747,False,23,-1,1,2
Y2-S2-137K20,-,54,AS,adaptive,40,↓,down,↓,0.8228669001255184,True,24,-1,0,2
Y2-S2-137K20,-,55,AS,adaptive,49,←,left,←,0.43389680003747344,True,24,-1,0,2
Y2-S2-137K20,-,56,AS,adaptive,34,↓,up,↑,0.7120765000581741,False,24,-1,0,2
Y2-S2-137K20,-,57,AS,adaptive,44,←,left,←,0.8513193000108004,True,25,-1,0,2
Y2-S2-137K20,-,58,AS,adaptive,28,↓,down,↓,0.4675048999488354,True,25,-1,0,2
Y2-S2-137K20,-,59,AS,adaptive,31,←,left,←,0.6733628998044878,True,25,1,1,3
Y2-S2-137K20,-,60,AS,adaptive,29,→,right,→,1.703088799957186,True,24,1,0,3
Y2-S2-137K20,-,61,AS,adaptive,42,↓,down,↓,0.59431970003061,True,24,1,0,3
Y2-S2-137K20,-,62,AS,adaptive,33,↑,up,↑,0.45048619993031025,True,24,1,0,3
Y2-S2-137K20,-,63,AS,adaptive,40,←,left,←,1.260184200014919,True,23,1,0,3
Y2-S2-137K20,-,64,AS,adaptive,29,↑,up,↑,0.7245080000720918,True,23,1,0,3
Y2-S2-137K20,-,65,AS,adaptive,38,↓,down,↓,0.5848012999631464,True,23,1,0,3
Y2-S2-137K20,-,66,AS,adaptive,41,→,right,→,0.4841026999056339,True,22,1,0,3
Y2-S2-137K20,-,67,AS,adaptive,36,↑,up,↑,0.5008230998646468,True,22,1,0,3
Y2-S2-137K20,-,68,AS,adaptive,41,←,left,←,0.4671130001079291,True,22,1,0,3
Y2-S2-137K20,-,69,AS,adaptive,42,↓,down,↓,0.5427581998519599,True,21,1,0,3
Y2-S2-137K20,-,70,AS,adaptive,47,↑,up,↑,0.5183445001021028,True,21,1,0,3
Y2-S2-137K20,-,71,AS,adaptive,40,→,right,→,0.40056609991006553,True,21,1,0,3
Y2-S2-137K20,-,72,AS,adaptive,28,←,left,←,1.4901318000629544,True,20,1,0,3
Y2-S2-137K20,-,73,AS,adaptive,33,↓,down,↓,0.5308030999731272,True,20,1,0,3
Y2-S2-137K20,-,74,AS,adaptive,42,→,right,→,0.6311709999572486,True,20,1,0,3
Y2-S2-137K20,-,75,AS,adaptive,26,←,left,←,0.9292036001570523,True,19,1,0,3
Y2-S2-137K20,-,76,AS,adaptive,45,↑,up,↑,0.5572897000238299,True,19,1,0,3
Y2-S2-137K20,-,77,AS,adaptive,34,→,right,→,1.1853079998400062,True,19,1,0,3
Y2-S2-137K20,-,78,AS,adaptive,47,↓,down,↓,1.1915757001843303,True,18,1,0,3
Y2-S2-137K20,-,79,AS,adaptive,32,→,right,→,0.5728392000310123,True,18,1,0,3
Y2-S2-137K20,-,80,AS,adaptive,27,↓,down,↓,0.5414680000394583,True,18,1,0,3
Y2-S2-137K20,-,81,AS,adaptive,33,←,left,←,0.6814015998970717,True,17,1,0,3
Y2-S2-137K20,-,82,AS,adaptive,49,→,right,→,0.6470015998929739,True,17,1,0,3
Y2-S2-137K20,-,83,AS,adaptive,29,↑,up,↑,0.4774863999336958,True,17,1,0,3
Y2-S2-137K20,-,84,AS,adaptive,50,↓,down,↓,1.1978180999867618,True,16,1,0,3
Y2-S2-137K20,-,85,AS,adaptive,28,↑,up,↑,0.6717091000173241,True,16,1,0,3
Y2-S2-137K20,-,86,AS,adaptive,29,→,right,→,0.4722617999650538,True,16,1,0,3
Y2-S2-137K20,-,87,AS,adaptive,26,↓,down,↓,1.0923922001384199,True,15,1,0,3
Y2-S2-137K20,-,88,AS,adaptive,35,↑,left,←,0.7133514999877661,False,15,-1,1,4
Y2-S2-137K20,1,89,PS,intra_train,48,↓,left,←,0.9219477998558432,False,19,-,-,-
Y2-S2-137K20,1,90,PS,intra_train,36,↑,up,↑,0.9749993998557329,True,19,-,-,-
Y2-S2-137K20,1,91,PS,intra_train,37,→,right,→,0.38453230005688965,True,19,-,-,-
Y2-S2-137K20,1,92,PS,intra_train,33,↑,up,↑,0.40096379979513586,True,19,-,-,-
Y2-S2-137K20,1,93,PS,intra_train,45,→,right,→,0.4006209000945091,True,19,-,-,-
Y2-S2-137K20,1,94,PS,exp,42,↓,down,↓,0.5279415999539196,True,13,0,0,0
Y2-S2-137K20,1,95,PS,exp,48,←,left,←,0.6396835998166353,True,13,0,0,0
Y2-S2-137K20,1,96,PS,exp,30,→,right,→,0.47552750003524125,True,13,1,0,0
Y2-S2-137K20,1,97,PS,exp,26,←,left,←,1.088590000057593,True,12,1,0,0
Y2-S2-137K20,1,98,PS,exp,37,→,right,→,1.0142900000791997,True,12,1,0,0
Y2-S2-137K20,1,99,PS,exp,43,↓,right,→,0.5626177999656647,False,12,-1,1,1
Y2-S2-137K20,1,100,PS,exp,39,↑,up,↑,0.4767200001515448,True,13,-1,0,1
Y2-S2-137K20,1,101,PS,exp,49,↓,left,←,0.7109250000212342,False,13,-1,0,1
Y2-S2-137K20,1,102,PS,exp,29,←,right,→,0.5736060000490397,False,14,-1,0,1
Y2-S2-137K20,1,103,PS,exp,35,→,up,↑,0.5962478001601994,False,15,-1,0,1
Y2-S2-137K20,1,104,PS,exp,44,↑,up,↑,1.3134631998836994,True,16,-1,0,1
Y2-S2-137K20,1,105,PS,exp,39,←,left,←,0.4644728999119252,True,16,-1,0,1
Y2-S2-137K20,1,106,PS,exp,45,↓,down,↓,0.5234370999969542,True,16,1,1,2
Y2-S2-137K20,1,107,PS,exp,43,→,right,→,0.5255787000060081,True,15,1,0,2
Y2-S2-137K20,1,108,PS,exp,47,←,left,←,0.5237352000549436,True,15,1,0,2
Y2-S2-137K20,1,109,PS,exp,26,→,right,→,0.7132451999932528,True,15,1,0,2
Y2-S2-137K20,1,110,PS,exp,26,←,left,←,0.4477311000227928,True,14,1,0,2
Y2-S2-137K20,1,111,PS,exp,41,↑,up,↑,0.4258211001288146,True,14,1,0,2
Y2-S2-137K20,1,112,PS,exp,44,↓,right,→,0.43384379986673594,False,14,-1,1,3
Y2-S2-137K20,1,113,PS,exp,34,←,left,←,0.508359800092876,True,15,-1,0,3
Y2-S2-137K20,1,114,PS,exp,40,→,right,→,0.43205860001035035,True,15,-1,0,3
Y2-S2-137K20,1,115,PS,exp,49,←,right,→,0.7233489002101123,False,15,-1,0,3
Y2-S2-137K20,1,116,PS,exp,26,→,left,←,0.7894538000691682,False,16,-1,0,3
Y2-S2-137K20,1,117,PS,exp,44,←,left,←,0.6081918999552727,True,17,-1,0,3
Y2-S2-137K20,1,118,PS,exp,32,↑,up,↑,0.4172943001613021,True,17,-1,0,3
Y2-S2-137K20,1,119,PS,exp,30,→,right,→,0.3674047999083996,True,17,1,1,4
Y2-S2-137K20,1,120,PS,exp,30,←,left,←,0.49395859986543655,True,16,1,0,4
Y2-S2-137K20,1,121,PS,exp,26,↓,down,↓,0.541058799950406,True,16,1,0,4
Y2-S2-137K20,1,122,PS,exp,43,→,right,→,1.1059097000397742,True,16,1,0,4
Y2-S2-137K20,1,123,PS,exp,36,↑,up,↑,0.9152267999015749,True,15,1,0,4
Y2-S2-137K20,1,124,PS,exp,48,←,left,←,0.5257067999336869,True,15,1,0,4
Y2-S2-137K20,1,125,PS,exp,43,↑,up,↑,0.9374116000253707,True,15,1,0,4
Y2-S2-137K20,1,126,PS,exp,50,→,right,→,0.6957896999083459,True,14,1,0,4
Y2-S2-137K20,1,127,PS,exp,35,↓,down,↓,0.5293636000715196,True,14,1,0,4
Y2-S2-137K20,1,128,PS,exp,37,↑,up,↑,0.40771750011481345,True,14,1,0,4
Y2-S2-137K20,1,129,PS,exp,32,↓,right,→,0.5429831999354064,False,13,-1,1,5
Y2-S2-137K20,1,130,PS,exp,47,←,left,←,0.36732099996879697,True,14,-1,0,5
Y2-S2-137K20,1,131,PS,exp,42,→,right,→,0.5113113999832422,True,14,-1,0,5
Y2-S2-137K20,1,132,PS,exp,29,↓,down,↓,0.511012600036338,True,14,1,1,6
Y2-S2-137K20,1,133,PS,exp,26,→,right,→,0.44189089979045093,True,13,1,0,6
Y2-S2-137K20,1,134,PS,exp,38,↑,right,→,0.5142886999528855,False,13,-1,1,7
Y2-S2-137K20,1,135,PS,exp,39,↓,down,↓,0.6733889998868108,True,14,-1,0,7
Y2-S2-137K20,1,136,PS,exp,47,→,right,→,0.8589353999122977,True,14,-1,0,7
Y2-S2-137K20,1,137,PS,exp,46,←,left,←,0.6441757001448423,True,14,1,1,8
Y2-S2-137K20,1,138,PS,exp,45,↓,down,↓,0.39082240010611713,True,13,1,0,8
Y2-S2-137K20,1,139,PS,exp,35,→,right,→,0.39017549995332956,True,13,1,0,8
Y2-S2-137K20,1,140,PS,exp,36,←,left,←,0.5001036000903696,True,13,1,0,8
Y2-S2-137K20,1,141,PS,exp,47,↑,up,↑,0.517061399994418,True,12,1,0,8
Y2-S2-137K20,1,142,PS,exp,28,←,right,→,0.5688620998989791,False,12,-1,1,9
Y2-S2-137K20,1,143,PS,exp,27,↑,up,↑,0.42236860003322363,True,13,-1,0,9
Y2-S2-137K20,1,144,PS,exp,45,↓,down,↓,0.42468210007064044,True,13,-1,0,9
Y2-S2-137K20,1,145,PS,exp,27,↑,up,↑,0.6324134999886155,True,13,1,1,10
Y2-S2-137K20,1,146,PS,exp,50,→,right,→,0.4783171000890434,True,12,1,0,10
Y2-S2-137K20,1,147,PS,exp,26,↑,up,↑,0.3728819000534713,True,12,1,0,10
Y2-S2-137K20,1,148,PS,exp,38,↓,down,↓,0.6677823001518846,True,12,1,0,10
Y2-S2-137K20,1,149,PS,exp,40,←,right,→,0.5467008999548852,False,11,-1,1,11
Y2-S2-137K20,1,150,PS,exp,28,↑,right,→,0.41367250005714595,False,12,-1,0,11
Y2-S2-137K20,1,151,PS,exp,39,←,left,←,0.4835111000575125,True,13,-1,0,11
Y2-S2-137K20,1,152,PS,exp,25,↓,down,↓,0.4140792000107467,True,13,-1,0,11
Y2-S2-137K20,1,153,PS,exp,47,→,right,→,0.3915041999425739,True,13,1,1,12
Y2-S2-137K20,1,154,PS,exp,26,↑,up,↑,0.4031285000964999,True,12,1,0,12
Y2-S2-137K20,1,155,PS,exp,33,→,right,→,0.37462609983049333,True,12,1,0,12
Y2-S2-137K20,1,156,PS,exp,30,↑,up,↑,0.4252904001623392,True,12,1,0,12
Y2-S2-137K20,1,157,PS,exp,42,←,left,←,0.6969787999987602,True,11,1,0,12
Y2-S2-137K20,1,158,PS,exp,38,↓,down,↓,0.39512789994478226,True,11,1,0,12
Y2-S2-137K20,1,159,PS,exp,47,←,left,←,0.517406800063327,True,11,1,0,12
Y2-S2-137K20,1,160,PS,exp,38,→,right,→,0.4859176999889314,True,10,1,0,12
Y2-S2-137K20,1,161,PS,exp,33,←,right,→,0.573983300011605,False,10,-1,1,13
Y2-S2-137K20,1,162,PS,exp,28,↓,down,↓,0.42877360014244914,True,11,-1,0,13
Y2-S2-137K20,1,163,PS,exp,44,→,right,→,0.3647211000788957,True,11,-1,0,13
Y2-S2-137K20,1,164,PS,exp,42,↓,right,→,0.4275065001565963,False,11,-1,0,13
Y2-S2-137K20,1,165,PS,exp,39,↑,up,↑,0.42835630010813475,True,12,-1,0,13
Y2-S2-137K20,1,166,PS,exp,26,→,right,→,0.4768986999988556,True,12,-1,0,13
Y2-S2-137K20,1,167,PS,exp,46,←,left,←,0.7111528001260012,True,12,1,1,14
Y2-S2-137K20,1,168,PS,exp,29,→,down,↓,0.6072384999133646,False,11,-1,1,15
Y2-S2-137K20,1,169,PS,exp,40,↑,up,↑,0.4303335000295192,True,12,-1,0,15
Y2-S2-137K20,1,170,PS,exp,42,←,right,→,0.39897360000759363,False,12,-1,0,15
Y2-S2-137K20,1,171,PS,exp,31,→,right,→,0.45954559999518096,True,13,-1,0,15
Y2-S2-137K20,1,172,PS,exp,31,↑,right,→,0.5188273000530899,False,13,-1,0,15
Y2-S2-137K20,1,173,PS,exp,26,←,left,←,0.5170505000278354,True,14,-1,0,15
Y2-S2-137K20,1,174,PS,exp,37,↑,up,↑,0.8991777999326587,True,14,-1,0,15
Y2-S2-137K20,1,175,PS,exp,48,←,left,←,0.5446534000802785,True,14,1,1,16
Y2-S2-137K20,2,176,AS,intra_train,45,→,right,→,0.607611799845472,True,24,-,-,-
Y2-S2-137K20,2,177,AS,intra_train,33,↓,right,→,0.6046509998850524,False,24,-,-,-
Y2-S2-137K20,2,178,AS,intra_train,35,→,right,→,0.7140452000312507,True,24,-,-,-
Y2-S2-137K20,2,179,AS,intra_train,34,↓,down,↓,0.6142823998816311,True,24,-,-,-
Y2-S2-137K20,2,180,AS,intra_train,25,←,left,←,0.7932883999310434,True,24,-,-,-
Y2-S2-137K20,2,181,AS,exp,33,→,left,←,0.7798467001412064,False,16,-1,0,0
Y2-S2-137K20,2,182,AS,exp,43,↑,up,↑,0.48616089997813106,True,17,-1,0,0
Y2-S2-137K20,2,183,AS,exp,28,→,right,→,0.9219611000735313,True,17,-1,0,0
Y2-S2-137K20,2,184,AS,exp,43,↓,right,→,0.8801253000274301,False,17,-1,0,0
Y2-S2-137K20,2,185,AS,exp,36,←,left,←,0.6362375998869538,True,18,-1,0,0
Y2-S2-137K20,2,186,AS,exp,49,↑,up,↑,0.5852248000446707,True,18,-1,0,0
Y2-S2-137K20,2,187,AS,exp,50,↓,right,→,0.4929796999786049,False,18,-1,0,0
Y2-S2-137K20,2,188,AS,exp,42,←,left,←,0.5379520999267697,True,19,-1,0,0
Y2-S2-137K20,2,189,AS,exp,25,↑,up,↑,0.6605297999922186,True,19,-1,0,0
Y2-S2-137K20,2,190,AS,exp,45,→,right,→,0.837306700181216,True,19,1,1,1
Y2-S2-137K20,2,191,AS,exp,40,↓,down,↓,0.4341518001165241,True,18,1,0,1
Y2-S2-137K20,2,192,AS,exp,33,→,right,→,0.5427190000191331,True,18,1,0,1
Y2-S2-137K20,2,193,AS,exp,50,←,left,←,0.6210902000311762,True,18,1,0,1
Y2-S2-137K20,2,194,AS,exp,47,↓,down,↓,0.7416625001933426,True,17,1,0,1
Y2-S2-137K20,2,195,AS,exp,33,→,right,→,0.4171879000496119,True,17,1,0,1
Y2-S2-137K20,2,196,AS,exp,50,←,left,←,0.6128271999768913,True,17,1,0,1
Y2-S2-137K20,2,197,AS,exp,28,↑,right,→,0.7806584001518786,False,16,-1,1,2
Y2-S2-137K20,2,198,AS,exp,37,→,right,→,0.47947899997234344,True,17,-1,0,2
Y2-S2-137K20,2,199,AS,exp,49,↓,right,→,0.7529569000471383,False,17,-1,0,2
Y2-S2-137K20,2,200,AS,exp,33,↑,right,→,0.6822483001742512,False,18,-1,0,2
Y2-S2-137K20,2,201,AS,exp,31,↓,down,↓,0.7846842999570072,True,19,-1,0,2
Y2-S2-137K20,2,202,AS,exp,25,↑,up,↑,0.4173008999787271,True,19,-1,0,2
Y2-S2-137K20,2,203,AS,exp,43,→,right,→,0.5979891000315547,True,19,1,1,3
Y2-S2-137K20,2,204,AS,exp,26,↓,down,↓,0.49647710006684065,True,18,1,0,3
Y2-S2-137K20,2,205,AS,exp,33,←,left,←,0.8039629000704736,True,18,1,0,3
Y2-S2-137K20,2,206,AS,exp,50,↓,down,↓,0.5366243999451399,True,18,1,0,3
Y2-S2-137K20,2,207,AS,exp,28,→,right,→,0.6149919000454247,True,17,1,0,3
Y2-S2-137K20,2,208,AS,exp,28,↑,up,↑,0.5298014001455158,True,17,1,0,3
Y2-S2-137K20,2,209,AS,exp,29,↓,up,↑,0.762819399824366,False,17,-1,1,4
Y2-S2-137K20,2,210,AS,exp,29,←,left,←,0.6232576998881996,True,18,-1,0,4
Y2-S2-137K20,2,211,AS,exp,46,→,right,→,0.43403039989061654,True,18,-1,0,4
Y2-S2-137K20,2,212,AS,exp,44,↑,up,↑,0.4337897999212146,True,18,1,1,5
Y2-S2-137K20,2,213,AS,exp,30,↓,down,↓,0.5889788998756558,True,17,1,0,5
Y2-S2-137K20,2,214,AS,exp,45,→,right,→,0.33389450004324317,True,17,1,0,5
Y2-S2-137K20,2,215,AS,exp,27,↑,up,↑,0.3838969001080841,True,17,1,0,5
Y2-S2-137K20,2,216,AS,exp,36,←,down,↓,0.7312749999109656,False,16,-1,1,6
Y2-S2-137K20,2,217,AS,exp,40,↑,up,↑,0.41713690012693405,True,17,-1,0,6
Y2-S2-137K20,2,218,AS,exp,47,←,left,←,0.9167289000470191,True,17,-1,0,6
Y2-S2-137K20,2,219,AS,exp,28,↑,right,→,0.5686403000727296,False,17,-1,0,6
Y2-S2-137K20,2,220,AS,exp,29,→,right,→,0.7173971999436617,True,18,-1,0,6
Y2-S2-137K20,2,221,AS,exp,49,↑,up,↑,0.7817873999010772,True,18,-1,0,6
Y2-S2-137K20,2,222,AS,exp,43,↓,right,→,0.7193424999713898,False,18,-1,0,6
Y2-S2-137K20,2,223,AS,exp,37,→,right,→,0.4504259000532329,True,19,-1,0,6
Y2-S2-137K20,2,224,AS,exp,37,↑,up,↑,0.40075940010137856,True,19,-1,0,6
Y2-S2-137K20,2,225,AS,exp,28,→,right,→,0.5784750999882817,True,19,1,1,7
Y2-S2-137K20,2,226,AS,exp,31,↓,down,↓,0.5258925999514759,True,18,1,0,7
Y2-S2-137K20,2,227,AS,exp,39,←,left,←,0.7121101000811905,True,18,1,0,7
Y2-S2-137K20,2,228,AS,exp,46,→,right,→,0.7576341999229044,True,18,1,0,7
Y2-S2-137K20,2,229,AS,exp,42,↓,down,↓,0.46361730014905334,True,17,1,0,7
Y2-S2-137K20,2,230,AS,exp,33,→,right,→,0.6202560998499393,True,17,1,0,7
Y2-S2-137K20,2,231,AS,exp,31,↑,up,↑,0.4172157000284642,True,17,1,0,7
Y2-S2-137K20,2,232,AS,exp,46,→,right,→,1.430730699794367,True,16,1,0,7
Y2-S2-137K20,2,233,AS,exp,35,←,left,←,0.7991740999277681,True,16,1,0,7
Y2-S2-137K20,2,234,AS,exp,50,→,left,←,0.7024354999884963,False,16,-1,1,8
Y2-S2-137K20,2,235,AS,exp,37,←,left,←,0.6735222998540848,True,17,-1,0,8
Y2-S2-137K20,2,236,AS,exp,28,↓,down,↓,0.45917119993828237,True,17,-1,0,8
Y2-S2-137K20,2,237,AS,exp,39,→,right,→,0.6742950999177992,True,17,1,1,9
Y2-S2-137K20,2,238,AS,exp,28,←,left,←,0.613128799945116,True,16,1,0,9
Y2-S2-137K20,2,239,AS,exp,39,→,left,←,0.7306221998296678,False,16,-1,1,10
Y2-S2-137K20,2,240,AS,exp,37,↓,down,↓,0.455583400093019,True,17,-1,0,10
Y2-S2-137K20,2,241,AS,exp,45,→,right,→,1.0832979998085648,True,17,-1,0,10
Y2-S2-137K20,2,242,AS,exp,40,↑,left,←,0.7418246001470834,False,17,-1,0,10
Y2-S2-137K20,2,243,AS,exp,42,←,right,→,0.5551015001256019,False,18,-1,0,10
Y2-S2-137K20,2,244,AS,exp,30,↑,up,↑,0.8821150998119265,True,19,-1,0,10
Y2-S2-137K20,2,245,AS,exp,47,↓,down,↓,1.856724000070244,True,19,-1,0,10
Y2-S2-137K20,2,246,AS,exp,29,→,right,→,0.45025220001116395,True,19,1,1,11
Y2-S2-137K20,2,247,AS,exp,32,↑,up,↑,0.6244039998855442,True,18,1,0,11
Y2-S2-137K20,2,248,AS,exp,42,←,left,←,0.47587490011937916,True,18,1,0,11
Y2-S2-137K20,2,249,AS,exp,43,→,left,←,0.8168427001219243,False,18,-1,1,12
Y2-S2-137K20,2,250,AS,exp,25,↑,up,↑,1.235135099850595,True,19,-1,0,12
Y2-S2-137K20,2,251,AS,exp,32,↓,down,↓,1.0004479999188334,True,19,-1,0,12
Y2-S2-137K20,2,252,AS,exp,31,→,left,←,0.6900184000842273,False,19,-1,0,12
Y2-S2-137K20,2,253,AS,exp,31,←,left,←,0.5550186999607831,True,20,-1,0,12
Y2-S2-137K20,2,254,AS,exp,45,→,right,→,0.3839394999668002,True,20,-1,0,12
Y2-S2-137K20,2,255,AS,exp,26,↓,down,↓,0.6689367999788374,True,20,1,1,13
Y2-S2-137K20,2,256,AS,exp,31,→,right,→,0.41755360015667975,True,19,1,0,13
Y2-S2-137K20,2,257,AS,exp,46,←,left,←,0.796980399871245,True,19,1,0,13
Y2-S2-137K20,2,258,AS,exp,45,→,right,→,0.6483392999507487,True,19,1,0,13
Y2-S2-137K20,2,259,AS,exp,30,←,left,←,0.46766279987059534,True,18,1,0,13
Y2-S2-137K20,2,260,AS,exp,33,→,right,→,0.4697556998580694,True,18,1,0,13
Y2-S2-137K20,2,261,AS,exp,27,↑,up,↑,0.5341501999646425,True,18,1,0,13
Y2-S2-137K20,2,262,AS,exp,43,←,left,←,1.087655199924484,True,17,1,0,13
Y2-S2-137K20,2,263,AS,exp,46,↑,up,↑,0.4622494999784976,True,17,1,0,13
Y2-S2-137K20,2,264,AS,exp,45,↓,left,←,0.6222165001090616,False,17,-1,1,14
Y2-S2-137K20,2,265,AS,exp,49,→,right,→,0.6485035999212414,True,18,-1,0,14
Y2-S2-137K20,2,266,AS,exp,37,↓,down,↓,0.7398886999581009,True,18,-1,0,14
Y2-S2-137K20,2,267,AS,exp,38,←,left,←,0.5605202000588179,True,18,1,1,15
Y2-S2-137K20,2,268,AS,exp,25,→,right,→,0.49054770008660853,True,17,1,0,15
Y2-S2-137K20,2,269,AS,exp,29,↓,down,↓,0.5265633999370039,True,17,1,0,15
Y2-S2-137K20,2,270,AS,exp,31,→,up,↑,0.9431038000620902,False,17,-1,1,16
Y2-S2-137K20,3,271,AS,intra_train,42,↓,down,↓,0.5006517998408526,True,24,-,-,-
Y2-S2-137K20,3,272,AS,intra_train,41,→,right,→,1.2080884999595582,True,24,-,-,-
Y2-S2-137K20,3,273,AS,intra_train,29,↑,up,↑,0.6574595000129193,True,24,-,-,-
Y2-S2-137K20,3,274,AS,intra_train,37,↓,down,↓,0.46722289989702404,True,24,-,-,-
Y2-S2-137K20,3,275,AS,intra_train,44,→,right,→,0.6707354998216033,True,24,-,-,-
Y2-S2-137K20,3,276,AS,exp,32,↓,down,↓,0.44473999994806945,True,16,0,0,0
Y2-S2-137K20,3,277,AS,exp,35,↑,down,↓,0.8614922999404371,False,16,-1,0,0
Y2-S2-137K20,3,278,AS,exp,45,↓,down,↓,0.5003116000443697,True,17,-1,0,0
Y2-S2-137K20,3,279,AS,exp,31,→,right,→,0.617169399978593,True,17,-1,0,0
Y2-S2-137K20,3,280,AS,exp,35,↓,right,→,0.8219126998446882,False,17,-1,0,0
Y2-S2-137K20,3,281,AS,exp,47,→,right,→,0.4718617000617087,True,18,-1,0,0
Y2-S2-137K20,3,282,AS,exp,38,←,up,↑,0.7484085001051426,False,18,-1,0,0
Y2-S2-137K20,3,283,AS,exp,50,↓,down,↓,0.5398140999022871,True,19,-1,0,0
Y2-S2-137K20,3,284,AS,exp,49,↑,up,↑,0.7445991998538375,True,19,-1,0,0
Y2-S2-137K20,3,285,AS,exp,40,↓,down,↓,0.6848967999685556,True,19,1,1,1
Y2-S2-137K20,3,286,AS,exp,31,←,left,←,0.5273486999794841,True,18,1,0,1
Y2-S2-137K20,3,287,AS,exp,35,↑,right,→,0.7544098000507802,False,18,-1,1,2
Y2-S2-137K20,3,288,AS,exp,48,←,left,←,0.75723069999367,True,19,-1,0,2
Y2-S2-137K20,3,289,AS,exp,27,↑,up,↑,0.6168897999450564,True,19,-1,0,2
Y2-S2-137K20,3,290,AS,exp,33,→,right,→,0.6772080000955611,True,19,1,1,3
Y2-S2-137K20,3,291,AS,exp,25,↑,up,↑,0.43380720005370677,True,18,1,0,3
Y2-S2-137K20,3,292,AS,exp,38,↓,up,↑,0.7202057999093086,False,18,-1,1,4
Y2-S2-137K20,3,293,AS,exp,34,←,left,←,0.5970119999255985,True,19,-1,0,4
Y2-S2-137K20,3,294,AS,exp,40,↓,left,←,0.6878678998909891,False,19,-1,0,4
Y2-S2-137K20,3,295,AS,exp,46,↑,up,↑,0.5679643999319524,True,20,-1,0,4
Y2-S2-137K20,3,296,AS,exp,31,←,right,→,0.43393560010008514,False,20,-1,0,4
Y2-S2-137K20,3,297,AS,exp,46,↓,down,↓,0.5582358001265675,True,21,-1,0,4
Y2-S2-137K20,3,298,AS,exp,35,→,left,←,0.5660035000182688,False,21,-1,0,4
Y2-S2-137K20,3,299,AS,exp,36,↑,up,↑,0.48401249991729856,True,22,-1,0,4
Y2-S2-137K20,3,300,AS,exp,35,←,left,←,0.6007290000561625,True,22,-1,0,4
Y2-S2-137K20,3,301,AS,exp,42,→,right,→,0.6463340998161584,True,22,1,1,5
Y2-S2-137K20,3,302,AS,exp,36,↓,down,↓,0.5219306999351829,True,21,1,0,5
Y2-S2-137K20,3,303,AS,exp,38,←,left,←,1.163428399944678,True,21,1,0,5
Y2-S2-137K20,3,304,AS,exp,48,→,right,→,0.6726392998825759,True,21,1,0,5
Y2-S2-137K20,3,305,AS,exp,43,←,left,←,0.4338572998531163,True,20,1,0,5
Y2-S2-137K20,3,306,AS,exp,41,↑,up,↑,0.43429560004733503,True,20,1,0,5
Y2-S2-137K20,3,307,AS,exp,26,↓,down,↓,0.8370175999589264,True,20,1,0,5
Y2-S2-137K20,3,308,AS,exp,35,→,right,→,0.6395681998692453,True,19,1,0,5
Y2-S2-137K20,3,309,AS,exp,45,←,left,←,0.7403785998467356,True,19,1,0,5
Y2-S2-137K20,3,310,AS,exp,25,↑,up,↑,0.5719993999227881,True,19,1,0,5
Y2-S2-137K20,3,311,AS,exp,27,→,left,←,1.2543734000064433,False,18,-1,1,6
Y2-S2-137K20,3,312,AS,exp,35,↓,down,↓,0.7207132000476122,True,19,-1,0,6
Y2-S2-137K20,3,313,AS,exp,43,↑,up,↑,0.611429100157693,True,19,-1,0,6
Y2-S2-137K20,3,314,AS,exp,33,←,left,←,0.589408699888736,True,19,1,1,7
Y2-S2-137K20,3,315,AS,exp,25,↓,down,↓,0.697175299981609,True,18,1,0,7
Y2-S2-137K20,3,316,AS,exp,39,→,right,→,1.0316248000599444,True,18,1,0,7
Y2-S2-137K20,3,317,AS,exp,40,←,down,↓,0.7512019001878798,False,18,-1,1,8
Y2-S2-137K20,3,318,AS,exp,34,→,right,→,0.7558941000606865,True,19,-1,0,8
Y2-S2-137K20,3,319,AS,exp,41,↑,up,↑,0.417171600041911,True,19,-1,0,8
Y2-S2-137K20,3,320,AS,exp,31,↓,down,↓,0.6135917000938207,True,19,1,1,9
Y2-S2-137K20,3,321,AS,exp,42,↑,up,↑,0.5069528999738395,True,18,1,0,9
Y2-S2-137K20,3,322,AS,exp,48,→,left,←,0.6787692999932915,False,18,-1,1,10
Y2-S2-137K20,3,323,AS,exp,34,↑,up,↑,0.5928154001012444,True,19,-1,0,10
Y2-S2-137K20,3,324,AS,exp,34,↓,down,↓,1.1571057999972254,True,19,-1,0,10
Y2-S2-137K20,3,325,AS,exp,36,→,left,←,0.7140142000280321,False,19,-1,0,10
Y2-S2-137K20,3,326,AS,exp,48,↓,down,↓,0.5841902999673039,True,20,-1,0,10
Y2-S2-137K20,3,327,AS,exp,31,↑,up,↑,0.5924983001314104,True,20,-1,0,10
Y2-S2-137K20,3,328,AS,exp,31,↓,down,↓,0.528215599944815,True,20,1,1,11
Y2-S2-137K20,3,329,AS,exp,27,↑,left,←,0.6065557000692934,False,19,-1,1,12
Y2-S2-137K20,3,330,AS,exp,42,↓,down,↓,0.5096655001398176,True,20,-1,0,12
Y2-S2-137K20,3,331,AS,exp,40,←,left,←,0.4008579000364989,True,20,-1,0,12
Y2-S2-137K20,3,332,AS,exp,35,↑,left,←,0.5593939002137631,False,20,-1,0,12
Y2-S2-137K20,3,333,AS,exp,27,→,right,→,0.451255900086835,True,21,-1,0,12
Y2-S2-137K20,3,334,AS,exp,49,↑,left,←,0.6540785999968648,False,21,-1,0,12
Y2-S2-137K20,3,335,AS,exp,42,↓,down,↓,0.7668083999305964,True,22,-1,0,12
Y2-S2-137K20,3,336,AS,exp,47,↑,up,↑,0.35056890011765063,True,22,-1,0,12
Y2-S2-137K20,3,337,AS,exp,46,↓,down,↓,0.4504905000794679,True,22,1,1,13
Y2-S2-137K20,3,338,AS,exp,47,←,left,←,0.4008158000651747,True,21,1,0,13
Y2-S2-137K20,3,339,AS,exp,26,→,right,→,1.2266458000522107,True,21,1,0,13
Y2-S2-137K20,3,340,AS,exp,39,←,left,←,1.0719767999835312,True,21,1,0,13
Y2-S2-137K20,3,341,AS,exp,50,↓,down,↓,0.5668470000382513,True,20,1,0,13
Y2-S2-137K20,3,342,AS,exp,39,→,right,→,0.9902882999740541,True,20,1,0,13
Y2-S2-137K20,3,343,AS,exp,31,↓,down,↓,1.1192994001321495,True,20,1,0,13
Y2-S2-137K20,3,344,AS,exp,33,←,left,←,0.4856064999476075,True,19,1,0,13
Y2-S2-137K20,3,345,AS,exp,28,→,right,→,0.41730380011722445,True,19,1,0,13
Y2-S2-137K20,3,346,AS,exp,27,↓,left,←,0.7368148998357356,False,19,-1,1,14
Y2-S2-137K20,3,347,AS,exp,49,←,left,←,0.4509252000134438,True,20,-1,0,14
Y2-S2-137K20,3,348,AS,exp,31,↑,up,↑,0.8557925999630243,True,20,-1,0,14
Y2-S2-137K20,3,349,AS,exp,30,←,left,←,0.5532297000754625,True,20,1,1,15
Y2-S2-137K20,3,350,AS,exp,40,→,right,→,0.4005938998889178,True,19,1,0,15
Y2-S2-137K20,3,351,AS,exp,43,←,left,←,0.6517779000569135,True,19,1,0,15
Y2-S2-137K20,3,352,AS,exp,49,↑,left,←,0.5345534000080079,False,19,-1,1,16
Y2-S2-137K20,4,353,PS,intra_train,33,←,left,←,1.424529999960214,True,19,-,-,-
Y2-S2-137K20,4,354,PS,intra_train,30,↓,down,↓,0.5202991999685764,True,19,-,-,-
Y2-S2-137K20,4,355,PS,intra_train,34,←,left,←,0.6912082000635564,True,19,-,-,-
Y2-S2-137K20,4,356,PS,intra_train,32,↑,up,↑,1.1995770998764783,True,19,-,-,-
Y2-S2-137K20,4,357,PS,intra_train,25,←,left,←,0.5795988999307156,True,19,-,-,-
Y2-S2-137K20,4,358,PS,exp,30,↓,down,↓,0.515368000138551,True,13,0,0,0
Y2-S2-137K20,4,359,PS,exp,37,→,right,→,0.6586782999802381,True,13,0,0,0
Y2-S2-137K20,4,360,PS,exp,37,↓,down,↓,0.4712360000703484,True,13,1,0,0
Y2-S2-137K20,4,361,PS,exp,32,→,right,→,0.6192185999825597,True,12,1,0,0
Y2-S2-137K20,4,362,PS,exp,45,↑,up,↑,0.44290110003203154,True,12,1,0,0
Y2-S2-137K20,4,363,PS,exp,49,←,right,→,0.5051226001232862,False,12,-1,1,1
Y2-S2-137K20,4,364,PS,exp,37,→,right,→,0.42413080018013716,True,13,-1,0,1
Y2-S2-137K20,4,365,PS,exp,45,↑,up,↑,0.4304347999859601,True,13,-1,0,1
Y2-S2-137K20,4,366,PS,exp,25,←,up,↑,0.6490380000323057,False,13,-1,0,1
Y2-S2-137K20,4,367,PS,exp,31,→,right,→,0.5395180000923574,True,14,-1,0,1
Y2-S2-137K20,4,368,PS,exp,42,↑,right,→,0.5201538000255823,False,14,-1,0,1
Y2-S2-137K20,4,369,PS,exp,30,←,left,←,0.44982539978809655,True,15,-1,0,1
Y2-S2-137K20,4,370,PS,exp,50,↑,up,↑,0.5142752998508513,True,15,-1,0,1
Y2-S2-137K20,4,371,PS,exp,37,→,right,→,0.4462776998989284,True,15,1,1,2
Y2-S2-137K20,4,372,PS,exp,39,↓,left,←,0.515893500065431,False,14,-1,1,3
Y2-S2-137K20,4,373,PS,exp,47,←,left,←,0.6469499999657273,True,15,-1,0,3
Y2-S2-137K20,4,374,PS,exp,26,↓,left,←,0.7652382999658585,False,15,-1,0,3
Y2-S2-137K20,4,375,PS,exp,37,→,right,→,0.48473710007965565,True,16,-1,0,3
Y2-S2-137K20,4,376,PS,exp,40,↓,no_key,no_letter,-1.0,False,16,-1,0,3
Y2-S2-137K20,4,377,PS,exp,50,←,left,←,0.45638790004886687,True,17,-1,0,3
Y2-S2-137K20,4,378,PS,exp,37,→,right,→,1.0180329999420792,True,17,-1,0,3
Y2-S2-137K20,4,379,PS,exp,46,←,left,←,0.888709899969399,True,17,1,1,4
Y2-S2-137K20,4,380,PS,exp,29,↓,left,←,0.7021804999094456,False,16,-1,1,5
Y2-S2-137K20,4,381,PS,exp,48,↑,up,↑,0.49087180010974407,True,17,-1,0,5
Y2-S2-137K20,4,382,PS,exp,34,←,left,←,0.8079848999623209,True,17,-1,0,5
Y2-S2-137K20,4,383,PS,exp,30,↑,right,→,0.5581547000911087,False,17,-1,0,5
Y2-S2-137K20,4,384,PS,exp,37,→,right,→,0.41739639989100397,True,18,-1,0,5
Y2-S2-137K20,4,385,PS,exp,25,←,left,←,0.7902655000798404,True,18,-1,0,5
Y2-S2-137K20,4,386,PS,exp,30,↓,down,↓,0.4762374998535961,True,18,1,1,6
Y2-S2-137K20,4,387,PS,exp,50,→,right,→,0.47695109993219376,True,17,1,0,6
Y2-S2-137K20,4,388,PS,exp,26,←,left,←,0.4172463999129832,True,17,1,0,6
Y2-S2-137K20,4,389,PS,exp,32,→,right,→,0.4947038998361677,True,17,1,0,6
Y2-S2-137K20,4,390,PS,exp,25,↓,right,→,0.585869399830699,False,16,-1,1,7
Y2-S2-137K20,4,391,PS,exp,33,←,left,←,0.7087821001186967,True,17,-1,0,7
Y2-S2-137K20,4,392,PS,exp,25,↑,up,↑,0.8918402001727372,True,17,-1,0,7
Y2-S2-137K20,4,393,PS,exp,30,→,right,→,0.3673084999900311,True,17,1,1,8
Y2-S2-137K20,4,394,PS,exp,40,↓,right,→,0.5304537999909371,False,16,-1,1,9
Y2-S2-137K20,4,395,PS,exp,46,↑,up,↑,0.7118458999320865,True,17,-1,0,9
Y2-S2-137K20,4,396,PS,exp,45,←,left,←,0.5675880000926554,True,17,-1,0,9
Y2-S2-137K20,4,397,PS,exp,25,→,right,→,0.5605107999872416,True,17,1,1,10
Y2-S2-137K20,4,398,PS,exp,28,↓,down,↓,0.6346946998964995,True,16,1,0,10
Y2-S2-137K20,4,399,PS,exp,31,→,right,→,0.38323749997653067,True,16,1,0,10
Y2-S2-137K20,4,400,PS,exp,41,←,left,←,0.5527497001457959,True,16,1,0,10
Y2-S2-137K20,4,401,PS,exp,32,→,right,→,0.3839057998266071,True,15,1,0,10
Y2-S2-137K20,4,402,PS,exp,43,↓,down,↓,0.5165736000053585,True,15,1,0,10
Y2-S2-137K20,4,403,PS,exp,41,←,left,←,0.753839299781248,True,15,1,0,10
Y2-S2-137K20,4,404,PS,exp,31,↓,down,↓,0.5324007000308484,True,14,1,0,10
Y2-S2-137K20,4,405,PS,exp,32,↑,up,↑,0.9151692998129874,True,14,1,0,10
Y2-S2-137K20,4,406,PS,exp,40,→,right,→,0.451242099981755,True,14,1,0,10
Y2-S2-137K20,4,407,PS,exp,33,↑,up,↑,0.6485369000583887,True,13,1,0,10
Y2-S2-137K20,4,408,PS,exp,49,→,right,→,0.4900303001049906,True,13,1,0,10
Y2-S2-137K20,4,409,PS,exp,27,↑,up,↑,0.5346673999447376,True,13,1,0,10
Y2-S2-137K20,4,410,PS,exp,30,↓,down,↓,0.4522291000466794,True,12,1,0,10
Y2-S2-137K20,4,411,PS,exp,32,↑,up,↑,0.4686024999246001,True,12,1,0,10
Y2-S2-137K20,4,412,PS,exp,25,←,right,→,0.4926199000328779,False,12,-1,1,11
Y2-S2-137K20,4,413,PS,exp,46,↑,up,↑,0.38902610004879534,True,13,-1,0,11
Y2-S2-137K20,4,414,PS,exp,48,←,left,←,0.4424121000338346,True,13,-1,0,11
Y2-S2-137K20,4,415,PS,exp,39,↑,up,↑,0.9941823000553995,True,13,1,1,12
Y2-S2-137K20,4,416,PS,exp,43,←,left,←,0.4297038000077009,True,12,1,0,12
Y2-S2-137K20,4,417,PS,exp,45,↑,up,↑,0.8823886001482606,True,12,1,0,12
Y2-S2-137K20,4,418,PS,exp,50,←,left,←,0.39137960015796125,True,12,1,0,12
Y2-S2-137K20,4,419,PS,exp,40,↓,up,↑,0.6586841999087483,False,11,-1,1,13
Y2-S2-137K20,4,420,PS,exp,46,→,right,→,0.6819380999077111,True,12,-1,0,13
Y2-S2-137K20,4,421,PS,exp,27,↓,down,↓,0.709056899882853,True,12,-1,0,13
Y2-S2-137K20,4,422,PS,exp,33,←,left,←,0.4374325000680983,True,12,1,1,14
Y2-S2-137K20,4,423,PS,exp,50,↓,down,↓,0.6579032000154257,True,11,1,0,14
Y2-S2-137K20,4,424,PS,exp,26,→,right,→,0.5621646998915821,True,11,1,0,14
Y2-S2-137K20,4,425,PS,exp,46,↑,up,↑,0.6018842000048608,True,11,1,0,14
Y2-S2-137K20,4,426,PS,exp,36,←,left,←,0.4324105998966843,True,10,1,0,14
Y2-S2-137K20,4,427,PS,exp,33,→,right,→,0.4442676000762731,True,10,1,0,14
Y2-S2-137K20,4,428,PS,exp,48,↓,left,←,0.5636733998544514,False,10,-1,1,15
Y2-S2-137K20,4,429,PS,exp,33,←,right,→,0.4921549998689443,False,11,-1,0,15
Y2-S2-137K20,4,430,PS,exp,41,↑,up,↑,0.3903745000716299,True,12,-1,0,15
Y2-S2-137K20,4,431,PS,exp,37,→,right,→,0.6199046999681741,True,12,-1,0,15
Y2-S2-137K20,4,432,PS,exp,47,↓,left,←,0.762040400179103,False,12,-1,0,15
Y2-S2-137K20,4,433,PS,exp,28,↑,up,↑,0.39327150001190603,True,13,-1,0,15
Y2-S2-137K20,4,434,PS,exp,46,↓,down,↓,0.5816719001159072,True,13,-1,0,15
Y2-S2-137K20,4,435,PS,exp,40,←,left,←,0.6672408999875188,True,13,1,1,16
Y2-S2-137K20,5,436,PS,intra_train,29,↓,down,↓,0.4504261000547558,True,19,-,-,-
Y2-S2-137K20,5,437,PS,intra_train,26,←,left,←,0.5788942000363022,True,19,-,-,-
Y2-S2-137K20,5,438,PS,intra_train,42,→,right,→,0.5610062999185175,True,19,-,-,-
Y2-S2-137K20,5,439,PS,intra_train,38,↓,down,↓,0.5640207999385893,True,19,-,-,-
Y2-S2-137K20,5,440,PS,intra_train,34,←,left,←,0.41789639997296035,True,19,-,-,-
Y2-S2-137K20,5,441,PS,exp,36,→,right,→,0.9143135000485927,True,13,0,0,0
Y2-S2-137K20,5,442,PS,exp,34,←,no_key,no_letter,-1.0,False,13,-1,0,0
Y2-S2-137K20,5,443,PS,exp,40,↑,up,↑,1.8400397999212146,True,14,-1,0,0
Y2-S2-137K20,5,444,PS,exp,27,↓,down,↓,0.4607251000124961,True,14,-1,0,0
Y2-S2-137K20,5,445,PS,exp,49,↑,up,↑,0.40350909996777773,True,14,1,1,1
Y2-S2-137K20,5,446,PS,exp,35,→,right,→,0.5040359999984503,True,13,1,0,1
Y2-S2-137K20,5,447,PS,exp,39,←,left,←,0.48399599990807474,True,13,1,0,1
Y2-S2-137K20,5,448,PS,exp,27,↓,down,↓,0.5621102000586689,True,13,1,0,1
Y2-S2-137K20,5,449,PS,exp,39,→,right,→,0.5310007999651134,True,12,1,0,1
Y2-S2-137K20,5,450,PS,exp,30,↑,left,←,0.6510383998975158,False,12,-1,1,2
Y2-S2-137K20,5,451,PS,exp,43,→,right,→,0.3877224000170827,True,13,-1,0,2
Y2-S2-137K20,5,452,PS,exp,29,↑,left,←,0.5719012001063675,False,13,-1,0,2
Y2-S2-137K20,5,453,PS,exp,43,→,right,→,0.6203436001669616,True,14,-1,0,2
Y2-S2-137K20,5,454,PS,exp,25,↑,up,↑,1.624722900101915,True,14,-1,0,2
Y2-S2-137K20,5,455,PS,exp,36,→,right,→,0.5420880999881774,True,14,1,1,3
Y2-S2-137K20,5,456,PS,exp,50,←,left,←,0.8311252999119461,True,13,1,0,3
Y2-S2-137K20,5,457,PS,exp,30,→,right,→,0.4072942000348121,True,13,1,0,3
Y2-S2-137K20,5,458,PS,exp,44,↑,up,↑,0.407909199828282,True,13,1,0,3
Y2-S2-137K20,5,459,PS,exp,45,←,left,←,0.4154380999971181,True,12,1,0,3
Y2-S2-137K20,5,460,PS,exp,40,↓,right,→,0.3809696000535041,False,12,-1,1,4
Y2-S2-137K20,5,461,PS,exp,41,↑,right,→,0.38891940005123615,False,13,-1,0,4
Y2-S2-137K20,5,462,PS,exp,36,→,right,→,0.4621216000523418,True,14,-1,0,4
Y2-S2-137K20,5,463,PS,exp,42,←,left,←,0.4970458000898361,True,14,-1,0,4
Y2-S2-137K20,5,464,PS,exp,31,↑,up,↑,0.42044260003603995,True,14,1,1,5
Y2-S2-137K20,5,465,PS,exp,37,←,left,←,0.5467232000082731,True,13,1,0,5
Y2-S2-137K20,5,466,PS,exp,45,→,right,→,0.3935330000240356,True,13,1,0,5
Y2-S2-137K20,5,467,PS,exp,42,↑,left,←,0.31723459996283054,False,13,-1,1,6
Y2-S2-137K20,5,468,PS,exp,38,←,right,→,0.5038802002090961,False,14,-1,0,6
Y2-S2-137K20,5,469,PS,exp,34,→,right,→,0.6633134998846799,True,15,-1,0,6
Y2-S2-137K20,5,470,PS,exp,45,↓,left,←,0.38382919994182885,False,15,-1,0,6
Y2-S2-137K20,5,471,PS,exp,35,→,right,→,0.5954789000097662,True,16,-1,0,6
Y2-S2-137K20,5,472,PS,exp,25,↓,down,↓,0.4821822000667453,True,16,-1,0,6
Y2-S2-137K20,5,473,PS,exp,31,→,right,→,0.3673950999509543,True,16,1,1,7
Y2-S2-137K20,5,474,PS,exp,43,↑,up,↑,0.4199182998854667,True,15,1,0,7
Y2-S2-137K20,5,475,PS,exp,30,←,left,←,0.4464424999896437,True,15,1,0,7
Y2-S2-137K20,5,476,PS,exp,26,↑,up,↑,0.46550989989191294,True,15,1,0,7
Y2-S2-137K20,5,477,PS,exp,48,←,left,←,0.8480056999251246,True,14,1,0,7
Y2-S2-137K20,5,478,PS,exp,36,↓,no_key,no_letter,-1.0,False,14,-1,1,8
Y2-S2-137K20,5,479,PS,exp,25,↑,up,↑,0.4274705001153052,True,15,-1,0,8
Y2-S2-137K20,5,480,PS,exp,50,→,right,→,0.36788680008612573,True,15,-1,0,8
Y2-S2-137K20,5,481,PS,exp,33,↓,down,↓,0.44391079992055893,True,15,1,1,9
Y2-S2-137K20,5,482,PS,exp,44,↑,right,→,0.41511030006222427,False,14,-1,1,10
Y2-S2-137K20,5,483,PS,exp,35,→,right,→,0.4197005999740213,True,15,-1,0,10
Y2-S2-137K20,5,484,PS,exp,49,↓,down,↓,0.5383687999565154,True,15,-1,0,10
Y2-S2-137K20,5,485,PS,exp,35,↑,up,↑,0.5616933000274003,True,15,1,1,11
Y2-S2-137K20,5,486,PS,exp,33,←,left,←,0.6093876000959426,True,14,1,0,11
Y2-S2-137K20,5,487,PS,exp,41,↓,down,↓,1.3133392999880016,True,14,1,0,11
Y2-S2-137K20,5,488,PS,exp,39,←,left,←,0.4842979998793453,True,14,1,0,11
Y2-S2-137K20,5,489,PS,exp,30,↑,up,↑,0.43022139999084175,True,13,1,0,11
Y2-S2-137K20,5,490,PS,exp,34,→,right,→,0.7200211999006569,True,13,1,0,11
Y2-S2-137K20,5,491,PS,exp,43,↓,down,↓,0.5350629999302328,True,13,1,0,11
Y2-S2-137K20,5,492,PS,exp,41,↑,up,↑,0.799099899828434,True,12,1,0,11
Y2-S2-137K20,5,493,PS,exp,33,←,left,←,0.6065958000253886,True,12,1,0,11
Y2-S2-137K20,5,494,PS,exp,37,→,right,→,0.43234870000742376,True,12,1,0,11
Y2-S2-137K20,5,495,PS,exp,48,←,left,←,0.5046091000549495,True,11,1,0,11
Y2-S2-137K20,5,496,PS,exp,31,↓,left,←,0.8535837000235915,False,11,-1,1,12
Y2-S2-137K20,5,497,PS,exp,39,↑,right,→,0.6176696000620723,False,12,-1,0,12
Y2-S2-137K20,5,498,PS,exp,29,↓,down,↓,0.6551334999967366,True,13,-1,0,12
Y2-S2-137K20,5,499,PS,exp,44,←,left,←,0.6050207999069244,True,13,-1,0,12
Y2-S2-137K20,5,500,PS,exp,30,↑,up,↑,0.4420862998813391,True,13,1,1,13
Y2-S2-137K20,5,501,PS,exp,29,→,right,→,0.4762077000923455,True,12,1,0,13
Y2-S2-137K20,5,502,PS,exp,46,←,left,←,0.41266870009712875,True,12,1,0,13
Y2-S2-137K20,5,503,PS,exp,48,→,right,→,0.4406401999294758,True,12,1,0,13
Y2-S2-137K20,5,504,PS,exp,43,↓,right,→,0.5431490999180824,False,11,-1,1,14
Y2-S2-137K20,5,505,PS,exp,31,↑,up,↑,0.3941475998144597,True,12,-1,0,14
Y2-S2-137K20,5,506,PS,exp,26,←,right,→,0.6170644999947399,False,12,-1,0,14
Y2-S2-137K20,5,507,PS,exp,42,→,right,→,0.4186410999391228,True,13,-1,0,14
Y2-S2-137K20,5,508,PS,exp,39,↑,left,←,0.33396640000864863,False,13,-1,0,14
Y2-S2-137K20,5,509,PS,exp,29,←,left,←,0.6239078000653535,True,14,-1,0,14
Y2-S2-137K20,5,510,PS,exp,26,↓,down,↓,0.49567829980514944,True,14,-1,0,14
Y2-S2-137K20,5,511,PS,exp,39,↑,up,↑,0.8683005999773741,True,14,1,1,15
Y2-S2-137K20,5,512,PS,exp,28,↓,down,↓,0.48708110000006855,True,13,1,0,15
Y2-S2-137K20,5,513,PS,exp,48,←,left,←,0.4706145999953151,True,13,1,0,15
Y2-S2-137K20,5,514,PS,exp,46,↓,down,↓,0.5263112001121044,True,13,1,0,15
Y2-S2-137K20,5,515,PS,exp,44,→,right,→,0.5155811998993158,True,12,1,0,15
Y2-S2-137K20,5,516,PS,exp,47,↓,right,→,0.7356807999312878,False,12,-1,1,16
Y2-S2-137K20,6,517,AS,intra_train,32,↑,up,↑,0.6819656000006944,True,24,-,-,-
Y2-S2-137K20,6,518,AS,intra_train,37,↓,down,↓,0.6026132998522371,True,24,-,-,-
Y2-S2-137K20,6,519,AS,intra_train,45,↑,up,↑,0.46752210007980466,True,24,-,-,-
Y2-S2-137K20,6,520,AS,intra_train,28,→,right,→,0.5007915999740362,True,24,-,-,-
Y2-S2-137K20,6,521,AS,intra_train,48,←,left,←,0.8360339999198914,True,24,-,-,-
Y2-S2-137K20,6,522,AS,exp,43,↑,right,→,0.9820448998361826,False,16,-1,0,0
Y2-S2-137K20,6,523,AS,exp,29,→,down,↓,0.7848587001208216,False,17,-1,0,0
Y2-S2-137K20,6,524,AS,exp,46,←,left,←,0.7834783999715,True,18,-1,0,0
Y2-S2-137K20,6,525,AS,exp,43,↑,up,↑,0.7393483999185264,True,18,-1,0,0
Y2-S2-137K20,6,526,AS,exp,45,←,left,←,0.7548452999908477,True,18,1,1,1
Y2-S2-137K20,6,527,AS,exp,34,↓,down,↓,0.5035500000230968,True,17,1,0,1
Y2-S2-137K20,6,528,AS,exp,26,←,left,←,0.7159505002200603,True,17,1,0,1
Y2-S2-137K20,6,529,AS,exp,39,↑,up,↑,0.590602400014177,True,17,1,0,1
Y2-S2-137K20,6,530,AS,exp,38,↓,right,→,0.6880690997932106,False,16,-1,1,2
Y2-S2-137K20,6,531,AS,exp,25,←,left,←,0.5391887000296265,True,17,-1,0,2
Y2-S2-137K20,6,532,AS,exp,34,↑,up,↑,0.6113096000626683,True,17,-1,0,2
Y2-S2-137K20,6,533,AS,exp,43,↓,down,↓,0.5142783999908715,True,17,1,1,3
Y2-S2-137K20,6,534,AS,exp,25,←,left,←,0.44189859996549785,True,16,1,0,3
Y2-S2-137K20,6,535,AS,exp,45,↑,left,←,0.7181969999801368,False,16,-1,1,4
Y2-S2-137K20,6,536,AS,exp,46,←,left,←,0.6864263000898063,True,17,-1,0,4
Y2-S2-137K20,6,537,AS,exp,36,→,right,→,0.41699050017632544,True,17,-1,0,4
Y2-S2-137K20,6,538,AS,exp,29,←,left,←,0.47289140010252595,True,17,1,1,5
Y2-S2-137K20,6,539,AS,exp,40,→,left,←,0.6634171998593956,False,16,-1,1,6
Y2-S2-137K20,6,540,AS,exp,35,↑,up,↑,0.4007695000618696,True,17,-1,0,6
Y2-S2-137K20,6,541,AS,exp,48,←,left,←,0.5842239998746663,True,17,-1,0,6
Y2-S2-137K20,6,542,AS,exp,48,→,left,←,0.7097545999567956,False,17,-1,0,6
Y2-S2-137K20,6,543,AS,exp,27,↓,down,↓,0.4849551999941468,True,18,-1,0,6
Y2-S2-137K20,6,544,AS,exp,33,↑,left,←,0.6012317999266088,False,18,-1,0,6
Y2-S2-137K20,6,545,AS,exp,30,←,left,←,0.4503139997832477,True,19,-1,0,6
Y2-S2-137K20,6,546,AS,exp,30,↑,left,←,0.6639018000569195,False,19,-1,0,6
Y2-S2-137K20,6,547,AS,exp,46,↓,left,←,0.5985514000058174,False,20,-1,0,6
Y2-S2-137K20,6,548,AS,exp,38,←,left,←,0.4504488001111895,True,21,-1,0,6
Y2-S2-137K20,6,549,AS,exp,38,→,right,→,0.7688439001794904,True,21,-1,0,6
Y2-S2-137K20,6,550,AS,exp,28,↓,down,↓,0.6388045998755842,True,21,1,1,7
Y2-S2-137K20,6,551,AS,exp,43,↑,up,↑,0.5107229000423104,True,20,1,0,7
Y2-S2-137K20,6,552,AS,exp,27,↓,down,↓,0.6312332001980394,True,20,1,0,7
Y2-S2-137K20,6,553,AS,exp,43,→,right,→,0.4671159000135958,True,20,1,0,7
Y2-S2-137K20,6,554,AS,exp,44,↓,down,↓,1.3191478999797255,True,19,1,0,7
Y2-S2-137K20,6,555,AS,exp,29,←,left,←,0.5576881999149919,True,19,1,0,7
Y2-S2-137K20,6,556,AS,exp,45,↑,up,↑,0.5073822000995278,True,19,1,0,7
Y2-S2-137K20,6,557,AS,exp,39,→,right,→,0.48532440001145005,True,18,1,0,7
Y2-S2-137K20,6,558,AS,exp,49,↑,left,←,0.7904406997840852,False,18,-1,1,8
Y2-S2-137K20,6,559,AS,exp,41,→,right,→,0.5049020000733435,True,19,-1,0,8
Y2-S2-137K20,6,560,AS,exp,42,←,left,←,0.45049530011601746,True,19,-1,0,8
Y2-S2-137K20,6,561,AS,exp,26,↓,down,↓,0.7636679001152515,True,19,1,1,9
Y2-S2-137K20,6,562,AS,exp,43,←,left,←,0.43400399992242455,True,18,1,0,9
Y2-S2-137K20,6,563,AS,exp,36,↑,up,↑,0.4969856000971049,True,18,1,0,9
Y2-S2-137K20,6,564,AS,exp,45,→,right,→,0.4339246000163257,True,18,1,0,9
Y2-S2-137K20,6,565,AS,exp,36,↑,left,←,0.575367399957031,False,17,-1,1,10
Y2-S2-137K20,6,566,AS,exp,38,↓,left,←,0.7539200999308378,False,18,-1,0,10
Y2-S2-137K20,6,567,AS,exp,28,←,left,←,1.1371634998358786,True,19,-1,0,10
Y2-S2-137K20,6,568,AS,exp,44,↓,down,↓,0.7529898001812398,True,19,-1,0,10
Y2-S2-137K20,6,569,AS,exp,34,←,left,←,0.5965069001540542,True,19,1,1,11
Y2-S2-137K20,6,570,AS,exp,31,→,right,→,0.99443249986507,True,18,1,0,11
Y2-S2-137K20,6,571,AS,exp,40,↓,down,↓,0.5398200999479741,True,18,1,0,11
Y2-S2-137K20,6,572,AS,exp,32,←,left,←,0.43381229997612536,True,18,1,0,11
Y2-S2-137K20,6,573,AS,exp,28,→,right,→,0.38393020001240075,True,17,1,0,11
Y2-S2-137K20,6,574,AS,exp,50,←,left,←,0.671945600071922,True,17,1,0,11
Y2-S2-137K20,6,575,AS,exp,42,→,left,←,0.6172011999879032,False,17,-1,1,12
Y2-S2-137K20,6,576,AS,exp,46,↑,up,↑,0.4173179999925196,True,18,-1,0,12
Y2-S2-137K20,6,577,AS,exp,46,→,right,→,0.6898096001241356,True,18,-1,0,12
Y2-S2-137K20,6,578,AS,exp,29,↓,left,←,0.7532717001158744,False,18,-1,0,12
Y2-S2-137K20,6,579,AS,exp,38,→,right,→,0.6274909002240747,True,19,-1,0,12
Y2-S2-137K20,6,580,AS,exp,27,↓,down,↓,0.7067791000008583,True,19,-1,0,12
Y2-S2-137K20,6,581,AS,exp,38,←,left,←,0.6537657000590116,True,19,1,1,13
Y2-S2-137K20,6,582,AS,exp,49,↑,up,↑,0.5494695000816137,True,18,1,0,13
Y2-S2-137K20,6,583,AS,exp,25,→,right,→,0.49132549995556474,True,18,1,0,13
Y2-S2-137K20,6,584,AS,exp,46,↑,up,↑,0.5505184000357985,True,18,1,0,13
Y2-S2-137K20,6,585,AS,exp,27,←,left,←,0.6427146999631077,True,17,1,0,13
Y2-S2-137K20,6,586,AS,exp,42,↓,down,↓,0.7136798000428826,True,17,1,0,13
Y2-S2-137K20,6,587,AS,exp,38,←,left,←,0.628951600054279,True,17,1,0,13
Y2-S2-137K20,6,588,AS,exp,40,↓,down,↓,0.6463211998343468,True,16,1,0,13
Y2-S2-137K20,6,589,AS,exp,49,↑,up,↑,0.4423607001081109,True,16,1,0,13
Y2-S2-137K20,6,590,AS,exp,42,↓,down,↓,0.46489499998278916,True,16,1,0,13
Y2-S2-137K20,6,591,AS,exp,27,↑,up,↑,0.42447989992797375,True,15,1,0,13
Y2-S2-137K20,6,592,AS,exp,38,←,left,←,0.5475485001225024,True,15,1,0,13
Y2-S2-137K20,6,593,AS,exp,29,→,right,→,0.43797229998745024,True,15,1,0,13
Y2-S2-137K20,6,594,AS,exp,27,↓,down,↓,0.46126040001399815,True,14,1,0,13
Y2-S2-137K20,6,595,AS,exp,48,←,left,←,0.5761007000692189,True,14,1,0,13
Y2-S2-137K20,6,596,AS,exp,50,↑,up,↑,0.45304760010913014,True,14,1,0,13
Y2-S2-137K20,6,597,AS,exp,42,→,left,←,0.6064611000474542,False,13,-1,1,14
Y2-S2-137K20,6,598,AS,exp,39,↓,down,↓,1.0221539000049233,True,14,-1,0,14
Y2-S2-137K20,6,599,AS,exp,50,→,right,→,0.6648128998931497,True,14,-1,0,14
Y2-S2-137K20,6,600,AS,exp,46,↑,up,↑,0.5063566998578608,True,14,1,1,15
Y2-S2-137K20,6,601,AS,exp,35,↓,left,←,0.7612205999903381,False,13,-1,1,16
Y2-S2-137K20,7,602,AS,intra_train,50,→,right,→,0.6047857000958174,True,24,-,-,-
Y2-S2-137K20,7,603,AS,intra_train,31,↓,down,↓,0.4839709000661969,True,24,-,-,-
Y2-S2-137K20,7,604,AS,intra_train,37,→,right,→,0.6489021999295801,True,24,-,-,-
Y2-S2-137K20,7,605,AS,intra_train,33,←,left,←,0.5171415999066085,True,24,-,-,-
Y2-S2-137K20,7,606,AS,intra_train,44,→,right,→,0.5336610998492688,True,24,-,-,-
Y2-S2-137K20,7,607,AS,exp,40,↓,down,↓,0.4485001000575721,True,16,0,0,0
Y2-S2-137K20,7,608,AS,exp,45,→,right,→,0.400669900001958,True,16,0,0,0
Y2-S2-137K20,7,609,AS,exp,41,↓,down,↓,0.6247396001126617,True,16,1,0,0
Y2-S2-137K20,7,610,AS,exp,31,↑,left,←,0.6340987998992205,False,15,-1,1,1
Y2-S2-137K20,7,611,AS,exp,42,→,right,→,0.4995871998835355,True,16,-1,0,1
Y2-S2-137K20,7,612,AS,exp,50,↓,down,↓,0.47569689992815256,True,16,-1,0,1
Y2-S2-137K20,7,613,AS,exp,33,→,right,→,0.45921469992026687,True,16,1,1,2
Y2-S2-137K20,7,614,AS,exp,36,←,left,←,0.49068530020304024,True,15,1,0,2
Y2-S2-137K20,7,615,AS,exp,41,↑,up,↑,0.6208222000859678,True,15,1,0,2
Y2-S2-137K20,7,616,AS,exp,35,←,left,←,0.42810879996977746,True,15,1,0,2
Y2-S2-137K20,7,617,AS,exp,28,↑,left,←,0.7282453998923302,False,14,-1,1,3
Y2-S2-137K20,7,618,AS,exp,48,→,right,→,0.6164911000523716,True,15,-1,0,3
Y2-S2-137K20,7,619,AS,exp,30,↑,up,↑,0.5540004000067711,True,15,-1,0,3
Y2-S2-137K20,7,620,AS,exp,32,→,up,↑,0.5749132002238184,False,15,-1,0,3
Y2-S2-137K20,7,621,AS,exp,35,←,right,→,0.7879836999345571,False,16,-1,0,3
Y2-S2-137K20,7,622,AS,exp,34,↑,up,↑,0.41723269992507994,True,17,-1,0,3
Y2-S2-137K20,7,623,AS,exp,43,↓,up,↑,0.5041785999201238,False,17,-1,0,3
Y2-S2-137K20,7,624,AS,exp,26,→,right,→,0.48413869994692504,True,18,-1,0,3
Y2-S2-137K20,7,625,AS,exp,46,↓,down,↓,0.7250026999972761,True,18,-1,0,3
Y2-S2-137K20,7,626,AS,exp,35,→,right,→,0.5062948998529464,True,18,1,1,4
Y2-S2-137K20,7,627,AS,exp,25,←,left,←,0.5669784999918193,True,17,1,0,4
Y2-S2-137K20,7,628,AS,exp,43,↓,down,↓,0.5972986000124365,True,17,1,0,4
Y2-S2-137K20,7,629,AS,exp,38,←,left,←,0.46154760010540485,True,17,1,0,4
Y2-S2-137K20,7,630,AS,exp,28,↑,up,↑,1.0806862998288125,True,16,1,0,4
Y2-S2-137K20,7,631,AS,exp,28,↓,down,↓,0.468901599990204,True,16,1,0,4
Y2-S2-137K20,7,632,AS,exp,46,↑,up,↑,0.40057890000753105,True,16,1,0,4
Y2-S2-137K20,7,633,AS,exp,33,←,left,←,0.42888340004719794,True,15,1,0,4
Y2-S2-137K20,7,634,AS,exp,25,→,right,→,0.5411761999130249,True,15,1,0,4
Y2-S2-137K20,7,635,AS,exp,49,←,down,↓,0.753600100055337,False,15,-1,1,5
Y2-S2-137K20,7,636,AS,exp,36,→,right,→,0.7253568000160158,True,16,-1,0,5
Y2-S2-137K20,7,637,AS,exp,45,←,right,→,0.5645091000478715,False,16,-1,0,5
Y2-S2-137K20,7,638,AS,exp,29,↑,down,↓,0.644514000043273,False,17,-1,0,5
Y2-S2-137K20,7,639,AS,exp,48,→,right,→,0.5394840000662953,True,18,-1,0,5
Y2-S2-137K20,7,640,AS,exp,30,↑,up,↑,0.41703690006397665,True,18,-1,0,5
Y2-S2-137K20,7,641,AS,exp,27,←,left,←,0.43392509990371764,True,18,1,1,6
Y2-S2-137K20,7,642,AS,exp,44,→,right,→,0.5002480999100953,True,17,1,0,6
Y2-S2-137K20,7,643,AS,exp,40,↓,down,↓,0.49088079994544387,True,17,1,0,6
Y2-S2-137K20,7,644,AS,exp,45,↑,right,→,0.47467459994368255,False,17,-1,1,7
Y2-S2-137K20,7,645,AS,exp,46,←,left,←,0.4175958000123501,True,18,-1,0,7
Y2-S2-137K20,7,646,AS,exp,39,↑,up,↑,0.38366679986938834,True,18,-1,0,7
Y2-S2-137K20,7,647,AS,exp,35,→,left,←,0.7056371998041868,False,18,-1,0,7
Y2-S2-137K20,7,648,AS,exp,46,←,right,→,0.33389570005238056,False,19,-1,0,7
Y2-S2-137K20,7,649,AS,exp,30,→,right,→,0.6910045000258833,True,20,-1,0,7
Y2-S2-137K20,7,650,AS,exp,42,↑,up,↑,0.4340079000685364,True,20,-1,0,7
Y2-S2-137K20,7,651,AS,exp,50,→,right,→,0.7376493001356721,True,20,1,1,8
Y2-S2-137K20,7,652,AS,exp,44,↓,down,↓,0.4339105000253767,True,19,1,0,8
Y2-S2-137K20,7,653,AS,exp,36,←,left,←,0.4505978999659419,True,19,1,0,8
Y2-S2-137K20,7,654,AS,exp,37,→,right,→,0.3839231999590993,True,19,1,0,8
Y2-S2-137K20,7,655,AS,exp,46,←,left,←,0.6821465999819338,True,18,1,0,8
Y2-S2-137K20,7,656,AS,exp,42,↓,down,↓,0.6993914002086967,True,18,1,0,8
Y2-S2-137K20,7,657,AS,exp,30,→,right,→,0.41797280008904636,True,18,1,0,8
Y2-S2-137K20,7,658,AS,exp,32,↑,up,↑,0.656003599986434,True,17,1,0,8
Y2-S2-137K20,7,659,AS,exp,25,→,right,→,0.4171457001939416,True,17,1,0,8
Y2-S2-137K20,7,660,AS,exp,25,↓,down,↓,0.5057956001255661,True,17,1,0,8
Y2-S2-137K20,7,661,AS,exp,36,→,right,→,0.6037065999116749,True,16,1,0,8
Y2-S2-137K20,7,662,AS,exp,50,↑,up,↑,0.5565555999055505,True,16,1,0,8
Y2-S2-137K20,7,663,AS,exp,25,↓,down,↓,0.6424972999375314,True,16,1,0,8
Y2-S2-137K20,7,664,AS,exp,33,←,left,←,0.5448712999932468,True,15,1,0,8
Y2-S2-137K20,7,665,AS,exp,32,→,right,→,0.5842253998853266,True,15,1,0,8
Y2-S2-137K20,7,666,AS,exp,46,←,left,←,0.6880778998602182,True,15,1,0,8
Y2-S2-137K20,7,667,AS,exp,41,↓,down,↓,0.5697828999254853,True,14,1,0,8
Y2-S2-137K20,7,668,AS,exp,25,→,left,←,0.7928513998631388,False,14,-1,1,9
Y2-S2-137K20,7,669,AS,exp,42,↑,up,↑,1.2278981001581997,True,15,-1,0,9
Y2-S2-137K20,7,670,AS,exp,44,→,right,→,0.5553999000694603,True,15,-1,0,9
Y2-S2-137K20,7,671,AS,exp,47,←,left,←,0.43508660001680255,True,15,1,1,10
Y2-S2-137K20,7,672,AS,exp,35,↓,down,↓,0.5310803998727351,True,14,1,0,10
Y2-S2-137K20,7,673,AS,exp,49,←,left,←,0.4093265999108553,True,14,1,0,10
Y2-S2-137K20,7,674,AS,exp,47,↑,up,↑,0.3505420000292361,True,14,1,0,10
Y2-S2-137K20,7,675,AS,exp,32,↓,left,←,0.617177200037986,False,13,-1,1,11
Y2-S2-137K20,7,676,AS,exp,45,↑,up,↑,0.9188095999415964,True,14,-1,0,11
Y2-S2-137K20,7,677,AS,exp,27,→,right,→,0.49403940001502633,True,14,-1,0,11
Y2-S2-137K20,7,678,AS,exp,42,←,left,←,0.6675456999801099,True,14,1,1,12
Y2-S2-137K20,7,679,AS,exp,27,→,right,→,0.3911242000758648,True,13,1,0,12
Y2-S2-137K20,7,680,AS,exp,26,←,left,←,0.605292099993676,True,13,1,0,12
Y2-S2-137K20,7,681,AS,exp,31,↑,up,↑,0.8791463000234216,True,13,1,0,12
Y2-S2-137K20,7,682,AS,exp,28,→,right,→,0.5624462999403477,True,12,1,0,12
Y2-S2-137K20,7,683,AS,exp,30,↑,left,←,0.6204120998736471,False,12,-1,1,13
Y2-S2-137K20,7,684,AS,exp,35,←,left,←,0.41590879997238517,True,13,-1,0,13
Y2-S2-137K20,7,685,AS,exp,41,↓,left,←,0.5094313998706639,False,13,-1,0,13
Y2-S2-137K20,7,686,AS,exp,40,→,right,→,0.4032893998082727,True,14,-1,0,13
Y2-S2-137K20,7,687,AS,exp,40,↑,up,↑,0.3504802999086678,True,14,-1,0,13
Y2-S2-137K20,7,688,AS,exp,27,↓,left,←,0.6411776000168175,False,14,-1,0,13
Y2-S2-137K20,7,689,AS,exp,33,←,left,←,0.7398386998102069,True,15,-1,0,13
Y2-S2-137K20,7,690,AS,exp,38,↓,down,↓,0.5242674998007715,True,15,-1,0,13
Y2-S2-137K20,7,691,AS,exp,27,↑,up,↑,0.33334749983623624,True,15,1,1,14
Y2-S2-137K20,7,692,AS,exp,50,←,left,←,0.42792199994437397,True,14,1,0,14
Y2-S2-137K20,7,693,AS,exp,44,→,right,→,0.6279054000042379,True,14,1,0,14
Y2-S2-137K20,7,694,AS,exp,46,←,left,←,0.5748568000271916,True,14,1,0,14
Y2-S2-137K20,7,695,AS,exp,41,↑,up,↑,0.8578890999779105,True,13,1,0,14
Y2-S2-137K20,7,696,AS,exp,44,→,left,←,0.5078895001206547,False,13,-1,1,15
Y2-S2-137K20,7,697,AS,exp,27,←,left,←,0.5979851000010967,True,14,-1,0,15
Y2-S2-137K20,7,698,AS,exp,48,↑,left,←,0.696199300000444,False,14,-1,0,15
Y2-S2-137K20,7,699,AS,exp,31,→,right,→,0.534177599940449,True,15,-1,0,15
Y2-S2-137K20,7,700,AS,exp,41,↑,up,↑,0.38399629993364215,True,15,-1,0,15
Y2-S2-137K20,7,701,AS,exp,25,←,left,←,0.5276195998303592,True,15,1,1,16
Y2-S2-137K20,8,702,PS,intra_train,26,↑,right,→,0.853687800001353,False,19,-,-,-
Y2-S2-137K20,8,703,PS,intra_train,44,↓,down,↓,0.6226188999135047,True,19,-,-,-
Y2-S2-137K20,8,704,PS,intra_train,28,↑,up,↑,0.4173659000080079,True,19,-,-,-
Y2-S2-137K20,8,705,PS,intra_train,48,↓,down,↓,0.5047392998822033,True,19,-,-,-
Y2-S2-137K20,8,706,PS,intra_train,38,↑,up,↑,0.36782140005379915,True,19,-,-,-
Y2-S2-137K20,8,707,PS,exp,42,↓,down,↓,0.5270646999124438,True,13,0,0,0
Y2-S2-137K20,8,708,PS,exp,45,↑,left,←,0.5375906999688596,False,13,-1,0,0
Y2-S2-137K20,8,709,PS,exp,38,↓,down,↓,0.4747083999682218,True,14,-1,0,0
Y2-S2-137K20,8,710,PS,exp,30,→,left,←,0.9315174000803381,False,14,-1,0,0
Y2-S2-137K20,8,711,PS,exp,39,↓,right,→,0.5276407999917865,False,15,-1,0,0
Y2-S2-137K20,8,712,PS,exp,28,↑,right,→,0.44076330005191267,False,16,-1,0,0
Y2-S2-137K20,8,713,PS,exp,40,→,up,↑,0.5118534998036921,False,17,-1,0,0
Y2-S2-137K20,8,714,PS,exp,31,←,left,←,0.506610200041905,True,18,-1,0,0
Y2-S2-137K20,8,715,PS,exp,39,↑,up,↑,1.1567434000317007,True,18,-1,0,0
Y2-S2-137K20,8,716,PS,exp,27,↓,down,↓,0.9583602999337018,True,18,1,1,1
Y2-S2-137K20,8,717,PS,exp,42,←,left,←,0.48218039982020855,True,17,1,0,1
Y2-S2-137K20,8,718,PS,exp,42,↓,down,↓,0.619892799993977,True,17,1,0,1
Y2-S2-137K20,8,719,PS,exp,32,↑,up,↑,0.4172451999038458,True,17,1,0,1
Y2-S2-137K20,8,720,PS,exp,28,↓,down,↓,0.5145264999009669,True,16,1,0,1
Y2-S2-137K20,8,721,PS,exp,29,↑,up,↑,0.8800530000589788,True,16,1,0,1
Y2-S2-137K20,8,722,PS,exp,39,←,left,←,0.5505568000953645,True,16,1,0,1
Y2-S2-137K20,8,723,PS,exp,38,→,right,→,0.7058826999273151,True,15,1,0,1
Y2-S2-137K20,8,724,PS,exp,44,←,left,←,0.885827099904418,True,15,1,0,1
Y2-S2-137K20,8,725,PS,exp,45,→,right,→,0.4583566999062896,True,15,1,0,1
Y2-S2-137K20,8,726,PS,exp,45,←,left,←,0.5268966001458466,True,14,1,0,1
Y2-S2-137K20,8,727,PS,exp,32,↓,down,↓,0.4842593998182565,True,14,1,0,1
Y2-S2-137K20,8,728,PS,exp,26,↑,right,→,0.7179254000075161,False,14,-1,1,2
Y2-S2-137K20,8,729,PS,exp,41,←,left,←,0.47729900013655424,True,15,-1,0,2
Y2-S2-137K20,8,730,PS,exp,36,↑,left,←,0.70640780008398,False,15,-1,0,2
Y2-S2-137K20,8,731,PS,exp,36,←,left,←,0.8572994000278413,True,16,-1,0,2
Y2-S2-137K20,8,732,PS,exp,38,↓,down,↓,0.5958324999082834,True,16,-1,0,2
Y2-S2-137K20,8,733,PS,exp,47,→,right,→,0.4671612000092864,True,16,1,1,3
Y2-S2-137K20,8,734,PS,exp,29,↑,up,↑,0.9061386999674141,True,15,1,0,3
Y2-S2-137K20,8,735,PS,exp,50,←,left,←,0.5442076998297125,True,15,1,0,3
Y2-S2-137K20,8,736,PS,exp,27,↑,up,↑,0.3840466998517513,True,15,1,0,3
Y2-S2-137K20,8,737,PS,exp,38,←,left,←,0.5692106001079082,True,14,1,0,3
Y2-S2-137K20,8,738,PS,exp,32,↓,down,↓,0.535205899970606,True,14,1,0,3
Y2-S2-137K20,8,739,PS,exp,38,←,right,→,0.6265301001258194,False,14,-1,1,4
Y2-S2-137K20,8,740,PS,exp,36,↑,up,↑,0.3672933999914676,True,15,-1,0,4
Y2-S2-137K20,8,741,PS,exp,31,→,right,→,0.4576787000987679,True,15,-1,0,4
Y2-S2-137K20,8,742,PS,exp,29,↑,up,↑,1.386713100131601,True,15,1,1,5
Y2-S2-137K20,8,743,PS,exp,49,←,left,←,0.44647029996849597,True,14,1,0,5
Y2-S2-137K20,8,744,PS,exp,38,→,right,→,0.9177004999946803,True,14,1,0,5
Y2-S2-137K20,8,745,PS,exp,26,↑,left,←,0.6604584001470357,False,14,-1,1,6
Y2-S2-137K20,8,746,PS,exp,32,→,left,←,0.6217144001275301,False,15,-1,0,6
Y2-S2-137K20,8,747,PS,exp,48,↑,up,↑,0.8990759998559952,True,16,-1,0,6
Y2-S2-137K20,8,748,PS,exp,48,→,right,→,0.4986991002224386,True,16,-1,0,6
Y2-S2-137K20,8,749,PS,exp,49,↑,up,↑,0.8363723999354988,True,16,1,1,7
Y2-S2-137K20,8,750,PS,exp,31,↓,down,↓,0.4502360001206398,True,15,1,0,7
Y2-S2-137K20,8,751,PS,exp,38,↑,right,→,0.5524698998779058,False,15,-1,1,8
Y2-S2-137K20,8,752,PS,exp,25,↓,down,↓,0.4724168998654932,True,16,-1,0,8
Y2-S2-137K20,8,753,PS,exp,35,←,left,←,0.7962339001242071,True,16,-1,0,8
Y2-S2-137K20,8,754,PS,exp,30,↑,right,→,0.4571195999160409,False,16,-1,0,8
Y2-S2-137K20,8,755,PS,exp,28,→,right,→,0.8267243001610041,True,17,-1,0,8
Y2-S2-137K20,8,756,PS,exp,32,↓,down,↓,0.6353746000677347,True,17,-1,0,8
Y2-S2-137K20,8,757,PS,exp,47,↑,up,↑,0.5452260000165552,True,17,1,1,9
Y2-S2-137K20,8,758,PS,exp,44,→,right,→,0.6327811002265662,True,16,1,0,9
Y2-S2-137K20,8,759,PS,exp,39,←,left,←,0.4006308000534773,True,16,1,0,9
Y2-S2-137K20,8,760,PS,exp,31,↑,up,↑,0.40059330011717975,True,16,1,0,9
Y2-S2-137K20,8,761,PS,exp,28,→,right,→,0.429523800034076,True,15,1,0,9
Y2-S2-137K20,8,762,PS,exp,50,↓,down,↓,0.5541997000109404,True,15,1,0,9
Y2-S2-137K20,8,763,PS,exp,32,←,left,←,0.8160540999379009,True,15,1,0,9
Y2-S2-137K20,8,764,PS,exp,45,↑,up,↑,0.4594582000281662,True,14,1,0,9
Y2-S2-137K20,8,765,PS,exp,39,↓,right,→,0.42987219989299774,False,14,-1,1,10
Y2-S2-137K20,8,766,PS,exp,38,←,left,←,0.36740330001339316,True,15,-1,0,10
Y2-S2-137K20,8,767,PS,exp,25,→,right,→,0.49323340016417205,True,15,-1,0,10
Y2-S2-137K20,8,768,PS,exp,27,↑,down,↓,0.9327253000810742,False,15,-1,0,10
Y2-S2-137K20,8,769,PS,exp,32,↓,down,↓,0.6156826999504119,True,16,-1,0,10
Y2-S2-137K20,8,770,PS,exp,38,→,right,→,0.5116373999044299,True,16,-1,0,10
Y2-S2-137K20,8,771,PS,exp,50,↓,right,→,0.4547305000014603,False,16,-1,0,10
Y2-S2-137K20,8,772,PS,exp,26,↑,down,↓,0.4925436000339687,False,17,-1,0,10
Y2-S2-137K20,8,773,PS,exp,37,↓,down,↓,0.47425700002349913,True,18,-1,0,10
Y2-S2-137K20,8,774,PS,exp,44,←,left,←,0.5408779999706894,True,18,-1,0,10
Y2-S2-137K20,8,775,PS,exp,45,→,right,→,0.5157345999032259,True,18,1,1,11
Y2-S2-137K20,8,776,PS,exp,37,←,left,←,0.47090259985998273,True,17,1,0,11
Y2-S2-137K20,8,777,PS,exp,33,→,right,→,0.5236352998763323,True,17,1,0,11
Y2-S2-137K20,8,778,PS,exp,40,←,left,←,0.48732650000602007,True,17,1,0,11
Y2-S2-137K20,8,779,PS,exp,40,↑,up,↑,0.45737789990380406,True,16,1,0,11
Y2-S2-137K20,8,780,PS,exp,34,→,right,→,0.4353438999969512,True,16,1,0,11
Y2-S2-137K20,8,781,PS,exp,47,↑,down,↓,0.9497305999975652,False,16,-1,1,12
Y2-S2-137K20,8,782,PS,exp,37,↓,down,↓,0.4595375000499189,True,17,-1,0,12
Y2-S2-137K20,8,783,PS,exp,49,←,left,←,0.6063957000151277,True,17,-1,0,12
Y2-S2-137K20,8,784,PS,exp,25,↑,left,←,0.5953696998767555,False,17,-1,0,12
Y2-S2-137K20,8,785,PS,exp,48,↓,down,↓,0.8129795000422746,True,18,-1,0,12
Y2-S2-137K20,8,786,PS,exp,34,→,right,→,0.6968695998657495,True,18,-1,0,12
Y2-S2-137K20,8,787,PS,exp,49,↓,down,↓,0.669933500001207,True,18,1,1,13
Y2-S2-137K20,8,788,PS,exp,33,←,left,←,0.5143220999743789,True,17,1,0,13
Y2-S2-137K20,8,789,PS,exp,44,→,right,→,0.45762280002236366,True,17,1,0,13
Y2-S2-137K20,8,790,PS,exp,44,↑,right,→,0.48645239998586476,False,17,-1,1,14
Y2-S2-137K20,8,791,PS,exp,42,→,right,→,0.48881340003572404,True,18,-1,0,14
Y2-S2-137K20,8,792,PS,exp,30,↓,right,→,1.438085300149396,False,18,-1,0,14
Y2-S2-137K20,8,793,PS,exp,41,←,left,←,0.48870510002598166,True,19,-1,0,14
Y2-S2-137K20,8,794,PS,exp,34,↓,down,↓,0.38376430002972484,True,19,-1,0,14
Y2-S2-137K20,8,795,PS,exp,41,↑,up,↑,0.6526568999979645,True,19,1,1,15
Y2-S2-137K20,8,796,PS,exp,37,←,left,←,0.6877024001441896,True,18,1,0,15
Y2-S2-137K20,8,797,PS,exp,45,↑,up,↑,0.5127508000005037,True,18,1,0,15
Y2-S2-137K20,8,798,PS,exp,36,←,left,←,0.46976000000722706,True,18,1,0,15
Y2-S2-137K20,8,799,PS,exp,47,↓,down,↓,1.037205799948424,True,17,1,0,15
Y2-S2-137K20,8,800,PS,exp,28,←,left,←,0.6464033999945968,True,17,1,0,15
Y2-S2-137K20,8,801,PS,exp,35,↓,down,↓,0.644391099922359,True,17,1,0,15
Y2-S2-137K20,8,802,PS,exp,40,→,right,→,0.8890013000927866,True,16,1,0,15
Y2-S2-137K20,8,803,PS,exp,32,↓,down,↓,0.5236345001030713,True,16,1,0,15
Y2-S2-137K20,8,804,PS,exp,50,→,right,→,0.4349819999188185,True,16,1,0,15
Y2-S2-137K20,8,805,PS,exp,47,←,left,←,0.45430879993364215,True,15,1,0,15
Y2-S2-137K20,8,806,PS,exp,38,↑,up,↑,0.9484836999326944,True,15,1,0,15
Y2-S2-137K20,8,807,PS,exp,36,←,left,←,0.5682139999698848,True,15,1,0,15
Y2-S2-137K20,8,808,PS,exp,27,↑,down,↓,0.6866301998961717,False,14,-1,1,16
