PART_ID,Block_no,Trial_no,Block_type,Trial_type,CSI,Stim_letter,Key_pressed,letter_choose,Rt,Corr,Stimulus Time,Level,Reversal,Revs_count
Y2-S2-216K24,1,1,PS,train,30,↓,down,↓,0.8071314000990242,True,30,-,-,-
Y2-S2-216K24,1,2,PS,train,41,→,no_key,no_letter,-1.0,False,30,-,-,-
Y2-S2-216K24,1,3,PS,train,49,←,left,←,0.9764954000711441,True,30,-,-,-
Y2-S2-216K24,1,4,PS,train,36,↓,down,↓,0.8892169999890029,True,30,-,-,-
Y2-S2-216K24,1,5,PS,train,46,←,left,←,0.7853731999639422,True,30,-,-,-
Y2-S2-216K24,1,6,PS,train,25,↓,down,↓,0.7189089001622051,True,30,-,-,-
Y2-S2-216K24,1,7,PS,train,47,→,left,←,0.5340383001603186,False,30,-,-,-
Y2-S2-216K24,1,8,PS,train,27,↓,down,↓,0.7517490000464022,True,30,-,-,-
Y2-S2-216K24,1,9,PS,train,35,←,left,←,0.7734657998662442,True,30,-,-,-
Y2-S2-216K24,1,10,PS,train,42,→,right,→,0.8069670000113547,True,30,-,-,-
Y2-S2-216K24,2,11,AS,train,34,↑,up,↑,1.0122430000919849,True,45,-,-,-
Y2-S2-216K24,2,12,AS,train,47,←,left,←,1.2076634999830276,True,45,-,-,-
Y2-S2-216K24,2,13,AS,train,33,↑,up,↑,1.3705580001696944,True,45,-,-,-
Y2-S2-216K24,2,14,AS,train,28,→,right,→,0.9549726000986993,True,45,-,-,-
Y2-S2-216K24,2,15,AS,train,32,←,left,←,0.9338163998909295,True,45,-,-,-
Y2-S2-216K24,2,16,AS,train,45,↑,up,↑,0.9614645999390632,True,45,-,-,-
Y2-S2-216K24,2,17,AS,train,46,←,left,←,0.6178154000081122,True,45,-,-,-
Y2-S2-216K24,2,18,AS,train,48,↓,down,↓,0.7176657000090927,True,45,-,-,-
Y2-S2-216K24,2,19,AS,train,27,←,left,←,0.4842064999975264,True,45,-,-,-
Y2-S2-216K24,2,20,AS,train,50,↑,up,↑,0.7507639999967068,True,45,-,-,-
Y2-S2-216K24,-,21,PS,adaptive,41,→,left,←,1.6027367999777198,False,10,-1,0,0
Y2-S2-216K24,-,22,PS,adaptive,30,←,left,←,0.8202166999690235,True,11,-1,0,0
Y2-S2-216K24,-,23,PS,adaptive,26,→,left,←,1.16998829995282,False,11,-1,0,0
Y2-S2-216K24,-,24,PS,adaptive,26,←,right,→,0.8341516000218689,False,12,-1,0,0
Y2-S2-216K24,-,25,PS,adaptive,33,→,left,←,0.9210963000077754,False,13,-1,0,0
Y2-S2-216K24,-,26,PS,adaptive,35,↓,down,↓,0.696570600150153,True,14,-1,0,0
Y2-S2-216K24,-,27,PS,adaptive,31,↑,up,↑,0.6177819999866188,True,14,-1,0,0
Y2-S2-216K24,-,28,PS,adaptive,40,←,left,←,0.5360849001444876,True,14,1,1,1
Y2-S2-216K24,-,29,PS,adaptive,28,↑,up,↑,0.875907399924472,True,13,1,0,1
Y2-S2-216K24,-,30,PS,adaptive,27,→,right,→,0.6798080001026392,True,13,1,0,1
Y2-S2-216K24,-,31,PS,adaptive,46,↓,left,←,0.7890250999480486,False,13,-1,1,2
Y2-S2-216K24,-,32,PS,adaptive,43,↑,up,↑,0.7222340998705477,True,14,-1,0,2
Y2-S2-216K24,-,33,PS,adaptive,46,←,left,←,0.6016152000520378,True,14,-1,0,2
Y2-S2-216K24,-,34,PS,adaptive,43,↓,up,↑,0.5251897999551147,False,14,-1,0,2
Y2-S2-216K24,-,35,PS,adaptive,42,↑,up,↑,0.6682120999321342,True,15,-1,0,2
Y2-S2-216K24,-,36,PS,adaptive,36,→,right,→,0.4643450998701155,True,15,-1,0,2
Y2-S2-216K24,-,37,PS,adaptive,34,←,left,←,0.5545147000811994,True,15,1,1,3
Y2-S2-216K24,-,38,PS,adaptive,29,↑,up,↑,0.591820599976927,True,14,1,0,3
Y2-S2-216K24,-,39,PS,adaptive,44,→,right,→,0.5842199001926929,True,14,1,0,3
Y2-S2-216K24,-,40,PS,adaptive,37,↓,down,↓,0.7627113999333233,True,14,1,0,3
Y2-S2-216K24,-,41,PS,adaptive,29,←,right,→,0.5481744999997318,False,13,-1,1,4
Y2-S2-216K24,-,42,AS,adaptive,40,↑,up,↑,0.5731202000752091,True,20,0,0,0
Y2-S2-216K24,-,43,AS,adaptive,42,→,right,→,0.6083824001252651,True,20,0,0,0
Y2-S2-216K24,-,44,AS,adaptive,46,←,left,←,0.6034581998828799,True,20,1,0,0
Y2-S2-216K24,-,45,AS,adaptive,47,↓,down,↓,0.7051784000359476,True,19,1,0,0
Y2-S2-216K24,-,46,AS,adaptive,34,↑,up,↑,0.5238409999292344,True,19,1,0,0
Y2-S2-216K24,-,47,AS,adaptive,50,←,left,←,0.5942855998873711,True,19,1,0,0
Y2-S2-216K24,-,48,AS,adaptive,39,↑,right,→,0.9255856999661773,False,18,-1,1,1
Y2-S2-216K24,-,49,AS,adaptive,35,↓,down,↓,0.6883708001114428,True,19,-1,0,1
Y2-S2-216K24,-,50,AS,adaptive,50,↑,up,↑,0.6153076000045985,True,19,-1,0,1
Y2-S2-216K24,-,51,AS,adaptive,26,→,right,→,0.6482565000187606,True,19,1,1,2
Y2-S2-216K24,-,52,AS,adaptive,42,↓,down,↓,0.6827819000463933,True,18,1,0,2
Y2-S2-216K24,-,53,AS,adaptive,43,↑,up,↑,1.4061140001285821,True,18,1,0,2
Y2-S2-216K24,-,54,AS,adaptive,25,→,right,→,0.5992042000871152,True,18,1,0,2
Y2-S2-216K24,-,55,AS,adaptive,36,↓,down,↓,0.7315768001135439,True,17,1,0,2
Y2-S2-216K24,-,56,AS,adaptive,46,↑,right,→,0.8437451999634504,False,17,-1,1,3
Y2-S2-216K24,-,57,AS,adaptive,36,↓,down,↓,0.6203965998720378,True,18,-1,0,3
Y2-S2-216K24,-,58,AS,adaptive,39,←,left,←,0.5390953999012709,True,18,-1,0,3
Y2-S2-216K24,-,59,AS,adaptive,31,→,right,→,0.5729825999587774,True,18,1,1,4
Y2-S2-216K24,1,60,AS,intra_train,48,↓,down,↓,0.6472120999824256,True,25,-,-,-
Y2-S2-216K24,1,61,AS,intra_train,47,↑,up,↑,0.6963343999814242,True,25,-,-,-
Y2-S2-216K24,1,62,AS,intra_train,30,←,left,←,0.5509278001263738,True,25,-,-,-
Y2-S2-216K24,1,63,AS,intra_train,28,↑,up,↑,0.6657262998633087,True,25,-,-,-
Y2-S2-216K24,1,64,AS,intra_train,37,→,right,→,0.6948671001009643,True,25,-,-,-
Y2-S2-216K24,1,65,AS,exp,28,↑,up,↑,0.5543426999356598,True,17,0,0,0
Y2-S2-216K24,1,66,AS,exp,38,←,right,→,0.5965906998608261,False,17,-1,0,0
Y2-S2-216K24,1,67,AS,exp,50,→,right,→,0.7191848999354988,True,18,-1,0,0
Y2-S2-216K24,1,68,AS,exp,41,↓,down,↓,0.7185740999411792,True,18,-1,0,0
Y2-S2-216K24,1,69,AS,exp,28,↑,up,↑,0.5649695999454707,True,18,1,1,1
Y2-S2-216K24,1,70,AS,exp,37,→,right,→,0.5742013999260962,True,17,1,0,1
Y2-S2-216K24,1,71,AS,exp,41,↓,down,↓,0.7047274000942707,True,17,1,0,1
Y2-S2-216K24,1,72,AS,exp,36,←,left,←,0.564249400049448,True,17,1,0,1
Y2-S2-216K24,1,73,AS,exp,42,↑,left,←,0.9243554999120533,False,16,-1,1,2
Y2-S2-216K24,1,74,AS,exp,33,←,left,←,0.6345822000876069,True,17,-1,0,2
Y2-S2-216K24,1,75,AS,exp,44,↓,down,↓,0.7609943000134081,True,17,-1,0,2
Y2-S2-216K24,1,76,AS,exp,50,↑,up,↑,0.5633831999730319,True,17,1,1,3
Y2-S2-216K24,1,77,AS,exp,48,↓,down,↓,0.6875134001020342,True,16,1,0,3
Y2-S2-216K24,1,78,AS,exp,47,→,right,→,0.6364865000359714,True,16,1,0,3
Y2-S2-216K24,1,79,AS,exp,31,↑,up,↑,0.5474039998371154,True,16,1,0,3
Y2-S2-216K24,1,80,AS,exp,47,↓,up,↑,0.6397726000286639,False,15,-1,1,4
Y2-S2-216K24,1,81,AS,exp,35,←,right,→,0.553085400024429,False,16,-1,0,4
Y2-S2-216K24,1,82,AS,exp,31,→,right,→,0.5470209000632167,True,17,-1,0,4
Y2-S2-216K24,1,83,AS,exp,42,↑,up,↑,0.5308528000023216,True,17,-1,0,4
Y2-S2-216K24,1,84,AS,exp,50,↓,down,↓,0.7218657000921667,True,17,1,1,5
Y2-S2-216K24,1,85,AS,exp,49,←,left,←,0.6347856998909265,True,16,1,0,5
Y2-S2-216K24,1,86,AS,exp,25,↓,down,↓,0.675772299990058,True,16,1,0,5
Y2-S2-216K24,1,87,AS,exp,45,→,right,→,0.5517241000197828,True,16,1,0,5
Y2-S2-216K24,1,88,AS,exp,50,↑,up,↑,0.6195760001428425,True,15,1,0,5
Y2-S2-216K24,1,89,AS,exp,34,↓,down,↓,0.8389053998980671,True,15,1,0,5
Y2-S2-216K24,1,90,AS,exp,44,←,left,←,0.6273813000880182,True,15,1,0,5
Y2-S2-216K24,1,91,AS,exp,25,↓,down,↓,0.5357065999414772,True,14,1,0,5
Y2-S2-216K24,1,92,AS,exp,46,←,left,←,0.6709694000892341,True,14,1,0,5
Y2-S2-216K24,1,93,AS,exp,45,↓,down,↓,0.5685637998394668,True,14,1,0,5
Y2-S2-216K24,1,94,AS,exp,29,→,right,→,0.5230972999706864,True,13,1,0,5
Y2-S2-216K24,1,95,AS,exp,32,←,left,←,0.564273800002411,True,13,1,0,5
Y2-S2-216K24,1,96,AS,exp,42,→,left,←,0.6441335000563413,False,13,-1,1,6
Y2-S2-216K24,1,97,AS,exp,44,↓,down,↓,0.7701254999265075,True,14,-1,0,6
Y2-S2-216K24,1,98,AS,exp,32,↑,up,↑,0.4431423998903483,True,14,-1,0,6
Y2-S2-216K24,1,99,AS,exp,27,↓,down,↓,0.6617642999626696,True,14,1,1,7
Y2-S2-216K24,1,100,AS,exp,25,←,right,→,0.6708023999817669,False,13,-1,1,8
Y2-S2-216K24,1,101,AS,exp,35,→,right,→,0.8172716000117362,True,14,-1,0,8
Y2-S2-216K24,1,102,AS,exp,50,↑,up,↑,0.4366056998260319,True,14,-1,0,8
Y2-S2-216K24,1,103,AS,exp,32,→,right,→,0.41096140001900494,True,14,1,1,9
Y2-S2-216K24,1,104,AS,exp,44,←,left,←,0.5205188000109047,True,13,1,0,9
Y2-S2-216K24,1,105,AS,exp,42,↓,left,←,0.784892100142315,False,13,-1,1,10
Y2-S2-216K24,1,106,AS,exp,43,→,right,→,0.5844741000328213,True,14,-1,0,10
Y2-S2-216K24,1,107,AS,exp,45,←,right,→,0.6791864999104291,False,14,-1,0,10
Y2-S2-216K24,1,108,AS,exp,39,→,right,→,0.6004138998687267,True,15,-1,0,10
Y2-S2-216K24,1,109,AS,exp,49,←,left,←,0.8427426000125706,True,15,-1,0,10
Y2-S2-216K24,1,110,AS,exp,27,→,right,→,0.5152175999246538,True,15,1,1,11
Y2-S2-216K24,1,111,AS,exp,26,↑,up,↑,0.586145999841392,True,14,1,0,11
Y2-S2-216K24,1,112,AS,exp,27,←,right,→,0.4752379001583904,False,14,-1,1,12
Y2-S2-216K24,1,113,AS,exp,43,↑,up,↑,0.44800029997713864,True,15,-1,0,12
Y2-S2-216K24,1,114,AS,exp,32,→,right,→,0.5609059000853449,True,15,-1,0,12
Y2-S2-216K24,1,115,AS,exp,49,↑,up,↑,0.5351823999080807,True,15,1,1,13
Y2-S2-216K24,1,116,AS,exp,39,→,right,→,0.5909586998168379,True,14,1,0,13
Y2-S2-216K24,1,117,AS,exp,26,↑,right,→,1.0961947001051158,False,14,-1,1,14
Y2-S2-216K24,1,118,AS,exp,37,↓,down,↓,0.9999814000912011,True,15,-1,0,14
Y2-S2-216K24,1,119,AS,exp,28,↑,up,↑,0.5500913001596928,True,15,-1,0,14
Y2-S2-216K24,1,120,AS,exp,28,→,right,→,0.5739698000252247,True,15,1,1,15
Y2-S2-216K24,1,121,AS,exp,42,↓,down,↓,0.7351102998945862,True,14,1,0,15
Y2-S2-216K24,1,122,AS,exp,26,↑,up,↑,0.6836993000470102,True,14,1,0,15
Y2-S2-216K24,1,123,AS,exp,48,→,right,→,0.4844931000843644,True,14,1,0,15
Y2-S2-216K24,1,124,AS,exp,30,↓,down,↓,0.7582137999124825,True,13,1,0,15
Y2-S2-216K24,1,125,AS,exp,27,←,left,←,0.6480991998687387,True,13,1,0,15
Y2-S2-216K24,1,126,AS,exp,37,↓,down,↓,0.6863265000283718,True,13,1,0,15
Y2-S2-216K24,1,127,AS,exp,29,→,right,→,0.7254284000955522,True,12,1,0,15
Y2-S2-216K24,1,128,AS,exp,43,←,left,←,0.5268102998379618,True,12,1,0,15
Y2-S2-216K24,1,129,AS,exp,45,↑,right,→,0.6945439998526126,False,12,-1,1,16
Y2-S2-216K24,2,130,PS,intra_train,35,↓,down,↓,0.7142902000341564,True,21,-,-,-
Y2-S2-216K24,2,131,PS,intra_train,35,↑,up,↑,0.7175481000449508,True,21,-,-,-
Y2-S2-216K24,2,132,PS,intra_train,34,↓,down,↓,0.6309496997855604,True,21,-,-,-
Y2-S2-216K24,2,133,PS,intra_train,33,←,left,←,1.1340956999920309,True,21,-,-,-
Y2-S2-216K24,2,134,PS,intra_train,48,→,right,→,0.9107902999967337,True,21,-,-,-
Y2-S2-216K24,2,135,PS,exp,30,↑,left,←,0.9176237001083791,False,14,-1,0,0
Y2-S2-216K24,2,136,PS,exp,32,→,right,→,0.8225304000079632,True,15,-1,0,0
Y2-S2-216K24,2,137,PS,exp,42,↓,down,↓,0.5953740999102592,True,15,-1,0,0
Y2-S2-216K24,2,138,PS,exp,29,→,right,→,0.6343179999385029,True,15,1,1,1
Y2-S2-216K24,2,139,PS,exp,46,↓,left,←,0.7175345001742244,False,14,-1,1,2
Y2-S2-216K24,2,140,PS,exp,42,←,left,←,0.6939483000896871,True,15,-1,0,2
Y2-S2-216K24,2,141,PS,exp,26,↑,up,↑,0.5653903000056744,True,15,-1,0,2
Y2-S2-216K24,2,142,PS,exp,25,→,left,←,0.7968113999813795,False,15,-1,0,2
Y2-S2-216K24,2,143,PS,exp,42,←,left,←,0.5043376001995057,True,16,-1,0,2
Y2-S2-216K24,2,144,PS,exp,49,↑,right,→,0.5915451999753714,False,16,-1,0,2
Y2-S2-216K24,2,145,PS,exp,29,→,right,→,0.5500441000331193,True,17,-1,0,2
Y2-S2-216K24,2,146,PS,exp,29,←,left,←,0.677364100003615,True,17,-1,0,2
Y2-S2-216K24,2,147,PS,exp,25,→,right,→,0.5052398000843823,True,17,1,1,3
Y2-S2-216K24,2,148,PS,exp,39,↑,up,↑,0.5959916999563575,True,16,1,0,3
Y2-S2-216K24,2,149,PS,exp,47,↓,down,↓,0.8040318998973817,True,16,1,0,3
Y2-S2-216K24,2,150,PS,exp,37,→,right,→,0.6224853999447078,True,16,1,0,3
Y2-S2-216K24,2,151,PS,exp,50,←,left,←,0.6381949000060558,True,15,1,0,3
Y2-S2-216K24,2,152,PS,exp,48,↓,down,↓,0.7020920000504702,True,15,1,0,3
Y2-S2-216K24,2,153,PS,exp,45,←,left,←,0.5965159998741001,True,15,1,0,3
Y2-S2-216K24,2,154,PS,exp,35,↑,down,↓,0.7398538000416011,False,14,-1,1,4
Y2-S2-216K24,2,155,PS,exp,32,→,right,→,0.5136373999994248,True,15,-1,0,4
Y2-S2-216K24,2,156,PS,exp,38,←,left,←,0.7506191998254508,True,15,-1,0,4
Y2-S2-216K24,2,157,PS,exp,27,→,right,→,0.49194699991494417,True,15,1,1,5
Y2-S2-216K24,2,158,PS,exp,49,↓,left,←,0.7976889999117702,False,14,-1,1,6
Y2-S2-216K24,2,159,PS,exp,26,←,up,↑,0.7541549999732524,False,15,-1,0,6
Y2-S2-216K24,2,160,PS,exp,32,↑,left,←,0.7193363001570106,False,16,-1,0,6
Y2-S2-216K24,2,161,PS,exp,48,→,right,→,0.4764501000754535,True,17,-1,0,6
Y2-S2-216K24,2,162,PS,exp,33,↑,right,→,0.8124000998213887,False,17,-1,0,6
Y2-S2-216K24,2,163,PS,exp,35,↓,down,↓,0.8071661000140011,True,18,-1,0,6
Y2-S2-216K24,2,164,PS,exp,33,→,right,→,0.5541489999741316,True,18,-1,0,6
Y2-S2-216K24,2,165,PS,exp,35,↓,down,↓,0.5783406000118703,True,18,1,1,7
Y2-S2-216K24,2,166,PS,exp,45,↑,up,↑,0.5061952997930348,True,17,1,0,7
Y2-S2-216K24,2,167,PS,exp,33,→,right,→,0.5821402999572456,True,17,1,0,7
Y2-S2-216K24,2,168,PS,exp,27,↑,up,↑,0.5708804000169039,True,17,1,0,7
Y2-S2-216K24,2,169,PS,exp,32,→,right,→,0.5946748000569642,True,16,1,0,7
Y2-S2-216K24,2,170,PS,exp,31,←,left,←,0.5844657998532057,True,16,1,0,7
Y2-S2-216K24,2,171,PS,exp,35,↓,down,↓,0.5969974000472575,True,16,1,0,7
Y2-S2-216K24,2,172,PS,exp,31,↑,up,↑,0.4799614001531154,True,15,1,0,7
Y2-S2-216K24,2,173,PS,exp,46,←,right,→,0.44087529997341335,False,15,-1,1,8
Y2-S2-216K24,2,174,PS,exp,38,→,right,→,0.5938764999154955,True,16,-1,0,8
Y2-S2-216K24,2,175,PS,exp,44,↓,down,↓,0.5890898001380265,True,16,-1,0,8
Y2-S2-216K24,2,176,PS,exp,42,←,left,←,0.4997258000075817,True,16,1,1,9
Y2-S2-216K24,2,177,PS,exp,31,↑,up,↑,0.5658561999443918,True,15,1,0,9
Y2-S2-216K24,2,178,PS,exp,33,→,right,→,0.630798100028187,True,15,1,0,9
Y2-S2-216K24,2,179,PS,exp,32,↑,up,↑,0.4602733999490738,True,15,1,0,9
Y2-S2-216K24,2,180,PS,exp,44,→,right,→,0.5185338999144733,True,14,1,0,9
Y2-S2-216K24,2,181,PS,exp,27,↑,left,←,0.928269200026989,False,14,-1,1,10
Y2-S2-216K24,2,182,PS,exp,44,→,right,→,0.47885479987598956,True,15,-1,0,10
Y2-S2-216K24,2,183,PS,exp,45,↑,up,↑,0.505957700079307,True,15,-1,0,10
Y2-S2-216K24,2,184,PS,exp,28,←,left,←,0.5057063000276685,True,15,1,1,11
Y2-S2-216K24,2,185,PS,exp,36,↑,left,←,0.9426186999771744,False,14,-1,1,12
Y2-S2-216K24,2,186,PS,exp,39,←,left,←,0.56275669997558,True,15,-1,0,12
Y2-S2-216K24,2,187,PS,exp,46,↑,up,↑,0.47928690002299845,True,15,-1,0,12
Y2-S2-216K24,2,188,PS,exp,49,→,right,→,0.5981970001012087,True,15,1,1,13
Y2-S2-216K24,2,189,PS,exp,28,←,left,←,0.4259734000079334,True,14,1,0,13
Y2-S2-216K24,2,190,PS,exp,26,↑,up,↑,0.4947999999858439,True,14,1,0,13
Y2-S2-216K24,2,191,PS,exp,27,↓,left,←,0.7629565000534058,False,14,-1,1,14
Y2-S2-216K24,2,192,PS,exp,36,←,left,←,0.5383797001559287,True,15,-1,0,14
Y2-S2-216K24,2,193,PS,exp,47,→,right,→,0.507446700008586,True,15,-1,0,14
Y2-S2-216K24,2,194,PS,exp,29,↓,down,↓,0.763782599940896,True,15,1,1,15
Y2-S2-216K24,2,195,PS,exp,44,←,left,←,0.5490120998583734,True,14,1,0,15
Y2-S2-216K24,2,196,PS,exp,31,↑,up,↑,0.5483405000995845,True,14,1,0,15
Y2-S2-216K24,2,197,PS,exp,44,→,right,→,0.45892719994299114,True,14,1,0,15
Y2-S2-216K24,2,198,PS,exp,29,↑,up,↑,0.528371199965477,True,13,1,0,15
Y2-S2-216K24,2,199,PS,exp,31,↓,down,↓,0.6606124001555145,True,13,1,0,15
Y2-S2-216K24,2,200,PS,exp,33,→,right,→,0.4510266000870615,True,13,1,0,15
Y2-S2-216K24,2,201,PS,exp,47,←,left,←,0.401041500037536,True,12,1,0,15
Y2-S2-216K24,2,202,PS,exp,26,→,right,→,0.5169935999438167,True,12,1,0,15
Y2-S2-216K24,2,203,PS,exp,27,↓,down,↓,0.7390354999806732,True,12,1,0,15
Y2-S2-216K24,2,204,PS,exp,48,←,left,←,0.4900903000961989,True,11,1,0,15
Y2-S2-216K24,2,205,PS,exp,44,↓,down,↓,0.5403732999693602,True,11,1,0,15
Y2-S2-216K24,2,206,PS,exp,30,←,left,←,0.7245260998606682,True,11,1,0,15
Y2-S2-216K24,2,207,PS,exp,50,→,right,→,0.8194399001076818,True,10,1,0,15
Y2-S2-216K24,2,208,PS,exp,48,↓,down,↓,0.5985483999829739,True,10,1,0,15
Y2-S2-216K24,2,209,PS,exp,43,←,right,→,0.5432957999873906,False,10,-1,1,16
Y2-S2-216K24,3,210,PS,intra_train,25,→,right,→,0.5523815997876227,True,21,-,-,-
Y2-S2-216K24,3,211,PS,intra_train,40,↓,down,↓,1.338865599827841,True,21,-,-,-
Y2-S2-216K24,3,212,PS,intra_train,27,↑,up,↑,0.5369199998676777,True,21,-,-,-
Y2-S2-216K24,3,213,PS,intra_train,31,→,right,→,0.4672004000749439,True,21,-,-,-
Y2-S2-216K24,3,214,PS,intra_train,29,↓,down,↓,1.2269883998669684,True,21,-,-,-
Y2-S2-216K24,3,215,PS,exp,47,←,down,↓,0.36704040016047657,False,14,-1,0,0
Y2-S2-216K24,3,216,PS,exp,37,↓,down,↓,0.6031583999283612,True,15,-1,0,0
Y2-S2-216K24,3,217,PS,exp,38,↑,up,↑,0.5077946002129465,True,15,-1,0,0
Y2-S2-216K24,3,218,PS,exp,29,↓,down,↓,0.5376267000101507,True,15,1,1,1
Y2-S2-216K24,3,219,PS,exp,40,←,left,←,0.6421711998991668,True,14,1,0,1
Y2-S2-216K24,3,220,PS,exp,28,↓,down,↓,0.43636559997685254,True,14,1,0,1
Y2-S2-216K24,3,221,PS,exp,40,↑,up,↑,0.49311230005696416,True,14,1,0,1
Y2-S2-216K24,3,222,PS,exp,41,←,right,→,0.670873099938035,False,13,-1,1,2
Y2-S2-216K24,3,223,PS,exp,44,↓,down,↓,0.530202099820599,True,14,-1,0,2
Y2-S2-216K24,3,224,PS,exp,45,→,right,→,0.6869926999788731,True,14,-1,0,2
Y2-S2-216K24,3,225,PS,exp,46,↓,down,↓,0.6373582999221981,True,14,1,1,3
Y2-S2-216K24,3,226,PS,exp,29,↑,up,↑,0.4701533999759704,True,13,1,0,3
Y2-S2-216K24,3,227,PS,exp,36,←,left,←,0.6285851998254657,True,13,1,0,3
Y2-S2-216K24,3,228,PS,exp,40,↑,up,↑,0.41394470003433526,True,13,1,0,3
Y2-S2-216K24,3,229,PS,exp,32,↓,down,↓,0.586648200172931,True,12,1,0,3
Y2-S2-216K24,3,230,PS,exp,35,→,right,→,0.44062240002676845,True,12,1,0,3
Y2-S2-216K24,3,231,PS,exp,41,←,left,←,0.7452562998514622,True,12,1,0,3
Y2-S2-216K24,3,232,PS,exp,38,↓,right,→,1.0789360001217574,False,11,-1,1,4
Y2-S2-216K24,3,233,PS,exp,35,↑,up,↑,0.44051520014181733,True,12,-1,0,4
Y2-S2-216K24,3,234,PS,exp,44,→,left,←,0.7375553001184016,False,12,-1,0,4
Y2-S2-216K24,3,235,PS,exp,37,←,left,←,0.761951900087297,True,13,-1,0,4
Y2-S2-216K24,3,236,PS,exp,31,↑,up,↑,0.6015021000057459,True,13,-1,0,4
Y2-S2-216K24,3,237,PS,exp,40,←,left,←,0.5723073000553995,True,13,1,1,5
Y2-S2-216K24,3,238,PS,exp,44,↑,up,↑,0.7203171998262405,True,12,1,0,5
Y2-S2-216K24,3,239,PS,exp,38,←,left,←,0.7114959999453276,True,12,1,0,5
Y2-S2-216K24,3,240,PS,exp,35,↑,up,↑,0.5081879000645131,True,12,1,0,5
Y2-S2-216K24,3,241,PS,exp,36,←,right,→,0.6389485998079181,False,11,-1,1,6
Y2-S2-216K24,3,242,PS,exp,35,↑,up,↑,0.4585353001020849,True,12,-1,0,6
Y2-S2-216K24,3,243,PS,exp,40,→,right,→,0.5054844999685884,True,12,-1,0,6
Y2-S2-216K24,3,244,PS,exp,33,↑,right,→,0.6900875999126583,False,12,-1,0,6
Y2-S2-216K24,3,245,PS,exp,25,↓,up,↑,0.5795923999976367,False,13,-1,0,6
Y2-S2-216K24,3,246,PS,exp,47,↑,up,↑,0.460977700073272,True,14,-1,0,6
Y2-S2-216K24,3,247,PS,exp,27,↓,up,↑,0.5024824999272823,False,14,-1,0,6
Y2-S2-216K24,3,248,PS,exp,34,→,right,→,0.6200200999155641,True,15,-1,0,6
Y2-S2-216K24,3,249,PS,exp,47,←,left,←,0.5160604000557214,True,15,-1,0,6
Y2-S2-216K24,3,250,PS,exp,32,↑,up,↑,0.5569746000692248,True,15,1,1,7
Y2-S2-216K24,3,251,PS,exp,34,←,right,→,0.536755699897185,False,14,-1,1,8
Y2-S2-216K24,3,252,PS,exp,27,↓,up,↑,0.5853114000055939,False,15,-1,0,8
Y2-S2-216K24,3,253,PS,exp,25,→,right,→,0.7020207999739796,True,16,-1,0,8
Y2-S2-216K24,3,254,PS,exp,40,↓,down,↓,0.6163593998644501,True,16,-1,0,8
Y2-S2-216K24,3,255,PS,exp,37,→,right,→,0.5836227000690997,True,16,1,1,9
Y2-S2-216K24,3,256,PS,exp,25,↑,up,↑,0.60889200004749,True,15,1,0,9
Y2-S2-216K24,3,257,PS,exp,40,←,left,←,0.5307013001292944,True,15,1,0,9
Y2-S2-216K24,3,258,PS,exp,36,→,right,→,0.6146100000478327,True,15,1,0,9
Y2-S2-216K24,3,259,PS,exp,45,↓,down,↓,0.5071032999549061,True,14,1,0,9
Y2-S2-216K24,3,260,PS,exp,42,←,left,←,0.9057275999803096,True,14,1,0,9
Y2-S2-216K24,3,261,PS,exp,25,↑,down,↓,0.6441387999802828,False,14,-1,1,10
Y2-S2-216K24,3,262,PS,exp,36,↓,down,↓,0.468054800061509,True,15,-1,0,10
Y2-S2-216K24,3,263,PS,exp,37,→,right,→,1.2437891999725252,True,15,-1,0,10
Y2-S2-216K24,3,264,PS,exp,27,←,left,←,0.5532323000952601,True,15,1,1,11
Y2-S2-216K24,3,265,PS,exp,32,→,right,→,0.4378508999943733,True,14,1,0,11
Y2-S2-216K24,3,266,PS,exp,27,↓,down,↓,0.6415148000232875,True,14,1,0,11
Y2-S2-216K24,3,267,PS,exp,48,↑,up,↑,0.5309405999723822,True,14,1,0,11
Y2-S2-216K24,3,268,PS,exp,34,→,right,→,0.6008730998728424,True,13,1,0,11
Y2-S2-216K24,3,269,PS,exp,25,←,left,←,0.5189163000322878,True,13,1,0,11
Y2-S2-216K24,3,270,PS,exp,42,↓,down,↓,0.7361967999022454,True,13,1,0,11
Y2-S2-216K24,3,271,PS,exp,49,←,left,←,0.5151476000901312,True,12,1,0,11
Y2-S2-216K24,3,272,PS,exp,31,↑,down,↓,0.6284184001851827,False,12,-1,1,12
Y2-S2-216K24,3,273,PS,exp,29,↓,down,↓,0.5170997001696378,True,13,-1,0,12
Y2-S2-216K24,3,274,PS,exp,50,→,right,→,0.894677999895066,True,13,-1,0,12
Y2-S2-216K24,3,275,PS,exp,26,↑,down,↓,0.5464655999094248,False,13,-1,0,12
Y2-S2-216K24,3,276,PS,exp,39,→,right,→,0.646582200191915,True,14,-1,0,12
Y2-S2-216K24,3,277,PS,exp,45,←,left,←,0.4620240000076592,True,14,-1,0,12
Y2-S2-216K24,3,278,PS,exp,43,↑,up,↑,0.5350897000171244,True,14,1,1,13
Y2-S2-216K24,3,279,PS,exp,26,→,right,→,0.956817600177601,True,13,1,0,13
Y2-S2-216K24,3,280,PS,exp,43,↓,down,↓,0.624414199963212,True,13,1,0,13
Y2-S2-216K24,3,281,PS,exp,27,↑,down,↓,0.5788394999690354,False,13,-1,1,14
Y2-S2-216K24,3,282,PS,exp,36,←,right,→,0.5419932999648154,False,14,-1,0,14
Y2-S2-216K24,3,283,PS,exp,50,→,right,→,0.49463540012948215,True,15,-1,0,14
Y2-S2-216K24,3,284,PS,exp,28,↓,down,↓,0.4682133998721838,True,15,-1,0,14
Y2-S2-216K24,3,285,PS,exp,33,←,left,←,0.6485339000355452,True,15,1,1,15
Y2-S2-216K24,3,286,PS,exp,35,↑,up,↑,0.5487619999330491,True,14,1,0,15
Y2-S2-216K24,3,287,PS,exp,35,→,right,→,0.5223386001307517,True,14,1,0,15
Y2-S2-216K24,3,288,PS,exp,31,↓,up,↑,0.7966787999030203,False,14,-1,1,16
Y2-S2-216K24,4,289,AS,intra_train,29,↑,up,↑,0.550317799905315,True,25,-,-,-
Y2-S2-216K24,4,290,AS,intra_train,47,→,right,→,0.6007368001155555,True,25,-,-,-
Y2-S2-216K24,4,291,AS,intra_train,29,↑,up,↑,0.4841257000807673,True,25,-,-,-
Y2-S2-216K24,4,292,AS,intra_train,42,←,left,←,0.6033108998090029,True,25,-,-,-
Y2-S2-216K24,4,293,AS,intra_train,37,↓,down,↓,0.6363206999376416,True,25,-,-,-
Y2-S2-216K24,4,294,AS,exp,47,→,right,→,0.5527582000941038,True,17,0,0,0
Y2-S2-216K24,4,295,AS,exp,42,←,left,←,0.5061711999587715,True,17,0,0,0
Y2-S2-216K24,4,296,AS,exp,44,↓,down,↓,0.5321772999595851,True,17,1,0,0
Y2-S2-216K24,4,297,AS,exp,29,←,right,→,0.4787834999151528,False,16,-1,1,1
Y2-S2-216K24,4,298,AS,exp,46,↓,down,↓,0.6119860999751836,True,17,-1,0,1
Y2-S2-216K24,4,299,AS,exp,43,←,left,←,0.6570504999253899,True,17,-1,0,1
Y2-S2-216K24,4,300,AS,exp,34,↑,up,↑,0.5286149000748992,True,17,1,1,2
Y2-S2-216K24,4,301,AS,exp,43,→,left,←,0.6956020998768508,False,16,-1,1,3
Y2-S2-216K24,4,302,AS,exp,28,↑,up,↑,0.6639970000833273,True,17,-1,0,3
Y2-S2-216K24,4,303,AS,exp,25,→,right,→,0.582432399969548,True,17,-1,0,3
Y2-S2-216K24,4,304,AS,exp,48,↓,down,↓,0.6035011000931263,True,17,1,1,4
Y2-S2-216K24,4,305,AS,exp,41,→,right,→,0.7277997999917716,True,16,1,0,4
Y2-S2-216K24,4,306,AS,exp,30,↑,up,↑,0.6266231997869909,True,16,1,0,4
Y2-S2-216K24,4,307,AS,exp,33,→,left,←,0.7211392999161035,False,16,-1,1,5
Y2-S2-216K24,4,308,AS,exp,50,↓,down,↓,0.5253652001265436,True,17,-1,0,5
Y2-S2-216K24,4,309,AS,exp,36,←,left,←,0.8319488000124693,True,17,-1,0,5
Y2-S2-216K24,4,310,AS,exp,35,↑,up,↑,0.5119811999611557,True,17,1,1,6
Y2-S2-216K24,4,311,AS,exp,31,→,right,→,0.7223841999657452,True,16,1,0,6
Y2-S2-216K24,4,312,AS,exp,47,↑,up,↑,0.7448573000729084,True,16,1,0,6
Y2-S2-216K24,4,313,AS,exp,38,→,right,→,0.6386089001316577,True,16,1,0,6
Y2-S2-216K24,4,314,AS,exp,43,↓,down,↓,0.4959017999935895,True,15,1,0,6
Y2-S2-216K24,4,315,AS,exp,26,↑,up,↑,0.4235778998117894,True,15,1,0,6
Y2-S2-216K24,4,316,AS,exp,33,↓,down,↓,0.8554688000585884,True,15,1,0,6
Y2-S2-216K24,4,317,AS,exp,31,→,right,→,0.614888200070709,True,14,1,0,6
Y2-S2-216K24,4,318,AS,exp,37,↑,up,↑,0.5557059999555349,True,14,1,0,6
Y2-S2-216K24,4,319,AS,exp,34,←,right,→,0.549481299938634,False,14,-1,1,7
Y2-S2-216K24,4,320,AS,exp,46,↓,down,↓,0.46257090009748936,True,15,-1,0,7
Y2-S2-216K24,4,321,AS,exp,46,↑,up,↑,0.5878584000747651,True,15,-1,0,7
Y2-S2-216K24,4,322,AS,exp,48,→,right,→,0.670169600052759,True,15,1,1,8
Y2-S2-216K24,4,323,AS,exp,29,↑,up,↑,0.6333351000212133,True,14,1,0,8
Y2-S2-216K24,4,324,AS,exp,26,↓,down,↓,0.6970259000081569,True,14,1,0,8
Y2-S2-216K24,4,325,AS,exp,40,↑,up,↑,0.507681000046432,True,14,1,0,8
Y2-S2-216K24,4,326,AS,exp,46,↓,down,↓,0.5759483999572694,True,13,1,0,8
Y2-S2-216K24,4,327,AS,exp,31,→,left,←,0.7869856001343578,False,13,-1,1,9
Y2-S2-216K24,4,328,AS,exp,43,↓,down,↓,0.7031682999804616,True,14,-1,0,9
Y2-S2-216K24,4,329,AS,exp,46,→,right,→,0.5779413001146168,True,14,-1,0,9
Y2-S2-216K24,4,330,AS,exp,35,↓,down,↓,0.6465332000516355,True,14,1,1,10
Y2-S2-216K24,4,331,AS,exp,27,↑,up,↑,0.7541553999762982,True,13,1,0,10
Y2-S2-216K24,4,332,AS,exp,40,←,left,←,0.7096196999773383,True,13,1,0,10
Y2-S2-216K24,4,333,AS,exp,44,↑,up,↑,0.5477964000310749,True,13,1,0,10
Y2-S2-216K24,4,334,AS,exp,30,↓,up,↑,0.5010288001503795,False,12,-1,1,11
Y2-S2-216K24,4,335,AS,exp,48,→,left,←,0.732673899969086,False,13,-1,0,11
Y2-S2-216K24,4,336,AS,exp,36,←,right,→,0.7260414001066238,False,14,-1,0,11
Y2-S2-216K24,4,337,AS,exp,42,↑,up,↑,0.5097926999442279,True,15,-1,0,11
Y2-S2-216K24,4,338,AS,exp,33,→,right,→,0.587733400054276,True,15,-1,0,11
Y2-S2-216K24,4,339,AS,exp,31,↑,up,↑,0.47884620004333556,True,15,1,1,12
Y2-S2-216K24,4,340,AS,exp,25,←,left,←,0.8599039001855999,True,14,1,0,12
Y2-S2-216K24,4,341,AS,exp,44,→,right,→,1.0216542999260128,True,14,1,0,12
Y2-S2-216K24,4,342,AS,exp,46,↑,up,↑,1.891651599900797,True,14,1,0,12
Y2-S2-216K24,4,343,AS,exp,30,←,right,→,0.6149096998851746,False,13,-1,1,13
Y2-S2-216K24,4,344,AS,exp,41,↓,up,↑,1.0612261998467147,False,14,-1,0,13
Y2-S2-216K24,4,345,AS,exp,50,→,right,→,0.5495241000317037,True,15,-1,0,13
Y2-S2-216K24,4,346,AS,exp,50,↑,up,↑,0.5785293001681566,True,15,-1,0,13
Y2-S2-216K24,4,347,AS,exp,36,↓,up,↑,0.6597715001553297,False,15,-1,0,13
Y2-S2-216K24,4,348,AS,exp,45,→,left,←,0.5842408000025898,False,16,-1,0,13
Y2-S2-216K24,4,349,AS,exp,28,↓,down,↓,0.6478073999751359,True,17,-1,0,13
Y2-S2-216K24,4,350,AS,exp,38,↑,left,←,1.0522584998980165,False,17,-1,0,13
Y2-S2-216K24,4,351,AS,exp,36,→,right,→,0.49777060002088547,True,18,-1,0,13
Y2-S2-216K24,4,352,AS,exp,38,←,up,↑,0.7837543999776244,False,18,-1,0,13
Y2-S2-216K24,4,353,AS,exp,43,↑,up,↑,0.6821475001052022,True,19,-1,0,13
Y2-S2-216K24,4,354,AS,exp,25,←,up,↑,1.492322999984026,False,19,-1,0,13
Y2-S2-216K24,4,355,AS,exp,40,↑,up,↑,0.5430085998959839,True,20,-1,0,13
Y2-S2-216K24,4,356,AS,exp,31,↓,down,↓,0.7465423999819905,True,20,-1,0,13
Y2-S2-216K24,4,357,AS,exp,25,→,left,←,0.46701900009065866,False,20,-1,0,13
Y2-S2-216K24,4,358,AS,exp,41,←,left,←,0.8098581000231206,True,21,-1,0,13
Y2-S2-216K24,4,359,AS,exp,34,→,right,→,0.9497517000418156,True,21,-1,0,13
Y2-S2-216K24,4,360,AS,exp,41,↑,up,↑,0.5707592000253499,True,21,1,1,14
Y2-S2-216K24,4,361,AS,exp,50,←,left,←,0.567096000071615,True,20,1,0,14
Y2-S2-216K24,4,362,AS,exp,30,↓,down,↓,0.6295477000530809,True,20,1,0,14
Y2-S2-216K24,4,363,AS,exp,32,→,right,→,0.5932569999713451,True,20,1,0,14
Y2-S2-216K24,4,364,AS,exp,32,↓,down,↓,0.6122023998759687,True,19,1,0,14
Y2-S2-216K24,4,365,AS,exp,31,→,right,→,0.5366851999424398,True,19,1,0,14
Y2-S2-216K24,4,366,AS,exp,45,↓,down,↓,0.7390262000262737,True,19,1,0,14
Y2-S2-216K24,4,367,AS,exp,43,←,up,↑,0.9375392999500036,False,18,-1,1,15
Y2-S2-216K24,4,368,AS,exp,49,↑,up,↑,0.6558421000372618,True,19,-1,0,15
Y2-S2-216K24,4,369,AS,exp,33,→,right,→,0.6200080998241901,True,19,-1,0,15
Y2-S2-216K24,4,370,AS,exp,38,←,left,←,0.5790385999716818,True,19,1,1,16
Y2-S2-216K24,5,371,AS,intra_train,26,↓,down,↓,0.6637257998809218,True,25,-,-,-
Y2-S2-216K24,5,372,AS,intra_train,38,→,right,→,0.7659786001313478,True,25,-,-,-
Y2-S2-216K24,5,373,AS,intra_train,26,←,left,←,1.4940164999570698,True,25,-,-,-
Y2-S2-216K24,5,374,AS,intra_train,48,↑,up,↑,0.6289351999294013,True,25,-,-,-
Y2-S2-216K24,5,375,AS,intra_train,39,↓,down,↓,0.5938242999836802,True,25,-,-,-
Y2-S2-216K24,5,376,AS,exp,32,←,left,←,0.8015343998558819,True,17,0,0,0
Y2-S2-216K24,5,377,AS,exp,25,→,right,→,0.8932849001139402,True,17,0,0,0
Y2-S2-216K24,5,378,AS,exp,30,↑,up,↑,0.534550900105387,True,17,1,0,0
Y2-S2-216K24,5,379,AS,exp,30,←,left,←,0.6386174000799656,True,16,1,0,0
Y2-S2-216K24,5,380,AS,exp,45,→,right,→,0.6405099001713097,True,16,1,0,0
Y2-S2-216K24,5,381,AS,exp,25,←,left,←,0.5162933000829071,True,16,1,0,0
Y2-S2-216K24,5,382,AS,exp,26,→,right,→,0.6838539000600576,True,15,1,0,0
Y2-S2-216K24,5,383,AS,exp,30,↓,down,↓,0.6481019998900592,True,15,1,0,0
Y2-S2-216K24,5,384,AS,exp,42,←,left,←,0.5785920999478549,True,15,1,0,0
Y2-S2-216K24,5,385,AS,exp,37,↑,up,↑,0.6696291000116616,True,14,1,0,0
Y2-S2-216K24,5,386,AS,exp,35,←,left,←,0.7634736001491547,True,14,1,0,0
Y2-S2-216K24,5,387,AS,exp,33,↑,up,↑,0.5459125000052154,True,14,1,0,0
Y2-S2-216K24,5,388,AS,exp,45,→,left,←,0.8351370999589562,False,13,-1,1,1
Y2-S2-216K24,5,389,AS,exp,50,↑,up,↑,0.6761914000380784,True,14,-1,0,1
Y2-S2-216K24,5,390,AS,exp,38,↓,down,↓,0.6000857001636177,True,14,-1,0,1
Y2-S2-216K24,5,391,AS,exp,32,←,right,→,0.8140462001319975,False,14,-1,0,1
Y2-S2-216K24,5,392,AS,exp,33,→,right,→,0.5822336999699473,True,15,-1,0,1
Y2-S2-216K24,5,393,AS,exp,29,↑,up,↑,0.5830125999636948,True,15,-1,0,1
Y2-S2-216K24,5,394,AS,exp,25,↓,down,↓,0.6112444000318646,True,15,1,1,2
Y2-S2-216K24,5,395,AS,exp,37,↑,up,↑,0.4537549000233412,True,14,1,0,2
Y2-S2-216K24,5,396,AS,exp,34,↓,down,↓,0.5833293998148292,True,14,1,0,2
Y2-S2-216K24,5,397,AS,exp,49,→,left,←,0.7950187001843005,False,14,-1,1,3
Y2-S2-216K24,5,398,AS,exp,30,↓,down,↓,0.6568293999880552,True,15,-1,0,3
Y2-S2-216K24,5,399,AS,exp,46,←,left,←,0.8711312999948859,True,15,-1,0,3
Y2-S2-216K24,5,400,AS,exp,47,↓,up,↑,0.6897356000263244,False,15,-1,0,3
Y2-S2-216K24,5,401,AS,exp,31,→,right,→,0.6450816998258233,True,16,-1,0,3
Y2-S2-216K24,5,402,AS,exp,28,↑,up,↑,0.8828018000349402,True,16,-1,0,3
Y2-S2-216K24,5,403,AS,exp,49,←,right,→,0.4906488999258727,False,16,-1,0,3
Y2-S2-216K24,5,404,AS,exp,45,↑,up,↑,1.1532691998872906,True,17,-1,0,3
Y2-S2-216K24,5,405,AS,exp,42,↓,down,↓,0.5512473999988288,True,17,-1,0,3
Y2-S2-216K24,5,406,AS,exp,26,←,left,←,0.5294971999246627,True,17,1,1,4
Y2-S2-216K24,5,407,AS,exp,47,→,right,→,0.6536866999231279,True,16,1,0,4
Y2-S2-216K24,5,408,AS,exp,48,↓,down,↓,0.5371500998735428,True,16,1,0,4
Y2-S2-216K24,5,409,AS,exp,39,→,right,→,0.5070931001100689,True,16,1,0,4
Y2-S2-216K24,5,410,AS,exp,32,←,left,←,0.6735231999773532,True,15,1,0,4
Y2-S2-216K24,5,411,AS,exp,48,→,right,→,0.5437077998649329,True,15,1,0,4
Y2-S2-216K24,5,412,AS,exp,33,←,left,←,0.6132193000521511,True,15,1,0,4
Y2-S2-216K24,5,413,AS,exp,26,→,right,→,0.5401173999998719,True,14,1,0,4
Y2-S2-216K24,5,414,AS,exp,35,↑,up,↑,0.5616741001140326,True,14,1,0,4
Y2-S2-216K24,5,415,AS,exp,38,↓,down,↓,0.6021216998342425,True,14,1,0,4
Y2-S2-216K24,5,416,AS,exp,27,←,left,←,0.5624387001153082,True,13,1,0,4
Y2-S2-216K24,5,417,AS,exp,45,↓,down,↓,0.5619290999602526,True,13,1,0,4
Y2-S2-216K24,5,418,AS,exp,38,←,left,←,0.6563784000463784,True,13,1,0,4
Y2-S2-216K24,5,419,AS,exp,37,↑,down,↓,0.6054792001377791,False,12,-1,1,5
Y2-S2-216K24,5,420,AS,exp,28,→,right,→,0.5639855999033898,True,13,-1,0,5
Y2-S2-216K24,5,421,AS,exp,30,↓,right,→,0.8020397999789566,False,13,-1,0,5
Y2-S2-216K24,5,422,AS,exp,26,↑,up,↑,0.6505799998994917,True,14,-1,0,5
Y2-S2-216K24,5,423,AS,exp,40,→,right,→,1.0103736999444664,True,14,-1,0,5
Y2-S2-216K24,5,424,AS,exp,30,←,left,←,0.629222100134939,True,14,1,1,6
Y2-S2-216K24,5,425,AS,exp,46,↓,down,↓,0.7321336998138577,True,13,1,0,6
Y2-S2-216K24,5,426,AS,exp,28,→,right,→,0.5189721002243459,True,13,1,0,6
Y2-S2-216K24,5,427,AS,exp,28,↓,up,↑,0.6777822999283671,False,13,-1,1,7
Y2-S2-216K24,5,428,AS,exp,36,↑,up,↑,0.5542460998985916,True,14,-1,0,7
Y2-S2-216K24,5,429,AS,exp,29,→,left,←,0.9063822000753134,False,14,-1,0,7
Y2-S2-216K24,5,430,AS,exp,41,←,left,←,0.5617180000990629,True,15,-1,0,7
Y2-S2-216K24,5,431,AS,exp,30,→,right,→,0.6433188000228256,True,15,-1,0,7
Y2-S2-216K24,5,432,AS,exp,35,←,left,←,0.4383570000063628,True,15,1,1,8
Y2-S2-216K24,5,433,AS,exp,35,→,left,←,0.8346163001842797,False,14,-1,1,9
Y2-S2-216K24,5,434,AS,exp,35,←,left,←,0.5912786999251693,True,15,-1,0,9
Y2-S2-216K24,5,435,AS,exp,25,→,right,→,0.5823460998944938,True,15,-1,0,9
Y2-S2-216K24,5,436,AS,exp,36,←,up,↑,0.7743534999899566,False,15,-1,0,9
Y2-S2-216K24,5,437,AS,exp,26,↑,up,↑,0.5233176001347601,True,16,-1,0,9
Y2-S2-216K24,5,438,AS,exp,42,↓,up,↑,0.6268903000745922,False,16,-1,0,9
Y2-S2-216K24,5,439,AS,exp,45,↑,up,↑,1.1187731998506933,True,17,-1,0,9
Y2-S2-216K24,5,440,AS,exp,36,→,right,→,0.562318200012669,True,17,-1,0,9
Y2-S2-216K24,5,441,AS,exp,32,←,right,→,0.7338992999866605,False,17,-1,0,9
Y2-S2-216K24,5,442,AS,exp,34,↓,up,↑,0.7477591999340802,False,18,-1,0,9
Y2-S2-216K24,5,443,AS,exp,41,←,left,←,0.5261053999420255,True,19,-1,0,9
Y2-S2-216K24,5,444,AS,exp,49,↑,up,↑,1.1467116000130773,True,19,-1,0,9
Y2-S2-216K24,5,445,AS,exp,36,↓,down,↓,0.5682901998516172,True,19,1,1,10
Y2-S2-216K24,5,446,AS,exp,41,←,right,→,0.6371139001566917,False,18,-1,1,11
Y2-S2-216K24,5,447,AS,exp,33,↑,up,↑,0.35068529983982444,True,19,-1,0,11
Y2-S2-216K24,5,448,AS,exp,28,↓,up,↑,0.41731459996663034,False,19,-1,0,11
Y2-S2-216K24,5,449,AS,exp,48,←,left,←,0.638547700131312,True,20,-1,0,11
Y2-S2-216K24,5,450,AS,exp,38,↓,down,↓,0.6198334000073373,True,20,-1,0,11
Y2-S2-216K24,5,451,AS,exp,38,→,right,→,0.38376370002515614,True,20,1,1,12
Y2-S2-216K24,5,452,AS,exp,40,↑,up,↑,0.4010884000454098,True,19,1,0,12
Y2-S2-216K24,5,453,AS,exp,49,→,right,→,0.4004485998302698,True,19,1,0,12
Y2-S2-216K24,5,454,AS,exp,47,←,right,→,0.7358031999319792,False,19,-1,1,13
Y2-S2-216K24,5,455,AS,exp,41,↑,up,↑,0.8423488000407815,True,20,-1,0,13
Y2-S2-216K24,5,456,AS,exp,33,→,left,←,1.1566775999963284,False,20,-1,0,13
Y2-S2-216K24,5,457,AS,exp,33,↑,up,↑,0.6514220000244677,True,21,-1,0,13
Y2-S2-216K24,5,458,AS,exp,25,↓,down,↓,0.43373519997112453,True,21,-1,0,13
Y2-S2-216K24,5,459,AS,exp,28,→,right,→,0.41711949999444187,True,21,1,1,14
Y2-S2-216K24,5,460,AS,exp,45,←,left,←,0.4511493998579681,True,20,1,0,14
Y2-S2-216K24,5,461,AS,exp,29,↑,up,↑,0.5720289999153465,True,20,1,0,14
Y2-S2-216K24,5,462,AS,exp,29,→,right,→,0.5520627999212593,True,20,1,0,14
Y2-S2-216K24,5,463,AS,exp,48,↓,up,↑,0.7175968999508768,False,19,-1,1,15
Y2-S2-216K24,5,464,AS,exp,40,←,left,←,0.5215192001778632,True,20,-1,0,15
Y2-S2-216K24,5,465,AS,exp,49,↑,up,↑,0.5050272999797016,True,20,-1,0,15
Y2-S2-216K24,5,466,AS,exp,44,→,left,←,0.5094395999331027,False,20,-1,0,15
Y2-S2-216K24,5,467,AS,exp,27,↓,down,↓,1.0355177999008447,True,21,-1,0,15
Y2-S2-216K24,5,468,AS,exp,30,↑,up,↑,0.36732749990187585,True,21,-1,0,15
Y2-S2-216K24,5,469,AS,exp,42,←,left,←,0.6509054999332875,True,21,1,1,16
Y2-S2-216K24,6,470,PS,intra_train,48,↓,down,↓,0.5826956001110375,True,21,-,-,-
Y2-S2-216K24,6,471,PS,intra_train,48,←,left,←,0.7537918000016361,True,21,-,-,-
Y2-S2-216K24,6,472,PS,intra_train,35,→,right,→,1.0827017000410706,True,21,-,-,-
Y2-S2-216K24,6,473,PS,intra_train,39,↑,up,↑,1.0192205000203103,True,21,-,-,-
Y2-S2-216K24,6,474,PS,intra_train,37,→,right,→,0.8187150000594556,True,21,-,-,-
Y2-S2-216K24,6,475,PS,exp,47,↑,up,↑,0.7323761999141425,True,14,0,0,0
Y2-S2-216K24,6,476,PS,exp,42,↓,left,←,0.7818609999958426,False,14,-1,0,0
Y2-S2-216K24,6,477,PS,exp,47,→,right,→,0.4358367999084294,True,15,-1,0,0
Y2-S2-216K24,6,478,PS,exp,40,←,left,←,0.6161585999652743,True,15,-1,0,0
Y2-S2-216K24,6,479,PS,exp,49,↓,up,↑,0.6272672999184579,False,15,-1,0,0
Y2-S2-216K24,6,480,PS,exp,45,→,right,→,0.45871719997376204,True,16,-1,0,0
Y2-S2-216K24,6,481,PS,exp,32,←,left,←,0.7334823000710458,True,16,-1,0,0
Y2-S2-216K24,6,482,PS,exp,37,→,right,→,1.1801618998870254,True,16,1,1,1
Y2-S2-216K24,6,483,PS,exp,35,↓,down,↓,0.5605959999375045,True,15,1,0,1
Y2-S2-216K24,6,484,PS,exp,38,→,right,→,0.5701353999320418,True,15,1,0,1
Y2-S2-216K24,6,485,PS,exp,49,↓,down,↓,0.9638889001216739,True,15,1,0,1
Y2-S2-216K24,6,486,PS,exp,36,→,right,→,0.6649189998861402,True,14,1,0,1
Y2-S2-216K24,6,487,PS,exp,48,↓,down,↓,0.5218144999817014,True,14,1,0,1
Y2-S2-216K24,6,488,PS,exp,28,↑,down,↓,0.7261362001299858,False,14,-1,1,2
Y2-S2-216K24,6,489,PS,exp,30,→,right,→,0.4284377000294626,True,15,-1,0,2
Y2-S2-216K24,6,490,PS,exp,46,↑,up,↑,0.4793881999794394,True,15,-1,0,2
Y2-S2-216K24,6,491,PS,exp,42,↓,down,↓,0.5490188000258058,True,15,1,1,3
Y2-S2-216K24,6,492,PS,exp,48,↑,up,↑,0.4263512999750674,True,14,1,0,3
Y2-S2-216K24,6,493,PS,exp,43,→,right,→,0.5722956999670714,True,14,1,0,3
Y2-S2-216K24,6,494,PS,exp,39,↑,up,↑,0.9337086998857558,True,14,1,0,3
Y2-S2-216K24,6,495,PS,exp,33,→,right,→,0.654939099913463,True,13,1,0,3
Y2-S2-216K24,6,496,PS,exp,45,↓,left,←,0.7333711998071522,False,13,-1,1,4
Y2-S2-216K24,6,497,PS,exp,42,↑,up,↑,0.717125500086695,True,14,-1,0,4
Y2-S2-216K24,6,498,PS,exp,45,→,right,→,0.6580211999826133,True,14,-1,0,4
Y2-S2-216K24,6,499,PS,exp,40,↑,up,↑,0.4293466000817716,True,14,1,1,5
Y2-S2-216K24,6,500,PS,exp,26,←,right,→,0.526577000040561,False,13,-1,1,6
Y2-S2-216K24,6,501,PS,exp,50,↓,up,↑,0.7913785998243839,False,14,-1,0,6
Y2-S2-216K24,6,502,PS,exp,34,→,left,←,0.7288947999477386,False,15,-1,0,6
Y2-S2-216K24,6,503,PS,exp,42,←,right,→,0.506602699868381,False,16,-1,0,6
Y2-S2-216K24,6,504,PS,exp,28,→,right,→,0.7248335999902338,True,17,-1,0,6
Y2-S2-216K24,6,505,PS,exp,50,↓,down,↓,0.6568445998709649,True,17,-1,0,6
Y2-S2-216K24,6,506,PS,exp,47,↑,up,↑,0.46115959994494915,True,17,1,1,7
Y2-S2-216K24,6,507,PS,exp,46,↓,up,↑,0.7493398000951856,False,16,-1,1,8
Y2-S2-216K24,6,508,PS,exp,36,↑,up,↑,0.4820552000310272,True,17,-1,0,8
Y2-S2-216K24,6,509,PS,exp,33,↓,down,↓,0.5231497997883707,True,17,-1,0,8
Y2-S2-216K24,6,510,PS,exp,50,↑,up,↑,0.4004428000189364,True,17,1,1,9
Y2-S2-216K24,6,511,PS,exp,34,←,left,←,0.5140082000289112,True,16,1,0,9
Y2-S2-216K24,6,512,PS,exp,41,↑,up,↑,0.7335180998779833,True,16,1,0,9
Y2-S2-216K24,6,513,PS,exp,47,←,left,←,0.4837759998627007,True,16,1,0,9
Y2-S2-216K24,6,514,PS,exp,29,↑,up,↑,0.45016400003805757,True,15,1,0,9
Y2-S2-216K24,6,515,PS,exp,30,←,left,←,0.6635350999422371,True,15,1,0,9
Y2-S2-216K24,6,516,PS,exp,41,→,right,→,0.47966210008598864,True,15,1,0,9
Y2-S2-216K24,6,517,PS,exp,37,←,left,←,0.5685461000539362,True,14,1,0,9
Y2-S2-216K24,6,518,PS,exp,48,→,right,→,0.9842739999294281,True,14,1,0,9
Y2-S2-216K24,6,519,PS,exp,26,←,right,→,0.6211865998338908,False,14,-1,1,10
Y2-S2-216K24,6,520,PS,exp,35,→,right,→,1.0025154000613838,True,15,-1,0,10
Y2-S2-216K24,6,521,PS,exp,30,↑,right,→,0.7452513999305665,False,15,-1,0,10
Y2-S2-216K24,6,522,PS,exp,33,→,right,→,0.5434177999850363,True,16,-1,0,10
Y2-S2-216K24,6,523,PS,exp,46,↓,down,↓,0.3849025000818074,True,16,-1,0,10
Y2-S2-216K24,6,524,PS,exp,27,←,right,→,0.6850892000366002,False,16,-1,0,10
Y2-S2-216K24,6,525,PS,exp,42,→,right,→,0.49081220012158155,True,17,-1,0,10
Y2-S2-216K24,6,526,PS,exp,31,↓,down,↓,0.4786001001484692,True,17,-1,0,10
Y2-S2-216K24,6,527,PS,exp,43,←,left,←,0.6431525000371039,True,17,1,1,11
Y2-S2-216K24,6,528,PS,exp,45,↑,up,↑,0.5131604000926018,True,16,1,0,11
Y2-S2-216K24,6,529,PS,exp,43,←,left,←,0.5651900002267212,True,16,1,0,11
Y2-S2-216K24,6,530,PS,exp,32,↓,down,↓,0.5375000000931323,True,16,1,0,11
Y2-S2-216K24,6,531,PS,exp,44,→,right,→,0.9752946998924017,True,15,1,0,11
Y2-S2-216K24,6,532,PS,exp,35,←,left,←,0.5326884998939931,True,15,1,0,11
Y2-S2-216K24,6,533,PS,exp,47,→,right,→,0.47201899997889996,True,15,1,0,11
Y2-S2-216K24,6,534,PS,exp,42,↑,up,↑,0.42522540013305843,True,14,1,0,11
Y2-S2-216K24,6,535,PS,exp,30,↓,down,↓,0.5020537998061627,True,14,1,0,11
Y2-S2-216K24,6,536,PS,exp,43,→,left,←,0.6659955999348313,False,14,-1,1,12
Y2-S2-216K24,6,537,PS,exp,48,↑,up,↑,0.609817499993369,True,15,-1,0,12
Y2-S2-216K24,6,538,PS,exp,48,→,right,→,0.47470630006864667,True,15,-1,0,12
Y2-S2-216K24,6,539,PS,exp,27,↑,up,↑,0.4815358000341803,True,15,1,1,13
Y2-S2-216K24,6,540,PS,exp,40,↓,down,↓,0.6709807999432087,True,14,1,0,13
Y2-S2-216K24,6,541,PS,exp,46,↑,left,←,0.8034612000919878,False,14,-1,1,14
Y2-S2-216K24,6,542,PS,exp,43,↓,right,→,0.6851878000888973,False,15,-1,0,14
Y2-S2-216K24,6,543,PS,exp,50,→,right,→,0.6091176001355052,True,16,-1,0,14
Y2-S2-216K24,6,544,PS,exp,36,↑,up,↑,0.44820320000872016,True,16,-1,0,14
Y2-S2-216K24,6,545,PS,exp,38,→,right,→,0.43738130014389753,True,16,1,1,15
Y2-S2-216K24,6,546,PS,exp,39,↑,up,↑,0.520580800017342,True,15,1,0,15
Y2-S2-216K24,6,547,PS,exp,43,←,right,→,0.7415176001377404,False,15,-1,1,16
Y2-S2-216K24,7,548,PS,intra_train,35,→,right,→,0.5498496999498457,True,21,-,-,-
Y2-S2-216K24,7,549,PS,intra_train,25,←,left,←,0.77397680003196,True,21,-,-,-
Y2-S2-216K24,7,550,PS,intra_train,32,→,right,→,0.5681231999769807,True,21,-,-,-
Y2-S2-216K24,7,551,PS,intra_train,26,←,left,←,0.5367725999094546,True,21,-,-,-
Y2-S2-216K24,7,552,PS,intra_train,29,↓,down,↓,0.4504987997934222,True,21,-,-,-
Y2-S2-216K24,7,553,PS,exp,42,↑,up,↑,0.43666770006529987,True,14,0,0,0
Y2-S2-216K24,7,554,PS,exp,26,→,right,→,0.48317110002972186,True,14,0,0,0
Y2-S2-216K24,7,555,PS,exp,47,←,left,←,0.46001089992932975,True,14,1,0,0
Y2-S2-216K24,7,556,PS,exp,44,↑,up,↑,0.967828799970448,True,13,1,0,0
Y2-S2-216K24,7,557,PS,exp,42,→,right,→,0.4919364999514073,True,13,1,0,0
Y2-S2-216K24,7,558,PS,exp,27,←,left,←,0.9098982000723481,True,13,1,0,0
Y2-S2-216K24,7,559,PS,exp,46,→,right,→,0.7876548999920487,True,12,1,0,0
Y2-S2-216K24,7,560,PS,exp,49,↓,up,↑,0.5023143000435084,False,12,-1,1,1
Y2-S2-216K24,7,561,PS,exp,41,←,left,←,0.689066399820149,True,13,-1,0,1
Y2-S2-216K24,7,562,PS,exp,50,→,right,→,0.40344739984720945,True,13,-1,0,1
Y2-S2-216K24,7,563,PS,exp,41,↑,up,↑,0.512794699985534,True,13,1,1,2
Y2-S2-216K24,7,564,PS,exp,34,↓,up,↑,0.4763025001157075,False,12,-1,1,3
Y2-S2-216K24,7,565,PS,exp,36,↑,right,→,0.7380934001412243,False,13,-1,0,3
Y2-S2-216K24,7,566,PS,exp,35,→,right,→,0.4633011999540031,True,14,-1,0,3
Y2-S2-216K24,7,567,PS,exp,41,↓,up,↑,0.4796825998928398,False,14,-1,0,3
Y2-S2-216K24,7,568,PS,exp,26,↑,up,↑,0.6948687999974936,True,15,-1,0,3
Y2-S2-216K24,7,569,PS,exp,27,↓,down,↓,0.5112762998323888,True,15,-1,0,3
Y2-S2-216K24,7,570,PS,exp,36,↑,up,↑,0.4418582001235336,True,15,1,1,4
Y2-S2-216K24,7,571,PS,exp,35,↓,down,↓,0.5242510000243783,True,14,1,0,4
Y2-S2-216K24,7,572,PS,exp,26,→,up,↑,1.0339760000351816,False,14,-1,1,5
Y2-S2-216K24,7,573,PS,exp,35,↓,down,↓,0.5046922001056373,True,15,-1,0,5
Y2-S2-216K24,7,574,PS,exp,43,←,left,←,0.9286082000471652,True,15,-1,0,5
Y2-S2-216K24,7,575,PS,exp,29,↑,up,↑,0.5081084000412375,True,15,1,1,6
Y2-S2-216K24,7,576,PS,exp,28,←,left,←,0.4702792998868972,True,14,1,0,6
Y2-S2-216K24,7,577,PS,exp,42,↑,up,↑,0.4159619000274688,True,14,1,0,6
Y2-S2-216K24,7,578,PS,exp,28,←,left,←,0.549473199993372,True,14,1,0,6
Y2-S2-216K24,7,579,PS,exp,41,↑,up,↑,0.5036889999173582,True,13,1,0,6
Y2-S2-216K24,7,580,PS,exp,37,→,right,→,0.4882769000250846,True,13,1,0,6
Y2-S2-216K24,7,581,PS,exp,33,←,right,→,0.7700226998422295,False,13,-1,1,7
Y2-S2-216K24,7,582,PS,exp,38,↓,down,↓,0.5973714999854565,True,14,-1,0,7
Y2-S2-216K24,7,583,PS,exp,39,←,left,←,0.6483926000073552,True,14,-1,0,7
Y2-S2-216K24,7,584,PS,exp,31,→,right,→,0.6837127998005599,True,14,1,1,8
Y2-S2-216K24,7,585,PS,exp,45,←,left,←,0.48217970016412437,True,13,1,0,8
Y2-S2-216K24,7,586,PS,exp,34,↓,down,↓,0.48835020000115037,True,13,1,0,8
Y2-S2-216K24,7,587,PS,exp,28,←,left,←,0.578702799975872,True,13,1,0,8
Y2-S2-216K24,7,588,PS,exp,27,↓,left,←,0.7151812999509275,False,12,-1,1,9
Y2-S2-216K24,7,589,PS,exp,46,←,left,←,0.44032809999771416,True,13,-1,0,9
Y2-S2-216K24,7,590,PS,exp,42,↓,left,←,0.8493770998902619,False,13,-1,0,9
Y2-S2-216K24,7,591,PS,exp,31,→,right,→,0.4846709000412375,True,14,-1,0,9
Y2-S2-216K24,7,592,PS,exp,36,↓,down,↓,0.5860745999962091,True,14,-1,0,9
Y2-S2-216K24,7,593,PS,exp,37,↑,up,↑,0.4676370001398027,True,14,1,1,10
Y2-S2-216K24,7,594,PS,exp,36,←,right,→,0.72247330006212,False,13,-1,1,11
Y2-S2-216K24,7,595,PS,exp,27,→,right,→,0.4739957998972386,True,14,-1,0,11
Y2-S2-216K24,7,596,PS,exp,30,↓,down,↓,0.6341289000120014,True,14,-1,0,11
Y2-S2-216K24,7,597,PS,exp,34,←,left,←,0.5852316999807954,True,14,1,1,12
Y2-S2-216K24,7,598,PS,exp,41,↑,up,↑,0.5146800000220537,True,13,1,0,12
Y2-S2-216K24,7,599,PS,exp,31,↓,down,↓,0.6742151000071317,True,13,1,0,12
Y2-S2-216K24,7,600,PS,exp,36,←,left,←,0.4773676998447627,True,13,1,0,12
Y2-S2-216K24,7,601,PS,exp,29,↓,down,↓,0.5137227999512106,True,12,1,0,12
Y2-S2-216K24,7,602,PS,exp,34,←,right,→,0.5548078999854624,False,12,-1,1,13
Y2-S2-216K24,7,603,PS,exp,29,↑,up,↑,0.49781650002114475,True,13,-1,0,13
Y2-S2-216K24,7,604,PS,exp,38,↓,down,↓,0.6145419999957085,True,13,-1,0,13
Y2-S2-216K24,7,605,PS,exp,50,↑,up,↑,0.4443864000495523,True,13,1,1,14
Y2-S2-216K24,7,606,PS,exp,30,↓,down,↓,0.6283019999973476,True,12,1,0,14
Y2-S2-216K24,7,607,PS,exp,38,→,right,→,0.5206404000055045,True,12,1,0,14
Y2-S2-216K24,7,608,PS,exp,37,←,down,↓,0.42811340000480413,False,12,-1,1,15
Y2-S2-216K24,7,609,PS,exp,32,→,right,→,0.5455840001814067,True,13,-1,0,15
Y2-S2-216K24,7,610,PS,exp,38,↓,down,↓,0.5145655998494476,True,13,-1,0,15
Y2-S2-216K24,7,611,PS,exp,48,←,left,←,0.5356795000843704,True,13,1,1,16
Y2-S2-216K24,8,612,AS,intra_train,46,↑,up,↑,0.812023000093177,True,25,-,-,-
Y2-S2-216K24,8,613,AS,intra_train,47,→,right,→,0.48407289991155267,True,25,-,-,-
Y2-S2-216K24,8,614,AS,intra_train,35,←,left,←,0.6529484998900443,True,25,-,-,-
Y2-S2-216K24,8,615,AS,intra_train,46,↑,up,↑,0.45081819989718497,True,25,-,-,-
Y2-S2-216K24,8,616,AS,intra_train,50,→,right,→,1.1157609999645501,True,25,-,-,-
Y2-S2-216K24,8,617,AS,exp,43,↑,up,↑,0.5406011000741273,True,17,0,0,0
Y2-S2-216K24,8,618,AS,exp,43,→,right,→,0.5703686000779271,True,17,0,0,0
Y2-S2-216K24,8,619,AS,exp,49,←,left,←,0.9352241000160575,True,17,1,0,0
Y2-S2-216K24,8,620,AS,exp,41,↓,down,↓,0.5607578000053763,True,16,1,0,0
Y2-S2-216K24,8,621,AS,exp,25,→,left,←,0.8005894999951124,False,16,-1,1,1
Y2-S2-216K24,8,622,AS,exp,47,↓,down,↓,1.0723531001713127,True,17,-1,0,1
Y2-S2-216K24,8,623,AS,exp,49,↑,up,↑,0.5366663001477718,True,17,-1,0,1
Y2-S2-216K24,8,624,AS,exp,48,→,right,→,0.9237979000899941,True,17,1,1,2
Y2-S2-216K24,8,625,AS,exp,33,←,left,←,0.7023504001554102,True,16,1,0,2
Y2-S2-216K24,8,626,AS,exp,35,→,right,→,0.4380982001312077,True,16,1,0,2
Y2-S2-216K24,8,627,AS,exp,47,↑,down,↓,0.8087771001737565,False,16,-1,1,3
Y2-S2-216K24,8,628,AS,exp,34,↓,left,←,0.8881299002096057,False,17,-1,0,3
Y2-S2-216K24,8,629,AS,exp,39,→,right,→,0.5424253998789936,True,18,-1,0,3
Y2-S2-216K24,8,630,AS,exp,46,↓,down,↓,0.6419337000697851,True,18,-1,0,3
Y2-S2-216K24,8,631,AS,exp,50,→,down,↓,1.4145549999084324,False,18,-1,0,3
Y2-S2-216K24,8,632,AS,exp,26,↓,down,↓,0.7636442000512034,True,19,-1,0,3
Y2-S2-216K24,8,633,AS,exp,47,←,no_key,no_letter,-1.0,False,19,-1,0,3
Y2-S2-216K24,8,634,AS,exp,31,↑,right,→,0.8988916000816971,False,20,-1,0,3
Y2-S2-216K24,8,635,AS,exp,28,→,right,→,0.5899056000635028,True,21,-1,0,3
Y2-S2-216K24,8,636,AS,exp,40,←,left,←,0.6824234998784959,True,21,-1,0,3
Y2-S2-216K24,8,637,AS,exp,42,↑,up,↑,0.5746271000243723,True,21,1,1,4
Y2-S2-216K24,8,638,AS,exp,41,↓,down,↓,0.7254043999128044,True,20,1,0,4
Y2-S2-216K24,8,639,AS,exp,49,→,left,←,0.8871026998385787,False,20,-1,1,5
Y2-S2-216K24,8,640,AS,exp,39,←,left,←,0.6541026998311281,True,21,-1,0,5
Y2-S2-216K24,8,641,AS,exp,48,→,right,→,0.6415395000949502,True,21,-1,0,5
Y2-S2-216K24,8,642,AS,exp,40,↓,left,←,0.9706883998587728,False,21,-1,0,5
Y2-S2-216K24,8,643,AS,exp,31,←,left,←,0.6357191000133753,True,22,-1,0,5
Y2-S2-216K24,8,644,AS,exp,31,→,right,→,0.6649666000157595,True,22,-1,0,5
Y2-S2-216K24,8,645,AS,exp,40,←,left,←,0.5775243998505175,True,22,1,1,6
Y2-S2-216K24,8,646,AS,exp,33,→,right,→,0.569264099933207,True,21,1,0,6
Y2-S2-216K24,8,647,AS,exp,47,↑,up,↑,0.5271453999448568,True,21,1,0,6
Y2-S2-216K24,8,648,AS,exp,46,→,right,→,0.5602382000070065,True,21,1,0,6
Y2-S2-216K24,8,649,AS,exp,26,↑,up,↑,0.5830798998940736,True,20,1,0,6
Y2-S2-216K24,8,650,AS,exp,50,←,left,←,0.5412526000291109,True,20,1,0,6
Y2-S2-216K24,8,651,AS,exp,50,→,right,→,0.4173002999741584,True,20,1,0,6
Y2-S2-216K24,8,652,AS,exp,29,↑,right,→,0.7948115000035614,False,19,-1,1,7
Y2-S2-216K24,8,653,AS,exp,42,↓,down,↓,0.4673272999934852,True,20,-1,0,7
Y2-S2-216K24,8,654,AS,exp,31,←,left,←,1.2628944001626223,True,20,-1,0,7
Y2-S2-216K24,8,655,AS,exp,27,↑,up,↑,0.6411284999921918,True,20,1,1,8
Y2-S2-216K24,8,656,AS,exp,40,←,left,←,0.6368513000197709,True,19,1,0,8
Y2-S2-216K24,8,657,AS,exp,25,↑,up,↑,0.6009424000512809,True,19,1,0,8
Y2-S2-216K24,8,658,AS,exp,31,←,left,←,0.6547235001344234,True,19,1,0,8
Y2-S2-216K24,8,659,AS,exp,39,↓,down,↓,0.5775761001277715,True,18,1,0,8
Y2-S2-216K24,8,660,AS,exp,37,←,left,←,1.1747546999249607,True,18,1,0,8
Y2-S2-216K24,8,661,AS,exp,46,↓,down,↓,0.5936153999064118,True,18,1,0,8
Y2-S2-216K24,8,662,AS,exp,47,→,right,→,0.40084960008971393,True,17,1,0,8
Y2-S2-216K24,8,663,AS,exp,45,↓,up,↑,0.9133971999399364,False,17,-1,1,9
Y2-S2-216K24,8,664,AS,exp,41,↑,up,↑,0.6326733999885619,True,18,-1,0,9
Y2-S2-216K24,8,665,AS,exp,44,←,left,←,0.664165300084278,True,18,-1,0,9
Y2-S2-216K24,8,666,AS,exp,45,↑,up,↑,0.9153244998306036,True,18,1,1,10
Y2-S2-216K24,8,667,AS,exp,46,↓,up,↑,0.6479885999578983,False,17,-1,1,11
Y2-S2-216K24,8,668,AS,exp,39,↑,left,←,1.0851413998752832,False,18,-1,0,11
Y2-S2-216K24,8,669,AS,exp,46,←,left,←,0.6614915002137423,True,19,-1,0,11
Y2-S2-216K24,8,670,AS,exp,36,↓,down,↓,0.6760143998544663,True,19,-1,0,11
Y2-S2-216K24,8,671,AS,exp,48,←,left,←,0.5120027998927981,True,19,1,1,12
Y2-S2-216K24,8,672,AS,exp,34,↑,left,←,0.8875752999447286,False,18,-1,1,13
Y2-S2-216K24,8,673,AS,exp,33,←,left,←,0.5019735998939723,True,19,-1,0,13
Y2-S2-216K24,8,674,AS,exp,45,↓,down,↓,0.6183180999942124,True,19,-1,0,13
Y2-S2-216K24,8,675,AS,exp,39,→,right,→,0.5492964999284595,True,19,1,1,14
Y2-S2-216K24,8,676,AS,exp,45,←,left,←,0.5568727999925613,True,18,1,0,14
Y2-S2-216K24,8,677,AS,exp,27,↓,down,↓,0.6967185998801142,True,18,1,0,14
Y2-S2-216K24,8,678,AS,exp,43,↑,left,←,0.549048500135541,False,18,-1,1,15
Y2-S2-216K24,8,679,AS,exp,49,←,left,←,0.6152417999692261,True,19,-1,0,15
Y2-S2-216K24,8,680,AS,exp,42,↑,left,←,0.8293556999415159,False,19,-1,0,15
Y2-S2-216K24,8,681,AS,exp,40,↓,down,↓,0.6064755001571029,True,20,-1,0,15
Y2-S2-216K24,8,682,AS,exp,38,↑,up,↑,0.5710176001302898,True,20,-1,0,15
Y2-S2-216K24,8,683,AS,exp,37,←,left,←,0.7600825000554323,True,20,1,1,16
