PART_ID,Block_no,Trial_no,Block_type,Trial_type,CSI,Stim_letter,Key_pressed,letter_choose,Rt,Corr,Stimulus Time,Level,Reversal,Revs_count
Y2-S2-253M20,1,1,PS,train,29,←,left,←,1.3750403001904488,True,30,-,-,-
Y2-S2-253M20,1,2,PS,train,41,→,right,→,0.7876797998324037,True,30,-,-,-
Y2-S2-253M20,1,3,PS,train,27,←,left,←,0.5172362001612782,True,30,-,-,-
Y2-S2-253M20,1,4,PS,train,47,→,right,→,1.617706899996847,True,30,-,-,-
Y2-S2-253M20,1,5,PS,train,44,←,left,←,0.43445879966020584,True,30,-,-,-
Y2-S2-253M20,1,6,PS,train,34,↑,right,→,0.40125730028375983,False,30,-,-,-
Y2-S2-253M20,1,7,PS,train,27,→,right,→,0.5339894997887313,True,30,-,-,-
Y2-S2-253M20,1,8,PS,train,30,↓,down,↓,0.8516046996228397,True,30,-,-,-
Y2-S2-253M20,1,9,PS,train,26,→,right,→,0.4838971998542547,True,30,-,-,-
Y2-S2-253M20,1,10,PS,train,29,↑,up,↑,0.6004344001412392,True,30,-,-,-
Y2-S2-253M20,2,11,AS,train,26,→,right,→,0.7339592999778688,True,45,-,-,-
Y2-S2-253M20,2,12,AS,train,29,←,left,←,0.6845518997870386,True,45,-,-,-
Y2-S2-253M20,2,13,AS,train,50,→,left,←,0.6174264000728726,False,45,-,-,-
Y2-S2-253M20,2,14,AS,train,26,↑,up,↑,0.600838900078088,True,45,-,-,-
Y2-S2-253M20,2,15,AS,train,45,↓,down,↓,0.7176616000942886,True,45,-,-,-
Y2-S2-253M20,2,16,AS,train,40,→,right,→,0.5177552001550794,True,45,-,-,-
Y2-S2-253M20,2,17,AS,train,36,←,left,←,0.7010625996626914,True,45,-,-,-
Y2-S2-253M20,2,18,AS,train,30,↑,up,↑,0.43474229983985424,True,45,-,-,-
Y2-S2-253M20,2,19,AS,train,25,←,left,←,0.7835454000160098,True,45,-,-,-
Y2-S2-253M20,2,20,AS,train,26,↓,down,↓,0.7838599998503923,True,45,-,-,-
Y2-S2-253M20,-,21,PS,adaptive,35,↑,up,↑,0.5329256998375058,True,10,0,0,0
Y2-S2-253M20,-,22,PS,adaptive,47,↓,down,↓,0.6420713998377323,True,10,0,0,0
Y2-S2-253M20,-,23,PS,adaptive,37,↑,left,←,0.9964125999249518,False,10,-1,0,0
Y2-S2-253M20,-,24,PS,adaptive,27,→,right,→,0.5780550995841622,True,11,-1,0,0
Y2-S2-253M20,-,25,PS,adaptive,49,↓,down,↓,0.5661578001454473,True,11,-1,0,0
Y2-S2-253M20,-,26,PS,adaptive,45,→,right,→,0.439537700265646,True,11,1,1,1
Y2-S2-253M20,-,27,PS,adaptive,50,←,left,←,0.6447328999638557,True,10,1,0,1
Y2-S2-253M20,-,28,PS,adaptive,41,↓,down,↓,0.6842316999100149,True,10,1,0,1
Y2-S2-253M20,-,29,PS,adaptive,39,←,left,←,0.6861827000975609,True,10,1,0,1
Y2-S2-253M20,-,30,PS,adaptive,46,↑,up,↑,1.7656419002451003,True,9,1,0,1
Y2-S2-253M20,-,31,PS,adaptive,29,→,right,→,0.5351426997222006,True,9,1,0,1
Y2-S2-253M20,-,32,PS,adaptive,33,↓,down,↓,1.2588940998539329,True,9,1,0,1
Y2-S2-253M20,-,33,PS,adaptive,43,→,right,→,0.6424881001003087,True,8,1,0,1
Y2-S2-253M20,-,34,PS,adaptive,29,↓,down,↓,0.7898011999204755,True,8,1,0,1
Y2-S2-253M20,-,35,PS,adaptive,45,→,right,→,0.44740880001336336,True,8,1,0,1
Y2-S2-253M20,-,36,PS,adaptive,38,↓,down,↓,0.7173334001563489,True,7,1,0,1
Y2-S2-253M20,-,37,PS,adaptive,37,←,left,←,0.7692919997498393,True,7,1,0,1
Y2-S2-253M20,-,38,PS,adaptive,42,↓,down,↓,0.6197627000510693,True,7,1,0,1
Y2-S2-253M20,-,39,PS,adaptive,50,↑,right,→,0.6559441001154482,False,6,-1,1,2
Y2-S2-253M20,-,40,PS,adaptive,30,←,right,→,0.6335578998550773,False,7,-1,0,2
Y2-S2-253M20,-,41,PS,adaptive,31,→,right,→,0.573739499785006,True,8,-1,0,2
Y2-S2-253M20,-,42,PS,adaptive,34,↑,up,↑,0.8562419996596873,True,8,-1,0,2
Y2-S2-253M20,-,43,PS,adaptive,31,↓,left,←,0.6588223003782332,False,8,-1,0,2
Y2-S2-253M20,-,44,PS,adaptive,26,↑,right,→,0.8607123997062445,False,9,-1,0,2
Y2-S2-253M20,-,45,PS,adaptive,32,→,right,→,0.49288580007851124,True,10,-1,0,2
Y2-S2-253M20,-,46,PS,adaptive,46,↑,up,↑,0.6805147998966277,True,10,-1,0,2
Y2-S2-253M20,-,47,PS,adaptive,47,→,right,→,0.5503825000487268,True,10,1,1,3
Y2-S2-253M20,-,48,PS,adaptive,36,←,left,←,0.8584873001091182,True,9,1,0,3
Y2-S2-253M20,-,49,PS,adaptive,46,↓,no_key,no_letter,-1.0,False,9,-1,1,4
Y2-S2-253M20,-,50,AS,adaptive,34,↑,down,↓,0.9660572996363044,False,20,-1,0,0
Y2-S2-253M20,-,51,AS,adaptive,25,→,right,→,0.6035120002925396,True,21,-1,0,0
Y2-S2-253M20,-,52,AS,adaptive,50,↓,down,↓,0.8777488996274769,True,21,-1,0,0
Y2-S2-253M20,-,53,AS,adaptive,29,↑,up,↑,0.6509893001057208,True,21,1,1,1
Y2-S2-253M20,-,54,AS,adaptive,45,←,right,→,0.7947317999787629,False,20,-1,1,2
Y2-S2-253M20,-,55,AS,adaptive,31,↑,up,↑,1.177654900122434,True,21,-1,0,2
Y2-S2-253M20,-,56,AS,adaptive,45,→,right,→,0.7271721996366978,True,21,-1,0,2
Y2-S2-253M20,-,57,AS,adaptive,45,↑,down,↓,0.8386707999743521,False,21,-1,0,2
Y2-S2-253M20,-,58,AS,adaptive,32,→,right,→,0.7964936997741461,True,22,-1,0,2
Y2-S2-253M20,-,59,AS,adaptive,27,↑,up,↑,0.713094400241971,True,22,-1,0,2
Y2-S2-253M20,-,60,AS,adaptive,43,↓,down,↓,0.8564732996746898,True,22,1,1,3
Y2-S2-253M20,-,61,AS,adaptive,27,→,right,→,0.5471970001235604,True,21,1,0,3
Y2-S2-253M20,-,62,AS,adaptive,42,↓,down,↓,0.6619372996501625,True,21,1,0,3
Y2-S2-253M20,-,63,AS,adaptive,29,←,left,←,0.6810694998130202,True,21,1,0,3
Y2-S2-253M20,-,64,AS,adaptive,39,↑,up,↑,0.8135303999297321,True,20,1,0,3
Y2-S2-253M20,-,65,AS,adaptive,47,→,right,→,0.7520619002170861,True,20,1,0,3
Y2-S2-253M20,-,66,AS,adaptive,46,↑,up,↑,0.9881929000839591,True,20,1,0,3
Y2-S2-253M20,-,67,AS,adaptive,39,↓,down,↓,0.7820994001813233,True,19,1,0,3
Y2-S2-253M20,-,68,AS,adaptive,42,←,left,←,0.6733261002227664,True,19,1,0,3
Y2-S2-253M20,-,69,AS,adaptive,45,→,right,→,0.6480986997485161,True,19,1,0,3
Y2-S2-253M20,-,70,AS,adaptive,50,↑,up,↑,0.6856284998357296,True,18,1,0,3
Y2-S2-253M20,-,71,AS,adaptive,27,←,left,←,0.635283200070262,True,18,1,0,3
Y2-S2-253M20,-,72,AS,adaptive,40,↓,down,↓,0.5628797998651862,True,18,1,0,3
Y2-S2-253M20,-,73,AS,adaptive,29,←,right,→,1.1543111000210047,False,17,-1,1,4
Y2-S2-253M20,1,74,AS,intra_train,29,→,right,→,0.5839129998348653,True,27,-,-,-
Y2-S2-253M20,1,75,AS,intra_train,47,↓,down,↓,0.6994786998257041,True,27,-,-,-
Y2-S2-253M20,1,76,AS,intra_train,41,→,right,→,0.5507629001513124,True,27,-,-,-
Y2-S2-253M20,1,77,AS,intra_train,27,↓,down,↓,0.6623305003158748,True,27,-,-,-
Y2-S2-253M20,1,78,AS,intra_train,36,←,right,→,0.5673635001294315,False,27,-,-,-
Y2-S2-253M20,1,79,AS,exp,46,→,right,→,0.8072568001225591,True,18,0,0,0
Y2-S2-253M20,1,80,AS,exp,28,←,left,←,0.7508317003957927,True,18,0,0,0
Y2-S2-253M20,1,81,AS,exp,40,→,right,→,0.48720560036599636,True,18,1,0,0
Y2-S2-253M20,1,82,AS,exp,34,↓,down,↓,0.6582816001027822,True,17,1,0,0
Y2-S2-253M20,1,83,AS,exp,47,←,left,←,0.49123309971764684,True,17,1,0,0
Y2-S2-253M20,1,84,AS,exp,41,→,right,→,0.7347548003308475,True,17,1,0,0
Y2-S2-253M20,1,85,AS,exp,25,↑,up,↑,0.6377201001159847,True,16,1,0,0
Y2-S2-253M20,1,86,AS,exp,32,↓,down,↓,0.7300299000926316,True,16,1,0,0
Y2-S2-253M20,1,87,AS,exp,32,↑,up,↑,0.7926884000189602,True,16,1,0,0
Y2-S2-253M20,1,88,AS,exp,34,←,right,→,0.8877643002197146,False,15,-1,1,1
Y2-S2-253M20,1,89,AS,exp,49,↑,up,↑,0.4513440001755953,True,16,-1,0,1
Y2-S2-253M20,1,90,AS,exp,46,←,down,↓,0.832713000010699,False,16,-1,0,1
Y2-S2-253M20,1,91,AS,exp,31,→,right,→,0.9676580000668764,True,17,-1,0,1
Y2-S2-253M20,1,92,AS,exp,47,←,left,←,0.48317219968885183,True,17,-1,0,1
Y2-S2-253M20,1,93,AS,exp,33,↓,down,↓,0.7389719998463988,True,17,1,1,2
Y2-S2-253M20,1,94,AS,exp,35,→,right,→,0.532751299906522,True,16,1,0,2
Y2-S2-253M20,1,95,AS,exp,29,←,left,←,0.9424908002838492,True,16,1,0,2
Y2-S2-253M20,1,96,AS,exp,34,↓,down,↓,0.6945571000687778,True,16,1,0,2
Y2-S2-253M20,1,97,AS,exp,27,←,right,→,1.1708801998756826,False,15,-1,1,3
Y2-S2-253M20,1,98,AS,exp,36,→,right,→,0.6968015003949404,True,16,-1,0,3
Y2-S2-253M20,1,99,AS,exp,35,↑,up,↑,0.4392829998396337,True,16,-1,0,3
Y2-S2-253M20,1,100,AS,exp,35,↓,up,↑,0.698344100266695,False,16,-1,0,3
Y2-S2-253M20,1,101,AS,exp,45,→,right,→,0.5049672997556627,True,17,-1,0,3
Y2-S2-253M20,1,102,AS,exp,43,↓,left,←,0.26732400013133883,False,17,-1,0,3
Y2-S2-253M20,1,103,AS,exp,48,↑,up,↑,0.6710814000107348,True,18,-1,0,3
Y2-S2-253M20,1,104,AS,exp,32,←,up,↑,0.738094300031662,False,18,-1,0,3
Y2-S2-253M20,1,105,AS,exp,48,→,right,→,0.5773680000565946,True,19,-1,0,3
Y2-S2-253M20,1,106,AS,exp,28,↑,up,↑,0.60690200002864,True,19,-1,0,3
Y2-S2-253M20,1,107,AS,exp,28,↓,no_key,no_letter,-1.0,False,19,-1,0,3
Y2-S2-253M20,1,108,AS,exp,32,→,right,→,0.38375920010730624,True,20,-1,0,3
Y2-S2-253M20,1,109,AS,exp,40,↓,left,←,0.33400409994646907,False,20,-1,0,3
Y2-S2-253M20,1,110,AS,exp,30,→,right,→,0.41732949996367097,True,21,-1,0,3
Y2-S2-253M20,1,111,AS,exp,39,↓,up,↑,0.8366048000752926,False,21,-1,0,3
Y2-S2-253M20,1,112,AS,exp,34,→,down,↓,0.6634090002626181,False,22,-1,0,3
Y2-S2-253M20,1,113,AS,exp,31,↑,up,↑,0.5616643996909261,True,23,-1,0,3
Y2-S2-253M20,1,114,AS,exp,43,↓,down,↓,0.8682737001217902,True,23,-1,0,3
Y2-S2-253M20,1,115,AS,exp,37,→,right,→,0.3672144003212452,True,23,1,1,4
Y2-S2-253M20,1,116,AS,exp,31,↓,down,↓,0.6921178000047803,True,22,1,0,4
Y2-S2-253M20,1,117,AS,exp,31,→,right,→,0.3671055999584496,True,22,1,0,4
Y2-S2-253M20,1,118,AS,exp,44,↓,down,↓,0.6496091997250915,True,22,1,0,4
Y2-S2-253M20,1,119,AS,exp,46,←,left,←,0.6233857995830476,True,21,1,0,4
Y2-S2-253M20,1,120,AS,exp,45,↑,right,→,0.3173863999545574,False,21,-1,1,5
Y2-S2-253M20,1,121,AS,exp,44,←,left,←,0.4838964003138244,True,22,-1,0,5
Y2-S2-253M20,1,122,AS,exp,36,→,right,→,0.6722686002030969,True,22,-1,0,5
Y2-S2-253M20,1,123,AS,exp,48,←,left,←,0.5897428998723626,True,22,1,1,6
Y2-S2-253M20,1,124,AS,exp,44,↓,down,↓,0.568225699942559,True,21,1,0,6
Y2-S2-253M20,1,125,AS,exp,39,←,left,←,0.35048120003193617,True,21,1,0,6
Y2-S2-253M20,1,126,AS,exp,29,↓,right,→,0.4341094996780157,False,21,-1,1,7
Y2-S2-253M20,1,127,AS,exp,50,→,right,→,0.4672626000829041,True,22,-1,0,7
Y2-S2-253M20,1,128,AS,exp,44,←,left,←,0.6025581997819245,True,22,-1,0,7
Y2-S2-253M20,1,129,AS,exp,44,↓,down,↓,0.6363313999027014,True,22,1,1,8
Y2-S2-253M20,1,130,AS,exp,28,→,right,→,1.333305099979043,True,21,1,0,8
Y2-S2-253M20,1,131,AS,exp,44,↓,no_key,no_letter,-1.0,False,21,-1,1,9
Y2-S2-253M20,1,132,AS,exp,39,←,left,←,0.5908299000002444,True,22,-1,0,9
Y2-S2-253M20,1,133,AS,exp,34,↓,down,↓,0.43425789987668395,True,22,-1,0,9
Y2-S2-253M20,1,134,AS,exp,25,←,left,←,0.4004389997571707,True,22,1,1,10
Y2-S2-253M20,1,135,AS,exp,35,↓,down,↓,0.40038330014795065,True,21,1,0,10
Y2-S2-253M20,1,136,AS,exp,50,→,right,→,0.5763148004189134,True,21,1,0,10
Y2-S2-253M20,1,137,AS,exp,48,↓,down,↓,0.41761850006878376,True,21,1,0,10
Y2-S2-253M20,1,138,AS,exp,43,→,right,→,0.40047879982739687,True,20,1,0,10
Y2-S2-253M20,1,139,AS,exp,35,↑,down,↓,0.5798566001467407,False,20,-1,1,11
Y2-S2-253M20,1,140,AS,exp,40,→,right,→,0.4839359000325203,True,21,-1,0,11
Y2-S2-253M20,1,141,AS,exp,42,↓,down,↓,0.5543658002279699,True,21,-1,0,11
Y2-S2-253M20,1,142,AS,exp,26,→,left,←,0.450704799965024,False,21,-1,0,11
Y2-S2-253M20,1,143,AS,exp,35,↓,down,↓,0.43380820006132126,True,22,-1,0,11
Y2-S2-253M20,1,144,AS,exp,41,→,left,←,0.3346330001950264,False,22,-1,0,11
Y2-S2-253M20,1,145,AS,exp,32,↓,right,→,0.33415590040385723,False,23,-1,0,11
Y2-S2-253M20,1,146,AS,exp,45,←,left,←,0.5172819998115301,True,24,-1,0,11
Y2-S2-253M20,1,147,AS,exp,44,→,right,→,0.7229386996477842,True,24,-1,0,11
Y2-S2-253M20,1,148,AS,exp,49,←,left,←,0.45057739969342947,True,24,1,1,12
Y2-S2-253M20,1,149,AS,exp,43,→,right,→,0.4673484000377357,True,23,1,0,12
Y2-S2-253M20,1,150,AS,exp,27,←,right,→,0.6045742998830974,False,23,-1,1,13
Y2-S2-253M20,1,151,AS,exp,43,→,right,→,1.206358099821955,True,24,-1,0,13
Y2-S2-253M20,1,152,AS,exp,45,↑,up,↑,0.712652700021863,True,24,-1,0,13
Y2-S2-253M20,1,153,AS,exp,39,←,left,←,0.5338518000207841,True,24,1,1,14
Y2-S2-253M20,1,154,AS,exp,45,→,right,→,0.38399669993668795,True,23,1,0,14
Y2-S2-253M20,1,155,AS,exp,47,↑,up,↑,0.7751365997828543,True,23,1,0,14
Y2-S2-253M20,1,156,AS,exp,31,→,right,→,0.6695167999714613,True,23,1,0,14
Y2-S2-253M20,1,157,AS,exp,42,↓,down,↓,0.8509690002538264,True,22,1,0,14
Y2-S2-253M20,1,158,AS,exp,29,↑,up,↑,1.1088415998965502,True,22,1,0,14
Y2-S2-253M20,1,159,AS,exp,38,←,right,→,0.5739623000845313,False,22,-1,1,15
Y2-S2-253M20,1,160,AS,exp,45,↓,down,↓,0.7580093001015484,True,23,-1,0,15
Y2-S2-253M20,1,161,AS,exp,48,←,left,←,0.6512651001103222,True,23,-1,0,15
Y2-S2-253M20,1,162,AS,exp,39,→,right,→,0.7156154997646809,True,23,1,1,16
Y2-S2-253M20,2,163,PS,intra_train,35,↑,up,↑,0.495267600286752,True,15,-,-,-
Y2-S2-253M20,2,164,PS,intra_train,28,→,right,→,0.680727600120008,True,15,-,-,-
Y2-S2-253M20,2,165,PS,intra_train,44,←,left,←,0.5415051002055407,True,15,-,-,-
Y2-S2-253M20,2,166,PS,intra_train,45,→,right,→,0.5354486997239292,True,15,-,-,-
Y2-S2-253M20,2,167,PS,intra_train,27,←,left,←,0.5338101000525057,True,15,-,-,-
Y2-S2-253M20,2,168,PS,exp,35,↑,right,→,1.2078633001074195,False,10,-1,0,0
Y2-S2-253M20,2,169,PS,exp,37,↓,left,←,0.7879642001353204,False,11,-1,0,0
Y2-S2-253M20,2,170,PS,exp,27,↑,right,→,0.7306506000459194,False,12,-1,0,0
Y2-S2-253M20,2,171,PS,exp,32,↓,down,↓,0.5951974000781775,True,13,-1,0,0
Y2-S2-253M20,2,172,PS,exp,27,←,left,←,1.1241718996316195,True,13,-1,0,0
Y2-S2-253M20,2,173,PS,exp,31,→,right,→,0.570945399813354,True,13,1,1,1
Y2-S2-253M20,2,174,PS,exp,32,↑,left,←,0.7291748998686671,False,12,-1,1,2
Y2-S2-253M20,2,175,PS,exp,32,→,up,↑,1.0149811999872327,False,13,-1,0,2
Y2-S2-253M20,2,176,PS,exp,26,←,left,←,0.5665633999742568,True,14,-1,0,2
Y2-S2-253M20,2,177,PS,exp,49,↑,up,↑,0.5858892998658121,True,14,-1,0,2
Y2-S2-253M20,2,178,PS,exp,38,←,left,←,0.7541780001483858,True,14,1,1,3
Y2-S2-253M20,2,179,PS,exp,36,→,right,→,0.48452490009367466,True,13,1,0,3
Y2-S2-253M20,2,180,PS,exp,29,↓,down,↓,1.201216199900955,True,13,1,0,3
Y2-S2-253M20,2,181,PS,exp,34,↑,right,→,0.8843358000740409,False,13,-1,1,4
Y2-S2-253M20,2,182,PS,exp,28,←,right,→,1.00148699991405,False,14,-1,0,4
Y2-S2-253M20,2,183,PS,exp,38,↑,up,↑,0.5374675998464227,True,15,-1,0,4
Y2-S2-253M20,2,184,PS,exp,50,←,left,←,0.8227448998950422,True,15,-1,0,4
Y2-S2-253M20,2,185,PS,exp,26,↓,down,↓,0.7777849999256432,True,15,1,1,5
Y2-S2-253M20,2,186,PS,exp,36,←,right,→,0.7278123996220529,False,14,-1,1,6
Y2-S2-253M20,2,187,PS,exp,33,↑,up,↑,0.7665340001694858,True,15,-1,0,6
Y2-S2-253M20,2,188,PS,exp,39,→,right,→,0.6336453999392688,True,15,-1,0,6
Y2-S2-253M20,2,189,PS,exp,28,←,right,→,0.47686609998345375,False,15,-1,0,6
Y2-S2-253M20,2,190,PS,exp,44,↑,up,↑,0.7001025998033583,True,16,-1,0,6
Y2-S2-253M20,2,191,PS,exp,50,↓,up,↑,0.7588137998245656,False,16,-1,0,6
Y2-S2-253M20,2,192,PS,exp,48,←,right,→,0.48734060022979975,False,17,-1,0,6
Y2-S2-253M20,2,193,PS,exp,28,↓,down,↓,0.7429054998792708,True,18,-1,0,6
Y2-S2-253M20,2,194,PS,exp,47,→,right,→,0.5585761000402272,True,18,-1,0,6
Y2-S2-253M20,2,195,PS,exp,30,↑,up,↑,1.1708956002257764,True,18,1,1,7
Y2-S2-253M20,2,196,PS,exp,31,↓,up,↑,1.3782015000469983,False,17,-1,1,8
Y2-S2-253M20,2,197,PS,exp,39,→,right,→,0.5306865996681154,True,18,-1,0,8
Y2-S2-253M20,2,198,PS,exp,39,↑,up,↑,0.6162499999627471,True,18,-1,0,8
Y2-S2-253M20,2,199,PS,exp,39,↓,down,↓,0.9167539002373815,True,18,1,1,9
Y2-S2-253M20,2,200,PS,exp,31,→,right,→,0.3670712998136878,True,17,1,0,9
Y2-S2-253M20,2,201,PS,exp,49,↑,up,↑,0.45830849977210164,True,17,1,0,9
Y2-S2-253M20,2,202,PS,exp,39,↓,down,↓,0.5444204998202622,True,17,1,0,9
Y2-S2-253M20,2,203,PS,exp,47,↑,up,↑,0.5351607003249228,True,16,1,0,9
Y2-S2-253M20,2,204,PS,exp,47,↓,down,↓,0.5254458002746105,True,16,1,0,9
Y2-S2-253M20,2,205,PS,exp,38,→,right,→,0.4422800000756979,True,16,1,0,9
Y2-S2-253M20,2,206,PS,exp,45,↑,up,↑,0.6371693997643888,True,15,1,0,9
Y2-S2-253M20,2,207,PS,exp,25,←,left,←,0.5491066998802125,True,15,1,0,9
Y2-S2-253M20,2,208,PS,exp,37,↓,down,↓,0.7228425997309387,True,15,1,0,9
Y2-S2-253M20,2,209,PS,exp,47,→,right,→,0.520996299572289,True,14,1,0,9
Y2-S2-253M20,2,210,PS,exp,31,←,left,←,0.4393376000225544,True,14,1,0,9
Y2-S2-253M20,2,211,PS,exp,47,→,right,→,0.42082729982212186,True,14,1,0,9
Y2-S2-253M20,2,212,PS,exp,37,↑,up,↑,0.6125044003129005,True,13,1,0,9
Y2-S2-253M20,2,213,PS,exp,27,↓,down,↓,0.6321372999809682,True,13,1,0,9
Y2-S2-253M20,2,214,PS,exp,35,→,right,→,0.4651258001103997,True,13,1,0,9
Y2-S2-253M20,2,215,PS,exp,32,↑,up,↑,0.6876667998731136,True,12,1,0,9
Y2-S2-253M20,2,216,PS,exp,33,↓,down,↓,0.5331839001737535,True,12,1,0,9
Y2-S2-253M20,2,217,PS,exp,31,→,right,→,0.6193650998175144,True,12,1,0,9
Y2-S2-253M20,2,218,PS,exp,27,↑,up,↑,0.5071639996021986,True,11,1,0,9
Y2-S2-253M20,2,219,PS,exp,27,↓,down,↓,0.7352857999503613,True,11,1,0,9
Y2-S2-253M20,2,220,PS,exp,30,→,right,→,1.261835700366646,True,11,1,0,9
Y2-S2-253M20,2,221,PS,exp,26,↓,down,↓,0.6699000000953674,True,10,1,0,9
Y2-S2-253M20,2,222,PS,exp,35,↑,up,↑,0.43905230006203055,True,10,1,0,9
Y2-S2-253M20,2,223,PS,exp,36,→,right,→,0.4533531996421516,True,10,1,0,9
Y2-S2-253M20,2,224,PS,exp,46,↓,down,↓,0.7104382002726197,True,9,1,0,9
Y2-S2-253M20,2,225,PS,exp,25,↑,up,↑,0.7948070000857115,True,9,1,0,9
Y2-S2-253M20,2,226,PS,exp,43,→,right,→,0.5684397001750767,True,9,1,0,9
Y2-S2-253M20,2,227,PS,exp,42,←,left,←,0.7701510000042617,True,8,1,0,9
Y2-S2-253M20,2,228,PS,exp,29,→,right,→,0.7143927998840809,True,8,1,0,9
Y2-S2-253M20,2,229,PS,exp,49,↑,up,↑,0.8522868002764881,True,8,1,0,9
Y2-S2-253M20,2,230,PS,exp,41,←,right,→,0.6315044998191297,False,7,-1,1,10
Y2-S2-253M20,2,231,PS,exp,45,↓,down,↓,0.6352630001492798,True,8,-1,0,10
Y2-S2-253M20,2,232,PS,exp,32,→,right,→,0.4332984001375735,True,8,-1,0,10
Y2-S2-253M20,2,233,PS,exp,44,↓,down,↓,0.5395124000497162,True,8,1,1,11
Y2-S2-253M20,2,234,PS,exp,28,→,right,→,0.5681627998128533,True,7,1,0,11
Y2-S2-253M20,2,235,PS,exp,43,←,left,←,0.5867627998813987,True,7,1,0,11
Y2-S2-253M20,2,236,PS,exp,36,↑,right,→,0.680167100392282,False,7,-1,1,12
Y2-S2-253M20,2,237,PS,exp,47,↓,down,↓,0.5641942000947893,True,8,-1,0,12
Y2-S2-253M20,2,238,PS,exp,48,↑,up,↑,0.5551762999966741,True,8,-1,0,12
Y2-S2-253M20,2,239,PS,exp,30,←,right,→,0.5732045001350343,False,8,-1,0,12
Y2-S2-253M20,2,240,PS,exp,33,↓,up,↑,0.5790033997036517,False,9,-1,0,12
Y2-S2-253M20,2,241,PS,exp,40,↑,right,→,0.47961030015721917,False,10,-1,0,12
Y2-S2-253M20,2,242,PS,exp,35,←,left,←,0.40900890016928315,True,11,-1,0,12
Y2-S2-253M20,2,243,PS,exp,27,↑,up,↑,0.4201607001014054,True,11,-1,0,12
Y2-S2-253M20,2,244,PS,exp,27,→,left,←,0.7256896998733282,False,11,-1,0,12
Y2-S2-253M20,2,245,PS,exp,42,↓,down,↓,0.6192752998322248,True,12,-1,0,12
Y2-S2-253M20,2,246,PS,exp,33,←,left,←,0.37699380004778504,True,12,-1,0,12
Y2-S2-253M20,2,247,PS,exp,25,→,right,→,0.6686406000517309,True,12,1,1,13
Y2-S2-253M20,2,248,PS,exp,34,↑,right,→,0.4253437998704612,False,11,-1,1,14
Y2-S2-253M20,2,249,PS,exp,40,↓,down,↓,0.48796579986810684,True,12,-1,0,14
Y2-S2-253M20,2,250,PS,exp,50,←,down,↓,0.20068969996646047,False,12,-1,0,14
Y2-S2-253M20,2,251,PS,exp,44,↑,left,←,0.017607000190764666,False,13,-1,0,14
Y2-S2-253M20,2,252,PS,exp,48,↓,down,↓,0.9586358000524342,True,14,-1,0,14
Y2-S2-253M20,2,253,PS,exp,50,←,left,←,0.5536075001582503,True,14,-1,0,14
Y2-S2-253M20,2,254,PS,exp,42,→,right,→,0.49204370006918907,True,14,1,1,15
Y2-S2-253M20,2,255,PS,exp,36,↑,down,↓,0.6785794999450445,False,13,-1,1,16
Y2-S2-253M20,3,256,PS,intra_train,25,←,left,←,0.5477443002164364,True,15,-,-,-
Y2-S2-253M20,3,257,PS,intra_train,27,↑,up,↑,0.44007250014692545,True,15,-,-,-
Y2-S2-253M20,3,258,PS,intra_train,40,→,right,→,0.47322909999638796,True,15,-,-,-
Y2-S2-253M20,3,259,PS,intra_train,31,↑,no_key,no_letter,-1.0,False,15,-,-,-
Y2-S2-253M20,3,260,PS,intra_train,31,←,left,←,0.489754700101912,True,15,-,-,-
Y2-S2-253M20,3,261,PS,exp,49,↑,up,↑,0.5071220998652279,True,10,0,0,0
Y2-S2-253M20,3,262,PS,exp,46,←,right,→,0.617253300268203,False,10,-1,0,0
Y2-S2-253M20,3,263,PS,exp,36,→,right,→,0.797266099601984,True,11,-1,0,0
Y2-S2-253M20,3,264,PS,exp,36,←,right,→,0.49036139994859695,False,11,-1,0,0
Y2-S2-253M20,3,265,PS,exp,40,→,right,→,0.4844400999136269,True,12,-1,0,0
Y2-S2-253M20,3,266,PS,exp,47,↑,up,↑,0.43806520011276007,True,12,-1,0,0
Y2-S2-253M20,3,267,PS,exp,38,→,right,→,0.5268705002963543,True,12,1,1,1
Y2-S2-253M20,3,268,PS,exp,37,↑,left,←,0.6082125999964774,False,11,-1,1,2
Y2-S2-253M20,3,269,PS,exp,42,→,up,↑,1.0648932000622153,False,12,-1,0,2
Y2-S2-253M20,3,270,PS,exp,39,↓,down,↓,0.6582999997772276,True,13,-1,0,2
Y2-S2-253M20,3,271,PS,exp,47,→,right,→,0.5088192000985146,True,13,-1,0,2
Y2-S2-253M20,3,272,PS,exp,25,←,left,←,0.3956592003814876,True,13,1,1,3
Y2-S2-253M20,3,273,PS,exp,35,→,right,→,1.0464663999155164,True,12,1,0,3
Y2-S2-253M20,3,274,PS,exp,39,↑,up,↑,0.4896233999170363,True,12,1,0,3
Y2-S2-253M20,3,275,PS,exp,43,↓,down,↓,0.6264065001159906,True,12,1,0,3
Y2-S2-253M20,3,276,PS,exp,26,→,right,→,0.4439046001061797,True,11,1,0,3
Y2-S2-253M20,3,277,PS,exp,25,←,up,↑,0.5611719000153244,False,11,-1,1,4
Y2-S2-253M20,3,278,PS,exp,39,→,right,→,0.47451459988951683,True,12,-1,0,4
Y2-S2-253M20,3,279,PS,exp,30,↓,down,↓,0.7252242001704872,True,12,-1,0,4
Y2-S2-253M20,3,280,PS,exp,44,←,left,←,0.6582709001377225,True,12,1,1,5
Y2-S2-253M20,3,281,PS,exp,49,↑,up,↑,0.5385598996654153,True,11,1,0,5
Y2-S2-253M20,3,282,PS,exp,27,←,right,→,0.6053044996224344,False,11,-1,1,6
Y2-S2-253M20,3,283,PS,exp,27,↓,down,↓,0.9177394001744688,True,12,-1,0,6
Y2-S2-253M20,3,284,PS,exp,43,→,right,→,0.42666229978203773,True,12,-1,0,6
Y2-S2-253M20,3,285,PS,exp,50,←,left,←,0.4384547998197377,True,12,1,1,7
Y2-S2-253M20,3,286,PS,exp,45,↑,right,→,0.756816599983722,False,11,-1,1,8
Y2-S2-253M20,3,287,PS,exp,49,→,right,→,0.466565300244838,True,12,-1,0,8
Y2-S2-253M20,3,288,PS,exp,44,↑,up,↑,0.6262153000570834,True,12,-1,0,8
Y2-S2-253M20,3,289,PS,exp,43,→,right,→,0.5202766000293195,True,12,1,1,9
Y2-S2-253M20,3,290,PS,exp,40,↑,up,↑,0.4572628000751138,True,11,1,0,9
Y2-S2-253M20,3,291,PS,exp,45,→,up,↑,0.7138038999401033,False,11,-1,1,10
Y2-S2-253M20,3,292,PS,exp,29,←,right,→,0.5961150000803173,False,12,-1,0,10
Y2-S2-253M20,3,293,PS,exp,36,↑,up,↑,0.5088285999372602,True,13,-1,0,10
Y2-S2-253M20,3,294,PS,exp,48,←,left,←,0.5590070998296142,True,13,-1,0,10
Y2-S2-253M20,3,295,PS,exp,31,→,right,→,0.5385312996804714,True,13,1,1,11
Y2-S2-253M20,3,296,PS,exp,45,←,left,←,0.596881799865514,True,12,1,0,11
Y2-S2-253M20,3,297,PS,exp,30,↑,up,↑,0.5523300999775529,True,12,1,0,11
Y2-S2-253M20,3,298,PS,exp,29,←,left,←,0.8557613003067672,True,12,1,0,11
Y2-S2-253M20,3,299,PS,exp,50,↑,right,→,0.581807800102979,False,11,-1,1,12
Y2-S2-253M20,3,300,PS,exp,43,→,right,→,0.4318234003148973,True,12,-1,0,12
Y2-S2-253M20,3,301,PS,exp,34,↑,up,↑,0.5346767003647983,True,12,-1,0,12
Y2-S2-253M20,3,302,PS,exp,27,↓,up,↑,0.7160458001308143,False,12,-1,0,12
Y2-S2-253M20,3,303,PS,exp,34,↑,up,↑,0.484037599992007,True,13,-1,0,12
Y2-S2-253M20,3,304,PS,exp,26,←,left,←,0.5893756998702884,True,13,-1,0,12
Y2-S2-253M20,3,305,PS,exp,28,↓,down,↓,0.6398240998387337,True,13,1,1,13
Y2-S2-253M20,3,306,PS,exp,46,↑,up,↑,0.6970353997312486,True,12,1,0,13
Y2-S2-253M20,3,307,PS,exp,33,←,right,→,0.6527956002391875,False,12,-1,1,14
Y2-S2-253M20,3,308,PS,exp,45,↑,up,↑,0.4829687997698784,True,13,-1,0,14
Y2-S2-253M20,3,309,PS,exp,38,→,right,→,0.6254746001213789,True,13,-1,0,14
Y2-S2-253M20,3,310,PS,exp,50,↓,down,↓,0.6784561998210847,True,13,1,1,15
Y2-S2-253M20,3,311,PS,exp,42,↑,no_key,no_letter,-1.0,False,12,-1,1,16
Y2-S2-253M20,4,312,AS,intra_train,35,↓,down,↓,0.5674363998696208,True,27,-,-,-
Y2-S2-253M20,4,313,AS,intra_train,25,←,left,←,0.5670251999981701,True,27,-,-,-
Y2-S2-253M20,4,314,AS,intra_train,48,→,right,→,0.46710100024938583,True,27,-,-,-
Y2-S2-253M20,4,315,AS,intra_train,39,↑,up,↑,0.6420565000735223,True,27,-,-,-
Y2-S2-253M20,4,316,AS,intra_train,48,↓,down,↓,0.6265753996558487,True,27,-,-,-
Y2-S2-253M20,4,317,AS,exp,47,←,right,→,0.9388642003759742,False,18,-1,0,0
Y2-S2-253M20,4,318,AS,exp,33,→,right,→,0.850246500223875,True,19,-1,0,0
Y2-S2-253M20,4,319,AS,exp,49,↑,up,↑,0.6351983002386987,True,19,-1,0,0
Y2-S2-253M20,4,320,AS,exp,44,←,left,←,0.5048055998049676,True,19,1,1,1
Y2-S2-253M20,4,321,AS,exp,38,↑,up,↑,0.52906300034374,True,18,1,0,1
Y2-S2-253M20,4,322,AS,exp,46,↓,down,↓,0.5971617000177503,True,18,1,0,1
Y2-S2-253M20,4,323,AS,exp,38,←,left,←,0.9731570999138057,True,18,1,0,1
Y2-S2-253M20,4,324,AS,exp,39,↑,up,↑,0.600237799808383,True,17,1,0,1
Y2-S2-253M20,4,325,AS,exp,29,→,right,→,0.5280242003500462,True,17,1,0,1
Y2-S2-253M20,4,326,AS,exp,37,↑,up,↑,0.7787251002155244,True,17,1,0,1
Y2-S2-253M20,4,327,AS,exp,42,←,right,→,0.8884741002693772,False,16,-1,1,2
Y2-S2-253M20,4,328,AS,exp,41,↓,down,↓,0.780419799964875,True,17,-1,0,2
Y2-S2-253M20,4,329,AS,exp,47,→,right,→,0.5916230999864638,True,17,-1,0,2
Y2-S2-253M20,4,330,AS,exp,31,↑,down,↓,1.0579413999803364,False,17,-1,0,2
Y2-S2-253M20,4,331,AS,exp,50,→,right,→,0.5848034997470677,True,18,-1,0,2
Y2-S2-253M20,4,332,AS,exp,29,↑,up,↑,0.6780508998781443,True,18,-1,0,2
Y2-S2-253M20,4,333,AS,exp,37,→,right,→,0.5271723000332713,True,18,1,1,3
Y2-S2-253M20,4,334,AS,exp,31,←,left,←,0.894132100045681,True,17,1,0,3
Y2-S2-253M20,4,335,AS,exp,48,↑,up,↑,0.5446381000801921,True,17,1,0,3
Y2-S2-253M20,4,336,AS,exp,25,←,left,←,0.5945644001476467,True,17,1,0,3
Y2-S2-253M20,4,337,AS,exp,31,↓,down,↓,0.6844703000970185,True,16,1,0,3
Y2-S2-253M20,4,338,AS,exp,28,↑,right,→,0.6746320999227464,False,16,-1,1,4
Y2-S2-253M20,4,339,AS,exp,49,↓,down,↓,1.7910267002880573,True,17,-1,0,4
Y2-S2-253M20,4,340,AS,exp,27,↑,down,↓,0.8128277999348938,False,17,-1,0,4
Y2-S2-253M20,4,341,AS,exp,31,→,right,→,0.8726658998057246,True,18,-1,0,4
Y2-S2-253M20,4,342,AS,exp,32,←,no_key,no_letter,-1.0,False,18,-1,0,4
Y2-S2-253M20,4,343,AS,exp,29,→,right,→,0.5214573997072875,True,19,-1,0,4
Y2-S2-253M20,4,344,AS,exp,26,↑,up,↑,0.7242038999684155,True,19,-1,0,4
Y2-S2-253M20,4,345,AS,exp,50,↓,right,→,0.8272286001592875,False,19,-1,0,4
Y2-S2-253M20,4,346,AS,exp,42,→,right,→,0.5624227002263069,True,20,-1,0,4
Y2-S2-253M20,4,347,AS,exp,46,↑,up,↑,0.6728547997772694,True,20,-1,0,4
Y2-S2-253M20,4,348,AS,exp,40,←,left,←,0.38427440030500293,True,20,1,1,5
Y2-S2-253M20,4,349,AS,exp,48,→,right,→,0.6716145998798311,True,19,1,0,5
Y2-S2-253M20,4,350,AS,exp,40,←,left,←,0.6299172998405993,True,19,1,0,5
Y2-S2-253M20,4,351,AS,exp,26,↓,right,→,0.9898903998546302,False,19,-1,1,6
Y2-S2-253M20,4,352,AS,exp,44,←,left,←,1.7953339000232518,True,20,-1,0,6
Y2-S2-253M20,4,353,AS,exp,42,↑,up,↑,0.4506349000148475,True,20,-1,0,6
Y2-S2-253M20,4,354,AS,exp,43,←,right,→,0.43388189980760217,False,20,-1,0,6
Y2-S2-253M20,4,355,AS,exp,48,↑,up,↑,0.7864306000992656,True,21,-1,0,6
Y2-S2-253M20,4,356,AS,exp,26,←,left,←,0.7919962001033127,True,21,-1,0,6
Y2-S2-253M20,4,357,AS,exp,43,→,right,→,0.4673538999632001,True,21,1,1,7
Y2-S2-253M20,4,358,AS,exp,42,←,left,←,0.35040060011669993,True,20,1,0,7
Y2-S2-253M20,4,359,AS,exp,31,→,up,↑,0.35028429981321096,False,20,-1,1,8
Y2-S2-253M20,4,360,AS,exp,45,←,left,←,0.6324106999672949,True,21,-1,0,8
Y2-S2-253M20,4,361,AS,exp,40,↑,up,↑,0.43391559971496463,True,21,-1,0,8
Y2-S2-253M20,4,362,AS,exp,43,↓,down,↓,0.7617134996689856,True,21,1,1,9
Y2-S2-253M20,4,363,AS,exp,42,↑,right,→,1.1721509001217782,False,20,-1,1,10
Y2-S2-253M20,4,364,AS,exp,49,←,left,←,1.4618330001831055,True,21,-1,0,10
Y2-S2-253M20,4,365,AS,exp,33,→,right,→,0.8266294999048114,True,21,-1,0,10
Y2-S2-253M20,4,366,AS,exp,35,↓,down,↓,0.8855302003212273,True,21,1,1,11
Y2-S2-253M20,4,367,AS,exp,37,↑,right,→,1.1028943001292646,False,20,-1,1,12
Y2-S2-253M20,4,368,AS,exp,29,←,left,←,0.7830592999234796,True,21,-1,0,12
Y2-S2-253M20,4,369,AS,exp,34,→,right,→,0.4506485001184046,True,21,-1,0,12
Y2-S2-253M20,4,370,AS,exp,38,↑,down,↓,0.7899223999120295,False,21,-1,0,12
Y2-S2-253M20,4,371,AS,exp,42,↓,up,↑,1.7283773999661207,False,22,-1,0,12
Y2-S2-253M20,4,372,AS,exp,49,↑,up,↑,1.1821568002924323,True,23,-1,0,12
Y2-S2-253M20,4,373,AS,exp,29,↓,down,↓,0.45056929998099804,True,23,-1,0,12
Y2-S2-253M20,4,374,AS,exp,40,↑,up,↑,0.48390089999884367,True,23,1,1,13
Y2-S2-253M20,4,375,AS,exp,31,←,left,←,0.7723204996436834,True,22,1,0,13
Y2-S2-253M20,4,376,AS,exp,35,↑,up,↑,0.6197907999157906,True,22,1,0,13
Y2-S2-253M20,4,377,AS,exp,41,→,right,→,0.5005333996377885,True,22,1,0,13
Y2-S2-253M20,4,378,AS,exp,48,↓,down,↓,1.2861858997493982,True,21,1,0,13
Y2-S2-253M20,4,379,AS,exp,32,←,left,←,0.6834656000137329,True,21,1,0,13
Y2-S2-253M20,4,380,AS,exp,49,→,right,→,0.552004300057888,True,21,1,0,13
Y2-S2-253M20,4,381,AS,exp,28,←,left,←,1.1373386001214385,True,20,1,0,13
Y2-S2-253M20,4,382,AS,exp,49,↑,right,→,0.5559168998152018,False,20,-1,1,14
Y2-S2-253M20,4,383,AS,exp,46,→,right,→,0.5932011003606021,True,21,-1,0,14
Y2-S2-253M20,4,384,AS,exp,29,↑,up,↑,0.7646559001877904,True,21,-1,0,14
Y2-S2-253M20,4,385,AS,exp,33,←,left,←,0.5558376000262797,True,21,1,1,15
Y2-S2-253M20,4,386,AS,exp,45,→,right,→,1.195384900085628,True,20,1,0,15
Y2-S2-253M20,4,387,AS,exp,27,↓,down,↓,0.5427433997392654,True,20,1,0,15
Y2-S2-253M20,4,388,AS,exp,43,→,right,→,0.3508409997448325,True,20,1,0,15
Y2-S2-253M20,4,389,AS,exp,34,↓,down,↓,0.7893304997123778,True,19,1,0,15
Y2-S2-253M20,4,390,AS,exp,43,←,left,←,0.5337216001935303,True,19,1,0,15
Y2-S2-253M20,4,391,AS,exp,25,↑,up,↑,0.8143919999711215,True,19,1,0,15
Y2-S2-253M20,4,392,AS,exp,36,→,right,→,1.11407190002501,True,18,1,0,15
Y2-S2-253M20,4,393,AS,exp,50,←,right,→,0.5149721996858716,False,18,-1,1,16
Y2-S2-253M20,5,394,AS,intra_train,30,→,right,→,0.3675957000814378,True,27,-,-,-
Y2-S2-253M20,5,395,AS,intra_train,28,↑,up,↑,0.7372181001119316,True,27,-,-,-
Y2-S2-253M20,5,396,AS,intra_train,26,→,right,→,0.40108489990234375,True,27,-,-,-
Y2-S2-253M20,5,397,AS,intra_train,42,↓,left,←,0.3346996000036597,False,27,-,-,-
Y2-S2-253M20,5,398,AS,intra_train,43,↑,up,↑,1.2717575998976827,True,27,-,-,-
Y2-S2-253M20,5,399,AS,exp,50,←,left,←,0.7260098000988364,True,18,0,0,0
Y2-S2-253M20,5,400,AS,exp,38,→,right,→,0.92119160015136,True,18,0,0,0
Y2-S2-253M20,5,401,AS,exp,26,←,right,→,0.7899265000596642,False,18,-1,0,0
Y2-S2-253M20,5,402,AS,exp,40,↑,up,↑,0.43454289995133877,True,19,-1,0,0
Y2-S2-253M20,5,403,AS,exp,27,→,right,→,0.40055170003324747,True,19,-1,0,0
Y2-S2-253M20,5,404,AS,exp,43,↓,down,↓,0.5222811000421643,True,19,1,1,1
Y2-S2-253M20,5,405,AS,exp,40,↑,down,↓,0.490860799793154,False,18,-1,1,2
Y2-S2-253M20,5,406,AS,exp,39,↓,down,↓,0.5270543000660837,True,19,-1,0,2
Y2-S2-253M20,5,407,AS,exp,32,→,right,→,0.538585000205785,True,19,-1,0,2
Y2-S2-253M20,5,408,AS,exp,27,←,right,→,0.6523811002261937,False,19,-1,0,2
Y2-S2-253M20,5,409,AS,exp,27,↓,down,↓,1.838374000042677,True,20,-1,0,2
Y2-S2-253M20,5,410,AS,exp,29,→,right,→,0.7065739003010094,True,20,-1,0,2
Y2-S2-253M20,5,411,AS,exp,36,←,left,←,0.9360820003785193,True,20,1,1,3
Y2-S2-253M20,5,412,AS,exp,26,↑,up,↑,0.5737302997149527,True,19,1,0,3
Y2-S2-253M20,5,413,AS,exp,35,→,right,→,1.1014914000406861,True,19,1,0,3
Y2-S2-253M20,5,414,AS,exp,48,↓,down,↓,0.7429694002494216,True,19,1,0,3
Y2-S2-253M20,5,415,AS,exp,39,←,left,←,0.8055626000277698,True,18,1,0,3
Y2-S2-253M20,5,416,AS,exp,39,→,right,→,0.6409187000244856,True,18,1,0,3
Y2-S2-253M20,5,417,AS,exp,34,←,left,←,1.0668158000335097,True,18,1,0,3
Y2-S2-253M20,5,418,AS,exp,26,↑,up,↑,0.4899782002903521,True,17,1,0,3
Y2-S2-253M20,5,419,AS,exp,40,→,right,→,0.4744184003211558,True,17,1,0,3
Y2-S2-253M20,5,420,AS,exp,39,↑,right,→,1.1413985998369753,False,17,-1,1,4
Y2-S2-253M20,5,421,AS,exp,41,←,left,←,0.4341025003232062,True,18,-1,0,4
Y2-S2-253M20,5,422,AS,exp,34,↑,up,↑,1.4949198998510838,True,18,-1,0,4
Y2-S2-253M20,5,423,AS,exp,41,→,right,→,0.5882516000419855,True,18,1,1,5
Y2-S2-253M20,5,424,AS,exp,39,↑,up,↑,0.6207446996122599,True,17,1,0,5
Y2-S2-253M20,5,425,AS,exp,30,→,right,→,0.7060600002296269,True,17,1,0,5
Y2-S2-253M20,5,426,AS,exp,44,↑,down,↓,0.7047660001553595,False,17,-1,1,6
Y2-S2-253M20,5,427,AS,exp,25,←,left,←,0.4797857999801636,True,18,-1,0,6
Y2-S2-253M20,5,428,AS,exp,32,↑,up,↑,0.7685211999341846,True,18,-1,0,6
Y2-S2-253M20,5,429,AS,exp,26,→,right,→,0.367240599822253,True,18,1,1,7
Y2-S2-253M20,5,430,AS,exp,36,←,left,←,0.4172630999237299,True,17,1,0,7
Y2-S2-253M20,5,431,AS,exp,27,↓,down,↓,0.5458244998008013,True,17,1,0,7
Y2-S2-253M20,5,432,AS,exp,47,↑,up,↑,0.4591618999838829,True,17,1,0,7
Y2-S2-253M20,5,433,AS,exp,33,→,right,→,0.694890399929136,True,16,1,0,7
Y2-S2-253M20,5,434,AS,exp,35,↓,down,↓,1.2178353001363575,True,16,1,0,7
Y2-S2-253M20,5,435,AS,exp,42,←,left,←,0.44931739987805486,True,16,1,0,7
Y2-S2-253M20,5,436,AS,exp,38,↑,up,↑,1.3783472999930382,True,15,1,0,7
Y2-S2-253M20,5,437,AS,exp,36,↓,down,↓,0.7420251001603901,True,15,1,0,7
Y2-S2-253M20,5,438,AS,exp,26,↑,down,↓,0.7678270000033081,False,15,-1,1,8
Y2-S2-253M20,5,439,AS,exp,47,→,right,→,0.6457177000120282,True,16,-1,0,8
Y2-S2-253M20,5,440,AS,exp,41,←,left,←,0.449711199849844,True,16,-1,0,8
Y2-S2-253M20,5,441,AS,exp,31,↑,up,↑,0.7862675003707409,True,16,1,1,9
Y2-S2-253M20,5,442,AS,exp,48,→,left,←,1.4533808999694884,False,15,-1,1,10
Y2-S2-253M20,5,443,AS,exp,26,↑,up,↑,0.8289072001352906,True,16,-1,0,10
Y2-S2-253M20,5,444,AS,exp,40,↓,down,↓,0.6865257997997105,True,16,-1,0,10
Y2-S2-253M20,5,445,AS,exp,46,↑,up,↑,0.5505665000528097,True,16,1,1,11
Y2-S2-253M20,5,446,AS,exp,41,→,left,←,0.6908014002256095,False,15,-1,1,12
Y2-S2-253M20,5,447,AS,exp,40,↑,down,↓,0.6670683999545872,False,16,-1,0,12
Y2-S2-253M20,5,448,AS,exp,38,←,right,→,0.20061059994623065,False,17,-1,0,12
Y2-S2-253M20,5,449,AS,exp,36,→,right,→,1.0133937001228333,True,18,-1,0,12
Y2-S2-253M20,5,450,AS,exp,50,←,left,←,1.1466084001585841,True,18,-1,0,12
Y2-S2-253M20,5,451,AS,exp,39,↑,up,↑,0.9285091999918222,True,18,1,1,13
Y2-S2-253M20,5,452,AS,exp,50,→,right,→,0.6175993997603655,True,17,1,0,13
Y2-S2-253M20,5,453,AS,exp,48,↑,right,→,0.903689400292933,False,17,-1,1,14
Y2-S2-253M20,5,454,AS,exp,43,→,right,→,0.5658178003504872,True,18,-1,0,14
Y2-S2-253M20,5,455,AS,exp,28,↑,up,↑,0.6193907000124454,True,18,-1,0,14
Y2-S2-253M20,5,456,AS,exp,27,↓,down,↓,0.6915342002175748,True,18,1,1,15
Y2-S2-253M20,5,457,AS,exp,41,↑,up,↑,0.8343954998999834,True,17,1,0,15
Y2-S2-253M20,5,458,AS,exp,50,←,left,←,0.47672800021246076,True,17,1,0,15
Y2-S2-253M20,5,459,AS,exp,35,→,right,→,0.4829036998562515,True,17,1,0,15
Y2-S2-253M20,5,460,AS,exp,49,←,right,→,0.5260437000542879,False,16,-1,1,16
Y2-S2-253M20,6,461,PS,intra_train,36,→,right,→,0.4893988003022969,True,15,-,-,-
Y2-S2-253M20,6,462,PS,intra_train,29,↓,up,↑,0.6614171001128852,False,15,-,-,-
Y2-S2-253M20,6,463,PS,intra_train,41,↑,up,↑,0.681353600230068,True,15,-,-,-
Y2-S2-253M20,6,464,PS,intra_train,37,↓,right,→,0.9939683000557125,False,15,-,-,-
Y2-S2-253M20,6,465,PS,intra_train,41,↑,up,↑,0.596995800267905,True,15,-,-,-
Y2-S2-253M20,6,466,PS,exp,38,←,right,→,0.8380268001928926,False,10,-1,0,0
Y2-S2-253M20,6,467,PS,exp,32,↓,down,↓,0.5937208998948336,True,11,-1,0,0
Y2-S2-253M20,6,468,PS,exp,34,↑,up,↑,0.7465817001648247,True,11,-1,0,0
Y2-S2-253M20,6,469,PS,exp,40,↓,down,↓,0.513695599976927,True,11,1,1,1
Y2-S2-253M20,6,470,PS,exp,41,←,left,←,0.5369116999208927,True,10,1,0,1
Y2-S2-253M20,6,471,PS,exp,31,↓,right,→,0.7894719000905752,False,10,-1,1,2
Y2-S2-253M20,6,472,PS,exp,27,→,right,→,0.47594769997522235,True,11,-1,0,2
Y2-S2-253M20,6,473,PS,exp,28,←,right,→,0.48428909992799163,False,11,-1,0,2
Y2-S2-253M20,6,474,PS,exp,49,→,left,←,0.534194199834019,False,12,-1,0,2
Y2-S2-253M20,6,475,PS,exp,28,←,left,←,0.46058910014107823,True,13,-1,0,2
Y2-S2-253M20,6,476,PS,exp,48,↑,up,↑,0.4988020998425782,True,13,-1,0,2
Y2-S2-253M20,6,477,PS,exp,25,→,right,→,0.7223000000230968,True,13,1,1,3
Y2-S2-253M20,6,478,PS,exp,40,←,left,←,0.708067299798131,True,12,1,0,3
Y2-S2-253M20,6,479,PS,exp,31,↓,down,↓,0.8083021002821624,True,12,1,0,3
Y2-S2-253M20,6,480,PS,exp,50,→,right,→,0.7807779000140727,True,12,1,0,3
Y2-S2-253M20,6,481,PS,exp,36,↑,up,↑,0.8496225997805595,True,11,1,0,3
Y2-S2-253M20,6,482,PS,exp,46,↓,down,↓,0.6453301999717951,True,11,1,0,3
Y2-S2-253M20,6,483,PS,exp,41,←,left,←,0.6568987001664937,True,11,1,0,3
Y2-S2-253M20,6,484,PS,exp,34,↑,left,←,0.8718640999868512,False,10,-1,1,4
Y2-S2-253M20,6,485,PS,exp,39,→,right,→,0.8101936997845769,True,11,-1,0,4
Y2-S2-253M20,6,486,PS,exp,45,↑,up,↑,0.5781530998647213,True,11,-1,0,4
Y2-S2-253M20,6,487,PS,exp,36,→,right,→,0.7242201999761164,True,11,1,1,5
Y2-S2-253M20,6,488,PS,exp,25,↑,up,↑,0.6954330001026392,True,10,1,0,5
Y2-S2-253M20,6,489,PS,exp,32,→,right,→,0.5997028998099267,True,10,1,0,5
Y2-S2-253M20,6,490,PS,exp,37,↓,down,↓,0.8100383998826146,True,10,1,0,5
Y2-S2-253M20,6,491,PS,exp,48,←,left,←,0.5100958999246359,True,9,1,0,5
Y2-S2-253M20,6,492,PS,exp,25,→,right,→,0.4714444000273943,True,9,1,0,5
Y2-S2-253M20,6,493,PS,exp,25,←,left,←,0.5796537999995053,True,9,1,0,5
Y2-S2-253M20,6,494,PS,exp,44,→,right,→,0.4400394996628165,True,8,1,0,5
Y2-S2-253M20,6,495,PS,exp,30,←,left,←,0.5867713000625372,True,8,1,0,5
Y2-S2-253M20,6,496,PS,exp,33,→,right,→,0.5829031998291612,True,8,1,0,5
Y2-S2-253M20,6,497,PS,exp,50,↑,left,←,0.6481182002462447,False,7,-1,1,6
Y2-S2-253M20,6,498,PS,exp,33,←,right,→,0.44520539976656437,False,8,-1,0,6
Y2-S2-253M20,6,499,PS,exp,34,↓,right,→,0.3534528003074229,False,9,-1,0,6
Y2-S2-253M20,6,500,PS,exp,50,→,right,→,0.6990954000502825,True,10,-1,0,6
Y2-S2-253M20,6,501,PS,exp,25,←,right,→,0.7587152998894453,False,10,-1,0,6
Y2-S2-253M20,6,502,PS,exp,36,↓,right,→,0.7824343997053802,False,11,-1,0,6
Y2-S2-253M20,6,503,PS,exp,29,→,left,←,0.7045928998850286,False,12,-1,0,6
Y2-S2-253M20,6,504,PS,exp,26,↓,down,↓,1.3599922000430524,True,13,-1,0,6
Y2-S2-253M20,6,505,PS,exp,41,↑,up,↑,0.5722326999530196,True,13,-1,0,6
Y2-S2-253M20,6,506,PS,exp,35,→,right,→,0.9925917000509799,True,13,1,1,7
Y2-S2-253M20,6,507,PS,exp,34,←,up,↑,1.5967365000396967,False,12,-1,1,8
Y2-S2-253M20,6,508,PS,exp,27,→,right,→,0.41956219961866736,True,13,-1,0,8
Y2-S2-253M20,6,509,PS,exp,48,↓,down,↓,0.727260900195688,True,13,-1,0,8
Y2-S2-253M20,6,510,PS,exp,38,→,right,→,0.49412079993635416,True,13,1,1,9
Y2-S2-253M20,6,511,PS,exp,42,←,right,→,0.5632367003709078,False,12,-1,1,10
Y2-S2-253M20,6,512,PS,exp,41,↓,down,↓,1.8728539999574423,True,13,-1,0,10
Y2-S2-253M20,6,513,PS,exp,29,←,left,←,0.557381700258702,True,13,-1,0,10
Y2-S2-253M20,6,514,PS,exp,39,↑,up,↑,1.7298940001055598,True,13,1,1,11
Y2-S2-253M20,6,515,PS,exp,29,←,left,←,0.5668691997416317,True,12,1,0,11
Y2-S2-253M20,6,516,PS,exp,27,→,right,→,0.4629575000144541,True,12,1,0,11
Y2-S2-253M20,6,517,PS,exp,30,←,left,←,0.48684659972786903,True,12,1,0,11
Y2-S2-253M20,6,518,PS,exp,46,→,right,→,0.5354149001650512,True,11,1,0,11
Y2-S2-253M20,6,519,PS,exp,28,↑,up,↑,0.5195415001362562,True,11,1,0,11
Y2-S2-253M20,6,520,PS,exp,32,→,right,→,0.43045439990237355,True,11,1,0,11
Y2-S2-253M20,6,521,PS,exp,46,↓,down,↓,0.5884650000371039,True,10,1,0,11
Y2-S2-253M20,6,522,PS,exp,38,←,left,←,0.6100101000629365,True,10,1,0,11
Y2-S2-253M20,6,523,PS,exp,42,↑,right,→,0.4037506999447942,False,10,-1,1,12
Y2-S2-253M20,6,524,PS,exp,37,↓,down,↓,0.49854080006480217,True,11,-1,0,12
Y2-S2-253M20,6,525,PS,exp,45,←,left,←,0.6188093000091612,True,11,-1,0,12
Y2-S2-253M20,6,526,PS,exp,50,→,right,→,0.43058339972049,True,11,1,1,13
Y2-S2-253M20,6,527,PS,exp,37,↑,up,↑,0.5411565001122653,True,10,1,0,13
Y2-S2-253M20,6,528,PS,exp,50,↓,down,↓,0.601391099859029,True,10,1,0,13
Y2-S2-253M20,6,529,PS,exp,50,→,left,←,1.005193100310862,False,10,-1,1,14
Y2-S2-253M20,6,530,PS,exp,46,←,right,→,0.5685808002017438,False,11,-1,0,14
Y2-S2-253M20,6,531,PS,exp,32,↑,up,↑,0.5744661996141076,True,12,-1,0,14
Y2-S2-253M20,6,532,PS,exp,35,→,right,→,0.4611375997774303,True,12,-1,0,14
Y2-S2-253M20,6,533,PS,exp,28,↓,down,↓,1.0242554997093976,True,12,1,1,15
Y2-S2-253M20,6,534,PS,exp,48,↑,left,←,0.8195187002420425,False,11,-1,1,16
Y2-S2-253M20,7,535,PS,intra_train,50,→,right,→,1.1302461000159383,True,15,-,-,-
Y2-S2-253M20,7,536,PS,intra_train,41,←,left,←,0.4385612001642585,True,15,-,-,-
Y2-S2-253M20,7,537,PS,intra_train,33,→,right,→,0.3838507002219558,True,15,-,-,-
Y2-S2-253M20,7,538,PS,intra_train,49,↑,up,↑,0.48524249996989965,True,15,-,-,-
Y2-S2-253M20,7,539,PS,intra_train,48,→,right,→,1.1628829999826849,True,15,-,-,-
Y2-S2-253M20,7,540,PS,exp,36,←,right,→,0.6838263003155589,False,10,-1,0,0
Y2-S2-253M20,7,541,PS,exp,45,→,right,→,0.4030603999271989,True,11,-1,0,0
Y2-S2-253M20,7,542,PS,exp,34,↑,up,↑,0.4752244995906949,True,11,-1,0,0
Y2-S2-253M20,7,543,PS,exp,34,←,left,←,0.4089303002692759,True,11,1,1,1
Y2-S2-253M20,7,544,PS,exp,28,↓,up,↑,0.6956186001189053,False,10,-1,1,2
Y2-S2-253M20,7,545,PS,exp,32,↑,up,↑,0.5703344000503421,True,11,-1,0,2
Y2-S2-253M20,7,546,PS,exp,32,←,right,→,0.5779077997431159,False,11,-1,0,2
Y2-S2-253M20,7,547,PS,exp,27,→,right,→,0.49332220014184713,True,12,-1,0,2
Y2-S2-253M20,7,548,PS,exp,41,←,left,←,0.6085773999802768,True,12,-1,0,2
Y2-S2-253M20,7,549,PS,exp,42,↑,up,↑,0.5625836998224258,True,12,1,1,3
Y2-S2-253M20,7,550,PS,exp,37,↓,up,↑,0.48139269975945354,False,11,-1,1,4
Y2-S2-253M20,7,551,PS,exp,40,↑,left,←,0.824802900198847,False,12,-1,0,4
Y2-S2-253M20,7,552,PS,exp,36,↓,down,↓,0.5768761998042464,True,13,-1,0,4
Y2-S2-253M20,7,553,PS,exp,36,↑,up,↑,0.6132396999746561,True,13,-1,0,4
Y2-S2-253M20,7,554,PS,exp,36,↓,right,→,0.8007561000995338,False,13,-1,0,4
Y2-S2-253M20,7,555,PS,exp,38,→,right,→,0.7808179003186524,True,14,-1,0,4
Y2-S2-253M20,7,556,PS,exp,36,←,left,←,0.7398219997994602,True,14,-1,0,4
Y2-S2-253M20,7,557,PS,exp,32,→,right,→,0.8195396000519395,True,14,1,1,5
Y2-S2-253M20,7,558,PS,exp,43,↓,down,↓,0.3995038000866771,True,13,1,0,5
Y2-S2-253M20,7,559,PS,exp,43,→,right,→,0.3953278996050358,True,13,1,0,5
Y2-S2-253M20,7,560,PS,exp,36,↑,down,↓,0.6980437999591231,False,13,-1,1,6
Y2-S2-253M20,7,561,PS,exp,47,←,left,←,0.3504792000167072,True,14,-1,0,6
Y2-S2-253M20,7,562,PS,exp,30,→,right,→,0.45219659991562366,True,14,-1,0,6
Y2-S2-253M20,7,563,PS,exp,37,←,left,←,0.5718208001926541,True,14,1,1,7
Y2-S2-253M20,7,564,PS,exp,46,↓,down,↓,0.585037300363183,True,13,1,0,7
Y2-S2-253M20,7,565,PS,exp,44,→,right,→,0.4562086001969874,True,13,1,0,7
Y2-S2-253M20,7,566,PS,exp,34,↓,down,↓,0.5347241996787488,True,13,1,0,7
Y2-S2-253M20,7,567,PS,exp,38,←,left,←,0.41358929965645075,True,12,1,0,7
Y2-S2-253M20,7,568,PS,exp,45,↓,down,↓,0.46492729987949133,True,12,1,0,7
Y2-S2-253M20,7,569,PS,exp,44,←,left,←,0.8368091001175344,True,12,1,0,7
Y2-S2-253M20,7,570,PS,exp,31,↑,right,→,0.47898990008980036,False,11,-1,1,8
Y2-S2-253M20,7,571,PS,exp,39,→,right,→,0.48149950010702014,True,12,-1,0,8
Y2-S2-253M20,7,572,PS,exp,44,←,left,←,1.1685437997803092,True,12,-1,0,8
Y2-S2-253M20,7,573,PS,exp,36,→,left,←,0.921100300271064,False,12,-1,0,8
Y2-S2-253M20,7,574,PS,exp,28,←,left,←,0.461820499971509,True,13,-1,0,8
Y2-S2-253M20,7,575,PS,exp,48,→,right,→,0.21703029982745647,True,13,-1,0,8
Y2-S2-253M20,7,576,PS,exp,31,↑,left,←,0.4490141998976469,False,13,-1,0,8
Y2-S2-253M20,7,577,PS,exp,29,→,right,→,1.0691142999567091,True,14,-1,0,8
Y2-S2-253M20,7,578,PS,exp,37,↓,left,←,0.43238449981436133,False,14,-1,0,8
Y2-S2-253M20,7,579,PS,exp,30,↑,up,↑,0.5426920000463724,True,15,-1,0,8
Y2-S2-253M20,7,580,PS,exp,31,→,left,←,0.4764026999473572,False,15,-1,0,8
Y2-S2-253M20,7,581,PS,exp,35,↓,down,↓,0.5118681001476943,True,16,-1,0,8
Y2-S2-253M20,7,582,PS,exp,48,↑,up,↑,0.7182889003306627,True,16,-1,0,8
Y2-S2-253M20,7,583,PS,exp,27,→,right,→,0.48448200011625886,True,16,1,1,9
Y2-S2-253M20,7,584,PS,exp,44,←,left,←,0.3835905999876559,True,15,1,0,9
Y2-S2-253M20,7,585,PS,exp,47,→,right,→,0.667989400215447,True,15,1,0,9
Y2-S2-253M20,7,586,PS,exp,33,↑,right,→,0.49235069984570146,False,15,-1,1,10
Y2-S2-253M20,7,587,PS,exp,48,→,right,→,0.46488699968904257,True,16,-1,0,10
Y2-S2-253M20,7,588,PS,exp,41,↑,up,↑,0.5498431003652513,True,16,-1,0,10
Y2-S2-253M20,7,589,PS,exp,47,↓,down,↓,0.6451024999842048,True,16,1,1,11
Y2-S2-253M20,7,590,PS,exp,37,→,right,→,1.0867522996850312,True,15,1,0,11
Y2-S2-253M20,7,591,PS,exp,29,↓,right,→,0.4536612997762859,False,15,-1,1,12
Y2-S2-253M20,7,592,PS,exp,39,←,left,←,0.6077858000062406,True,16,-1,0,12
Y2-S2-253M20,7,593,PS,exp,41,→,right,→,0.7804902996867895,True,16,-1,0,12
Y2-S2-253M20,7,594,PS,exp,30,↓,right,→,0.38393810018897057,False,16,-1,0,12
Y2-S2-253M20,7,595,PS,exp,49,↑,up,↑,0.6232266998849809,True,17,-1,0,12
Y2-S2-253M20,7,596,PS,exp,45,↓,down,↓,0.4995726002380252,True,17,-1,0,12
Y2-S2-253M20,7,597,PS,exp,28,←,down,↓,0.47604750003665686,False,17,-1,0,12
Y2-S2-253M20,7,598,PS,exp,49,↑,up,↑,0.659669800195843,True,18,-1,0,12
Y2-S2-253M20,7,599,PS,exp,38,↓,down,↓,0.5506211002357304,True,18,-1,0,12
Y2-S2-253M20,7,600,PS,exp,42,→,right,→,0.5353249004110694,True,18,1,1,13
Y2-S2-253M20,7,601,PS,exp,45,←,left,←,0.33416679967194796,True,17,1,0,13
Y2-S2-253M20,7,602,PS,exp,27,↑,right,→,0.836317100096494,False,17,-1,1,14
Y2-S2-253M20,7,603,PS,exp,36,↓,down,↓,0.8640538002364337,True,18,-1,0,14
Y2-S2-253M20,7,604,PS,exp,47,↑,up,↑,0.5363778998143971,True,18,-1,0,14
Y2-S2-253M20,7,605,PS,exp,47,↓,down,↓,1.0583803998306394,True,18,1,1,15
Y2-S2-253M20,7,606,PS,exp,46,↑,right,→,0.517531200312078,False,17,-1,1,16
Y2-S2-253M20,8,607,AS,intra_train,44,↓,down,↓,0.802963100373745,True,27,-,-,-
Y2-S2-253M20,8,608,AS,intra_train,47,→,right,→,0.4508525999262929,True,27,-,-,-
Y2-S2-253M20,8,609,AS,intra_train,30,↑,up,↑,0.7560085998848081,True,27,-,-,-
Y2-S2-253M20,8,610,AS,intra_train,45,↓,down,↓,0.8788664001040161,True,27,-,-,-
Y2-S2-253M20,8,611,AS,intra_train,31,→,right,→,0.5672654001973569,True,27,-,-,-
Y2-S2-253M20,8,612,AS,exp,38,↓,down,↓,1.348271300084889,True,18,0,0,0
Y2-S2-253M20,8,613,AS,exp,28,←,left,←,0.8781399000436068,True,18,0,0,0
Y2-S2-253M20,8,614,AS,exp,45,→,right,→,1.141304800286889,True,18,1,0,0
Y2-S2-253M20,8,615,AS,exp,38,←,right,→,0.8752415999770164,False,17,-1,1,1
Y2-S2-253M20,8,616,AS,exp,47,↑,up,↑,1.0480275000445545,True,18,-1,0,1
Y2-S2-253M20,8,617,AS,exp,37,←,left,←,0.5075586996972561,True,18,-1,0,1
Y2-S2-253M20,8,618,AS,exp,34,↓,left,←,0.4340349999256432,False,18,-1,0,1
Y2-S2-253M20,8,619,AS,exp,47,↑,up,↑,0.5785240000113845,True,19,-1,0,1
Y2-S2-253M20,8,620,AS,exp,33,↓,down,↓,0.7351766997016966,True,19,-1,0,1
Y2-S2-253M20,8,621,AS,exp,30,↑,up,↑,0.7902469001710415,True,19,1,1,2
Y2-S2-253M20,8,622,AS,exp,36,→,right,→,0.433897000271827,True,18,1,0,2
Y2-S2-253M20,8,623,AS,exp,35,↑,up,↑,1.0744920000433922,True,18,1,0,2
Y2-S2-253M20,8,624,AS,exp,31,↓,down,↓,0.7529686996713281,True,18,1,0,2
Y2-S2-253M20,8,625,AS,exp,41,↑,up,↑,0.6100241998210549,True,17,1,0,2
Y2-S2-253M20,8,626,AS,exp,27,↓,up,↑,0.8230016999877989,False,17,-1,1,3
Y2-S2-253M20,8,627,AS,exp,43,↑,up,↑,0.976966300047934,True,18,-1,0,3
Y2-S2-253M20,8,628,AS,exp,37,←,right,→,0.6315827998332679,False,18,-1,0,3
Y2-S2-253M20,8,629,AS,exp,28,↑,right,→,1.049645799677819,False,19,-1,0,3
Y2-S2-253M20,8,630,AS,exp,39,↓,up,↑,0.8498255996964872,False,20,-1,0,3
Y2-S2-253M20,8,631,AS,exp,41,→,right,→,0.587184099946171,True,21,-1,0,3
Y2-S2-253M20,8,632,AS,exp,30,↓,down,↓,0.7668487001210451,True,21,-1,0,3
Y2-S2-253M20,8,633,AS,exp,41,→,right,→,0.43413549987599254,True,21,1,1,4
Y2-S2-253M20,8,634,AS,exp,29,↓,down,↓,1.011888099834323,True,20,1,0,4
Y2-S2-253M20,8,635,AS,exp,50,←,right,→,0.5062414999119937,False,20,-1,1,5
Y2-S2-253M20,8,636,AS,exp,42,→,right,→,0.6986296996474266,True,21,-1,0,5
Y2-S2-253M20,8,637,AS,exp,45,←,left,←,0.7911873999983072,True,21,-1,0,5
Y2-S2-253M20,8,638,AS,exp,45,→,right,→,1.0607986999675632,True,21,1,1,6
Y2-S2-253M20,8,639,AS,exp,35,←,left,←,1.1955447001382709,True,20,1,0,6
Y2-S2-253M20,8,640,AS,exp,44,→,right,→,0.533616800326854,True,20,1,0,6
Y2-S2-253M20,8,641,AS,exp,48,↑,up,↑,0.9603967000730336,True,20,1,0,6
Y2-S2-253M20,8,642,AS,exp,27,←,left,←,0.5323616997338831,True,19,1,0,6
Y2-S2-253M20,8,643,AS,exp,26,→,right,→,0.7785665998235345,True,19,1,0,6
Y2-S2-253M20,8,644,AS,exp,29,←,left,←,0.3671928998082876,True,19,1,0,6
Y2-S2-253M20,8,645,AS,exp,28,→,right,→,0.47751199966296554,True,18,1,0,6
Y2-S2-253M20,8,646,AS,exp,26,←,left,←,1.001238299999386,True,18,1,0,6
Y2-S2-253M20,8,647,AS,exp,37,→,right,→,0.4924145000986755,True,18,1,0,6
Y2-S2-253M20,8,648,AS,exp,48,↓,right,→,0.7659157002344728,False,17,-1,1,7
Y2-S2-253M20,8,649,AS,exp,37,←,left,←,0.4698501001112163,True,18,-1,0,7
Y2-S2-253M20,8,650,AS,exp,39,↑,right,→,0.4991716002114117,False,18,-1,0,7
Y2-S2-253M20,8,651,AS,exp,47,←,left,←,1.1297460002824664,True,19,-1,0,7
Y2-S2-253M20,8,652,AS,exp,33,↓,down,↓,0.8235825998708606,True,19,-1,0,7
Y2-S2-253M20,8,653,AS,exp,32,↑,up,↑,0.512340399902314,True,19,1,1,8
Y2-S2-253M20,8,654,AS,exp,44,←,left,←,0.4005468999966979,True,18,1,0,8
Y2-S2-253M20,8,655,AS,exp,38,↓,down,↓,0.6013393001630902,True,18,1,0,8
Y2-S2-253M20,8,656,AS,exp,47,←,left,←,0.4005764997564256,True,18,1,0,8
Y2-S2-253M20,8,657,AS,exp,39,→,right,→,0.5999857001006603,True,17,1,0,8
Y2-S2-253M20,8,658,AS,exp,39,↓,down,↓,1.0462405998259783,True,17,1,0,8
Y2-S2-253M20,8,659,AS,exp,40,↑,right,→,0.9781388998962939,False,17,-1,1,9
Y2-S2-253M20,8,660,AS,exp,27,↓,down,↓,0.5606257999315858,True,18,-1,0,9
Y2-S2-253M20,8,661,AS,exp,33,↑,up,↑,0.8827088996767998,True,18,-1,0,9
Y2-S2-253M20,8,662,AS,exp,41,↓,right,→,0.798662600107491,False,18,-1,0,9
Y2-S2-253M20,8,663,AS,exp,45,←,right,→,0.794531799852848,False,19,-1,0,9
Y2-S2-253M20,8,664,AS,exp,37,→,right,→,0.7621434996835887,True,20,-1,0,9
Y2-S2-253M20,8,665,AS,exp,34,↓,left,←,0.7341289999894798,False,20,-1,0,9
Y2-S2-253M20,8,666,AS,exp,38,↑,right,→,0.8463638001121581,False,21,-1,0,9
Y2-S2-253M20,8,667,AS,exp,32,→,right,→,0.7560697998851538,True,22,-1,0,9
Y2-S2-253M20,8,668,AS,exp,49,←,left,←,0.8013796000741422,True,22,-1,0,9
Y2-S2-253M20,8,669,AS,exp,43,↓,right,→,0.915826499927789,False,22,-1,0,9
Y2-S2-253M20,8,670,AS,exp,43,←,left,←,0.707650899887085,True,23,-1,0,9
Y2-S2-253M20,8,671,AS,exp,45,↑,up,↑,0.79541220003739,True,23,-1,0,9
Y2-S2-253M20,8,672,AS,exp,37,→,right,→,0.45026780012995005,True,23,1,1,10
Y2-S2-253M20,8,673,AS,exp,42,↑,up,↑,0.6669159000739455,True,22,1,0,10
Y2-S2-253M20,8,674,AS,exp,47,→,right,→,0.48389470018446445,True,22,1,0,10
Y2-S2-253M20,8,675,AS,exp,35,↑,up,↑,0.4160647001117468,True,22,1,0,10
Y2-S2-253M20,8,676,AS,exp,26,→,right,→,0.46723429998382926,True,21,1,0,10
Y2-S2-253M20,8,677,AS,exp,44,↑,up,↑,0.6448610001243651,True,21,1,0,10
Y2-S2-253M20,8,678,AS,exp,36,←,left,←,1.3128531998954713,True,21,1,0,10
Y2-S2-253M20,8,679,AS,exp,47,→,right,→,0.5731005002744496,True,20,1,0,10
Y2-S2-253M20,8,680,AS,exp,37,↑,up,↑,0.797613900154829,True,20,1,0,10
Y2-S2-253M20,8,681,AS,exp,50,←,left,←,0.3838988998904824,True,20,1,0,10
Y2-S2-253M20,8,682,AS,exp,36,↑,up,↑,0.5725992997176945,True,19,1,0,10
Y2-S2-253M20,8,683,AS,exp,36,→,right,→,0.5677845999598503,True,19,1,0,10
Y2-S2-253M20,8,684,AS,exp,46,↓,up,↑,0.7203567996621132,False,19,-1,1,11
Y2-S2-253M20,8,685,AS,exp,47,↑,up,↑,0.5043386002071202,True,20,-1,0,11
Y2-S2-253M20,8,686,AS,exp,25,←,right,→,0.849358499981463,False,20,-1,0,11
Y2-S2-253M20,8,687,AS,exp,47,↑,up,↑,0.5753595996648073,True,21,-1,0,11
Y2-S2-253M20,8,688,AS,exp,31,←,right,→,0.5197805999778211,False,21,-1,0,11
Y2-S2-253M20,8,689,AS,exp,45,↑,up,↑,0.5791768003255129,True,22,-1,0,11
Y2-S2-253M20,8,690,AS,exp,48,←,left,←,0.4505338999442756,True,22,-1,0,11
Y2-S2-253M20,8,691,AS,exp,29,↓,right,→,0.8419377999380231,False,22,-1,0,11
Y2-S2-253M20,8,692,AS,exp,40,↑,up,↑,0.45059389993548393,True,23,-1,0,11
Y2-S2-253M20,8,693,AS,exp,45,←,left,←,0.4840049003250897,True,23,-1,0,11
Y2-S2-253M20,8,694,AS,exp,47,→,right,→,0.46728810016065836,True,23,1,1,12
Y2-S2-253M20,8,695,AS,exp,27,←,right,→,0.845298099797219,False,22,-1,1,13
Y2-S2-253M20,8,696,AS,exp,46,→,right,→,0.4840868003666401,True,23,-1,0,13
Y2-S2-253M20,8,697,AS,exp,25,↓,down,↓,0.6588913998566568,True,23,-1,0,13
Y2-S2-253M20,8,698,AS,exp,28,↑,up,↑,0.5602580001577735,True,23,1,1,14
Y2-S2-253M20,8,699,AS,exp,30,↓,right,→,0.8992061000317335,False,22,-1,1,15
Y2-S2-253M20,8,700,AS,exp,27,←,left,←,0.4006916997022927,True,23,-1,0,15
Y2-S2-253M20,8,701,AS,exp,25,→,right,→,0.3673298000358045,True,23,-1,0,15
Y2-S2-253M20,8,702,AS,exp,44,↓,right,→,0.5653445003554225,False,23,-1,0,15
Y2-S2-253M20,8,703,AS,exp,40,←,right,→,0.6206034002825618,False,24,-1,0,15
Y2-S2-253M20,8,704,AS,exp,44,→,right,→,0.6979163000360131,True,25,-1,0,15
Y2-S2-253M20,8,705,AS,exp,38,↓,down,↓,0.742270200047642,True,25,-1,0,15
Y2-S2-253M20,8,706,AS,exp,25,→,right,→,0.4502076003700495,True,25,1,1,16
