PART_ID,Block_no,Trial_no,Block_type,Trial_type,CSI,Stim_letter,Key_pressed,letter_choose,Rt,Corr,Stimulus Time,Level,Reversal,Revs_count
Y2-S2-194K21,1,1,PS,train,46,←,left,←,1.5141668999567628,True,30,-,-,-
Y2-S2-194K21,1,2,PS,train,29,↑,up,↑,0.7179209999740124,True,30,-,-,-
Y2-S2-194K21,1,3,PS,train,35,↓,down,↓,0.8080448999535292,True,30,-,-,-
Y2-S2-194K21,1,4,PS,train,34,↑,up,↑,0.4511227000039071,True,30,-,-,-
Y2-S2-194K21,1,5,PS,train,48,↓,down,↓,0.8950519000645727,True,30,-,-,-
Y2-S2-194K21,1,6,PS,train,49,←,left,←,0.8012405000627041,True,30,-,-,-
Y2-S2-194K21,1,7,PS,train,39,→,right,→,1.070120600052178,True,30,-,-,-
Y2-S2-194K21,1,8,PS,train,32,←,left,←,0.634000499965623,True,30,-,-,-
Y2-S2-194K21,1,9,PS,train,50,↓,down,↓,0.8297800000291318,True,30,-,-,-
Y2-S2-194K21,1,10,PS,train,34,←,left,←,1.550020300084725,True,30,-,-,-
Y2-S2-194K21,2,11,AS,train,36,↑,up,↑,1.0394468000158668,True,45,-,-,-
Y2-S2-194K21,2,12,AS,train,43,←,left,←,0.6679503999184817,True,45,-,-,-
Y2-S2-194K21,2,13,AS,train,42,↓,down,↓,0.8174942000769079,True,45,-,-,-
Y2-S2-194K21,2,14,AS,train,38,↑,up,↑,0.8508289000019431,True,45,-,-,-
Y2-S2-194K21,2,15,AS,train,27,↓,down,↓,0.8500200998969376,True,45,-,-,-
Y2-S2-194K21,2,16,AS,train,47,←,left,←,0.7177515998482704,True,45,-,-,-
Y2-S2-194K21,2,17,AS,train,28,↓,down,↓,0.7510085999965668,True,45,-,-,-
Y2-S2-194K21,2,18,AS,train,47,←,left,←,0.7837963998317719,True,45,-,-,-
Y2-S2-194K21,2,19,AS,train,31,→,right,→,0.7339304001070559,True,45,-,-,-
Y2-S2-194K21,2,20,AS,train,38,←,left,←,0.7835995000787079,True,45,-,-,-
Y2-S2-194K21,-,21,PS,adaptive,48,↓,down,↓,0.5225519000086933,True,10,0,0,0
Y2-S2-194K21,-,22,PS,adaptive,31,↑,up,↑,1.0421688999049366,True,10,0,0,0
Y2-S2-194K21,-,23,PS,adaptive,49,→,right,→,0.7815763999242336,True,10,1,0,0
Y2-S2-194K21,-,24,PS,adaptive,38,↓,up,↑,1.109057999914512,False,9,-1,1,1
Y2-S2-194K21,-,25,PS,adaptive,31,←,left,←,0.5014796999748796,True,10,-1,0,1
Y2-S2-194K21,-,26,PS,adaptive,25,↑,up,↑,0.631580299930647,True,10,-1,0,1
Y2-S2-194K21,-,27,PS,adaptive,45,↓,down,↓,1.001735599944368,True,10,1,1,2
Y2-S2-194K21,-,28,PS,adaptive,31,→,right,→,0.772934400010854,True,9,1,0,2
Y2-S2-194K21,-,29,PS,adaptive,29,←,left,←,0.6406215000897646,True,9,1,0,2
Y2-S2-194K21,-,30,PS,adaptive,46,↑,up,↑,0.9526847000233829,True,9,1,0,2
Y2-S2-194K21,-,31,PS,adaptive,40,→,no_key,no_letter,-1.0,False,8,-1,1,3
Y2-S2-194K21,-,32,PS,adaptive,47,←,left,←,0.49549280013889074,True,9,-1,0,3
Y2-S2-194K21,-,33,PS,adaptive,31,→,right,→,0.6206902998965234,True,9,-1,0,3
Y2-S2-194K21,-,34,PS,adaptive,46,↑,up,↑,0.5595052998978645,True,9,1,1,4
Y2-S2-194K21,-,35,AS,adaptive,32,←,left,←,0.6364141998346895,True,20,0,0,0
Y2-S2-194K21,-,36,AS,adaptive,32,↓,up,↑,0.5532926998566836,False,20,-1,0,0
Y2-S2-194K21,-,37,AS,adaptive,42,↑,up,↑,0.7107993001118302,True,21,-1,0,0
Y2-S2-194K21,-,38,AS,adaptive,47,←,left,←,0.861510599963367,True,21,-1,0,0
Y2-S2-194K21,-,39,AS,adaptive,27,↓,down,↓,0.8173520001582801,True,21,1,1,1
Y2-S2-194K21,-,40,AS,adaptive,41,→,left,←,0.5723814000375569,False,20,-1,1,2
Y2-S2-194K21,-,41,AS,adaptive,38,↓,down,↓,0.773962400155142,True,21,-1,0,2
Y2-S2-194K21,-,42,AS,adaptive,40,→,left,←,0.9211958998348564,False,21,-1,0,2
Y2-S2-194K21,-,43,AS,adaptive,42,↑,up,↑,0.9061358000617474,True,22,-1,0,2
Y2-S2-194K21,-,44,AS,adaptive,42,←,left,←,0.4840904998127371,True,22,-1,0,2
Y2-S2-194K21,-,45,AS,adaptive,50,↓,down,↓,0.7711883001029491,True,22,1,1,3
Y2-S2-194K21,-,46,AS,adaptive,44,→,left,←,0.543101100018248,False,21,-1,1,4
Y2-S2-194K21,1,47,AS,intra_train,26,↓,down,↓,0.8750654999166727,True,33,-,-,-
Y2-S2-194K21,1,48,AS,intra_train,46,↑,up,↑,0.8403906000312418,True,33,-,-,-
Y2-S2-194K21,1,49,AS,intra_train,44,→,right,→,0.8269302998669446,True,33,-,-,-
Y2-S2-194K21,1,50,AS,intra_train,36,↑,up,↑,0.8064524999354035,True,33,-,-,-
Y2-S2-194K21,1,51,AS,intra_train,28,←,left,←,0.6839785000775009,True,33,-,-,-
Y2-S2-194K21,1,52,AS,exp,33,↓,down,↓,0.7822816001717001,True,22,0,0,0
Y2-S2-194K21,1,53,AS,exp,44,↑,up,↑,0.796612499980256,True,22,0,0,0
Y2-S2-194K21,1,54,AS,exp,31,←,left,←,0.9168128001037985,True,22,1,0,0
Y2-S2-194K21,1,55,AS,exp,36,→,right,→,0.8115677000023425,True,21,1,0,0
Y2-S2-194K21,1,56,AS,exp,42,←,left,←,0.6940252999775112,True,21,1,0,0
Y2-S2-194K21,1,57,AS,exp,40,↑,up,↑,0.7442979000043124,True,21,1,0,0
Y2-S2-194K21,1,58,AS,exp,48,↓,down,↓,0.7313866999465972,True,20,1,0,0
Y2-S2-194K21,1,59,AS,exp,33,←,left,←,0.8003050999250263,True,20,1,0,0
Y2-S2-194K21,1,60,AS,exp,25,↑,up,↑,0.986566900042817,True,20,1,0,0
Y2-S2-194K21,1,61,AS,exp,25,↓,down,↓,0.7615903001278639,True,19,1,0,0
Y2-S2-194K21,1,62,AS,exp,43,→,right,→,0.7520029000006616,True,19,1,0,0
Y2-S2-194K21,1,63,AS,exp,37,↓,down,↓,0.6334536999929696,True,19,1,0,0
Y2-S2-194K21,1,64,AS,exp,37,←,left,←,0.6214636999648064,True,18,1,0,0
Y2-S2-194K21,1,65,AS,exp,30,↑,up,↑,1.8010917000938207,True,18,1,0,0
Y2-S2-194K21,1,66,AS,exp,46,←,left,←,1.2274392999242991,True,18,1,0,0
Y2-S2-194K21,1,67,AS,exp,25,↑,up,↑,0.6011493999976665,True,17,1,0,0
Y2-S2-194K21,1,68,AS,exp,42,←,left,←,0.613219500053674,True,17,1,0,0
Y2-S2-194K21,1,69,AS,exp,27,→,right,→,0.6642339997924864,True,17,1,0,0
Y2-S2-194K21,1,70,AS,exp,27,↓,down,↓,0.7091891001909971,True,16,1,0,0
Y2-S2-194K21,1,71,AS,exp,47,→,up,↑,0.8233195000793785,False,16,-1,1,1
Y2-S2-194K21,1,72,AS,exp,25,←,left,←,0.5753033999353647,True,17,-1,0,1
Y2-S2-194K21,1,73,AS,exp,33,→,right,→,0.4764378000982106,True,17,-1,0,1
Y2-S2-194K21,1,74,AS,exp,25,←,left,←,0.5977616000454873,True,17,1,1,2
Y2-S2-194K21,1,75,AS,exp,43,→,right,→,0.6426667000632733,True,16,1,0,2
Y2-S2-194K21,1,76,AS,exp,26,←,left,←,0.925790200009942,True,16,1,0,2
Y2-S2-194K21,1,77,AS,exp,45,↑,down,↓,0.76485939999111,False,16,-1,1,3
Y2-S2-194K21,1,78,AS,exp,34,→,right,→,0.9636905000079423,True,17,-1,0,3
Y2-S2-194K21,1,79,AS,exp,44,↓,up,↑,0.8900722002144903,False,17,-1,0,3
Y2-S2-194K21,1,80,AS,exp,26,←,left,←,0.6496361000463367,True,18,-1,0,3
Y2-S2-194K21,1,81,AS,exp,30,↓,down,↓,0.8014318000059575,True,18,-1,0,3
Y2-S2-194K21,1,82,AS,exp,33,←,left,←,0.5626548000145704,True,18,1,1,4
Y2-S2-194K21,1,83,AS,exp,43,↑,up,↑,0.7124425999354571,True,17,1,0,4
Y2-S2-194K21,1,84,AS,exp,46,←,left,←,0.5846154000610113,True,17,1,0,4
Y2-S2-194K21,1,85,AS,exp,42,↑,down,↓,1.0090604000724852,False,17,-1,1,5
Y2-S2-194K21,1,86,AS,exp,31,↓,up,↑,0.991045500151813,False,18,-1,0,5
Y2-S2-194K21,1,87,AS,exp,50,↑,up,↑,0.5644551001023501,True,19,-1,0,5
Y2-S2-194K21,1,88,AS,exp,31,→,right,→,0.6304393000900745,True,19,-1,0,5
Y2-S2-194K21,1,89,AS,exp,36,↑,up,↑,0.690829100087285,True,19,1,1,6
Y2-S2-194K21,1,90,AS,exp,29,←,left,←,0.3005611998960376,True,18,1,0,6
Y2-S2-194K21,1,91,AS,exp,27,→,right,→,0.6221751999109983,True,18,1,0,6
Y2-S2-194K21,1,92,AS,exp,34,←,left,←,0.5566567000932992,True,18,1,0,6
Y2-S2-194K21,1,93,AS,exp,35,→,up,↑,0.7479646001011133,False,17,-1,1,7
Y2-S2-194K21,1,94,AS,exp,43,↑,up,↑,0.5566773999016732,True,18,-1,0,7
Y2-S2-194K21,1,95,AS,exp,30,←,left,←,1.0147007000632584,True,18,-1,0,7
Y2-S2-194K21,1,96,AS,exp,38,↓,up,↑,0.7612440998200327,False,18,-1,0,7
Y2-S2-194K21,1,97,AS,exp,33,→,right,→,0.770642900140956,True,19,-1,0,7
Y2-S2-194K21,1,98,AS,exp,35,←,left,←,0.8650736999697983,True,19,-1,0,7
Y2-S2-194K21,1,99,AS,exp,27,→,right,→,0.7862917000893503,True,19,1,1,8
Y2-S2-194K21,1,100,AS,exp,38,←,left,←,0.4811778999865055,True,18,1,0,8
Y2-S2-194K21,1,101,AS,exp,28,↓,down,↓,0.6273376999888569,True,18,1,0,8
Y2-S2-194K21,1,102,AS,exp,27,←,left,←,0.5440148999914527,True,18,1,0,8
Y2-S2-194K21,1,103,AS,exp,43,↑,up,↑,0.8027850999496877,True,17,1,0,8
Y2-S2-194K21,1,104,AS,exp,39,→,right,→,0.6287352000363171,True,17,1,0,8
Y2-S2-194K21,1,105,AS,exp,30,←,left,←,0.5956121000926942,True,17,1,0,8
Y2-S2-194K21,1,106,AS,exp,28,↑,up,↑,0.6690354000311345,True,16,1,0,8
Y2-S2-194K21,1,107,AS,exp,43,←,left,←,0.46477449988014996,True,16,1,0,8
Y2-S2-194K21,1,108,AS,exp,30,↓,down,↓,0.6933470000512898,True,16,1,0,8
Y2-S2-194K21,1,109,AS,exp,42,↑,up,↑,0.5906595000997186,True,15,1,0,8
Y2-S2-194K21,1,110,AS,exp,26,←,left,←,0.4776304999832064,True,15,1,0,8
Y2-S2-194K21,1,111,AS,exp,34,↓,down,↓,0.577908799983561,True,15,1,0,8
Y2-S2-194K21,1,112,AS,exp,33,↑,down,↓,0.6241854999680072,False,14,-1,1,9
Y2-S2-194K21,1,113,AS,exp,33,→,right,→,0.5249508998822421,True,15,-1,0,9
Y2-S2-194K21,1,114,AS,exp,42,←,left,←,0.5726257001515478,True,15,-1,0,9
Y2-S2-194K21,1,115,AS,exp,30,↓,down,↓,0.6179786999709904,True,15,1,1,10
Y2-S2-194K21,1,116,AS,exp,43,↑,down,↓,0.7052752999588847,False,14,-1,1,11
Y2-S2-194K21,1,117,AS,exp,36,↓,down,↓,0.5657791998237371,True,15,-1,0,11
Y2-S2-194K21,1,118,AS,exp,31,→,right,→,0.6004222000483423,True,15,-1,0,11
Y2-S2-194K21,1,119,AS,exp,50,←,left,←,0.7635544999502599,True,15,1,1,12
Y2-S2-194K21,1,120,AS,exp,31,↑,up,↑,0.7346232999116182,True,14,1,0,12
Y2-S2-194K21,1,121,AS,exp,50,←,right,→,0.8678239998407662,False,14,-1,1,13
Y2-S2-194K21,1,122,AS,exp,49,↓,down,↓,0.630743500078097,True,15,-1,0,13
Y2-S2-194K21,1,123,AS,exp,36,→,right,→,0.5510147998575121,True,15,-1,0,13
Y2-S2-194K21,1,124,AS,exp,28,↓,up,↑,0.6474708002060652,False,15,-1,0,13
Y2-S2-194K21,1,125,AS,exp,26,↑,down,↓,0.6021759000141174,False,16,-1,0,13
Y2-S2-194K21,1,126,AS,exp,32,←,left,←,0.4901520998682827,True,17,-1,0,13
Y2-S2-194K21,1,127,AS,exp,28,↓,left,←,0.41753980005159974,False,17,-1,0,13
Y2-S2-194K21,1,128,AS,exp,42,→,right,→,0.5819417999591678,True,18,-1,0,13
Y2-S2-194K21,1,129,AS,exp,47,↑,up,↑,0.9809544000308961,True,18,-1,0,13
Y2-S2-194K21,1,130,AS,exp,47,←,left,←,0.636905699968338,True,18,1,1,14
Y2-S2-194K21,1,131,AS,exp,50,→,right,→,0.5605259998701513,True,17,1,0,14
Y2-S2-194K21,1,132,AS,exp,40,←,left,←,0.540667099878192,True,17,1,0,14
Y2-S2-194K21,1,133,AS,exp,48,↓,down,↓,0.5909833000041544,True,17,1,0,14
Y2-S2-194K21,1,134,AS,exp,43,←,left,←,0.5433274998795241,True,16,1,0,14
Y2-S2-194K21,1,135,AS,exp,25,↓,down,↓,0.7750945999287069,True,16,1,0,14
Y2-S2-194K21,1,136,AS,exp,31,→,right,→,0.6429972997866571,True,16,1,0,14
Y2-S2-194K21,1,137,AS,exp,32,↑,up,↑,0.9761192000005394,True,15,1,0,14
Y2-S2-194K21,1,138,AS,exp,25,←,right,→,0.49083580006845295,False,15,-1,1,15
Y2-S2-194K21,1,139,AS,exp,35,→,right,→,0.5810923001263291,True,16,-1,0,15
Y2-S2-194K21,1,140,AS,exp,40,↓,down,↓,0.5220715999603271,True,16,-1,0,15
Y2-S2-194K21,1,141,AS,exp,29,↑,up,↑,0.5947720999829471,True,16,1,1,16
Y2-S2-194K21,2,142,PS,intra_train,38,←,up,↑,0.8313544001430273,False,12,-,-,-
Y2-S2-194K21,2,143,PS,intra_train,50,↑,down,↓,0.782728899968788,False,12,-,-,-
Y2-S2-194K21,2,144,PS,intra_train,42,←,left,←,0.6166103000286967,True,12,-,-,-
Y2-S2-194K21,2,145,PS,intra_train,41,↑,up,↑,0.6280394999776036,True,12,-,-,-
Y2-S2-194K21,2,146,PS,intra_train,40,←,left,←,0.6146376000251621,True,12,-,-,-
Y2-S2-194K21,2,147,PS,exp,26,→,right,→,0.44380819983780384,True,8,0,0,0
Y2-S2-194K21,2,148,PS,exp,50,↓,down,↓,0.609570600092411,True,8,0,0,0
Y2-S2-194K21,2,149,PS,exp,38,←,up,↑,0.8699353998526931,False,8,-1,0,0
Y2-S2-194K21,2,150,PS,exp,49,↑,up,↑,0.5747115002013743,True,9,-1,0,0
Y2-S2-194K21,2,151,PS,exp,35,↓,down,↓,0.9888041999656707,True,9,-1,0,0
Y2-S2-194K21,2,152,PS,exp,46,←,left,←,0.5936545999720693,True,9,1,1,1
Y2-S2-194K21,2,153,PS,exp,43,↑,down,↓,0.8239430000539869,False,8,-1,1,2
Y2-S2-194K21,2,154,PS,exp,36,→,right,→,0.6191281999927014,True,9,-1,0,2
Y2-S2-194K21,2,155,PS,exp,43,←,left,←,0.5837544999085367,True,9,-1,0,2
Y2-S2-194K21,2,156,PS,exp,44,↑,up,↑,0.5807819999754429,True,9,1,1,3
Y2-S2-194K21,2,157,PS,exp,48,←,left,←,0.6446507999207824,True,8,1,0,3
Y2-S2-194K21,2,158,PS,exp,36,↓,down,↓,0.6738841000478715,True,8,1,0,3
Y2-S2-194K21,2,159,PS,exp,31,↑,up,↑,0.6774939999449998,True,8,1,0,3
Y2-S2-194K21,2,160,PS,exp,44,↓,left,←,0.4276242000050843,False,7,-1,1,4
Y2-S2-194K21,2,161,PS,exp,39,→,right,→,0.5877167999278754,True,8,-1,0,4
Y2-S2-194K21,2,162,PS,exp,36,↓,down,↓,0.6676518998574466,True,8,-1,0,4
Y2-S2-194K21,2,163,PS,exp,41,↑,up,↑,1.0092583000659943,True,8,1,1,5
Y2-S2-194K21,2,164,PS,exp,32,→,right,→,0.5121859000064433,True,7,1,0,5
Y2-S2-194K21,2,165,PS,exp,41,←,up,↑,0.7005424001254141,False,7,-1,1,6
Y2-S2-194K21,2,166,PS,exp,36,→,right,→,0.8798068999312818,True,8,-1,0,6
Y2-S2-194K21,2,167,PS,exp,42,←,left,←,0.6325944000855088,True,8,-1,0,6
Y2-S2-194K21,2,168,PS,exp,39,↓,right,→,0.5311483000405133,False,8,-1,0,6
Y2-S2-194K21,2,169,PS,exp,27,→,up,↑,0.7174890001770109,False,9,-1,0,6
Y2-S2-194K21,2,170,PS,exp,26,←,left,←,0.5806539999321103,True,10,-1,0,6
Y2-S2-194K21,2,171,PS,exp,37,→,left,←,0.5347309000790119,False,10,-1,0,6
Y2-S2-194K21,2,172,PS,exp,43,↑,right,→,0.4492568999994546,False,11,-1,0,6
Y2-S2-194K21,2,173,PS,exp,46,↓,up,↑,0.6810395000502467,False,12,-1,0,6
Y2-S2-194K21,2,174,PS,exp,42,←,up,↑,0.613048099912703,False,13,-1,0,6
Y2-S2-194K21,2,175,PS,exp,49,→,right,→,0.4712785999290645,True,14,-1,0,6
Y2-S2-194K21,2,176,PS,exp,27,↑,up,↑,0.6200353000313044,True,14,-1,0,6
Y2-S2-194K21,2,177,PS,exp,48,←,left,←,0.6970307000447065,True,14,1,1,7
Y2-S2-194K21,2,178,PS,exp,34,→,up,↑,0.8050081999972463,False,13,-1,1,8
Y2-S2-194K21,2,179,PS,exp,28,←,left,←,0.5235033999197185,True,14,-1,0,8
Y2-S2-194K21,2,180,PS,exp,50,→,right,→,0.7508799999486655,True,14,-1,0,8
Y2-S2-194K21,2,181,PS,exp,25,↓,down,↓,0.5747779000084847,True,14,1,1,9
Y2-S2-194K21,2,182,PS,exp,36,↑,up,↑,0.5963681000284851,True,13,1,0,9
Y2-S2-194K21,2,183,PS,exp,41,↓,up,↑,0.7265860000625253,False,13,-1,1,10
Y2-S2-194K21,2,184,PS,exp,30,→,right,→,0.5741928999777883,True,14,-1,0,10
Y2-S2-194K21,2,185,PS,exp,33,↑,up,↑,0.5663441000506282,True,14,-1,0,10
Y2-S2-194K21,2,186,PS,exp,45,→,down,↓,0.8013536999933422,False,14,-1,0,10
Y2-S2-194K21,2,187,PS,exp,45,↑,up,↑,0.5219115000218153,True,15,-1,0,10
Y2-S2-194K21,2,188,PS,exp,28,←,left,←,0.6821127000730485,True,15,-1,0,10
Y2-S2-194K21,2,189,PS,exp,41,↓,down,↓,0.6579521999228746,True,15,1,1,11
Y2-S2-194K21,2,190,PS,exp,36,→,right,→,1.010030600009486,True,14,1,0,11
Y2-S2-194K21,2,191,PS,exp,49,←,up,↑,0.6664430999662727,False,14,-1,1,12
Y2-S2-194K21,2,192,PS,exp,48,↓,down,↓,1.877414399990812,True,15,-1,0,12
Y2-S2-194K21,2,193,PS,exp,46,↑,up,↑,0.47432339983060956,True,15,-1,0,12
Y2-S2-194K21,2,194,PS,exp,45,→,right,→,0.5908052998129278,True,15,1,1,13
Y2-S2-194K21,2,195,PS,exp,47,↑,up,↑,0.6486015999689698,True,14,1,0,13
Y2-S2-194K21,2,196,PS,exp,50,→,right,→,0.43477769987657666,True,14,1,0,13
Y2-S2-194K21,2,197,PS,exp,50,←,left,←,0.46689820010215044,True,14,1,0,13
Y2-S2-194K21,2,198,PS,exp,35,→,right,→,0.46678259992040694,True,13,1,0,13
Y2-S2-194K21,2,199,PS,exp,49,←,left,←,0.5022559000644833,True,13,1,0,13
Y2-S2-194K21,2,200,PS,exp,30,↑,up,↑,0.5096865000668913,True,13,1,0,13
Y2-S2-194K21,2,201,PS,exp,47,↓,down,↓,0.4822458000853658,True,12,1,0,13
Y2-S2-194K21,2,202,PS,exp,41,↑,up,↑,0.6519100000150502,True,12,1,0,13
Y2-S2-194K21,2,203,PS,exp,31,→,right,→,0.4293323999736458,True,12,1,0,13
Y2-S2-194K21,2,204,PS,exp,48,↑,down,↓,0.6823679998051375,False,11,-1,1,14
Y2-S2-194K21,2,205,PS,exp,25,←,left,←,0.4499075999483466,True,12,-1,0,14
Y2-S2-194K21,2,206,PS,exp,38,↑,up,↑,0.5163966999389231,True,12,-1,0,14
Y2-S2-194K21,2,207,PS,exp,48,↓,down,↓,0.9940770999528468,True,12,1,1,15
Y2-S2-194K21,2,208,PS,exp,26,↑,up,↑,0.6948817998636514,True,11,1,0,15
Y2-S2-194K21,2,209,PS,exp,47,↓,down,↓,0.5300889001227915,True,11,1,0,15
Y2-S2-194K21,2,210,PS,exp,27,←,right,→,0.868486599996686,False,11,-1,1,16
Y2-S2-194K21,3,211,PS,intra_train,46,↓,up,↑,0.4958697999827564,False,12,-,-,-
Y2-S2-194K21,3,212,PS,intra_train,34,→,down,↓,0.7652963998261839,False,12,-,-,-
Y2-S2-194K21,3,213,PS,intra_train,39,↓,down,↓,0.5595915999729186,True,12,-,-,-
Y2-S2-194K21,3,214,PS,intra_train,38,↑,up,↑,0.5735769001767039,True,12,-,-,-
Y2-S2-194K21,3,215,PS,intra_train,35,↓,down,↓,0.609665600117296,True,12,-,-,-
Y2-S2-194K21,3,216,PS,exp,43,↑,up,↑,0.604368600063026,True,8,0,0,0
Y2-S2-194K21,3,217,PS,exp,27,↓,up,↑,0.7782659998629242,False,8,-1,0,0
Y2-S2-194K21,3,218,PS,exp,30,↑,up,↑,0.4888671000953764,True,9,-1,0,0
Y2-S2-194K21,3,219,PS,exp,41,←,left,←,0.5657958998344839,True,9,-1,0,0
Y2-S2-194K21,3,220,PS,exp,40,↑,up,↑,0.5408192998729646,True,9,1,1,1
Y2-S2-194K21,3,221,PS,exp,28,←,down,↓,0.6469298999290913,False,8,-1,1,2
Y2-S2-194K21,3,222,PS,exp,34,→,right,→,0.5851088999770582,True,9,-1,0,2
Y2-S2-194K21,3,223,PS,exp,41,↓,up,↑,0.5296120999846607,False,9,-1,0,2
Y2-S2-194K21,3,224,PS,exp,40,↑,up,↑,0.4843992998357862,True,10,-1,0,2
Y2-S2-194K21,3,225,PS,exp,28,→,up,↑,0.7370116000529379,False,10,-1,0,2
Y2-S2-194K21,3,226,PS,exp,30,↑,up,↑,0.4486549000721425,True,11,-1,0,2
Y2-S2-194K21,3,227,PS,exp,49,↓,down,↓,0.5194887998513877,True,11,-1,0,2
Y2-S2-194K21,3,228,PS,exp,38,↑,up,↑,0.5636464999988675,True,11,1,1,3
Y2-S2-194K21,3,229,PS,exp,48,→,right,→,0.6027289000339806,True,10,1,0,3
Y2-S2-194K21,3,230,PS,exp,27,←,right,→,0.9532264000736177,False,10,-1,1,4
Y2-S2-194K21,3,231,PS,exp,42,↑,up,↑,0.6547070001251996,True,11,-1,0,4
Y2-S2-194K21,3,232,PS,exp,26,←,left,←,1.1994143999181688,True,11,-1,0,4
Y2-S2-194K21,3,233,PS,exp,40,↑,up,↑,0.6338711001444608,True,11,1,1,5
Y2-S2-194K21,3,234,PS,exp,38,←,left,←,0.8194379000924528,True,10,1,0,5
Y2-S2-194K21,3,235,PS,exp,47,→,right,→,0.6005849000066519,True,10,1,0,5
Y2-S2-194K21,3,236,PS,exp,32,↓,down,↓,0.9576983000151813,True,10,1,0,5
Y2-S2-194K21,3,237,PS,exp,47,→,up,↑,0.7133681001141667,False,9,-1,1,6
Y2-S2-194K21,3,238,PS,exp,25,↓,down,↓,0.5577938999049366,True,10,-1,0,6
Y2-S2-194K21,3,239,PS,exp,47,←,left,←,0.5614928998984396,True,10,-1,0,6
Y2-S2-194K21,3,240,PS,exp,38,↑,up,↑,0.5896137000527233,True,10,1,1,7
Y2-S2-194K21,3,241,PS,exp,41,↓,down,↓,0.7825141998473555,True,9,1,0,7
Y2-S2-194K21,3,242,PS,exp,34,→,right,→,0.42138050007633865,True,9,1,0,7
Y2-S2-194K21,3,243,PS,exp,28,↑,up,↑,0.4638886998873204,True,9,1,0,7
Y2-S2-194K21,3,244,PS,exp,31,←,left,←,0.48078280012123287,True,8,1,0,7
Y2-S2-194K21,3,245,PS,exp,29,→,right,→,0.5077420000452548,True,8,1,0,7
Y2-S2-194K21,3,246,PS,exp,30,←,up,↑,0.5830907998606563,False,8,-1,1,8
Y2-S2-194K21,3,247,PS,exp,41,→,right,→,0.5228462999220937,True,9,-1,0,8
Y2-S2-194K21,3,248,PS,exp,39,←,left,←,0.4359093999955803,True,9,-1,0,8
Y2-S2-194K21,3,249,PS,exp,34,↓,up,↑,0.6422726002056152,False,9,-1,0,8
Y2-S2-194K21,3,250,PS,exp,29,→,up,↑,0.6259107999503613,False,10,-1,0,8
Y2-S2-194K21,3,251,PS,exp,45,←,left,←,0.486066099954769,True,11,-1,0,8
Y2-S2-194K21,3,252,PS,exp,47,→,right,→,0.6460579000413418,True,11,-1,0,8
Y2-S2-194K21,3,253,PS,exp,48,↑,up,↑,0.5055088999215513,True,11,1,1,9
Y2-S2-194K21,3,254,PS,exp,29,←,left,←,0.483965199906379,True,10,1,0,9
Y2-S2-194K21,3,255,PS,exp,29,↑,up,↑,0.4692883000243455,True,10,1,0,9
Y2-S2-194K21,3,256,PS,exp,38,↓,down,↓,0.6464996999129653,True,10,1,0,9
Y2-S2-194K21,3,257,PS,exp,43,→,right,→,0.5587638998404145,True,9,1,0,9
Y2-S2-194K21,3,258,PS,exp,25,↓,up,↑,0.9781643999740481,False,9,-1,1,10
Y2-S2-194K21,3,259,PS,exp,47,←,left,←,0.5498315000440925,True,10,-1,0,10
Y2-S2-194K21,3,260,PS,exp,42,↑,left,←,0.48835320002399385,False,10,-1,0,10
Y2-S2-194K21,3,261,PS,exp,43,→,right,→,0.5018718000501394,True,11,-1,0,10
Y2-S2-194K21,3,262,PS,exp,30,↑,up,↑,0.5673060999251902,True,11,-1,0,10
Y2-S2-194K21,3,263,PS,exp,40,↓,down,↓,0.649894000031054,True,11,1,1,11
Y2-S2-194K21,3,264,PS,exp,32,→,right,→,0.5801320001482964,True,10,1,0,11
Y2-S2-194K21,3,265,PS,exp,30,↓,down,↓,0.5339318998157978,True,10,1,0,11
Y2-S2-194K21,3,266,PS,exp,25,→,right,→,0.3647189000621438,True,10,1,0,11
Y2-S2-194K21,3,267,PS,exp,42,↓,up,↑,0.6886987001635134,False,9,-1,1,12
Y2-S2-194K21,3,268,PS,exp,32,↑,right,→,0.4009553000796586,False,10,-1,0,12
Y2-S2-194K21,3,269,PS,exp,42,→,right,→,0.4771491000428796,True,11,-1,0,12
Y2-S2-194K21,3,270,PS,exp,42,↓,down,↓,0.6677590999752283,True,11,-1,0,12
Y2-S2-194K21,3,271,PS,exp,36,↑,right,→,0.5716304001398385,False,11,-1,0,12
Y2-S2-194K21,3,272,PS,exp,29,→,right,→,0.4116140000987798,True,12,-1,0,12
Y2-S2-194K21,3,273,PS,exp,30,↓,down,↓,0.5898196001071483,True,12,-1,0,12
Y2-S2-194K21,3,274,PS,exp,49,↑,up,↑,0.580852200044319,True,12,1,1,13
Y2-S2-194K21,3,275,PS,exp,30,↓,down,↓,0.641568300081417,True,11,1,0,13
Y2-S2-194K21,3,276,PS,exp,32,↑,up,↑,0.54137589992024,True,11,1,0,13
Y2-S2-194K21,3,277,PS,exp,30,←,no_key,no_letter,-1.0,False,11,-1,1,14
Y2-S2-194K21,3,278,PS,exp,30,↓,down,↓,0.44888439984060824,True,12,-1,0,14
Y2-S2-194K21,3,279,PS,exp,47,→,right,→,0.5713224001228809,True,12,-1,0,14
Y2-S2-194K21,3,280,PS,exp,26,↓,down,↓,0.5949111999943852,True,12,1,1,15
Y2-S2-194K21,3,281,PS,exp,39,←,left,←,0.5431029999163002,True,11,1,0,15
Y2-S2-194K21,3,282,PS,exp,44,→,left,←,0.661708900006488,False,11,-1,1,16
Y2-S2-194K21,4,283,AS,intra_train,37,↑,up,↑,1.56257289997302,True,33,-,-,-
Y2-S2-194K21,4,284,AS,intra_train,31,↓,down,↓,0.6338127998169512,True,33,-,-,-
Y2-S2-194K21,4,285,AS,intra_train,43,↑,up,↑,0.5339680002070963,True,33,-,-,-
Y2-S2-194K21,4,286,AS,intra_train,48,→,right,→,0.6669929001946002,True,33,-,-,-
Y2-S2-194K21,4,287,AS,intra_train,46,↑,up,↑,0.6172931999899447,True,33,-,-,-
Y2-S2-194K21,4,288,AS,exp,45,↓,down,↓,0.7526032999157906,True,22,0,0,0
Y2-S2-194K21,4,289,AS,exp,42,←,left,←,1.0645829001441598,True,22,0,0,0
Y2-S2-194K21,4,290,AS,exp,30,→,right,→,0.6959885000251234,True,22,1,0,0
Y2-S2-194K21,4,291,AS,exp,29,↓,down,↓,0.6727807000279427,True,21,1,0,0
Y2-S2-194K21,4,292,AS,exp,37,→,left,←,0.4173596000764519,False,21,-1,1,1
Y2-S2-194K21,4,293,AS,exp,41,↑,up,↑,1.172292900038883,True,22,-1,0,1
Y2-S2-194K21,4,294,AS,exp,50,←,left,←,0.7248086999170482,True,22,-1,0,1
Y2-S2-194K21,4,295,AS,exp,37,→,right,→,1.1426530999597162,True,22,1,1,2
Y2-S2-194K21,4,296,AS,exp,43,↑,up,↑,0.5214398000389338,True,21,1,0,2
Y2-S2-194K21,4,297,AS,exp,40,↓,down,↓,0.7393573999870569,True,21,1,0,2
Y2-S2-194K21,4,298,AS,exp,50,←,no_key,no_letter,-1.0,False,21,-1,1,3
Y2-S2-194K21,4,299,AS,exp,28,↓,up,↑,1.0828345001209527,False,22,-1,0,3
Y2-S2-194K21,4,300,AS,exp,43,↑,up,↑,0.7196696999017149,True,23,-1,0,3
Y2-S2-194K21,4,301,AS,exp,48,←,left,←,0.578834799816832,True,23,-1,0,3
Y2-S2-194K21,4,302,AS,exp,41,↑,up,↑,0.7244096999056637,True,23,1,1,4
Y2-S2-194K21,4,303,AS,exp,32,→,right,→,0.6159040001221001,True,22,1,0,4
Y2-S2-194K21,4,304,AS,exp,43,←,up,↑,0.9550962999928743,False,22,-1,1,5
Y2-S2-194K21,4,305,AS,exp,34,↓,down,↓,0.48371689999476075,True,23,-1,0,5
Y2-S2-194K21,4,306,AS,exp,35,←,left,←,1.2900846998672932,True,23,-1,0,5
Y2-S2-194K21,4,307,AS,exp,27,→,right,→,0.7647921000607312,True,23,1,1,6
Y2-S2-194K21,4,308,AS,exp,49,↓,down,↓,0.79587860009633,True,22,1,0,6
Y2-S2-194K21,4,309,AS,exp,36,→,right,→,0.6585258999839425,True,22,1,0,6
Y2-S2-194K21,4,310,AS,exp,25,↑,down,↓,0.708175899926573,False,22,-1,1,7
Y2-S2-194K21,4,311,AS,exp,42,↓,down,↓,0.7712890999391675,True,23,-1,0,7
Y2-S2-194K21,4,312,AS,exp,44,→,right,→,1.1816765000112355,True,23,-1,0,7
Y2-S2-194K21,4,313,AS,exp,25,↑,up,↑,0.5897715999744833,True,23,1,1,8
Y2-S2-194K21,4,314,AS,exp,45,↓,down,↓,0.4840907999314368,True,22,1,0,8
Y2-S2-194K21,4,315,AS,exp,40,←,up,↑,0.9577506000641733,False,22,-1,1,9
Y2-S2-194K21,4,316,AS,exp,27,→,right,→,0.9679113000165671,True,23,-1,0,9
Y2-S2-194K21,4,317,AS,exp,36,↑,up,↑,0.667221600189805,True,23,-1,0,9
Y2-S2-194K21,4,318,AS,exp,34,←,left,←,0.6463566001038998,True,23,1,1,10
Y2-S2-194K21,4,319,AS,exp,43,→,right,→,0.5813031001016498,True,22,1,0,10
Y2-S2-194K21,4,320,AS,exp,40,↑,up,↑,1.4360967001412064,True,22,1,0,10
Y2-S2-194K21,4,321,AS,exp,47,→,right,→,0.6670488000381738,True,22,1,0,10
Y2-S2-194K21,4,322,AS,exp,35,↑,up,↑,0.6868320999201387,True,21,1,0,10
Y2-S2-194K21,4,323,AS,exp,26,↓,down,↓,0.7564755999483168,True,21,1,0,10
Y2-S2-194K21,4,324,AS,exp,45,→,left,←,0.5296998999547213,False,21,-1,1,11
Y2-S2-194K21,4,325,AS,exp,39,←,left,←,0.7675960999913514,True,22,-1,0,11
Y2-S2-194K21,4,326,AS,exp,36,↑,up,↑,0.6022127000615001,True,22,-1,0,11
Y2-S2-194K21,4,327,AS,exp,47,→,right,→,0.7371966999489814,True,22,1,1,12
Y2-S2-194K21,4,328,AS,exp,40,↑,up,↑,0.6270003998652101,True,21,1,0,12
Y2-S2-194K21,4,329,AS,exp,28,←,left,←,1.3189821999985725,True,21,1,0,12
Y2-S2-194K21,4,330,AS,exp,42,↓,down,↓,0.4670732000377029,True,21,1,0,12
Y2-S2-194K21,4,331,AS,exp,44,↑,up,↑,0.770397299900651,True,20,1,0,12
Y2-S2-194K21,4,332,AS,exp,36,→,right,→,0.6439841999672353,True,20,1,0,12
Y2-S2-194K21,4,333,AS,exp,44,↑,down,↓,0.6071679999586195,False,20,-1,1,13
Y2-S2-194K21,4,334,AS,exp,48,→,right,→,0.5460121999494731,True,21,-1,0,13
Y2-S2-194K21,4,335,AS,exp,43,←,left,←,0.779381199972704,True,21,-1,0,13
Y2-S2-194K21,4,336,AS,exp,29,↓,down,↓,0.8123629000037909,True,21,1,1,14
Y2-S2-194K21,4,337,AS,exp,31,→,right,→,0.7534287001471967,True,20,1,0,14
Y2-S2-194K21,4,338,AS,exp,43,↓,down,↓,1.0591992000117898,True,20,1,0,14
Y2-S2-194K21,4,339,AS,exp,28,→,right,→,0.7443456999026239,True,20,1,0,14
Y2-S2-194K21,4,340,AS,exp,50,←,up,↑,0.8237375000026077,False,19,-1,1,15
Y2-S2-194K21,4,341,AS,exp,28,↑,up,↑,0.7085287000518292,True,20,-1,0,15
Y2-S2-194K21,4,342,AS,exp,46,↓,down,↓,0.7437584998551756,True,20,-1,0,15
Y2-S2-194K21,4,343,AS,exp,34,↑,up,↑,0.6042490000836551,True,20,1,1,16
Y2-S2-194K21,5,344,AS,intra_train,37,←,left,←,0.8523630001582205,True,33,-,-,-
Y2-S2-194K21,5,345,AS,intra_train,27,↑,up,↑,0.7276516000274569,True,33,-,-,-
Y2-S2-194K21,5,346,AS,intra_train,35,←,left,←,0.6503937998786569,True,33,-,-,-
Y2-S2-194K21,5,347,AS,intra_train,25,↑,up,↑,0.6673018999863416,True,33,-,-,-
Y2-S2-194K21,5,348,AS,intra_train,28,←,left,←,0.7720906999893486,True,33,-,-,-
Y2-S2-194K21,5,349,AS,exp,49,↑,up,↑,0.6423275000415742,True,22,0,0,0
Y2-S2-194K21,5,350,AS,exp,47,→,right,→,0.6349270998034626,True,22,0,0,0
Y2-S2-194K21,5,351,AS,exp,28,←,left,←,0.6157993001397699,True,22,1,0,0
Y2-S2-194K21,5,352,AS,exp,28,↓,down,↓,0.90560910012573,True,21,1,0,0
Y2-S2-194K21,5,353,AS,exp,35,←,up,↑,1.106048900168389,False,21,-1,1,1
Y2-S2-194K21,5,354,AS,exp,34,↑,up,↑,0.6500536000821739,True,22,-1,0,1
Y2-S2-194K21,5,355,AS,exp,48,↓,down,↓,1.164834599941969,True,22,-1,0,1
Y2-S2-194K21,5,356,AS,exp,39,↑,up,↑,0.6011443000752479,True,22,1,1,2
Y2-S2-194K21,5,357,AS,exp,42,←,left,←,0.6229447999503464,True,21,1,0,2
Y2-S2-194K21,5,358,AS,exp,43,↑,up,↑,0.5247406999114901,True,21,1,0,2
Y2-S2-194K21,5,359,AS,exp,40,↓,down,↓,0.6643869001418352,True,21,1,0,2
Y2-S2-194K21,5,360,AS,exp,27,→,right,→,0.8129863000940531,True,20,1,0,2
Y2-S2-194K21,5,361,AS,exp,47,↓,up,↑,0.6584308999590576,False,20,-1,1,3
Y2-S2-194K21,5,362,AS,exp,38,↑,up,↑,0.6297673000954092,True,21,-1,0,3
Y2-S2-194K21,5,363,AS,exp,36,→,right,→,0.727237599901855,True,21,-1,0,3
Y2-S2-194K21,5,364,AS,exp,38,←,up,↑,0.8435875000432134,False,21,-1,0,3
Y2-S2-194K21,5,365,AS,exp,34,↓,down,↓,0.7512640999630094,True,22,-1,0,3
Y2-S2-194K21,5,366,AS,exp,47,←,left,←,0.6728124001529068,True,22,-1,0,3
Y2-S2-194K21,5,367,AS,exp,29,↑,up,↑,0.6268744000699371,True,22,1,1,4
Y2-S2-194K21,5,368,AS,exp,46,←,right,→,0.7163589000701904,False,21,-1,1,5
Y2-S2-194K21,5,369,AS,exp,38,↑,right,→,0.9683644000906497,False,22,-1,0,5
Y2-S2-194K21,5,370,AS,exp,33,↓,down,↓,0.5174682000651956,True,23,-1,0,5
Y2-S2-194K21,5,371,AS,exp,42,→,right,→,0.6018358999863267,True,23,-1,0,5
Y2-S2-194K21,5,372,AS,exp,48,↑,up,↑,0.6799043999053538,True,23,1,1,6
Y2-S2-194K21,5,373,AS,exp,45,←,left,←,0.7148301999550313,True,22,1,0,6
Y2-S2-194K21,5,374,AS,exp,47,↑,up,↑,1.484580700052902,True,22,1,0,6
Y2-S2-194K21,5,375,AS,exp,46,↓,down,↓,0.6359192000236362,True,22,1,0,6
Y2-S2-194K21,5,376,AS,exp,27,↑,up,↑,0.5711994001176208,True,21,1,0,6
Y2-S2-194K21,5,377,AS,exp,35,→,right,→,0.5309023000299931,True,21,1,0,6
Y2-S2-194K21,5,378,AS,exp,31,←,left,←,1.1668534998316318,True,21,1,0,6
Y2-S2-194K21,5,379,AS,exp,44,↓,down,↓,0.750091299880296,True,20,1,0,6
Y2-S2-194K21,5,380,AS,exp,42,↑,up,↑,0.6983594999182969,True,20,1,0,6
Y2-S2-194K21,5,381,AS,exp,39,←,left,←,0.7388826999813318,True,20,1,0,6
Y2-S2-194K21,5,382,AS,exp,25,→,right,→,0.7606165001634508,True,19,1,0,6
Y2-S2-194K21,5,383,AS,exp,38,↑,up,↑,0.8469459000043571,True,19,1,0,6
Y2-S2-194K21,5,384,AS,exp,45,→,right,→,0.6301275000441819,True,19,1,0,6
Y2-S2-194K21,5,385,AS,exp,25,←,left,←,0.5978083000518382,True,18,1,0,6
Y2-S2-194K21,5,386,AS,exp,44,↓,down,↓,0.6167050001677126,True,18,1,0,6
Y2-S2-194K21,5,387,AS,exp,34,←,left,←,0.5395339000970125,True,18,1,0,6
Y2-S2-194K21,5,388,AS,exp,28,↓,down,↓,0.5338984001427889,True,17,1,0,6
Y2-S2-194K21,5,389,AS,exp,28,←,up,↑,0.7848680999595672,False,17,-1,1,7
Y2-S2-194K21,5,390,AS,exp,26,↓,down,↓,0.5016238999087363,True,18,-1,0,7
Y2-S2-194K21,5,391,AS,exp,27,←,right,→,0.666771899908781,False,18,-1,0,7
Y2-S2-194K21,5,392,AS,exp,49,↑,up,↑,0.5633632000535727,True,19,-1,0,7
Y2-S2-194K21,5,393,AS,exp,41,↓,down,↓,0.6651544000487775,True,19,-1,0,7
Y2-S2-194K21,5,394,AS,exp,36,→,right,→,0.5723676001653075,True,19,1,1,8
Y2-S2-194K21,5,395,AS,exp,41,←,left,←,0.5269319999497384,True,18,1,0,8
Y2-S2-194K21,5,396,AS,exp,42,→,right,→,0.6921873001847416,True,18,1,0,8
Y2-S2-194K21,5,397,AS,exp,41,←,left,←,1.0788628000300378,True,18,1,0,8
Y2-S2-194K21,5,398,AS,exp,39,↑,up,↑,1.0144138999748975,True,17,1,0,8
Y2-S2-194K21,5,399,AS,exp,46,→,up,↑,0.7381712000351399,False,17,-1,1,9
Y2-S2-194K21,5,400,AS,exp,50,↓,down,↓,0.7484055000822991,True,18,-1,0,9
Y2-S2-194K21,5,401,AS,exp,46,←,left,←,0.6925388998351991,True,18,-1,0,9
Y2-S2-194K21,5,402,AS,exp,34,↓,down,↓,0.5149117999244481,True,18,1,1,10
Y2-S2-194K21,5,403,AS,exp,32,←,up,↑,0.6799968001432717,False,17,-1,1,11
Y2-S2-194K21,5,404,AS,exp,38,→,right,→,0.8303082999773324,True,18,-1,0,11
Y2-S2-194K21,5,405,AS,exp,30,↓,left,←,0.7817335999570787,False,18,-1,0,11
Y2-S2-194K21,5,406,AS,exp,45,↑,up,↑,0.8266888000071049,True,19,-1,0,11
Y2-S2-194K21,5,407,AS,exp,31,→,right,→,0.6714173001237214,True,19,-1,0,11
Y2-S2-194K21,5,408,AS,exp,32,↑,up,↑,0.8207371002063155,True,19,1,1,12
Y2-S2-194K21,5,409,AS,exp,34,↓,up,↑,0.7605067999102175,False,18,-1,1,13
Y2-S2-194K21,5,410,AS,exp,34,←,left,←,0.7263090999331325,True,19,-1,0,13
Y2-S2-194K21,5,411,AS,exp,26,→,up,↑,0.7630974999628961,False,19,-1,0,13
Y2-S2-194K21,5,412,AS,exp,29,↑,up,↑,0.9129156998824328,True,20,-1,0,13
Y2-S2-194K21,5,413,AS,exp,32,→,right,→,0.5099571000318974,True,20,-1,0,13
Y2-S2-194K21,5,414,AS,exp,36,↑,up,↑,0.546755300136283,True,20,1,1,14
Y2-S2-194K21,5,415,AS,exp,38,↓,down,↓,0.8798148999921978,True,19,1,0,14
Y2-S2-194K21,5,416,AS,exp,46,←,left,←,0.8012589998543262,True,19,1,0,14
Y2-S2-194K21,5,417,AS,exp,48,→,right,→,0.5407350999303162,True,19,1,0,14
Y2-S2-194K21,5,418,AS,exp,37,←,up,↑,0.9323105998337269,False,18,-1,1,15
Y2-S2-194K21,5,419,AS,exp,36,↑,up,↑,0.5182755999267101,True,19,-1,0,15
Y2-S2-194K21,5,420,AS,exp,38,→,up,↑,0.6721634001005441,False,19,-1,0,15
Y2-S2-194K21,5,421,AS,exp,36,↓,down,↓,0.6550912000238895,True,20,-1,0,15
Y2-S2-194K21,5,422,AS,exp,43,←,left,←,0.5611584999132901,True,20,-1,0,15
Y2-S2-194K21,5,423,AS,exp,46,↑,up,↑,0.7526103998534381,True,20,1,1,16
Y2-S2-194K21,6,424,PS,intra_train,26,→,up,↑,0.8585194000042975,False,12,-,-,-
Y2-S2-194K21,6,425,PS,intra_train,50,↑,up,↑,0.5418149000033736,True,12,-,-,-
Y2-S2-194K21,6,426,PS,intra_train,39,→,right,→,0.5526976999826729,True,12,-,-,-
Y2-S2-194K21,6,427,PS,intra_train,33,↓,down,↓,0.6217809000518173,True,12,-,-,-
Y2-S2-194K21,6,428,PS,intra_train,38,↑,up,↑,0.5325847999192774,True,12,-,-,-
Y2-S2-194K21,6,429,PS,exp,40,←,right,→,0.6728157000616193,False,8,-1,0,0
Y2-S2-194K21,6,430,PS,exp,27,↓,right,→,0.8984344999771565,False,9,-1,0,0
Y2-S2-194K21,6,431,PS,exp,50,→,up,↑,0.6779356000479311,False,10,-1,0,0
Y2-S2-194K21,6,432,PS,exp,27,←,left,←,0.6194891000632197,True,11,-1,0,0
Y2-S2-194K21,6,433,PS,exp,40,↓,up,↑,0.6386758999433368,False,11,-1,0,0
Y2-S2-194K21,6,434,PS,exp,43,←,left,←,0.579451700206846,True,12,-1,0,0
Y2-S2-194K21,6,435,PS,exp,26,↓,down,↓,0.8100502998568118,True,12,-1,0,0
Y2-S2-194K21,6,436,PS,exp,29,→,up,↑,0.8214052999392152,False,12,-1,0,0
Y2-S2-194K21,6,437,PS,exp,29,←,left,←,0.5387709001079202,True,13,-1,0,0
Y2-S2-194K21,6,438,PS,exp,32,↓,down,↓,0.5635561000090092,True,13,-1,0,0
Y2-S2-194K21,6,439,PS,exp,35,→,right,→,0.6629441999830306,True,13,1,1,1
Y2-S2-194K21,6,440,PS,exp,45,↓,down,↓,0.7829719998408109,True,12,1,0,1
Y2-S2-194K21,6,441,PS,exp,29,→,right,→,0.588058799970895,True,12,1,0,1
Y2-S2-194K21,6,442,PS,exp,30,↓,down,↓,0.695153399836272,True,12,1,0,1
Y2-S2-194K21,6,443,PS,exp,38,→,right,→,0.46101369988173246,True,11,1,0,1
Y2-S2-194K21,6,444,PS,exp,33,↑,up,↑,0.6294112000614405,True,11,1,0,1
Y2-S2-194K21,6,445,PS,exp,33,←,left,←,0.7149848998524249,True,11,1,0,1
Y2-S2-194K21,6,446,PS,exp,43,→,right,→,0.5454738000407815,True,10,1,0,1
Y2-S2-194K21,6,447,PS,exp,27,↓,up,↑,0.8834298998117447,False,10,-1,1,2
Y2-S2-194K21,6,448,PS,exp,49,→,up,↑,1.149387100012973,False,11,-1,0,2
Y2-S2-194K21,6,449,PS,exp,33,←,left,←,0.590162499807775,True,12,-1,0,2
Y2-S2-194K21,6,450,PS,exp,47,↓,down,↓,0.609276499832049,True,12,-1,0,2
Y2-S2-194K21,6,451,PS,exp,26,→,left,←,0.7284477001521736,False,12,-1,0,2
Y2-S2-194K21,6,452,PS,exp,35,↓,down,↓,0.7693616000469774,True,13,-1,0,2
Y2-S2-194K21,6,453,PS,exp,45,→,right,→,0.6194925999734551,True,13,-1,0,2
Y2-S2-194K21,6,454,PS,exp,30,↑,up,↑,1.003079199930653,True,13,1,1,3
Y2-S2-194K21,6,455,PS,exp,43,←,up,↑,0.8730532000772655,False,12,-1,1,4
Y2-S2-194K21,6,456,PS,exp,43,↓,left,←,0.617779300082475,False,13,-1,0,4
Y2-S2-194K21,6,457,PS,exp,35,←,left,←,0.4611943999771029,True,14,-1,0,4
Y2-S2-194K21,6,458,PS,exp,38,↓,right,→,0.4248879000078887,False,14,-1,0,4
Y2-S2-194K21,6,459,PS,exp,45,→,right,→,0.5316506000235677,True,15,-1,0,4
Y2-S2-194K21,6,460,PS,exp,28,↓,up,↑,0.7158831001725048,False,15,-1,0,4
Y2-S2-194K21,6,461,PS,exp,25,→,right,→,0.47071009990759194,True,16,-1,0,4
Y2-S2-194K21,6,462,PS,exp,50,↓,down,↓,0.6202938999049366,True,16,-1,0,4
Y2-S2-194K21,6,463,PS,exp,39,↑,up,↑,0.496682700002566,True,16,1,1,5
Y2-S2-194K21,6,464,PS,exp,41,↓,down,↓,0.48438569996505976,True,15,1,0,5
Y2-S2-194K21,6,465,PS,exp,32,←,up,↑,0.8873261001426727,False,15,-1,1,6
Y2-S2-194K21,6,466,PS,exp,34,↓,left,←,0.6373301001731306,False,16,-1,0,6
Y2-S2-194K21,6,467,PS,exp,50,→,right,→,0.5495895999483764,True,17,-1,0,6
Y2-S2-194K21,6,468,PS,exp,28,↑,up,↑,0.5552315001841635,True,17,-1,0,6
Y2-S2-194K21,6,469,PS,exp,30,↓,down,↓,0.4935163001064211,True,17,1,1,7
Y2-S2-194K21,6,470,PS,exp,47,↑,up,↑,0.6728538000024855,True,16,1,0,7
Y2-S2-194K21,6,471,PS,exp,44,↓,down,↓,0.6623477998655289,True,16,1,0,7
Y2-S2-194K21,6,472,PS,exp,36,→,right,→,1.2355011000763625,True,16,1,0,7
Y2-S2-194K21,6,473,PS,exp,39,↓,down,↓,0.4976158000063151,True,15,1,0,7
Y2-S2-194K21,6,474,PS,exp,31,↑,up,↑,0.53995730006136,True,15,1,0,7
Y2-S2-194K21,6,475,PS,exp,27,←,left,←,0.5353558999486268,True,15,1,0,7
Y2-S2-194K21,6,476,PS,exp,34,↑,up,↑,0.6786270998418331,True,14,1,0,7
Y2-S2-194K21,6,477,PS,exp,31,→,right,→,0.5306250001303852,True,14,1,0,7
Y2-S2-194K21,6,478,PS,exp,33,←,left,←,1.0518623997922987,True,14,1,0,7
Y2-S2-194K21,6,479,PS,exp,25,↓,down,↓,0.49780930019915104,True,13,1,0,7
Y2-S2-194K21,6,480,PS,exp,43,←,left,←,0.46748939994722605,True,13,1,0,7
Y2-S2-194K21,6,481,PS,exp,49,↓,down,↓,0.7599493998568505,True,13,1,0,7
Y2-S2-194K21,6,482,PS,exp,28,←,left,←,0.7546129999682307,True,12,1,0,7
Y2-S2-194K21,6,483,PS,exp,39,→,right,→,0.6568219000473619,True,12,1,0,7
Y2-S2-194K21,6,484,PS,exp,38,←,left,←,0.41994459996931255,True,12,1,0,7
Y2-S2-194K21,6,485,PS,exp,30,↑,up,↑,0.6105991001240909,True,11,1,0,7
Y2-S2-194K21,6,486,PS,exp,49,→,right,→,0.6454775000456721,True,11,1,0,7
Y2-S2-194K21,6,487,PS,exp,37,←,left,←,0.44347760011442006,True,11,1,0,7
Y2-S2-194K21,6,488,PS,exp,33,↓,down,↓,0.6620720000937581,True,10,1,0,7
Y2-S2-194K21,6,489,PS,exp,47,→,right,→,0.6900512999854982,True,10,1,0,7
Y2-S2-194K21,6,490,PS,exp,27,↓,up,↑,0.8664394000079483,False,10,-1,1,8
Y2-S2-194K21,6,491,PS,exp,50,→,right,→,0.5141855999827385,True,11,-1,0,8
Y2-S2-194K21,6,492,PS,exp,39,↓,up,↑,0.8451119000092149,False,11,-1,0,8
Y2-S2-194K21,6,493,PS,exp,41,→,right,→,0.6272766999900341,True,12,-1,0,8
Y2-S2-194K21,6,494,PS,exp,31,↑,up,↑,0.5527606001123786,True,12,-1,0,8
Y2-S2-194K21,6,495,PS,exp,44,←,left,←,0.4643128998577595,True,12,1,1,9
Y2-S2-194K21,6,496,PS,exp,47,↓,up,↑,0.8598818001337349,False,11,-1,1,10
Y2-S2-194K21,6,497,PS,exp,40,→,right,→,0.5106270001269877,True,12,-1,0,10
Y2-S2-194K21,6,498,PS,exp,35,↑,up,↑,0.5876406000461429,True,12,-1,0,10
Y2-S2-194K21,6,499,PS,exp,33,←,left,←,0.5494980001822114,True,12,1,1,11
Y2-S2-194K21,6,500,PS,exp,42,↓,down,↓,0.7029738000128418,True,11,1,0,11
Y2-S2-194K21,6,501,PS,exp,43,→,right,→,0.4772139999549836,True,11,1,0,11
Y2-S2-194K21,6,502,PS,exp,31,←,left,←,0.44743619998916984,True,11,1,0,11
Y2-S2-194K21,6,503,PS,exp,32,→,right,→,0.5022943001240492,True,10,1,0,11
Y2-S2-194K21,6,504,PS,exp,43,←,left,←,0.5094938999973238,True,10,1,0,11
Y2-S2-194K21,6,505,PS,exp,30,↑,left,←,0.7217127999756485,False,10,-1,1,12
Y2-S2-194K21,6,506,PS,exp,46,↓,down,↓,0.5565788999665529,True,11,-1,0,12
Y2-S2-194K21,6,507,PS,exp,27,←,left,←,0.44164730003103614,True,11,-1,0,12
Y2-S2-194K21,6,508,PS,exp,29,↓,up,↑,0.7501135000493377,False,11,-1,0,12
Y2-S2-194K21,6,509,PS,exp,47,←,left,←,0.4778094000648707,True,12,-1,0,12
Y2-S2-194K21,6,510,PS,exp,41,→,right,→,0.6690114999655634,True,12,-1,0,12
Y2-S2-194K21,6,511,PS,exp,25,↓,down,↓,0.7341348000336438,True,12,1,1,13
Y2-S2-194K21,6,512,PS,exp,40,↑,left,←,0.40747079998254776,False,11,-1,1,14
Y2-S2-194K21,6,513,PS,exp,42,←,up,↑,1.0059527000412345,False,12,-1,0,14
Y2-S2-194K21,6,514,PS,exp,37,↓,up,↑,0.7119515999220312,False,13,-1,0,14
Y2-S2-194K21,6,515,PS,exp,41,↑,left,←,0.31735090003348887,False,14,-1,0,14
Y2-S2-194K21,6,516,PS,exp,50,←,left,←,0.4686034000478685,True,15,-1,0,14
Y2-S2-194K21,6,517,PS,exp,38,→,right,→,0.5668887998908758,True,15,-1,0,14
Y2-S2-194K21,6,518,PS,exp,34,↑,up,↑,0.48154750000685453,True,15,1,1,15
Y2-S2-194K21,6,519,PS,exp,43,←,left,←,0.4657821001019329,True,14,1,0,15
Y2-S2-194K21,6,520,PS,exp,46,↑,up,↑,0.8881695000454783,True,14,1,0,15
Y2-S2-194K21,6,521,PS,exp,37,→,right,→,0.5379868000745773,True,14,1,0,15
Y2-S2-194K21,6,522,PS,exp,38,↑,up,↑,0.6331203000154346,True,13,1,0,15
Y2-S2-194K21,6,523,PS,exp,41,←,right,→,0.6045059999451041,False,13,-1,1,16
Y2-S2-194K21,7,524,PS,intra_train,37,→,right,→,0.6251862000208348,True,12,-,-,-
Y2-S2-194K21,7,525,PS,intra_train,33,↑,up,↑,0.5628915000706911,True,12,-,-,-
Y2-S2-194K21,7,526,PS,intra_train,26,→,right,→,0.5081924998667091,True,12,-,-,-
Y2-S2-194K21,7,527,PS,intra_train,36,↓,up,↑,0.6905432001221925,False,12,-,-,-
Y2-S2-194K21,7,528,PS,intra_train,43,→,right,→,0.5185942000243813,True,12,-,-,-
Y2-S2-194K21,7,529,PS,exp,44,↓,left,←,0.6787628999445587,False,8,-1,0,0
Y2-S2-194K21,7,530,PS,exp,35,↑,up,↑,0.505709599936381,True,9,-1,0,0
Y2-S2-194K21,7,531,PS,exp,48,→,right,→,0.5384593999478966,True,9,-1,0,0
Y2-S2-194K21,7,532,PS,exp,45,↓,up,↑,0.7610157998278737,False,9,-1,0,0
Y2-S2-194K21,7,533,PS,exp,28,←,right,→,0.5899600000120699,False,10,-1,0,0
Y2-S2-194K21,7,534,PS,exp,29,→,right,→,1.4387225001119077,True,11,-1,0,0
Y2-S2-194K21,7,535,PS,exp,31,↓,down,↓,0.7270315999630839,True,11,-1,0,0
Y2-S2-194K21,7,536,PS,exp,37,←,left,←,0.45332269999198616,True,11,1,1,1
Y2-S2-194K21,7,537,PS,exp,33,↑,right,→,0.5680708000436425,False,10,-1,1,2
Y2-S2-194K21,7,538,PS,exp,48,←,up,↑,0.628422100096941,False,11,-1,0,2
Y2-S2-194K21,7,539,PS,exp,27,↓,down,↓,0.7450616999994963,True,12,-1,0,2
Y2-S2-194K21,7,540,PS,exp,30,↑,up,↑,0.5306120000313967,True,12,-1,0,2
Y2-S2-194K21,7,541,PS,exp,45,→,right,→,0.6030367000494152,True,12,1,1,3
Y2-S2-194K21,7,542,PS,exp,33,↑,right,→,0.5177471998613328,False,11,-1,1,4
Y2-S2-194K21,7,543,PS,exp,44,←,left,←,0.599291899939999,True,12,-1,0,4
Y2-S2-194K21,7,544,PS,exp,43,↓,down,↓,0.5801933999173343,True,12,-1,0,4
Y2-S2-194K21,7,545,PS,exp,49,→,right,→,0.5250199001748115,True,12,1,1,5
Y2-S2-194K21,7,546,PS,exp,37,↑,up,↑,0.5071141000371426,True,11,1,0,5
Y2-S2-194K21,7,547,PS,exp,49,←,right,→,0.46049239998683333,False,11,-1,1,6
Y2-S2-194K21,7,548,PS,exp,44,↓,left,←,0.40157630015164614,False,12,-1,0,6
Y2-S2-194K21,7,549,PS,exp,29,→,right,→,0.5229747998528183,True,13,-1,0,6
Y2-S2-194K21,7,550,PS,exp,42,↑,up,↑,0.5903556998819113,True,13,-1,0,6
Y2-S2-194K21,7,551,PS,exp,45,←,left,←,0.5323146998416632,True,13,1,1,7
Y2-S2-194K21,7,552,PS,exp,30,↓,up,↑,0.8115638000890613,False,12,-1,1,8
Y2-S2-194K21,7,553,PS,exp,39,←,left,←,0.42799930018372834,True,13,-1,0,8
Y2-S2-194K21,7,554,PS,exp,38,↓,down,↓,0.6158555999863893,True,13,-1,0,8
Y2-S2-194K21,7,555,PS,exp,41,←,left,←,0.5215356000699103,True,13,1,1,9
Y2-S2-194K21,7,556,PS,exp,40,↓,up,↑,1.0635717001277953,False,12,-1,1,10
Y2-S2-194K21,7,557,PS,exp,39,←,left,←,0.5238036001101136,True,13,-1,0,10
Y2-S2-194K21,7,558,PS,exp,35,↓,down,↓,1.416283099912107,True,13,-1,0,10
Y2-S2-194K21,7,559,PS,exp,32,↑,left,←,0.6884059999138117,False,13,-1,0,10
Y2-S2-194K21,7,560,PS,exp,47,↓,down,↓,0.6069307001307607,True,14,-1,0,10
Y2-S2-194K21,7,561,PS,exp,36,→,right,→,0.5799746999982744,True,14,-1,0,10
Y2-S2-194K21,7,562,PS,exp,27,↓,down,↓,0.49543899996206164,True,14,1,1,11
Y2-S2-194K21,7,563,PS,exp,29,→,right,→,0.7091463999822736,True,13,1,0,11
Y2-S2-194K21,7,564,PS,exp,47,↓,down,↓,0.4545817000325769,True,13,1,0,11
Y2-S2-194K21,7,565,PS,exp,44,→,right,→,0.49230509996414185,True,13,1,0,11
Y2-S2-194K21,7,566,PS,exp,46,←,left,←,0.5861973001156002,True,12,1,0,11
Y2-S2-194K21,7,567,PS,exp,27,↓,down,↓,0.6263549998402596,True,12,1,0,11
Y2-S2-194K21,7,568,PS,exp,31,→,right,→,0.5018972000107169,True,12,1,0,11
Y2-S2-194K21,7,569,PS,exp,38,↑,left,←,0.8567387000657618,False,11,-1,1,12
Y2-S2-194K21,7,570,PS,exp,33,→,left,←,0.637344699818641,False,12,-1,0,12
Y2-S2-194K21,7,571,PS,exp,38,←,right,→,0.5092427998315543,False,13,-1,0,12
Y2-S2-194K21,7,572,PS,exp,45,↑,up,↑,0.5824430000502616,True,14,-1,0,12
Y2-S2-194K21,7,573,PS,exp,39,↓,down,↓,0.5378717998974025,True,14,-1,0,12
Y2-S2-194K21,7,574,PS,exp,47,←,right,→,0.5071829999797046,False,14,-1,0,12
Y2-S2-194K21,7,575,PS,exp,25,↑,up,↑,0.9519505999051034,True,15,-1,0,12
Y2-S2-194K21,7,576,PS,exp,32,←,left,←,0.5142914999742061,True,15,-1,0,12
Y2-S2-194K21,7,577,PS,exp,40,↑,left,←,0.31710730004124343,False,15,-1,0,12
Y2-S2-194K21,7,578,PS,exp,44,↓,down,↓,0.5739939999766648,True,16,-1,0,12
Y2-S2-194K21,7,579,PS,exp,40,←,left,←,0.7559303999878466,True,16,-1,0,12
Y2-S2-194K21,7,580,PS,exp,50,↑,up,↑,0.5967366001568735,True,16,1,1,13
Y2-S2-194K21,7,581,PS,exp,35,→,left,←,0.5603695998433977,False,15,-1,1,14
Y2-S2-194K21,7,582,PS,exp,43,↑,up,↑,0.6942328000441194,True,16,-1,0,14
Y2-S2-194K21,7,583,PS,exp,39,↓,down,↓,0.6982344000134617,True,16,-1,0,14
Y2-S2-194K21,7,584,PS,exp,41,←,left,←,0.485651999944821,True,16,1,1,15
Y2-S2-194K21,7,585,PS,exp,36,→,right,→,0.5259887999854982,True,15,1,0,15
Y2-S2-194K21,7,586,PS,exp,40,↓,down,↓,0.6617148001678288,True,15,1,0,15
Y2-S2-194K21,7,587,PS,exp,31,→,right,→,0.6534971999935806,True,15,1,0,15
Y2-S2-194K21,7,588,PS,exp,42,↑,up,↑,0.7722642999142408,True,14,1,0,15
Y2-S2-194K21,7,589,PS,exp,45,→,right,→,0.5534763999748975,True,14,1,0,15
Y2-S2-194K21,7,590,PS,exp,50,←,left,←,0.9232906999532133,True,14,1,0,15
Y2-S2-194K21,7,591,PS,exp,44,↑,up,↑,0.7181003999430686,True,13,1,0,15
Y2-S2-194K21,7,592,PS,exp,49,↓,down,↓,0.6540410001762211,True,13,1,0,15
Y2-S2-194K21,7,593,PS,exp,48,←,left,←,0.4528412001673132,True,13,1,0,15
Y2-S2-194K21,7,594,PS,exp,38,→,right,→,0.4698161999695003,True,12,1,0,15
Y2-S2-194K21,7,595,PS,exp,30,↓,up,↑,0.7485391998197883,False,12,-1,1,16
Y2-S2-194K21,8,596,AS,intra_train,41,↑,up,↑,0.5671086001675576,True,33,-,-,-
Y2-S2-194K21,8,597,AS,intra_train,48,↓,down,↓,0.617367499973625,True,33,-,-,-
Y2-S2-194K21,8,598,AS,intra_train,37,↑,up,↑,0.6671708000358194,True,33,-,-,-
Y2-S2-194K21,8,599,AS,intra_train,39,←,left,←,0.6181383000221103,True,33,-,-,-
Y2-S2-194K21,8,600,AS,intra_train,30,↑,up,↑,0.5672329000663012,True,33,-,-,-
Y2-S2-194K21,8,601,AS,exp,47,↓,down,↓,0.5006065000779927,True,22,0,0,0
Y2-S2-194K21,8,602,AS,exp,48,←,left,←,0.6212670998647809,True,22,0,0,0
Y2-S2-194K21,8,603,AS,exp,34,↓,down,↓,0.5448823000770062,True,22,1,0,0
Y2-S2-194K21,8,604,AS,exp,31,↑,up,↑,0.7333951001055539,True,21,1,0,0
Y2-S2-194K21,8,605,AS,exp,43,↓,down,↓,0.6256791998166591,True,21,1,0,0
Y2-S2-194K21,8,606,AS,exp,47,←,left,←,0.5603231999557465,True,21,1,0,0
Y2-S2-194K21,8,607,AS,exp,27,↑,up,↑,0.7304362000431865,True,20,1,0,0
Y2-S2-194K21,8,608,AS,exp,43,←,left,←,0.5589016999583691,True,20,1,0,0
Y2-S2-194K21,8,609,AS,exp,30,→,right,→,0.7104520001448691,True,20,1,0,0
Y2-S2-194K21,8,610,AS,exp,28,↑,up,↑,0.790591400116682,True,19,1,0,0
Y2-S2-194K21,8,611,AS,exp,44,↓,down,↓,0.7307065001223236,True,19,1,0,0
Y2-S2-194K21,8,612,AS,exp,42,→,right,→,0.5667646999936551,True,19,1,0,0
Y2-S2-194K21,8,613,AS,exp,28,←,left,←,0.8315222000237554,True,18,1,0,0
Y2-S2-194K21,8,614,AS,exp,28,→,up,↑,0.5745635000057518,False,18,-1,1,1
Y2-S2-194K21,8,615,AS,exp,36,↓,down,↓,0.700121299829334,True,19,-1,0,1
Y2-S2-194K21,8,616,AS,exp,50,→,right,→,0.7115627999883145,True,19,-1,0,1
Y2-S2-194K21,8,617,AS,exp,41,↑,up,↑,0.6194233999121934,True,19,1,1,2
Y2-S2-194K21,8,618,AS,exp,37,↓,down,↓,0.5078714999835938,True,18,1,0,2
Y2-S2-194K21,8,619,AS,exp,38,←,left,←,0.6129419999197125,True,18,1,0,2
Y2-S2-194K21,8,620,AS,exp,27,→,right,→,0.5566881000995636,True,18,1,0,2
Y2-S2-194K21,8,621,AS,exp,39,←,left,←,0.5130668999627233,True,17,1,0,2
Y2-S2-194K21,8,622,AS,exp,35,↑,up,↑,0.7145022000186145,True,17,1,0,2
Y2-S2-194K21,8,623,AS,exp,47,→,right,→,0.5667389000300318,True,17,1,0,2
Y2-S2-194K21,8,624,AS,exp,27,↑,up,↑,0.5827454999089241,True,16,1,0,2
Y2-S2-194K21,8,625,AS,exp,38,↓,down,↓,0.7502676001749933,True,16,1,0,2
Y2-S2-194K21,8,626,AS,exp,25,↑,up,↑,0.7883287998847663,True,16,1,0,2
Y2-S2-194K21,8,627,AS,exp,50,←,up,↑,1.033175199991092,False,15,-1,1,3
Y2-S2-194K21,8,628,AS,exp,49,↑,up,↑,0.537690999917686,True,16,-1,0,3
Y2-S2-194K21,8,629,AS,exp,49,↓,down,↓,0.5572095001116395,True,16,-1,0,3
Y2-S2-194K21,8,630,AS,exp,36,↑,up,↑,0.6363637999165803,True,16,1,1,4
Y2-S2-194K21,8,631,AS,exp,42,←,left,←,0.6370300999842584,True,15,1,0,4
Y2-S2-194K21,8,632,AS,exp,35,↑,up,↑,0.5656691000331193,True,15,1,0,4
Y2-S2-194K21,8,633,AS,exp,36,←,left,←,0.4494961001910269,True,15,1,0,4
Y2-S2-194K21,8,634,AS,exp,42,↑,up,↑,0.6049797998275608,True,14,1,0,4
Y2-S2-194K21,8,635,AS,exp,40,→,left,←,0.7099866999778897,False,14,-1,1,5
Y2-S2-194K21,8,636,AS,exp,37,↑,up,↑,0.5128905999008566,True,15,-1,0,5
Y2-S2-194K21,8,637,AS,exp,37,←,left,←,0.7730264000128955,True,15,-1,0,5
Y2-S2-194K21,8,638,AS,exp,48,→,right,→,0.8017126999329776,True,15,1,1,6
Y2-S2-194K21,8,639,AS,exp,30,←,left,←,0.5711580999195576,True,14,1,0,6
Y2-S2-194K21,8,640,AS,exp,48,↓,up,↑,0.7329122999217361,False,14,-1,1,7
Y2-S2-194K21,8,641,AS,exp,43,→,up,↑,0.7571920000482351,False,15,-1,0,7
Y2-S2-194K21,8,642,AS,exp,45,←,down,↓,0.7971876999363303,False,16,-1,0,7
Y2-S2-194K21,8,643,AS,exp,35,↑,up,↑,0.668719100067392,True,17,-1,0,7
Y2-S2-194K21,8,644,AS,exp,47,→,right,→,0.45653690001927316,True,17,-1,0,7
Y2-S2-194K21,8,645,AS,exp,40,←,up,↑,0.8541831998154521,False,17,-1,0,7
Y2-S2-194K21,8,646,AS,exp,37,→,up,↑,0.48826680006459355,False,18,-1,0,7
Y2-S2-194K21,8,647,AS,exp,43,←,left,←,0.6424273001030087,True,19,-1,0,7
Y2-S2-194K21,8,648,AS,exp,31,↓,up,↑,1.1319595000240952,False,19,-1,0,7
Y2-S2-194K21,8,649,AS,exp,49,↑,up,↑,0.46714600012637675,True,20,-1,0,7
Y2-S2-194K21,8,650,AS,exp,48,→,right,→,0.5340806997846812,True,20,-1,0,7
Y2-S2-194K21,8,651,AS,exp,34,↑,left,←,0.5746160999406129,False,20,-1,0,7
Y2-S2-194K21,8,652,AS,exp,28,→,right,→,0.8055346000473946,True,21,-1,0,7
Y2-S2-194K21,8,653,AS,exp,27,←,left,←,0.6808073001448065,True,21,-1,0,7
Y2-S2-194K21,8,654,AS,exp,41,↓,down,↓,0.8467677000444382,True,21,1,1,8
Y2-S2-194K21,8,655,AS,exp,50,←,left,←,0.5408203999977559,True,20,1,0,8
Y2-S2-194K21,8,656,AS,exp,32,↓,down,↓,0.7011724999174476,True,20,1,0,8
Y2-S2-194K21,8,657,AS,exp,30,←,left,←,0.5199269000440836,True,20,1,0,8
Y2-S2-194K21,8,658,AS,exp,31,↑,up,↑,0.6939226998947561,True,19,1,0,8
Y2-S2-194K21,8,659,AS,exp,31,←,left,←,0.5050780000165105,True,19,1,0,8
Y2-S2-194K21,8,660,AS,exp,25,↓,down,↓,0.6761302999220788,True,19,1,0,8
Y2-S2-194K21,8,661,AS,exp,48,↑,left,←,0.71987389982678,False,18,-1,1,9
Y2-S2-194K21,8,662,AS,exp,39,↓,down,↓,0.655951299937442,True,19,-1,0,9
Y2-S2-194K21,8,663,AS,exp,44,→,right,→,0.526394700165838,True,19,-1,0,9
Y2-S2-194K21,8,664,AS,exp,47,←,left,←,0.7549083000048995,True,19,1,1,10
Y2-S2-194K21,8,665,AS,exp,42,→,right,→,0.5519644999876618,True,18,1,0,10
Y2-S2-194K21,8,666,AS,exp,31,↓,down,↓,0.598305799998343,True,18,1,0,10
Y2-S2-194K21,8,667,AS,exp,45,↑,down,↓,0.6876622000709176,False,18,-1,1,11
Y2-S2-194K21,8,668,AS,exp,42,↓,down,↓,0.5885541001334786,True,19,-1,0,11
Y2-S2-194K21,8,669,AS,exp,43,→,right,→,0.6244714001659304,True,19,-1,0,11
Y2-S2-194K21,8,670,AS,exp,44,↑,right,→,0.8697921999264508,False,19,-1,0,11
Y2-S2-194K21,8,671,AS,exp,32,←,left,←,0.7822368999477476,True,20,-1,0,11
Y2-S2-194K21,8,672,AS,exp,40,↑,up,↑,0.9515352000016719,True,20,-1,0,11
Y2-S2-194K21,8,673,AS,exp,46,→,right,→,1.2709661999251693,True,20,1,1,12
Y2-S2-194K21,8,674,AS,exp,25,↓,down,↓,0.7043576999567449,True,19,1,0,12
Y2-S2-194K21,8,675,AS,exp,29,↑,up,↑,0.6794672999531031,True,19,1,0,12
Y2-S2-194K21,8,676,AS,exp,38,→,right,→,0.503413800150156,True,19,1,0,12
Y2-S2-194K21,8,677,AS,exp,43,↑,up,↑,0.6267128000035882,True,18,1,0,12
Y2-S2-194K21,8,678,AS,exp,49,←,right,→,0.576622299849987,False,18,-1,1,13
Y2-S2-194K21,8,679,AS,exp,27,→,right,→,0.6964153000153601,True,19,-1,0,13
Y2-S2-194K21,8,680,AS,exp,47,↑,up,↑,0.8066279999911785,True,19,-1,0,13
Y2-S2-194K21,8,681,AS,exp,37,←,left,←,0.4973287000320852,True,19,1,1,14
Y2-S2-194K21,8,682,AS,exp,42,↑,up,↑,0.5549935000017285,True,18,1,0,14
Y2-S2-194K21,8,683,AS,exp,38,←,down,↓,0.8584634999278933,False,18,-1,1,15
Y2-S2-194K21,8,684,AS,exp,27,↓,down,↓,0.5429911999963224,True,19,-1,0,15
Y2-S2-194K21,8,685,AS,exp,43,↑,up,↑,0.6214480998460203,True,19,-1,0,15
Y2-S2-194K21,8,686,AS,exp,39,↓,down,↓,0.5903211000841111,True,19,1,1,16
