PART_ID,Block_no,Trial_no,Block_type,Trial_type,CSI,Stim_letter,Key_pressed,letter_choose,Rt,Corr,Stimulus Time,Level,Reversal,Revs_count
Y2-S2-134M23,1,1,PS,train,43,→,right,→,0.5839893999800552,True,30,-,-,-
Y2-S2-134M23,1,2,PS,train,37,←,left,←,0.6174857000005431,True,30,-,-,-
Y2-S2-134M23,1,3,PS,train,46,↑,right,→,0.4519289000018034,False,30,-,-,-
Y2-S2-134M23,1,4,PS,train,49,↓,left,←,0.48463360001915134,False,30,-,-,-
Y2-S2-134M23,1,5,PS,train,49,←,left,←,0.79450089999591,True,30,-,-,-
Y2-S2-134M23,1,6,PS,train,36,→,right,→,0.467906200006837,True,30,-,-,-
Y2-S2-134M23,1,7,PS,train,40,↓,down,↓,0.5337370999914128,True,30,-,-,-
Y2-S2-134M23,1,8,PS,train,27,←,left,←,0.5506847999931779,True,30,-,-,-
Y2-S2-134M23,1,9,PS,train,36,↑,up,↑,0.517577299993718,True,30,-,-,-
Y2-S2-134M23,1,10,PS,train,46,↓,down,↓,0.517284200002905,True,30,-,-,-
Y2-S2-134M23,2,11,AS,train,29,→,right,→,0.7020295000111219,True,45,-,-,-
Y2-S2-134M23,2,12,AS,train,43,↑,up,↑,0.7176649000030011,True,45,-,-,-
Y2-S2-134M23,2,13,AS,train,45,↓,down,↓,0.7508643000037409,True,45,-,-,-
Y2-S2-134M23,2,14,AS,train,43,↑,up,↑,0.6680780999886338,True,45,-,-,-
Y2-S2-134M23,2,15,AS,train,41,↓,down,↓,0.4678808999888133,True,45,-,-,-
Y2-S2-134M23,2,16,AS,train,39,←,left,←,0.5673311999998987,True,45,-,-,-
Y2-S2-134M23,2,17,AS,train,43,↑,up,↑,0.6013014999916777,True,45,-,-,-
Y2-S2-134M23,2,18,AS,train,25,↓,down,↓,0.634340600023279,True,45,-,-,-
Y2-S2-134M23,2,19,AS,train,27,→,right,→,0.7178655999887269,True,45,-,-,-
Y2-S2-134M23,2,20,AS,train,49,↓,down,↓,0.7175348000018857,True,45,-,-,-
Y2-S2-134M23,-,21,PS,adaptive,45,←,left,←,0.5049479999870528,True,10,0,0,0
Y2-S2-134M23,-,22,PS,adaptive,37,↑,up,↑,0.6808074000000488,True,10,0,0,0
Y2-S2-134M23,-,23,PS,adaptive,35,↓,down,↓,0.43617890001041815,True,10,1,0,0
Y2-S2-134M23,-,24,PS,adaptive,37,→,right,→,0.5107426000176929,True,9,1,0,0
Y2-S2-134M23,-,25,PS,adaptive,31,↓,down,↓,0.4108284000249114,True,9,1,0,0
Y2-S2-134M23,-,26,PS,adaptive,50,↑,up,↑,0.5031146999972407,True,9,1,0,0
Y2-S2-134M23,-,27,PS,adaptive,27,←,left,←,0.5349711999879219,True,8,1,0,0
Y2-S2-134M23,-,28,PS,adaptive,47,↓,down,↓,0.4058511000184808,True,8,1,0,0
Y2-S2-134M23,-,29,PS,adaptive,44,↑,up,↑,0.5424159999820404,True,8,1,0,0
Y2-S2-134M23,-,30,PS,adaptive,46,↓,down,↓,0.6127982999896631,True,7,1,0,0
Y2-S2-134M23,-,31,PS,adaptive,49,→,right,→,0.4717765999957919,True,7,1,0,0
Y2-S2-134M23,-,32,PS,adaptive,25,←,left,←,0.49722329998621717,True,7,1,0,0
Y2-S2-134M23,-,33,PS,adaptive,29,→,right,→,0.5329381999908946,True,6,1,0,0
Y2-S2-134M23,-,34,PS,adaptive,49,↑,up,↑,0.49001570002292283,True,6,1,0,0
Y2-S2-134M23,-,35,PS,adaptive,38,→,right,→,0.4412722999986727,True,6,1,0,0
Y2-S2-134M23,-,36,PS,adaptive,36,↑,up,↑,0.48567299998831004,True,5,1,0,0
Y2-S2-134M23,-,37,PS,adaptive,31,↓,down,↓,0.5065467999957036,True,5,1,0,0
Y2-S2-134M23,-,38,PS,adaptive,47,←,left,←,0.8764705999928992,True,5,1,0,0
Y2-S2-134M23,-,39,PS,adaptive,47,↑,left,←,1.6324795999971684,False,4,-1,1,1
Y2-S2-134M23,-,40,PS,adaptive,41,←,down,↓,1.156958499981556,False,5,-1,0,1
Y2-S2-134M23,-,41,PS,adaptive,46,→,no_key,no_letter,-1.0,False,6,-1,0,1
Y2-S2-134M23,-,42,PS,adaptive,27,←,no_key,no_letter,-1.0,False,7,-1,0,1
Y2-S2-134M23,-,43,PS,adaptive,49,↓,no_key,no_letter,-1.0,False,8,-1,0,1
Y2-S2-134M23,-,44,PS,adaptive,27,←,down,↓,0.36332319999928586,False,9,-1,0,1
Y2-S2-134M23,-,45,PS,adaptive,29,→,no_key,no_letter,-1.0,False,10,-1,0,1
Y2-S2-134M23,-,46,PS,adaptive,29,↑,up,↑,0.46140079997712746,True,11,-1,0,1
Y2-S2-134M23,-,47,PS,adaptive,31,↓,down,↓,0.5215412999968976,True,11,-1,0,1
Y2-S2-134M23,-,48,PS,adaptive,44,↑,up,↑,0.5639941999979783,True,11,1,1,2
Y2-S2-134M23,-,49,PS,adaptive,34,←,left,←,0.7614896000013687,True,10,1,0,2
Y2-S2-134M23,-,50,PS,adaptive,38,↓,left,←,0.8116944000066724,False,10,-1,1,3
Y2-S2-134M23,-,51,PS,adaptive,38,↑,up,↑,0.5206764999893494,True,11,-1,0,3
Y2-S2-134M23,-,52,PS,adaptive,38,←,left,←,0.6025905999995302,True,11,-1,0,3
Y2-S2-134M23,-,53,PS,adaptive,34,→,right,→,0.4443549000134226,True,11,1,1,4
Y2-S2-134M23,-,54,AS,adaptive,33,↑,up,↑,0.6946984000096563,True,20,0,0,0
Y2-S2-134M23,-,55,AS,adaptive,31,↓,up,↑,0.7604105999926105,False,20,-1,0,0
Y2-S2-134M23,-,56,AS,adaptive,35,↑,down,↓,0.8775144999963231,False,21,-1,0,0
Y2-S2-134M23,-,57,AS,adaptive,46,↓,no_key,no_letter,-1.0,False,22,-1,0,0
Y2-S2-134M23,-,58,AS,adaptive,26,←,left,←,0.48367360001429915,True,23,-1,0,0
Y2-S2-134M23,-,59,AS,adaptive,27,↓,down,↓,0.6157765999960247,True,23,-1,0,0
Y2-S2-134M23,-,60,AS,adaptive,39,↑,down,↓,1.448380099987844,False,23,-1,0,0
Y2-S2-134M23,-,61,AS,adaptive,25,↓,no_key,no_letter,-1.0,False,24,-1,0,0
Y2-S2-134M23,-,62,AS,adaptive,46,←,down,↓,1.3983295999933034,False,25,-1,0,0
Y2-S2-134M23,-,63,AS,adaptive,36,→,right,→,0.5339540999848396,True,26,-1,0,0
Y2-S2-134M23,-,64,AS,adaptive,37,↓,down,↓,0.40115699998568743,True,26,-1,0,0
Y2-S2-134M23,-,65,AS,adaptive,44,→,right,→,0.6716164999816101,True,26,1,1,1
Y2-S2-134M23,-,66,AS,adaptive,33,←,right,→,0.48371540001244284,False,25,-1,1,2
Y2-S2-134M23,-,67,AS,adaptive,30,↑,right,→,1.1523545999953058,False,26,-1,0,2
Y2-S2-134M23,-,68,AS,adaptive,31,→,right,→,0.9215408000163734,True,27,-1,0,2
Y2-S2-134M23,-,69,AS,adaptive,25,↓,right,→,0.8724489000160247,False,27,-1,0,2
Y2-S2-134M23,-,70,AS,adaptive,30,→,no_key,no_letter,-1.0,False,28,-1,0,2
Y2-S2-134M23,-,71,AS,adaptive,39,↑,right,→,0.7450422999972943,False,29,-1,0,2
Y2-S2-134M23,-,72,AS,adaptive,26,→,left,←,0.550449899979867,False,30,-1,0,2
Y2-S2-134M23,-,73,AS,adaptive,27,↓,down,↓,0.7349219000025187,True,31,-1,0,2
Y2-S2-134M23,-,74,AS,adaptive,32,→,right,→,0.43467379998764955,True,31,-1,0,2
Y2-S2-134M23,-,75,AS,adaptive,39,←,right,→,0.5010136000055354,False,31,-1,0,2
Y2-S2-134M23,-,76,AS,adaptive,47,↓,down,↓,0.417571300000418,True,32,-1,0,2
Y2-S2-134M23,-,77,AS,adaptive,38,↑,down,↓,0.7624104999995325,False,32,-1,0,2
Y2-S2-134M23,-,78,AS,adaptive,36,←,right,→,0.5008601000008639,False,33,-1,0,2
Y2-S2-134M23,-,79,AS,adaptive,30,→,right,→,0.7954418000008445,True,34,-1,0,2
Y2-S2-134M23,-,80,AS,adaptive,37,↓,down,↓,0.5344595999922603,True,34,-1,0,2
Y2-S2-134M23,-,81,AS,adaptive,31,↑,down,↓,0.7788572999997996,False,34,-1,0,2
Y2-S2-134M23,-,82,AS,adaptive,40,↓,down,↓,1.7922262000211049,True,35,-1,0,2
Y2-S2-134M23,-,83,AS,adaptive,34,↑,up,↑,1.3457877000037115,True,35,-1,0,2
Y2-S2-134M23,-,84,AS,adaptive,35,↓,down,↓,1.0807714000111446,True,35,1,1,3
Y2-S2-134M23,-,85,AS,adaptive,42,←,left,←,0.6512641000153963,True,34,1,0,3
Y2-S2-134M23,-,86,AS,adaptive,35,↓,down,↓,1.2687407000048552,True,34,1,0,3
Y2-S2-134M23,-,87,AS,adaptive,25,↑,up,↑,0.534330399997998,True,34,1,0,3
Y2-S2-134M23,-,88,AS,adaptive,33,←,left,←,0.877206400007708,True,33,1,0,3
Y2-S2-134M23,-,89,AS,adaptive,45,↑,up,↑,0.6172378000046592,True,33,1,0,3
Y2-S2-134M23,-,90,AS,adaptive,45,→,right,→,0.7339536999934353,True,33,1,0,3
Y2-S2-134M23,-,91,AS,adaptive,26,↑,up,↑,0.6673091999837197,True,32,1,0,3
Y2-S2-134M23,-,92,AS,adaptive,27,→,right,→,0.7233906000037678,True,32,1,0,3
Y2-S2-134M23,-,93,AS,adaptive,36,↓,down,↓,0.6340339999878779,True,32,1,0,3
Y2-S2-134M23,-,94,AS,adaptive,33,↑,up,↑,0.418039400014095,True,31,1,0,3
Y2-S2-134M23,-,95,AS,adaptive,40,→,right,→,0.5338917000044603,True,31,1,0,3
Y2-S2-134M23,-,96,AS,adaptive,27,↓,down,↓,0.4180429999832995,True,31,1,0,3
Y2-S2-134M23,-,97,AS,adaptive,37,↑,up,↑,0.7783426999812946,True,30,1,0,3
Y2-S2-134M23,-,98,AS,adaptive,31,←,left,←,0.8674251000047661,True,30,1,0,3
Y2-S2-134M23,-,99,AS,adaptive,50,→,right,→,1.1537366000120528,True,30,1,0,3
Y2-S2-134M23,-,100,AS,adaptive,27,↓,no_key,no_letter,-1.0,False,29,-1,1,4
Y2-S2-134M23,1,101,AS,intra_train,44,→,right,→,0.4839353000279516,True,45,-,-,-
Y2-S2-134M23,1,102,AS,intra_train,44,↓,down,↓,0.6842968999990262,True,45,-,-,-
Y2-S2-134M23,1,103,AS,intra_train,39,←,left,←,0.6175942000118084,True,45,-,-,-
Y2-S2-134M23,1,104,AS,intra_train,35,↑,up,↑,0.7340935000102036,True,45,-,-,-
Y2-S2-134M23,1,105,AS,intra_train,50,↓,down,↓,0.5678779000008944,True,45,-,-,-
Y2-S2-134M23,1,106,AS,exp,35,↑,up,↑,2.106998900009785,True,30,0,0,0
Y2-S2-134M23,1,107,AS,exp,27,→,right,→,0.7400404999789316,True,30,0,0,0
Y2-S2-134M23,1,108,AS,exp,39,↑,down,↓,1.3668427999946289,False,30,-1,0,0
Y2-S2-134M23,1,109,AS,exp,42,←,left,←,1.164690600009635,True,31,-1,0,0
Y2-S2-134M23,1,110,AS,exp,46,→,right,→,0.6962266000045929,True,31,-1,0,0
Y2-S2-134M23,1,111,AS,exp,50,↑,up,↑,0.46774719998938963,True,31,1,1,1
Y2-S2-134M23,1,112,AS,exp,25,←,left,←,0.7107724000234157,True,30,1,0,1
Y2-S2-134M23,1,113,AS,exp,40,→,left,←,0.48385289998259395,False,30,-1,1,2
Y2-S2-134M23,1,114,AS,exp,50,↓,down,↓,1.28211190001457,True,31,-1,0,2
Y2-S2-134M23,1,115,AS,exp,40,←,left,←,1.5474824999982957,True,31,-1,0,2
Y2-S2-134M23,1,116,AS,exp,32,↑,no_key,no_letter,-1.0,False,31,-1,0,2
Y2-S2-134M23,1,117,AS,exp,44,←,no_key,no_letter,-1.0,False,32,-1,0,2
Y2-S2-134M23,1,118,AS,exp,50,↓,no_key,no_letter,-1.0,False,33,-1,0,2
Y2-S2-134M23,1,119,AS,exp,46,→,no_key,no_letter,-1.0,False,34,-1,0,2
Y2-S2-134M23,1,120,AS,exp,42,↓,no_key,no_letter,-1.0,False,35,-1,0,2
Y2-S2-134M23,1,121,AS,exp,28,←,no_key,no_letter,-1.0,False,36,-1,0,2
Y2-S2-134M23,1,122,AS,exp,25,↓,down,↓,1.6403825000161305,True,37,-1,0,2
Y2-S2-134M23,1,123,AS,exp,29,→,right,→,0.5509397000132594,True,37,-1,0,2
Y2-S2-134M23,1,124,AS,exp,46,←,left,←,0.5176052000024356,True,37,1,1,3
Y2-S2-134M23,1,125,AS,exp,32,↑,up,↑,0.6672006000007968,True,36,1,0,3
Y2-S2-134M23,1,126,AS,exp,30,←,down,↓,2.041223700012779,False,36,-1,1,4
Y2-S2-134M23,1,127,AS,exp,33,↑,no_key,no_letter,-1.0,False,37,-1,0,4
Y2-S2-134M23,1,128,AS,exp,39,→,right,→,1.5438389999908395,True,38,-1,0,4
Y2-S2-134M23,1,129,AS,exp,48,←,right,→,0.5173961000109557,False,38,-1,0,4
Y2-S2-134M23,1,130,AS,exp,48,↑,up,↑,0.8828300000168383,True,39,-1,0,4
Y2-S2-134M23,1,131,AS,exp,39,→,right,→,0.601182999991579,True,39,-1,0,4
Y2-S2-134M23,1,132,AS,exp,44,←,left,←,0.5844420000212267,True,39,1,1,5
Y2-S2-134M23,1,133,AS,exp,27,↑,right,→,2.156966399983503,False,38,-1,1,6
Y2-S2-134M23,1,134,AS,exp,35,→,right,→,0.40110309998271987,True,39,-1,0,6
Y2-S2-134M23,1,135,AS,exp,44,←,right,→,0.5508661000058055,False,39,-1,0,6
Y2-S2-134M23,1,136,AS,exp,30,↓,down,↓,0.6003171000047587,True,40,-1,0,6
Y2-S2-134M23,1,137,AS,exp,29,→,right,→,0.3842096999869682,True,40,-1,0,6
Y2-S2-134M23,1,138,AS,exp,32,↑,up,↑,0.7674953000096139,True,40,1,1,7
Y2-S2-134M23,1,139,AS,exp,36,→,right,→,0.4340869000006933,True,39,1,0,7
Y2-S2-134M23,1,140,AS,exp,46,↓,down,↓,1.8025552000035532,True,39,1,0,7
Y2-S2-134M23,1,141,AS,exp,47,↑,no_key,no_letter,-1.0,False,39,-1,1,8
Y2-S2-134M23,1,142,AS,exp,26,↓,no_key,no_letter,-1.0,False,40,-1,0,8
Y2-S2-134M23,1,143,AS,exp,45,→,no_key,no_letter,-1.0,False,41,-1,0,8
Y2-S2-134M23,1,144,AS,exp,46,←,right,→,0.2509855999960564,False,42,-1,0,8
Y2-S2-134M23,1,145,AS,exp,38,↓,right,→,2.0335875999880955,False,43,-1,0,8
Y2-S2-134M23,1,146,AS,exp,39,→,right,→,0.8341193000087515,True,44,-1,0,8
Y2-S2-134M23,1,147,AS,exp,35,↑,no_key,no_letter,-1.0,False,44,-1,0,8
Y2-S2-134M23,1,148,AS,exp,38,←,right,→,1.6109124999784399,False,45,-1,0,8
Y2-S2-134M23,1,149,AS,exp,43,↑,right,→,1.8491046999988612,False,46,-1,0,8
Y2-S2-134M23,1,150,AS,exp,38,↓,up,↑,0.7683123000024352,False,47,-1,0,8
Y2-S2-134M23,1,151,AS,exp,36,←,left,←,0.8004578000109177,True,48,-1,0,8
Y2-S2-134M23,1,152,AS,exp,43,↓,down,↓,0.650779000017792,True,48,-1,0,8
Y2-S2-134M23,1,153,AS,exp,42,↑,up,↑,0.5178522999922279,True,48,1,1,9
Y2-S2-134M23,1,154,AS,exp,41,←,left,←,0.5176827000104822,True,47,1,0,9
Y2-S2-134M23,1,155,AS,exp,31,↑,up,↑,0.468182299984619,True,47,1,0,9
Y2-S2-134M23,1,156,AS,exp,46,←,left,←,0.7838842000055593,True,47,1,0,9
Y2-S2-134M23,1,157,AS,exp,29,↑,up,↑,0.45146320000640117,True,46,1,0,9
Y2-S2-134M23,1,158,AS,exp,34,←,left,←,0.617621399986092,True,46,1,0,9
Y2-S2-134M23,1,159,AS,exp,47,↓,down,↓,0.7012578000139911,True,46,1,0,9
Y2-S2-134M23,1,160,AS,exp,32,↑,down,↓,0.567795799986925,False,45,-1,1,10
Y2-S2-134M23,1,161,AS,exp,44,↓,down,↓,1.0009128999954555,True,46,-1,0,10
Y2-S2-134M23,1,162,AS,exp,29,↑,up,↑,0.6508287000178825,True,46,-1,0,10
Y2-S2-134M23,1,163,AS,exp,37,→,right,→,0.7014064000104554,True,46,1,1,11
Y2-S2-134M23,1,164,AS,exp,42,←,left,←,0.8506170999899041,True,45,1,0,11
Y2-S2-134M23,1,165,AS,exp,26,→,right,→,0.6177016999863554,True,45,1,0,11
Y2-S2-134M23,1,166,AS,exp,48,←,left,←,0.5676573000091594,True,45,1,0,11
Y2-S2-134M23,1,167,AS,exp,46,↑,right,→,1.7444858999806456,False,44,-1,1,12
Y2-S2-134M23,1,168,AS,exp,26,↓,down,↓,0.7341962000064086,True,45,-1,0,12
Y2-S2-134M23,1,169,AS,exp,33,↑,up,↑,0.7343593999976292,True,45,-1,0,12
Y2-S2-134M23,1,170,AS,exp,48,↓,down,↓,0.7175562999909744,True,45,1,1,13
Y2-S2-134M23,1,171,AS,exp,42,←,left,←,0.5344125999836251,True,44,1,0,13
Y2-S2-134M23,1,172,AS,exp,43,→,right,→,0.6844004000013229,True,44,1,0,13
Y2-S2-134M23,1,173,AS,exp,41,↑,up,↑,0.5511075999820605,True,44,1,0,13
Y2-S2-134M23,1,174,AS,exp,31,↓,down,↓,0.7338635000050999,True,43,1,0,13
Y2-S2-134M23,1,175,AS,exp,34,↑,no_key,no_letter,-1.0,False,43,-1,1,14
Y2-S2-134M23,1,176,AS,exp,28,←,no_key,no_letter,-1.0,False,44,-1,0,14
Y2-S2-134M23,1,177,AS,exp,37,→,no_key,no_letter,-1.0,False,45,-1,0,14
Y2-S2-134M23,1,178,AS,exp,40,↓,no_key,no_letter,-1.0,False,46,-1,0,14
Y2-S2-134M23,1,179,AS,exp,31,←,left,←,0.8340438999875914,True,47,-1,0,14
Y2-S2-134M23,1,180,AS,exp,32,↓,down,↓,0.767515799991088,True,47,-1,0,14
Y2-S2-134M23,1,181,AS,exp,33,→,right,→,0.450966000003973,True,47,1,1,15
Y2-S2-134M23,1,182,AS,exp,29,↑,no_key,no_letter,-1.0,False,46,-1,1,16
Y2-S2-134M23,2,183,PS,intra_train,40,→,right,→,0.4397590000007767,True,15,-,-,-
Y2-S2-134M23,2,184,PS,intra_train,25,↑,up,↑,0.5646247000258882,True,15,-,-,-
Y2-S2-134M23,2,185,PS,intra_train,31,→,right,→,0.5336150999937672,True,15,-,-,-
Y2-S2-134M23,2,186,PS,intra_train,43,↓,down,↓,0.4569033999869134,True,15,-,-,-
Y2-S2-134M23,2,187,PS,intra_train,42,←,left,←,0.4985168999992311,True,15,-,-,-
Y2-S2-134M23,2,188,PS,exp,32,→,right,→,0.4162651999795344,True,10,0,0,0
Y2-S2-134M23,2,189,PS,exp,40,←,no_key,no_letter,-1.0,False,10,-1,0,0
Y2-S2-134M23,2,190,PS,exp,42,↑,up,↑,0.6639639000059105,True,11,-1,0,0
Y2-S2-134M23,2,191,PS,exp,38,←,left,←,0.4310514999961015,True,11,-1,0,0
Y2-S2-134M23,2,192,PS,exp,36,↑,up,↑,0.4766405999835115,True,11,1,1,1
Y2-S2-134M23,2,193,PS,exp,38,←,left,←,0.4903679999988526,True,10,1,0,1
Y2-S2-134M23,2,194,PS,exp,30,↑,up,↑,0.5768611000094097,True,10,1,0,1
Y2-S2-134M23,2,195,PS,exp,37,→,right,→,0.4872937999898568,True,10,1,0,1
Y2-S2-134M23,2,196,PS,exp,42,←,down,↓,1.0250299999897834,False,9,-1,1,2
Y2-S2-134M23,2,197,PS,exp,34,↑,up,↑,0.3974292000057176,True,10,-1,0,2
Y2-S2-134M23,2,198,PS,exp,25,↓,down,↓,0.537889900006121,True,10,-1,0,2
Y2-S2-134M23,2,199,PS,exp,34,↑,up,↑,0.42391110002063215,True,10,1,1,3
Y2-S2-134M23,2,200,PS,exp,48,→,left,←,0.7230747000139672,False,9,-1,1,4
Y2-S2-134M23,2,201,PS,exp,41,↓,down,↓,0.605032299994491,True,10,-1,0,4
Y2-S2-134M23,2,202,PS,exp,34,→,right,→,0.6082656999933533,True,10,-1,0,4
Y2-S2-134M23,2,203,PS,exp,46,↓,down,↓,0.5423685999994632,True,10,1,1,5
Y2-S2-134M23,2,204,PS,exp,38,→,right,→,0.46105319997877814,True,9,1,0,5
Y2-S2-134M23,2,205,PS,exp,49,↑,down,↓,0.5381862999929581,False,9,-1,1,6
Y2-S2-134M23,2,206,PS,exp,47,→,right,→,0.635460299992701,True,10,-1,0,6
Y2-S2-134M23,2,207,PS,exp,34,←,left,←,0.5607684999995399,True,10,-1,0,6
Y2-S2-134M23,2,208,PS,exp,36,↑,down,↓,0.6375721000076737,False,10,-1,0,6
Y2-S2-134M23,2,209,PS,exp,26,←,left,←,0.553545300004771,True,11,-1,0,6
Y2-S2-134M23,2,210,PS,exp,34,→,left,←,0.580583500006469,False,11,-1,0,6
Y2-S2-134M23,2,211,PS,exp,43,↓,down,↓,0.48501000000396743,True,12,-1,0,6
Y2-S2-134M23,2,212,PS,exp,39,↑,up,↑,0.4912338999856729,True,12,-1,0,6
Y2-S2-134M23,2,213,PS,exp,49,→,right,→,0.5792050000163727,True,12,1,1,7
Y2-S2-134M23,2,214,PS,exp,25,←,left,←,0.544186000013724,True,11,1,0,7
Y2-S2-134M23,2,215,PS,exp,44,→,right,→,0.45830389999900945,True,11,1,0,7
Y2-S2-134M23,2,216,PS,exp,35,↓,up,↑,0.4852146999910474,False,11,-1,1,8
Y2-S2-134M23,2,217,PS,exp,29,↑,up,↑,1.5240330999949947,True,12,-1,0,8
Y2-S2-134M23,2,218,PS,exp,35,→,right,→,0.5374397000123281,True,12,-1,0,8
Y2-S2-134M23,2,219,PS,exp,48,↑,up,↑,0.6689356999995653,True,12,1,1,9
Y2-S2-134M23,2,220,PS,exp,31,↓,up,↑,0.4402025000017602,False,11,-1,1,10
Y2-S2-134M23,2,221,PS,exp,44,→,right,→,0.6422576000040863,True,12,-1,0,10
Y2-S2-134M23,2,222,PS,exp,26,↑,up,↑,0.45269390000612475,True,12,-1,0,10
Y2-S2-134M23,2,223,PS,exp,29,←,left,←,0.5041924999968614,True,12,1,1,11
Y2-S2-134M23,2,224,PS,exp,50,→,right,→,0.45776310001383536,True,11,1,0,11
Y2-S2-134M23,2,225,PS,exp,38,←,left,←,0.6527376000012737,True,11,1,0,11
Y2-S2-134M23,2,226,PS,exp,42,↑,up,↑,0.5690115999896079,True,11,1,0,11
Y2-S2-134M23,2,227,PS,exp,35,←,left,←,0.5672219999833032,True,10,1,0,11
Y2-S2-134M23,2,228,PS,exp,37,↑,up,↑,0.4096229000133462,True,10,1,0,11
Y2-S2-134M23,2,229,PS,exp,26,←,left,←,0.49445049997302704,True,10,1,0,11
Y2-S2-134M23,2,230,PS,exp,40,→,right,→,0.4399199000035878,True,9,1,0,11
Y2-S2-134M23,2,231,PS,exp,45,↑,no_key,no_letter,-1.0,False,9,-1,1,12
Y2-S2-134M23,2,232,PS,exp,39,→,no_key,no_letter,-1.0,False,10,-1,0,12
Y2-S2-134M23,2,233,PS,exp,26,←,no_key,no_letter,-1.0,False,11,-1,0,12
Y2-S2-134M23,2,234,PS,exp,30,↑,no_key,no_letter,-1.0,False,12,-1,0,12
Y2-S2-134M23,2,235,PS,exp,31,→,right,→,1.3203269000223372,True,13,-1,0,12
Y2-S2-134M23,2,236,PS,exp,26,↑,up,↑,0.46268749999580905,True,13,-1,0,12
Y2-S2-134M23,2,237,PS,exp,34,→,no_key,no_letter,-1.0,False,13,-1,0,12
Y2-S2-134M23,2,238,PS,exp,37,↓,no_key,no_letter,-1.0,False,14,-1,0,12
Y2-S2-134M23,2,239,PS,exp,28,←,up,↑,1.1927444000029936,False,15,-1,0,12
Y2-S2-134M23,2,240,PS,exp,26,↓,no_key,no_letter,-1.0,False,16,-1,0,12
Y2-S2-134M23,2,241,PS,exp,33,←,no_key,no_letter,-1.0,False,17,-1,0,12
Y2-S2-134M23,2,242,PS,exp,31,→,no_key,no_letter,-1.0,False,18,-1,0,12
Y2-S2-134M23,2,243,PS,exp,36,←,no_key,no_letter,-1.0,False,19,-1,0,12
Y2-S2-134M23,2,244,PS,exp,50,→,no_key,no_letter,-1.0,False,20,-1,0,12
Y2-S2-134M23,2,245,PS,exp,45,←,right,→,1.528707999998005,False,21,-1,0,12
Y2-S2-134M23,2,246,PS,exp,29,↑,no_key,no_letter,-1.0,False,22,-1,0,12
Y2-S2-134M23,2,247,PS,exp,49,→,right,→,1.7973456000036094,True,23,-1,0,12
Y2-S2-134M23,2,248,PS,exp,34,↓,up,↑,0.6829166999959853,False,23,-1,0,12
Y2-S2-134M23,2,249,PS,exp,34,→,right,→,1.6349114000040572,True,24,-1,0,12
Y2-S2-134M23,2,250,PS,exp,38,←,left,←,0.4176642000093125,True,24,-1,0,12
Y2-S2-134M23,2,251,PS,exp,26,↑,up,↑,1.5067829999898095,True,24,1,1,13
Y2-S2-134M23,2,252,PS,exp,38,↓,down,↓,0.9631094000069425,True,23,1,0,13
Y2-S2-134M23,2,253,PS,exp,44,↑,no_key,no_letter,-1.0,False,23,-1,1,14
Y2-S2-134M23,2,254,PS,exp,40,←,left,←,0.4675775000068825,True,24,-1,0,14
Y2-S2-134M23,2,255,PS,exp,38,→,no_key,no_letter,-1.0,False,24,-1,0,14
Y2-S2-134M23,2,256,PS,exp,43,↑,right,→,0.31779980001738295,False,25,-1,0,14
Y2-S2-134M23,2,257,PS,exp,38,←,left,←,0.45087890001013875,True,26,-1,0,14
Y2-S2-134M23,2,258,PS,exp,28,↓,up,↑,0.48393730001407675,False,26,-1,0,14
Y2-S2-134M23,2,259,PS,exp,37,↑,up,↑,1.2931221000035293,True,27,-1,0,14
Y2-S2-134M23,2,260,PS,exp,38,←,left,←,1.7044853999977931,True,27,-1,0,14
Y2-S2-134M23,2,261,PS,exp,32,↑,up,↑,0.5672825000074226,True,27,1,1,15
Y2-S2-134M23,2,262,PS,exp,49,↓,down,↓,0.43387079998501576,True,26,1,0,15
Y2-S2-134M23,2,263,PS,exp,33,↑,up,↑,0.4840472999785561,True,26,1,0,15
Y2-S2-134M23,2,264,PS,exp,43,↓,down,↓,0.4839242000016384,True,26,1,0,15
Y2-S2-134M23,2,265,PS,exp,38,↑,up,↑,0.5340223000093829,True,25,1,0,15
Y2-S2-134M23,2,266,PS,exp,49,↓,down,↓,0.5856450999854133,True,25,1,0,15
Y2-S2-134M23,2,267,PS,exp,31,←,left,←,0.7915988000167999,True,25,1,0,15
Y2-S2-134M23,2,268,PS,exp,45,↑,up,↑,0.5006455999973696,True,24,1,0,15
Y2-S2-134M23,2,269,PS,exp,30,←,left,←,0.4340061999973841,True,24,1,0,15
Y2-S2-134M23,2,270,PS,exp,44,→,right,→,0.5339500000118278,True,24,1,0,15
Y2-S2-134M23,2,271,PS,exp,45,↑,up,↑,0.43397490002098493,True,23,1,0,15
Y2-S2-134M23,2,272,PS,exp,49,↓,down,↓,1.1171931000135373,True,23,1,0,15
Y2-S2-134M23,2,273,PS,exp,46,↑,up,↑,0.4340031999745406,True,23,1,0,15
Y2-S2-134M23,2,274,PS,exp,34,→,right,→,0.5008624000183772,True,22,1,0,15
Y2-S2-134M23,2,275,PS,exp,48,↑,up,↑,0.417322499997681,True,22,1,0,15
Y2-S2-134M23,2,276,PS,exp,30,→,right,→,0.450712999998359,True,22,1,0,15
Y2-S2-134M23,2,277,PS,exp,29,←,left,←,1.1240179000014905,True,21,1,0,15
Y2-S2-134M23,2,278,PS,exp,31,↑,up,↑,0.8652808000042569,True,21,1,0,15
Y2-S2-134M23,2,279,PS,exp,36,←,right,→,0.811669399990933,False,21,-1,1,16
Y2-S2-134M23,3,280,PS,intra_train,27,↑,up,↑,0.836243799974909,True,15,-,-,-
Y2-S2-134M23,3,281,PS,intra_train,37,↓,down,↓,0.604466599994339,True,15,-,-,-
Y2-S2-134M23,3,282,PS,intra_train,48,→,right,→,0.7083249000133947,True,15,-,-,-
Y2-S2-134M23,3,283,PS,intra_train,41,↓,down,↓,0.43383160000666976,True,15,-,-,-
Y2-S2-134M23,3,284,PS,intra_train,49,↑,up,↑,0.42223110000486486,True,15,-,-,-
Y2-S2-134M23,3,285,PS,exp,46,←,down,↓,0.4704220999847166,False,10,-1,0,0
Y2-S2-134M23,3,286,PS,exp,43,→,right,→,0.4775907000002917,True,11,-1,0,0
Y2-S2-134M23,3,287,PS,exp,30,↑,up,↑,0.44311650001327507,True,11,-1,0,0
Y2-S2-134M23,3,288,PS,exp,26,←,left,←,0.5161487000004854,True,11,1,1,1
Y2-S2-134M23,3,289,PS,exp,30,↑,up,↑,0.4659013999917079,True,10,1,0,1
Y2-S2-134M23,3,290,PS,exp,32,←,right,→,0.6552035000058822,False,10,-1,1,2
Y2-S2-134M23,3,291,PS,exp,29,→,right,→,0.43688559997826815,True,11,-1,0,2
Y2-S2-134M23,3,292,PS,exp,32,↑,down,↓,0.6893059000140056,False,11,-1,0,2
Y2-S2-134M23,3,293,PS,exp,26,→,right,→,0.39468170001055114,True,12,-1,0,2
Y2-S2-134M23,3,294,PS,exp,35,←,left,←,0.4167932999844197,True,12,-1,0,2
Y2-S2-134M23,3,295,PS,exp,34,↓,right,→,0.47806510000373237,False,12,-1,0,2
Y2-S2-134M23,3,296,PS,exp,35,→,right,→,0.4205439999932423,True,13,-1,0,2
Y2-S2-134M23,3,297,PS,exp,34,←,down,↓,1.6250973000132944,False,13,-1,0,2
Y2-S2-134M23,3,298,PS,exp,29,↑,no_key,no_letter,-1.0,False,14,-1,0,2
Y2-S2-134M23,3,299,PS,exp,47,←,down,↓,1.0704502000007778,False,15,-1,0,2
Y2-S2-134M23,3,300,PS,exp,44,↑,up,↑,0.633721099991817,True,16,-1,0,2
Y2-S2-134M23,3,301,PS,exp,30,↓,right,→,0.6498129999963567,False,16,-1,0,2
Y2-S2-134M23,3,302,PS,exp,29,↑,right,→,1.414369700010866,False,17,-1,0,2
Y2-S2-134M23,3,303,PS,exp,44,→,no_key,no_letter,-1.0,False,18,-1,0,2
Y2-S2-134M23,3,304,PS,exp,36,↓,no_key,no_letter,-1.0,False,19,-1,0,2
Y2-S2-134M23,3,305,PS,exp,47,←,right,→,0.36723329999949783,False,20,-1,0,2
Y2-S2-134M23,3,306,PS,exp,29,→,right,→,0.669071200012695,True,21,-1,0,2
Y2-S2-134M23,3,307,PS,exp,36,↓,down,↓,0.4337702999764588,True,21,-1,0,2
Y2-S2-134M23,3,308,PS,exp,37,→,right,→,1.1537457999947947,True,21,1,1,3
Y2-S2-134M23,3,309,PS,exp,50,↓,no_key,no_letter,-1.0,False,20,-1,1,4
Y2-S2-134M23,3,310,PS,exp,43,→,down,↓,1.4118699000100605,False,21,-1,0,4
Y2-S2-134M23,3,311,PS,exp,39,↑,no_key,no_letter,-1.0,False,22,-1,0,4
Y2-S2-134M23,3,312,PS,exp,43,→,right,→,1.4337071000190917,True,23,-1,0,4
Y2-S2-134M23,3,313,PS,exp,40,↑,up,↑,1.243466099986108,True,23,-1,0,4
Y2-S2-134M23,3,314,PS,exp,41,←,left,←,1.029209100001026,True,23,1,1,5
Y2-S2-134M23,3,315,PS,exp,33,↑,no_key,no_letter,-1.0,False,22,-1,1,6
Y2-S2-134M23,3,316,PS,exp,31,←,left,←,0.46742030000314116,True,23,-1,0,6
Y2-S2-134M23,3,317,PS,exp,41,→,right,→,0.4170274999924004,True,23,-1,0,6
Y2-S2-134M23,3,318,PS,exp,39,↓,down,↓,0.4503876999951899,True,23,1,1,7
Y2-S2-134M23,3,319,PS,exp,30,↑,up,↑,0.6213095000130124,True,22,1,0,7
Y2-S2-134M23,3,320,PS,exp,30,↓,no_key,no_letter,-1.0,False,22,-1,1,8
Y2-S2-134M23,3,321,PS,exp,50,→,right,→,0.5010985999833792,True,23,-1,0,8
Y2-S2-134M23,3,322,PS,exp,37,↓,no_key,no_letter,-1.0,False,23,-1,0,8
Y2-S2-134M23,3,323,PS,exp,47,←,no_key,no_letter,-1.0,False,24,-1,0,8
Y2-S2-134M23,3,324,PS,exp,42,↑,no_key,no_letter,-1.0,False,25,-1,0,8
Y2-S2-134M23,3,325,PS,exp,26,←,no_key,no_letter,-1.0,False,26,-1,0,8
Y2-S2-134M23,3,326,PS,exp,33,→,no_key,no_letter,-1.0,False,27,-1,0,8
Y2-S2-134M23,3,327,PS,exp,47,↑,no_key,no_letter,-1.0,False,28,-1,0,8
Y2-S2-134M23,3,328,PS,exp,33,→,no_key,no_letter,-1.0,False,29,-1,0,8
Y2-S2-134M23,3,329,PS,exp,39,←,right,→,0.18481160001829267,False,30,-1,0,8
Y2-S2-134M23,3,330,PS,exp,33,→,right,→,0.9885312000114936,True,31,-1,0,8
Y2-S2-134M23,3,331,PS,exp,26,↓,right,→,1.9682168000144884,False,31,-1,0,8
Y2-S2-134M23,3,332,PS,exp,48,←,right,→,1.652464200014947,False,32,-1,0,8
Y2-S2-134M23,3,333,PS,exp,34,→,right,→,1.2428457000060007,True,33,-1,0,8
Y2-S2-134M23,3,334,PS,exp,35,↑,no_key,no_letter,-1.0,False,33,-1,0,8
Y2-S2-134M23,3,335,PS,exp,42,→,right,→,2.2331413000065368,True,34,-1,0,8
Y2-S2-134M23,3,336,PS,exp,39,↓,up,↑,0.5178972000139765,False,34,-1,0,8
Y2-S2-134M23,3,337,PS,exp,46,→,right,→,0.4508930000010878,True,35,-1,0,8
Y2-S2-134M23,3,338,PS,exp,30,←,left,←,0.4678189999831375,True,35,-1,0,8
Y2-S2-134M23,3,339,PS,exp,28,↓,no_key,no_letter,-1.0,False,35,-1,0,8
Y2-S2-134M23,3,340,PS,exp,47,→,no_key,no_letter,-1.0,False,36,-1,0,8
Y2-S2-134M23,3,341,PS,exp,26,←,left,←,0.5510317000153009,True,37,-1,0,8
Y2-S2-134M23,3,342,PS,exp,29,→,right,→,0.4009756000014022,True,37,-1,0,8
Y2-S2-134M23,3,343,PS,exp,34,←,left,←,0.4342826000065543,True,37,1,1,9
Y2-S2-134M23,3,344,PS,exp,41,→,right,→,0.484132799989311,True,36,1,0,9
Y2-S2-134M23,3,345,PS,exp,35,↓,down,↓,1.0060287000087555,True,36,1,0,9
Y2-S2-134M23,3,346,PS,exp,37,↑,up,↑,0.5680295999918599,True,36,1,0,9
Y2-S2-134M23,3,347,PS,exp,35,↓,right,→,0.3176237999869045,False,35,-1,1,10
Y2-S2-134M23,3,348,PS,exp,40,→,right,→,0.4343585000024177,True,36,-1,0,10
Y2-S2-134M23,3,349,PS,exp,44,↑,up,↑,0.5342649000231177,True,36,-1,0,10
Y2-S2-134M23,3,350,PS,exp,35,←,left,←,0.46708300002501346,True,36,1,1,11
Y2-S2-134M23,3,351,PS,exp,42,↑,up,↑,0.6003872999863233,True,35,1,0,11
Y2-S2-134M23,3,352,PS,exp,42,↓,no_key,no_letter,-1.0,False,35,-1,1,12
Y2-S2-134M23,3,353,PS,exp,38,←,left,←,0.5349985000211746,True,36,-1,0,12
Y2-S2-134M23,3,354,PS,exp,49,↓,down,↓,1.3164672999992035,True,36,-1,0,12
Y2-S2-134M23,3,355,PS,exp,26,→,right,→,0.5678577999933623,True,36,1,1,13
Y2-S2-134M23,3,356,PS,exp,46,←,left,←,0.46795670001301914,True,35,1,0,13
Y2-S2-134M23,3,357,PS,exp,39,→,right,→,0.48412419998203404,True,35,1,0,13
Y2-S2-134M23,3,358,PS,exp,42,↓,down,↓,0.5002300000051036,True,35,1,0,13
Y2-S2-134M23,3,359,PS,exp,38,→,right,→,0.41771050001261756,True,34,1,0,13
Y2-S2-134M23,3,360,PS,exp,45,←,left,←,0.5506754000089131,True,34,1,0,13
Y2-S2-134M23,3,361,PS,exp,32,↑,up,↑,0.7710927999869455,True,34,1,0,13
Y2-S2-134M23,3,362,PS,exp,37,←,left,←,0.5356380000011995,True,33,1,0,13
Y2-S2-134M23,3,363,PS,exp,31,↑,up,↑,0.7612011999881361,True,33,1,0,13
Y2-S2-134M23,3,364,PS,exp,42,←,left,←,0.46788790001301095,True,33,1,0,13
Y2-S2-134M23,3,365,PS,exp,42,→,right,→,0.5010454999865033,True,32,1,0,13
Y2-S2-134M23,3,366,PS,exp,50,↑,up,↑,0.48433249999652617,True,32,1,0,13
Y2-S2-134M23,3,367,PS,exp,33,→,right,→,0.48437449999619275,True,32,1,0,13
Y2-S2-134M23,3,368,PS,exp,33,←,left,←,0.40125339999212883,True,31,1,0,13
Y2-S2-134M23,3,369,PS,exp,44,→,right,→,0.41794040001695976,True,31,1,0,13
Y2-S2-134M23,3,370,PS,exp,39,↓,down,↓,0.6844513000105508,True,31,1,0,13
Y2-S2-134M23,3,371,PS,exp,42,←,left,←,0.4009268000081647,True,30,1,0,13
Y2-S2-134M23,3,372,PS,exp,27,↑,up,↑,0.5839622000057716,True,30,1,0,13
Y2-S2-134M23,3,373,PS,exp,34,→,down,↓,1.218465699988883,False,30,-1,1,14
Y2-S2-134M23,3,374,PS,exp,48,↑,no_key,no_letter,-1.0,False,31,-1,0,14
Y2-S2-134M23,3,375,PS,exp,40,→,down,↓,1.4659551000222564,False,32,-1,0,14
Y2-S2-134M23,3,376,PS,exp,31,←,no_key,no_letter,-1.0,False,33,-1,0,14
Y2-S2-134M23,3,377,PS,exp,26,↑,no_key,no_letter,-1.0,False,34,-1,0,14
Y2-S2-134M23,3,378,PS,exp,27,↓,no_key,no_letter,-1.0,False,35,-1,0,14
Y2-S2-134M23,3,379,PS,exp,36,←,no_key,no_letter,-1.0,False,36,-1,0,14
Y2-S2-134M23,3,380,PS,exp,49,↑,no_key,no_letter,-1.0,False,37,-1,0,14
Y2-S2-134M23,3,381,PS,exp,43,→,no_key,no_letter,-1.0,False,38,-1,0,14
Y2-S2-134M23,3,382,PS,exp,26,↑,right,→,0.001146299997344613,False,39,-1,0,14
Y2-S2-134M23,3,383,PS,exp,48,→,no_key,no_letter,-1.0,False,40,-1,0,14
Y2-S2-134M23,3,384,PS,exp,34,↑,right,→,1.2096809999784455,False,41,-1,0,14
Y2-S2-134M23,3,385,PS,exp,49,→,right,→,1.269993699999759,True,42,-1,0,14
Y2-S2-134M23,3,386,PS,exp,31,↑,down,↓,0.41755009998450987,False,42,-1,0,14
Y2-S2-134M23,3,387,PS,exp,44,↓,right,→,0.3844495000084862,False,43,-1,0,14
Y2-S2-134M23,3,388,PS,exp,34,→,down,↓,0.6504076999844983,False,44,-1,0,14
Y2-S2-134M23,3,389,PS,exp,31,↑,down,↓,1.9923662999935914,False,45,-1,0,14
Y2-S2-134M23,3,390,PS,exp,43,←,left,←,0.5847238000133075,True,46,-1,0,14
Y2-S2-134M23,3,391,PS,exp,32,→,no_key,no_letter,-1.0,False,46,-1,0,14
Y2-S2-134M23,3,392,PS,exp,50,↓,no_key,no_letter,-1.0,False,47,-1,0,14
Y2-S2-134M23,3,393,PS,exp,34,←,no_key,no_letter,-1.0,False,48,-1,0,14
Y2-S2-134M23,3,394,PS,exp,43,↑,up,↑,1.04916670001694,True,49,-1,0,14
Y2-S2-134M23,3,395,PS,exp,42,→,right,→,0.6344442999979947,True,49,-1,0,14
Y2-S2-134M23,3,396,PS,exp,46,←,no_key,no_letter,-1.0,False,49,-1,0,14
Y2-S2-134M23,3,397,PS,exp,39,↑,right,→,0.1508417000004556,False,50,-1,0,14
Y2-S2-134M23,3,398,PS,exp,35,←,left,←,0.468012000026647,True,51,-1,0,14
Y2-S2-134M23,3,399,PS,exp,30,↑,up,↑,0.6344533000083175,True,51,-1,0,14
Y2-S2-134M23,3,400,PS,exp,39,←,left,←,0.45100169998477213,True,51,1,1,15
Y2-S2-134M23,3,401,PS,exp,46,↓,down,↓,0.4844276999938302,True,50,1,0,15
Y2-S2-134M23,3,402,PS,exp,46,→,right,→,0.8171197999909054,True,50,1,0,15
Y2-S2-134M23,3,403,PS,exp,32,↑,no_key,no_letter,-1.0,False,50,-1,1,16
Y2-S2-134M23,4,404,AS,intra_train,28,→,right,→,0.567738499987172,True,45,-,-,-
Y2-S2-134M23,4,405,AS,intra_train,25,↓,no_key,no_letter,-1.0,False,45,-,-,-
Y2-S2-134M23,4,406,AS,intra_train,27,←,no_key,no_letter,-1.0,False,45,-,-,-
Y2-S2-134M23,4,407,AS,intra_train,39,↑,right,→,1.554197400022531,False,45,-,-,-
Y2-S2-134M23,4,408,AS,intra_train,46,→,left,←,0.6010505000012927,False,45,-,-,-
Y2-S2-134M23,4,409,AS,exp,28,↓,down,↓,0.5169157999916933,True,30,0,0,0
Y2-S2-134M23,4,410,AS,exp,25,→,no_key,no_letter,-1.0,False,30,-1,0,0
Y2-S2-134M23,4,411,AS,exp,40,↓,no_key,no_letter,-1.0,False,31,-1,0,0
Y2-S2-134M23,4,412,AS,exp,27,→,right,→,0.9138902999984566,True,32,-1,0,0
Y2-S2-134M23,4,413,AS,exp,47,↓,down,↓,1.0852973000146449,True,32,-1,0,0
Y2-S2-134M23,4,414,AS,exp,48,←,right,→,0.5008600000001024,False,32,-1,0,0
Y2-S2-134M23,4,415,AS,exp,44,↓,down,↓,0.4344394000072498,True,33,-1,0,0
Y2-S2-134M23,4,416,AS,exp,46,→,right,→,0.6005326999875251,True,33,-1,0,0
Y2-S2-134M23,4,417,AS,exp,29,↓,down,↓,1.2370247000071686,True,33,1,1,1
Y2-S2-134M23,4,418,AS,exp,29,↑,up,↑,0.8091631999996025,True,32,1,0,1
Y2-S2-134M23,4,419,AS,exp,49,←,left,←,0.8204060000134632,True,32,1,0,1
Y2-S2-134M23,4,420,AS,exp,45,↑,up,↑,0.7635552999854553,True,32,1,0,1
Y2-S2-134M23,4,421,AS,exp,28,↓,up,↑,1.6486000000149943,False,31,-1,1,2
Y2-S2-134M23,4,422,AS,exp,46,←,left,←,0.7038088999979664,True,32,-1,0,2
Y2-S2-134M23,4,423,AS,exp,30,↑,right,→,1.2368542000185698,False,32,-1,0,2
Y2-S2-134M23,4,424,AS,exp,45,←,left,←,0.6338279000192415,True,33,-1,0,2
Y2-S2-134M23,4,425,AS,exp,38,↑,up,↑,0.732129799987888,True,33,-1,0,2
Y2-S2-134M23,4,426,AS,exp,48,←,left,←,0.8066675000009127,True,33,1,1,3
Y2-S2-134M23,4,427,AS,exp,41,↓,down,↓,0.7189243999891914,True,32,1,0,3
Y2-S2-134M23,4,428,AS,exp,47,→,right,→,0.9620837999973446,True,32,1,0,3
Y2-S2-134M23,4,429,AS,exp,40,↓,down,↓,0.45090690001961775,True,32,1,0,3
Y2-S2-134M23,4,430,AS,exp,50,→,right,→,1.6933520000020508,True,31,1,0,3
Y2-S2-134M23,4,431,AS,exp,37,↑,right,→,2.1074855999904685,False,31,-1,1,4
Y2-S2-134M23,4,432,AS,exp,46,←,left,←,1.6503689999808557,True,32,-1,0,4
Y2-S2-134M23,4,433,AS,exp,40,↓,down,↓,0.48464169999351725,True,32,-1,0,4
Y2-S2-134M23,4,434,AS,exp,44,←,left,←,0.6673759999976028,True,32,1,1,5
Y2-S2-134M23,4,435,AS,exp,50,→,right,→,0.8649142000067513,True,31,1,0,5
Y2-S2-134M23,4,436,AS,exp,30,↓,down,↓,0.912035300018033,True,31,1,0,5
Y2-S2-134M23,4,437,AS,exp,26,→,right,→,0.6507953999971505,True,31,1,0,5
Y2-S2-134M23,4,438,AS,exp,35,↓,down,↓,0.38428359999670647,True,30,1,0,5
Y2-S2-134M23,4,439,AS,exp,32,→,right,→,0.6340884000237565,True,30,1,0,5
Y2-S2-134M23,4,440,AS,exp,45,↓,down,↓,0.7834818999981508,True,30,1,0,5
Y2-S2-134M23,4,441,AS,exp,31,↑,up,↑,0.7603939999826252,True,29,1,0,5
Y2-S2-134M23,4,442,AS,exp,46,↓,right,→,0.5506180999800563,False,29,-1,1,6
Y2-S2-134M23,4,443,AS,exp,48,←,left,←,0.8563760999822989,True,30,-1,0,6
Y2-S2-134M23,4,444,AS,exp,36,↑,up,↑,0.7184439999982715,True,30,-1,0,6
Y2-S2-134M23,4,445,AS,exp,28,↓,down,↓,0.8539210000017192,True,30,1,1,7
Y2-S2-134M23,4,446,AS,exp,30,↑,down,↓,1.3819230999797583,False,29,-1,1,8
Y2-S2-134M23,4,447,AS,exp,45,→,right,→,1.6787447999813594,True,30,-1,0,8
Y2-S2-134M23,4,448,AS,exp,33,←,left,←,0.7581365999940317,True,30,-1,0,8
Y2-S2-134M23,4,449,AS,exp,26,→,down,↓,1.840318299975479,False,30,-1,0,8
Y2-S2-134M23,4,450,AS,exp,47,↓,no_key,no_letter,-1.0,False,31,-1,0,8
Y2-S2-134M23,4,451,AS,exp,33,←,right,→,0.45097940001869574,False,32,-1,0,8
Y2-S2-134M23,4,452,AS,exp,36,↓,down,↓,0.6840393999882508,True,33,-1,0,8
Y2-S2-134M23,4,453,AS,exp,40,→,right,→,0.6503718000021763,True,33,-1,0,8
Y2-S2-134M23,4,454,AS,exp,34,←,left,←,0.41755160002503544,True,33,1,1,9
Y2-S2-134M23,4,455,AS,exp,28,→,right,→,0.5841641000006348,True,32,1,0,9
Y2-S2-134M23,4,456,AS,exp,50,↓,down,↓,1.3276677999820095,True,32,1,0,9
Y2-S2-134M23,4,457,AS,exp,34,→,right,→,0.5504755000001751,True,32,1,0,9
Y2-S2-134M23,4,458,AS,exp,47,↓,down,↓,0.7457757999945898,True,31,1,0,9
Y2-S2-134M23,4,459,AS,exp,48,←,right,→,0.48424099999829195,False,31,-1,1,10
Y2-S2-134M23,4,460,AS,exp,30,↓,down,↓,0.6672306000255048,True,32,-1,0,10
Y2-S2-134M23,4,461,AS,exp,35,←,left,←,0.567221100005554,True,32,-1,0,10
Y2-S2-134M23,4,462,AS,exp,49,↑,up,↑,0.733989800006384,True,32,1,1,11
Y2-S2-134M23,4,463,AS,exp,50,→,right,→,1.1387469000183046,True,31,1,0,11
Y2-S2-134M23,4,464,AS,exp,37,←,left,←,0.7850789000221994,True,31,1,0,11
Y2-S2-134M23,4,465,AS,exp,49,↑,up,↑,0.6006750999949872,True,31,1,0,11
Y2-S2-134M23,4,466,AS,exp,48,↓,down,↓,0.8331322000012733,True,30,1,0,11
Y2-S2-134M23,4,467,AS,exp,42,←,left,←,0.633957999991253,True,30,1,0,11
Y2-S2-134M23,4,468,AS,exp,31,↑,up,↑,1.1638206999923568,True,30,1,0,11
Y2-S2-134M23,4,469,AS,exp,28,→,right,→,0.7974556999979541,True,29,1,0,11
Y2-S2-134M23,4,470,AS,exp,48,↑,up,↑,0.5005717000167351,True,29,1,0,11
Y2-S2-134M23,4,471,AS,exp,49,←,left,←,0.9627822000184096,True,29,1,0,11
Y2-S2-134M23,4,472,AS,exp,32,↓,down,↓,0.6610419999924488,True,28,1,0,11
Y2-S2-134M23,4,473,AS,exp,49,←,left,←,0.6004415999923367,True,28,1,0,11
Y2-S2-134M23,4,474,AS,exp,48,↑,up,↑,0.517305999994278,True,28,1,0,11
Y2-S2-134M23,4,475,AS,exp,33,←,left,←,0.6879396000003908,True,27,1,0,11
Y2-S2-134M23,4,476,AS,exp,32,↓,down,↓,0.6855816000024788,True,27,1,0,11
Y2-S2-134M23,4,477,AS,exp,41,←,left,←,0.7758108000271022,True,27,1,0,11
Y2-S2-134M23,4,478,AS,exp,49,→,right,→,0.8025813999993261,True,26,1,0,11
Y2-S2-134M23,4,479,AS,exp,37,←,no_key,no_letter,-1.0,False,26,-1,1,12
Y2-S2-134M23,4,480,AS,exp,25,↓,no_key,no_letter,-1.0,False,27,-1,0,12
Y2-S2-134M23,4,481,AS,exp,31,→,right,→,0.6775882999936584,True,28,-1,0,12
Y2-S2-134M23,4,482,AS,exp,25,←,left,←,0.6421860999835189,True,28,-1,0,12
Y2-S2-134M23,4,483,AS,exp,46,↑,up,↑,1.5368924000067636,True,28,1,1,13
Y2-S2-134M23,4,484,AS,exp,44,→,right,→,0.704910700005712,True,27,1,0,13
Y2-S2-134M23,4,485,AS,exp,25,↓,down,↓,0.7631420999823604,True,27,1,0,13
Y2-S2-134M23,4,486,AS,exp,45,←,left,←,0.46740239998325706,True,27,1,0,13
Y2-S2-134M23,4,487,AS,exp,42,↓,down,↓,0.6886922999983653,True,26,1,0,13
Y2-S2-134M23,4,488,AS,exp,47,←,down,↓,1.186291699996218,False,26,-1,1,14
Y2-S2-134M23,4,489,AS,exp,40,↑,up,↑,0.4838074999861419,True,27,-1,0,14
Y2-S2-134M23,4,490,AS,exp,36,←,left,←,0.8668210000032559,True,27,-1,0,14
Y2-S2-134M23,4,491,AS,exp,25,↓,down,↓,1.3900588000251446,True,27,1,1,15
Y2-S2-134M23,4,492,AS,exp,38,←,left,←,0.5173572000057902,True,26,1,0,15
Y2-S2-134M23,4,493,AS,exp,44,→,right,→,0.6680106999992859,True,26,1,0,15
Y2-S2-134M23,4,494,AS,exp,35,↓,down,↓,0.46706779999658465,True,26,1,0,15
Y2-S2-134M23,4,495,AS,exp,35,→,right,→,0.8299560999730602,True,25,1,0,15
Y2-S2-134M23,4,496,AS,exp,42,↑,up,↑,0.8963805999956094,True,25,1,0,15
Y2-S2-134M23,4,497,AS,exp,41,→,right,→,0.5504110000038054,True,25,1,0,15
Y2-S2-134M23,4,498,AS,exp,32,↑,up,↑,0.8323711999983061,True,24,1,0,15
Y2-S2-134M23,4,499,AS,exp,35,↓,right,→,1.1212756000168156,False,24,-1,1,16
Y2-S2-134M23,5,500,AS,intra_train,37,↑,up,↑,0.5674545000074431,True,45,-,-,-
Y2-S2-134M23,5,501,AS,intra_train,26,←,left,←,0.8841416999930516,True,45,-,-,-
Y2-S2-134M23,5,502,AS,intra_train,38,↓,down,↓,0.8672714999993332,True,45,-,-,-
Y2-S2-134M23,5,503,AS,intra_train,45,→,right,→,0.4842705000191927,True,45,-,-,-
Y2-S2-134M23,5,504,AS,intra_train,25,←,left,←,0.9388772000093013,True,45,-,-,-
Y2-S2-134M23,5,505,AS,exp,29,↑,up,↑,0.48382090000086464,True,30,0,0,0
Y2-S2-134M23,5,506,AS,exp,34,→,up,↑,1.9531433999945875,False,30,-1,0,0
Y2-S2-134M23,5,507,AS,exp,41,↑,up,↑,0.6343630999908783,True,31,-1,0,0
Y2-S2-134M23,5,508,AS,exp,29,→,right,→,0.7325152000121307,True,31,-1,0,0
Y2-S2-134M23,5,509,AS,exp,45,↓,down,↓,0.8517681999946944,True,31,1,1,1
Y2-S2-134M23,5,510,AS,exp,43,↑,up,↑,0.6341900999832433,True,30,1,0,1
Y2-S2-134M23,5,511,AS,exp,38,→,right,→,0.7997155000048224,True,30,1,0,1
Y2-S2-134M23,5,512,AS,exp,37,↓,down,↓,0.6172312999842688,True,30,1,0,1
Y2-S2-134M23,5,513,AS,exp,44,↑,up,↑,0.7272482000116725,True,29,1,0,1
Y2-S2-134M23,5,514,AS,exp,43,↓,down,↓,0.6808056000154465,True,29,1,0,1
Y2-S2-134M23,5,515,AS,exp,33,←,left,←,0.6643794999981765,True,29,1,0,1
Y2-S2-134M23,5,516,AS,exp,47,→,right,→,0.43430520000401884,True,28,1,0,1
Y2-S2-134M23,5,517,AS,exp,39,←,left,←,0.7532718000002205,True,28,1,0,1
Y2-S2-134M23,5,518,AS,exp,47,↑,up,↑,0.5668678999936674,True,28,1,0,1
Y2-S2-134M23,5,519,AS,exp,33,←,right,→,0.8142157999973278,False,27,-1,1,2
Y2-S2-134M23,5,520,AS,exp,41,↑,up,↑,0.7889340000110678,True,28,-1,0,2
Y2-S2-134M23,5,521,AS,exp,42,→,right,→,0.7764022000192199,True,28,-1,0,2
Y2-S2-134M23,5,522,AS,exp,39,↓,down,↓,0.550811099994462,True,28,1,1,3
Y2-S2-134M23,5,523,AS,exp,30,→,right,→,0.6550829999905545,True,27,1,0,3
Y2-S2-134M23,5,524,AS,exp,41,↓,down,↓,0.4339582000102382,True,27,1,0,3
Y2-S2-134M23,5,525,AS,exp,41,→,right,→,0.6426755000138655,True,27,1,0,3
Y2-S2-134M23,5,526,AS,exp,36,↓,down,↓,0.7131402000086382,True,26,1,0,3
Y2-S2-134M23,5,527,AS,exp,46,↑,up,↑,0.500684700004058,True,26,1,0,3
Y2-S2-134M23,5,528,AS,exp,39,↓,down,↓,1.1142006999871228,True,26,1,0,3
Y2-S2-134M23,5,529,AS,exp,30,→,right,→,0.7005433999875095,True,25,1,0,3
Y2-S2-134M23,5,530,AS,exp,39,←,left,←,0.772335200017551,True,25,1,0,3
Y2-S2-134M23,5,531,AS,exp,39,→,right,→,1.1822982999728993,True,25,1,0,3
Y2-S2-134M23,5,532,AS,exp,40,↓,up,↑,0.9612431999994442,False,24,-1,1,4
Y2-S2-134M23,5,533,AS,exp,48,↑,up,↑,0.6752098000142723,True,25,-1,0,4
Y2-S2-134M23,5,534,AS,exp,41,←,left,←,0.9004277999920305,True,25,-1,0,4
Y2-S2-134M23,5,535,AS,exp,48,↑,up,↑,0.8401289000175893,True,25,1,1,5
Y2-S2-134M23,5,536,AS,exp,27,→,right,→,0.6195934000134002,True,24,1,0,5
Y2-S2-134M23,5,537,AS,exp,33,↓,down,↓,0.769898500002455,True,24,1,0,5
Y2-S2-134M23,5,538,AS,exp,26,→,right,→,0.628397299995413,True,24,1,0,5
Y2-S2-134M23,5,539,AS,exp,32,↑,up,↑,0.8758094999939203,True,23,1,0,5
Y2-S2-134M23,5,540,AS,exp,35,↓,down,↓,0.6859526000043843,True,23,1,0,5
Y2-S2-134M23,5,541,AS,exp,27,↑,down,↓,0.850823799992213,False,23,-1,1,6
Y2-S2-134M23,5,542,AS,exp,49,↓,down,↓,0.5007631999906152,True,24,-1,0,6
Y2-S2-134M23,5,543,AS,exp,50,←,left,←,0.7668879000120796,True,24,-1,0,6
Y2-S2-134M23,5,544,AS,exp,34,↑,up,↑,0.46757350000552833,True,24,1,1,7
Y2-S2-134M23,5,545,AS,exp,38,↓,down,↓,0.6755507999914698,True,23,1,0,7
Y2-S2-134M23,5,546,AS,exp,29,←,down,↓,1.0300238000054378,False,23,-1,1,8
Y2-S2-134M23,5,547,AS,exp,45,↓,down,↓,0.6394812999933492,True,24,-1,0,8
Y2-S2-134M23,5,548,AS,exp,48,→,right,→,0.6326063000014983,True,24,-1,0,8
Y2-S2-134M23,5,549,AS,exp,42,↑,up,↑,0.5338106999988668,True,24,1,1,9
Y2-S2-134M23,5,550,AS,exp,38,↓,down,↓,0.4840275000024121,True,23,1,0,9
Y2-S2-134M23,5,551,AS,exp,31,↑,down,↓,1.0366863000090234,False,23,-1,1,10
Y2-S2-134M23,5,552,AS,exp,41,↓,down,↓,0.6629498999973293,True,24,-1,0,10
Y2-S2-134M23,5,553,AS,exp,36,→,right,→,0.5866061999986414,True,24,-1,0,10
Y2-S2-134M23,5,554,AS,exp,31,←,left,←,0.7366654000070412,True,24,1,1,11
Y2-S2-134M23,5,555,AS,exp,50,↓,down,↓,0.6385507000086363,True,23,1,0,11
Y2-S2-134M23,5,556,AS,exp,37,→,right,→,0.5913318000093568,True,23,1,0,11
Y2-S2-134M23,5,557,AS,exp,30,↓,down,↓,0.4668268999957945,True,23,1,0,11
Y2-S2-134M23,5,558,AS,exp,35,↑,right,→,0.6909905000065919,False,22,-1,1,12
Y2-S2-134M23,5,559,AS,exp,27,←,left,←,1.2580028000229504,True,23,-1,0,12
Y2-S2-134M23,5,560,AS,exp,34,↓,down,↓,0.8306200999941211,True,23,-1,0,12
Y2-S2-134M23,5,561,AS,exp,43,←,left,←,0.6495044999755919,True,23,1,1,13
Y2-S2-134M23,5,562,AS,exp,42,↑,down,↓,0.6748170999926515,False,22,-1,1,14
Y2-S2-134M23,5,563,AS,exp,25,→,right,→,0.6624375999963377,True,23,-1,0,14
Y2-S2-134M23,5,564,AS,exp,46,←,left,←,0.5930913000192959,True,23,-1,0,14
Y2-S2-134M23,5,565,AS,exp,37,↑,up,↑,0.7815067000046838,True,23,1,1,15
Y2-S2-134M23,5,566,AS,exp,27,↓,down,↓,0.7537323999858927,True,22,1,0,15
Y2-S2-134M23,5,567,AS,exp,38,→,right,→,0.5004839000175707,True,22,1,0,15
Y2-S2-134M23,5,568,AS,exp,45,←,right,→,1.2782029999943916,False,22,-1,1,16
Y2-S2-134M23,6,569,PS,intra_train,32,↑,up,↑,0.5104827000177465,True,15,-,-,-
Y2-S2-134M23,6,570,PS,intra_train,41,←,left,←,0.5765476000087801,True,15,-,-,-
Y2-S2-134M23,6,571,PS,intra_train,40,↑,up,↑,0.4691019000019878,True,15,-,-,-
Y2-S2-134M23,6,572,PS,intra_train,42,→,right,→,0.5700949000020046,True,15,-,-,-
Y2-S2-134M23,6,573,PS,intra_train,44,←,left,←,0.4479068999935407,True,15,-,-,-
Y2-S2-134M23,6,574,PS,exp,49,↑,up,↑,0.44866980001097545,True,10,0,0,0
Y2-S2-134M23,6,575,PS,exp,40,←,left,←,0.6849738000018988,True,10,0,0,0
Y2-S2-134M23,6,576,PS,exp,46,→,right,→,0.5249651999911293,True,10,1,0,0
Y2-S2-134M23,6,577,PS,exp,33,←,left,←,0.46635370000149123,True,9,1,0,0
Y2-S2-134M23,6,578,PS,exp,41,↓,down,↓,0.6942822000128217,True,9,1,0,0
Y2-S2-134M23,6,579,PS,exp,32,←,down,↓,1.0555188999860547,False,9,-1,1,1
Y2-S2-134M23,6,580,PS,exp,41,↑,up,↑,0.4824494000058621,True,10,-1,0,1
Y2-S2-134M23,6,581,PS,exp,37,↓,down,↓,0.4863515000033658,True,10,-1,0,1
Y2-S2-134M23,6,582,PS,exp,43,↑,up,↑,0.4993863000127021,True,10,1,1,2
Y2-S2-134M23,6,583,PS,exp,46,←,left,←,0.499949299992295,True,9,1,0,2
Y2-S2-134M23,6,584,PS,exp,50,↑,up,↑,0.5164010000007693,True,9,1,0,2
Y2-S2-134M23,6,585,PS,exp,29,→,right,→,0.5479358000156935,True,9,1,0,2
Y2-S2-134M23,6,586,PS,exp,30,←,left,←,0.44950049999170005,True,8,1,0,2
Y2-S2-134M23,6,587,PS,exp,44,↓,down,↓,0.46043100001406856,True,8,1,0,2
Y2-S2-134M23,6,588,PS,exp,42,↑,down,↓,1.0240511999872979,False,8,-1,1,3
Y2-S2-134M23,6,589,PS,exp,28,↓,no_key,no_letter,-1.0,False,9,-1,0,3
Y2-S2-134M23,6,590,PS,exp,25,←,no_key,no_letter,-1.0,False,10,-1,0,3
Y2-S2-134M23,6,591,PS,exp,45,→,down,↓,0.966123799997149,False,11,-1,0,3
Y2-S2-134M23,6,592,PS,exp,39,←,left,←,0.4503596000140533,True,12,-1,0,3
Y2-S2-134M23,6,593,PS,exp,39,↑,no_key,no_letter,-1.0,False,12,-1,0,3
Y2-S2-134M23,6,594,PS,exp,28,←,right,→,1.216754499997478,False,13,-1,0,3
Y2-S2-134M23,6,595,PS,exp,33,↑,no_key,no_letter,-1.0,False,14,-1,0,3
Y2-S2-134M23,6,596,PS,exp,39,↓,no_key,no_letter,-1.0,False,15,-1,0,3
Y2-S2-134M23,6,597,PS,exp,40,←,left,←,1.1149837000120897,True,16,-1,0,3
Y2-S2-134M23,6,598,PS,exp,37,↑,up,↑,0.48603660002117977,True,16,-1,0,3
Y2-S2-134M23,6,599,PS,exp,39,→,right,→,0.5249771999951918,True,16,1,1,4
Y2-S2-134M23,6,600,PS,exp,42,↑,up,↑,0.4207827000063844,True,15,1,0,4
Y2-S2-134M23,6,601,PS,exp,48,→,right,→,0.5397409000142943,True,15,1,0,4
Y2-S2-134M23,6,602,PS,exp,43,↓,down,↓,0.5120198999939021,True,15,1,0,4
Y2-S2-134M23,6,603,PS,exp,39,↑,up,↑,0.4624063999799546,True,14,1,0,4
Y2-S2-134M23,6,604,PS,exp,40,↓,down,↓,0.6178393999871332,True,14,1,0,4
Y2-S2-134M23,6,605,PS,exp,28,↑,up,↑,0.46446749998722225,True,14,1,0,4
Y2-S2-134M23,6,606,PS,exp,49,←,left,←,0.7988119999936316,True,13,1,0,4
Y2-S2-134M23,6,607,PS,exp,40,↓,down,↓,0.6731104000064079,True,13,1,0,4
Y2-S2-134M23,6,608,PS,exp,33,→,right,→,0.398860200017225,True,13,1,0,4
Y2-S2-134M23,6,609,PS,exp,43,↑,down,↓,0.8013945999846328,False,12,-1,1,5
Y2-S2-134M23,6,610,PS,exp,26,←,left,←,0.49083260001498275,True,13,-1,0,5
Y2-S2-134M23,6,611,PS,exp,41,↑,up,↑,0.5073758000216912,True,13,-1,0,5
Y2-S2-134M23,6,612,PS,exp,44,→,right,→,0.5602701999887358,True,13,1,1,6
Y2-S2-134M23,6,613,PS,exp,50,←,left,←,0.5560536000120919,True,12,1,0,6
Y2-S2-134M23,6,614,PS,exp,29,↓,down,↓,0.4519131999986712,True,12,1,0,6
Y2-S2-134M23,6,615,PS,exp,30,→,right,→,0.4506282999936957,True,12,1,0,6
Y2-S2-134M23,6,616,PS,exp,34,←,no_key,no_letter,-1.0,False,11,-1,1,7
Y2-S2-134M23,6,617,PS,exp,34,↓,no_key,no_letter,-1.0,False,12,-1,0,7
Y2-S2-134M23,6,618,PS,exp,42,→,no_key,no_letter,-1.0,False,13,-1,0,7
Y2-S2-134M23,6,619,PS,exp,47,↑,down,↓,1.0505639000039082,False,14,-1,0,7
Y2-S2-134M23,6,620,PS,exp,43,→,down,↓,0.4232911000144668,False,15,-1,0,7
Y2-S2-134M23,6,621,PS,exp,49,↑,no_key,no_letter,-1.0,False,16,-1,0,7
Y2-S2-134M23,6,622,PS,exp,29,←,no_key,no_letter,-1.0,False,17,-1,0,7
Y2-S2-134M23,6,623,PS,exp,36,↓,no_key,no_letter,-1.0,False,18,-1,0,7
Y2-S2-134M23,6,624,PS,exp,49,↑,no_key,no_letter,-1.0,False,19,-1,0,7
Y2-S2-134M23,6,625,PS,exp,44,↓,no_key,no_letter,-1.0,False,20,-1,0,7
Y2-S2-134M23,6,626,PS,exp,26,←,down,↓,1.7503066000062972,False,21,-1,0,7
Y2-S2-134M23,6,627,PS,exp,27,→,no_key,no_letter,-1.0,False,22,-1,0,7
Y2-S2-134M23,6,628,PS,exp,30,↓,no_key,no_letter,-1.0,False,23,-1,0,7
Y2-S2-134M23,6,629,PS,exp,45,↑,no_key,no_letter,-1.0,False,24,-1,0,7
Y2-S2-134M23,6,630,PS,exp,30,↓,down,↓,0.9479891999799293,True,25,-1,0,7
Y2-S2-134M23,6,631,PS,exp,36,←,no_key,no_letter,-1.0,False,25,-1,0,7
Y2-S2-134M23,6,632,PS,exp,50,↑,no_key,no_letter,-1.0,False,26,-1,0,7
Y2-S2-134M23,6,633,PS,exp,32,↓,no_key,no_letter,-1.0,False,27,-1,0,7
Y2-S2-134M23,6,634,PS,exp,32,→,no_key,no_letter,-1.0,False,28,-1,0,7
Y2-S2-134M23,6,635,PS,exp,29,↓,no_key,no_letter,-1.0,False,29,-1,0,7
Y2-S2-134M23,6,636,PS,exp,33,→,right,→,0.5006450000219047,True,30,-1,0,7
Y2-S2-134M23,6,637,PS,exp,28,←,left,←,0.5504859999928158,True,30,-1,0,7
Y2-S2-134M23,6,638,PS,exp,48,↓,down,↓,0.40123360001598485,True,30,1,1,8
Y2-S2-134M23,6,639,PS,exp,32,←,left,←,0.4678428999905009,True,29,1,0,8
Y2-S2-134M23,6,640,PS,exp,34,↓,left,←,0.5837832000106573,False,29,-1,1,9
Y2-S2-134M23,6,641,PS,exp,26,←,left,←,0.43449660000624135,True,30,-1,0,9
Y2-S2-134M23,6,642,PS,exp,33,↑,up,↑,0.4679798999859486,True,30,-1,0,9
Y2-S2-134M23,6,643,PS,exp,35,←,left,←,0.4012374999874737,True,30,1,1,10
Y2-S2-134M23,6,644,PS,exp,27,↓,down,↓,0.3509162000264041,True,29,1,0,10
Y2-S2-134M23,6,645,PS,exp,32,→,right,→,0.3841763000236824,True,29,1,0,10
Y2-S2-134M23,6,646,PS,exp,35,↓,down,↓,0.43459570000413805,True,29,1,0,10
Y2-S2-134M23,6,647,PS,exp,46,→,right,→,0.6574752000160515,True,28,1,0,10
Y2-S2-134M23,6,648,PS,exp,39,↓,left,←,0.4504032999975607,False,28,-1,1,11
Y2-S2-134M23,6,649,PS,exp,45,←,left,←,0.48410540001350455,True,29,-1,0,11
Y2-S2-134M23,6,650,PS,exp,27,→,right,→,0.7903783999790903,True,29,-1,0,11
Y2-S2-134M23,6,651,PS,exp,37,↑,up,↑,0.6175898999790661,True,29,1,1,12
Y2-S2-134M23,6,652,PS,exp,39,↓,down,↓,0.46716790000209585,True,28,1,0,12
Y2-S2-134M23,6,653,PS,exp,36,↑,up,↑,0.4671900999965146,True,28,1,0,12
Y2-S2-134M23,6,654,PS,exp,27,←,left,←,0.43455159998848103,True,28,1,0,12
Y2-S2-134M23,6,655,PS,exp,49,→,right,→,0.43379530002130195,True,27,1,0,12
Y2-S2-134M23,6,656,PS,exp,28,↓,down,↓,0.4341648000117857,True,27,1,0,12
Y2-S2-134M23,6,657,PS,exp,40,↑,up,↑,0.4505129999888595,True,27,1,0,12
Y2-S2-134M23,6,658,PS,exp,43,↓,down,↓,0.5004966000269633,True,26,1,0,12
Y2-S2-134M23,6,659,PS,exp,48,←,left,←,0.4840228999964893,True,26,1,0,12
Y2-S2-134M23,6,660,PS,exp,35,→,right,→,0.636113699991256,True,26,1,0,12
Y2-S2-134M23,6,661,PS,exp,38,↓,no_key,no_letter,-1.0,False,25,-1,1,13
Y2-S2-134M23,6,662,PS,exp,33,→,right,→,0.43410700000822544,True,26,-1,0,13
Y2-S2-134M23,6,663,PS,exp,30,←,no_key,no_letter,-1.0,False,26,-1,0,13
Y2-S2-134M23,6,664,PS,exp,45,↓,down,↓,0.3675940000102855,True,27,-1,0,13
Y2-S2-134M23,6,665,PS,exp,42,↑,down,↓,0.4013619000033941,False,27,-1,0,13
Y2-S2-134M23,6,666,PS,exp,47,↓,down,↓,1.1389208000036888,True,28,-1,0,13
Y2-S2-134M23,6,667,PS,exp,50,↑,up,↑,0.5173875000036787,True,28,-1,0,13
Y2-S2-134M23,6,668,PS,exp,45,←,left,←,0.48397689999546856,True,28,1,1,14
Y2-S2-134M23,6,669,PS,exp,30,↑,up,↑,0.4676418999733869,True,27,1,0,14
Y2-S2-134M23,6,670,PS,exp,41,↓,down,↓,0.46750309999333695,True,27,1,0,14
Y2-S2-134M23,6,671,PS,exp,42,→,right,→,0.4507417999848258,True,27,1,0,14
Y2-S2-134M23,6,672,PS,exp,28,↓,down,↓,0.41717030000290833,True,26,1,0,14
Y2-S2-134M23,6,673,PS,exp,45,↑,up,↑,0.41736540000420064,True,26,1,0,14
Y2-S2-134M23,6,674,PS,exp,25,→,right,→,0.48474420001730323,True,26,1,0,14
Y2-S2-134M23,6,675,PS,exp,28,←,left,←,0.5338413999998011,True,25,1,0,14
Y2-S2-134M23,6,676,PS,exp,39,↑,up,↑,0.43327929999213666,True,25,1,0,14
Y2-S2-134M23,6,677,PS,exp,43,→,right,→,0.4338352000049781,True,25,1,0,14
Y2-S2-134M23,6,678,PS,exp,42,↓,down,↓,0.5007629000174347,True,24,1,0,14
Y2-S2-134M23,6,679,PS,exp,45,↑,down,↓,0.50067810001201,False,24,-1,1,15
Y2-S2-134M23,6,680,PS,exp,33,↓,down,↓,1.1292394000047352,True,25,-1,0,15
Y2-S2-134M23,6,681,PS,exp,31,→,right,→,0.4006766999955289,True,25,-1,0,15
Y2-S2-134M23,6,682,PS,exp,50,↑,up,↑,0.43388779999804683,True,25,1,1,16
Y2-S2-134M23,7,683,PS,intra_train,28,←,right,→,0.5536866000038572,False,15,-,-,-
Y2-S2-134M23,7,684,PS,intra_train,38,↑,up,↑,0.4264231999986805,True,15,-,-,-
Y2-S2-134M23,7,685,PS,intra_train,34,→,right,→,0.44930129998829216,True,15,-,-,-
Y2-S2-134M23,7,686,PS,intra_train,50,←,left,←,0.5772223999956623,True,15,-,-,-
Y2-S2-134M23,7,687,PS,intra_train,45,→,right,→,1.010359600011725,True,15,-,-,-
Y2-S2-134M23,7,688,PS,exp,32,←,left,←,0.4236835999763571,True,10,0,0,0
Y2-S2-134M23,7,689,PS,exp,35,→,right,→,0.4826385000196751,True,10,0,0,0
Y2-S2-134M23,7,690,PS,exp,35,↑,right,→,0.018107300013070926,False,10,-1,0,0
Y2-S2-134M23,7,691,PS,exp,50,←,right,→,0.017482099996414036,False,11,-1,0,0
Y2-S2-134M23,7,692,PS,exp,49,→,right,→,0.3174562999920454,True,12,-1,0,0
Y2-S2-134M23,7,693,PS,exp,29,↓,right,→,0.21753110000281595,False,12,-1,0,0
Y2-S2-134M23,7,694,PS,exp,39,←,left,←,1.4734816999989562,True,13,-1,0,0
Y2-S2-134M23,7,695,PS,exp,48,↓,left,←,0.15102540000225417,False,13,-1,0,0
Y2-S2-134M23,7,696,PS,exp,34,↑,up,↑,0.5380980999907479,True,14,-1,0,0
Y2-S2-134M23,7,697,PS,exp,31,↓,down,↓,0.8200051999883726,True,14,-1,0,0
Y2-S2-134M23,7,698,PS,exp,43,↑,up,↑,0.4151391999912448,True,14,1,1,1
Y2-S2-134M23,7,699,PS,exp,29,↓,down,↓,0.39005489999544807,True,13,1,0,1
Y2-S2-134M23,7,700,PS,exp,32,↑,up,↑,0.3342471999931149,True,13,1,0,1
Y2-S2-134M23,7,701,PS,exp,26,↓,down,↓,1.0091881999978796,True,13,1,0,1
Y2-S2-134M23,7,702,PS,exp,38,←,right,→,0.3973649999825284,False,12,-1,1,2
Y2-S2-134M23,7,703,PS,exp,43,↓,down,↓,0.39015930000459775,True,13,-1,0,2
Y2-S2-134M23,7,704,PS,exp,44,←,left,←,0.586864599987166,True,13,-1,0,2
Y2-S2-134M23,7,705,PS,exp,37,↓,down,↓,0.3340957000036724,True,13,1,1,3
Y2-S2-134M23,7,706,PS,exp,28,→,right,→,0.40569449999020435,True,12,1,0,3
Y2-S2-134M23,7,707,PS,exp,28,↓,down,↓,0.7562663999851793,True,12,1,0,3
Y2-S2-134M23,7,708,PS,exp,39,←,down,↓,0.3172744999756105,False,12,-1,1,4
Y2-S2-134M23,7,709,PS,exp,33,↓,down,↓,0.8822938000084832,True,13,-1,0,4
Y2-S2-134M23,7,710,PS,exp,40,↑,up,↑,0.41625149999163114,True,13,-1,0,4
Y2-S2-134M23,7,711,PS,exp,27,↓,down,↓,0.44424280000384897,True,13,1,1,5
Y2-S2-134M23,7,712,PS,exp,48,↑,up,↑,0.4856285999994725,True,12,1,0,5
Y2-S2-134M23,7,713,PS,exp,35,↓,right,→,0.9001277999777813,False,12,-1,1,6
Y2-S2-134M23,7,714,PS,exp,38,→,down,↓,0.9201686999876983,False,13,-1,0,6
Y2-S2-134M23,7,715,PS,exp,37,↑,down,↓,0.9073762000189163,False,14,-1,0,6
Y2-S2-134M23,7,716,PS,exp,45,←,left,←,0.532708900020225,True,15,-1,0,6
Y2-S2-134M23,7,717,PS,exp,38,↓,down,↓,1.4725245999870822,True,15,-1,0,6
Y2-S2-134M23,7,718,PS,exp,48,→,right,→,0.9970474000147078,True,15,1,1,7
Y2-S2-134M23,7,719,PS,exp,42,↑,up,↑,0.514346799987834,True,14,1,0,7
Y2-S2-134M23,7,720,PS,exp,40,→,right,→,0.41664250000030734,True,14,1,0,7
Y2-S2-134M23,7,721,PS,exp,34,↓,up,↑,0.8821726000169292,False,14,-1,1,8
Y2-S2-134M23,7,722,PS,exp,43,→,right,→,0.367047099978663,True,15,-1,0,8
Y2-S2-134M23,7,723,PS,exp,25,←,left,←,0.4578464000078384,True,15,-1,0,8
Y2-S2-134M23,7,724,PS,exp,30,→,right,→,0.4750386000087019,True,15,1,1,9
Y2-S2-134M23,7,725,PS,exp,44,←,left,←,0.9249590999970678,True,14,1,0,9
Y2-S2-134M23,7,726,PS,exp,50,↑,up,↑,0.48861369999940507,True,14,1,0,9
Y2-S2-134M23,7,727,PS,exp,46,←,left,←,0.4042174000060186,True,14,1,0,9
Y2-S2-134M23,7,728,PS,exp,38,→,right,→,0.5444367000018246,True,13,1,0,9
Y2-S2-134M23,7,729,PS,exp,32,↑,left,←,0.6898521000111941,False,13,-1,1,10
Y2-S2-134M23,7,730,PS,exp,38,→,right,→,0.6205955000186805,True,14,-1,0,10
Y2-S2-134M23,7,731,PS,exp,43,↓,down,↓,0.8555105999985244,True,14,-1,0,10
Y2-S2-134M23,7,732,PS,exp,42,←,left,←,0.4508219000126701,True,14,1,1,11
Y2-S2-134M23,7,733,PS,exp,26,↑,up,↑,0.5412493000039831,True,13,1,0,11
Y2-S2-134M23,7,734,PS,exp,50,→,right,→,0.4682369999936782,True,13,1,0,11
Y2-S2-134M23,7,735,PS,exp,48,↑,up,↑,0.4598497999832034,True,13,1,0,11
Y2-S2-134M23,7,736,PS,exp,37,→,right,→,0.45055139999021776,True,12,1,0,11
Y2-S2-134M23,7,737,PS,exp,25,←,left,←,0.39336879999609664,True,12,1,0,11
Y2-S2-134M23,7,738,PS,exp,29,↑,up,↑,0.6399341000069398,True,12,1,0,11
Y2-S2-134M23,7,739,PS,exp,45,→,right,→,0.4345622999826446,True,11,1,0,11
Y2-S2-134M23,7,740,PS,exp,30,↑,up,↑,0.45049260000814684,True,11,1,0,11
Y2-S2-134M23,7,741,PS,exp,32,↓,down,↓,0.6287714000209235,True,11,1,0,11
Y2-S2-134M23,7,742,PS,exp,27,→,down,↓,0.8073940000031143,False,10,-1,1,12
Y2-S2-134M23,7,743,PS,exp,37,←,left,←,0.5782151999883354,True,11,-1,0,12
Y2-S2-134M23,7,744,PS,exp,29,↑,down,↓,0.635366200003773,False,11,-1,0,12
Y2-S2-134M23,7,745,PS,exp,26,→,right,→,0.5782802999892738,True,12,-1,0,12
Y2-S2-134M23,7,746,PS,exp,40,↑,up,↑,0.5447274999751244,True,12,-1,0,12
Y2-S2-134M23,7,747,PS,exp,36,←,left,←,0.5017136000096798,True,12,1,1,13
Y2-S2-134M23,7,748,PS,exp,29,↑,up,↑,0.5684574999904726,True,11,1,0,13
Y2-S2-134M23,7,749,PS,exp,43,↓,down,↓,0.4780982999945991,True,11,1,0,13
Y2-S2-134M23,7,750,PS,exp,37,←,left,←,0.565134600008605,True,11,1,0,13
Y2-S2-134M23,7,751,PS,exp,33,↑,down,↓,0.6130673000006936,False,10,-1,1,14
Y2-S2-134M23,7,752,PS,exp,28,↓,down,↓,0.5703841999929864,True,11,-1,0,14
Y2-S2-134M23,7,753,PS,exp,32,↑,up,↑,0.49213689999305643,True,11,-1,0,14
Y2-S2-134M23,7,754,PS,exp,30,→,right,→,0.4467790999915451,True,11,1,1,15
Y2-S2-134M23,7,755,PS,exp,25,↓,down,↓,0.5361795000208076,True,10,1,0,15
Y2-S2-134M23,7,756,PS,exp,41,↑,up,↑,0.48518990000593476,True,10,1,0,15
Y2-S2-134M23,7,757,PS,exp,42,↓,down,↓,0.5158201000012923,True,10,1,0,15
Y2-S2-134M23,7,758,PS,exp,40,↑,down,↓,0.633494800014887,False,9,-1,1,16
Y2-S2-134M23,8,759,AS,intra_train,41,→,up,↑,0.4345974999887403,False,45,-,-,-
Y2-S2-134M23,8,760,AS,intra_train,28,↓,down,↓,1.0332220999989659,True,45,-,-,-
Y2-S2-134M23,8,761,AS,intra_train,26,→,right,→,0.6847207999962848,True,45,-,-,-
Y2-S2-134M23,8,762,AS,intra_train,28,↑,up,↑,0.7842532000213396,True,45,-,-,-
Y2-S2-134M23,8,763,AS,intra_train,31,↓,down,↓,0.8672764000075404,True,45,-,-,-
Y2-S2-134M23,8,764,AS,exp,39,→,right,→,0.79651250000461,True,30,0,0,0
Y2-S2-134M23,8,765,AS,exp,40,↑,down,↓,1.8757400000176858,False,30,-1,0,0
Y2-S2-134M23,8,766,AS,exp,29,→,right,→,1.2529123999993317,True,31,-1,0,0
Y2-S2-134M23,8,767,AS,exp,29,↑,up,↑,0.7803366000007372,True,31,-1,0,0
Y2-S2-134M23,8,768,AS,exp,45,→,up,↑,0.21776820000377484,False,31,-1,0,0
Y2-S2-134M23,8,769,AS,exp,33,↑,no_key,no_letter,-1.0,False,32,-1,0,0
Y2-S2-134M23,8,770,AS,exp,36,→,no_key,no_letter,-1.0,False,33,-1,0,0
Y2-S2-134M23,8,771,AS,exp,26,←,no_key,no_letter,-1.0,False,34,-1,0,0
Y2-S2-134M23,8,772,AS,exp,39,→,right,→,1.7048225000035018,True,35,-1,0,0
Y2-S2-134M23,8,773,AS,exp,50,↓,right,→,1.7965725999965798,False,35,-1,0,0
Y2-S2-134M23,8,774,AS,exp,44,→,right,→,0.6505475000012666,True,36,-1,0,0
Y2-S2-134M23,8,775,AS,exp,48,↑,up,↑,0.9516882999741938,True,36,-1,0,0
Y2-S2-134M23,8,776,AS,exp,35,←,left,←,1.1881369999900926,True,36,1,1,1
Y2-S2-134M23,8,777,AS,exp,33,→,down,↓,0.9625624000036623,False,35,-1,1,2
Y2-S2-134M23,8,778,AS,exp,27,←,down,↓,0.5180371000024024,False,36,-1,0,2
Y2-S2-134M23,8,779,AS,exp,30,→,down,↓,0.16774900001473725,False,37,-1,0,2
Y2-S2-134M23,8,780,AS,exp,39,↓,down,↓,0.08439679999719374,True,38,-1,0,2
Y2-S2-134M23,8,781,AS,exp,50,→,down,↓,0.5844213000091258,False,38,-1,0,2
Y2-S2-134M23,8,782,AS,exp,34,↓,down,↓,0.0011721999908331782,True,39,-1,0,2
Y2-S2-134M23,8,783,AS,exp,45,←,down,↓,1.499030800012406,False,39,-1,0,2
Y2-S2-134M23,8,784,AS,exp,25,→,right,→,0.5177176000142936,True,40,-1,0,2
Y2-S2-134M23,8,785,AS,exp,28,↑,up,↑,1.206109099992318,True,40,-1,0,2
Y2-S2-134M23,8,786,AS,exp,44,→,right,→,0.5844874999893364,True,40,1,1,3
Y2-S2-134M23,8,787,AS,exp,40,↑,up,↑,0.7508126999891829,True,39,1,0,3
Y2-S2-134M23,8,788,AS,exp,42,↓,down,↓,0.9036707999766804,True,39,1,0,3
Y2-S2-134M23,8,789,AS,exp,38,↑,up,↑,0.41786710001179017,True,39,1,0,3
Y2-S2-134M23,8,790,AS,exp,35,→,right,→,0.6339423999888822,True,38,1,0,3
Y2-S2-134M23,8,791,AS,exp,44,↓,down,↓,0.6839424999780022,True,38,1,0,3
Y2-S2-134M23,8,792,AS,exp,34,↑,up,↑,0.43462229997385293,True,38,1,0,3
Y2-S2-134M23,8,793,AS,exp,47,←,right,→,0.5338596000219695,False,37,-1,1,4
Y2-S2-134M23,8,794,AS,exp,27,↓,down,↓,0.7338953000144102,True,38,-1,0,4
Y2-S2-134M23,8,795,AS,exp,25,↑,up,↑,0.6673190000001341,True,38,-1,0,4
Y2-S2-134M23,8,796,AS,exp,33,←,right,→,0.5010007000237238,False,38,-1,0,4
Y2-S2-134M23,8,797,AS,exp,39,↓,down,↓,0.6672613000264391,True,39,-1,0,4
Y2-S2-134M23,8,798,AS,exp,27,↑,up,↑,0.6673590999853332,True,39,-1,0,4
Y2-S2-134M23,8,799,AS,exp,40,→,right,→,0.6502806000062265,True,39,1,1,5
Y2-S2-134M23,8,800,AS,exp,25,↓,down,↓,0.45119290001457557,True,38,1,0,5
Y2-S2-134M23,8,801,AS,exp,50,←,right,→,0.601071699988097,False,38,-1,1,6
Y2-S2-134M23,8,802,AS,exp,45,↑,up,↑,0.6674470999860205,True,39,-1,0,6
Y2-S2-134M23,8,803,AS,exp,49,←,left,←,0.7836272999993525,True,39,-1,0,6
Y2-S2-134M23,8,804,AS,exp,32,↓,down,↓,0.7342061999952421,True,39,1,1,7
Y2-S2-134M23,8,805,AS,exp,31,←,left,←,0.48450200000661425,True,38,1,0,7
Y2-S2-134M23,8,806,AS,exp,38,→,right,→,0.7007947000092827,True,38,1,0,7
Y2-S2-134M23,8,807,AS,exp,25,←,left,←,0.6838296999922022,True,38,1,0,7
Y2-S2-134M23,8,808,AS,exp,29,→,right,→,0.6341046999732498,True,37,1,0,7
Y2-S2-134M23,8,809,AS,exp,32,↑,up,↑,1.3465594000008423,True,37,1,0,7
Y2-S2-134M23,8,810,AS,exp,38,←,left,←,0.7173987999849487,True,37,1,0,7
Y2-S2-134M23,8,811,AS,exp,30,↑,up,↑,0.6176399999822024,True,36,1,0,7
Y2-S2-134M23,8,812,AS,exp,39,↓,down,↓,0.6004919999977574,True,36,1,0,7
Y2-S2-134M23,8,813,AS,exp,39,↑,up,↑,0.617569399997592,True,36,1,0,7
Y2-S2-134M23,8,814,AS,exp,37,→,right,→,0.6674593999923673,True,35,1,0,7
Y2-S2-134M23,8,815,AS,exp,45,↓,up,↑,0.683974700019462,False,35,-1,1,8
Y2-S2-134M23,8,816,AS,exp,33,←,left,←,0.6506205000041518,True,36,-1,0,8
Y2-S2-134M23,8,817,AS,exp,27,↑,up,↑,1.2879470000043511,True,36,-1,0,8
Y2-S2-134M23,8,818,AS,exp,28,←,left,←,0.4510900000168476,True,36,1,1,9
Y2-S2-134M23,8,819,AS,exp,33,↑,up,↑,0.501086000003852,True,35,1,0,9
Y2-S2-134M23,8,820,AS,exp,44,←,left,←,0.46774270001333207,True,35,1,0,9
Y2-S2-134M23,8,821,AS,exp,35,↑,up,↑,0.3844800000078976,True,35,1,0,9
Y2-S2-134M23,8,822,AS,exp,46,←,left,←,0.8071303999749944,True,34,1,0,9
Y2-S2-134M23,8,823,AS,exp,30,→,right,→,1.210010799986776,True,34,1,0,9
Y2-S2-134M23,8,824,AS,exp,38,↑,up,↑,0.6175152999931015,True,34,1,0,9
Y2-S2-134M23,8,825,AS,exp,49,←,left,←,0.6007250999973621,True,33,1,0,9
Y2-S2-134M23,8,826,AS,exp,26,↑,up,↑,1.201959900005022,True,33,1,0,9
Y2-S2-134M23,8,827,AS,exp,33,→,left,←,0.5837086999963503,False,33,-1,1,10
Y2-S2-134M23,8,828,AS,exp,31,←,left,←,0.6837268999952357,True,34,-1,0,10
Y2-S2-134M23,8,829,AS,exp,50,↓,down,↓,0.7864574999839533,True,34,-1,0,10
Y2-S2-134M23,8,830,AS,exp,42,↑,up,↑,0.6338523000013083,True,34,1,1,11
Y2-S2-134M23,8,831,AS,exp,34,↓,down,↓,0.7550188000022899,True,33,1,0,11
Y2-S2-134M23,8,832,AS,exp,45,↑,up,↑,0.6838714999903459,True,33,1,0,11
Y2-S2-134M23,8,833,AS,exp,37,←,left,←,0.66731499999878,True,33,1,0,11
Y2-S2-134M23,8,834,AS,exp,43,→,right,→,0.6172757999738678,True,32,1,0,11
Y2-S2-134M23,8,835,AS,exp,35,↑,up,↑,1.5689067000057548,True,32,1,0,11
Y2-S2-134M23,8,836,AS,exp,48,←,left,←,0.4680800000205636,True,32,1,0,11
Y2-S2-134M23,8,837,AS,exp,36,↑,up,↑,0.8259607999934815,True,31,1,0,11
Y2-S2-134M23,8,838,AS,exp,37,→,right,→,0.7201287999923807,True,31,1,0,11
Y2-S2-134M23,8,839,AS,exp,45,↓,down,↓,0.8539907999802381,True,31,1,0,11
Y2-S2-134M23,8,840,AS,exp,35,→,right,→,1.2266399000072852,True,30,1,0,11
Y2-S2-134M23,8,841,AS,exp,28,↓,down,↓,0.7076162000012118,True,30,1,0,11
Y2-S2-134M23,8,842,AS,exp,47,←,left,←,0.6946210000023711,True,30,1,0,11
Y2-S2-134M23,8,843,AS,exp,25,↑,up,↑,1.1955555999884382,True,29,1,0,11
Y2-S2-134M23,8,844,AS,exp,39,←,left,←,0.6544442000158597,True,29,1,0,11
Y2-S2-134M23,8,845,AS,exp,25,↓,down,↓,0.818965600017691,True,29,1,0,11
Y2-S2-134M23,8,846,AS,exp,39,→,right,→,1.2119074999936856,True,28,1,0,11
Y2-S2-134M23,8,847,AS,exp,48,↓,down,↓,0.9547701999836136,True,28,1,0,11
Y2-S2-134M23,8,848,AS,exp,37,→,left,←,0.5337398999836296,False,28,-1,1,12
Y2-S2-134M23,8,849,AS,exp,43,↓,down,↓,0.6899002999998629,True,29,-1,0,12
Y2-S2-134M23,8,850,AS,exp,39,↑,up,↑,0.5337373000220396,True,29,-1,0,12
Y2-S2-134M23,8,851,AS,exp,49,←,left,←,0.5838559000112582,True,29,1,1,13
Y2-S2-134M23,8,852,AS,exp,41,↓,right,→,0.9216704999853391,False,28,-1,1,14
Y2-S2-134M23,8,853,AS,exp,28,↑,down,↓,0.9364296999992803,False,29,-1,0,14
Y2-S2-134M23,8,854,AS,exp,25,↓,up,↑,0.7656074000115041,False,30,-1,0,14
Y2-S2-134M23,8,855,AS,exp,42,↑,up,↑,0.6869369999913033,True,31,-1,0,14
Y2-S2-134M23,8,856,AS,exp,35,←,left,←,0.7643524000013713,True,31,-1,0,14
Y2-S2-134M23,8,857,AS,exp,48,→,right,→,0.9173841000010725,True,31,1,1,15
Y2-S2-134M23,8,858,AS,exp,30,↓,down,↓,0.6006450999993831,True,30,1,0,15
Y2-S2-134M23,8,859,AS,exp,31,↑,down,↓,0.7151862000173423,False,30,-1,1,16
