PART_ID,Block_no,Trial_no,Block_type,Trial_type,CSI,Stim_letter,Key_pressed,letter_choose,Rt,Corr,Stimulus Time,Level,Reversal,Revs_count
Y2-S2-188M25,1,1,PS,train,38,↑,no_key,no_letter,-1,False,30,-,-,-
Y2-S2-188M25,1,2,PS,train,49,←,left,←,1.04678879980929,True,30,-,-,-
Y2-S2-188M25,1,3,PS,train,30,↓,down,↓,1.1004989000503,True,30,-,-,-
Y2-S2-188M25,1,4,PS,train,32,←,left,←,2.00699460017495,True,30,-,-,-
Y2-S2-188M25,1,5,PS,train,30,↓,down,↓,0.789695600047708,True,30,-,-,-
Y2-S2-188M25,1,6,PS,train,36,→,no_key,no_letter,-1,False,30,-,-,-
Y2-S2-188M25,1,7,PS,train,41,↑,left,←,1.01901409984566,False,30,-,-,-
Y2-S2-188M25,1,8,PS,train,34,↓,down,↓,1.18417580006644,True,30,-,-,-
Y2-S2-188M25,1,9,PS,train,43,→,right,→,0.771417600102723,True,30,-,-,-
Y2-S2-188M25,1,10,PS,train,26,←,left,←,0.567374099977315,True,30,-,-,-
Y2-S2-188M25,2,11,AS,train,37,↓,down,↓,0.634429899975658,True,45,-,-,-
Y2-S2-188M25,2,12,AS,train,47,↑,up,↑,0.551046199863777,True,45,-,-,-
Y2-S2-188M25,2,13,AS,train,46,↓,down,↓,0.43476440012455,True,45,-,-,-
Y2-S2-188M25,2,14,AS,train,25,↑,down,↓,0.668068800121546,False,45,-,-,-
Y2-S2-188M25,2,15,AS,train,43,→,right,→,0.701136500108987,True,45,-,-,-
Y2-S2-188M25,2,16,AS,train,37,↓,down,↓,0.701039599953219,True,45,-,-,-
Y2-S2-188M25,2,17,AS,train,47,↑,up,↑,0.7175622000359,True,45,-,-,-
Y2-S2-188M25,2,18,AS,train,45,→,right,→,0.500961600104347,True,45,-,-,-
Y2-S2-188M25,2,19,AS,train,46,↓,up,↑,0.517746000085026,False,45,-,-,-
Y2-S2-188M25,2,20,AS,train,31,↑,up,↑,0.567585399840027,True,45,-,-,-
Y2-S2-188M25,-,21,PS,adaptive,46,←,left,←,0.586132600205019,True,10,0,0,0
Y2-S2-188M25,-,22,PS,adaptive,27,↓,down,↓,1.17840999993496,True,10,0,0,0
Y2-S2-188M25,-,23,PS,adaptive,47,→,right,→,0.467704799957573,True,10,1,0,0
Y2-S2-188M25,-,24,PS,adaptive,27,↑,left,←,0.802238499978557,False,9,-1,1,1
Y2-S2-188M25,-,25,PS,adaptive,44,→,left,←,1.15002700011246,False,10,-1,0,1
Y2-S2-188M25,-,26,PS,adaptive,46,←,left,←,0.58563830005005,True,11,-1,0,1
Y2-S2-188M25,-,27,PS,adaptive,39,→,right,→,0.479296899866313,True,11,-1,0,1
Y2-S2-188M25,-,28,PS,adaptive,42,↓,left,←,0.728839799994603,False,11,-1,0,1
Y2-S2-188M25,-,29,PS,adaptive,34,↑,up,↑,0.619225800037384,True,12,-1,0,1
Y2-S2-188M25,-,30,PS,adaptive,37,→,right,→,0.562499899882823,True,12,-1,0,1
Y2-S2-188M25,-,31,PS,adaptive,37,↓,down,↓,0.937085899990052,True,12,1,1,2
Y2-S2-188M25,-,32,PS,adaptive,48,→,left,←,0.759821200044826,False,11,-1,1,3
Y2-S2-188M25,-,33,PS,adaptive,41,↓,left,←,0.751191199989989,False,12,-1,0,3
Y2-S2-188M25,-,34,PS,adaptive,36,→,right,→,0.513822600012645,True,13,-1,0,3
Y2-S2-188M25,-,35,PS,adaptive,28,↓,right,→,0.799518999876455,False,13,-1,0,3
Y2-S2-188M25,-,36,PS,adaptive,40,→,right,→,0.533061599824578,True,14,-1,0,3
Y2-S2-188M25,-,37,PS,adaptive,30,↓,down,↓,0.672665799967945,True,14,-1,0,3
Y2-S2-188M25,-,38,PS,adaptive,42,←,left,←,0.476157699944451,True,14,1,1,4
Y2-S2-188M25,-,39,AS,adaptive,40,↑,up,↑,0.748618199955672,True,20,0,0,0
Y2-S2-188M25,-,40,AS,adaptive,42,→,right,→,0.53174200002104,True,20,0,0,0
Y2-S2-188M25,-,41,AS,adaptive,37,↑,up,↑,0.63451849995181,True,20,1,0,0
Y2-S2-188M25,-,42,AS,adaptive,45,←,left,←,0.535994800040498,True,19,1,0,0
Y2-S2-188M25,-,43,AS,adaptive,26,→,right,→,0.744480599882081,True,19,1,0,0
Y2-S2-188M25,-,44,AS,adaptive,50,↑,up,↑,0.609249499859288,True,19,1,0,0
Y2-S2-188M25,-,45,AS,adaptive,36,→,right,→,0.400552400154993,True,18,1,0,0
Y2-S2-188M25,-,46,AS,adaptive,30,↓,left,←,0.721108500147238,False,18,-1,1,1
Y2-S2-188M25,-,47,AS,adaptive,34,←,left,←,0.603714500088245,True,19,-1,0,1
Y2-S2-188M25,-,48,AS,adaptive,38,↑,up,↑,0.487665600143373,True,19,-1,0,1
Y2-S2-188M25,-,49,AS,adaptive,38,→,right,→,1.19128470006399,True,19,1,1,2
Y2-S2-188M25,-,50,AS,adaptive,49,↑,up,↑,0.433919899864122,True,18,1,0,2
Y2-S2-188M25,-,51,AS,adaptive,31,←,right,→,0.61945699993521,False,18,-1,1,3
Y2-S2-188M25,-,52,AS,adaptive,50,↑,up,↑,0.488116499967873,True,19,-1,0,3
Y2-S2-188M25,-,53,AS,adaptive,37,↓,down,↓,0.483889500144869,True,19,-1,0,3
Y2-S2-188M25,-,54,AS,adaptive,42,→,right,→,0.805170000065118,True,19,1,1,4
Y2-S2-188M25,1,55,PS,intra_train,47,↑,up,↑,0.569432500051335,True,19,-,-,-
Y2-S2-188M25,1,56,PS,intra_train,25,↓,down,↓,1.2212497999426,True,19,-,-,-
Y2-S2-188M25,1,57,PS,intra_train,39,←,left,←,0.569714199984446,True,19,-,-,-
Y2-S2-188M25,1,58,PS,intra_train,50,↑,right,→,0.786763299955055,False,19,-,-,-
Y2-S2-188M25,1,59,PS,intra_train,36,↓,down,↓,0.645949499914423,True,19,-,-,-
Y2-S2-188M25,1,60,PS,exp,41,→,left,←,0.67187949991785,False,13,-1,0,0
Y2-S2-188M25,1,61,PS,exp,26,←,left,←,0.43569519999437,True,14,-1,0,0
Y2-S2-188M25,1,62,PS,exp,44,→,right,→,0.41178850014694,True,14,-1,0,0
Y2-S2-188M25,1,63,PS,exp,49,↓,down,↓,0.617858499987051,True,14,1,1,1
Y2-S2-188M25,1,64,PS,exp,48,←,left,←,0.466899400111288,True,13,1,0,1
Y2-S2-188M25,1,65,PS,exp,35,↓,left,←,0.711843699915335,False,13,-1,1,2
Y2-S2-188M25,1,66,PS,exp,39,→,right,→,0.451489199884236,True,14,-1,0,2
Y2-S2-188M25,1,67,PS,exp,29,↑,left,←,1.34536159993149,False,14,-1,0,2
Y2-S2-188M25,1,68,PS,exp,29,↓,down,↓,0.485505299875513,True,15,-1,0,2
Y2-S2-188M25,1,69,PS,exp,39,↑,down,↓,0.819207099964842,False,15,-1,0,2
Y2-S2-188M25,1,70,PS,exp,25,→,left,←,0.496015600161627,False,16,-1,0,2
Y2-S2-188M25,1,71,PS,exp,40,↑,up,↑,0.499420799780637,True,17,-1,0,2
Y2-S2-188M25,1,72,PS,exp,47,↓,down,↓,0.708992799976841,True,17,-1,0,2
Y2-S2-188M25,1,73,PS,exp,30,←,left,←,0.560477999970317,True,17,1,1,3
Y2-S2-188M25,1,74,PS,exp,32,↑,up,↑,0.595319099957123,True,16,1,0,3
Y2-S2-188M25,1,75,PS,exp,42,↓,down,↓,0.51278719981201,True,16,1,0,3
Y2-S2-188M25,1,76,PS,exp,31,→,right,→,0.677757800091058,True,16,1,0,3
Y2-S2-188M25,1,77,PS,exp,50,↑,up,↑,0.662733800010756,True,15,1,0,3
Y2-S2-188M25,1,78,PS,exp,44,↓,left,←,0.945272499928251,False,15,-1,1,4
Y2-S2-188M25,1,79,PS,exp,34,←,left,←,0.476106400135905,True,16,-1,0,4
Y2-S2-188M25,1,80,PS,exp,31,↑,up,↑,0.553175200009719,True,16,-1,0,4
Y2-S2-188M25,1,81,PS,exp,46,→,right,→,0.43942019995302,True,16,1,1,5
Y2-S2-188M25,1,82,PS,exp,36,←,left,←,0.45374620007351,True,15,1,0,5
Y2-S2-188M25,1,83,PS,exp,49,↓,down,↓,0.627719499869272,True,15,1,0,5
Y2-S2-188M25,1,84,PS,exp,42,↑,up,↑,0.540809700032696,True,15,1,0,5
Y2-S2-188M25,1,85,PS,exp,41,←,left,←,0.453120200196281,True,14,1,0,5
Y2-S2-188M25,1,86,PS,exp,50,→,right,→,0.420030300039798,True,14,1,0,5
Y2-S2-188M25,1,87,PS,exp,46,↓,down,↓,0.716099899960682,True,14,1,0,5
Y2-S2-188M25,1,88,PS,exp,42,←,left,←,0.413513300009072,True,13,1,0,5
Y2-S2-188M25,1,89,PS,exp,34,↓,left,←,0.903900699922815,False,13,-1,1,6
Y2-S2-188M25,1,90,PS,exp,27,→,right,→,0.557711699977517,True,14,-1,0,6
Y2-S2-188M25,1,91,PS,exp,33,←,right,→,0.495819899952039,False,14,-1,0,6
Y2-S2-188M25,1,92,PS,exp,31,→,right,→,0.438248100224882,True,15,-1,0,6
Y2-S2-188M25,1,93,PS,exp,41,↓,left,←,0.952123699942604,False,15,-1,0,6
Y2-S2-188M25,1,94,PS,exp,45,→,right,→,0.530454199993983,True,16,-1,0,6
Y2-S2-188M25,1,95,PS,exp,33,↑,up,↑,0.550039099995047,True,16,-1,0,6
Y2-S2-188M25,1,96,PS,exp,50,←,right,→,0.668976400047541,False,16,-1,0,6
Y2-S2-188M25,1,97,PS,exp,34,↑,up,↑,0.583629400003701,True,17,-1,0,6
Y2-S2-188M25,1,98,PS,exp,27,→,right,→,0.789853400085121,True,17,-1,0,6
Y2-S2-188M25,1,99,PS,exp,26,↓,right,→,1.38220270001329,False,17,-1,0,6
Y2-S2-188M25,1,100,PS,exp,49,←,left,←,0.683042299933732,True,18,-1,0,6
Y2-S2-188M25,1,101,PS,exp,29,↓,down,↓,0.564712699968368,True,18,-1,0,6
Y2-S2-188M25,1,102,PS,exp,25,←,left,←,0.548497300129384,True,18,1,1,7
Y2-S2-188M25,1,103,PS,exp,41,↑,left,←,0.868803700199351,False,17,-1,1,8
Y2-S2-188M25,1,104,PS,exp,33,←,left,←,0.469385800184682,True,18,-1,0,8
Y2-S2-188M25,1,105,PS,exp,32,↓,down,↓,0.691812200006098,True,18,-1,0,8
Y2-S2-188M25,1,106,PS,exp,49,→,left,←,0.521167099941522,False,18,-1,0,8
Y2-S2-188M25,1,107,PS,exp,29,↑,up,↑,0.631052900105715,True,19,-1,0,8
Y2-S2-188M25,1,108,PS,exp,46,←,left,←,0.605622400064021,True,19,-1,0,8
Y2-S2-188M25,1,109,PS,exp,42,↓,down,↓,0.567480599973351,True,19,1,1,9
Y2-S2-188M25,1,110,PS,exp,27,→,left,←,0.40052010002546,False,18,-1,1,10
Y2-S2-188M25,1,111,PS,exp,49,↑,no_key,no_letter,-1,False,19,-1,0,10
Y2-S2-188M25,1,112,PS,exp,46,←,left,←,0.688441500067711,True,20,-1,0,10
Y2-S2-188M25,1,113,PS,exp,30,↓,down,↓,0.65413079992868,True,20,-1,0,10
Y2-S2-188M25,1,114,PS,exp,49,↑,up,↑,0.571441299980506,True,20,1,1,11
Y2-S2-188M25,1,115,PS,exp,38,↓,down,↓,0.648745100013912,True,19,1,0,11
Y2-S2-188M25,1,116,PS,exp,31,↑,up,↑,0.417254199972376,True,19,1,0,11
Y2-S2-188M25,1,117,PS,exp,32,→,right,→,0.417178199859336,True,19,1,0,11
Y2-S2-188M25,1,118,PS,exp,27,←,left,←,0.473319499986246,True,18,1,0,11
Y2-S2-188M25,1,119,PS,exp,50,↓,down,↓,0.764284000033513,True,18,1,0,11
Y2-S2-188M25,1,120,PS,exp,48,↑,left,←,0.367212099954486,False,18,-1,1,12
Y2-S2-188M25,1,121,PS,exp,38,→,right,→,0.530647400068119,True,19,-1,0,12
Y2-S2-188M25,1,122,PS,exp,34,↑,up,↑,0.914151600096375,True,19,-1,0,12
Y2-S2-188M25,1,123,PS,exp,27,←,left,←,0.450489799957722,True,19,1,1,13
Y2-S2-188M25,1,124,PS,exp,26,↑,up,↑,0.587828199844807,True,18,1,0,13
Y2-S2-188M25,1,125,PS,exp,45,←,left,←,0.516462000086904,True,18,1,0,13
Y2-S2-188M25,1,126,PS,exp,50,↓,down,↓,0.638192699989304,True,18,1,0,13
Y2-S2-188M25,1,127,PS,exp,47,↑,up,↑,0.654553900007159,True,17,1,0,13
Y2-S2-188M25,1,128,PS,exp,50,→,right,→,0.458590500056744,True,17,1,0,13
Y2-S2-188M25,1,129,PS,exp,27,↑,up,↑,0.588069299934432,True,17,1,0,13
Y2-S2-188M25,1,130,PS,exp,38,→,left,←,0.383610399905592,False,16,-1,1,14
Y2-S2-188M25,1,131,PS,exp,35,↑,up,↑,0.603950599906966,True,17,-1,0,14
Y2-S2-188M25,1,132,PS,exp,50,↓,down,↓,0.647005700040609,True,17,-1,0,14
Y2-S2-188M25,1,133,PS,exp,46,←,left,←,0.781423199921846,True,17,1,1,15
Y2-S2-188M25,1,134,PS,exp,47,↑,up,↑,0.511976999929175,True,16,1,0,15
Y2-S2-188M25,1,135,PS,exp,43,←,left,←,0.475711399922147,True,16,1,0,15
Y2-S2-188M25,1,136,PS,exp,34,→,right,→,0.522932299878448,True,16,1,0,15
Y2-S2-188M25,1,137,PS,exp,49,←,left,←,0.438262799987569,True,15,1,0,15
Y2-S2-188M25,1,138,PS,exp,36,→,right,→,0.697757200105116,True,15,1,0,15
Y2-S2-188M25,1,139,PS,exp,35,↓,down,↓,0.628266799962148,True,15,1,0,15
Y2-S2-188M25,1,140,PS,exp,25,→,right,→,0.428578600054607,True,14,1,0,15
Y2-S2-188M25,1,141,PS,exp,29,←,left,←,0.402258600108326,True,14,1,0,15
Y2-S2-188M25,1,142,PS,exp,45,→,right,→,0.801313699921593,True,14,1,0,15
Y2-S2-188M25,1,143,PS,exp,35,↓,right,→,0.696009000064805,False,13,-1,1,16
Y2-S2-188M25,2,144,AS,intra_train,31,←,left,←,0.637517799856141,True,27,-,-,-
Y2-S2-188M25,2,145,AS,intra_train,33,↑,up,↑,0.750562699977309,True,27,-,-,-
Y2-S2-188M25,2,146,AS,intra_train,37,→,right,→,1.51511949999258,True,27,-,-,-
Y2-S2-188M25,2,147,AS,intra_train,35,↑,up,↑,0.631588499993086,True,27,-,-,-
Y2-S2-188M25,2,148,AS,intra_train,41,→,right,→,0.466968900058419,True,27,-,-,-
Y2-S2-188M25,2,149,AS,exp,29,↓,down,↓,0.690715700155124,True,18,0,0,0
Y2-S2-188M25,2,150,AS,exp,48,←,left,←,0.584700200008228,True,18,0,0,0
Y2-S2-188M25,2,151,AS,exp,28,↓,down,↓,0.597622300032526,True,18,1,0,0
Y2-S2-188M25,2,152,AS,exp,49,←,left,←,0.478841299889609,True,17,1,0,0
Y2-S2-188M25,2,153,AS,exp,25,→,right,→,0.506861299974844,True,17,1,0,0
Y2-S2-188M25,2,154,AS,exp,27,←,right,→,0.95838089985773,False,17,-1,1,1
Y2-S2-188M25,2,155,AS,exp,50,↓,down,↓,1.79227859992534,True,18,-1,0,1
Y2-S2-188M25,2,156,AS,exp,44,←,left,←,0.642825099872425,True,18,-1,0,1
Y2-S2-188M25,2,157,AS,exp,35,↓,right,→,0.474275500047952,False,18,-1,0,1
Y2-S2-188M25,2,158,AS,exp,47,↑,up,↑,0.797392199980095,True,19,-1,0,1
Y2-S2-188M25,2,159,AS,exp,48,←,left,←,0.662170500028879,True,19,-1,0,1
Y2-S2-188M25,2,160,AS,exp,48,→,right,→,0.510023399954662,True,19,1,1,2
Y2-S2-188M25,2,161,AS,exp,32,↑,up,↑,0.558591099921614,True,18,1,0,2
Y2-S2-188M25,2,162,AS,exp,38,←,left,←,0.505119000095874,True,18,1,0,2
Y2-S2-188M25,2,163,AS,exp,39,↓,down,↓,0.912877399940044,True,18,1,0,2
Y2-S2-188M25,2,164,AS,exp,50,←,left,←,0.570598100079224,True,17,1,0,2
Y2-S2-188M25,2,165,AS,exp,48,↑,up,↑,0.551306399982423,True,17,1,0,2
Y2-S2-188M25,2,166,AS,exp,34,↓,down,↓,0.469249699963257,True,17,1,0,2
Y2-S2-188M25,2,167,AS,exp,30,↑,up,↑,0.62743359990418,True,16,1,0,2
Y2-S2-188M25,2,168,AS,exp,33,→,right,→,0.604690800188109,True,16,1,0,2
Y2-S2-188M25,2,169,AS,exp,28,↑,up,↑,0.454514699988067,True,16,1,0,2
Y2-S2-188M25,2,170,AS,exp,47,→,right,→,0.470573899801821,True,15,1,0,2
Y2-S2-188M25,2,171,AS,exp,26,↓,down,↓,0.511144599877298,True,15,1,0,2
Y2-S2-188M25,2,172,AS,exp,40,←,right,→,0.988609200110659,False,15,-1,1,3
Y2-S2-188M25,2,173,AS,exp,42,↓,down,↓,0.907273899996653,True,16,-1,0,3
Y2-S2-188M25,2,174,AS,exp,36,↑,up,↑,0.648211899911985,True,16,-1,0,3
Y2-S2-188M25,2,175,AS,exp,46,←,left,←,0.608622199855745,True,16,1,1,4
Y2-S2-188M25,2,176,AS,exp,35,→,right,→,0.594594300026074,True,15,1,0,4
Y2-S2-188M25,2,177,AS,exp,39,↓,down,↓,0.744477899977937,True,15,1,0,4
Y2-S2-188M25,2,178,AS,exp,30,←,right,→,0.77102839993313,False,15,-1,1,5
Y2-S2-188M25,2,179,AS,exp,29,↓,down,↓,0.477306199958548,True,16,-1,0,5
Y2-S2-188M25,2,180,AS,exp,49,↑,up,↑,1.28038370003924,True,16,-1,0,5
Y2-S2-188M25,2,181,AS,exp,30,←,left,←,0.624561300035566,True,16,1,1,6
Y2-S2-188M25,2,182,AS,exp,50,→,right,→,1.0405679999385,True,15,1,0,6
Y2-S2-188M25,2,183,AS,exp,35,↑,up,↑,0.566014099866152,True,15,1,0,6
Y2-S2-188M25,2,184,AS,exp,47,↓,down,↓,0.420610300032422,True,15,1,0,6
Y2-S2-188M25,2,185,AS,exp,45,→,right,→,0.841854100115597,True,14,1,0,6
Y2-S2-188M25,2,186,AS,exp,25,↓,down,↓,0.891514100134373,True,14,1,0,6
Y2-S2-188M25,2,187,AS,exp,40,→,right,→,0.735165700083599,True,14,1,0,6
Y2-S2-188M25,2,188,AS,exp,40,↓,down,↓,0.633934000041336,True,13,1,0,6
Y2-S2-188M25,2,189,AS,exp,28,←,right,→,0.541317200055346,False,13,-1,1,7
Y2-S2-188M25,2,190,AS,exp,41,↑,down,↓,0.755080400034785,False,14,-1,0,7
Y2-S2-188M25,2,191,AS,exp,46,→,right,→,0.467254800023511,True,15,-1,0,7
Y2-S2-188M25,2,192,AS,exp,26,↑,left,←,1.47234790003859,False,15,-1,0,7
Y2-S2-188M25,2,193,AS,exp,46,↓,down,↓,1.18975770007819,True,16,-1,0,7
Y2-S2-188M25,2,194,AS,exp,44,↑,up,↑,0.831839399877936,True,16,-1,0,7
Y2-S2-188M25,2,195,AS,exp,29,←,left,←,0.563818500144407,True,16,1,1,8
Y2-S2-188M25,2,196,AS,exp,37,↑,up,↑,0.502012399956584,True,15,1,0,8
Y2-S2-188M25,2,197,AS,exp,47,←,right,→,1.07410339987837,False,15,-1,1,9
Y2-S2-188M25,2,198,AS,exp,31,↑,no_key,no_letter,-1,False,16,-1,0,9
Y2-S2-188M25,2,199,AS,exp,50,←,left,←,0.481489300029352,True,17,-1,0,9
Y2-S2-188M25,2,200,AS,exp,49,→,right,→,0.450808800058439,True,17,-1,0,9
Y2-S2-188M25,2,201,AS,exp,39,↑,up,↑,0.598738099914044,True,17,1,1,10
Y2-S2-188M25,2,202,AS,exp,31,→,right,→,0.628569100052118,True,16,1,0,10
Y2-S2-188M25,2,203,AS,exp,31,↑,up,↑,0.823228199966252,True,16,1,0,10
Y2-S2-188M25,2,204,AS,exp,28,←,left,←,0.592292899964377,True,16,1,0,10
Y2-S2-188M25,2,205,AS,exp,49,→,right,→,0.589181300019845,True,15,1,0,10
Y2-S2-188M25,2,206,AS,exp,30,←,right,→,0.455741900019348,False,15,-1,1,11
Y2-S2-188M25,2,207,AS,exp,36,↓,down,↓,0.545566499931738,True,16,-1,0,11
Y2-S2-188M25,2,208,AS,exp,37,←,left,←,0.514397999970242,True,16,-1,0,11
Y2-S2-188M25,2,209,AS,exp,45,→,right,→,0.44568459992297,True,16,1,1,12
Y2-S2-188M25,2,210,AS,exp,45,←,left,←,0.451340100029483,True,15,1,0,12
Y2-S2-188M25,2,211,AS,exp,44,↑,down,↓,1.04162959987298,False,15,-1,1,13
Y2-S2-188M25,2,212,AS,exp,30,↓,down,↓,1.25441600009799,True,16,-1,0,13
Y2-S2-188M25,2,213,AS,exp,33,↑,down,↓,0.815144999884069,False,16,-1,0,13
Y2-S2-188M25,2,214,AS,exp,43,↓,up,↑,0.874564100056887,False,17,-1,0,13
Y2-S2-188M25,2,215,AS,exp,33,→,right,→,0.651573899900541,True,18,-1,0,13
Y2-S2-188M25,2,216,AS,exp,48,↑,up,↑,0.529184899991378,True,18,-1,0,13
Y2-S2-188M25,2,217,AS,exp,45,↓,down,↓,0.548206300009042,True,18,1,1,14
Y2-S2-188M25,2,218,AS,exp,44,↑,left,←,1.71837409981526,False,17,-1,1,15
Y2-S2-188M25,2,219,AS,exp,42,→,right,→,0.629665500018746,True,18,-1,0,15
Y2-S2-188M25,2,220,AS,exp,49,←,left,←,1.6376440001186,True,18,-1,0,15
Y2-S2-188M25,2,221,AS,exp,28,→,right,→,0.737305499846116,True,18,1,1,16
Y2-S2-188M25,3,222,AS,intra_train,32,↓,down,↓,0.533738699974492,True,27,-,-,-
Y2-S2-188M25,3,223,AS,intra_train,40,↑,up,↑,0.676930200075731,True,27,-,-,-
Y2-S2-188M25,3,224,AS,intra_train,33,→,right,→,0.401087599806488,True,27,-,-,-
Y2-S2-188M25,3,225,AS,intra_train,37,←,left,←,0.434019200038165,True,27,-,-,-
Y2-S2-188M25,3,226,AS,intra_train,38,→,right,→,1.23285460006446,True,27,-,-,-
Y2-S2-188M25,3,227,AS,exp,37,←,left,←,0.738657100126147,True,18,0,0,0
Y2-S2-188M25,3,228,AS,exp,45,↑,right,→,0.367176200030372,False,18,-1,0,0
Y2-S2-188M25,3,229,AS,exp,26,→,right,→,1.08379620010965,True,19,-1,0,0
Y2-S2-188M25,3,230,AS,exp,45,↑,up,↑,0.492573200026527,True,19,-1,0,0
Y2-S2-188M25,3,231,AS,exp,35,→,right,→,0.650466799968854,True,19,1,1,1
Y2-S2-188M25,3,232,AS,exp,48,↑,up,↑,0.551609000191093,True,18,1,0,1
Y2-S2-188M25,3,233,AS,exp,30,←,left,←,0.524320699973032,True,18,1,0,1
Y2-S2-188M25,3,234,AS,exp,50,→,right,→,0.645031799795106,True,18,1,0,1
Y2-S2-188M25,3,235,AS,exp,29,↑,up,↑,0.657468600198627,True,17,1,0,1
Y2-S2-188M25,3,236,AS,exp,33,→,right,→,0.383869000012055,True,17,1,0,1
Y2-S2-188M25,3,237,AS,exp,41,↑,up,↑,0.400605600094423,True,17,1,0,1
Y2-S2-188M25,3,238,AS,exp,46,↓,down,↓,0.638481899863109,True,16,1,0,1
Y2-S2-188M25,3,239,AS,exp,29,←,left,←,0.946463399799541,True,16,1,0,1
Y2-S2-188M25,3,240,AS,exp,47,→,right,→,0.649761999957264,True,16,1,0,1
Y2-S2-188M25,3,241,AS,exp,33,↑,no_key,no_letter,-1,False,15,-1,1,2
Y2-S2-188M25,3,242,AS,exp,45,→,right,→,0.579824500018731,True,16,-1,0,2
Y2-S2-188M25,3,243,AS,exp,28,↑,up,↑,0.78484719991684,True,16,-1,0,2
Y2-S2-188M25,3,244,AS,exp,28,↓,down,↓,0.920176499988884,True,16,1,1,3
Y2-S2-188M25,3,245,AS,exp,25,↑,right,→,0.383771300083026,False,15,-1,1,4
Y2-S2-188M25,3,246,AS,exp,26,↓,no_key,no_letter,-1,False,16,-1,0,4
Y2-S2-188M25,3,247,AS,exp,31,↑,up,↑,0.642530400073156,True,17,-1,0,4
Y2-S2-188M25,3,248,AS,exp,42,↓,down,↓,0.514878999907523,True,17,-1,0,4
Y2-S2-188M25,3,249,AS,exp,33,←,left,←,0.417933299904689,True,17,1,1,5
Y2-S2-188M25,3,250,AS,exp,35,→,right,→,0.490896100178361,True,16,1,0,5
Y2-S2-188M25,3,251,AS,exp,25,↑,up,↑,1.57993200002238,True,16,1,0,5
Y2-S2-188M25,3,252,AS,exp,48,↓,down,↓,0.546286000171676,True,16,1,0,5
Y2-S2-188M25,3,253,AS,exp,34,←,left,←,0.472612800076604,True,15,1,0,5
Y2-S2-188M25,3,254,AS,exp,49,↓,down,↓,0.543971600010991,True,15,1,0,5
Y2-S2-188M25,3,255,AS,exp,26,→,right,→,0.434707000153139,True,15,1,0,5
Y2-S2-188M25,3,256,AS,exp,39,←,left,←,1.55205169995315,True,14,1,0,5
Y2-S2-188M25,3,257,AS,exp,35,→,right,→,0.431590099819005,True,14,1,0,5
Y2-S2-188M25,3,258,AS,exp,25,↑,up,↑,1.0787545000203,True,14,1,0,5
Y2-S2-188M25,3,259,AS,exp,26,↓,left,←,1.16700029978529,False,13,-1,1,6
Y2-S2-188M25,3,260,AS,exp,30,←,left,←,0.426924500148743,True,14,-1,0,6
Y2-S2-188M25,3,261,AS,exp,38,↑,up,↑,0.486328900093213,True,14,-1,0,6
Y2-S2-188M25,3,262,AS,exp,40,→,right,→,0.886289600050077,True,14,1,1,7
Y2-S2-188M25,3,263,AS,exp,36,↑,up,↑,1.6582663001027,True,13,1,0,7
Y2-S2-188M25,3,264,AS,exp,28,←,left,←,1.05806289985776,True,13,1,0,7
Y2-S2-188M25,3,265,AS,exp,35,↓,down,↓,0.489685900043696,True,13,1,0,7
Y2-S2-188M25,3,266,AS,exp,38,→,left,←,0.612062900094315,False,12,-1,1,8
Y2-S2-188M25,3,267,AS,exp,27,↑,right,→,0.709652099991217,False,13,-1,0,8
Y2-S2-188M25,3,268,AS,exp,26,←,left,←,0.604612000053749,True,14,-1,0,8
Y2-S2-188M25,3,269,AS,exp,28,→,right,→,0.550469799898565,True,14,-1,0,8
Y2-S2-188M25,3,270,AS,exp,48,←,right,→,0.854985599871725,False,14,-1,0,8
Y2-S2-188M25,3,271,AS,exp,45,→,left,←,0.679837699979544,False,15,-1,0,8
Y2-S2-188M25,3,272,AS,exp,42,↑,up,↑,0.732337000081316,True,16,-1,0,8
Y2-S2-188M25,3,273,AS,exp,45,↓,down,↓,0.450775200035423,True,16,-1,0,8
Y2-S2-188M25,3,274,AS,exp,33,↑,up,↑,0.589112099958584,True,16,1,1,9
Y2-S2-188M25,3,275,AS,exp,40,←,right,→,0.786223099799827,False,15,-1,1,10
Y2-S2-188M25,3,276,AS,exp,50,↓,down,↓,0.726528600091115,True,16,-1,0,10
Y2-S2-188M25,3,277,AS,exp,32,←,left,←,0.46483219997026,True,16,-1,0,10
Y2-S2-188M25,3,278,AS,exp,49,→,right,→,0.669246400007978,True,16,1,1,11
Y2-S2-188M25,3,279,AS,exp,50,↑,up,↑,1.02858939999715,True,15,1,0,11
Y2-S2-188M25,3,280,AS,exp,46,↓,down,↓,1.08133250009269,True,15,1,0,11
Y2-S2-188M25,3,281,AS,exp,29,→,right,→,0.887857900001109,True,15,1,0,11
Y2-S2-188M25,3,282,AS,exp,37,←,left,←,0.585985800018534,True,14,1,0,11
Y2-S2-188M25,3,283,AS,exp,27,→,right,→,0.366977000143379,True,14,1,0,11
Y2-S2-188M25,3,284,AS,exp,29,←,left,←,1.25229099998251,True,14,1,0,11
Y2-S2-188M25,3,285,AS,exp,27,↑,down,↓,1.33997260010801,False,13,-1,1,12
Y2-S2-188M25,3,286,AS,exp,33,←,left,←,0.998912799870595,True,14,-1,0,12
Y2-S2-188M25,3,287,AS,exp,41,↓,down,↓,0.575244199950248,True,14,-1,0,12
Y2-S2-188M25,3,288,AS,exp,30,←,left,←,0.476665599970147,True,14,1,1,13
Y2-S2-188M25,3,289,AS,exp,48,↑,up,↑,0.871894299983978,True,13,1,0,13
Y2-S2-188M25,3,290,AS,exp,31,←,left,←,0.475493500009179,True,13,1,0,13
Y2-S2-188M25,3,291,AS,exp,28,↓,right,→,0.748373699840158,False,13,-1,1,14
Y2-S2-188M25,3,292,AS,exp,49,←,left,←,0.413113499991596,True,14,-1,0,14
Y2-S2-188M25,3,293,AS,exp,29,↑,right,→,1.01102950004861,False,14,-1,0,14
Y2-S2-188M25,3,294,AS,exp,48,←,left,←,0.523606299888343,True,15,-1,0,14
Y2-S2-188M25,3,295,AS,exp,50,↓,right,→,1.15878090006299,False,15,-1,0,14
Y2-S2-188M25,3,296,AS,exp,35,→,right,→,1.22904319991358,True,16,-1,0,14
Y2-S2-188M25,3,297,AS,exp,30,↓,down,↓,0.601991400122643,True,16,-1,0,14
Y2-S2-188M25,3,298,AS,exp,42,←,left,←,0.617177000036463,True,16,1,1,15
Y2-S2-188M25,3,299,AS,exp,34,↑,up,↑,0.419953600037843,True,15,1,0,15
Y2-S2-188M25,3,300,AS,exp,50,←,left,←,0.948200999991968,True,15,1,0,15
Y2-S2-188M25,3,301,AS,exp,39,↑,up,↑,1.07068939995952,True,15,1,0,15
Y2-S2-188M25,3,302,AS,exp,39,←,right,→,0.976986899971962,False,14,-1,1,16
Y2-S2-188M25,4,303,PS,intra_train,49,→,right,→,0.734396799933165,True,19,-,-,-
Y2-S2-188M25,4,304,PS,intra_train,37,←,left,←,0.367311999900267,True,19,-,-,-
Y2-S2-188M25,4,305,PS,intra_train,39,→,right,→,0.400699099991471,True,19,-,-,-
Y2-S2-188M25,4,306,PS,intra_train,37,↑,right,→,0.493738500168547,False,19,-,-,-
Y2-S2-188M25,4,307,PS,intra_train,28,←,left,←,0.367391400039196,True,19,-,-,-
Y2-S2-188M25,4,308,PS,exp,31,↓,down,↓,0.742125599877909,True,13,0,0,0
Y2-S2-188M25,4,309,PS,exp,28,←,right,→,0.422165099997073,False,13,-1,0,0
Y2-S2-188M25,4,310,PS,exp,34,↑,up,↑,0.460648400010541,True,14,-1,0,0
Y2-S2-188M25,4,311,PS,exp,38,→,right,→,0.710317500168458,True,14,-1,0,0
Y2-S2-188M25,4,312,PS,exp,49,←,left,←,1.5578096001409,True,14,1,1,1
Y2-S2-188M25,4,313,PS,exp,44,↓,right,→,0.674383600009605,False,13,-1,1,2
Y2-S2-188M25,4,314,PS,exp,49,←,left,←,0.577029600040987,True,14,-1,0,2
Y2-S2-188M25,4,315,PS,exp,34,↑,up,↑,0.464500300120562,True,14,-1,0,2
Y2-S2-188M25,4,316,PS,exp,35,↓,down,↓,0.591687599895522,True,14,1,1,3
Y2-S2-188M25,4,317,PS,exp,31,←,no_key,no_letter,-1,False,13,-1,1,4
Y2-S2-188M25,4,318,PS,exp,27,→,right,→,0.475409399950877,True,14,-1,0,4
Y2-S2-188M25,4,319,PS,exp,34,↑,up,↑,0.424430199898779,True,14,-1,0,4
Y2-S2-188M25,4,320,PS,exp,49,←,left,←,0.603581900009885,True,14,1,1,5
Y2-S2-188M25,4,321,PS,exp,44,↓,right,→,1.28076649992727,False,13,-1,1,6
Y2-S2-188M25,4,322,PS,exp,39,→,right,→,0.477004999993369,True,14,-1,0,6
Y2-S2-188M25,4,323,PS,exp,42,←,right,→,0.444051199825481,False,14,-1,0,6
Y2-S2-188M25,4,324,PS,exp,41,↓,left,←,0.820391000015661,False,15,-1,0,6
Y2-S2-188M25,4,325,PS,exp,47,→,right,→,0.509947000071406,True,16,-1,0,6
Y2-S2-188M25,4,326,PS,exp,47,↑,right,→,0.58960930001922,False,16,-1,0,6
Y2-S2-188M25,4,327,PS,exp,50,↓,left,←,0.926315600052476,False,17,-1,0,6
Y2-S2-188M25,4,328,PS,exp,48,↑,up,↑,0.590566400205717,True,18,-1,0,6
Y2-S2-188M25,4,329,PS,exp,41,↓,down,↓,0.642583600012586,True,18,-1,0,6
Y2-S2-188M25,4,330,PS,exp,30,←,right,→,0.62572930008173,False,18,-1,0,6
Y2-S2-188M25,4,331,PS,exp,25,↓,right,→,0.742973300162703,False,19,-1,0,6
Y2-S2-188M25,4,332,PS,exp,47,←,left,←,0.716031400021166,True,20,-1,0,6
Y2-S2-188M25,4,333,PS,exp,43,→,right,→,0.433885199949145,True,20,-1,0,6
Y2-S2-188M25,4,334,PS,exp,29,←,left,←,0.547874999931082,True,20,1,1,7
Y2-S2-188M25,4,335,PS,exp,35,↑,up,↑,0.433768799994141,True,19,1,0,7
Y2-S2-188M25,4,336,PS,exp,44,→,right,→,0.671874900115654,True,19,1,0,7
Y2-S2-188M25,4,337,PS,exp,33,←,left,←,0.863378199981526,True,19,1,0,7
Y2-S2-188M25,4,338,PS,exp,38,→,right,→,0.417330899974331,True,18,1,0,7
Y2-S2-188M25,4,339,PS,exp,39,↓,down,↓,0.75351359997876,True,18,1,0,7
Y2-S2-188M25,4,340,PS,exp,44,←,left,←,0.549648800166324,True,18,1,0,7
Y2-S2-188M25,4,341,PS,exp,27,↑,up,↑,0.462662500096485,True,17,1,0,7
Y2-S2-188M25,4,342,PS,exp,29,→,right,→,0.45783569989726,True,17,1,0,7
Y2-S2-188M25,4,343,PS,exp,38,←,left,←,0.566322499886155,True,17,1,0,7
Y2-S2-188M25,4,344,PS,exp,31,↑,up,↑,0.591677299933508,True,16,1,0,7
Y2-S2-188M25,4,345,PS,exp,27,←,left,←,0.400384000036866,True,16,1,0,7
Y2-S2-188M25,4,346,PS,exp,39,↓,down,↓,0.725726700155065,True,16,1,0,7
Y2-S2-188M25,4,347,PS,exp,40,↑,up,↑,0.633665199857205,True,15,1,0,7
Y2-S2-188M25,4,348,PS,exp,34,→,left,←,1.22529520001262,False,15,-1,1,8
Y2-S2-188M25,4,349,PS,exp,42,↓,down,↓,0.590949600096792,True,16,-1,0,8
Y2-S2-188M25,4,350,PS,exp,26,↑,up,↑,0.499158200109378,True,16,-1,0,8
Y2-S2-188M25,4,351,PS,exp,48,←,left,←,0.474390800110996,True,16,1,1,9
Y2-S2-188M25,4,352,PS,exp,37,↓,down,↓,0.607713300036266,True,15,1,0,9
Y2-S2-188M25,4,353,PS,exp,26,↑,up,↑,0.502317799953744,True,15,1,0,9
Y2-S2-188M25,4,354,PS,exp,27,←,left,←,0.653575599892065,True,15,1,0,9
Y2-S2-188M25,4,355,PS,exp,34,↑,right,→,0.770997100044042,False,14,-1,1,10
Y2-S2-188M25,4,356,PS,exp,48,↓,down,↓,0.519231999991462,True,15,-1,0,10
Y2-S2-188M25,4,357,PS,exp,43,↑,up,↑,1.07643650006503,True,15,-1,0,10
Y2-S2-188M25,4,358,PS,exp,44,→,right,→,0.444963800022379,True,15,1,1,11
Y2-S2-188M25,4,359,PS,exp,42,↑,up,↑,0.477171999868006,True,14,1,0,11
Y2-S2-188M25,4,360,PS,exp,35,→,right,→,0.948474399978295,True,14,1,0,11
Y2-S2-188M25,4,361,PS,exp,38,←,left,←,0.52013530000113,True,14,1,0,11
Y2-S2-188M25,4,362,PS,exp,26,↓,down,↓,0.597657500067726,True,13,1,0,11
Y2-S2-188M25,4,363,PS,exp,33,↑,up,↑,0.970435899915174,True,13,1,0,11
Y2-S2-188M25,4,364,PS,exp,48,→,right,→,0.39371749991551,True,13,1,0,11
Y2-S2-188M25,4,365,PS,exp,31,↓,down,↓,0.597258299821988,True,12,1,0,11
Y2-S2-188M25,4,366,PS,exp,44,←,left,←,0.938344300026074,True,12,1,0,11
Y2-S2-188M25,4,367,PS,exp,34,↑,right,→,0.732017899863422,False,12,-1,1,12
Y2-S2-188M25,4,368,PS,exp,40,↓,down,↓,0.663404399994761,True,13,-1,0,12
Y2-S2-188M25,4,369,PS,exp,43,↑,up,↑,0.957060300046578,True,13,-1,0,12
Y2-S2-188M25,4,370,PS,exp,25,←,left,←,0.71623480017297,True,13,1,1,13
Y2-S2-188M25,4,371,PS,exp,38,↓,down,↓,0.894467199919745,True,12,1,0,13
Y2-S2-188M25,4,372,PS,exp,34,→,right,→,0.745785299921408,True,12,1,0,13
Y2-S2-188M25,4,373,PS,exp,50,↓,down,↓,0.921142600011081,True,12,1,0,13
Y2-S2-188M25,4,374,PS,exp,28,↑,down,↓,0.82007689983584,False,11,-1,1,14
Y2-S2-188M25,4,375,PS,exp,30,←,left,←,0.501056799897924,True,12,-1,0,14
Y2-S2-188M25,4,376,PS,exp,36,↓,left,←,1.42567629995756,False,12,-1,0,14
Y2-S2-188M25,4,377,PS,exp,45,↑,left,←,0.802450000075623,False,13,-1,0,14
Y2-S2-188M25,4,378,PS,exp,31,↓,down,↓,0.762825799873099,True,14,-1,0,14
Y2-S2-188M25,4,379,PS,exp,43,←,left,←,0.666769699892029,True,14,-1,0,14
Y2-S2-188M25,4,380,PS,exp,39,↑,left,←,0.623727800091729,False,14,-1,0,14
Y2-S2-188M25,4,381,PS,exp,43,←,left,←,0.524959800066426,True,15,-1,0,14
Y2-S2-188M25,4,382,PS,exp,33,→,right,→,0.929155700141564,True,15,-1,0,14
Y2-S2-188M25,4,383,PS,exp,39,↓,down,↓,0.721163399983198,True,15,1,1,15
Y2-S2-188M25,4,384,PS,exp,32,↑,left,←,0.69362929998897,False,14,-1,1,16
Y2-S2-188M25,5,385,PS,intra_train,38,←,left,←,0.681104399962351,True,19,-,-,-
Y2-S2-188M25,5,386,PS,intra_train,33,→,right,→,0.40036530001089,True,19,-,-,-
Y2-S2-188M25,5,387,PS,intra_train,37,↑,up,↑,0.43372349999845,True,19,-,-,-
Y2-S2-188M25,5,388,PS,intra_train,45,←,left,←,0.383997000055388,True,19,-,-,-
Y2-S2-188M25,5,389,PS,intra_train,34,↑,right,→,0.750275600003079,False,19,-,-,-
Y2-S2-188M25,5,390,PS,exp,43,↓,down,↓,0.522972599836066,True,13,0,0,0
Y2-S2-188M25,5,391,PS,exp,45,↑,up,↑,1.30103249987587,True,13,0,0,0
Y2-S2-188M25,5,392,PS,exp,29,←,left,←,0.350650500040501,True,13,1,0,0
Y2-S2-188M25,5,393,PS,exp,38,↓,right,→,0.67407920002006,False,12,-1,1,1
Y2-S2-188M25,5,394,PS,exp,49,→,right,→,0.889762199949473,True,13,-1,0,1
Y2-S2-188M25,5,395,PS,exp,31,↓,up,↑,0.706615099916235,False,13,-1,0,1
Y2-S2-188M25,5,396,PS,exp,44,→,right,→,0.40543880010955,True,14,-1,0,1
Y2-S2-188M25,5,397,PS,exp,32,↑,up,↑,0.433663600124419,True,14,-1,0,1
Y2-S2-188M25,5,398,PS,exp,35,↓,down,↓,0.572065799962729,True,14,1,1,2
Y2-S2-188M25,5,399,PS,exp,27,↑,left,←,0.737949300091714,False,13,-1,1,3
Y2-S2-188M25,5,400,PS,exp,29,→,no_key,no_letter,-1,False,14,-1,0,3
Y2-S2-188M25,5,401,PS,exp,38,←,right,→,0.504042299930006,False,15,-1,0,3
Y2-S2-188M25,5,402,PS,exp,30,↓,down,↓,0.579250799957663,True,16,-1,0,3
Y2-S2-188M25,5,403,PS,exp,36,→,right,→,0.476927499985322,True,16,-1,0,3
Y2-S2-188M25,5,404,PS,exp,30,↑,up,↑,0.569504000013694,True,16,1,1,4
Y2-S2-188M25,5,405,PS,exp,28,→,right,→,0.423232299974188,True,15,1,0,4
Y2-S2-188M25,5,406,PS,exp,37,←,right,→,0.65422510006465,False,15,-1,1,5
Y2-S2-188M25,5,407,PS,exp,30,↑,up,↑,0.562657600035891,True,16,-1,0,5
Y2-S2-188M25,5,408,PS,exp,29,←,left,←,0.461284900084138,True,16,-1,0,5
Y2-S2-188M25,5,409,PS,exp,32,→,right,→,0.512782900128514,True,16,1,1,6
Y2-S2-188M25,5,410,PS,exp,44,←,right,→,1.061529800063,False,15,-1,1,7
Y2-S2-188M25,5,411,PS,exp,37,→,right,→,0.438107100082561,True,16,-1,0,7
Y2-S2-188M25,5,412,PS,exp,36,↓,down,↓,0.445704800076783,True,16,-1,0,7
Y2-S2-188M25,5,413,PS,exp,34,↑,up,↑,0.934333299985156,True,16,1,1,8
Y2-S2-188M25,5,414,PS,exp,50,→,right,→,1.20062569994479,True,15,1,0,8
Y2-S2-188M25,5,415,PS,exp,33,↓,down,↓,0.680954599985853,True,15,1,0,8
Y2-S2-188M25,5,416,PS,exp,25,←,left,←,0.987368199974299,True,15,1,0,8
Y2-S2-188M25,5,417,PS,exp,34,↑,right,→,0.738072199979797,False,14,-1,1,9
Y2-S2-188M25,5,418,PS,exp,43,→,right,→,0.556585000129417,True,15,-1,0,9
Y2-S2-188M25,5,419,PS,exp,41,←,left,←,0.688051899895072,True,15,-1,0,9
Y2-S2-188M25,5,420,PS,exp,36,↓,right,→,1.72277970006689,False,15,-1,0,9
Y2-S2-188M25,5,421,PS,exp,36,↑,up,↑,0.480778899975121,True,16,-1,0,9
Y2-S2-188M25,5,422,PS,exp,26,←,left,←,0.530461699934676,True,16,-1,0,9
Y2-S2-188M25,5,423,PS,exp,25,→,right,→,0.898726499872282,True,16,1,1,10
Y2-S2-188M25,5,424,PS,exp,50,↑,up,↑,0.457646800205112,True,15,1,0,10
Y2-S2-188M25,5,425,PS,exp,33,→,right,→,0.510326799936593,True,15,1,0,10
Y2-S2-188M25,5,426,PS,exp,42,←,left,←,0.721618300070986,True,15,1,0,10
Y2-S2-188M25,5,427,PS,exp,33,↓,down,↓,0.722775400150567,True,14,1,0,10
Y2-S2-188M25,5,428,PS,exp,37,→,right,→,0.445376900024712,True,14,1,0,10
Y2-S2-188M25,5,429,PS,exp,26,↑,up,↑,0.463372200028971,True,14,1,0,10
Y2-S2-188M25,5,430,PS,exp,50,↓,down,↓,0.612179100047797,True,13,1,0,10
Y2-S2-188M25,5,431,PS,exp,27,←,no_key,no_letter,-1,False,13,-1,1,11
Y2-S2-188M25,5,432,PS,exp,35,→,right,→,0.426096400013194,True,14,-1,0,11
Y2-S2-188M25,5,433,PS,exp,25,↓,right,→,0.742349300067872,False,14,-1,0,11
Y2-S2-188M25,5,434,PS,exp,47,←,left,←,0.649490999989212,True,15,-1,0,11
Y2-S2-188M25,5,435,PS,exp,47,→,right,→,0.614423299906775,True,15,-1,0,11
Y2-S2-188M25,5,436,PS,exp,39,←,left,←,0.47562210005708,True,15,1,1,12
Y2-S2-188M25,5,437,PS,exp,49,↑,up,↑,0.408006400102749,True,14,1,0,12
Y2-S2-188M25,5,438,PS,exp,43,←,left,←,0.523424900136888,True,14,1,0,12
Y2-S2-188M25,5,439,PS,exp,35,↑,up,↑,0.416504199849442,True,14,1,0,12
Y2-S2-188M25,5,440,PS,exp,26,→,left,←,0.762086399830878,False,13,-1,1,13
Y2-S2-188M25,5,441,PS,exp,46,←,left,←,0.404766600113362,True,14,-1,0,13
Y2-S2-188M25,5,442,PS,exp,31,↑,up,↑,0.737446000101045,True,14,-1,0,13
Y2-S2-188M25,5,443,PS,exp,47,↓,down,↓,0.621295399963856,True,14,1,1,14
Y2-S2-188M25,5,444,PS,exp,26,←,left,←,0.408757800003514,True,13,1,0,14
Y2-S2-188M25,5,445,PS,exp,49,↑,left,←,0.665081599960104,False,13,-1,1,15
Y2-S2-188M25,5,446,PS,exp,48,→,right,→,0.976836000103504,True,14,-1,0,15
Y2-S2-188M25,5,447,PS,exp,29,↑,left,←,1.28205169993453,False,14,-1,0,15
Y2-S2-188M25,5,448,PS,exp,48,→,right,→,0.537395399995148,True,15,-1,0,15
Y2-S2-188M25,5,449,PS,exp,39,←,left,←,0.858344800071791,True,15,-1,0,15
Y2-S2-188M25,5,450,PS,exp,46,↓,down,↓,1.33431309997104,True,15,1,1,16
Y2-S2-188M25,6,451,AS,intra_train,32,→,right,→,0.567577400011942,True,27,-,-,-
Y2-S2-188M25,6,452,AS,intra_train,29,↑,up,↑,0.721373399952427,True,27,-,-,-
Y2-S2-188M25,6,453,AS,intra_train,35,→,right,→,1.2069874999579,True,27,-,-,-
Y2-S2-188M25,6,454,AS,intra_train,43,↑,up,↑,0.417431300040334,True,27,-,-,-
Y2-S2-188M25,6,455,AS,intra_train,31,↓,down,↓,0.702632900094613,True,27,-,-,-
Y2-S2-188M25,6,456,AS,exp,26,↑,up,↑,0.433737099869177,True,18,0,0,0
Y2-S2-188M25,6,457,AS,exp,47,←,right,→,0.400390799855813,False,18,-1,0,0
Y2-S2-188M25,6,458,AS,exp,28,→,left,←,0.887878099922091,False,19,-1,0,0
Y2-S2-188M25,6,459,AS,exp,43,↓,down,↓,0.547885100124404,True,20,-1,0,0
Y2-S2-188M25,6,460,AS,exp,30,←,left,←,0.433749799849466,True,20,-1,0,0
Y2-S2-188M25,6,461,AS,exp,36,↓,up,↑,0.749163100030273,False,20,-1,0,0
Y2-S2-188M25,6,462,AS,exp,46,←,right,→,1.12286799983121,False,21,-1,0,0
Y2-S2-188M25,6,463,AS,exp,50,↓,up,↑,0.483996099792421,False,22,-1,0,0
Y2-S2-188M25,6,464,AS,exp,33,↑,up,↑,0.706369000021368,True,23,-1,0,0
Y2-S2-188M25,6,465,AS,exp,29,←,left,←,0.567935999948531,True,23,-1,0,0
Y2-S2-188M25,6,466,AS,exp,50,↓,down,↓,1.53113420004956,True,23,1,1,1
Y2-S2-188M25,6,467,AS,exp,45,←,left,←,0.401014500064775,True,22,1,0,1
Y2-S2-188M25,6,468,AS,exp,49,→,right,→,1.04089080006816,True,22,1,0,1
Y2-S2-188M25,6,469,AS,exp,27,←,right,→,1.07049950002693,False,22,-1,1,2
Y2-S2-188M25,6,470,AS,exp,26,↓,down,↓,0.795275799930096,True,23,-1,0,2
Y2-S2-188M25,6,471,AS,exp,49,↑,up,↑,0.40074530011043,True,23,-1,0,2
Y2-S2-188M25,6,472,AS,exp,36,→,right,→,0.678902500076219,True,23,1,1,3
Y2-S2-188M25,6,473,AS,exp,30,↓,down,↓,0.583277900004759,True,22,1,0,3
Y2-S2-188M25,6,474,AS,exp,41,←,left,←,0.466859499923885,True,22,1,0,3
Y2-S2-188M25,6,475,AS,exp,38,→,right,→,0.500405399827287,True,22,1,0,3
Y2-S2-188M25,6,476,AS,exp,29,↓,down,↓,0.524993899976835,True,21,1,0,3
Y2-S2-188M25,6,477,AS,exp,41,→,right,→,1.13018279988319,True,21,1,0,3
Y2-S2-188M25,6,478,AS,exp,37,↑,up,↑,0.66275170003064,True,21,1,0,3
Y2-S2-188M25,6,479,AS,exp,50,→,right,→,0.520780799910426,True,20,1,0,3
Y2-S2-188M25,6,480,AS,exp,28,←,left,←,0.604607400018722,True,20,1,0,3
Y2-S2-188M25,6,481,AS,exp,50,→,right,→,0.367138899862766,True,20,1,0,3
Y2-S2-188M25,6,482,AS,exp,39,↑,up,↑,0.433909799903631,True,19,1,0,3
Y2-S2-188M25,6,483,AS,exp,44,←,left,←,0.733698100084439,True,19,1,0,3
Y2-S2-188M25,6,484,AS,exp,26,↓,down,↓,0.846598600037396,True,19,1,0,3
Y2-S2-188M25,6,485,AS,exp,46,←,left,←,0.434015300124884,True,18,1,0,3
Y2-S2-188M25,6,486,AS,exp,29,→,right,→,0.509679100010544,True,18,1,0,3
Y2-S2-188M25,6,487,AS,exp,45,←,left,←,0.625312299933285,True,18,1,0,3
Y2-S2-188M25,6,488,AS,exp,33,→,right,→,1.06207850016654,True,17,1,0,3
Y2-S2-188M25,6,489,AS,exp,41,←,left,←,0.461970200063661,True,17,1,0,3
Y2-S2-188M25,6,490,AS,exp,36,→,right,→,0.473301899852231,True,17,1,0,3
Y2-S2-188M25,6,491,AS,exp,28,↓,up,↑,0.802441300125793,False,16,-1,1,4
Y2-S2-188M25,6,492,AS,exp,34,→,right,→,0.45563429989852,True,17,-1,0,4
Y2-S2-188M25,6,493,AS,exp,35,↓,down,↓,0.687857700046152,True,17,-1,0,4
Y2-S2-188M25,6,494,AS,exp,47,→,left,←,0.627842299873009,False,17,-1,0,4
Y2-S2-188M25,6,495,AS,exp,50,↑,up,↑,0.618450599955395,True,18,-1,0,4
Y2-S2-188M25,6,496,AS,exp,39,←,left,←,0.572273300029337,True,18,-1,0,4
Y2-S2-188M25,6,497,AS,exp,45,↓,down,↓,0.606266599847004,True,18,1,1,5
Y2-S2-188M25,6,498,AS,exp,46,→,left,←,1.04979610000737,False,17,-1,1,6
Y2-S2-188M25,6,499,AS,exp,29,←,left,←,0.559341799933463,True,18,-1,0,6
Y2-S2-188M25,6,500,AS,exp,40,↓,down,↓,0.781176800141111,True,18,-1,0,6
Y2-S2-188M25,6,501,AS,exp,26,←,right,→,0.785285499878228,False,18,-1,0,6
Y2-S2-188M25,6,502,AS,exp,44,→,right,→,0.587472599931061,True,19,-1,0,6
Y2-S2-188M25,6,503,AS,exp,41,↓,down,↓,0.655838400125504,True,19,-1,0,6
Y2-S2-188M25,6,504,AS,exp,42,→,right,→,0.776251500006765,True,19,1,1,7
Y2-S2-188M25,6,505,AS,exp,44,←,left,←,0.78144559985958,True,18,1,0,7
Y2-S2-188M25,6,506,AS,exp,45,↓,down,↓,0.57893309998326,True,18,1,0,7
Y2-S2-188M25,6,507,AS,exp,36,→,right,→,0.433783099986613,True,18,1,0,7
Y2-S2-188M25,6,508,AS,exp,46,↓,up,↑,1.24635849986225,False,17,-1,1,8
Y2-S2-188M25,6,509,AS,exp,29,→,right,→,0.723959300201386,True,18,-1,0,8
Y2-S2-188M25,6,510,AS,exp,31,←,left,←,0.536758400034159,True,18,-1,0,8
Y2-S2-188M25,6,511,AS,exp,30,→,right,→,0.433877999894321,True,18,1,1,9
Y2-S2-188M25,6,512,AS,exp,45,↑,up,↑,0.456047400133684,True,17,1,0,9
Y2-S2-188M25,6,513,AS,exp,25,→,right,→,0.507668399950489,True,17,1,0,9
Y2-S2-188M25,6,514,AS,exp,49,↑,left,←,0.878073300002143,False,17,-1,1,10
Y2-S2-188M25,6,515,AS,exp,30,←,left,←,0.538571500219405,True,18,-1,0,10
Y2-S2-188M25,6,516,AS,exp,40,→,right,→,0.76489290012978,True,18,-1,0,10
Y2-S2-188M25,6,517,AS,exp,36,←,left,←,0.60924719995819,True,18,1,1,11
Y2-S2-188M25,6,518,AS,exp,42,↓,down,↓,1.00059679988772,True,17,1,0,11
Y2-S2-188M25,6,519,AS,exp,50,→,right,→,0.55003620008938,True,17,1,0,11
Y2-S2-188M25,6,520,AS,exp,28,←,left,←,0.626926100114361,True,17,1,0,11
Y2-S2-188M25,6,521,AS,exp,29,↑,up,↑,0.707556500099599,True,16,1,0,11
Y2-S2-188M25,6,522,AS,exp,30,←,right,→,0.782784000039101,False,16,-1,1,12
Y2-S2-188M25,6,523,AS,exp,48,→,right,→,0.458165299845859,True,17,-1,0,12
Y2-S2-188M25,6,524,AS,exp,28,↓,down,↓,0.857307200087234,True,17,-1,0,12
Y2-S2-188M25,6,525,AS,exp,45,←,left,←,0.554701699875295,True,17,1,1,13
Y2-S2-188M25,6,526,AS,exp,26,↑,up,↑,0.589522999944165,True,16,1,0,13
Y2-S2-188M25,6,527,AS,exp,38,←,left,←,0.440197100164369,True,16,1,0,13
Y2-S2-188M25,6,528,AS,exp,39,↓,up,↑,0.984176700003445,False,16,-1,1,14
Y2-S2-188M25,6,529,AS,exp,47,↑,right,→,0.367301800055429,False,17,-1,0,14
Y2-S2-188M25,6,530,AS,exp,39,↓,down,↓,0.433919299859554,True,18,-1,0,14
Y2-S2-188M25,6,531,AS,exp,32,↑,up,↑,0.8100892000366,True,18,-1,0,14
Y2-S2-188M25,6,532,AS,exp,30,→,right,→,0.809087099973112,True,18,1,1,15
Y2-S2-188M25,6,533,AS,exp,35,←,left,←,1.03431449993514,True,17,1,0,15
Y2-S2-188M25,6,534,AS,exp,30,↑,left,←,1.45428159995936,False,17,-1,1,16
Y2-S2-188M25,7,535,AS,intra_train,43,←,left,←,1.15641440008767,True,27,-,-,-
Y2-S2-188M25,7,536,AS,intra_train,38,↑,up,↑,0.738779200008139,True,27,-,-,-
Y2-S2-188M25,7,537,AS,intra_train,41,↓,down,↓,0.450396800180897,True,27,-,-,-
Y2-S2-188M25,7,538,AS,intra_train,26,→,right,→,0.678288499824703,True,27,-,-,-
Y2-S2-188M25,7,539,AS,intra_train,42,↑,up,↑,0.63508959999308,True,27,-,-,-
Y2-S2-188M25,7,540,AS,exp,41,↓,left,←,1.04140780004673,False,18,-1,0,0
Y2-S2-188M25,7,541,AS,exp,45,←,left,←,1.18332739989273,True,19,-1,0,0
Y2-S2-188M25,7,542,AS,exp,44,↑,up,↑,0.383808299899101,True,19,-1,0,0
Y2-S2-188M25,7,543,AS,exp,37,←,left,←,0.513195000123233,True,19,1,1,1
Y2-S2-188M25,7,544,AS,exp,32,↓,down,↓,0.559805700089783,True,18,1,0,1
Y2-S2-188M25,7,545,AS,exp,49,←,left,←,0.563339199870825,True,18,1,0,1
Y2-S2-188M25,7,546,AS,exp,31,→,right,→,0.872201000107452,True,18,1,0,1
Y2-S2-188M25,7,547,AS,exp,32,↑,up,↑,0.460544700035825,True,17,1,0,1
Y2-S2-188M25,7,548,AS,exp,35,↓,down,↓,0.588339600013569,True,17,1,0,1
Y2-S2-188M25,7,549,AS,exp,31,↑,up,↑,0.383920300053433,True,17,1,0,1
Y2-S2-188M25,7,550,AS,exp,45,↓,down,↓,0.55790050001815,True,16,1,0,1
Y2-S2-188M25,7,551,AS,exp,36,→,right,→,0.976131499977782,True,16,1,0,1
Y2-S2-188M25,7,552,AS,exp,32,←,left,←,0.675066500203684,True,16,1,0,1
Y2-S2-188M25,7,553,AS,exp,36,↓,down,↓,0.593316299840808,True,15,1,0,1
Y2-S2-188M25,7,554,AS,exp,42,↑,up,↑,0.460122900083661,True,15,1,0,1
Y2-S2-188M25,7,555,AS,exp,34,←,left,←,0.384041999932379,True,15,1,0,1
Y2-S2-188M25,7,556,AS,exp,33,↓,left,←,1.23610440012999,False,14,-1,1,2
Y2-S2-188M25,7,557,AS,exp,48,←,left,←,0.508385800058022,True,15,-1,0,2
Y2-S2-188M25,7,558,AS,exp,49,→,left,←,0.794278600020334,False,15,-1,0,2
Y2-S2-188M25,7,559,AS,exp,37,↑,no_key,no_letter,-1,False,16,-1,0,2
Y2-S2-188M25,7,560,AS,exp,25,→,right,→,0.400354000041261,True,17,-1,0,2
Y2-S2-188M25,7,561,AS,exp,48,←,left,←,0.60541810002178,True,17,-1,0,2
Y2-S2-188M25,7,562,AS,exp,49,→,right,→,0.564307300141081,True,17,1,1,3
Y2-S2-188M25,7,563,AS,exp,40,↓,down,↓,0.592227000044659,True,16,1,0,3
Y2-S2-188M25,7,564,AS,exp,44,→,left,←,0.482481800019741,False,16,-1,1,4
Y2-S2-188M25,7,565,AS,exp,38,↑,up,↑,0.519236600026488,True,17,-1,0,4
Y2-S2-188M25,7,566,AS,exp,25,↓,down,↓,0.936232900014147,True,17,-1,0,4
Y2-S2-188M25,7,567,AS,exp,50,→,right,→,0.574158899951726,True,17,1,1,5
Y2-S2-188M25,7,568,AS,exp,34,↑,up,↑,0.511358499992639,True,16,1,0,5
Y2-S2-188M25,7,569,AS,exp,49,→,right,→,0.636015200056136,True,16,1,0,5
Y2-S2-188M25,7,570,AS,exp,25,←,left,←,0.498740600189194,True,16,1,0,5
Y2-S2-188M25,7,571,AS,exp,35,↓,up,↑,0.647838599979878,False,15,-1,1,6
Y2-S2-188M25,7,572,AS,exp,40,→,right,→,0.606235400075093,True,16,-1,0,6
Y2-S2-188M25,7,573,AS,exp,36,↓,down,↓,0.738924000179395,True,16,-1,0,6
Y2-S2-188M25,7,574,AS,exp,46,↑,up,↑,0.65972419991158,True,16,1,1,7
Y2-S2-188M25,7,575,AS,exp,29,↓,up,↑,1.11256309994496,False,15,-1,1,8
Y2-S2-188M25,7,576,AS,exp,47,↑,down,↓,1.41859559994191,False,16,-1,0,8
Y2-S2-188M25,7,577,AS,exp,26,→,right,→,0.689729099860415,True,17,-1,0,8
Y2-S2-188M25,7,578,AS,exp,40,↑,up,↑,0.748783699935302,True,17,-1,0,8
Y2-S2-188M25,7,579,AS,exp,43,→,right,→,0.645099000073969,True,17,1,1,9
Y2-S2-188M25,7,580,AS,exp,25,↑,up,↑,0.964126899838448,True,16,1,0,9
Y2-S2-188M25,7,581,AS,exp,41,←,left,←,0.647601099917665,True,16,1,0,9
Y2-S2-188M25,7,582,AS,exp,32,↑,up,↑,1.05599869997241,True,16,1,0,9
Y2-S2-188M25,7,583,AS,exp,33,↓,right,→,1.52983559994027,False,15,-1,1,10
Y2-S2-188M25,7,584,AS,exp,41,↑,up,↑,0.55386590003036,True,16,-1,0,10
Y2-S2-188M25,7,585,AS,exp,31,↓,down,↓,1.51251789997332,True,16,-1,0,10
Y2-S2-188M25,7,586,AS,exp,34,↑,up,↑,0.543152900179848,True,16,1,1,11
Y2-S2-188M25,7,587,AS,exp,42,↓,no_key,no_letter,-1,False,15,-1,1,12
Y2-S2-188M25,7,588,AS,exp,25,→,left,←,1.7050630999729,False,16,-1,0,12
Y2-S2-188M25,7,589,AS,exp,44,←,no_key,no_letter,-1,False,17,-1,0,12
Y2-S2-188M25,7,590,AS,exp,31,↓,down,↓,0.499628600198776,True,18,-1,0,12
Y2-S2-188M25,7,591,AS,exp,40,←,left,←,0.587764499941841,True,18,-1,0,12
Y2-S2-188M25,7,592,AS,exp,25,↑,up,↑,0.417134799994528,True,18,1,1,13
Y2-S2-188M25,7,593,AS,exp,38,←,left,←,0.593941800063476,True,17,1,0,13
Y2-S2-188M25,7,594,AS,exp,43,→,right,→,0.566831100033596,True,17,1,0,13
Y2-S2-188M25,7,595,AS,exp,37,↓,down,↓,0.717184799956158,True,17,1,0,13
Y2-S2-188M25,7,596,AS,exp,29,↑,up,↑,0.400348300114274,True,16,1,0,13
Y2-S2-188M25,7,597,AS,exp,31,↓,down,↓,0.552004999946803,True,16,1,0,13
Y2-S2-188M25,7,598,AS,exp,49,←,left,←,0.53256419999525,True,16,1,0,13
Y2-S2-188M25,7,599,AS,exp,42,↑,right,→,1.04408740019426,False,15,-1,1,14
Y2-S2-188M25,7,600,AS,exp,40,→,right,→,0.524839299963787,True,16,-1,0,14
Y2-S2-188M25,7,601,AS,exp,33,↓,down,↓,0.64401079993695,True,16,-1,0,14
Y2-S2-188M25,7,602,AS,exp,25,↑,up,↑,1.4483182001859,True,16,1,1,15
Y2-S2-188M25,7,603,AS,exp,33,→,right,→,0.632061899872497,True,15,1,0,15
Y2-S2-188M25,7,604,AS,exp,32,←,right,→,1.59751099999994,False,15,-1,1,16
Y2-S2-188M25,8,605,PS,intra_train,49,↓,down,↓,0.597029200056568,True,19,-,-,-
Y2-S2-188M25,8,606,PS,intra_train,29,↑,right,→,1.07286829990335,False,19,-,-,-
Y2-S2-188M25,8,607,PS,intra_train,35,←,left,←,1.18733290000819,True,19,-,-,-
Y2-S2-188M25,8,608,PS,intra_train,34,↓,left,←,1.78225839999504,False,19,-,-,-
Y2-S2-188M25,8,609,PS,intra_train,45,↑,down,↓,1.05128140002489,False,19,-,-,-
Y2-S2-188M25,8,610,PS,exp,50,→,right,→,0.453881500056013,True,13,0,0,0
Y2-S2-188M25,8,611,PS,exp,37,↓,down,↓,0.514430899871513,True,13,0,0,0
Y2-S2-188M25,8,612,PS,exp,37,→,up,↑,1.12864640005864,False,13,-1,0,0
Y2-S2-188M25,8,613,PS,exp,33,←,right,→,0.668781400192529,False,14,-1,0,0
Y2-S2-188M25,8,614,PS,exp,33,↓,down,↓,0.566622599959374,True,15,-1,0,0
Y2-S2-188M25,8,615,PS,exp,35,↑,left,←,1.39170720009133,False,15,-1,0,0
Y2-S2-188M25,8,616,PS,exp,50,←,left,←,1.11591379996389,True,16,-1,0,0
Y2-S2-188M25,8,617,PS,exp,28,↑,right,→,1.10154170007445,False,16,-1,0,0
Y2-S2-188M25,8,618,PS,exp,36,→,down,↓,0.714038499863818,False,17,-1,0,0
Y2-S2-188M25,8,619,PS,exp,43,↓,down,↓,0.53769990010187,True,18,-1,0,0
Y2-S2-188M25,8,620,PS,exp,48,↑,down,↓,1.18328130012378,False,18,-1,0,0
Y2-S2-188M25,8,621,PS,exp,27,→,up,↑,0.831636599963531,False,19,-1,0,0
Y2-S2-188M25,8,622,PS,exp,28,←,left,←,0.467409800039604,True,20,-1,0,0
Y2-S2-188M25,8,623,PS,exp,48,↓,down,↓,0.783586699981242,True,20,-1,0,0
Y2-S2-188M25,8,624,PS,exp,49,←,left,←,0.450738799991086,True,20,1,1,1
Y2-S2-188M25,8,625,PS,exp,34,→,right,→,0.400420899968594,True,19,1,0,1
Y2-S2-188M25,8,626,PS,exp,39,↑,left,←,1.0489161000587,False,19,-1,1,2
Y2-S2-188M25,8,627,PS,exp,45,→,right,→,0.767558099934831,True,20,-1,0,2
Y2-S2-188M25,8,628,PS,exp,45,↑,up,↑,0.569949800148606,True,20,-1,0,2
Y2-S2-188M25,8,629,PS,exp,42,←,left,←,0.450817799894139,True,20,1,1,3
Y2-S2-188M25,8,630,PS,exp,47,→,right,→,0.367244600085542,True,19,1,0,3
Y2-S2-188M25,8,631,PS,exp,33,↑,up,↑,0.45060470001772,True,19,1,0,3
Y2-S2-188M25,8,632,PS,exp,32,↓,down,↓,0.675972899887711,True,19,1,0,3
Y2-S2-188M25,8,633,PS,exp,37,↑,up,↑,0.433870899956673,True,18,1,0,3
Y2-S2-188M25,8,634,PS,exp,39,←,right,→,0.624699700158089,False,18,-1,1,4
Y2-S2-188M25,8,635,PS,exp,47,↓,no_key,no_letter,-1,False,19,-1,0,4
Y2-S2-188M25,8,636,PS,exp,38,→,right,→,0.571317399851978,True,20,-1,0,4
Y2-S2-188M25,8,637,PS,exp,35,↓,left,←,0.800763099920005,False,20,-1,0,4
Y2-S2-188M25,8,638,PS,exp,36,←,left,←,0.693725799908862,True,21,-1,0,4
Y2-S2-188M25,8,639,PS,exp,44,→,right,→,0.333541400032118,True,21,-1,0,4
Y2-S2-188M25,8,640,PS,exp,50,↓,down,↓,0.417207300197333,True,21,1,1,5
Y2-S2-188M25,8,641,PS,exp,37,↑,up,↑,0.506603799993172,True,20,1,0,5
Y2-S2-188M25,8,642,PS,exp,42,↓,down,↓,0.400268699973822,True,20,1,0,5
Y2-S2-188M25,8,643,PS,exp,42,→,right,→,0.400538499932736,True,20,1,0,5
Y2-S2-188M25,8,644,PS,exp,35,↓,down,↓,0.417155799921602,True,19,1,0,5
Y2-S2-188M25,8,645,PS,exp,38,←,left,←,1.10268200002611,True,19,1,0,5
Y2-S2-188M25,8,646,PS,exp,29,↑,up,↑,1.19553099991754,True,19,1,0,5
Y2-S2-188M25,8,647,PS,exp,48,↓,down,↓,1.08432540018111,True,18,1,0,5
Y2-S2-188M25,8,648,PS,exp,36,→,right,→,0.433882100041956,True,18,1,0,5
Y2-S2-188M25,8,649,PS,exp,34,←,left,←,0.400634200079367,True,18,1,0,5
Y2-S2-188M25,8,650,PS,exp,45,↓,down,↓,0.50734609994106,True,17,1,0,5
Y2-S2-188M25,8,651,PS,exp,37,→,right,→,0.400727499974892,True,17,1,0,5
Y2-S2-188M25,8,652,PS,exp,44,↑,up,↑,0.367289500078186,True,17,1,0,5
Y2-S2-188M25,8,653,PS,exp,47,→,right,→,0.400695500196889,True,16,1,0,5
Y2-S2-188M25,8,654,PS,exp,43,↑,up,↑,0.689276200020686,True,16,1,0,5
Y2-S2-188M25,8,655,PS,exp,27,→,right,→,0.400680300081149,True,16,1,0,5
Y2-S2-188M25,8,656,PS,exp,39,←,left,←,0.36729530012235,True,15,1,0,5
Y2-S2-188M25,8,657,PS,exp,33,↓,right,→,0.682302600005642,False,15,-1,1,6
Y2-S2-188M25,8,658,PS,exp,41,↑,up,↑,0.600801000138745,True,16,-1,0,6
Y2-S2-188M25,8,659,PS,exp,38,↓,down,↓,0.584038400091231,True,16,-1,0,6
Y2-S2-188M25,8,660,PS,exp,29,→,right,→,0.450970599893481,True,16,1,1,7
Y2-S2-188M25,8,661,PS,exp,37,↑,up,↑,0.383720099925995,True,15,1,0,7
Y2-S2-188M25,8,662,PS,exp,33,←,right,→,0.431491499999538,False,15,-1,1,8
Y2-S2-188M25,8,663,PS,exp,45,↑,up,↑,0.449949499918148,True,16,-1,0,8
Y2-S2-188M25,8,664,PS,exp,49,→,right,→,0.437864600215107,True,16,-1,0,8
Y2-S2-188M25,8,665,PS,exp,50,↑,up,↑,0.475326400017366,True,16,1,1,9
Y2-S2-188M25,8,666,PS,exp,36,→,right,→,0.558855300070718,True,15,1,0,9
Y2-S2-188M25,8,667,PS,exp,49,←,left,←,0.515199200017378,True,15,1,0,9
Y2-S2-188M25,8,668,PS,exp,48,↓,down,↓,0.333818000042811,True,15,1,0,9
Y2-S2-188M25,8,669,PS,exp,48,→,right,→,0.745436700060964,True,14,1,0,9
Y2-S2-188M25,8,670,PS,exp,48,←,left,←,0.367212799843401,True,14,1,0,9
Y2-S2-188M25,8,671,PS,exp,38,→,right,→,0.428614300210029,True,14,1,0,9
Y2-S2-188M25,8,672,PS,exp,33,↓,left,←,0.433359399903566,False,13,-1,1,10
Y2-S2-188M25,8,673,PS,exp,35,→,right,→,0.429733800003305,True,14,-1,0,10
Y2-S2-188M25,8,674,PS,exp,45,↓,down,↓,0.905921299941838,True,14,-1,0,10
Y2-S2-188M25,8,675,PS,exp,27,→,right,→,0.421046399977058,True,14,1,1,11
Y2-S2-188M25,8,676,PS,exp,36,←,left,←,0.403019799850881,True,13,1,0,11
Y2-S2-188M25,8,677,PS,exp,29,→,right,→,0.616862900089473,True,13,1,0,11
Y2-S2-188M25,8,678,PS,exp,30,↓,up,↑,0.631198200164363,False,13,-1,1,12
Y2-S2-188M25,8,679,PS,exp,48,→,right,→,0.585919599980116,True,14,-1,0,12
Y2-S2-188M25,8,680,PS,exp,47,↓,down,↓,0.66770049999468,True,14,-1,0,12
Y2-S2-188M25,8,681,PS,exp,28,↑,left,←,0.941025599837303,False,14,-1,0,12
Y2-S2-188M25,8,682,PS,exp,28,→,right,→,0.384126799879596,True,15,-1,0,12
Y2-S2-188M25,8,683,PS,exp,28,←,right,→,0.860849800053984,False,15,-1,0,12
Y2-S2-188M25,8,684,PS,exp,29,→,left,←,1.15105670015328,False,16,-1,0,12
Y2-S2-188M25,8,685,PS,exp,47,↑,up,↑,0.400519500020891,True,17,-1,0,12
Y2-S2-188M25,8,686,PS,exp,50,→,right,→,1.35995259997435,True,17,-1,0,12
Y2-S2-188M25,8,687,PS,exp,35,←,left,←,0.535583300050348,True,17,1,1,13
Y2-S2-188M25,8,688,PS,exp,47,↓,down,↓,0.654884000075981,True,16,1,0,13
Y2-S2-188M25,8,689,PS,exp,28,←,left,←,0.517532399855554,True,16,1,0,13
Y2-S2-188M25,8,690,PS,exp,34,↓,down,↓,0.502408100059256,True,16,1,0,13
Y2-S2-188M25,8,691,PS,exp,40,↑,left,←,0.426220600027591,False,15,-1,1,14
Y2-S2-188M25,8,692,PS,exp,42,←,left,←,0.600515099940822,True,16,-1,0,14
Y2-S2-188M25,8,693,PS,exp,46,↑,right,→,0.695269499905407,False,16,-1,0,14
Y2-S2-188M25,8,694,PS,exp,39,↓,down,↓,0.72118530003354,True,17,-1,0,14
Y2-S2-188M25,8,695,PS,exp,43,↑,up,↑,0.459202199941501,True,17,-1,0,14
Y2-S2-188M25,8,696,PS,exp,38,←,left,←,0.555821999907494,True,17,1,1,15
Y2-S2-188M25,8,697,PS,exp,44,→,right,→,0.610839700093493,True,16,1,0,15
Y2-S2-188M25,8,698,PS,exp,43,←,right,→,0.657464600168169,False,16,-1,1,16
