PART_ID,Block_no,Trial_no,Block_type,Trial_type,CSI,Stim_letter,Key_pressed,letter_choose,Rt,Corr,Stimulus Time,Level,Reversal,Revs_count
Y2-S2-282M23,1,1,PS,train,46,→,right,→,0.616457599999876,True,30,-,-,-
Y2-S2-282M23,1,2,PS,train,29,←,left,←,0.4011461000000054,True,30,-,-,-
Y2-S2-282M23,1,3,PS,train,37,→,right,→,0.53399730000001,True,30,-,-,-
Y2-S2-282M23,1,4,PS,train,29,↓,down,↓,0.7674758999999085,True,30,-,-,-
Y2-S2-282M23,1,5,PS,train,29,↑,up,↑,0.7048975000000155,True,30,-,-,-
Y2-S2-282M23,1,6,PS,train,38,↓,down,↓,0.5006210999999894,True,30,-,-,-
Y2-S2-282M23,1,7,PS,train,48,←,left,←,0.5505683999999746,True,30,-,-,-
Y2-S2-282M23,1,8,PS,train,40,↑,up,↑,0.46704700000009325,True,30,-,-,-
Y2-S2-282M23,1,9,PS,train,45,↓,down,↓,0.4839767999999367,True,30,-,-,-
Y2-S2-282M23,1,10,PS,train,26,←,left,←,0.46777880000013283,True,30,-,-,-
Y2-S2-282M23,2,11,AS,train,27,→,right,→,1.1535392000000684,True,45,-,-,-
Y2-S2-282M23,2,12,AS,train,36,←,left,←,0.7011397999999645,True,45,-,-,-
Y2-S2-282M23,2,13,AS,train,27,→,right,→,0.534531399999878,True,45,-,-,-
Y2-S2-282M23,2,14,AS,train,26,←,left,←,0.5509583999998995,True,45,-,-,-
Y2-S2-282M23,2,15,AS,train,34,↓,down,↓,0.8674003999999513,True,45,-,-,-
Y2-S2-282M23,2,16,AS,train,26,←,left,←,0.7011304999998629,True,45,-,-,-
Y2-S2-282M23,2,17,AS,train,40,↑,up,↑,2.3011260999999195,True,45,-,-,-
Y2-S2-282M23,2,18,AS,train,50,↓,down,↓,0.6510538999998516,True,45,-,-,-
Y2-S2-282M23,2,19,AS,train,42,→,right,→,0.7003889000000072,True,45,-,-,-
Y2-S2-282M23,2,20,AS,train,41,↑,up,↑,0.8339187999999922,True,45,-,-,-
Y2-S2-282M23,-,21,PS,adaptive,35,←,left,←,0.977813900000001,True,10,0,0,0
Y2-S2-282M23,-,22,PS,adaptive,43,↓,down,↓,0.6603693999998086,True,10,0,0,0
Y2-S2-282M23,-,23,PS,adaptive,44,↑,up,↑,0.6240269999998418,True,10,1,0,0
Y2-S2-282M23,-,24,PS,adaptive,34,←,left,←,0.7584815000000162,True,9,1,0,0
Y2-S2-282M23,-,25,PS,adaptive,34,↑,up,↑,0.5424513999998908,True,9,1,0,0
Y2-S2-282M23,-,26,PS,adaptive,41,↓,down,↓,0.6133452999999918,True,9,1,0,0
Y2-S2-282M23,-,27,PS,adaptive,37,→,right,→,0.7208312000000205,True,8,1,0,0
Y2-S2-282M23,-,28,PS,adaptive,39,←,up,↑,1.6144027000000278,False,8,-1,1,1
Y2-S2-282M23,-,29,PS,adaptive,50,↑,left,←,1.1883543999999802,False,9,-1,0,1
Y2-S2-282M23,-,30,PS,adaptive,31,↓,down,↓,0.8138808999999583,True,10,-1,0,1
Y2-S2-282M23,-,31,PS,adaptive,38,→,right,→,0.4626844000001711,True,10,-1,0,1
Y2-S2-282M23,-,32,PS,adaptive,47,↓,down,↓,0.6919120000000021,True,10,1,1,2
Y2-S2-282M23,-,33,PS,adaptive,46,→,right,→,0.8764943999999559,True,9,1,0,2
Y2-S2-282M23,-,34,PS,adaptive,41,↓,down,↓,0.542670299999827,True,9,1,0,2
Y2-S2-282M23,-,35,PS,adaptive,32,→,right,→,0.45822689999999966,True,9,1,0,2
Y2-S2-282M23,-,36,PS,adaptive,28,↓,down,↓,0.5093558999999459,True,8,1,0,2
Y2-S2-282M23,-,37,PS,adaptive,31,←,left,←,0.5893108000000211,True,8,1,0,2
Y2-S2-282M23,-,38,PS,adaptive,27,→,right,→,0.6582888000000366,True,8,1,0,2
Y2-S2-282M23,-,39,PS,adaptive,30,↑,up,↑,0.7673451000000568,True,7,1,0,2
Y2-S2-282M23,-,40,PS,adaptive,38,↓,down,↓,0.5986209000000144,True,7,1,0,2
Y2-S2-282M23,-,41,PS,adaptive,41,←,left,←,0.4978624000000309,True,7,1,0,2
Y2-S2-282M23,-,42,PS,adaptive,31,↓,down,↓,0.653249599999981,True,6,1,0,2
Y2-S2-282M23,-,43,PS,adaptive,31,↑,up,↑,0.5859029999999166,True,6,1,0,2
Y2-S2-282M23,-,44,PS,adaptive,44,→,up,↑,0.8313938999999664,False,6,-1,1,3
Y2-S2-282M23,-,45,PS,adaptive,41,↓,down,↓,0.6585496000000148,True,7,-1,0,3
Y2-S2-282M23,-,46,PS,adaptive,34,↑,up,↑,0.6223826000000372,True,7,-1,0,3
Y2-S2-282M23,-,47,PS,adaptive,25,↓,down,↓,0.7469485999999961,True,7,1,1,4
Y2-S2-282M23,-,48,AS,adaptive,30,←,left,←,0.5145084999999199,True,20,0,0,0
Y2-S2-282M23,-,49,AS,adaptive,42,↑,down,↓,1.1181122000000414,False,20,-1,0,0
Y2-S2-282M23,-,50,AS,adaptive,26,←,left,←,0.6967122999999447,True,21,-1,0,0
Y2-S2-282M23,-,51,AS,adaptive,38,↑,left,←,1.0100425000000541,False,21,-1,0,0
Y2-S2-282M23,-,52,AS,adaptive,46,↓,down,↓,0.7822294000000056,True,22,-1,0,0
Y2-S2-282M23,-,53,AS,adaptive,27,→,right,→,0.500820499999918,True,22,-1,0,0
Y2-S2-282M23,-,54,AS,adaptive,41,↓,down,↓,0.7488541999998688,True,22,1,1,1
Y2-S2-282M23,-,55,AS,adaptive,44,→,right,→,0.4672827000001689,True,21,1,0,1
Y2-S2-282M23,-,56,AS,adaptive,26,↑,up,↑,0.5793253000001641,True,21,1,0,1
Y2-S2-282M23,-,57,AS,adaptive,38,→,right,→,0.6418455000000449,True,21,1,0,1
Y2-S2-282M23,-,58,AS,adaptive,27,↑,up,↑,0.5545121000000108,True,20,1,0,1
Y2-S2-282M23,-,59,AS,adaptive,48,↓,down,↓,0.5758489999998346,True,20,1,0,1
Y2-S2-282M23,-,60,AS,adaptive,43,↑,down,↓,0.9552084000001742,False,20,-1,1,2
Y2-S2-282M23,-,61,AS,adaptive,33,←,left,←,0.7358014999999796,True,21,-1,0,2
Y2-S2-282M23,-,62,AS,adaptive,48,↑,up,↑,0.6040290999999343,True,21,-1,0,2
Y2-S2-282M23,-,63,AS,adaptive,29,↓,down,↓,0.5441147000001365,True,21,1,1,3
Y2-S2-282M23,-,64,AS,adaptive,36,→,right,→,0.46726170000010825,True,20,1,0,3
Y2-S2-282M23,-,65,AS,adaptive,48,←,left,←,0.450849000000062,True,20,1,0,3
Y2-S2-282M23,-,66,AS,adaptive,35,↑,up,↑,0.7940026000001126,True,20,1,0,3
Y2-S2-282M23,-,67,AS,adaptive,50,↓,down,↓,0.5897672000000966,True,19,1,0,3
Y2-S2-282M23,-,68,AS,adaptive,27,→,right,→,0.5299088000001575,True,19,1,0,3
Y2-S2-282M23,-,69,AS,adaptive,43,←,left,←,0.4338978999999199,True,19,1,0,3
Y2-S2-282M23,-,70,AS,adaptive,31,↓,down,↓,0.7145482000000811,True,18,1,0,3
Y2-S2-282M23,-,71,AS,adaptive,30,→,up,↑,0.9930504999999812,False,18,-1,1,4
Y2-S2-282M23,1,72,AS,intra_train,29,↓,down,↓,0.583626600000116,True,28,-,-,-
Y2-S2-282M23,1,73,AS,intra_train,44,→,right,→,0.6538106000000425,True,28,-,-,-
Y2-S2-282M23,1,74,AS,intra_train,49,↑,down,↓,0.5172579000000042,False,28,-,-,-
Y2-S2-282M23,1,75,AS,intra_train,41,←,left,←,0.48396670000011,True,28,-,-,-
Y2-S2-282M23,1,76,AS,intra_train,43,↓,down,↓,0.8555575000000317,True,28,-,-,-
Y2-S2-282M23,1,77,AS,exp,42,↑,up,↑,0.9428035999999338,True,19,0,0,0
Y2-S2-282M23,1,78,AS,exp,33,→,right,→,0.4340300000001207,True,19,0,0,0
Y2-S2-282M23,1,79,AS,exp,30,←,no_key,no_letter,-1.0,False,19,-1,0,0
Y2-S2-282M23,1,80,AS,exp,36,→,right,→,0.5298494000001028,True,20,-1,0,0
Y2-S2-282M23,1,81,AS,exp,30,↓,down,↓,0.6665383000001839,True,20,-1,0,0
Y2-S2-282M23,1,82,AS,exp,32,←,left,←,0.5796179999999822,True,20,1,1,1
Y2-S2-282M23,1,83,AS,exp,35,→,right,→,0.5648290999999972,True,19,1,0,1
Y2-S2-282M23,1,84,AS,exp,29,↑,down,↓,1.091797300000053,False,19,-1,1,2
Y2-S2-282M23,1,85,AS,exp,26,←,left,←,0.46742919999996957,True,20,-1,0,2
Y2-S2-282M23,1,86,AS,exp,39,↑,up,↑,0.43380789999991975,True,20,-1,0,2
Y2-S2-282M23,1,87,AS,exp,32,↓,down,↓,0.5427827000000889,True,20,1,1,3
Y2-S2-282M23,1,88,AS,exp,28,↑,up,↑,0.7825930000001335,True,19,1,0,3
Y2-S2-282M23,1,89,AS,exp,25,↓,down,↓,0.4165914000000157,True,19,1,0,3
Y2-S2-282M23,1,90,AS,exp,38,↑,up,↑,0.9969813000000158,True,19,1,0,3
Y2-S2-282M23,1,91,AS,exp,46,←,left,←,0.417137799999864,True,18,1,0,3
Y2-S2-282M23,1,92,AS,exp,46,→,right,→,1.18090959999995,True,18,1,0,3
Y2-S2-282M23,1,93,AS,exp,36,↑,up,↑,0.49964410000006865,True,18,1,0,3
Y2-S2-282M23,1,94,AS,exp,48,→,right,→,0.5377818999997999,True,17,1,0,3
Y2-S2-282M23,1,95,AS,exp,47,↑,up,↑,0.8193871000000854,True,17,1,0,3
Y2-S2-282M23,1,96,AS,exp,39,↓,down,↓,0.3676321000000371,True,17,1,0,3
Y2-S2-282M23,1,97,AS,exp,32,←,left,←,0.6585593999998309,True,16,1,0,3
Y2-S2-282M23,1,98,AS,exp,40,→,left,←,0.8672885000000861,False,16,-1,1,4
Y2-S2-282M23,1,99,AS,exp,49,↓,no_key,no_letter,-1.0,False,17,-1,0,4
Y2-S2-282M23,1,100,AS,exp,26,←,left,←,0.6931142000000818,True,18,-1,0,4
Y2-S2-282M23,1,101,AS,exp,27,→,right,→,0.948070400000006,True,18,-1,0,4
Y2-S2-282M23,1,102,AS,exp,49,↑,left,←,1.0195556999999553,False,18,-1,0,4
Y2-S2-282M23,1,103,AS,exp,38,↓,down,↓,0.5472228999999516,True,19,-1,0,4
Y2-S2-282M23,1,104,AS,exp,39,→,left,←,1.1177224999998998,False,19,-1,0,4
Y2-S2-282M23,1,105,AS,exp,38,←,left,←,0.43366790000004585,True,20,-1,0,4
Y2-S2-282M23,1,106,AS,exp,36,→,left,←,1.187964299999976,False,20,-1,0,4
Y2-S2-282M23,1,107,AS,exp,36,↑,up,↑,0.5904339000001073,True,21,-1,0,4
Y2-S2-282M23,1,108,AS,exp,42,→,right,→,0.5701443000000381,True,21,-1,0,4
Y2-S2-282M23,1,109,AS,exp,35,↓,down,↓,0.46711560000017016,True,21,1,1,5
Y2-S2-282M23,1,110,AS,exp,50,←,no_key,no_letter,-1.0,False,20,-1,1,6
Y2-S2-282M23,1,111,AS,exp,25,↑,up,↑,0.4339248999999654,True,21,-1,0,6
Y2-S2-282M23,1,112,AS,exp,40,→,right,→,0.41697899999985566,True,21,-1,0,6
Y2-S2-282M23,1,113,AS,exp,31,↓,down,↓,0.5612402000001566,True,21,1,1,7
Y2-S2-282M23,1,114,AS,exp,29,←,left,←,0.4173471999999947,True,20,1,0,7
Y2-S2-282M23,1,115,AS,exp,27,→,right,→,1.0611745999999584,True,20,1,0,7
Y2-S2-282M23,1,116,AS,exp,25,←,left,←,0.41730200000006334,True,20,1,0,7
Y2-S2-282M23,1,117,AS,exp,29,↑,up,↑,0.43352679999998145,True,19,1,0,7
Y2-S2-282M23,1,118,AS,exp,39,→,right,→,0.49299279999991086,True,19,1,0,7
Y2-S2-282M23,1,119,AS,exp,47,←,right,→,0.9565895000000637,False,19,-1,1,8
Y2-S2-282M23,1,120,AS,exp,47,↑,up,↑,0.8311968999998953,True,20,-1,0,8
Y2-S2-282M23,1,121,AS,exp,43,→,right,→,0.522906599999942,True,20,-1,0,8
Y2-S2-282M23,1,122,AS,exp,33,←,left,←,0.5074959999999464,True,20,1,1,9
Y2-S2-282M23,1,123,AS,exp,49,↑,up,↑,0.7801446999999371,True,19,1,0,9
Y2-S2-282M23,1,124,AS,exp,33,↓,down,↓,0.43369830000006004,True,19,1,0,9
Y2-S2-282M23,1,125,AS,exp,26,←,right,→,0.7819469000000936,False,19,-1,1,10
Y2-S2-282M23,1,126,AS,exp,36,→,right,→,0.814357100000052,True,20,-1,0,10
Y2-S2-282M23,1,127,AS,exp,36,↓,down,↓,0.9459527000001344,True,20,-1,0,10
Y2-S2-282M23,1,128,AS,exp,25,←,right,→,0.9952686999999969,False,20,-1,0,10
Y2-S2-282M23,1,129,AS,exp,30,↓,down,↓,0.6429931000000124,True,21,-1,0,10
Y2-S2-282M23,1,130,AS,exp,29,←,right,→,1.3671802999999727,False,21,-1,0,10
Y2-S2-282M23,1,131,AS,exp,39,↓,down,↓,0.6351239999999052,True,22,-1,0,10
Y2-S2-282M23,1,132,AS,exp,27,←,left,←,0.5006254999998418,True,22,-1,0,10
Y2-S2-282M23,1,133,AS,exp,35,↓,down,↓,0.6707633000000897,True,22,1,1,11
Y2-S2-282M23,1,134,AS,exp,28,↑,no_key,no_letter,-1.0,False,21,-1,1,12
Y2-S2-282M23,1,135,AS,exp,25,←,left,←,0.6170276999998805,True,22,-1,0,12
Y2-S2-282M23,1,136,AS,exp,44,↑,up,↑,0.7896657000001142,True,22,-1,0,12
Y2-S2-282M23,1,137,AS,exp,38,→,right,→,0.6704405999998926,True,22,1,1,13
Y2-S2-282M23,1,138,AS,exp,41,↓,down,↓,0.75167220000003,True,21,1,0,13
Y2-S2-282M23,1,139,AS,exp,50,→,right,→,0.48388230000000476,True,21,1,0,13
Y2-S2-282M23,1,140,AS,exp,42,↓,down,↓,0.7362947000001441,True,21,1,0,13
Y2-S2-282M23,1,141,AS,exp,26,↑,up,↑,0.5200863000000027,True,20,1,0,13
Y2-S2-282M23,1,142,AS,exp,48,↓,down,↓,0.3837377000002107,True,20,1,0,13
Y2-S2-282M23,1,143,AS,exp,34,←,left,←,0.4171685000001162,True,20,1,0,13
Y2-S2-282M23,1,144,AS,exp,48,↓,down,↓,0.4343925999999101,True,19,1,0,13
Y2-S2-282M23,1,145,AS,exp,31,→,no_key,no_letter,-1.0,False,19,-1,1,14
Y2-S2-282M23,1,146,AS,exp,36,↑,up,↑,0.96987769999987,True,20,-1,0,14
Y2-S2-282M23,1,147,AS,exp,47,↓,down,↓,0.6387276000000384,True,20,-1,0,14
Y2-S2-282M23,1,148,AS,exp,29,→,right,→,0.4174344000000474,True,20,1,1,15
Y2-S2-282M23,1,149,AS,exp,32,←,left,←,0.43419790000007197,True,19,1,0,15
Y2-S2-282M23,1,150,AS,exp,43,↑,up,↑,0.7969286000000011,True,19,1,0,15
Y2-S2-282M23,1,151,AS,exp,46,→,no_key,no_letter,-1.0,False,19,-1,1,16
Y2-S2-282M23,2,152,PS,intra_train,28,↓,right,→,0.9832797999999912,False,9,-,-,-
Y2-S2-282M23,2,153,PS,intra_train,27,←,right,→,0.7455459000000246,False,9,-,-,-
Y2-S2-282M23,2,154,PS,intra_train,28,↑,right,→,0.7807356999999229,False,9,-,-,-
Y2-S2-282M23,2,155,PS,intra_train,34,←,left,←,0.6430249000000003,True,9,-,-,-
Y2-S2-282M23,2,156,PS,intra_train,34,↓,down,↓,0.7141873000000487,True,9,-,-,-
Y2-S2-282M23,2,157,PS,exp,27,←,left,←,0.5843225999999504,True,6,0,0,0
Y2-S2-282M23,2,158,PS,exp,36,↓,right,→,0.7267847999999049,False,6,-1,0,0
Y2-S2-282M23,2,159,PS,exp,38,←,right,→,0.32045049999987896,False,7,-1,0,0
Y2-S2-282M23,2,160,PS,exp,31,↑,left,←,0.4288342999998349,False,8,-1,0,0
Y2-S2-282M23,2,161,PS,exp,36,←,left,←,0.31736369999998715,True,9,-1,0,0
Y2-S2-282M23,2,162,PS,exp,26,↑,up,↑,1.757264899999882,True,9,-1,0,0
Y2-S2-282M23,2,163,PS,exp,28,→,right,→,0.7025622999999541,True,9,1,1,1
Y2-S2-282M23,2,164,PS,exp,48,←,left,←,0.8102003000001332,True,8,1,0,1
Y2-S2-282M23,2,165,PS,exp,41,↓,left,←,0.3222861000001558,False,8,-1,1,2
Y2-S2-282M23,2,166,PS,exp,40,→,right,→,0.38593230000014955,True,9,-1,0,2
Y2-S2-282M23,2,167,PS,exp,40,←,left,←,0.39678859999980887,True,9,-1,0,2
Y2-S2-282M23,2,168,PS,exp,28,→,right,→,0.3858914999998433,True,9,1,1,3
Y2-S2-282M23,2,169,PS,exp,47,↓,down,↓,0.4201150000001235,True,8,1,0,3
Y2-S2-282M23,2,170,PS,exp,34,←,left,←,0.45540219999998044,True,8,1,0,3
Y2-S2-282M23,2,171,PS,exp,45,→,down,↓,0.9093804000001455,False,8,-1,1,4
Y2-S2-282M23,2,172,PS,exp,46,↑,up,↑,0.5425958000000719,True,9,-1,0,4
Y2-S2-282M23,2,173,PS,exp,47,↓,down,↓,0.4513607999999749,True,9,-1,0,4
Y2-S2-282M23,2,174,PS,exp,25,↑,right,→,0.41490749999979926,False,9,-1,0,4
Y2-S2-282M23,2,175,PS,exp,41,↓,down,↓,0.5326070999999502,True,10,-1,0,4
Y2-S2-282M23,2,176,PS,exp,32,↑,up,↑,0.5446153999998842,True,10,-1,0,4
Y2-S2-282M23,2,177,PS,exp,43,↓,down,↓,0.5640444000000571,True,10,1,1,5
Y2-S2-282M23,2,178,PS,exp,49,↑,right,→,0.6918132999999216,False,9,-1,1,6
Y2-S2-282M23,2,179,PS,exp,45,→,right,→,0.44699579999996786,True,10,-1,0,6
Y2-S2-282M23,2,180,PS,exp,41,↓,left,←,0.8477118000000701,False,10,-1,0,6
Y2-S2-282M23,2,181,PS,exp,42,←,left,←,0.6294212000000243,True,11,-1,0,6
Y2-S2-282M23,2,182,PS,exp,35,↓,left,←,0.7122993000000406,False,11,-1,0,6
Y2-S2-282M23,2,183,PS,exp,39,←,left,←,0.4032455999999911,True,12,-1,0,6
Y2-S2-282M23,2,184,PS,exp,36,↑,up,↑,0.585293499999807,True,12,-1,0,6
Y2-S2-282M23,2,185,PS,exp,34,↓,down,↓,0.44926540000005843,True,12,1,1,7
Y2-S2-282M23,2,186,PS,exp,32,→,right,→,0.4001929000000928,True,11,1,0,7
Y2-S2-282M23,2,187,PS,exp,49,←,left,←,0.3971685999999863,True,11,1,0,7
Y2-S2-282M23,2,188,PS,exp,33,↑,left,←,0.5187645000000884,False,11,-1,1,8
Y2-S2-282M23,2,189,PS,exp,36,←,left,←,0.5017831000000115,True,12,-1,0,8
Y2-S2-282M23,2,190,PS,exp,42,→,right,→,0.4572511999999733,True,12,-1,0,8
Y2-S2-282M23,2,191,PS,exp,38,↓,down,↓,0.5971108999999615,True,12,1,1,9
Y2-S2-282M23,2,192,PS,exp,30,←,left,←,0.43538409999996475,True,11,1,0,9
Y2-S2-282M23,2,193,PS,exp,34,↑,up,↑,0.47285009999995964,True,11,1,0,9
Y2-S2-282M23,2,194,PS,exp,30,←,left,←,0.5292388000000301,True,11,1,0,9
Y2-S2-282M23,2,195,PS,exp,28,↑,up,↑,0.5436709999999039,True,10,1,0,9
Y2-S2-282M23,2,196,PS,exp,36,↓,down,↓,0.6822284000002128,True,10,1,0,9
Y2-S2-282M23,2,197,PS,exp,28,↑,down,↓,0.8256802999999309,False,10,-1,1,10
Y2-S2-282M23,2,198,PS,exp,38,↓,up,↑,0.9892856000001302,False,11,-1,0,10
Y2-S2-282M23,2,199,PS,exp,35,↑,up,↑,0.7410167999998976,True,12,-1,0,10
Y2-S2-282M23,2,200,PS,exp,42,→,down,↓,1.067745500000001,False,12,-1,0,10
Y2-S2-282M23,2,201,PS,exp,48,←,left,←,0.46451490000004014,True,13,-1,0,10
Y2-S2-282M23,2,202,PS,exp,27,↓,down,↓,0.6213536000000204,True,13,-1,0,10
Y2-S2-282M23,2,203,PS,exp,46,↑,up,↑,0.5950585000000501,True,13,1,1,11
Y2-S2-282M23,2,204,PS,exp,38,↓,down,↓,0.49674370000002455,True,12,1,0,11
Y2-S2-282M23,2,205,PS,exp,39,←,left,←,0.413030899999967,True,12,1,0,11
Y2-S2-282M23,2,206,PS,exp,44,↑,up,↑,0.9042816000001039,True,12,1,0,11
Y2-S2-282M23,2,207,PS,exp,42,←,left,←,0.37700699999982135,True,11,1,0,11
Y2-S2-282M23,2,208,PS,exp,43,→,right,→,0.5718996000000516,True,11,1,0,11
Y2-S2-282M23,2,209,PS,exp,41,←,left,←,0.4504828000001453,True,11,1,0,11
Y2-S2-282M23,2,210,PS,exp,25,↓,down,↓,0.8148877999999513,True,10,1,0,11
Y2-S2-282M23,2,211,PS,exp,43,←,left,←,0.3849913999999899,True,10,1,0,11
Y2-S2-282M23,2,212,PS,exp,43,↓,down,↓,0.6856708999998773,True,10,1,0,11
Y2-S2-282M23,2,213,PS,exp,28,←,left,←,1.4331999999999425,True,9,1,0,11
Y2-S2-282M23,2,214,PS,exp,45,→,right,→,0.5220060999999987,True,9,1,0,11
Y2-S2-282M23,2,215,PS,exp,35,↓,down,↓,0.7056319000000713,True,9,1,0,11
Y2-S2-282M23,2,216,PS,exp,45,↑,up,↑,0.6139009000000897,True,8,1,0,11
Y2-S2-282M23,2,217,PS,exp,26,←,left,←,0.5447699000001194,True,8,1,0,11
Y2-S2-282M23,2,218,PS,exp,50,↓,down,↓,0.5247685000001638,True,8,1,0,11
Y2-S2-282M23,2,219,PS,exp,34,→,left,←,0.68534980000004,False,7,-1,1,12
Y2-S2-282M23,2,220,PS,exp,45,↑,up,↑,0.5990871999999854,True,8,-1,0,12
Y2-S2-282M23,2,221,PS,exp,38,→,right,→,0.4657386999999744,True,8,-1,0,12
Y2-S2-282M23,2,222,PS,exp,34,←,left,←,0.5786434999999983,True,8,1,1,13
Y2-S2-282M23,2,223,PS,exp,28,↓,down,↓,0.577728900000011,True,7,1,0,13
Y2-S2-282M23,2,224,PS,exp,48,←,right,→,0.6830062999999882,False,7,-1,1,14
Y2-S2-282M23,2,225,PS,exp,36,↓,right,→,0.5229295999999977,False,8,-1,0,14
Y2-S2-282M23,2,226,PS,exp,36,←,left,←,0.44488430000001244,True,9,-1,0,14
Y2-S2-282M23,2,227,PS,exp,25,→,right,→,0.43906490000017584,True,9,-1,0,14
Y2-S2-282M23,2,228,PS,exp,33,↓,up,↑,0.5685390000001007,False,9,-1,0,14
Y2-S2-282M23,2,229,PS,exp,29,←,left,←,0.3955402999999933,True,10,-1,0,14
Y2-S2-282M23,2,230,PS,exp,32,↑,right,→,0.6183658999998443,False,10,-1,0,14
Y2-S2-282M23,2,231,PS,exp,36,↓,right,→,0.5860331999999744,False,11,-1,0,14
Y2-S2-282M23,2,232,PS,exp,32,→,right,→,0.4233758000000307,True,12,-1,0,14
Y2-S2-282M23,2,233,PS,exp,35,←,left,←,1.2541929999999866,True,12,-1,0,14
Y2-S2-282M23,2,234,PS,exp,31,→,right,→,0.8519497000002048,True,12,1,1,15
Y2-S2-282M23,2,235,PS,exp,30,↑,up,↑,0.5571320000001379,True,11,1,0,15
Y2-S2-282M23,2,236,PS,exp,40,←,left,←,0.45987160000004224,True,11,1,0,15
Y2-S2-282M23,2,237,PS,exp,49,↑,down,↓,1.1725936999998794,False,11,-1,1,16
Y2-S2-282M23,3,238,PS,intra_train,30,←,left,←,0.413411399999859,True,9,-,-,-
Y2-S2-282M23,3,239,PS,intra_train,46,→,right,→,0.6487017999997988,True,9,-,-,-
Y2-S2-282M23,3,240,PS,intra_train,33,↑,up,↑,0.5739270999999917,True,9,-,-,-
Y2-S2-282M23,3,241,PS,intra_train,26,→,right,→,0.5708129999998164,True,9,-,-,-
Y2-S2-282M23,3,242,PS,intra_train,31,←,left,←,0.38655030000018087,True,9,-,-,-
Y2-S2-282M23,3,243,PS,exp,37,↑,up,↑,0.5428111999999601,True,6,0,0,0
Y2-S2-282M23,3,244,PS,exp,26,←,left,←,0.4036579000000984,True,6,0,0,0
Y2-S2-282M23,3,245,PS,exp,30,→,right,→,0.4602765999998155,True,6,1,0,0
Y2-S2-282M23,3,246,PS,exp,48,↓,down,↓,0.5522413999999571,True,5,1,0,0
Y2-S2-282M23,3,247,PS,exp,28,↑,up,↑,0.49495120000005954,True,5,1,0,0
Y2-S2-282M23,3,248,PS,exp,49,↓,right,→,0.5837044999998398,False,5,-1,1,1
Y2-S2-282M23,3,249,PS,exp,45,→,right,→,0.6674795000001268,True,6,-1,0,1
Y2-S2-282M23,3,250,PS,exp,38,←,left,←,0.5135580999999547,True,6,-1,0,1
Y2-S2-282M23,3,251,PS,exp,36,↑,up,↑,0.6874887999999828,True,6,1,1,2
Y2-S2-282M23,3,252,PS,exp,28,→,right,→,0.5539226000000781,True,5,1,0,2
Y2-S2-282M23,3,253,PS,exp,41,←,right,→,0.5713104999999814,False,5,-1,1,3
Y2-S2-282M23,3,254,PS,exp,41,↑,up,↑,0.9034788000001299,True,6,-1,0,3
Y2-S2-282M23,3,255,PS,exp,48,←,down,↓,0.4696976000000177,False,6,-1,0,3
Y2-S2-282M23,3,256,PS,exp,36,↓,left,←,0.30555900000013025,False,7,-1,0,3
Y2-S2-282M23,3,257,PS,exp,47,↑,up,↑,0.5848075999999764,True,8,-1,0,3
Y2-S2-282M23,3,258,PS,exp,27,↓,right,→,0.8382885999999417,False,8,-1,0,3
Y2-S2-282M23,3,259,PS,exp,31,←,left,←,0.43116779999991195,True,9,-1,0,3
Y2-S2-282M23,3,260,PS,exp,29,→,right,→,0.3823508000000402,True,9,-1,0,3
Y2-S2-282M23,3,261,PS,exp,36,←,left,←,0.4533060999999634,True,9,1,1,4
Y2-S2-282M23,3,262,PS,exp,42,↑,up,↑,0.7062743999999839,True,8,1,0,4
Y2-S2-282M23,3,263,PS,exp,35,↓,down,↓,0.5399454999999307,True,8,1,0,4
Y2-S2-282M23,3,264,PS,exp,45,←,left,←,0.475408699999889,True,8,1,0,4
Y2-S2-282M23,3,265,PS,exp,39,↑,left,←,0.7960849000000962,False,7,-1,1,5
Y2-S2-282M23,3,266,PS,exp,35,←,left,←,0.6141167999999197,True,8,-1,0,5
Y2-S2-282M23,3,267,PS,exp,31,↑,down,↓,1.0484467999999652,False,8,-1,0,5
Y2-S2-282M23,3,268,PS,exp,35,←,up,↑,1.5449195999999574,False,9,-1,0,5
Y2-S2-282M23,3,269,PS,exp,36,↓,down,↓,1.066351000000168,True,10,-1,0,5
Y2-S2-282M23,3,270,PS,exp,27,→,down,↓,0.6599228000000039,False,10,-1,0,5
Y2-S2-282M23,3,271,PS,exp,41,↓,down,↓,0.6611092000000554,True,11,-1,0,5
Y2-S2-282M23,3,272,PS,exp,37,↑,down,↓,0.8368058999999448,False,11,-1,0,5
Y2-S2-282M23,3,273,PS,exp,32,↓,down,↓,0.3937237999998615,True,12,-1,0,5
Y2-S2-282M23,3,274,PS,exp,45,←,left,←,0.47269729999993615,True,12,-1,0,5
Y2-S2-282M23,3,275,PS,exp,43,→,down,↓,0.21770650000007663,False,12,-1,0,5
Y2-S2-282M23,3,276,PS,exp,34,↓,down,↓,0.5406469000001835,True,13,-1,0,5
Y2-S2-282M23,3,277,PS,exp,40,←,left,←,0.532672699999921,True,13,-1,0,5
Y2-S2-282M23,3,278,PS,exp,42,→,down,↓,0.21732909999991534,False,13,-1,0,5
Y2-S2-282M23,3,279,PS,exp,27,←,right,→,0.7384024000000409,False,14,-1,0,5
Y2-S2-282M23,3,280,PS,exp,48,↓,left,←,0.7762688999998772,False,15,-1,0,5
Y2-S2-282M23,3,281,PS,exp,38,←,no_key,no_letter,-1.0,False,16,-1,0,5
Y2-S2-282M23,3,282,PS,exp,37,↑,up,↑,0.5365659999999934,True,17,-1,0,5
Y2-S2-282M23,3,283,PS,exp,45,→,right,→,0.4170249999999669,True,17,-1,0,5
Y2-S2-282M23,3,284,PS,exp,43,↑,up,↑,0.4943653999998787,True,17,1,1,6
Y2-S2-282M23,3,285,PS,exp,38,←,left,←,0.40013599999997496,True,16,1,0,6
Y2-S2-282M23,3,286,PS,exp,35,↑,down,↓,0.8530313999999635,False,16,-1,1,7
Y2-S2-282M23,3,287,PS,exp,31,↓,down,↓,0.7702142000000549,True,17,-1,0,7
Y2-S2-282M23,3,288,PS,exp,33,←,right,→,0.5891813999999158,False,17,-1,0,7
Y2-S2-282M23,3,289,PS,exp,31,→,right,→,0.8365508000001682,True,18,-1,0,7
Y2-S2-282M23,3,290,PS,exp,30,↓,down,↓,0.601073900000074,True,18,-1,0,7
Y2-S2-282M23,3,291,PS,exp,34,→,down,↓,0.6929519000000255,False,18,-1,0,7
Y2-S2-282M23,3,292,PS,exp,36,↑,down,↓,0.6117650999999569,False,19,-1,0,7
Y2-S2-282M23,3,293,PS,exp,38,→,right,→,1.64728869999999,True,20,-1,0,7
Y2-S2-282M23,3,294,PS,exp,45,↓,down,↓,0.5271651000000475,True,20,-1,0,7
Y2-S2-282M23,3,295,PS,exp,40,←,left,←,0.750544600000012,True,20,1,1,8
Y2-S2-282M23,3,296,PS,exp,32,↑,left,←,0.18450510000002396,False,19,-1,1,9
Y2-S2-282M23,3,297,PS,exp,30,↓,down,↓,0.7360721999998532,True,20,-1,0,9
Y2-S2-282M23,3,298,PS,exp,29,←,left,←,0.8259321999998974,True,20,-1,0,9
Y2-S2-282M23,3,299,PS,exp,31,↓,down,↓,0.5995941000001039,True,20,1,1,10
Y2-S2-282M23,3,300,PS,exp,49,→,right,→,0.4882079999997586,True,19,1,0,10
Y2-S2-282M23,3,301,PS,exp,35,↓,down,↓,0.7300135999998929,True,19,1,0,10
Y2-S2-282M23,3,302,PS,exp,40,←,left,←,0.5440528999997696,True,19,1,0,10
Y2-S2-282M23,3,303,PS,exp,46,↓,down,↓,0.5881966000001739,True,18,1,0,10
Y2-S2-282M23,3,304,PS,exp,26,→,right,→,1.1360255999998117,True,18,1,0,10
Y2-S2-282M23,3,305,PS,exp,31,←,left,←,0.5531326000000263,True,18,1,0,10
Y2-S2-282M23,3,306,PS,exp,27,↓,down,↓,0.5510930999998891,True,17,1,0,10
Y2-S2-282M23,3,307,PS,exp,43,↑,up,↑,0.5854376000002048,True,17,1,0,10
Y2-S2-282M23,3,308,PS,exp,44,↓,down,↓,0.6173704999996517,True,17,1,0,10
Y2-S2-282M23,3,309,PS,exp,40,←,left,←,0.5464630999999827,True,16,1,0,10
Y2-S2-282M23,3,310,PS,exp,40,↑,up,↑,0.6555006999997204,True,16,1,0,10
Y2-S2-282M23,3,311,PS,exp,50,←,left,←,0.38389839999990727,True,16,1,0,10
Y2-S2-282M23,3,312,PS,exp,31,→,right,→,0.47078430000010485,True,15,1,0,10
Y2-S2-282M23,3,313,PS,exp,46,↑,up,↑,0.599192099999982,True,15,1,0,10
Y2-S2-282M23,3,314,PS,exp,32,→,right,→,0.5712820999997348,True,15,1,0,10
Y2-S2-282M23,3,315,PS,exp,40,↓,down,↓,0.6326516000003721,True,14,1,0,10
Y2-S2-282M23,3,316,PS,exp,26,→,right,→,0.42962530000022525,True,14,1,0,10
Y2-S2-282M23,3,317,PS,exp,46,←,right,→,0.6086067999999614,False,14,-1,1,11
Y2-S2-282M23,3,318,PS,exp,35,↓,down,↓,0.7498554999997395,True,15,-1,0,11
Y2-S2-282M23,3,319,PS,exp,26,→,right,→,0.9841450000003533,True,15,-1,0,11
Y2-S2-282M23,3,320,PS,exp,42,↓,down,↓,0.38389550000010786,True,15,1,1,12
Y2-S2-282M23,3,321,PS,exp,26,→,right,→,0.9388779000000795,True,14,1,0,12
Y2-S2-282M23,3,322,PS,exp,30,←,right,→,0.8522805000002336,False,14,-1,1,13
Y2-S2-282M23,3,323,PS,exp,45,↓,down,↓,0.9097603000000163,True,15,-1,0,13
Y2-S2-282M23,3,324,PS,exp,30,←,left,←,0.49237489999995887,True,15,-1,0,13
Y2-S2-282M23,3,325,PS,exp,43,→,right,→,0.3839253999999528,True,15,1,1,14
Y2-S2-282M23,3,326,PS,exp,39,↑,up,↑,0.7341264000001502,True,14,1,0,14
Y2-S2-282M23,3,327,PS,exp,35,→,right,→,0.4608302999999978,True,14,1,0,14
Y2-S2-282M23,3,328,PS,exp,30,↑,up,↑,0.7476401000003534,True,14,1,0,14
Y2-S2-282M23,3,329,PS,exp,50,←,left,←,0.626939400000083,True,13,1,0,14
Y2-S2-282M23,3,330,PS,exp,41,↓,down,↓,0.5018507999998292,True,13,1,0,14
Y2-S2-282M23,3,331,PS,exp,35,↑,up,↑,0.478187600000183,True,13,1,0,14
Y2-S2-282M23,3,332,PS,exp,29,→,right,→,0.3960354999999254,True,12,1,0,14
Y2-S2-282M23,3,333,PS,exp,26,←,left,←,0.8606046999998398,True,12,1,0,14
Y2-S2-282M23,3,334,PS,exp,29,↑,up,↑,0.9618482000000768,True,12,1,0,14
Y2-S2-282M23,3,335,PS,exp,45,↓,down,↓,0.4495819999997366,True,11,1,0,14
Y2-S2-282M23,3,336,PS,exp,40,↑,up,↑,0.5803844000001845,True,11,1,0,14
Y2-S2-282M23,3,337,PS,exp,40,←,left,←,0.4744303000002219,True,11,1,0,14
Y2-S2-282M23,3,338,PS,exp,40,→,right,→,0.8392251999998734,True,10,1,0,14
Y2-S2-282M23,3,339,PS,exp,34,↑,up,↑,0.8499933999996756,True,10,1,0,14
Y2-S2-282M23,3,340,PS,exp,30,→,right,→,0.5052691999999297,True,10,1,0,14
Y2-S2-282M23,3,341,PS,exp,43,↑,up,↑,0.4548552000001109,True,9,1,0,14
Y2-S2-282M23,3,342,PS,exp,42,→,right,→,0.39282619999994495,True,9,1,0,14
Y2-S2-282M23,3,343,PS,exp,35,←,left,←,0.5393025999997008,True,9,1,0,14
Y2-S2-282M23,3,344,PS,exp,38,→,right,→,0.72441230000004,True,8,1,0,14
Y2-S2-282M23,3,345,PS,exp,25,←,right,→,0.6282117999999173,False,8,-1,1,15
Y2-S2-282M23,3,346,PS,exp,35,→,right,→,0.5465940999997656,True,9,-1,0,15
Y2-S2-282M23,3,347,PS,exp,42,↑,up,↑,0.732465499999762,True,9,-1,0,15
Y2-S2-282M23,3,348,PS,exp,47,↓,right,→,0.5911565000001247,False,9,-1,0,15
Y2-S2-282M23,3,349,PS,exp,37,→,left,←,0.5192718999996941,False,10,-1,0,15
Y2-S2-282M23,3,350,PS,exp,50,←,left,←,0.5151212999999188,True,11,-1,0,15
Y2-S2-282M23,3,351,PS,exp,49,↑,up,↑,0.6420756000002257,True,11,-1,0,15
Y2-S2-282M23,3,352,PS,exp,31,→,right,→,0.5135123000000021,True,11,1,1,16
Y2-S2-282M23,4,353,AS,intra_train,33,↑,no_key,no_letter,-1.0,False,28,-,-,-
Y2-S2-282M23,4,354,AS,intra_train,40,←,left,←,0.4341663999998673,True,28,-,-,-
Y2-S2-282M23,4,355,AS,intra_train,30,↑,up,↑,0.5843385000002854,True,28,-,-,-
Y2-S2-282M23,4,356,AS,intra_train,35,←,left,←,0.5837455999999293,True,28,-,-,-
Y2-S2-282M23,4,357,AS,intra_train,36,→,right,→,0.8473496999999952,True,28,-,-,-
Y2-S2-282M23,4,358,AS,exp,50,←,left,←,0.9895794999997634,True,19,0,0,0
Y2-S2-282M23,4,359,AS,exp,43,↓,up,↑,0.5702716000000692,False,19,-1,0,0
Y2-S2-282M23,4,360,AS,exp,38,←,up,↑,0.6031111000002056,False,20,-1,0,0
Y2-S2-282M23,4,361,AS,exp,37,↓,down,↓,0.6406999999999243,True,21,-1,0,0
Y2-S2-282M23,4,362,AS,exp,35,↑,down,↓,1.009409599999799,False,21,-1,0,0
Y2-S2-282M23,4,363,AS,exp,39,↓,down,↓,0.8172488999998677,True,22,-1,0,0
Y2-S2-282M23,4,364,AS,exp,50,←,down,↓,0.5769156999999723,False,22,-1,0,0
Y2-S2-282M23,4,365,AS,exp,32,→,right,→,0.7826107999999294,True,23,-1,0,0
Y2-S2-282M23,4,366,AS,exp,47,↑,up,↑,0.7113302999996449,True,23,-1,0,0
Y2-S2-282M23,4,367,AS,exp,46,↓,down,↓,0.6217910000000302,True,23,1,1,1
Y2-S2-282M23,4,368,AS,exp,38,→,right,→,0.500526699999682,True,22,1,0,1
Y2-S2-282M23,4,369,AS,exp,30,←,left,←,0.6134735999999066,True,22,1,0,1
Y2-S2-282M23,4,370,AS,exp,50,↓,down,↓,0.5005227000001469,True,22,1,0,1
Y2-S2-282M23,4,371,AS,exp,42,←,left,←,0.5527984999998807,True,21,1,0,1
Y2-S2-282M23,4,372,AS,exp,46,→,right,→,0.41719060000013997,True,21,1,0,1
Y2-S2-282M23,4,373,AS,exp,50,↑,up,↑,0.7777424000000792,True,21,1,0,1
Y2-S2-282M23,4,374,AS,exp,27,↓,down,↓,0.450447499999882,True,20,1,0,1
Y2-S2-282M23,4,375,AS,exp,29,←,left,←,0.4006521999999677,True,20,1,0,1
Y2-S2-282M23,4,376,AS,exp,46,↓,down,↓,0.9284983000002285,True,20,1,0,1
Y2-S2-282M23,4,377,AS,exp,27,→,right,→,0.9516622999999527,True,19,1,0,1
Y2-S2-282M23,4,378,AS,exp,33,←,left,←,0.7566290999998273,True,19,1,0,1
Y2-S2-282M23,4,379,AS,exp,34,↓,down,↓,0.851515500000005,True,19,1,0,1
Y2-S2-282M23,4,380,AS,exp,41,→,right,→,0.41723129999991215,True,18,1,0,1
Y2-S2-282M23,4,381,AS,exp,29,↑,up,↑,0.6914508999998361,True,18,1,0,1
Y2-S2-282M23,4,382,AS,exp,37,↓,left,←,1.1995109999998022,False,18,-1,1,2
Y2-S2-282M23,4,383,AS,exp,27,←,right,→,0.8578644999997778,False,19,-1,0,2
Y2-S2-282M23,4,384,AS,exp,37,↓,down,↓,0.5699568999998519,True,20,-1,0,2
Y2-S2-282M23,4,385,AS,exp,42,←,left,←,0.5490168999999696,True,20,-1,0,2
Y2-S2-282M23,4,386,AS,exp,34,↑,up,↑,0.6610607000002346,True,20,1,1,3
Y2-S2-282M23,4,387,AS,exp,26,↓,down,↓,1.0252973999999995,True,19,1,0,3
Y2-S2-282M23,4,388,AS,exp,37,←,down,↓,1.6410641999996187,False,19,-1,1,4
Y2-S2-282M23,4,389,AS,exp,27,↑,up,↑,0.7217304999999214,True,20,-1,0,4
Y2-S2-282M23,4,390,AS,exp,33,→,right,→,0.5823700999999346,True,20,-1,0,4
Y2-S2-282M23,4,391,AS,exp,29,↓,down,↓,0.8030600000001868,True,20,1,1,5
Y2-S2-282M23,4,392,AS,exp,32,←,left,←,0.7785986999997476,True,19,1,0,5
Y2-S2-282M23,4,393,AS,exp,25,→,right,→,0.3672119000002567,True,19,1,0,5
Y2-S2-282M23,4,394,AS,exp,36,↓,down,↓,0.5110641000001124,True,19,1,0,5
Y2-S2-282M23,4,395,AS,exp,40,→,left,←,0.6751447999999982,False,18,-1,1,6
Y2-S2-282M23,4,396,AS,exp,44,↓,down,↓,0.4981708999998773,True,19,-1,0,6
Y2-S2-282M23,4,397,AS,exp,49,→,down,↓,0.54300400000011,False,19,-1,0,6
Y2-S2-282M23,4,398,AS,exp,45,↓,down,↓,0.7632315999999264,True,20,-1,0,6
Y2-S2-282M23,4,399,AS,exp,34,→,right,→,0.5609402000000046,True,20,-1,0,6
Y2-S2-282M23,4,400,AS,exp,32,↑,up,↑,0.8101883999997881,True,20,1,1,7
Y2-S2-282M23,4,401,AS,exp,25,→,right,→,0.7044473999999354,True,19,1,0,7
Y2-S2-282M23,4,402,AS,exp,46,←,right,→,0.5333064999999806,False,19,-1,1,8
Y2-S2-282M23,4,403,AS,exp,40,↑,up,↑,0.43388969999978144,True,20,-1,0,8
Y2-S2-282M23,4,404,AS,exp,30,↓,down,↓,0.4172400000002199,True,20,-1,0,8
Y2-S2-282M23,4,405,AS,exp,38,←,down,↓,0.9822994000001017,False,20,-1,0,8
Y2-S2-282M23,4,406,AS,exp,29,↑,up,↑,0.48387319999983447,True,21,-1,0,8
Y2-S2-282M23,4,407,AS,exp,30,←,left,←,0.679807499999697,True,21,-1,0,8
Y2-S2-282M23,4,408,AS,exp,42,↓,down,↓,0.7630372999997235,True,21,1,1,9
Y2-S2-282M23,4,409,AS,exp,29,↑,down,↓,1.0707750999999917,False,20,-1,1,10
Y2-S2-282M23,4,410,AS,exp,31,→,right,→,0.6431942000003801,True,21,-1,0,10
Y2-S2-282M23,4,411,AS,exp,49,←,left,←,0.8051960000002509,True,21,-1,0,10
Y2-S2-282M23,4,412,AS,exp,35,↑,up,↑,0.4006989999998041,True,21,1,1,11
Y2-S2-282M23,4,413,AS,exp,48,←,right,→,1.0726112000002104,False,20,-1,1,12
Y2-S2-282M23,4,414,AS,exp,37,↑,left,←,0.9670525000001362,False,21,-1,0,12
Y2-S2-282M23,4,415,AS,exp,46,↓,down,↓,0.7952377999999953,True,22,-1,0,12
Y2-S2-282M23,4,416,AS,exp,49,←,left,←,1.224883200000022,True,22,-1,0,12
Y2-S2-282M23,4,417,AS,exp,40,→,right,→,0.6235216000000037,True,22,1,1,13
Y2-S2-282M23,4,418,AS,exp,39,↑,left,←,1.1385924999999588,False,21,-1,1,14
Y2-S2-282M23,4,419,AS,exp,43,↓,down,↓,0.6946730999998181,True,22,-1,0,14
Y2-S2-282M23,4,420,AS,exp,40,↑,down,↓,0.5010874000004151,False,22,-1,0,14
Y2-S2-282M23,4,421,AS,exp,26,←,down,↓,0.48394150000012814,False,23,-1,0,14
Y2-S2-282M23,4,422,AS,exp,27,↑,up,↑,0.8602678000002015,True,24,-1,0,14
Y2-S2-282M23,4,423,AS,exp,33,→,down,↓,0.6470263999999588,False,24,-1,0,14
Y2-S2-282M23,4,424,AS,exp,35,↑,up,↑,0.6227708999999777,True,25,-1,0,14
Y2-S2-282M23,4,425,AS,exp,46,←,left,←,0.9130966999996417,True,25,-1,0,14
Y2-S2-282M23,4,426,AS,exp,41,↓,down,↓,0.5935727999999472,True,25,1,1,15
Y2-S2-282M23,4,427,AS,exp,37,→,right,→,0.4839100000003782,True,24,1,0,15
Y2-S2-282M23,4,428,AS,exp,27,←,left,←,0.6577809000000343,True,24,1,0,15
Y2-S2-282M23,4,429,AS,exp,48,→,right,→,0.43376439999974536,True,24,1,0,15
Y2-S2-282M23,4,430,AS,exp,44,←,left,←,0.7216459000001123,True,23,1,0,15
Y2-S2-282M23,4,431,AS,exp,39,↓,down,↓,1.360543300000245,True,23,1,0,15
Y2-S2-282M23,4,432,AS,exp,45,←,left,←,0.4174931000002289,True,23,1,0,15
Y2-S2-282M23,4,433,AS,exp,46,→,right,→,0.41731639999989056,True,22,1,0,15
Y2-S2-282M23,4,434,AS,exp,39,←,left,←,0.417635099999643,True,22,1,0,15
Y2-S2-282M23,4,435,AS,exp,39,↓,down,↓,0.5673062000000755,True,22,1,0,15
Y2-S2-282M23,4,436,AS,exp,44,←,left,←,0.40049309999994875,True,21,1,0,15
Y2-S2-282M23,4,437,AS,exp,42,↑,down,↓,0.8708345999998528,False,21,-1,1,16
Y2-S2-282M23,5,438,AS,intra_train,50,↓,down,↓,0.9809740000000602,True,28,-,-,-
Y2-S2-282M23,5,439,AS,intra_train,26,↑,up,↑,0.5340652999998383,True,28,-,-,-
Y2-S2-282M23,5,440,AS,intra_train,43,↓,down,↓,1.1829907999999705,True,28,-,-,-
Y2-S2-282M23,5,441,AS,intra_train,46,↑,up,↑,0.5840060999998968,True,28,-,-,-
Y2-S2-282M23,5,442,AS,intra_train,37,→,right,→,0.43470320000005813,True,28,-,-,-
Y2-S2-282M23,5,443,AS,exp,46,↑,up,↑,0.7152893000002223,True,19,0,0,0
Y2-S2-282M23,5,444,AS,exp,44,→,left,←,0.45053009999992355,False,19,-1,0,0
Y2-S2-282M23,5,445,AS,exp,40,↓,down,↓,0.987038400000074,True,20,-1,0,0
Y2-S2-282M23,5,446,AS,exp,37,↑,up,↑,0.7278424000000996,True,20,-1,0,0
Y2-S2-282M23,5,447,AS,exp,37,→,right,→,0.5802147999997942,True,20,1,1,1
Y2-S2-282M23,5,448,AS,exp,26,↑,up,↑,0.8528200999999171,True,19,1,0,1
Y2-S2-282M23,5,449,AS,exp,47,↓,down,↓,0.41713879999997516,True,19,1,0,1
Y2-S2-282M23,5,450,AS,exp,32,→,right,→,0.45062899999993533,True,19,1,0,1
Y2-S2-282M23,5,451,AS,exp,44,↓,down,↓,0.5396868000002542,True,18,1,0,1
Y2-S2-282M23,5,452,AS,exp,34,→,right,→,0.4798523999997997,True,18,1,0,1
Y2-S2-282M23,5,453,AS,exp,45,←,left,←,0.5222447000001011,True,18,1,0,1
Y2-S2-282M23,5,454,AS,exp,44,↓,down,↓,0.4677897999999914,True,17,1,0,1
Y2-S2-282M23,5,455,AS,exp,50,→,right,→,0.4687648999997691,True,17,1,0,1
Y2-S2-282M23,5,456,AS,exp,29,↑,down,↓,0.8396827000001394,False,17,-1,1,2
Y2-S2-282M23,5,457,AS,exp,28,→,left,←,0.6371924999998555,False,18,-1,0,2
Y2-S2-282M23,5,458,AS,exp,48,↓,no_key,no_letter,-1.0,False,19,-1,0,2
Y2-S2-282M23,5,459,AS,exp,33,↑,up,↑,0.8772735000002285,True,20,-1,0,2
Y2-S2-282M23,5,460,AS,exp,27,→,right,→,0.501075199999832,True,20,-1,0,2
Y2-S2-282M23,5,461,AS,exp,43,←,left,←,1.301263100000142,True,20,1,1,3
Y2-S2-282M23,5,462,AS,exp,50,↓,up,↑,0.8412240999996357,False,19,-1,1,4
Y2-S2-282M23,5,463,AS,exp,35,↑,down,↓,0.7763420000001133,False,20,-1,0,4
Y2-S2-282M23,5,464,AS,exp,32,→,right,→,0.41734089999999924,True,21,-1,0,4
Y2-S2-282M23,5,465,AS,exp,28,↑,up,↑,0.5240435999999136,True,21,-1,0,4
Y2-S2-282M23,5,466,AS,exp,39,←,left,←,0.7134547999999086,True,21,1,1,5
Y2-S2-282M23,5,467,AS,exp,42,↑,left,←,0.7895927999998094,False,20,-1,1,6
Y2-S2-282M23,5,468,AS,exp,25,↓,down,↓,0.9252432000002955,True,21,-1,0,6
Y2-S2-282M23,5,469,AS,exp,50,↑,up,↑,0.6286906000000272,True,21,-1,0,6
Y2-S2-282M23,5,470,AS,exp,46,↓,down,↓,0.6451267999996162,True,21,1,1,7
Y2-S2-282M23,5,471,AS,exp,39,↑,up,↑,0.5193840000001728,True,20,1,0,7
Y2-S2-282M23,5,472,AS,exp,43,→,right,→,0.4174395000000004,True,20,1,0,7
Y2-S2-282M23,5,473,AS,exp,50,↓,down,↓,0.6786706999996568,True,20,1,0,7
Y2-S2-282M23,5,474,AS,exp,28,↑,up,↑,0.7060510000001159,True,19,1,0,7
Y2-S2-282M23,5,475,AS,exp,35,→,right,→,0.5199173999999402,True,19,1,0,7
Y2-S2-282M23,5,476,AS,exp,34,←,left,←,0.5660489000001689,True,19,1,0,7
Y2-S2-282M23,5,477,AS,exp,37,↓,down,↓,0.7612290000001849,True,18,1,0,7
Y2-S2-282M23,5,478,AS,exp,36,→,left,←,0.5168504999996912,False,18,-1,1,8
Y2-S2-282M23,5,479,AS,exp,28,←,right,→,0.8882886999999755,False,19,-1,0,8
Y2-S2-282M23,5,480,AS,exp,43,→,right,→,0.6581562000001213,True,20,-1,0,8
Y2-S2-282M23,5,481,AS,exp,26,↓,down,↓,1.474473499999931,True,20,-1,0,8
Y2-S2-282M23,5,482,AS,exp,32,←,left,←,0.5494957999999315,True,20,1,1,9
Y2-S2-282M23,5,483,AS,exp,36,→,right,→,0.8397517999997035,True,19,1,0,9
Y2-S2-282M23,5,484,AS,exp,33,↓,down,↓,0.6158041999997295,True,19,1,0,9
Y2-S2-282M23,5,485,AS,exp,50,↑,down,↓,0.7010806000002958,False,19,-1,1,10
Y2-S2-282M23,5,486,AS,exp,40,←,left,←,0.764249700000164,True,20,-1,0,10
Y2-S2-282M23,5,487,AS,exp,43,↑,down,↓,0.8313533000000461,False,20,-1,0,10
Y2-S2-282M23,5,488,AS,exp,35,→,right,→,0.3672347000001537,True,21,-1,0,10
Y2-S2-282M23,5,489,AS,exp,32,↓,down,↓,0.4838694000000032,True,21,-1,0,10
Y2-S2-282M23,5,490,AS,exp,49,←,left,←,0.4339089000000058,True,21,1,1,11
Y2-S2-282M23,5,491,AS,exp,38,↑,right,→,0.9011738000003788,False,20,-1,1,12
Y2-S2-282M23,5,492,AS,exp,36,→,right,→,0.3674289000000499,True,21,-1,0,12
Y2-S2-282M23,5,493,AS,exp,34,↓,left,←,0.9282871000000341,False,21,-1,0,12
Y2-S2-282M23,5,494,AS,exp,37,↑,right,→,0.9278252999997676,False,22,-1,0,12
Y2-S2-282M23,5,495,AS,exp,37,↓,down,↓,0.7476737000001776,True,23,-1,0,12
Y2-S2-282M23,5,496,AS,exp,25,→,right,→,0.7160690000000614,True,23,-1,0,12
Y2-S2-282M23,5,497,AS,exp,30,↓,down,↓,0.8514447000002292,True,23,1,1,13
Y2-S2-282M23,5,498,AS,exp,35,←,down,↓,0.11778559999993377,False,22,-1,1,14
Y2-S2-282M23,5,499,AS,exp,46,↑,down,↓,0.8373492999999144,False,23,-1,0,14
Y2-S2-282M23,5,500,AS,exp,28,↓,left,←,1.2874821999998858,False,24,-1,0,14
Y2-S2-282M23,5,501,AS,exp,30,→,left,←,0.8898472999999285,False,25,-1,0,14
Y2-S2-282M23,5,502,AS,exp,28,↓,down,↓,0.7796014000000469,True,26,-1,0,14
Y2-S2-282M23,5,503,AS,exp,38,←,left,←,0.5339270999998007,True,26,-1,0,14
Y2-S2-282M23,5,504,AS,exp,38,→,right,→,0.5006048000000192,True,26,1,1,15
Y2-S2-282M23,5,505,AS,exp,50,←,left,←,0.8061655000001338,True,25,1,0,15
Y2-S2-282M23,5,506,AS,exp,26,↓,down,↓,0.8863126999999622,True,25,1,0,15
Y2-S2-282M23,5,507,AS,exp,32,→,right,→,0.5338792000002286,True,25,1,0,15
Y2-S2-282M23,5,508,AS,exp,42,↑,up,↑,0.9985416999998051,True,24,1,0,15
Y2-S2-282M23,5,509,AS,exp,38,↓,down,↓,0.6722865000001548,True,24,1,0,15
Y2-S2-282M23,5,510,AS,exp,31,↑,up,↑,0.8498524000001453,True,24,1,0,15
Y2-S2-282M23,5,511,AS,exp,25,↓,no_key,no_letter,-1.0,False,23,-1,1,16
Y2-S2-282M23,6,512,PS,intra_train,30,→,left,←,0.6869635000002745,False,9,-,-,-
Y2-S2-282M23,6,513,PS,intra_train,36,←,left,←,0.4673689999999624,True,9,-,-,-
Y2-S2-282M23,6,514,PS,intra_train,37,↑,up,↑,0.43302619999985836,True,9,-,-,-
Y2-S2-282M23,6,515,PS,intra_train,44,←,left,←,0.44850170000017897,True,9,-,-,-
Y2-S2-282M23,6,516,PS,intra_train,40,↓,down,↓,0.6281007999996291,True,9,-,-,-
Y2-S2-282M23,6,517,PS,exp,33,←,left,←,0.47372290000021167,True,6,0,0,0
Y2-S2-282M23,6,518,PS,exp,43,↑,up,↑,0.49338920000036524,True,6,0,0,0
Y2-S2-282M23,6,519,PS,exp,30,→,right,→,0.435823000000255,True,6,1,0,0
Y2-S2-282M23,6,520,PS,exp,41,↑,up,↑,0.4469579000001431,True,5,1,0,0
Y2-S2-282M23,6,521,PS,exp,46,↓,left,←,0.6577293999998801,False,5,-1,1,1
Y2-S2-282M23,6,522,PS,exp,35,→,right,→,0.432585200000176,True,6,-1,0,1
Y2-S2-282M23,6,523,PS,exp,35,↓,left,←,0.7468933999998626,False,6,-1,0,1
Y2-S2-282M23,6,524,PS,exp,42,←,right,→,0.31628560000035577,False,7,-1,0,1
Y2-S2-282M23,6,525,PS,exp,27,↓,down,↓,0.5008201000000554,True,8,-1,0,1
Y2-S2-282M23,6,526,PS,exp,39,↑,right,→,0.8827728000001116,False,8,-1,0,1
Y2-S2-282M23,6,527,PS,exp,40,↓,down,↓,0.4455652999999984,True,9,-1,0,1
Y2-S2-282M23,6,528,PS,exp,45,←,left,←,0.4247357999997803,True,9,-1,0,1
Y2-S2-282M23,6,529,PS,exp,29,↑,up,↑,0.5042195999999421,True,9,1,1,2
Y2-S2-282M23,6,530,PS,exp,40,↓,down,↓,0.3630887999997867,True,8,1,0,2
Y2-S2-282M23,6,531,PS,exp,39,↑,up,↑,0.42011520000005476,True,8,1,0,2
Y2-S2-282M23,6,532,PS,exp,45,→,right,→,0.7044676999998956,True,8,1,0,2
Y2-S2-282M23,6,533,PS,exp,43,↓,down,↓,1.221639100000175,True,7,1,0,2
Y2-S2-282M23,6,534,PS,exp,32,←,down,↓,0.7083133000000998,False,7,-1,1,3
Y2-S2-282M23,6,535,PS,exp,45,↑,up,↑,0.6706975000001876,True,8,-1,0,3
Y2-S2-282M23,6,536,PS,exp,49,→,right,→,0.7051003999999921,True,8,-1,0,3
Y2-S2-282M23,6,537,PS,exp,49,↓,down,↓,0.6718263999996452,True,8,1,1,4
Y2-S2-282M23,6,538,PS,exp,26,←,down,↓,0.8246123999997508,False,7,-1,1,5
Y2-S2-282M23,6,539,PS,exp,47,↓,down,↓,0.454448300000422,True,8,-1,0,5
Y2-S2-282M23,6,540,PS,exp,36,→,right,→,0.5630793999998787,True,8,-1,0,5
Y2-S2-282M23,6,541,PS,exp,47,↓,down,↓,0.49376600000005055,True,8,1,1,6
Y2-S2-282M23,6,542,PS,exp,27,→,right,→,0.4563421000002563,True,7,1,0,6
Y2-S2-282M23,6,543,PS,exp,47,←,left,←,0.4416584000000512,True,7,1,0,6
Y2-S2-282M23,6,544,PS,exp,28,→,right,→,0.5648065999998835,True,7,1,0,6
Y2-S2-282M23,6,545,PS,exp,30,←,left,←,0.5673222000000351,True,6,1,0,6
Y2-S2-282M23,6,546,PS,exp,28,↓,down,↓,0.4966515999999501,True,6,1,0,6
Y2-S2-282M23,6,547,PS,exp,42,↑,down,↓,0.517810300000292,False,6,-1,1,7
Y2-S2-282M23,6,548,PS,exp,42,→,right,→,0.8499941000000035,True,7,-1,0,7
Y2-S2-282M23,6,549,PS,exp,30,↑,up,↑,0.5464604000003419,True,7,-1,0,7
Y2-S2-282M23,6,550,PS,exp,37,↓,down,↓,0.3916156000000228,True,7,1,1,8
Y2-S2-282M23,6,551,PS,exp,45,↑,up,↑,0.48165689999996175,True,6,1,0,8
Y2-S2-282M23,6,552,PS,exp,41,→,right,→,0.6693122000001495,True,6,1,0,8
Y2-S2-282M23,6,553,PS,exp,50,←,left,←,0.5167255000001205,True,6,1,0,8
Y2-S2-282M23,6,554,PS,exp,25,↑,right,→,0.6912755000003017,False,5,-1,1,9
Y2-S2-282M23,6,555,PS,exp,31,←,left,←,0.392848800000138,True,6,-1,0,9
Y2-S2-282M23,6,556,PS,exp,49,↓,down,↓,0.5129520999998931,True,6,-1,0,9
Y2-S2-282M23,6,557,PS,exp,46,↑,right,→,0.7119996999999785,False,6,-1,0,9
Y2-S2-282M23,6,558,PS,exp,45,←,right,→,0.6991115999999238,False,7,-1,0,9
Y2-S2-282M23,6,559,PS,exp,33,↑,up,↑,0.4864669000003232,True,8,-1,0,9
Y2-S2-282M23,6,560,PS,exp,30,↓,right,→,0.7568992000001344,False,8,-1,0,9
Y2-S2-282M23,6,561,PS,exp,27,↑,up,↑,0.41224190000002636,True,9,-1,0,9
Y2-S2-282M23,6,562,PS,exp,40,→,up,↑,0.6822236000002704,False,9,-1,0,9
Y2-S2-282M23,6,563,PS,exp,35,↑,up,↑,0.4850947999998425,True,10,-1,0,9
Y2-S2-282M23,6,564,PS,exp,31,↓,right,→,0.7741000999999414,False,10,-1,0,9
Y2-S2-282M23,6,565,PS,exp,27,↑,up,↑,0.441070999999738,True,11,-1,0,9
Y2-S2-282M23,6,566,PS,exp,29,→,right,→,0.39576919999990423,True,11,-1,0,9
Y2-S2-282M23,6,567,PS,exp,25,↓,down,↓,0.7235717000003206,True,11,1,1,10
Y2-S2-282M23,6,568,PS,exp,46,←,left,←,0.3984184999999343,True,10,1,0,10
Y2-S2-282M23,6,569,PS,exp,37,→,right,→,0.5022489999996651,True,10,1,0,10
Y2-S2-282M23,6,570,PS,exp,26,↑,up,↑,0.4096265999996831,True,10,1,0,10
Y2-S2-282M23,6,571,PS,exp,40,←,left,←,0.5540844000001925,True,9,1,0,10
Y2-S2-282M23,6,572,PS,exp,44,↑,up,↑,0.8592813000000206,True,9,1,0,10
Y2-S2-282M23,6,573,PS,exp,26,→,right,→,0.7889374999999745,True,9,1,0,10
Y2-S2-282M23,6,574,PS,exp,26,←,left,←,0.5962582999995902,True,8,1,0,10
Y2-S2-282M23,6,575,PS,exp,34,↓,down,↓,1.1299632000000202,True,8,1,0,10
Y2-S2-282M23,6,576,PS,exp,30,↑,right,→,0.9932491999998092,False,8,-1,1,11
Y2-S2-282M23,6,577,PS,exp,29,↓,up,↑,0.9520109999998567,False,9,-1,0,11
Y2-S2-282M23,6,578,PS,exp,50,↑,up,↑,0.5480706000003011,True,10,-1,0,11
Y2-S2-282M23,6,579,PS,exp,29,←,left,←,0.4540319000002455,True,10,-1,0,11
Y2-S2-282M23,6,580,PS,exp,37,→,down,↓,0.834745600000133,False,10,-1,0,11
Y2-S2-282M23,6,581,PS,exp,45,↑,up,↑,0.6361878000002434,True,11,-1,0,11
Y2-S2-282M23,6,582,PS,exp,41,↓,down,↓,1.3390223000001242,True,11,-1,0,11
Y2-S2-282M23,6,583,PS,exp,39,↑,up,↑,0.45357060000014826,True,11,1,1,12
Y2-S2-282M23,6,584,PS,exp,28,←,left,←,0.5835557999998855,True,10,1,0,12
Y2-S2-282M23,6,585,PS,exp,31,↓,down,↓,0.591894400000001,True,10,1,0,12
Y2-S2-282M23,6,586,PS,exp,37,→,left,←,0.7307068999998592,False,10,-1,1,13
Y2-S2-282M23,6,587,PS,exp,25,↓,down,↓,0.4947509999997237,True,11,-1,0,13
Y2-S2-282M23,6,588,PS,exp,48,←,left,←,0.4090562999999747,True,11,-1,0,13
Y2-S2-282M23,6,589,PS,exp,30,↑,up,↑,0.5558984999997847,True,11,1,1,14
Y2-S2-282M23,6,590,PS,exp,26,↓,down,↓,0.540827100000115,True,10,1,0,14
Y2-S2-282M23,6,591,PS,exp,50,→,right,→,0.4207358000003296,True,10,1,0,14
Y2-S2-282M23,6,592,PS,exp,30,←,left,←,0.7731662000001052,True,10,1,0,14
Y2-S2-282M23,6,593,PS,exp,43,↑,up,↑,0.5986878999997316,True,9,1,0,14
Y2-S2-282M23,6,594,PS,exp,42,←,left,←,0.5661496000002444,True,9,1,0,14
Y2-S2-282M23,6,595,PS,exp,29,↓,down,↓,0.5816117999997914,True,9,1,0,14
Y2-S2-282M23,6,596,PS,exp,44,→,left,←,0.42935520000037286,False,8,-1,1,15
Y2-S2-282M23,6,597,PS,exp,33,↓,down,↓,0.8545744000002742,True,9,-1,0,15
Y2-S2-282M23,6,598,PS,exp,50,↑,right,→,0.5944221999998263,False,9,-1,0,15
Y2-S2-282M23,6,599,PS,exp,41,←,left,←,0.9922477000000072,True,10,-1,0,15
Y2-S2-282M23,6,600,PS,exp,37,↓,down,↓,0.36885190000020884,True,10,-1,0,15
Y2-S2-282M23,6,601,PS,exp,41,↑,up,↑,0.5711817999999766,True,10,1,1,16
Y2-S2-282M23,7,602,PS,intra_train,50,↓,up,↑,0.6394474000003356,False,9,-,-,-
Y2-S2-282M23,7,603,PS,intra_train,25,↑,down,↓,0.9043379999998251,False,9,-,-,-
Y2-S2-282M23,7,604,PS,intra_train,26,→,up,↑,0.5350656999999046,False,9,-,-,-
Y2-S2-282M23,7,605,PS,intra_train,42,←,left,←,0.4375750000003791,True,9,-,-,-
Y2-S2-282M23,7,606,PS,intra_train,38,→,right,→,0.4507902999998805,True,9,-,-,-
Y2-S2-282M23,7,607,PS,exp,49,←,right,→,0.644553999999971,False,6,-1,0,0
Y2-S2-282M23,7,608,PS,exp,47,↑,up,↑,0.4942015999999967,True,7,-1,0,0
Y2-S2-282M23,7,609,PS,exp,28,→,left,←,0.3693644999998469,False,7,-1,0,0
Y2-S2-282M23,7,610,PS,exp,41,←,left,←,0.44241239999973914,True,8,-1,0,0
Y2-S2-282M23,7,611,PS,exp,33,↓,right,→,0.5321711999999934,False,8,-1,0,0
Y2-S2-282M23,7,612,PS,exp,28,→,right,→,0.7398831999998947,True,9,-1,0,0
Y2-S2-282M23,7,613,PS,exp,46,←,left,←,0.4107093000002351,True,9,-1,0,0
Y2-S2-282M23,7,614,PS,exp,32,↓,right,→,0.628574800000024,False,9,-1,0,0
Y2-S2-282M23,7,615,PS,exp,50,→,right,→,0.46525130000009085,True,10,-1,0,0
Y2-S2-282M23,7,616,PS,exp,48,←,left,←,0.4573356999999305,True,10,-1,0,0
Y2-S2-282M23,7,617,PS,exp,25,↓,down,↓,0.6617399000001569,True,10,1,1,1
Y2-S2-282M23,7,618,PS,exp,29,→,right,→,0.41162489999987883,True,9,1,0,1
Y2-S2-282M23,7,619,PS,exp,37,←,right,→,0.6922442999998566,False,9,-1,1,2
Y2-S2-282M23,7,620,PS,exp,26,→,right,→,0.41144479999957184,True,10,-1,0,2
Y2-S2-282M23,7,621,PS,exp,50,↓,down,↓,0.5278959999996005,True,10,-1,0,2
Y2-S2-282M23,7,622,PS,exp,37,↑,up,↑,0.5214766999997664,True,10,1,1,3
Y2-S2-282M23,7,623,PS,exp,33,↓,down,↓,0.554228399999829,True,9,1,0,3
Y2-S2-282M23,7,624,PS,exp,49,←,down,↓,0.7073918000000958,False,9,-1,1,4
Y2-S2-282M23,7,625,PS,exp,36,↓,down,↓,0.5892671999999948,True,10,-1,0,4
Y2-S2-282M23,7,626,PS,exp,34,→,right,→,0.44224949999988894,True,10,-1,0,4
Y2-S2-282M23,7,627,PS,exp,42,↓,down,↓,0.6842243999999482,True,10,1,1,5
Y2-S2-282M23,7,628,PS,exp,43,↑,down,↓,0.6006695000000946,False,9,-1,1,6
Y2-S2-282M23,7,629,PS,exp,34,↓,down,↓,0.5055262999999286,True,10,-1,0,6
Y2-S2-282M23,7,630,PS,exp,33,←,right,→,0.8199976999999308,False,10,-1,0,6
Y2-S2-282M23,7,631,PS,exp,32,↓,right,→,0.8316348000003018,False,11,-1,0,6
Y2-S2-282M23,7,632,PS,exp,31,→,right,→,0.46688780000022234,True,12,-1,0,6
Y2-S2-282M23,7,633,PS,exp,33,↑,up,↑,0.7193978000000243,True,12,-1,0,6
Y2-S2-282M23,7,634,PS,exp,38,←,left,←,0.7594665999999961,True,12,1,1,7
Y2-S2-282M23,7,635,PS,exp,49,↑,up,↑,0.46538129999999,True,11,1,0,7
Y2-S2-282M23,7,636,PS,exp,36,←,left,←,0.40012499999966167,True,11,1,0,7
Y2-S2-282M23,7,637,PS,exp,37,→,right,→,0.36262970000007044,True,11,1,0,7
Y2-S2-282M23,7,638,PS,exp,32,←,left,←,0.4413961999998719,True,10,1,0,7
Y2-S2-282M23,7,639,PS,exp,29,→,left,←,0.6869172000001527,False,10,-1,1,8
Y2-S2-282M23,7,640,PS,exp,35,←,left,←,0.4692609000003358,True,11,-1,0,8
Y2-S2-282M23,7,641,PS,exp,33,→,right,→,0.6077678999999989,True,11,-1,0,8
Y2-S2-282M23,7,642,PS,exp,34,←,left,←,1.3989536999997654,True,11,1,1,9
Y2-S2-282M23,7,643,PS,exp,25,↑,up,↑,0.4011642000000393,True,10,1,0,9
Y2-S2-282M23,7,644,PS,exp,42,↓,down,↓,0.611523600000055,True,10,1,0,9
Y2-S2-282M23,7,645,PS,exp,31,↑,left,←,0.7813319000001684,False,10,-1,1,10
Y2-S2-282M23,7,646,PS,exp,50,↓,down,↓,0.5273348999999143,True,11,-1,0,10
Y2-S2-282M23,7,647,PS,exp,43,→,right,→,0.40366599999970276,True,11,-1,0,10
Y2-S2-282M23,7,648,PS,exp,37,←,left,←,0.40501369999992676,True,11,1,1,11
Y2-S2-282M23,7,649,PS,exp,42,→,left,←,0.4329106000000138,False,10,-1,1,12
Y2-S2-282M23,7,650,PS,exp,36,↓,down,↓,0.6706709000000046,True,11,-1,0,12
Y2-S2-282M23,7,651,PS,exp,46,↑,down,↓,0.588838499999838,False,11,-1,0,12
Y2-S2-282M23,7,652,PS,exp,32,←,left,←,0.5241780999999719,True,12,-1,0,12
Y2-S2-282M23,7,653,PS,exp,41,↑,up,↑,0.38835840000001554,True,12,-1,0,12
Y2-S2-282M23,7,654,PS,exp,30,↓,down,↓,0.8175381999999445,True,12,1,1,13
Y2-S2-282M23,7,655,PS,exp,30,←,left,←,0.5286123000000771,True,11,1,0,13
Y2-S2-282M23,7,656,PS,exp,37,↑,up,↑,0.6294152000000395,True,11,1,0,13
Y2-S2-282M23,7,657,PS,exp,41,→,right,→,0.5882292999999663,True,11,1,0,13
Y2-S2-282M23,7,658,PS,exp,42,←,left,←,0.5742639999998573,True,10,1,0,13
Y2-S2-282M23,7,659,PS,exp,43,↑,up,↑,0.5576732000004085,True,10,1,0,13
Y2-S2-282M23,7,660,PS,exp,28,↓,left,←,0.7569073999998182,False,10,-1,1,14
Y2-S2-282M23,7,661,PS,exp,31,→,right,→,0.5208250000000589,True,11,-1,0,14
Y2-S2-282M23,7,662,PS,exp,42,←,left,←,0.7645673000001807,True,11,-1,0,14
Y2-S2-282M23,7,663,PS,exp,36,↓,down,↓,0.4986484000000928,True,11,1,1,15
Y2-S2-282M23,7,664,PS,exp,31,→,right,→,0.40912310000021535,True,10,1,0,15
Y2-S2-282M23,7,665,PS,exp,37,↓,down,↓,0.57614250000006,True,10,1,0,15
Y2-S2-282M23,7,666,PS,exp,28,↑,up,↑,0.44887400000015987,True,10,1,0,15
Y2-S2-282M23,7,667,PS,exp,26,←,left,←,0.44165650000013557,True,9,1,0,15
Y2-S2-282M23,7,668,PS,exp,26,↑,up,↑,0.403921299999638,True,9,1,0,15
Y2-S2-282M23,7,669,PS,exp,29,→,down,↓,0.6695913000003202,False,9,-1,1,16
Y2-S2-282M23,8,670,AS,intra_train,44,↑,up,↑,1.4999886000000515,True,28,-,-,-
Y2-S2-282M23,8,671,AS,intra_train,39,↓,down,↓,1.029843300000266,True,28,-,-,-
Y2-S2-282M23,8,672,AS,intra_train,48,→,right,→,0.8920539999999164,True,28,-,-,-
Y2-S2-282M23,8,673,AS,intra_train,25,↑,up,↑,1.3401327999999921,True,28,-,-,-
Y2-S2-282M23,8,674,AS,intra_train,43,←,left,←,0.43442589999995107,True,28,-,-,-
Y2-S2-282M23,8,675,AS,exp,42,↑,right,→,0.9707765000002837,False,19,-1,0,0
Y2-S2-282M23,8,676,AS,exp,39,←,left,←,0.6826414000001932,True,20,-1,0,0
Y2-S2-282M23,8,677,AS,exp,47,↑,right,→,0.5275722000001224,False,20,-1,0,0
Y2-S2-282M23,8,678,AS,exp,28,←,up,↑,1.9124313000002076,False,21,-1,0,0
Y2-S2-282M23,8,679,AS,exp,29,↓,left,←,0.35072889999992185,False,22,-1,0,0
Y2-S2-282M23,8,680,AS,exp,34,←,left,←,0.16794780000009268,True,23,-1,0,0
Y2-S2-282M23,8,681,AS,exp,35,→,up,↑,1.2654898999999205,False,23,-1,0,0
Y2-S2-282M23,8,682,AS,exp,25,←,up,↑,0.5880941000000348,False,24,-1,0,0
Y2-S2-282M23,8,683,AS,exp,36,↑,up,↑,0.9135113000002093,True,25,-1,0,0
Y2-S2-282M23,8,684,AS,exp,40,→,right,→,0.38475370000014664,True,25,-1,0,0
Y2-S2-282M23,8,685,AS,exp,47,↓,down,↓,0.652879600000233,True,25,1,1,1
Y2-S2-282M23,8,686,AS,exp,39,←,left,←,0.6160963000002084,True,24,1,0,1
Y2-S2-282M23,8,687,AS,exp,46,↓,left,←,1.1391445999997813,False,24,-1,1,2
Y2-S2-282M23,8,688,AS,exp,39,→,left,←,0.6651414999996632,False,25,-1,0,2
Y2-S2-282M23,8,689,AS,exp,39,↓,up,↑,0.8616368000002694,False,26,-1,0,2
Y2-S2-282M23,8,690,AS,exp,42,→,right,→,0.6607789999998204,True,27,-1,0,2
Y2-S2-282M23,8,691,AS,exp,35,←,left,←,0.5005396999999903,True,27,-1,0,2
Y2-S2-282M23,8,692,AS,exp,28,↑,up,↑,0.5507053000001179,True,27,1,1,3
Y2-S2-282M23,8,693,AS,exp,46,↓,up,↑,0.5675390999999763,False,26,-1,1,4
Y2-S2-282M23,8,694,AS,exp,36,→,right,→,0.8401103000001058,True,27,-1,0,4
Y2-S2-282M23,8,695,AS,exp,44,←,left,←,0.4506109000003562,True,27,-1,0,4
Y2-S2-282M23,8,696,AS,exp,44,↓,down,↓,0.9410308000001351,True,27,1,1,5
Y2-S2-282M23,8,697,AS,exp,32,↑,up,↑,0.4669595999998819,True,26,1,0,5
Y2-S2-282M23,8,698,AS,exp,28,→,right,→,0.8414187000003039,True,26,1,0,5
Y2-S2-282M23,8,699,AS,exp,49,↓,down,↓,0.9666667999999845,True,26,1,0,5
Y2-S2-282M23,8,700,AS,exp,27,→,right,→,1.4909840000000258,True,25,1,0,5
Y2-S2-282M23,8,701,AS,exp,47,↑,up,↑,0.9515044000004309,True,25,1,0,5
Y2-S2-282M23,8,702,AS,exp,29,→,right,→,0.4340470000001915,True,25,1,0,5
Y2-S2-282M23,8,703,AS,exp,30,↑,up,↑,0.8676983999998811,True,24,1,0,5
Y2-S2-282M23,8,704,AS,exp,37,↓,down,↓,0.7512225999998918,True,24,1,0,5
Y2-S2-282M23,8,705,AS,exp,27,↑,up,↑,0.33448490000000675,True,24,1,0,5
Y2-S2-282M23,8,706,AS,exp,48,↓,down,↓,0.9030212999996365,True,23,1,0,5
Y2-S2-282M23,8,707,AS,exp,32,↑,up,↑,0.4840810999999121,True,23,1,0,5
Y2-S2-282M23,8,708,AS,exp,49,↓,down,↓,0.7849142000000029,True,23,1,0,5
Y2-S2-282M23,8,709,AS,exp,36,→,right,→,0.4339234999997643,True,22,1,0,5
Y2-S2-282M23,8,710,AS,exp,50,↓,down,↓,0.5905778000001192,True,22,1,0,5
Y2-S2-282M23,8,711,AS,exp,41,←,left,←,0.6444903000001432,True,22,1,0,5
Y2-S2-282M23,8,712,AS,exp,48,→,right,→,0.43406340000001364,True,21,1,0,5
Y2-S2-282M23,8,713,AS,exp,42,↑,down,↓,0.8273420999998962,False,21,-1,1,6
Y2-S2-282M23,8,714,AS,exp,49,↓,down,↓,0.8321282999995674,True,22,-1,0,6
Y2-S2-282M23,8,715,AS,exp,31,↑,up,↑,0.7661431999999877,True,22,-1,0,6
Y2-S2-282M23,8,716,AS,exp,34,↓,down,↓,0.6936970000001565,True,22,1,1,7
Y2-S2-282M23,8,717,AS,exp,49,→,right,→,0.7295242000000144,True,21,1,0,7
Y2-S2-282M23,8,718,AS,exp,43,←,left,←,0.43392519999997603,True,21,1,0,7
Y2-S2-282M23,8,719,AS,exp,48,↓,up,↑,0.7121594000000186,False,21,-1,1,8
Y2-S2-282M23,8,720,AS,exp,32,←,left,←,0.6613391000000775,True,22,-1,0,8
Y2-S2-282M23,8,721,AS,exp,27,↓,up,↑,0.8644825999999739,False,22,-1,0,8
Y2-S2-282M23,8,722,AS,exp,40,→,right,→,0.726687000000311,True,23,-1,0,8
Y2-S2-282M23,8,723,AS,exp,36,←,right,→,0.31760579999991023,False,23,-1,0,8
Y2-S2-282M23,8,724,AS,exp,35,→,left,←,0.3847201999997196,False,24,-1,0,8
Y2-S2-282M23,8,725,AS,exp,35,←,left,←,0.40061229999992065,True,25,-1,0,8
Y2-S2-282M23,8,726,AS,exp,26,↑,up,↑,0.5504708999997092,True,25,-1,0,8
Y2-S2-282M23,8,727,AS,exp,28,→,right,→,0.41723689999980706,True,25,1,1,9
Y2-S2-282M23,8,728,AS,exp,27,↑,up,↑,0.6513694000000214,True,24,1,0,9
Y2-S2-282M23,8,729,AS,exp,28,←,left,←,0.7929817999997795,True,24,1,0,9
Y2-S2-282M23,8,730,AS,exp,41,→,right,→,0.6458254999997735,True,24,1,0,9
Y2-S2-282M23,8,731,AS,exp,31,↑,up,↑,0.36726080000016736,True,23,1,0,9
Y2-S2-282M23,8,732,AS,exp,44,←,left,←,0.48367659999985335,True,23,1,0,9
Y2-S2-282M23,8,733,AS,exp,28,↑,up,↑,0.6615317000000687,True,23,1,0,9
Y2-S2-282M23,8,734,AS,exp,27,→,right,→,0.4172686999995676,True,22,1,0,9
Y2-S2-282M23,8,735,AS,exp,37,←,left,←,0.5985015000001113,True,22,1,0,9
Y2-S2-282M23,8,736,AS,exp,34,↑,left,←,0.3673793000002661,False,22,-1,1,10
Y2-S2-282M23,8,737,AS,exp,49,↓,down,↓,0.5789549999999508,True,23,-1,0,10
Y2-S2-282M23,8,738,AS,exp,27,→,right,→,1.187669200000073,True,23,-1,0,10
Y2-S2-282M23,8,739,AS,exp,34,↑,up,↑,0.8955600999997841,True,23,1,1,11
Y2-S2-282M23,8,740,AS,exp,46,↓,down,↓,1.0380660999999236,True,22,1,0,11
Y2-S2-282M23,8,741,AS,exp,46,→,up,↑,0.856065800000124,False,22,-1,1,12
Y2-S2-282M23,8,742,AS,exp,43,←,left,←,0.4338920000000144,True,23,-1,0,12
Y2-S2-282M23,8,743,AS,exp,50,→,right,→,0.7026826999999685,True,23,-1,0,12
Y2-S2-282M23,8,744,AS,exp,49,↓,down,↓,0.8897112999998171,True,23,1,1,13
Y2-S2-282M23,8,745,AS,exp,26,→,right,→,0.7641169999997146,True,22,1,0,13
Y2-S2-282M23,8,746,AS,exp,38,←,left,←,0.48438930000020264,True,22,1,0,13
Y2-S2-282M23,8,747,AS,exp,27,↑,up,↑,0.41707199999973454,True,22,1,0,13
Y2-S2-282M23,8,748,AS,exp,45,→,right,→,0.8025430999996388,True,21,1,0,13
Y2-S2-282M23,8,749,AS,exp,39,↑,up,↑,0.6132560999999441,True,21,1,0,13
Y2-S2-282M23,8,750,AS,exp,31,↓,down,↓,0.8392279999998209,True,21,1,0,13
Y2-S2-282M23,8,751,AS,exp,38,←,left,←,0.700047700000141,True,20,1,0,13
Y2-S2-282M23,8,752,AS,exp,40,↑,up,↑,0.7133539000001292,True,20,1,0,13
Y2-S2-282M23,8,753,AS,exp,40,→,right,→,0.8026166000004196,True,20,1,0,13
Y2-S2-282M23,8,754,AS,exp,46,←,left,←,0.4004062000003614,True,19,1,0,13
Y2-S2-282M23,8,755,AS,exp,31,→,left,←,0.8908332999999402,False,19,-1,1,14
Y2-S2-282M23,8,756,AS,exp,38,↑,up,↑,0.5067304999997759,True,20,-1,0,14
Y2-S2-282M23,8,757,AS,exp,33,↓,up,↑,0.7528649000000769,False,20,-1,0,14
Y2-S2-282M23,8,758,AS,exp,42,↑,up,↑,0.7031600999998773,True,21,-1,0,14
Y2-S2-282M23,8,759,AS,exp,25,↓,down,↓,0.6633306000003358,True,21,-1,0,14
Y2-S2-282M23,8,760,AS,exp,33,←,left,←,0.6938561000001755,True,21,1,1,15
Y2-S2-282M23,8,761,AS,exp,48,↑,up,↑,0.500226599999678,True,20,1,0,15
Y2-S2-282M23,8,762,AS,exp,25,→,right,→,0.6906160000003183,True,20,1,0,15
Y2-S2-282M23,8,763,AS,exp,34,←,left,←,0.43401330000006055,True,20,1,0,15
Y2-S2-282M23,8,764,AS,exp,48,↓,up,↑,0.7029656999998224,False,19,-1,1,16
