PART_ID,Block_no,Trial_no,Block_type,Trial_type,CSI,Stim_letter,Key_pressed,letter_choose,Rt,Corr,Stimulus Time,Level,Reversal,Revs_count
Y2-S2-013M31,1,1,PS,train,48,←,left,←,0.6173117998987436,True,30,-,-,-
Y2-S2-013M31,1,2,PS,train,41,↓,down,↓,0.8733987999148667,True,30,-,-,-
Y2-S2-013M31,1,3,PS,train,35,←,left,←,0.832602099981159,True,30,-,-,-
Y2-S2-013M31,1,4,PS,train,36,↓,down,↓,0.8351682000793517,True,30,-,-,-
Y2-S2-013M31,1,5,PS,train,43,↑,up,↑,0.8347352999262512,True,30,-,-,-
Y2-S2-013M31,1,6,PS,train,49,→,right,→,0.9305753000080585,True,30,-,-,-
Y2-S2-013M31,1,7,PS,train,35,↑,up,↑,0.772449400043115,True,30,-,-,-
Y2-S2-013M31,1,8,PS,train,29,→,right,→,0.7984857999254018,True,30,-,-,-
Y2-S2-013M31,1,9,PS,train,41,←,left,←,0.7496468999888748,True,30,-,-,-
Y2-S2-013M31,1,10,PS,train,27,↑,up,↑,0.8440944999456406,True,30,-,-,-
Y2-S2-013M31,2,11,AS,train,26,↓,down,↓,1.8541772000025958,True,45,-,-,-
Y2-S2-013M31,2,12,AS,train,47,←,left,←,0.9578034000005573,True,45,-,-,-
Y2-S2-013M31,2,13,AS,train,33,→,right,→,1.0479577998630702,True,45,-,-,-
Y2-S2-013M31,2,14,AS,train,49,↑,up,↑,1.0909432000480592,True,45,-,-,-
Y2-S2-013M31,2,15,AS,train,30,↓,down,↓,1.0030860998667777,True,45,-,-,-
Y2-S2-013M31,2,16,AS,train,25,↑,up,↑,1.0561983999796212,True,45,-,-,-
Y2-S2-013M31,2,17,AS,train,45,↓,down,↓,0.9183427998796105,True,45,-,-,-
Y2-S2-013M31,2,18,AS,train,27,↑,up,↑,1.008691000053659,True,45,-,-,-
Y2-S2-013M31,2,19,AS,train,38,←,left,←,0.9442327998112887,True,45,-,-,-
Y2-S2-013M31,2,20,AS,train,40,↑,up,↑,0.9197794001083821,True,45,-,-,-
Y2-S2-013M31,-,21,PS,adaptive,35,←,left,←,0.9432743999641389,True,10,0,0,0
Y2-S2-013M31,-,22,PS,adaptive,35,↓,down,↓,0.8689429999794811,True,10,0,0,0
Y2-S2-013M31,-,23,PS,adaptive,34,←,left,←,0.630771900061518,True,10,1,0,0
Y2-S2-013M31,-,24,PS,adaptive,30,↓,up,↑,1.1953350000549108,False,9,-1,1,1
Y2-S2-013M31,-,25,PS,adaptive,43,→,right,→,0.7122130000498146,True,10,-1,0,1
Y2-S2-013M31,-,26,PS,adaptive,31,←,left,←,1.3294328001793474,True,10,-1,0,1
Y2-S2-013M31,-,27,PS,adaptive,31,↑,up,↑,1.051489100093022,True,10,1,1,2
Y2-S2-013M31,-,28,PS,adaptive,41,↓,down,↓,0.7423590000253171,True,9,1,0,2
Y2-S2-013M31,-,29,PS,adaptive,28,→,right,→,0.6568887000903487,True,9,1,0,2
Y2-S2-013M31,-,30,PS,adaptive,30,↑,up,↑,0.7557451999746263,True,9,1,0,2
Y2-S2-013M31,-,31,PS,adaptive,50,→,right,→,0.5829205999616534,True,8,1,0,2
Y2-S2-013M31,-,32,PS,adaptive,34,↑,down,↓,0.8289465999696404,False,8,-1,1,3
Y2-S2-013M31,-,33,PS,adaptive,44,←,left,←,0.5541389998979867,True,9,-1,0,3
Y2-S2-013M31,-,34,PS,adaptive,36,→,right,→,0.5647036000154912,True,9,-1,0,3
Y2-S2-013M31,-,35,PS,adaptive,44,↓,left,←,1.1202950000297278,False,9,-1,0,3
Y2-S2-013M31,-,36,PS,adaptive,40,→,right,→,0.680533800041303,True,10,-1,0,3
Y2-S2-013M31,-,37,PS,adaptive,35,↑,up,↑,0.6754097000230104,True,10,-1,0,3
Y2-S2-013M31,-,38,PS,adaptive,42,↓,down,↓,0.7554861002136022,True,10,1,1,4
Y2-S2-013M31,-,39,AS,adaptive,38,←,left,←,0.5583005999214947,True,20,0,0,0
Y2-S2-013M31,-,40,AS,adaptive,49,↓,down,↓,0.7383239998016506,True,20,0,0,0
Y2-S2-013M31,-,41,AS,adaptive,39,↑,up,↑,0.8193785001058131,True,20,1,0,0
Y2-S2-013M31,-,42,AS,adaptive,50,↓,down,↓,0.6386153001803905,True,19,1,0,0
Y2-S2-013M31,-,43,AS,adaptive,26,↑,up,↑,0.8210805000271648,True,19,1,0,0
Y2-S2-013M31,-,44,AS,adaptive,33,→,right,→,0.8566053998656571,True,19,1,0,0
Y2-S2-013M31,-,45,AS,adaptive,47,↓,down,↓,0.6662970001343638,True,18,1,0,0
Y2-S2-013M31,-,46,AS,adaptive,43,↑,down,↓,1.02493830001913,False,18,-1,1,1
Y2-S2-013M31,-,47,AS,adaptive,38,↓,down,↓,0.6998570000287145,True,19,-1,0,1
Y2-S2-013M31,-,48,AS,adaptive,37,→,right,→,0.610074499854818,True,19,-1,0,1
Y2-S2-013M31,-,49,AS,adaptive,38,↑,up,↑,0.5551972000394017,True,19,1,1,2
Y2-S2-013M31,-,50,AS,adaptive,44,←,left,←,0.6032272998709232,True,18,1,0,2
Y2-S2-013M31,-,51,AS,adaptive,38,↑,up,↑,1.3136211999226362,True,18,1,0,2
Y2-S2-013M31,-,52,AS,adaptive,38,→,left,←,0.8946087998338044,False,18,-1,1,3
Y2-S2-013M31,-,53,AS,adaptive,44,←,left,←,1.1231501000002027,True,19,-1,0,3
Y2-S2-013M31,-,54,AS,adaptive,35,↓,down,↓,0.9629369999747723,True,19,-1,0,3
Y2-S2-013M31,-,55,AS,adaptive,30,←,left,←,0.5029482999816537,True,19,1,1,4
Y2-S2-013M31,1,56,PS,intra_train,46,↑,left,←,0.9093919000588357,False,13,-,-,-
Y2-S2-013M31,1,57,PS,intra_train,38,←,left,←,0.6187846998218447,True,13,-,-,-
Y2-S2-013M31,1,58,PS,intra_train,27,↑,up,↑,0.6510454998351634,True,13,-,-,-
Y2-S2-013M31,1,59,PS,intra_train,45,←,left,←,0.7188170999288559,True,13,-,-,-
Y2-S2-013M31,1,60,PS,intra_train,33,↓,down,↓,0.620598099892959,True,13,-,-,-
Y2-S2-013M31,1,61,PS,exp,36,→,right,→,0.653813200071454,True,9,0,0,0
Y2-S2-013M31,1,62,PS,exp,38,↓,left,←,0.8274056001100689,False,9,-1,0,0
Y2-S2-013M31,1,63,PS,exp,39,↑,up,↑,0.5983688000123948,True,10,-1,0,0
Y2-S2-013M31,1,64,PS,exp,25,←,left,←,0.6027340998407453,True,10,-1,0,0
Y2-S2-013M31,1,65,PS,exp,26,↓,down,↓,0.6615623000543565,True,10,1,1,1
Y2-S2-013M31,1,66,PS,exp,30,→,right,→,0.6217527999542654,True,9,1,0,1
Y2-S2-013M31,1,67,PS,exp,32,↑,up,↑,0.4504311000928283,True,9,1,0,1
Y2-S2-013M31,1,68,PS,exp,35,↓,right,→,0.7149781999178231,False,9,-1,1,2
Y2-S2-013M31,1,69,PS,exp,37,←,left,←,0.5688611001241952,True,10,-1,0,2
Y2-S2-013M31,1,70,PS,exp,30,↓,right,→,0.8511256000492722,False,10,-1,0,2
Y2-S2-013M31,1,71,PS,exp,46,↑,up,↑,0.632882900070399,True,11,-1,0,2
Y2-S2-013M31,1,72,PS,exp,29,→,up,↑,0.7199085999745876,False,11,-1,0,2
Y2-S2-013M31,1,73,PS,exp,25,←,left,←,0.6775167000014335,True,12,-1,0,2
Y2-S2-013M31,1,74,PS,exp,36,↓,left,←,0.8361058000009507,False,12,-1,0,2
Y2-S2-013M31,1,75,PS,exp,46,←,left,←,0.6402034000493586,True,13,-1,0,2
Y2-S2-013M31,1,76,PS,exp,38,→,right,→,0.5293850000016391,True,13,-1,0,2
Y2-S2-013M31,1,77,PS,exp,49,↓,down,↓,0.7347523998469114,True,13,1,1,3
Y2-S2-013M31,1,78,PS,exp,27,↑,up,↑,0.44726769998669624,True,12,1,0,3
Y2-S2-013M31,1,79,PS,exp,37,↓,down,↓,0.5310549999121577,True,12,1,0,3
Y2-S2-013M31,1,80,PS,exp,47,↑,up,↑,0.4898018999956548,True,12,1,0,3
Y2-S2-013M31,1,81,PS,exp,38,↓,down,↓,0.60552590014413,True,11,1,0,3
Y2-S2-013M31,1,82,PS,exp,29,→,down,↓,0.9142837999388576,False,11,-1,1,4
Y2-S2-013M31,1,83,PS,exp,32,↓,down,↓,0.602786400122568,True,12,-1,0,4
Y2-S2-013M31,1,84,PS,exp,30,→,right,→,0.4460638999007642,True,12,-1,0,4
Y2-S2-013M31,1,85,PS,exp,25,↓,right,→,0.895522000035271,False,12,-1,0,4
Y2-S2-013M31,1,86,PS,exp,27,←,right,→,0.8528019001241773,False,13,-1,0,4
Y2-S2-013M31,1,87,PS,exp,25,↑,up,↑,0.6089683999307454,True,14,-1,0,4
Y2-S2-013M31,1,88,PS,exp,42,←,left,←,0.5210748000536114,True,14,-1,0,4
Y2-S2-013M31,1,89,PS,exp,27,↓,up,↑,0.6139654000289738,False,14,-1,0,4
Y2-S2-013M31,1,90,PS,exp,25,→,right,→,0.46708890004083514,True,15,-1,0,4
Y2-S2-013M31,1,91,PS,exp,31,↑,up,↑,0.42690900014713407,True,15,-1,0,4
Y2-S2-013M31,1,92,PS,exp,49,↓,down,↓,0.6388257998041809,True,15,1,1,5
Y2-S2-013M31,1,93,PS,exp,29,↑,down,↓,1.0703034000471234,False,14,-1,1,6
Y2-S2-013M31,1,94,PS,exp,32,↓,down,↓,0.602361099794507,True,15,-1,0,6
Y2-S2-013M31,1,95,PS,exp,40,←,left,←,0.4900458001065999,True,15,-1,0,6
Y2-S2-013M31,1,96,PS,exp,38,↑,up,↑,0.4642677002120763,True,15,1,1,7
Y2-S2-013M31,1,97,PS,exp,43,↓,down,↓,0.7108861000742763,True,14,1,0,7
Y2-S2-013M31,1,98,PS,exp,39,←,left,←,0.6253825998865068,True,14,1,0,7
Y2-S2-013M31,1,99,PS,exp,26,↓,up,↑,0.7145789999049157,False,14,-1,1,8
Y2-S2-013M31,1,100,PS,exp,31,↑,up,↑,1.0052166001405567,True,15,-1,0,8
Y2-S2-013M31,1,101,PS,exp,36,→,right,→,0.4652924998663366,True,15,-1,0,8
Y2-S2-013M31,1,102,PS,exp,35,↓,left,←,0.7570799998939037,False,15,-1,0,8
Y2-S2-013M31,1,103,PS,exp,30,→,right,→,0.6852491998579353,True,16,-1,0,8
Y2-S2-013M31,1,104,PS,exp,31,↓,up,↑,0.809328299947083,False,16,-1,0,8
Y2-S2-013M31,1,105,PS,exp,44,←,right,→,1.0256737999152392,False,17,-1,0,8
Y2-S2-013M31,1,106,PS,exp,27,↑,up,↑,0.4808400000911206,True,18,-1,0,8
Y2-S2-013M31,1,107,PS,exp,26,←,right,→,0.731306699803099,False,18,-1,0,8
Y2-S2-013M31,1,108,PS,exp,37,↓,down,↓,0.8672273000702262,True,19,-1,0,8
Y2-S2-013M31,1,109,PS,exp,44,↑,down,↓,1.0231540999375284,False,19,-1,0,8
Y2-S2-013M31,1,110,PS,exp,48,←,left,←,0.5423057998996228,True,20,-1,0,8
Y2-S2-013M31,1,111,PS,exp,28,↑,down,↓,0.8005387000739574,False,20,-1,0,8
Y2-S2-013M31,1,112,PS,exp,43,↓,down,↓,0.7071804001461715,True,21,-1,0,8
Y2-S2-013M31,1,113,PS,exp,31,→,right,→,0.5267310999333858,True,21,-1,0,8
Y2-S2-013M31,1,114,PS,exp,29,↓,down,↓,0.7125669000670314,True,21,1,1,9
Y2-S2-013M31,1,115,PS,exp,35,←,left,←,0.4174190000630915,True,20,1,0,9
Y2-S2-013M31,1,116,PS,exp,25,↓,right,→,0.7178921001031995,False,20,-1,1,10
Y2-S2-013M31,1,117,PS,exp,27,←,right,→,0.6397578001488,False,21,-1,0,10
Y2-S2-013M31,1,118,PS,exp,49,↓,down,↓,0.58755540009588,True,22,-1,0,10
Y2-S2-013M31,1,119,PS,exp,48,←,left,←,1.232053600018844,True,22,-1,0,10
Y2-S2-013M31,1,120,PS,exp,35,↑,up,↑,0.9638047001790255,True,22,1,1,11
Y2-S2-013M31,1,121,PS,exp,40,↓,down,↓,0.6809116001240909,True,21,1,0,11
Y2-S2-013M31,1,122,PS,exp,31,←,left,←,0.7227797000668943,True,21,1,0,11
Y2-S2-013M31,1,123,PS,exp,30,↓,down,↓,0.7611543000675738,True,21,1,0,11
Y2-S2-013M31,1,124,PS,exp,31,→,right,→,0.665907499846071,True,20,1,0,11
Y2-S2-013M31,1,125,PS,exp,30,↑,up,↑,0.6962363999336958,True,20,1,0,11
Y2-S2-013M31,1,126,PS,exp,37,↓,down,↓,0.6209770001005381,True,20,1,0,11
Y2-S2-013M31,1,127,PS,exp,30,←,left,←,0.531401100102812,True,19,1,0,11
Y2-S2-013M31,1,128,PS,exp,29,↑,up,↑,0.7218690000008792,True,19,1,0,11
Y2-S2-013M31,1,129,PS,exp,33,↓,down,↓,0.7364535999950022,True,19,1,0,11
Y2-S2-013M31,1,130,PS,exp,47,↑,up,↑,0.5043171001598239,True,18,1,0,11
Y2-S2-013M31,1,131,PS,exp,25,←,left,←,1.1209535000380129,True,18,1,0,11
Y2-S2-013M31,1,132,PS,exp,47,↓,down,↓,0.7984442000743002,True,18,1,0,11
Y2-S2-013M31,1,133,PS,exp,38,→,right,→,0.7563103002030402,True,17,1,0,11
Y2-S2-013M31,1,134,PS,exp,35,↑,up,↑,0.8184555999469012,True,17,1,0,11
Y2-S2-013M31,1,135,PS,exp,42,←,left,←,0.6846874000038952,True,17,1,0,11
Y2-S2-013M31,1,136,PS,exp,49,↓,down,↓,0.7417446998879313,True,16,1,0,11
Y2-S2-013M31,1,137,PS,exp,31,←,left,←,0.6911158999428153,True,16,1,0,11
Y2-S2-013M31,1,138,PS,exp,45,→,right,→,0.7048691001255065,True,16,1,0,11
Y2-S2-013M31,1,139,PS,exp,26,←,down,↓,0.99727479997091,False,15,-1,1,12
Y2-S2-013M31,1,140,PS,exp,33,↑,up,↑,0.6944240001030266,True,16,-1,0,12
Y2-S2-013M31,1,141,PS,exp,31,↓,right,→,0.9115179998334497,False,16,-1,0,12
Y2-S2-013M31,1,142,PS,exp,46,←,left,←,0.6905714999884367,True,17,-1,0,12
Y2-S2-013M31,1,143,PS,exp,33,→,right,→,0.7413320001214743,True,17,-1,0,12
Y2-S2-013M31,1,144,PS,exp,41,↑,up,↑,0.7549191999714822,True,17,1,1,13
Y2-S2-013M31,1,145,PS,exp,31,←,left,←,0.6840052001643926,True,16,1,0,13
Y2-S2-013M31,1,146,PS,exp,34,↓,down,↓,0.9834425000008196,True,16,1,0,13
Y2-S2-013M31,1,147,PS,exp,30,→,right,→,0.6920142001472414,True,16,1,0,13
Y2-S2-013M31,1,148,PS,exp,28,←,left,←,0.6575867999345064,True,15,1,0,13
Y2-S2-013M31,1,149,PS,exp,47,↓,right,→,0.7430759000126272,False,15,-1,1,14
Y2-S2-013M31,1,150,PS,exp,38,←,left,←,0.5912272001150995,True,16,-1,0,14
Y2-S2-013M31,1,151,PS,exp,31,→,right,→,0.6436759000644088,True,16,-1,0,14
Y2-S2-013M31,1,152,PS,exp,34,←,left,←,0.6198084999341518,True,16,1,1,15
Y2-S2-013M31,1,153,PS,exp,45,→,left,←,0.6805821000598371,False,15,-1,1,16
Y2-S2-013M31,2,154,AS,intra_train,47,↑,up,↑,0.5340443998575211,True,27,-,-,-
Y2-S2-013M31,2,155,AS,intra_train,38,←,left,←,0.5515129000414163,True,27,-,-,-
Y2-S2-013M31,2,156,AS,intra_train,31,↑,up,↑,0.7480550999753177,True,27,-,-,-
Y2-S2-013M31,2,157,AS,intra_train,36,→,right,→,0.7278835000470281,True,27,-,-,-
Y2-S2-013M31,2,158,AS,intra_train,38,↓,down,↓,0.9565096998121589,True,27,-,-,-
Y2-S2-013M31,2,159,AS,exp,28,↑,up,↑,0.6651003998704255,True,18,0,0,0
Y2-S2-013M31,2,160,AS,exp,44,→,right,→,0.5521506001241505,True,18,0,0,0
Y2-S2-013M31,2,161,AS,exp,40,←,left,←,0.5642205001786351,True,18,1,0,0
Y2-S2-013M31,2,162,AS,exp,40,↑,up,↑,0.8216566001065075,True,17,1,0,0
Y2-S2-013M31,2,163,AS,exp,43,←,left,←,0.5824940998572856,True,17,1,0,0
Y2-S2-013M31,2,164,AS,exp,49,→,right,→,0.5606507998891175,True,17,1,0,0
Y2-S2-013M31,2,165,AS,exp,28,↑,down,↓,1.1445477998349816,False,16,-1,1,1
Y2-S2-013M31,2,166,AS,exp,48,↓,down,↓,0.7561815001536161,True,17,-1,0,1
Y2-S2-013M31,2,167,AS,exp,34,↑,up,↑,0.5213528999593109,True,17,-1,0,1
Y2-S2-013M31,2,168,AS,exp,45,←,left,←,0.6077819999773055,True,17,1,1,2
Y2-S2-013M31,2,169,AS,exp,25,↓,down,↓,0.7159116000402719,True,16,1,0,2
Y2-S2-013M31,2,170,AS,exp,30,↑,down,↓,0.884664700133726,False,16,-1,1,3
Y2-S2-013M31,2,171,AS,exp,33,→,right,→,0.6980143999680877,True,17,-1,0,3
Y2-S2-013M31,2,172,AS,exp,27,↑,right,→,0.8556023000273854,False,17,-1,0,3
Y2-S2-013M31,2,173,AS,exp,28,→,right,→,0.55480289994739,True,18,-1,0,3
Y2-S2-013M31,2,174,AS,exp,48,←,left,←,0.49345199996605515,True,18,-1,0,3
Y2-S2-013M31,2,175,AS,exp,32,↓,down,↓,0.5632184999994934,True,18,1,1,4
Y2-S2-013M31,2,176,AS,exp,29,→,right,→,0.490116799948737,True,17,1,0,4
Y2-S2-013M31,2,177,AS,exp,33,↑,up,↑,0.5241559001151472,True,17,1,0,4
Y2-S2-013M31,2,178,AS,exp,25,←,left,←,0.48456610017456114,True,17,1,0,4
Y2-S2-013M31,2,179,AS,exp,33,↓,right,→,0.8751169999595731,False,16,-1,1,5
Y2-S2-013M31,2,180,AS,exp,36,←,right,→,0.6675664000213146,False,17,-1,0,5
Y2-S2-013M31,2,181,AS,exp,35,↑,up,↑,0.4344679999630898,True,18,-1,0,5
Y2-S2-013M31,2,182,AS,exp,34,→,right,→,0.7460992999840528,True,18,-1,0,5
Y2-S2-013M31,2,183,AS,exp,38,↑,up,↑,1.309489900013432,True,18,1,1,6
Y2-S2-013M31,2,184,AS,exp,34,→,right,→,0.5796547001227736,True,17,1,0,6
Y2-S2-013M31,2,185,AS,exp,37,↑,up,↑,0.4890257001388818,True,17,1,0,6
Y2-S2-013M31,2,186,AS,exp,25,←,left,←,0.8941152000334114,True,17,1,0,6
Y2-S2-013M31,2,187,AS,exp,46,→,right,→,0.6492043999023736,True,16,1,0,6
Y2-S2-013M31,2,188,AS,exp,42,←,right,→,0.7649799999780953,False,16,-1,1,7
Y2-S2-013M31,2,189,AS,exp,41,→,right,→,0.6365629001520574,True,17,-1,0,7
Y2-S2-013M31,2,190,AS,exp,42,↑,up,↑,0.6289107999764383,True,17,-1,0,7
Y2-S2-013M31,2,191,AS,exp,46,↓,down,↓,0.8037330000661314,True,17,1,1,8
Y2-S2-013M31,2,192,AS,exp,36,←,right,→,1.050564199918881,False,16,-1,1,9
Y2-S2-013M31,2,193,AS,exp,45,↓,down,↓,0.6362606000620872,True,17,-1,0,9
Y2-S2-013M31,2,194,AS,exp,49,↑,down,↓,1.0589908000547439,False,17,-1,0,9
Y2-S2-013M31,2,195,AS,exp,41,→,right,→,0.5605494999326766,True,18,-1,0,9
Y2-S2-013M31,2,196,AS,exp,43,↓,down,↓,0.6640701000578701,True,18,-1,0,9
Y2-S2-013M31,2,197,AS,exp,36,↑,down,↓,0.7795333000831306,False,18,-1,0,9
Y2-S2-013M31,2,198,AS,exp,42,→,right,→,0.7510114999022335,True,19,-1,0,9
Y2-S2-013M31,2,199,AS,exp,41,↓,down,↓,0.7289623999968171,True,19,-1,0,9
Y2-S2-013M31,2,200,AS,exp,25,↑,up,↑,0.7157856000121683,True,19,1,1,10
Y2-S2-013M31,2,201,AS,exp,27,↓,up,↑,0.9071684000082314,False,18,-1,1,11
Y2-S2-013M31,2,202,AS,exp,29,←,left,←,0.6757890000008047,True,19,-1,0,11
Y2-S2-013M31,2,203,AS,exp,33,↑,up,↑,1.1195464998017997,True,19,-1,0,11
Y2-S2-013M31,2,204,AS,exp,45,→,right,→,0.6149095001164824,True,19,1,1,12
Y2-S2-013M31,2,205,AS,exp,29,←,right,→,0.8568936998490244,False,18,-1,1,13
Y2-S2-013M31,2,206,AS,exp,49,↑,down,↓,0.8988900000695139,False,19,-1,0,13
Y2-S2-013M31,2,207,AS,exp,47,↓,down,↓,0.7934779999777675,True,20,-1,0,13
Y2-S2-013M31,2,208,AS,exp,36,→,right,→,0.7507386000361294,True,20,-1,0,13
Y2-S2-013M31,2,209,AS,exp,43,←,left,←,0.6552432000171393,True,20,1,1,14
Y2-S2-013M31,2,210,AS,exp,28,→,right,→,0.6697813000064343,True,19,1,0,14
Y2-S2-013M31,2,211,AS,exp,46,↑,up,↑,0.5899174001533538,True,19,1,0,14
Y2-S2-013M31,2,212,AS,exp,34,←,left,←,0.7018441001418978,True,19,1,0,14
Y2-S2-013M31,2,213,AS,exp,46,→,right,→,0.7281063001137227,True,18,1,0,14
Y2-S2-013M31,2,214,AS,exp,35,←,right,→,0.7298824999015778,False,18,-1,1,15
Y2-S2-013M31,2,215,AS,exp,38,↑,up,↑,0.6695944999810308,True,19,-1,0,15
Y2-S2-013M31,2,216,AS,exp,31,→,right,→,0.6040407998953015,True,19,-1,0,15
Y2-S2-013M31,2,217,AS,exp,38,←,left,←,0.641483300132677,True,19,1,1,16
Y2-S2-013M31,3,218,AS,intra_train,37,↓,down,↓,0.885097400052473,True,27,-,-,-
Y2-S2-013M31,3,219,AS,intra_train,37,↑,up,↑,0.6794004000257701,True,27,-,-,-
Y2-S2-013M31,3,220,AS,intra_train,37,→,right,→,0.5003782999701798,True,27,-,-,-
Y2-S2-013M31,3,221,AS,intra_train,37,↓,down,↓,0.8523724998813123,True,27,-,-,-
Y2-S2-013M31,3,222,AS,intra_train,25,→,right,→,0.5506963999941945,True,27,-,-,-
Y2-S2-013M31,3,223,AS,exp,25,↑,up,↑,0.9450348999816924,True,18,0,0,0
Y2-S2-013M31,3,224,AS,exp,44,←,left,←,0.47562519996427,True,18,0,0,0
Y2-S2-013M31,3,225,AS,exp,26,→,right,→,0.5639593999367207,True,18,1,0,0
Y2-S2-013M31,3,226,AS,exp,39,↑,down,↓,0.8830608001444489,False,17,-1,1,1
Y2-S2-013M31,3,227,AS,exp,45,→,right,→,0.4822535999119282,True,18,-1,0,1
Y2-S2-013M31,3,228,AS,exp,37,↓,down,↓,0.7116894000209868,True,18,-1,0,1
Y2-S2-013M31,3,229,AS,exp,25,←,left,←,0.7441871999762952,True,18,1,1,2
Y2-S2-013M31,3,230,AS,exp,32,↓,down,↓,0.6950866000261158,True,17,1,0,2
Y2-S2-013M31,3,231,AS,exp,43,→,right,→,0.48405169998295605,True,17,1,0,2
Y2-S2-013M31,3,232,AS,exp,38,↓,down,↓,0.6051115000154823,True,17,1,0,2
Y2-S2-013M31,3,233,AS,exp,32,↑,up,↑,0.4696517998818308,True,16,1,0,2
Y2-S2-013M31,3,234,AS,exp,43,→,left,←,0.5959165000822395,False,16,-1,1,3
Y2-S2-013M31,3,235,AS,exp,34,↑,up,↑,0.8260956001468003,True,17,-1,0,3
Y2-S2-013M31,3,236,AS,exp,37,→,right,→,0.8871814999729395,True,17,-1,0,3
Y2-S2-013M31,3,237,AS,exp,25,←,left,←,0.6852574001532048,True,17,1,1,4
Y2-S2-013M31,3,238,AS,exp,47,→,right,→,0.4664451000280678,True,16,1,0,4
Y2-S2-013M31,3,239,AS,exp,45,↑,down,↓,0.8099098999518901,False,16,-1,1,5
Y2-S2-013M31,3,240,AS,exp,45,←,left,←,0.7018936998210847,True,17,-1,0,5
Y2-S2-013M31,3,241,AS,exp,46,↑,up,↑,0.5362081998027861,True,17,-1,0,5
Y2-S2-013M31,3,242,AS,exp,34,→,right,→,0.7390644000843167,True,17,1,1,6
Y2-S2-013M31,3,243,AS,exp,43,↑,up,↑,0.606900000013411,True,16,1,0,6
Y2-S2-013M31,3,244,AS,exp,44,→,left,←,0.7043499001301825,False,16,-1,1,7
Y2-S2-013M31,3,245,AS,exp,49,↑,up,↑,0.687972699990496,True,17,-1,0,7
Y2-S2-013M31,3,246,AS,exp,47,←,left,←,0.7778533999808133,True,17,-1,0,7
Y2-S2-013M31,3,247,AS,exp,27,↑,left,←,0.8682051000650972,False,17,-1,0,7
Y2-S2-013M31,3,248,AS,exp,33,↓,down,↓,0.7545099998824298,True,18,-1,0,7
Y2-S2-013M31,3,249,AS,exp,46,→,up,↑,0.9106393000110984,False,18,-1,0,7
Y2-S2-013M31,3,250,AS,exp,25,↓,down,↓,0.7482456997968256,True,19,-1,0,7
Y2-S2-013M31,3,251,AS,exp,41,←,left,←,0.6923304998781532,True,19,-1,0,7
Y2-S2-013M31,3,252,AS,exp,26,↓,down,↓,0.6601338000036776,True,19,1,1,8
Y2-S2-013M31,3,253,AS,exp,25,↑,up,↑,0.69133420009166,True,18,1,0,8
Y2-S2-013M31,3,254,AS,exp,37,←,left,←,0.48394519998691976,True,18,1,0,8
Y2-S2-013M31,3,255,AS,exp,50,↓,down,↓,0.595566299976781,True,18,1,0,8
Y2-S2-013M31,3,256,AS,exp,29,→,right,→,0.5077444999478757,True,17,1,0,8
Y2-S2-013M31,3,257,AS,exp,34,←,left,←,0.7972092998679727,True,17,1,0,8
Y2-S2-013M31,3,258,AS,exp,49,↓,left,←,0.688126599881798,False,17,-1,1,9
Y2-S2-013M31,3,259,AS,exp,44,↑,up,↑,0.5679597000125796,True,18,-1,0,9
Y2-S2-013M31,3,260,AS,exp,40,↓,down,↓,0.5771888999734074,True,18,-1,0,9
Y2-S2-013M31,3,261,AS,exp,42,←,left,←,0.7651969001162797,True,18,1,1,10
Y2-S2-013M31,3,262,AS,exp,35,↓,down,↓,0.6994789000600576,True,17,1,0,10
Y2-S2-013M31,3,263,AS,exp,31,→,right,→,0.5942490000743419,True,17,1,0,10
Y2-S2-013M31,3,264,AS,exp,30,←,left,←,0.4730144999921322,True,17,1,0,10
Y2-S2-013M31,3,265,AS,exp,34,↑,up,↑,0.8044728999957442,True,16,1,0,10
Y2-S2-013M31,3,266,AS,exp,33,←,left,←,1.3823239000048488,True,16,1,0,10
Y2-S2-013M31,3,267,AS,exp,27,↑,up,↑,0.7264588999096304,True,16,1,0,10
Y2-S2-013M31,3,268,AS,exp,47,↓,up,↑,0.7568910999689251,False,15,-1,1,11
Y2-S2-013M31,3,269,AS,exp,35,←,left,←,0.6744230000767857,True,16,-1,0,11
Y2-S2-013M31,3,270,AS,exp,30,→,right,→,0.6480846998747438,True,16,-1,0,11
Y2-S2-013M31,3,271,AS,exp,40,↓,left,←,0.7570502997841686,False,16,-1,0,11
Y2-S2-013M31,3,272,AS,exp,45,←,left,←,0.718305200105533,True,17,-1,0,11
Y2-S2-013M31,3,273,AS,exp,35,↓,down,↓,0.7750387000851333,True,17,-1,0,11
Y2-S2-013M31,3,274,AS,exp,33,←,left,←,0.6983895001467317,True,17,1,1,12
Y2-S2-013M31,3,275,AS,exp,37,→,left,←,0.7792100000660866,False,16,-1,1,13
Y2-S2-013M31,3,276,AS,exp,38,↓,down,↓,0.6460813998710364,True,17,-1,0,13
Y2-S2-013M31,3,277,AS,exp,37,←,left,←,0.713258600095287,True,17,-1,0,13
Y2-S2-013M31,3,278,AS,exp,45,↓,down,↓,0.8693124998826534,True,17,1,1,14
Y2-S2-013M31,3,279,AS,exp,47,→,right,→,0.5305162998847663,True,16,1,0,14
Y2-S2-013M31,3,280,AS,exp,50,←,left,←,0.8061476000584662,True,16,1,0,14
Y2-S2-013M31,3,281,AS,exp,40,↑,up,↑,0.5351211000233889,True,16,1,0,14
Y2-S2-013M31,3,282,AS,exp,48,←,left,←,0.6598306000232697,True,15,1,0,14
Y2-S2-013M31,3,283,AS,exp,49,↓,up,↑,0.6556457998231053,False,15,-1,1,15
Y2-S2-013M31,3,284,AS,exp,35,↑,up,↑,0.45587449986487627,True,16,-1,0,15
Y2-S2-013M31,3,285,AS,exp,36,→,right,→,0.6955881998874247,True,16,-1,0,15
Y2-S2-013M31,3,286,AS,exp,45,←,left,←,0.516081300098449,True,16,1,1,16
Y2-S2-013M31,4,287,PS,intra_train,41,↑,up,↑,0.4702271001879126,True,13,-,-,-
Y2-S2-013M31,4,288,PS,intra_train,33,→,right,→,0.5489284000359476,True,13,-,-,-
Y2-S2-013M31,4,289,PS,intra_train,38,↓,left,←,0.9478327999822795,False,13,-,-,-
Y2-S2-013M31,4,290,PS,intra_train,43,→,right,→,0.5743654000107199,True,13,-,-,-
Y2-S2-013M31,4,291,PS,intra_train,44,←,left,←,0.5236866001505405,True,13,-,-,-
Y2-S2-013M31,4,292,PS,exp,28,→,right,→,0.5254977999720722,True,9,0,0,0
Y2-S2-013M31,4,293,PS,exp,25,↓,down,↓,0.7332462999038398,True,9,0,0,0
Y2-S2-013M31,4,294,PS,exp,31,↑,up,↑,0.4684723000973463,True,9,1,0,0
Y2-S2-013M31,4,295,PS,exp,31,←,right,→,0.6176811000332236,False,8,-1,1,1
Y2-S2-013M31,4,296,PS,exp,40,↓,down,↓,0.5794035999570042,True,9,-1,0,1
Y2-S2-013M31,4,297,PS,exp,50,↑,up,↑,0.6311091999523342,True,9,-1,0,1
Y2-S2-013M31,4,298,PS,exp,50,↓,down,↓,0.5344459000043571,True,9,1,1,2
Y2-S2-013M31,4,299,PS,exp,39,←,right,→,0.8736616999376565,False,8,-1,1,3
Y2-S2-013M31,4,300,PS,exp,36,→,right,→,0.5730361000169069,True,9,-1,0,3
Y2-S2-013M31,4,301,PS,exp,39,↓,down,↓,0.6723907999694347,True,9,-1,0,3
Y2-S2-013M31,4,302,PS,exp,38,←,up,↑,0.6947526999283582,False,9,-1,0,3
Y2-S2-013M31,4,303,PS,exp,47,↓,down,↓,0.5746649000793695,True,10,-1,0,3
Y2-S2-013M31,4,304,PS,exp,32,↑,right,→,0.6830144999548793,False,10,-1,0,3
Y2-S2-013M31,4,305,PS,exp,37,→,right,→,0.4287843001075089,True,11,-1,0,3
Y2-S2-013M31,4,306,PS,exp,26,↓,left,←,0.8469585001002997,False,11,-1,0,3
Y2-S2-013M31,4,307,PS,exp,46,←,left,←,0.605688099982217,True,12,-1,0,3
Y2-S2-013M31,4,308,PS,exp,46,↓,down,↓,0.8935634000226855,True,12,-1,0,3
Y2-S2-013M31,4,309,PS,exp,29,←,left,←,0.5102117001079023,True,12,1,1,4
Y2-S2-013M31,4,310,PS,exp,48,→,right,→,0.4775322999339551,True,11,1,0,4
Y2-S2-013M31,4,311,PS,exp,31,←,left,←,0.6038193998392671,True,11,1,0,4
Y2-S2-013M31,4,312,PS,exp,46,↓,down,↓,0.6979515000712126,True,11,1,0,4
Y2-S2-013M31,4,313,PS,exp,28,←,left,←,0.4637988000176847,True,10,1,0,4
Y2-S2-013M31,4,314,PS,exp,45,↑,up,↑,0.5040394999086857,True,10,1,0,4
Y2-S2-013M31,4,315,PS,exp,28,←,left,←,0.5698502999730408,True,10,1,0,4
Y2-S2-013M31,4,316,PS,exp,29,↓,down,↓,0.6477053998969495,True,9,1,0,4
Y2-S2-013M31,4,317,PS,exp,39,→,right,→,0.4655676002148539,True,9,1,0,4
Y2-S2-013M31,4,318,PS,exp,49,↓,down,↓,0.6583310000132769,True,9,1,0,4
Y2-S2-013M31,4,319,PS,exp,38,↑,left,←,0.7425089001189917,False,8,-1,1,5
Y2-S2-013M31,4,320,PS,exp,42,←,left,←,0.5175532000139356,True,9,-1,0,5
Y2-S2-013M31,4,321,PS,exp,50,↑,up,↑,0.6372620998881757,True,9,-1,0,5
Y2-S2-013M31,4,322,PS,exp,35,↓,down,↓,0.9321716001722962,True,9,1,1,6
Y2-S2-013M31,4,323,PS,exp,32,→,right,→,0.517817199928686,True,8,1,0,6
Y2-S2-013M31,4,324,PS,exp,46,←,left,←,0.5929811999667436,True,8,1,0,6
Y2-S2-013M31,4,325,PS,exp,40,→,right,→,0.47128920000977814,True,8,1,0,6
Y2-S2-013M31,4,326,PS,exp,38,←,left,←,0.6549229000229388,True,7,1,0,6
Y2-S2-013M31,4,327,PS,exp,31,↑,up,↑,0.6660313999745995,True,7,1,0,6
Y2-S2-013M31,4,328,PS,exp,39,↓,down,↓,0.6393456000369042,True,7,1,0,6
Y2-S2-013M31,4,329,PS,exp,32,→,right,→,0.5213047999422997,True,6,1,0,6
Y2-S2-013M31,4,330,PS,exp,33,↓,down,↓,0.6236978999804705,True,6,1,0,6
Y2-S2-013M31,4,331,PS,exp,47,←,left,←,0.4861047000158578,True,6,1,0,6
Y2-S2-013M31,4,332,PS,exp,46,→,right,→,0.8175641000270844,True,5,1,0,6
Y2-S2-013M31,4,333,PS,exp,31,↑,up,↑,0.553691599983722,True,5,1,0,6
Y2-S2-013M31,4,334,PS,exp,42,↓,left,←,0.5386077999137342,False,5,-1,1,7
Y2-S2-013M31,4,335,PS,exp,27,←,left,←,0.4258475999813527,True,6,-1,0,7
Y2-S2-013M31,4,336,PS,exp,41,↑,up,↑,0.45400510006584227,True,6,-1,0,7
Y2-S2-013M31,4,337,PS,exp,34,←,left,←,0.5444285999983549,True,6,1,1,8
Y2-S2-013M31,4,338,PS,exp,46,↓,down,↓,0.7222357999999076,True,5,1,0,8
Y2-S2-013M31,4,339,PS,exp,42,→,left,←,0.7212988000828773,False,5,-1,1,9
Y2-S2-013M31,4,340,PS,exp,46,↓,right,→,0.7180251001846045,False,6,-1,0,9
Y2-S2-013M31,4,341,PS,exp,31,↑,up,↑,0.898928000126034,True,7,-1,0,9
Y2-S2-013M31,4,342,PS,exp,38,←,right,→,0.8515389000531286,False,7,-1,0,9
Y2-S2-013M31,4,343,PS,exp,35,↓,right,→,0.6247229999862611,False,8,-1,0,9
Y2-S2-013M31,4,344,PS,exp,39,←,left,←,0.5062218999955803,True,9,-1,0,9
Y2-S2-013M31,4,345,PS,exp,39,↑,left,←,1.3903449000790715,False,9,-1,0,9
Y2-S2-013M31,4,346,PS,exp,49,↓,down,↓,0.7129608998075128,True,10,-1,0,9
Y2-S2-013M31,4,347,PS,exp,34,↑,up,↑,0.5545634999871254,True,10,-1,0,9
Y2-S2-013M31,4,348,PS,exp,44,↓,down,↓,0.5981465999502689,True,10,1,1,10
Y2-S2-013M31,4,349,PS,exp,35,→,right,→,0.5997287998907268,True,9,1,0,10
Y2-S2-013M31,4,350,PS,exp,30,↑,up,↑,0.7186806998215616,True,9,1,0,10
Y2-S2-013M31,4,351,PS,exp,40,←,up,↑,1.0952571001835167,False,9,-1,1,11
Y2-S2-013M31,4,352,PS,exp,33,↑,up,↑,0.49493509996682405,True,10,-1,0,11
Y2-S2-013M31,4,353,PS,exp,47,→,up,↑,0.6359099999535829,False,10,-1,0,11
Y2-S2-013M31,4,354,PS,exp,44,↓,down,↓,0.7076097999233752,True,11,-1,0,11
Y2-S2-013M31,4,355,PS,exp,34,→,right,→,0.4982501999475062,True,11,-1,0,11
Y2-S2-013M31,4,356,PS,exp,50,↓,down,↓,0.7686003998387605,True,11,1,1,12
Y2-S2-013M31,4,357,PS,exp,50,↑,right,→,0.9527197999414057,False,10,-1,1,13
Y2-S2-013M31,4,358,PS,exp,40,→,right,→,0.5534453999716789,True,11,-1,0,13
Y2-S2-013M31,4,359,PS,exp,38,←,left,←,0.42824289994314313,True,11,-1,0,13
Y2-S2-013M31,4,360,PS,exp,32,→,right,→,0.44624319998547435,True,11,1,1,14
Y2-S2-013M31,4,361,PS,exp,44,←,left,←,0.46008630003780127,True,10,1,0,14
Y2-S2-013M31,4,362,PS,exp,47,↑,up,↑,0.43124320008791983,True,10,1,0,14
Y2-S2-013M31,4,363,PS,exp,45,↓,down,↓,0.6796321000438184,True,10,1,0,14
Y2-S2-013M31,4,364,PS,exp,25,→,right,→,0.4641813999041915,True,9,1,0,14
Y2-S2-013M31,4,365,PS,exp,39,↓,right,→,0.6296428998466581,False,9,-1,1,15
Y2-S2-013M31,4,366,PS,exp,45,←,left,←,0.41193870012648404,True,10,-1,0,15
Y2-S2-013M31,4,367,PS,exp,45,→,right,→,0.40694450004957616,True,10,-1,0,15
Y2-S2-013M31,4,368,PS,exp,42,←,left,←,0.41436120006255805,True,10,1,1,16
Y2-S2-013M31,5,369,PS,intra_train,29,→,right,→,0.665801600087434,True,13,-,-,-
Y2-S2-013M31,5,370,PS,intra_train,46,↓,right,→,0.5168252000585198,False,13,-,-,-
Y2-S2-013M31,5,371,PS,intra_train,27,→,right,→,0.5074591999873519,True,13,-,-,-
Y2-S2-013M31,5,372,PS,intra_train,43,↑,down,↓,1.0199130000546575,False,13,-,-,-
Y2-S2-013M31,5,373,PS,intra_train,37,→,right,→,0.49665960017591715,True,13,-,-,-
Y2-S2-013M31,5,374,PS,exp,48,↓,up,↑,1.2438870999030769,False,9,-1,0,0
Y2-S2-013M31,5,375,PS,exp,39,←,right,→,0.5430429000407457,False,10,-1,0,0
Y2-S2-013M31,5,376,PS,exp,38,↓,down,↓,0.6472539999522269,True,11,-1,0,0
Y2-S2-013M31,5,377,PS,exp,49,↑,up,↑,0.5758072999306023,True,11,-1,0,0
Y2-S2-013M31,5,378,PS,exp,37,↓,down,↓,0.5188124999403954,True,11,1,1,1
Y2-S2-013M31,5,379,PS,exp,47,↑,up,↑,0.4814888001419604,True,10,1,0,1
Y2-S2-013M31,5,380,PS,exp,33,←,left,←,0.5043796000536531,True,10,1,0,1
Y2-S2-013M31,5,381,PS,exp,34,→,right,→,0.38632809999398887,True,10,1,0,1
Y2-S2-013M31,5,382,PS,exp,33,↑,up,↑,0.4146188001614064,True,9,1,0,1
Y2-S2-013M31,5,383,PS,exp,47,→,right,→,0.45446939999237657,True,9,1,0,1
Y2-S2-013M31,5,384,PS,exp,26,↑,up,↑,0.4275559999514371,True,9,1,0,1
Y2-S2-013M31,5,385,PS,exp,48,←,left,←,0.556992799974978,True,8,1,0,1
Y2-S2-013M31,5,386,PS,exp,28,↓,down,↓,0.5785809999797493,True,8,1,0,1
Y2-S2-013M31,5,387,PS,exp,44,↑,up,↑,0.6489868001081049,True,8,1,0,1
Y2-S2-013M31,5,388,PS,exp,50,←,left,←,0.529128500027582,True,7,1,0,1
Y2-S2-013M31,5,389,PS,exp,44,→,right,→,0.6079561000224203,True,7,1,0,1
Y2-S2-013M31,5,390,PS,exp,43,↑,up,↑,0.542509000049904,True,7,1,0,1
Y2-S2-013M31,5,391,PS,exp,29,↓,down,↓,0.7387560999486595,True,6,1,0,1
Y2-S2-013M31,5,392,PS,exp,50,↑,up,↑,0.5006669999565929,True,6,1,0,1
Y2-S2-013M31,5,393,PS,exp,49,←,left,←,0.6886324000079185,True,6,1,0,1
Y2-S2-013M31,5,394,PS,exp,36,→,right,→,0.6661068999674171,True,5,1,0,1
Y2-S2-013M31,5,395,PS,exp,27,↓,up,↑,0.5900464998558164,False,5,-1,1,2
Y2-S2-013M31,5,396,PS,exp,42,↑,up,↑,0.4893280998803675,True,6,-1,0,2
Y2-S2-013M31,5,397,PS,exp,50,→,left,←,0.5177593999542296,False,6,-1,0,2
Y2-S2-013M31,5,398,PS,exp,50,←,left,←,0.6166976999957114,True,7,-1,0,2
Y2-S2-013M31,5,399,PS,exp,47,→,right,→,0.47216470004059374,True,7,-1,0,2
Y2-S2-013M31,5,400,PS,exp,45,↑,up,↑,0.46802680008113384,True,7,1,1,3
Y2-S2-013M31,5,401,PS,exp,44,→,up,↑,0.5913085001520813,False,6,-1,1,4
Y2-S2-013M31,5,402,PS,exp,41,←,left,←,0.5126094999723136,True,7,-1,0,4
Y2-S2-013M31,5,403,PS,exp,33,↓,down,↓,0.5375589998438954,True,7,-1,0,4
Y2-S2-013M31,5,404,PS,exp,40,←,right,→,0.658151000039652,False,7,-1,0,4
Y2-S2-013M31,5,405,PS,exp,42,↑,up,↑,0.6407522999215871,True,8,-1,0,4
Y2-S2-013M31,5,406,PS,exp,32,↓,down,↓,0.6318602000828832,True,8,-1,0,4
Y2-S2-013M31,5,407,PS,exp,44,→,right,→,0.5006436000112444,True,8,1,1,5
Y2-S2-013M31,5,408,PS,exp,46,↑,up,↑,0.5458949999883771,True,7,1,0,5
Y2-S2-013M31,5,409,PS,exp,46,→,down,↓,0.6417018000502139,False,7,-1,1,6
Y2-S2-013M31,5,410,PS,exp,44,←,left,←,0.47809979994781315,True,8,-1,0,6
Y2-S2-013M31,5,411,PS,exp,36,↑,up,↑,0.520194899989292,True,8,-1,0,6
Y2-S2-013M31,5,412,PS,exp,47,→,right,→,0.486029899911955,True,8,1,1,7
Y2-S2-013M31,5,413,PS,exp,34,↑,up,↑,0.5678278000559658,True,7,1,0,7
Y2-S2-013M31,5,414,PS,exp,35,↓,left,←,0.9485339999664575,False,7,-1,1,8
Y2-S2-013M31,5,415,PS,exp,40,←,left,←,0.5311332999262959,True,8,-1,0,8
Y2-S2-013M31,5,416,PS,exp,26,↑,up,↑,0.4253270998597145,True,8,-1,0,8
Y2-S2-013M31,5,417,PS,exp,30,→,right,→,0.7062148000113666,True,8,1,1,9
Y2-S2-013M31,5,418,PS,exp,28,↑,up,↑,0.41647320007905364,True,7,1,0,9
Y2-S2-013M31,5,419,PS,exp,43,↓,down,↓,0.6462951998692006,True,7,1,0,9
Y2-S2-013M31,5,420,PS,exp,30,←,left,←,0.451963699888438,True,7,1,0,9
Y2-S2-013M31,5,421,PS,exp,44,↑,up,↑,0.496567300055176,True,6,1,0,9
Y2-S2-013M31,5,422,PS,exp,47,←,left,←,0.5356472001876682,True,6,1,0,9
Y2-S2-013M31,5,423,PS,exp,33,↓,left,←,0.7441221999470145,False,6,-1,1,10
Y2-S2-013M31,5,424,PS,exp,28,↑,up,↑,0.5552032999694347,True,7,-1,0,10
Y2-S2-013M31,5,425,PS,exp,27,→,left,←,0.5007958000060171,False,7,-1,0,10
Y2-S2-013M31,5,426,PS,exp,38,↑,up,↑,0.4542482001706958,True,8,-1,0,10
Y2-S2-013M31,5,427,PS,exp,41,→,up,↑,0.542636200087145,False,8,-1,0,10
Y2-S2-013M31,5,428,PS,exp,29,↓,down,↓,0.5778498998843133,True,9,-1,0,10
Y2-S2-013M31,5,429,PS,exp,47,↑,up,↑,0.5482010999694467,True,9,-1,0,10
Y2-S2-013M31,5,430,PS,exp,42,→,right,→,0.4892054998781532,True,9,1,1,11
Y2-S2-013M31,5,431,PS,exp,32,↑,up,↑,0.43614770006388426,True,8,1,0,11
Y2-S2-013M31,5,432,PS,exp,47,←,left,←,0.668605700135231,True,8,1,0,11
Y2-S2-013M31,5,433,PS,exp,30,↓,down,↓,0.621631900081411,True,8,1,0,11
Y2-S2-013M31,5,434,PS,exp,42,←,down,↓,0.6245772000402212,False,7,-1,1,12
Y2-S2-013M31,5,435,PS,exp,38,→,right,→,0.4547971000429243,True,8,-1,0,12
Y2-S2-013M31,5,436,PS,exp,48,↑,left,←,0.797897599870339,False,8,-1,0,12
Y2-S2-013M31,5,437,PS,exp,44,↓,down,↓,1.020574300084263,True,9,-1,0,12
Y2-S2-013M31,5,438,PS,exp,43,→,right,→,0.48405619990080595,True,9,-1,0,12
Y2-S2-013M31,5,439,PS,exp,46,↓,down,↓,0.6349518999923021,True,9,1,1,13
Y2-S2-013M31,5,440,PS,exp,35,→,right,→,0.4629222000949085,True,8,1,0,13
Y2-S2-013M31,5,441,PS,exp,27,←,right,→,0.6112957999575883,False,8,-1,1,14
Y2-S2-013M31,5,442,PS,exp,50,→,right,→,0.503254400100559,True,9,-1,0,14
Y2-S2-013M31,5,443,PS,exp,35,↓,down,↓,0.6656700000166893,True,9,-1,0,14
Y2-S2-013M31,5,444,PS,exp,43,↑,up,↑,0.6215833001770079,True,9,1,1,15
Y2-S2-013M31,5,445,PS,exp,29,←,left,←,0.5364775999914855,True,8,1,0,15
Y2-S2-013M31,5,446,PS,exp,33,↓,up,↑,0.49262239993549883,False,8,-1,1,16
Y2-S2-013M31,6,447,AS,intra_train,26,↑,up,↑,0.5670481000561267,True,27,-,-,-
Y2-S2-013M31,6,448,AS,intra_train,34,→,left,←,1.5384723998140544,False,27,-,-,-
Y2-S2-013M31,6,449,AS,intra_train,33,←,left,←,0.46736749983392656,True,27,-,-,-
Y2-S2-013M31,6,450,AS,intra_train,45,↓,down,↓,1.3360886999871582,True,27,-,-,-
Y2-S2-013M31,6,451,AS,intra_train,32,→,right,→,0.7445926000364125,True,27,-,-,-
Y2-S2-013M31,6,452,AS,exp,47,↑,right,→,1.086022000061348,False,18,-1,0,0
Y2-S2-013M31,6,453,AS,exp,40,←,up,↑,0.9606856999453157,False,19,-1,0,0
Y2-S2-013M31,6,454,AS,exp,45,→,right,→,0.6931109998840839,True,20,-1,0,0
Y2-S2-013M31,6,455,AS,exp,34,↑,up,↑,0.5889226000290364,True,20,-1,0,0
Y2-S2-013M31,6,456,AS,exp,46,←,left,←,0.754503499949351,True,20,1,1,1
Y2-S2-013M31,6,457,AS,exp,44,→,right,→,0.43386510014533997,True,19,1,0,1
Y2-S2-013M31,6,458,AS,exp,36,↑,up,↑,0.5664888001047075,True,19,1,0,1
Y2-S2-013M31,6,459,AS,exp,41,←,left,←,0.6744951999280602,True,19,1,0,1
Y2-S2-013M31,6,460,AS,exp,49,→,left,←,1.1073511999566108,False,18,-1,1,2
Y2-S2-013M31,6,461,AS,exp,39,↑,up,↑,0.5905587000306696,True,19,-1,0,2
Y2-S2-013M31,6,462,AS,exp,44,→,right,→,0.433635100023821,True,19,-1,0,2
Y2-S2-013M31,6,463,AS,exp,47,↓,down,↓,0.6640300001017749,True,19,1,1,3
Y2-S2-013M31,6,464,AS,exp,32,←,left,←,0.5120967000257224,True,18,1,0,3
Y2-S2-013M31,6,465,AS,exp,40,↓,up,↑,0.7262283000163734,False,18,-1,1,4
Y2-S2-013M31,6,466,AS,exp,46,→,right,→,1.0294329000171274,True,19,-1,0,4
Y2-S2-013M31,6,467,AS,exp,36,↑,up,↑,0.5274766001384705,True,19,-1,0,4
Y2-S2-013M31,6,468,AS,exp,47,↓,up,↑,0.6297150999307632,False,19,-1,0,4
Y2-S2-013M31,6,469,AS,exp,30,←,left,←,0.417793600121513,True,20,-1,0,4
Y2-S2-013M31,6,470,AS,exp,27,↓,down,↓,0.9426581999287009,True,20,-1,0,4
Y2-S2-013M31,6,471,AS,exp,30,→,right,→,0.7205103000160307,True,20,1,1,5
Y2-S2-013M31,6,472,AS,exp,36,↓,down,↓,0.6302434999961406,True,19,1,0,5
Y2-S2-013M31,6,473,AS,exp,25,←,left,←,0.5659368000924587,True,19,1,0,5
Y2-S2-013M31,6,474,AS,exp,41,→,left,←,0.6288391998969018,False,19,-1,1,6
Y2-S2-013M31,6,475,AS,exp,47,↑,down,↓,0.7898828000761569,False,20,-1,0,6
Y2-S2-013M31,6,476,AS,exp,50,←,left,←,0.7465264999773353,True,21,-1,0,6
Y2-S2-013M31,6,477,AS,exp,35,↓,down,↓,0.8018080000765622,True,21,-1,0,6
Y2-S2-013M31,6,478,AS,exp,28,←,left,←,0.5719417000655085,True,21,1,1,7
Y2-S2-013M31,6,479,AS,exp,50,↑,up,↑,0.6002017999999225,True,20,1,0,7
Y2-S2-013M31,6,480,AS,exp,37,↓,down,↓,0.6686257999390364,True,20,1,0,7
Y2-S2-013M31,6,481,AS,exp,42,→,right,→,0.7228634001221508,True,20,1,0,7
Y2-S2-013M31,6,482,AS,exp,45,←,left,←,0.4340343000367284,True,19,1,0,7
Y2-S2-013M31,6,483,AS,exp,35,→,right,→,0.7430956999305636,True,19,1,0,7
Y2-S2-013M31,6,484,AS,exp,35,↑,up,↑,0.6831980000715703,True,19,1,0,7
Y2-S2-013M31,6,485,AS,exp,42,↓,down,↓,0.7582771999295801,True,18,1,0,7
Y2-S2-013M31,6,486,AS,exp,50,←,left,←,0.6395711998920888,True,18,1,0,7
Y2-S2-013M31,6,487,AS,exp,47,↑,up,↑,0.641134100034833,True,18,1,0,7
Y2-S2-013M31,6,488,AS,exp,35,→,right,→,0.6946062999777496,True,17,1,0,7
Y2-S2-013M31,6,489,AS,exp,25,↑,up,↑,0.6103691998869181,True,17,1,0,7
Y2-S2-013M31,6,490,AS,exp,31,←,left,←,0.5614865999668837,True,17,1,0,7
Y2-S2-013M31,6,491,AS,exp,48,↓,down,↓,0.7831753001082689,True,16,1,0,7
Y2-S2-013M31,6,492,AS,exp,49,→,left,←,0.6567571999039501,False,16,-1,1,8
Y2-S2-013M31,6,493,AS,exp,42,↓,down,↓,0.6569279001560062,True,17,-1,0,8
Y2-S2-013M31,6,494,AS,exp,50,←,down,↓,0.8127923000138253,False,17,-1,0,8
Y2-S2-013M31,6,495,AS,exp,34,↓,down,↓,0.662967799929902,True,18,-1,0,8
Y2-S2-013M31,6,496,AS,exp,44,↑,up,↑,0.811612999998033,True,18,-1,0,8
Y2-S2-013M31,6,497,AS,exp,36,→,right,→,0.6421413999050856,True,18,1,1,9
Y2-S2-013M31,6,498,AS,exp,41,↓,down,↓,0.4935327998828143,True,17,1,0,9
Y2-S2-013M31,6,499,AS,exp,39,←,left,←,0.611674000043422,True,17,1,0,9
Y2-S2-013M31,6,500,AS,exp,36,↓,down,↓,0.5063831000588834,True,17,1,0,9
Y2-S2-013M31,6,501,AS,exp,36,↑,up,↑,0.6684497999958694,True,16,1,0,9
Y2-S2-013M31,6,502,AS,exp,40,←,left,←,0.5603924999013543,True,16,1,0,9
Y2-S2-013M31,6,503,AS,exp,30,↓,down,↓,0.7247299998998642,True,16,1,0,9
Y2-S2-013M31,6,504,AS,exp,45,↑,up,↑,0.5616383999586105,True,15,1,0,9
Y2-S2-013M31,6,505,AS,exp,45,→,right,→,0.6207863998133689,True,15,1,0,9
Y2-S2-013M31,6,506,AS,exp,35,←,right,→,0.6347271001432091,False,15,-1,1,10
Y2-S2-013M31,6,507,AS,exp,43,↑,up,↑,0.906888899859041,True,16,-1,0,10
Y2-S2-013M31,6,508,AS,exp,39,↓,down,↓,0.7812473999802023,True,16,-1,0,10
Y2-S2-013M31,6,509,AS,exp,39,↑,down,↓,0.750563699984923,False,16,-1,0,10
Y2-S2-013M31,6,510,AS,exp,44,←,left,←,0.4725449997931719,True,17,-1,0,10
Y2-S2-013M31,6,511,AS,exp,38,↓,down,↓,0.6792863998562098,True,17,-1,0,10
Y2-S2-013M31,6,512,AS,exp,41,→,right,→,1.080938700120896,True,17,1,1,11
Y2-S2-013M31,6,513,AS,exp,32,↓,down,↓,0.49345949990674853,True,16,1,0,11
Y2-S2-013M31,6,514,AS,exp,36,↑,up,↑,0.521239300025627,True,16,1,0,11
Y2-S2-013M31,6,515,AS,exp,30,→,right,→,0.7173858999740332,True,16,1,0,11
Y2-S2-013M31,6,516,AS,exp,43,↑,up,↑,0.755400100024417,True,15,1,0,11
Y2-S2-013M31,6,517,AS,exp,44,↓,down,↓,0.7551482999697328,True,15,1,0,11
Y2-S2-013M31,6,518,AS,exp,30,↑,up,↑,0.6859778000507504,True,15,1,0,11
Y2-S2-013M31,6,519,AS,exp,33,←,left,←,0.5015535999555141,True,14,1,0,11
Y2-S2-013M31,6,520,AS,exp,34,→,right,→,0.5577177999075502,True,14,1,0,11
Y2-S2-013M31,6,521,AS,exp,44,↑,up,↑,0.4134156000800431,True,14,1,0,11
Y2-S2-013M31,6,522,AS,exp,42,→,up,↑,0.6688717999495566,False,13,-1,1,12
Y2-S2-013M31,6,523,AS,exp,50,↑,up,↑,0.4578207000158727,True,14,-1,0,12
Y2-S2-013M31,6,524,AS,exp,35,←,right,→,0.9587198998779058,False,14,-1,0,12
Y2-S2-013M31,6,525,AS,exp,38,→,right,→,0.691300599835813,True,15,-1,0,12
Y2-S2-013M31,6,526,AS,exp,45,←,right,→,0.6372427998576313,False,15,-1,0,12
Y2-S2-013M31,6,527,AS,exp,49,↑,up,↑,0.4902134998701513,True,16,-1,0,12
Y2-S2-013M31,6,528,AS,exp,33,→,right,→,0.6687197000719607,True,16,-1,0,12
Y2-S2-013M31,6,529,AS,exp,42,↑,up,↑,0.4556986999232322,True,16,1,1,13
Y2-S2-013M31,6,530,AS,exp,44,←,left,←,0.6351292999461293,True,15,1,0,13
Y2-S2-013M31,6,531,AS,exp,30,→,right,→,0.9563116999343038,True,15,1,0,13
Y2-S2-013M31,6,532,AS,exp,49,↑,up,↑,0.3837931000161916,True,15,1,0,13
Y2-S2-013M31,6,533,AS,exp,40,→,right,→,1.0539454000536352,True,14,1,0,13
Y2-S2-013M31,6,534,AS,exp,34,↑,right,→,0.6578327999450266,False,14,-1,1,14
Y2-S2-013M31,6,535,AS,exp,44,→,right,→,0.48996479995548725,True,15,-1,0,14
Y2-S2-013M31,6,536,AS,exp,33,↓,down,↓,0.6198517000302672,True,15,-1,0,14
Y2-S2-013M31,6,537,AS,exp,37,←,left,←,0.49624700006097555,True,15,1,1,15
Y2-S2-013M31,6,538,AS,exp,46,↑,down,↓,1.0049733999185264,False,14,-1,1,16
Y2-S2-013M31,7,539,AS,intra_train,38,↓,down,↓,1.613815699936822,True,27,-,-,-
Y2-S2-013M31,7,540,AS,intra_train,32,↑,up,↑,0.9692072998732328,True,27,-,-,-
Y2-S2-013M31,7,541,AS,intra_train,38,←,left,←,1.162953699938953,True,27,-,-,-
Y2-S2-013M31,7,542,AS,intra_train,46,↑,up,↑,0.9287477000616491,True,27,-,-,-
Y2-S2-013M31,7,543,AS,intra_train,44,←,left,←,0.7295050998218358,True,27,-,-,-
Y2-S2-013M31,7,544,AS,exp,27,↑,up,↑,0.5992350000888109,True,18,0,0,0
Y2-S2-013M31,7,545,AS,exp,46,←,left,←,0.6678175998385996,True,18,0,0,0
Y2-S2-013M31,7,546,AS,exp,31,↓,down,↓,0.831585600040853,True,18,1,0,0
Y2-S2-013M31,7,547,AS,exp,26,↑,up,↑,0.6042943000793457,True,17,1,0,0
Y2-S2-013M31,7,548,AS,exp,37,↓,down,↓,0.49725489993579686,True,17,1,0,0
Y2-S2-013M31,7,549,AS,exp,32,←,left,←,1.065347099909559,True,17,1,0,0
Y2-S2-013M31,7,550,AS,exp,29,↑,up,↑,0.6917665000073612,True,16,1,0,0
Y2-S2-013M31,7,551,AS,exp,42,←,left,←,0.5200781000312418,True,16,1,0,0
Y2-S2-013M31,7,552,AS,exp,41,↑,up,↑,0.5669884998351336,True,16,1,0,0
Y2-S2-013M31,7,553,AS,exp,32,↓,up,↑,0.7469943000469357,False,15,-1,1,1
Y2-S2-013M31,7,554,AS,exp,39,←,up,↑,0.6998711000196636,False,16,-1,0,1
Y2-S2-013M31,7,555,AS,exp,26,↓,down,↓,0.5576136999297887,True,17,-1,0,1
Y2-S2-013M31,7,556,AS,exp,34,↑,up,↑,0.453558900160715,True,17,-1,0,1
Y2-S2-013M31,7,557,AS,exp,47,←,left,←,0.48249170021153986,True,17,1,1,2
Y2-S2-013M31,7,558,AS,exp,44,↓,down,↓,0.5535488000605255,True,16,1,0,2
Y2-S2-013M31,7,559,AS,exp,40,↑,up,↑,0.5147386998869479,True,16,1,0,2
Y2-S2-013M31,7,560,AS,exp,30,↓,down,↓,1.200872699962929,True,16,1,0,2
Y2-S2-013M31,7,561,AS,exp,30,→,right,→,0.4830754001159221,True,15,1,0,2
Y2-S2-013M31,7,562,AS,exp,46,↓,down,↓,0.5612993000540882,True,15,1,0,2
Y2-S2-013M31,7,563,AS,exp,34,↑,right,→,0.8325922999065369,False,15,-1,1,3
Y2-S2-013M31,7,564,AS,exp,30,←,left,←,0.4881098000332713,True,16,-1,0,3
Y2-S2-013M31,7,565,AS,exp,40,→,right,→,0.46809080010280013,True,16,-1,0,3
Y2-S2-013M31,7,566,AS,exp,35,←,left,←,0.48482110002078116,True,16,1,1,4
Y2-S2-013M31,7,567,AS,exp,38,↑,up,↑,0.45972259994596243,True,15,1,0,4
Y2-S2-013M31,7,568,AS,exp,38,↓,down,↓,0.503798000048846,True,15,1,0,4
Y2-S2-013M31,7,569,AS,exp,43,←,left,←,0.835930900182575,True,15,1,0,4
Y2-S2-013M31,7,570,AS,exp,40,↑,up,↑,0.5592058000620455,True,14,1,0,4
Y2-S2-013M31,7,571,AS,exp,41,→,right,→,0.5198719000909477,True,14,1,0,4
Y2-S2-013M31,7,572,AS,exp,48,←,left,←,0.6498494001571089,True,14,1,0,4
Y2-S2-013M31,7,573,AS,exp,29,→,left,←,0.6378361000679433,False,13,-1,1,5
Y2-S2-013M31,7,574,AS,exp,30,↓,up,↑,0.7168574000243098,False,14,-1,0,5
Y2-S2-013M31,7,575,AS,exp,47,↑,left,←,0.6584566000383347,False,15,-1,0,5
Y2-S2-013M31,7,576,AS,exp,29,→,left,←,0.7687339999247342,False,16,-1,0,5
Y2-S2-013M31,7,577,AS,exp,27,↓,down,↓,0.6622015000320971,True,17,-1,0,5
Y2-S2-013M31,7,578,AS,exp,25,←,left,←,0.6896291000302881,True,17,-1,0,5
Y2-S2-013M31,7,579,AS,exp,47,→,left,←,0.7622670000419021,False,17,-1,0,5
Y2-S2-013M31,7,580,AS,exp,45,↓,down,↓,0.8001083999406546,True,18,-1,0,5
Y2-S2-013M31,7,581,AS,exp,26,←,left,←,0.743914799997583,True,18,-1,0,5
Y2-S2-013M31,7,582,AS,exp,27,↑,up,↑,0.8666546999011189,True,18,1,1,6
Y2-S2-013M31,7,583,AS,exp,38,←,left,←,0.5261882999911904,True,17,1,0,6
Y2-S2-013M31,7,584,AS,exp,35,→,right,→,0.48973739985376596,True,17,1,0,6
Y2-S2-013M31,7,585,AS,exp,34,←,left,←,0.4173419999424368,True,17,1,0,6
Y2-S2-013M31,7,586,AS,exp,47,→,right,→,0.7410583000164479,True,16,1,0,6
Y2-S2-013M31,7,587,AS,exp,44,↑,up,↑,0.5851491000503302,True,16,1,0,6
Y2-S2-013M31,7,588,AS,exp,25,↓,down,↓,0.5297131000552326,True,16,1,0,6
Y2-S2-013M31,7,589,AS,exp,45,↑,up,↑,0.5673201999161392,True,15,1,0,6
Y2-S2-013M31,7,590,AS,exp,35,↓,down,↓,0.5274295001290739,True,15,1,0,6
Y2-S2-013M31,7,591,AS,exp,49,→,right,→,0.6536701999139041,True,15,1,0,6
Y2-S2-013M31,7,592,AS,exp,44,↑,up,↑,0.43634549994021654,True,14,1,0,6
Y2-S2-013M31,7,593,AS,exp,44,←,left,←,0.7130819000303745,True,14,1,0,6
Y2-S2-013M31,7,594,AS,exp,32,↑,up,↑,0.6460504001006484,True,14,1,0,6
Y2-S2-013M31,7,595,AS,exp,28,→,left,←,0.829127199947834,False,13,-1,1,7
Y2-S2-013M31,7,596,AS,exp,34,←,left,←,0.4650584999471903,True,14,-1,0,7
Y2-S2-013M31,7,597,AS,exp,45,→,left,←,0.7144358998630196,False,14,-1,0,7
Y2-S2-013M31,7,598,AS,exp,33,←,left,←,0.9969370998442173,True,15,-1,0,7
Y2-S2-013M31,7,599,AS,exp,26,↑,right,→,0.7193336000200361,False,15,-1,0,7
Y2-S2-013M31,7,600,AS,exp,45,←,left,←,0.48067099996842444,True,16,-1,0,7
Y2-S2-013M31,7,601,AS,exp,44,→,right,→,0.4006306999363005,True,16,-1,0,7
Y2-S2-013M31,7,602,AS,exp,37,←,left,←,0.45087180007249117,True,16,1,1,8
Y2-S2-013M31,7,603,AS,exp,47,↓,right,→,0.6618367000482976,False,15,-1,1,9
Y2-S2-013M31,7,604,AS,exp,29,↑,right,→,0.6048552999272943,False,16,-1,0,9
Y2-S2-013M31,7,605,AS,exp,48,←,left,←,0.6575523000210524,True,17,-1,0,9
Y2-S2-013M31,7,606,AS,exp,46,→,left,←,0.5747320998925716,False,17,-1,0,9
Y2-S2-013M31,7,607,AS,exp,41,↑,up,↑,0.4171742999460548,True,18,-1,0,9
Y2-S2-013M31,7,608,AS,exp,49,←,left,←,0.4791633998975158,True,18,-1,0,9
Y2-S2-013M31,7,609,AS,exp,32,→,right,→,0.4006357998587191,True,18,1,1,10
Y2-S2-013M31,7,610,AS,exp,48,←,left,←,0.6490683001466095,True,17,1,0,10
Y2-S2-013M31,7,611,AS,exp,48,→,right,→,0.6644771001301706,True,17,1,0,10
Y2-S2-013M31,7,612,AS,exp,30,↓,down,↓,0.8851352999918163,True,17,1,0,10
Y2-S2-013M31,7,613,AS,exp,50,→,right,→,0.9597507999278605,True,16,1,0,10
Y2-S2-013M31,7,614,AS,exp,27,←,left,←,0.7450872999615967,True,16,1,0,10
Y2-S2-013M31,7,615,AS,exp,43,↑,up,↑,0.7367078999523073,True,16,1,0,10
Y2-S2-013M31,7,616,AS,exp,42,→,right,→,0.7166110000107437,True,15,1,0,10
Y2-S2-013M31,7,617,AS,exp,42,←,left,←,0.44895470002666116,True,15,1,0,10
Y2-S2-013M31,7,618,AS,exp,46,→,right,→,0.4724751999601722,True,15,1,0,10
Y2-S2-013M31,7,619,AS,exp,48,←,left,←,0.4648960998747498,True,14,1,0,10
Y2-S2-013M31,7,620,AS,exp,40,↑,right,→,0.6620457000099123,False,14,-1,1,11
Y2-S2-013M31,7,621,AS,exp,46,→,left,←,0.7058731999713928,False,15,-1,0,11
Y2-S2-013M31,7,622,AS,exp,31,↓,down,↓,0.7830962999723852,True,16,-1,0,11
Y2-S2-013M31,7,623,AS,exp,49,→,right,→,0.5122305999975652,True,16,-1,0,11
Y2-S2-013M31,7,624,AS,exp,28,←,left,←,0.5657317000441253,True,16,1,1,12
Y2-S2-013M31,7,625,AS,exp,43,→,right,→,0.472473599947989,True,15,1,0,12
Y2-S2-013M31,7,626,AS,exp,38,↑,up,↑,0.7092418998945504,True,15,1,0,12
Y2-S2-013M31,7,627,AS,exp,42,↓,up,↑,0.9458415999542922,False,15,-1,1,13
Y2-S2-013M31,7,628,AS,exp,37,↑,up,↑,0.6307833001483232,True,16,-1,0,13
Y2-S2-013M31,7,629,AS,exp,38,←,left,←,0.6491000999230891,True,16,-1,0,13
Y2-S2-013M31,7,630,AS,exp,25,↓,down,↓,0.7026692000217736,True,16,1,1,14
Y2-S2-013M31,7,631,AS,exp,40,→,up,↑,0.6905362999532372,False,15,-1,1,15
Y2-S2-013M31,7,632,AS,exp,35,↑,up,↑,0.8562145000323653,True,16,-1,0,15
Y2-S2-013M31,7,633,AS,exp,48,→,right,→,0.4774815000128001,True,16,-1,0,15
Y2-S2-013M31,7,634,AS,exp,49,↑,left,←,0.5140283000655472,False,16,-1,0,15
Y2-S2-013M31,7,635,AS,exp,30,↓,down,↓,0.8688963998574764,True,17,-1,0,15
Y2-S2-013M31,7,636,AS,exp,32,↑,up,↑,0.5771994001697749,True,17,-1,0,15
Y2-S2-013M31,7,637,AS,exp,40,↓,up,↑,0.6696935000363737,False,17,-1,0,15
Y2-S2-013M31,7,638,AS,exp,27,←,left,←,0.6040472998283803,True,18,-1,0,15
Y2-S2-013M31,7,639,AS,exp,26,↓,down,↓,0.6504893000237644,True,18,-1,0,15
Y2-S2-013M31,7,640,AS,exp,44,→,right,→,0.4724498998839408,True,18,1,1,16
Y2-S2-013M31,8,641,PS,intra_train,30,↑,up,↑,0.4245265000499785,True,13,-,-,-
Y2-S2-013M31,8,642,PS,intra_train,46,↓,down,↓,0.6930335001088679,True,13,-,-,-
Y2-S2-013M31,8,643,PS,intra_train,27,→,right,→,0.455563300056383,True,13,-,-,-
Y2-S2-013M31,8,644,PS,intra_train,32,←,left,←,0.42455899994820356,True,13,-,-,-
Y2-S2-013M31,8,645,PS,intra_train,26,↓,down,↓,0.5659986000973731,True,13,-,-,-
Y2-S2-013M31,8,646,PS,exp,49,←,left,←,0.5906167000066489,True,9,0,0,0
Y2-S2-013M31,8,647,PS,exp,46,↑,up,↑,0.669412000104785,True,9,0,0,0
Y2-S2-013M31,8,648,PS,exp,31,→,up,↑,0.7451326998416334,False,9,-1,0,0
Y2-S2-013M31,8,649,PS,exp,30,↑,up,↑,0.4230450000613928,True,10,-1,0,0
Y2-S2-013M31,8,650,PS,exp,40,↓,down,↓,0.6414950999896973,True,10,-1,0,0
Y2-S2-013M31,8,651,PS,exp,33,←,left,←,0.44774909992702305,True,10,1,1,1
Y2-S2-013M31,8,652,PS,exp,48,→,right,→,0.4466882001142949,True,9,1,0,1
Y2-S2-013M31,8,653,PS,exp,37,←,left,←,0.43613120005466044,True,9,1,0,1
Y2-S2-013M31,8,654,PS,exp,39,↓,down,↓,0.7343053999356925,True,9,1,0,1
Y2-S2-013M31,8,655,PS,exp,28,→,down,↓,0.7265496999025345,False,8,-1,1,2
Y2-S2-013M31,8,656,PS,exp,38,↑,up,↑,0.478249300038442,True,9,-1,0,2
Y2-S2-013M31,8,657,PS,exp,39,→,right,→,0.4412656999193132,True,9,-1,0,2
Y2-S2-013M31,8,658,PS,exp,42,←,left,←,0.6216913000680506,True,9,1,1,3
Y2-S2-013M31,8,659,PS,exp,36,↓,down,↓,0.5749156998936087,True,8,1,0,3
Y2-S2-013M31,8,660,PS,exp,30,↑,down,↓,0.891630900092423,False,8,-1,1,4
Y2-S2-013M31,8,661,PS,exp,30,→,right,→,0.5420431999955326,True,9,-1,0,4
Y2-S2-013M31,8,662,PS,exp,50,↑,up,↑,0.4598248000256717,True,9,-1,0,4
Y2-S2-013M31,8,663,PS,exp,45,↓,down,↓,0.5894935999531299,True,9,1,1,5
Y2-S2-013M31,8,664,PS,exp,30,→,down,↓,0.5088597999420017,False,8,-1,1,6
Y2-S2-013M31,8,665,PS,exp,46,↓,down,↓,0.5824867999181151,True,9,-1,0,6
Y2-S2-013M31,8,666,PS,exp,38,→,right,→,0.5240617999807,True,9,-1,0,6
Y2-S2-013M31,8,667,PS,exp,29,←,right,→,0.5349935998674482,False,9,-1,0,6
Y2-S2-013M31,8,668,PS,exp,32,→,right,→,0.43957750010304153,True,10,-1,0,6
Y2-S2-013M31,8,669,PS,exp,33,↑,down,↓,0.5537116001360118,False,10,-1,0,6
Y2-S2-013M31,8,670,PS,exp,50,←,right,→,0.6496602999977767,False,11,-1,0,6
Y2-S2-013M31,8,671,PS,exp,47,↓,down,↓,0.572043800028041,True,12,-1,0,6
Y2-S2-013M31,8,672,PS,exp,42,←,left,←,0.5064445999450982,True,12,-1,0,6
Y2-S2-013M31,8,673,PS,exp,38,↑,up,↑,0.525183399906382,True,12,1,1,7
Y2-S2-013M31,8,674,PS,exp,35,↓,down,↓,0.4806337000336498,True,11,1,0,7
Y2-S2-013M31,8,675,PS,exp,32,→,right,→,0.5252006000373513,True,11,1,0,7
Y2-S2-013M31,8,676,PS,exp,40,↓,down,↓,0.5349373000208288,True,11,1,0,7
Y2-S2-013M31,8,677,PS,exp,44,→,right,→,0.5569539000280201,True,10,1,0,7
Y2-S2-013M31,8,678,PS,exp,33,↑,up,↑,0.5463050999678671,True,10,1,0,7
Y2-S2-013M31,8,679,PS,exp,39,→,right,→,0.446698599960655,True,10,1,0,7
Y2-S2-013M31,8,680,PS,exp,50,↓,right,→,0.6667352998629212,False,9,-1,1,8
Y2-S2-013M31,8,681,PS,exp,34,→,right,→,0.4337977999821305,True,10,-1,0,8
Y2-S2-013M31,8,682,PS,exp,39,↑,up,↑,0.4122250000946224,True,10,-1,0,8
Y2-S2-013M31,8,683,PS,exp,34,↓,down,↓,0.5869954999070615,True,10,1,1,9
Y2-S2-013M31,8,684,PS,exp,42,→,right,→,0.4555275999009609,True,9,1,0,9
Y2-S2-013M31,8,685,PS,exp,33,↓,down,↓,0.6082802000455558,True,9,1,0,9
Y2-S2-013M31,8,686,PS,exp,43,→,right,→,0.578716600080952,True,9,1,0,9
Y2-S2-013M31,8,687,PS,exp,50,↑,up,↑,0.635218100156635,True,8,1,0,9
Y2-S2-013M31,8,688,PS,exp,47,↓,down,↓,0.659862799802795,True,8,1,0,9
Y2-S2-013M31,8,689,PS,exp,34,↑,up,↑,0.5958807999268174,True,8,1,0,9
Y2-S2-013M31,8,690,PS,exp,44,→,right,→,0.5494508999399841,True,7,1,0,9
Y2-S2-013M31,8,691,PS,exp,33,↓,down,↓,0.5954587999731302,True,7,1,0,9
Y2-S2-013M31,8,692,PS,exp,34,↑,up,↑,0.5445104001555592,True,7,1,0,9
Y2-S2-013M31,8,693,PS,exp,31,←,up,↑,0.6038389999885112,False,6,-1,1,10
Y2-S2-013M31,8,694,PS,exp,36,↓,down,↓,0.5381541999522597,True,7,-1,0,10
Y2-S2-013M31,8,695,PS,exp,31,↑,up,↑,0.5352670000866055,True,7,-1,0,10
Y2-S2-013M31,8,696,PS,exp,50,↓,right,→,0.5954648000188172,False,7,-1,0,10
Y2-S2-013M31,8,697,PS,exp,38,↑,up,↑,0.4959084000438452,True,8,-1,0,10
Y2-S2-013M31,8,698,PS,exp,43,→,right,→,0.5116985999047756,True,8,-1,0,10
Y2-S2-013M31,8,699,PS,exp,45,↓,down,↓,0.5055647001136094,True,8,1,1,11
Y2-S2-013M31,8,700,PS,exp,41,→,right,→,0.5255513000302017,True,7,1,0,11
Y2-S2-013M31,8,701,PS,exp,48,↓,down,↓,0.5286988001316786,True,7,1,0,11
Y2-S2-013M31,8,702,PS,exp,25,→,left,←,1.2747228001244366,False,7,-1,1,12
Y2-S2-013M31,8,703,PS,exp,48,←,left,←,0.4762311999220401,True,8,-1,0,12
Y2-S2-013M31,8,704,PS,exp,36,↑,right,→,0.49841800006106496,False,8,-1,0,12
Y2-S2-013M31,8,705,PS,exp,36,→,right,→,0.586327999830246,True,9,-1,0,12
Y2-S2-013M31,8,706,PS,exp,31,↑,up,↑,0.6497776000760496,True,9,-1,0,12
Y2-S2-013M31,8,707,PS,exp,38,→,left,←,0.5503976999316365,False,9,-1,0,12
Y2-S2-013M31,8,708,PS,exp,45,↑,up,↑,0.4856557999737561,True,10,-1,0,12
Y2-S2-013M31,8,709,PS,exp,35,→,right,→,0.4987764998804778,True,10,-1,0,12
Y2-S2-013M31,8,710,PS,exp,34,←,left,←,0.3746068999171257,True,10,1,1,13
Y2-S2-013M31,8,711,PS,exp,38,↓,down,↓,0.6134826000779867,True,9,1,0,13
Y2-S2-013M31,8,712,PS,exp,28,→,right,→,0.5583339999429882,True,9,1,0,13
Y2-S2-013M31,8,713,PS,exp,45,↓,down,↓,0.5017182000447065,True,9,1,0,13
Y2-S2-013M31,8,714,PS,exp,43,←,right,→,0.546693200012669,False,8,-1,1,14
Y2-S2-013M31,8,715,PS,exp,45,→,right,→,0.38600440020672977,True,9,-1,0,14
Y2-S2-013M31,8,716,PS,exp,38,↓,down,↓,0.5139027999248356,True,9,-1,0,14
Y2-S2-013M31,8,717,PS,exp,40,↑,down,↓,0.6163988998159766,False,9,-1,0,14
Y2-S2-013M31,8,718,PS,exp,46,→,right,→,0.48181360005401075,True,10,-1,0,14
Y2-S2-013M31,8,719,PS,exp,48,↓,down,↓,0.6119120998773724,True,10,-1,0,14
Y2-S2-013M31,8,720,PS,exp,37,↑,up,↑,0.4686698999721557,True,10,1,1,15
Y2-S2-013M31,8,721,PS,exp,47,←,left,←,0.5682942001149058,True,9,1,0,15
Y2-S2-013M31,8,722,PS,exp,43,↓,down,↓,0.5846109997946769,True,9,1,0,15
Y2-S2-013M31,8,723,PS,exp,36,←,left,←,0.5877135000191629,True,9,1,0,15
Y2-S2-013M31,8,724,PS,exp,37,→,right,→,0.5513102998957038,True,8,1,0,15
Y2-S2-013M31,8,725,PS,exp,30,↓,down,↓,0.50699059991166,True,8,1,0,15
Y2-S2-013M31,8,726,PS,exp,28,←,left,←,0.49891780014149845,True,8,1,0,15
Y2-S2-013M31,8,727,PS,exp,40,↑,up,↑,0.545644799945876,True,7,1,0,15
Y2-S2-013M31,8,728,PS,exp,39,→,right,→,0.47011839994229376,True,7,1,0,15
Y2-S2-013M31,8,729,PS,exp,44,↓,down,↓,0.5211706000845879,True,7,1,0,15
Y2-S2-013M31,8,730,PS,exp,29,←,left,←,0.6590152001008391,True,6,1,0,15
Y2-S2-013M31,8,731,PS,exp,37,↓,down,↓,0.5272776000201702,True,6,1,0,15
Y2-S2-013M31,8,732,PS,exp,48,→,down,↓,0.6969947000034153,False,6,-1,1,16
