PART_ID,Block_no,Trial_no,Block_type,Trial_type,CSI,Stim_letter,Key_pressed,letter_choose,Rt,Corr,Stimulus Time,Level,Reversal,Revs_count
Y2-S2-092M28,1,1,PS,train,38,↑,up,↑,0.6693933000788093,True,30,-,-,-
Y2-S2-092M28,1,2,PS,train,29,←,left,←,0.6005175998434424,True,30,-,-,-
Y2-S2-092M28,1,3,PS,train,31,↑,up,↑,2.1673922999762,True,30,-,-,-
Y2-S2-092M28,1,4,PS,train,31,←,left,←,0.5505678998306394,True,30,-,-,-
Y2-S2-092M28,1,5,PS,train,28,↑,up,↑,0.5840966999530792,True,30,-,-,-
Y2-S2-092M28,1,6,PS,train,26,↓,down,↓,0.8495875997468829,True,30,-,-,-
Y2-S2-092M28,1,7,PS,train,45,→,right,→,0.6678268001414835,True,30,-,-,-
Y2-S2-092M28,1,8,PS,train,37,↑,up,↑,0.8418478998355567,True,30,-,-,-
Y2-S2-092M28,1,9,PS,train,43,↓,down,↓,0.6175579996779561,True,30,-,-,-
Y2-S2-092M28,1,10,PS,train,49,↑,up,↑,0.5504959002137184,True,30,-,-,-
Y2-S2-092M28,2,11,AS,train,46,↓,down,↓,0.7671961998566985,True,45,-,-,-
Y2-S2-092M28,2,12,AS,train,47,↑,up,↑,0.6685386002063751,True,45,-,-,-
Y2-S2-092M28,2,13,AS,train,34,↓,down,↓,0.9469651998952031,True,45,-,-,-
Y2-S2-092M28,2,14,AS,train,38,←,left,←,0.5178470998071134,True,45,-,-,-
Y2-S2-092M28,2,15,AS,train,48,→,right,→,0.7506495001725852,True,45,-,-,-
Y2-S2-092M28,2,16,AS,train,44,←,right,→,0.7010619002394378,False,45,-,-,-
Y2-S2-092M28,2,17,AS,train,34,→,right,→,0.5673436997458339,True,45,-,-,-
Y2-S2-092M28,2,18,AS,train,38,↓,down,↓,0.5178253999911249,True,45,-,-,-
Y2-S2-092M28,2,19,AS,train,26,→,right,→,0.7503899000585079,True,45,-,-,-
Y2-S2-092M28,2,20,AS,train,42,←,left,←,0.7676524999551475,True,45,-,-,-
Y2-S2-092M28,-,21,PS,adaptive,42,→,right,→,0.7837010999210179,True,10,0,0,0
Y2-S2-092M28,-,22,PS,adaptive,31,↓,down,↓,0.7020548996515572,True,10,0,0,0
Y2-S2-092M28,-,23,PS,adaptive,39,↑,up,↑,0.5660303998738527,True,10,1,0,0
Y2-S2-092M28,-,24,PS,adaptive,49,↓,down,↓,0.5660342001356184,True,9,1,0,0
Y2-S2-092M28,-,25,PS,adaptive,38,→,right,→,0.5932938000187278,True,9,1,0,0
Y2-S2-092M28,-,26,PS,adaptive,30,↓,down,↓,0.697490300051868,True,9,1,0,0
Y2-S2-092M28,-,27,PS,adaptive,36,↑,up,↑,1.330003199633211,True,8,1,0,0
Y2-S2-092M28,-,28,PS,adaptive,47,←,no_key,no_letter,-1.0,False,8,-1,1,1
Y2-S2-092M28,-,29,PS,adaptive,45,↓,down,↓,0.6109166997484863,True,9,-1,0,1
Y2-S2-092M28,-,30,PS,adaptive,42,↑,up,↑,0.48571910010650754,True,9,-1,0,1
Y2-S2-092M28,-,31,PS,adaptive,47,↓,down,↓,0.7398721999488771,True,9,1,1,2
Y2-S2-092M28,-,32,PS,adaptive,34,↑,up,↑,0.8282678998075426,True,8,1,0,2
Y2-S2-092M28,-,33,PS,adaptive,36,→,left,←,1.6317573999986053,False,8,-1,1,3
Y2-S2-092M28,-,34,PS,adaptive,41,↓,down,↓,0.5895988997071981,True,9,-1,0,3
Y2-S2-092M28,-,35,PS,adaptive,35,←,left,←,0.9142881999723613,True,9,-1,0,3
Y2-S2-092M28,-,36,PS,adaptive,38,→,right,→,0.6777367000468075,True,9,1,1,4
Y2-S2-092M28,-,37,AS,adaptive,32,↓,up,↑,1.5451054000295699,False,20,-1,0,0
Y2-S2-092M28,-,38,AS,adaptive,38,←,left,←,0.5310244997963309,True,21,-1,0,0
Y2-S2-092M28,-,39,AS,adaptive,36,↑,up,↑,0.6220084996894002,True,21,-1,0,0
Y2-S2-092M28,-,40,AS,adaptive,45,↓,down,↓,0.6696953000500798,True,21,1,1,1
Y2-S2-092M28,-,41,AS,adaptive,39,→,right,→,0.7383200000040233,True,20,1,0,1
Y2-S2-092M28,-,42,AS,adaptive,35,↓,down,↓,0.8034589001908898,True,20,1,0,1
Y2-S2-092M28,-,43,AS,adaptive,44,←,left,←,0.6518651000224054,True,20,1,0,1
Y2-S2-092M28,-,44,AS,adaptive,32,↓,down,↓,0.5344559997320175,True,19,1,0,1
Y2-S2-092M28,-,45,AS,adaptive,32,→,right,→,0.5698466999456286,True,19,1,0,1
Y2-S2-092M28,-,46,AS,adaptive,45,↑,down,↓,0.8050955003127456,False,19,-1,1,2
Y2-S2-092M28,-,47,AS,adaptive,29,←,left,←,0.6790620000101626,True,20,-1,0,2
Y2-S2-092M28,-,48,AS,adaptive,31,↓,down,↓,0.5879736002534628,True,20,-1,0,2
Y2-S2-092M28,-,49,AS,adaptive,29,→,right,→,0.5566495000384748,True,20,1,1,3
Y2-S2-092M28,-,50,AS,adaptive,41,←,right,→,0.6486692000180483,False,19,-1,1,4
Y2-S2-092M28,1,51,PS,intra_train,47,→,right,→,0.5037122000940144,True,12,-,-,-
Y2-S2-092M28,1,52,PS,intra_train,25,↓,down,↓,0.5249179000966251,True,12,-,-,-
Y2-S2-092M28,1,53,PS,intra_train,30,→,right,→,0.6052844002842903,True,12,-,-,-
Y2-S2-092M28,1,54,PS,intra_train,38,↓,down,↓,0.4767533000558615,True,12,-,-,-
Y2-S2-092M28,1,55,PS,intra_train,39,→,right,→,0.45871370006352663,True,12,-,-,-
Y2-S2-092M28,1,56,PS,exp,36,↓,down,↓,0.4609238002449274,True,8,0,0,0
Y2-S2-092M28,1,57,PS,exp,28,←,left,←,0.6009386000223458,True,8,0,0,0
Y2-S2-092M28,1,58,PS,exp,42,↑,right,→,0.7352726999670267,False,8,-1,0,0
Y2-S2-092M28,1,59,PS,exp,34,←,left,←,0.5622018999420106,True,9,-1,0,0
Y2-S2-092M28,1,60,PS,exp,28,↑,down,↓,1.4014731999486685,False,9,-1,0,0
Y2-S2-092M28,1,61,PS,exp,50,↓,right,→,0.945431699976325,False,10,-1,0,0
Y2-S2-092M28,1,62,PS,exp,47,↑,up,↑,0.9505191002972424,True,11,-1,0,0
Y2-S2-092M28,1,63,PS,exp,46,↓,no_key,no_letter,-1.0,False,11,-1,0,0
Y2-S2-092M28,1,64,PS,exp,44,←,left,←,0.5133143002167344,True,12,-1,0,0
Y2-S2-092M28,1,65,PS,exp,45,↑,up,↑,1.0612209001556039,True,12,-1,0,0
Y2-S2-092M28,1,66,PS,exp,35,←,left,←,0.6124860998243093,True,12,1,1,1
Y2-S2-092M28,1,67,PS,exp,41,→,right,→,0.45071859983727336,True,11,1,0,1
Y2-S2-092M28,1,68,PS,exp,36,↑,up,↑,0.5300869001075625,True,11,1,0,1
Y2-S2-092M28,1,69,PS,exp,47,←,left,←,0.5116672003641725,True,11,1,0,1
Y2-S2-092M28,1,70,PS,exp,45,↓,no_key,no_letter,-1.0,False,10,-1,1,2
Y2-S2-092M28,1,71,PS,exp,42,←,left,←,0.47292530024424195,True,11,-1,0,2
Y2-S2-092M28,1,72,PS,exp,40,↓,down,↓,0.4965868997387588,True,11,-1,0,2
Y2-S2-092M28,1,73,PS,exp,39,←,left,←,0.45376119995489717,True,11,1,1,3
Y2-S2-092M28,1,74,PS,exp,36,→,right,→,0.4786625001579523,True,10,1,0,3
Y2-S2-092M28,1,75,PS,exp,49,←,left,←,0.564132200088352,True,10,1,0,3
Y2-S2-092M28,1,76,PS,exp,41,↑,up,↑,0.5033956002444029,True,10,1,0,3
Y2-S2-092M28,1,77,PS,exp,32,→,down,↓,0.7648387998342514,False,9,-1,1,4
Y2-S2-092M28,1,78,PS,exp,33,↑,up,↑,0.6232473002746701,True,10,-1,0,4
Y2-S2-092M28,1,79,PS,exp,42,←,left,←,0.45236160000786185,True,10,-1,0,4
Y2-S2-092M28,1,80,PS,exp,49,→,right,→,0.4970653001219034,True,10,1,1,5
Y2-S2-092M28,1,81,PS,exp,39,←,left,←,0.43418410001322627,True,9,1,0,5
Y2-S2-092M28,1,82,PS,exp,33,↓,down,↓,0.47666830010712147,True,9,1,0,5
Y2-S2-092M28,1,83,PS,exp,42,←,left,←,0.3981719999574125,True,9,1,0,5
Y2-S2-092M28,1,84,PS,exp,38,↑,up,↑,1.0328640001825988,True,8,1,0,5
Y2-S2-092M28,1,85,PS,exp,41,←,left,←,0.5285942000336945,True,8,1,0,5
Y2-S2-092M28,1,86,PS,exp,49,→,right,→,0.7156027001328766,True,8,1,0,5
Y2-S2-092M28,1,87,PS,exp,30,↓,left,←,0.7233131998218596,False,7,-1,1,6
Y2-S2-092M28,1,88,PS,exp,38,←,left,←,0.652023000176996,True,8,-1,0,6
Y2-S2-092M28,1,89,PS,exp,35,↓,down,↓,0.45434739999473095,True,8,-1,0,6
Y2-S2-092M28,1,90,PS,exp,31,↑,up,↑,0.5599835002794862,True,8,1,1,7
Y2-S2-092M28,1,91,PS,exp,36,←,no_key,no_letter,-1.0,False,7,-1,1,8
Y2-S2-092M28,1,92,PS,exp,40,→,right,→,0.547970499843359,True,8,-1,0,8
Y2-S2-092M28,1,93,PS,exp,41,↑,up,↑,0.49422300001606345,True,8,-1,0,8
Y2-S2-092M28,1,94,PS,exp,49,←,left,←,0.4915533000603318,True,8,1,1,9
Y2-S2-092M28,1,95,PS,exp,47,↑,down,↓,0.8101950995624065,False,7,-1,1,10
Y2-S2-092M28,1,96,PS,exp,45,←,left,←,0.4848211999051273,True,8,-1,0,10
Y2-S2-092M28,1,97,PS,exp,46,↑,up,↑,0.5104461000300944,True,8,-1,0,10
Y2-S2-092M28,1,98,PS,exp,29,←,left,←,0.5010409001260996,True,8,1,1,11
Y2-S2-092M28,1,99,PS,exp,35,→,up,↑,0.9638988999649882,False,7,-1,1,12
Y2-S2-092M28,1,100,PS,exp,34,←,left,←,0.4860837999731302,True,8,-1,0,12
Y2-S2-092M28,1,101,PS,exp,37,↓,right,→,0.939300499856472,False,8,-1,0,12
Y2-S2-092M28,1,102,PS,exp,33,→,right,→,0.444947499781847,True,9,-1,0,12
Y2-S2-092M28,1,103,PS,exp,25,←,left,←,0.42655340023338795,True,9,-1,0,12
Y2-S2-092M28,1,104,PS,exp,37,↑,down,↓,1.0149860000237823,False,9,-1,0,12
Y2-S2-092M28,1,105,PS,exp,25,→,right,→,0.6303924997337162,True,10,-1,0,12
Y2-S2-092M28,1,106,PS,exp,38,↓,no_key,no_letter,-1.0,False,10,-1,0,12
Y2-S2-092M28,1,107,PS,exp,26,←,left,←,0.9295131000690162,True,11,-1,0,12
Y2-S2-092M28,1,108,PS,exp,28,↓,up,↑,0.900726499967277,False,11,-1,0,12
Y2-S2-092M28,1,109,PS,exp,25,→,right,→,0.45552280033007264,True,12,-1,0,12
Y2-S2-092M28,1,110,PS,exp,28,↓,left,←,0.790732900146395,False,12,-1,0,12
Y2-S2-092M28,1,111,PS,exp,30,↑,up,↑,1.547817500308156,True,13,-1,0,12
Y2-S2-092M28,1,112,PS,exp,40,→,right,→,0.8506722003221512,True,13,-1,0,12
Y2-S2-092M28,1,113,PS,exp,30,←,left,←,0.8125307001173496,True,13,1,1,13
Y2-S2-092M28,1,114,PS,exp,42,→,up,↑,0.9186313999816775,False,12,-1,1,14
Y2-S2-092M28,1,115,PS,exp,34,←,left,←,0.5211587003432214,True,13,-1,0,14
Y2-S2-092M28,1,116,PS,exp,28,→,right,→,0.5163771002553403,True,13,-1,0,14
Y2-S2-092M28,1,117,PS,exp,35,←,left,←,0.5577612002380192,True,13,1,1,15
Y2-S2-092M28,1,118,PS,exp,35,↑,up,↑,0.5142204998992383,True,12,1,0,15
Y2-S2-092M28,1,119,PS,exp,47,→,right,→,0.5496205999515951,True,12,1,0,15
Y2-S2-092M28,1,120,PS,exp,36,↓,up,↑,0.9622843000106514,False,12,-1,1,16
Y2-S2-092M28,2,121,AS,intra_train,35,↑,up,↑,0.802250400185585,True,30,-,-,-
Y2-S2-092M28,2,122,AS,intra_train,38,↓,down,↓,0.5004257000982761,True,30,-,-,-
Y2-S2-092M28,2,123,AS,intra_train,45,←,left,←,0.7465272000990808,True,30,-,-,-
Y2-S2-092M28,2,124,AS,intra_train,33,↓,down,↓,0.6172735001891851,True,30,-,-,-
Y2-S2-092M28,2,125,AS,intra_train,50,→,right,→,0.6337767001241446,True,30,-,-,-
Y2-S2-092M28,2,126,AS,exp,39,↑,up,↑,0.6314674997702241,True,20,0,0,0
Y2-S2-092M28,2,127,AS,exp,27,↓,down,↓,1.954226200003177,True,20,0,0,0
Y2-S2-092M28,2,128,AS,exp,39,→,right,→,1.1763903996907175,True,20,1,0,0
Y2-S2-092M28,2,129,AS,exp,34,←,left,←,0.5870456001721323,True,19,1,0,0
Y2-S2-092M28,2,130,AS,exp,28,↓,down,↓,0.6241083000786602,True,19,1,0,0
Y2-S2-092M28,2,131,AS,exp,45,←,left,←,0.585256100166589,True,19,1,0,0
Y2-S2-092M28,2,132,AS,exp,34,→,right,→,0.5723401000723243,True,18,1,0,0
Y2-S2-092M28,2,133,AS,exp,47,↓,right,→,0.4179072002880275,False,18,-1,1,1
Y2-S2-092M28,2,134,AS,exp,50,←,right,→,1.390795299783349,False,19,-1,0,1
Y2-S2-092M28,2,135,AS,exp,40,→,right,→,0.8730007000267506,True,20,-1,0,1
Y2-S2-092M28,2,136,AS,exp,38,↓,down,↓,0.6655321000143886,True,20,-1,0,1
Y2-S2-092M28,2,137,AS,exp,45,→,right,→,0.6571427001617849,True,20,1,1,2
Y2-S2-092M28,2,138,AS,exp,49,↓,down,↓,0.5834165001288056,True,19,1,0,2
Y2-S2-092M28,2,139,AS,exp,47,←,left,←,0.719427699688822,True,19,1,0,2
Y2-S2-092M28,2,140,AS,exp,26,↓,down,↓,0.5948327998630702,True,19,1,0,2
Y2-S2-092M28,2,141,AS,exp,26,→,right,→,0.48615039978176355,True,18,1,0,2
Y2-S2-092M28,2,142,AS,exp,50,↑,up,↑,1.0421649999916553,True,18,1,0,2
Y2-S2-092M28,2,143,AS,exp,36,→,left,←,0.7102793999947608,False,18,-1,1,3
Y2-S2-092M28,2,144,AS,exp,30,↓,down,↓,0.6532045002095401,True,19,-1,0,3
Y2-S2-092M28,2,145,AS,exp,33,←,left,←,0.6009498001076281,True,19,-1,0,3
Y2-S2-092M28,2,146,AS,exp,44,→,right,→,0.5213905000127852,True,19,1,1,4
Y2-S2-092M28,2,147,AS,exp,48,↑,up,↑,0.5718641001731157,True,18,1,0,4
Y2-S2-092M28,2,148,AS,exp,43,←,right,→,1.1257464997470379,False,18,-1,1,5
Y2-S2-092M28,2,149,AS,exp,38,↓,down,↓,0.524242099840194,True,19,-1,0,5
Y2-S2-092M28,2,150,AS,exp,36,↑,up,↑,0.7608682997524738,True,19,-1,0,5
Y2-S2-092M28,2,151,AS,exp,44,↓,up,↑,0.7996724001131952,False,19,-1,0,5
Y2-S2-092M28,2,152,AS,exp,31,→,right,→,0.6451003002002835,True,20,-1,0,5
Y2-S2-092M28,2,153,AS,exp,36,↑,up,↑,0.5934644998051226,True,20,-1,0,5
Y2-S2-092M28,2,154,AS,exp,42,→,right,→,0.5996010000817478,True,20,1,1,6
Y2-S2-092M28,2,155,AS,exp,28,↓,down,↓,0.6913443999364972,True,19,1,0,6
Y2-S2-092M28,2,156,AS,exp,39,←,left,←,1.2056565000675619,True,19,1,0,6
Y2-S2-092M28,2,157,AS,exp,30,↓,down,↓,0.7124116998165846,True,19,1,0,6
Y2-S2-092M28,2,158,AS,exp,44,←,left,←,0.47367259999737144,True,18,1,0,6
Y2-S2-092M28,2,159,AS,exp,50,↓,down,↓,0.5109553998336196,True,18,1,0,6
Y2-S2-092M28,2,160,AS,exp,30,↑,right,→,0.681201399769634,False,18,-1,1,7
Y2-S2-092M28,2,161,AS,exp,28,→,up,↑,1.811043200083077,False,19,-1,0,7
Y2-S2-092M28,2,162,AS,exp,27,↑,up,↑,0.5185557999648154,True,20,-1,0,7
Y2-S2-092M28,2,163,AS,exp,48,→,right,→,0.57029590010643,True,20,-1,0,7
Y2-S2-092M28,2,164,AS,exp,42,↑,right,→,1.4079785998910666,False,20,-1,0,7
Y2-S2-092M28,2,165,AS,exp,48,←,left,←,0.6311289998702705,True,21,-1,0,7
Y2-S2-092M28,2,166,AS,exp,27,→,right,→,0.4671994000673294,True,21,-1,0,7
Y2-S2-092M28,2,167,AS,exp,32,↑,no_key,no_letter,-1.0,False,21,-1,0,7
Y2-S2-092M28,2,168,AS,exp,29,←,right,→,0.6156896003521979,False,22,-1,0,7
Y2-S2-092M28,2,169,AS,exp,32,↓,down,↓,0.6335696997120976,True,23,-1,0,7
Y2-S2-092M28,2,170,AS,exp,46,↑,up,↑,0.3516405997797847,True,23,-1,0,7
Y2-S2-092M28,2,171,AS,exp,25,→,no_key,no_letter,-1.0,False,23,-1,0,7
Y2-S2-092M28,2,172,AS,exp,48,←,left,←,0.4675048999488354,True,24,-1,0,7
Y2-S2-092M28,2,173,AS,exp,50,↓,right,→,0.517374400049448,False,24,-1,0,7
Y2-S2-092M28,2,174,AS,exp,26,→,right,→,0.4338450999930501,True,25,-1,0,7
Y2-S2-092M28,2,175,AS,exp,37,←,left,←,0.43438619980588555,True,25,-1,0,7
Y2-S2-092M28,2,176,AS,exp,37,↑,no_key,no_letter,-1.0,False,25,-1,0,7
Y2-S2-092M28,2,177,AS,exp,26,←,no_key,no_letter,-1.0,False,26,-1,0,7
Y2-S2-092M28,2,178,AS,exp,33,→,left,←,0.5013479003682733,False,27,-1,0,7
Y2-S2-092M28,2,179,AS,exp,40,↑,down,↓,0.642820400185883,False,28,-1,0,7
Y2-S2-092M28,2,180,AS,exp,36,↓,down,↓,0.41747620003297925,True,29,-1,0,7
Y2-S2-092M28,2,181,AS,exp,45,↑,down,↓,0.5506678000092506,False,29,-1,0,7
Y2-S2-092M28,2,182,AS,exp,41,←,left,←,0.4011864000931382,True,30,-1,0,7
Y2-S2-092M28,2,183,AS,exp,46,↓,down,↓,0.4514021002687514,True,30,-1,0,7
Y2-S2-092M28,2,184,AS,exp,39,↑,no_key,no_letter,-1.0,False,30,-1,0,7
Y2-S2-092M28,2,185,AS,exp,26,↓,down,↓,0.7338491999544203,True,31,-1,0,7
Y2-S2-092M28,2,186,AS,exp,41,→,right,→,0.45127710001543164,True,31,-1,0,7
Y2-S2-092M28,2,187,AS,exp,46,↓,down,↓,0.6170250000432134,True,31,1,1,8
Y2-S2-092M28,2,188,AS,exp,43,→,left,←,0.6174147999845445,False,30,-1,1,9
Y2-S2-092M28,2,189,AS,exp,38,←,left,←,0.4177329996600747,True,31,-1,0,9
Y2-S2-092M28,2,190,AS,exp,30,→,right,→,0.4670473001897335,True,31,-1,0,9
Y2-S2-092M28,2,191,AS,exp,29,↑,down,↓,0.6899918001145124,False,31,-1,0,9
Y2-S2-092M28,2,192,AS,exp,34,←,left,←,0.5013557001948357,True,32,-1,0,9
Y2-S2-092M28,2,193,AS,exp,35,↑,up,↑,0.5340097998268902,True,32,-1,0,9
Y2-S2-092M28,2,194,AS,exp,27,↓,up,↑,0.6669350997544825,False,32,-1,0,9
Y2-S2-092M28,2,195,AS,exp,36,↑,up,↑,0.6839749999344349,True,33,-1,0,9
Y2-S2-092M28,2,196,AS,exp,45,↓,down,↓,0.6166312997229397,True,33,-1,0,9
Y2-S2-092M28,2,197,AS,exp,45,↑,down,↓,0.5672218003310263,False,33,-1,0,9
Y2-S2-092M28,2,198,AS,exp,29,→,no_key,no_letter,-1.0,False,34,-1,0,9
Y2-S2-092M28,2,199,AS,exp,26,←,no_key,no_letter,-1.0,False,35,-1,0,9
Y2-S2-092M28,2,200,AS,exp,47,→,right,→,0.5838442002423108,True,36,-1,0,9
Y2-S2-092M28,2,201,AS,exp,49,↓,down,↓,0.5347489998675883,True,36,-1,0,9
Y2-S2-092M28,2,202,AS,exp,35,←,left,←,0.38440259965136647,True,36,1,1,10
Y2-S2-092M28,2,203,AS,exp,36,→,right,→,0.8371953000314534,True,35,1,0,10
Y2-S2-092M28,2,204,AS,exp,38,↓,down,↓,0.43441580003127456,True,35,1,0,10
Y2-S2-092M28,2,205,AS,exp,26,←,right,→,0.502123299986124,False,35,-1,1,11
Y2-S2-092M28,2,206,AS,exp,50,→,right,→,0.7340708998963237,True,36,-1,0,11
Y2-S2-092M28,2,207,AS,exp,49,←,left,←,0.7335358001291752,True,36,-1,0,11
Y2-S2-092M28,2,208,AS,exp,49,↓,down,↓,0.5677449000068009,True,36,1,1,12
Y2-S2-092M28,2,209,AS,exp,36,→,right,→,0.5671065002679825,True,35,1,0,12
Y2-S2-092M28,2,210,AS,exp,48,↑,up,↑,0.5004900996573269,True,35,1,0,12
Y2-S2-092M28,2,211,AS,exp,35,→,right,→,0.4508281000889838,True,35,1,0,12
Y2-S2-092M28,2,212,AS,exp,29,←,left,←,0.4675056003034115,True,34,1,0,12
Y2-S2-092M28,2,213,AS,exp,46,↓,down,↓,0.451331399846822,True,34,1,0,12
Y2-S2-092M28,2,214,AS,exp,50,←,left,←,0.5179099002853036,True,34,1,0,12
Y2-S2-092M28,2,215,AS,exp,42,↑,up,↑,0.4675282002426684,True,33,1,0,12
Y2-S2-092M28,2,216,AS,exp,29,→,right,→,0.6168909999541938,True,33,1,0,12
Y2-S2-092M28,2,217,AS,exp,43,←,right,→,0.5505185001529753,False,33,-1,1,13
Y2-S2-092M28,2,218,AS,exp,39,→,right,→,0.6338678998872638,True,34,-1,0,13
Y2-S2-092M28,2,219,AS,exp,44,↑,down,↓,0.6173156001605093,False,34,-1,0,13
Y2-S2-092M28,2,220,AS,exp,45,→,right,→,0.43448409996926785,True,35,-1,0,13
Y2-S2-092M28,2,221,AS,exp,50,↓,down,↓,0.7009290996938944,True,35,-1,0,13
Y2-S2-092M28,2,222,AS,exp,28,←,left,←,0.6837455998174846,True,35,1,1,14
Y2-S2-092M28,2,223,AS,exp,50,↑,up,↑,0.40047300001606345,True,34,1,0,14
Y2-S2-092M28,2,224,AS,exp,42,→,left,←,0.6169337001629174,False,34,-1,1,15
Y2-S2-092M28,2,225,AS,exp,39,↑,up,↑,0.6173258000053465,True,35,-1,0,15
Y2-S2-092M28,2,226,AS,exp,39,→,left,←,0.6842051995918155,False,35,-1,0,15
Y2-S2-092M28,2,227,AS,exp,43,↑,right,→,0.6336675002239645,False,36,-1,0,15
Y2-S2-092M28,2,228,AS,exp,38,←,left,←,0.4674525996670127,True,37,-1,0,15
Y2-S2-092M28,2,229,AS,exp,35,↓,down,↓,0.700728400144726,True,37,-1,0,15
Y2-S2-092M28,2,230,AS,exp,27,→,right,→,1.3911672001704574,True,37,1,1,16
Y2-S2-092M28,3,231,AS,intra_train,26,←,left,←,1.9536023000255227,True,30,-,-,-
Y2-S2-092M28,3,232,AS,intra_train,25,↓,down,↓,0.8536656000651419,True,30,-,-,-
Y2-S2-092M28,3,233,AS,intra_train,30,↑,up,↑,0.7049981001764536,True,30,-,-,-
Y2-S2-092M28,3,234,AS,intra_train,34,→,right,→,0.7055970998480916,True,30,-,-,-
Y2-S2-092M28,3,235,AS,intra_train,49,↓,down,↓,0.5672915000468493,True,30,-,-,-
Y2-S2-092M28,3,236,AS,exp,25,↑,up,↑,0.4004743997938931,True,20,0,0,0
Y2-S2-092M28,3,237,AS,exp,44,→,right,→,0.417406199965626,True,20,0,0,0
Y2-S2-092M28,3,238,AS,exp,35,↑,up,↑,1.478686399757862,True,20,1,0,0
Y2-S2-092M28,3,239,AS,exp,35,←,left,←,1.1154512003995478,True,19,1,0,0
Y2-S2-092M28,3,240,AS,exp,30,→,left,←,1.0123387998901308,False,19,-1,1,1
Y2-S2-092M28,3,241,AS,exp,46,↑,up,↑,0.5314505002461374,True,20,-1,0,1
Y2-S2-092M28,3,242,AS,exp,31,→,right,→,0.5771382004022598,True,20,-1,0,1
Y2-S2-092M28,3,243,AS,exp,49,↑,up,↑,0.514818100258708,True,20,1,1,2
Y2-S2-092M28,3,244,AS,exp,48,←,left,←,0.709576599765569,True,19,1,0,2
Y2-S2-092M28,3,245,AS,exp,47,↑,right,→,1.2554655000567436,False,19,-1,1,3
Y2-S2-092M28,3,246,AS,exp,33,↓,down,↓,0.829857500270009,True,20,-1,0,3
Y2-S2-092M28,3,247,AS,exp,50,↑,up,↑,0.6016613999381661,True,20,-1,0,3
Y2-S2-092M28,3,248,AS,exp,38,→,right,→,0.6566757000982761,True,20,1,1,4
Y2-S2-092M28,3,249,AS,exp,30,←,right,→,0.5943432999774814,False,19,-1,1,5
Y2-S2-092M28,3,250,AS,exp,26,→,right,→,0.4174802000634372,True,20,-1,0,5
Y2-S2-092M28,3,251,AS,exp,30,↓,up,↑,0.5378018002957106,False,20,-1,0,5
Y2-S2-092M28,3,252,AS,exp,47,↑,up,↑,0.4840383999980986,True,21,-1,0,5
Y2-S2-092M28,3,253,AS,exp,37,←,left,←,1.4844046998769045,True,21,-1,0,5
Y2-S2-092M28,3,254,AS,exp,41,↓,down,↓,0.8433027998544276,True,21,1,1,6
Y2-S2-092M28,3,255,AS,exp,36,↑,no_key,no_letter,-1.0,False,20,-1,1,7
Y2-S2-092M28,3,256,AS,exp,27,→,right,→,0.9148622001521289,True,21,-1,0,7
Y2-S2-092M28,3,257,AS,exp,27,←,right,→,1.3581530000083148,False,21,-1,0,7
Y2-S2-092M28,3,258,AS,exp,31,↑,up,↑,1.1957441000267863,True,22,-1,0,7
Y2-S2-092M28,3,259,AS,exp,36,←,left,←,0.8133922000415623,True,22,-1,0,7
Y2-S2-092M28,3,260,AS,exp,36,→,right,→,0.6328071998432279,True,22,1,1,8
Y2-S2-092M28,3,261,AS,exp,41,↑,left,←,0.9403580999933183,False,21,-1,1,9
Y2-S2-092M28,3,262,AS,exp,27,→,right,→,0.5373478000983596,True,22,-1,0,9
Y2-S2-092M28,3,263,AS,exp,39,←,left,←,0.7676249998621643,True,22,-1,0,9
Y2-S2-092M28,3,264,AS,exp,27,↓,up,↑,0.8889398002065718,False,22,-1,0,9
Y2-S2-092M28,3,265,AS,exp,41,→,right,→,0.7588884001597762,True,23,-1,0,9
Y2-S2-092M28,3,266,AS,exp,50,↑,up,↑,1.3133928002789617,True,23,-1,0,9
Y2-S2-092M28,3,267,AS,exp,25,←,left,←,0.632020500022918,True,23,1,1,10
Y2-S2-092M28,3,268,AS,exp,50,→,right,→,0.5807272000238299,True,22,1,0,10
Y2-S2-092M28,3,269,AS,exp,27,←,no_key,no_letter,-1.0,False,22,-1,1,11
Y2-S2-092M28,3,270,AS,exp,49,→,right,→,1.4435448003932834,True,23,-1,0,11
Y2-S2-092M28,3,271,AS,exp,37,←,left,←,0.7078958000056446,True,23,-1,0,11
Y2-S2-092M28,3,272,AS,exp,30,→,no_key,no_letter,-1.0,False,23,-1,0,11
Y2-S2-092M28,3,273,AS,exp,37,↓,up,↑,0.7980309999547899,False,24,-1,0,11
Y2-S2-092M28,3,274,AS,exp,50,→,right,→,0.5909759001806378,True,25,-1,0,11
Y2-S2-092M28,3,275,AS,exp,30,←,left,←,0.4838793003000319,True,25,-1,0,11
Y2-S2-092M28,3,276,AS,exp,25,→,right,→,1.825728700030595,True,25,1,1,12
Y2-S2-092M28,3,277,AS,exp,31,↓,down,↓,0.6132340002804995,True,24,1,0,12
Y2-S2-092M28,3,278,AS,exp,50,←,left,←,0.450689900200814,True,24,1,0,12
Y2-S2-092M28,3,279,AS,exp,41,→,right,→,0.582545000128448,True,24,1,0,12
Y2-S2-092M28,3,280,AS,exp,33,←,left,←,0.4506037998944521,True,23,1,0,12
Y2-S2-092M28,3,281,AS,exp,48,→,right,→,0.6092310003004968,True,23,1,0,12
Y2-S2-092M28,3,282,AS,exp,50,←,right,→,0.6770355999469757,False,23,-1,1,13
Y2-S2-092M28,3,283,AS,exp,30,→,right,→,0.4679892002604902,True,24,-1,0,13
Y2-S2-092M28,3,284,AS,exp,40,↓,up,↑,0.7462870003655553,False,24,-1,0,13
Y2-S2-092M28,3,285,AS,exp,48,↑,no_key,no_letter,-1.0,False,25,-1,0,13
Y2-S2-092M28,3,286,AS,exp,27,→,right,→,0.8448842000216246,True,26,-1,0,13
Y2-S2-092M28,3,287,AS,exp,30,↓,up,↑,0.7671278999187052,False,26,-1,0,13
Y2-S2-092M28,3,288,AS,exp,35,↑,no_key,no_letter,-1.0,False,27,-1,0,13
Y2-S2-092M28,3,289,AS,exp,41,→,right,→,0.6416214997880161,True,28,-1,0,13
Y2-S2-092M28,3,290,AS,exp,34,↑,right,→,1.268962100148201,False,28,-1,0,13
Y2-S2-092M28,3,291,AS,exp,45,→,left,←,1.2403894001618028,False,29,-1,0,13
Y2-S2-092M28,3,292,AS,exp,32,↓,up,↑,0.6975384997203946,False,30,-1,0,13
Y2-S2-092M28,3,293,AS,exp,41,↑,up,↑,1.6543196998536587,True,31,-1,0,13
Y2-S2-092M28,3,294,AS,exp,40,→,right,→,1.755894500296563,True,31,-1,0,13
Y2-S2-092M28,3,295,AS,exp,41,↑,down,↓,0.4679303001612425,False,31,-1,0,13
Y2-S2-092M28,3,296,AS,exp,33,↓,right,→,1.410322300158441,False,32,-1,0,13
Y2-S2-092M28,3,297,AS,exp,30,←,left,←,0.5839102999307215,True,33,-1,0,13
Y2-S2-092M28,3,298,AS,exp,48,↓,up,↑,0.6003260998986661,False,33,-1,0,13
Y2-S2-092M28,3,299,AS,exp,34,↑,up,↑,0.8801779001951218,True,34,-1,0,13
Y2-S2-092M28,3,300,AS,exp,39,←,left,←,0.6676998999901116,True,34,-1,0,13
Y2-S2-092M28,3,301,AS,exp,48,↓,down,↓,0.66727240011096,True,34,1,1,14
Y2-S2-092M28,3,302,AS,exp,49,↑,up,↑,0.5672007002867758,True,33,1,0,14
Y2-S2-092M28,3,303,AS,exp,50,↓,down,↓,0.584623500239104,True,33,1,0,14
Y2-S2-092M28,3,304,AS,exp,31,→,left,←,2.1166543001309037,False,33,-1,1,15
Y2-S2-092M28,3,305,AS,exp,26,↓,down,↓,0.8352858000434935,True,34,-1,0,15
Y2-S2-092M28,3,306,AS,exp,32,↑,up,↑,0.6175061999820173,True,34,-1,0,15
Y2-S2-092M28,3,307,AS,exp,34,←,left,←,0.7007615999318659,True,34,1,1,16
Y2-S2-092M28,4,308,PS,intra_train,38,→,right,→,0.7251057997345924,True,12,-,-,-
Y2-S2-092M28,4,309,PS,intra_train,43,↓,down,↓,0.7931940997950733,True,12,-,-,-
Y2-S2-092M28,4,310,PS,intra_train,28,←,left,←,0.5262176003307104,True,12,-,-,-
Y2-S2-092M28,4,311,PS,intra_train,35,↑,up,↑,0.5344401001930237,True,12,-,-,-
Y2-S2-092M28,4,312,PS,intra_train,50,→,right,→,0.6273721000179648,True,12,-,-,-
Y2-S2-092M28,4,313,PS,exp,48,←,left,←,0.6418535998091102,True,8,0,0,0
Y2-S2-092M28,4,314,PS,exp,42,↓,left,←,1.7132089999504387,False,8,-1,0,0
Y2-S2-092M28,4,315,PS,exp,45,←,no_key,no_letter,-1.0,False,9,-1,0,0
Y2-S2-092M28,4,316,PS,exp,36,↑,no_key,no_letter,-1.0,False,10,-1,0,0
Y2-S2-092M28,4,317,PS,exp,35,→,no_key,no_letter,-1.0,False,11,-1,0,0
Y2-S2-092M28,4,318,PS,exp,49,↑,up,↑,1.6988947000354528,True,12,-1,0,0
Y2-S2-092M28,4,319,PS,exp,50,↓,down,↓,0.6157591002993286,True,12,-1,0,0
Y2-S2-092M28,4,320,PS,exp,26,←,left,←,0.4673542999662459,True,12,1,1,1
Y2-S2-092M28,4,321,PS,exp,49,↑,up,↑,0.5231771003454924,True,11,1,0,1
Y2-S2-092M28,4,322,PS,exp,32,→,down,↓,0.7528500002808869,False,11,-1,1,2
Y2-S2-092M28,4,323,PS,exp,29,↑,up,↑,0.8993107997812331,True,12,-1,0,2
Y2-S2-092M28,4,324,PS,exp,36,←,left,←,0.4995090002194047,True,12,-1,0,2
Y2-S2-092M28,4,325,PS,exp,48,→,right,→,1.3611542000435293,True,12,1,1,3
Y2-S2-092M28,4,326,PS,exp,42,↓,up,↑,0.9509306997060776,False,11,-1,1,4
Y2-S2-092M28,4,327,PS,exp,32,↑,down,↓,0.8400813001208007,False,12,-1,0,4
Y2-S2-092M28,4,328,PS,exp,31,→,right,→,0.6128432000987232,True,13,-1,0,4
Y2-S2-092M28,4,329,PS,exp,30,↓,down,↓,0.5886487001553178,True,13,-1,0,4
Y2-S2-092M28,4,330,PS,exp,34,←,left,←,0.8514140998013318,True,13,1,1,5
Y2-S2-092M28,4,331,PS,exp,27,↓,up,↑,0.5451992000453174,False,12,-1,1,6
Y2-S2-092M28,4,332,PS,exp,30,→,right,→,0.6185555998235941,True,13,-1,0,6
Y2-S2-092M28,4,333,PS,exp,25,←,left,←,1.2305613001808524,True,13,-1,0,6
Y2-S2-092M28,4,334,PS,exp,42,→,right,→,0.3982299002818763,True,13,1,1,7
Y2-S2-092M28,4,335,PS,exp,49,←,left,←,0.5198071002960205,True,12,1,0,7
Y2-S2-092M28,4,336,PS,exp,30,↓,down,↓,0.8291889000684023,True,12,1,0,7
Y2-S2-092M28,4,337,PS,exp,35,↑,up,↑,0.6370167001150548,True,12,1,0,7
Y2-S2-092M28,4,338,PS,exp,43,→,left,←,0.2837561001069844,False,11,-1,1,8
Y2-S2-092M28,4,339,PS,exp,34,↑,no_key,no_letter,-1.0,False,12,-1,0,8
Y2-S2-092M28,4,340,PS,exp,35,↓,down,↓,0.7706173001788557,True,13,-1,0,8
Y2-S2-092M28,4,341,PS,exp,40,→,right,→,0.5928532001562417,True,13,-1,0,8
Y2-S2-092M28,4,342,PS,exp,34,←,left,←,0.782563999760896,True,13,1,1,9
Y2-S2-092M28,4,343,PS,exp,26,→,right,→,0.21665300009772182,True,12,1,0,9
Y2-S2-092M28,4,344,PS,exp,49,←,left,←,1.5108745000325143,True,12,1,0,9
Y2-S2-092M28,4,345,PS,exp,37,↑,up,↑,0.8131320001557469,True,12,1,0,9
Y2-S2-092M28,4,346,PS,exp,28,→,right,→,0.7112368997186422,True,11,1,0,9
Y2-S2-092M28,4,347,PS,exp,25,↓,down,↓,0.42557109985500574,True,11,1,0,9
Y2-S2-092M28,4,348,PS,exp,31,↑,down,↓,0.9777043000794947,False,11,-1,1,10
Y2-S2-092M28,4,349,PS,exp,45,←,left,←,0.5805200003087521,True,12,-1,0,10
Y2-S2-092M28,4,350,PS,exp,29,↑,up,↑,0.5906869997270405,True,12,-1,0,10
Y2-S2-092M28,4,351,PS,exp,35,↓,down,↓,0.7987823002040386,True,12,1,1,11
Y2-S2-092M28,4,352,PS,exp,27,←,left,←,0.4981901003047824,True,11,1,0,11
Y2-S2-092M28,4,353,PS,exp,45,→,right,→,0.4828946003690362,True,11,1,0,11
Y2-S2-092M28,4,354,PS,exp,27,↑,no_key,no_letter,-1.0,False,11,-1,1,12
Y2-S2-092M28,4,355,PS,exp,36,→,no_key,no_letter,-1.0,False,12,-1,0,12
Y2-S2-092M28,4,356,PS,exp,49,↑,up,↑,0.5009037996642292,True,13,-1,0,12
Y2-S2-092M28,4,357,PS,exp,40,→,right,→,0.45787589997053146,True,13,-1,0,12
Y2-S2-092M28,4,358,PS,exp,30,↑,up,↑,1.1018944000825286,True,13,1,1,13
Y2-S2-092M28,4,359,PS,exp,43,←,left,←,0.5138173000887036,True,12,1,0,13
Y2-S2-092M28,4,360,PS,exp,48,↓,down,↓,0.48141759959980845,True,12,1,0,13
Y2-S2-092M28,4,361,PS,exp,37,→,right,→,0.4865663000382483,True,12,1,0,13
Y2-S2-092M28,4,362,PS,exp,28,↑,left,←,0.8402066002599895,False,11,-1,1,14
Y2-S2-092M28,4,363,PS,exp,31,←,left,←,0.5081446999683976,True,12,-1,0,14
Y2-S2-092M28,4,364,PS,exp,42,↑,up,↑,0.8687750999815762,True,12,-1,0,14
Y2-S2-092M28,4,365,PS,exp,43,→,left,←,0.9099945002235472,False,12,-1,0,14
Y2-S2-092M28,4,366,PS,exp,43,←,left,←,0.49001970002427697,True,13,-1,0,14
Y2-S2-092M28,4,367,PS,exp,43,→,right,→,0.6129586999304593,True,13,-1,0,14
Y2-S2-092M28,4,368,PS,exp,44,↑,up,↑,0.5189669001847506,True,13,1,1,15
Y2-S2-092M28,4,369,PS,exp,43,↓,right,→,0.6086818003095686,False,12,-1,1,16
Y2-S2-092M28,5,370,PS,intra_train,29,←,up,↑,0.9956868002191186,False,12,-,-,-
Y2-S2-092M28,5,371,PS,intra_train,47,→,left,←,0.9467786001041532,False,12,-,-,-
Y2-S2-092M28,5,372,PS,intra_train,43,↓,down,↓,0.6279597003012896,True,12,-,-,-
Y2-S2-092M28,5,373,PS,intra_train,39,↑,up,↑,0.6471291002817452,True,12,-,-,-
Y2-S2-092M28,5,374,PS,intra_train,47,←,right,→,0.7549258000217378,False,12,-,-,-
Y2-S2-092M28,5,375,PS,exp,28,→,down,↓,0.8635430000722408,False,8,-1,0,0
Y2-S2-092M28,5,376,PS,exp,38,↑,up,↑,0.7775333002209663,True,9,-1,0,0
Y2-S2-092M28,5,377,PS,exp,41,←,left,←,0.47917670011520386,True,9,-1,0,0
Y2-S2-092M28,5,378,PS,exp,39,↓,down,↓,0.5461992998607457,True,9,1,1,1
Y2-S2-092M28,5,379,PS,exp,27,→,right,→,0.6174301998689771,True,8,1,0,1
Y2-S2-092M28,5,380,PS,exp,41,↑,up,↑,0.5855091996490955,True,8,1,0,1
Y2-S2-092M28,5,381,PS,exp,30,→,down,↓,0.7187262000516057,False,8,-1,1,2
Y2-S2-092M28,5,382,PS,exp,29,↑,up,↑,0.5662438003346324,True,9,-1,0,2
Y2-S2-092M28,5,383,PS,exp,44,→,right,→,0.6620924999006093,True,9,-1,0,2
Y2-S2-092M28,5,384,PS,exp,25,↑,no_key,no_letter,-1.0,False,9,-1,0,2
Y2-S2-092M28,5,385,PS,exp,49,←,right,→,0.2840610002167523,False,10,-1,0,2
Y2-S2-092M28,5,386,PS,exp,27,↑,up,↑,1.1463739001192153,True,11,-1,0,2
Y2-S2-092M28,5,387,PS,exp,45,←,left,←,0.47452810034155846,True,11,-1,0,2
Y2-S2-092M28,5,388,PS,exp,35,↑,up,↑,0.5235108002088964,True,11,1,1,3
Y2-S2-092M28,5,389,PS,exp,50,←,left,←,0.47490289993584156,True,10,1,0,3
Y2-S2-092M28,5,390,PS,exp,38,↓,down,↓,0.5908846999518573,True,10,1,0,3
Y2-S2-092M28,5,391,PS,exp,48,←,left,←,0.5287763997912407,True,10,1,0,3
Y2-S2-092M28,5,392,PS,exp,44,↓,up,↑,0.728025000076741,False,9,-1,1,4
Y2-S2-092M28,5,393,PS,exp,25,↑,right,→,0.7569063999690115,False,10,-1,0,4
Y2-S2-092M28,5,394,PS,exp,31,↓,down,↓,0.7239744001999497,True,11,-1,0,4
Y2-S2-092M28,5,395,PS,exp,46,→,right,→,0.5216709999367595,True,11,-1,0,4
Y2-S2-092M28,5,396,PS,exp,29,↑,left,←,0.6420705998316407,False,11,-1,0,4
Y2-S2-092M28,5,397,PS,exp,46,↓,left,←,1.1709499000571668,False,12,-1,0,4
Y2-S2-092M28,5,398,PS,exp,34,↑,up,↑,0.7198484996333718,True,13,-1,0,4
Y2-S2-092M28,5,399,PS,exp,47,→,no_key,no_letter,-1.0,False,13,-1,0,4
Y2-S2-092M28,5,400,PS,exp,46,↑,down,↓,0.604439000133425,False,14,-1,0,4
Y2-S2-092M28,5,401,PS,exp,39,←,left,←,0.43783950014039874,True,15,-1,0,4
Y2-S2-092M28,5,402,PS,exp,35,↑,up,↑,0.4283787999302149,True,15,-1,0,4
Y2-S2-092M28,5,403,PS,exp,37,←,left,←,1.579234099946916,True,15,1,1,5
Y2-S2-092M28,5,404,PS,exp,49,↑,right,→,1.5641411999240518,False,14,-1,1,6
Y2-S2-092M28,5,405,PS,exp,25,←,no_key,no_letter,-1.0,False,15,-1,0,6
Y2-S2-092M28,5,406,PS,exp,46,↓,down,↓,1.5967325000092387,True,16,-1,0,6
Y2-S2-092M28,5,407,PS,exp,35,→,right,→,0.7058151001110673,True,16,-1,0,6
Y2-S2-092M28,5,408,PS,exp,45,↓,left,←,0.5637432998046279,False,16,-1,0,6
Y2-S2-092M28,5,409,PS,exp,37,→,left,←,0.489680000115186,False,17,-1,0,6
Y2-S2-092M28,5,410,PS,exp,45,↓,right,→,0.400549600366503,False,18,-1,0,6
Y2-S2-092M28,5,411,PS,exp,44,↑,right,→,1.245463800150901,False,19,-1,0,6
Y2-S2-092M28,5,412,PS,exp,33,←,right,→,1.5109606999903917,False,20,-1,0,6
Y2-S2-092M28,5,413,PS,exp,48,→,no_key,no_letter,-1.0,False,21,-1,0,6
Y2-S2-092M28,5,414,PS,exp,31,↓,up,↑,0.6656293999403715,False,22,-1,0,6
Y2-S2-092M28,5,415,PS,exp,36,→,right,→,0.7379374001175165,True,23,-1,0,6
Y2-S2-092M28,5,416,PS,exp,45,←,left,←,0.4841036000289023,True,23,-1,0,6
Y2-S2-092M28,5,417,PS,exp,27,↓,up,↑,0.562474800273776,False,23,-1,0,6
Y2-S2-092M28,5,418,PS,exp,31,→,right,→,0.6729274997487664,True,24,-1,0,6
Y2-S2-092M28,5,419,PS,exp,26,↑,up,↑,0.7657921998761594,True,24,-1,0,6
Y2-S2-092M28,5,420,PS,exp,50,↓,down,↓,0.7848898000083864,True,24,1,1,7
Y2-S2-092M28,5,421,PS,exp,31,←,left,←,0.4675352997146547,True,23,1,0,7
Y2-S2-092M28,5,422,PS,exp,44,→,right,→,0.7724640001542866,True,23,1,0,7
Y2-S2-092M28,5,423,PS,exp,44,↑,right,→,0.18440369982272387,False,23,-1,1,8
Y2-S2-092M28,5,424,PS,exp,31,→,right,→,0.5006599999032915,True,24,-1,0,8
Y2-S2-092M28,5,425,PS,exp,45,↑,up,↑,0.5762816001661122,True,24,-1,0,8
Y2-S2-092M28,5,426,PS,exp,41,←,right,→,0.7494938001036644,False,24,-1,0,8
Y2-S2-092M28,5,427,PS,exp,39,→,right,→,0.6164476000703871,True,25,-1,0,8
Y2-S2-092M28,5,428,PS,exp,42,←,down,↓,1.8976063998416066,False,25,-1,0,8
Y2-S2-092M28,5,429,PS,exp,49,↑,up,↑,0.4343532002530992,True,26,-1,0,8
Y2-S2-092M28,5,430,PS,exp,39,↓,down,↓,0.6441390998661518,True,26,-1,0,8
Y2-S2-092M28,5,431,PS,exp,44,←,left,←,1.2835928001441061,True,26,1,1,9
Y2-S2-092M28,5,432,PS,exp,41,→,right,→,0.6274505998007953,True,25,1,0,9
Y2-S2-092M28,5,433,PS,exp,27,↓,down,↓,1.0212203999981284,True,25,1,0,9
Y2-S2-092M28,5,434,PS,exp,40,→,right,→,0.4671016000211239,True,25,1,0,9
Y2-S2-092M28,5,435,PS,exp,38,↑,no_key,no_letter,-1.0,False,24,-1,1,10
Y2-S2-092M28,5,436,PS,exp,29,←,left,←,1.0166401998139918,True,25,-1,0,10
Y2-S2-092M28,5,437,PS,exp,34,↓,up,↑,0.48414620012044907,False,25,-1,0,10
Y2-S2-092M28,5,438,PS,exp,33,↑,up,↑,0.5506112999282777,True,26,-1,0,10
Y2-S2-092M28,5,439,PS,exp,39,↓,down,↓,0.46734859980642796,True,26,-1,0,10
Y2-S2-092M28,5,440,PS,exp,28,↑,up,↑,0.9072127002291381,True,26,1,1,11
Y2-S2-092M28,5,441,PS,exp,36,→,right,→,0.5007344000041485,True,25,1,0,11
Y2-S2-092M28,5,442,PS,exp,30,↑,up,↑,0.5336678000167012,True,25,1,0,11
Y2-S2-092M28,5,443,PS,exp,30,→,right,→,0.4676127997227013,True,25,1,0,11
Y2-S2-092M28,5,444,PS,exp,30,←,left,←,0.5990455998107791,True,24,1,0,11
Y2-S2-092M28,5,445,PS,exp,36,→,no_key,no_letter,-1.0,False,24,-1,1,12
Y2-S2-092M28,5,446,PS,exp,49,↓,right,→,0.6349392998963594,False,25,-1,0,12
Y2-S2-092M28,5,447,PS,exp,32,→,no_key,no_letter,-1.0,False,26,-1,0,12
Y2-S2-092M28,5,448,PS,exp,43,↑,up,↑,0.6996808997355402,True,27,-1,0,12
Y2-S2-092M28,5,449,PS,exp,50,→,down,↓,0.5173732000403106,False,27,-1,0,12
Y2-S2-092M28,5,450,PS,exp,50,↑,up,↑,0.46752370009198785,True,28,-1,0,12
Y2-S2-092M28,5,451,PS,exp,32,→,left,←,0.5337856002151966,False,28,-1,0,12
Y2-S2-092M28,5,452,PS,exp,49,↑,no_key,no_letter,-1.0,False,29,-1,0,12
Y2-S2-092M28,5,453,PS,exp,41,←,left,←,0.6173505000770092,True,30,-1,0,12
Y2-S2-092M28,5,454,PS,exp,30,↓,down,↓,0.48400190006941557,True,30,-1,0,12
Y2-S2-092M28,5,455,PS,exp,28,↑,up,↑,0.40133799985051155,True,30,1,1,13
Y2-S2-092M28,5,456,PS,exp,37,→,right,→,0.6797357001341879,True,29,1,0,13
Y2-S2-092M28,5,457,PS,exp,34,↑,up,↑,0.48420950025320053,True,29,1,0,13
Y2-S2-092M28,5,458,PS,exp,27,→,right,→,0.7265932997688651,True,29,1,0,13
Y2-S2-092M28,5,459,PS,exp,30,←,right,→,1.1263049002736807,False,28,-1,1,14
Y2-S2-092M28,5,460,PS,exp,35,→,right,→,0.6006646999157965,True,29,-1,0,14
Y2-S2-092M28,5,461,PS,exp,28,←,left,←,0.451112600043416,True,29,-1,0,14
Y2-S2-092M28,5,462,PS,exp,50,→,right,→,0.41800540033727884,True,29,1,1,15
Y2-S2-092M28,5,463,PS,exp,49,←,left,←,0.48405470000579953,True,28,1,0,15
Y2-S2-092M28,5,464,PS,exp,44,→,right,→,0.45056180004030466,True,28,1,0,15
Y2-S2-092M28,5,465,PS,exp,31,↑,no_key,no_letter,-1.0,False,28,-1,1,16
Y2-S2-092M28,6,466,AS,intra_train,48,↓,down,↓,1.0023853001184762,True,30,-,-,-
Y2-S2-092M28,6,467,AS,intra_train,36,→,right,→,0.5839559999294579,True,30,-,-,-
Y2-S2-092M28,6,468,AS,intra_train,29,←,left,←,0.7013191999867558,True,30,-,-,-
Y2-S2-092M28,6,469,AS,intra_train,40,↓,down,↓,0.6768307997845113,True,30,-,-,-
Y2-S2-092M28,6,470,AS,intra_train,35,↑,up,↑,0.6797590996138752,True,30,-,-,-
Y2-S2-092M28,6,471,AS,exp,39,←,down,↓,0.852740400005132,False,20,-1,0,0
Y2-S2-092M28,6,472,AS,exp,41,→,right,→,0.6158042997121811,True,21,-1,0,0
Y2-S2-092M28,6,473,AS,exp,35,←,left,←,0.5493028000928462,True,21,-1,0,0
Y2-S2-092M28,6,474,AS,exp,36,→,right,→,0.4669731999747455,True,21,1,1,1
Y2-S2-092M28,6,475,AS,exp,37,↓,down,↓,0.4671915997751057,True,20,1,0,1
Y2-S2-092M28,6,476,AS,exp,28,←,left,←,0.6825621002353728,True,20,1,0,1
Y2-S2-092M28,6,477,AS,exp,42,↑,up,↑,0.7780817998573184,True,20,1,0,1
Y2-S2-092M28,6,478,AS,exp,38,→,right,→,0.7846389999613166,True,19,1,0,1
Y2-S2-092M28,6,479,AS,exp,38,←,left,←,0.5522624002769589,True,19,1,0,1
Y2-S2-092M28,6,480,AS,exp,47,→,right,→,0.6563742002472281,True,19,1,0,1
Y2-S2-092M28,6,481,AS,exp,43,←,left,←,0.46813059970736504,True,18,1,0,1
Y2-S2-092M28,6,482,AS,exp,47,↑,left,←,1.0426264996640384,False,18,-1,1,2
Y2-S2-092M28,6,483,AS,exp,50,←,left,←,0.549263299908489,True,19,-1,0,2
Y2-S2-092M28,6,484,AS,exp,39,↑,up,↑,0.4339274000376463,True,19,-1,0,2
Y2-S2-092M28,6,485,AS,exp,26,↓,down,↓,0.5428725001402199,True,19,1,1,3
Y2-S2-092M28,6,486,AS,exp,47,↑,up,↑,0.8540230002254248,True,18,1,0,3
Y2-S2-092M28,6,487,AS,exp,47,→,right,→,0.5548719000071287,True,18,1,0,3
Y2-S2-092M28,6,488,AS,exp,43,↓,down,↓,0.7170782997272909,True,18,1,0,3
Y2-S2-092M28,6,489,AS,exp,49,→,right,→,0.6072194003500044,True,17,1,0,3
Y2-S2-092M28,6,490,AS,exp,47,←,left,←,0.4907446997240186,True,17,1,0,3
Y2-S2-092M28,6,491,AS,exp,29,→,right,→,0.7079990999773145,True,17,1,0,3
Y2-S2-092M28,6,492,AS,exp,50,←,right,→,1.080507299862802,False,16,-1,1,4
Y2-S2-092M28,6,493,AS,exp,49,↓,down,↓,0.5937593001872301,True,17,-1,0,4
Y2-S2-092M28,6,494,AS,exp,30,→,right,→,0.5264103999361396,True,17,-1,0,4
Y2-S2-092M28,6,495,AS,exp,30,←,left,←,0.5342592000961304,True,17,1,1,5
Y2-S2-092M28,6,496,AS,exp,36,↑,left,←,0.7280676998198032,False,16,-1,1,6
Y2-S2-092M28,6,497,AS,exp,38,↓,down,↓,0.4513032999821007,True,17,-1,0,6
Y2-S2-092M28,6,498,AS,exp,27,↑,up,↑,0.5113105000928044,True,17,-1,0,6
Y2-S2-092M28,6,499,AS,exp,32,↓,down,↓,0.5188171002082527,True,17,1,1,7
Y2-S2-092M28,6,500,AS,exp,27,←,up,↑,0.8362684999592602,False,16,-1,1,8
Y2-S2-092M28,6,501,AS,exp,50,↓,down,↓,0.46957660000771284,True,17,-1,0,8
Y2-S2-092M28,6,502,AS,exp,26,←,right,→,0.906906200107187,False,17,-1,0,8
Y2-S2-092M28,6,503,AS,exp,25,↑,up,↑,0.5948459999635816,True,18,-1,0,8
Y2-S2-092M28,6,504,AS,exp,26,→,right,→,0.6411637999117374,True,18,-1,0,8
Y2-S2-092M28,6,505,AS,exp,37,↑,up,↑,0.4171183998696506,True,18,1,1,9
Y2-S2-092M28,6,506,AS,exp,46,←,left,←,0.6626834999769926,True,17,1,0,9
Y2-S2-092M28,6,507,AS,exp,38,→,left,←,0.8347475002519786,False,17,-1,1,10
Y2-S2-092M28,6,508,AS,exp,37,↑,up,↑,1.6108071999624372,True,18,-1,0,10
Y2-S2-092M28,6,509,AS,exp,27,→,right,→,0.6424589999951422,True,18,-1,0,10
Y2-S2-092M28,6,510,AS,exp,27,↑,up,↑,0.6064465995877981,True,18,1,1,11
Y2-S2-092M28,6,511,AS,exp,32,↓,left,←,0.3673824002034962,False,17,-1,1,12
Y2-S2-092M28,6,512,AS,exp,45,←,right,→,0.7133879996836185,False,18,-1,0,12
Y2-S2-092M28,6,513,AS,exp,26,→,left,←,0.6056909998878837,False,19,-1,0,12
Y2-S2-092M28,6,514,AS,exp,43,↓,down,↓,0.6186697999946773,True,20,-1,0,12
Y2-S2-092M28,6,515,AS,exp,37,←,left,←,0.5257677002809942,True,20,-1,0,12
Y2-S2-092M28,6,516,AS,exp,31,↓,down,↓,0.533975400030613,True,20,1,1,13
Y2-S2-092M28,6,517,AS,exp,47,→,right,→,0.5654278001748025,True,19,1,0,13
Y2-S2-092M28,6,518,AS,exp,42,←,left,←,0.41697479970753193,True,19,1,0,13
Y2-S2-092M28,6,519,AS,exp,48,→,right,→,0.5181470001116395,True,19,1,0,13
Y2-S2-092M28,6,520,AS,exp,28,↑,up,↑,0.5410267999395728,True,18,1,0,13
Y2-S2-092M28,6,521,AS,exp,41,→,right,→,1.6531152999959886,True,18,1,0,13
Y2-S2-092M28,6,522,AS,exp,41,←,left,←,0.7133764000609517,True,18,1,0,13
Y2-S2-092M28,6,523,AS,exp,32,→,right,→,0.7851366000249982,True,17,1,0,13
Y2-S2-092M28,6,524,AS,exp,28,↓,down,↓,0.7459713998250663,True,17,1,0,13
Y2-S2-092M28,6,525,AS,exp,25,→,right,→,0.6742337998002768,True,17,1,0,13
Y2-S2-092M28,6,526,AS,exp,35,↑,up,↑,0.738754800055176,True,16,1,0,13
Y2-S2-092M28,6,527,AS,exp,36,↓,down,↓,0.6470369002781808,True,16,1,0,13
Y2-S2-092M28,6,528,AS,exp,26,←,left,←,0.6081821997649968,True,16,1,0,13
Y2-S2-092M28,6,529,AS,exp,38,→,right,→,0.6022998001426458,True,15,1,0,13
Y2-S2-092M28,6,530,AS,exp,26,←,left,←,0.7973334002308547,True,15,1,0,13
Y2-S2-092M28,6,531,AS,exp,45,↓,down,↓,0.42330250004306436,True,15,1,0,13
Y2-S2-092M28,6,532,AS,exp,35,←,left,←,0.5547394999302924,True,14,1,0,13
Y2-S2-092M28,6,533,AS,exp,37,↑,up,↑,0.44965670024976134,True,14,1,0,13
Y2-S2-092M28,6,534,AS,exp,34,↓,down,↓,0.6942726001143456,True,14,1,0,13
Y2-S2-092M28,6,535,AS,exp,36,←,up,↑,0.7768896003253758,False,13,-1,1,14
Y2-S2-092M28,6,536,AS,exp,35,↓,left,←,0.627586199901998,False,14,-1,0,14
Y2-S2-092M28,6,537,AS,exp,28,↑,up,↑,0.4434285000897944,True,15,-1,0,14
Y2-S2-092M28,6,538,AS,exp,39,→,right,→,1.579677099827677,True,15,-1,0,14
Y2-S2-092M28,6,539,AS,exp,37,↑,up,↑,1.643032600171864,True,15,1,1,15
Y2-S2-092M28,6,540,AS,exp,27,→,right,→,1.3278314000926912,True,14,1,0,15
Y2-S2-092M28,6,541,AS,exp,32,←,up,↑,1.5528806000947952,False,14,-1,1,16
Y2-S2-092M28,7,542,AS,intra_train,44,↓,down,↓,0.789769799914211,True,30,-,-,-
Y2-S2-092M28,7,543,AS,intra_train,33,↑,up,↑,0.682974100112915,True,30,-,-,-
Y2-S2-092M28,7,544,AS,intra_train,48,←,left,←,0.38453530007973313,True,30,-,-,-
Y2-S2-092M28,7,545,AS,intra_train,41,↑,left,←,0.36765410006046295,False,30,-,-,-
Y2-S2-092M28,7,546,AS,intra_train,40,←,left,←,0.5845017000101507,True,30,-,-,-
Y2-S2-092M28,7,547,AS,exp,29,→,right,→,0.4169132998213172,True,20,0,0,0
Y2-S2-092M28,7,548,AS,exp,28,↑,up,↑,0.5963188000023365,True,20,0,0,0
Y2-S2-092M28,7,549,AS,exp,45,↓,down,↓,0.7148707997985184,True,20,1,0,0
Y2-S2-092M28,7,550,AS,exp,45,→,right,→,0.5767290997318923,True,19,1,0,0
Y2-S2-092M28,7,551,AS,exp,44,↑,up,↑,0.6286861998960376,True,19,1,0,0
Y2-S2-092M28,7,552,AS,exp,42,←,left,←,0.6550387996248901,True,19,1,0,0
Y2-S2-092M28,7,553,AS,exp,44,↑,up,↑,0.526343900244683,True,18,1,0,0
Y2-S2-092M28,7,554,AS,exp,41,↓,down,↓,0.5363226998597383,True,18,1,0,0
Y2-S2-092M28,7,555,AS,exp,40,→,right,→,1.004347300156951,True,18,1,0,0
Y2-S2-092M28,7,556,AS,exp,40,↓,down,↓,0.7008337997831404,True,17,1,0,0
Y2-S2-092M28,7,557,AS,exp,40,←,left,←,0.3835804997943342,True,17,1,0,0
Y2-S2-092M28,7,558,AS,exp,46,↑,up,↑,0.7409577001817524,True,17,1,0,0
Y2-S2-092M28,7,559,AS,exp,47,←,right,→,0.47611419996246696,False,16,-1,1,1
Y2-S2-092M28,7,560,AS,exp,44,↑,left,←,0.5865666996687651,False,17,-1,0,1
Y2-S2-092M28,7,561,AS,exp,35,↓,down,↓,0.5927947000600398,True,18,-1,0,1
Y2-S2-092M28,7,562,AS,exp,35,→,left,←,0.48309569992125034,False,18,-1,0,1
Y2-S2-092M28,7,563,AS,exp,45,↑,up,↑,0.6765792998485267,True,19,-1,0,1
Y2-S2-092M28,7,564,AS,exp,47,←,left,←,0.6461626002565026,True,19,-1,0,1
Y2-S2-092M28,7,565,AS,exp,30,↑,right,→,0.8953645997680724,False,19,-1,0,1
Y2-S2-092M28,7,566,AS,exp,42,→,right,→,0.644680299796164,True,20,-1,0,1
Y2-S2-092M28,7,567,AS,exp,30,↓,down,↓,0.6209468999877572,True,20,-1,0,1
Y2-S2-092M28,7,568,AS,exp,36,→,right,→,0.5139901000075042,True,20,1,1,2
Y2-S2-092M28,7,569,AS,exp,28,↑,down,↓,0.5712854000739753,False,19,-1,1,3
Y2-S2-092M28,7,570,AS,exp,44,←,right,→,0.5182389002293348,False,20,-1,0,3
Y2-S2-092M28,7,571,AS,exp,27,↓,down,↓,0.6425576000474393,True,21,-1,0,3
Y2-S2-092M28,7,572,AS,exp,39,↑,no_key,no_letter,-1.0,False,21,-1,0,3
Y2-S2-092M28,7,573,AS,exp,31,↓,down,↓,0.733714499976486,True,22,-1,0,3
Y2-S2-092M28,7,574,AS,exp,43,→,right,→,0.6337569998577237,True,22,-1,0,3
Y2-S2-092M28,7,575,AS,exp,41,↑,up,↑,0.5004344000481069,True,22,1,1,4
Y2-S2-092M28,7,576,AS,exp,44,→,right,→,0.9367554998025298,True,21,1,0,4
Y2-S2-092M28,7,577,AS,exp,30,←,left,←,0.8242056001909077,True,21,1,0,4
Y2-S2-092M28,7,578,AS,exp,44,↓,down,↓,0.695155399851501,True,21,1,0,4
Y2-S2-092M28,7,579,AS,exp,34,←,left,←,0.43394819973036647,True,20,1,0,4
Y2-S2-092M28,7,580,AS,exp,32,↑,up,↑,0.41751680010929704,True,20,1,0,4
Y2-S2-092M28,7,581,AS,exp,42,→,right,→,0.5690530999563634,True,20,1,0,4
Y2-S2-092M28,7,582,AS,exp,30,←,left,←,0.4342630999162793,True,19,1,0,4
Y2-S2-092M28,7,583,AS,exp,41,↓,down,↓,0.5177635997533798,True,19,1,0,4
Y2-S2-092M28,7,584,AS,exp,48,↑,up,↑,0.36649700021371245,True,19,1,0,4
Y2-S2-092M28,7,585,AS,exp,34,←,left,←,0.40032280003651977,True,18,1,0,4
Y2-S2-092M28,7,586,AS,exp,50,↑,up,↑,0.6174761997535825,True,18,1,0,4
Y2-S2-092M28,7,587,AS,exp,40,←,left,←,0.6483243000693619,True,18,1,0,4
Y2-S2-092M28,7,588,AS,exp,42,→,right,→,0.7471692999824882,True,17,1,0,4
Y2-S2-092M28,7,589,AS,exp,40,←,left,←,0.4174202000722289,True,17,1,0,4
Y2-S2-092M28,7,590,AS,exp,49,↑,up,↑,0.4860264998860657,True,17,1,0,4
Y2-S2-092M28,7,591,AS,exp,40,↓,down,↓,0.7153709996491671,True,16,1,0,4
Y2-S2-092M28,7,592,AS,exp,44,↑,no_key,no_letter,-1.0,False,16,-1,1,5
Y2-S2-092M28,7,593,AS,exp,33,←,left,←,0.41667950013652444,True,17,-1,0,5
Y2-S2-092M28,7,594,AS,exp,38,→,right,→,0.6104335999116302,True,17,-1,0,5
Y2-S2-092M28,7,595,AS,exp,29,↓,down,↓,0.5709850997664034,True,17,1,1,6
Y2-S2-092M28,7,596,AS,exp,32,←,left,←,0.3503371002152562,True,16,1,0,6
Y2-S2-092M28,7,597,AS,exp,36,↓,down,↓,0.7400751998648047,True,16,1,0,6
Y2-S2-092M28,7,598,AS,exp,42,↑,up,↑,0.4364693001843989,True,16,1,0,6
Y2-S2-092M28,7,599,AS,exp,37,→,left,←,0.7001928999088705,False,15,-1,1,7
Y2-S2-092M28,7,600,AS,exp,47,↑,up,↑,0.6722702998667955,True,16,-1,0,7
Y2-S2-092M28,7,601,AS,exp,35,→,right,→,0.48718920024111867,True,16,-1,0,7
Y2-S2-092M28,7,602,AS,exp,50,←,left,←,0.558517100289464,True,16,1,1,8
Y2-S2-092M28,7,603,AS,exp,39,→,right,→,0.6416813000105321,True,15,1,0,8
Y2-S2-092M28,7,604,AS,exp,25,↓,down,↓,0.6413256004452705,True,15,1,0,8
Y2-S2-092M28,7,605,AS,exp,44,→,right,→,0.5697129997424781,True,15,1,0,8
Y2-S2-092M28,7,606,AS,exp,40,↓,down,↓,0.5516381002962589,True,14,1,0,8
Y2-S2-092M28,7,607,AS,exp,50,←,down,↓,0.6994424997828901,False,14,-1,1,9
Y2-S2-092M28,7,608,AS,exp,29,↓,down,↓,0.856971800327301,True,15,-1,0,9
Y2-S2-092M28,7,609,AS,exp,35,→,right,→,0.48611020017415285,True,15,-1,0,9
Y2-S2-092M28,7,610,AS,exp,45,←,left,←,0.521650199778378,True,15,1,1,10
Y2-S2-092M28,7,611,AS,exp,40,→,left,←,1.029537699650973,False,14,-1,1,11
Y2-S2-092M28,7,612,AS,exp,46,←,right,→,1.040584999602288,False,15,-1,0,11
Y2-S2-092M28,7,613,AS,exp,42,↑,up,↑,0.6981522003188729,True,16,-1,0,11
Y2-S2-092M28,7,614,AS,exp,38,←,left,←,0.4486075001768768,True,16,-1,0,11
Y2-S2-092M28,7,615,AS,exp,30,→,right,→,0.3673427002504468,True,16,1,1,12
Y2-S2-092M28,7,616,AS,exp,32,↓,down,↓,0.48609300004318357,True,15,1,0,12
Y2-S2-092M28,7,617,AS,exp,41,↑,left,←,0.6531734000891447,False,15,-1,1,13
Y2-S2-092M28,7,618,AS,exp,43,↓,down,↓,0.6838727002032101,True,16,-1,0,13
Y2-S2-092M28,7,619,AS,exp,30,→,right,→,0.7800321998074651,True,16,-1,0,13
Y2-S2-092M28,7,620,AS,exp,36,↓,down,↓,0.6017956999130547,True,16,1,1,14
Y2-S2-092M28,7,621,AS,exp,49,↑,down,↓,0.6113398000597954,False,15,-1,1,15
Y2-S2-092M28,7,622,AS,exp,42,↓,left,←,0.4004092998802662,False,16,-1,0,15
Y2-S2-092M28,7,623,AS,exp,47,←,left,←,0.4637024998664856,True,17,-1,0,15
Y2-S2-092M28,7,624,AS,exp,45,→,right,→,1.4325390998274088,True,17,-1,0,15
Y2-S2-092M28,7,625,AS,exp,36,←,left,←,0.7201879997737706,True,17,1,1,16
Y2-S2-092M28,8,626,PS,intra_train,46,↑,up,↑,1.0613517998717725,True,12,-,-,-
Y2-S2-092M28,8,627,PS,intra_train,44,↓,left,←,1.4720857003703713,False,12,-,-,-
Y2-S2-092M28,8,628,PS,intra_train,30,←,right,→,0.8650695001706481,False,12,-,-,-
Y2-S2-092M28,8,629,PS,intra_train,36,↑,up,↑,0.594704800285399,True,12,-,-,-
Y2-S2-092M28,8,630,PS,intra_train,40,↓,up,↑,0.845964000094682,False,12,-,-,-
Y2-S2-092M28,8,631,PS,exp,34,↑,right,→,0.6960597997531295,False,8,-1,0,0
Y2-S2-092M28,8,632,PS,exp,35,→,right,→,0.7143065999262035,True,9,-1,0,0
Y2-S2-092M28,8,633,PS,exp,25,↑,left,←,0.8843581001274288,False,9,-1,0,0
Y2-S2-092M28,8,634,PS,exp,43,→,right,→,0.5701421997509897,True,10,-1,0,0
Y2-S2-092M28,8,635,PS,exp,28,←,right,→,0.6460357997566462,False,10,-1,0,0
Y2-S2-092M28,8,636,PS,exp,30,→,right,→,0.47824939992278814,True,11,-1,0,0
Y2-S2-092M28,8,637,PS,exp,44,↓,down,↓,0.6627851999364793,True,11,-1,0,0
Y2-S2-092M28,8,638,PS,exp,48,←,left,←,0.6188949998468161,True,11,1,1,1
Y2-S2-092M28,8,639,PS,exp,35,↑,up,↑,0.4163665003143251,True,10,1,0,1
Y2-S2-092M28,8,640,PS,exp,38,←,left,←,0.6372748999856412,True,10,1,0,1
Y2-S2-092M28,8,641,PS,exp,32,↑,up,↑,0.7069693999364972,True,10,1,0,1
Y2-S2-092M28,8,642,PS,exp,47,←,left,←,0.47702959971502423,True,9,1,0,1
Y2-S2-092M28,8,643,PS,exp,28,↓,down,↓,0.6024783998727798,True,9,1,0,1
Y2-S2-092M28,8,644,PS,exp,28,↑,up,↑,0.41069990023970604,True,9,1,0,1
Y2-S2-092M28,8,645,PS,exp,50,←,down,↓,0.9612925001420081,False,8,-1,1,2
Y2-S2-092M28,8,646,PS,exp,29,→,right,→,0.47439550003036857,True,9,-1,0,2
Y2-S2-092M28,8,647,PS,exp,42,←,left,←,0.45900840032845736,True,9,-1,0,2
Y2-S2-092M28,8,648,PS,exp,34,↑,up,↑,0.4412031997926533,True,9,1,1,3
Y2-S2-092M28,8,649,PS,exp,49,↓,down,↓,0.5880307997576892,True,8,1,0,3
Y2-S2-092M28,8,650,PS,exp,37,→,right,→,0.46326939994469285,True,8,1,0,3
Y2-S2-092M28,8,651,PS,exp,49,←,left,←,0.4919706000946462,True,8,1,0,3
Y2-S2-092M28,8,652,PS,exp,42,→,right,→,0.41556990006938577,True,7,1,0,3
Y2-S2-092M28,8,653,PS,exp,31,↑,up,↑,0.4805336999706924,True,7,1,0,3
Y2-S2-092M28,8,654,PS,exp,49,←,left,←,0.5006567998789251,True,7,1,0,3
Y2-S2-092M28,8,655,PS,exp,39,→,down,↓,0.6571339000947773,False,6,-1,1,4
Y2-S2-092M28,8,656,PS,exp,36,↓,right,→,0.6712186997756362,False,7,-1,0,4
Y2-S2-092M28,8,657,PS,exp,39,↑,up,↑,0.5662708999589086,True,8,-1,0,4
Y2-S2-092M28,8,658,PS,exp,34,←,right,→,0.9004893996752799,False,8,-1,0,4
Y2-S2-092M28,8,659,PS,exp,28,↑,up,↑,0.41825579991564155,True,9,-1,0,4
Y2-S2-092M28,8,660,PS,exp,27,→,right,→,0.7194260996766388,True,9,-1,0,4
Y2-S2-092M28,8,661,PS,exp,49,←,left,←,0.7797306003049016,True,9,1,1,5
Y2-S2-092M28,8,662,PS,exp,49,→,right,→,0.4784690998494625,True,8,1,0,5
Y2-S2-092M28,8,663,PS,exp,40,↓,down,↓,0.4952909001149237,True,8,1,0,5
Y2-S2-092M28,8,664,PS,exp,33,←,up,↑,0.7119216998107731,False,8,-1,1,6
Y2-S2-092M28,8,665,PS,exp,30,→,right,→,0.47651749989017844,True,9,-1,0,6
Y2-S2-092M28,8,666,PS,exp,40,←,down,↓,1.3003742001019418,False,9,-1,0,6
Y2-S2-092M28,8,667,PS,exp,34,→,right,→,0.4806070001795888,True,10,-1,0,6
Y2-S2-092M28,8,668,PS,exp,30,↓,no_key,no_letter,-1.0,False,10,-1,0,6
Y2-S2-092M28,8,669,PS,exp,35,←,left,←,0.5040716999210417,True,11,-1,0,6
Y2-S2-092M28,8,670,PS,exp,41,↑,up,↑,0.42178869992494583,True,11,-1,0,6
Y2-S2-092M28,8,671,PS,exp,35,↓,left,←,1.4668025998398662,False,11,-1,0,6
Y2-S2-092M28,8,672,PS,exp,41,←,right,→,1.6694105002097785,False,12,-1,0,6
Y2-S2-092M28,8,673,PS,exp,39,→,right,→,0.7685047998093069,True,13,-1,0,6
Y2-S2-092M28,8,674,PS,exp,28,↑,up,↑,0.6215797001495957,True,13,-1,0,6
Y2-S2-092M28,8,675,PS,exp,26,←,left,←,0.6688866997137666,True,13,1,1,7
Y2-S2-092M28,8,676,PS,exp,42,→,right,→,0.5264129000715911,True,12,1,0,7
Y2-S2-092M28,8,677,PS,exp,40,←,left,←,0.43779920041561127,True,12,1,0,7
Y2-S2-092M28,8,678,PS,exp,44,→,right,→,0.3802186003886163,True,12,1,0,7
Y2-S2-092M28,8,679,PS,exp,44,←,left,←,0.8790690000168979,True,11,1,0,7
Y2-S2-092M28,8,680,PS,exp,45,↑,up,↑,1.1224275999702513,True,11,1,0,7
Y2-S2-092M28,8,681,PS,exp,47,←,left,←,1.1278336001560092,True,11,1,0,7
Y2-S2-092M28,8,682,PS,exp,27,↓,right,→,0.7228747997432947,False,10,-1,1,8
Y2-S2-092M28,8,683,PS,exp,40,←,left,←,0.5069875000044703,True,11,-1,0,8
Y2-S2-092M28,8,684,PS,exp,30,↓,right,→,1.0152794001623988,False,11,-1,0,8
Y2-S2-092M28,8,685,PS,exp,49,↑,up,↑,0.5607034000568092,True,12,-1,0,8
Y2-S2-092M28,8,686,PS,exp,34,←,down,↓,0.75079429987818,False,12,-1,0,8
Y2-S2-092M28,8,687,PS,exp,38,↓,right,→,0.6375438999384642,False,13,-1,0,8
Y2-S2-092M28,8,688,PS,exp,40,←,left,←,0.42171600041911006,True,14,-1,0,8
Y2-S2-092M28,8,689,PS,exp,49,↑,up,↑,0.4900364996865392,True,14,-1,0,8
Y2-S2-092M28,8,690,PS,exp,49,↓,down,↓,0.8568408000282943,True,14,1,1,9
Y2-S2-092M28,8,691,PS,exp,38,↑,right,→,1.191120999865234,False,13,-1,1,10
Y2-S2-092M28,8,692,PS,exp,50,←,left,←,0.5015308000147343,True,14,-1,0,10
Y2-S2-092M28,8,693,PS,exp,30,→,up,↑,0.8108709999360144,False,14,-1,0,10
Y2-S2-092M28,8,694,PS,exp,27,←,down,↓,0.6649759002029896,False,15,-1,0,10
Y2-S2-092M28,8,695,PS,exp,44,→,right,→,1.256165999919176,True,16,-1,0,10
Y2-S2-092M28,8,696,PS,exp,44,←,left,←,1.007201699540019,True,16,-1,0,10
Y2-S2-092M28,8,697,PS,exp,47,↑,up,↑,0.7812013998627663,True,16,1,1,11
Y2-S2-092M28,8,698,PS,exp,37,→,right,→,0.42309980001300573,True,15,1,0,11
Y2-S2-092M28,8,699,PS,exp,29,↓,left,←,1.2980843000113964,False,15,-1,1,12
Y2-S2-092M28,8,700,PS,exp,40,←,left,←,0.860550899989903,True,16,-1,0,12
Y2-S2-092M28,8,701,PS,exp,27,↓,down,↓,0.5463331998325884,True,16,-1,0,12
Y2-S2-092M28,8,702,PS,exp,49,↑,up,↑,0.4791083000600338,True,16,1,1,13
Y2-S2-092M28,8,703,PS,exp,39,←,right,→,1.3737815995700657,False,15,-1,1,14
Y2-S2-092M28,8,704,PS,exp,38,↓,up,↑,1.7373354001902044,False,16,-1,0,14
Y2-S2-092M28,8,705,PS,exp,48,→,no_key,no_letter,-1.0,False,17,-1,0,14
Y2-S2-092M28,8,706,PS,exp,48,↓,left,←,1.319759199861437,False,18,-1,0,14
Y2-S2-092M28,8,707,PS,exp,28,←,right,→,0.5900191999971867,False,19,-1,0,14
Y2-S2-092M28,8,708,PS,exp,35,→,right,→,0.4669639002531767,True,20,-1,0,14
Y2-S2-092M28,8,709,PS,exp,38,↓,down,↓,0.5113975000567734,True,20,-1,0,14
Y2-S2-092M28,8,710,PS,exp,50,←,left,←,0.666775000281632,True,20,1,1,15
Y2-S2-092M28,8,711,PS,exp,32,↓,right,→,0.6270042997784913,False,19,-1,1,16
