PART_ID,Block_no,Trial_no,Block_type,Trial_type,CSI,Stim_letter,Key_pressed,letter_choose,Rt,Corr,Stimulus Time,Level,Reversal,Revs_count
Y2-S2-025K21,1,1,PS,train,47,←,left,←,1.419351699994877,True,30,-,-,-
Y2-S2-025K21,1,2,PS,train,49,↑,up,↑,1.601639100117609,True,30,-,-,-
Y2-S2-025K21,1,3,PS,train,38,←,left,←,0.48363709985278547,True,30,-,-,-
Y2-S2-025K21,1,4,PS,train,50,↓,left,←,1.1786784001160413,False,30,-,-,-
Y2-S2-025K21,1,5,PS,train,29,←,left,←,0.4836427001282573,True,30,-,-,-
Y2-S2-025K21,1,6,PS,train,27,↑,up,↑,0.9615360999014229,True,30,-,-,-
Y2-S2-025K21,1,7,PS,train,38,↓,down,↓,1.0938122000079602,True,30,-,-,-
Y2-S2-025K21,1,8,PS,train,46,↑,up,↑,1.0351509000174701,True,30,-,-,-
Y2-S2-025K21,1,9,PS,train,37,←,left,←,0.5172350998036563,True,30,-,-,-
Y2-S2-025K21,1,10,PS,train,40,↑,up,↑,0.4840609000530094,True,30,-,-,-
Y2-S2-025K21,2,11,AS,train,25,↓,down,↓,0.7508786001708359,True,45,-,-,-
Y2-S2-025K21,2,12,AS,train,50,↑,up,↑,0.7677952998783439,True,45,-,-,-
Y2-S2-025K21,2,13,AS,train,32,→,right,→,0.5675371000543237,True,45,-,-,-
Y2-S2-025K21,2,14,AS,train,37,↓,down,↓,0.6676504998467863,True,45,-,-,-
Y2-S2-025K21,2,15,AS,train,34,↑,up,↑,0.6008164000231773,True,45,-,-,-
Y2-S2-025K21,2,16,AS,train,26,→,right,→,0.7506143997889012,True,45,-,-,-
Y2-S2-025K21,2,17,AS,train,34,←,right,→,0.5674771000631154,False,45,-,-,-
Y2-S2-025K21,2,18,AS,train,49,↑,up,↑,0.6510042001027614,True,45,-,-,-
Y2-S2-025K21,2,19,AS,train,36,→,right,→,0.6680862000212073,True,45,-,-,-
Y2-S2-025K21,2,20,AS,train,33,↑,up,↑,0.7180845998227596,True,45,-,-,-
Y2-S2-025K21,-,21,PS,adaptive,25,↓,down,↓,0.5584799000062048,True,10,0,0,0
Y2-S2-025K21,-,22,PS,adaptive,46,↑,up,↑,0.49370889994315803,True,10,0,0,0
Y2-S2-025K21,-,23,PS,adaptive,42,↓,down,↓,0.5653526000678539,True,10,1,0,0
Y2-S2-025K21,-,24,PS,adaptive,27,←,right,→,1.248413800029084,False,9,-1,1,1
Y2-S2-025K21,-,25,PS,adaptive,49,↓,down,↓,0.5209192999172956,True,10,-1,0,1
Y2-S2-025K21,-,26,PS,adaptive,29,↑,up,↑,0.40874040010385215,True,10,-1,0,1
Y2-S2-025K21,-,27,PS,adaptive,27,←,left,←,0.43645890010520816,True,10,1,1,2
Y2-S2-025K21,-,28,PS,adaptive,45,↑,right,→,1.0307501999195665,False,9,-1,1,3
Y2-S2-025K21,-,29,PS,adaptive,25,↓,down,↓,0.4683993000071496,True,10,-1,0,3
Y2-S2-025K21,-,30,PS,adaptive,30,↑,left,←,0.9658786000218242,False,10,-1,0,3
Y2-S2-025K21,-,31,PS,adaptive,50,←,left,←,0.5557782000396401,True,11,-1,0,3
Y2-S2-025K21,-,32,PS,adaptive,44,↓,down,↓,0.9897208998445421,True,11,-1,0,3
Y2-S2-025K21,-,33,PS,adaptive,29,←,left,←,0.4467764999717474,True,11,1,1,4
Y2-S2-025K21,-,34,AS,adaptive,38,↑,up,↑,0.5550155998207629,True,20,0,0,0
Y2-S2-025K21,-,35,AS,adaptive,41,↓,down,↓,0.6969669000245631,True,20,0,0,0
Y2-S2-025K21,-,36,AS,adaptive,30,←,left,←,0.5962752001360059,True,20,1,0,0
Y2-S2-025K21,-,37,AS,adaptive,35,↑,up,↑,1.3789719000924379,True,19,1,0,0
Y2-S2-025K21,-,38,AS,adaptive,48,→,right,→,0.530860299943015,True,19,1,0,0
Y2-S2-025K21,-,39,AS,adaptive,36,↑,up,↑,0.680424900026992,True,19,1,0,0
Y2-S2-025K21,-,40,AS,adaptive,45,→,left,←,0.6959893999155611,False,18,-1,1,1
Y2-S2-025K21,-,41,AS,adaptive,33,↓,down,↓,0.5230801999568939,True,19,-1,0,1
Y2-S2-025K21,-,42,AS,adaptive,40,←,right,→,0.532347199972719,False,19,-1,0,1
Y2-S2-025K21,-,43,AS,adaptive,44,→,right,→,0.6690512001514435,True,20,-1,0,1
Y2-S2-025K21,-,44,AS,adaptive,29,↓,down,↓,0.6097279000096023,True,20,-1,0,1
Y2-S2-025K21,-,45,AS,adaptive,46,←,left,←,0.510913799982518,True,20,1,1,2
Y2-S2-025K21,-,46,AS,adaptive,46,→,right,→,0.592964299954474,True,19,1,0,2
Y2-S2-025K21,-,47,AS,adaptive,38,←,left,←,0.9542857999913394,True,19,1,0,2
Y2-S2-025K21,-,48,AS,adaptive,47,↑,left,←,0.7240554001182318,False,19,-1,1,3
Y2-S2-025K21,-,49,AS,adaptive,40,←,left,←,0.4342392000835389,True,20,-1,0,3
Y2-S2-025K21,-,50,AS,adaptive,44,↓,up,↑,1.3593524999450892,False,20,-1,0,3
Y2-S2-025K21,-,51,AS,adaptive,26,→,right,→,0.43313530017621815,True,21,-1,0,3
Y2-S2-025K21,-,52,AS,adaptive,45,↑,up,↑,0.45037960004992783,True,21,-1,0,3
Y2-S2-025K21,-,53,AS,adaptive,33,→,right,→,0.7587633999064565,True,21,1,1,4
Y2-S2-025K21,1,54,PS,intra_train,40,↓,down,↓,0.7613137001171708,True,15,-,-,-
Y2-S2-025K21,1,55,PS,intra_train,29,→,right,→,0.4723855999764055,True,15,-,-,-
Y2-S2-025K21,1,56,PS,intra_train,33,←,right,→,0.857318100053817,False,15,-,-,-
Y2-S2-025K21,1,57,PS,intra_train,29,↑,up,↑,0.46111340005882084,True,15,-,-,-
Y2-S2-025K21,1,58,PS,intra_train,26,←,left,←,1.132040400058031,True,15,-,-,-
Y2-S2-025K21,1,59,PS,exp,50,→,right,→,0.4738843000959605,True,10,0,0,0
Y2-S2-025K21,1,60,PS,exp,34,←,left,←,0.6650833999738097,True,10,0,0,0
Y2-S2-025K21,1,61,PS,exp,45,↓,down,↓,0.488164400216192,True,10,1,0,0
Y2-S2-025K21,1,62,PS,exp,37,←,left,←,0.6761817999649793,True,9,1,0,0
Y2-S2-025K21,1,63,PS,exp,30,↓,down,↓,0.7491317999083549,True,9,1,0,0
Y2-S2-025K21,1,64,PS,exp,42,↑,up,↑,0.595960000064224,True,9,1,0,0
Y2-S2-025K21,1,65,PS,exp,44,←,up,↑,1.7094360999763012,False,8,-1,1,1
Y2-S2-025K21,1,66,PS,exp,39,→,right,→,0.4509403998963535,True,9,-1,0,1
Y2-S2-025K21,1,67,PS,exp,35,↑,up,↑,0.5875040001701564,True,9,-1,0,1
Y2-S2-025K21,1,68,PS,exp,35,→,right,→,0.7933807000517845,True,9,1,1,2
Y2-S2-025K21,1,69,PS,exp,28,↑,up,↑,0.5250090002082288,True,8,1,0,2
Y2-S2-025K21,1,70,PS,exp,36,↓,up,↑,0.8792268999386579,False,8,-1,1,3
Y2-S2-025K21,1,71,PS,exp,39,→,left,←,0.5393634999636561,False,9,-1,0,3
Y2-S2-025K21,1,72,PS,exp,43,←,left,←,0.4584028001409024,True,10,-1,0,3
Y2-S2-025K21,1,73,PS,exp,34,→,left,←,0.6689868001267314,False,10,-1,0,3
Y2-S2-025K21,1,74,PS,exp,46,↓,down,↓,0.9239147999323905,True,11,-1,0,3
Y2-S2-025K21,1,75,PS,exp,50,→,right,→,0.43746190005913377,True,11,-1,0,3
Y2-S2-025K21,1,76,PS,exp,39,↑,up,↑,0.42821929999627173,True,11,1,1,4
Y2-S2-025K21,1,77,PS,exp,49,←,left,←,0.4618859998881817,True,10,1,0,4
Y2-S2-025K21,1,78,PS,exp,43,↑,down,↓,1.0471383999101818,False,10,-1,1,5
Y2-S2-025K21,1,79,PS,exp,30,→,left,←,0.5418137998785824,False,11,-1,0,5
Y2-S2-025K21,1,80,PS,exp,27,↓,down,↓,0.5334389999043196,True,12,-1,0,5
Y2-S2-025K21,1,81,PS,exp,41,→,right,→,0.4690000999253243,True,12,-1,0,5
Y2-S2-025K21,1,82,PS,exp,35,↓,down,↓,0.5082300000358373,True,12,1,1,6
Y2-S2-025K21,1,83,PS,exp,41,↑,up,↑,0.5595116999465972,True,11,1,0,6
Y2-S2-025K21,1,84,PS,exp,40,←,left,←,0.39906329987570643,True,11,1,0,6
Y2-S2-025K21,1,85,PS,exp,45,↑,down,↓,0.470349800074473,False,11,-1,1,7
Y2-S2-025K21,1,86,PS,exp,33,→,right,→,0.490488100098446,True,12,-1,0,7
Y2-S2-025K21,1,87,PS,exp,36,↑,right,→,0.685599299846217,False,12,-1,0,7
Y2-S2-025K21,1,88,PS,exp,30,→,left,←,0.4886468001641333,False,13,-1,0,7
Y2-S2-025K21,1,89,PS,exp,42,←,left,←,0.5769962000194937,True,14,-1,0,7
Y2-S2-025K21,1,90,PS,exp,41,↓,down,↓,0.4707096000202,True,14,-1,0,7
Y2-S2-025K21,1,91,PS,exp,42,↑,up,↑,0.41171559994108975,True,14,1,1,8
Y2-S2-025K21,1,92,PS,exp,27,←,left,←,0.3173215000424534,True,13,1,0,8
Y2-S2-025K21,1,93,PS,exp,27,↓,down,↓,0.553149800049141,True,13,1,0,8
Y2-S2-025K21,1,94,PS,exp,41,→,right,→,0.5313222999684513,True,13,1,0,8
Y2-S2-025K21,1,95,PS,exp,33,←,left,←,0.4957889001816511,True,12,1,0,8
Y2-S2-025K21,1,96,PS,exp,37,→,right,→,0.44639529986307025,True,12,1,0,8
Y2-S2-025K21,1,97,PS,exp,42,←,left,←,0.5023767999373376,True,12,1,0,8
Y2-S2-025K21,1,98,PS,exp,33,↓,down,↓,0.5719976997934282,True,11,1,0,8
Y2-S2-025K21,1,99,PS,exp,34,←,left,←,0.625248699914664,True,11,1,0,8
Y2-S2-025K21,1,100,PS,exp,48,↓,down,↓,0.605732100084424,True,11,1,0,8
Y2-S2-025K21,1,101,PS,exp,50,↑,up,↑,0.55613819998689,True,10,1,0,8
Y2-S2-025K21,1,102,PS,exp,46,←,right,→,0.6663898001424968,False,10,-1,1,9
Y2-S2-025K21,1,103,PS,exp,39,↑,up,↑,0.5503773000091314,True,11,-1,0,9
Y2-S2-025K21,1,104,PS,exp,25,↓,down,↓,0.506806300021708,True,11,-1,0,9
Y2-S2-025K21,1,105,PS,exp,48,←,left,←,0.43259690003469586,True,11,1,1,10
Y2-S2-025K21,1,106,PS,exp,25,→,right,→,0.5385753000155091,True,10,1,0,10
Y2-S2-025K21,1,107,PS,exp,34,←,left,←,0.547169400146231,True,10,1,0,10
Y2-S2-025K21,1,108,PS,exp,36,→,right,→,0.6876788998488337,True,10,1,0,10
Y2-S2-025K21,1,109,PS,exp,49,↑,down,↓,0.5629930999130011,False,9,-1,1,11
Y2-S2-025K21,1,110,PS,exp,41,←,left,←,0.5596397998742759,True,10,-1,0,11
Y2-S2-025K21,1,111,PS,exp,40,↓,right,→,0.6428015001583844,False,10,-1,0,11
Y2-S2-025K21,1,112,PS,exp,44,↑,up,↑,0.43907469999976456,True,11,-1,0,11
Y2-S2-025K21,1,113,PS,exp,44,↓,down,↓,0.6594567000865936,True,11,-1,0,11
Y2-S2-025K21,1,114,PS,exp,26,←,left,←,0.6228789000306278,True,11,1,1,12
Y2-S2-025K21,1,115,PS,exp,44,→,right,→,0.43853070004843175,True,10,1,0,12
Y2-S2-025K21,1,116,PS,exp,39,↓,down,↓,0.44498490006662905,True,10,1,0,12
Y2-S2-025K21,1,117,PS,exp,49,←,left,←,0.3676819000393152,True,10,1,0,12
Y2-S2-025K21,1,118,PS,exp,32,↑,up,↑,0.4903114999178797,True,9,1,0,12
Y2-S2-025K21,1,119,PS,exp,29,↓,down,↓,0.5731705999933183,True,9,1,0,12
Y2-S2-025K21,1,120,PS,exp,42,→,right,→,0.6143512998241931,True,9,1,0,12
Y2-S2-025K21,1,121,PS,exp,33,←,left,←,0.5031413999386132,True,8,1,0,12
Y2-S2-025K21,1,122,PS,exp,45,↓,down,↓,0.6283346000127494,True,8,1,0,12
Y2-S2-025K21,1,123,PS,exp,47,→,left,←,0.4593666000291705,False,8,-1,1,13
Y2-S2-025K21,1,124,PS,exp,28,←,left,←,0.4857991999015212,True,9,-1,0,13
Y2-S2-025K21,1,125,PS,exp,41,→,left,←,0.6574134000111371,False,9,-1,0,13
Y2-S2-025K21,1,126,PS,exp,46,↑,up,↑,0.4477190999314189,True,10,-1,0,13
Y2-S2-025K21,1,127,PS,exp,44,↓,left,←,0.582262400072068,False,10,-1,0,13
Y2-S2-025K21,1,128,PS,exp,32,→,right,→,0.4510300001129508,True,11,-1,0,13
Y2-S2-025K21,1,129,PS,exp,50,↓,down,↓,0.5229327001143247,True,11,-1,0,13
Y2-S2-025K21,1,130,PS,exp,41,↑,up,↑,0.4359709999989718,True,11,1,1,14
Y2-S2-025K21,1,131,PS,exp,41,←,left,←,0.4497191999107599,True,10,1,0,14
Y2-S2-025K21,1,132,PS,exp,35,↑,up,↑,0.42873540008440614,True,10,1,0,14
Y2-S2-025K21,1,133,PS,exp,43,↓,left,←,0.37625900004059076,False,10,-1,1,15
Y2-S2-025K21,1,134,PS,exp,41,→,right,→,0.5390004999935627,True,11,-1,0,15
Y2-S2-025K21,1,135,PS,exp,48,↓,left,←,0.6182690998539329,False,11,-1,0,15
Y2-S2-025K21,1,136,PS,exp,40,←,left,←,0.44889670005068183,True,12,-1,0,15
Y2-S2-025K21,1,137,PS,exp,50,→,right,→,0.37545469985343516,True,12,-1,0,15
Y2-S2-025K21,1,138,PS,exp,49,↓,down,↓,0.7049238001927733,True,12,1,1,16
Y2-S2-025K21,2,139,AS,intra_train,48,↑,up,↑,0.5005648999940604,True,30,-,-,-
Y2-S2-025K21,2,140,AS,intra_train,27,↓,down,↓,0.6778332001995295,True,30,-,-,-
Y2-S2-025K21,2,141,AS,intra_train,29,→,right,→,0.43474470009095967,True,30,-,-,-
Y2-S2-025K21,2,142,AS,intra_train,42,←,left,←,0.9209952999372035,True,30,-,-,-
Y2-S2-025K21,2,143,AS,intra_train,49,↓,down,↓,0.6008552999701351,True,30,-,-,-
Y2-S2-025K21,2,144,AS,exp,47,→,left,←,0.5534942001104355,False,20,-1,0,0
Y2-S2-025K21,2,145,AS,exp,38,↓,down,↓,0.5625577999744564,True,21,-1,0,0
Y2-S2-025K21,2,146,AS,exp,43,→,right,→,0.6160456000361592,True,21,-1,0,0
Y2-S2-025K21,2,147,AS,exp,44,↓,down,↓,0.7215623999945819,True,21,1,1,1
Y2-S2-025K21,2,148,AS,exp,48,↑,up,↑,0.7196027999743819,True,20,1,0,1
Y2-S2-025K21,2,149,AS,exp,30,↓,down,↓,0.7445803000591695,True,20,1,0,1
Y2-S2-025K21,2,150,AS,exp,46,↑,no_key,no_letter,-1.0,False,20,-1,1,2
Y2-S2-025K21,2,151,AS,exp,50,↓,down,↓,0.7450023998972028,True,21,-1,0,2
Y2-S2-025K21,2,152,AS,exp,33,↑,up,↑,0.9024140001274645,True,21,-1,0,2
Y2-S2-025K21,2,153,AS,exp,32,→,right,→,0.6659307000227273,True,21,1,1,3
Y2-S2-025K21,2,154,AS,exp,25,↓,down,↓,0.7034764001145959,True,20,1,0,3
Y2-S2-025K21,2,155,AS,exp,45,←,no_key,no_letter,-1.0,False,20,-1,1,4
Y2-S2-025K21,2,156,AS,exp,33,↑,up,↑,1.0324450000189245,True,21,-1,0,4
Y2-S2-025K21,2,157,AS,exp,39,→,right,→,0.4678128999657929,True,21,-1,0,4
Y2-S2-025K21,2,158,AS,exp,36,↓,down,↓,0.6035191998817027,True,21,1,1,5
Y2-S2-025K21,2,159,AS,exp,50,→,right,→,0.6792201998177916,True,20,1,0,5
Y2-S2-025K21,2,160,AS,exp,48,←,left,←,0.4336977999191731,True,20,1,0,5
Y2-S2-025K21,2,161,AS,exp,45,→,right,→,0.4170985999517143,True,20,1,0,5
Y2-S2-025K21,2,162,AS,exp,34,↑,up,↑,0.7358101999852806,True,19,1,0,5
Y2-S2-025K21,2,163,AS,exp,28,→,right,→,0.6903125999961048,True,19,1,0,5
Y2-S2-025K21,2,164,AS,exp,33,↓,down,↓,0.6408623000606894,True,19,1,0,5
Y2-S2-025K21,2,165,AS,exp,44,→,right,→,0.6044421999249607,True,18,1,0,5
Y2-S2-025K21,2,166,AS,exp,38,↓,down,↓,0.695363000035286,True,18,1,0,5
Y2-S2-025K21,2,167,AS,exp,47,↑,up,↑,0.4848392999265343,True,18,1,0,5
Y2-S2-025K21,2,168,AS,exp,44,↓,right,→,0.8450073001440614,False,17,-1,1,6
Y2-S2-025K21,2,169,AS,exp,28,←,left,←,0.5545880999416113,True,18,-1,0,6
Y2-S2-025K21,2,170,AS,exp,47,↑,up,↑,1.031498699914664,True,18,-1,0,6
Y2-S2-025K21,2,171,AS,exp,25,←,left,←,0.8205494999419898,True,18,1,1,7
Y2-S2-025K21,2,172,AS,exp,29,↑,up,↑,0.8666250999085605,True,17,1,0,7
Y2-S2-025K21,2,173,AS,exp,31,↓,down,↓,0.662076799897477,True,17,1,0,7
Y2-S2-025K21,2,174,AS,exp,42,→,right,→,0.5721277000848204,True,17,1,0,7
Y2-S2-025K21,2,175,AS,exp,40,↓,down,↓,0.7055766999255866,True,16,1,0,7
Y2-S2-025K21,2,176,AS,exp,47,↑,up,↑,0.4637435001786798,True,16,1,0,7
Y2-S2-025K21,2,177,AS,exp,30,↓,down,↓,0.7506583000067621,True,16,1,0,7
Y2-S2-025K21,2,178,AS,exp,42,→,right,→,0.38425580016337335,True,15,1,0,7
Y2-S2-025K21,2,179,AS,exp,33,↓,down,↓,0.4958393000997603,True,15,1,0,7
Y2-S2-025K21,2,180,AS,exp,39,↑,up,↑,0.3672746999654919,True,15,1,0,7
Y2-S2-025K21,2,181,AS,exp,27,↓,down,↓,0.515148000093177,True,14,1,0,7
Y2-S2-025K21,2,182,AS,exp,33,→,left,←,0.6914437999948859,False,14,-1,1,8
Y2-S2-025K21,2,183,AS,exp,40,←,left,←,0.6155753000639379,True,15,-1,0,8
Y2-S2-025K21,2,184,AS,exp,30,↓,down,↓,0.44033359992317855,True,15,-1,0,8
Y2-S2-025K21,2,185,AS,exp,25,←,right,→,0.5042755000758916,False,15,-1,0,8
Y2-S2-025K21,2,186,AS,exp,36,↑,up,↑,0.6992851002141833,True,16,-1,0,8
Y2-S2-025K21,2,187,AS,exp,33,→,no_key,no_letter,-1.0,False,16,-1,0,8
Y2-S2-025K21,2,188,AS,exp,29,←,left,←,0.4177590999752283,True,17,-1,0,8
Y2-S2-025K21,2,189,AS,exp,47,↑,up,↑,0.7440861999057233,True,17,-1,0,8
Y2-S2-025K21,2,190,AS,exp,27,↓,down,↓,0.7429422000423074,True,17,1,1,9
Y2-S2-025K21,2,191,AS,exp,46,↑,no_key,no_letter,-1.0,False,16,-1,1,10
Y2-S2-025K21,2,192,AS,exp,45,→,right,→,0.6935906999278814,True,17,-1,0,10
Y2-S2-025K21,2,193,AS,exp,44,↑,up,↑,0.5654875000473112,True,17,-1,0,10
Y2-S2-025K21,2,194,AS,exp,25,→,right,→,0.6095803999342024,True,17,1,1,11
Y2-S2-025K21,2,195,AS,exp,25,←,left,←,0.6186931000556797,True,16,1,0,11
Y2-S2-025K21,2,196,AS,exp,27,↑,up,↑,0.5964236001018435,True,16,1,0,11
Y2-S2-025K21,2,197,AS,exp,26,→,right,→,0.7227346999570727,True,16,1,0,11
Y2-S2-025K21,2,198,AS,exp,33,↓,down,↓,0.4884437001310289,True,15,1,0,11
Y2-S2-025K21,2,199,AS,exp,50,→,right,→,0.60728619992733,True,15,1,0,11
Y2-S2-025K21,2,200,AS,exp,50,↑,up,↑,0.5025523998774588,True,15,1,0,11
Y2-S2-025K21,2,201,AS,exp,41,↓,down,↓,0.7173739999998361,True,14,1,0,11
Y2-S2-025K21,2,202,AS,exp,46,↑,up,↑,0.8980595001485199,True,14,1,0,11
Y2-S2-025K21,2,203,AS,exp,34,→,right,→,0.6380076999776065,True,14,1,0,11
Y2-S2-025K21,2,204,AS,exp,26,↓,down,↓,0.6000073000323027,True,13,1,0,11
Y2-S2-025K21,2,205,AS,exp,31,←,left,←,0.48984359996393323,True,13,1,0,11
Y2-S2-025K21,2,206,AS,exp,29,↓,down,↓,0.5666317001450807,True,13,1,0,11
Y2-S2-025K21,2,207,AS,exp,26,→,right,→,0.47991120000369847,True,12,1,0,11
Y2-S2-025K21,2,208,AS,exp,26,↓,down,↓,0.528876299969852,True,12,1,0,11
Y2-S2-025K21,2,209,AS,exp,39,↑,up,↑,0.6546522001735866,True,12,1,0,11
Y2-S2-025K21,2,210,AS,exp,35,←,left,←,0.5228782000485808,True,11,1,0,11
Y2-S2-025K21,2,211,AS,exp,45,→,right,→,0.42230529990047216,True,11,1,0,11
Y2-S2-025K21,2,212,AS,exp,27,↑,up,↑,0.4759364000055939,True,11,1,0,11
Y2-S2-025K21,2,213,AS,exp,47,→,right,→,0.42937459982931614,True,10,1,0,11
Y2-S2-025K21,2,214,AS,exp,32,←,left,←,0.6368384000379592,True,10,1,0,11
Y2-S2-025K21,2,215,AS,exp,33,↑,up,↑,0.6595526000019163,True,10,1,0,11
Y2-S2-025K21,2,216,AS,exp,26,↓,right,→,0.7820824000518769,False,9,-1,1,12
Y2-S2-025K21,2,217,AS,exp,30,→,left,←,0.5225262001622468,False,10,-1,0,12
Y2-S2-025K21,2,218,AS,exp,28,↑,down,↓,1.1163719999603927,False,11,-1,0,12
Y2-S2-025K21,2,219,AS,exp,33,←,left,←,0.8217791998758912,True,12,-1,0,12
Y2-S2-025K21,2,220,AS,exp,32,↓,left,←,0.8830344998277724,False,12,-1,0,12
Y2-S2-025K21,2,221,AS,exp,35,→,right,→,0.6714125000871718,True,13,-1,0,12
Y2-S2-025K21,2,222,AS,exp,39,↑,up,↑,1.0879371999762952,True,13,-1,0,12
Y2-S2-025K21,2,223,AS,exp,40,→,left,←,0.8754323001485318,False,13,-1,0,12
Y2-S2-025K21,2,224,AS,exp,29,↑,up,↑,0.8655073998961598,True,14,-1,0,12
Y2-S2-025K21,2,225,AS,exp,50,↓,down,↓,0.5654958998784423,True,14,-1,0,12
Y2-S2-025K21,2,226,AS,exp,43,↑,up,↑,1.7671569001395255,True,14,1,1,13
Y2-S2-025K21,2,227,AS,exp,37,→,right,→,0.6683873001020402,True,13,1,0,13
Y2-S2-025K21,2,228,AS,exp,46,←,left,←,0.8513905999716371,True,13,1,0,13
Y2-S2-025K21,2,229,AS,exp,48,↓,down,↓,0.49428300000727177,True,13,1,0,13
Y2-S2-025K21,2,230,AS,exp,35,↑,right,→,0.8352781999856234,False,12,-1,1,14
Y2-S2-025K21,2,231,AS,exp,31,←,left,←,0.6245204000733793,True,13,-1,0,14
Y2-S2-025K21,2,232,AS,exp,45,→,right,→,0.5664268000982702,True,13,-1,0,14
Y2-S2-025K21,2,233,AS,exp,42,←,left,←,0.6313955998048186,True,13,1,1,15
Y2-S2-025K21,2,234,AS,exp,25,↓,down,↓,1.0022891999688,True,12,1,0,15
Y2-S2-025K21,2,235,AS,exp,45,←,left,←,0.6128273999784142,True,12,1,0,15
Y2-S2-025K21,2,236,AS,exp,47,→,right,→,0.6883447000291198,True,12,1,0,15
Y2-S2-025K21,2,237,AS,exp,26,←,left,←,0.7435117999557406,True,11,1,0,15
Y2-S2-025K21,2,238,AS,exp,44,→,right,→,0.5296382999513298,True,11,1,0,15
Y2-S2-025K21,2,239,AS,exp,46,←,left,←,0.9181515998207033,True,11,1,0,15
Y2-S2-025K21,2,240,AS,exp,35,→,right,→,0.7540795998647809,True,10,1,0,15
Y2-S2-025K21,2,241,AS,exp,36,↓,up,↑,1.5782550000585616,False,10,-1,1,16
Y2-S2-025K21,3,242,AS,intra_train,29,↑,up,↑,1.2942981000524014,True,30,-,-,-
Y2-S2-025K21,3,243,AS,intra_train,27,→,right,→,0.5339450999163091,True,30,-,-,-
Y2-S2-025K21,3,244,AS,intra_train,46,←,left,←,0.6171790000516921,True,30,-,-,-
Y2-S2-025K21,3,245,AS,intra_train,26,↑,up,↑,0.8235814999789,True,30,-,-,-
Y2-S2-025K21,3,246,AS,intra_train,47,↓,down,↓,0.6799465001095086,True,30,-,-,-
Y2-S2-025K21,3,247,AS,exp,37,→,right,→,0.8851592999417335,True,20,0,0,0
Y2-S2-025K21,3,248,AS,exp,30,←,left,←,0.5199446000624448,True,20,0,0,0
Y2-S2-025K21,3,249,AS,exp,39,↑,up,↑,0.9617663999088109,True,20,1,0,0
Y2-S2-025K21,3,250,AS,exp,28,←,left,←,0.6597577999345958,True,19,1,0,0
Y2-S2-025K21,3,251,AS,exp,25,↓,down,↓,1.8261440000496805,True,19,1,0,0
Y2-S2-025K21,3,252,AS,exp,44,←,left,←,0.6870633999351412,True,19,1,0,0
Y2-S2-025K21,3,253,AS,exp,28,→,left,←,0.6114686001092196,False,18,-1,1,1
Y2-S2-025K21,3,254,AS,exp,30,←,right,→,0.7986661000177264,False,19,-1,0,1
Y2-S2-025K21,3,255,AS,exp,43,↓,down,↓,0.7870050999335945,True,20,-1,0,1
Y2-S2-025K21,3,256,AS,exp,39,↑,up,↑,0.9730281999800354,True,20,-1,0,1
Y2-S2-025K21,3,257,AS,exp,39,↓,down,↓,0.5838578999973834,True,20,1,1,2
Y2-S2-025K21,3,258,AS,exp,25,↑,up,↑,0.8985655999276787,True,19,1,0,2
Y2-S2-025K21,3,259,AS,exp,37,↓,down,↓,0.608523900154978,True,19,1,0,2
Y2-S2-025K21,3,260,AS,exp,29,←,left,←,0.5251738000661135,True,19,1,0,2
Y2-S2-025K21,3,261,AS,exp,47,↓,down,↓,1.0087220999412239,True,18,1,0,2
Y2-S2-025K21,3,262,AS,exp,26,←,left,←,1.530334800016135,True,18,1,0,2
Y2-S2-025K21,3,263,AS,exp,37,↓,down,↓,0.6598366000689566,True,18,1,0,2
Y2-S2-025K21,3,264,AS,exp,42,←,left,←,0.5131583001930267,True,17,1,0,2
Y2-S2-025K21,3,265,AS,exp,31,↑,up,↑,0.8325180001556873,True,17,1,0,2
Y2-S2-025K21,3,266,AS,exp,43,↓,down,↓,0.46086120000109076,True,17,1,0,2
Y2-S2-025K21,3,267,AS,exp,29,→,right,→,1.0087407999671996,True,16,1,0,2
Y2-S2-025K21,3,268,AS,exp,47,←,left,←,0.5155553000513464,True,16,1,0,2
Y2-S2-025K21,3,269,AS,exp,39,↓,down,↓,0.6287060999311507,True,16,1,0,2
Y2-S2-025K21,3,270,AS,exp,25,↑,up,↑,1.0075527001172304,True,15,1,0,2
Y2-S2-025K21,3,271,AS,exp,32,↓,down,↓,0.7919157000724226,True,15,1,0,2
Y2-S2-025K21,3,272,AS,exp,27,←,left,←,0.48420599987730384,True,15,1,0,2
Y2-S2-025K21,3,273,AS,exp,36,→,right,→,0.5744578000158072,True,14,1,0,2
Y2-S2-025K21,3,274,AS,exp,43,←,left,←,0.5074158001225442,True,14,1,0,2
Y2-S2-025K21,3,275,AS,exp,34,↑,up,↑,0.8619051000569016,True,14,1,0,2
Y2-S2-025K21,3,276,AS,exp,39,→,left,←,0.7093864001799375,False,13,-1,1,3
Y2-S2-025K21,3,277,AS,exp,34,↓,down,↓,0.7959113002289087,True,14,-1,0,3
Y2-S2-025K21,3,278,AS,exp,34,→,right,→,0.7486761000473052,True,14,-1,0,3
Y2-S2-025K21,3,279,AS,exp,40,←,right,→,0.6101372998673469,False,14,-1,0,3
Y2-S2-025K21,3,280,AS,exp,50,↑,up,↑,0.7520642001181841,True,15,-1,0,3
Y2-S2-025K21,3,281,AS,exp,40,←,left,←,0.5602549000177532,True,15,-1,0,3
Y2-S2-025K21,3,282,AS,exp,25,↓,down,↓,0.49482430005446076,True,15,1,1,4
Y2-S2-025K21,3,283,AS,exp,45,↑,left,←,0.6890509000513703,False,14,-1,1,5
Y2-S2-025K21,3,284,AS,exp,40,←,right,→,0.5903402001131326,False,15,-1,0,5
Y2-S2-025K21,3,285,AS,exp,42,↑,up,↑,0.9177643000148237,True,16,-1,0,5
Y2-S2-025K21,3,286,AS,exp,32,→,right,→,0.49806710006669164,True,16,-1,0,5
Y2-S2-025K21,3,287,AS,exp,31,↑,up,↑,0.8153060001786798,True,16,1,1,6
Y2-S2-025K21,3,288,AS,exp,37,↓,down,↓,0.6877452000044286,True,15,1,0,6
Y2-S2-025K21,3,289,AS,exp,27,←,left,←,1.0174042999278754,True,15,1,0,6
Y2-S2-025K21,3,290,AS,exp,29,→,right,→,0.9738160998094827,True,15,1,0,6
Y2-S2-025K21,3,291,AS,exp,44,↓,down,↓,0.5923806999344379,True,14,1,0,6
Y2-S2-025K21,3,292,AS,exp,43,↑,up,↑,0.8298557000234723,True,14,1,0,6
Y2-S2-025K21,3,293,AS,exp,43,↓,down,↓,0.6563162999227643,True,14,1,0,6
Y2-S2-025K21,3,294,AS,exp,33,→,left,←,0.6122743000742048,False,13,-1,1,7
Y2-S2-025K21,3,295,AS,exp,29,↓,down,↓,0.6624836998526007,True,14,-1,0,7
Y2-S2-025K21,3,296,AS,exp,29,↑,down,↓,0.7080806000158191,False,14,-1,0,7
Y2-S2-025K21,3,297,AS,exp,49,←,right,→,0.4958738998975605,False,15,-1,0,7
Y2-S2-025K21,3,298,AS,exp,28,→,left,←,0.902164600091055,False,16,-1,0,7
Y2-S2-025K21,3,299,AS,exp,49,↓,down,↓,0.4948126000817865,True,17,-1,0,7
Y2-S2-025K21,3,300,AS,exp,25,←,left,←,0.736110599944368,True,17,-1,0,7
Y2-S2-025K21,3,301,AS,exp,25,→,right,→,0.4172400999814272,True,17,1,1,8
Y2-S2-025K21,3,302,AS,exp,28,↑,down,↓,0.6588188000023365,False,16,-1,1,9
Y2-S2-025K21,3,303,AS,exp,45,→,right,→,0.4006960999686271,True,17,-1,0,9
Y2-S2-025K21,3,304,AS,exp,45,←,left,←,0.5926856000442058,True,17,-1,0,9
Y2-S2-025K21,3,305,AS,exp,30,→,right,→,0.4173842999152839,True,17,1,1,10
Y2-S2-025K21,3,306,AS,exp,44,←,left,←,0.6018645998556167,True,16,1,0,10
Y2-S2-025K21,3,307,AS,exp,36,→,right,→,0.4488816000521183,True,16,1,0,10
Y2-S2-025K21,3,308,AS,exp,37,↓,down,↓,0.8508361999411136,True,16,1,0,10
Y2-S2-025K21,3,309,AS,exp,47,↑,up,↑,0.6239038999192417,True,15,1,0,10
Y2-S2-025K21,3,310,AS,exp,28,→,right,→,1.0551553000696003,True,15,1,0,10
Y2-S2-025K21,3,311,AS,exp,42,↓,down,↓,0.7383956999983639,True,15,1,0,10
Y2-S2-025K21,3,312,AS,exp,45,←,left,←,0.47749079996719956,True,14,1,0,10
Y2-S2-025K21,3,313,AS,exp,27,→,left,←,0.46831530006602407,False,14,-1,1,11
Y2-S2-025K21,3,314,AS,exp,32,←,left,←,0.4763677001465112,True,15,-1,0,11
Y2-S2-025K21,3,315,AS,exp,33,→,right,→,0.6732640999834985,True,15,-1,0,11
Y2-S2-025K21,3,316,AS,exp,33,↑,up,↑,1.377485599834472,True,15,1,1,12
Y2-S2-025K21,3,317,AS,exp,49,←,left,←,0.48236569995060563,True,14,1,0,12
Y2-S2-025K21,3,318,AS,exp,46,↓,down,↓,0.5451046000234783,True,14,1,0,12
Y2-S2-025K21,3,319,AS,exp,40,→,right,→,0.48241990013048053,True,14,1,0,12
Y2-S2-025K21,3,320,AS,exp,26,↓,down,↓,0.8511322000995278,True,13,1,0,12
Y2-S2-025K21,3,321,AS,exp,45,↑,up,↑,0.7755000998731703,True,13,1,0,12
Y2-S2-025K21,3,322,AS,exp,30,↓,down,↓,0.4888742999173701,True,13,1,0,12
Y2-S2-025K21,3,323,AS,exp,30,→,down,↓,0.6055265001486987,False,12,-1,1,13
Y2-S2-025K21,3,324,AS,exp,47,↓,up,↑,0.9038728999439627,False,13,-1,0,13
Y2-S2-025K21,3,325,AS,exp,31,←,left,←,0.6942108999937773,True,14,-1,0,13
Y2-S2-025K21,3,326,AS,exp,48,↑,up,↑,0.9467043001204729,True,14,-1,0,13
Y2-S2-025K21,3,327,AS,exp,29,←,left,←,0.666432699887082,True,14,1,1,14
Y2-S2-025K21,3,328,AS,exp,42,→,right,→,0.5149473000783473,True,13,1,0,14
Y2-S2-025K21,3,329,AS,exp,28,↑,up,↑,1.7008201000280678,True,13,1,0,14
Y2-S2-025K21,3,330,AS,exp,46,←,left,←,0.5484593000728637,True,13,1,0,14
Y2-S2-025K21,3,331,AS,exp,44,↓,up,↑,1.5663796998560429,False,12,-1,1,15
Y2-S2-025K21,3,332,AS,exp,37,←,down,↓,0.9241931999567896,False,13,-1,0,15
Y2-S2-025K21,3,333,AS,exp,26,↑,down,↓,0.7741247001104057,False,14,-1,0,15
Y2-S2-025K21,3,334,AS,exp,25,↓,down,↓,0.7289148999843746,True,15,-1,0,15
Y2-S2-025K21,3,335,AS,exp,33,↑,down,↓,0.8034359999001026,False,15,-1,0,15
Y2-S2-025K21,3,336,AS,exp,42,↓,down,↓,0.8390253998804837,True,16,-1,0,15
Y2-S2-025K21,3,337,AS,exp,32,↑,right,→,0.9089040998369455,False,16,-1,0,15
Y2-S2-025K21,3,338,AS,exp,36,↓,down,↓,0.6685299000237137,True,17,-1,0,15
Y2-S2-025K21,3,339,AS,exp,43,→,right,→,0.6965113000478595,True,17,-1,0,15
Y2-S2-025K21,3,340,AS,exp,48,↑,up,↑,1.141901500057429,True,17,1,1,16
Y2-S2-025K21,4,341,PS,intra_train,34,→,right,→,0.8233515999745578,True,15,-,-,-
Y2-S2-025K21,4,342,PS,intra_train,30,↓,down,↓,0.6648015999235213,True,15,-,-,-
Y2-S2-025K21,4,343,PS,intra_train,28,→,right,→,0.5574718001298606,True,15,-,-,-
Y2-S2-025K21,4,344,PS,intra_train,26,←,left,←,0.4894735999405384,True,15,-,-,-
Y2-S2-025K21,4,345,PS,intra_train,43,↑,up,↑,0.9574139001779258,True,15,-,-,-
Y2-S2-025K21,4,346,PS,exp,32,↓,down,↓,0.5796514998655766,True,10,0,0,0
Y2-S2-025K21,4,347,PS,exp,31,↑,right,→,0.7311793998815119,False,10,-1,0,0
Y2-S2-025K21,4,348,PS,exp,35,←,left,←,0.6537391000892967,True,11,-1,0,0
Y2-S2-025K21,4,349,PS,exp,44,↑,up,↑,0.799210499972105,True,11,-1,0,0
Y2-S2-025K21,4,350,PS,exp,33,↓,down,↓,0.5253075000364333,True,11,1,1,1
Y2-S2-025K21,4,351,PS,exp,27,↑,down,↓,0.5658892998471856,False,10,-1,1,2
Y2-S2-025K21,4,352,PS,exp,46,←,left,←,0.6455630001146346,True,11,-1,0,2
Y2-S2-025K21,4,353,PS,exp,31,↓,down,↓,0.5434725000523031,True,11,-1,0,2
Y2-S2-025K21,4,354,PS,exp,50,↑,left,←,0.9941746001131833,False,11,-1,0,2
Y2-S2-025K21,4,355,PS,exp,45,→,right,→,0.47002899996005,True,12,-1,0,2
Y2-S2-025K21,4,356,PS,exp,27,↓,down,↓,0.5173965999856591,True,12,-1,0,2
Y2-S2-025K21,4,357,PS,exp,28,↑,up,↑,0.783615600084886,True,12,1,1,3
Y2-S2-025K21,4,358,PS,exp,32,→,left,←,0.7733661998063326,False,11,-1,1,4
Y2-S2-025K21,4,359,PS,exp,36,↑,up,↑,1.2399397999979556,True,12,-1,0,4
Y2-S2-025K21,4,360,PS,exp,34,→,right,→,0.4576218998990953,True,12,-1,0,4
Y2-S2-025K21,4,361,PS,exp,34,↓,down,↓,0.8647523000836372,True,12,1,1,5
Y2-S2-025K21,4,362,PS,exp,44,↑,up,↑,0.9592604001518339,True,11,1,0,5
Y2-S2-025K21,4,363,PS,exp,29,↓,down,↓,0.6573657998815179,True,11,1,0,5
Y2-S2-025K21,4,364,PS,exp,31,→,left,←,0.5446309000253677,False,11,-1,1,6
Y2-S2-025K21,4,365,PS,exp,38,↓,down,↓,0.8712325999513268,True,12,-1,0,6
Y2-S2-025K21,4,366,PS,exp,38,→,left,←,0.68960090004839,False,12,-1,0,6
Y2-S2-025K21,4,367,PS,exp,50,↑,left,←,1.1030640001408756,False,13,-1,0,6
Y2-S2-025K21,4,368,PS,exp,27,↓,down,↓,1.0880459998734295,True,14,-1,0,6
Y2-S2-025K21,4,369,PS,exp,31,→,right,→,0.7134044000413269,True,14,-1,0,6
Y2-S2-025K21,4,370,PS,exp,35,↓,down,↓,0.6267754998989403,True,14,1,1,7
Y2-S2-025K21,4,371,PS,exp,34,↑,left,←,0.8568563999142498,False,13,-1,1,8
Y2-S2-025K21,4,372,PS,exp,48,↓,right,→,0.548640999943018,False,14,-1,0,8
Y2-S2-025K21,4,373,PS,exp,35,↑,up,↑,0.9888179001864046,True,15,-1,0,8
Y2-S2-025K21,4,374,PS,exp,40,←,left,←,0.6037538000382483,True,15,-1,0,8
Y2-S2-025K21,4,375,PS,exp,34,→,right,→,1.015071399975568,True,15,1,1,9
Y2-S2-025K21,4,376,PS,exp,35,←,left,←,0.6184410999994725,True,14,1,0,9
Y2-S2-025K21,4,377,PS,exp,32,→,right,→,0.4132171000819653,True,14,1,0,9
Y2-S2-025K21,4,378,PS,exp,44,↓,down,↓,0.8532285001128912,True,14,1,0,9
Y2-S2-025K21,4,379,PS,exp,46,→,right,→,0.5047097001224756,True,13,1,0,9
Y2-S2-025K21,4,380,PS,exp,26,←,left,←,0.6915496999863535,True,13,1,0,9
Y2-S2-025K21,4,381,PS,exp,28,↓,left,←,0.7957859998568892,False,13,-1,1,10
Y2-S2-025K21,4,382,PS,exp,30,↑,right,→,0.9235312000382692,False,14,-1,0,10
Y2-S2-025K21,4,383,PS,exp,27,←,right,→,0.6782144999597222,False,15,-1,0,10
Y2-S2-025K21,4,384,PS,exp,38,→,right,→,0.44529850012622774,True,16,-1,0,10
Y2-S2-025K21,4,385,PS,exp,42,←,left,←,1.0052944000344723,True,16,-1,0,10
Y2-S2-025K21,4,386,PS,exp,49,↓,left,←,0.7368071998935193,False,16,-1,0,10
Y2-S2-025K21,4,387,PS,exp,29,→,right,→,0.9080299998167902,True,17,-1,0,10
Y2-S2-025K21,4,388,PS,exp,27,↓,down,↓,0.9426604998297989,True,17,-1,0,10
Y2-S2-025K21,4,389,PS,exp,34,→,left,←,0.7361365999095142,False,17,-1,0,10
Y2-S2-025K21,4,390,PS,exp,44,↓,right,→,0.5910638000350446,False,18,-1,0,10
Y2-S2-025K21,4,391,PS,exp,49,←,left,←,0.5157731000799686,True,19,-1,0,10
Y2-S2-025K21,4,392,PS,exp,34,↓,down,↓,0.7613291000016034,True,19,-1,0,10
Y2-S2-025K21,4,393,PS,exp,44,→,right,→,0.5206484999507666,True,19,1,1,11
Y2-S2-025K21,4,394,PS,exp,39,↓,right,→,0.7229137998074293,False,18,-1,1,12
Y2-S2-025K21,4,395,PS,exp,25,→,right,→,0.5201534000225365,True,19,-1,0,12
Y2-S2-025K21,4,396,PS,exp,48,↑,up,↑,1.0045548998750746,True,19,-1,0,12
Y2-S2-025K21,4,397,PS,exp,38,→,right,→,0.5773375001735985,True,19,1,1,13
Y2-S2-025K21,4,398,PS,exp,37,←,left,←,1.3952309000305831,True,18,1,0,13
Y2-S2-025K21,4,399,PS,exp,50,↓,down,↓,0.7093148999847472,True,18,1,0,13
Y2-S2-025K21,4,400,PS,exp,27,↑,down,↓,0.8731076999101788,False,18,-1,1,14
Y2-S2-025K21,4,401,PS,exp,39,←,left,←,0.8652254000771791,True,19,-1,0,14
Y2-S2-025K21,4,402,PS,exp,45,↑,right,→,1.1951218000613153,False,19,-1,0,14
Y2-S2-025K21,4,403,PS,exp,50,←,left,←,0.6159377999138087,True,20,-1,0,14
Y2-S2-025K21,4,404,PS,exp,45,→,right,→,0.4509229001123458,True,20,-1,0,14
Y2-S2-025K21,4,405,PS,exp,45,←,right,→,0.45053049991838634,False,20,-1,0,14
Y2-S2-025K21,4,406,PS,exp,42,↓,down,↓,0.6545656998641789,True,21,-1,0,14
Y2-S2-025K21,4,407,PS,exp,47,←,left,←,0.7209638999775052,True,21,-1,0,14
Y2-S2-025K21,4,408,PS,exp,41,→,right,→,0.46727539994753897,True,21,1,1,15
Y2-S2-025K21,4,409,PS,exp,25,←,left,←,0.6650751000270247,True,20,1,0,15
Y2-S2-025K21,4,410,PS,exp,33,↓,down,↓,0.6231829999014735,True,20,1,0,15
Y2-S2-025K21,4,411,PS,exp,28,↑,down,↓,0.5862275001127273,False,20,-1,1,16
Y2-S2-025K21,5,412,PS,intra_train,48,↓,down,↓,0.5897140000015497,True,15,-,-,-
Y2-S2-025K21,5,413,PS,intra_train,29,←,left,←,0.5178567001130432,True,15,-,-,-
Y2-S2-025K21,5,414,PS,intra_train,38,→,right,→,0.6689867000095546,True,15,-,-,-
Y2-S2-025K21,5,415,PS,intra_train,38,↓,down,↓,0.6303758001886308,True,15,-,-,-
Y2-S2-025K21,5,416,PS,intra_train,29,→,right,→,0.7920747001189739,True,15,-,-,-
Y2-S2-025K21,5,417,PS,exp,29,↑,right,→,0.4759396000299603,False,10,-1,0,0
Y2-S2-025K21,5,418,PS,exp,40,→,left,←,0.9272133000195026,False,11,-1,0,0
Y2-S2-025K21,5,419,PS,exp,37,←,left,←,0.7180652001406997,True,12,-1,0,0
Y2-S2-025K21,5,420,PS,exp,40,↓,down,↓,0.5671230000443757,True,12,-1,0,0
Y2-S2-025K21,5,421,PS,exp,25,←,right,→,0.6874945999588817,False,12,-1,0,0
Y2-S2-025K21,5,422,PS,exp,45,↓,down,↓,0.6174584999680519,True,13,-1,0,0
Y2-S2-025K21,5,423,PS,exp,47,→,right,→,0.46153879980556667,True,13,-1,0,0
Y2-S2-025K21,5,424,PS,exp,28,←,left,←,0.4883836000226438,True,13,1,1,1
Y2-S2-025K21,5,425,PS,exp,28,→,right,→,0.6796942998189479,True,12,1,0,1
Y2-S2-025K21,5,426,PS,exp,27,↓,down,↓,0.6188845001161098,True,12,1,0,1
Y2-S2-025K21,5,427,PS,exp,42,←,left,←,0.6097415999975055,True,12,1,0,1
Y2-S2-025K21,5,428,PS,exp,47,→,right,→,0.39163889992050827,True,11,1,0,1
Y2-S2-025K21,5,429,PS,exp,25,←,left,←,0.5766115000005811,True,11,1,0,1
Y2-S2-025K21,5,430,PS,exp,28,→,right,→,0.6284855001140386,True,11,1,0,1
Y2-S2-025K21,5,431,PS,exp,43,↑,right,→,0.6090674998704344,False,10,-1,1,2
Y2-S2-025K21,5,432,PS,exp,32,←,left,←,0.7634296000469476,True,11,-1,0,2
Y2-S2-025K21,5,433,PS,exp,28,↑,up,↑,0.8684467999264598,True,11,-1,0,2
Y2-S2-025K21,5,434,PS,exp,28,↓,right,→,0.6533790999092162,False,11,-1,0,2
Y2-S2-025K21,5,435,PS,exp,49,→,right,→,0.6264814999885857,True,12,-1,0,2
Y2-S2-025K21,5,436,PS,exp,28,←,left,←,0.5522236998658627,True,12,-1,0,2
Y2-S2-025K21,5,437,PS,exp,26,↓,right,→,0.6384553001262248,False,12,-1,0,2
Y2-S2-025K21,5,438,PS,exp,31,→,left,←,0.7325468000490218,False,13,-1,0,2
Y2-S2-025K21,5,439,PS,exp,31,←,right,→,0.7277530001010746,False,14,-1,0,2
Y2-S2-025K21,5,440,PS,exp,48,↓,down,↓,0.7220553001388907,True,15,-1,0,2
Y2-S2-025K21,5,441,PS,exp,27,→,right,→,0.44132780004292727,True,15,-1,0,2
Y2-S2-025K21,5,442,PS,exp,43,↑,up,↑,0.7567993002012372,True,15,1,1,3
Y2-S2-025K21,5,443,PS,exp,35,↓,left,←,0.8230222999118268,False,14,-1,1,4
Y2-S2-025K21,5,444,PS,exp,29,→,right,→,0.4416177000384778,True,15,-1,0,4
Y2-S2-025K21,5,445,PS,exp,34,↓,down,↓,0.7365449999924749,True,15,-1,0,4
Y2-S2-025K21,5,446,PS,exp,34,↑,up,↑,1.0150166999083012,True,15,1,1,5
Y2-S2-025K21,5,447,PS,exp,34,↓,down,↓,0.7614537000190467,True,14,1,0,5
Y2-S2-025K21,5,448,PS,exp,43,↑,up,↑,0.9336401999462396,True,14,1,0,5
Y2-S2-025K21,5,449,PS,exp,42,←,left,←,0.4587230000179261,True,14,1,0,5
Y2-S2-025K21,5,450,PS,exp,37,↓,right,→,1.2631705000530928,False,13,-1,1,6
Y2-S2-025K21,5,451,PS,exp,49,←,down,↓,0.7341936000157148,False,14,-1,0,6
Y2-S2-025K21,5,452,PS,exp,40,↓,down,↓,0.6669600000604987,True,15,-1,0,6
Y2-S2-025K21,5,453,PS,exp,48,←,left,←,0.5398568001110107,True,15,-1,0,6
Y2-S2-025K21,5,454,PS,exp,44,→,right,→,0.47133319987915456,True,15,1,1,7
Y2-S2-025K21,5,455,PS,exp,26,←,left,←,0.5590351999271661,True,14,1,0,7
Y2-S2-025K21,5,456,PS,exp,41,↑,up,↑,1.0568587000016123,True,14,1,0,7
Y2-S2-025K21,5,457,PS,exp,43,→,right,→,0.5637696001213044,True,14,1,0,7
Y2-S2-025K21,5,458,PS,exp,46,←,left,←,0.6357841999270022,True,13,1,0,7
Y2-S2-025K21,5,459,PS,exp,43,→,right,→,0.6893330998718739,True,13,1,0,7
Y2-S2-025K21,5,460,PS,exp,40,←,left,←,0.5168645000085235,True,13,1,0,7
Y2-S2-025K21,5,461,PS,exp,37,→,right,→,0.7004893999546766,True,12,1,0,7
Y2-S2-025K21,5,462,PS,exp,31,↑,up,↑,0.9800954998936504,True,12,1,0,7
Y2-S2-025K21,5,463,PS,exp,41,↓,down,↓,0.7014109999872744,True,12,1,0,7
Y2-S2-025K21,5,464,PS,exp,49,←,right,→,0.7774408999830484,False,11,-1,1,8
Y2-S2-025K21,5,465,PS,exp,32,↑,down,↓,1.0468517998233438,False,12,-1,0,8
Y2-S2-025K21,5,466,PS,exp,26,←,left,←,0.7753049999009818,True,13,-1,0,8
Y2-S2-025K21,5,467,PS,exp,36,↑,up,↑,0.8360741001088172,True,13,-1,0,8
Y2-S2-025K21,5,468,PS,exp,50,→,right,→,0.501599800074473,True,13,1,1,9
Y2-S2-025K21,5,469,PS,exp,35,↓,left,←,0.8675428000278771,False,12,-1,1,10
Y2-S2-025K21,5,470,PS,exp,48,←,left,←,0.545578199904412,True,13,-1,0,10
Y2-S2-025K21,5,471,PS,exp,48,↑,up,↑,0.8446843000128865,True,13,-1,0,10
Y2-S2-025K21,5,472,PS,exp,32,→,right,→,0.654005300020799,True,13,1,1,11
Y2-S2-025K21,5,473,PS,exp,33,←,left,←,0.5189145000185817,True,12,1,0,11
Y2-S2-025K21,5,474,PS,exp,35,→,right,→,0.49047620012424886,True,12,1,0,11
Y2-S2-025K21,5,475,PS,exp,29,←,right,→,0.6796850999817252,False,12,-1,1,12
Y2-S2-025K21,5,476,PS,exp,26,↑,up,↑,0.9391303998418152,True,13,-1,0,12
Y2-S2-025K21,5,477,PS,exp,31,→,right,→,0.4957281001843512,True,13,-1,0,12
Y2-S2-025K21,5,478,PS,exp,28,←,left,←,0.817502599908039,True,13,1,1,13
Y2-S2-025K21,5,479,PS,exp,27,↓,down,↓,0.9271997001487762,True,12,1,0,13
Y2-S2-025K21,5,480,PS,exp,43,←,left,←,0.5398237998597324,True,12,1,0,13
Y2-S2-025K21,5,481,PS,exp,34,→,left,←,0.8597458000294864,False,12,-1,1,14
Y2-S2-025K21,5,482,PS,exp,27,←,left,←,0.5276937999296933,True,13,-1,0,14
Y2-S2-025K21,5,483,PS,exp,39,↑,right,→,0.8692737000528723,False,13,-1,0,14
Y2-S2-025K21,5,484,PS,exp,40,→,right,→,0.40652750013396144,True,14,-1,0,14
Y2-S2-025K21,5,485,PS,exp,48,↑,up,↑,0.9542858998756856,True,14,-1,0,14
Y2-S2-025K21,5,486,PS,exp,36,←,left,←,0.7779506999067962,True,14,1,1,15
Y2-S2-025K21,5,487,PS,exp,38,→,right,→,0.4563170000910759,True,13,1,0,15
Y2-S2-025K21,5,488,PS,exp,43,←,left,←,0.47730639996007085,True,13,1,0,15
Y2-S2-025K21,5,489,PS,exp,29,↑,up,↑,0.9791095000691712,True,13,1,0,15
Y2-S2-025K21,5,490,PS,exp,31,→,right,→,0.502483099931851,True,12,1,0,15
Y2-S2-025K21,5,491,PS,exp,33,↓,down,↓,0.9585163998417556,True,12,1,0,15
Y2-S2-025K21,5,492,PS,exp,28,←,left,←,0.7903066000435501,True,12,1,0,15
Y2-S2-025K21,5,493,PS,exp,47,↑,up,↑,0.9242202001623809,True,11,1,0,15
Y2-S2-025K21,5,494,PS,exp,45,→,right,→,0.6845678999088705,True,11,1,0,15
Y2-S2-025K21,5,495,PS,exp,39,↑,right,→,0.4899624998215586,False,11,-1,1,16
Y2-S2-025K21,6,496,AS,intra_train,27,→,right,→,1.1955111999996006,True,30,-,-,-
Y2-S2-025K21,6,497,AS,intra_train,49,←,left,←,0.9478061001282185,True,30,-,-,-
Y2-S2-025K21,6,498,AS,intra_train,26,↓,down,↓,0.761111699976027,True,30,-,-,-
Y2-S2-025K21,6,499,AS,intra_train,42,→,right,→,0.4512267999816686,True,30,-,-,-
Y2-S2-025K21,6,500,AS,intra_train,28,↓,down,↓,0.9017507000826299,True,30,-,-,-
Y2-S2-025K21,6,501,AS,exp,48,→,right,→,0.40074359998106956,True,20,0,0,0
Y2-S2-025K21,6,502,AS,exp,47,←,left,←,0.5139773001428694,True,20,0,0,0
Y2-S2-025K21,6,503,AS,exp,50,↓,down,↓,0.7208322000224143,True,20,1,0,0
Y2-S2-025K21,6,504,AS,exp,39,←,left,←,0.5317704998888075,True,19,1,0,0
Y2-S2-025K21,6,505,AS,exp,39,→,right,→,1.03800980001688,True,19,1,0,0
Y2-S2-025K21,6,506,AS,exp,36,↑,up,↑,1.0165579000022262,True,19,1,0,0
Y2-S2-025K21,6,507,AS,exp,27,↓,down,↓,0.6955874999985099,True,18,1,0,0
Y2-S2-025K21,6,508,AS,exp,30,→,right,→,0.9520686999894679,True,18,1,0,0
Y2-S2-025K21,6,509,AS,exp,48,↓,down,↓,0.6973423999734223,True,18,1,0,0
Y2-S2-025K21,6,510,AS,exp,49,←,left,←,0.7784873000346124,True,17,1,0,0
Y2-S2-025K21,6,511,AS,exp,48,→,left,←,0.7197135998867452,False,17,-1,1,1
Y2-S2-025K21,6,512,AS,exp,40,↓,down,↓,0.5910281999967992,True,18,-1,0,1
Y2-S2-025K21,6,513,AS,exp,32,←,right,→,0.5212179999798536,False,18,-1,0,1
Y2-S2-025K21,6,514,AS,exp,45,→,right,→,0.6926849998999387,True,19,-1,0,1
Y2-S2-025K21,6,515,AS,exp,33,↓,down,↓,1.4376039998605847,True,19,-1,0,1
Y2-S2-025K21,6,516,AS,exp,40,↑,up,↑,1.0664629999082536,True,19,1,1,2
Y2-S2-025K21,6,517,AS,exp,50,↓,down,↓,1.0882335999049246,True,18,1,0,2
Y2-S2-025K21,6,518,AS,exp,50,→,right,→,0.4173747000750154,True,18,1,0,2
Y2-S2-025K21,6,519,AS,exp,35,←,left,←,0.913064300082624,True,18,1,0,2
Y2-S2-025K21,6,520,AS,exp,42,↓,up,↑,1.0957187998574227,False,17,-1,1,3
Y2-S2-025K21,6,521,AS,exp,45,→,right,→,0.6432602000422776,True,18,-1,0,3
Y2-S2-025K21,6,522,AS,exp,28,←,left,←,0.7518432000651956,True,18,-1,0,3
Y2-S2-025K21,6,523,AS,exp,46,↓,down,↓,1.1605219000484794,True,18,1,1,4
Y2-S2-025K21,6,524,AS,exp,33,→,right,→,0.5822341998573393,True,17,1,0,4
Y2-S2-025K21,6,525,AS,exp,43,←,left,←,0.9317173999734223,True,17,1,0,4
Y2-S2-025K21,6,526,AS,exp,34,↑,left,←,0.7721047000959516,False,17,-1,1,5
Y2-S2-025K21,6,527,AS,exp,25,↓,down,↓,1.0361780000384897,True,18,-1,0,5
Y2-S2-025K21,6,528,AS,exp,34,→,right,→,0.4341977001167834,True,18,-1,0,5
Y2-S2-025K21,6,529,AS,exp,42,←,left,←,0.6546429002191871,True,18,1,1,6
Y2-S2-025K21,6,530,AS,exp,50,↓,down,↓,0.8886839000042528,True,17,1,0,6
Y2-S2-025K21,6,531,AS,exp,28,→,right,→,0.48926209984347224,True,17,1,0,6
Y2-S2-025K21,6,532,AS,exp,37,↓,down,↓,1.0112884000409395,True,17,1,0,6
Y2-S2-025K21,6,533,AS,exp,47,→,left,←,0.6925908999983221,False,16,-1,1,7
Y2-S2-025K21,6,534,AS,exp,47,↓,down,↓,1.040800599846989,True,17,-1,0,7
Y2-S2-025K21,6,535,AS,exp,34,←,left,←,0.7777483998797834,True,17,-1,0,7
Y2-S2-025K21,6,536,AS,exp,27,↑,up,↑,1.1692929998971522,True,17,1,1,8
Y2-S2-025K21,6,537,AS,exp,48,↓,down,↓,0.7383016000967473,True,16,1,0,8
Y2-S2-025K21,6,538,AS,exp,26,↑,right,→,0.8168013000395149,False,16,-1,1,9
Y2-S2-025K21,6,539,AS,exp,32,←,left,←,0.6743930999655277,True,17,-1,0,9
Y2-S2-025K21,6,540,AS,exp,25,↓,down,↓,1.1629770998843014,True,17,-1,0,9
Y2-S2-025K21,6,541,AS,exp,37,→,right,→,0.6594094000756741,True,17,1,1,10
Y2-S2-025K21,6,542,AS,exp,25,←,left,←,0.6538658000063151,True,16,1,0,10
Y2-S2-025K21,6,543,AS,exp,37,↓,down,↓,1.0644937998149544,True,16,1,0,10
Y2-S2-025K21,6,544,AS,exp,34,↑,up,↑,0.908084100112319,True,16,1,0,10
Y2-S2-025K21,6,545,AS,exp,37,↓,down,↓,1.241809100145474,True,15,1,0,10
Y2-S2-025K21,6,546,AS,exp,32,↑,up,↑,0.990090100094676,True,15,1,0,10
Y2-S2-025K21,6,547,AS,exp,32,→,right,→,0.6234935999382287,True,15,1,0,10
Y2-S2-025K21,6,548,AS,exp,45,←,right,→,0.9174988998565823,False,14,-1,1,11
Y2-S2-025K21,6,549,AS,exp,47,→,left,←,0.7319825999438763,False,15,-1,0,11
Y2-S2-025K21,6,550,AS,exp,35,↓,up,↑,1.1113185998983681,False,16,-1,0,11
Y2-S2-025K21,6,551,AS,exp,48,↑,up,↑,0.91305400012061,True,17,-1,0,11
Y2-S2-025K21,6,552,AS,exp,39,↓,down,↓,0.8389270000625402,True,17,-1,0,11
Y2-S2-025K21,6,553,AS,exp,43,↑,up,↑,0.8463828999083489,True,17,1,1,12
Y2-S2-025K21,6,554,AS,exp,46,↓,down,↓,0.8979897999670357,True,16,1,0,12
Y2-S2-025K21,6,555,AS,exp,42,↑,down,↓,1.053004499990493,False,16,-1,1,13
Y2-S2-025K21,6,556,AS,exp,26,→,down,↓,0.8136766999959946,False,17,-1,0,13
Y2-S2-025K21,6,557,AS,exp,30,←,left,←,0.6566503001376987,True,18,-1,0,13
Y2-S2-025K21,6,558,AS,exp,31,↓,down,↓,0.802561900112778,True,18,-1,0,13
Y2-S2-025K21,6,559,AS,exp,32,←,left,←,0.7028336999937892,True,18,1,1,14
Y2-S2-025K21,6,560,AS,exp,48,↓,down,↓,0.8526447000913322,True,17,1,0,14
Y2-S2-025K21,6,561,AS,exp,34,←,left,←,0.70985610014759,True,17,1,0,14
Y2-S2-025K21,6,562,AS,exp,49,↓,left,←,0.6625262000598013,False,17,-1,1,15
Y2-S2-025K21,6,563,AS,exp,41,↑,up,↑,0.7265474998857826,True,18,-1,0,15
Y2-S2-025K21,6,564,AS,exp,49,→,right,→,0.6868006999138743,True,18,-1,0,15
Y2-S2-025K21,6,565,AS,exp,35,←,right,→,0.5919421999715269,False,18,-1,0,15
Y2-S2-025K21,6,566,AS,exp,38,→,right,→,0.40059070009738207,True,19,-1,0,15
Y2-S2-025K21,6,567,AS,exp,41,↓,up,↑,0.8983738999813795,False,19,-1,0,15
Y2-S2-025K21,6,568,AS,exp,37,↑,up,↑,0.6568919999990612,True,20,-1,0,15
Y2-S2-025K21,6,569,AS,exp,25,→,right,→,0.5828947999980301,True,20,-1,0,15
Y2-S2-025K21,6,570,AS,exp,34,←,left,←,0.654720300110057,True,20,1,1,16
Y2-S2-025K21,7,571,AS,intra_train,34,→,right,→,0.5341550000011921,True,30,-,-,-
Y2-S2-025K21,7,572,AS,intra_train,40,←,left,←,0.6006821000482887,True,30,-,-,-
Y2-S2-025K21,7,573,AS,intra_train,41,→,right,→,0.40106040006503463,True,30,-,-,-
Y2-S2-025K21,7,574,AS,intra_train,34,↑,up,↑,0.9531112001277506,True,30,-,-,-
Y2-S2-025K21,7,575,AS,intra_train,49,↓,down,↓,1.0380569000262767,True,30,-,-,-
Y2-S2-025K21,7,576,AS,exp,39,←,left,←,0.650399399921298,True,20,0,0,0
Y2-S2-025K21,7,577,AS,exp,36,↓,down,↓,0.7955637001432478,True,20,0,0,0
Y2-S2-025K21,7,578,AS,exp,46,↑,up,↑,1.5252710001077503,True,20,1,0,0
Y2-S2-025K21,7,579,AS,exp,27,→,right,→,0.41712009999901056,True,19,1,0,0
Y2-S2-025K21,7,580,AS,exp,36,←,left,←,0.9462456000037491,True,19,1,0,0
Y2-S2-025K21,7,581,AS,exp,50,↑,up,↑,0.9342370999511331,True,19,1,0,0
Y2-S2-025K21,7,582,AS,exp,30,→,right,→,0.6338717001490295,True,18,1,0,0
Y2-S2-025K21,7,583,AS,exp,41,↓,down,↓,0.9177687000483274,True,18,1,0,0
Y2-S2-025K21,7,584,AS,exp,45,←,left,←,0.7234376999549568,True,18,1,0,0
Y2-S2-025K21,7,585,AS,exp,32,→,right,→,0.937751900171861,True,17,1,0,0
Y2-S2-025K21,7,586,AS,exp,44,↑,up,↑,1.2274095001630485,True,17,1,0,0
Y2-S2-025K21,7,587,AS,exp,27,→,right,→,0.4006014000624418,True,17,1,0,0
Y2-S2-025K21,7,588,AS,exp,28,←,left,←,0.6210678999777883,True,16,1,0,0
Y2-S2-025K21,7,589,AS,exp,49,↓,down,↓,1.3912031000945717,True,16,1,0,0
Y2-S2-025K21,7,590,AS,exp,42,→,right,→,0.5323582999408245,True,16,1,0,0
Y2-S2-025K21,7,591,AS,exp,37,←,left,←,0.8070778998080641,True,15,1,0,0
Y2-S2-025K21,7,592,AS,exp,48,→,right,→,0.42635799990966916,True,15,1,0,0
Y2-S2-025K21,7,593,AS,exp,27,↑,up,↑,1.369906699983403,True,15,1,0,0
Y2-S2-025K21,7,594,AS,exp,46,→,right,→,0.43038569996133447,True,14,1,0,0
Y2-S2-025K21,7,595,AS,exp,38,←,left,←,0.5962796001695096,True,14,1,0,0
Y2-S2-025K21,7,596,AS,exp,30,→,left,←,0.5998543000314385,False,14,-1,1,1
Y2-S2-025K21,7,597,AS,exp,45,←,left,←,0.5496900998987257,True,15,-1,0,1
Y2-S2-025K21,7,598,AS,exp,35,↓,up,↑,1.3414879001211375,False,15,-1,0,1
Y2-S2-025K21,7,599,AS,exp,32,→,right,→,0.9327962999232113,True,16,-1,0,1
Y2-S2-025K21,7,600,AS,exp,47,↓,down,↓,0.9345085001550615,True,16,-1,0,1
Y2-S2-025K21,7,601,AS,exp,48,→,right,→,0.38395479996688664,True,16,1,1,2
Y2-S2-025K21,7,602,AS,exp,29,←,left,←,0.6656446000561118,True,15,1,0,2
Y2-S2-025K21,7,603,AS,exp,50,↑,up,↑,0.9843424998689443,True,15,1,0,2
Y2-S2-025K21,7,604,AS,exp,43,→,right,→,0.3676630000118166,True,15,1,0,2
Y2-S2-025K21,7,605,AS,exp,45,↓,down,↓,0.8932657998520881,True,14,1,0,2
Y2-S2-025K21,7,606,AS,exp,42,→,left,←,0.5888592000119388,False,14,-1,1,3
Y2-S2-025K21,7,607,AS,exp,46,↓,left,←,0.6566679000388831,False,15,-1,0,3
Y2-S2-025K21,7,608,AS,exp,50,→,right,→,0.383824999909848,True,16,-1,0,3
Y2-S2-025K21,7,609,AS,exp,35,←,left,←,0.5989616999868304,True,16,-1,0,3
Y2-S2-025K21,7,610,AS,exp,27,↑,up,↑,0.8682951000519097,True,16,1,1,4
Y2-S2-025K21,7,611,AS,exp,34,↓,down,↓,0.8645886001177132,True,15,1,0,4
Y2-S2-025K21,7,612,AS,exp,31,←,left,←,0.5916337999515235,True,15,1,0,4
Y2-S2-025K21,7,613,AS,exp,50,→,right,→,0.6259399000555277,True,15,1,0,4
Y2-S2-025K21,7,614,AS,exp,48,←,left,←,0.41558980010449886,True,14,1,0,4
Y2-S2-025K21,7,615,AS,exp,39,↓,down,↓,0.8274454998318106,True,14,1,0,4
Y2-S2-025K21,7,616,AS,exp,34,→,right,→,0.641277400078252,True,14,1,0,4
Y2-S2-025K21,7,617,AS,exp,43,↓,down,↓,0.705904700094834,True,13,1,0,4
Y2-S2-025K21,7,618,AS,exp,25,→,right,→,0.5708862000610679,True,13,1,0,4
Y2-S2-025K21,7,619,AS,exp,45,↑,right,→,0.7660439000464976,False,13,-1,1,5
Y2-S2-025K21,7,620,AS,exp,40,→,right,→,0.9014002999756485,True,14,-1,0,5
Y2-S2-025K21,7,621,AS,exp,27,↓,down,↓,0.7943113001529127,True,14,-1,0,5
Y2-S2-025K21,7,622,AS,exp,27,→,right,→,0.7732148000504822,True,14,1,1,6
Y2-S2-025K21,7,623,AS,exp,25,↑,up,↑,0.8930200000759214,True,13,1,0,6
Y2-S2-025K21,7,624,AS,exp,40,→,right,→,0.35069310013204813,True,13,1,0,6
Y2-S2-025K21,7,625,AS,exp,47,←,right,→,0.6162362999748439,False,13,-1,1,7
Y2-S2-025K21,7,626,AS,exp,28,↑,up,↑,0.9048729999922216,True,14,-1,0,7
Y2-S2-025K21,7,627,AS,exp,47,←,left,←,0.7078256001695991,True,14,-1,0,7
Y2-S2-025K21,7,628,AS,exp,26,→,right,→,0.5423177001066506,True,14,1,1,8
Y2-S2-025K21,7,629,AS,exp,31,↑,up,↑,0.8130552999209613,True,13,1,0,8
Y2-S2-025K21,7,630,AS,exp,45,←,left,←,0.5845933998934925,True,13,1,0,8
Y2-S2-025K21,7,631,AS,exp,49,↑,up,↑,0.7746915000025183,True,13,1,0,8
Y2-S2-025K21,7,632,AS,exp,30,←,right,→,0.602683899924159,False,12,-1,1,9
Y2-S2-025K21,7,633,AS,exp,41,↑,up,↑,1.2428800000343472,True,13,-1,0,9
Y2-S2-025K21,7,634,AS,exp,40,→,left,←,0.5713476999662817,False,13,-1,0,9
Y2-S2-025K21,7,635,AS,exp,48,↓,down,↓,0.9140917998738587,True,14,-1,0,9
Y2-S2-025K21,7,636,AS,exp,40,↑,up,↑,1.6498662999365479,True,14,-1,0,9
Y2-S2-025K21,7,637,AS,exp,34,↓,down,↓,0.8266514001879841,True,14,1,1,10
Y2-S2-025K21,7,638,AS,exp,30,↑,up,↑,1.1227438000496477,True,13,1,0,10
Y2-S2-025K21,7,639,AS,exp,43,←,left,←,0.6511774000246078,True,13,1,0,10
Y2-S2-025K21,7,640,AS,exp,30,↓,down,↓,0.7415411998517811,True,13,1,0,10
Y2-S2-025K21,7,641,AS,exp,42,↑,up,↑,0.9560185000300407,True,12,1,0,10
Y2-S2-025K21,7,642,AS,exp,28,→,right,→,0.7434948000591248,True,12,1,0,10
Y2-S2-025K21,7,643,AS,exp,44,↓,down,↓,1.0137289001140743,True,12,1,0,10
Y2-S2-025K21,7,644,AS,exp,41,→,left,←,0.7830938000697643,False,11,-1,1,11
Y2-S2-025K21,7,645,AS,exp,47,↑,up,↑,0.8012971999123693,True,12,-1,0,11
Y2-S2-025K21,7,646,AS,exp,43,→,right,→,0.4242453998886049,True,12,-1,0,11
Y2-S2-025K21,7,647,AS,exp,34,←,left,←,0.5560467999894172,True,12,1,1,12
Y2-S2-025K21,7,648,AS,exp,49,↓,left,←,0.7087373998947442,False,11,-1,1,13
Y2-S2-025K21,7,649,AS,exp,28,→,right,→,0.8210924998857081,True,12,-1,0,13
Y2-S2-025K21,7,650,AS,exp,46,↓,down,↓,1.1794306000228971,True,12,-1,0,13
Y2-S2-025K21,7,651,AS,exp,42,↑,down,↓,0.8258311999961734,False,12,-1,0,13
Y2-S2-025K21,7,652,AS,exp,42,→,right,→,0.6638426000718027,True,13,-1,0,13
Y2-S2-025K21,7,653,AS,exp,39,←,left,←,0.6346636000089347,True,13,-1,0,13
Y2-S2-025K21,7,654,AS,exp,40,↓,down,↓,1.3273533000610769,True,13,1,1,14
Y2-S2-025K21,7,655,AS,exp,37,←,left,←,0.8231961999554187,True,12,1,0,14
Y2-S2-025K21,7,656,AS,exp,45,↓,down,↓,0.9686819000635296,True,12,1,0,14
Y2-S2-025K21,7,657,AS,exp,27,→,right,→,0.46846899995580316,True,12,1,0,14
Y2-S2-025K21,7,658,AS,exp,34,↓,left,←,0.5971772000193596,False,11,-1,1,15
Y2-S2-025K21,7,659,AS,exp,35,→,right,→,0.5916514000855386,True,12,-1,0,15
Y2-S2-025K21,7,660,AS,exp,50,↑,right,→,0.6591791999526322,False,12,-1,0,15
Y2-S2-025K21,7,661,AS,exp,38,←,left,←,0.625741999829188,True,13,-1,0,15
Y2-S2-025K21,7,662,AS,exp,50,→,right,→,0.7611487999092788,True,13,-1,0,15
Y2-S2-025K21,7,663,AS,exp,31,↑,up,↑,1.1666610999964178,True,13,1,1,16
Y2-S2-025K21,8,664,PS,intra_train,35,↓,down,↓,0.8817387998569757,True,15,-,-,-
Y2-S2-025K21,8,665,PS,intra_train,36,←,left,←,0.5562458999920636,True,15,-,-,-
Y2-S2-025K21,8,666,PS,intra_train,50,↓,right,→,0.8983356000389904,False,15,-,-,-
Y2-S2-025K21,8,667,PS,intra_train,50,→,up,↑,1.440089700045064,False,15,-,-,-
Y2-S2-025K21,8,668,PS,intra_train,28,←,right,→,0.5264447000809014,False,15,-,-,-
Y2-S2-025K21,8,669,PS,exp,50,↓,left,←,0.5182062999811023,False,10,-1,0,0
Y2-S2-025K21,8,670,PS,exp,38,↑,left,←,0.7022578001488,False,11,-1,0,0
Y2-S2-025K21,8,671,PS,exp,30,→,right,→,0.43615079997107387,True,12,-1,0,0
Y2-S2-025K21,8,672,PS,exp,37,↑,left,←,0.7266702000051737,False,12,-1,0,0
Y2-S2-025K21,8,673,PS,exp,27,←,left,←,0.4548756000585854,True,13,-1,0,0
Y2-S2-025K21,8,674,PS,exp,31,↓,right,→,0.5636004998814315,False,13,-1,0,0
Y2-S2-025K21,8,675,PS,exp,30,↑,up,↑,0.8436686999630183,True,14,-1,0,0
Y2-S2-025K21,8,676,PS,exp,26,→,right,→,0.4846484998706728,True,14,-1,0,0
Y2-S2-025K21,8,677,PS,exp,39,↑,up,↑,0.8253870001062751,True,14,1,1,1
Y2-S2-025K21,8,678,PS,exp,31,←,left,←,0.5539931000676006,True,13,1,0,1
Y2-S2-025K21,8,679,PS,exp,40,↓,down,↓,0.8194900997914374,True,13,1,0,1
Y2-S2-025K21,8,680,PS,exp,31,↑,up,↑,0.8935716999694705,True,13,1,0,1
Y2-S2-025K21,8,681,PS,exp,40,↓,down,↓,0.6420529000461102,True,12,1,0,1
Y2-S2-025K21,8,682,PS,exp,49,→,right,→,0.4533359999768436,True,12,1,0,1
Y2-S2-025K21,8,683,PS,exp,37,←,left,←,0.42097800015471876,True,12,1,0,1
Y2-S2-025K21,8,684,PS,exp,44,↓,down,↓,0.643205099971965,True,11,1,0,1
Y2-S2-025K21,8,685,PS,exp,36,→,right,→,0.4436447999905795,True,11,1,0,1
Y2-S2-025K21,8,686,PS,exp,43,←,left,←,0.5465241000056267,True,11,1,0,1
Y2-S2-025K21,8,687,PS,exp,38,→,right,→,0.5516480000223964,True,10,1,0,1
Y2-S2-025K21,8,688,PS,exp,27,←,left,←,0.5729526998475194,True,10,1,0,1
Y2-S2-025K21,8,689,PS,exp,37,↓,down,↓,0.8080766999628395,True,10,1,0,1
Y2-S2-025K21,8,690,PS,exp,25,↑,up,↑,0.7626505999360234,True,9,1,0,1
Y2-S2-025K21,8,691,PS,exp,38,↓,left,←,0.9975881997961551,False,9,-1,1,2
Y2-S2-025K21,8,692,PS,exp,41,←,left,←,0.5338793999981135,True,10,-1,0,2
Y2-S2-025K21,8,693,PS,exp,48,→,right,→,0.46943359985016286,True,10,-1,0,2
Y2-S2-025K21,8,694,PS,exp,27,↑,up,↑,0.7190976999700069,True,10,1,1,3
Y2-S2-025K21,8,695,PS,exp,45,←,left,←,0.4454401999246329,True,9,1,0,3
Y2-S2-025K21,8,696,PS,exp,38,→,right,→,0.4486814998090267,True,9,1,0,3
Y2-S2-025K21,8,697,PS,exp,25,↑,right,→,0.591059299884364,False,9,-1,1,4
Y2-S2-025K21,8,698,PS,exp,26,→,right,→,0.42157349991612136,True,10,-1,0,4
Y2-S2-025K21,8,699,PS,exp,38,↓,down,↓,0.8888393000233918,True,10,-1,0,4
Y2-S2-025K21,8,700,PS,exp,26,→,right,→,0.4342406000941992,True,10,1,1,5
Y2-S2-025K21,8,701,PS,exp,45,←,left,←,0.6749057001434267,True,9,1,0,5
Y2-S2-025K21,8,702,PS,exp,50,→,right,→,0.4370754000265151,True,9,1,0,5
Y2-S2-025K21,8,703,PS,exp,36,↑,up,↑,0.7196820999961346,True,9,1,0,5
Y2-S2-025K21,8,704,PS,exp,25,←,right,→,0.6495990001130849,False,8,-1,1,6
Y2-S2-025K21,8,705,PS,exp,49,↓,down,↓,0.5299802999943495,True,9,-1,0,6
Y2-S2-025K21,8,706,PS,exp,30,←,left,←,0.4345084000378847,True,9,-1,0,6
Y2-S2-025K21,8,707,PS,exp,36,↓,down,↓,0.6680352999828756,True,9,1,1,7
Y2-S2-025K21,8,708,PS,exp,35,←,left,←,0.5224858999717981,True,8,1,0,7
Y2-S2-025K21,8,709,PS,exp,27,→,right,→,0.4700193000026047,True,8,1,0,7
Y2-S2-025K21,8,710,PS,exp,36,↑,up,↑,0.9639814998954535,True,8,1,0,7
Y2-S2-025K21,8,711,PS,exp,30,←,left,←,0.49200870003551245,True,7,1,0,7
Y2-S2-025K21,8,712,PS,exp,38,→,right,→,0.6175121001433581,True,7,1,0,7
Y2-S2-025K21,8,713,PS,exp,46,↑,up,↑,0.8724889000877738,True,7,1,0,7
Y2-S2-025K21,8,714,PS,exp,43,→,right,→,0.4608758999966085,True,6,1,0,7
Y2-S2-025K21,8,715,PS,exp,32,↓,left,←,0.7867189000826329,False,6,-1,1,8
Y2-S2-025K21,8,716,PS,exp,37,←,left,←,0.47227589995600283,True,7,-1,0,8
Y2-S2-025K21,8,717,PS,exp,34,→,right,→,0.6605279999785125,True,7,-1,0,8
Y2-S2-025K21,8,718,PS,exp,47,↓,down,↓,0.7497568998951465,True,7,1,1,9
Y2-S2-025K21,8,719,PS,exp,32,→,right,→,0.5687643000856042,True,6,1,0,9
Y2-S2-025K21,8,720,PS,exp,40,←,left,←,0.4415765998419374,True,6,1,0,9
Y2-S2-025K21,8,721,PS,exp,39,→,right,→,0.5937252000439912,True,6,1,0,9
Y2-S2-025K21,8,722,PS,exp,30,↑,up,↑,0.9034223000053316,True,5,1,0,9
Y2-S2-025K21,8,723,PS,exp,30,→,left,←,0.6629643999040127,False,5,-1,1,10
Y2-S2-025K21,8,724,PS,exp,50,↑,left,←,0.5717020998708904,False,6,-1,0,10
Y2-S2-025K21,8,725,PS,exp,31,←,right,→,0.4951931999530643,False,7,-1,0,10
Y2-S2-025K21,8,726,PS,exp,44,→,right,→,0.453777699964121,True,8,-1,0,10
Y2-S2-025K21,8,727,PS,exp,39,↑,up,↑,0.8539376000408083,True,8,-1,0,10
Y2-S2-025K21,8,728,PS,exp,33,→,right,→,0.5106502999551594,True,8,1,1,11
Y2-S2-025K21,8,729,PS,exp,46,←,left,←,0.5163006000220776,True,7,1,0,11
Y2-S2-025K21,8,730,PS,exp,25,→,left,←,0.6421542000025511,False,7,-1,1,12
Y2-S2-025K21,8,731,PS,exp,50,↑,up,↑,0.8893908001482487,True,8,-1,0,12
Y2-S2-025K21,8,732,PS,exp,27,←,left,←,0.4328393000178039,True,8,-1,0,12
Y2-S2-025K21,8,733,PS,exp,39,↑,up,↑,0.8452252999413759,True,8,1,1,13
Y2-S2-025K21,8,734,PS,exp,45,→,right,→,0.46347229997627437,True,7,1,0,13
Y2-S2-025K21,8,735,PS,exp,33,←,right,→,0.5857078998815268,False,7,-1,1,14
Y2-S2-025K21,8,736,PS,exp,27,↑,down,↓,0.8114589001052082,False,8,-1,0,14
Y2-S2-025K21,8,737,PS,exp,49,↓,right,→,0.405548500129953,False,9,-1,0,14
Y2-S2-025K21,8,738,PS,exp,36,←,left,←,0.5108779000584036,True,10,-1,0,14
Y2-S2-025K21,8,739,PS,exp,26,↓,down,↓,0.7071949001401663,True,10,-1,0,14
Y2-S2-025K21,8,740,PS,exp,41,→,right,→,0.4346463999245316,True,10,1,1,15
Y2-S2-025K21,8,741,PS,exp,49,↑,up,↑,0.9273973999079317,True,9,1,0,15
Y2-S2-025K21,8,742,PS,exp,40,↓,down,↓,0.6491551999934018,True,9,1,0,15
Y2-S2-025K21,8,743,PS,exp,45,←,down,↓,0.842061199946329,False,9,-1,1,16
