PART_ID,Block_no,Trial_no,Block_type,Trial_type,CSI,Stim_letter,Key_pressed,letter_choose,Rt,Corr,Stimulus Time,Level,Reversal,Revs_count
Y2-S2-274K23,1,1,PS,train,42,←,no_key,no_letter,-1.0,False,30,-,-,-
Y2-S2-274K23,1,2,PS,train,25,→,right,→,0.6338986000046134,True,30,-,-,-
Y2-S2-274K23,1,3,PS,train,27,↑,no_key,no_letter,-1.0,False,30,-,-,-
Y2-S2-274K23,1,4,PS,train,48,←,left,←,1.04744069930166,True,30,-,-,-
Y2-S2-274K23,1,5,PS,train,35,→,right,→,0.9034882998093963,True,30,-,-,-
Y2-S2-274K23,1,6,PS,train,44,↓,down,↓,0.8983426000922918,True,30,-,-,-
Y2-S2-274K23,1,7,PS,train,45,→,right,→,1.1590590002015233,True,30,-,-,-
Y2-S2-274K23,1,8,PS,train,49,←,left,←,0.883611099794507,True,30,-,-,-
Y2-S2-274K23,1,9,PS,train,32,→,right,→,0.583971600048244,True,30,-,-,-
Y2-S2-274K23,1,10,PS,train,44,↑,up,↑,0.8748312992975116,True,30,-,-,-
Y2-S2-274K23,2,11,AS,train,31,→,right,→,0.8670909004285932,True,45,-,-,-
Y2-S2-274K23,2,12,AS,train,25,←,left,←,0.6675884993746877,True,45,-,-,-
Y2-S2-274K23,2,13,AS,train,32,↓,down,↓,0.7674181004986167,True,45,-,-,-
Y2-S2-274K23,2,14,AS,train,48,→,right,→,0.6012235004454851,True,45,-,-,-
Y2-S2-274K23,2,15,AS,train,26,←,left,←,1.080970199778676,True,45,-,-,-
Y2-S2-274K23,2,16,AS,train,44,→,right,→,0.850845200009644,True,45,-,-,-
Y2-S2-274K23,2,17,AS,train,43,↓,down,↓,1.071020600385964,True,45,-,-,-
Y2-S2-274K23,2,18,AS,train,28,←,left,←,0.5677998997271061,True,45,-,-,-
Y2-S2-274K23,2,19,AS,train,34,↑,up,↑,0.8168283002451062,True,45,-,-,-
Y2-S2-274K23,2,20,AS,train,50,→,right,→,0.7010840000584722,True,45,-,-,-
Y2-S2-274K23,-,21,PS,adaptive,28,←,left,←,0.5461629992350936,True,10,0,0,0
Y2-S2-274K23,-,22,PS,adaptive,49,↓,down,↓,0.723811399191618,True,10,0,0,0
Y2-S2-274K23,-,23,PS,adaptive,50,↑,up,↑,0.6039543999359012,True,10,1,0,0
Y2-S2-274K23,-,24,PS,adaptive,33,←,left,←,0.4761967994272709,True,9,1,0,0
Y2-S2-274K23,-,25,PS,adaptive,33,↓,down,↓,1.3370521999895573,True,9,1,0,0
Y2-S2-274K23,-,26,PS,adaptive,45,↑,up,↑,0.6415187995880842,True,9,1,0,0
Y2-S2-274K23,-,27,PS,adaptive,35,←,left,←,1.2976304003968835,True,8,1,0,0
Y2-S2-274K23,-,28,PS,adaptive,29,↓,right,→,0.9848531000316143,False,8,-1,1,1
Y2-S2-274K23,-,29,PS,adaptive,47,→,right,→,1.0784924002364278,True,9,-1,0,1
Y2-S2-274K23,-,30,PS,adaptive,46,↑,left,←,0.7974261995404959,False,9,-1,0,1
Y2-S2-274K23,-,31,PS,adaptive,48,←,left,←,1.3547168001532555,True,10,-1,0,1
Y2-S2-274K23,-,32,PS,adaptive,25,↑,right,→,0.8711640993133187,False,10,-1,0,1
Y2-S2-274K23,-,33,PS,adaptive,49,→,right,→,0.6595312999561429,True,11,-1,0,1
Y2-S2-274K23,-,34,PS,adaptive,33,↓,up,↑,1.7323047993704677,False,11,-1,0,1
Y2-S2-274K23,-,35,PS,adaptive,35,→,right,→,0.6140358000993729,True,12,-1,0,1
Y2-S2-274K23,-,36,PS,adaptive,28,←,left,←,0.6805632002651691,True,12,-1,0,1
Y2-S2-274K23,-,37,PS,adaptive,43,→,right,→,0.5879674004390836,True,12,1,1,2
Y2-S2-274K23,-,38,PS,adaptive,41,↓,down,↓,0.9304951997473836,True,11,1,0,2
Y2-S2-274K23,-,39,PS,adaptive,38,→,right,→,0.7452854998409748,True,11,1,0,2
Y2-S2-274K23,-,40,PS,adaptive,39,↑,up,↑,0.7434036005288363,True,11,1,0,2
Y2-S2-274K23,-,41,PS,adaptive,27,↓,down,↓,1.1359967002645135,True,10,1,0,2
Y2-S2-274K23,-,42,PS,adaptive,50,↑,no_key,no_letter,-1.0,False,10,-1,1,3
Y2-S2-274K23,-,43,PS,adaptive,45,→,right,→,0.553965799510479,True,11,-1,0,3
Y2-S2-274K23,-,44,PS,adaptive,46,↓,right,→,1.07202859967947,False,11,-1,0,3
Y2-S2-274K23,-,45,PS,adaptive,46,←,left,←,0.8934326004236937,True,12,-1,0,3
Y2-S2-274K23,-,46,PS,adaptive,37,↓,down,↓,0.7657925998792052,True,12,-1,0,3
Y2-S2-274K23,-,47,PS,adaptive,46,←,left,←,0.5016585001721978,True,12,1,1,4
Y2-S2-274K23,-,48,AS,adaptive,39,↓,down,↓,0.6377469999715686,True,20,0,0,0
Y2-S2-274K23,-,49,AS,adaptive,32,←,left,←,0.5518038999289274,True,20,0,0,0
Y2-S2-274K23,-,50,AS,adaptive,28,→,right,→,0.6250660996884108,True,20,1,0,0
Y2-S2-274K23,-,51,AS,adaptive,28,↓,down,↓,0.6309119993820786,True,19,1,0,0
Y2-S2-274K23,-,52,AS,adaptive,34,↑,up,↑,0.6240285001695156,True,19,1,0,0
Y2-S2-274K23,-,53,AS,adaptive,42,→,right,→,0.5712554007768631,True,19,1,0,0
Y2-S2-274K23,-,54,AS,adaptive,27,↑,down,↓,0.9977800995111465,False,18,-1,1,1
Y2-S2-274K23,-,55,AS,adaptive,30,→,right,→,0.4341016998514533,True,19,-1,0,1
Y2-S2-274K23,-,56,AS,adaptive,32,↑,up,↑,0.9530096994712949,True,19,-1,0,1
Y2-S2-274K23,-,57,AS,adaptive,38,←,left,←,0.5566481994464993,True,19,1,1,2
Y2-S2-274K23,-,58,AS,adaptive,45,↓,down,↓,1.1386009994894266,True,18,1,0,2
Y2-S2-274K23,-,59,AS,adaptive,42,→,right,→,0.6238173004239798,True,18,1,0,2
Y2-S2-274K23,-,60,AS,adaptive,46,↓,down,↓,0.749061300419271,True,18,1,0,2
Y2-S2-274K23,-,61,AS,adaptive,27,↑,up,↑,0.8199541000649333,True,17,1,0,2
Y2-S2-274K23,-,62,AS,adaptive,28,→,right,→,0.5442017996683717,True,17,1,0,2
Y2-S2-274K23,-,63,AS,adaptive,42,←,left,←,0.4658001996576786,True,17,1,0,2
Y2-S2-274K23,-,64,AS,adaptive,29,→,right,→,0.4768011001870036,True,16,1,0,2
Y2-S2-274K23,-,65,AS,adaptive,35,↓,down,↓,0.5891493996605277,True,16,1,0,2
Y2-S2-274K23,-,66,AS,adaptive,42,→,right,→,0.7000120999291539,True,16,1,0,2
Y2-S2-274K23,-,67,AS,adaptive,30,↑,up,↑,1.3450947999954224,True,15,1,0,2
Y2-S2-274K23,-,68,AS,adaptive,39,→,right,→,0.8416598001495004,True,15,1,0,2
Y2-S2-274K23,-,69,AS,adaptive,38,←,left,←,0.5340548995882273,True,15,1,0,2
Y2-S2-274K23,-,70,AS,adaptive,41,→,left,←,0.9276641001924872,False,14,-1,1,3
Y2-S2-274K23,-,71,AS,adaptive,32,←,right,→,0.5118561992421746,False,15,-1,0,3
Y2-S2-274K23,-,72,AS,adaptive,35,↑,up,↑,0.7656388003379107,True,16,-1,0,3
Y2-S2-274K23,-,73,AS,adaptive,31,←,left,←,0.6132356002926826,True,16,-1,0,3
Y2-S2-274K23,-,74,AS,adaptive,31,↑,up,↑,0.8256294000893831,True,16,1,1,4
Y2-S2-274K23,1,75,AS,intra_train,40,←,left,←,1.0415730001404881,True,22,-,-,-
Y2-S2-274K23,1,76,AS,intra_train,29,↓,down,↓,0.6945895999670029,True,22,-,-,-
Y2-S2-274K23,1,77,AS,intra_train,47,←,left,←,0.5981943998485804,True,22,-,-,-
Y2-S2-274K23,1,78,AS,intra_train,30,↑,up,↑,0.8501281002536416,True,22,-,-,-
Y2-S2-274K23,1,79,AS,intra_train,48,→,right,→,0.864057700149715,True,22,-,-,-
Y2-S2-274K23,1,80,AS,exp,42,←,left,←,0.7510425001382828,True,15,0,0,0
Y2-S2-274K23,1,81,AS,exp,28,↓,down,↓,1.67422269936651,True,15,0,0,0
Y2-S2-274K23,1,82,AS,exp,48,↑,up,↑,1.2903686994686723,True,15,1,0,0
Y2-S2-274K23,1,83,AS,exp,27,↓,down,↓,0.8177674999460578,True,14,1,0,0
Y2-S2-274K23,1,84,AS,exp,44,→,left,←,0.8624964999035001,False,14,-1,1,1
Y2-S2-274K23,1,85,AS,exp,26,←,left,←,0.6693063005805016,True,15,-1,0,1
Y2-S2-274K23,1,86,AS,exp,28,↓,right,→,0.766347199678421,False,15,-1,0,1
Y2-S2-274K23,1,87,AS,exp,30,→,right,→,0.6925557004287839,True,16,-1,0,1
Y2-S2-274K23,1,88,AS,exp,43,↓,down,↓,0.9324903003871441,True,16,-1,0,1
Y2-S2-274K23,1,89,AS,exp,48,↑,right,→,0.7897223001345992,False,16,-1,0,1
Y2-S2-274K23,1,90,AS,exp,34,↓,right,→,0.9615722000598907,False,17,-1,0,1
Y2-S2-274K23,1,91,AS,exp,26,→,right,→,0.622371300123632,True,18,-1,0,1
Y2-S2-274K23,1,92,AS,exp,42,↓,down,↓,0.9189659999683499,True,18,-1,0,1
Y2-S2-274K23,1,93,AS,exp,28,←,left,←,0.7618770999833941,True,18,1,1,2
Y2-S2-274K23,1,94,AS,exp,33,→,right,→,0.5371841005980968,True,17,1,0,2
Y2-S2-274K23,1,95,AS,exp,31,←,right,→,0.6919642994180322,False,17,-1,1,3
Y2-S2-274K23,1,96,AS,exp,40,↑,up,↑,1.0821615997701883,True,18,-1,0,3
Y2-S2-274K23,1,97,AS,exp,50,↓,down,↓,0.7771414993330836,True,18,-1,0,3
Y2-S2-274K23,1,98,AS,exp,47,→,right,→,1.9157606000080705,True,18,1,1,4
Y2-S2-274K23,1,99,AS,exp,27,↓,down,↓,0.9219440994784236,True,17,1,0,4
Y2-S2-274K23,1,100,AS,exp,41,←,left,←,0.9596423003822565,True,17,1,0,4
Y2-S2-274K23,1,101,AS,exp,25,↑,up,↑,0.856683200225234,True,17,1,0,4
Y2-S2-274K23,1,102,AS,exp,36,←,right,→,0.8246756000444293,False,16,-1,1,5
Y2-S2-274K23,1,103,AS,exp,41,↓,right,→,0.93596709985286,False,17,-1,0,5
Y2-S2-274K23,1,104,AS,exp,29,↑,up,↑,0.7273268001154065,True,18,-1,0,5
Y2-S2-274K23,1,105,AS,exp,40,→,right,→,0.7399613000452518,True,18,-1,0,5
Y2-S2-274K23,1,106,AS,exp,41,←,left,←,0.5862720003351569,True,18,1,1,6
Y2-S2-274K23,1,107,AS,exp,50,↑,up,↑,1.454721100628376,True,17,1,0,6
Y2-S2-274K23,1,108,AS,exp,49,↓,down,↓,0.8363076997920871,True,17,1,0,6
Y2-S2-274K23,1,109,AS,exp,35,←,left,←,1.129518300294876,True,17,1,0,6
Y2-S2-274K23,1,110,AS,exp,28,↑,up,↑,0.7216020002961159,True,16,1,0,6
Y2-S2-274K23,1,111,AS,exp,28,↓,down,↓,0.6302246004343033,True,16,1,0,6
Y2-S2-274K23,1,112,AS,exp,35,→,right,→,0.5219272002577782,True,16,1,0,6
Y2-S2-274K23,1,113,AS,exp,44,↑,up,↑,0.8593191998079419,True,15,1,0,6
Y2-S2-274K23,1,114,AS,exp,33,←,left,←,0.6408307999372482,True,15,1,0,6
Y2-S2-274K23,1,115,AS,exp,43,→,right,→,0.7573504997417331,True,15,1,0,6
Y2-S2-274K23,1,116,AS,exp,40,↑,up,↑,0.5914522996172309,True,14,1,0,6
Y2-S2-274K23,1,117,AS,exp,44,↓,down,↓,0.7706618998199701,True,14,1,0,6
Y2-S2-274K23,1,118,AS,exp,50,→,right,→,0.6248299004510045,True,14,1,0,6
Y2-S2-274K23,1,119,AS,exp,29,↑,left,←,0.7857349999248981,False,13,-1,1,7
Y2-S2-274K23,1,120,AS,exp,34,←,left,←,0.7897002007812262,True,14,-1,0,7
Y2-S2-274K23,1,121,AS,exp,31,↑,up,↑,0.4902606997638941,True,14,-1,0,7
Y2-S2-274K23,1,122,AS,exp,29,→,down,↓,0.7709827004000545,False,14,-1,0,7
Y2-S2-274K23,1,123,AS,exp,33,↑,right,→,0.8085924005135894,False,15,-1,0,7
Y2-S2-274K23,1,124,AS,exp,43,←,no_key,no_letter,-1.0,False,16,-1,0,7
Y2-S2-274K23,1,125,AS,exp,48,↓,down,↓,0.6182886008173227,True,17,-1,0,7
Y2-S2-274K23,1,126,AS,exp,40,→,right,→,0.5269539998844266,True,17,-1,0,7
Y2-S2-274K23,1,127,AS,exp,26,↑,up,↑,1.0381141994148493,True,17,1,1,8
Y2-S2-274K23,1,128,AS,exp,38,←,left,←,0.524749199859798,True,16,1,0,8
Y2-S2-274K23,1,129,AS,exp,28,↑,up,↑,1.1578628001734614,True,16,1,0,8
Y2-S2-274K23,1,130,AS,exp,34,←,right,→,0.8668451998382807,False,16,-1,1,9
Y2-S2-274K23,1,131,AS,exp,46,→,left,←,1.6685634003952146,False,17,-1,0,9
Y2-S2-274K23,1,132,AS,exp,27,↑,left,←,0.5031946999952197,False,18,-1,0,9
Y2-S2-274K23,1,133,AS,exp,25,↓,down,↓,0.7786828000098467,True,19,-1,0,9
Y2-S2-274K23,1,134,AS,exp,31,→,no_key,no_letter,-1.0,False,19,-1,0,9
Y2-S2-274K23,1,135,AS,exp,25,↑,up,↑,0.6653434000909328,True,20,-1,0,9
Y2-S2-274K23,1,136,AS,exp,43,↓,down,↓,0.8548264000564814,True,20,-1,0,9
Y2-S2-274K23,1,137,AS,exp,38,→,right,→,0.8719864003360271,True,20,1,1,10
Y2-S2-274K23,1,138,AS,exp,26,↑,up,↑,1.1230059992522001,True,19,1,0,10
Y2-S2-274K23,1,139,AS,exp,35,→,right,→,0.5786970006301999,True,19,1,0,10
Y2-S2-274K23,1,140,AS,exp,34,↑,up,↑,0.7230695998296142,True,19,1,0,10
Y2-S2-274K23,1,141,AS,exp,34,←,left,←,0.5127226999029517,True,18,1,0,10
Y2-S2-274K23,1,142,AS,exp,25,↑,up,↑,0.7554628998041153,True,18,1,0,10
Y2-S2-274K23,1,143,AS,exp,45,↓,down,↓,0.817795000039041,True,18,1,0,10
Y2-S2-274K23,1,144,AS,exp,28,←,left,←,0.6197753995656967,True,17,1,0,10
Y2-S2-274K23,1,145,AS,exp,43,→,no_key,no_letter,-1.0,False,17,-1,1,11
Y2-S2-274K23,1,146,AS,exp,27,←,right,→,0.4760066997259855,False,18,-1,0,11
Y2-S2-274K23,1,147,AS,exp,29,↓,down,↓,0.9582938002422452,True,19,-1,0,11
Y2-S2-274K23,1,148,AS,exp,29,↑,up,↑,1.412487699650228,True,19,-1,0,11
Y2-S2-274K23,1,149,AS,exp,50,→,right,→,0.506288000382483,True,19,1,1,12
Y2-S2-274K23,1,150,AS,exp,34,↓,down,↓,0.8453533006832004,True,18,1,0,12
Y2-S2-274K23,1,151,AS,exp,33,←,left,←,0.46980009973049164,True,18,1,0,12
Y2-S2-274K23,1,152,AS,exp,38,↑,up,↑,0.605269500054419,True,18,1,0,12
Y2-S2-274K23,1,153,AS,exp,30,←,left,←,0.4650365002453327,True,17,1,0,12
Y2-S2-274K23,1,154,AS,exp,35,↓,down,↓,0.5022264001891017,True,17,1,0,12
Y2-S2-274K23,1,155,AS,exp,38,←,right,→,0.7879316005855799,False,17,-1,1,13
Y2-S2-274K23,1,156,AS,exp,26,↓,down,↓,0.6990398997440934,True,18,-1,0,13
Y2-S2-274K23,1,157,AS,exp,31,←,left,←,0.7829589992761612,True,18,-1,0,13
Y2-S2-274K23,1,158,AS,exp,32,→,right,→,0.5595719991251826,True,18,1,1,14
Y2-S2-274K23,1,159,AS,exp,33,↑,up,↑,0.9318893998861313,True,17,1,0,14
Y2-S2-274K23,1,160,AS,exp,27,←,left,←,0.7667097002267838,True,17,1,0,14
Y2-S2-274K23,1,161,AS,exp,35,↑,up,↑,0.6109051993116736,True,17,1,0,14
Y2-S2-274K23,1,162,AS,exp,43,→,right,→,0.694382700137794,True,16,1,0,14
Y2-S2-274K23,1,163,AS,exp,41,↓,down,↓,0.6248402995988727,True,16,1,0,14
Y2-S2-274K23,1,164,AS,exp,37,→,right,→,0.6713455002754927,True,16,1,0,14
Y2-S2-274K23,1,165,AS,exp,42,↑,right,→,1.0775218000635505,False,15,-1,1,15
Y2-S2-274K23,1,166,AS,exp,48,→,right,→,0.5258395001292229,True,16,-1,0,15
Y2-S2-274K23,1,167,AS,exp,31,←,left,←,0.4995293999090791,True,16,-1,0,15
Y2-S2-274K23,1,168,AS,exp,37,↑,left,←,1.7451406996697187,False,16,-1,0,15
Y2-S2-274K23,1,169,AS,exp,25,↓,down,↓,0.8822031002491713,True,17,-1,0,15
Y2-S2-274K23,1,170,AS,exp,26,→,left,←,0.9079605992883444,False,17,-1,0,15
Y2-S2-274K23,1,171,AS,exp,38,↑,up,↑,0.6866783993318677,True,18,-1,0,15
Y2-S2-274K23,1,172,AS,exp,50,←,left,←,0.9501395998522639,True,18,-1,0,15
Y2-S2-274K23,1,173,AS,exp,42,↓,down,↓,1.1342529999092221,True,18,1,1,16
Y2-S2-274K23,2,174,PS,intra_train,39,→,left,←,1.2297541992738843,False,16,-,-,-
Y2-S2-274K23,2,175,PS,intra_train,44,↑,up,↑,0.9958637999370694,True,16,-,-,-
Y2-S2-274K23,2,176,PS,intra_train,41,→,left,←,1.322368299588561,False,16,-,-,-
Y2-S2-274K23,2,177,PS,intra_train,48,↓,down,↓,0.9479285003617406,True,16,-,-,-
Y2-S2-274K23,2,178,PS,intra_train,50,→,right,→,0.8930107997730374,True,16,-,-,-
Y2-S2-274K23,2,179,PS,exp,42,↑,up,↑,0.9396408004686236,True,11,0,0,0
Y2-S2-274K23,2,180,PS,exp,28,↓,down,↓,1.6090341992676258,True,11,0,0,0
Y2-S2-274K23,2,181,PS,exp,26,←,left,←,0.9383979002013803,True,11,1,0,0
Y2-S2-274K23,2,182,PS,exp,48,↓,down,↓,0.7253823997452855,True,10,1,0,0
Y2-S2-274K23,2,183,PS,exp,39,←,up,↑,1.2177578993141651,False,10,-1,1,1
Y2-S2-274K23,2,184,PS,exp,36,→,right,→,0.784510400146246,True,11,-1,0,1
Y2-S2-274K23,2,185,PS,exp,40,↑,right,→,0.9845767999067903,False,11,-1,0,1
Y2-S2-274K23,2,186,PS,exp,48,↓,down,↓,0.7821588004007936,True,12,-1,0,1
Y2-S2-274K23,2,187,PS,exp,42,→,right,→,0.5234807999804616,True,12,-1,0,1
Y2-S2-274K23,2,188,PS,exp,50,↑,left,←,0.8015126995742321,False,12,-1,0,1
Y2-S2-274K23,2,189,PS,exp,25,←,left,←,0.7988459998741746,True,13,-1,0,1
Y2-S2-274K23,2,190,PS,exp,37,↓,right,→,1.2830651002004743,False,13,-1,0,1
Y2-S2-274K23,2,191,PS,exp,43,↑,up,↑,0.9854343999177217,True,14,-1,0,1
Y2-S2-274K23,2,192,PS,exp,43,→,right,→,0.46054300013929605,True,14,-1,0,1
Y2-S2-274K23,2,193,PS,exp,35,↑,right,→,0.8947449997067451,False,14,-1,0,1
Y2-S2-274K23,2,194,PS,exp,47,↓,down,↓,0.8287329999729991,True,15,-1,0,1
Y2-S2-274K23,2,195,PS,exp,47,↑,up,↑,1.1132695004343987,True,15,-1,0,1
Y2-S2-274K23,2,196,PS,exp,30,↓,down,↓,0.8116031996905804,True,15,1,1,2
Y2-S2-274K23,2,197,PS,exp,39,←,down,↓,0.975934199988842,False,14,-1,1,3
Y2-S2-274K23,2,198,PS,exp,46,↓,down,↓,0.721887999214232,True,15,-1,0,3
Y2-S2-274K23,2,199,PS,exp,30,↑,up,↑,0.9669176004827023,True,15,-1,0,3
Y2-S2-274K23,2,200,PS,exp,33,↓,down,↓,0.8038829993456602,True,15,1,1,4
Y2-S2-274K23,2,201,PS,exp,31,→,right,→,0.7727943994104862,True,14,1,0,4
Y2-S2-274K23,2,202,PS,exp,29,↑,up,↑,0.8732743998989463,True,14,1,0,4
Y2-S2-274K23,2,203,PS,exp,34,↓,down,↓,0.6922578001394868,True,14,1,0,4
Y2-S2-274K23,2,204,PS,exp,34,→,right,→,0.6785909999161959,True,13,1,0,4
Y2-S2-274K23,2,205,PS,exp,46,↓,down,↓,0.7540036998689175,True,13,1,0,4
Y2-S2-274K23,2,206,PS,exp,28,←,left,←,0.7849078997969627,True,13,1,0,4
Y2-S2-274K23,2,207,PS,exp,26,↓,down,↓,0.7243304997682571,True,12,1,0,4
Y2-S2-274K23,2,208,PS,exp,46,→,right,→,0.8256373004987836,True,12,1,0,4
Y2-S2-274K23,2,209,PS,exp,34,↑,up,↑,0.8720805002376437,True,12,1,0,4
Y2-S2-274K23,2,210,PS,exp,44,↓,up,↑,1.0993734998628497,False,11,-1,1,5
Y2-S2-274K23,2,211,PS,exp,33,↑,left,←,0.8598854998126626,False,12,-1,0,5
Y2-S2-274K23,2,212,PS,exp,49,↓,down,↓,0.8248020000755787,True,13,-1,0,5
Y2-S2-274K23,2,213,PS,exp,49,←,left,←,0.965786200016737,True,13,-1,0,5
Y2-S2-274K23,2,214,PS,exp,29,↓,down,↓,0.665116099640727,True,13,1,1,6
Y2-S2-274K23,2,215,PS,exp,41,←,left,←,0.6737567000091076,True,12,1,0,6
Y2-S2-274K23,2,216,PS,exp,44,↓,down,↓,0.7006006995216012,True,12,1,0,6
Y2-S2-274K23,2,217,PS,exp,46,↑,up,↑,0.9159524999558926,True,12,1,0,6
Y2-S2-274K23,2,218,PS,exp,36,←,left,←,1.0741744004189968,True,11,1,0,6
Y2-S2-274K23,2,219,PS,exp,31,↑,up,↑,1.0242138002067804,True,11,1,0,6
Y2-S2-274K23,2,220,PS,exp,40,←,right,→,0.9290263997390866,False,11,-1,1,7
Y2-S2-274K23,2,221,PS,exp,50,→,right,→,0.6079262997955084,True,12,-1,0,7
Y2-S2-274K23,2,222,PS,exp,29,←,left,←,1.0425030002370477,True,12,-1,0,7
Y2-S2-274K23,2,223,PS,exp,47,↑,up,↑,1.0837874999269843,True,12,1,1,8
Y2-S2-274K23,2,224,PS,exp,40,→,right,→,0.7871148996055126,True,11,1,0,8
Y2-S2-274K23,2,225,PS,exp,44,↓,up,↑,0.9736510999500751,False,11,-1,1,9
Y2-S2-274K23,2,226,PS,exp,41,→,right,→,0.6230282997712493,True,12,-1,0,9
Y2-S2-274K23,2,227,PS,exp,46,↑,up,↑,1.2665793998166919,True,12,-1,0,9
Y2-S2-274K23,2,228,PS,exp,46,→,right,→,0.7014686996117234,True,12,1,1,10
Y2-S2-274K23,2,229,PS,exp,48,↓,down,↓,1.296675099991262,True,11,1,0,10
Y2-S2-274K23,2,230,PS,exp,41,→,right,→,0.7174787996336818,True,11,1,0,10
Y2-S2-274K23,2,231,PS,exp,33,↑,right,→,0.7374438000842929,False,11,-1,1,11
Y2-S2-274K23,2,232,PS,exp,30,←,left,←,0.838624999858439,True,12,-1,0,11
Y2-S2-274K23,2,233,PS,exp,34,↑,right,→,0.858169000595808,False,12,-1,0,11
Y2-S2-274K23,2,234,PS,exp,50,↓,down,↓,0.8314083991572261,True,13,-1,0,11
Y2-S2-274K23,2,235,PS,exp,42,←,left,←,0.6758709000423551,True,13,-1,0,11
Y2-S2-274K23,2,236,PS,exp,27,→,right,→,0.7953140996396542,True,13,1,1,12
Y2-S2-274K23,2,237,PS,exp,41,←,left,←,0.5112821003422141,True,12,1,0,12
Y2-S2-274K23,2,238,PS,exp,30,→,right,→,0.5282225999981165,True,12,1,0,12
Y2-S2-274K23,2,239,PS,exp,30,↓,down,↓,0.7837140997871757,True,12,1,0,12
Y2-S2-274K23,2,240,PS,exp,38,↑,up,↑,0.912640099413693,True,11,1,0,12
Y2-S2-274K23,2,241,PS,exp,48,→,left,←,0.8754731006920338,False,11,-1,1,13
Y2-S2-274K23,2,242,PS,exp,43,←,left,←,0.585160699672997,True,12,-1,0,13
Y2-S2-274K23,2,243,PS,exp,42,↑,up,↑,1.095538099296391,True,12,-1,0,13
Y2-S2-274K23,2,244,PS,exp,39,↓,left,←,0.8359149005264044,False,12,-1,0,13
Y2-S2-274K23,2,245,PS,exp,33,→,right,→,1.1080684997141361,True,13,-1,0,13
Y2-S2-274K23,2,246,PS,exp,37,←,left,←,0.7275520004332066,True,13,-1,0,13
Y2-S2-274K23,2,247,PS,exp,49,↓,down,↓,0.7900694003328681,True,13,1,1,14
Y2-S2-274K23,2,248,PS,exp,33,↑,up,↑,0.9036727994680405,True,12,1,0,14
Y2-S2-274K23,2,249,PS,exp,43,↓,down,↓,0.8853818997740746,True,12,1,0,14
Y2-S2-274K23,2,250,PS,exp,49,←,left,←,0.7735559996217489,True,12,1,0,14
Y2-S2-274K23,2,251,PS,exp,46,↑,left,←,0.7785488003864884,False,11,-1,1,15
Y2-S2-274K23,2,252,PS,exp,44,→,right,→,0.7792566996067762,True,12,-1,0,15
Y2-S2-274K23,2,253,PS,exp,32,↑,right,→,0.9026766996830702,False,12,-1,0,15
Y2-S2-274K23,2,254,PS,exp,35,→,right,→,0.7614730000495911,True,13,-1,0,15
Y2-S2-274K23,2,255,PS,exp,25,↑,up,↑,1.0266033997759223,True,13,-1,0,15
Y2-S2-274K23,2,256,PS,exp,31,↓,down,↓,0.8337254002690315,True,13,1,1,16
Y2-S2-274K23,3,257,PS,intra_train,44,↑,left,←,1.3135167993605137,False,16,-,-,-
Y2-S2-274K23,3,258,PS,intra_train,42,→,right,→,0.5403560996055603,True,16,-,-,-
Y2-S2-274K23,3,259,PS,intra_train,36,↑,up,↑,0.8341303002089262,True,16,-,-,-
Y2-S2-274K23,3,260,PS,intra_train,39,→,right,→,0.533173999749124,True,16,-,-,-
Y2-S2-274K23,3,261,PS,intra_train,38,↑,up,↑,0.7256431002169847,True,16,-,-,-
Y2-S2-274K23,3,262,PS,exp,31,→,right,→,1.8117471998557448,True,11,0,0,0
Y2-S2-274K23,3,263,PS,exp,31,↓,up,↑,0.876205500215292,False,11,-1,0,0
Y2-S2-274K23,3,264,PS,exp,32,←,left,←,0.7332693003118038,True,12,-1,0,0
Y2-S2-274K23,3,265,PS,exp,48,↑,left,←,0.76021150033921,False,12,-1,0,0
Y2-S2-274K23,3,266,PS,exp,40,←,left,←,0.7098436001688242,True,13,-1,0,0
Y2-S2-274K23,3,267,PS,exp,49,↑,up,↑,0.5308587001636624,True,13,-1,0,0
Y2-S2-274K23,3,268,PS,exp,31,←,right,→,0.5420856000855565,False,13,-1,0,0
Y2-S2-274K23,3,269,PS,exp,25,↓,down,↓,0.7771330000832677,True,14,-1,0,0
Y2-S2-274K23,3,270,PS,exp,30,↑,up,↑,0.9349504997953773,True,14,-1,0,0
Y2-S2-274K23,3,271,PS,exp,26,↓,down,↓,0.598317900672555,True,14,1,1,1
Y2-S2-274K23,3,272,PS,exp,49,←,left,←,0.7185677997767925,True,13,1,0,1
Y2-S2-274K23,3,273,PS,exp,33,↑,up,↑,0.8433145992457867,True,13,1,0,1
Y2-S2-274K23,3,274,PS,exp,43,→,right,→,0.8613683003932238,True,13,1,0,1
Y2-S2-274K23,3,275,PS,exp,48,←,left,←,0.7184788007289171,True,12,1,0,1
Y2-S2-274K23,3,276,PS,exp,27,→,right,→,0.890939999371767,True,12,1,0,1
Y2-S2-274K23,3,277,PS,exp,48,↑,right,→,0.6313473004847765,False,12,-1,1,2
Y2-S2-274K23,3,278,PS,exp,34,↓,left,←,0.6830695997923613,False,13,-1,0,2
Y2-S2-274K23,3,279,PS,exp,49,→,left,←,1.402237099595368,False,14,-1,0,2
Y2-S2-274K23,3,280,PS,exp,33,↑,right,→,0.7977732997387648,False,15,-1,0,2
Y2-S2-274K23,3,281,PS,exp,31,←,left,←,0.7807999001815915,True,16,-1,0,2
Y2-S2-274K23,3,282,PS,exp,45,↓,left,←,0.6450287001207471,False,16,-1,0,2
Y2-S2-274K23,3,283,PS,exp,34,→,right,→,0.7225819006562233,True,17,-1,0,2
Y2-S2-274K23,3,284,PS,exp,29,↑,left,←,0.6564416000619531,False,17,-1,0,2
Y2-S2-274K23,3,285,PS,exp,38,→,left,←,0.7672129003331065,False,18,-1,0,2
Y2-S2-274K23,3,286,PS,exp,25,↓,down,↓,0.9572526002302766,True,19,-1,0,2
Y2-S2-274K23,3,287,PS,exp,49,→,right,→,0.7569564003497362,True,19,-1,0,2
Y2-S2-274K23,3,288,PS,exp,48,↓,down,↓,0.8043408999219537,True,19,1,1,3
Y2-S2-274K23,3,289,PS,exp,31,↑,up,↑,1.0222613997757435,True,18,1,0,3
Y2-S2-274K23,3,290,PS,exp,36,←,left,←,0.815939400345087,True,18,1,0,3
Y2-S2-274K23,3,291,PS,exp,29,↓,down,↓,0.7795486999675632,True,18,1,0,3
Y2-S2-274K23,3,292,PS,exp,31,←,left,←,0.8345544999465346,True,17,1,0,3
Y2-S2-274K23,3,293,PS,exp,33,↑,up,↑,0.7484194999560714,True,17,1,0,3
Y2-S2-274K23,3,294,PS,exp,49,↓,down,↓,0.7927539004012942,True,17,1,0,3
Y2-S2-274K23,3,295,PS,exp,32,→,right,→,0.5822785003110766,True,16,1,0,3
Y2-S2-274K23,3,296,PS,exp,25,↓,down,↓,0.6392542002722621,True,16,1,0,3
Y2-S2-274K23,3,297,PS,exp,48,→,right,→,0.6760780997574329,True,16,1,0,3
Y2-S2-274K23,3,298,PS,exp,33,←,left,←,0.6522748004645109,True,15,1,0,3
Y2-S2-274K23,3,299,PS,exp,29,↓,down,↓,0.8187773004174232,True,15,1,0,3
Y2-S2-274K23,3,300,PS,exp,28,→,right,→,0.6149159008637071,True,15,1,0,3
Y2-S2-274K23,3,301,PS,exp,40,↑,up,↑,0.8595511997118592,True,14,1,0,3
Y2-S2-274K23,3,302,PS,exp,41,→,right,→,0.7185445996001363,True,14,1,0,3
Y2-S2-274K23,3,303,PS,exp,49,↑,down,↓,0.8372010001912713,False,14,-1,1,4
Y2-S2-274K23,3,304,PS,exp,34,↓,down,↓,0.6872637001797557,True,15,-1,0,4
Y2-S2-274K23,3,305,PS,exp,32,↑,up,↑,0.7278517000377178,True,15,-1,0,4
Y2-S2-274K23,3,306,PS,exp,43,↓,down,↓,0.5999937001615763,True,15,1,1,5
Y2-S2-274K23,3,307,PS,exp,37,←,right,→,0.7224287008866668,False,14,-1,1,6
Y2-S2-274K23,3,308,PS,exp,33,↓,down,↓,0.6587805999442935,True,15,-1,0,6
Y2-S2-274K23,3,309,PS,exp,37,←,left,←,0.5802295999601483,True,15,-1,0,6
Y2-S2-274K23,3,310,PS,exp,45,↑,up,↑,0.7790131000801921,True,15,1,1,7
Y2-S2-274K23,3,311,PS,exp,27,↓,down,↓,0.9518777998164296,True,14,1,0,7
Y2-S2-274K23,3,312,PS,exp,34,←,left,←,0.5346435001119971,True,14,1,0,7
Y2-S2-274K23,3,313,PS,exp,42,→,right,→,0.6071683000773191,True,14,1,0,7
Y2-S2-274K23,3,314,PS,exp,32,←,right,→,0.7948032999411225,False,13,-1,1,8
Y2-S2-274K23,3,315,PS,exp,29,→,right,→,0.6658569006249309,True,14,-1,0,8
Y2-S2-274K23,3,316,PS,exp,32,←,left,←,0.45496479980647564,True,14,-1,0,8
Y2-S2-274K23,3,317,PS,exp,34,↓,left,←,0.9823436001315713,False,14,-1,0,8
Y2-S2-274K23,3,318,PS,exp,25,↑,up,↑,0.9372090995311737,True,15,-1,0,8
Y2-S2-274K23,3,319,PS,exp,29,←,right,→,0.9330058004707098,False,15,-1,0,8
Y2-S2-274K23,3,320,PS,exp,30,↑,up,↑,0.9653581008315086,True,16,-1,0,8
Y2-S2-274K23,3,321,PS,exp,31,↓,down,↓,0.7625369997695088,True,16,-1,0,8
Y2-S2-274K23,3,322,PS,exp,46,↑,up,↑,1.0440397998318076,True,16,1,1,9
Y2-S2-274K23,3,323,PS,exp,27,↓,down,↓,0.8775560995563865,True,15,1,0,9
Y2-S2-274K23,3,324,PS,exp,27,←,left,←,0.531661500222981,True,15,1,0,9
Y2-S2-274K23,3,325,PS,exp,37,↓,down,↓,0.7881674002856016,True,15,1,0,9
Y2-S2-274K23,3,326,PS,exp,50,←,left,←,0.6509897001087666,True,14,1,0,9
Y2-S2-274K23,3,327,PS,exp,50,↓,down,↓,0.7938267001882195,True,14,1,0,9
Y2-S2-274K23,3,328,PS,exp,49,→,right,→,0.6621540999040008,True,14,1,0,9
Y2-S2-274K23,3,329,PS,exp,34,←,left,←,0.9309524996206164,True,13,1,0,9
Y2-S2-274K23,3,330,PS,exp,27,↓,down,↓,0.7317113997414708,True,13,1,0,9
Y2-S2-274K23,3,331,PS,exp,41,↑,up,↑,1.0215942999348044,True,13,1,0,9
Y2-S2-274K23,3,332,PS,exp,41,←,right,→,1.0045801000669599,False,12,-1,1,10
Y2-S2-274K23,3,333,PS,exp,48,→,right,→,0.7041248008608818,True,13,-1,0,10
Y2-S2-274K23,3,334,PS,exp,37,↓,right,→,0.9560908004641533,False,13,-1,0,10
Y2-S2-274K23,3,335,PS,exp,33,←,left,←,0.5332332001999021,True,14,-1,0,10
Y2-S2-274K23,3,336,PS,exp,45,↑,up,↑,0.925203999504447,True,14,-1,0,10
Y2-S2-274K23,3,337,PS,exp,41,←,left,←,0.9705871995538473,True,14,1,1,11
Y2-S2-274K23,3,338,PS,exp,35,↑,up,↑,1.2533745002001524,True,13,1,0,11
Y2-S2-274K23,3,339,PS,exp,47,→,right,→,0.8752866005524993,True,13,1,0,11
Y2-S2-274K23,3,340,PS,exp,49,↑,up,↑,0.7303129993379116,True,13,1,0,11
Y2-S2-274K23,3,341,PS,exp,36,←,left,←,0.7636539004743099,True,12,1,0,11
Y2-S2-274K23,3,342,PS,exp,39,→,right,→,0.4774852003902197,True,12,1,0,11
Y2-S2-274K23,3,343,PS,exp,40,↑,up,↑,0.8314883997663856,True,12,1,0,11
Y2-S2-274K23,3,344,PS,exp,37,→,left,←,0.678494700230658,False,11,-1,1,12
Y2-S2-274K23,3,345,PS,exp,34,↑,left,←,0.5492431996390224,False,12,-1,0,12
Y2-S2-274K23,3,346,PS,exp,49,↓,down,↓,0.8219194002449512,True,13,-1,0,12
Y2-S2-274K23,3,347,PS,exp,39,→,right,→,0.4233865002170205,True,13,-1,0,12
Y2-S2-274K23,3,348,PS,exp,28,↓,left,←,0.7878499999642372,False,13,-1,0,12
Y2-S2-274K23,3,349,PS,exp,32,↑,right,→,0.6429853001609445,False,14,-1,0,12
Y2-S2-274K23,3,350,PS,exp,30,→,right,→,0.9075768999755383,True,15,-1,0,12
Y2-S2-274K23,3,351,PS,exp,28,↑,left,←,0.707421800121665,False,15,-1,0,12
Y2-S2-274K23,3,352,PS,exp,41,→,right,→,0.8103777002543211,True,16,-1,0,12
Y2-S2-274K23,3,353,PS,exp,49,↑,up,↑,0.6986870002001524,True,16,-1,0,12
Y2-S2-274K23,3,354,PS,exp,45,←,left,←,0.5542764998972416,True,16,1,1,13
Y2-S2-274K23,3,355,PS,exp,25,↓,left,←,0.5011873003095388,False,15,-1,1,14
Y2-S2-274K23,3,356,PS,exp,27,←,left,←,0.7827204000204802,True,16,-1,0,14
Y2-S2-274K23,3,357,PS,exp,39,→,right,→,0.6312061995267868,True,16,-1,0,14
Y2-S2-274K23,3,358,PS,exp,38,↑,right,→,0.5862777000293136,False,16,-1,0,14
Y2-S2-274K23,3,359,PS,exp,33,←,right,→,0.5903939995914698,False,17,-1,0,14
Y2-S2-274K23,3,360,PS,exp,42,↓,down,↓,0.8949234001338482,True,18,-1,0,14
Y2-S2-274K23,3,361,PS,exp,40,→,right,→,0.6980282003059983,True,18,-1,0,14
Y2-S2-274K23,3,362,PS,exp,38,←,left,←,0.8205441003665328,True,18,1,1,15
Y2-S2-274K23,3,363,PS,exp,32,↓,right,→,1.2324500996619463,False,17,-1,1,16
Y2-S2-274K23,4,364,AS,intra_train,40,↑,up,↑,1.0521329995244741,True,22,-,-,-
Y2-S2-274K23,4,365,AS,intra_train,45,←,left,←,0.6263726996257901,True,22,-,-,-
Y2-S2-274K23,4,366,AS,intra_train,35,↑,up,↑,1.7350487001240253,True,22,-,-,-
Y2-S2-274K23,4,367,AS,intra_train,32,→,right,→,0.7983710002154112,True,22,-,-,-
Y2-S2-274K23,4,368,AS,intra_train,46,←,left,←,0.6147681996226311,True,22,-,-,-
Y2-S2-274K23,4,369,AS,exp,49,↓,down,↓,0.8016504002735019,True,15,0,0,0
Y2-S2-274K23,4,370,AS,exp,30,↑,up,↑,1.2075506998226047,True,15,0,0,0
Y2-S2-274K23,4,371,AS,exp,31,↓,down,↓,0.7782191997393966,True,15,1,0,0
Y2-S2-274K23,4,372,AS,exp,49,→,right,→,0.5298533998429775,True,14,1,0,0
Y2-S2-274K23,4,373,AS,exp,26,↑,up,↑,0.8706235000863671,True,14,1,0,0
Y2-S2-274K23,4,374,AS,exp,39,←,left,←,0.6400778004899621,True,14,1,0,0
Y2-S2-274K23,4,375,AS,exp,50,↑,up,↑,0.7109073996543884,True,13,1,0,0
Y2-S2-274K23,4,376,AS,exp,28,←,left,←,0.5517611000686884,True,13,1,0,0
Y2-S2-274K23,4,377,AS,exp,48,→,right,→,0.7324861995875835,True,13,1,0,0
Y2-S2-274K23,4,378,AS,exp,34,↓,up,↑,0.6948145003989339,False,12,-1,1,1
Y2-S2-274K23,4,379,AS,exp,40,→,left,←,0.607846500352025,False,13,-1,0,1
Y2-S2-274K23,4,380,AS,exp,33,↑,down,↓,1.007634500041604,False,14,-1,0,1
Y2-S2-274K23,4,381,AS,exp,48,→,right,→,0.5872332993894815,True,15,-1,0,1
Y2-S2-274K23,4,382,AS,exp,32,←,left,←,0.6886994000524282,True,15,-1,0,1
Y2-S2-274K23,4,383,AS,exp,40,↓,right,→,0.8972650999203324,False,15,-1,0,1
Y2-S2-274K23,4,384,AS,exp,50,→,right,→,0.6392713999375701,True,16,-1,0,1
Y2-S2-274K23,4,385,AS,exp,46,↑,up,↑,1.2198148993775249,True,16,-1,0,1
Y2-S2-274K23,4,386,AS,exp,31,↓,down,↓,0.7593781007453799,True,16,1,1,2
Y2-S2-274K23,4,387,AS,exp,46,←,right,→,0.6742042992264032,False,15,-1,1,3
Y2-S2-274K23,4,388,AS,exp,41,↑,up,↑,1.035517499782145,True,16,-1,0,3
Y2-S2-274K23,4,389,AS,exp,28,←,left,←,0.5262550003826618,True,16,-1,0,3
Y2-S2-274K23,4,390,AS,exp,27,→,right,→,0.6614074995741248,True,16,1,1,4
Y2-S2-274K23,4,391,AS,exp,50,↓,down,↓,1.1938509000465274,True,15,1,0,4
Y2-S2-274K23,4,392,AS,exp,44,↑,up,↑,0.9108776999637485,True,15,1,0,4
Y2-S2-274K23,4,393,AS,exp,49,→,right,→,0.5007360000163317,True,15,1,0,4
Y2-S2-274K23,4,394,AS,exp,38,←,left,←,0.5592919001355767,True,14,1,0,4
Y2-S2-274K23,4,395,AS,exp,49,→,right,→,0.5655081998556852,True,14,1,0,4
Y2-S2-274K23,4,396,AS,exp,41,↓,down,↓,0.9173668008297682,True,14,1,0,4
Y2-S2-274K23,4,397,AS,exp,38,→,right,→,0.4929533004760742,True,13,1,0,4
Y2-S2-274K23,4,398,AS,exp,43,←,right,→,0.5489184008911252,False,13,-1,1,5
Y2-S2-274K23,4,399,AS,exp,48,↓,right,→,0.7735708002001047,False,14,-1,0,5
Y2-S2-274K23,4,400,AS,exp,46,↑,up,↑,1.0097508998587728,True,15,-1,0,5
Y2-S2-274K23,4,401,AS,exp,28,↓,down,↓,0.825828599743545,True,15,-1,0,5
Y2-S2-274K23,4,402,AS,exp,35,→,right,→,0.7565732998773456,True,15,1,1,6
Y2-S2-274K23,4,403,AS,exp,42,↑,down,↓,0.8300347002223134,False,14,-1,1,7
Y2-S2-274K23,4,404,AS,exp,45,→,right,→,0.468661199323833,True,15,-1,0,7
Y2-S2-274K23,4,405,AS,exp,47,↑,up,↑,0.7285738997161388,True,15,-1,0,7
Y2-S2-274K23,4,406,AS,exp,28,↓,down,↓,0.6414291001856327,True,15,1,1,8
Y2-S2-274K23,4,407,AS,exp,44,→,left,←,0.6181971998885274,False,14,-1,1,9
Y2-S2-274K23,4,408,AS,exp,36,↑,down,↓,0.8026572996750474,False,15,-1,0,9
Y2-S2-274K23,4,409,AS,exp,42,↓,down,↓,0.6245422996580601,True,16,-1,0,9
Y2-S2-274K23,4,410,AS,exp,45,→,no_key,no_letter,-1.0,False,16,-1,0,9
Y2-S2-274K23,4,411,AS,exp,41,↓,down,↓,0.8067477000877261,True,17,-1,0,9
Y2-S2-274K23,4,412,AS,exp,47,↑,up,↑,1.0429063998162746,True,17,-1,0,9
Y2-S2-274K23,4,413,AS,exp,43,→,right,→,0.8891663001850247,True,17,1,1,10
Y2-S2-274K23,4,414,AS,exp,26,↓,down,↓,0.6793149001896381,True,16,1,0,10
Y2-S2-274K23,4,415,AS,exp,41,←,right,→,0.7314347997307777,False,16,-1,1,11
Y2-S2-274K23,4,416,AS,exp,40,↑,down,↓,0.8717221999540925,False,17,-1,0,11
Y2-S2-274K23,4,417,AS,exp,37,←,left,←,0.6910490998998284,True,18,-1,0,11
Y2-S2-274K23,4,418,AS,exp,45,↓,down,↓,0.6778971003368497,True,18,-1,0,11
Y2-S2-274K23,4,419,AS,exp,37,→,right,→,0.7370277000591159,True,18,1,1,12
Y2-S2-274K23,4,420,AS,exp,42,↑,left,←,0.30057760048657656,False,17,-1,1,13
Y2-S2-274K23,4,421,AS,exp,29,→,right,→,0.5882629007101059,True,18,-1,0,13
Y2-S2-274K23,4,422,AS,exp,27,↑,up,↑,0.9335211999714375,True,18,-1,0,13
Y2-S2-274K23,4,423,AS,exp,36,→,right,→,0.4693996999412775,True,18,1,1,14
Y2-S2-274K23,4,424,AS,exp,50,↓,down,↓,0.7232971005141735,True,17,1,0,14
Y2-S2-274K23,4,425,AS,exp,50,↑,up,↑,0.8281103000044823,True,17,1,0,14
Y2-S2-274K23,4,426,AS,exp,28,↓,down,↓,0.6500609004870057,True,17,1,0,14
Y2-S2-274K23,4,427,AS,exp,41,←,left,←,0.8866865001618862,True,16,1,0,14
Y2-S2-274K23,4,428,AS,exp,33,→,right,→,0.49332530051469803,True,16,1,0,14
Y2-S2-274K23,4,429,AS,exp,41,←,left,←,0.452199999243021,True,16,1,0,14
Y2-S2-274K23,4,430,AS,exp,38,→,right,→,0.7393512995913625,True,15,1,0,14
Y2-S2-274K23,4,431,AS,exp,39,↓,down,↓,0.6445678006857634,True,15,1,0,14
Y2-S2-274K23,4,432,AS,exp,26,←,left,←,0.6786924004554749,True,15,1,0,14
Y2-S2-274K23,4,433,AS,exp,32,↓,down,↓,0.5758865000680089,True,14,1,0,14
Y2-S2-274K23,4,434,AS,exp,26,→,right,→,0.4900635005906224,True,14,1,0,14
Y2-S2-274K23,4,435,AS,exp,29,↓,right,→,0.9793901992961764,False,14,-1,1,15
Y2-S2-274K23,4,436,AS,exp,42,←,left,←,0.6843171995133162,True,15,-1,0,15
Y2-S2-274K23,4,437,AS,exp,25,↓,down,↓,0.7207502005621791,True,15,-1,0,15
Y2-S2-274K23,4,438,AS,exp,50,→,right,→,0.8450341001152992,True,15,1,1,16
Y2-S2-274K23,5,439,AS,intra_train,27,←,left,←,0.6309425998479128,True,22,-,-,-
Y2-S2-274K23,5,440,AS,intra_train,38,↑,up,↑,0.8922079000622034,True,22,-,-,-
Y2-S2-274K23,5,441,AS,intra_train,29,←,left,←,0.632422499358654,True,22,-,-,-
Y2-S2-274K23,5,442,AS,intra_train,26,↓,down,↓,0.874346200376749,True,22,-,-,-
Y2-S2-274K23,5,443,AS,intra_train,31,↑,no_key,no_letter,-1.0,False,22,-,-,-
Y2-S2-274K23,5,444,AS,exp,42,→,right,→,0.5045908000320196,True,15,0,0,0
Y2-S2-274K23,5,445,AS,exp,34,↑,right,→,1.1036532996222377,False,15,-1,0,0
Y2-S2-274K23,5,446,AS,exp,47,→,right,→,0.693342899903655,True,16,-1,0,0
Y2-S2-274K23,5,447,AS,exp,46,↑,up,↑,0.7340039992704988,True,16,-1,0,0
Y2-S2-274K23,5,448,AS,exp,29,→,right,→,0.7630320005118847,True,16,1,1,1
Y2-S2-274K23,5,449,AS,exp,27,←,right,→,0.7153428001329303,False,15,-1,1,2
Y2-S2-274K23,5,450,AS,exp,37,↑,up,↑,0.608173199929297,True,16,-1,0,2
Y2-S2-274K23,5,451,AS,exp,45,↓,right,→,0.8550698002800345,False,16,-1,0,2
Y2-S2-274K23,5,452,AS,exp,27,↑,up,↑,0.8298794999718666,True,17,-1,0,2
Y2-S2-274K23,5,453,AS,exp,29,→,right,→,0.6336167007684708,True,17,-1,0,2
Y2-S2-274K23,5,454,AS,exp,43,←,left,←,0.726612500846386,True,17,1,1,3
Y2-S2-274K23,5,455,AS,exp,43,→,right,→,0.6330637997016311,True,16,1,0,3
Y2-S2-274K23,5,456,AS,exp,31,←,left,←,0.9807720994576812,True,16,1,0,3
Y2-S2-274K23,5,457,AS,exp,31,→,right,→,0.5894392002373934,True,16,1,0,3
Y2-S2-274K23,5,458,AS,exp,35,↓,down,↓,0.9868189003318548,True,15,1,0,3
Y2-S2-274K23,5,459,AS,exp,34,←,right,→,0.9398834994062781,False,15,-1,1,4
Y2-S2-274K23,5,460,AS,exp,46,→,left,←,0.7640933999791741,False,16,-1,0,4
Y2-S2-274K23,5,461,AS,exp,44,←,left,←,0.6475594006478786,True,17,-1,0,4
Y2-S2-274K23,5,462,AS,exp,26,→,right,→,0.6567834001034498,True,17,-1,0,4
Y2-S2-274K23,5,463,AS,exp,41,↓,down,↓,1.0698528997600079,True,17,1,1,5
Y2-S2-274K23,5,464,AS,exp,38,↑,right,→,0.9831232000142336,False,16,-1,1,6
Y2-S2-274K23,5,465,AS,exp,43,←,left,←,0.5251732999458909,True,17,-1,0,6
Y2-S2-274K23,5,466,AS,exp,26,↑,right,→,1.0376179004088044,False,17,-1,0,6
Y2-S2-274K23,5,467,AS,exp,43,←,left,←,0.6566790994256735,True,18,-1,0,6
Y2-S2-274K23,5,468,AS,exp,33,↓,down,↓,0.9161890000104904,True,18,-1,0,6
Y2-S2-274K23,5,469,AS,exp,26,→,right,→,0.7679375000298023,True,18,1,1,7
Y2-S2-274K23,5,470,AS,exp,31,↑,down,↓,0.8181988000869751,False,17,-1,1,8
Y2-S2-274K23,5,471,AS,exp,45,←,left,←,0.7931038001552224,True,18,-1,0,8
Y2-S2-274K23,5,472,AS,exp,26,↓,right,→,0.7948561003431678,False,18,-1,0,8
Y2-S2-274K23,5,473,AS,exp,45,↑,left,←,0.5930029004812241,False,19,-1,0,8
Y2-S2-274K23,5,474,AS,exp,41,←,right,→,0.510487500578165,False,20,-1,0,8
Y2-S2-274K23,5,475,AS,exp,41,↑,left,←,0.6167902005836368,False,21,-1,0,8
Y2-S2-274K23,5,476,AS,exp,41,→,right,→,0.6136149000376463,True,22,-1,0,8
Y2-S2-274K23,5,477,AS,exp,48,↓,down,↓,0.7590093007311225,True,22,-1,0,8
Y2-S2-274K23,5,478,AS,exp,35,→,right,→,0.7805442996323109,True,22,1,1,9
Y2-S2-274K23,5,479,AS,exp,37,←,left,←,0.7033283999189734,True,21,1,0,9
Y2-S2-274K23,5,480,AS,exp,50,↑,up,↑,0.8707240000367165,True,21,1,0,9
Y2-S2-274K23,5,481,AS,exp,36,↓,down,↓,0.9452638002112508,True,21,1,0,9
Y2-S2-274K23,5,482,AS,exp,31,←,left,←,0.5646772999316454,True,20,1,0,9
Y2-S2-274K23,5,483,AS,exp,48,↑,up,↑,1.0388032998889685,True,20,1,0,9
Y2-S2-274K23,5,484,AS,exp,31,↓,down,↓,0.7704269997775555,True,20,1,0,9
Y2-S2-274K23,5,485,AS,exp,26,←,left,←,0.6434049000963569,True,19,1,0,9
Y2-S2-274K23,5,486,AS,exp,46,↑,up,↑,0.9474255004897714,True,19,1,0,9
Y2-S2-274K23,5,487,AS,exp,28,→,right,→,0.4952270006760955,True,19,1,0,9
Y2-S2-274K23,5,488,AS,exp,44,←,left,←,0.5451001999899745,True,18,1,0,9
Y2-S2-274K23,5,489,AS,exp,25,→,right,→,0.8564699999988079,True,18,1,0,9
Y2-S2-274K23,5,490,AS,exp,33,↓,down,↓,0.6129724998027086,True,18,1,0,9
Y2-S2-274K23,5,491,AS,exp,39,→,no_key,no_letter,-1.0,False,17,-1,1,10
Y2-S2-274K23,5,492,AS,exp,29,←,no_key,no_letter,-1.0,False,18,-1,0,10
Y2-S2-274K23,5,493,AS,exp,43,↓,down,↓,0.5056031001731753,True,19,-1,0,10
Y2-S2-274K23,5,494,AS,exp,46,↑,right,→,0.9251063000410795,False,19,-1,0,10
Y2-S2-274K23,5,495,AS,exp,36,↓,up,↑,1.0198833998292685,False,20,-1,0,10
Y2-S2-274K23,5,496,AS,exp,47,↑,up,↑,0.7426094003021717,True,21,-1,0,10
Y2-S2-274K23,5,497,AS,exp,26,→,right,→,0.5848421007394791,True,21,-1,0,10
Y2-S2-274K23,5,498,AS,exp,34,←,left,←,0.4339836994186044,True,21,1,1,11
Y2-S2-274K23,5,499,AS,exp,41,↑,up,↑,0.9320999002084136,True,20,1,0,11
Y2-S2-274K23,5,500,AS,exp,42,←,left,←,0.6871216995641589,True,20,1,0,11
Y2-S2-274K23,5,501,AS,exp,31,→,right,→,0.6586879994720221,True,20,1,0,11
Y2-S2-274K23,5,502,AS,exp,42,↓,down,↓,0.7665542000904679,True,19,1,0,11
Y2-S2-274K23,5,503,AS,exp,32,↑,up,↑,0.8727863002568483,True,19,1,0,11
Y2-S2-274K23,5,504,AS,exp,30,↓,down,↓,0.7074074996635318,True,19,1,0,11
Y2-S2-274K23,5,505,AS,exp,35,←,left,←,0.4958131993189454,True,18,1,0,11
Y2-S2-274K23,5,506,AS,exp,44,→,right,→,0.7125185001641512,True,18,1,0,11
Y2-S2-274K23,5,507,AS,exp,35,↑,left,←,1.0077555999159813,False,18,-1,1,12
Y2-S2-274K23,5,508,AS,exp,33,→,right,→,0.543809600174427,True,19,-1,0,12
Y2-S2-274K23,5,509,AS,exp,50,↑,up,↑,0.9233508994802833,True,19,-1,0,12
Y2-S2-274K23,5,510,AS,exp,47,←,left,←,0.8146917000412941,True,19,1,1,13
Y2-S2-274K23,5,511,AS,exp,33,→,right,→,0.5148585997521877,True,18,1,0,13
Y2-S2-274K23,5,512,AS,exp,38,↓,down,↓,0.7452619997784495,True,18,1,0,13
Y2-S2-274K23,5,513,AS,exp,36,←,left,←,0.7578748995438218,True,18,1,0,13
Y2-S2-274K23,5,514,AS,exp,27,↑,up,↑,1.013832999393344,True,17,1,0,13
Y2-S2-274K23,5,515,AS,exp,37,↓,down,↓,0.920218899846077,True,17,1,0,13
Y2-S2-274K23,5,516,AS,exp,35,↑,up,↑,0.8826128002256155,True,17,1,0,13
Y2-S2-274K23,5,517,AS,exp,39,→,right,→,0.5286967996507883,True,16,1,0,13
Y2-S2-274K23,5,518,AS,exp,35,←,left,←,0.47290730010718107,True,16,1,0,13
Y2-S2-274K23,5,519,AS,exp,28,→,right,→,0.5426152003929019,True,16,1,0,13
Y2-S2-274K23,5,520,AS,exp,35,↓,down,↓,0.6335581997409463,True,15,1,0,13
Y2-S2-274K23,5,521,AS,exp,39,↑,up,↑,0.8839074997231364,True,15,1,0,13
Y2-S2-274K23,5,522,AS,exp,37,←,left,←,0.7876832997426391,True,15,1,0,13
Y2-S2-274K23,5,523,AS,exp,37,↓,down,↓,0.6011522999033332,True,14,1,0,13
Y2-S2-274K23,5,524,AS,exp,48,↑,down,↓,0.64980040024966,False,14,-1,1,14
Y2-S2-274K23,5,525,AS,exp,28,→,right,→,0.7102887993678451,True,15,-1,0,14
Y2-S2-274K23,5,526,AS,exp,30,↑,up,↑,0.6323904003947973,True,15,-1,0,14
Y2-S2-274K23,5,527,AS,exp,38,→,right,→,0.45732139982283115,True,15,1,1,15
Y2-S2-274K23,5,528,AS,exp,43,←,left,←,0.5875495001673698,True,14,1,0,15
Y2-S2-274K23,5,529,AS,exp,44,↑,up,↑,0.6401680000126362,True,14,1,0,15
Y2-S2-274K23,5,530,AS,exp,25,↓,up,↑,0.9125898005440831,False,14,-1,1,16
Y2-S2-274K23,6,531,PS,intra_train,44,↑,up,↑,1.0568661000579596,True,16,-,-,-
Y2-S2-274K23,6,532,PS,intra_train,25,→,right,→,0.584778300486505,True,16,-,-,-
Y2-S2-274K23,6,533,PS,intra_train,41,←,left,←,0.8612979995086789,True,16,-,-,-
Y2-S2-274K23,6,534,PS,intra_train,42,↑,right,→,0.8226189995184541,False,16,-,-,-
Y2-S2-274K23,6,535,PS,intra_train,38,↓,down,↓,0.8592368997633457,True,16,-,-,-
Y2-S2-274K23,6,536,PS,exp,31,↑,up,↑,0.7318898998200893,True,11,0,0,0
Y2-S2-274K23,6,537,PS,exp,28,↓,down,↓,0.6119114002212882,True,11,0,0,0
Y2-S2-274K23,6,538,PS,exp,31,↑,up,↑,0.9898592000827193,True,11,1,0,0
Y2-S2-274K23,6,539,PS,exp,38,→,left,←,0.6428656000643969,False,10,-1,1,1
Y2-S2-274K23,6,540,PS,exp,27,↓,left,←,0.7977183992043138,False,11,-1,0,1
Y2-S2-274K23,6,541,PS,exp,48,←,left,←,0.5575138004496694,True,12,-1,0,1
Y2-S2-274K23,6,542,PS,exp,43,→,right,→,0.651515799574554,True,12,-1,0,1
Y2-S2-274K23,6,543,PS,exp,42,←,right,→,0.712537799961865,False,12,-1,0,1
Y2-S2-274K23,6,544,PS,exp,47,↓,down,↓,0.6754480991512537,True,13,-1,0,1
Y2-S2-274K23,6,545,PS,exp,48,↑,right,→,0.5150403995066881,False,13,-1,0,1
Y2-S2-274K23,6,546,PS,exp,49,↓,right,→,0.4630383001640439,False,14,-1,0,1
Y2-S2-274K23,6,547,PS,exp,41,←,right,→,1.8747346997261047,False,15,-1,0,1
Y2-S2-274K23,6,548,PS,exp,35,→,left,←,0.5928181996569037,False,16,-1,0,1
Y2-S2-274K23,6,549,PS,exp,49,←,left,←,0.9574688002467155,True,17,-1,0,1
Y2-S2-274K23,6,550,PS,exp,42,↑,up,↑,0.6807275004684925,True,17,-1,0,1
Y2-S2-274K23,6,551,PS,exp,36,←,left,←,0.7513694996014237,True,17,1,1,2
Y2-S2-274K23,6,552,PS,exp,28,↑,up,↑,0.9042240008711815,True,16,1,0,2
Y2-S2-274K23,6,553,PS,exp,38,↓,down,↓,0.7614233000203967,True,16,1,0,2
Y2-S2-274K23,6,554,PS,exp,40,←,left,←,0.5854292996227741,True,16,1,0,2
Y2-S2-274K23,6,555,PS,exp,43,→,right,→,0.5368846002966166,True,15,1,0,2
Y2-S2-274K23,6,556,PS,exp,40,↓,down,↓,0.7443314995616674,True,15,1,0,2
Y2-S2-274K23,6,557,PS,exp,34,→,right,→,0.6897942004725337,True,15,1,0,2
Y2-S2-274K23,6,558,PS,exp,49,←,left,←,0.7407280001789331,True,14,1,0,2
Y2-S2-274K23,6,559,PS,exp,37,↑,up,↑,0.8844697996973991,True,14,1,0,2
Y2-S2-274K23,6,560,PS,exp,29,↓,down,↓,0.7347440999001265,True,14,1,0,2
Y2-S2-274K23,6,561,PS,exp,30,→,down,↓,0.7514484999701381,False,13,-1,1,3
Y2-S2-274K23,6,562,PS,exp,41,↓,right,→,0.6171208992600441,False,14,-1,0,3
Y2-S2-274K23,6,563,PS,exp,48,←,right,→,0.7429718002676964,False,15,-1,0,3
Y2-S2-274K23,6,564,PS,exp,31,↓,down,↓,0.6757875001057982,True,16,-1,0,3
Y2-S2-274K23,6,565,PS,exp,42,→,right,→,0.5190647998824716,True,16,-1,0,3
Y2-S2-274K23,6,566,PS,exp,47,↓,right,→,0.5091914003714919,False,16,-1,0,3
Y2-S2-274K23,6,567,PS,exp,46,↑,up,↑,0.8700593002140522,True,17,-1,0,3
Y2-S2-274K23,6,568,PS,exp,47,←,left,←,0.5960459997877479,True,17,-1,0,3
Y2-S2-274K23,6,569,PS,exp,28,→,right,→,0.7880017003044486,True,17,1,1,4
Y2-S2-274K23,6,570,PS,exp,48,←,left,←,0.7701796004548669,True,16,1,0,4
Y2-S2-274K23,6,571,PS,exp,32,↑,up,↑,0.5924500999972224,True,16,1,0,4
Y2-S2-274K23,6,572,PS,exp,38,→,right,→,0.487809800542891,True,16,1,0,4
Y2-S2-274K23,6,573,PS,exp,31,←,left,←,0.4452692000195384,True,15,1,0,4
Y2-S2-274K23,6,574,PS,exp,33,↓,down,↓,0.7018325999379158,True,15,1,0,4
Y2-S2-274K23,6,575,PS,exp,47,↑,up,↑,0.8082809997722507,True,15,1,0,4
Y2-S2-274K23,6,576,PS,exp,30,→,right,→,1.5777629995718598,True,14,1,0,4
Y2-S2-274K23,6,577,PS,exp,26,↑,up,↑,0.9461727999150753,True,14,1,0,4
Y2-S2-274K23,6,578,PS,exp,27,↓,down,↓,0.6851662006229162,True,14,1,0,4
Y2-S2-274K23,6,579,PS,exp,49,←,left,←,0.6725343000143766,True,13,1,0,4
Y2-S2-274K23,6,580,PS,exp,32,→,right,→,0.6040709000080824,True,13,1,0,4
Y2-S2-274K23,6,581,PS,exp,43,↑,up,↑,0.5832483004778624,True,13,1,0,4
Y2-S2-274K23,6,582,PS,exp,30,←,left,←,0.5415096003562212,True,12,1,0,4
Y2-S2-274K23,6,583,PS,exp,31,→,left,←,0.5918229995295405,False,12,-1,1,5
Y2-S2-274K23,6,584,PS,exp,25,↓,right,→,0.7842214005067945,False,13,-1,0,5
Y2-S2-274K23,6,585,PS,exp,38,→,right,→,0.5405724002048373,True,14,-1,0,5
Y2-S2-274K23,6,586,PS,exp,31,←,left,←,0.748476599343121,True,14,-1,0,5
Y2-S2-274K23,6,587,PS,exp,37,↑,right,→,0.3672413006424904,False,14,-1,0,5
Y2-S2-274K23,6,588,PS,exp,48,→,right,→,0.6843464998528361,True,15,-1,0,5
Y2-S2-274K23,6,589,PS,exp,45,↑,up,↑,0.8048816006630659,True,15,-1,0,5
Y2-S2-274K23,6,590,PS,exp,48,↓,down,↓,0.890123600140214,True,15,1,1,6
Y2-S2-274K23,6,591,PS,exp,34,←,left,←,0.711986199952662,True,14,1,0,6
Y2-S2-274K23,6,592,PS,exp,27,→,right,→,0.9421595996245742,True,14,1,0,6
Y2-S2-274K23,6,593,PS,exp,41,↓,down,↓,0.9815098997205496,True,14,1,0,6
Y2-S2-274K23,6,594,PS,exp,30,←,right,→,0.6248546000570059,False,13,-1,1,7
Y2-S2-274K23,6,595,PS,exp,30,↓,down,↓,0.8593124002218246,True,14,-1,0,7
Y2-S2-274K23,6,596,PS,exp,25,←,left,←,0.7953201001510024,True,14,-1,0,7
Y2-S2-274K23,6,597,PS,exp,49,↓,down,↓,0.8274470996111631,True,14,1,1,8
Y2-S2-274K23,6,598,PS,exp,41,←,left,←,0.47666169982403517,True,13,1,0,8
Y2-S2-274K23,6,599,PS,exp,49,→,right,→,0.8655377998948097,True,13,1,0,8
Y2-S2-274K23,6,600,PS,exp,26,←,left,←,0.5175649002194405,True,13,1,0,8
Y2-S2-274K23,6,601,PS,exp,27,↓,down,↓,0.6717976992949843,True,12,1,0,8
Y2-S2-274K23,6,602,PS,exp,34,→,no_key,no_letter,-1.0,False,12,-1,1,9
Y2-S2-274K23,6,603,PS,exp,28,←,left,←,0.6295627001672983,True,13,-1,0,9
Y2-S2-274K23,6,604,PS,exp,40,→,right,→,0.4940964998677373,True,13,-1,0,9
Y2-S2-274K23,6,605,PS,exp,29,↓,down,↓,0.6868012994527817,True,13,1,1,10
Y2-S2-274K23,6,606,PS,exp,35,↑,up,↑,0.9157034000381827,True,12,1,0,10
Y2-S2-274K23,6,607,PS,exp,38,↓,down,↓,0.8339420007541776,True,12,1,0,10
Y2-S2-274K23,6,608,PS,exp,42,↑,right,→,0.5125973001122475,False,12,-1,1,11
Y2-S2-274K23,6,609,PS,exp,42,↓,down,↓,0.6401638993993402,True,13,-1,0,11
Y2-S2-274K23,6,610,PS,exp,48,↑,left,←,0.5470721004530787,False,13,-1,0,11
Y2-S2-274K23,6,611,PS,exp,35,←,left,←,0.5736985001713037,True,14,-1,0,11
Y2-S2-274K23,6,612,PS,exp,29,↓,down,↓,0.8263232000172138,True,14,-1,0,11
Y2-S2-274K23,6,613,PS,exp,29,←,left,←,0.8145770998671651,True,14,1,1,12
Y2-S2-274K23,6,614,PS,exp,26,↓,down,↓,0.6503165001049638,True,13,1,0,12
Y2-S2-274K23,6,615,PS,exp,49,←,left,←,0.5452933004125953,True,13,1,0,12
Y2-S2-274K23,6,616,PS,exp,45,↑,up,↑,0.8819623002782464,True,13,1,0,12
Y2-S2-274K23,6,617,PS,exp,32,↓,down,↓,0.6726232999935746,True,12,1,0,12
Y2-S2-274K23,6,618,PS,exp,33,→,right,→,0.5960365999490023,True,12,1,0,12
Y2-S2-274K23,6,619,PS,exp,31,←,left,←,0.7218118999153376,True,12,1,0,12
Y2-S2-274K23,6,620,PS,exp,25,↑,up,↑,0.7432044008746743,True,11,1,0,12
Y2-S2-274K23,6,621,PS,exp,32,→,right,→,0.4548315005376935,True,11,1,0,12
Y2-S2-274K23,6,622,PS,exp,32,←,right,→,0.478468400426209,False,11,-1,1,13
Y2-S2-274K23,6,623,PS,exp,41,→,right,→,0.5143749006092548,True,12,-1,0,13
Y2-S2-274K23,6,624,PS,exp,34,↓,down,↓,0.7813050001859665,True,12,-1,0,13
Y2-S2-274K23,6,625,PS,exp,50,↑,up,↑,0.7808138001710176,True,12,1,1,14
Y2-S2-274K23,6,626,PS,exp,39,↓,down,↓,0.7750483993440866,True,11,1,0,14
Y2-S2-274K23,6,627,PS,exp,35,↑,right,→,0.7111216997727752,False,11,-1,1,15
Y2-S2-274K23,6,628,PS,exp,42,↓,down,↓,0.722210799343884,True,12,-1,0,15
Y2-S2-274K23,6,629,PS,exp,34,↑,right,→,0.609167099930346,False,12,-1,0,15
Y2-S2-274K23,6,630,PS,exp,43,↓,down,↓,0.5793039007112384,True,13,-1,0,15
Y2-S2-274K23,6,631,PS,exp,42,↑,up,↑,0.6322547998279333,True,13,-1,0,15
Y2-S2-274K23,6,632,PS,exp,26,→,right,→,0.6016104994341731,True,13,1,1,16
Y2-S2-274K23,7,633,PS,intra_train,35,↑,left,←,1.040548900142312,False,16,-,-,-
Y2-S2-274K23,7,634,PS,intra_train,28,→,right,→,0.6991702998057008,True,16,-,-,-
Y2-S2-274K23,7,635,PS,intra_train,37,↑,up,↑,0.6526822997257113,True,16,-,-,-
Y2-S2-274K23,7,636,PS,intra_train,27,→,right,→,0.6248989999294281,True,16,-,-,-
Y2-S2-274K23,7,637,PS,intra_train,40,←,left,←,0.655888699926436,True,16,-,-,-
Y2-S2-274K23,7,638,PS,exp,29,↓,down,↓,0.7260902002453804,True,11,0,0,0
Y2-S2-274K23,7,639,PS,exp,30,↑,up,↑,0.6382047003135085,True,11,0,0,0
Y2-S2-274K23,7,640,PS,exp,31,→,right,→,0.5966222994029522,True,11,1,0,0
Y2-S2-274K23,7,641,PS,exp,49,↓,right,→,0.7143761003389955,False,10,-1,1,1
Y2-S2-274K23,7,642,PS,exp,44,↑,left,←,0.49295780062675476,False,11,-1,0,1
Y2-S2-274K23,7,643,PS,exp,30,←,left,←,0.535831299610436,True,12,-1,0,1
Y2-S2-274K23,7,644,PS,exp,33,→,left,←,0.38996840082108974,False,12,-1,0,1
Y2-S2-274K23,7,645,PS,exp,35,↑,up,↑,0.8880166998133063,True,13,-1,0,1
Y2-S2-274K23,7,646,PS,exp,34,↓,down,↓,0.6725392993539572,True,13,-1,0,1
Y2-S2-274K23,7,647,PS,exp,36,→,right,→,0.45630079973489046,True,13,1,1,2
Y2-S2-274K23,7,648,PS,exp,45,←,left,←,0.4204249996691942,True,12,1,0,2
Y2-S2-274K23,7,649,PS,exp,37,↓,right,→,0.6812808001413941,False,12,-1,1,3
Y2-S2-274K23,7,650,PS,exp,33,←,left,←,0.5141808995977044,True,13,-1,0,3
Y2-S2-274K23,7,651,PS,exp,34,→,right,→,0.5108991004526615,True,13,-1,0,3
Y2-S2-274K23,7,652,PS,exp,47,↑,up,↑,0.46914799977093935,True,13,1,1,4
Y2-S2-274K23,7,653,PS,exp,43,→,right,→,1.1416653003543615,True,12,1,0,4
Y2-S2-274K23,7,654,PS,exp,41,←,left,←,0.42500360030680895,True,12,1,0,4
Y2-S2-274K23,7,655,PS,exp,37,↑,up,↑,0.7063410002738237,True,12,1,0,4
Y2-S2-274K23,7,656,PS,exp,27,↓,down,↓,0.6895907996222377,True,11,1,0,4
Y2-S2-274K23,7,657,PS,exp,45,←,right,→,0.6292309006676078,False,11,-1,1,5
Y2-S2-274K23,7,658,PS,exp,28,→,left,←,0.70248410012573,False,12,-1,0,5
Y2-S2-274K23,7,659,PS,exp,35,↓,down,↓,0.7716588992625475,True,13,-1,0,5
Y2-S2-274K23,7,660,PS,exp,45,←,left,←,0.5535601004958153,True,13,-1,0,5
Y2-S2-274K23,7,661,PS,exp,31,→,right,→,0.7617594003677368,True,13,1,1,6
Y2-S2-274K23,7,662,PS,exp,28,←,left,←,0.809659699909389,True,12,1,0,6
Y2-S2-274K23,7,663,PS,exp,48,↓,down,↓,0.9128852002322674,True,12,1,0,6
Y2-S2-274K23,7,664,PS,exp,43,←,left,←,0.6568563003093004,True,12,1,0,6
Y2-S2-274K23,7,665,PS,exp,48,↑,right,→,0.7510466994717717,False,11,-1,1,7
Y2-S2-274K23,7,666,PS,exp,40,↓,down,↓,0.7467157002538443,True,12,-1,0,7
Y2-S2-274K23,7,667,PS,exp,36,→,right,→,0.5268144002184272,True,12,-1,0,7
Y2-S2-274K23,7,668,PS,exp,46,↓,down,↓,0.6924262996762991,True,12,1,1,8
Y2-S2-274K23,7,669,PS,exp,40,→,right,→,0.5382142001762986,True,11,1,0,8
Y2-S2-274K23,7,670,PS,exp,25,↑,down,↓,0.8889426002278924,False,11,-1,1,9
Y2-S2-274K23,7,671,PS,exp,37,↓,up,↑,0.7766920998692513,False,12,-1,0,9
Y2-S2-274K23,7,672,PS,exp,49,↑,right,→,0.5686294008046389,False,13,-1,0,9
Y2-S2-274K23,7,673,PS,exp,33,←,left,←,0.6085871001705527,True,14,-1,0,9
Y2-S2-274K23,7,674,PS,exp,44,↓,no_key,no_letter,-1.0,False,14,-1,0,9
Y2-S2-274K23,7,675,PS,exp,40,←,left,←,1.4597261007875204,True,15,-1,0,9
Y2-S2-274K23,7,676,PS,exp,50,→,right,→,0.6372549002990127,True,15,-1,0,9
Y2-S2-274K23,7,677,PS,exp,38,↓,down,↓,0.6738668000325561,True,15,1,1,10
Y2-S2-274K23,7,678,PS,exp,49,↑,up,↑,1.1222172994166613,True,14,1,0,10
Y2-S2-274K23,7,679,PS,exp,27,→,right,→,0.6141805993393064,True,14,1,0,10
Y2-S2-274K23,7,680,PS,exp,45,↑,up,↑,0.9676081007346511,True,14,1,0,10
Y2-S2-274K23,7,681,PS,exp,48,↓,down,↓,0.6563120000064373,True,13,1,0,10
Y2-S2-274K23,7,682,PS,exp,29,↑,right,→,0.5382297001779079,False,13,-1,1,11
Y2-S2-274K23,7,683,PS,exp,45,←,right,→,0.41799649968743324,False,14,-1,0,11
Y2-S2-274K23,7,684,PS,exp,42,↑,right,→,0.42144390009343624,False,15,-1,0,11
Y2-S2-274K23,7,685,PS,exp,40,←,left,←,0.44580399990081787,True,16,-1,0,11
Y2-S2-274K23,7,686,PS,exp,37,↑,right,→,0.31710230000317097,False,16,-1,0,11
Y2-S2-274K23,7,687,PS,exp,48,↓,down,↓,0.592561099678278,True,17,-1,0,11
Y2-S2-274K23,7,688,PS,exp,36,→,right,→,0.4602440996095538,True,17,-1,0,11
Y2-S2-274K23,7,689,PS,exp,42,↓,down,↓,0.6700078994035721,True,17,1,1,12
Y2-S2-274K23,7,690,PS,exp,40,→,right,→,0.47072659991681576,True,16,1,0,12
Y2-S2-274K23,7,691,PS,exp,47,↓,down,↓,0.6409375993534923,True,16,1,0,12
Y2-S2-274K23,7,692,PS,exp,50,←,left,←,0.5223775003105402,True,16,1,0,12
Y2-S2-274K23,7,693,PS,exp,29,→,right,→,0.367229700088501,True,15,1,0,12
Y2-S2-274K23,7,694,PS,exp,50,↓,down,↓,0.8254492999985814,True,15,1,0,12
Y2-S2-274K23,7,695,PS,exp,48,↑,up,↑,0.6609908007085323,True,15,1,0,12
Y2-S2-274K23,7,696,PS,exp,47,←,left,←,0.4973668996244669,True,14,1,0,12
Y2-S2-274K23,7,697,PS,exp,50,↑,up,↑,0.4967109002172947,True,14,1,0,12
Y2-S2-274K23,7,698,PS,exp,45,↓,right,→,0.4262260999530554,False,14,-1,1,13
Y2-S2-274K23,7,699,PS,exp,28,↑,up,↑,0.4578411001712084,True,15,-1,0,13
Y2-S2-274K23,7,700,PS,exp,29,→,right,→,0.5373499002307653,True,15,-1,0,13
Y2-S2-274K23,7,701,PS,exp,27,↑,up,↑,0.4773105997592211,True,15,1,1,14
Y2-S2-274K23,7,702,PS,exp,49,↓,right,→,0.3338746000081301,False,14,-1,1,15
Y2-S2-274K23,7,703,PS,exp,39,←,right,→,0.28383140079677105,False,15,-1,0,15
Y2-S2-274K23,7,704,PS,exp,36,↑,up,↑,0.72296620067209,True,16,-1,0,15
Y2-S2-274K23,7,705,PS,exp,25,←,left,←,0.5069535002112389,True,16,-1,0,15
Y2-S2-274K23,7,706,PS,exp,38,→,right,→,1.1830446999520063,True,16,1,1,16
Y2-S2-274K23,8,707,AS,intra_train,48,←,left,←,0.6092991000041366,True,22,-,-,-
Y2-S2-274K23,8,708,AS,intra_train,30,↓,down,↓,0.925343899987638,True,22,-,-,-
Y2-S2-274K23,8,709,AS,intra_train,36,→,right,→,0.6680441005155444,True,22,-,-,-
Y2-S2-274K23,8,710,AS,intra_train,43,↓,down,↓,0.7552575999870896,True,22,-,-,-
Y2-S2-274K23,8,711,AS,intra_train,25,→,right,→,0.7549418993294239,True,22,-,-,-
Y2-S2-274K23,8,712,AS,exp,50,←,left,←,0.5028760004788637,True,15,0,0,0
Y2-S2-274K23,8,713,AS,exp,29,↑,up,↑,0.9542731996625662,True,15,0,0,0
Y2-S2-274K23,8,714,AS,exp,29,↓,down,↓,0.7194968005642295,True,15,1,0,0
Y2-S2-274K23,8,715,AS,exp,42,←,right,→,0.5446297004818916,False,14,-1,1,1
Y2-S2-274K23,8,716,AS,exp,27,↑,up,↑,0.9065308999270201,True,15,-1,0,1
Y2-S2-274K23,8,717,AS,exp,42,↓,down,↓,0.6122470004484057,True,15,-1,0,1
Y2-S2-274K23,8,718,AS,exp,44,↑,up,↑,0.8127188999205828,True,15,1,1,2
Y2-S2-274K23,8,719,AS,exp,38,→,right,→,0.6980731999501586,True,14,1,0,2
Y2-S2-274K23,8,720,AS,exp,43,↑,down,↓,0.6911218008026481,False,14,-1,1,3
Y2-S2-274K23,8,721,AS,exp,27,→,right,→,0.5695666996762156,True,15,-1,0,3
Y2-S2-274K23,8,722,AS,exp,45,↓,down,↓,0.6876576999202371,True,15,-1,0,3
Y2-S2-274K23,8,723,AS,exp,26,↑,up,↑,1.0650409003719687,True,15,1,1,4
Y2-S2-274K23,8,724,AS,exp,35,→,no_key,no_letter,-1.0,False,14,-1,1,5
Y2-S2-274K23,8,725,AS,exp,26,↑,right,→,0.847409799695015,False,15,-1,0,5
Y2-S2-274K23,8,726,AS,exp,35,↓,down,↓,0.6204059002920985,True,16,-1,0,5
Y2-S2-274K23,8,727,AS,exp,43,←,left,←,0.7241725996136665,True,16,-1,0,5
Y2-S2-274K23,8,728,AS,exp,41,→,right,→,0.6296361004933715,True,16,1,1,6
Y2-S2-274K23,8,729,AS,exp,25,↓,down,↓,0.8645882001146674,True,15,1,0,6
Y2-S2-274K23,8,730,AS,exp,46,→,right,→,0.5910253999754786,True,15,1,0,6
Y2-S2-274K23,8,731,AS,exp,31,←,right,→,0.5623690001666546,False,15,-1,1,7
Y2-S2-274K23,8,732,AS,exp,48,→,right,→,0.48865240067243576,True,16,-1,0,7
Y2-S2-274K23,8,733,AS,exp,50,↑,left,←,1.0193213997408748,False,16,-1,0,7
Y2-S2-274K23,8,734,AS,exp,33,↓,down,↓,0.6207486996427178,True,17,-1,0,7
Y2-S2-274K23,8,735,AS,exp,44,→,right,→,0.5533793997019529,True,17,-1,0,7
Y2-S2-274K23,8,736,AS,exp,41,←,right,→,0.6189555004239082,False,17,-1,0,7
Y2-S2-274K23,8,737,AS,exp,31,→,right,→,0.5825418997555971,True,18,-1,0,7
Y2-S2-274K23,8,738,AS,exp,46,←,left,←,0.48226379975676537,True,18,-1,0,7
Y2-S2-274K23,8,739,AS,exp,43,↑,up,↑,0.7244114996865392,True,18,1,1,8
Y2-S2-274K23,8,740,AS,exp,45,→,right,→,1.3801386998966336,True,17,1,0,8
Y2-S2-274K23,8,741,AS,exp,29,↑,up,↑,0.6720166997984052,True,17,1,0,8
Y2-S2-274K23,8,742,AS,exp,26,←,left,←,0.4839893998578191,True,17,1,0,8
Y2-S2-274K23,8,743,AS,exp,50,↑,up,↑,0.6278077000752091,True,16,1,0,8
Y2-S2-274K23,8,744,AS,exp,49,←,left,←,0.5779833002015948,True,16,1,0,8
Y2-S2-274K23,8,745,AS,exp,35,↑,up,↑,0.7051635999232531,True,16,1,0,8
Y2-S2-274K23,8,746,AS,exp,30,←,left,←,0.5805730000138283,True,15,1,0,8
Y2-S2-274K23,8,747,AS,exp,37,↓,right,→,0.9176357993856072,False,15,-1,1,9
Y2-S2-274K23,8,748,AS,exp,36,↑,up,↑,0.8394710998982191,True,16,-1,0,9
Y2-S2-274K23,8,749,AS,exp,28,→,right,→,1.2553192004561424,True,16,-1,0,9
Y2-S2-274K23,8,750,AS,exp,41,↓,down,↓,0.7839767998084426,True,16,1,1,10
Y2-S2-274K23,8,751,AS,exp,37,↑,up,↑,0.9891945999115705,True,15,1,0,10
Y2-S2-274K23,8,752,AS,exp,42,→,right,→,0.6783362999558449,True,15,1,0,10
Y2-S2-274K23,8,753,AS,exp,25,←,left,←,0.46197389997541904,True,15,1,0,10
Y2-S2-274K23,8,754,AS,exp,43,↓,right,→,0.7403931999579072,False,14,-1,1,11
Y2-S2-274K23,8,755,AS,exp,46,↑,up,↑,0.7124947998672724,True,15,-1,0,11
Y2-S2-274K23,8,756,AS,exp,37,→,right,→,0.435067699290812,True,15,-1,0,11
Y2-S2-274K23,8,757,AS,exp,40,↑,right,→,0.5709987003356218,False,15,-1,0,11
Y2-S2-274K23,8,758,AS,exp,33,←,left,←,0.5793110001832247,True,16,-1,0,11
Y2-S2-274K23,8,759,AS,exp,29,→,right,→,0.40091409999877214,True,16,-1,0,11
Y2-S2-274K23,8,760,AS,exp,46,↓,down,↓,0.9602797003462911,True,16,1,1,12
Y2-S2-274K23,8,761,AS,exp,31,←,left,←,0.6227812003344297,True,15,1,0,12
Y2-S2-274K23,8,762,AS,exp,45,↑,up,↑,0.8720737006515265,True,15,1,0,12
Y2-S2-274K23,8,763,AS,exp,27,←,left,←,0.4628304000943899,True,15,1,0,12
Y2-S2-274K23,8,764,AS,exp,48,→,right,→,0.6878404999151826,True,14,1,0,12
Y2-S2-274K23,8,765,AS,exp,38,↑,right,→,0.7749312007799745,False,14,-1,1,13
Y2-S2-274K23,8,766,AS,exp,33,→,right,→,0.4936311999335885,True,15,-1,0,13
Y2-S2-274K23,8,767,AS,exp,25,←,left,←,0.7436851998791099,True,15,-1,0,13
Y2-S2-274K23,8,768,AS,exp,27,→,right,→,0.5883608004078269,True,15,1,1,14
Y2-S2-274K23,8,769,AS,exp,41,↑,right,→,0.7436278993263841,False,14,-1,1,15
Y2-S2-274K23,8,770,AS,exp,50,←,left,←,0.5105435000732541,True,15,-1,0,15
Y2-S2-274K23,8,771,AS,exp,35,↓,left,←,0.7259394004940987,False,15,-1,0,15
Y2-S2-274K23,8,772,AS,exp,49,→,left,←,0.44638589955866337,False,16,-1,0,15
Y2-S2-274K23,8,773,AS,exp,34,↑,right,→,0.5471644001081586,False,17,-1,0,15
Y2-S2-274K23,8,774,AS,exp,40,←,left,←,0.5449163997545838,True,18,-1,0,15
Y2-S2-274K23,8,775,AS,exp,44,↓,down,↓,0.8383357003331184,True,18,-1,0,15
Y2-S2-274K23,8,776,AS,exp,30,→,right,→,0.5206639003008604,True,18,1,1,16
