PART_ID,Block_no,Trial_no,Block_type,Trial_type,CSI,Stim_letter,Key_pressed,letter_choose,Rt,Corr,Stimulus Time,Level,Reversal,Revs_count
Y2-S2-090M19,1,1,PS,train,27,↑,up,↑,0.8205034001730382,True,30,-,-,-
Y2-S2-090M19,1,2,PS,train,26,←,left,←,0.5838893000036478,True,30,-,-,-
Y2-S2-090M19,1,3,PS,train,26,→,right,→,0.6171033000573516,True,30,-,-,-
Y2-S2-090M19,1,4,PS,train,41,←,left,←,0.46787629975005984,True,30,-,-,-
Y2-S2-090M19,1,5,PS,train,48,↓,down,↓,0.6829173001460731,True,30,-,-,-
Y2-S2-090M19,1,6,PS,train,30,←,left,←,0.46788120036944747,True,30,-,-,-
Y2-S2-090M19,1,7,PS,train,39,↑,up,↑,0.5508303996175528,True,30,-,-,-
Y2-S2-090M19,1,8,PS,train,35,↓,down,↓,0.7112164003774524,True,30,-,-,-
Y2-S2-090M19,1,9,PS,train,41,↑,up,↑,0.6007340000942349,True,30,-,-,-
Y2-S2-090M19,1,10,PS,train,27,↓,down,↓,0.6171610997989774,True,30,-,-,-
Y2-S2-090M19,2,11,AS,train,45,↑,up,↑,0.6013567000627518,True,45,-,-,-
Y2-S2-090M19,2,12,AS,train,30,↓,up,↑,0.4344693999737501,False,45,-,-,-
Y2-S2-090M19,2,13,AS,train,50,↑,up,↑,1.3709416999481618,True,45,-,-,-
Y2-S2-090M19,2,14,AS,train,32,↓,down,↓,0.6841424000449479,True,45,-,-,-
Y2-S2-090M19,2,15,AS,train,30,↑,up,↑,0.7176803001202643,True,45,-,-,-
Y2-S2-090M19,2,16,AS,train,34,←,left,←,0.5177704999223351,True,45,-,-,-
Y2-S2-090M19,2,17,AS,train,30,↓,down,↓,0.8008322999812663,True,45,-,-,-
Y2-S2-090M19,2,18,AS,train,49,←,left,←,0.6845240001566708,True,45,-,-,-
Y2-S2-090M19,2,19,AS,train,43,↓,down,↓,0.4344597002491355,True,45,-,-,-
Y2-S2-090M19,2,20,AS,train,34,←,left,←,0.5509430998936296,True,45,-,-,-
Y2-S2-090M19,-,21,PS,adaptive,40,→,up,↑,1.058491200208664,False,10,-1,0,0
Y2-S2-090M19,-,22,PS,adaptive,25,←,left,←,0.6012340998277068,True,11,-1,0,0
Y2-S2-090M19,-,23,PS,adaptive,25,↓,down,↓,0.5196966999210417,True,11,-1,0,0
Y2-S2-090M19,-,24,PS,adaptive,34,↑,up,↑,0.5724706002511084,True,11,1,1,1
Y2-S2-090M19,-,25,PS,adaptive,37,←,left,←,0.614480999764055,True,10,1,0,1
Y2-S2-090M19,-,26,PS,adaptive,29,↓,down,↓,0.6194261997006834,True,10,1,0,1
Y2-S2-090M19,-,27,PS,adaptive,35,↑,up,↑,1.1589199998416007,True,10,1,0,1
Y2-S2-090M19,-,28,PS,adaptive,30,→,right,→,0.7354784999042749,True,9,1,0,1
Y2-S2-090M19,-,29,PS,adaptive,34,↑,up,↑,0.47703450033441186,True,9,1,0,1
Y2-S2-090M19,-,30,PS,adaptive,35,→,right,→,0.5573054002597928,True,9,1,0,1
Y2-S2-090M19,-,31,PS,adaptive,32,↓,down,↓,0.6629762998782098,True,8,1,0,1
Y2-S2-090M19,-,32,PS,adaptive,47,→,right,→,0.6429506000131369,True,8,1,0,1
Y2-S2-090M19,-,33,PS,adaptive,43,↑,up,↑,0.46930780028924346,True,8,1,0,1
Y2-S2-090M19,-,34,PS,adaptive,39,←,up,↑,0.6881635002791882,False,7,-1,1,2
Y2-S2-090M19,-,35,PS,adaptive,30,↓,up,↑,0.5507867000997066,False,8,-1,0,2
Y2-S2-090M19,-,36,PS,adaptive,37,↑,up,↑,0.5267460998147726,True,9,-1,0,2
Y2-S2-090M19,-,37,PS,adaptive,34,↓,up,↑,0.7785779996775091,False,9,-1,0,2
Y2-S2-090M19,-,38,PS,adaptive,46,←,left,←,0.4401968000456691,True,10,-1,0,2
Y2-S2-090M19,-,39,PS,adaptive,36,↑,up,↑,0.5893870000727475,True,10,-1,0,2
Y2-S2-090M19,-,40,PS,adaptive,29,↓,left,←,0.786533699836582,False,10,-1,0,2
Y2-S2-090M19,-,41,PS,adaptive,48,→,left,←,0.7533917999826372,False,11,-1,0,2
Y2-S2-090M19,-,42,PS,adaptive,25,←,up,↑,0.017542299814522266,False,12,-1,0,2
Y2-S2-090M19,-,43,PS,adaptive,26,↓,down,↓,0.6929186000488698,True,13,-1,0,2
Y2-S2-090M19,-,44,PS,adaptive,48,→,right,→,0.643401499837637,True,13,-1,0,2
Y2-S2-090M19,-,45,PS,adaptive,36,↑,up,↑,0.6048886999487877,True,13,1,1,3
Y2-S2-090M19,-,46,PS,adaptive,27,←,left,←,0.6175537998788059,True,12,1,0,3
Y2-S2-090M19,-,47,PS,adaptive,46,↓,down,↓,0.4766116999089718,True,12,1,0,3
Y2-S2-090M19,-,48,PS,adaptive,40,↑,up,↑,0.5502992998808622,True,12,1,0,3
Y2-S2-090M19,-,49,PS,adaptive,38,→,right,→,1.1361743998713791,True,11,1,0,3
Y2-S2-090M19,-,50,PS,adaptive,45,←,left,←,1.2330885003320873,True,11,1,0,3
Y2-S2-090M19,-,51,PS,adaptive,35,↓,down,↓,1.1474111997522414,True,11,1,0,3
Y2-S2-090M19,-,52,PS,adaptive,43,←,left,←,1.24711519991979,True,10,1,0,3
Y2-S2-090M19,-,53,PS,adaptive,26,→,right,→,1.1820919001474977,True,10,1,0,3
Y2-S2-090M19,-,54,PS,adaptive,36,←,left,←,1.0732165002264082,True,10,1,0,3
Y2-S2-090M19,-,55,PS,adaptive,36,↓,up,↑,1.4623647998087108,False,9,-1,1,4
Y2-S2-090M19,-,56,AS,adaptive,36,→,right,→,1.3021294004283845,True,20,0,0,0
Y2-S2-090M19,-,57,AS,adaptive,50,←,left,←,0.8382758996449411,True,20,0,0,0
Y2-S2-090M19,-,58,AS,adaptive,43,↑,left,←,0.8287657001055777,False,20,-1,0,0
Y2-S2-090M19,-,59,AS,adaptive,42,←,left,←,1.1672141999006271,True,21,-1,0,0
Y2-S2-090M19,-,60,AS,adaptive,25,↑,up,↑,0.7419353001751006,True,21,-1,0,0
Y2-S2-090M19,-,61,AS,adaptive,44,←,left,←,0.46696130000054836,True,21,1,1,1
Y2-S2-090M19,-,62,AS,adaptive,43,↑,up,↑,0.6119379000738263,True,20,1,0,1
Y2-S2-090M19,-,63,AS,adaptive,34,↓,down,↓,0.7857552003115416,True,20,1,0,1
Y2-S2-090M19,-,64,AS,adaptive,28,←,left,←,0.745671299751848,True,20,1,0,1
Y2-S2-090M19,-,65,AS,adaptive,28,↑,up,↑,0.48795410012826324,True,19,1,0,1
Y2-S2-090M19,-,66,AS,adaptive,39,←,left,←,0.6843889998272061,True,19,1,0,1
Y2-S2-090M19,-,67,AS,adaptive,31,↓,down,↓,0.7074460997246206,True,19,1,0,1
Y2-S2-090M19,-,68,AS,adaptive,35,←,left,←,0.5781057002022862,True,18,1,0,1
Y2-S2-090M19,-,69,AS,adaptive,26,↑,up,↑,1.3222111002542078,True,18,1,0,1
Y2-S2-090M19,-,70,AS,adaptive,46,←,left,←,0.4339658999815583,True,18,1,0,1
Y2-S2-090M19,-,71,AS,adaptive,45,↑,up,↑,0.4008670998737216,True,17,1,0,1
Y2-S2-090M19,-,72,AS,adaptive,46,←,left,←,0.6577063999138772,True,17,1,0,1
Y2-S2-090M19,-,73,AS,adaptive,48,↑,up,↑,0.7330970000475645,True,17,1,0,1
Y2-S2-090M19,-,74,AS,adaptive,42,↓,up,↑,0.7656538998708129,False,16,-1,1,2
Y2-S2-090M19,-,75,AS,adaptive,50,→,right,→,1.252402599900961,True,17,-1,0,2
Y2-S2-090M19,-,76,AS,adaptive,25,↓,down,↓,0.5797684998251498,True,17,-1,0,2
Y2-S2-090M19,-,77,AS,adaptive,43,↑,up,↑,0.611765000037849,True,17,1,1,3
Y2-S2-090M19,-,78,AS,adaptive,41,↓,down,↓,0.879838100168854,True,16,1,0,3
Y2-S2-090M19,-,79,AS,adaptive,40,→,right,→,0.6610329998657107,True,16,1,0,3
Y2-S2-090M19,-,80,AS,adaptive,31,←,left,←,0.6408124002628028,True,16,1,0,3
Y2-S2-090M19,-,81,AS,adaptive,32,→,right,→,0.47001729998737574,True,15,1,0,3
Y2-S2-090M19,-,82,AS,adaptive,27,↓,down,↓,0.6111423000693321,True,15,1,0,3
Y2-S2-090M19,-,83,AS,adaptive,48,→,left,←,0.7324079000391066,False,15,-1,1,4
Y2-S2-090M19,1,84,AS,intra_train,33,←,up,↑,0.10096829989925027,False,24,-,-,-
Y2-S2-090M19,1,85,AS,intra_train,29,↑,left,←,0.11764599988237023,False,24,-,-,-
Y2-S2-090M19,1,86,AS,intra_train,40,↓,up,↑,0.05138779990375042,False,24,-,-,-
Y2-S2-090M19,1,87,AS,intra_train,31,→,down,↓,0.051040499936789274,False,24,-,-,-
Y2-S2-090M19,1,88,AS,intra_train,25,↑,left,←,0.41743909986689687,False,24,-,-,-
Y2-S2-090M19,1,89,AS,exp,28,→,right,→,0.43763049971312284,True,16,0,0,0
Y2-S2-090M19,1,90,AS,exp,38,↓,left,←,0.2503988998942077,False,16,-1,0,0
Y2-S2-090M19,1,91,AS,exp,41,→,down,↓,0.051134899724274874,False,17,-1,0,0
Y2-S2-090M19,1,92,AS,exp,41,↓,down,↓,0.03475050022825599,True,18,-1,0,0
Y2-S2-090M19,1,93,AS,exp,33,↑,left,←,0.11798430001363158,False,18,-1,0,0
Y2-S2-090M19,1,94,AS,exp,50,↓,up,↑,0.017915500327944756,False,19,-1,0,0
Y2-S2-090M19,1,95,AS,exp,38,←,left,←,0.18417710019275546,True,20,-1,0,0
Y2-S2-090M19,1,96,AS,exp,35,↑,left,←,0.050948800053447485,False,20,-1,0,0
Y2-S2-090M19,1,97,AS,exp,46,←,down,↓,0.06758099980652332,False,21,-1,0,0
Y2-S2-090M19,1,98,AS,exp,28,→,down,↓,0.5746796997264028,False,22,-1,0,0
Y2-S2-090M19,1,99,AS,exp,41,↑,down,↓,0.43405150016769767,False,23,-1,0,0
Y2-S2-090M19,1,100,AS,exp,25,→,down,↓,0.21774649992585182,False,24,-1,0,0
Y2-S2-090M19,1,101,AS,exp,47,↓,down,↓,0.01756099984049797,True,25,-1,0,0
Y2-S2-090M19,1,102,AS,exp,28,←,down,↓,0.11746380012482405,False,25,-1,0,0
Y2-S2-090M19,1,103,AS,exp,30,↑,down,↓,0.6048448998481035,False,26,-1,0,0
Y2-S2-090M19,1,104,AS,exp,35,↓,down,↓,0.06756170000880957,True,27,-1,0,0
Y2-S2-090M19,1,105,AS,exp,50,←,left,←,0.6861912999302149,True,27,-1,0,0
Y2-S2-090M19,1,106,AS,exp,41,↓,down,↓,0.6310554998926818,True,27,1,1,1
Y2-S2-090M19,1,107,AS,exp,42,→,right,→,0.9102766998112202,True,26,1,0,1
Y2-S2-090M19,1,108,AS,exp,47,↓,down,↓,0.5670895003713667,True,26,1,0,1
Y2-S2-090M19,1,109,AS,exp,26,←,left,←,1.1068211998790503,True,26,1,0,1
Y2-S2-090M19,1,110,AS,exp,50,↓,down,↓,0.4506688001565635,True,25,1,0,1
Y2-S2-090M19,1,111,AS,exp,39,↑,up,↑,0.7050998997874558,True,25,1,0,1
Y2-S2-090M19,1,112,AS,exp,39,↓,down,↓,0.5339036998338997,True,25,1,0,1
Y2-S2-090M19,1,113,AS,exp,34,↑,up,↑,0.7117661000229418,True,24,1,0,1
Y2-S2-090M19,1,114,AS,exp,30,←,left,←,0.6356311002746224,True,24,1,0,1
Y2-S2-090M19,1,115,AS,exp,50,↑,up,↑,0.600849200040102,True,24,1,0,1
Y2-S2-090M19,1,116,AS,exp,30,↓,down,↓,0.7930788001976907,True,23,1,0,1
Y2-S2-090M19,1,117,AS,exp,29,←,left,←,0.5004819999448955,True,23,1,0,1
Y2-S2-090M19,1,118,AS,exp,26,↑,up,↑,0.5172179001383483,True,23,1,0,1
Y2-S2-090M19,1,119,AS,exp,32,→,right,→,0.4842505999840796,True,22,1,0,1
Y2-S2-090M19,1,120,AS,exp,36,↓,left,←,0.38411050010472536,False,22,-1,1,2
Y2-S2-090M19,1,121,AS,exp,46,→,right,→,0.6908113998360932,True,23,-1,0,2
Y2-S2-090M19,1,122,AS,exp,41,↑,up,↑,0.3840850996784866,True,23,-1,0,2
Y2-S2-090M19,1,123,AS,exp,46,↓,down,↓,0.5798117998056114,True,23,1,1,3
Y2-S2-090M19,1,124,AS,exp,28,←,right,→,0.9191839001141489,False,22,-1,1,4
Y2-S2-090M19,1,125,AS,exp,48,→,right,→,0.4506727000698447,True,23,-1,0,4
Y2-S2-090M19,1,126,AS,exp,25,↑,up,↑,0.5869792001321912,True,23,-1,0,4
Y2-S2-090M19,1,127,AS,exp,30,←,left,←,0.6632198002189398,True,23,1,1,5
Y2-S2-090M19,1,128,AS,exp,34,→,left,←,0.9386324998922646,False,22,-1,1,6
Y2-S2-090M19,1,129,AS,exp,33,↑,up,↑,0.7454014997929335,True,23,-1,0,6
Y2-S2-090M19,1,130,AS,exp,45,←,left,←,1.9726076000370085,True,23,-1,0,6
Y2-S2-090M19,1,131,AS,exp,25,→,left,←,0.5655058999545872,False,23,-1,0,6
Y2-S2-090M19,1,132,AS,exp,46,↑,up,↑,0.5800701999105513,True,24,-1,0,6
Y2-S2-090M19,1,133,AS,exp,43,↓,down,↓,0.6203487999737263,True,24,-1,0,6
Y2-S2-090M19,1,134,AS,exp,32,→,right,→,0.7666919999755919,True,24,1,1,7
Y2-S2-090M19,1,135,AS,exp,36,↓,down,↓,0.8097343998961151,True,23,1,0,7
Y2-S2-090M19,1,136,AS,exp,25,↑,up,↑,0.8695179997012019,True,23,1,0,7
Y2-S2-090M19,1,137,AS,exp,31,↓,down,↓,0.6620582998730242,True,23,1,0,7
Y2-S2-090M19,1,138,AS,exp,44,→,right,→,0.8652158998884261,True,22,1,0,7
Y2-S2-090M19,1,139,AS,exp,36,↑,left,←,1.2951787002384663,False,22,-1,1,8
Y2-S2-090M19,1,140,AS,exp,39,→,right,→,0.849592600017786,True,23,-1,0,8
Y2-S2-090M19,1,141,AS,exp,37,↑,up,↑,0.7196961003355682,True,23,-1,0,8
Y2-S2-090M19,1,142,AS,exp,43,→,right,→,0.43367719976231456,True,23,1,1,9
Y2-S2-090M19,1,143,AS,exp,31,↑,up,↑,0.6701026000082493,True,22,1,0,9
Y2-S2-090M19,1,144,AS,exp,39,←,left,←,0.8632364002987742,True,22,1,0,9
Y2-S2-090M19,1,145,AS,exp,37,→,right,→,1.0224946001544595,True,22,1,0,9
Y2-S2-090M19,1,146,AS,exp,43,←,left,←,0.7531866002827883,True,21,1,0,9
Y2-S2-090M19,1,147,AS,exp,39,→,right,→,0.45122720021754503,True,21,1,0,9
Y2-S2-090M19,1,148,AS,exp,44,↓,down,↓,0.5918660000897944,True,21,1,0,9
Y2-S2-090M19,1,149,AS,exp,45,←,left,←,0.41738460026681423,True,20,1,0,9
Y2-S2-090M19,1,150,AS,exp,38,↓,down,↓,0.46741949999704957,True,20,1,0,9
Y2-S2-090M19,1,151,AS,exp,41,→,right,→,0.4674521996639669,True,20,1,0,9
Y2-S2-090M19,1,152,AS,exp,33,↓,down,↓,0.4341910001821816,True,19,1,0,9
Y2-S2-090M19,1,153,AS,exp,36,←,right,→,0.6932573998346925,False,19,-1,1,10
Y2-S2-090M19,1,154,AS,exp,26,↑,down,↓,0.6323448000475764,False,20,-1,0,10
Y2-S2-090M19,1,155,AS,exp,35,↓,down,↓,0.5987907997332513,True,21,-1,0,10
Y2-S2-090M19,1,156,AS,exp,43,→,right,→,1.067083700094372,True,21,-1,0,10
Y2-S2-090M19,1,157,AS,exp,31,↑,up,↑,1.0203971997834742,True,21,1,1,11
Y2-S2-090M19,1,158,AS,exp,34,←,left,←,0.450649700127542,True,20,1,0,11
Y2-S2-090M19,1,159,AS,exp,26,→,right,→,0.4165965998545289,True,20,1,0,11
Y2-S2-090M19,1,160,AS,exp,35,↑,up,↑,0.4171792999841273,True,20,1,0,11
Y2-S2-090M19,1,161,AS,exp,37,↓,down,↓,0.9521351996809244,True,19,1,0,11
Y2-S2-090M19,1,162,AS,exp,28,→,left,←,0.8584639998152852,False,19,-1,1,12
Y2-S2-090M19,1,163,AS,exp,35,←,no_key,no_letter,-1.0,False,20,-1,0,12
Y2-S2-090M19,1,164,AS,exp,30,↓,right,→,0.18430829979479313,False,21,-1,0,12
Y2-S2-090M19,1,165,AS,exp,37,←,left,←,0.0344373001717031,True,22,-1,0,12
Y2-S2-090M19,1,166,AS,exp,26,↓,down,↓,0.4502257998101413,True,22,-1,0,12
Y2-S2-090M19,1,167,AS,exp,50,→,left,←,0.5443433001637459,False,22,-1,0,12
Y2-S2-090M19,1,168,AS,exp,44,↑,down,↓,1.2894017999060452,False,23,-1,0,12
Y2-S2-090M19,1,169,AS,exp,35,↓,down,↓,0.4504661997780204,True,24,-1,0,12
Y2-S2-090M19,1,170,AS,exp,38,→,right,→,0.48421300016343594,True,24,-1,0,12
Y2-S2-090M19,1,171,AS,exp,27,↑,up,↑,0.5009733000770211,True,24,1,1,13
Y2-S2-090M19,1,172,AS,exp,47,←,left,←,0.4008092996664345,True,23,1,0,13
Y2-S2-090M19,1,173,AS,exp,47,↓,down,↓,1.0409241002053022,True,23,1,0,13
Y2-S2-090M19,1,174,AS,exp,47,→,right,→,0.3677092003636062,True,23,1,0,13
Y2-S2-090M19,1,175,AS,exp,50,↑,up,↑,0.5007390999235213,True,22,1,0,13
Y2-S2-090M19,1,176,AS,exp,50,↓,up,↑,0.9343733000569046,False,22,-1,1,14
Y2-S2-090M19,1,177,AS,exp,34,←,left,←,0.9053432997316122,True,23,-1,0,14
Y2-S2-090M19,1,178,AS,exp,50,↓,down,↓,1.2475470998324454,True,23,-1,0,14
Y2-S2-090M19,1,179,AS,exp,44,↑,right,→,1.2095542000606656,False,23,-1,0,14
Y2-S2-090M19,1,180,AS,exp,41,→,right,→,0.4503939999267459,True,24,-1,0,14
Y2-S2-090M19,1,181,AS,exp,47,↓,down,↓,0.4671117998659611,True,24,-1,0,14
Y2-S2-090M19,1,182,AS,exp,32,↑,up,↑,1.4385065999813378,True,24,1,1,15
Y2-S2-090M19,1,183,AS,exp,38,←,left,←,0.7590732998214662,True,23,1,0,15
Y2-S2-090M19,1,184,AS,exp,38,→,right,→,0.665777999907732,True,23,1,0,15
Y2-S2-090M19,1,185,AS,exp,31,←,left,←,0.8990134000778198,True,23,1,0,15
Y2-S2-090M19,1,186,AS,exp,35,↓,no_key,no_letter,-1.0,False,22,-1,1,16
Y2-S2-090M19,2,187,PS,intra_train,34,←,left,←,0.45780069986358285,True,15,-,-,-
Y2-S2-090M19,2,188,PS,intra_train,32,→,no_key,no_letter,-1.0,False,15,-,-,-
Y2-S2-090M19,2,189,PS,intra_train,47,↑,no_key,no_letter,-1.0,False,15,-,-,-
Y2-S2-090M19,2,190,PS,intra_train,42,↓,down,↓,0.5171997002325952,True,15,-,-,-
Y2-S2-090M19,2,191,PS,intra_train,27,→,no_key,no_letter,-1.0,False,15,-,-,-
Y2-S2-090M19,2,192,PS,exp,37,↑,no_key,no_letter,-1.0,False,10,-1,0,0
Y2-S2-090M19,2,193,PS,exp,42,↓,no_key,no_letter,-1.0,False,11,-1,0,0
Y2-S2-090M19,2,194,PS,exp,48,←,no_key,no_letter,-1.0,False,12,-1,0,0
Y2-S2-090M19,2,195,PS,exp,26,↑,no_key,no_letter,-1.0,False,13,-1,0,0
Y2-S2-090M19,2,196,PS,exp,36,→,no_key,no_letter,-1.0,False,14,-1,0,0
Y2-S2-090M19,2,197,PS,exp,25,↓,no_key,no_letter,-1.0,False,15,-1,0,0
Y2-S2-090M19,2,198,PS,exp,48,↑,no_key,no_letter,-1.0,False,16,-1,0,0
Y2-S2-090M19,2,199,PS,exp,35,↓,up,↑,1.3496075998991728,False,17,-1,0,0
Y2-S2-090M19,2,200,PS,exp,29,→,no_key,no_letter,-1.0,False,18,-1,0,0
Y2-S2-090M19,2,201,PS,exp,47,↑,up,↑,0.4003834999166429,True,19,-1,0,0
Y2-S2-090M19,2,202,PS,exp,41,↓,down,↓,0.6153454999439418,True,19,-1,0,0
Y2-S2-090M19,2,203,PS,exp,41,→,no_key,no_letter,-1.0,False,19,-1,0,0
Y2-S2-090M19,2,204,PS,exp,39,↑,up,↑,0.4673799998126924,True,20,-1,0,0
Y2-S2-090M19,2,205,PS,exp,43,↓,up,↑,0.8631369001232088,False,20,-1,0,0
Y2-S2-090M19,2,206,PS,exp,40,→,right,→,0.5373793998733163,True,21,-1,0,0
Y2-S2-090M19,2,207,PS,exp,27,↓,down,↓,0.7404216001741588,True,21,-1,0,0
Y2-S2-090M19,2,208,PS,exp,27,↑,up,↑,0.9628220000304282,True,21,1,1,1
Y2-S2-090M19,2,209,PS,exp,31,→,right,→,0.4673983999527991,True,20,1,0,1
Y2-S2-090M19,2,210,PS,exp,27,←,left,←,0.4339192998595536,True,20,1,0,1
Y2-S2-090M19,2,211,PS,exp,45,→,right,→,0.811746200080961,True,20,1,0,1
Y2-S2-090M19,2,212,PS,exp,48,↓,down,↓,0.7431525997817516,True,19,1,0,1
Y2-S2-090M19,2,213,PS,exp,50,→,right,→,0.43408829998224974,True,19,1,0,1
Y2-S2-090M19,2,214,PS,exp,31,←,right,→,0.9469487997703254,False,19,-1,1,2
Y2-S2-090M19,2,215,PS,exp,30,↓,down,↓,0.6890028999187052,True,20,-1,0,2
Y2-S2-090M19,2,216,PS,exp,25,↑,up,↑,0.46708340011537075,True,20,-1,0,2
Y2-S2-090M19,2,217,PS,exp,28,←,right,→,0.6356584001332521,False,20,-1,0,2
Y2-S2-090M19,2,218,PS,exp,34,→,right,→,0.43461700016632676,True,21,-1,0,2
Y2-S2-090M19,2,219,PS,exp,43,↑,up,↑,0.6161977997981012,True,21,-1,0,2
Y2-S2-090M19,2,220,PS,exp,26,→,right,→,0.4175338000059128,True,21,1,1,3
Y2-S2-090M19,2,221,PS,exp,43,↑,up,↑,0.8738490003161132,True,20,1,0,3
Y2-S2-090M19,2,222,PS,exp,39,↓,down,↓,0.6012788000516593,True,20,1,0,3
Y2-S2-090M19,2,223,PS,exp,31,↑,up,↑,0.6319311996921897,True,20,1,0,3
Y2-S2-090M19,2,224,PS,exp,41,↓,down,↓,0.5663141002878547,True,19,1,0,3
Y2-S2-090M19,2,225,PS,exp,47,→,up,↑,1.6567597002722323,False,19,-1,1,4
Y2-S2-090M19,2,226,PS,exp,33,↓,down,↓,0.7147218999452889,True,20,-1,0,4
Y2-S2-090M19,2,227,PS,exp,41,→,right,→,0.40088640013709664,True,20,-1,0,4
Y2-S2-090M19,2,228,PS,exp,31,←,left,←,0.40150529984384775,True,20,1,1,5
Y2-S2-090M19,2,229,PS,exp,40,↓,down,↓,0.4007227998226881,True,19,1,0,5
Y2-S2-090M19,2,230,PS,exp,26,→,right,→,0.41695199999958277,True,19,1,0,5
Y2-S2-090M19,2,231,PS,exp,27,↓,down,↓,0.6084925998002291,True,19,1,0,5
Y2-S2-090M19,2,232,PS,exp,25,→,right,→,1.2040548999793828,True,18,1,0,5
Y2-S2-090M19,2,233,PS,exp,27,←,right,→,0.530908599961549,False,18,-1,1,6
Y2-S2-090M19,2,234,PS,exp,48,→,right,→,0.16770550003275275,True,19,-1,0,6
Y2-S2-090M19,2,235,PS,exp,29,↑,right,→,0.7967709000222385,False,19,-1,0,6
Y2-S2-090M19,2,236,PS,exp,44,→,right,→,0.4507118999026716,True,20,-1,0,6
Y2-S2-090M19,2,237,PS,exp,38,↓,down,↓,0.5720358001999557,True,20,-1,0,6
Y2-S2-090M19,2,238,PS,exp,45,↑,no_key,no_letter,-1.0,False,20,-1,0,6
Y2-S2-090M19,2,239,PS,exp,35,↓,no_key,no_letter,-1.0,False,21,-1,0,6
Y2-S2-090M19,2,240,PS,exp,29,→,no_key,no_letter,-1.0,False,22,-1,0,6
Y2-S2-090M19,2,241,PS,exp,36,↑,no_key,no_letter,-1.0,False,23,-1,0,6
Y2-S2-090M19,2,242,PS,exp,34,←,left,←,0.48397660022601485,True,24,-1,0,6
Y2-S2-090M19,2,243,PS,exp,33,↓,down,↓,1.1216159001924098,True,24,-1,0,6
Y2-S2-090M19,2,244,PS,exp,26,→,right,→,0.3675623997114599,True,24,1,1,7
Y2-S2-090M19,2,245,PS,exp,28,↓,down,↓,0.5004030000418425,True,23,1,0,7
Y2-S2-090M19,2,246,PS,exp,44,→,right,→,0.7266430999152362,True,23,1,0,7
Y2-S2-090M19,2,247,PS,exp,40,↑,up,↑,0.5608107997104526,True,23,1,0,7
Y2-S2-090M19,2,248,PS,exp,46,↓,right,→,0.7502985000610352,False,22,-1,1,8
Y2-S2-090M19,2,249,PS,exp,33,→,right,→,0.4507101997733116,True,23,-1,0,8
Y2-S2-090M19,2,250,PS,exp,40,↑,up,↑,0.46726939966902137,True,23,-1,0,8
Y2-S2-090M19,2,251,PS,exp,27,←,left,←,1.0793679002672434,True,23,1,1,9
Y2-S2-090M19,2,252,PS,exp,49,↓,down,↓,0.6122919996269047,True,22,1,0,9
Y2-S2-090M19,2,253,PS,exp,28,→,right,→,0.48434130009263754,True,22,1,0,9
Y2-S2-090M19,2,254,PS,exp,38,↓,down,↓,0.585034899879247,True,22,1,0,9
Y2-S2-090M19,2,255,PS,exp,44,→,right,→,1.0040581999346614,True,21,1,0,9
Y2-S2-090M19,2,256,PS,exp,49,↑,up,↑,0.5658410000614822,True,21,1,0,9
Y2-S2-090M19,2,257,PS,exp,35,↓,down,↓,0.5371881001628935,True,21,1,0,9
Y2-S2-090M19,2,258,PS,exp,48,→,right,→,0.36735230032354593,True,20,1,0,9
Y2-S2-090M19,2,259,PS,exp,29,↓,down,↓,0.4173632999882102,True,20,1,0,9
Y2-S2-090M19,2,260,PS,exp,45,←,left,←,0.38359500002115965,True,20,1,0,9
Y2-S2-090M19,2,261,PS,exp,25,↑,up,↑,0.5521904998458922,True,19,1,0,9
Y2-S2-090M19,2,262,PS,exp,39,→,right,→,0.7732242001220584,True,19,1,0,9
Y2-S2-090M19,2,263,PS,exp,32,←,left,←,1.7055350001901388,True,19,1,0,9
Y2-S2-090M19,2,264,PS,exp,38,↑,up,↑,0.4998082001693547,True,18,1,0,9
Y2-S2-090M19,2,265,PS,exp,26,→,right,→,1.3087145001627505,True,18,1,0,9
Y2-S2-090M19,2,266,PS,exp,48,↓,down,↓,0.4874121998436749,True,18,1,0,9
Y2-S2-090M19,2,267,PS,exp,44,↑,up,↑,0.6316472999751568,True,17,1,0,9
Y2-S2-090M19,2,268,PS,exp,27,←,left,←,0.5694463001564145,True,17,1,0,9
Y2-S2-090M19,2,269,PS,exp,27,↑,up,↑,0.5086174998432398,True,17,1,0,9
Y2-S2-090M19,2,270,PS,exp,50,↓,down,↓,0.49210250005126,True,16,1,0,9
Y2-S2-090M19,2,271,PS,exp,28,←,left,←,0.824974600225687,True,16,1,0,9
Y2-S2-090M19,2,272,PS,exp,44,↓,down,↓,0.5353342001326382,True,16,1,0,9
Y2-S2-090M19,2,273,PS,exp,39,→,right,→,1.0716781998053193,True,15,1,0,9
Y2-S2-090M19,2,274,PS,exp,33,←,left,←,0.3504123999737203,True,15,1,0,9
Y2-S2-090M19,2,275,PS,exp,48,↓,down,↓,0.5634689000435174,True,15,1,0,9
Y2-S2-090M19,2,276,PS,exp,43,→,right,→,0.4699042998254299,True,14,1,0,9
Y2-S2-090M19,2,277,PS,exp,49,↑,up,↑,0.9420057996176183,True,14,1,0,9
Y2-S2-090M19,2,278,PS,exp,46,←,left,←,0.4663566998206079,True,14,1,0,9
Y2-S2-090M19,2,279,PS,exp,37,↓,down,↓,0.5403069001622498,True,13,1,0,9
Y2-S2-090M19,2,280,PS,exp,46,→,right,→,1.0934365997090936,True,13,1,0,9
Y2-S2-090M19,2,281,PS,exp,30,↓,right,→,1.1979200998321176,False,13,-1,1,10
Y2-S2-090M19,2,282,PS,exp,46,→,right,→,0.367251000367105,True,14,-1,0,10
Y2-S2-090M19,2,283,PS,exp,46,←,left,←,0.9129685000516474,True,14,-1,0,10
Y2-S2-090M19,2,284,PS,exp,36,→,right,→,0.47738010017201304,True,14,1,1,11
Y2-S2-090M19,2,285,PS,exp,39,↓,down,↓,0.4682756997644901,True,13,1,0,11
Y2-S2-090M19,2,286,PS,exp,41,↑,up,↑,0.605787199921906,True,13,1,0,11
Y2-S2-090M19,2,287,PS,exp,45,←,left,←,0.394879300147295,True,13,1,0,11
Y2-S2-090M19,2,288,PS,exp,30,→,right,→,0.3949462999589741,True,12,1,0,11
Y2-S2-090M19,2,289,PS,exp,29,↓,down,↓,0.550617900211364,True,12,1,0,11
Y2-S2-090M19,2,290,PS,exp,47,←,left,←,0.4318089000880718,True,12,1,0,11
Y2-S2-090M19,2,291,PS,exp,42,↑,left,←,0.7776824999600649,False,11,-1,1,12
Y2-S2-090M19,2,292,PS,exp,25,→,right,→,0.33412429969757795,True,12,-1,0,12
Y2-S2-090M19,2,293,PS,exp,26,←,left,←,0.9331891997717321,True,12,-1,0,12
Y2-S2-090M19,2,294,PS,exp,38,↑,up,↑,0.5046715000644326,True,12,1,1,13
Y2-S2-090M19,2,295,PS,exp,36,→,right,→,0.38858679961413145,True,11,1,0,13
Y2-S2-090M19,2,296,PS,exp,29,↑,right,→,0.766580699943006,False,11,-1,1,14
Y2-S2-090M19,2,297,PS,exp,28,←,left,←,0.5914475000463426,True,12,-1,0,14
Y2-S2-090M19,2,298,PS,exp,47,↓,left,←,0.6611379999667406,False,12,-1,0,14
Y2-S2-090M19,2,299,PS,exp,48,↑,up,↑,0.606267100200057,True,13,-1,0,14
Y2-S2-090M19,2,300,PS,exp,36,↓,down,↓,0.5802740999497473,True,13,-1,0,14
Y2-S2-090M19,2,301,PS,exp,49,←,left,←,0.41686580004170537,True,13,1,1,15
Y2-S2-090M19,2,302,PS,exp,33,↓,down,↓,0.6332999002188444,True,12,1,0,15
Y2-S2-090M19,2,303,PS,exp,31,↑,down,↓,0.5682533998042345,False,12,-1,1,16
Y2-S2-090M19,3,304,PS,intra_train,42,←,left,←,0.35064510023221374,True,15,-,-,-
Y2-S2-090M19,3,305,PS,intra_train,49,↓,no_key,no_letter,-1.0,False,15,-,-,-
Y2-S2-090M19,3,306,PS,intra_train,29,↑,no_key,no_letter,-1.0,False,15,-,-,-
Y2-S2-090M19,3,307,PS,intra_train,30,←,left,←,0.9360231002792716,True,15,-,-,-
Y2-S2-090M19,3,308,PS,intra_train,48,↑,up,↑,0.4985695001669228,True,15,-,-,-
Y2-S2-090M19,3,309,PS,exp,48,→,right,→,0.47496720030903816,True,10,0,0,0
Y2-S2-090M19,3,310,PS,exp,27,↑,up,↑,0.8852589996531606,True,10,0,0,0
Y2-S2-090M19,3,311,PS,exp,44,←,left,←,0.5526779000647366,True,10,1,0,0
Y2-S2-090M19,3,312,PS,exp,43,↓,down,↓,0.5719888000749052,True,9,1,0,0
Y2-S2-090M19,3,313,PS,exp,43,←,left,←,0.4765290003269911,True,9,1,0,0
Y2-S2-090M19,3,314,PS,exp,32,→,right,→,0.8610375998541713,True,9,1,0,0
Y2-S2-090M19,3,315,PS,exp,30,↓,down,↓,1.3445386998355389,True,8,1,0,0
Y2-S2-090M19,3,316,PS,exp,47,←,left,←,0.6812275000847876,True,8,1,0,0
Y2-S2-090M19,3,317,PS,exp,41,↑,no_key,no_letter,-1.0,False,8,-1,1,1
Y2-S2-090M19,3,318,PS,exp,36,↓,up,↑,1.4090071003884077,False,9,-1,0,1
Y2-S2-090M19,3,319,PS,exp,36,←,no_key,no_letter,-1.0,False,10,-1,0,1
Y2-S2-090M19,3,320,PS,exp,43,→,right,→,0.6407024003565311,True,11,-1,0,1
Y2-S2-090M19,3,321,PS,exp,46,↓,right,→,0.8468454997055233,False,11,-1,0,1
Y2-S2-090M19,3,322,PS,exp,44,←,right,→,0.9342132997699082,False,12,-1,0,1
Y2-S2-090M19,3,323,PS,exp,41,↑,right,→,1.4527704999782145,False,13,-1,0,1
Y2-S2-090M19,3,324,PS,exp,49,↓,down,↓,0.733538500033319,True,14,-1,0,1
Y2-S2-090M19,3,325,PS,exp,29,←,left,←,0.9676883001811802,True,14,-1,0,1
Y2-S2-090M19,3,326,PS,exp,47,↓,down,↓,0.5989228999242187,True,14,1,1,2
Y2-S2-090M19,3,327,PS,exp,26,↑,right,→,1.1708273999392986,False,13,-1,1,3
Y2-S2-090M19,3,328,PS,exp,35,→,right,→,0.5172464000061154,True,14,-1,0,3
Y2-S2-090M19,3,329,PS,exp,31,↓,down,↓,0.8928916999138892,True,14,-1,0,3
Y2-S2-090M19,3,330,PS,exp,35,↑,up,↑,0.6077768998220563,True,14,1,1,4
Y2-S2-090M19,3,331,PS,exp,32,→,right,→,0.6984039000235498,True,13,1,0,4
Y2-S2-090M19,3,332,PS,exp,32,←,left,←,0.6037587998434901,True,13,1,0,4
Y2-S2-090M19,3,333,PS,exp,30,↑,up,↑,1.068627799861133,True,13,1,0,4
Y2-S2-090M19,3,334,PS,exp,49,←,left,←,0.5028895996510983,True,12,1,0,4
Y2-S2-090M19,3,335,PS,exp,31,→,right,→,0.5173288998194039,True,12,1,0,4
Y2-S2-090M19,3,336,PS,exp,32,↑,up,↑,0.4270399999804795,True,12,1,0,4
Y2-S2-090M19,3,337,PS,exp,37,←,left,←,0.47792760003358126,True,11,1,0,4
Y2-S2-090M19,3,338,PS,exp,32,→,right,→,0.40684139961376786,True,11,1,0,4
Y2-S2-090M19,3,339,PS,exp,45,↑,up,↑,0.4913686001673341,True,11,1,0,4
Y2-S2-090M19,3,340,PS,exp,41,↓,down,↓,0.6690919999964535,True,10,1,0,4
Y2-S2-090M19,3,341,PS,exp,44,→,right,→,0.4759880998171866,True,10,1,0,4
Y2-S2-090M19,3,342,PS,exp,47,↓,down,↓,0.446781599894166,True,10,1,0,4
Y2-S2-090M19,3,343,PS,exp,47,↑,up,↑,0.5879140999168158,True,9,1,0,4
Y2-S2-090M19,3,344,PS,exp,37,↓,left,←,0.47526909969747066,False,9,-1,1,5
Y2-S2-090M19,3,345,PS,exp,35,→,right,→,0.41531299985945225,True,10,-1,0,5
Y2-S2-090M19,3,346,PS,exp,39,↓,down,↓,1.6406636000610888,True,10,-1,0,5
Y2-S2-090M19,3,347,PS,exp,31,↑,up,↑,0.949110500048846,True,10,1,1,6
Y2-S2-090M19,3,348,PS,exp,45,←,left,←,0.47243939992040396,True,9,1,0,6
Y2-S2-090M19,3,349,PS,exp,27,↓,right,→,0.32175750005990267,False,9,-1,1,7
Y2-S2-090M19,3,350,PS,exp,40,→,right,→,0.502460999879986,True,10,-1,0,7
Y2-S2-090M19,3,351,PS,exp,43,←,left,←,0.37762019969522953,True,10,-1,0,7
Y2-S2-090M19,3,352,PS,exp,39,↑,left,←,0.06776020023971796,False,10,-1,0,7
Y2-S2-090M19,3,353,PS,exp,29,←,left,←,0.0013184999115765095,True,11,-1,0,7
Y2-S2-090M19,3,354,PS,exp,50,→,right,→,0.42874230025336146,True,11,-1,0,7
Y2-S2-090M19,3,355,PS,exp,50,←,left,←,0.2841421002522111,True,11,1,1,8
Y2-S2-090M19,3,356,PS,exp,36,→,right,→,0.38877169974148273,True,10,1,0,8
Y2-S2-090M19,3,357,PS,exp,47,←,left,←,0.4086507000029087,True,10,1,0,8
Y2-S2-090M19,3,358,PS,exp,40,↑,up,↑,0.4066519998013973,True,10,1,0,8
Y2-S2-090M19,3,359,PS,exp,31,↓,down,↓,0.48959050001576543,True,9,1,0,8
Y2-S2-090M19,3,360,PS,exp,40,↑,up,↑,0.6251795999705791,True,9,1,0,8
Y2-S2-090M19,3,361,PS,exp,48,←,left,←,0.39379339991137385,True,9,1,0,8
Y2-S2-090M19,3,362,PS,exp,27,↓,left,←,0.7628708998672664,False,8,-1,1,9
Y2-S2-090M19,3,363,PS,exp,34,←,left,←,0.6503101997077465,True,9,-1,0,9
Y2-S2-090M19,3,364,PS,exp,36,↑,right,→,0.5602193996310234,False,9,-1,0,9
Y2-S2-090M19,3,365,PS,exp,44,↓,down,↓,0.6067872000858188,True,10,-1,0,9
Y2-S2-090M19,3,366,PS,exp,44,→,right,→,0.3903263001702726,True,10,-1,0,9
Y2-S2-090M19,3,367,PS,exp,43,←,left,←,0.4804350999183953,True,10,1,1,10
Y2-S2-090M19,3,368,PS,exp,50,→,right,→,0.4054239997640252,True,9,1,0,10
Y2-S2-090M19,3,369,PS,exp,42,←,left,←,0.5026825000531971,True,9,1,0,10
Y2-S2-090M19,3,370,PS,exp,25,↑,up,↑,0.81712849996984,True,9,1,0,10
Y2-S2-090M19,3,371,PS,exp,35,←,left,←,0.5107086002826691,True,8,1,0,10
Y2-S2-090M19,3,372,PS,exp,31,↑,right,→,0.5239626998081803,False,8,-1,1,11
Y2-S2-090M19,3,373,PS,exp,47,↓,right,→,1.0805154000408947,False,9,-1,0,11
Y2-S2-090M19,3,374,PS,exp,42,↑,up,↑,0.4371619997546077,True,10,-1,0,11
Y2-S2-090M19,3,375,PS,exp,38,↓,down,↓,0.5466948999091983,True,10,-1,0,11
Y2-S2-090M19,3,376,PS,exp,38,→,right,→,0.605490299873054,True,10,1,1,12
Y2-S2-090M19,3,377,PS,exp,25,←,left,←,0.5094322999939322,True,9,1,0,12
Y2-S2-090M19,3,378,PS,exp,34,↑,right,→,0.1176477000117302,False,9,-1,1,13
Y2-S2-090M19,3,379,PS,exp,36,←,down,↓,1.3009894997812808,False,10,-1,0,13
Y2-S2-090M19,3,380,PS,exp,29,↑,left,←,0.829566199798137,False,11,-1,0,13
Y2-S2-090M19,3,381,PS,exp,39,→,down,↓,0.9164765998721123,False,12,-1,0,13
Y2-S2-090M19,3,382,PS,exp,35,↑,left,←,0.6412423998117447,False,13,-1,0,13
Y2-S2-090M19,3,383,PS,exp,45,→,up,↑,0.8582529998384416,False,14,-1,0,13
Y2-S2-090M19,3,384,PS,exp,46,↑,left,←,0.3675732999108732,False,15,-1,0,13
Y2-S2-090M19,3,385,PS,exp,45,↓,down,↓,0.6609038999304175,True,16,-1,0,13
Y2-S2-090M19,3,386,PS,exp,38,→,no_key,no_letter,-1.0,False,16,-1,0,13
Y2-S2-090M19,3,387,PS,exp,26,←,no_key,no_letter,-1.0,False,17,-1,0,13
Y2-S2-090M19,3,388,PS,exp,32,↑,down,↓,0.9246062999591231,False,18,-1,0,13
Y2-S2-090M19,3,389,PS,exp,27,↓,down,↓,0.5449039000086486,True,19,-1,0,13
Y2-S2-090M19,3,390,PS,exp,43,→,right,→,0.9773753001354635,True,19,-1,0,13
Y2-S2-090M19,3,391,PS,exp,38,←,left,←,0.40086339972913265,True,19,1,1,14
Y2-S2-090M19,3,392,PS,exp,32,↑,up,↑,0.5785463000647724,True,18,1,0,14
Y2-S2-090M19,3,393,PS,exp,30,→,right,→,0.46788949985057116,True,18,1,0,14
Y2-S2-090M19,3,394,PS,exp,44,↓,down,↓,0.5524306003935635,True,18,1,0,14
Y2-S2-090M19,3,395,PS,exp,27,←,left,←,0.6259361002594233,True,17,1,0,14
Y2-S2-090M19,3,396,PS,exp,47,↑,up,↑,0.9334408002905548,True,17,1,0,14
Y2-S2-090M19,3,397,PS,exp,41,←,left,←,0.4918634002096951,True,17,1,0,14
Y2-S2-090M19,3,398,PS,exp,36,↑,up,↑,0.5019762003794312,True,16,1,0,14
Y2-S2-090M19,3,399,PS,exp,40,←,left,←,0.3338905000127852,True,16,1,0,14
Y2-S2-090M19,3,400,PS,exp,35,→,right,→,0.3670151997357607,True,16,1,0,14
Y2-S2-090M19,3,401,PS,exp,47,↑,up,↑,0.38370659993961453,True,15,1,0,14
Y2-S2-090M19,3,402,PS,exp,25,→,right,→,0.384022300131619,True,15,1,0,14
Y2-S2-090M19,3,403,PS,exp,33,↑,up,↑,0.5059772003442049,True,15,1,0,14
Y2-S2-090M19,3,404,PS,exp,50,→,right,→,0.5325406002812088,True,14,1,0,14
Y2-S2-090M19,3,405,PS,exp,44,↑,up,↑,0.45154689997434616,True,14,1,0,14
Y2-S2-090M19,3,406,PS,exp,46,→,right,→,0.4939147997647524,True,14,1,0,14
Y2-S2-090M19,3,407,PS,exp,45,←,left,←,0.49988480005413294,True,13,1,0,14
Y2-S2-090M19,3,408,PS,exp,37,→,right,→,0.39299040008336306,True,13,1,0,14
Y2-S2-090M19,3,409,PS,exp,48,←,left,←,0.6987740001641214,True,13,1,0,14
Y2-S2-090M19,3,410,PS,exp,44,→,right,→,0.415854400023818,True,12,1,0,14
Y2-S2-090M19,3,411,PS,exp,48,↑,up,↑,0.42013779981061816,True,12,1,0,14
Y2-S2-090M19,3,412,PS,exp,46,→,right,→,0.3802451998926699,True,12,1,0,14
Y2-S2-090M19,3,413,PS,exp,39,↑,up,↑,0.7927194996736944,True,11,1,0,14
Y2-S2-090M19,3,414,PS,exp,48,↓,down,↓,0.5809245998971164,True,11,1,0,14
Y2-S2-090M19,3,415,PS,exp,25,→,right,→,0.4936092998832464,True,11,1,0,14
Y2-S2-090M19,3,416,PS,exp,42,↓,down,↓,0.4612714000977576,True,10,1,0,14
Y2-S2-090M19,3,417,PS,exp,34,↑,up,↑,0.4486668002791703,True,10,1,0,14
Y2-S2-090M19,3,418,PS,exp,43,↓,right,→,0.21725349966436625,False,10,-1,1,15
Y2-S2-090M19,3,419,PS,exp,37,→,down,↓,0.7853780002333224,False,11,-1,0,15
Y2-S2-090M19,3,420,PS,exp,30,←,left,←,0.38830369990319014,True,12,-1,0,15
Y2-S2-090M19,3,421,PS,exp,26,→,right,→,0.4480334999971092,True,12,-1,0,15
Y2-S2-090M19,3,422,PS,exp,49,↓,down,↓,0.517253499943763,True,12,1,1,16
Y2-S2-090M19,4,423,AS,intra_train,44,←,left,←,0.0179282003082335,True,24,-,-,-
Y2-S2-090M19,4,424,AS,intra_train,39,↓,down,↓,0.6932161003351212,True,24,-,-,-
Y2-S2-090M19,4,425,AS,intra_train,39,↑,down,↓,0.6380746001377702,False,24,-,-,-
Y2-S2-090M19,4,426,AS,intra_train,26,→,left,←,0.08451379975304008,False,24,-,-,-
Y2-S2-090M19,4,427,AS,intra_train,44,←,left,←,0.06755919987335801,True,24,-,-,-
Y2-S2-090M19,4,428,AS,exp,42,↑,down,↓,1.1280820998363197,False,16,-1,0,0
Y2-S2-090M19,4,429,AS,exp,47,→,right,→,0.05016169976443052,True,17,-1,0,0
Y2-S2-090M19,4,430,AS,exp,43,←,left,←,0.06760480022057891,True,17,-1,0,0
Y2-S2-090M19,4,431,AS,exp,32,→,left,←,0.13435690011829138,False,17,-1,0,0
Y2-S2-090M19,4,432,AS,exp,36,↓,up,↑,0.2674871999770403,False,18,-1,0,0
Y2-S2-090M19,4,433,AS,exp,38,→,down,↓,0.0343577996827662,False,19,-1,0,0
Y2-S2-090M19,4,434,AS,exp,41,↓,down,↓,0.10104350000619888,True,20,-1,0,0
Y2-S2-090M19,4,435,AS,exp,26,→,up,↑,0.034344600047916174,False,20,-1,0,0
Y2-S2-090M19,4,436,AS,exp,31,←,up,↑,0.15109309973195195,False,21,-1,0,0
Y2-S2-090M19,4,437,AS,exp,49,↓,right,→,0.11819199984893203,False,22,-1,0,0
Y2-S2-090M19,4,438,AS,exp,36,↑,left,←,0.08454439975321293,False,23,-1,0,0
Y2-S2-090M19,4,439,AS,exp,42,→,down,↓,0.017866299953311682,False,24,-1,0,0
Y2-S2-090M19,4,440,AS,exp,50,↑,down,↓,0.1343463002704084,False,25,-1,0,0
Y2-S2-090M19,4,441,AS,exp,30,↓,left,←,0.41702000005170703,False,26,-1,0,0
Y2-S2-090M19,4,442,AS,exp,27,←,up,↑,0.16772889997810125,False,27,-1,0,0
Y2-S2-090M19,4,443,AS,exp,41,↓,right,→,0.43445900036022067,False,28,-1,0,0
Y2-S2-090M19,4,444,AS,exp,46,→,right,→,0.13417650014162064,True,29,-1,0,0
Y2-S2-090M19,4,445,AS,exp,32,↓,left,←,0.05116670019924641,False,29,-1,0,0
Y2-S2-090M19,4,446,AS,exp,38,↑,right,→,0.5172707000747323,False,30,-1,0,0
Y2-S2-090M19,4,447,AS,exp,37,←,right,→,0.06749119982123375,False,31,-1,0,0
Y2-S2-090M19,4,448,AS,exp,31,↓,down,↓,0.23440920002758503,True,32,-1,0,0
Y2-S2-090M19,4,449,AS,exp,37,→,right,→,0.31777460034936666,True,32,-1,0,0
Y2-S2-090M19,4,450,AS,exp,50,↓,up,↑,0.0011602002196013927,False,32,-1,0,0
Y2-S2-090M19,4,451,AS,exp,32,→,right,→,0.3343261000700295,True,33,-1,0,0
Y2-S2-090M19,4,452,AS,exp,45,↓,left,←,0.1007872000336647,False,33,-1,0,0
Y2-S2-090M19,4,453,AS,exp,36,↑,left,←,0.7007180000655353,False,34,-1,0,0
Y2-S2-090M19,4,454,AS,exp,40,↓,up,↑,0.1177135999314487,False,35,-1,0,0
Y2-S2-090M19,4,455,AS,exp,25,→,up,↑,0.33397109992802143,False,36,-1,0,0
Y2-S2-090M19,4,456,AS,exp,33,↓,left,←,0.25089679984375834,False,37,-1,0,0
Y2-S2-090M19,4,457,AS,exp,27,↑,up,↑,0.6672533000819385,True,38,-1,0,0
Y2-S2-090M19,4,458,AS,exp,38,←,left,←,1.6314202998764813,True,38,-1,0,0
Y2-S2-090M19,4,459,AS,exp,50,→,up,↑,0.11762010026723146,False,38,-1,0,0
Y2-S2-090M19,4,460,AS,exp,32,↓,up,↑,0.11782250041142106,False,39,-1,0,0
Y2-S2-090M19,4,461,AS,exp,37,↑,right,→,0.08433499978855252,False,40,-1,0,0
Y2-S2-090M19,4,462,AS,exp,43,→,right,→,0.15090559981763363,True,41,-1,0,0
Y2-S2-090M19,4,463,AS,exp,41,↑,down,↓,0.05107479961588979,False,41,-1,0,0
Y2-S2-090M19,4,464,AS,exp,50,↓,right,→,0.5511346999555826,False,42,-1,0,0
Y2-S2-090M19,4,465,AS,exp,50,↑,up,↑,0.6677493997849524,True,43,-1,0,0
Y2-S2-090M19,4,466,AS,exp,31,→,left,←,0.5676983003504574,False,43,-1,0,0
Y2-S2-090M19,4,467,AS,exp,41,←,right,→,0.5344426999799907,False,44,-1,0,0
Y2-S2-090M19,4,468,AS,exp,41,↑,up,↑,0.700906699988991,True,45,-1,0,0
Y2-S2-090M19,4,469,AS,exp,50,↓,down,↓,0.6343871997669339,True,45,-1,0,0
Y2-S2-090M19,4,470,AS,exp,26,→,right,→,0.46769100008532405,True,45,1,1,1
Y2-S2-090M19,4,471,AS,exp,27,↑,up,↑,0.8008896000683308,True,44,1,0,1
Y2-S2-090M19,4,472,AS,exp,30,→,right,→,0.6013639001175761,True,44,1,0,1
Y2-S2-090M19,4,473,AS,exp,49,↓,down,↓,0.5510009001009166,True,44,1,0,1
Y2-S2-090M19,4,474,AS,exp,49,→,right,→,0.5178454997949302,True,43,1,0,1
Y2-S2-090M19,4,475,AS,exp,41,↑,up,↑,0.617888200096786,True,43,1,0,1
Y2-S2-090M19,4,476,AS,exp,34,←,up,↑,0.23403460020199418,False,43,-1,1,2
Y2-S2-090M19,4,477,AS,exp,40,→,left,←,0.15119019988924265,False,44,-1,0,2
Y2-S2-090M19,4,478,AS,exp,39,↑,up,↑,0.6508531998842955,True,45,-1,0,2
Y2-S2-090M19,4,479,AS,exp,45,→,right,→,0.35040439991280437,True,45,-1,0,2
Y2-S2-090M19,4,480,AS,exp,36,↓,up,↑,0.5176563002169132,False,45,-1,0,2
Y2-S2-090M19,4,481,AS,exp,30,→,right,→,0.06797590013593435,True,46,-1,0,2
Y2-S2-090M19,4,482,AS,exp,46,↓,down,↓,0.2511304998770356,True,46,-1,0,2
Y2-S2-090M19,4,483,AS,exp,45,←,left,←,0.9479157002642751,True,46,1,1,3
Y2-S2-090M19,4,484,AS,exp,33,↓,down,↓,1.1902605001814663,True,45,1,0,3
Y2-S2-090M19,4,485,AS,exp,41,→,right,→,0.5010172999463975,True,45,1,0,3
Y2-S2-090M19,4,486,AS,exp,50,←,down,↓,0.6675520003773272,False,45,-1,1,4
Y2-S2-090M19,4,487,AS,exp,50,→,right,→,0.3846859000623226,True,46,-1,0,4
Y2-S2-090M19,4,488,AS,exp,41,↓,down,↓,0.7507430999539793,True,46,-1,0,4
Y2-S2-090M19,4,489,AS,exp,38,→,right,→,0.36766300024464726,True,46,1,1,5
Y2-S2-090M19,4,490,AS,exp,49,←,left,←,0.634370299987495,True,45,1,0,5
Y2-S2-090M19,4,491,AS,exp,35,→,right,→,0.4178058998659253,True,45,1,0,5
Y2-S2-090M19,4,492,AS,exp,40,←,left,←,0.6508693997748196,True,45,1,0,5
Y2-S2-090M19,4,493,AS,exp,44,→,right,→,0.3511916003189981,True,44,1,0,5
Y2-S2-090M19,4,494,AS,exp,39,↓,down,↓,0.5677223997190595,True,44,1,0,5
Y2-S2-090M19,4,495,AS,exp,36,←,down,↓,1.1345481001771986,False,44,-1,1,6
Y2-S2-090M19,4,496,AS,exp,40,↑,left,←,0.6177285998128355,False,45,-1,0,6
Y2-S2-090M19,4,497,AS,exp,37,←,left,←,1.0101296002976596,True,46,-1,0,6
Y2-S2-090M19,4,498,AS,exp,30,↓,up,↑,0.3677452001720667,False,46,-1,0,6
Y2-S2-090M19,4,499,AS,exp,31,←,right,→,0.2014772999100387,False,47,-1,0,6
Y2-S2-090M19,4,500,AS,exp,39,↑,up,↑,0.4343400998041034,True,48,-1,0,6
Y2-S2-090M19,4,501,AS,exp,47,↓,down,↓,0.7180143999867141,True,48,-1,0,6
Y2-S2-090M19,4,502,AS,exp,33,→,right,→,0.3346458999440074,True,48,1,1,7
Y2-S2-090M19,4,503,AS,exp,40,↑,up,↑,1.1276936000213027,True,47,1,0,7
Y2-S2-090M19,4,504,AS,exp,39,←,left,←,0.4010738995857537,True,47,1,0,7
Y2-S2-090M19,4,505,AS,exp,37,↑,up,↑,0.38451260002329946,True,47,1,0,7
Y2-S2-090M19,4,506,AS,exp,34,↓,down,↓,0.484370700083673,True,46,1,0,7
Y2-S2-090M19,4,507,AS,exp,48,↑,up,↑,0.6672779000364244,True,46,1,0,7
Y2-S2-090M19,4,508,AS,exp,47,→,right,→,0.3343316996470094,True,46,1,0,7
Y2-S2-090M19,4,509,AS,exp,46,↓,up,↑,0.5344881000928581,False,45,-1,1,8
Y2-S2-090M19,4,510,AS,exp,42,←,down,↓,0.15066109970211983,False,46,-1,0,8
Y2-S2-090M19,4,511,AS,exp,46,↑,up,↑,0.7674155998975039,True,47,-1,0,8
Y2-S2-090M19,4,512,AS,exp,47,→,right,→,0.6507564000785351,True,47,-1,0,8
Y2-S2-090M19,4,513,AS,exp,31,↑,up,↑,0.4182841000147164,True,47,1,1,9
Y2-S2-090M19,4,514,AS,exp,38,→,right,→,0.6176082002930343,True,46,1,0,9
Y2-S2-090M19,4,515,AS,exp,32,↑,up,↑,0.6010874998755753,True,46,1,0,9
Y2-S2-090M19,4,516,AS,exp,37,←,right,→,0.5343927000649273,False,46,-1,1,10
Y2-S2-090M19,4,517,AS,exp,32,↓,down,↓,0.8171927998773754,True,47,-1,0,10
Y2-S2-090M19,4,518,AS,exp,28,←,left,←,0.5001536998897791,True,47,-1,0,10
Y2-S2-090M19,4,519,AS,exp,32,→,right,→,0.6508232997730374,True,47,1,1,11
Y2-S2-090M19,4,520,AS,exp,48,←,left,←,0.5679403999820352,True,46,1,0,11
Y2-S2-090M19,4,521,AS,exp,33,↑,up,↑,0.6343931001611054,True,46,1,0,11
Y2-S2-090M19,4,522,AS,exp,32,←,left,←,0.734466299880296,True,46,1,0,11
Y2-S2-090M19,4,523,AS,exp,41,↓,down,↓,0.7009839001111686,True,45,1,0,11
Y2-S2-090M19,4,524,AS,exp,28,→,right,→,0.6344352001324296,True,45,1,0,11
Y2-S2-090M19,4,525,AS,exp,44,←,left,←,0.46838170010596514,True,45,1,0,11
Y2-S2-090M19,4,526,AS,exp,25,↓,down,↓,0.5343875996768475,True,44,1,0,11
Y2-S2-090M19,4,527,AS,exp,34,→,right,→,0.40121200028806925,True,44,1,0,11
Y2-S2-090M19,4,528,AS,exp,44,↓,down,↓,0.5677428999915719,True,44,1,0,11
Y2-S2-090M19,4,529,AS,exp,35,←,left,←,0.434663999825716,True,43,1,0,11
Y2-S2-090M19,4,530,AS,exp,49,→,right,→,0.5674984999932349,True,43,1,0,11
Y2-S2-090M19,4,531,AS,exp,28,↑,up,↑,0.5172631996683776,True,43,1,0,11
Y2-S2-090M19,4,532,AS,exp,33,←,left,←,0.4502675998955965,True,42,1,0,11
Y2-S2-090M19,4,533,AS,exp,32,↑,up,↑,0.6013692002743483,True,42,1,0,11
Y2-S2-090M19,4,534,AS,exp,47,→,right,→,0.7172805001027882,True,42,1,0,11
Y2-S2-090M19,4,535,AS,exp,43,↓,down,↓,0.6343926000408828,True,41,1,0,11
Y2-S2-090M19,4,536,AS,exp,36,←,left,←,0.6005669999867678,True,41,1,0,11
Y2-S2-090M19,4,537,AS,exp,47,↓,down,↓,0.6011065002530813,True,41,1,0,11
Y2-S2-090M19,4,538,AS,exp,33,←,left,←,0.6342702000401914,True,40,1,0,11
Y2-S2-090M19,4,539,AS,exp,28,↑,down,↓,0.5512024001218379,False,40,-1,1,12
Y2-S2-090M19,4,540,AS,exp,28,→,right,→,0.5179516999050975,True,41,-1,0,12
Y2-S2-090M19,4,541,AS,exp,33,←,left,←,0.5338820000179112,True,41,-1,0,12
Y2-S2-090M19,4,542,AS,exp,34,↓,down,↓,0.7839050996117294,True,41,1,1,13
Y2-S2-090M19,4,543,AS,exp,26,←,left,←,0.5012686997652054,True,40,1,0,13
Y2-S2-090M19,4,544,AS,exp,32,↓,down,↓,0.6504490002989769,True,40,1,0,13
Y2-S2-090M19,4,545,AS,exp,40,↑,up,↑,0.6343248002231121,True,40,1,0,13
Y2-S2-090M19,4,546,AS,exp,45,→,left,←,0.5679776999168098,False,39,-1,1,14
Y2-S2-090M19,4,547,AS,exp,26,↑,up,↑,0.5676688002422452,True,40,-1,0,14
Y2-S2-090M19,4,548,AS,exp,49,←,left,←,0.38445999985560775,True,40,-1,0,14
Y2-S2-090M19,4,549,AS,exp,46,↓,down,↓,0.467370199970901,True,40,1,1,15
Y2-S2-090M19,4,550,AS,exp,43,↑,up,↑,0.7005817997269332,True,39,1,0,15
Y2-S2-090M19,4,551,AS,exp,47,←,right,→,0.7174076000228524,False,39,-1,1,16
Y2-S2-090M19,5,552,AS,intra_train,50,→,left,←,0.31753720017150044,False,24,-,-,-
Y2-S2-090M19,5,553,AS,intra_train,32,↑,up,↑,0.3345143999904394,True,24,-,-,-
Y2-S2-090M19,5,554,AS,intra_train,32,→,left,←,0.5007843002676964,False,24,-,-,-
Y2-S2-090M19,5,555,AS,intra_train,36,←,left,←,0.4510993999429047,True,24,-,-,-
Y2-S2-090M19,5,556,AS,intra_train,43,↑,up,↑,0.4006272000260651,True,24,-,-,-
Y2-S2-090M19,5,557,AS,exp,34,→,right,→,0.3506994997151196,True,16,0,0,0
Y2-S2-090M19,5,558,AS,exp,35,←,left,←,0.23426279984414577,True,16,0,0,0
Y2-S2-090M19,5,559,AS,exp,49,↓,up,↑,0.16761060012504458,False,16,-1,0,0
Y2-S2-090M19,5,560,AS,exp,46,↑,left,←,1.6904477998614311,False,17,-1,0,0
Y2-S2-090M19,5,561,AS,exp,28,↓,up,↑,0.46961679961532354,False,18,-1,0,0
Y2-S2-090M19,5,562,AS,exp,38,→,left,←,0.2501908000558615,False,19,-1,0,0
Y2-S2-090M19,5,563,AS,exp,30,←,left,←,0.0012466004118323326,True,20,-1,0,0
Y2-S2-090M19,5,564,AS,exp,35,↓,up,↑,0.15106290020048618,False,20,-1,0,0
Y2-S2-090M19,5,565,AS,exp,26,→,right,→,0.9455847996287048,True,21,-1,0,0
Y2-S2-090M19,5,566,AS,exp,39,←,no_key,no_letter,-1.0,False,21,-1,0,0
Y2-S2-090M19,5,567,AS,exp,38,↑,up,↑,0.7168932999484241,True,22,-1,0,0
Y2-S2-090M19,5,568,AS,exp,33,←,left,←,0.6043124999850988,True,22,-1,0,0
Y2-S2-090M19,5,569,AS,exp,29,→,right,→,0.6378565998747945,True,22,1,1,1
Y2-S2-090M19,5,570,AS,exp,38,←,left,←,0.6874004998244345,True,21,1,0,1
Y2-S2-090M19,5,571,AS,exp,41,↓,down,↓,0.4838922000490129,True,21,1,0,1
Y2-S2-090M19,5,572,AS,exp,47,↑,up,↑,0.4841426000930369,True,21,1,0,1
Y2-S2-090M19,5,573,AS,exp,33,→,no_key,no_letter,-1.0,False,20,-1,1,2
Y2-S2-090M19,5,574,AS,exp,32,↑,up,↑,0.7482678000815213,True,21,-1,0,2
Y2-S2-090M19,5,575,AS,exp,39,←,up,↑,1.5181841002777219,False,21,-1,0,2
Y2-S2-090M19,5,576,AS,exp,34,↓,down,↓,0.7651912998408079,True,22,-1,0,2
Y2-S2-090M19,5,577,AS,exp,47,↑,up,↑,0.835986599791795,True,22,-1,0,2
Y2-S2-090M19,5,578,AS,exp,37,↓,up,↑,0.43410310009494424,False,22,-1,0,2
Y2-S2-090M19,5,579,AS,exp,47,→,right,→,0.40043980022892356,True,23,-1,0,2
Y2-S2-090M19,5,580,AS,exp,26,↑,down,↓,0.8813227000646293,False,23,-1,0,2
Y2-S2-090M19,5,581,AS,exp,33,←,left,←,0.7746215998195112,True,24,-1,0,2
Y2-S2-090M19,5,582,AS,exp,48,↓,down,↓,0.7294085002504289,True,24,-1,0,2
Y2-S2-090M19,5,583,AS,exp,31,←,up,↑,0.699396800249815,False,24,-1,0,2
Y2-S2-090M19,5,584,AS,exp,50,↓,down,↓,0.46728199999779463,True,25,-1,0,2
Y2-S2-090M19,5,585,AS,exp,36,↑,up,↑,0.7963289003819227,True,25,-1,0,2
Y2-S2-090M19,5,586,AS,exp,48,↓,no_key,no_letter,-1.0,False,25,-1,0,2
Y2-S2-090M19,5,587,AS,exp,49,↑,left,←,1.005593900103122,False,26,-1,0,2
Y2-S2-090M19,5,588,AS,exp,46,→,right,→,0.4338754997588694,True,27,-1,0,2
Y2-S2-090M19,5,589,AS,exp,50,←,left,←,0.40120969992130995,True,27,-1,0,2
Y2-S2-090M19,5,590,AS,exp,48,↑,up,↑,0.5005186996422708,True,27,1,1,3
Y2-S2-090M19,5,591,AS,exp,35,→,right,→,0.683319500181824,True,26,1,0,3
Y2-S2-090M19,5,592,AS,exp,32,↓,down,↓,0.781275499612093,True,26,1,0,3
Y2-S2-090M19,5,593,AS,exp,36,↑,up,↑,0.4339091000147164,True,26,1,0,3
Y2-S2-090M19,5,594,AS,exp,36,→,right,→,0.8388913995586336,True,25,1,0,3
Y2-S2-090M19,5,595,AS,exp,27,←,left,←,0.688069200143218,True,25,1,0,3
Y2-S2-090M19,5,596,AS,exp,35,↓,up,↑,0.4340936001390219,False,25,-1,1,4
Y2-S2-090M19,5,597,AS,exp,48,↑,up,↑,0.41723049990832806,True,26,-1,0,4
Y2-S2-090M19,5,598,AS,exp,31,→,right,→,0.6888146996498108,True,26,-1,0,4
Y2-S2-090M19,5,599,AS,exp,41,↑,up,↑,0.6852246001362801,True,26,1,1,5
Y2-S2-090M19,5,600,AS,exp,36,→,right,→,0.3676432999782264,True,25,1,0,5
Y2-S2-090M19,5,601,AS,exp,25,↓,down,↓,0.5007123998366296,True,25,1,0,5
Y2-S2-090M19,5,602,AS,exp,34,→,right,→,0.5507424999959767,True,25,1,0,5
Y2-S2-090M19,5,603,AS,exp,30,↓,down,↓,0.13449750002473593,True,24,1,0,5
Y2-S2-090M19,5,604,AS,exp,44,←,left,←,0.13436450017616153,True,24,1,0,5
Y2-S2-090M19,5,605,AS,exp,26,↓,right,→,0.16776510002091527,False,24,-1,1,6
Y2-S2-090M19,5,606,AS,exp,40,←,down,↓,0.050663300324231386,False,25,-1,0,6
Y2-S2-090M19,5,607,AS,exp,36,→,left,←,0.26797090005129576,False,26,-1,0,6
Y2-S2-090M19,5,608,AS,exp,45,←,left,←,1.0178273003548384,True,27,-1,0,6
Y2-S2-090M19,5,609,AS,exp,30,↑,up,↑,0.3844192000105977,True,27,-1,0,6
Y2-S2-090M19,5,610,AS,exp,32,↓,down,↓,0.48408420011401176,True,27,1,1,7
Y2-S2-090M19,5,611,AS,exp,31,←,left,←,1.257983900140971,True,26,1,0,7
Y2-S2-090M19,5,612,AS,exp,35,↓,down,↓,0.5503735998645425,True,26,1,0,7
Y2-S2-090M19,5,613,AS,exp,50,←,left,←,0.401396700181067,True,26,1,0,7
Y2-S2-090M19,5,614,AS,exp,27,→,right,→,0.6258938000537455,True,25,1,0,7
Y2-S2-090M19,5,615,AS,exp,37,↓,down,↓,0.533679099753499,True,25,1,0,7
Y2-S2-090M19,5,616,AS,exp,47,↑,up,↑,0.5172159001231194,True,25,1,0,7
Y2-S2-090M19,5,617,AS,exp,45,↓,down,↓,1.0212095999158919,True,24,1,0,7
Y2-S2-090M19,5,618,AS,exp,45,→,right,→,0.400600700173527,True,24,1,0,7
Y2-S2-090M19,5,619,AS,exp,28,↑,up,↑,0.8540968000888824,True,24,1,0,7
Y2-S2-090M19,5,620,AS,exp,46,←,left,←,1.7344077001325786,True,23,1,0,7
Y2-S2-090M19,5,621,AS,exp,31,→,right,→,0.36708080023527145,True,23,1,0,7
Y2-S2-090M19,5,622,AS,exp,39,↑,up,↑,0.6305630998685956,True,23,1,0,7
Y2-S2-090M19,5,623,AS,exp,48,←,left,←,0.7809474999085069,True,22,1,0,7
Y2-S2-090M19,5,624,AS,exp,34,→,right,→,0.40056069986894727,True,22,1,0,7
Y2-S2-090M19,5,625,AS,exp,35,↑,up,↑,0.6776157999411225,True,22,1,0,7
Y2-S2-090M19,5,626,AS,exp,47,↓,down,↓,0.6890924000181258,True,21,1,0,7
Y2-S2-090M19,5,627,AS,exp,44,←,left,←,0.6764775002375245,True,21,1,0,7
Y2-S2-090M19,5,628,AS,exp,34,↑,up,↑,0.6822343999519944,True,21,1,0,7
Y2-S2-090M19,5,629,AS,exp,40,←,left,←,0.5959528000093997,True,20,1,0,7
Y2-S2-090M19,5,630,AS,exp,41,↑,up,↑,0.4505984000861645,True,20,1,0,7
Y2-S2-090M19,5,631,AS,exp,30,→,right,→,0.43390100030228496,True,20,1,0,7
Y2-S2-090M19,5,632,AS,exp,44,↑,up,↑,0.6732441997155547,True,19,1,0,7
Y2-S2-090M19,5,633,AS,exp,46,↓,down,↓,0.40076079964637756,True,19,1,0,7
Y2-S2-090M19,5,634,AS,exp,39,↑,up,↑,0.45038040028885007,True,19,1,0,7
Y2-S2-090M19,5,635,AS,exp,49,←,left,←,0.4338354002684355,True,18,1,0,7
Y2-S2-090M19,5,636,AS,exp,43,→,left,←,0.5689528002403677,False,18,-1,1,8
Y2-S2-090M19,5,637,AS,exp,28,←,left,←,1.107994900085032,True,19,-1,0,8
Y2-S2-090M19,5,638,AS,exp,26,↓,down,↓,1.0162202999927104,True,19,-1,0,8
Y2-S2-090M19,5,639,AS,exp,43,←,left,←,0.6651459001004696,True,19,1,1,9
Y2-S2-090M19,5,640,AS,exp,35,↓,down,↓,0.629101499915123,True,18,1,0,9
Y2-S2-090M19,5,641,AS,exp,50,→,right,→,0.7409453000873327,True,18,1,0,9
Y2-S2-090M19,5,642,AS,exp,49,↑,up,↑,0.5113801998086274,True,18,1,0,9
Y2-S2-090M19,5,643,AS,exp,28,←,left,←,0.6128174001350999,True,17,1,0,9
Y2-S2-090M19,5,644,AS,exp,32,→,right,→,1.303833399899304,True,17,1,0,9
Y2-S2-090M19,5,645,AS,exp,29,←,left,←,0.7952722003683448,True,17,1,0,9
Y2-S2-090M19,5,646,AS,exp,50,↓,down,↓,0.8402996999211609,True,16,1,0,9
Y2-S2-090M19,5,647,AS,exp,48,↑,up,↑,0.5239604003727436,True,16,1,0,9
Y2-S2-090M19,5,648,AS,exp,31,→,up,↑,0.6861309995874763,False,16,-1,1,10
Y2-S2-090M19,5,649,AS,exp,34,↑,down,↓,0.8261429998092353,False,17,-1,0,10
Y2-S2-090M19,5,650,AS,exp,41,↓,down,↓,0.6398642002604902,True,18,-1,0,10
Y2-S2-090M19,5,651,AS,exp,31,→,right,→,0.6297654998488724,True,18,-1,0,10
Y2-S2-090M19,5,652,AS,exp,44,↑,up,↑,0.699488699901849,True,18,1,1,11
Y2-S2-090M19,5,653,AS,exp,30,←,left,←,0.49063479993492365,True,17,1,0,11
Y2-S2-090M19,5,654,AS,exp,44,→,right,→,0.4536486999131739,True,17,1,0,11
Y2-S2-090M19,5,655,AS,exp,25,↓,down,↓,0.6798791000619531,True,17,1,0,11
Y2-S2-090M19,5,656,AS,exp,39,↑,up,↑,0.6967692002654076,True,16,1,0,11
Y2-S2-090M19,5,657,AS,exp,36,↓,down,↓,0.5872689001262188,True,16,1,0,11
Y2-S2-090M19,5,658,AS,exp,48,↑,down,↓,0.5998474997468293,False,16,-1,1,12
Y2-S2-090M19,5,659,AS,exp,33,↓,down,↓,0.9819923001341522,True,17,-1,0,12
Y2-S2-090M19,5,660,AS,exp,42,←,left,←,0.4598058997653425,True,17,-1,0,12
Y2-S2-090M19,5,661,AS,exp,27,↑,up,↑,0.5819362998008728,True,17,1,1,13
Y2-S2-090M19,5,662,AS,exp,39,←,up,↑,0.8579239998944104,False,16,-1,1,14
Y2-S2-090M19,5,663,AS,exp,38,↓,right,→,0.2512506996281445,False,17,-1,0,14
Y2-S2-090M19,5,664,AS,exp,41,→,left,←,0.2512741996906698,False,18,-1,0,14
Y2-S2-090M19,5,665,AS,exp,42,↓,up,↑,0.9150149002671242,False,19,-1,0,14
Y2-S2-090M19,5,666,AS,exp,30,↑,up,↑,0.4010332999750972,True,20,-1,0,14
Y2-S2-090M19,5,667,AS,exp,36,↓,down,↓,0.8353757997974753,True,20,-1,0,14
Y2-S2-090M19,5,668,AS,exp,32,↑,up,↑,0.5870801000855863,True,20,1,1,15
Y2-S2-090M19,5,669,AS,exp,44,→,right,→,0.33405480021610856,True,19,1,0,15
Y2-S2-090M19,5,670,AS,exp,25,←,left,←,0.7417905000038445,True,19,1,0,15
Y2-S2-090M19,5,671,AS,exp,33,→,left,←,0.513325700070709,False,19,-1,1,16
Y2-S2-090M19,6,672,PS,intra_train,42,←,right,→,0.3671793001703918,False,15,-,-,-
Y2-S2-090M19,6,673,PS,intra_train,49,↓,right,→,1.2352327997796237,False,15,-,-,-
Y2-S2-090M19,6,674,PS,intra_train,36,→,no_key,no_letter,-1.0,False,15,-,-,-
Y2-S2-090M19,6,675,PS,intra_train,27,↑,up,↑,0.7054448998533189,True,15,-,-,-
Y2-S2-090M19,6,676,PS,intra_train,33,←,left,←,0.5626615998335183,True,15,-,-,-
Y2-S2-090M19,6,677,PS,exp,48,↓,down,↓,0.6245971000753343,True,10,0,0,0
Y2-S2-090M19,6,678,PS,exp,26,↑,left,←,0.5959548000246286,False,10,-1,0,0
Y2-S2-090M19,6,679,PS,exp,31,↓,right,→,1.0188647001050413,False,11,-1,0,0
Y2-S2-090M19,6,680,PS,exp,40,→,right,→,0.4440087000839412,True,12,-1,0,0
Y2-S2-090M19,6,681,PS,exp,43,↑,up,↑,0.6801475002430379,True,12,-1,0,0
Y2-S2-090M19,6,682,PS,exp,25,→,right,→,0.7053318000398576,True,12,1,1,1
Y2-S2-090M19,6,683,PS,exp,39,↑,left,←,0.7380565996281803,False,11,-1,1,2
Y2-S2-090M19,6,684,PS,exp,39,←,left,←,0.44779020035639405,True,12,-1,0,2
Y2-S2-090M19,6,685,PS,exp,39,↓,down,↓,0.6975376000627875,True,12,-1,0,2
Y2-S2-090M19,6,686,PS,exp,42,→,right,→,0.5692799999378622,True,12,1,1,3
Y2-S2-090M19,6,687,PS,exp,32,←,left,←,0.42126599978655577,True,11,1,0,3
Y2-S2-090M19,6,688,PS,exp,30,↓,down,↓,0.43487289967015386,True,11,1,0,3
Y2-S2-090M19,6,689,PS,exp,40,↑,left,←,0.35885920003056526,False,11,-1,1,4
Y2-S2-090M19,6,690,PS,exp,36,→,right,→,0.45922029996290803,True,12,-1,0,4
Y2-S2-090M19,6,691,PS,exp,47,↑,up,↑,0.5730411000549793,True,12,-1,0,4
Y2-S2-090M19,6,692,PS,exp,27,→,right,→,0.43875710014253855,True,12,1,1,5
Y2-S2-090M19,6,693,PS,exp,37,↑,left,←,0.4943381999619305,False,11,-1,1,6
Y2-S2-090M19,6,694,PS,exp,44,←,right,→,0.2843192000873387,False,12,-1,0,6
Y2-S2-090M19,6,695,PS,exp,38,↓,down,↓,0.6598793999291956,True,13,-1,0,6
Y2-S2-090M19,6,696,PS,exp,40,←,left,←,0.5907475999556482,True,13,-1,0,6
Y2-S2-090M19,6,697,PS,exp,40,↑,right,→,0.8030034000985324,False,13,-1,0,6
Y2-S2-090M19,6,698,PS,exp,45,→,right,→,0.45847880002111197,True,14,-1,0,6
Y2-S2-090M19,6,699,PS,exp,32,←,left,←,0.4708589999936521,True,14,-1,0,6
Y2-S2-090M19,6,700,PS,exp,50,↓,right,→,0.7557362001389265,False,14,-1,0,6
Y2-S2-090M19,6,701,PS,exp,40,↑,up,↑,0.4777103001251817,True,15,-1,0,6
Y2-S2-090M19,6,702,PS,exp,40,←,left,←,0.658971999771893,True,15,-1,0,6
Y2-S2-090M19,6,703,PS,exp,32,→,down,↓,0.28379320027306676,False,15,-1,0,6
Y2-S2-090M19,6,704,PS,exp,34,←,left,←,0.45023779990151525,True,16,-1,0,6
Y2-S2-090M19,6,705,PS,exp,31,↑,right,→,1.0801884001120925,False,16,-1,0,6
Y2-S2-090M19,6,706,PS,exp,40,→,up,↑,0.25091439997777343,False,17,-1,0,6
Y2-S2-090M19,6,707,PS,exp,27,←,right,→,0.18401149986311793,False,18,-1,0,6
Y2-S2-090M19,6,708,PS,exp,44,→,right,→,1.4212179998867214,True,19,-1,0,6
Y2-S2-090M19,6,709,PS,exp,38,↑,up,↑,0.5246468996629119,True,19,-1,0,6
Y2-S2-090M19,6,710,PS,exp,29,↓,right,→,0.7789471000432968,False,19,-1,0,6
Y2-S2-090M19,6,711,PS,exp,42,←,right,→,0.5610996000468731,False,20,-1,0,6
Y2-S2-090M19,6,712,PS,exp,29,↑,up,↑,0.4679958000779152,True,21,-1,0,6
Y2-S2-090M19,6,713,PS,exp,45,←,left,←,1.0280736000277102,True,21,-1,0,6
Y2-S2-090M19,6,714,PS,exp,44,↓,down,↓,0.5539617002941668,True,21,1,1,7
Y2-S2-090M19,6,715,PS,exp,50,↑,right,→,0.5539808999747038,False,20,-1,1,8
Y2-S2-090M19,6,716,PS,exp,30,←,left,←,0.4839361999183893,True,21,-1,0,8
Y2-S2-090M19,6,717,PS,exp,38,↓,down,↓,0.5684094000607729,True,21,-1,0,8
Y2-S2-090M19,6,718,PS,exp,45,←,left,←,0.5286846002563834,True,21,1,1,9
Y2-S2-090M19,6,719,PS,exp,35,→,right,→,0.43397899996489286,True,20,1,0,9
Y2-S2-090M19,6,720,PS,exp,48,↓,left,←,0.858665400184691,False,20,-1,1,10
Y2-S2-090M19,6,721,PS,exp,45,←,left,←,0.46741020027548075,True,21,-1,0,10
Y2-S2-090M19,6,722,PS,exp,26,↓,down,↓,0.5427199997939169,True,21,-1,0,10
Y2-S2-090M19,6,723,PS,exp,41,→,left,←,0.5231087999418378,False,21,-1,0,10
Y2-S2-090M19,6,724,PS,exp,46,←,left,←,0.33425420010462403,True,22,-1,0,10
Y2-S2-090M19,6,725,PS,exp,25,↑,down,↓,0.669605900067836,False,22,-1,0,10
Y2-S2-090M19,6,726,PS,exp,45,←,left,←,0.35121330013498664,True,23,-1,0,10
Y2-S2-090M19,6,727,PS,exp,28,→,right,→,0.7059141001664102,True,23,-1,0,10
Y2-S2-090M19,6,728,PS,exp,28,↓,down,↓,1.026029699947685,True,23,1,1,11
Y2-S2-090M19,6,729,PS,exp,27,←,left,←,1.0476563996635377,True,22,1,0,11
Y2-S2-090M19,6,730,PS,exp,28,→,right,→,1.0271101002581418,True,22,1,0,11
Y2-S2-090M19,6,731,PS,exp,45,↑,up,↑,0.611145299859345,True,22,1,0,11
Y2-S2-090M19,6,732,PS,exp,43,↓,down,↓,1.0730642001144588,True,21,1,0,11
Y2-S2-090M19,6,733,PS,exp,33,→,right,→,0.4339335998520255,True,21,1,0,11
Y2-S2-090M19,6,734,PS,exp,50,←,left,←,0.3670345996506512,True,21,1,0,11
Y2-S2-090M19,6,735,PS,exp,41,↓,down,↓,0.4674216997809708,True,20,1,0,11
Y2-S2-090M19,6,736,PS,exp,46,↑,up,↑,0.5619915002025664,True,20,1,0,11
Y2-S2-090M19,6,737,PS,exp,41,←,left,←,0.4340280001051724,True,20,1,0,11
Y2-S2-090M19,6,738,PS,exp,30,↑,up,↑,1.3455734997987747,True,19,1,0,11
Y2-S2-090M19,6,739,PS,exp,44,→,right,→,0.4342002999037504,True,19,1,0,11
Y2-S2-090M19,6,740,PS,exp,38,←,right,→,0.6933713997714221,False,19,-1,1,12
Y2-S2-090M19,6,741,PS,exp,36,→,right,→,0.40102320024743676,True,20,-1,0,12
Y2-S2-090M19,6,742,PS,exp,33,↑,up,↑,0.5188993001356721,True,20,-1,0,12
Y2-S2-090M19,6,743,PS,exp,41,↓,up,↑,0.6916078999638557,False,20,-1,0,12
Y2-S2-090M19,6,744,PS,exp,39,→,right,→,0.450615799985826,True,21,-1,0,12
Y2-S2-090M19,6,745,PS,exp,29,↓,down,↓,0.6062149000354111,True,21,-1,0,12
Y2-S2-090M19,6,746,PS,exp,32,→,right,→,0.5283276997506618,True,21,1,1,13
Y2-S2-090M19,6,747,PS,exp,43,↑,up,↑,0.8110747002065182,True,20,1,0,13
Y2-S2-090M19,6,748,PS,exp,44,→,right,→,0.4506986001506448,True,20,1,0,13
Y2-S2-090M19,6,749,PS,exp,33,↑,up,↑,0.6015003998763859,True,20,1,0,13
Y2-S2-090M19,6,750,PS,exp,44,←,left,←,0.4007267002016306,True,19,1,0,13
Y2-S2-090M19,6,751,PS,exp,40,↓,down,↓,0.6168215000070632,True,19,1,0,13
Y2-S2-090M19,6,752,PS,exp,27,←,left,←,0.523482599761337,True,19,1,0,13
Y2-S2-090M19,6,753,PS,exp,36,↑,up,↑,0.5897972001694143,True,18,1,0,13
Y2-S2-090M19,6,754,PS,exp,37,↓,down,↓,0.7573727001436055,True,18,1,0,13
Y2-S2-090M19,6,755,PS,exp,37,↑,up,↑,0.6289289998821914,True,18,1,0,13
Y2-S2-090M19,6,756,PS,exp,47,→,right,→,0.5202206000685692,True,17,1,0,13
Y2-S2-090M19,6,757,PS,exp,42,↑,up,↑,0.48299239994958043,True,17,1,0,13
Y2-S2-090M19,6,758,PS,exp,26,←,left,←,0.9395916000939906,True,17,1,0,13
Y2-S2-090M19,6,759,PS,exp,28,↓,down,↓,0.568701300304383,True,16,1,0,13
Y2-S2-090M19,6,760,PS,exp,47,↑,up,↑,0.5949341002851725,True,16,1,0,13
Y2-S2-090M19,6,761,PS,exp,30,→,right,→,1.0051209996454418,True,16,1,0,13
Y2-S2-090M19,6,762,PS,exp,40,↓,down,↓,0.7262347000651062,True,15,1,0,13
Y2-S2-090M19,6,763,PS,exp,28,↑,up,↑,0.6459805998019874,True,15,1,0,13
Y2-S2-090M19,6,764,PS,exp,44,↓,down,↓,0.6073092999868095,True,15,1,0,13
Y2-S2-090M19,6,765,PS,exp,48,←,left,←,0.4928333000279963,True,14,1,0,13
Y2-S2-090M19,6,766,PS,exp,39,↓,down,↓,0.5749543998390436,True,14,1,0,13
Y2-S2-090M19,6,767,PS,exp,45,←,left,←,0.6676778001710773,True,14,1,0,13
Y2-S2-090M19,6,768,PS,exp,32,↓,down,↓,0.4855625997297466,True,13,1,0,13
Y2-S2-090M19,6,769,PS,exp,31,←,left,←,0.48129400005564094,True,13,1,0,13
Y2-S2-090M19,6,770,PS,exp,33,→,right,→,0.4208228001371026,True,13,1,0,13
Y2-S2-090M19,6,771,PS,exp,30,←,right,→,1.163097900338471,False,12,-1,1,14
Y2-S2-090M19,6,772,PS,exp,50,↑,up,↑,0.5322893997654319,True,13,-1,0,14
Y2-S2-090M19,6,773,PS,exp,46,→,right,→,0.5081037003546953,True,13,-1,0,14
Y2-S2-090M19,6,774,PS,exp,44,↑,up,↑,0.5224870000965893,True,13,1,1,15
Y2-S2-090M19,6,775,PS,exp,40,↓,down,↓,0.5098767001181841,True,12,1,0,15
Y2-S2-090M19,6,776,PS,exp,32,↑,up,↑,0.5453261998482049,True,12,1,0,15
Y2-S2-090M19,6,777,PS,exp,39,↓,down,↓,0.5656183999963105,True,12,1,0,15
Y2-S2-090M19,6,778,PS,exp,50,↑,up,↑,0.5201412001624703,True,11,1,0,15
Y2-S2-090M19,6,779,PS,exp,45,↓,down,↓,0.578140000347048,True,11,1,0,15
Y2-S2-090M19,6,780,PS,exp,48,→,right,→,0.317291300278157,True,11,1,0,15
Y2-S2-090M19,6,781,PS,exp,35,↑,up,↑,0.43501009978353977,True,10,1,0,15
Y2-S2-090M19,6,782,PS,exp,30,→,right,→,0.8647488998249173,True,10,1,0,15
Y2-S2-090M19,6,783,PS,exp,35,↓,down,↓,0.5225569000467658,True,10,1,0,15
Y2-S2-090M19,6,784,PS,exp,42,↑,up,↑,0.503651799634099,True,9,1,0,15
Y2-S2-090M19,6,785,PS,exp,47,→,left,←,0.6468902002088726,False,9,-1,1,16
Y2-S2-090M19,7,786,PS,intra_train,33,←,left,←,0.44256090000271797,True,15,-,-,-
Y2-S2-090M19,7,787,PS,intra_train,43,↑,up,↑,0.5226379996165633,True,15,-,-,-
Y2-S2-090M19,7,788,PS,intra_train,50,→,right,→,0.5036396002396941,True,15,-,-,-
Y2-S2-090M19,7,789,PS,intra_train,38,↑,up,↑,0.5295983999967575,True,15,-,-,-
Y2-S2-090M19,7,790,PS,intra_train,50,←,left,←,0.569112699944526,True,15,-,-,-
Y2-S2-090M19,7,791,PS,exp,28,↑,up,↑,0.48200329998508096,True,10,0,0,0
Y2-S2-090M19,7,792,PS,exp,34,←,left,←,0.4228878002613783,True,10,0,0,0
Y2-S2-090M19,7,793,PS,exp,46,→,right,→,0.40652550011873245,True,10,1,0,0
Y2-S2-090M19,7,794,PS,exp,30,↑,up,↑,0.43080119974911213,True,9,1,0,0
Y2-S2-090M19,7,795,PS,exp,27,←,left,←,0.3822185001336038,True,9,1,0,0
Y2-S2-090M19,7,796,PS,exp,39,↓,down,↓,0.5746659999713302,True,9,1,0,0
Y2-S2-090M19,7,797,PS,exp,33,↑,down,↓,0.6587429000064731,False,8,-1,1,1
Y2-S2-090M19,7,798,PS,exp,43,↓,down,↓,0.521580200176686,True,9,-1,0,1
Y2-S2-090M19,7,799,PS,exp,39,→,right,→,0.4428890999406576,True,9,-1,0,1
Y2-S2-090M19,7,800,PS,exp,44,↑,up,↑,0.4449772001244128,True,9,1,1,2
Y2-S2-090M19,7,801,PS,exp,38,←,left,←,0.44658480025827885,True,8,1,0,2
Y2-S2-090M19,7,802,PS,exp,50,→,left,←,0.6379728000611067,False,8,-1,1,3
Y2-S2-090M19,7,803,PS,exp,34,↓,down,↓,0.5126311001367867,True,9,-1,0,3
Y2-S2-090M19,7,804,PS,exp,29,→,right,→,0.3716609003022313,True,9,-1,0,3
Y2-S2-090M19,7,805,PS,exp,26,↓,down,↓,0.44649010011926293,True,9,1,1,4
Y2-S2-090M19,7,806,PS,exp,25,←,down,↓,0.5010708002373576,False,8,-1,1,5
Y2-S2-090M19,7,807,PS,exp,27,↓,down,↓,0.5111716999672353,True,9,-1,0,5
Y2-S2-090M19,7,808,PS,exp,42,←,down,↓,0.3508788999170065,False,9,-1,0,5
Y2-S2-090M19,7,809,PS,exp,27,↓,down,↓,0.47644100012257695,True,10,-1,0,5
Y2-S2-090M19,7,810,PS,exp,41,←,down,↓,0.4649422001093626,False,10,-1,0,5
Y2-S2-090M19,7,811,PS,exp,47,↑,down,↓,0.6697549000382423,False,11,-1,0,5
Y2-S2-090M19,7,812,PS,exp,42,↓,down,↓,0.4229383999481797,True,12,-1,0,5
Y2-S2-090M19,7,813,PS,exp,48,→,right,→,0.480371399782598,True,12,-1,0,5
Y2-S2-090M19,7,814,PS,exp,44,←,left,←,0.43934680009260774,True,12,1,1,6
Y2-S2-090M19,7,815,PS,exp,38,↓,down,↓,1.6166244000196457,True,11,1,0,6
Y2-S2-090M19,7,816,PS,exp,36,←,left,←,0.6118438001722097,True,11,1,0,6
Y2-S2-090M19,7,817,PS,exp,45,→,right,→,0.39467360032722354,True,11,1,0,6
Y2-S2-090M19,7,818,PS,exp,46,↓,down,↓,0.6363520999439061,True,10,1,0,6
Y2-S2-090M19,7,819,PS,exp,42,↑,up,↑,0.608640099875629,True,10,1,0,6
Y2-S2-090M19,7,820,PS,exp,36,↓,down,↓,0.6935978997498751,True,10,1,0,6
Y2-S2-090M19,7,821,PS,exp,42,→,right,→,1.174632600042969,True,9,1,0,6
Y2-S2-090M19,7,822,PS,exp,38,↑,down,↓,1.0253701000474393,False,9,-1,1,7
Y2-S2-090M19,7,823,PS,exp,25,←,left,←,1.0312036997638643,True,10,-1,0,7
Y2-S2-090M19,7,824,PS,exp,30,↓,down,↓,0.8615730996243656,True,10,-1,0,7
Y2-S2-090M19,7,825,PS,exp,45,→,right,→,0.7858883999288082,True,10,1,1,8
Y2-S2-090M19,7,826,PS,exp,50,↑,up,↑,1.0661017000675201,True,9,1,0,8
Y2-S2-090M19,7,827,PS,exp,40,→,right,→,0.5959413996897638,True,9,1,0,8
Y2-S2-090M19,7,828,PS,exp,42,←,left,←,0.5570903001353145,True,9,1,0,8
Y2-S2-090M19,7,829,PS,exp,43,→,right,→,0.8369268998503685,True,8,1,0,8
Y2-S2-090M19,7,830,PS,exp,38,↑,up,↑,1.41846919991076,True,8,1,0,8
Y2-S2-090M19,7,831,PS,exp,35,↓,down,↓,0.8664029003120959,True,8,1,0,8
Y2-S2-090M19,7,832,PS,exp,37,←,left,←,0.5796521003358066,True,7,1,0,8
Y2-S2-090M19,7,833,PS,exp,32,↑,up,↑,0.4224217999726534,True,7,1,0,8
Y2-S2-090M19,7,834,PS,exp,33,←,left,←,0.4303617002442479,True,7,1,0,8
Y2-S2-090M19,7,835,PS,exp,49,↑,right,→,0.8055682997219265,False,6,-1,1,9
Y2-S2-090M19,7,836,PS,exp,31,→,right,→,0.44967469992116094,True,7,-1,0,9
Y2-S2-090M19,7,837,PS,exp,37,↓,right,→,0.4394944002851844,False,7,-1,0,9
Y2-S2-090M19,7,838,PS,exp,43,←,left,←,0.43207510001957417,True,8,-1,0,9
Y2-S2-090M19,7,839,PS,exp,47,↑,right,→,0.7725072996690869,False,8,-1,0,9
Y2-S2-090M19,7,840,PS,exp,47,←,left,←,0.4562359997071326,True,9,-1,0,9
Y2-S2-090M19,7,841,PS,exp,49,↑,left,←,0.5246660998091102,False,9,-1,0,9
Y2-S2-090M19,7,842,PS,exp,34,→,right,→,0.6485951002687216,True,10,-1,0,9
Y2-S2-090M19,7,843,PS,exp,47,←,left,←,0.3735638000071049,True,10,-1,0,9
Y2-S2-090M19,7,844,PS,exp,34,→,right,→,0.3915118002332747,True,10,1,1,10
Y2-S2-090M19,7,845,PS,exp,27,↓,down,↓,0.5044609000906348,True,9,1,0,10
Y2-S2-090M19,7,846,PS,exp,36,↑,up,↑,0.5591139998286963,True,9,1,0,10
Y2-S2-090M19,7,847,PS,exp,35,↓,left,←,0.7397568002343178,False,9,-1,1,11
Y2-S2-090M19,7,848,PS,exp,33,→,right,→,0.41307569993659854,True,10,-1,0,11
Y2-S2-090M19,7,849,PS,exp,38,↓,left,←,0.9860378000885248,False,10,-1,0,11
Y2-S2-090M19,7,850,PS,exp,30,→,right,→,0.4036878999322653,True,11,-1,0,11
Y2-S2-090M19,7,851,PS,exp,27,←,left,←,0.5244057001546025,True,11,-1,0,11
Y2-S2-090M19,7,852,PS,exp,36,→,left,←,0.6245031002908945,False,11,-1,0,11
Y2-S2-090M19,7,853,PS,exp,34,↑,up,↑,0.5302904997952282,True,12,-1,0,11
Y2-S2-090M19,7,854,PS,exp,43,↓,left,←,0.5393321998417377,False,12,-1,0,11
Y2-S2-090M19,7,855,PS,exp,28,→,right,→,0.41963789984583855,True,13,-1,0,11
Y2-S2-090M19,7,856,PS,exp,31,←,left,←,0.3934281002730131,True,13,-1,0,11
Y2-S2-090M19,7,857,PS,exp,33,→,right,→,0.9726510001346469,True,13,1,1,12
Y2-S2-090M19,7,858,PS,exp,46,←,left,←,0.5297737000510097,True,12,1,0,12
Y2-S2-090M19,7,859,PS,exp,26,→,right,→,0.45045580016449094,True,12,1,0,12
Y2-S2-090M19,7,860,PS,exp,50,↑,left,←,0.28387119993567467,False,12,-1,1,13
Y2-S2-090M19,7,861,PS,exp,41,←,left,←,0.6669140998274088,True,13,-1,0,13
Y2-S2-090M19,7,862,PS,exp,26,↓,left,←,0.49020629981532693,False,13,-1,0,13
Y2-S2-090M19,7,863,PS,exp,35,→,right,→,0.36712609976530075,True,14,-1,0,13
Y2-S2-090M19,7,864,PS,exp,26,↓,down,↓,0.5058349003084004,True,14,-1,0,13
Y2-S2-090M19,7,865,PS,exp,29,↑,left,←,0.7373321000486612,False,14,-1,0,13
Y2-S2-090M19,7,866,PS,exp,27,↓,down,↓,0.5291332001797855,True,15,-1,0,13
Y2-S2-090M19,7,867,PS,exp,44,→,right,→,0.5510733998380601,True,15,-1,0,13
Y2-S2-090M19,7,868,PS,exp,35,↓,down,↓,0.44172949995845556,True,15,1,1,14
Y2-S2-090M19,7,869,PS,exp,45,←,left,←,0.543361899908632,True,14,1,0,14
Y2-S2-090M19,7,870,PS,exp,36,↑,up,↑,0.6178781995549798,True,14,1,0,14
Y2-S2-090M19,7,871,PS,exp,43,↓,down,↓,0.5760309998877347,True,14,1,0,14
Y2-S2-090M19,7,872,PS,exp,42,←,left,←,0.5016679000109434,True,13,1,0,14
Y2-S2-090M19,7,873,PS,exp,34,↓,down,↓,0.4504545000381768,True,13,1,0,14
Y2-S2-090M19,7,874,PS,exp,39,→,right,→,0.528207499999553,True,13,1,0,14
Y2-S2-090M19,7,875,PS,exp,34,↓,down,↓,0.5123030999675393,True,12,1,0,14
Y2-S2-090M19,7,876,PS,exp,38,→,no_key,no_letter,-1.0,False,12,-1,1,15
Y2-S2-090M19,7,877,PS,exp,46,↓,down,↓,0.46469710022211075,True,13,-1,0,15
Y2-S2-090M19,7,878,PS,exp,37,→,right,→,0.5656296997331083,True,13,-1,0,15
Y2-S2-090M19,7,879,PS,exp,40,↑,down,↓,0.5612558997236192,False,13,-1,0,15
Y2-S2-090M19,7,880,PS,exp,41,←,left,←,0.6299002999439836,True,14,-1,0,15
Y2-S2-090M19,7,881,PS,exp,44,↓,down,↓,0.6461795000359416,True,14,-1,0,15
Y2-S2-090M19,7,882,PS,exp,33,→,right,→,0.4862119001336396,True,14,1,1,16
Y2-S2-090M19,8,883,AS,intra_train,39,←,left,←,0.8382052998058498,True,24,-,-,-
Y2-S2-090M19,8,884,AS,intra_train,44,↑,no_key,no_letter,-1.0,False,24,-,-,-
Y2-S2-090M19,8,885,AS,intra_train,32,→,right,→,0.7648992002941668,True,24,-,-,-
Y2-S2-090M19,8,886,AS,intra_train,39,↓,down,↓,1.0182178998365998,True,24,-,-,-
Y2-S2-090M19,8,887,AS,intra_train,33,↑,up,↑,0.8699582000263035,True,24,-,-,-
Y2-S2-090M19,8,888,AS,exp,31,→,up,↑,0.8360725999809802,False,16,-1,0,0
Y2-S2-090M19,8,889,AS,exp,26,←,right,→,1.8298586998134851,False,17,-1,0,0
Y2-S2-090M19,8,890,AS,exp,43,↑,up,↑,0.49663499975576997,True,18,-1,0,0
Y2-S2-090M19,8,891,AS,exp,49,↓,right,→,0.6161744999699295,False,18,-1,0,0
Y2-S2-090M19,8,892,AS,exp,47,←,down,↓,0.5757500999607146,False,19,-1,0,0
Y2-S2-090M19,8,893,AS,exp,39,→,right,→,0.7992075998336077,True,20,-1,0,0
Y2-S2-090M19,8,894,AS,exp,44,↓,left,←,0.36736320005729795,False,20,-1,0,0
Y2-S2-090M19,8,895,AS,exp,32,↑,up,↑,0.36756870010867715,True,21,-1,0,0
Y2-S2-090M19,8,896,AS,exp,37,↓,down,↓,0.45061879977583885,True,21,-1,0,0
Y2-S2-090M19,8,897,AS,exp,41,→,right,→,0.6682204999960959,True,21,1,1,1
Y2-S2-090M19,8,898,AS,exp,38,←,right,→,0.9350805999711156,False,20,-1,1,2
Y2-S2-090M19,8,899,AS,exp,38,↓,down,↓,0.7291049999184906,True,21,-1,0,2
Y2-S2-090M19,8,900,AS,exp,44,→,right,→,0.6811661003157496,True,21,-1,0,2
Y2-S2-090M19,8,901,AS,exp,30,↑,up,↑,0.8090058001689613,True,21,1,1,3
Y2-S2-090M19,8,902,AS,exp,30,→,right,→,0.685897400137037,True,20,1,0,3
Y2-S2-090M19,8,903,AS,exp,28,↓,down,↓,0.7728067003190517,True,20,1,0,3
Y2-S2-090M19,8,904,AS,exp,27,←,left,←,0.9033472998999059,True,20,1,0,3
Y2-S2-090M19,8,905,AS,exp,40,↑,up,↑,1.1464321999810636,True,19,1,0,3
Y2-S2-090M19,8,906,AS,exp,49,→,right,→,0.7340156002901495,True,19,1,0,3
Y2-S2-090M19,8,907,AS,exp,42,←,left,←,0.3838158999569714,True,19,1,0,3
Y2-S2-090M19,8,908,AS,exp,41,↑,right,→,0.8838644996285439,False,18,-1,1,4
Y2-S2-090M19,8,909,AS,exp,38,↓,down,↓,0.6880338997580111,True,19,-1,0,4
Y2-S2-090M19,8,910,AS,exp,43,→,right,→,0.3845003000460565,True,19,-1,0,4
Y2-S2-090M19,8,911,AS,exp,49,↑,up,↑,0.7430735002271831,True,19,1,1,5
Y2-S2-090M19,8,912,AS,exp,25,←,left,←,0.6970411003567278,True,18,1,0,5
Y2-S2-090M19,8,913,AS,exp,31,↑,up,↑,1.0323978001251817,True,18,1,0,5
Y2-S2-090M19,8,914,AS,exp,49,↓,left,←,0.6828966001048684,False,18,-1,1,6
Y2-S2-090M19,8,915,AS,exp,40,↑,up,↑,0.43437170004472136,True,19,-1,0,6
Y2-S2-090M19,8,916,AS,exp,44,←,left,←,0.4337690002284944,True,19,-1,0,6
Y2-S2-090M19,8,917,AS,exp,50,→,no_key,no_letter,-1.0,False,19,-1,0,6
Y2-S2-090M19,8,918,AS,exp,33,↓,down,↓,1.441149499733001,True,20,-1,0,6
Y2-S2-090M19,8,919,AS,exp,25,←,left,←,0.9965069000609219,True,20,-1,0,6
Y2-S2-090M19,8,920,AS,exp,30,↑,left,←,0.5488996002823114,False,20,-1,0,6
Y2-S2-090M19,8,921,AS,exp,32,←,left,←,1.0506063997745514,True,21,-1,0,6
Y2-S2-090M19,8,922,AS,exp,50,↓,down,↓,0.6778895002789795,True,21,-1,0,6
Y2-S2-090M19,8,923,AS,exp,29,↑,up,↑,0.5406348998658359,True,21,1,1,7
Y2-S2-090M19,8,924,AS,exp,29,→,right,→,0.6627989001572132,True,20,1,0,7
Y2-S2-090M19,8,925,AS,exp,26,↑,up,↑,1.036836499813944,True,20,1,0,7
Y2-S2-090M19,8,926,AS,exp,32,←,left,←,0.45054850028827786,True,20,1,0,7
Y2-S2-090M19,8,927,AS,exp,37,↓,up,↑,0.8354511996731162,False,19,-1,1,8
Y2-S2-090M19,8,928,AS,exp,32,←,left,←,0.666013800073415,True,20,-1,0,8
Y2-S2-090M19,8,929,AS,exp,49,↓,down,↓,0.8250667001120746,True,20,-1,0,8
Y2-S2-090M19,8,930,AS,exp,30,←,left,←,0.5743308002129197,True,20,1,1,9
Y2-S2-090M19,8,931,AS,exp,39,↑,up,↑,0.9714524997398257,True,19,1,0,9
Y2-S2-090M19,8,932,AS,exp,32,→,right,→,1.172685599885881,True,19,1,0,9
Y2-S2-090M19,8,933,AS,exp,31,↑,up,↑,0.43361750012263656,True,19,1,0,9
Y2-S2-090M19,8,934,AS,exp,46,→,right,→,0.6687557999975979,True,18,1,0,9
Y2-S2-090M19,8,935,AS,exp,47,←,left,←,0.5203916998580098,True,18,1,0,9
Y2-S2-090M19,8,936,AS,exp,39,↓,down,↓,0.6378355999477208,True,18,1,0,9
Y2-S2-090M19,8,937,AS,exp,44,↑,up,↑,0.9066904997453094,True,17,1,0,9
Y2-S2-090M19,8,938,AS,exp,32,→,right,→,0.36729300022125244,True,17,1,0,9
Y2-S2-090M19,8,939,AS,exp,40,←,left,←,0.38376570027321577,True,17,1,0,9
Y2-S2-090M19,8,940,AS,exp,25,→,right,→,0.6227376000024378,True,16,1,0,9
Y2-S2-090M19,8,941,AS,exp,50,←,left,←,0.49784119985997677,True,16,1,0,9
Y2-S2-090M19,8,942,AS,exp,27,↓,up,↑,1.1362776001915336,False,16,-1,1,10
Y2-S2-090M19,8,943,AS,exp,50,←,left,←,0.8916770000942051,True,17,-1,0,10
Y2-S2-090M19,8,944,AS,exp,28,↑,up,↑,0.5166788999922574,True,17,-1,0,10
Y2-S2-090M19,8,945,AS,exp,45,→,right,→,0.4780405997298658,True,17,1,1,11
Y2-S2-090M19,8,946,AS,exp,32,←,left,←,1.0666832998394966,True,16,1,0,11
Y2-S2-090M19,8,947,AS,exp,25,↑,up,↑,0.8991206996142864,True,16,1,0,11
Y2-S2-090M19,8,948,AS,exp,44,→,right,→,0.9750028001144528,True,16,1,0,11
Y2-S2-090M19,8,949,AS,exp,32,↑,up,↑,0.4983081999234855,True,15,1,0,11
Y2-S2-090M19,8,950,AS,exp,40,←,left,←,0.42052739998325706,True,15,1,0,11
Y2-S2-090M19,8,951,AS,exp,48,↑,up,↑,0.4326814003288746,True,15,1,0,11
Y2-S2-090M19,8,952,AS,exp,42,←,left,←,0.9618847998790443,True,14,1,0,11
Y2-S2-090M19,8,953,AS,exp,36,↓,down,↓,0.600144499912858,True,14,1,0,11
Y2-S2-090M19,8,954,AS,exp,50,←,left,←,0.7532298997975886,True,14,1,0,11
Y2-S2-090M19,8,955,AS,exp,46,↓,down,↓,0.8514296999201179,True,13,1,0,11
Y2-S2-090M19,8,956,AS,exp,38,→,right,→,0.4768413999117911,True,13,1,0,11
Y2-S2-090M19,8,957,AS,exp,31,↓,down,↓,0.9364781999029219,True,13,1,0,11
Y2-S2-090M19,8,958,AS,exp,34,←,left,←,0.45325770042836666,True,12,1,0,11
Y2-S2-090M19,8,959,AS,exp,28,↓,up,↑,1.0699686999432743,False,12,-1,1,12
Y2-S2-090M19,8,960,AS,exp,47,←,left,←,0.6593658998608589,True,13,-1,0,12
Y2-S2-090M19,8,961,AS,exp,37,→,right,→,0.3181431000120938,True,13,-1,0,12
Y2-S2-090M19,8,962,AS,exp,30,↑,up,↑,0.5033224001526833,True,13,1,1,13
Y2-S2-090M19,8,963,AS,exp,35,←,left,←,0.3837562999688089,True,12,1,0,13
Y2-S2-090M19,8,964,AS,exp,25,↓,up,↑,0.7500009997747838,False,12,-1,1,14
Y2-S2-090M19,8,965,AS,exp,32,←,left,←,0.6026890999637544,True,13,-1,0,14
Y2-S2-090M19,8,966,AS,exp,30,↓,down,↓,0.6552061000838876,True,13,-1,0,14
Y2-S2-090M19,8,967,AS,exp,40,←,left,←,0.40309259993955493,True,13,1,1,15
Y2-S2-090M19,8,968,AS,exp,44,↓,up,↑,0.7988342000171542,False,12,-1,1,16
