PART_ID,Block_no,Trial_no,Block_type,Trial_type,CSI,Stim_letter,Key_pressed,letter_choose,Rt,Corr,Stimulus Time,Level,Reversal,Revs_count
Y2-S2-053K19,1,1,PS,train,25,↓,right,→,0.4678389998152852,False,30,-,-,-
Y2-S2-053K19,1,2,PS,train,28,←,left,←,0.6753241999540478,True,30,-,-,-
Y2-S2-053K19,1,3,PS,train,29,↓,down,↓,0.9274380998685956,True,30,-,-,-
Y2-S2-053K19,1,4,PS,train,49,→,right,→,0.7034006000030786,True,30,-,-,-
Y2-S2-053K19,1,5,PS,train,28,←,left,←,1.8706558002159,True,30,-,-,-
Y2-S2-053K19,1,6,PS,train,38,↑,up,↑,0.6173678999766707,True,30,-,-,-
Y2-S2-053K19,1,7,PS,train,31,←,left,←,0.730004700133577,True,30,-,-,-
Y2-S2-053K19,1,8,PS,train,34,→,right,→,0.7047792999073863,True,30,-,-,-
Y2-S2-053K19,1,9,PS,train,35,↑,up,↑,0.6334174999501556,True,30,-,-,-
Y2-S2-053K19,1,10,PS,train,40,↓,down,↓,1.1166336999740452,True,30,-,-,-
Y2-S2-053K19,2,11,AS,train,37,→,right,→,0.601368400035426,True,45,-,-,-
Y2-S2-053K19,2,12,AS,train,29,←,left,←,0.5679883998818696,True,45,-,-,-
Y2-S2-053K19,2,13,AS,train,43,→,right,→,0.5176361000631005,True,45,-,-,-
Y2-S2-053K19,2,14,AS,train,40,←,left,←,0.6177699000108987,True,45,-,-,-
Y2-S2-053K19,2,15,AS,train,49,→,right,→,0.6008830000646412,True,45,-,-,-
Y2-S2-053K19,2,16,AS,train,37,↓,down,↓,0.7839329999405891,True,45,-,-,-
Y2-S2-053K19,2,17,AS,train,30,↑,up,↑,0.7011666998732835,True,45,-,-,-
Y2-S2-053K19,2,18,AS,train,48,→,right,→,0.6344760998617858,True,45,-,-,-
Y2-S2-053K19,2,19,AS,train,37,↓,down,↓,0.7345078000798821,True,45,-,-,-
Y2-S2-053K19,2,20,AS,train,48,↑,no_key,no_letter,-1.0,False,45,-,-,-
Y2-S2-053K19,-,21,PS,adaptive,30,←,left,←,0.9165804998483509,True,10,0,0,0
Y2-S2-053K19,-,22,PS,adaptive,42,↓,down,↓,0.7717173998244107,True,10,0,0,0
Y2-S2-053K19,-,23,PS,adaptive,36,↑,up,↑,0.631545300129801,True,10,1,0,0
Y2-S2-053K19,-,24,PS,adaptive,28,←,left,←,0.5862478001508862,True,9,1,0,0
Y2-S2-053K19,-,25,PS,adaptive,42,↓,down,↓,0.621203999966383,True,9,1,0,0
Y2-S2-053K19,-,26,PS,adaptive,26,←,left,←,0.5660649000201374,True,9,1,0,0
Y2-S2-053K19,-,27,PS,adaptive,35,→,left,←,0.9848052999004722,False,8,-1,1,1
Y2-S2-053K19,-,28,PS,adaptive,47,↓,down,↓,0.7881853999570012,True,9,-1,0,1
Y2-S2-053K19,-,29,PS,adaptive,40,↑,down,↓,1.3484318000264466,False,9,-1,0,1
Y2-S2-053K19,-,30,PS,adaptive,35,↓,up,↑,0.7770105998497456,False,10,-1,0,1
Y2-S2-053K19,-,31,PS,adaptive,44,←,left,←,0.45155150000937283,True,11,-1,0,1
Y2-S2-053K19,-,32,PS,adaptive,40,↓,down,↓,0.6569465000648052,True,11,-1,0,1
Y2-S2-053K19,-,33,PS,adaptive,47,←,left,←,0.6180819999426603,True,11,1,1,2
Y2-S2-053K19,-,34,PS,adaptive,26,↓,up,↑,0.8653911999426782,False,10,-1,1,3
Y2-S2-053K19,-,35,PS,adaptive,39,→,left,←,0.5017100998666137,False,11,-1,0,3
Y2-S2-053K19,-,36,PS,adaptive,39,↓,down,↓,0.6385693999473006,True,12,-1,0,3
Y2-S2-053K19,-,37,PS,adaptive,44,→,right,→,0.5448015001602471,True,12,-1,0,3
Y2-S2-053K19,-,38,PS,adaptive,27,←,left,←,0.6670032001566142,True,12,1,1,4
Y2-S2-053K19,-,39,AS,adaptive,26,↑,up,↑,1.55878289998509,True,20,0,0,0
Y2-S2-053K19,-,40,AS,adaptive,47,→,right,→,0.6215783001389354,True,20,0,0,0
Y2-S2-053K19,-,41,AS,adaptive,29,←,left,←,0.5415388999972492,True,20,1,0,0
Y2-S2-053K19,-,42,AS,adaptive,35,↑,up,↑,0.5332266001496464,True,19,1,0,0
Y2-S2-053K19,-,43,AS,adaptive,34,→,right,→,0.4840239000041038,True,19,1,0,0
Y2-S2-053K19,-,44,AS,adaptive,26,←,left,←,0.5064922000747174,True,19,1,0,0
Y2-S2-053K19,-,45,AS,adaptive,25,→,right,→,0.5433149000164121,True,18,1,0,0
Y2-S2-053K19,-,46,AS,adaptive,44,↑,up,↑,0.5271411000285298,True,18,1,0,0
Y2-S2-053K19,-,47,AS,adaptive,46,←,left,←,1.2713033999316394,True,18,1,0,0
Y2-S2-053K19,-,48,AS,adaptive,40,↑,up,↑,0.6115536999423057,True,17,1,0,0
Y2-S2-053K19,-,49,AS,adaptive,37,←,left,←,0.7799101998098195,True,17,1,0,0
Y2-S2-053K19,-,50,AS,adaptive,49,↓,down,↓,0.7504755000118166,True,17,1,0,0
Y2-S2-053K19,-,51,AS,adaptive,30,↑,up,↑,0.6560377001296729,True,16,1,0,0
Y2-S2-053K19,-,52,AS,adaptive,49,↓,down,↓,0.7361783999949694,True,16,1,0,0
Y2-S2-053K19,-,53,AS,adaptive,47,←,left,←,0.890705700032413,True,16,1,0,0
Y2-S2-053K19,-,54,AS,adaptive,45,↓,down,↓,0.7348984000273049,True,15,1,0,0
Y2-S2-053K19,-,55,AS,adaptive,44,→,right,→,0.7815312999300659,True,15,1,0,0
Y2-S2-053K19,-,56,AS,adaptive,35,↓,up,↑,0.7388152999337763,False,15,-1,1,1
Y2-S2-053K19,-,57,AS,adaptive,49,↑,up,↑,0.8646438999567181,True,16,-1,0,1
Y2-S2-053K19,-,58,AS,adaptive,40,←,left,←,0.6267723999917507,True,16,-1,0,1
Y2-S2-053K19,-,59,AS,adaptive,43,↓,down,↓,0.6627680000383407,True,16,1,1,2
Y2-S2-053K19,-,60,AS,adaptive,47,←,left,←,0.6746189000550658,True,15,1,0,2
Y2-S2-053K19,-,61,AS,adaptive,31,↓,down,↓,0.7748294998891652,True,15,1,0,2
Y2-S2-053K19,-,62,AS,adaptive,44,←,left,←,0.9306081999093294,True,15,1,0,2
Y2-S2-053K19,-,63,AS,adaptive,48,→,right,→,0.8779045999981463,True,14,1,0,2
Y2-S2-053K19,-,64,AS,adaptive,44,↓,up,↑,0.9878553999587893,False,14,-1,1,3
Y2-S2-053K19,-,65,AS,adaptive,41,↑,up,↑,0.5750351999886334,True,15,-1,0,3
Y2-S2-053K19,-,66,AS,adaptive,48,→,right,→,0.857510499889031,True,15,-1,0,3
Y2-S2-053K19,-,67,AS,adaptive,48,↓,down,↓,0.7098914000671357,True,15,1,1,4
Y2-S2-053K19,1,68,AS,intra_train,32,→,right,→,0.5705156000331044,True,21,-,-,-
Y2-S2-053K19,1,69,AS,intra_train,36,←,left,←,0.568316200049594,True,21,-,-,-
Y2-S2-053K19,1,70,AS,intra_train,48,↓,down,↓,0.640809099888429,True,21,-,-,-
Y2-S2-053K19,1,71,AS,intra_train,36,→,right,→,0.5330776998307556,True,21,-,-,-
Y2-S2-053K19,1,72,AS,intra_train,26,←,left,←,0.6712493998929858,True,21,-,-,-
Y2-S2-053K19,1,73,AS,exp,45,↑,left,←,1.0659672999754548,False,14,-1,0,0
Y2-S2-053K19,1,74,AS,exp,40,←,left,←,0.6799879998434335,True,15,-1,0,0
Y2-S2-053K19,1,75,AS,exp,36,↑,up,↑,0.5206496000755578,True,15,-1,0,0
Y2-S2-053K19,1,76,AS,exp,34,→,right,→,0.5704991000238806,True,15,1,1,1
Y2-S2-053K19,1,77,AS,exp,37,←,left,←,0.5634645000100136,True,14,1,0,1
Y2-S2-053K19,1,78,AS,exp,37,→,left,←,0.5468035999219865,False,14,-1,1,2
Y2-S2-053K19,1,79,AS,exp,28,↓,right,→,0.7301254000049084,False,15,-1,0,2
Y2-S2-053K19,1,80,AS,exp,48,→,right,→,0.6153925000689924,True,16,-1,0,2
Y2-S2-053K19,1,81,AS,exp,39,←,left,←,0.5694459001533687,True,16,-1,0,2
Y2-S2-053K19,1,82,AS,exp,49,→,left,←,0.44443239993415773,False,16,-1,0,2
Y2-S2-053K19,1,83,AS,exp,25,↓,down,↓,0.7747390000149608,True,17,-1,0,2
Y2-S2-053K19,1,84,AS,exp,27,←,left,←,0.5324142999015749,True,17,-1,0,2
Y2-S2-053K19,1,85,AS,exp,37,↑,up,↑,0.5858463000040501,True,17,1,1,3
Y2-S2-053K19,1,86,AS,exp,27,←,left,←,0.6130822999402881,True,16,1,0,3
Y2-S2-053K19,1,87,AS,exp,39,↑,down,↓,1.52892279997468,False,16,-1,1,4
Y2-S2-053K19,1,88,AS,exp,36,←,left,←,0.5526074999943376,True,17,-1,0,4
Y2-S2-053K19,1,89,AS,exp,50,→,right,→,0.5989524000324309,True,17,-1,0,4
Y2-S2-053K19,1,90,AS,exp,45,←,left,←,0.709499399876222,True,17,1,1,5
Y2-S2-053K19,1,91,AS,exp,27,↑,down,↓,1.8599473000504076,False,16,-1,1,6
Y2-S2-053K19,1,92,AS,exp,33,←,left,←,0.5180637999437749,True,17,-1,0,6
Y2-S2-053K19,1,93,AS,exp,35,→,right,→,0.7777145998552442,True,17,-1,0,6
Y2-S2-053K19,1,94,AS,exp,28,↓,down,↓,0.7741459999233484,True,17,1,1,7
Y2-S2-053K19,1,95,AS,exp,37,←,left,←,0.6457459998782724,True,16,1,0,7
Y2-S2-053K19,1,96,AS,exp,35,↓,down,↓,0.6238337000831962,True,16,1,0,7
Y2-S2-053K19,1,97,AS,exp,40,→,right,→,0.763394100125879,True,16,1,0,7
Y2-S2-053K19,1,98,AS,exp,43,↑,down,↓,1.1769883001688868,False,15,-1,1,8
Y2-S2-053K19,1,99,AS,exp,48,↓,down,↓,0.5842208000831306,True,16,-1,0,8
Y2-S2-053K19,1,100,AS,exp,27,←,left,←,0.6058029001578689,True,16,-1,0,8
Y2-S2-053K19,1,101,AS,exp,28,↓,down,↓,1.215632800012827,True,16,1,1,9
Y2-S2-053K19,1,102,AS,exp,37,↑,down,↓,0.6953606000170112,False,15,-1,1,10
Y2-S2-053K19,1,103,AS,exp,30,←,left,←,0.6810262000653893,True,16,-1,0,10
Y2-S2-053K19,1,104,AS,exp,47,→,left,←,0.6564694999251515,False,16,-1,0,10
Y2-S2-053K19,1,105,AS,exp,28,←,left,←,0.5955080999992788,True,17,-1,0,10
Y2-S2-053K19,1,106,AS,exp,40,↑,up,↑,0.7118126999121159,True,17,-1,0,10
Y2-S2-053K19,1,107,AS,exp,33,↓,down,↓,0.640136000001803,True,17,1,1,11
Y2-S2-053K19,1,108,AS,exp,30,↑,down,↓,0.9160691001452506,False,16,-1,1,12
Y2-S2-053K19,1,109,AS,exp,32,↓,down,↓,0.6840667999349535,True,17,-1,0,12
Y2-S2-053K19,1,110,AS,exp,31,←,left,←,0.5836019001435488,True,17,-1,0,12
Y2-S2-053K19,1,111,AS,exp,41,↑,down,↓,1.2257042999844998,False,17,-1,0,12
Y2-S2-053K19,1,112,AS,exp,41,↓,down,↓,1.278869500150904,True,18,-1,0,12
Y2-S2-053K19,1,113,AS,exp,33,↑,up,↑,0.6485558999702334,True,18,-1,0,12
Y2-S2-053K19,1,114,AS,exp,33,→,right,→,0.7154711000621319,True,18,1,1,13
Y2-S2-053K19,1,115,AS,exp,33,↑,up,↑,0.6792704998515546,True,17,1,0,13
Y2-S2-053K19,1,116,AS,exp,28,→,right,→,0.8732806998305023,True,17,1,0,13
Y2-S2-053K19,1,117,AS,exp,25,↓,up,↑,0.7129378998652101,False,17,-1,1,14
Y2-S2-053K19,1,118,AS,exp,30,↑,down,↓,1.6081813001073897,False,18,-1,0,14
Y2-S2-053K19,1,119,AS,exp,41,←,left,←,0.8684658000711352,True,19,-1,0,14
Y2-S2-053K19,1,120,AS,exp,25,↓,down,↓,0.6666816999204457,True,19,-1,0,14
Y2-S2-053K19,1,121,AS,exp,36,←,left,←,0.6742970000486821,True,19,1,1,15
Y2-S2-053K19,1,122,AS,exp,37,↓,down,↓,0.6084493000525981,True,18,1,0,15
Y2-S2-053K19,1,123,AS,exp,47,↑,down,↓,0.8534356001764536,False,18,-1,1,16
Y2-S2-053K19,2,124,PS,intra_train,28,↓,down,↓,1.0388069001492113,True,16,-,-,-
Y2-S2-053K19,2,125,PS,intra_train,32,↑,right,→,1.0754021999891847,False,16,-,-,-
Y2-S2-053K19,2,126,PS,intra_train,28,←,left,←,0.5990669000893831,True,16,-,-,-
Y2-S2-053K19,2,127,PS,intra_train,27,↓,right,→,1.4850997000467032,False,16,-,-,-
Y2-S2-053K19,2,128,PS,intra_train,25,→,right,→,0.5366764001082629,True,16,-,-,-
Y2-S2-053K19,2,129,PS,exp,46,↑,up,↑,0.7939106998965144,True,11,0,0,0
Y2-S2-053K19,2,130,PS,exp,34,→,left,←,1.0626562000252306,False,11,-1,0,0
Y2-S2-053K19,2,131,PS,exp,34,←,left,←,0.5669382999185473,True,12,-1,0,0
Y2-S2-053K19,2,132,PS,exp,33,↓,right,→,1.1752271999139339,False,12,-1,0,0
Y2-S2-053K19,2,133,PS,exp,49,↑,up,↑,0.517889800015837,True,13,-1,0,0
Y2-S2-053K19,2,134,PS,exp,50,→,right,→,0.503616499947384,True,13,-1,0,0
Y2-S2-053K19,2,135,PS,exp,40,↑,right,→,1.0733723000157624,False,13,-1,0,0
Y2-S2-053K19,2,136,PS,exp,48,→,right,→,0.6878212001174688,True,14,-1,0,0
Y2-S2-053K19,2,137,PS,exp,33,←,left,←,0.6498098999727517,True,14,-1,0,0
Y2-S2-053K19,2,138,PS,exp,37,↑,up,↑,0.5720863998867571,True,14,1,1,1
Y2-S2-053K19,2,139,PS,exp,44,→,right,→,0.4706574999727309,True,13,1,0,1
Y2-S2-053K19,2,140,PS,exp,37,↑,left,←,1.216626700013876,False,13,-1,1,2
Y2-S2-053K19,2,141,PS,exp,37,→,right,→,0.6537709999829531,True,14,-1,0,2
Y2-S2-053K19,2,142,PS,exp,26,↑,up,↑,0.9487479999661446,True,14,-1,0,2
Y2-S2-053K19,2,143,PS,exp,50,→,right,→,0.6344902999699116,True,14,1,1,3
Y2-S2-053K19,2,144,PS,exp,27,↑,up,↑,1.0011385998222977,True,13,1,0,3
Y2-S2-053K19,2,145,PS,exp,30,←,right,→,0.8942138999700546,False,13,-1,1,4
Y2-S2-053K19,2,146,PS,exp,38,↑,up,↑,0.8811383000575006,True,14,-1,0,4
Y2-S2-053K19,2,147,PS,exp,43,→,right,→,0.628747999900952,True,14,-1,0,4
Y2-S2-053K19,2,148,PS,exp,49,↑,no_key,no_letter,-1.0,False,14,-1,0,4
Y2-S2-053K19,2,149,PS,exp,40,↓,up,↑,0.7364515999797732,False,15,-1,0,4
Y2-S2-053K19,2,150,PS,exp,29,←,right,→,0.6023255998734385,False,16,-1,0,4
Y2-S2-053K19,2,151,PS,exp,39,→,right,→,0.6104390998370945,True,17,-1,0,4
Y2-S2-053K19,2,152,PS,exp,41,↓,right,→,0.8769600000232458,False,17,-1,0,4
Y2-S2-053K19,2,153,PS,exp,47,↑,up,↑,0.5737123000435531,True,18,-1,0,4
Y2-S2-053K19,2,154,PS,exp,40,→,right,→,0.8012903998605907,True,18,-1,0,4
Y2-S2-053K19,2,155,PS,exp,34,←,left,←,0.8348798998631537,True,18,1,1,5
Y2-S2-053K19,2,156,PS,exp,35,↓,down,↓,1.1026391999330372,True,17,1,0,5
Y2-S2-053K19,2,157,PS,exp,35,→,right,→,0.808794200187549,True,17,1,0,5
Y2-S2-053K19,2,158,PS,exp,26,←,right,→,1.3035736000165343,False,17,-1,1,6
Y2-S2-053K19,2,159,PS,exp,41,→,right,→,0.768201099941507,True,18,-1,0,6
Y2-S2-053K19,2,160,PS,exp,46,←,left,←,0.8678053999319673,True,18,-1,0,6
Y2-S2-053K19,2,161,PS,exp,43,↑,up,↑,1.7969261000398546,True,18,1,1,7
Y2-S2-053K19,2,162,PS,exp,41,↓,down,↓,0.8356234999373555,True,17,1,0,7
Y2-S2-053K19,2,163,PS,exp,46,←,left,←,0.6921538999304175,True,17,1,0,7
Y2-S2-053K19,2,164,PS,exp,28,→,left,←,0.8407950999680907,False,17,-1,1,8
Y2-S2-053K19,2,165,PS,exp,42,↓,no_key,no_letter,-1.0,False,18,-1,0,8
Y2-S2-053K19,2,166,PS,exp,46,↑,up,↑,0.8746285999659449,True,19,-1,0,8
Y2-S2-053K19,2,167,PS,exp,50,→,right,→,0.5604081999044865,True,19,-1,0,8
Y2-S2-053K19,2,168,PS,exp,35,↓,up,↑,0.6897520001512021,False,19,-1,0,8
Y2-S2-053K19,2,169,PS,exp,30,←,left,←,0.6398138001095504,True,20,-1,0,8
Y2-S2-053K19,2,170,PS,exp,31,→,right,→,0.6694703998509794,True,20,-1,0,8
Y2-S2-053K19,2,171,PS,exp,41,↑,up,↑,0.99268259992823,True,20,1,1,9
Y2-S2-053K19,2,172,PS,exp,34,↓,down,↓,0.803073899820447,True,19,1,0,9
Y2-S2-053K19,2,173,PS,exp,34,↑,up,↑,0.5851647998206317,True,19,1,0,9
Y2-S2-053K19,2,174,PS,exp,47,↓,down,↓,0.5633221000898629,True,19,1,0,9
Y2-S2-053K19,2,175,PS,exp,48,←,left,←,0.8611205001361668,True,18,1,0,9
Y2-S2-053K19,2,176,PS,exp,47,↓,down,↓,0.6364776999689639,True,18,1,0,9
Y2-S2-053K19,2,177,PS,exp,30,←,left,←,0.7469987999647856,True,18,1,0,9
Y2-S2-053K19,2,178,PS,exp,33,→,right,→,1.0731882001273334,True,17,1,0,9
Y2-S2-053K19,2,179,PS,exp,40,↑,no_key,no_letter,-1.0,False,17,-1,1,10
Y2-S2-053K19,2,180,PS,exp,34,→,up,↑,1.895429999800399,False,18,-1,0,10
Y2-S2-053K19,2,181,PS,exp,35,←,left,←,0.6735946999397129,True,19,-1,0,10
Y2-S2-053K19,2,182,PS,exp,45,↑,up,↑,0.5545034999959171,True,19,-1,0,10
Y2-S2-053K19,2,183,PS,exp,32,←,left,←,0.5862793000414968,True,19,1,1,11
Y2-S2-053K19,2,184,PS,exp,37,↓,down,↓,0.8070423000026494,True,18,1,0,11
Y2-S2-053K19,2,185,PS,exp,26,↑,up,↑,0.6895479999948293,True,18,1,0,11
Y2-S2-053K19,2,186,PS,exp,35,↓,down,↓,0.8142746000085026,True,18,1,0,11
Y2-S2-053K19,2,187,PS,exp,31,→,right,→,1.0801117001101375,True,17,1,0,11
Y2-S2-053K19,2,188,PS,exp,50,↑,no_key,no_letter,-1.0,False,17,-1,1,12
Y2-S2-053K19,2,189,PS,exp,42,←,left,←,0.9853262999095023,True,18,-1,0,12
Y2-S2-053K19,2,190,PS,exp,44,↑,up,↑,0.5893955000210553,True,18,-1,0,12
Y2-S2-053K19,2,191,PS,exp,36,←,left,←,0.7105556998867542,True,18,1,1,13
Y2-S2-053K19,2,192,PS,exp,38,→,right,→,0.6175992998760194,True,17,1,0,13
Y2-S2-053K19,2,193,PS,exp,32,←,left,←,0.717477299971506,True,17,1,0,13
Y2-S2-053K19,2,194,PS,exp,42,↓,no_key,no_letter,-1.0,False,17,-1,1,14
Y2-S2-053K19,2,195,PS,exp,43,↑,up,↑,0.6925182999111712,True,18,-1,0,14
Y2-S2-053K19,2,196,PS,exp,25,←,right,→,1.7855820001568645,False,18,-1,0,14
Y2-S2-053K19,2,197,PS,exp,26,↓,down,↓,0.9324670000933111,True,19,-1,0,14
Y2-S2-053K19,2,198,PS,exp,45,→,left,←,1.9785040998831391,False,19,-1,0,14
Y2-S2-053K19,2,199,PS,exp,47,←,down,↓,1.0270392999518663,False,20,-1,0,14
Y2-S2-053K19,2,200,PS,exp,34,↓,down,↓,0.6850959002040327,True,21,-1,0,14
Y2-S2-053K19,2,201,PS,exp,43,←,left,←,0.5972386999055743,True,21,-1,0,14
Y2-S2-053K19,2,202,PS,exp,29,→,right,→,0.5326020999345928,True,21,1,1,15
Y2-S2-053K19,2,203,PS,exp,49,↓,down,↓,0.8264001000206918,True,20,1,0,15
Y2-S2-053K19,2,204,PS,exp,38,←,left,←,0.6375523000024259,True,20,1,0,15
Y2-S2-053K19,2,205,PS,exp,39,↓,down,↓,0.881379900034517,True,20,1,0,15
Y2-S2-053K19,2,206,PS,exp,40,→,no_key,no_letter,-1.0,False,19,-1,1,16
Y2-S2-053K19,3,207,PS,intra_train,41,←,left,←,0.8642111998051405,True,16,-,-,-
Y2-S2-053K19,3,208,PS,intra_train,38,→,right,→,0.5157515001483262,True,16,-,-,-
Y2-S2-053K19,3,209,PS,intra_train,35,←,left,←,0.45355520001612604,True,16,-,-,-
Y2-S2-053K19,3,210,PS,intra_train,45,→,right,→,0.4747344998177141,True,16,-,-,-
Y2-S2-053K19,3,211,PS,intra_train,45,↑,no_key,no_letter,-1.0,False,16,-,-,-
Y2-S2-053K19,3,212,PS,exp,39,←,left,←,0.41025459999218583,True,11,0,0,0
Y2-S2-053K19,3,213,PS,exp,46,→,right,→,0.6601718999445438,True,11,0,0,0
Y2-S2-053K19,3,214,PS,exp,34,↑,up,↑,0.4806065000593662,True,11,1,0,0
Y2-S2-053K19,3,215,PS,exp,34,↓,down,↓,0.6719748000614345,True,10,1,0,0
Y2-S2-053K19,3,216,PS,exp,26,←,left,←,0.49743550014682114,True,10,1,0,0
Y2-S2-053K19,3,217,PS,exp,27,→,right,→,0.46813319995999336,True,10,1,0,0
Y2-S2-053K19,3,218,PS,exp,26,←,left,←,0.44282920006662607,True,9,1,0,0
Y2-S2-053K19,3,219,PS,exp,48,→,right,→,0.45812690001912415,True,9,1,0,0
Y2-S2-053K19,3,220,PS,exp,36,↓,down,↓,0.6669942999724299,True,9,1,0,0
Y2-S2-053K19,3,221,PS,exp,36,←,left,←,0.5594389999751002,True,8,1,0,0
Y2-S2-053K19,3,222,PS,exp,29,↓,down,↓,0.5737050001043826,True,8,1,0,0
Y2-S2-053K19,3,223,PS,exp,40,→,right,→,0.7466345001012087,True,8,1,0,0
Y2-S2-053K19,3,224,PS,exp,44,↓,down,↓,0.5593874000478536,True,7,1,0,0
Y2-S2-053K19,3,225,PS,exp,50,←,left,←,0.45367980003356934,True,7,1,0,0
Y2-S2-053K19,3,226,PS,exp,49,↑,up,↑,1.0941390998195857,True,7,1,0,0
Y2-S2-053K19,3,227,PS,exp,42,←,down,↓,0.5905862001236528,False,6,-1,1,1
Y2-S2-053K19,3,228,PS,exp,42,↑,down,↓,0.9322887999005616,False,7,-1,0,1
Y2-S2-053K19,3,229,PS,exp,37,→,down,↓,0.7574855999555439,False,8,-1,0,1
Y2-S2-053K19,3,230,PS,exp,47,↓,down,↓,0.5155070000328124,True,9,-1,0,1
Y2-S2-053K19,3,231,PS,exp,36,←,left,←,0.79270080011338,True,9,-1,0,1
Y2-S2-053K19,3,232,PS,exp,28,↑,left,←,0.800913899904117,False,9,-1,0,1
Y2-S2-053K19,3,233,PS,exp,32,→,right,→,0.5082429000176489,True,10,-1,0,1
Y2-S2-053K19,3,234,PS,exp,36,↓,down,↓,0.5319826998747885,True,10,-1,0,1
Y2-S2-053K19,3,235,PS,exp,32,↑,down,↓,0.634279599878937,False,10,-1,0,1
Y2-S2-053K19,3,236,PS,exp,48,→,right,→,0.5785515999887139,True,11,-1,0,1
Y2-S2-053K19,3,237,PS,exp,26,↑,down,↓,1.1089278000872582,False,11,-1,0,1
Y2-S2-053K19,3,238,PS,exp,35,↓,down,↓,0.52850820007734,True,12,-1,0,1
Y2-S2-053K19,3,239,PS,exp,34,→,right,→,0.45276240003295243,True,12,-1,0,1
Y2-S2-053K19,3,240,PS,exp,33,↓,down,↓,0.5460410001687706,True,12,1,1,2
Y2-S2-053K19,3,241,PS,exp,44,→,right,→,0.5836479000281543,True,11,1,0,2
Y2-S2-053K19,3,242,PS,exp,34,↓,down,↓,0.5596282000187784,True,11,1,0,2
Y2-S2-053K19,3,243,PS,exp,48,↑,up,↑,1.0312383000273257,True,11,1,0,2
Y2-S2-053K19,3,244,PS,exp,39,→,right,→,0.5140132000669837,True,10,1,0,2
Y2-S2-053K19,3,245,PS,exp,50,↑,up,↑,0.5811910000629723,True,10,1,0,2
Y2-S2-053K19,3,246,PS,exp,46,←,left,←,0.7273897000122815,True,10,1,0,2
Y2-S2-053K19,3,247,PS,exp,25,↓,down,↓,0.784030299866572,True,9,1,0,2
Y2-S2-053K19,3,248,PS,exp,36,←,right,→,0.5294365000445396,False,9,-1,1,3
Y2-S2-053K19,3,249,PS,exp,26,→,right,→,0.6396266000811011,True,10,-1,0,3
Y2-S2-053K19,3,250,PS,exp,36,↑,left,←,0.8864592998288572,False,10,-1,0,3
Y2-S2-053K19,3,251,PS,exp,31,↓,down,↓,0.9665635998826474,True,11,-1,0,3
Y2-S2-053K19,3,252,PS,exp,38,↑,up,↑,0.8471836999524385,True,11,-1,0,3
Y2-S2-053K19,3,253,PS,exp,49,←,left,←,0.5440892998594791,True,11,1,1,4
Y2-S2-053K19,3,254,PS,exp,33,↓,right,→,0.9014121000654995,False,10,-1,1,5
Y2-S2-053K19,3,255,PS,exp,48,↑,right,→,1.1015543998219073,False,11,-1,0,5
Y2-S2-053K19,3,256,PS,exp,43,←,right,→,0.4845491999294609,False,12,-1,0,5
Y2-S2-053K19,3,257,PS,exp,27,→,right,→,0.4718767998274416,True,13,-1,0,5
Y2-S2-053K19,3,258,PS,exp,37,↑,up,↑,1.0001753999385983,True,13,-1,0,5
Y2-S2-053K19,3,259,PS,exp,36,←,left,←,0.6443396999966353,True,13,1,1,6
Y2-S2-053K19,3,260,PS,exp,42,↑,left,←,0.643200300168246,False,12,-1,1,7
Y2-S2-053K19,3,261,PS,exp,34,→,right,→,0.43686389992944896,True,13,-1,0,7
Y2-S2-053K19,3,262,PS,exp,48,↓,right,→,0.9442908999044448,False,13,-1,0,7
Y2-S2-053K19,3,263,PS,exp,47,←,left,←,0.45552720013074577,True,14,-1,0,7
Y2-S2-053K19,3,264,PS,exp,47,↓,down,↓,0.7090280000120401,True,14,-1,0,7
Y2-S2-053K19,3,265,PS,exp,30,←,left,←,0.6240475999657065,True,14,1,1,8
Y2-S2-053K19,3,266,PS,exp,46,↓,down,↓,0.6579545000568032,True,13,1,0,8
Y2-S2-053K19,3,267,PS,exp,32,←,left,←,0.5849142998922616,True,13,1,0,8
Y2-S2-053K19,3,268,PS,exp,29,↓,down,↓,0.6749325999990106,True,13,1,0,8
Y2-S2-053K19,3,269,PS,exp,43,→,right,→,0.48901209980249405,True,12,1,0,8
Y2-S2-053K19,3,270,PS,exp,28,↓,down,↓,0.5670054000802338,True,12,1,0,8
Y2-S2-053K19,3,271,PS,exp,29,←,right,→,0.8288296000100672,False,12,-1,1,9
Y2-S2-053K19,3,272,PS,exp,45,→,right,→,0.521829399978742,True,13,-1,0,9
Y2-S2-053K19,3,273,PS,exp,29,↑,up,↑,0.7616079000290483,True,13,-1,0,9
Y2-S2-053K19,3,274,PS,exp,45,→,right,→,0.4493841000366956,True,13,1,1,10
Y2-S2-053K19,3,275,PS,exp,50,↓,down,↓,0.5299471998587251,True,12,1,0,10
Y2-S2-053K19,3,276,PS,exp,48,↑,down,↓,0.6059779999777675,False,12,-1,1,11
Y2-S2-053K19,3,277,PS,exp,40,↓,right,→,0.638113500084728,False,13,-1,0,11
Y2-S2-053K19,3,278,PS,exp,41,→,right,→,0.45333530008792877,True,14,-1,0,11
Y2-S2-053K19,3,279,PS,exp,41,↑,up,↑,0.7341573999729007,True,14,-1,0,11
Y2-S2-053K19,3,280,PS,exp,43,←,left,←,0.5907192998565733,True,14,1,1,12
Y2-S2-053K19,3,281,PS,exp,42,→,right,→,0.6356598001439124,True,13,1,0,12
Y2-S2-053K19,3,282,PS,exp,44,←,left,←,0.6389385999646038,True,13,1,0,12
Y2-S2-053K19,3,283,PS,exp,25,↓,down,↓,0.6159551001619548,True,13,1,0,12
Y2-S2-053K19,3,284,PS,exp,44,↑,right,→,1.209416100056842,False,12,-1,1,13
Y2-S2-053K19,3,285,PS,exp,48,→,right,→,0.5738849998451769,True,13,-1,0,13
Y2-S2-053K19,3,286,PS,exp,29,↓,down,↓,0.5725950000341982,True,13,-1,0,13
Y2-S2-053K19,3,287,PS,exp,37,→,right,→,0.589355600066483,True,13,1,1,14
Y2-S2-053K19,3,288,PS,exp,30,↑,up,↑,0.8945430000312626,True,12,1,0,14
Y2-S2-053K19,3,289,PS,exp,29,→,right,→,0.48074500006623566,True,12,1,0,14
Y2-S2-053K19,3,290,PS,exp,42,←,left,←,0.5299839999061078,True,12,1,0,14
Y2-S2-053K19,3,291,PS,exp,45,↓,down,↓,0.6300535001792014,True,11,1,0,14
Y2-S2-053K19,3,292,PS,exp,40,→,right,→,0.6840744998771697,True,11,1,0,14
Y2-S2-053K19,3,293,PS,exp,45,↓,down,↓,0.7773894001729786,True,11,1,0,14
Y2-S2-053K19,3,294,PS,exp,34,→,right,→,0.5093745000194758,True,10,1,0,14
Y2-S2-053K19,3,295,PS,exp,31,↓,down,↓,0.7752751999069005,True,10,1,0,14
Y2-S2-053K19,3,296,PS,exp,49,↑,up,↑,0.6611558001022786,True,10,1,0,14
Y2-S2-053K19,3,297,PS,exp,39,→,right,→,0.6049591000191867,True,9,1,0,14
Y2-S2-053K19,3,298,PS,exp,39,←,up,↑,1.286298899911344,False,9,-1,1,15
Y2-S2-053K19,3,299,PS,exp,25,↓,up,↑,0.6396224999334663,False,10,-1,0,15
Y2-S2-053K19,3,300,PS,exp,47,↑,up,↑,0.6637063999660313,True,11,-1,0,15
Y2-S2-053K19,3,301,PS,exp,34,↓,down,↓,0.6735306000337005,True,11,-1,0,15
Y2-S2-053K19,3,302,PS,exp,32,→,left,←,0.796120900195092,False,11,-1,0,15
Y2-S2-053K19,3,303,PS,exp,27,↓,down,↓,0.7084054001607001,True,12,-1,0,15
Y2-S2-053K19,3,304,PS,exp,32,↑,up,↑,0.6202534998301417,True,12,-1,0,15
Y2-S2-053K19,3,305,PS,exp,36,↓,down,↓,0.7449781999457628,True,12,1,1,16
Y2-S2-053K19,4,306,AS,intra_train,47,←,left,←,0.697799599962309,True,21,-,-,-
Y2-S2-053K19,4,307,AS,intra_train,48,↓,up,↑,0.9688824000768363,False,21,-,-,-
Y2-S2-053K19,4,308,AS,intra_train,42,→,right,→,0.6375748000573367,True,21,-,-,-
Y2-S2-053K19,4,309,AS,intra_train,45,←,left,←,0.5446799001656473,True,21,-,-,-
Y2-S2-053K19,4,310,AS,intra_train,40,↓,up,↑,0.7981499000452459,False,21,-,-,-
Y2-S2-053K19,4,311,AS,exp,37,←,left,←,0.8016355999279767,True,14,0,0,0
Y2-S2-053K19,4,312,AS,exp,25,→,right,→,0.6843554999213666,True,14,0,0,0
Y2-S2-053K19,4,313,AS,exp,39,↓,down,↓,0.7386428001336753,True,14,1,0,0
Y2-S2-053K19,4,314,AS,exp,38,↑,up,↑,0.7093662000261247,True,13,1,0,0
Y2-S2-053K19,4,315,AS,exp,25,←,left,←,0.672139999922365,True,13,1,0,0
Y2-S2-053K19,4,316,AS,exp,44,↓,down,↓,0.608795200008899,True,13,1,0,0
Y2-S2-053K19,4,317,AS,exp,46,←,left,←,0.6028582998551428,True,12,1,0,0
Y2-S2-053K19,4,318,AS,exp,49,↑,down,↓,1.4677451001480222,False,12,-1,1,1
Y2-S2-053K19,4,319,AS,exp,41,↓,down,↓,0.682608500123024,True,13,-1,0,1
Y2-S2-053K19,4,320,AS,exp,29,→,left,←,0.6019637999124825,False,13,-1,0,1
Y2-S2-053K19,4,321,AS,exp,34,←,left,←,0.523550899932161,True,14,-1,0,1
Y2-S2-053K19,4,322,AS,exp,47,↓,down,↓,0.734669900033623,True,14,-1,0,1
Y2-S2-053K19,4,323,AS,exp,45,←,left,←,0.6187756001017988,True,14,1,1,2
Y2-S2-053K19,4,324,AS,exp,50,↓,down,↓,0.7157622999511659,True,13,1,0,2
Y2-S2-053K19,4,325,AS,exp,47,↑,up,↑,0.6351694001350552,True,13,1,0,2
Y2-S2-053K19,4,326,AS,exp,25,←,left,←,0.6122882999479771,True,13,1,0,2
Y2-S2-053K19,4,327,AS,exp,32,↑,up,↑,0.5742525001987815,True,12,1,0,2
Y2-S2-053K19,4,328,AS,exp,25,↓,down,↓,1.2348501000087708,True,12,1,0,2
Y2-S2-053K19,4,329,AS,exp,30,→,left,←,0.6603333000093699,False,12,-1,1,3
Y2-S2-053K19,4,330,AS,exp,25,↓,down,↓,0.7702134000137448,True,13,-1,0,3
Y2-S2-053K19,4,331,AS,exp,35,↑,down,↓,0.9773659000638872,False,13,-1,0,3
Y2-S2-053K19,4,332,AS,exp,31,↓,down,↓,0.9203254000749439,True,14,-1,0,3
Y2-S2-053K19,4,333,AS,exp,46,←,left,←,0.5948334001004696,True,14,-1,0,3
Y2-S2-053K19,4,334,AS,exp,48,↑,up,↑,0.6461606998927891,True,14,1,1,4
Y2-S2-053K19,4,335,AS,exp,47,→,right,→,0.6337192000355572,True,13,1,0,4
Y2-S2-053K19,4,336,AS,exp,35,↑,up,↑,0.6687683998607099,True,13,1,0,4
Y2-S2-053K19,4,337,AS,exp,30,→,right,→,0.7170665001031011,True,13,1,0,4
Y2-S2-053K19,4,338,AS,exp,44,↓,up,↑,0.9603818999603391,False,12,-1,1,5
Y2-S2-053K19,4,339,AS,exp,38,→,right,→,1.0214558001607656,True,13,-1,0,5
Y2-S2-053K19,4,340,AS,exp,27,←,up,↑,0.7399170000571758,False,13,-1,0,5
Y2-S2-053K19,4,341,AS,exp,35,→,up,↑,0.9026985000818968,False,14,-1,0,5
Y2-S2-053K19,4,342,AS,exp,32,↑,up,↑,1.3674916999880224,True,15,-1,0,5
Y2-S2-053K19,4,343,AS,exp,27,→,right,→,0.9209340000525117,True,15,-1,0,5
Y2-S2-053K19,4,344,AS,exp,40,↓,up,↑,0.8517062999308109,False,15,-1,0,5
Y2-S2-053K19,4,345,AS,exp,32,←,left,←,0.7938260999508202,True,16,-1,0,5
Y2-S2-053K19,4,346,AS,exp,50,↓,down,↓,0.8285344999749213,True,16,-1,0,5
Y2-S2-053K19,4,347,AS,exp,50,→,right,→,0.9635165999643505,True,16,1,1,6
Y2-S2-053K19,4,348,AS,exp,31,↓,down,↓,1.0639434999320656,True,15,1,0,6
Y2-S2-053K19,4,349,AS,exp,33,↑,up,↑,0.7546564999502152,True,15,1,0,6
Y2-S2-053K19,4,350,AS,exp,50,←,up,↑,1.221194899873808,False,15,-1,1,7
Y2-S2-053K19,4,351,AS,exp,26,→,up,↑,1.0007400999311358,False,16,-1,0,7
Y2-S2-053K19,4,352,AS,exp,34,←,up,↑,1.009881699923426,False,17,-1,0,7
Y2-S2-053K19,4,353,AS,exp,27,↓,up,↑,1.3926667999476194,False,18,-1,0,7
Y2-S2-053K19,4,354,AS,exp,40,→,right,→,1.2973787998780608,True,19,-1,0,7
Y2-S2-053K19,4,355,AS,exp,27,↑,no_key,no_letter,-1.0,False,19,-1,0,7
Y2-S2-053K19,4,356,AS,exp,25,→,right,→,0.9614895000122488,True,20,-1,0,7
Y2-S2-053K19,4,357,AS,exp,46,↑,up,↑,0.5019427000079304,True,20,-1,0,7
Y2-S2-053K19,4,358,AS,exp,28,↓,down,↓,0.7888833000324667,True,20,1,1,8
Y2-S2-053K19,4,359,AS,exp,27,→,right,→,0.5995580998715013,True,19,1,0,8
Y2-S2-053K19,4,360,AS,exp,28,←,right,→,0.958729799836874,False,19,-1,1,9
Y2-S2-053K19,4,361,AS,exp,28,↑,up,↑,0.6467418000102043,True,20,-1,0,9
Y2-S2-053K19,4,362,AS,exp,43,↓,down,↓,0.6937369001097977,True,20,-1,0,9
Y2-S2-053K19,4,363,AS,exp,49,←,left,←,0.6693344998639077,True,20,1,1,10
Y2-S2-053K19,4,364,AS,exp,33,↓,down,↓,0.8359817999880761,True,19,1,0,10
Y2-S2-053K19,4,365,AS,exp,25,←,left,←,0.6072774000931531,True,19,1,0,10
Y2-S2-053K19,4,366,AS,exp,47,↓,down,↓,0.6765113999135792,True,19,1,0,10
Y2-S2-053K19,4,367,AS,exp,43,←,left,←,0.6197577000129968,True,18,1,0,10
Y2-S2-053K19,4,368,AS,exp,25,↓,down,↓,0.6417970999609679,True,18,1,0,10
Y2-S2-053K19,4,369,AS,exp,38,←,left,←,0.6351830000057817,True,18,1,0,10
Y2-S2-053K19,4,370,AS,exp,44,→,right,→,0.7237170999869704,True,17,1,0,10
Y2-S2-053K19,4,371,AS,exp,25,↑,up,↑,0.9744004998356104,True,17,1,0,10
Y2-S2-053K19,4,372,AS,exp,29,→,right,→,0.6235474001150578,True,17,1,0,10
Y2-S2-053K19,4,373,AS,exp,40,↓,down,↓,0.5524434000253677,True,16,1,0,10
Y2-S2-053K19,4,374,AS,exp,40,→,right,→,0.5687474999576807,True,16,1,0,10
Y2-S2-053K19,4,375,AS,exp,36,↓,down,↓,0.6565319001674652,True,16,1,0,10
Y2-S2-053K19,4,376,AS,exp,29,↑,up,↑,1.2033830999862403,True,15,1,0,10
Y2-S2-053K19,4,377,AS,exp,36,→,right,→,0.6148990001529455,True,15,1,0,10
Y2-S2-053K19,4,378,AS,exp,26,↑,up,↑,0.6737295999191701,True,15,1,0,10
Y2-S2-053K19,4,379,AS,exp,32,→,right,→,0.5287813998293132,True,14,1,0,10
Y2-S2-053K19,4,380,AS,exp,28,↑,up,↑,0.931966400006786,True,14,1,0,10
Y2-S2-053K19,4,381,AS,exp,40,←,left,←,1.5581462001428008,True,14,1,0,10
Y2-S2-053K19,4,382,AS,exp,30,↑,up,↑,1.537733000004664,True,13,1,0,10
Y2-S2-053K19,4,383,AS,exp,28,↓,down,↓,0.7961585000157356,True,13,1,0,10
Y2-S2-053K19,4,384,AS,exp,25,→,right,→,0.6161751998588443,True,13,1,0,10
Y2-S2-053K19,4,385,AS,exp,36,↓,down,↓,0.7678708999883384,True,12,1,0,10
Y2-S2-053K19,4,386,AS,exp,42,←,left,←,0.708862999919802,True,12,1,0,10
Y2-S2-053K19,4,387,AS,exp,27,↑,up,↑,0.5979426000267267,True,12,1,0,10
Y2-S2-053K19,4,388,AS,exp,41,→,right,→,0.7824987999629229,True,11,1,0,10
Y2-S2-053K19,4,389,AS,exp,43,↑,up,↑,1.1428326000459492,True,11,1,0,10
Y2-S2-053K19,4,390,AS,exp,44,↓,up,↑,0.8621192998252809,False,11,-1,1,11
Y2-S2-053K19,4,391,AS,exp,50,↑,up,↑,1.0498989999759942,True,12,-1,0,11
Y2-S2-053K19,4,392,AS,exp,47,←,up,↑,1.1844687999691814,False,12,-1,0,11
Y2-S2-053K19,4,393,AS,exp,39,↑,up,↑,0.8602682000491768,True,13,-1,0,11
Y2-S2-053K19,4,394,AS,exp,38,↓,up,↑,1.687869800021872,False,13,-1,0,11
Y2-S2-053K19,4,395,AS,exp,42,←,up,↑,1.1533238999545574,False,14,-1,0,11
Y2-S2-053K19,4,396,AS,exp,30,↑,up,↑,0.7438227001111954,True,15,-1,0,11
Y2-S2-053K19,4,397,AS,exp,31,→,up,↑,1.4476486998610198,False,15,-1,0,11
Y2-S2-053K19,4,398,AS,exp,40,↓,up,↑,1.2584309000521898,False,16,-1,0,11
Y2-S2-053K19,4,399,AS,exp,35,←,left,←,0.7589223999530077,True,17,-1,0,11
Y2-S2-053K19,4,400,AS,exp,48,↑,up,↑,0.9791480000130832,True,17,-1,0,11
Y2-S2-053K19,4,401,AS,exp,47,→,right,→,0.7457244999241084,True,17,1,1,12
Y2-S2-053K19,4,402,AS,exp,50,←,left,←,0.8215030999854207,True,16,1,0,12
Y2-S2-053K19,4,403,AS,exp,28,↓,left,←,1.898607200011611,False,16,-1,1,13
Y2-S2-053K19,4,404,AS,exp,45,←,right,→,0.6562049998901784,False,17,-1,0,13
Y2-S2-053K19,4,405,AS,exp,36,→,right,→,0.7648547999560833,True,18,-1,0,13
Y2-S2-053K19,4,406,AS,exp,46,↓,up,↑,0.8634444000199437,False,18,-1,0,13
Y2-S2-053K19,4,407,AS,exp,28,→,right,→,0.9328135000541806,True,19,-1,0,13
Y2-S2-053K19,4,408,AS,exp,25,↑,no_key,no_letter,-1.0,False,19,-1,0,13
Y2-S2-053K19,4,409,AS,exp,42,↓,right,→,1.1326647999230772,False,20,-1,0,13
Y2-S2-053K19,4,410,AS,exp,25,→,up,↑,0.8353764999192208,False,21,-1,0,13
Y2-S2-053K19,4,411,AS,exp,41,↓,down,↓,1.1495434998068959,True,22,-1,0,13
Y2-S2-053K19,4,412,AS,exp,28,←,right,→,0.9933107998222113,False,22,-1,0,13
Y2-S2-053K19,4,413,AS,exp,44,↑,up,↑,1.3128644998650998,True,23,-1,0,13
Y2-S2-053K19,4,414,AS,exp,43,←,no_key,no_letter,-1.0,False,23,-1,0,13
Y2-S2-053K19,4,415,AS,exp,50,↑,up,↑,0.10129289980977774,True,24,-1,0,13
Y2-S2-053K19,4,416,AS,exp,35,→,no_key,no_letter,-1.0,False,24,-1,0,13
Y2-S2-053K19,4,417,AS,exp,43,↑,up,↑,0.652744899969548,True,25,-1,0,13
Y2-S2-053K19,4,418,AS,exp,35,←,left,←,1.3291726000607014,True,25,-1,0,13
Y2-S2-053K19,4,419,AS,exp,38,↓,no_key,no_letter,-1.0,False,25,-1,0,13
Y2-S2-053K19,4,420,AS,exp,25,←,no_key,no_letter,-1.0,False,26,-1,0,13
Y2-S2-053K19,4,421,AS,exp,49,↑,up,↑,1.8225646999198943,True,27,-1,0,13
Y2-S2-053K19,4,422,AS,exp,49,↓,down,↓,0.9345480999909341,True,27,-1,0,13
Y2-S2-053K19,4,423,AS,exp,33,←,left,←,0.7996861999854445,True,27,1,1,14
Y2-S2-053K19,4,424,AS,exp,31,↑,up,↑,0.8267904000822455,True,26,1,0,14
Y2-S2-053K19,4,425,AS,exp,37,↓,down,↓,0.8318469999358058,True,26,1,0,14
Y2-S2-053K19,4,426,AS,exp,48,↑,up,↑,1.2624339000321925,True,26,1,0,14
Y2-S2-053K19,4,427,AS,exp,34,↓,down,↓,0.8631796000991017,True,25,1,0,14
Y2-S2-053K19,4,428,AS,exp,47,←,no_key,no_letter,-1.0,False,25,-1,1,15
Y2-S2-053K19,4,429,AS,exp,29,→,right,→,1.1931716999970376,True,26,-1,0,15
Y2-S2-053K19,4,430,AS,exp,37,↓,down,↓,1.1188996001146734,True,26,-1,0,15
Y2-S2-053K19,4,431,AS,exp,39,↑,left,←,1.1796486000530422,False,26,-1,0,15
Y2-S2-053K19,4,432,AS,exp,46,→,right,→,0.9844688000157475,True,27,-1,0,15
Y2-S2-053K19,4,433,AS,exp,34,↓,down,↓,1.240577399963513,True,27,-1,0,15
Y2-S2-053K19,4,434,AS,exp,26,←,left,←,0.777858299901709,True,27,1,1,16
Y2-S2-053K19,5,435,AS,intra_train,39,↓,down,↓,0.5844511000905186,True,21,-,-,-
Y2-S2-053K19,5,436,AS,intra_train,37,→,right,→,0.6277949998620898,True,21,-,-,-
Y2-S2-053K19,5,437,AS,intra_train,32,←,left,←,0.566513700177893,True,21,-,-,-
Y2-S2-053K19,5,438,AS,intra_train,47,↓,down,↓,0.645757099846378,True,21,-,-,-
Y2-S2-053K19,5,439,AS,intra_train,35,←,left,←,0.6161910998634994,True,21,-,-,-
Y2-S2-053K19,5,440,AS,exp,38,→,left,←,0.6582369999960065,False,14,-1,0,0
Y2-S2-053K19,5,441,AS,exp,29,↓,down,↓,0.7665780000388622,True,15,-1,0,0
Y2-S2-053K19,5,442,AS,exp,27,↑,up,↑,0.6135867999400944,True,15,-1,0,0
Y2-S2-053K19,5,443,AS,exp,43,←,left,←,0.6781283000018448,True,15,1,1,1
Y2-S2-053K19,5,444,AS,exp,48,↑,down,↓,0.954054000088945,False,14,-1,1,2
Y2-S2-053K19,5,445,AS,exp,25,→,left,←,0.6608044998720288,False,15,-1,0,2
Y2-S2-053K19,5,446,AS,exp,42,←,left,←,0.7152074000332505,True,16,-1,0,2
Y2-S2-053K19,5,447,AS,exp,25,→,right,→,0.6732359000016004,True,16,-1,0,2
Y2-S2-053K19,5,448,AS,exp,26,↑,up,↑,0.6447014000732452,True,16,1,1,3
Y2-S2-053K19,5,449,AS,exp,25,←,left,←,0.6103858000133187,True,15,1,0,3
Y2-S2-053K19,5,450,AS,exp,48,↓,down,↓,0.8628686000593007,True,15,1,0,3
Y2-S2-053K19,5,451,AS,exp,39,↑,up,↑,0.6980465999804437,True,15,1,0,3
Y2-S2-053K19,5,452,AS,exp,42,←,left,←,1.0555655998177826,True,14,1,0,3
Y2-S2-053K19,5,453,AS,exp,46,↑,up,↑,0.5603831000626087,True,14,1,0,3
Y2-S2-053K19,5,454,AS,exp,45,→,left,←,0.6166455000638962,False,14,-1,1,4
Y2-S2-053K19,5,455,AS,exp,29,↓,up,↑,0.8623923999257386,False,15,-1,0,4
Y2-S2-053K19,5,456,AS,exp,49,→,left,←,0.7939428000245243,False,16,-1,0,4
Y2-S2-053K19,5,457,AS,exp,43,↓,up,↑,0.7421172999311239,False,17,-1,0,4
Y2-S2-053K19,5,458,AS,exp,41,↑,up,↑,0.5616739999968559,True,18,-1,0,4
Y2-S2-053K19,5,459,AS,exp,26,←,left,←,0.8310723998583853,True,18,-1,0,4
Y2-S2-053K19,5,460,AS,exp,43,↑,up,↑,0.7998341000638902,True,18,1,1,5
Y2-S2-053K19,5,461,AS,exp,50,↓,up,↑,0.8521656999364495,False,17,-1,1,6
Y2-S2-053K19,5,462,AS,exp,28,←,up,↑,0.8413233999162912,False,18,-1,0,6
Y2-S2-053K19,5,463,AS,exp,26,→,left,←,1.1147056000772864,False,19,-1,0,6
Y2-S2-053K19,5,464,AS,exp,47,←,left,←,0.8318803999572992,True,20,-1,0,6
Y2-S2-053K19,5,465,AS,exp,33,↓,down,↓,1.2799134000670165,True,20,-1,0,6
Y2-S2-053K19,5,466,AS,exp,43,←,left,←,0.9330653001088649,True,20,1,1,7
Y2-S2-053K19,5,467,AS,exp,37,↓,up,↑,1.0825769999064505,False,19,-1,1,8
Y2-S2-053K19,5,468,AS,exp,48,→,right,→,0.7194850000087172,True,20,-1,0,8
Y2-S2-053K19,5,469,AS,exp,30,↓,down,↓,1.1554290999192744,True,20,-1,0,8
Y2-S2-053K19,5,470,AS,exp,35,←,left,←,0.7979220999404788,True,20,1,1,9
Y2-S2-053K19,5,471,AS,exp,30,↓,down,↓,0.8421362999361008,True,19,1,0,9
Y2-S2-053K19,5,472,AS,exp,50,→,right,→,0.6252937999088317,True,19,1,0,9
Y2-S2-053K19,5,473,AS,exp,45,←,up,↑,1.7705145999789238,False,19,-1,1,10
Y2-S2-053K19,5,474,AS,exp,39,→,right,→,1.1138486000709236,True,20,-1,0,10
Y2-S2-053K19,5,475,AS,exp,38,↑,no_key,no_letter,-1.0,False,20,-1,0,10
Y2-S2-053K19,5,476,AS,exp,29,→,right,→,0.6328986999578774,True,21,-1,0,10
Y2-S2-053K19,5,477,AS,exp,44,↓,down,↓,1.0006486000493169,True,21,-1,0,10
Y2-S2-053K19,5,478,AS,exp,32,↑,down,↓,1.29684630013071,False,21,-1,0,10
Y2-S2-053K19,5,479,AS,exp,50,↓,down,↓,1.25203249999322,True,22,-1,0,10
Y2-S2-053K19,5,480,AS,exp,40,←,left,←,1.3139297999441624,True,22,-1,0,10
Y2-S2-053K19,5,481,AS,exp,48,↑,no_key,no_letter,-1.0,False,22,-1,0,10
Y2-S2-053K19,5,482,AS,exp,32,↓,no_key,no_letter,-1.0,False,23,-1,0,10
Y2-S2-053K19,5,483,AS,exp,49,←,right,→,0.7497769000474364,False,24,-1,0,10
Y2-S2-053K19,5,484,AS,exp,38,↑,up,↑,0.8044376000761986,True,25,-1,0,10
Y2-S2-053K19,5,485,AS,exp,37,→,right,→,0.5862032999284565,True,25,-1,0,10
Y2-S2-053K19,5,486,AS,exp,30,↑,up,↑,0.6670238999649882,True,25,1,1,11
Y2-S2-053K19,5,487,AS,exp,27,→,right,→,0.6302147000096738,True,24,1,0,11
Y2-S2-053K19,5,488,AS,exp,42,↓,down,↓,0.7665111001115292,True,24,1,0,11
Y2-S2-053K19,5,489,AS,exp,32,←,left,←,0.6577516999095678,True,24,1,0,11
Y2-S2-053K19,5,490,AS,exp,44,↑,up,↑,0.6450523000676185,True,23,1,0,11
Y2-S2-053K19,5,491,AS,exp,45,→,right,→,0.6466594999656081,True,23,1,0,11
Y2-S2-053K19,5,492,AS,exp,29,↑,up,↑,0.5970715000294149,True,23,1,0,11
Y2-S2-053K19,5,493,AS,exp,25,←,left,←,0.500868400093168,True,22,1,0,11
Y2-S2-053K19,5,494,AS,exp,49,↓,down,↓,0.8550005999859422,True,22,1,0,11
Y2-S2-053K19,5,495,AS,exp,31,↑,up,↑,0.5842174999415874,True,22,1,0,11
Y2-S2-053K19,5,496,AS,exp,33,↓,down,↓,0.8552874000743032,True,21,1,0,11
Y2-S2-053K19,5,497,AS,exp,32,←,left,←,0.633962599793449,True,21,1,0,11
Y2-S2-053K19,5,498,AS,exp,48,↑,up,↑,0.6009106000419706,True,21,1,0,11
Y2-S2-053K19,5,499,AS,exp,46,↓,down,↓,0.7580637000501156,True,20,1,0,11
Y2-S2-053K19,5,500,AS,exp,41,←,left,←,0.7243850000668317,True,20,1,0,11
Y2-S2-053K19,5,501,AS,exp,25,↑,up,↑,0.7519722001161426,True,20,1,0,11
Y2-S2-053K19,5,502,AS,exp,43,→,right,→,0.5469802999868989,True,19,1,0,11
Y2-S2-053K19,5,503,AS,exp,31,←,left,←,0.617652100045234,True,19,1,0,11
Y2-S2-053K19,5,504,AS,exp,29,↑,up,↑,0.537100600078702,True,19,1,0,11
Y2-S2-053K19,5,505,AS,exp,31,↓,down,↓,0.631654400145635,True,18,1,0,11
Y2-S2-053K19,5,506,AS,exp,30,↑,up,↑,0.8742405998054892,True,18,1,0,11
Y2-S2-053K19,5,507,AS,exp,45,↓,down,↓,0.6045515998266637,True,18,1,0,11
Y2-S2-053K19,5,508,AS,exp,35,←,left,←,0.8166406000964344,True,17,1,0,11
Y2-S2-053K19,5,509,AS,exp,32,→,right,→,0.761232899967581,True,17,1,0,11
Y2-S2-053K19,5,510,AS,exp,50,↓,down,↓,0.7407113001681864,True,17,1,0,11
Y2-S2-053K19,5,511,AS,exp,26,→,left,←,0.7355402999091893,False,16,-1,1,12
Y2-S2-053K19,5,512,AS,exp,37,↑,up,↑,0.5845763999968767,True,17,-1,0,12
Y2-S2-053K19,5,513,AS,exp,36,↓,up,↑,0.9462439999915659,False,17,-1,0,12
Y2-S2-053K19,5,514,AS,exp,49,↑,up,↑,0.5996880999300629,True,18,-1,0,12
Y2-S2-053K19,5,515,AS,exp,29,→,left,←,0.6678418999072164,False,18,-1,0,12
Y2-S2-053K19,5,516,AS,exp,27,↑,up,↑,0.69921960006468,True,19,-1,0,12
Y2-S2-053K19,5,517,AS,exp,34,←,left,←,0.6638198001310229,True,19,-1,0,12
Y2-S2-053K19,5,518,AS,exp,35,↓,up,↑,0.7899792999960482,False,19,-1,0,12
Y2-S2-053K19,5,519,AS,exp,34,←,left,←,0.813536899862811,True,20,-1,0,12
Y2-S2-053K19,5,520,AS,exp,41,↑,up,↑,0.7718044000212103,True,20,-1,0,12
Y2-S2-053K19,5,521,AS,exp,49,→,up,↑,1.7183532000053674,False,20,-1,0,12
Y2-S2-053K19,5,522,AS,exp,48,↑,up,↑,0.6133898999541998,True,21,-1,0,12
Y2-S2-053K19,5,523,AS,exp,38,→,right,→,0.9556700000539422,True,21,-1,0,12
Y2-S2-053K19,5,524,AS,exp,28,↑,up,↑,0.5277400999329984,True,21,1,1,13
Y2-S2-053K19,5,525,AS,exp,44,↓,down,↓,0.8079671999439597,True,20,1,0,13
Y2-S2-053K19,5,526,AS,exp,32,→,right,→,0.46709070005454123,True,20,1,0,13
Y2-S2-053K19,5,527,AS,exp,43,↑,up,↑,0.5761281000450253,True,20,1,0,13
Y2-S2-053K19,5,528,AS,exp,38,←,left,←,0.7815072000958025,True,19,1,0,13
Y2-S2-053K19,5,529,AS,exp,32,↑,up,↑,0.7888863000553101,True,19,1,0,13
Y2-S2-053K19,5,530,AS,exp,49,↓,down,↓,0.7477758000604808,True,19,1,0,13
Y2-S2-053K19,5,531,AS,exp,46,↑,up,↑,0.5929197000805289,True,18,1,0,13
Y2-S2-053K19,5,532,AS,exp,45,↓,left,←,0.6049176000524312,False,18,-1,1,14
Y2-S2-053K19,5,533,AS,exp,46,↑,up,↑,0.7362544999923557,True,19,-1,0,14
Y2-S2-053K19,5,534,AS,exp,29,→,right,→,1.0823391999583691,True,19,-1,0,14
Y2-S2-053K19,5,535,AS,exp,40,↑,no_key,no_letter,-1.0,False,19,-1,0,14
Y2-S2-053K19,5,536,AS,exp,28,→,right,→,0.6642585000954568,True,20,-1,0,14
Y2-S2-053K19,5,537,AS,exp,43,↑,up,↑,0.6539725000038743,True,20,-1,0,14
Y2-S2-053K19,5,538,AS,exp,35,→,right,→,0.5324575998820364,True,20,1,1,15
Y2-S2-053K19,5,539,AS,exp,31,←,left,←,0.7662833998911083,True,19,1,0,15
Y2-S2-053K19,5,540,AS,exp,32,↓,down,↓,0.6763683999888599,True,19,1,0,15
Y2-S2-053K19,5,541,AS,exp,26,→,right,→,0.5823839998338372,True,19,1,0,15
Y2-S2-053K19,5,542,AS,exp,38,←,left,←,0.8020164000336081,True,18,1,0,15
Y2-S2-053K19,5,543,AS,exp,42,→,right,→,0.6493420999031514,True,18,1,0,15
Y2-S2-053K19,5,544,AS,exp,49,↑,up,↑,0.8317321001086384,True,18,1,0,15
Y2-S2-053K19,5,545,AS,exp,43,→,right,→,0.8021368999034166,True,17,1,0,15
Y2-S2-053K19,5,546,AS,exp,32,←,left,←,0.7111007000785321,True,17,1,0,15
Y2-S2-053K19,5,547,AS,exp,27,↓,down,↓,0.8580934000201523,True,17,1,0,15
Y2-S2-053K19,5,548,AS,exp,49,→,right,→,0.5752755000721663,True,16,1,0,15
Y2-S2-053K19,5,549,AS,exp,25,↑,up,↑,0.6271341999527067,True,16,1,0,15
Y2-S2-053K19,5,550,AS,exp,38,↓,up,↑,0.8206535000354052,False,16,-1,1,16
Y2-S2-053K19,6,551,PS,intra_train,39,←,left,←,0.48196369991637766,True,16,-,-,-
Y2-S2-053K19,6,552,PS,intra_train,45,↑,up,↑,0.4730509000364691,True,16,-,-,-
Y2-S2-053K19,6,553,PS,intra_train,29,↓,down,↓,0.7835321000311524,True,16,-,-,-
Y2-S2-053K19,6,554,PS,intra_train,30,↑,up,↑,0.5065562999807298,True,16,-,-,-
Y2-S2-053K19,6,555,PS,intra_train,32,←,up,↑,0.6599246000405401,False,16,-,-,-
Y2-S2-053K19,6,556,PS,exp,34,↑,right,→,1.275306000141427,False,11,-1,0,0
Y2-S2-053K19,6,557,PS,exp,47,→,right,→,0.6952912001870573,True,12,-1,0,0
Y2-S2-053K19,6,558,PS,exp,49,↑,up,↑,0.5395381001289934,True,12,-1,0,0
Y2-S2-053K19,6,559,PS,exp,41,←,left,←,0.7686930000782013,True,12,1,1,1
Y2-S2-053K19,6,560,PS,exp,29,↑,up,↑,0.6617874999064952,True,11,1,0,1
Y2-S2-053K19,6,561,PS,exp,44,↓,down,↓,0.7111390000209212,True,11,1,0,1
Y2-S2-053K19,6,562,PS,exp,48,←,left,←,0.45231460011564195,True,11,1,0,1
Y2-S2-053K19,6,563,PS,exp,36,→,right,→,0.6094823000021279,True,10,1,0,1
Y2-S2-053K19,6,564,PS,exp,34,↑,up,↑,0.5121689999941736,True,10,1,0,1
Y2-S2-053K19,6,565,PS,exp,26,↓,down,↓,0.7482383998576552,True,10,1,0,1
Y2-S2-053K19,6,566,PS,exp,42,→,right,→,0.7131508998572826,True,9,1,0,1
Y2-S2-053K19,6,567,PS,exp,26,↑,up,↑,0.47926619998179376,True,9,1,0,1
Y2-S2-053K19,6,568,PS,exp,44,←,left,←,0.5782637000083923,True,9,1,0,1
Y2-S2-053K19,6,569,PS,exp,45,→,right,→,0.5115806998219341,True,8,1,0,1
Y2-S2-053K19,6,570,PS,exp,26,↑,up,↑,0.48068949999287724,True,8,1,0,1
Y2-S2-053K19,6,571,PS,exp,29,↓,down,↓,0.6562357998918742,True,8,1,0,1
Y2-S2-053K19,6,572,PS,exp,27,←,right,→,0.7330616998951882,False,7,-1,1,2
Y2-S2-053K19,6,573,PS,exp,38,↓,up,↑,0.6935854000039399,False,8,-1,0,2
Y2-S2-053K19,6,574,PS,exp,36,↑,up,↑,0.7351016998291016,True,9,-1,0,2
Y2-S2-053K19,6,575,PS,exp,33,↓,down,↓,0.7151730000041425,True,9,-1,0,2
Y2-S2-053K19,6,576,PS,exp,37,←,up,↑,0.6582594001665711,False,9,-1,0,2
Y2-S2-053K19,6,577,PS,exp,49,↓,down,↓,0.7144272001460195,True,10,-1,0,2
Y2-S2-053K19,6,578,PS,exp,34,→,right,→,0.5611911001615226,True,10,-1,0,2
Y2-S2-053K19,6,579,PS,exp,39,↑,up,↑,0.5082911998033524,True,10,1,1,3
Y2-S2-053K19,6,580,PS,exp,25,←,right,→,0.6899559998419136,False,9,-1,1,4
Y2-S2-053K19,6,581,PS,exp,44,↓,down,↓,0.7090858998708427,True,10,-1,0,4
Y2-S2-053K19,6,582,PS,exp,45,←,left,←,0.5792992000933737,True,10,-1,0,4
Y2-S2-053K19,6,583,PS,exp,48,→,right,→,0.5131965999025851,True,10,1,1,5
Y2-S2-053K19,6,584,PS,exp,44,←,right,→,0.7989213000983,False,9,-1,1,6
Y2-S2-053K19,6,585,PS,exp,44,↓,right,→,0.8206426000688225,False,10,-1,0,6
Y2-S2-053K19,6,586,PS,exp,49,↑,right,→,0.82815369986929,False,11,-1,0,6
Y2-S2-053K19,6,587,PS,exp,37,←,left,←,0.5377833000384271,True,12,-1,0,6
Y2-S2-053K19,6,588,PS,exp,36,↓,down,↓,0.6645339000970125,True,12,-1,0,6
Y2-S2-053K19,6,589,PS,exp,45,↑,up,↑,0.7649183999747038,True,12,1,1,7
Y2-S2-053K19,6,590,PS,exp,42,←,left,←,0.5105600000824779,True,11,1,0,7
Y2-S2-053K19,6,591,PS,exp,36,→,right,→,0.5046087999362499,True,11,1,0,7
Y2-S2-053K19,6,592,PS,exp,40,↓,right,→,0.6865761000663042,False,11,-1,1,8
Y2-S2-053K19,6,593,PS,exp,31,←,left,←,0.42525719990953803,True,12,-1,0,8
Y2-S2-053K19,6,594,PS,exp,35,↓,down,↓,0.6668629997875541,True,12,-1,0,8
Y2-S2-053K19,6,595,PS,exp,43,↑,up,↑,0.48096000007353723,True,12,1,1,9
Y2-S2-053K19,6,596,PS,exp,47,↓,down,↓,0.7862609000876546,True,11,1,0,9
Y2-S2-053K19,6,597,PS,exp,44,←,left,←,0.45697450009174645,True,11,1,0,9
Y2-S2-053K19,6,598,PS,exp,35,↓,down,↓,0.6481014001183212,True,11,1,0,9
Y2-S2-053K19,6,599,PS,exp,49,↑,up,↑,0.5190278999507427,True,10,1,0,9
Y2-S2-053K19,6,600,PS,exp,47,↓,up,↑,0.8995779000688344,False,10,-1,1,10
Y2-S2-053K19,6,601,PS,exp,40,↑,up,↑,0.37288509984500706,True,11,-1,0,10
Y2-S2-053K19,6,602,PS,exp,37,←,left,←,0.5296632000245154,True,11,-1,0,10
Y2-S2-053K19,6,603,PS,exp,30,↑,up,↑,1.0082876000087708,True,11,1,1,11
Y2-S2-053K19,6,604,PS,exp,44,↓,down,↓,0.6149079001042992,True,10,1,0,11
Y2-S2-053K19,6,605,PS,exp,45,↑,up,↑,0.5977028999477625,True,10,1,0,11
Y2-S2-053K19,6,606,PS,exp,37,→,right,→,0.4913546000607312,True,10,1,0,11
Y2-S2-053K19,6,607,PS,exp,36,↓,down,↓,0.5979448000434786,True,9,1,0,11
Y2-S2-053K19,6,608,PS,exp,27,←,left,←,0.44380879984237254,True,9,1,0,11
Y2-S2-053K19,6,609,PS,exp,40,→,right,→,0.44812109996564686,True,9,1,0,11
Y2-S2-053K19,6,610,PS,exp,41,↓,up,↑,0.5654468999709934,False,8,-1,1,12
Y2-S2-053K19,6,611,PS,exp,38,↑,down,↓,0.771196800051257,False,9,-1,0,12
Y2-S2-053K19,6,612,PS,exp,40,↓,up,↑,1.0240881000645459,False,10,-1,0,12
Y2-S2-053K19,6,613,PS,exp,36,↑,up,↑,0.7148066000081599,True,11,-1,0,12
Y2-S2-053K19,6,614,PS,exp,46,↓,down,↓,0.6158796001691371,True,11,-1,0,12
Y2-S2-053K19,6,615,PS,exp,41,←,right,→,0.5250680998433381,False,11,-1,0,12
Y2-S2-053K19,6,616,PS,exp,36,→,right,→,0.5340587999671698,True,12,-1,0,12
Y2-S2-053K19,6,617,PS,exp,45,↑,up,↑,0.5986559998709708,True,12,-1,0,12
Y2-S2-053K19,6,618,PS,exp,44,→,right,→,0.45384289999492466,True,12,1,1,13
Y2-S2-053K19,6,619,PS,exp,29,↓,down,↓,0.5653523001819849,True,11,1,0,13
Y2-S2-053K19,6,620,PS,exp,37,→,right,→,0.600142499897629,True,11,1,0,13
Y2-S2-053K19,6,621,PS,exp,26,←,left,←,0.5342030001338571,True,11,1,0,13
Y2-S2-053K19,6,622,PS,exp,37,→,right,→,0.640089999884367,True,10,1,0,13
Y2-S2-053K19,6,623,PS,exp,29,↓,down,↓,0.7101024000439793,True,10,1,0,13
Y2-S2-053K19,6,624,PS,exp,44,←,left,←,0.4759162999689579,True,10,1,0,13
Y2-S2-053K19,6,625,PS,exp,41,→,right,→,0.5899211999494582,True,9,1,0,13
Y2-S2-053K19,6,626,PS,exp,40,←,right,→,0.5899115998763591,False,9,-1,1,14
Y2-S2-053K19,6,627,PS,exp,29,↓,down,↓,0.6603395000565797,True,10,-1,0,14
Y2-S2-053K19,6,628,PS,exp,42,←,left,←,0.6847842999268323,True,10,-1,0,14
Y2-S2-053K19,6,629,PS,exp,29,↓,down,↓,0.7144548001233488,True,10,1,1,15
Y2-S2-053K19,6,630,PS,exp,29,→,right,→,0.6338502001017332,True,9,1,0,15
Y2-S2-053K19,6,631,PS,exp,50,←,left,←,0.4959753998555243,True,9,1,0,15
Y2-S2-053K19,6,632,PS,exp,32,↑,left,←,0.6319381999783218,False,9,-1,1,16
Y2-S2-053K19,7,633,PS,intra_train,34,←,left,←,0.7349218998569995,True,16,-,-,-
Y2-S2-053K19,7,634,PS,intra_train,25,→,right,→,0.4418749001342803,True,16,-,-,-
Y2-S2-053K19,7,635,PS,intra_train,34,↑,up,↑,0.47964609996415675,True,16,-,-,-
Y2-S2-053K19,7,636,PS,intra_train,36,↓,down,↓,0.678570399992168,True,16,-,-,-
Y2-S2-053K19,7,637,PS,intra_train,36,←,left,←,0.5550114000216126,True,16,-,-,-
Y2-S2-053K19,7,638,PS,exp,31,↓,down,↓,0.5968814000952989,True,11,0,0,0
Y2-S2-053K19,7,639,PS,exp,44,←,left,←,0.6128638000227511,True,11,0,0,0
Y2-S2-053K19,7,640,PS,exp,41,→,right,→,0.4907839000225067,True,11,1,0,0
Y2-S2-053K19,7,641,PS,exp,45,↓,down,↓,0.7023361998144537,True,10,1,0,0
Y2-S2-053K19,7,642,PS,exp,25,→,right,→,0.4494243999943137,True,10,1,0,0
Y2-S2-053K19,7,643,PS,exp,43,↑,left,←,0.8228474999777973,False,10,-1,1,1
Y2-S2-053K19,7,644,PS,exp,37,↓,down,↓,0.7053263999987394,True,11,-1,0,1
Y2-S2-053K19,7,645,PS,exp,40,←,left,←,0.42203809996135533,True,11,-1,0,1
Y2-S2-053K19,7,646,PS,exp,28,→,left,←,0.8977174998726696,False,11,-1,0,1
Y2-S2-053K19,7,647,PS,exp,48,↑,up,↑,0.5285644999239594,True,12,-1,0,1
Y2-S2-053K19,7,648,PS,exp,30,→,right,→,0.7168671998661011,True,12,-1,0,1
Y2-S2-053K19,7,649,PS,exp,41,←,left,←,0.6039994000457227,True,12,1,1,2
Y2-S2-053K19,7,650,PS,exp,27,→,right,→,0.4013414999935776,True,11,1,0,2
Y2-S2-053K19,7,651,PS,exp,31,←,left,←,0.4942736001685262,True,11,1,0,2
Y2-S2-053K19,7,652,PS,exp,47,↓,down,↓,0.7104798001237214,True,11,1,0,2
Y2-S2-053K19,7,653,PS,exp,42,←,left,←,0.5543366000056267,True,10,1,0,2
Y2-S2-053K19,7,654,PS,exp,38,↑,up,↑,0.5167785999365151,True,10,1,0,2
Y2-S2-053K19,7,655,PS,exp,43,↓,up,↑,1.097959600156173,False,10,-1,1,3
Y2-S2-053K19,7,656,PS,exp,25,↑,up,↑,0.4934311001561582,True,11,-1,0,3
Y2-S2-053K19,7,657,PS,exp,27,→,right,→,0.6012735001277179,True,11,-1,0,3
Y2-S2-053K19,7,658,PS,exp,37,↓,down,↓,0.7307322998531163,True,11,1,1,4
Y2-S2-053K19,7,659,PS,exp,49,↑,up,↑,0.47720599989406765,True,10,1,0,4
Y2-S2-053K19,7,660,PS,exp,45,→,right,→,0.5381296998821199,True,10,1,0,4
Y2-S2-053K19,7,661,PS,exp,36,←,left,←,0.6690216998104006,True,10,1,0,4
Y2-S2-053K19,7,662,PS,exp,32,↑,up,↑,0.5235025000292808,True,9,1,0,4
Y2-S2-053K19,7,663,PS,exp,25,←,left,←,0.5625441998708993,True,9,1,0,4
Y2-S2-053K19,7,664,PS,exp,37,↑,up,↑,0.5205040997825563,True,9,1,0,4
Y2-S2-053K19,7,665,PS,exp,37,→,left,←,0.7597403998952359,False,8,-1,1,5
Y2-S2-053K19,7,666,PS,exp,34,↑,up,↑,0.5466555999591947,True,9,-1,0,5
Y2-S2-053K19,7,667,PS,exp,46,←,left,←,0.509322099853307,True,9,-1,0,5
Y2-S2-053K19,7,668,PS,exp,34,↓,down,↓,0.7421615000348538,True,9,1,1,6
Y2-S2-053K19,7,669,PS,exp,39,→,left,←,0.5929837999865413,False,8,-1,1,7
Y2-S2-053K19,7,670,PS,exp,36,←,left,←,0.4473674998153001,True,9,-1,0,7
Y2-S2-053K19,7,671,PS,exp,50,↓,down,↓,0.7422531000338495,True,9,-1,0,7
Y2-S2-053K19,7,672,PS,exp,34,←,left,←,0.5912791998125613,True,9,1,1,8
Y2-S2-053K19,7,673,PS,exp,34,↑,up,↑,0.47849439992569387,True,8,1,0,8
Y2-S2-053K19,7,674,PS,exp,43,→,right,→,0.4943737001158297,True,8,1,0,8
Y2-S2-053K19,7,675,PS,exp,45,↑,right,→,0.48448790004476905,False,8,-1,1,9
Y2-S2-053K19,7,676,PS,exp,45,→,right,→,0.457872899947688,True,9,-1,0,9
Y2-S2-053K19,7,677,PS,exp,27,←,left,←,0.4687111000530422,True,9,-1,0,9
Y2-S2-053K19,7,678,PS,exp,47,↑,up,↑,0.46096200007013977,True,9,1,1,10
Y2-S2-053K19,7,679,PS,exp,50,↓,up,↑,0.539080899907276,False,8,-1,1,11
Y2-S2-053K19,7,680,PS,exp,29,↑,up,↑,0.53066819999367,True,9,-1,0,11
Y2-S2-053K19,7,681,PS,exp,29,↓,up,↑,0.43032429995946586,False,9,-1,0,11
Y2-S2-053K19,7,682,PS,exp,28,←,left,←,0.5370338000357151,True,10,-1,0,11
Y2-S2-053K19,7,683,PS,exp,48,↑,left,←,0.6570456998888403,False,10,-1,0,11
Y2-S2-053K19,7,684,PS,exp,40,←,left,←,0.4550212000031024,True,11,-1,0,11
Y2-S2-053K19,7,685,PS,exp,27,↓,left,←,0.3908679001033306,False,11,-1,0,11
Y2-S2-053K19,7,686,PS,exp,44,←,left,←,0.40465330006554723,True,12,-1,0,11
Y2-S2-053K19,7,687,PS,exp,25,→,left,←,0.4252394998911768,False,12,-1,0,11
Y2-S2-053K19,7,688,PS,exp,37,←,left,←,0.4532262999564409,True,13,-1,0,11
Y2-S2-053K19,7,689,PS,exp,33,↓,left,←,0.46481809997931123,False,13,-1,0,11
Y2-S2-053K19,7,690,PS,exp,29,↑,left,←,0.4109045001678169,False,14,-1,0,11
Y2-S2-053K19,7,691,PS,exp,37,←,left,←,0.4186183998826891,True,15,-1,0,11
Y2-S2-053K19,7,692,PS,exp,45,↓,down,↓,0.7296736999414861,True,15,-1,0,11
Y2-S2-053K19,7,693,PS,exp,45,→,left,←,0.36727620009332895,False,15,-1,0,11
Y2-S2-053K19,7,694,PS,exp,38,←,left,←,0.8153706998564303,True,16,-1,0,11
Y2-S2-053K19,7,695,PS,exp,48,↑,up,↑,0.5266895999666303,True,16,-1,0,11
Y2-S2-053K19,7,696,PS,exp,32,←,left,←,0.580753699876368,True,16,1,1,12
Y2-S2-053K19,7,697,PS,exp,47,↑,left,←,0.8966953000053763,False,15,-1,1,13
Y2-S2-053K19,7,698,PS,exp,43,↓,down,↓,0.7040731001179665,True,16,-1,0,13
Y2-S2-053K19,7,699,PS,exp,48,↑,up,↑,1.0499916998669505,True,16,-1,0,13
Y2-S2-053K19,7,700,PS,exp,48,→,right,→,0.6966487001627684,True,16,1,1,14
Y2-S2-053K19,7,701,PS,exp,41,←,right,→,0.63643529987894,False,15,-1,1,15
Y2-S2-053K19,7,702,PS,exp,40,↑,up,↑,0.5574458001647145,True,16,-1,0,15
Y2-S2-053K19,7,703,PS,exp,31,↓,up,↑,0.6875281000975519,False,16,-1,0,15
Y2-S2-053K19,7,704,PS,exp,42,↑,up,↑,0.563415199983865,True,17,-1,0,15
Y2-S2-053K19,7,705,PS,exp,49,←,left,←,0.5861694000195712,True,17,-1,0,15
Y2-S2-053K19,7,706,PS,exp,28,↑,up,↑,0.5235483001451939,True,17,1,1,16
Y2-S2-053K19,8,707,AS,intra_train,49,→,left,←,0.6643104001414031,False,21,-,-,-
Y2-S2-053K19,8,708,AS,intra_train,35,↑,up,↑,0.6638756999745965,True,21,-,-,-
Y2-S2-053K19,8,709,AS,intra_train,50,→,right,→,0.7187777999788523,True,21,-,-,-
Y2-S2-053K19,8,710,AS,intra_train,40,←,left,←,1.356255799997598,True,21,-,-,-
Y2-S2-053K19,8,711,AS,intra_train,40,↓,up,↑,0.7859801999293268,False,21,-,-,-
Y2-S2-053K19,8,712,AS,exp,25,↑,up,↑,0.5769700999371707,True,14,0,0,0
Y2-S2-053K19,8,713,AS,exp,45,←,left,←,0.5444844998419285,True,14,0,0,0
Y2-S2-053K19,8,714,AS,exp,36,↓,up,↑,0.6013340000063181,False,14,-1,0,0
Y2-S2-053K19,8,715,AS,exp,50,→,right,→,1.4063456999137998,True,15,-1,0,0
Y2-S2-053K19,8,716,AS,exp,50,↑,up,↑,1.25975550012663,True,15,-1,0,0
Y2-S2-053K19,8,717,AS,exp,32,←,left,←,0.6568518998101354,True,15,1,1,1
Y2-S2-053K19,8,718,AS,exp,48,↓,down,↓,0.7760354999918491,True,14,1,0,1
Y2-S2-053K19,8,719,AS,exp,26,←,right,→,0.7053750001359731,False,14,-1,1,2
Y2-S2-053K19,8,720,AS,exp,38,↓,up,↑,0.6023343000560999,False,15,-1,0,2
Y2-S2-053K19,8,721,AS,exp,35,↑,down,↓,1.0661244001239538,False,16,-1,0,2
Y2-S2-053K19,8,722,AS,exp,46,←,left,←,0.7458161998074502,True,17,-1,0,2
Y2-S2-053K19,8,723,AS,exp,31,↑,up,↑,0.610306799877435,True,17,-1,0,2
Y2-S2-053K19,8,724,AS,exp,31,→,right,→,0.8874570000916719,True,17,1,1,3
Y2-S2-053K19,8,725,AS,exp,32,↑,right,→,0.8398437998257577,False,16,-1,1,4
Y2-S2-053K19,8,726,AS,exp,45,←,up,↑,0.8116722998674959,False,17,-1,0,4
Y2-S2-053K19,8,727,AS,exp,32,→,right,→,0.5257867998443544,True,18,-1,0,4
Y2-S2-053K19,8,728,AS,exp,46,←,right,→,0.6377981000114232,False,18,-1,0,4
Y2-S2-053K19,8,729,AS,exp,28,→,right,→,0.5255759998690337,True,19,-1,0,4
Y2-S2-053K19,8,730,AS,exp,36,↑,right,→,0.8299102999735624,False,19,-1,0,4
Y2-S2-053K19,8,731,AS,exp,39,←,left,←,0.7795289000496268,True,20,-1,0,4
Y2-S2-053K19,8,732,AS,exp,34,↓,down,↓,1.1287724999710917,True,20,-1,0,4
Y2-S2-053K19,8,733,AS,exp,46,→,right,→,1.4107242999598384,True,20,1,1,5
Y2-S2-053K19,8,734,AS,exp,26,↑,left,←,0.6468563000671566,False,19,-1,1,6
Y2-S2-053K19,8,735,AS,exp,31,↓,down,↓,0.6629153001122177,True,20,-1,0,6
Y2-S2-053K19,8,736,AS,exp,43,←,left,←,0.6306837999727577,True,20,-1,0,6
Y2-S2-053K19,8,737,AS,exp,47,→,right,→,0.8083263000007719,True,20,1,1,7
Y2-S2-053K19,8,738,AS,exp,29,←,left,←,0.86298119998537,True,19,1,0,7
Y2-S2-053K19,8,739,AS,exp,28,→,right,→,0.6703864999581128,True,19,1,0,7
Y2-S2-053K19,8,740,AS,exp,34,↑,left,←,1.6138108999002725,False,19,-1,1,8
Y2-S2-053K19,8,741,AS,exp,46,←,left,←,0.5850502999965101,True,20,-1,0,8
Y2-S2-053K19,8,742,AS,exp,33,↑,up,↑,0.5996570000424981,True,20,-1,0,8
Y2-S2-053K19,8,743,AS,exp,31,↓,down,↓,0.8275614001322538,True,20,1,1,9
Y2-S2-053K19,8,744,AS,exp,27,→,right,→,0.6298275000881404,True,19,1,0,9
Y2-S2-053K19,8,745,AS,exp,48,↑,up,↑,1.216053299838677,True,19,1,0,9
Y2-S2-053K19,8,746,AS,exp,34,→,right,→,0.9828349999152124,True,19,1,0,9
Y2-S2-053K19,8,747,AS,exp,46,↓,up,↑,1.1084659001789987,False,18,-1,1,10
Y2-S2-053K19,8,748,AS,exp,46,←,left,←,0.5312264999374747,True,19,-1,0,10
Y2-S2-053K19,8,749,AS,exp,49,↑,up,↑,0.6479445998556912,True,19,-1,0,10
Y2-S2-053K19,8,750,AS,exp,40,↓,down,↓,0.8233664000872523,True,19,1,1,11
Y2-S2-053K19,8,751,AS,exp,33,←,up,↑,0.630849199835211,False,18,-1,1,12
Y2-S2-053K19,8,752,AS,exp,36,→,right,→,0.7446151999756694,True,19,-1,0,12
Y2-S2-053K19,8,753,AS,exp,37,↓,left,←,1.248939299955964,False,19,-1,0,12
Y2-S2-053K19,8,754,AS,exp,34,↑,up,↑,0.6859945999458432,True,20,-1,0,12
Y2-S2-053K19,8,755,AS,exp,31,↓,up,↑,1.5799399001989514,False,20,-1,0,12
Y2-S2-053K19,8,756,AS,exp,28,↑,up,↑,1.5823915998917073,True,21,-1,0,12
Y2-S2-053K19,8,757,AS,exp,35,→,left,←,0.5434463999699801,False,21,-1,0,12
Y2-S2-053K19,8,758,AS,exp,29,↑,up,↑,0.599909899989143,True,22,-1,0,12
Y2-S2-053K19,8,759,AS,exp,26,←,left,←,0.6961705000139773,True,22,-1,0,12
Y2-S2-053K19,8,760,AS,exp,40,↑,up,↑,0.6854904999490827,True,22,1,1,13
Y2-S2-053K19,8,761,AS,exp,27,←,left,←,0.6740278999786824,True,21,1,0,13
Y2-S2-053K19,8,762,AS,exp,25,↑,left,←,0.8174156001769006,False,21,-1,1,14
Y2-S2-053K19,8,763,AS,exp,48,↓,up,↑,0.805562200024724,False,22,-1,0,14
Y2-S2-053K19,8,764,AS,exp,49,→,no_key,no_letter,-1.0,False,23,-1,0,14
Y2-S2-053K19,8,765,AS,exp,42,↓,down,↓,0.9659336998593062,True,24,-1,0,14
Y2-S2-053K19,8,766,AS,exp,46,←,left,←,0.5342196000274271,True,24,-1,0,14
Y2-S2-053K19,8,767,AS,exp,33,↓,down,↓,0.8052451000548899,True,24,1,1,15
Y2-S2-053K19,8,768,AS,exp,41,←,left,←,0.8100741999223828,True,23,1,0,15
Y2-S2-053K19,8,769,AS,exp,47,→,no_key,no_letter,-1.0,False,23,-1,1,16
