PART_ID,Block_no,Trial_no,Block_type,Trial_type,CSI,Stim_letter,Key_pressed,letter_choose,Rt,Corr,Stimulus Time,Level,Reversal,Revs_count
Y2-S2-034K26,1,1,PS,train,40,←,left,←,2.09543289989233,True,30,-,-,-
Y2-S2-034K26,1,2,PS,train,47,↑,up,↑,0.6174377000425011,True,30,-,-,-
Y2-S2-034K26,1,3,PS,train,32,→,right,→,0.6979936000425369,True,30,-,-,-
Y2-S2-034K26,1,4,PS,train,31,↑,up,↑,2.128227800130844,True,30,-,-,-
Y2-S2-034K26,1,5,PS,train,48,↓,down,↓,0.6935333998408169,True,30,-,-,-
Y2-S2-034K26,1,6,PS,train,30,↑,up,↑,0.6003623998258263,True,30,-,-,-
Y2-S2-034K26,1,7,PS,train,28,→,right,→,0.5508878999389708,True,30,-,-,-
Y2-S2-034K26,1,8,PS,train,25,←,left,←,0.5672754999250174,True,30,-,-,-
Y2-S2-034K26,1,9,PS,train,35,↓,down,↓,0.7717681000940502,True,30,-,-,-
Y2-S2-034K26,1,10,PS,train,28,→,right,→,0.5504602000582963,True,30,-,-,-
Y2-S2-034K26,2,11,AS,train,49,←,left,←,0.8007729998789728,True,45,-,-,-
Y2-S2-034K26,2,12,AS,train,46,↑,up,↑,0.46765360003337264,True,45,-,-,-
Y2-S2-034K26,2,13,AS,train,43,↓,down,↓,1.041590599808842,True,45,-,-,-
Y2-S2-034K26,2,14,AS,train,26,←,left,←,0.6011127999518067,True,45,-,-,-
Y2-S2-034K26,2,15,AS,train,27,↓,down,↓,0.6686892998404801,True,45,-,-,-
Y2-S2-034K26,2,16,AS,train,26,↑,up,↑,0.5345339998602867,True,45,-,-,-
Y2-S2-034K26,2,17,AS,train,30,←,left,←,0.5512439999729395,True,45,-,-,-
Y2-S2-034K26,2,18,AS,train,27,↑,up,↑,0.4677065999712795,True,45,-,-,-
Y2-S2-034K26,2,19,AS,train,27,←,left,←,1.8073816001415253,True,45,-,-,-
Y2-S2-034K26,2,20,AS,train,35,↓,down,↓,1.7391184999141842,True,45,-,-,-
Y2-S2-034K26,-,21,PS,adaptive,41,→,right,→,0.5207201999146491,True,10,0,0,0
Y2-S2-034K26,-,22,PS,adaptive,34,↓,down,↓,0.9736999999731779,True,10,0,0,0
Y2-S2-034K26,-,23,PS,adaptive,32,↑,up,↑,0.5725339001510292,True,10,1,0,0
Y2-S2-034K26,-,24,PS,adaptive,36,←,down,↓,0.8485795001033694,False,9,-1,1,1
Y2-S2-034K26,-,25,PS,adaptive,44,→,right,→,0.7385927001014352,True,10,-1,0,1
Y2-S2-034K26,-,26,PS,adaptive,40,↑,up,↑,0.5831529998686165,True,10,-1,0,1
Y2-S2-034K26,-,27,PS,adaptive,44,→,right,→,0.5916021000593901,True,10,1,1,2
Y2-S2-034K26,-,28,PS,adaptive,41,↓,left,←,1.0734987000469118,False,9,-1,1,3
Y2-S2-034K26,-,29,PS,adaptive,50,←,left,←,0.5572579000145197,True,10,-1,0,3
Y2-S2-034K26,-,30,PS,adaptive,26,↓,right,→,0.7551714999135584,False,10,-1,0,3
Y2-S2-034K26,-,31,PS,adaptive,48,←,left,←,0.5379400001838803,True,11,-1,0,3
Y2-S2-034K26,-,32,PS,adaptive,46,↑,up,↑,0.4918724000453949,True,11,-1,0,3
Y2-S2-034K26,-,33,PS,adaptive,32,↓,down,↓,0.7567978000734001,True,11,1,1,4
Y2-S2-034K26,-,34,AS,adaptive,33,→,right,→,0.8783529000356793,True,20,0,0,0
Y2-S2-034K26,-,35,AS,adaptive,26,←,left,←,0.4504017001017928,True,20,0,0,0
Y2-S2-034K26,-,36,AS,adaptive,48,↑,right,→,1.0461389999836683,False,20,-1,0,0
Y2-S2-034K26,-,37,AS,adaptive,46,↓,down,↓,0.6674414000008255,True,21,-1,0,0
Y2-S2-034K26,-,38,AS,adaptive,37,↑,right,→,0.8582461001351476,False,21,-1,0,0
Y2-S2-034K26,-,39,AS,adaptive,44,←,left,←,0.7679772002156824,True,22,-1,0,0
Y2-S2-034K26,-,40,AS,adaptive,46,↓,up,↑,1.0872697001323104,False,22,-1,0,0
Y2-S2-034K26,-,41,AS,adaptive,45,↑,up,↑,0.5674300999380648,True,23,-1,0,0
Y2-S2-034K26,-,42,AS,adaptive,41,←,left,←,0.7432636001612991,True,23,-1,0,0
Y2-S2-034K26,-,43,AS,adaptive,35,↑,up,↑,0.46727959997951984,True,23,1,1,1
Y2-S2-034K26,-,44,AS,adaptive,45,←,left,←,1.662787799956277,True,22,1,0,1
Y2-S2-034K26,-,45,AS,adaptive,48,→,right,→,0.5823797001503408,True,22,1,0,1
Y2-S2-034K26,-,46,AS,adaptive,25,↑,up,↑,0.930419199867174,True,22,1,0,1
Y2-S2-034K26,-,47,AS,adaptive,29,→,right,→,1.2456658000592142,True,21,1,0,1
Y2-S2-034K26,-,48,AS,adaptive,32,↓,left,←,0.9276478998363018,False,21,-1,1,2
Y2-S2-034K26,-,49,AS,adaptive,50,→,right,→,0.6058020000346005,True,22,-1,0,2
Y2-S2-034K26,-,50,AS,adaptive,35,↑,up,↑,0.4339336999692023,True,22,-1,0,2
Y2-S2-034K26,-,51,AS,adaptive,43,→,right,→,0.7375366999767721,True,22,1,1,3
Y2-S2-034K26,-,52,AS,adaptive,36,↓,down,↓,0.8580022000242025,True,21,1,0,3
Y2-S2-034K26,-,53,AS,adaptive,40,←,left,←,0.7494276000652462,True,21,1,0,3
Y2-S2-034K26,-,54,AS,adaptive,32,↓,up,↑,0.904248199891299,False,21,-1,1,4
Y2-S2-034K26,1,55,PS,intra_train,33,↑,right,→,0.7978471999522299,False,15,-,-,-
Y2-S2-034K26,1,56,PS,intra_train,39,↓,down,↓,0.6174850999377668,True,15,-,-,-
Y2-S2-034K26,1,57,PS,intra_train,47,→,right,→,0.5939945999998599,True,15,-,-,-
Y2-S2-034K26,1,58,PS,intra_train,28,↑,down,↓,0.8933447999879718,False,15,-,-,-
Y2-S2-034K26,1,59,PS,intra_train,26,→,left,←,0.7411150999832898,False,15,-,-,-
Y2-S2-034K26,1,60,PS,exp,46,↓,down,↓,0.6152747999876738,True,10,0,0,0
Y2-S2-034K26,1,61,PS,exp,31,←,left,←,0.5391371001023799,True,10,0,0,0
Y2-S2-034K26,1,62,PS,exp,25,→,right,→,0.5888195000588894,True,10,1,0,0
Y2-S2-034K26,1,63,PS,exp,39,←,left,←,0.559857799904421,True,9,1,0,0
Y2-S2-034K26,1,64,PS,exp,32,↑,left,←,0.7873275999445468,False,9,-1,1,1
Y2-S2-034K26,1,65,PS,exp,44,←,left,←,0.4144017999060452,True,10,-1,0,1
Y2-S2-034K26,1,66,PS,exp,40,↓,right,→,0.873306900030002,False,10,-1,0,1
Y2-S2-034K26,1,67,PS,exp,36,←,right,→,0.6774261998943985,False,11,-1,0,1
Y2-S2-034K26,1,68,PS,exp,38,↑,up,↑,0.5410460000857711,True,12,-1,0,1
Y2-S2-034K26,1,69,PS,exp,26,↓,down,↓,0.7870113998651505,True,12,-1,0,1
Y2-S2-034K26,1,70,PS,exp,42,←,left,←,0.4754564000759274,True,12,1,1,2
Y2-S2-034K26,1,71,PS,exp,47,↑,up,↑,0.5277020002249628,True,11,1,0,2
Y2-S2-034K26,1,72,PS,exp,38,↓,down,↓,0.5652189999818802,True,11,1,0,2
Y2-S2-034K26,1,73,PS,exp,46,↑,right,→,0.7827869998291135,False,11,-1,1,3
Y2-S2-034K26,1,74,PS,exp,32,←,left,←,0.45267640007659793,True,12,-1,0,3
Y2-S2-034K26,1,75,PS,exp,34,↑,up,↑,0.43387489998713136,True,12,-1,0,3
Y2-S2-034K26,1,76,PS,exp,36,→,right,→,0.49088569986633956,True,12,1,1,4
Y2-S2-034K26,1,77,PS,exp,38,←,left,←,0.5168379000388086,True,11,1,0,4
Y2-S2-034K26,1,78,PS,exp,28,↑,up,↑,0.4401481000240892,True,11,1,0,4
Y2-S2-034K26,1,79,PS,exp,29,←,left,←,0.8580833000596613,True,11,1,0,4
Y2-S2-034K26,1,80,PS,exp,44,↑,up,↑,0.4077808998990804,True,10,1,0,4
Y2-S2-034K26,1,81,PS,exp,45,→,right,→,0.5412646001204848,True,10,1,0,4
Y2-S2-034K26,1,82,PS,exp,43,↓,left,←,0.6874194000847638,False,10,-1,1,5
Y2-S2-034K26,1,83,PS,exp,48,→,right,→,0.5167288999073207,True,11,-1,0,5
Y2-S2-034K26,1,84,PS,exp,45,↑,up,↑,0.4028169000521302,True,11,-1,0,5
Y2-S2-034K26,1,85,PS,exp,25,←,right,→,0.7579288999550045,False,11,-1,0,5
Y2-S2-034K26,1,86,PS,exp,33,→,right,→,0.4508275000844151,True,12,-1,0,5
Y2-S2-034K26,1,87,PS,exp,35,←,up,↑,0.8669171000365168,False,12,-1,0,5
Y2-S2-034K26,1,88,PS,exp,35,→,right,→,0.6269606000278145,True,13,-1,0,5
Y2-S2-034K26,1,89,PS,exp,30,↓,down,↓,0.6494338000193238,True,13,-1,0,5
Y2-S2-034K26,1,90,PS,exp,47,→,right,→,0.439483700087294,True,13,1,1,6
Y2-S2-034K26,1,91,PS,exp,50,↓,down,↓,0.6601605000905693,True,12,1,0,6
Y2-S2-034K26,1,92,PS,exp,25,←,right,→,0.7434104001149535,False,12,-1,1,7
Y2-S2-034K26,1,93,PS,exp,38,↑,up,↑,0.45743740000762045,True,13,-1,0,7
Y2-S2-034K26,1,94,PS,exp,33,←,left,←,0.4681025999598205,True,13,-1,0,7
Y2-S2-034K26,1,95,PS,exp,47,↑,up,↑,0.48877030005678535,True,13,1,1,8
Y2-S2-034K26,1,96,PS,exp,47,←,left,←,0.7786533001344651,True,12,1,0,8
Y2-S2-034K26,1,97,PS,exp,35,→,right,→,0.4715738999657333,True,12,1,0,8
Y2-S2-034K26,1,98,PS,exp,44,↓,down,↓,0.9232365998905152,True,12,1,0,8
Y2-S2-034K26,1,99,PS,exp,47,←,left,←,0.4726175998803228,True,11,1,0,8
Y2-S2-034K26,1,100,PS,exp,38,↓,down,↓,0.70664620003663,True,11,1,0,8
Y2-S2-034K26,1,101,PS,exp,33,←,left,←,0.4995768000371754,True,11,1,0,8
Y2-S2-034K26,1,102,PS,exp,38,↓,down,↓,0.5874469999689609,True,10,1,0,8
Y2-S2-034K26,1,103,PS,exp,40,→,down,↓,0.7476753999944776,False,10,-1,1,9
Y2-S2-034K26,1,104,PS,exp,48,←,left,←,0.6631242001894861,True,11,-1,0,9
Y2-S2-034K26,1,105,PS,exp,46,↓,down,↓,0.6379430000670254,True,11,-1,0,9
Y2-S2-034K26,1,106,PS,exp,30,↑,up,↑,0.5346782000269741,True,11,1,1,10
Y2-S2-034K26,1,107,PS,exp,43,→,right,→,0.5000677998177707,True,10,1,0,10
Y2-S2-034K26,1,108,PS,exp,42,↓,down,↓,1.7253467999398708,True,10,1,0,10
Y2-S2-034K26,1,109,PS,exp,34,←,left,←,0.5839441001880914,True,10,1,0,10
Y2-S2-034K26,1,110,PS,exp,38,→,right,→,0.6082596001215279,True,9,1,0,10
Y2-S2-034K26,1,111,PS,exp,34,↓,down,↓,0.5760136998724192,True,9,1,0,10
Y2-S2-034K26,1,112,PS,exp,31,←,left,←,0.601853699889034,True,9,1,0,10
Y2-S2-034K26,1,113,PS,exp,47,↓,right,→,0.6244745999574661,False,8,-1,1,11
Y2-S2-034K26,1,114,PS,exp,43,←,right,→,0.5364783001132309,False,9,-1,0,11
Y2-S2-034K26,1,115,PS,exp,45,↓,down,↓,0.6631193000357598,True,10,-1,0,11
Y2-S2-034K26,1,116,PS,exp,44,↑,up,↑,0.5617352998815477,True,10,-1,0,11
Y2-S2-034K26,1,117,PS,exp,50,←,left,←,0.4087646999396384,True,10,1,1,12
Y2-S2-034K26,1,118,PS,exp,39,↑,up,↑,0.4937541999388486,True,9,1,0,12
Y2-S2-034K26,1,119,PS,exp,43,↓,down,↓,0.5407991998363286,True,9,1,0,12
Y2-S2-034K26,1,120,PS,exp,37,→,right,→,0.5577195999212563,True,9,1,0,12
Y2-S2-034K26,1,121,PS,exp,31,↓,left,←,0.704343399964273,False,8,-1,1,13
Y2-S2-034K26,1,122,PS,exp,35,←,right,→,0.8054074998944998,False,9,-1,0,13
Y2-S2-034K26,1,123,PS,exp,39,→,left,←,0.5092793998774141,False,10,-1,0,13
Y2-S2-034K26,1,124,PS,exp,43,↓,down,↓,0.6304031000472605,True,11,-1,0,13
Y2-S2-034K26,1,125,PS,exp,42,→,right,→,0.5411729000043124,True,11,-1,0,13
Y2-S2-034K26,1,126,PS,exp,27,↓,right,→,0.7789778998121619,False,11,-1,0,13
Y2-S2-034K26,1,127,PS,exp,38,←,left,←,0.40260339993983507,True,12,-1,0,13
Y2-S2-034K26,1,128,PS,exp,39,↑,up,↑,0.5543798999860883,True,12,-1,0,13
Y2-S2-034K26,1,129,PS,exp,40,→,right,→,0.39728319994173944,True,12,1,1,14
Y2-S2-034K26,1,130,PS,exp,36,←,left,←,0.677816400071606,True,11,1,0,14
Y2-S2-034K26,1,131,PS,exp,31,→,right,→,0.4467970000114292,True,11,1,0,14
Y2-S2-034K26,1,132,PS,exp,41,↓,down,↓,0.6503842999227345,True,11,1,0,14
Y2-S2-034K26,1,133,PS,exp,40,←,down,↓,0.775097600184381,False,10,-1,1,15
Y2-S2-034K26,1,134,PS,exp,49,→,right,→,0.6398151000030339,True,11,-1,0,15
Y2-S2-034K26,1,135,PS,exp,35,↑,left,←,0.6848188999574631,False,11,-1,0,15
Y2-S2-034K26,1,136,PS,exp,44,→,right,→,0.5670578998979181,True,12,-1,0,15
Y2-S2-034K26,1,137,PS,exp,36,↑,up,↑,0.4222524000797421,True,12,-1,0,15
Y2-S2-034K26,1,138,PS,exp,34,→,up,↑,0.7683111000806093,False,12,-1,0,15
Y2-S2-034K26,1,139,PS,exp,30,↓,down,↓,0.5573088000528514,True,13,-1,0,15
Y2-S2-034K26,1,140,PS,exp,31,↑,right,→,0.6069519000593573,False,13,-1,0,15
Y2-S2-034K26,1,141,PS,exp,45,↓,right,→,0.5615588999353349,False,14,-1,0,15
Y2-S2-034K26,1,142,PS,exp,28,←,left,←,0.7606982998549938,True,15,-1,0,15
Y2-S2-034K26,1,143,PS,exp,50,→,right,→,0.4875928000546992,True,15,-1,0,15
Y2-S2-034K26,1,144,PS,exp,46,←,right,→,0.9397191999014467,False,15,-1,0,15
Y2-S2-034K26,1,145,PS,exp,33,↓,down,↓,0.6254881001077592,True,16,-1,0,15
Y2-S2-034K26,1,146,PS,exp,26,↑,up,↑,0.6464511000085622,True,16,-1,0,15
Y2-S2-034K26,1,147,PS,exp,29,↓,down,↓,0.5337638000492007,True,16,1,1,16
Y2-S2-034K26,2,148,AS,intra_train,43,→,right,→,0.667252599960193,True,33,-,-,-
Y2-S2-034K26,2,149,AS,intra_train,33,↑,up,↑,0.7355446999426931,True,33,-,-,-
Y2-S2-034K26,2,150,AS,intra_train,40,←,left,←,0.8706225999630988,True,33,-,-,-
Y2-S2-034K26,2,151,AS,intra_train,26,↑,up,↑,0.728826800128445,True,33,-,-,-
Y2-S2-034K26,2,152,AS,intra_train,50,→,right,→,0.7946393999736756,True,33,-,-,-
Y2-S2-034K26,2,153,AS,exp,50,←,left,←,0.46742050000466406,True,22,0,0,0
Y2-S2-034K26,2,154,AS,exp,35,→,right,→,0.8506315001286566,True,22,0,0,0
Y2-S2-034K26,2,155,AS,exp,30,↓,down,↓,0.6985633000731468,True,22,1,0,0
Y2-S2-034K26,2,156,AS,exp,30,←,left,←,0.5348809000570327,True,21,1,0,0
Y2-S2-034K26,2,157,AS,exp,45,↑,up,↑,0.48406209982931614,True,21,1,0,0
Y2-S2-034K26,2,158,AS,exp,45,←,right,→,0.8273773000109941,False,21,-1,1,1
Y2-S2-034K26,2,159,AS,exp,30,↓,down,↓,0.798344099894166,True,22,-1,0,1
Y2-S2-034K26,2,160,AS,exp,46,←,left,←,0.8626074001658708,True,22,-1,0,1
Y2-S2-034K26,2,161,AS,exp,49,↓,down,↓,0.7637012000195682,True,22,1,1,2
Y2-S2-034K26,2,162,AS,exp,38,→,right,→,0.7105731000192463,True,21,1,0,2
Y2-S2-034K26,2,163,AS,exp,40,↑,up,↑,1.5306100000161678,True,21,1,0,2
Y2-S2-034K26,2,164,AS,exp,37,→,right,→,0.5704137999564409,True,21,1,0,2
Y2-S2-034K26,2,165,AS,exp,32,←,left,←,0.5872503998689353,True,20,1,0,2
Y2-S2-034K26,2,166,AS,exp,50,→,right,→,0.8049806000199169,True,20,1,0,2
Y2-S2-034K26,2,167,AS,exp,33,↓,down,↓,0.9105636000167578,True,20,1,0,2
Y2-S2-034K26,2,168,AS,exp,37,←,left,←,0.5227379999123514,True,19,1,0,2
Y2-S2-034K26,2,169,AS,exp,29,↓,down,↓,0.6101415997836739,True,19,1,0,2
Y2-S2-034K26,2,170,AS,exp,34,↑,up,↑,1.0148085998371243,True,19,1,0,2
Y2-S2-034K26,2,171,AS,exp,45,→,right,→,0.5388788999989629,True,18,1,0,2
Y2-S2-034K26,2,172,AS,exp,31,↑,left,←,1.1181544999126345,False,18,-1,1,3
Y2-S2-034K26,2,173,AS,exp,41,→,right,→,0.9452937000896782,True,19,-1,0,3
Y2-S2-034K26,2,174,AS,exp,26,↑,left,←,1.0009577998425812,False,19,-1,0,3
Y2-S2-034K26,2,175,AS,exp,29,→,right,→,0.6271569000091404,True,20,-1,0,3
Y2-S2-034K26,2,176,AS,exp,37,↓,left,←,0.9194157999008894,False,20,-1,0,3
Y2-S2-034K26,2,177,AS,exp,30,↑,up,↑,0.6567953999619931,True,21,-1,0,3
Y2-S2-034K26,2,178,AS,exp,44,↓,down,↓,0.7567033998202533,True,21,-1,0,3
Y2-S2-034K26,2,179,AS,exp,34,↑,up,↑,0.6979974999558181,True,21,1,1,4
Y2-S2-034K26,2,180,AS,exp,34,→,right,→,0.6234135001432151,True,20,1,0,4
Y2-S2-034K26,2,181,AS,exp,35,←,left,←,0.9266394998412579,True,20,1,0,4
Y2-S2-034K26,2,182,AS,exp,33,→,right,→,0.6928461999632418,True,20,1,0,4
Y2-S2-034K26,2,183,AS,exp,32,↑,up,↑,0.7026416999287903,True,19,1,0,4
Y2-S2-034K26,2,184,AS,exp,33,←,left,←,0.48467410006560385,True,19,1,0,4
Y2-S2-034K26,2,185,AS,exp,47,→,right,→,1.8284857000689954,True,19,1,0,4
Y2-S2-034K26,2,186,AS,exp,30,←,left,←,0.4932467001490295,True,18,1,0,4
Y2-S2-034K26,2,187,AS,exp,26,→,right,→,0.5134276000317186,True,18,1,0,4
Y2-S2-034K26,2,188,AS,exp,32,↓,left,←,0.88630779995583,False,18,-1,1,5
Y2-S2-034K26,2,189,AS,exp,25,←,left,←,0.43381819990463555,True,19,-1,0,5
Y2-S2-034K26,2,190,AS,exp,44,↑,up,↑,1.3790467998478562,True,19,-1,0,5
Y2-S2-034K26,2,191,AS,exp,33,←,right,→,0.6551322001032531,False,19,-1,0,5
Y2-S2-034K26,2,192,AS,exp,30,↓,left,←,0.9689564001746476,False,20,-1,0,5
Y2-S2-034K26,2,193,AS,exp,50,→,right,→,0.6261489999014884,True,21,-1,0,5
Y2-S2-034K26,2,194,AS,exp,32,↑,up,↑,0.48407919984310865,True,21,-1,0,5
Y2-S2-034K26,2,195,AS,exp,27,↓,down,↓,0.6419994998723269,True,21,1,1,6
Y2-S2-034K26,2,196,AS,exp,40,→,right,→,0.8615534000564367,True,20,1,0,6
Y2-S2-034K26,2,197,AS,exp,48,↑,up,↑,0.4337215998675674,True,20,1,0,6
Y2-S2-034K26,2,198,AS,exp,39,←,left,←,0.5215181999374181,True,20,1,0,6
Y2-S2-034K26,2,199,AS,exp,50,→,right,→,0.5214282998349518,True,19,1,0,6
Y2-S2-034K26,2,200,AS,exp,39,←,left,←,0.5149582999292761,True,19,1,0,6
Y2-S2-034K26,2,201,AS,exp,37,↓,down,↓,1.1112752000335604,True,19,1,0,6
Y2-S2-034K26,2,202,AS,exp,35,→,right,→,0.669485199963674,True,18,1,0,6
Y2-S2-034K26,2,203,AS,exp,43,←,right,→,0.8180018998682499,False,18,-1,1,7
Y2-S2-034K26,2,204,AS,exp,28,→,left,←,0.6681522000581026,False,19,-1,0,7
Y2-S2-034K26,2,205,AS,exp,25,↑,up,↑,0.6583712000865489,True,20,-1,0,7
Y2-S2-034K26,2,206,AS,exp,29,→,right,→,0.5917224001605064,True,20,-1,0,7
Y2-S2-034K26,2,207,AS,exp,50,↑,up,↑,0.46732699987478554,True,20,1,1,8
Y2-S2-034K26,2,208,AS,exp,46,←,right,→,0.929028999991715,False,19,-1,1,9
Y2-S2-034K26,2,209,AS,exp,37,↓,down,↓,0.6347668999806046,True,20,-1,0,9
Y2-S2-034K26,2,210,AS,exp,45,↑,up,↑,0.8588058999739587,True,20,-1,0,9
Y2-S2-034K26,2,211,AS,exp,50,→,right,→,1.331658599898219,True,20,1,1,10
Y2-S2-034K26,2,212,AS,exp,50,↑,up,↑,0.45097079989500344,True,19,1,0,10
Y2-S2-034K26,2,213,AS,exp,36,←,left,←,0.8110111998394132,True,19,1,0,10
Y2-S2-034K26,2,214,AS,exp,44,↑,up,↑,0.7571884000208229,True,19,1,0,10
Y2-S2-034K26,2,215,AS,exp,44,←,left,←,0.599497799994424,True,18,1,0,10
Y2-S2-034K26,2,216,AS,exp,45,↑,up,↑,0.43402280006557703,True,18,1,0,10
Y2-S2-034K26,2,217,AS,exp,33,←,left,←,0.820860099978745,True,18,1,0,10
Y2-S2-034K26,2,218,AS,exp,31,↓,up,↑,0.8475587000139058,False,17,-1,1,11
Y2-S2-034K26,2,219,AS,exp,32,↑,up,↑,0.47888600011356175,True,18,-1,0,11
Y2-S2-034K26,2,220,AS,exp,38,→,right,→,0.48666359996423125,True,18,-1,0,11
Y2-S2-034K26,2,221,AS,exp,42,↓,down,↓,0.7142139000352472,True,18,1,1,12
Y2-S2-034K26,2,222,AS,exp,43,→,right,→,0.640705400146544,True,17,1,0,12
Y2-S2-034K26,2,223,AS,exp,33,↑,up,↑,1.844429099932313,True,17,1,0,12
Y2-S2-034K26,2,224,AS,exp,27,←,left,←,1.041981799993664,True,17,1,0,12
Y2-S2-034K26,2,225,AS,exp,25,↑,up,↑,0.859574600122869,True,16,1,0,12
Y2-S2-034K26,2,226,AS,exp,29,↓,down,↓,0.6302440001163632,True,16,1,0,12
Y2-S2-034K26,2,227,AS,exp,44,↑,up,↑,1.2281577999237925,True,16,1,0,12
Y2-S2-034K26,2,228,AS,exp,41,↓,up,↑,0.8961620000191033,False,15,-1,1,13
Y2-S2-034K26,2,229,AS,exp,27,↑,up,↑,0.7066809998359531,True,16,-1,0,13
Y2-S2-034K26,2,230,AS,exp,45,←,left,←,0.5473603999707848,True,16,-1,0,13
Y2-S2-034K26,2,231,AS,exp,38,↓,left,←,0.9205392999574542,False,16,-1,0,13
Y2-S2-034K26,2,232,AS,exp,31,←,left,←,0.5958470001351088,True,17,-1,0,13
Y2-S2-034K26,2,233,AS,exp,30,↑,down,↓,0.8032022998668253,False,17,-1,0,13
Y2-S2-034K26,2,234,AS,exp,30,→,right,→,0.7316844000015408,True,18,-1,0,13
Y2-S2-034K26,2,235,AS,exp,27,↓,down,↓,0.6083257999271154,True,18,-1,0,13
Y2-S2-034K26,2,236,AS,exp,29,↑,up,↑,0.7562901999335736,True,18,1,1,14
Y2-S2-034K26,2,237,AS,exp,29,↓,down,↓,0.6442505000159144,True,17,1,0,14
Y2-S2-034K26,2,238,AS,exp,27,↑,down,↓,0.822694499976933,False,17,-1,1,15
Y2-S2-034K26,2,239,AS,exp,27,←,left,←,0.5108173000626266,True,18,-1,0,15
Y2-S2-034K26,2,240,AS,exp,43,↑,right,→,0.9703603000380099,False,18,-1,0,15
Y2-S2-034K26,2,241,AS,exp,43,→,left,←,1.022271300200373,False,19,-1,0,15
Y2-S2-034K26,2,242,AS,exp,33,↓,left,←,0.8002947999630123,False,20,-1,0,15
Y2-S2-034K26,2,243,AS,exp,30,↑,up,↑,0.5366851000580937,True,21,-1,0,15
Y2-S2-034K26,2,244,AS,exp,45,↓,down,↓,0.6932194998953491,True,21,-1,0,15
Y2-S2-034K26,2,245,AS,exp,48,↑,up,↑,0.5325350998900831,True,21,1,1,16
Y2-S2-034K26,3,246,AS,intra_train,42,→,right,→,1.6563245998695493,True,33,-,-,-
Y2-S2-034K26,3,247,AS,intra_train,34,←,left,←,0.934495200170204,True,33,-,-,-
Y2-S2-034K26,3,248,AS,intra_train,31,↓,down,↓,0.8562750997953117,True,33,-,-,-
Y2-S2-034K26,3,249,AS,intra_train,28,↑,up,↑,0.7976045999675989,True,33,-,-,-
Y2-S2-034K26,3,250,AS,intra_train,27,→,right,→,0.5338262000586838,True,33,-,-,-
Y2-S2-034K26,3,251,AS,exp,29,↓,down,↓,0.8716541999019682,True,22,0,0,0
Y2-S2-034K26,3,252,AS,exp,30,←,left,←,0.6490601000841707,True,22,0,0,0
Y2-S2-034K26,3,253,AS,exp,41,↑,right,→,0.5008944999426603,False,22,-1,0,0
Y2-S2-034K26,3,254,AS,exp,30,→,right,→,0.6318515001330525,True,23,-1,0,0
Y2-S2-034K26,3,255,AS,exp,46,↑,left,←,0.5583905000239611,False,23,-1,0,0
Y2-S2-034K26,3,256,AS,exp,50,↓,down,↓,0.8640833001118153,True,24,-1,0,0
Y2-S2-034K26,3,257,AS,exp,40,→,right,→,1.3656873998697847,True,24,-1,0,0
Y2-S2-034K26,3,258,AS,exp,42,↓,down,↓,0.594392100116238,True,24,1,1,1
Y2-S2-034K26,3,259,AS,exp,46,←,left,←,0.5787684998940676,True,23,1,0,1
Y2-S2-034K26,3,260,AS,exp,31,↑,up,↑,0.8867642998229712,True,23,1,0,1
Y2-S2-034K26,3,261,AS,exp,45,↓,down,↓,0.903593999799341,True,23,1,0,1
Y2-S2-034K26,3,262,AS,exp,44,←,right,→,1.0836692999582738,False,22,-1,1,2
Y2-S2-034K26,3,263,AS,exp,35,↓,left,←,1.193296399898827,False,23,-1,0,2
Y2-S2-034K26,3,264,AS,exp,49,↑,up,↑,0.44976250012405217,True,24,-1,0,2
Y2-S2-034K26,3,265,AS,exp,41,←,left,←,0.8246461998205632,True,24,-1,0,2
Y2-S2-034K26,3,266,AS,exp,27,→,right,→,0.6222141999751329,True,24,1,1,3
Y2-S2-034K26,3,267,AS,exp,28,↑,up,↑,0.6478095999918878,True,23,1,0,3
Y2-S2-034K26,3,268,AS,exp,42,→,right,→,0.6023808000609279,True,23,1,0,3
Y2-S2-034K26,3,269,AS,exp,42,↓,down,↓,0.9054246000014246,True,23,1,0,3
Y2-S2-034K26,3,270,AS,exp,39,→,right,→,0.6389929999131709,True,22,1,0,3
Y2-S2-034K26,3,271,AS,exp,44,↓,down,↓,0.6884924001060426,True,22,1,0,3
Y2-S2-034K26,3,272,AS,exp,49,↑,up,↑,0.6519837998785079,True,22,1,0,3
Y2-S2-034K26,3,273,AS,exp,50,←,right,→,0.5523685000371188,False,21,-1,1,4
Y2-S2-034K26,3,274,AS,exp,49,↑,up,↑,0.4838914000429213,True,22,-1,0,4
Y2-S2-034K26,3,275,AS,exp,25,←,left,←,0.6617136001586914,True,22,-1,0,4
Y2-S2-034K26,3,276,AS,exp,29,↓,right,→,0.9268223000690341,False,22,-1,0,4
Y2-S2-034K26,3,277,AS,exp,43,↑,up,↑,1.0021593000274152,True,23,-1,0,4
Y2-S2-034K26,3,278,AS,exp,33,←,left,←,0.5172031000256538,True,23,-1,0,4
Y2-S2-034K26,3,279,AS,exp,29,↑,up,↑,0.46725629991851747,True,23,1,1,5
Y2-S2-034K26,3,280,AS,exp,31,→,right,→,0.7863127000164241,True,22,1,0,5
Y2-S2-034K26,3,281,AS,exp,31,↓,down,↓,0.8569432999938726,True,22,1,0,5
Y2-S2-034K26,3,282,AS,exp,32,←,left,←,0.6992105999961495,True,22,1,0,5
Y2-S2-034K26,3,283,AS,exp,43,↓,down,↓,0.8439142999704927,True,21,1,0,5
Y2-S2-034K26,3,284,AS,exp,39,←,left,←,0.417509000049904,True,21,1,0,5
Y2-S2-034K26,3,285,AS,exp,37,↑,up,↑,0.7263187998905778,True,21,1,0,5
Y2-S2-034K26,3,286,AS,exp,39,←,left,←,0.46754040010273457,True,20,1,0,5
Y2-S2-034K26,3,287,AS,exp,43,↑,left,←,1.1713865001220256,False,20,-1,1,6
Y2-S2-034K26,3,288,AS,exp,37,↓,down,↓,0.6130518999416381,True,21,-1,0,6
Y2-S2-034K26,3,289,AS,exp,50,→,right,→,0.5707920000422746,True,21,-1,0,6
Y2-S2-034K26,3,290,AS,exp,44,←,left,←,0.4504293999634683,True,21,1,1,7
Y2-S2-034K26,3,291,AS,exp,41,→,right,→,1.4877386998850852,True,20,1,0,7
Y2-S2-034K26,3,292,AS,exp,26,↓,down,↓,0.5803579001221806,True,20,1,0,7
Y2-S2-034K26,3,293,AS,exp,45,←,left,←,0.4009387001860887,True,20,1,0,7
Y2-S2-034K26,3,294,AS,exp,28,↓,down,↓,0.6016838999930769,True,19,1,0,7
Y2-S2-034K26,3,295,AS,exp,37,↑,up,↑,0.49001009995117784,True,19,1,0,7
Y2-S2-034K26,3,296,AS,exp,29,←,left,←,0.5417412000242621,True,19,1,0,7
Y2-S2-034K26,3,297,AS,exp,28,→,right,→,0.7633907999843359,True,18,1,0,7
Y2-S2-034K26,3,298,AS,exp,27,↑,up,↑,1.1637390998657793,True,18,1,0,7
Y2-S2-034K26,3,299,AS,exp,43,→,right,→,0.5443929000757635,True,18,1,0,7
Y2-S2-034K26,3,300,AS,exp,39,↓,down,↓,0.6818989999592304,True,17,1,0,7
Y2-S2-034K26,3,301,AS,exp,34,←,left,←,0.6457509000319988,True,17,1,0,7
Y2-S2-034K26,3,302,AS,exp,36,↑,up,↑,0.7958835999015719,True,17,1,0,7
Y2-S2-034K26,3,303,AS,exp,35,→,right,→,0.5963836000300944,True,16,1,0,7
Y2-S2-034K26,3,304,AS,exp,26,↑,up,↑,0.6019011000171304,True,16,1,0,7
Y2-S2-034K26,3,305,AS,exp,26,←,down,↓,1.0889140998478979,False,16,-1,1,8
Y2-S2-034K26,3,306,AS,exp,26,→,right,→,0.4807400000281632,True,17,-1,0,8
Y2-S2-034K26,3,307,AS,exp,46,←,left,←,0.8703002999536693,True,17,-1,0,8
Y2-S2-034K26,3,308,AS,exp,31,↓,down,↓,0.6484167000744492,True,17,1,1,9
Y2-S2-034K26,3,309,AS,exp,49,→,left,←,0.8313807998783886,False,16,-1,1,10
Y2-S2-034K26,3,310,AS,exp,33,↑,up,↑,0.5790727999992669,True,17,-1,0,10
Y2-S2-034K26,3,311,AS,exp,28,→,right,→,0.5147929000668228,True,17,-1,0,10
Y2-S2-034K26,3,312,AS,exp,32,←,left,←,0.46360619994811714,True,17,1,1,11
Y2-S2-034K26,3,313,AS,exp,47,↓,up,↑,0.839843399822712,False,16,-1,1,12
Y2-S2-034K26,3,314,AS,exp,33,→,right,→,0.618979400023818,True,17,-1,0,12
Y2-S2-034K26,3,315,AS,exp,34,↓,right,→,1.1202229999471456,False,17,-1,0,12
Y2-S2-034K26,3,316,AS,exp,32,←,right,→,0.6924526998773217,False,18,-1,0,12
Y2-S2-034K26,3,317,AS,exp,49,↑,up,↑,0.9678692000452429,True,19,-1,0,12
Y2-S2-034K26,3,318,AS,exp,45,↓,down,↓,0.6152039999142289,True,19,-1,0,12
Y2-S2-034K26,3,319,AS,exp,35,↑,up,↑,0.5016731999348849,True,19,1,1,13
Y2-S2-034K26,3,320,AS,exp,50,↓,down,↓,0.6706797000952065,True,18,1,0,13
Y2-S2-034K26,3,321,AS,exp,30,↑,up,↑,0.4005895999725908,True,18,1,0,13
Y2-S2-034K26,3,322,AS,exp,31,←,right,→,0.8228909000754356,False,18,-1,1,14
Y2-S2-034K26,3,323,AS,exp,47,↑,up,↑,0.6244551001582295,True,19,-1,0,14
Y2-S2-034K26,3,324,AS,exp,36,→,right,→,0.49745580018498003,True,19,-1,0,14
Y2-S2-034K26,3,325,AS,exp,31,↓,down,↓,0.9370420000050217,True,19,1,1,15
Y2-S2-034K26,3,326,AS,exp,38,↑,up,↑,0.40077589987777174,True,18,1,0,15
Y2-S2-034K26,3,327,AS,exp,29,→,right,→,1.390525900060311,True,18,1,0,15
Y2-S2-034K26,3,328,AS,exp,41,↓,down,↓,0.7839047000743449,True,18,1,0,15
Y2-S2-034K26,3,329,AS,exp,46,←,left,←,0.5081183000002056,True,17,1,0,15
Y2-S2-034K26,3,330,AS,exp,45,↓,down,↓,0.5813725001644343,True,17,1,0,15
Y2-S2-034K26,3,331,AS,exp,37,←,left,←,0.6332493999507278,True,17,1,0,15
Y2-S2-034K26,3,332,AS,exp,29,↑,left,←,0.766018700087443,False,16,-1,1,16
Y2-S2-034K26,4,333,PS,intra_train,28,↓,right,→,0.6542470999993384,False,15,-,-,-
Y2-S2-034K26,4,334,PS,intra_train,49,↑,up,↑,0.48996279994025826,True,15,-,-,-
Y2-S2-034K26,4,335,PS,intra_train,27,↓,left,←,0.7689761999063194,False,15,-,-,-
Y2-S2-034K26,4,336,PS,intra_train,27,→,right,→,0.9667493999004364,True,15,-,-,-
Y2-S2-034K26,4,337,PS,intra_train,37,↑,up,↑,0.5786346001550555,True,15,-,-,-
Y2-S2-034K26,4,338,PS,exp,29,↓,left,←,0.6769971000030637,False,10,-1,0,0
Y2-S2-034K26,4,339,PS,exp,39,→,left,←,0.710232799872756,False,11,-1,0,0
Y2-S2-034K26,4,340,PS,exp,50,←,left,←,0.5024743000976741,True,12,-1,0,0
Y2-S2-034K26,4,341,PS,exp,50,↑,right,→,0.8620953999925405,False,12,-1,0,0
Y2-S2-034K26,4,342,PS,exp,43,→,right,→,0.9077901002019644,True,13,-1,0,0
Y2-S2-034K26,4,343,PS,exp,32,↓,left,←,0.7863335001748055,False,13,-1,0,0
Y2-S2-034K26,4,344,PS,exp,50,↑,up,↑,0.5091244999784976,True,14,-1,0,0
Y2-S2-034K26,4,345,PS,exp,34,←,left,←,0.9992598998360336,True,14,-1,0,0
Y2-S2-034K26,4,346,PS,exp,25,→,right,→,1.0179879998322576,True,14,1,1,1
Y2-S2-034K26,4,347,PS,exp,46,←,left,←,0.5228096998762339,True,13,1,0,1
Y2-S2-034K26,4,348,PS,exp,43,↑,right,→,0.6671020002104342,False,13,-1,1,2
Y2-S2-034K26,4,349,PS,exp,41,←,left,←,0.4696952998638153,True,14,-1,0,2
Y2-S2-034K26,4,350,PS,exp,41,↑,up,↑,0.5149118998087943,True,14,-1,0,2
Y2-S2-034K26,4,351,PS,exp,34,↓,down,↓,0.6843034999910742,True,14,1,1,3
Y2-S2-034K26,4,352,PS,exp,36,←,left,←,0.4874021001160145,True,13,1,0,3
Y2-S2-034K26,4,353,PS,exp,28,→,right,→,0.5619122001808137,True,13,1,0,3
Y2-S2-034K26,4,354,PS,exp,30,←,down,↓,0.8271365000400692,False,13,-1,1,4
Y2-S2-034K26,4,355,PS,exp,42,→,right,→,0.5222474001348019,True,14,-1,0,4
Y2-S2-034K26,4,356,PS,exp,29,←,left,←,0.5006126998923719,True,14,-1,0,4
Y2-S2-034K26,4,357,PS,exp,39,↑,up,↑,0.5645653998944908,True,14,1,1,5
Y2-S2-034K26,4,358,PS,exp,30,←,left,←,0.41201790003106,True,13,1,0,5
Y2-S2-034K26,4,359,PS,exp,28,↓,down,↓,0.7739039999432862,True,13,1,0,5
Y2-S2-034K26,4,360,PS,exp,25,↑,down,↓,0.7535651000216603,False,13,-1,1,6
Y2-S2-034K26,4,361,PS,exp,42,→,left,←,0.722358200000599,False,14,-1,0,6
Y2-S2-034K26,4,362,PS,exp,40,↓,down,↓,0.9369866999331862,True,15,-1,0,6
Y2-S2-034K26,4,363,PS,exp,44,→,right,→,0.7031040000729263,True,15,-1,0,6
Y2-S2-034K26,4,364,PS,exp,45,↓,down,↓,0.6245316998101771,True,15,1,1,7
Y2-S2-034K26,4,365,PS,exp,36,→,right,→,0.549283399945125,True,14,1,0,7
Y2-S2-034K26,4,366,PS,exp,43,↓,left,←,0.844274900155142,False,14,-1,1,8
Y2-S2-034K26,4,367,PS,exp,42,←,left,←,0.6286413001362234,True,15,-1,0,8
Y2-S2-034K26,4,368,PS,exp,28,↑,up,↑,0.5121751001570374,True,15,-1,0,8
Y2-S2-034K26,4,369,PS,exp,36,↓,down,↓,0.7212203000672162,True,15,1,1,9
Y2-S2-034K26,4,370,PS,exp,34,→,right,→,0.5929616999346763,True,14,1,0,9
Y2-S2-034K26,4,371,PS,exp,49,←,left,←,0.49754350003786385,True,14,1,0,9
Y2-S2-034K26,4,372,PS,exp,36,↑,up,↑,0.4382179998792708,True,14,1,0,9
Y2-S2-034K26,4,373,PS,exp,39,→,right,→,0.8146448999177665,True,13,1,0,9
Y2-S2-034K26,4,374,PS,exp,46,↑,up,↑,0.4111508000642061,True,13,1,0,9
Y2-S2-034K26,4,375,PS,exp,37,→,right,→,0.4711856998037547,True,13,1,0,9
Y2-S2-034K26,4,376,PS,exp,31,←,left,←,0.5041918000206351,True,12,1,0,9
Y2-S2-034K26,4,377,PS,exp,32,↑,up,↑,0.4125423999503255,True,12,1,0,9
Y2-S2-034K26,4,378,PS,exp,47,→,right,→,0.434724000049755,True,12,1,0,9
Y2-S2-034K26,4,379,PS,exp,38,↑,up,↑,0.4067057999782264,True,11,1,0,9
Y2-S2-034K26,4,380,PS,exp,39,←,right,→,0.7802323999349028,False,11,-1,1,10
Y2-S2-034K26,4,381,PS,exp,35,→,left,←,0.8892820000182837,False,12,-1,0,10
Y2-S2-034K26,4,382,PS,exp,48,↓,down,↓,0.7039664001204073,True,13,-1,0,10
Y2-S2-034K26,4,383,PS,exp,33,←,left,←,0.4703357999678701,True,13,-1,0,10
Y2-S2-034K26,4,384,PS,exp,28,→,right,→,0.47216969984583557,True,13,1,1,11
Y2-S2-034K26,4,385,PS,exp,43,↑,up,↑,0.5320458998903632,True,12,1,0,11
Y2-S2-034K26,4,386,PS,exp,40,↓,down,↓,0.6476195000577718,True,12,1,0,11
Y2-S2-034K26,4,387,PS,exp,47,→,right,→,0.4847898001316935,True,12,1,0,11
Y2-S2-034K26,4,388,PS,exp,50,←,left,←,0.5331804000306875,True,11,1,0,11
Y2-S2-034K26,4,389,PS,exp,46,↓,down,↓,0.61411719978787,True,11,1,0,11
Y2-S2-034K26,4,390,PS,exp,49,→,right,→,0.9495909998659045,True,11,1,0,11
Y2-S2-034K26,4,391,PS,exp,26,↓,down,↓,0.6938865000847727,True,10,1,0,11
Y2-S2-034K26,4,392,PS,exp,44,↑,right,→,0.6566278000827879,False,10,-1,1,12
Y2-S2-034K26,4,393,PS,exp,43,←,left,←,0.5780700999312103,True,11,-1,0,12
Y2-S2-034K26,4,394,PS,exp,31,→,right,→,0.5733281001448631,True,11,-1,0,12
Y2-S2-034K26,4,395,PS,exp,46,↑,up,↑,0.43206509994342923,True,11,1,1,13
Y2-S2-034K26,4,396,PS,exp,48,↓,down,↓,0.6378697000909597,True,10,1,0,13
Y2-S2-034K26,4,397,PS,exp,39,→,down,↓,0.6668836998287588,False,10,-1,1,14
Y2-S2-034K26,4,398,PS,exp,47,←,left,←,0.5173939999658614,True,11,-1,0,14
Y2-S2-034K26,4,399,PS,exp,31,↑,up,↑,0.5461027999408543,True,11,-1,0,14
Y2-S2-034K26,4,400,PS,exp,40,↓,down,↓,0.6109356000088155,True,11,1,1,15
Y2-S2-034K26,4,401,PS,exp,29,→,right,→,0.618460799800232,True,10,1,0,15
Y2-S2-034K26,4,402,PS,exp,45,↓,down,↓,0.6033631998579949,True,10,1,0,15
Y2-S2-034K26,4,403,PS,exp,35,←,left,←,0.6586380999069661,True,10,1,0,15
Y2-S2-034K26,4,404,PS,exp,49,→,right,→,0.48973529995419085,True,9,1,0,15
Y2-S2-034K26,4,405,PS,exp,42,↓,left,←,0.867948800092563,False,9,-1,1,16
Y2-S2-034K26,5,406,PS,intra_train,50,↑,up,↑,0.5296932000201195,True,15,-,-,-
Y2-S2-034K26,5,407,PS,intra_train,30,→,right,→,0.566393000073731,True,15,-,-,-
Y2-S2-034K26,5,408,PS,intra_train,43,↑,up,↑,0.5013770998921245,True,15,-,-,-
Y2-S2-034K26,5,409,PS,intra_train,34,←,left,←,0.5117832000833005,True,15,-,-,-
Y2-S2-034K26,5,410,PS,intra_train,27,↑,up,↑,0.42231310019269586,True,15,-,-,-
Y2-S2-034K26,5,411,PS,exp,30,←,left,←,0.4694797000847757,True,10,0,0,0
Y2-S2-034K26,5,412,PS,exp,30,→,right,→,0.530580900143832,True,10,0,0,0
Y2-S2-034K26,5,413,PS,exp,45,←,right,→,0.7620157001074404,False,10,-1,0,0
Y2-S2-034K26,5,414,PS,exp,41,↓,down,↓,0.6547578999307007,True,11,-1,0,0
Y2-S2-034K26,5,415,PS,exp,42,↑,up,↑,0.45879400009289384,True,11,-1,0,0
Y2-S2-034K26,5,416,PS,exp,37,→,right,→,0.5545463000889868,True,11,1,1,1
Y2-S2-034K26,5,417,PS,exp,30,↑,right,→,0.839862700086087,False,10,-1,1,2
Y2-S2-034K26,5,418,PS,exp,34,↓,left,←,0.8425602000206709,False,11,-1,0,2
Y2-S2-034K26,5,419,PS,exp,28,↑,left,←,0.9305080000776798,False,12,-1,0,2
Y2-S2-034K26,5,420,PS,exp,33,↓,down,↓,0.5996567998081446,True,13,-1,0,2
Y2-S2-034K26,5,421,PS,exp,26,←,left,←,0.5393905001692474,True,13,-1,0,2
Y2-S2-034K26,5,422,PS,exp,25,→,right,→,0.5267076001036912,True,13,1,1,3
Y2-S2-034K26,5,423,PS,exp,48,↓,down,↓,0.5491415997967124,True,12,1,0,3
Y2-S2-034K26,5,424,PS,exp,36,↑,up,↑,0.42116149980574846,True,12,1,0,3
Y2-S2-034K26,5,425,PS,exp,50,←,left,←,0.4602085000369698,True,12,1,0,3
Y2-S2-034K26,5,426,PS,exp,38,↑,up,↑,0.9001241999212652,True,11,1,0,3
Y2-S2-034K26,5,427,PS,exp,33,←,left,←,0.48104969994165003,True,11,1,0,3
Y2-S2-034K26,5,428,PS,exp,27,↑,up,↑,0.6691061998717487,True,11,1,0,3
Y2-S2-034K26,5,429,PS,exp,27,↓,down,↓,1.0610434000845999,True,10,1,0,3
Y2-S2-034K26,5,430,PS,exp,28,→,right,→,0.5651533999480307,True,10,1,0,3
Y2-S2-034K26,5,431,PS,exp,50,←,left,←,0.48915559984743595,True,10,1,0,3
Y2-S2-034K26,5,432,PS,exp,40,↑,up,↑,0.45153959980234504,True,9,1,0,3
Y2-S2-034K26,5,433,PS,exp,33,↓,down,↓,0.7509006999898702,True,9,1,0,3
Y2-S2-034K26,5,434,PS,exp,38,←,right,→,0.8646762000862509,False,9,-1,1,4
Y2-S2-034K26,5,435,PS,exp,43,↑,down,↓,0.9322909000329673,False,10,-1,0,4
Y2-S2-034K26,5,436,PS,exp,33,→,right,→,0.6305556998122483,True,11,-1,0,4
Y2-S2-034K26,5,437,PS,exp,50,↑,up,↑,0.5661222001072019,True,11,-1,0,4
Y2-S2-034K26,5,438,PS,exp,34,←,left,←,0.48250809987075627,True,11,1,1,5
Y2-S2-034K26,5,439,PS,exp,43,↑,up,↑,0.4025518000125885,True,10,1,0,5
Y2-S2-034K26,5,440,PS,exp,29,↓,down,↓,0.6937674002256244,True,10,1,0,5
Y2-S2-034K26,5,441,PS,exp,48,↑,up,↑,0.575118700042367,True,10,1,0,5
Y2-S2-034K26,5,442,PS,exp,29,→,right,→,0.9656296998728067,True,9,1,0,5
Y2-S2-034K26,5,443,PS,exp,31,←,left,←,0.82832260010764,True,9,1,0,5
Y2-S2-034K26,5,444,PS,exp,27,↑,left,←,0.7259561999235302,False,9,-1,1,6
Y2-S2-034K26,5,445,PS,exp,36,→,left,←,0.6132166997995228,False,10,-1,0,6
Y2-S2-034K26,5,446,PS,exp,49,←,left,←,0.46384750003926456,True,11,-1,0,6
Y2-S2-034K26,5,447,PS,exp,30,↓,down,↓,0.6473746998235583,True,11,-1,0,6
Y2-S2-034K26,5,448,PS,exp,40,↑,up,↑,0.47848019981756806,True,11,1,1,7
Y2-S2-034K26,5,449,PS,exp,30,→,left,←,0.8173555999528617,False,10,-1,1,8
Y2-S2-034K26,5,450,PS,exp,28,↓,right,→,0.8991352999582887,False,11,-1,0,8
Y2-S2-034K26,5,451,PS,exp,26,←,up,↑,0.8312353999353945,False,12,-1,0,8
Y2-S2-034K26,5,452,PS,exp,41,→,right,→,0.533373000100255,True,13,-1,0,8
Y2-S2-034K26,5,453,PS,exp,25,↑,up,↑,0.4121451999526471,True,13,-1,0,8
Y2-S2-034K26,5,454,PS,exp,41,↓,down,↓,0.6442005999851972,True,13,1,1,9
Y2-S2-034K26,5,455,PS,exp,49,←,up,↑,0.8812200999818742,False,12,-1,1,10
Y2-S2-034K26,5,456,PS,exp,36,→,right,→,0.5998394000343978,True,13,-1,0,10
Y2-S2-034K26,5,457,PS,exp,25,↓,down,↓,0.5719458998646587,True,13,-1,0,10
Y2-S2-034K26,5,458,PS,exp,43,←,left,←,0.7437895000912249,True,13,1,1,11
Y2-S2-034K26,5,459,PS,exp,27,↑,right,→,0.8154066998977214,False,12,-1,1,12
Y2-S2-034K26,5,460,PS,exp,39,→,right,→,0.44551709992811084,True,13,-1,0,12
Y2-S2-034K26,5,461,PS,exp,29,←,left,←,0.47773429984226823,True,13,-1,0,12
Y2-S2-034K26,5,462,PS,exp,43,→,right,→,0.5669217000249773,True,13,1,1,13
Y2-S2-034K26,5,463,PS,exp,45,←,left,←,1.4716435000300407,True,12,1,0,13
Y2-S2-034K26,5,464,PS,exp,30,↑,right,→,0.5495703998021781,False,12,-1,1,14
Y2-S2-034K26,5,465,PS,exp,33,→,right,→,0.5251578001771122,True,13,-1,0,14
Y2-S2-034K26,5,466,PS,exp,27,↑,right,→,0.7186122999992222,False,13,-1,0,14
Y2-S2-034K26,5,467,PS,exp,45,←,left,←,0.5255508001428097,True,14,-1,0,14
Y2-S2-034K26,5,468,PS,exp,35,↑,up,↑,0.4278927000705153,True,14,-1,0,14
Y2-S2-034K26,5,469,PS,exp,35,↓,left,←,0.8386370001826435,False,14,-1,0,14
Y2-S2-034K26,5,470,PS,exp,44,↑,up,↑,0.49686319986358285,True,15,-1,0,14
Y2-S2-034K26,5,471,PS,exp,49,↓,down,↓,0.8028545000124723,True,15,-1,0,14
Y2-S2-034K26,5,472,PS,exp,27,↑,up,↑,0.508588699856773,True,15,1,1,15
Y2-S2-034K26,5,473,PS,exp,25,→,left,←,0.864626299822703,False,14,-1,1,16
Y2-S2-034K26,6,474,AS,intra_train,42,↓,down,↓,0.737494400003925,True,33,-,-,-
Y2-S2-034K26,6,475,AS,intra_train,34,←,left,←,0.4844603999517858,True,33,-,-,-
Y2-S2-034K26,6,476,AS,intra_train,25,→,right,→,0.7440424999222159,True,33,-,-,-
Y2-S2-034K26,6,477,AS,intra_train,36,←,left,←,0.41764470003545284,True,33,-,-,-
Y2-S2-034K26,6,478,AS,intra_train,42,→,right,→,0.5180522000882775,True,33,-,-,-
Y2-S2-034K26,6,479,AS,exp,39,↑,left,←,0.7394141999538988,False,22,-1,0,0
Y2-S2-034K26,6,480,AS,exp,31,←,left,←,0.4672888000495732,True,23,-1,0,0
Y2-S2-034K26,6,481,AS,exp,32,→,right,→,0.6419822999741882,True,23,-1,0,0
Y2-S2-034K26,6,482,AS,exp,49,↑,up,↑,0.6732534000184387,True,23,1,1,1
Y2-S2-034K26,6,483,AS,exp,26,↓,down,↓,0.5883663999848068,True,22,1,0,1
Y2-S2-034K26,6,484,AS,exp,39,←,left,←,0.4840822000987828,True,22,1,0,1
Y2-S2-034K26,6,485,AS,exp,26,→,left,←,0.5507203999441117,False,22,-1,1,2
Y2-S2-034K26,6,486,AS,exp,42,↑,up,↑,0.7662943999748677,True,23,-1,0,2
Y2-S2-034K26,6,487,AS,exp,36,←,left,←,0.8618052001111209,True,23,-1,0,2
Y2-S2-034K26,6,488,AS,exp,30,↓,down,↓,0.8849662998691201,True,23,1,1,3
Y2-S2-034K26,6,489,AS,exp,30,→,right,→,0.5626254000235349,True,22,1,0,3
Y2-S2-034K26,6,490,AS,exp,40,↓,down,↓,0.6212899999227375,True,22,1,0,3
Y2-S2-034K26,6,491,AS,exp,38,→,right,→,1.3435978000052273,True,22,1,0,3
Y2-S2-034K26,6,492,AS,exp,25,↓,up,↑,0.9416875001043081,False,21,-1,1,4
Y2-S2-034K26,6,493,AS,exp,40,←,left,←,0.5457180999219418,True,22,-1,0,4
Y2-S2-034K26,6,494,AS,exp,31,↓,down,↓,0.8643889001104981,True,22,-1,0,4
Y2-S2-034K26,6,495,AS,exp,29,↑,up,↑,0.8255586000159383,True,22,1,1,5
Y2-S2-034K26,6,496,AS,exp,26,←,left,←,0.5990075999870896,True,21,1,0,5
Y2-S2-034K26,6,497,AS,exp,27,↓,down,↓,0.6853009001351893,True,21,1,0,5
Y2-S2-034K26,6,498,AS,exp,45,←,left,←,0.9019549998920411,True,21,1,0,5
Y2-S2-034K26,6,499,AS,exp,26,→,right,→,0.5363209000788629,True,20,1,0,5
Y2-S2-034K26,6,500,AS,exp,43,←,left,←,0.7838642001152039,True,20,1,0,5
Y2-S2-034K26,6,501,AS,exp,44,↓,down,↓,0.5841634999960661,True,20,1,0,5
Y2-S2-034K26,6,502,AS,exp,35,↑,up,↑,0.43422850011847913,True,19,1,0,5
Y2-S2-034K26,6,503,AS,exp,42,↓,left,←,0.9122923999093473,False,19,-1,1,6
Y2-S2-034K26,6,504,AS,exp,49,↑,up,↑,0.7859210998285562,True,20,-1,0,6
Y2-S2-034K26,6,505,AS,exp,32,←,left,←,0.5419959998689592,True,20,-1,0,6
Y2-S2-034K26,6,506,AS,exp,50,↓,down,↓,0.8735996000468731,True,20,1,1,7
Y2-S2-034K26,6,507,AS,exp,46,←,up,↑,0.5795869000721723,False,19,-1,1,8
Y2-S2-034K26,6,508,AS,exp,39,↑,up,↑,0.6869737999513745,True,20,-1,0,8
Y2-S2-034K26,6,509,AS,exp,26,→,right,→,1.8257450999226421,True,20,-1,0,8
Y2-S2-034K26,6,510,AS,exp,32,↑,up,↑,0.7395495001692325,True,20,1,1,9
Y2-S2-034K26,6,511,AS,exp,44,→,right,→,0.7218402000144124,True,19,1,0,9
Y2-S2-034K26,6,512,AS,exp,36,←,left,←,0.8124104000162333,True,19,1,0,9
Y2-S2-034K26,6,513,AS,exp,48,↑,up,↑,0.6200302001088858,True,19,1,0,9
Y2-S2-034K26,6,514,AS,exp,46,↓,down,↓,0.7036654001567513,True,18,1,0,9
Y2-S2-034K26,6,515,AS,exp,43,↑,up,↑,0.6491030999459326,True,18,1,0,9
Y2-S2-034K26,6,516,AS,exp,44,←,left,←,0.5163209999445826,True,18,1,0,9
Y2-S2-034K26,6,517,AS,exp,40,↓,up,↑,0.8080468000844121,False,17,-1,1,10
Y2-S2-034K26,6,518,AS,exp,43,↑,up,↑,0.43348429980687797,True,18,-1,0,10
Y2-S2-034K26,6,519,AS,exp,32,→,right,→,0.5424893999006599,True,18,-1,0,10
Y2-S2-034K26,6,520,AS,exp,36,↓,down,↓,0.5978971000295132,True,18,1,1,11
Y2-S2-034K26,6,521,AS,exp,40,↑,left,←,0.9236830999143422,False,17,-1,1,12
Y2-S2-034K26,6,522,AS,exp,33,←,left,←,0.8482319999020547,True,18,-1,0,12
Y2-S2-034K26,6,523,AS,exp,36,→,right,→,0.49894690001383424,True,18,-1,0,12
Y2-S2-034K26,6,524,AS,exp,42,↓,down,↓,0.6411602001171559,True,18,1,1,13
Y2-S2-034K26,6,525,AS,exp,36,→,left,←,0.5478109999094158,False,17,-1,1,14
Y2-S2-034K26,6,526,AS,exp,25,↓,down,↓,0.6629401999525726,True,18,-1,0,14
Y2-S2-034K26,6,527,AS,exp,29,→,right,→,0.5336780999787152,True,18,-1,0,14
Y2-S2-034K26,6,528,AS,exp,43,←,left,←,0.7602504000533372,True,18,1,1,15
Y2-S2-034K26,6,529,AS,exp,43,→,up,↑,0.6478520000819117,False,17,-1,1,16
Y2-S2-034K26,7,530,AS,intra_train,38,↑,up,↑,0.6502135000191629,True,33,-,-,-
Y2-S2-034K26,7,531,AS,intra_train,43,→,right,→,0.5673279000911862,True,33,-,-,-
Y2-S2-034K26,7,532,AS,intra_train,39,↓,down,↓,0.7282979001756757,True,33,-,-,-
Y2-S2-034K26,7,533,AS,intra_train,50,→,right,→,1.4638372000772506,True,33,-,-,-
Y2-S2-034K26,7,534,AS,intra_train,41,↑,up,↑,0.5177142999600619,True,33,-,-,-
Y2-S2-034K26,7,535,AS,exp,43,→,right,→,0.48389049991965294,True,22,0,0,0
Y2-S2-034K26,7,536,AS,exp,39,↓,down,↓,0.6994407998863608,True,22,0,0,0
Y2-S2-034K26,7,537,AS,exp,47,→,left,←,0.9287793000694364,False,22,-1,0,0
Y2-S2-034K26,7,538,AS,exp,31,↑,up,↑,0.6187171000055969,True,23,-1,0,0
Y2-S2-034K26,7,539,AS,exp,31,↓,down,↓,0.6655530000571162,True,23,-1,0,0
Y2-S2-034K26,7,540,AS,exp,43,←,left,←,0.483768800040707,True,23,1,1,1
Y2-S2-034K26,7,541,AS,exp,36,↓,down,↓,0.8636161000467837,True,22,1,0,1
Y2-S2-034K26,7,542,AS,exp,28,↑,up,↑,0.5743044998962432,True,22,1,0,1
Y2-S2-034K26,7,543,AS,exp,39,→,right,→,0.5003979001194239,True,22,1,0,1
Y2-S2-034K26,7,544,AS,exp,33,↓,down,↓,0.7149684000760317,True,21,1,0,1
Y2-S2-034K26,7,545,AS,exp,48,→,right,→,1.2295305000152439,True,21,1,0,1
Y2-S2-034K26,7,546,AS,exp,29,←,left,←,0.7593958000652492,True,21,1,0,1
Y2-S2-034K26,7,547,AS,exp,43,↑,up,↑,1.0992082001175731,True,20,1,0,1
Y2-S2-034K26,7,548,AS,exp,49,→,right,→,0.5611813999712467,True,20,1,0,1
Y2-S2-034K26,7,549,AS,exp,44,↓,down,↓,0.6012361000757664,True,20,1,0,1
Y2-S2-034K26,7,550,AS,exp,46,←,left,←,0.7645509999711066,True,19,1,0,1
Y2-S2-034K26,7,551,AS,exp,38,→,right,→,0.5513774000573903,True,19,1,0,1
Y2-S2-034K26,7,552,AS,exp,48,←,left,←,0.8390575000084937,True,19,1,0,1
Y2-S2-034K26,7,553,AS,exp,44,→,right,→,0.4878503999207169,True,18,1,0,1
Y2-S2-034K26,7,554,AS,exp,28,↓,down,↓,1.5481213999446481,True,18,1,0,1
Y2-S2-034K26,7,555,AS,exp,35,→,right,→,0.4811432999558747,True,18,1,0,1
Y2-S2-034K26,7,556,AS,exp,46,←,left,←,1.2073772000148892,True,17,1,0,1
Y2-S2-034K26,7,557,AS,exp,45,↑,up,↑,1.1705377998296171,True,17,1,0,1
Y2-S2-034K26,7,558,AS,exp,25,↓,down,↓,0.7130609999876469,True,17,1,0,1
Y2-S2-034K26,7,559,AS,exp,31,←,left,←,0.5319586999248713,True,16,1,0,1
Y2-S2-034K26,7,560,AS,exp,37,↑,up,↑,1.0442386998329312,True,16,1,0,1
Y2-S2-034K26,7,561,AS,exp,28,→,right,→,0.6919221000280231,True,16,1,0,1
Y2-S2-034K26,7,562,AS,exp,33,↓,down,↓,0.6052329998929054,True,15,1,0,1
Y2-S2-034K26,7,563,AS,exp,39,→,left,←,0.8082610999699682,False,15,-1,1,2
Y2-S2-034K26,7,564,AS,exp,50,↑,up,↑,0.7413099000696093,True,16,-1,0,2
Y2-S2-034K26,7,565,AS,exp,31,→,left,←,0.6068634998518974,False,16,-1,0,2
Y2-S2-034K26,7,566,AS,exp,38,←,right,→,0.944140300154686,False,17,-1,0,2
Y2-S2-034K26,7,567,AS,exp,46,↓,up,↑,0.8230800998862833,False,18,-1,0,2
Y2-S2-034K26,7,568,AS,exp,43,→,right,→,0.6659333999268711,True,19,-1,0,2
Y2-S2-034K26,7,569,AS,exp,39,↓,down,↓,0.7076374001335353,True,19,-1,0,2
Y2-S2-034K26,7,570,AS,exp,28,↑,up,↑,0.5296201999299228,True,19,1,1,3
Y2-S2-034K26,7,571,AS,exp,41,←,left,←,0.5175185000989586,True,18,1,0,3
Y2-S2-034K26,7,572,AS,exp,26,→,right,→,0.7137344998773187,True,18,1,0,3
Y2-S2-034K26,7,573,AS,exp,25,↓,down,↓,0.6179610998369753,True,18,1,0,3
Y2-S2-034K26,7,574,AS,exp,50,↑,up,↑,0.3839254998601973,True,17,1,0,3
Y2-S2-034K26,7,575,AS,exp,27,↓,up,↑,0.8087643999606371,False,17,-1,1,4
Y2-S2-034K26,7,576,AS,exp,29,→,right,→,0.7048001000657678,True,18,-1,0,4
Y2-S2-034K26,7,577,AS,exp,44,↑,up,↑,0.8579556997865438,True,18,-1,0,4
Y2-S2-034K26,7,578,AS,exp,31,↓,down,↓,0.6176375998184085,True,18,1,1,5
Y2-S2-034K26,7,579,AS,exp,33,→,right,→,0.5471320999786258,True,17,1,0,5
Y2-S2-034K26,7,580,AS,exp,44,↑,up,↑,0.6298984000459313,True,17,1,0,5
Y2-S2-034K26,7,581,AS,exp,43,→,right,→,0.6967925999779254,True,17,1,0,5
Y2-S2-034K26,7,582,AS,exp,39,←,right,→,0.6535203999374062,False,16,-1,1,6
Y2-S2-034K26,7,583,AS,exp,47,→,up,↑,0.5895204998087138,False,17,-1,0,6
Y2-S2-034K26,7,584,AS,exp,39,↑,up,↑,0.5120949000120163,True,18,-1,0,6
Y2-S2-034K26,7,585,AS,exp,37,↓,down,↓,0.5438451000954956,True,18,-1,0,6
Y2-S2-034K26,7,586,AS,exp,39,←,left,←,0.6730272001586854,True,18,1,1,7
Y2-S2-034K26,7,587,AS,exp,39,↑,up,↑,1.0768001000396907,True,17,1,0,7
Y2-S2-034K26,7,588,AS,exp,37,←,left,←,0.51606379984878,True,17,1,0,7
Y2-S2-034K26,7,589,AS,exp,34,→,left,←,0.6362254000268877,False,17,-1,1,8
Y2-S2-034K26,7,590,AS,exp,39,←,right,→,0.5341477999463677,False,18,-1,0,8
Y2-S2-034K26,7,591,AS,exp,34,→,right,→,0.6393134000245482,True,19,-1,0,8
Y2-S2-034K26,7,592,AS,exp,46,↑,up,↑,0.5006802000571042,True,19,-1,0,8
Y2-S2-034K26,7,593,AS,exp,28,→,right,→,1.216837199870497,True,19,1,1,9
Y2-S2-034K26,7,594,AS,exp,50,↑,up,↑,0.8552335000131279,True,18,1,0,9
Y2-S2-034K26,7,595,AS,exp,31,←,left,←,0.48249740013852715,True,18,1,0,9
Y2-S2-034K26,7,596,AS,exp,32,→,right,→,0.47740940004587173,True,18,1,0,9
Y2-S2-034K26,7,597,AS,exp,42,↑,up,↑,1.1182861998677254,True,17,1,0,9
Y2-S2-034K26,7,598,AS,exp,37,→,right,→,0.7974354000762105,True,17,1,0,9
Y2-S2-034K26,7,599,AS,exp,46,↑,left,←,0.8819293999113142,False,17,-1,1,10
Y2-S2-034K26,7,600,AS,exp,48,→,right,→,0.6604826999828219,True,18,-1,0,10
Y2-S2-034K26,7,601,AS,exp,34,←,left,←,0.7553861001506448,True,18,-1,0,10
Y2-S2-034K26,7,602,AS,exp,40,↑,up,↑,0.9431125000119209,True,18,1,1,11
Y2-S2-034K26,7,603,AS,exp,37,→,right,→,0.5811428998131305,True,17,1,0,11
Y2-S2-034K26,7,604,AS,exp,32,↑,up,↑,0.5572361999657005,True,17,1,0,11
Y2-S2-034K26,7,605,AS,exp,31,←,left,←,0.6027564001269639,True,17,1,0,11
Y2-S2-034K26,7,606,AS,exp,49,↓,up,↑,0.7259242001455277,False,16,-1,1,12
Y2-S2-034K26,7,607,AS,exp,27,↑,up,↑,0.48438180005177855,True,17,-1,0,12
Y2-S2-034K26,7,608,AS,exp,48,↓,down,↓,0.6521898000501096,True,17,-1,0,12
Y2-S2-034K26,7,609,AS,exp,47,↑,up,↑,0.7279791000764817,True,17,1,1,13
Y2-S2-034K26,7,610,AS,exp,34,↓,down,↓,0.656659800093621,True,16,1,0,13
Y2-S2-034K26,7,611,AS,exp,26,→,left,←,0.7531509001273662,False,16,-1,1,14
Y2-S2-034K26,7,612,AS,exp,31,↓,down,↓,0.5079683000221848,True,17,-1,0,14
Y2-S2-034K26,7,613,AS,exp,49,↑,right,→,0.8583786999806762,False,17,-1,0,14
Y2-S2-034K26,7,614,AS,exp,42,↓,down,↓,0.7230144999921322,True,18,-1,0,14
Y2-S2-034K26,7,615,AS,exp,32,↑,up,↑,0.5042185001075268,True,18,-1,0,14
Y2-S2-034K26,7,616,AS,exp,25,→,left,←,0.5877769999206066,False,18,-1,0,14
Y2-S2-034K26,7,617,AS,exp,34,←,left,←,0.7343090998474509,True,19,-1,0,14
Y2-S2-034K26,7,618,AS,exp,30,↓,down,↓,0.7798994998447597,True,19,-1,0,14
Y2-S2-034K26,7,619,AS,exp,27,←,left,←,0.7466012998484075,True,19,1,1,15
Y2-S2-034K26,7,620,AS,exp,47,↓,down,↓,0.7325790000613779,True,18,1,0,15
Y2-S2-034K26,7,621,AS,exp,42,↑,up,↑,0.4861278999596834,True,18,1,0,15
Y2-S2-034K26,7,622,AS,exp,50,→,right,→,0.5137630000244826,True,18,1,0,15
Y2-S2-034K26,7,623,AS,exp,46,↓,down,↓,0.7284497001674026,True,17,1,0,15
Y2-S2-034K26,7,624,AS,exp,50,→,right,→,0.6103517999872565,True,17,1,0,15
Y2-S2-034K26,7,625,AS,exp,26,↓,down,↓,0.818431300111115,True,17,1,0,15
Y2-S2-034K26,7,626,AS,exp,47,←,left,←,0.6903862999752164,True,16,1,0,15
Y2-S2-034K26,7,627,AS,exp,35,→,up,↑,0.9431173999328166,False,16,-1,1,16
Y2-S2-034K26,8,628,PS,intra_train,40,↓,left,←,0.8178202998824418,False,15,-,-,-
Y2-S2-034K26,8,629,PS,intra_train,43,→,left,←,0.8095001000910997,False,15,-,-,-
Y2-S2-034K26,8,630,PS,intra_train,46,↑,up,↑,0.4923234998714179,True,15,-,-,-
Y2-S2-034K26,8,631,PS,intra_train,27,↓,down,↓,0.5896199000999331,True,15,-,-,-
Y2-S2-034K26,8,632,PS,intra_train,28,↑,up,↑,0.45557420002296567,True,15,-,-,-
Y2-S2-034K26,8,633,PS,exp,39,→,left,←,0.7036637999117374,False,10,-1,0,0
Y2-S2-034K26,8,634,PS,exp,28,↑,up,↑,0.4395091999322176,True,11,-1,0,0
Y2-S2-034K26,8,635,PS,exp,40,←,left,←,0.6810031000059098,True,11,-1,0,0
Y2-S2-034K26,8,636,PS,exp,30,↓,down,↓,0.6158131000120193,True,11,1,1,1
Y2-S2-034K26,8,637,PS,exp,35,←,left,←,0.6211186998989433,True,10,1,0,1
Y2-S2-034K26,8,638,PS,exp,35,→,right,→,0.5907836998812854,True,10,1,0,1
Y2-S2-034K26,8,639,PS,exp,41,←,left,←,0.5514442001003772,True,10,1,0,1
Y2-S2-034K26,8,640,PS,exp,47,↓,right,→,0.737074599834159,False,9,-1,1,2
Y2-S2-034K26,8,641,PS,exp,26,←,left,←,0.4756520998198539,True,10,-1,0,2
Y2-S2-034K26,8,642,PS,exp,43,↓,left,←,0.73963229986839,False,10,-1,0,2
Y2-S2-034K26,8,643,PS,exp,41,→,right,→,0.530983200063929,True,11,-1,0,2
Y2-S2-034K26,8,644,PS,exp,26,↑,up,↑,0.45862590009346604,True,11,-1,0,2
Y2-S2-034K26,8,645,PS,exp,26,→,left,←,0.6224078999366611,False,11,-1,0,2
Y2-S2-034K26,8,646,PS,exp,47,←,left,←,0.42035889998078346,True,12,-1,0,2
Y2-S2-034K26,8,647,PS,exp,49,→,right,→,0.49405819992534816,True,12,-1,0,2
Y2-S2-034K26,8,648,PS,exp,42,↓,down,↓,0.5931466999463737,True,12,1,1,3
Y2-S2-034K26,8,649,PS,exp,44,←,left,←,0.4963867999613285,True,11,1,0,3
Y2-S2-034K26,8,650,PS,exp,34,→,right,→,0.47473379992879927,True,11,1,0,3
Y2-S2-034K26,8,651,PS,exp,31,↑,up,↑,0.5238185999915004,True,11,1,0,3
Y2-S2-034K26,8,652,PS,exp,34,→,right,→,0.4630852001719177,True,10,1,0,3
Y2-S2-034K26,8,653,PS,exp,50,↑,up,↑,0.5928617999888957,True,10,1,0,3
Y2-S2-034K26,8,654,PS,exp,37,→,left,←,0.5511418001260608,False,10,-1,1,4
Y2-S2-034K26,8,655,PS,exp,31,↓,down,↓,0.5738667999394238,True,11,-1,0,4
Y2-S2-034K26,8,656,PS,exp,48,↑,up,↑,0.4816907001659274,True,11,-1,0,4
Y2-S2-034K26,8,657,PS,exp,29,←,left,←,0.5594234999734908,True,11,1,1,5
Y2-S2-034K26,8,658,PS,exp,32,↑,up,↑,0.4174369000829756,True,10,1,0,5
Y2-S2-034K26,8,659,PS,exp,40,←,left,←,0.6463841998483986,True,10,1,0,5
Y2-S2-034K26,8,660,PS,exp,30,↓,left,←,0.7902104000095278,False,10,-1,1,6
Y2-S2-034K26,8,661,PS,exp,50,↑,up,↑,0.44116899999789894,True,11,-1,0,6
Y2-S2-034K26,8,662,PS,exp,46,→,left,←,0.6806940000969917,False,11,-1,0,6
Y2-S2-034K26,8,663,PS,exp,30,↑,up,↑,0.4290258002001792,True,12,-1,0,6
Y2-S2-034K26,8,664,PS,exp,44,↓,down,↓,0.6381971000228077,True,12,-1,0,6
Y2-S2-034K26,8,665,PS,exp,41,↑,up,↑,0.4127425001934171,True,12,1,1,7
Y2-S2-034K26,8,666,PS,exp,35,→,right,→,0.5728488999884576,True,11,1,0,7
Y2-S2-034K26,8,667,PS,exp,28,←,left,←,0.5655354000627995,True,11,1,0,7
Y2-S2-034K26,8,668,PS,exp,45,↓,left,←,0.5780464999843389,False,11,-1,1,8
Y2-S2-034K26,8,669,PS,exp,44,←,left,←,0.6543436001520604,True,12,-1,0,8
Y2-S2-034K26,8,670,PS,exp,28,→,right,→,0.6255119000561535,True,12,-1,0,8
Y2-S2-034K26,8,671,PS,exp,27,↓,down,↓,0.5301260999403894,True,12,1,1,9
Y2-S2-034K26,8,672,PS,exp,29,←,left,←,0.4523116999771446,True,11,1,0,9
Y2-S2-034K26,8,673,PS,exp,44,→,right,→,0.44274380011484027,True,11,1,0,9
Y2-S2-034K26,8,674,PS,exp,33,←,left,←,0.5091051999479532,True,11,1,0,9
Y2-S2-034K26,8,675,PS,exp,34,↑,up,↑,0.4036596999503672,True,10,1,0,9
Y2-S2-034K26,8,676,PS,exp,40,←,left,←,0.34682360012084246,True,10,1,0,9
Y2-S2-034K26,8,677,PS,exp,34,→,right,→,0.5685948999598622,True,10,1,0,9
Y2-S2-034K26,8,678,PS,exp,43,↑,left,←,0.5829429998993874,False,9,-1,1,10
Y2-S2-034K26,8,679,PS,exp,29,←,left,←,1.7477156999520957,True,10,-1,0,10
Y2-S2-034K26,8,680,PS,exp,44,→,right,→,0.49779550009407103,True,10,-1,0,10
Y2-S2-034K26,8,681,PS,exp,40,↓,down,↓,0.6553970000240952,True,10,1,1,11
Y2-S2-034K26,8,682,PS,exp,30,←,left,←,0.43778149993158877,True,9,1,0,11
Y2-S2-034K26,8,683,PS,exp,49,→,right,→,0.5226404001004994,True,9,1,0,11
Y2-S2-034K26,8,684,PS,exp,49,↑,left,←,0.3645735001191497,False,9,-1,1,12
Y2-S2-034K26,8,685,PS,exp,29,→,left,←,0.7127853001002222,False,10,-1,0,12
Y2-S2-034K26,8,686,PS,exp,30,↓,left,←,0.8067417999263853,False,11,-1,0,12
Y2-S2-034K26,8,687,PS,exp,41,→,right,→,0.5216625998727977,True,12,-1,0,12
Y2-S2-034K26,8,688,PS,exp,40,↑,up,↑,0.4480266000609845,True,12,-1,0,12
Y2-S2-034K26,8,689,PS,exp,32,↓,down,↓,0.6397609999403358,True,12,1,1,13
Y2-S2-034K26,8,690,PS,exp,46,←,left,←,0.5351334000006318,True,11,1,0,13
Y2-S2-034K26,8,691,PS,exp,42,↓,down,↓,0.7149232998490334,True,11,1,0,13
Y2-S2-034K26,8,692,PS,exp,33,↑,up,↑,0.5016228000167757,True,11,1,0,13
Y2-S2-034K26,8,693,PS,exp,32,→,left,←,0.6255954001098871,False,10,-1,1,14
Y2-S2-034K26,8,694,PS,exp,26,←,left,←,0.5705426000058651,True,11,-1,0,14
Y2-S2-034K26,8,695,PS,exp,49,→,right,→,0.6781730998773128,True,11,-1,0,14
Y2-S2-034K26,8,696,PS,exp,50,↓,down,↓,0.5296733998693526,True,11,1,1,15
Y2-S2-034K26,8,697,PS,exp,37,→,right,→,0.5162497998680919,True,10,1,0,15
Y2-S2-034K26,8,698,PS,exp,40,↓,down,↓,0.6827803000342101,True,10,1,0,15
Y2-S2-034K26,8,699,PS,exp,28,←,left,←,0.46307480009272695,True,10,1,0,15
Y2-S2-034K26,8,700,PS,exp,27,↑,up,↑,0.6879587001167238,True,9,1,0,15
Y2-S2-034K26,8,701,PS,exp,27,↓,down,↓,0.4768400997854769,True,9,1,0,15
Y2-S2-034K26,8,702,PS,exp,50,↑,up,↑,0.4536959999240935,True,9,1,0,15
Y2-S2-034K26,8,703,PS,exp,40,↓,up,↑,0.45568459993228316,False,8,-1,1,16
