PART_ID,Block_no,Trial_no,Block_type,Trial_type,CSI,Stim_letter,Key_pressed,letter_choose,Rt,Corr,Stimulus Time,Level,Reversal,Revs_count
Y2-S2-077K20,1,1,PS,train,49,↓,down,↓,0.6334657999686897,True,30,-,-,-
Y2-S2-077K20,1,2,PS,train,27,→,right,→,0.5508600999601185,True,30,-,-,-
Y2-S2-077K20,1,3,PS,train,34,↓,down,↓,0.5673173000104725,True,30,-,-,-
Y2-S2-077K20,1,4,PS,train,37,←,left,←,0.8532624002546072,True,30,-,-,-
Y2-S2-077K20,1,5,PS,train,40,↑,up,↑,0.5671963002532721,True,30,-,-,-
Y2-S2-077K20,1,6,PS,train,27,←,left,←,0.46779519971460104,True,30,-,-,-
Y2-S2-077K20,1,7,PS,train,32,↑,up,↑,0.5504606999456882,True,30,-,-,-
Y2-S2-077K20,1,8,PS,train,38,↓,down,↓,0.4679661998525262,True,30,-,-,-
Y2-S2-077K20,1,9,PS,train,34,↑,up,↑,0.6338975001126528,True,30,-,-,-
Y2-S2-077K20,1,10,PS,train,36,←,left,←,0.4178440999239683,True,30,-,-,-
Y2-S2-077K20,2,11,AS,train,49,↓,down,↓,0.5345741999335587,True,45,-,-,-
Y2-S2-077K20,2,12,AS,train,42,←,left,←,0.6174624999985099,True,45,-,-,-
Y2-S2-077K20,2,13,AS,train,44,→,right,→,0.48423790000379086,True,45,-,-,-
Y2-S2-077K20,2,14,AS,train,49,↑,down,↓,0.48455959977582097,False,45,-,-,-
Y2-S2-077K20,2,15,AS,train,38,↓,down,↓,0.6845976999029517,True,45,-,-,-
Y2-S2-077K20,2,16,AS,train,49,→,right,→,0.5176652004010975,True,45,-,-,-
Y2-S2-077K20,2,17,AS,train,48,←,left,←,0.5179095002822578,True,45,-,-,-
Y2-S2-077K20,2,18,AS,train,49,↑,up,↑,0.7338144001550972,True,45,-,-,-
Y2-S2-077K20,2,19,AS,train,36,←,left,←,0.451114600058645,True,45,-,-,-
Y2-S2-077K20,2,20,AS,train,46,↑,up,↑,0.7337198001332581,True,45,-,-,-
Y2-S2-077K20,-,21,PS,adaptive,41,→,right,→,0.49818950006738305,True,10,0,0,0
Y2-S2-077K20,-,22,PS,adaptive,42,←,left,←,0.7216698997654021,True,10,0,0,0
Y2-S2-077K20,-,23,PS,adaptive,48,↑,up,↑,1.069684199988842,True,10,1,0,0
Y2-S2-077K20,-,24,PS,adaptive,26,→,right,→,0.49143779976293445,True,9,1,0,0
Y2-S2-077K20,-,25,PS,adaptive,25,←,left,←,0.6318341000005603,True,9,1,0,0
Y2-S2-077K20,-,26,PS,adaptive,47,→,right,→,0.5557260001078248,True,9,1,0,0
Y2-S2-077K20,-,27,PS,adaptive,32,↓,down,↓,0.5318760997615755,True,8,1,0,0
Y2-S2-077K20,-,28,PS,adaptive,38,←,right,→,0.801910599693656,False,8,-1,1,1
Y2-S2-077K20,-,29,PS,adaptive,41,↓,down,↓,0.48958890000358224,True,9,-1,0,1
Y2-S2-077K20,-,30,PS,adaptive,42,↑,up,↑,0.5005179001018405,True,9,-1,0,1
Y2-S2-077K20,-,31,PS,adaptive,36,←,right,→,0.47056719986721873,False,9,-1,0,1
Y2-S2-077K20,-,32,PS,adaptive,48,→,right,→,0.7063016998581588,True,10,-1,0,1
Y2-S2-077K20,-,33,PS,adaptive,41,↑,up,↑,0.44763039983808994,True,10,-1,0,1
Y2-S2-077K20,-,34,PS,adaptive,36,↓,down,↓,0.523528499994427,True,10,1,1,2
Y2-S2-077K20,-,35,PS,adaptive,36,→,right,→,0.6290963999927044,True,9,1,0,2
Y2-S2-077K20,-,36,PS,adaptive,50,↓,down,↓,0.4704573997296393,True,9,1,0,2
Y2-S2-077K20,-,37,PS,adaptive,29,→,right,→,0.4189618998207152,True,9,1,0,2
Y2-S2-077K20,-,38,PS,adaptive,39,←,left,←,0.6107486002147198,True,8,1,0,2
Y2-S2-077K20,-,39,PS,adaptive,34,↓,down,↓,0.5644486998207867,True,8,1,0,2
Y2-S2-077K20,-,40,PS,adaptive,40,→,right,→,0.5580563000403345,True,8,1,0,2
Y2-S2-077K20,-,41,PS,adaptive,41,↓,down,↓,0.5627655000425875,True,7,1,0,2
Y2-S2-077K20,-,42,PS,adaptive,47,→,right,→,0.5417708000168204,True,7,1,0,2
Y2-S2-077K20,-,43,PS,adaptive,25,↑,right,→,0.618322900030762,False,7,-1,1,3
Y2-S2-077K20,-,44,PS,adaptive,45,↓,up,↑,0.6368566998280585,False,8,-1,0,3
Y2-S2-077K20,-,45,PS,adaptive,28,↑,down,↓,0.596677899826318,False,9,-1,0,3
Y2-S2-077K20,-,46,PS,adaptive,28,↓,down,↓,0.4944832003675401,True,10,-1,0,3
Y2-S2-077K20,-,47,PS,adaptive,41,→,down,↓,0.784377200063318,False,10,-1,0,3
Y2-S2-077K20,-,48,PS,adaptive,41,←,left,←,0.5222140001133084,True,11,-1,0,3
Y2-S2-077K20,-,49,PS,adaptive,46,↑,up,↑,0.592960299924016,True,11,-1,0,3
Y2-S2-077K20,-,50,PS,adaptive,26,↓,down,↓,0.4782461002469063,True,11,1,1,4
Y2-S2-077K20,-,51,AS,adaptive,41,←,left,←,0.5670274002477527,True,20,0,0,0
Y2-S2-077K20,-,52,AS,adaptive,47,↑,up,↑,0.46737359976395965,True,20,0,0,0
Y2-S2-077K20,-,53,AS,adaptive,34,→,right,→,0.46718400018289685,True,20,1,0,0
Y2-S2-077K20,-,54,AS,adaptive,33,↑,up,↑,0.43414760008454323,True,19,1,0,0
Y2-S2-077K20,-,55,AS,adaptive,45,↓,down,↓,0.5128533001989126,True,19,1,0,0
Y2-S2-077K20,-,56,AS,adaptive,26,↑,up,↑,0.6140104001387954,True,19,1,0,0
Y2-S2-077K20,-,57,AS,adaptive,40,↓,down,↓,0.5120069999247789,True,18,1,0,0
Y2-S2-077K20,-,58,AS,adaptive,45,→,right,→,0.5541970999911427,True,18,1,0,0
Y2-S2-077K20,-,59,AS,adaptive,25,↓,down,↓,0.6779869999736547,True,18,1,0,0
Y2-S2-077K20,-,60,AS,adaptive,47,↑,up,↑,0.6864304002374411,True,17,1,0,0
Y2-S2-077K20,-,61,AS,adaptive,34,→,right,→,1.5238765999674797,True,17,1,0,0
Y2-S2-077K20,-,62,AS,adaptive,26,↑,up,↑,0.5558557999320328,True,17,1,0,0
Y2-S2-077K20,-,63,AS,adaptive,38,↓,up,↑,1.1219036998227239,False,16,-1,1,1
Y2-S2-077K20,-,64,AS,adaptive,50,→,right,→,0.41792890010401607,True,17,-1,0,1
Y2-S2-077K20,-,65,AS,adaptive,32,↑,up,↑,0.6895703999325633,True,17,-1,0,1
Y2-S2-077K20,-,66,AS,adaptive,29,→,right,→,0.5311177000403404,True,17,1,1,2
Y2-S2-077K20,-,67,AS,adaptive,25,↑,right,→,0.6734791002236307,False,16,-1,1,3
Y2-S2-077K20,-,68,AS,adaptive,34,↓,down,↓,0.5274242996238172,True,17,-1,0,3
Y2-S2-077K20,-,69,AS,adaptive,37,↑,up,↑,0.617915399838239,True,17,-1,0,3
Y2-S2-077K20,-,70,AS,adaptive,39,←,left,←,0.7055573998950422,True,17,1,1,4
Y2-S2-077K20,1,71,AS,intra_train,25,↓,down,↓,0.4340182999148965,True,24,-,-,-
Y2-S2-077K20,1,72,AS,intra_train,30,↑,up,↑,0.7370462999679148,True,24,-,-,-
Y2-S2-077K20,1,73,AS,intra_train,38,↓,no_key,no_letter,-1.0,False,24,-,-,-
Y2-S2-077K20,1,74,AS,intra_train,33,←,left,←,0.6875990997068584,True,24,-,-,-
Y2-S2-077K20,1,75,AS,intra_train,29,↓,down,↓,0.8187363999895751,True,24,-,-,-
Y2-S2-077K20,1,76,AS,exp,50,←,left,←,0.5606154999695718,True,16,0,0,0
Y2-S2-077K20,1,77,AS,exp,36,→,right,→,0.8424404002726078,True,16,0,0,0
Y2-S2-077K20,1,78,AS,exp,50,↑,up,↑,0.5907846000045538,True,16,1,0,0
Y2-S2-077K20,1,79,AS,exp,40,↓,down,↓,0.46738999988883734,True,15,1,0,0
Y2-S2-077K20,1,80,AS,exp,37,↑,up,↑,0.5563733000308275,True,15,1,0,0
Y2-S2-077K20,1,81,AS,exp,47,←,left,←,0.5758460001088679,True,15,1,0,0
Y2-S2-077K20,1,82,AS,exp,45,↓,down,↓,0.5674331998452544,True,14,1,0,0
Y2-S2-077K20,1,83,AS,exp,39,→,left,←,0.5977469999343157,False,14,-1,1,1
Y2-S2-077K20,1,84,AS,exp,30,↑,up,↑,0.6305939997546375,True,15,-1,0,1
Y2-S2-077K20,1,85,AS,exp,25,↓,down,↓,0.6409016000106931,True,15,-1,0,1
Y2-S2-077K20,1,86,AS,exp,32,←,left,←,0.5838440996594727,True,15,1,1,2
Y2-S2-077K20,1,87,AS,exp,50,↑,up,↑,0.6881752000190318,True,14,1,0,2
Y2-S2-077K20,1,88,AS,exp,38,←,left,←,0.535608799662441,True,14,1,0,2
Y2-S2-077K20,1,89,AS,exp,50,↑,up,↑,0.791565999854356,True,14,1,0,2
Y2-S2-077K20,1,90,AS,exp,26,←,left,←,0.5881308997049928,True,13,1,0,2
Y2-S2-077K20,1,91,AS,exp,38,↑,up,↑,0.5745186996646225,True,13,1,0,2
Y2-S2-077K20,1,92,AS,exp,32,←,right,→,0.429222600068897,False,13,-1,1,3
Y2-S2-077K20,1,93,AS,exp,30,↓,down,↓,0.645624800119549,True,14,-1,0,3
Y2-S2-077K20,1,94,AS,exp,29,→,left,←,0.7572047002613544,False,14,-1,0,3
Y2-S2-077K20,1,95,AS,exp,38,←,left,←,0.5705924001522362,True,15,-1,0,3
Y2-S2-077K20,1,96,AS,exp,44,↓,down,↓,0.5837603998370469,True,15,-1,0,3
Y2-S2-077K20,1,97,AS,exp,27,←,left,←,0.45469609973952174,True,15,1,1,4
Y2-S2-077K20,1,98,AS,exp,47,↑,down,↓,0.7360064000822604,False,14,-1,1,5
Y2-S2-077K20,1,99,AS,exp,41,→,down,↓,0.7751356000080705,False,15,-1,0,5
Y2-S2-077K20,1,100,AS,exp,36,←,left,←,0.6637636995874345,True,16,-1,0,5
Y2-S2-077K20,1,101,AS,exp,47,→,right,→,0.678869899827987,True,16,-1,0,5
Y2-S2-077K20,1,102,AS,exp,46,↑,up,↑,0.5909648998640478,True,16,1,1,6
Y2-S2-077K20,1,103,AS,exp,32,→,right,→,0.47119379974901676,True,15,1,0,6
Y2-S2-077K20,1,104,AS,exp,49,↑,up,↑,0.6511077000759542,True,15,1,0,6
Y2-S2-077K20,1,105,AS,exp,39,↓,down,↓,0.5857961997389793,True,15,1,0,6
Y2-S2-077K20,1,106,AS,exp,44,←,left,←,0.5997550003230572,True,14,1,0,6
Y2-S2-077K20,1,107,AS,exp,41,↓,down,↓,0.6074255001731217,True,14,1,0,6
Y2-S2-077K20,1,108,AS,exp,26,↑,up,↑,0.6060068998485804,True,14,1,0,6
Y2-S2-077K20,1,109,AS,exp,41,←,left,←,0.45758940000087023,True,13,1,0,6
Y2-S2-077K20,1,110,AS,exp,46,→,right,→,0.4864654000848532,True,13,1,0,6
Y2-S2-077K20,1,111,AS,exp,30,↓,down,↓,0.6898138001561165,True,13,1,0,6
Y2-S2-077K20,1,112,AS,exp,37,←,left,←,0.9764082003384829,True,12,1,0,6
Y2-S2-077K20,1,113,AS,exp,49,→,right,→,0.770518499892205,True,12,1,0,6
Y2-S2-077K20,1,114,AS,exp,47,←,left,←,0.5409997999668121,True,12,1,0,6
Y2-S2-077K20,1,115,AS,exp,49,↑,up,↑,0.49525689985603094,True,11,1,0,6
Y2-S2-077K20,1,116,AS,exp,35,←,left,←,0.6379397003911436,True,11,1,0,6
Y2-S2-077K20,1,117,AS,exp,44,→,right,→,0.5326036000624299,True,11,1,0,6
Y2-S2-077K20,1,118,AS,exp,44,↓,up,↑,0.7249455000273883,False,10,-1,1,7
Y2-S2-077K20,1,119,AS,exp,38,↑,down,↓,1.3025201000273228,False,11,-1,0,7
Y2-S2-077K20,1,120,AS,exp,39,↓,down,↓,1.1863108002580702,True,12,-1,0,7
Y2-S2-077K20,1,121,AS,exp,32,↑,up,↑,0.6732810996472836,True,12,-1,0,7
Y2-S2-077K20,1,122,AS,exp,30,←,left,←,0.6991175999864936,True,12,1,1,8
Y2-S2-077K20,1,123,AS,exp,33,→,right,→,0.5299463998526335,True,11,1,0,8
Y2-S2-077K20,1,124,AS,exp,34,←,left,←,1.1664708000607789,True,11,1,0,8
Y2-S2-077K20,1,125,AS,exp,41,↑,up,↑,0.6268674000166357,True,11,1,0,8
Y2-S2-077K20,1,126,AS,exp,31,↓,down,↓,0.5409499001689255,True,10,1,0,8
Y2-S2-077K20,1,127,AS,exp,32,→,right,→,0.8906470998190343,True,10,1,0,8
Y2-S2-077K20,1,128,AS,exp,28,←,left,←,0.681349900085479,True,10,1,0,8
Y2-S2-077K20,1,129,AS,exp,31,↓,down,↓,0.7001261003315449,True,9,1,0,8
Y2-S2-077K20,1,130,AS,exp,43,↑,down,↓,0.6527904998511076,False,9,-1,1,9
Y2-S2-077K20,1,131,AS,exp,49,↓,down,↓,0.9526467001996934,True,10,-1,0,9
Y2-S2-077K20,1,132,AS,exp,38,←,left,←,0.5013431999832392,True,10,-1,0,9
Y2-S2-077K20,1,133,AS,exp,41,↓,down,↓,0.4342654002830386,True,10,1,1,10
Y2-S2-077K20,1,134,AS,exp,25,←,left,←,0.7942743999883533,True,9,1,0,10
Y2-S2-077K20,1,135,AS,exp,40,↑,up,↑,0.5344222001731396,True,9,1,0,10
Y2-S2-077K20,1,136,AS,exp,28,←,left,←,0.4198247999884188,True,9,1,0,10
Y2-S2-077K20,1,137,AS,exp,25,→,right,→,0.49468190036714077,True,8,1,0,10
Y2-S2-077K20,1,138,AS,exp,46,↓,down,↓,0.580795300193131,True,8,1,0,10
Y2-S2-077K20,1,139,AS,exp,33,→,left,←,0.5328120002523065,False,8,-1,1,11
Y2-S2-077K20,1,140,AS,exp,48,←,right,→,0.5978382001630962,False,9,-1,0,11
Y2-S2-077K20,1,141,AS,exp,48,↑,left,←,1.1306212996132672,False,10,-1,0,11
Y2-S2-077K20,1,142,AS,exp,47,→,left,←,0.6784041998907924,False,11,-1,0,11
Y2-S2-077K20,1,143,AS,exp,50,←,left,←,0.5953538999892771,True,12,-1,0,11
Y2-S2-077K20,1,144,AS,exp,41,→,left,←,1.126692300196737,False,12,-1,0,11
Y2-S2-077K20,1,145,AS,exp,35,↑,up,↑,0.646028499584645,True,13,-1,0,11
Y2-S2-077K20,1,146,AS,exp,50,→,left,←,0.6862258999608457,False,13,-1,0,11
Y2-S2-077K20,1,147,AS,exp,27,←,left,←,0.5456404997967184,True,14,-1,0,11
Y2-S2-077K20,1,148,AS,exp,25,↓,up,↑,0.686465899925679,False,14,-1,0,11
Y2-S2-077K20,1,149,AS,exp,33,←,left,←,0.6896656001918018,True,15,-1,0,11
Y2-S2-077K20,1,150,AS,exp,36,↓,down,↓,0.6083312998525798,True,15,-1,0,11
Y2-S2-077K20,1,151,AS,exp,44,→,left,←,0.6116480999626219,False,15,-1,0,11
Y2-S2-077K20,1,152,AS,exp,30,←,left,←,0.4960221000947058,True,16,-1,0,11
Y2-S2-077K20,1,153,AS,exp,42,↑,up,↑,0.9404305997304618,True,16,-1,0,11
Y2-S2-077K20,1,154,AS,exp,39,←,up,↑,1.0622248002327979,False,16,-1,0,11
Y2-S2-077K20,1,155,AS,exp,34,↓,down,↓,0.8308089999482036,True,17,-1,0,11
Y2-S2-077K20,1,156,AS,exp,29,↑,up,↑,0.8175192000344396,True,17,-1,0,11
Y2-S2-077K20,1,157,AS,exp,35,→,right,→,0.46138149965554476,True,17,1,1,12
Y2-S2-077K20,1,158,AS,exp,41,↑,right,→,0.9278739998117089,False,16,-1,1,13
Y2-S2-077K20,1,159,AS,exp,25,←,up,↑,0.7159194000996649,False,17,-1,0,13
Y2-S2-077K20,1,160,AS,exp,27,↑,up,↑,0.7347803004086018,True,18,-1,0,13
Y2-S2-077K20,1,161,AS,exp,29,→,right,→,0.7129146000370383,True,18,-1,0,13
Y2-S2-077K20,1,162,AS,exp,48,↑,up,↑,0.48610749980434775,True,18,1,1,14
Y2-S2-077K20,1,163,AS,exp,45,↓,down,↓,0.8580781002528965,True,17,1,0,14
Y2-S2-077K20,1,164,AS,exp,41,↑,up,↑,0.6210063002072275,True,17,1,0,14
Y2-S2-077K20,1,165,AS,exp,33,←,left,←,0.796866400167346,True,17,1,0,14
Y2-S2-077K20,1,166,AS,exp,43,↑,up,↑,0.6203459999524057,True,16,1,0,14
Y2-S2-077K20,1,167,AS,exp,42,→,right,→,0.6326792999170721,True,16,1,0,14
Y2-S2-077K20,1,168,AS,exp,27,↑,up,↑,0.5192526001483202,True,16,1,0,14
Y2-S2-077K20,1,169,AS,exp,27,←,no_key,no_letter,-1.0,False,15,-1,1,15
Y2-S2-077K20,1,170,AS,exp,29,↓,down,↓,0.8735930998809636,True,16,-1,0,15
Y2-S2-077K20,1,171,AS,exp,49,←,left,←,0.47568760020658374,True,16,-1,0,15
Y2-S2-077K20,1,172,AS,exp,46,↑,up,↑,0.7511362000368536,True,16,1,1,16
Y2-S2-077K20,2,173,PS,intra_train,37,←,right,→,0.8391986000351608,False,15,-,-,-
Y2-S2-077K20,2,174,PS,intra_train,50,→,down,↓,1.6035993001423776,False,15,-,-,-
Y2-S2-077K20,2,175,PS,intra_train,39,←,left,←,0.5652629001997411,True,15,-,-,-
Y2-S2-077K20,2,176,PS,intra_train,38,→,left,←,0.7237672000192106,False,15,-,-,-
Y2-S2-077K20,2,177,PS,intra_train,50,↑,up,↑,0.49849609984084964,True,15,-,-,-
Y2-S2-077K20,2,178,PS,exp,35,←,left,←,0.5149340000934899,True,10,0,0,0
Y2-S2-077K20,2,179,PS,exp,29,→,right,→,0.6457803002558649,True,10,0,0,0
Y2-S2-077K20,2,180,PS,exp,31,↑,up,↑,0.4468397996388376,True,10,1,0,0
Y2-S2-077K20,2,181,PS,exp,46,→,right,→,0.774348100181669,True,9,1,0,0
Y2-S2-077K20,2,182,PS,exp,46,↑,up,↑,0.44562159990891814,True,9,1,0,0
Y2-S2-077K20,2,183,PS,exp,38,←,left,←,0.38625079998746514,True,9,1,0,0
Y2-S2-077K20,2,184,PS,exp,29,→,right,→,0.43281849985942245,True,8,1,0,0
Y2-S2-077K20,2,185,PS,exp,34,↓,down,↓,0.9884470999240875,True,8,1,0,0
Y2-S2-077K20,2,186,PS,exp,28,↑,right,→,0.6811915999278426,False,8,-1,1,1
Y2-S2-077K20,2,187,PS,exp,33,→,right,→,0.48264179984107614,True,9,-1,0,1
Y2-S2-077K20,2,188,PS,exp,36,←,right,→,0.75359410000965,False,9,-1,0,1
Y2-S2-077K20,2,189,PS,exp,44,→,right,→,0.49625630024820566,True,10,-1,0,1
Y2-S2-077K20,2,190,PS,exp,37,↑,up,↑,0.7100889999419451,True,10,-1,0,1
Y2-S2-077K20,2,191,PS,exp,41,←,right,→,0.8890303000807762,False,10,-1,0,1
Y2-S2-077K20,2,192,PS,exp,38,↓,up,↑,0.7838805997744203,False,11,-1,0,1
Y2-S2-077K20,2,193,PS,exp,44,→,right,→,0.7850366998463869,True,12,-1,0,1
Y2-S2-077K20,2,194,PS,exp,34,↑,up,↑,1.2346668001264334,True,12,-1,0,1
Y2-S2-077K20,2,195,PS,exp,27,→,right,→,0.48131150007247925,True,12,1,1,2
Y2-S2-077K20,2,196,PS,exp,50,↑,up,↑,0.5472176996991038,True,11,1,0,2
Y2-S2-077K20,2,197,PS,exp,44,←,left,←,0.5156900999136269,True,11,1,0,2
Y2-S2-077K20,2,198,PS,exp,26,→,right,→,0.45924439979717135,True,11,1,0,2
Y2-S2-077K20,2,199,PS,exp,49,←,left,←,0.7821194999851286,True,10,1,0,2
Y2-S2-077K20,2,200,PS,exp,25,→,right,→,0.6309662000276148,True,10,1,0,2
Y2-S2-077K20,2,201,PS,exp,36,↓,left,←,1.2241090000607073,False,10,-1,1,3
Y2-S2-077K20,2,202,PS,exp,38,↑,up,↑,0.5226851003244519,True,11,-1,0,3
Y2-S2-077K20,2,203,PS,exp,37,↓,down,↓,0.7810999001376331,True,11,-1,0,3
Y2-S2-077K20,2,204,PS,exp,38,→,right,→,0.4388977000489831,True,11,1,1,4
Y2-S2-077K20,2,205,PS,exp,33,←,left,←,0.6892621996812522,True,10,1,0,4
Y2-S2-077K20,2,206,PS,exp,41,↑,up,↑,0.44611679995432496,True,10,1,0,4
Y2-S2-077K20,2,207,PS,exp,44,←,left,←,0.4595110001973808,True,10,1,0,4
Y2-S2-077K20,2,208,PS,exp,42,↓,down,↓,0.6727797002531588,True,9,1,0,4
Y2-S2-077K20,2,209,PS,exp,42,→,right,→,0.6032916996628046,True,9,1,0,4
Y2-S2-077K20,2,210,PS,exp,25,↓,down,↓,1.4298417000100017,True,9,1,0,4
Y2-S2-077K20,2,211,PS,exp,32,↑,up,↑,0.8281426997855306,True,8,1,0,4
Y2-S2-077K20,2,212,PS,exp,50,→,right,→,0.5225157998502254,True,8,1,0,4
Y2-S2-077K20,2,213,PS,exp,32,↓,down,↓,0.6244990997947752,True,8,1,0,4
Y2-S2-077K20,2,214,PS,exp,37,↑,up,↑,0.9996698996983469,True,7,1,0,4
Y2-S2-077K20,2,215,PS,exp,31,→,up,↑,0.7578380000777543,False,7,-1,1,5
Y2-S2-077K20,2,216,PS,exp,27,↑,up,↑,0.7364380997605622,True,8,-1,0,5
Y2-S2-077K20,2,217,PS,exp,39,↓,down,↓,0.6645666998811066,True,8,-1,0,5
Y2-S2-077K20,2,218,PS,exp,43,↑,down,↓,0.6591877001337707,False,8,-1,0,5
Y2-S2-077K20,2,219,PS,exp,38,→,left,←,0.7221508999355137,False,9,-1,0,5
Y2-S2-077K20,2,220,PS,exp,32,←,left,←,0.7351736999116838,True,10,-1,0,5
Y2-S2-077K20,2,221,PS,exp,34,→,right,→,0.47891770023852587,True,10,-1,0,5
Y2-S2-077K20,2,222,PS,exp,25,↓,down,↓,0.5572315002791584,True,10,1,1,6
Y2-S2-077K20,2,223,PS,exp,48,←,left,←,0.5390348001383245,True,9,1,0,6
Y2-S2-077K20,2,224,PS,exp,48,→,right,→,0.45183050027117133,True,9,1,0,6
Y2-S2-077K20,2,225,PS,exp,39,↑,up,↑,0.6739790001884103,True,9,1,0,6
Y2-S2-077K20,2,226,PS,exp,35,↓,down,↓,0.6643302999436855,True,8,1,0,6
Y2-S2-077K20,2,227,PS,exp,29,←,left,←,0.6280578998848796,True,8,1,0,6
Y2-S2-077K20,2,228,PS,exp,43,↑,down,↓,0.6603891002014279,False,8,-1,1,7
Y2-S2-077K20,2,229,PS,exp,32,←,left,←,0.46550749987363815,True,9,-1,0,7
Y2-S2-077K20,2,230,PS,exp,39,↑,up,↑,0.8108443999662995,True,9,-1,0,7
Y2-S2-077K20,2,231,PS,exp,40,→,right,→,0.6100273998454213,True,9,1,1,8
Y2-S2-077K20,2,232,PS,exp,38,←,right,→,0.7741903997957706,False,8,-1,1,9
Y2-S2-077K20,2,233,PS,exp,33,↑,up,↑,0.577133399900049,True,9,-1,0,9
Y2-S2-077K20,2,234,PS,exp,35,→,right,→,0.5171320997178555,True,9,-1,0,9
Y2-S2-077K20,2,235,PS,exp,32,←,right,→,0.9140230002813041,False,9,-1,0,9
Y2-S2-077K20,2,236,PS,exp,35,↑,up,↑,0.5433108997531235,True,10,-1,0,9
Y2-S2-077K20,2,237,PS,exp,27,↓,down,↓,0.7668572999536991,True,10,-1,0,9
Y2-S2-077K20,2,238,PS,exp,37,→,right,→,0.5570493000559509,True,10,1,1,10
Y2-S2-077K20,2,239,PS,exp,41,←,left,←,0.4981511998921633,True,9,1,0,10
Y2-S2-077K20,2,240,PS,exp,35,↓,down,↓,0.6159507995471358,True,9,1,0,10
Y2-S2-077K20,2,241,PS,exp,37,→,right,→,0.43655720027163625,True,9,1,0,10
Y2-S2-077K20,2,242,PS,exp,31,↓,down,↓,1.1193018001504242,True,8,1,0,10
Y2-S2-077K20,2,243,PS,exp,35,→,right,→,0.48470359994098544,True,8,1,0,10
Y2-S2-077K20,2,244,PS,exp,50,↓,right,→,0.4842463000677526,False,8,-1,1,11
Y2-S2-077K20,2,245,PS,exp,29,↑,up,↑,0.6614625998772681,True,9,-1,0,11
Y2-S2-077K20,2,246,PS,exp,43,↓,down,↓,0.6098420997150242,True,9,-1,0,11
Y2-S2-077K20,2,247,PS,exp,37,→,right,→,0.5557903000153601,True,9,1,1,12
Y2-S2-077K20,2,248,PS,exp,27,↑,up,↑,0.6719530001282692,True,8,1,0,12
Y2-S2-077K20,2,249,PS,exp,28,←,left,←,0.8793383999727666,True,8,1,0,12
Y2-S2-077K20,2,250,PS,exp,40,→,left,←,0.533332500141114,False,8,-1,1,13
Y2-S2-077K20,2,251,PS,exp,41,↓,down,↓,0.6821393999271095,True,9,-1,0,13
Y2-S2-077K20,2,252,PS,exp,39,←,down,↓,1.5837806998752058,False,9,-1,0,13
Y2-S2-077K20,2,253,PS,exp,50,→,right,→,0.4999551000073552,True,10,-1,0,13
Y2-S2-077K20,2,254,PS,exp,27,↑,left,←,1.3294325000606477,False,10,-1,0,13
Y2-S2-077K20,2,255,PS,exp,27,→,right,→,0.3957197000272572,True,11,-1,0,13
Y2-S2-077K20,2,256,PS,exp,28,↑,left,←,0.5996170002035797,False,11,-1,0,13
Y2-S2-077K20,2,257,PS,exp,29,↓,left,←,0.6281659998930991,False,12,-1,0,13
Y2-S2-077K20,2,258,PS,exp,48,→,right,→,0.3335016001947224,True,13,-1,0,13
Y2-S2-077K20,2,259,PS,exp,39,↓,down,↓,0.7281622001901269,True,13,-1,0,13
Y2-S2-077K20,2,260,PS,exp,42,↑,right,→,0.3339372002519667,False,13,-1,0,13
Y2-S2-077K20,2,261,PS,exp,37,→,right,→,0.7180965002626181,True,14,-1,0,13
Y2-S2-077K20,2,262,PS,exp,38,↓,down,↓,0.7422052999027073,True,14,-1,0,13
Y2-S2-077K20,2,263,PS,exp,47,←,left,←,0.6933157998137176,True,14,1,1,14
Y2-S2-077K20,2,264,PS,exp,36,↑,up,↑,0.81411790009588,True,13,1,0,14
Y2-S2-077K20,2,265,PS,exp,44,→,right,→,0.5668124002404511,True,13,1,0,14
Y2-S2-077K20,2,266,PS,exp,39,↓,left,←,0.5920170997269452,False,13,-1,1,15
Y2-S2-077K20,2,267,PS,exp,35,←,right,→,0.4816056997515261,False,14,-1,0,15
Y2-S2-077K20,2,268,PS,exp,40,→,right,→,0.4942334000952542,True,15,-1,0,15
Y2-S2-077K20,2,269,PS,exp,36,↑,up,↑,0.6672431002371013,True,15,-1,0,15
Y2-S2-077K20,2,270,PS,exp,34,↓,down,↓,0.5570831997320056,True,15,1,1,16
Y2-S2-077K20,3,271,PS,intra_train,47,←,left,←,0.5789940999820828,True,15,-,-,-
Y2-S2-077K20,3,272,PS,intra_train,45,→,right,→,0.5124840000644326,True,15,-,-,-
Y2-S2-077K20,3,273,PS,intra_train,26,↓,left,←,1.2054564002901316,False,15,-,-,-
Y2-S2-077K20,3,274,PS,intra_train,25,↑,up,↑,0.4846691000275314,True,15,-,-,-
Y2-S2-077K20,3,275,PS,intra_train,44,→,right,→,0.449358600191772,True,15,-,-,-
Y2-S2-077K20,3,276,PS,exp,33,↓,left,←,0.9215023000724614,False,10,-1,0,0
Y2-S2-077K20,3,277,PS,exp,31,→,right,→,0.4865592997521162,True,11,-1,0,0
Y2-S2-077K20,3,278,PS,exp,35,↑,up,↑,0.48266740003600717,True,11,-1,0,0
Y2-S2-077K20,3,279,PS,exp,43,→,left,←,1.2468008999712765,False,11,-1,0,0
Y2-S2-077K20,3,280,PS,exp,50,↑,up,↑,0.44186369981616735,True,12,-1,0,0
Y2-S2-077K20,3,281,PS,exp,50,↓,up,↑,0.6509105004370213,False,12,-1,0,0
Y2-S2-077K20,3,282,PS,exp,45,←,left,←,0.47087559988722205,True,13,-1,0,0
Y2-S2-077K20,3,283,PS,exp,28,↓,down,↓,0.5670773000456393,True,13,-1,0,0
Y2-S2-077K20,3,284,PS,exp,36,→,right,→,0.39468260016292334,True,13,1,1,1
Y2-S2-077K20,3,285,PS,exp,38,↑,up,↑,0.4636657000519335,True,12,1,0,1
Y2-S2-077K20,3,286,PS,exp,50,→,right,→,0.663769899867475,True,12,1,0,1
Y2-S2-077K20,3,287,PS,exp,47,←,left,←,0.4062684001401067,True,12,1,0,1
Y2-S2-077K20,3,288,PS,exp,38,→,right,→,0.44578150007873774,True,11,1,0,1
Y2-S2-077K20,3,289,PS,exp,27,←,left,←,0.5247138002887368,True,11,1,0,1
Y2-S2-077K20,3,290,PS,exp,41,↓,right,→,0.6814465997740626,False,11,-1,1,2
Y2-S2-077K20,3,291,PS,exp,43,←,left,←,0.48188009997829795,True,12,-1,0,2
Y2-S2-077K20,3,292,PS,exp,40,↑,right,→,0.7370857000350952,False,12,-1,0,2
Y2-S2-077K20,3,293,PS,exp,38,→,right,→,0.40106619987636805,True,13,-1,0,2
Y2-S2-077K20,3,294,PS,exp,43,↑,up,↑,0.5276387999765575,True,13,-1,0,2
Y2-S2-077K20,3,295,PS,exp,47,←,left,←,0.5963476998731494,True,13,1,1,3
Y2-S2-077K20,3,296,PS,exp,49,↑,up,↑,0.4927931004203856,True,12,1,0,3
Y2-S2-077K20,3,297,PS,exp,40,←,right,→,0.5218154001049697,False,12,-1,1,4
Y2-S2-077K20,3,298,PS,exp,49,↑,up,↑,0.5764792999252677,True,13,-1,0,4
Y2-S2-077K20,3,299,PS,exp,35,↓,down,↓,0.5116822998970747,True,13,-1,0,4
Y2-S2-077K20,3,300,PS,exp,28,→,right,→,0.41027599992230535,True,13,1,1,5
Y2-S2-077K20,3,301,PS,exp,28,↑,up,↑,0.41375700011849403,True,12,1,0,5
Y2-S2-077K20,3,302,PS,exp,29,↓,down,↓,0.5347208003513515,True,12,1,0,5
Y2-S2-077K20,3,303,PS,exp,37,→,right,→,0.4436612999998033,True,12,1,0,5
Y2-S2-077K20,3,304,PS,exp,47,↓,up,↑,0.7206860999576747,False,11,-1,1,6
Y2-S2-077K20,3,305,PS,exp,26,↑,up,↑,0.40334840025752783,True,12,-1,0,6
Y2-S2-077K20,3,306,PS,exp,43,→,right,→,0.4437061999924481,True,12,-1,0,6
Y2-S2-077K20,3,307,PS,exp,41,←,up,↑,0.7723556999117136,False,12,-1,0,6
Y2-S2-077K20,3,308,PS,exp,38,→,right,→,0.4557839999906719,True,13,-1,0,6
Y2-S2-077K20,3,309,PS,exp,29,←,left,←,0.4315434996969998,True,13,-1,0,6
Y2-S2-077K20,3,310,PS,exp,50,↑,up,↑,0.4532415997236967,True,13,1,1,7
Y2-S2-077K20,3,311,PS,exp,49,↓,right,→,0.4962577000260353,False,12,-1,1,8
Y2-S2-077K20,3,312,PS,exp,35,→,right,→,0.4235690999776125,True,13,-1,0,8
Y2-S2-077K20,3,313,PS,exp,28,↓,down,↓,0.6326361000537872,True,13,-1,0,8
Y2-S2-077K20,3,314,PS,exp,29,←,right,→,0.8133771000429988,False,13,-1,0,8
Y2-S2-077K20,3,315,PS,exp,33,↓,no_key,no_letter,-1.0,False,14,-1,0,8
Y2-S2-077K20,3,316,PS,exp,43,→,right,→,0.4666944001801312,True,15,-1,0,8
Y2-S2-077K20,3,317,PS,exp,47,↑,up,↑,0.4648696002550423,True,15,-1,0,8
Y2-S2-077K20,3,318,PS,exp,35,↓,no_key,no_letter,-1.0,False,15,-1,0,8
Y2-S2-077K20,3,319,PS,exp,36,→,right,→,0.4399858000688255,True,16,-1,0,8
Y2-S2-077K20,3,320,PS,exp,32,↓,no_key,no_letter,-1.0,False,16,-1,0,8
Y2-S2-077K20,3,321,PS,exp,44,↑,up,↑,0.4821450002491474,True,17,-1,0,8
Y2-S2-077K20,3,322,PS,exp,49,→,right,→,0.5816959999501705,True,17,-1,0,8
Y2-S2-077K20,3,323,PS,exp,34,↓,down,↓,0.6705527002923191,True,17,1,1,9
Y2-S2-077K20,3,324,PS,exp,37,→,no_key,no_letter,-1.0,False,16,-1,1,10
Y2-S2-077K20,3,325,PS,exp,26,↓,down,↓,0.4786275001242757,True,17,-1,0,10
Y2-S2-077K20,3,326,PS,exp,31,↑,down,↓,0.6515416000038385,False,17,-1,0,10
Y2-S2-077K20,3,327,PS,exp,25,→,right,→,0.40043169958516955,True,18,-1,0,10
Y2-S2-077K20,3,328,PS,exp,44,←,left,←,0.4871008996851742,True,18,-1,0,10
Y2-S2-077K20,3,329,PS,exp,30,→,right,→,0.5915965996682644,True,18,1,1,11
Y2-S2-077K20,3,330,PS,exp,41,↑,up,↑,0.5781926000490785,True,17,1,0,11
Y2-S2-077K20,3,331,PS,exp,44,↓,right,→,0.3509903000667691,False,17,-1,1,12
Y2-S2-077K20,3,332,PS,exp,26,↑,up,↑,1.3694288996048272,True,18,-1,0,12
Y2-S2-077K20,3,333,PS,exp,25,↓,down,↓,0.48576630000025034,True,18,-1,0,12
Y2-S2-077K20,3,334,PS,exp,44,→,right,→,0.4176094001159072,True,18,1,1,13
Y2-S2-077K20,3,335,PS,exp,33,↑,left,←,0.8835122999735177,False,17,-1,1,14
Y2-S2-077K20,3,336,PS,exp,38,↓,down,↓,0.49014140013605356,True,18,-1,0,14
Y2-S2-077K20,3,337,PS,exp,50,←,down,↓,0.47058189986273646,False,18,-1,0,14
Y2-S2-077K20,3,338,PS,exp,39,→,right,→,0.4334145998582244,True,19,-1,0,14
Y2-S2-077K20,3,339,PS,exp,27,←,left,←,0.689062399789691,True,19,-1,0,14
Y2-S2-077K20,3,340,PS,exp,49,↓,no_key,no_letter,-1.0,False,19,-1,0,14
Y2-S2-077K20,3,341,PS,exp,40,←,left,←,0.5494273998774588,True,20,-1,0,14
Y2-S2-077K20,3,342,PS,exp,48,→,no_key,no_letter,-1.0,False,20,-1,0,14
Y2-S2-077K20,3,343,PS,exp,50,←,left,←,0.6604117997922003,True,21,-1,0,14
Y2-S2-077K20,3,344,PS,exp,44,↓,down,↓,0.6365869999863207,True,21,-1,0,14
Y2-S2-077K20,3,345,PS,exp,35,→,right,→,0.5276816999539733,True,21,1,1,15
Y2-S2-077K20,3,346,PS,exp,39,←,left,←,0.527422399725765,True,20,1,0,15
Y2-S2-077K20,3,347,PS,exp,35,→,right,→,0.45080790016800165,True,20,1,0,15
Y2-S2-077K20,3,348,PS,exp,47,↓,down,↓,0.5487714000046253,True,20,1,0,15
Y2-S2-077K20,3,349,PS,exp,30,→,right,→,0.5526562002487481,True,19,1,0,15
Y2-S2-077K20,3,350,PS,exp,26,←,left,←,0.5770998001098633,True,19,1,0,15
Y2-S2-077K20,3,351,PS,exp,46,↓,down,↓,0.5010847002267838,True,19,1,0,15
Y2-S2-077K20,3,352,PS,exp,33,→,right,→,0.49522490007802844,True,18,1,0,15
Y2-S2-077K20,3,353,PS,exp,44,↓,down,↓,0.5283912001177669,True,18,1,0,15
Y2-S2-077K20,3,354,PS,exp,48,←,left,←,0.43411509972065687,True,18,1,0,15
Y2-S2-077K20,3,355,PS,exp,33,↑,up,↑,1.3005049000494182,True,17,1,0,15
Y2-S2-077K20,3,356,PS,exp,31,→,right,→,0.5131938997656107,True,17,1,0,15
Y2-S2-077K20,3,357,PS,exp,38,←,left,←,1.570284000132233,True,17,1,0,15
Y2-S2-077K20,3,358,PS,exp,49,↓,down,↓,1.019195799715817,True,16,1,0,15
Y2-S2-077K20,3,359,PS,exp,44,↑,up,↑,0.49351719999685884,True,16,1,0,15
Y2-S2-077K20,3,360,PS,exp,47,→,right,→,0.4644281999208033,True,16,1,0,15
Y2-S2-077K20,3,361,PS,exp,32,↑,up,↑,0.5091444998979568,True,15,1,0,15
Y2-S2-077K20,3,362,PS,exp,33,↓,down,↓,0.5848296997137368,True,15,1,0,15
Y2-S2-077K20,3,363,PS,exp,43,↑,up,↑,0.4830232998356223,True,15,1,0,15
Y2-S2-077K20,3,364,PS,exp,41,←,left,←,1.1782428999431431,True,14,1,0,15
Y2-S2-077K20,3,365,PS,exp,46,↑,up,↑,0.447575599886477,True,14,1,0,15
Y2-S2-077K20,3,366,PS,exp,35,↓,down,↓,0.5003852001391351,True,14,1,0,15
Y2-S2-077K20,3,367,PS,exp,48,→,right,→,0.39000899996608496,True,13,1,0,15
Y2-S2-077K20,3,368,PS,exp,48,↑,up,↑,0.4627829999662936,True,13,1,0,15
Y2-S2-077K20,3,369,PS,exp,36,→,right,→,0.48622879991307855,True,13,1,0,15
Y2-S2-077K20,3,370,PS,exp,29,↑,up,↑,0.720212200190872,True,12,1,0,15
Y2-S2-077K20,3,371,PS,exp,30,→,right,→,0.6634542997926474,True,12,1,0,15
Y2-S2-077K20,3,372,PS,exp,37,←,left,←,0.5128480000421405,True,12,1,0,15
Y2-S2-077K20,3,373,PS,exp,32,↓,down,↓,0.499297299887985,True,11,1,0,15
Y2-S2-077K20,3,374,PS,exp,40,→,right,→,0.5383701999671757,True,11,1,0,15
Y2-S2-077K20,3,375,PS,exp,36,↓,down,↓,0.5639833998866379,True,11,1,0,15
Y2-S2-077K20,3,376,PS,exp,43,→,right,→,0.8019265998154879,True,10,1,0,15
Y2-S2-077K20,3,377,PS,exp,45,↑,up,↑,0.5178852002136409,True,10,1,0,15
Y2-S2-077K20,3,378,PS,exp,46,↓,down,↓,0.47439480014145374,True,10,1,0,15
Y2-S2-077K20,3,379,PS,exp,44,↑,down,↓,0.6888553001917899,False,9,-1,1,16
Y2-S2-077K20,4,380,AS,intra_train,42,→,left,←,1.1585451001301408,False,24,-,-,-
Y2-S2-077K20,4,381,AS,intra_train,44,←,left,←,0.5172897996380925,True,24,-,-,-
Y2-S2-077K20,4,382,AS,intra_train,35,↑,up,↑,0.4174100998789072,True,24,-,-,-
Y2-S2-077K20,4,383,AS,intra_train,32,←,left,←,0.4003767999820411,True,24,-,-,-
Y2-S2-077K20,4,384,AS,intra_train,34,↓,down,↓,0.450511600356549,True,24,-,-,-
Y2-S2-077K20,4,385,AS,exp,46,→,right,→,0.4007258997298777,True,16,0,0,0
Y2-S2-077K20,4,386,AS,exp,36,↓,up,↑,1.6956513999029994,False,16,-1,0,0
Y2-S2-077K20,4,387,AS,exp,34,→,right,→,0.5962368999607861,True,17,-1,0,0
Y2-S2-077K20,4,388,AS,exp,34,↑,up,↑,0.6257063997909427,True,17,-1,0,0
Y2-S2-077K20,4,389,AS,exp,49,↓,down,↓,0.6245991000905633,True,17,1,1,1
Y2-S2-077K20,4,390,AS,exp,35,←,left,←,0.7096142000518739,True,16,1,0,1
Y2-S2-077K20,4,391,AS,exp,25,→,right,→,0.5590877998620272,True,16,1,0,1
Y2-S2-077K20,4,392,AS,exp,49,←,left,←,1.36966980015859,True,16,1,0,1
Y2-S2-077K20,4,393,AS,exp,38,↓,down,↓,0.7184923999011517,True,15,1,0,1
Y2-S2-077K20,4,394,AS,exp,39,←,left,←,1.6575509998947382,True,15,1,0,1
Y2-S2-077K20,4,395,AS,exp,48,→,right,→,0.8464160999283195,True,15,1,0,1
Y2-S2-077K20,4,396,AS,exp,33,←,left,←,0.9449598998762667,True,14,1,0,1
Y2-S2-077K20,4,397,AS,exp,40,↓,down,↓,0.5411016000434756,True,14,1,0,1
Y2-S2-077K20,4,398,AS,exp,40,→,right,→,0.40212340001016855,True,14,1,0,1
Y2-S2-077K20,4,399,AS,exp,36,↑,down,↓,0.6671846997924149,False,13,-1,1,2
Y2-S2-077K20,4,400,AS,exp,29,↓,down,↓,0.5815550000406802,True,14,-1,0,2
Y2-S2-077K20,4,401,AS,exp,25,→,down,↓,1.1778313997201622,False,14,-1,0,2
Y2-S2-077K20,4,402,AS,exp,44,↓,left,←,0.7259760000742972,False,15,-1,0,2
Y2-S2-077K20,4,403,AS,exp,38,←,no_key,no_letter,-1.0,False,16,-1,0,2
Y2-S2-077K20,4,404,AS,exp,32,↑,no_key,no_letter,-1.0,False,17,-1,0,2
Y2-S2-077K20,4,405,AS,exp,28,↓,down,↓,0.5622715000063181,True,18,-1,0,2
Y2-S2-077K20,4,406,AS,exp,39,→,right,→,0.6097022998146713,True,18,-1,0,2
Y2-S2-077K20,4,407,AS,exp,27,↓,down,↓,0.5583830997347832,True,18,1,1,3
Y2-S2-077K20,4,408,AS,exp,40,→,no_key,no_letter,-1.0,False,17,-1,1,4
Y2-S2-077K20,4,409,AS,exp,47,↑,up,↑,0.9451812002807856,True,18,-1,0,4
Y2-S2-077K20,4,410,AS,exp,48,←,left,←,0.5686738002113998,True,18,-1,0,4
Y2-S2-077K20,4,411,AS,exp,26,→,right,→,0.5193698001094162,True,18,1,1,5
Y2-S2-077K20,4,412,AS,exp,41,←,no_key,no_letter,-1.0,False,17,-1,1,6
Y2-S2-077K20,4,413,AS,exp,37,↑,up,↑,0.4776116004213691,True,18,-1,0,6
Y2-S2-077K20,4,414,AS,exp,37,←,left,←,0.4915550001896918,True,18,-1,0,6
Y2-S2-077K20,4,415,AS,exp,46,→,right,→,0.4874001001007855,True,18,1,1,7
Y2-S2-077K20,4,416,AS,exp,30,←,right,→,0.552335700020194,False,17,-1,1,8
Y2-S2-077K20,4,417,AS,exp,42,↓,down,↓,0.9275067998096347,True,18,-1,0,8
Y2-S2-077K20,4,418,AS,exp,43,↑,up,↑,0.5896790996193886,True,18,-1,0,8
Y2-S2-077K20,4,419,AS,exp,33,←,left,←,0.6680638999678195,True,18,1,1,9
Y2-S2-077K20,4,420,AS,exp,50,→,right,→,0.7163368002511561,True,17,1,0,9
Y2-S2-077K20,4,421,AS,exp,33,↓,down,↓,0.5332788000814617,True,17,1,0,9
Y2-S2-077K20,4,422,AS,exp,33,↑,up,↑,0.40089880023151636,True,17,1,0,9
Y2-S2-077K20,4,423,AS,exp,42,→,right,→,1.2177996998652816,True,16,1,0,9
Y2-S2-077K20,4,424,AS,exp,42,↑,up,↑,0.926772499922663,True,16,1,0,9
Y2-S2-077K20,4,425,AS,exp,25,←,right,→,0.4419614002108574,False,16,-1,1,10
Y2-S2-077K20,4,426,AS,exp,50,↓,down,↓,0.4770031999796629,True,17,-1,0,10
Y2-S2-077K20,4,427,AS,exp,29,↑,up,↑,0.6368962000124156,True,17,-1,0,10
Y2-S2-077K20,4,428,AS,exp,37,↓,down,↓,0.819841000251472,True,17,1,1,11
Y2-S2-077K20,4,429,AS,exp,33,↑,up,↑,0.5021828999742866,True,16,1,0,11
Y2-S2-077K20,4,430,AS,exp,32,↓,up,↑,0.7376647996716201,False,16,-1,1,12
Y2-S2-077K20,4,431,AS,exp,37,←,up,↑,0.7220363998785615,False,17,-1,0,12
Y2-S2-077K20,4,432,AS,exp,46,→,right,→,0.7214925996959209,True,18,-1,0,12
Y2-S2-077K20,4,433,AS,exp,43,↑,up,↑,0.7078726002946496,True,18,-1,0,12
Y2-S2-077K20,4,434,AS,exp,38,→,up,↑,0.5798349999822676,False,18,-1,0,12
Y2-S2-077K20,4,435,AS,exp,29,↓,down,↓,0.509897000156343,True,19,-1,0,12
Y2-S2-077K20,4,436,AS,exp,35,←,left,←,0.7813797001726925,True,19,-1,0,12
Y2-S2-077K20,4,437,AS,exp,26,→,right,→,0.7094175000675023,True,19,1,1,13
Y2-S2-077K20,4,438,AS,exp,25,←,left,←,0.8062816001474857,True,18,1,0,13
Y2-S2-077K20,4,439,AS,exp,42,↓,down,↓,0.7443246999755502,True,18,1,0,13
Y2-S2-077K20,4,440,AS,exp,44,→,right,→,1.421693000011146,True,18,1,0,13
Y2-S2-077K20,4,441,AS,exp,41,←,left,←,0.3675354002043605,True,17,1,0,13
Y2-S2-077K20,4,442,AS,exp,37,↑,up,↑,0.532935299910605,True,17,1,0,13
Y2-S2-077K20,4,443,AS,exp,42,↓,down,↓,0.6234476999379694,True,17,1,0,13
Y2-S2-077K20,4,444,AS,exp,42,↑,up,↑,0.5161991999484599,True,16,1,0,13
Y2-S2-077K20,4,445,AS,exp,36,↓,up,↑,0.7063311003148556,False,16,-1,1,14
Y2-S2-077K20,4,446,AS,exp,46,↑,up,↑,0.5765621997416019,True,17,-1,0,14
Y2-S2-077K20,4,447,AS,exp,26,←,down,↓,0.7579521997831762,False,17,-1,0,14
Y2-S2-077K20,4,448,AS,exp,34,↓,down,↓,0.680437000002712,True,18,-1,0,14
Y2-S2-077K20,4,449,AS,exp,46,←,left,←,0.6419357997365296,True,18,-1,0,14
Y2-S2-077K20,4,450,AS,exp,35,→,right,→,0.6511268001049757,True,18,1,1,15
Y2-S2-077K20,4,451,AS,exp,47,↑,up,↑,0.4509653002023697,True,17,1,0,15
Y2-S2-077K20,4,452,AS,exp,46,←,no_key,no_letter,-1.0,False,17,-1,1,16
Y2-S2-077K20,5,453,AS,intra_train,27,↓,down,↓,0.45048379991203547,True,24,-,-,-
Y2-S2-077K20,5,454,AS,intra_train,25,←,left,←,0.40057669999077916,True,24,-,-,-
Y2-S2-077K20,5,455,AS,intra_train,38,→,right,→,0.4174342998303473,True,24,-,-,-
Y2-S2-077K20,5,456,AS,intra_train,37,↑,up,↑,0.4171457998454571,True,24,-,-,-
Y2-S2-077K20,5,457,AS,intra_train,30,↓,down,↓,0.5009862002916634,True,24,-,-,-
Y2-S2-077K20,5,458,AS,exp,49,↑,up,↑,0.44519879994913936,True,16,0,0,0
Y2-S2-077K20,5,459,AS,exp,29,↓,down,↓,0.55927349999547,True,16,0,0,0
Y2-S2-077K20,5,460,AS,exp,44,←,up,↑,0.7067594998516142,False,16,-1,0,0
Y2-S2-077K20,5,461,AS,exp,35,→,right,→,0.40027610026299953,True,17,-1,0,0
Y2-S2-077K20,5,462,AS,exp,31,↓,down,↓,0.45407589990645647,True,17,-1,0,0
Y2-S2-077K20,5,463,AS,exp,31,→,right,→,0.490230199880898,True,17,1,1,1
Y2-S2-077K20,5,464,AS,exp,45,←,down,↓,0.5702418000437319,False,16,-1,1,2
Y2-S2-077K20,5,465,AS,exp,38,→,left,←,0.5531403999775648,False,17,-1,0,2
Y2-S2-077K20,5,466,AS,exp,39,↓,down,↓,0.5206185998395085,True,18,-1,0,2
Y2-S2-077K20,5,467,AS,exp,38,→,right,→,1.29264170024544,True,18,-1,0,2
Y2-S2-077K20,5,468,AS,exp,46,↓,down,↓,0.49208940006792545,True,18,1,1,3
Y2-S2-077K20,5,469,AS,exp,45,←,left,←,0.46923459973186255,True,17,1,0,3
Y2-S2-077K20,5,470,AS,exp,43,→,right,→,0.5259322999045253,True,17,1,0,3
Y2-S2-077K20,5,471,AS,exp,37,↑,up,↑,0.49636510014533997,True,17,1,0,3
Y2-S2-077K20,5,472,AS,exp,49,←,left,←,0.6464441996067762,True,16,1,0,3
Y2-S2-077K20,5,473,AS,exp,38,→,right,→,0.5174384000711143,True,16,1,0,3
Y2-S2-077K20,5,474,AS,exp,28,←,left,←,0.48093399964272976,True,16,1,0,3
Y2-S2-077K20,5,475,AS,exp,46,↓,down,↓,0.47795919980853796,True,15,1,0,3
Y2-S2-077K20,5,476,AS,exp,37,→,right,→,0.6139833997003734,True,15,1,0,3
Y2-S2-077K20,5,477,AS,exp,37,←,left,←,0.7670959001407027,True,15,1,0,3
Y2-S2-077K20,5,478,AS,exp,49,→,left,←,0.6061329999938607,False,14,-1,1,4
Y2-S2-077K20,5,479,AS,exp,50,↑,down,↓,0.5891002998687327,False,15,-1,0,4
Y2-S2-077K20,5,480,AS,exp,44,↓,no_key,no_letter,-1.0,False,16,-1,0,4
Y2-S2-077K20,5,481,AS,exp,26,↑,up,↑,0.6819123001769185,True,17,-1,0,4
Y2-S2-077K20,5,482,AS,exp,28,←,left,←,0.4839733997359872,True,17,-1,0,4
Y2-S2-077K20,5,483,AS,exp,27,↓,down,↓,0.5184303997084498,True,17,1,1,5
Y2-S2-077K20,5,484,AS,exp,47,←,left,←,0.6880325996316969,True,16,1,0,5
Y2-S2-077K20,5,485,AS,exp,35,→,no_key,no_letter,-1.0,False,16,-1,1,6
Y2-S2-077K20,5,486,AS,exp,34,↓,down,↓,0.647745099849999,True,17,-1,0,6
Y2-S2-077K20,5,487,AS,exp,42,←,left,←,0.6412749998271465,True,17,-1,0,6
Y2-S2-077K20,5,488,AS,exp,29,→,right,→,0.5223799999803305,True,17,1,1,7
Y2-S2-077K20,5,489,AS,exp,34,↑,up,↑,0.7165192998945713,True,16,1,0,7
Y2-S2-077K20,5,490,AS,exp,38,↓,up,↑,0.9562264000996947,False,16,-1,1,8
Y2-S2-077K20,5,491,AS,exp,27,→,right,→,0.5616260999813676,True,17,-1,0,8
Y2-S2-077K20,5,492,AS,exp,45,↑,up,↑,0.5883177001960576,True,17,-1,0,8
Y2-S2-077K20,5,493,AS,exp,28,→,up,↑,0.5772849996574223,False,17,-1,0,8
Y2-S2-077K20,5,494,AS,exp,38,↑,up,↑,0.5072277002036572,True,18,-1,0,8
Y2-S2-077K20,5,495,AS,exp,42,→,right,→,0.7884700000286102,True,18,-1,0,8
Y2-S2-077K20,5,496,AS,exp,37,↑,up,↑,0.49280419992282987,True,18,1,1,9
Y2-S2-077K20,5,497,AS,exp,38,←,left,←,0.45731830038130283,True,17,1,0,9
Y2-S2-077K20,5,498,AS,exp,35,↑,up,↑,0.5859981998801231,True,17,1,0,9
Y2-S2-077K20,5,499,AS,exp,27,↓,down,↓,1.010366200003773,True,17,1,0,9
Y2-S2-077K20,5,500,AS,exp,32,→,right,→,1.4276128001511097,True,16,1,0,9
Y2-S2-077K20,5,501,AS,exp,47,↓,down,↓,0.4701692000962794,True,16,1,0,9
Y2-S2-077K20,5,502,AS,exp,43,←,left,←,0.4694983996450901,True,16,1,0,9
Y2-S2-077K20,5,503,AS,exp,42,→,no_key,no_letter,-1.0,False,15,-1,1,10
Y2-S2-077K20,5,504,AS,exp,41,←,left,←,0.6798568000085652,True,16,-1,0,10
Y2-S2-077K20,5,505,AS,exp,42,→,right,→,0.4409006000496447,True,16,-1,0,10
Y2-S2-077K20,5,506,AS,exp,37,↓,left,←,0.961196199990809,False,16,-1,0,10
Y2-S2-077K20,5,507,AS,exp,30,↑,up,↑,0.6583517999388278,True,17,-1,0,10
Y2-S2-077K20,5,508,AS,exp,30,↓,down,↓,0.7553761997260153,True,17,-1,0,10
Y2-S2-077K20,5,509,AS,exp,46,←,left,←,0.5476201996207237,True,17,1,1,11
Y2-S2-077K20,5,510,AS,exp,32,↓,down,↓,0.651029400061816,True,16,1,0,11
Y2-S2-077K20,5,511,AS,exp,44,→,left,←,0.6337564000859857,False,16,-1,1,12
Y2-S2-077K20,5,512,AS,exp,35,↓,left,←,0.8077178997918963,False,17,-1,0,12
Y2-S2-077K20,5,513,AS,exp,41,→,down,↓,0.6617085998877883,False,18,-1,0,12
Y2-S2-077K20,5,514,AS,exp,46,←,left,←,0.4503775001503527,True,19,-1,0,12
Y2-S2-077K20,5,515,AS,exp,43,↓,down,↓,0.6073085004463792,True,19,-1,0,12
Y2-S2-077K20,5,516,AS,exp,27,←,left,←,1.1531021003611386,True,19,1,1,13
Y2-S2-077K20,5,517,AS,exp,49,→,right,→,0.6527668000198901,True,18,1,0,13
Y2-S2-077K20,5,518,AS,exp,36,←,left,←,0.4741786001250148,True,18,1,0,13
Y2-S2-077K20,5,519,AS,exp,38,→,right,→,0.43368689995259047,True,18,1,0,13
Y2-S2-077K20,5,520,AS,exp,35,←,no_key,no_letter,-1.0,False,17,-1,1,14
Y2-S2-077K20,5,521,AS,exp,42,↑,up,↑,0.8498637997545302,True,18,-1,0,14
Y2-S2-077K20,5,522,AS,exp,44,→,right,→,0.561970999930054,True,18,-1,0,14
Y2-S2-077K20,5,523,AS,exp,39,↓,down,↓,0.6290093003772199,True,18,1,1,15
Y2-S2-077K20,5,524,AS,exp,38,←,left,←,0.8482023999094963,True,17,1,0,15
Y2-S2-077K20,5,525,AS,exp,40,↓,down,↓,0.5513505004346371,True,17,1,0,15
Y2-S2-077K20,5,526,AS,exp,32,↑,up,↑,0.5868385001085699,True,17,1,0,15
Y2-S2-077K20,5,527,AS,exp,32,←,left,←,1.299398799892515,True,16,1,0,15
Y2-S2-077K20,5,528,AS,exp,45,↓,left,←,0.8939257999882102,False,16,-1,1,16
Y2-S2-077K20,6,529,PS,intra_train,40,←,left,←,0.49145770026370883,True,15,-,-,-
Y2-S2-077K20,6,530,PS,intra_train,47,↓,right,→,0.6669644000940025,False,15,-,-,-
Y2-S2-077K20,6,531,PS,intra_train,37,→,right,→,0.43834539968520403,True,15,-,-,-
Y2-S2-077K20,6,532,PS,intra_train,30,←,left,←,0.48674590000882745,True,15,-,-,-
Y2-S2-077K20,6,533,PS,intra_train,45,↑,up,↑,0.43881330033764243,True,15,-,-,-
Y2-S2-077K20,6,534,PS,exp,34,↓,right,→,0.5988230998627841,False,10,-1,0,0
Y2-S2-077K20,6,535,PS,exp,50,←,left,←,0.49960089987143874,True,11,-1,0,0
Y2-S2-077K20,6,536,PS,exp,26,↑,up,↑,0.49428809992969036,True,11,-1,0,0
Y2-S2-077K20,6,537,PS,exp,31,↓,down,↓,0.5960185001604259,True,11,1,1,1
Y2-S2-077K20,6,538,PS,exp,36,←,right,→,0.5792485000565648,False,10,-1,1,2
Y2-S2-077K20,6,539,PS,exp,31,↑,up,↑,0.4533617999404669,True,11,-1,0,2
Y2-S2-077K20,6,540,PS,exp,48,↓,down,↓,0.597802700009197,True,11,-1,0,2
Y2-S2-077K20,6,541,PS,exp,25,↑,up,↑,0.5306720002554357,True,11,1,1,3
Y2-S2-077K20,6,542,PS,exp,40,←,left,←,0.48301969980821013,True,10,1,0,3
Y2-S2-077K20,6,543,PS,exp,34,↓,down,↓,0.6228294996544719,True,10,1,0,3
Y2-S2-077K20,6,544,PS,exp,25,→,right,→,0.46735179983079433,True,10,1,0,3
Y2-S2-077K20,6,545,PS,exp,38,←,left,←,0.4918506001122296,True,9,1,0,3
Y2-S2-077K20,6,546,PS,exp,35,→,right,→,0.449494699947536,True,9,1,0,3
Y2-S2-077K20,6,547,PS,exp,39,←,left,←,0.5360208000056446,True,9,1,0,3
Y2-S2-077K20,6,548,PS,exp,31,↑,up,↑,0.4230456002987921,True,8,1,0,3
Y2-S2-077K20,6,549,PS,exp,46,→,right,→,0.5049247997812927,True,8,1,0,3
Y2-S2-077K20,6,550,PS,exp,41,↓,down,↓,0.579658200033009,True,8,1,0,3
Y2-S2-077K20,6,551,PS,exp,30,↑,up,↑,0.4373349999077618,True,7,1,0,3
Y2-S2-077K20,6,552,PS,exp,28,←,left,←,0.39986460004001856,True,7,1,0,3
Y2-S2-077K20,6,553,PS,exp,31,↓,right,→,0.6660778997465968,False,7,-1,1,4
Y2-S2-077K20,6,554,PS,exp,35,→,right,→,0.42146680038422346,True,8,-1,0,4
Y2-S2-077K20,6,555,PS,exp,35,↑,left,←,0.8966672997921705,False,8,-1,0,4
Y2-S2-077K20,6,556,PS,exp,39,→,no_key,no_letter,-1.0,False,9,-1,0,4
Y2-S2-077K20,6,557,PS,exp,38,↓,down,↓,0.7309159999713302,True,10,-1,0,4
Y2-S2-077K20,6,558,PS,exp,50,↑,up,↑,0.3991370997391641,True,10,-1,0,4
Y2-S2-077K20,6,559,PS,exp,46,↓,down,↓,0.4960892000235617,True,10,1,1,5
Y2-S2-077K20,6,560,PS,exp,32,→,right,→,0.480494299903512,True,9,1,0,5
Y2-S2-077K20,6,561,PS,exp,46,←,no_key,no_letter,-1.0,False,9,-1,1,6
Y2-S2-077K20,6,562,PS,exp,40,↓,down,↓,0.49965499993413687,True,10,-1,0,6
Y2-S2-077K20,6,563,PS,exp,40,→,right,→,0.6046416996978223,True,10,-1,0,6
Y2-S2-077K20,6,564,PS,exp,50,↓,down,↓,0.44874839996919036,True,10,1,1,7
Y2-S2-077K20,6,565,PS,exp,31,↑,up,↑,0.4311526999808848,True,9,1,0,7
Y2-S2-077K20,6,566,PS,exp,28,↓,down,↓,0.4078525002114475,True,9,1,0,7
Y2-S2-077K20,6,567,PS,exp,32,→,right,→,0.4277037000283599,True,9,1,0,7
Y2-S2-077K20,6,568,PS,exp,25,←,left,←,0.46922940015792847,True,8,1,0,7
Y2-S2-077K20,6,569,PS,exp,49,↑,up,↑,0.5172223001718521,True,8,1,0,7
Y2-S2-077K20,6,570,PS,exp,48,←,left,←,0.38290930027142167,True,8,1,0,7
Y2-S2-077K20,6,571,PS,exp,35,↑,up,↑,0.5023722001351416,True,7,1,0,7
Y2-S2-077K20,6,572,PS,exp,48,→,right,→,0.5043532000854611,True,7,1,0,7
Y2-S2-077K20,6,573,PS,exp,47,↑,up,↑,0.4114089999347925,True,7,1,0,7
Y2-S2-077K20,6,574,PS,exp,29,→,right,→,0.3920924998819828,True,6,1,0,7
Y2-S2-077K20,6,575,PS,exp,36,↓,left,←,0.4693551999516785,False,6,-1,1,8
Y2-S2-077K20,6,576,PS,exp,47,↑,up,↑,0.421373900026083,True,7,-1,0,8
Y2-S2-077K20,6,577,PS,exp,44,↓,left,←,0.5057273004204035,False,7,-1,0,8
Y2-S2-077K20,6,578,PS,exp,30,←,left,←,0.46482780016958714,True,8,-1,0,8
Y2-S2-077K20,6,579,PS,exp,29,↓,right,→,0.6135736997239292,False,8,-1,0,8
Y2-S2-077K20,6,580,PS,exp,41,→,right,→,0.4080707002431154,True,9,-1,0,8
Y2-S2-077K20,6,581,PS,exp,37,↓,left,←,0.4839775003492832,False,9,-1,0,8
Y2-S2-077K20,6,582,PS,exp,35,→,right,→,0.34700810024514794,True,10,-1,0,8
Y2-S2-077K20,6,583,PS,exp,33,↓,down,↓,0.5759013001807034,True,10,-1,0,8
Y2-S2-077K20,6,584,PS,exp,33,→,right,→,0.46389990020543337,True,10,1,1,9
Y2-S2-077K20,6,585,PS,exp,38,↓,down,↓,0.4553065998479724,True,9,1,0,9
Y2-S2-077K20,6,586,PS,exp,43,→,right,→,0.3372774999588728,True,9,1,0,9
Y2-S2-077K20,6,587,PS,exp,32,←,left,←,0.45887749968096614,True,9,1,0,9
Y2-S2-077K20,6,588,PS,exp,38,→,right,→,0.471632800064981,True,8,1,0,9
Y2-S2-077K20,6,589,PS,exp,45,←,left,←,0.44802040001377463,True,8,1,0,9
Y2-S2-077K20,6,590,PS,exp,27,↓,left,←,0.6943064001388848,False,8,-1,1,10
Y2-S2-077K20,6,591,PS,exp,33,←,left,←,0.5124381999485195,True,9,-1,0,10
Y2-S2-077K20,6,592,PS,exp,28,↑,left,←,1.04684739978984,False,9,-1,0,10
Y2-S2-077K20,6,593,PS,exp,33,←,left,←,0.4882518998347223,True,10,-1,0,10
Y2-S2-077K20,6,594,PS,exp,34,↑,no_key,no_letter,-1.0,False,10,-1,0,10
Y2-S2-077K20,6,595,PS,exp,42,↓,down,↓,0.5384751996025443,True,11,-1,0,10
Y2-S2-077K20,6,596,PS,exp,31,←,no_key,no_letter,-1.0,False,11,-1,0,10
Y2-S2-077K20,6,597,PS,exp,35,↑,up,↑,0.5713701997883618,True,12,-1,0,10
Y2-S2-077K20,6,598,PS,exp,38,←,up,↑,0.5010215002112091,False,12,-1,0,10
Y2-S2-077K20,6,599,PS,exp,50,↓,left,←,0.4515213002450764,False,13,-1,0,10
Y2-S2-077K20,6,600,PS,exp,27,↑,up,↑,0.42071230011060834,True,14,-1,0,10
Y2-S2-077K20,6,601,PS,exp,40,→,down,↓,1.2345782998017967,False,14,-1,0,10
Y2-S2-077K20,6,602,PS,exp,27,↑,up,↑,0.5635863002389669,True,15,-1,0,10
Y2-S2-077K20,6,603,PS,exp,39,↓,down,↓,0.4551153997890651,True,15,-1,0,10
Y2-S2-077K20,6,604,PS,exp,30,→,right,→,0.5699231000617146,True,15,1,1,11
Y2-S2-077K20,6,605,PS,exp,47,↑,up,↑,0.44247909961268306,True,14,1,0,11
Y2-S2-077K20,6,606,PS,exp,34,↓,left,←,0.7239176002331078,False,14,-1,1,12
Y2-S2-077K20,6,607,PS,exp,46,↑,up,↑,0.4521137997508049,True,15,-1,0,12
Y2-S2-077K20,6,608,PS,exp,28,←,left,←,0.4433890003710985,True,15,-1,0,12
Y2-S2-077K20,6,609,PS,exp,30,↑,no_key,no_letter,-1.0,False,15,-1,0,12
Y2-S2-077K20,6,610,PS,exp,26,←,no_key,no_letter,-1.0,False,16,-1,0,12
Y2-S2-077K20,6,611,PS,exp,46,↑,up,↑,0.5845432002097368,True,17,-1,0,12
Y2-S2-077K20,6,612,PS,exp,28,↓,down,↓,0.5908321002498269,True,17,-1,0,12
Y2-S2-077K20,6,613,PS,exp,40,←,right,→,0.4523346000351012,False,17,-1,0,12
Y2-S2-077K20,6,614,PS,exp,28,↑,right,→,0.7876889002509415,False,18,-1,0,12
Y2-S2-077K20,6,615,PS,exp,26,↓,left,←,0.2841222998686135,False,19,-1,0,12
Y2-S2-077K20,6,616,PS,exp,46,←,left,←,0.4001783998683095,True,20,-1,0,12
Y2-S2-077K20,6,617,PS,exp,46,↑,no_key,no_letter,-1.0,False,20,-1,0,12
Y2-S2-077K20,6,618,PS,exp,39,→,right,→,0.48442160012200475,True,21,-1,0,12
Y2-S2-077K20,6,619,PS,exp,38,←,left,←,0.5451822001487017,True,21,-1,0,12
Y2-S2-077K20,6,620,PS,exp,44,→,right,→,0.554895400069654,True,21,1,1,13
Y2-S2-077K20,6,621,PS,exp,42,←,left,←,0.4335487000644207,True,20,1,0,13
Y2-S2-077K20,6,622,PS,exp,38,↑,up,↑,0.4675044999457896,True,20,1,0,13
Y2-S2-077K20,6,623,PS,exp,31,↓,down,↓,0.6501277000643313,True,20,1,0,13
Y2-S2-077K20,6,624,PS,exp,37,↑,up,↑,0.45060899993404746,True,19,1,0,13
Y2-S2-077K20,6,625,PS,exp,29,→,right,→,1.4944479996338487,True,19,1,0,13
Y2-S2-077K20,6,626,PS,exp,34,↑,up,↑,0.5186309996061027,True,19,1,0,13
Y2-S2-077K20,6,627,PS,exp,25,↓,down,↓,0.5474752001464367,True,18,1,0,13
Y2-S2-077K20,6,628,PS,exp,25,←,right,→,0.5352880000136793,False,18,-1,1,14
Y2-S2-077K20,6,629,PS,exp,25,→,right,→,1.1381950001232326,True,19,-1,0,14
Y2-S2-077K20,6,630,PS,exp,27,↓,down,↓,0.5547787002287805,True,19,-1,0,14
Y2-S2-077K20,6,631,PS,exp,49,↑,up,↑,0.7000806001015007,True,19,1,1,15
Y2-S2-077K20,6,632,PS,exp,44,↓,down,↓,0.4691457999870181,True,18,1,0,15
Y2-S2-077K20,6,633,PS,exp,27,←,left,←,0.5119939995929599,True,18,1,0,15
Y2-S2-077K20,6,634,PS,exp,36,→,right,→,1.0389856002293527,True,18,1,0,15
Y2-S2-077K20,6,635,PS,exp,26,↑,up,↑,1.2754979003220797,True,17,1,0,15
Y2-S2-077K20,6,636,PS,exp,30,↓,up,↑,0.7265440998598933,False,17,-1,1,16
Y2-S2-077K20,7,637,PS,intra_train,48,↑,up,↑,0.44772789999842644,True,15,-,-,-
Y2-S2-077K20,7,638,PS,intra_train,45,↓,down,↓,0.582245500292629,True,15,-,-,-
Y2-S2-077K20,7,639,PS,intra_train,41,←,left,←,0.4849052997305989,True,15,-,-,-
Y2-S2-077K20,7,640,PS,intra_train,38,→,right,→,0.9898681999184191,True,15,-,-,-
Y2-S2-077K20,7,641,PS,intra_train,43,←,left,←,0.45904430001974106,True,15,-,-,-
Y2-S2-077K20,7,642,PS,exp,39,→,left,←,0.37496049981564283,False,10,-1,0,0
Y2-S2-077K20,7,643,PS,exp,39,↑,up,↑,0.4948062999173999,True,11,-1,0,0
Y2-S2-077K20,7,644,PS,exp,37,→,right,→,0.5341642997227609,True,11,-1,0,0
Y2-S2-077K20,7,645,PS,exp,49,←,right,→,0.7001730999909341,False,11,-1,0,0
Y2-S2-077K20,7,646,PS,exp,36,→,right,→,0.6577516999095678,True,12,-1,0,0
Y2-S2-077K20,7,647,PS,exp,38,←,left,←,0.7000822001136839,True,12,-1,0,0
Y2-S2-077K20,7,648,PS,exp,31,↑,up,↑,0.42374669993296266,True,12,1,1,1
Y2-S2-077K20,7,649,PS,exp,30,↓,down,↓,0.6048285001888871,True,11,1,0,1
Y2-S2-077K20,7,650,PS,exp,42,↑,up,↑,0.6178458002395928,True,11,1,0,1
Y2-S2-077K20,7,651,PS,exp,26,→,right,→,0.5485694999806583,True,11,1,0,1
Y2-S2-077K20,7,652,PS,exp,40,↓,down,↓,0.5970586002804339,True,10,1,0,1
Y2-S2-077K20,7,653,PS,exp,26,←,no_key,no_letter,-1.0,False,10,-1,1,2
Y2-S2-077K20,7,654,PS,exp,36,→,right,→,0.4848440997302532,True,11,-1,0,2
Y2-S2-077K20,7,655,PS,exp,25,↑,up,↑,0.5386864002794027,True,11,-1,0,2
Y2-S2-077K20,7,656,PS,exp,26,→,right,→,0.4169677998870611,True,11,1,1,3
Y2-S2-077K20,7,657,PS,exp,26,↑,up,↑,0.6894586998969316,True,10,1,0,3
Y2-S2-077K20,7,658,PS,exp,38,←,left,←,0.756487499922514,True,10,1,0,3
Y2-S2-077K20,7,659,PS,exp,31,→,left,←,0.821688299998641,False,10,-1,1,4
Y2-S2-077K20,7,660,PS,exp,37,←,left,←,0.39060370018705726,True,11,-1,0,4
Y2-S2-077K20,7,661,PS,exp,26,↓,down,↓,0.5811086003668606,True,11,-1,0,4
Y2-S2-077K20,7,662,PS,exp,31,←,left,←,0.36742240004241467,True,11,1,1,5
Y2-S2-077K20,7,663,PS,exp,28,↓,left,←,0.6530427997931838,False,10,-1,1,6
Y2-S2-077K20,7,664,PS,exp,49,↑,up,↑,0.5114207002334297,True,11,-1,0,6
Y2-S2-077K20,7,665,PS,exp,29,←,left,←,0.40700870007276535,True,11,-1,0,6
Y2-S2-077K20,7,666,PS,exp,29,→,right,→,0.40277389995753765,True,11,1,1,7
Y2-S2-077K20,7,667,PS,exp,25,↓,down,↓,0.5831563998945057,True,10,1,0,7
Y2-S2-077K20,7,668,PS,exp,44,←,left,←,0.5445202998816967,True,10,1,0,7
Y2-S2-077K20,7,669,PS,exp,25,→,right,→,0.4073056997731328,True,10,1,0,7
Y2-S2-077K20,7,670,PS,exp,27,↑,up,↑,0.5482115000486374,True,9,1,0,7
Y2-S2-077K20,7,671,PS,exp,46,→,down,↓,0.8738683997653425,False,9,-1,1,8
Y2-S2-077K20,7,672,PS,exp,49,←,left,←,0.5679886997677386,True,10,-1,0,8
Y2-S2-077K20,7,673,PS,exp,40,↓,down,↓,0.5761768999509513,True,10,-1,0,8
Y2-S2-077K20,7,674,PS,exp,50,→,right,→,0.4501303001306951,True,10,1,1,9
Y2-S2-077K20,7,675,PS,exp,48,↓,down,↓,0.6296020001173019,True,9,1,0,9
Y2-S2-077K20,7,676,PS,exp,26,↑,up,↑,0.5670071002095938,True,9,1,0,9
Y2-S2-077K20,7,677,PS,exp,43,↓,down,↓,0.7140339999459684,True,9,1,0,9
Y2-S2-077K20,7,678,PS,exp,30,←,down,↓,0.6368700000457466,False,8,-1,1,10
Y2-S2-077K20,7,679,PS,exp,46,→,no_key,no_letter,-1.0,False,9,-1,0,10
Y2-S2-077K20,7,680,PS,exp,26,↑,up,↑,0.6021046000532806,True,10,-1,0,10
Y2-S2-077K20,7,681,PS,exp,47,↓,down,↓,0.5750168999657035,True,10,-1,0,10
Y2-S2-077K20,7,682,PS,exp,27,→,right,→,0.6536969998851418,True,10,1,1,11
Y2-S2-077K20,7,683,PS,exp,32,←,left,←,0.43846070021390915,True,9,1,0,11
Y2-S2-077K20,7,684,PS,exp,36,↓,up,↑,0.798299000132829,False,9,-1,1,12
Y2-S2-077K20,7,685,PS,exp,27,→,right,→,0.4454657002352178,True,10,-1,0,12
Y2-S2-077K20,7,686,PS,exp,28,↑,up,↑,0.4367770003154874,True,10,-1,0,12
Y2-S2-077K20,7,687,PS,exp,48,←,left,←,0.43850550008937716,True,10,1,1,13
Y2-S2-077K20,7,688,PS,exp,46,↓,down,↓,0.6662880000658333,True,9,1,0,13
Y2-S2-077K20,7,689,PS,exp,31,↑,up,↑,0.6607684995979071,True,9,1,0,13
Y2-S2-077K20,7,690,PS,exp,40,↓,down,↓,0.547751700039953,True,9,1,0,13
Y2-S2-077K20,7,691,PS,exp,33,→,right,→,0.4281150000169873,True,8,1,0,13
Y2-S2-077K20,7,692,PS,exp,31,↓,down,↓,0.6522628995589912,True,8,1,0,13
Y2-S2-077K20,7,693,PS,exp,31,→,right,→,0.4763136999681592,True,8,1,0,13
Y2-S2-077K20,7,694,PS,exp,33,↑,up,↑,0.5761858997866511,True,7,1,0,13
Y2-S2-077K20,7,695,PS,exp,25,→,right,→,0.600257100071758,True,7,1,0,13
Y2-S2-077K20,7,696,PS,exp,36,←,left,←,0.4761659000068903,True,7,1,0,13
Y2-S2-077K20,7,697,PS,exp,37,↓,down,↓,0.5398665000684559,True,6,1,0,13
Y2-S2-077K20,7,698,PS,exp,44,→,right,→,0.4260279000736773,True,6,1,0,13
Y2-S2-077K20,7,699,PS,exp,50,↓,down,↓,0.6380889001302421,True,6,1,0,13
Y2-S2-077K20,7,700,PS,exp,48,→,left,←,1.6075583999045193,False,5,-1,1,14
Y2-S2-077K20,7,701,PS,exp,37,↓,down,↓,0.5131250997073948,True,6,-1,0,14
Y2-S2-077K20,7,702,PS,exp,50,←,left,←,0.5036504999734461,True,6,-1,0,14
Y2-S2-077K20,7,703,PS,exp,33,↓,down,↓,0.5066182999871671,True,6,1,1,15
Y2-S2-077K20,7,704,PS,exp,35,→,right,→,0.5835317000746727,True,5,1,0,15
Y2-S2-077K20,7,705,PS,exp,33,↑,down,↓,0.47007849998772144,False,5,-1,1,16
Y2-S2-077K20,8,706,AS,intra_train,28,→,left,←,1.0874590002931654,False,24,-,-,-
Y2-S2-077K20,8,707,AS,intra_train,40,↓,down,↓,0.4840440000407398,True,24,-,-,-
Y2-S2-077K20,8,708,AS,intra_train,25,↑,up,↑,0.3677698001265526,True,24,-,-,-
Y2-S2-077K20,8,709,AS,intra_train,47,→,right,→,0.5947270998731256,True,24,-,-,-
Y2-S2-077K20,8,710,AS,intra_train,37,←,right,→,0.5338102001696825,False,24,-,-,-
Y2-S2-077K20,8,711,AS,exp,33,↓,down,↓,0.546095899771899,True,16,0,0,0
Y2-S2-077K20,8,712,AS,exp,48,←,left,←,0.6241409997455776,True,16,0,0,0
Y2-S2-077K20,8,713,AS,exp,27,↓,down,↓,0.3836341998539865,True,16,1,0,0
Y2-S2-077K20,8,714,AS,exp,41,←,left,←,0.49063470028340816,True,15,1,0,0
Y2-S2-077K20,8,715,AS,exp,46,↑,down,↓,0.6958998003974557,False,15,-1,1,1
Y2-S2-077K20,8,716,AS,exp,49,→,right,→,0.7190361996181309,True,16,-1,0,1
Y2-S2-077K20,8,717,AS,exp,27,↓,down,↓,0.462949899956584,True,16,-1,0,1
Y2-S2-077K20,8,718,AS,exp,45,←,right,→,0.7767575001344085,False,16,-1,0,1
Y2-S2-077K20,8,719,AS,exp,46,↑,up,↑,0.6571468999609351,True,17,-1,0,1
Y2-S2-077K20,8,720,AS,exp,48,→,right,→,0.5761039000935853,True,17,-1,0,1
Y2-S2-077K20,8,721,AS,exp,28,↑,no_key,no_letter,-1.0,False,17,-1,0,1
Y2-S2-077K20,8,722,AS,exp,25,←,left,←,1.254102099686861,True,18,-1,0,1
Y2-S2-077K20,8,723,AS,exp,49,↓,down,↓,0.47587129985913634,True,18,-1,0,1
Y2-S2-077K20,8,724,AS,exp,38,→,right,→,0.5396373001858592,True,18,1,1,2
Y2-S2-077K20,8,725,AS,exp,39,←,left,←,0.4172502998262644,True,17,1,0,2
Y2-S2-077K20,8,726,AS,exp,42,↓,down,↓,0.6158272000029683,True,17,1,0,2
Y2-S2-077K20,8,727,AS,exp,41,↑,down,↓,0.463860800024122,False,17,-1,1,3
Y2-S2-077K20,8,728,AS,exp,37,↓,down,↓,0.4970868998207152,True,18,-1,0,3
Y2-S2-077K20,8,729,AS,exp,26,↑,up,↑,0.5021661999635398,True,18,-1,0,3
Y2-S2-077K20,8,730,AS,exp,43,←,left,←,0.4339021001942456,True,18,1,1,4
Y2-S2-077K20,8,731,AS,exp,38,→,right,→,0.7066098996438086,True,17,1,0,4
Y2-S2-077K20,8,732,AS,exp,31,↓,down,↓,0.48798399977386,True,17,1,0,4
Y2-S2-077K20,8,733,AS,exp,50,←,left,←,1.08229919988662,True,17,1,0,4
Y2-S2-077K20,8,734,AS,exp,41,↓,down,↓,0.4966044998727739,True,16,1,0,4
Y2-S2-077K20,8,735,AS,exp,38,→,down,↓,0.834428499918431,False,16,-1,1,5
Y2-S2-077K20,8,736,AS,exp,27,↑,up,↑,1.130842600017786,True,17,-1,0,5
Y2-S2-077K20,8,737,AS,exp,26,→,right,→,0.923163500148803,True,17,-1,0,5
Y2-S2-077K20,8,738,AS,exp,28,←,right,→,0.5414363997988403,False,17,-1,0,5
Y2-S2-077K20,8,739,AS,exp,32,↑,up,↑,0.43364010006189346,True,18,-1,0,5
Y2-S2-077K20,8,740,AS,exp,33,→,right,→,0.6899760002270341,True,18,-1,0,5
Y2-S2-077K20,8,741,AS,exp,45,←,left,←,0.4341691001318395,True,18,1,1,6
Y2-S2-077K20,8,742,AS,exp,31,→,right,→,1.1506847999989986,True,17,1,0,6
Y2-S2-077K20,8,743,AS,exp,32,↓,down,↓,0.6773168002255261,True,17,1,0,6
Y2-S2-077K20,8,744,AS,exp,39,←,left,←,0.6851219004020095,True,17,1,0,6
Y2-S2-077K20,8,745,AS,exp,42,↑,up,↑,0.4477168000303209,True,16,1,0,6
Y2-S2-077K20,8,746,AS,exp,30,←,left,←,0.7431234000250697,True,16,1,0,6
Y2-S2-077K20,8,747,AS,exp,39,→,right,→,0.4455234003253281,True,16,1,0,6
Y2-S2-077K20,8,748,AS,exp,43,←,right,→,0.7769710998982191,False,15,-1,1,7
Y2-S2-077K20,8,749,AS,exp,29,→,right,→,0.49962430028244853,True,16,-1,0,7
Y2-S2-077K20,8,750,AS,exp,48,↓,down,↓,0.552768100053072,True,16,-1,0,7
Y2-S2-077K20,8,751,AS,exp,47,←,left,←,0.9799856999889016,True,16,1,1,8
Y2-S2-077K20,8,752,AS,exp,47,↓,down,↓,0.5125364996492863,True,15,1,0,8
Y2-S2-077K20,8,753,AS,exp,30,→,right,→,0.7481645001098514,True,15,1,0,8
Y2-S2-077K20,8,754,AS,exp,31,↑,up,↑,0.4557399000041187,True,15,1,0,8
Y2-S2-077K20,8,755,AS,exp,31,←,down,↓,0.6386069003492594,False,14,-1,1,9
Y2-S2-077K20,8,756,AS,exp,38,→,right,→,0.5362060000188649,True,15,-1,0,9
Y2-S2-077K20,8,757,AS,exp,43,↓,down,↓,0.633103100117296,True,15,-1,0,9
Y2-S2-077K20,8,758,AS,exp,50,↑,down,↓,0.5279203997924924,False,15,-1,0,9
Y2-S2-077K20,8,759,AS,exp,27,←,left,←,0.6527694999240339,True,16,-1,0,9
Y2-S2-077K20,8,760,AS,exp,26,↓,down,↓,1.421518700197339,True,16,-1,0,9
Y2-S2-077K20,8,761,AS,exp,44,←,left,←,0.7701746001839638,True,16,1,1,10
Y2-S2-077K20,8,762,AS,exp,39,→,right,→,0.38349239993840456,True,15,1,0,10
Y2-S2-077K20,8,763,AS,exp,35,↓,down,↓,0.6251006000675261,True,15,1,0,10
Y2-S2-077K20,8,764,AS,exp,35,←,left,←,0.4307778002694249,True,15,1,0,10
Y2-S2-077K20,8,765,AS,exp,30,→,left,←,0.5688168001361191,False,14,-1,1,11
Y2-S2-077K20,8,766,AS,exp,40,↓,down,↓,0.5111548998393118,True,15,-1,0,11
Y2-S2-077K20,8,767,AS,exp,37,→,right,→,1.1826468999497592,True,15,-1,0,11
Y2-S2-077K20,8,768,AS,exp,26,↓,down,↓,0.35081360023468733,True,15,1,1,12
Y2-S2-077K20,8,769,AS,exp,36,↑,up,↑,0.4789853999391198,True,14,1,0,12
Y2-S2-077K20,8,770,AS,exp,26,←,right,→,0.35008030012249947,False,14,-1,1,13
Y2-S2-077K20,8,771,AS,exp,36,→,right,→,0.5501220002770424,True,15,-1,0,13
Y2-S2-077K20,8,772,AS,exp,36,←,left,←,1.0674109999090433,True,15,-1,0,13
Y2-S2-077K20,8,773,AS,exp,33,↓,left,←,0.9686561999842525,False,15,-1,0,13
Y2-S2-077K20,8,774,AS,exp,46,→,right,→,1.0081441001966596,True,16,-1,0,13
Y2-S2-077K20,8,775,AS,exp,31,↓,down,↓,0.5682967999018729,True,16,-1,0,13
Y2-S2-077K20,8,776,AS,exp,29,→,right,→,0.716363400220871,True,16,1,1,14
Y2-S2-077K20,8,777,AS,exp,39,←,left,←,0.5006184000521898,True,15,1,0,14
Y2-S2-077K20,8,778,AS,exp,37,→,down,↓,0.7521476000547409,False,15,-1,1,15
Y2-S2-077K20,8,779,AS,exp,30,↑,up,↑,0.5990260001271963,True,16,-1,0,15
Y2-S2-077K20,8,780,AS,exp,38,→,left,←,0.6692519001662731,False,16,-1,0,15
Y2-S2-077K20,8,781,AS,exp,33,↓,down,↓,0.704806899651885,True,17,-1,0,15
Y2-S2-077K20,8,782,AS,exp,50,↑,up,↑,0.4863861999474466,True,17,-1,0,15
Y2-S2-077K20,8,783,AS,exp,35,←,left,←,0.6309168003499508,True,17,1,1,16
