PART_ID,Block_no,Trial_no,Block_type,Trial_type,CSI,Stim_letter,Key_pressed,letter_choose,Rt,Corr,Stimulus Time,Level,Reversal,Revs_count
Y2-S2-033K24,1,1,PS,train,35,→,right,→,1.9033372001722455,True,30,-,-,-
Y2-S2-033K24,1,2,PS,train,50,↓,down,↓,0.6340378997847438,True,30,-,-,-
Y2-S2-033K24,1,3,PS,train,37,←,left,←,0.5676234997808933,True,30,-,-,-
Y2-S2-033K24,1,4,PS,train,48,↓,down,↓,0.6720606000162661,True,30,-,-,-
Y2-S2-033K24,1,5,PS,train,43,→,right,→,1.4050767002627254,True,30,-,-,-
Y2-S2-033K24,1,6,PS,train,25,↓,down,↓,0.5171054000966251,True,30,-,-,-
Y2-S2-033K24,1,7,PS,train,28,↑,up,↑,1.5974340997636318,True,30,-,-,-
Y2-S2-033K24,1,8,PS,train,47,←,left,←,0.5505889002233744,True,30,-,-,-
Y2-S2-033K24,1,9,PS,train,49,↓,down,↓,0.6005235998891294,True,30,-,-,-
Y2-S2-033K24,1,10,PS,train,26,←,left,←,0.7685279003344476,True,30,-,-,-
Y2-S2-033K24,2,11,AS,train,29,↓,down,↓,0.6343069998547435,True,45,-,-,-
Y2-S2-033K24,2,12,AS,train,40,←,left,←,0.7837384003214538,True,45,-,-,-
Y2-S2-033K24,2,13,AS,train,29,↓,down,↓,0.6844036001712084,True,45,-,-,-
Y2-S2-033K24,2,14,AS,train,28,→,right,→,0.7008635001257062,True,45,-,-,-
Y2-S2-033K24,2,15,AS,train,30,←,left,←,0.8345949999056756,True,45,-,-,-
Y2-S2-033K24,2,16,AS,train,29,↓,down,↓,0.7014031000435352,True,45,-,-,-
Y2-S2-033K24,2,17,AS,train,28,↑,up,↑,0.8174414001405239,True,45,-,-,-
Y2-S2-033K24,2,18,AS,train,40,→,right,→,2.029345199931413,True,45,-,-,-
Y2-S2-033K24,2,19,AS,train,44,↓,down,↓,0.668104900047183,True,45,-,-,-
Y2-S2-033K24,2,20,AS,train,48,←,left,←,0.7836632002145052,True,45,-,-,-
Y2-S2-033K24,-,21,PS,adaptive,28,↓,down,↓,0.5134356003254652,True,10,0,0,0
Y2-S2-033K24,-,22,PS,adaptive,27,↑,up,↑,0.5730502996593714,True,10,0,0,0
Y2-S2-033K24,-,23,PS,adaptive,49,↓,down,↓,0.5668983003124595,True,10,1,0,0
Y2-S2-033K24,-,24,PS,adaptive,41,↑,down,↓,0.8948634001426399,False,9,-1,1,1
Y2-S2-033K24,-,25,PS,adaptive,50,←,left,←,0.6585312997922301,True,10,-1,0,1
Y2-S2-033K24,-,26,PS,adaptive,50,→,right,→,0.8133936999365687,True,10,-1,0,1
Y2-S2-033K24,-,27,PS,adaptive,30,↑,up,↑,0.5431341999210417,True,10,1,1,2
Y2-S2-033K24,-,28,PS,adaptive,36,↓,down,↓,0.7906421995721757,True,9,1,0,2
Y2-S2-033K24,-,29,PS,adaptive,29,→,right,→,0.5570066999644041,True,9,1,0,2
Y2-S2-033K24,-,30,PS,adaptive,43,↑,up,↑,0.561913900077343,True,9,1,0,2
Y2-S2-033K24,-,31,PS,adaptive,25,→,right,→,0.5401276997290552,True,8,1,0,2
Y2-S2-033K24,-,32,PS,adaptive,33,←,left,←,0.9999824999831617,True,8,1,0,2
Y2-S2-033K24,-,33,PS,adaptive,26,↑,right,→,0.9804401998408139,False,8,-1,1,3
Y2-S2-033K24,-,34,PS,adaptive,44,→,right,→,0.6041969996877015,True,9,-1,0,3
Y2-S2-033K24,-,35,PS,adaptive,29,↑,up,↑,0.7161848000250757,True,9,-1,0,3
Y2-S2-033K24,-,36,PS,adaptive,39,→,up,↑,0.6829529004171491,False,9,-1,0,3
Y2-S2-033K24,-,37,PS,adaptive,38,↓,up,↑,0.6847176998853683,False,10,-1,0,3
Y2-S2-033K24,-,38,PS,adaptive,39,→,up,↑,0.9207639000378549,False,11,-1,0,3
Y2-S2-033K24,-,39,PS,adaptive,48,←,left,←,0.8331993999890983,True,12,-1,0,3
Y2-S2-033K24,-,40,PS,adaptive,26,↑,up,↑,0.5455142999999225,True,12,-1,0,3
Y2-S2-033K24,-,41,PS,adaptive,45,→,right,→,0.4932852000929415,True,12,1,1,4
Y2-S2-033K24,-,42,AS,adaptive,31,←,left,←,0.7208234001882374,True,20,0,0,0
Y2-S2-033K24,-,43,AS,adaptive,26,↑,up,↑,0.6947998004034162,True,20,0,0,0
Y2-S2-033K24,-,44,AS,adaptive,26,←,left,←,0.7874418999999762,True,20,1,0,0
Y2-S2-033K24,-,45,AS,adaptive,34,↓,down,↓,0.5217060004360974,True,19,1,0,0
Y2-S2-033K24,-,46,AS,adaptive,43,↑,up,↑,0.635740399826318,True,19,1,0,0
Y2-S2-033K24,-,47,AS,adaptive,31,↓,down,↓,0.48637619987130165,True,19,1,0,0
Y2-S2-033K24,-,48,AS,adaptive,33,←,left,←,0.6107832998968661,True,18,1,0,0
Y2-S2-033K24,-,49,AS,adaptive,26,→,right,→,0.5642331996932626,True,18,1,0,0
Y2-S2-033K24,-,50,AS,adaptive,50,↓,up,↑,0.7861937000416219,False,18,-1,1,1
Y2-S2-033K24,-,51,AS,adaptive,29,→,right,→,0.5433845999650657,True,19,-1,0,1
Y2-S2-033K24,-,52,AS,adaptive,36,↓,up,↑,0.8141757999546826,False,19,-1,0,1
Y2-S2-033K24,-,53,AS,adaptive,49,→,right,→,0.5803914000280201,True,20,-1,0,1
Y2-S2-033K24,-,54,AS,adaptive,49,←,left,←,0.819374299608171,True,20,-1,0,1
Y2-S2-033K24,-,55,AS,adaptive,36,↓,up,↑,0.7317319996654987,False,20,-1,0,1
Y2-S2-033K24,-,56,AS,adaptive,35,↑,up,↑,0.6237949002534151,True,21,-1,0,1
Y2-S2-033K24,-,57,AS,adaptive,25,→,right,→,0.6202977001667023,True,21,-1,0,1
Y2-S2-033K24,-,58,AS,adaptive,29,↓,down,↓,0.5400769002735615,True,21,1,1,2
Y2-S2-033K24,-,59,AS,adaptive,38,→,right,→,0.7043829001486301,True,20,1,0,2
Y2-S2-033K24,-,60,AS,adaptive,37,↓,down,↓,0.5089273997582495,True,20,1,0,2
Y2-S2-033K24,-,61,AS,adaptive,25,←,left,←,0.8667047997005284,True,20,1,0,2
Y2-S2-033K24,-,62,AS,adaptive,43,→,right,→,0.57637789985165,True,19,1,0,2
Y2-S2-033K24,-,63,AS,adaptive,44,↑,up,↑,0.6737240003421903,True,19,1,0,2
Y2-S2-033K24,-,64,AS,adaptive,42,←,left,←,0.5198781001381576,True,19,1,0,2
Y2-S2-033K24,-,65,AS,adaptive,47,→,right,→,0.5332367001101375,True,18,1,0,2
Y2-S2-033K24,-,66,AS,adaptive,49,↑,up,↑,0.6320855999365449,True,18,1,0,2
Y2-S2-033K24,-,67,AS,adaptive,28,←,left,←,0.7297118999995291,True,18,1,0,2
Y2-S2-033K24,-,68,AS,adaptive,34,→,right,→,0.6951401000842452,True,17,1,0,2
Y2-S2-033K24,-,69,AS,adaptive,33,←,left,←,0.6327353999949992,True,17,1,0,2
Y2-S2-033K24,-,70,AS,adaptive,29,→,left,←,0.6941837002523243,False,17,-1,1,3
Y2-S2-033K24,-,71,AS,adaptive,29,↑,up,↑,0.5825376003049314,True,18,-1,0,3
Y2-S2-033K24,-,72,AS,adaptive,25,→,right,→,0.743601200170815,True,18,-1,0,3
Y2-S2-033K24,-,73,AS,adaptive,27,↓,down,↓,0.6235683001577854,True,18,1,1,4
Y2-S2-033K24,1,74,PS,intra_train,41,↑,up,↑,0.6103570996783674,True,16,-,-,-
Y2-S2-033K24,1,75,PS,intra_train,43,←,left,←,0.5313420998863876,True,16,-,-,-
Y2-S2-033K24,1,76,PS,intra_train,49,↑,up,↑,0.5645134998485446,True,16,-,-,-
Y2-S2-033K24,1,77,PS,intra_train,49,↓,down,↓,0.5135343000292778,True,16,-,-,-
Y2-S2-033K24,1,78,PS,intra_train,35,←,right,→,0.5171169000677764,False,16,-,-,-
Y2-S2-033K24,1,79,PS,exp,32,↑,up,↑,0.5274490001611412,True,11,0,0,0
Y2-S2-033K24,1,80,PS,exp,29,←,left,←,0.6649237996898592,True,11,0,0,0
Y2-S2-033K24,1,81,PS,exp,44,↓,down,↓,0.5820816000923514,True,11,1,0,0
Y2-S2-033K24,1,82,PS,exp,30,→,right,→,0.5520132002420723,True,10,1,0,0
Y2-S2-033K24,1,83,PS,exp,28,↓,up,↑,0.9706182000227273,False,10,-1,1,1
Y2-S2-033K24,1,84,PS,exp,50,↑,up,↑,0.9076776998117566,True,11,-1,0,1
Y2-S2-033K24,1,85,PS,exp,46,→,right,→,0.6003646999597549,True,11,-1,0,1
Y2-S2-033K24,1,86,PS,exp,26,←,left,←,0.7015225999057293,True,11,1,1,2
Y2-S2-033K24,1,87,PS,exp,31,↑,up,↑,0.6333733000792563,True,10,1,0,2
Y2-S2-033K24,1,88,PS,exp,34,↓,up,↑,0.7330199996940792,False,10,-1,1,3
Y2-S2-033K24,1,89,PS,exp,37,→,right,→,0.645996400155127,True,11,-1,0,3
Y2-S2-033K24,1,90,PS,exp,49,↑,up,↑,0.5410163002088666,True,11,-1,0,3
Y2-S2-033K24,1,91,PS,exp,32,↓,up,↑,0.6901567000895739,False,11,-1,0,3
Y2-S2-033K24,1,92,PS,exp,44,→,right,→,0.5865854998119175,True,12,-1,0,3
Y2-S2-033K24,1,93,PS,exp,39,↓,down,↓,0.6458494998514652,True,12,-1,0,3
Y2-S2-033K24,1,94,PS,exp,25,↑,up,↑,0.5278674997389317,True,12,1,1,4
Y2-S2-033K24,1,95,PS,exp,29,↓,down,↓,0.5275567998178303,True,11,1,0,4
Y2-S2-033K24,1,96,PS,exp,26,←,left,←,0.6808878998272121,True,11,1,0,4
Y2-S2-033K24,1,97,PS,exp,35,↑,up,↑,0.6267327000387013,True,11,1,0,4
Y2-S2-033K24,1,98,PS,exp,40,←,left,←,0.5846461998298764,True,10,1,0,4
Y2-S2-033K24,1,99,PS,exp,37,↑,up,↑,0.5670901001431048,True,10,1,0,4
Y2-S2-033K24,1,100,PS,exp,26,←,left,←,0.6077204998582602,True,10,1,0,4
Y2-S2-033K24,1,101,PS,exp,25,↑,up,↑,0.4879284002818167,True,9,1,0,4
Y2-S2-033K24,1,102,PS,exp,40,↓,up,↑,0.7280820999294519,False,9,-1,1,5
Y2-S2-033K24,1,103,PS,exp,29,←,left,←,0.6071393000893295,True,10,-1,0,5
Y2-S2-033K24,1,104,PS,exp,45,↑,up,↑,0.6980507001280785,True,10,-1,0,5
Y2-S2-033K24,1,105,PS,exp,34,↓,right,→,0.6811428000219166,False,10,-1,0,5
Y2-S2-033K24,1,106,PS,exp,47,→,right,→,0.6885298998095095,True,11,-1,0,5
Y2-S2-033K24,1,107,PS,exp,41,↑,up,↑,0.7308919001370668,True,11,-1,0,5
Y2-S2-033K24,1,108,PS,exp,26,→,right,→,0.6654348000884056,True,11,1,1,6
Y2-S2-033K24,1,109,PS,exp,45,←,left,←,0.5148467002436519,True,10,1,0,6
Y2-S2-033K24,1,110,PS,exp,25,↓,down,↓,0.5489970999769866,True,10,1,0,6
Y2-S2-033K24,1,111,PS,exp,37,←,left,←,0.6094814999960363,True,10,1,0,6
Y2-S2-033K24,1,112,PS,exp,46,↓,down,↓,0.5773378000594676,True,9,1,0,6
Y2-S2-033K24,1,113,PS,exp,29,←,right,→,0.593512300401926,False,9,-1,1,7
Y2-S2-033K24,1,114,PS,exp,26,↑,down,↓,0.6186096998862922,False,10,-1,0,7
Y2-S2-033K24,1,115,PS,exp,46,↓,right,→,0.6602301998063922,False,11,-1,0,7
Y2-S2-033K24,1,116,PS,exp,29,↑,up,↑,0.49234220013022423,True,12,-1,0,7
Y2-S2-033K24,1,117,PS,exp,38,←,up,↑,0.5912172999233007,False,12,-1,0,7
Y2-S2-033K24,1,118,PS,exp,49,→,right,→,0.5659642000682652,True,13,-1,0,7
Y2-S2-033K24,1,119,PS,exp,50,↑,up,↑,0.49164999974891543,True,13,-1,0,7
Y2-S2-033K24,1,120,PS,exp,44,↓,down,↓,0.5380478999577463,True,13,1,1,8
Y2-S2-033K24,1,121,PS,exp,33,↑,right,→,0.6526866997592151,False,12,-1,1,9
Y2-S2-033K24,1,122,PS,exp,30,→,right,→,0.8545297998934984,True,13,-1,0,9
Y2-S2-033K24,1,123,PS,exp,25,←,left,←,0.6744564999826252,True,13,-1,0,9
Y2-S2-033K24,1,124,PS,exp,36,→,right,→,0.5733123999089003,True,13,1,1,10
Y2-S2-033K24,1,125,PS,exp,40,↓,down,↓,0.5035847998224199,True,12,1,0,10
Y2-S2-033K24,1,126,PS,exp,25,←,left,←,0.6571831996552646,True,12,1,0,10
Y2-S2-033K24,1,127,PS,exp,42,→,left,←,0.6445741001516581,False,12,-1,1,11
Y2-S2-033K24,1,128,PS,exp,46,←,left,←,0.6789496000856161,True,13,-1,0,11
Y2-S2-033K24,1,129,PS,exp,42,↓,down,↓,0.631869999691844,True,13,-1,0,11
Y2-S2-033K24,1,130,PS,exp,49,→,right,→,0.5752007002010942,True,13,1,1,12
Y2-S2-033K24,1,131,PS,exp,44,↑,up,↑,0.5074319001287222,True,12,1,0,12
Y2-S2-033K24,1,132,PS,exp,39,↓,down,↓,0.6413785996846855,True,12,1,0,12
Y2-S2-033K24,1,133,PS,exp,49,↑,up,↑,0.6337476000189781,True,12,1,0,12
Y2-S2-033K24,1,134,PS,exp,50,←,right,→,0.7305729002691805,False,11,-1,1,13
Y2-S2-033K24,1,135,PS,exp,42,→,right,→,0.5292290998622775,True,12,-1,0,13
Y2-S2-033K24,1,136,PS,exp,26,↓,up,↑,0.6286558001302183,False,12,-1,0,13
Y2-S2-033K24,1,137,PS,exp,27,←,left,←,0.5278027998283505,True,13,-1,0,13
Y2-S2-033K24,1,138,PS,exp,38,↑,up,↑,0.5116948001086712,True,13,-1,0,13
Y2-S2-033K24,1,139,PS,exp,47,←,left,←,0.620660699903965,True,13,1,1,14
Y2-S2-033K24,1,140,PS,exp,35,↑,up,↑,0.5525526003912091,True,12,1,0,14
Y2-S2-033K24,1,141,PS,exp,46,←,left,←,0.45281390007585287,True,12,1,0,14
Y2-S2-033K24,1,142,PS,exp,41,↑,up,↑,0.5570137999020517,True,12,1,0,14
Y2-S2-033K24,1,143,PS,exp,28,→,right,→,0.541792799718678,True,11,1,0,14
Y2-S2-033K24,1,144,PS,exp,40,↓,up,↑,0.8065804997459054,False,11,-1,1,15
Y2-S2-033K24,1,145,PS,exp,44,←,right,→,0.5790178002789617,False,12,-1,0,15
Y2-S2-033K24,1,146,PS,exp,35,→,right,→,0.5020806002430618,True,13,-1,0,15
Y2-S2-033K24,1,147,PS,exp,44,←,left,←,0.4987551001831889,True,13,-1,0,15
Y2-S2-033K24,1,148,PS,exp,30,↓,down,↓,0.5166719001717865,True,13,1,1,16
Y2-S2-033K24,2,149,AS,intra_train,42,→,right,→,0.6441343002952635,True,25,-,-,-
Y2-S2-033K24,2,150,AS,intra_train,46,←,left,←,0.4838653998449445,True,25,-,-,-
Y2-S2-033K24,2,151,AS,intra_train,26,→,right,→,0.4508630000054836,True,25,-,-,-
Y2-S2-033K24,2,152,AS,intra_train,27,←,left,←,0.6323472997173667,True,25,-,-,-
Y2-S2-033K24,2,153,AS,intra_train,42,→,left,←,0.6025355998426676,False,25,-,-,-
Y2-S2-033K24,2,154,AS,exp,44,↓,down,↓,0.8601726000197232,True,17,0,0,0
Y2-S2-033K24,2,155,AS,exp,41,↑,down,↓,0.9865087000653148,False,17,-1,0,0
Y2-S2-033K24,2,156,AS,exp,39,→,right,→,0.5860641002655029,True,18,-1,0,0
Y2-S2-033K24,2,157,AS,exp,28,←,left,←,0.5958778997883201,True,18,-1,0,0
Y2-S2-033K24,2,158,AS,exp,25,↑,left,←,1.0967123000882566,False,18,-1,0,0
Y2-S2-033K24,2,159,AS,exp,34,→,right,→,0.7495283996686339,True,19,-1,0,0
Y2-S2-033K24,2,160,AS,exp,41,←,left,←,0.6045546000823379,True,19,-1,0,0
Y2-S2-033K24,2,161,AS,exp,44,↓,down,↓,0.7242518998682499,True,19,1,1,1
Y2-S2-033K24,2,162,AS,exp,25,↑,up,↑,0.7202733000740409,True,18,1,0,1
Y2-S2-033K24,2,163,AS,exp,30,↓,down,↓,0.7303062998689711,True,18,1,0,1
Y2-S2-033K24,2,164,AS,exp,28,→,right,→,0.6773441000841558,True,18,1,0,1
Y2-S2-033K24,2,165,AS,exp,49,←,left,←,0.7181247002445161,True,17,1,0,1
Y2-S2-033K24,2,166,AS,exp,46,↑,up,↑,0.7366436999291182,True,17,1,0,1
Y2-S2-033K24,2,167,AS,exp,26,←,left,←,0.7667241999879479,True,17,1,0,1
Y2-S2-033K24,2,168,AS,exp,29,→,right,→,0.7753417999483645,True,16,1,0,1
Y2-S2-033K24,2,169,AS,exp,50,↓,down,↓,0.5850231000222266,True,16,1,0,1
Y2-S2-033K24,2,170,AS,exp,45,↑,up,↑,0.678640800062567,True,16,1,0,1
Y2-S2-033K24,2,171,AS,exp,39,↓,down,↓,0.6792158000171185,True,15,1,0,1
Y2-S2-033K24,2,172,AS,exp,41,→,right,→,0.5057133999653161,True,15,1,0,1
Y2-S2-033K24,2,173,AS,exp,35,↑,up,↑,0.7275894000194967,True,15,1,0,1
Y2-S2-033K24,2,174,AS,exp,49,←,right,→,0.6969933002255857,False,14,-1,1,2
Y2-S2-033K24,2,175,AS,exp,37,→,right,→,0.5854533999226987,True,15,-1,0,2
Y2-S2-033K24,2,176,AS,exp,28,↑,up,↑,0.6975193996913731,True,15,-1,0,2
Y2-S2-033K24,2,177,AS,exp,36,↓,down,↓,0.5935482000932097,True,15,1,1,3
Y2-S2-033K24,2,178,AS,exp,42,→,right,→,0.5881082001142204,True,14,1,0,3
Y2-S2-033K24,2,179,AS,exp,31,↑,right,→,0.8128593000583351,False,14,-1,1,4
Y2-S2-033K24,2,180,AS,exp,45,→,right,→,0.6174249001778662,True,15,-1,0,4
Y2-S2-033K24,2,181,AS,exp,30,↓,down,↓,0.641966599971056,True,15,-1,0,4
Y2-S2-033K24,2,182,AS,exp,27,←,right,→,0.5195133998058736,False,15,-1,0,4
Y2-S2-033K24,2,183,AS,exp,37,↑,up,↑,0.6115755997598171,True,16,-1,0,4
Y2-S2-033K24,2,184,AS,exp,39,→,right,→,0.45048819994553924,True,16,-1,0,4
Y2-S2-033K24,2,185,AS,exp,46,↑,up,↑,0.7111380998976529,True,16,1,1,5
Y2-S2-033K24,2,186,AS,exp,28,←,left,←,0.6210737996734679,True,15,1,0,5
Y2-S2-033K24,2,187,AS,exp,47,↑,up,↑,0.4486807999201119,True,15,1,0,5
Y2-S2-033K24,2,188,AS,exp,34,←,right,→,0.5243301000446081,False,15,-1,1,6
Y2-S2-033K24,2,189,AS,exp,27,↑,up,↑,0.559935700148344,True,16,-1,0,6
Y2-S2-033K24,2,190,AS,exp,30,←,left,←,0.582759799901396,True,16,-1,0,6
Y2-S2-033K24,2,191,AS,exp,26,↓,down,↓,0.48737919982522726,True,16,1,1,7
Y2-S2-033K24,2,192,AS,exp,41,↑,up,↑,0.6589171001687646,True,15,1,0,7
Y2-S2-033K24,2,193,AS,exp,41,↓,down,↓,0.5706176999956369,True,15,1,0,7
Y2-S2-033K24,2,194,AS,exp,39,→,right,→,0.5249433000572026,True,15,1,0,7
Y2-S2-033K24,2,195,AS,exp,33,←,left,←,0.568005200009793,True,14,1,0,7
Y2-S2-033K24,2,196,AS,exp,47,↑,up,↑,0.5821161000058055,True,14,1,0,7
Y2-S2-033K24,2,197,AS,exp,25,→,right,→,0.5207774001173675,True,14,1,0,7
Y2-S2-033K24,2,198,AS,exp,34,←,right,→,0.5326322000473738,False,13,-1,1,8
Y2-S2-033K24,2,199,AS,exp,44,↑,up,↑,0.8025596998631954,True,14,-1,0,8
Y2-S2-033K24,2,200,AS,exp,46,←,right,→,0.516043399926275,False,14,-1,0,8
Y2-S2-033K24,2,201,AS,exp,28,↑,right,→,0.48164800042286515,False,15,-1,0,8
Y2-S2-033K24,2,202,AS,exp,50,←,left,←,0.6506190998479724,True,16,-1,0,8
Y2-S2-033K24,2,203,AS,exp,31,→,right,→,0.5044054999016225,True,16,-1,0,8
Y2-S2-033K24,2,204,AS,exp,43,←,right,→,0.6777742998674512,False,16,-1,0,8
Y2-S2-033K24,2,205,AS,exp,37,↑,up,↑,0.5959520000033081,True,17,-1,0,8
Y2-S2-033K24,2,206,AS,exp,44,←,right,→,0.8361264998093247,False,17,-1,0,8
Y2-S2-033K24,2,207,AS,exp,41,→,right,→,0.6142603000625968,True,18,-1,0,8
Y2-S2-033K24,2,208,AS,exp,30,↑,up,↑,0.7290175999514759,True,18,-1,0,8
Y2-S2-033K24,2,209,AS,exp,35,→,right,→,0.6178301996551454,True,18,1,1,9
Y2-S2-033K24,2,210,AS,exp,28,↑,up,↑,0.6830429998226464,True,17,1,0,9
Y2-S2-033K24,2,211,AS,exp,39,←,right,→,0.7049564998596907,False,17,-1,1,10
Y2-S2-033K24,2,212,AS,exp,30,↑,up,↑,0.5410209000110626,True,18,-1,0,10
Y2-S2-033K24,2,213,AS,exp,37,→,right,→,0.7624226002953947,True,18,-1,0,10
Y2-S2-033K24,2,214,AS,exp,32,←,left,←,0.5796786998398602,True,18,1,1,11
Y2-S2-033K24,2,215,AS,exp,28,↑,up,↑,0.8087976998649538,True,17,1,0,11
Y2-S2-033K24,2,216,AS,exp,34,→,right,→,1.929160499945283,True,17,1,0,11
Y2-S2-033K24,2,217,AS,exp,31,↑,up,↑,0.5201232000254095,True,17,1,0,11
Y2-S2-033K24,2,218,AS,exp,40,←,left,←,0.9560067998245358,True,16,1,0,11
Y2-S2-033K24,2,219,AS,exp,29,↓,down,↓,0.5747646000236273,True,16,1,0,11
Y2-S2-033K24,2,220,AS,exp,44,↑,up,↑,0.537686700001359,True,16,1,0,11
Y2-S2-033K24,2,221,AS,exp,32,↓,down,↓,0.6368766003288329,True,15,1,0,11
Y2-S2-033K24,2,222,AS,exp,30,←,right,→,0.49814980011433363,False,15,-1,1,12
Y2-S2-033K24,2,223,AS,exp,27,↑,down,↓,0.7445160001516342,False,16,-1,0,12
Y2-S2-033K24,2,224,AS,exp,39,←,left,←,0.48695409996435046,True,17,-1,0,12
Y2-S2-033K24,2,225,AS,exp,28,↑,up,↑,0.6210817000828683,True,17,-1,0,12
Y2-S2-033K24,2,226,AS,exp,26,↓,down,↓,0.5355453998781741,True,17,1,1,13
Y2-S2-033K24,2,227,AS,exp,34,→,right,→,0.710319499950856,True,16,1,0,13
Y2-S2-033K24,2,228,AS,exp,50,←,up,↑,0.7426361003890634,False,16,-1,1,14
Y2-S2-033K24,2,229,AS,exp,46,↑,up,↑,0.5271573001518846,True,17,-1,0,14
Y2-S2-033K24,2,230,AS,exp,30,↓,down,↓,0.9032004000619054,True,17,-1,0,14
Y2-S2-033K24,2,231,AS,exp,35,↑,up,↑,0.46116899978369474,True,17,1,1,15
Y2-S2-033K24,2,232,AS,exp,40,↓,up,↑,0.6511293002404273,False,16,-1,1,16
Y2-S2-033K24,3,233,AS,intra_train,46,↑,up,↑,0.5996483997441828,True,25,-,-,-
Y2-S2-033K24,3,234,AS,intra_train,43,↓,down,↓,0.7556968997232616,True,25,-,-,-
Y2-S2-033K24,3,235,AS,intra_train,42,→,right,→,0.5509514999575913,True,25,-,-,-
Y2-S2-033K24,3,236,AS,intra_train,45,↑,up,↑,0.46754369977861643,True,25,-,-,-
Y2-S2-033K24,3,237,AS,intra_train,42,←,right,→,0.6167445997707546,False,25,-,-,-
Y2-S2-033K24,3,238,AS,exp,39,→,left,←,0.7692176997661591,False,17,-1,0,0
Y2-S2-033K24,3,239,AS,exp,33,←,left,←,0.5851912996731699,True,18,-1,0,0
Y2-S2-033K24,3,240,AS,exp,26,↑,up,↑,0.5728458003140986,True,18,-1,0,0
Y2-S2-033K24,3,241,AS,exp,48,→,left,←,0.7910183002240956,False,18,-1,0,0
Y2-S2-033K24,3,242,AS,exp,33,↓,down,↓,0.7545986999757588,True,19,-1,0,0
Y2-S2-033K24,3,243,AS,exp,29,→,right,→,0.6183764999732375,True,19,-1,0,0
Y2-S2-033K24,3,244,AS,exp,31,↑,up,↑,0.7384455003775656,True,19,1,1,1
Y2-S2-033K24,3,245,AS,exp,43,←,left,←,0.6991220000199974,True,18,1,0,1
Y2-S2-033K24,3,246,AS,exp,28,→,right,→,0.5556061998941004,True,18,1,0,1
Y2-S2-033K24,3,247,AS,exp,49,←,left,←,0.5490044001489878,True,18,1,0,1
Y2-S2-033K24,3,248,AS,exp,46,↑,up,↑,0.6883948999457061,True,17,1,0,1
Y2-S2-033K24,3,249,AS,exp,34,←,left,←,0.667669199872762,True,17,1,0,1
Y2-S2-033K24,3,250,AS,exp,36,↑,up,↑,0.6109696999192238,True,17,1,0,1
Y2-S2-033K24,3,251,AS,exp,43,→,left,←,0.6941215000115335,False,16,-1,1,2
Y2-S2-033K24,3,252,AS,exp,46,↑,up,↑,0.7259332002140582,True,17,-1,0,2
Y2-S2-033K24,3,253,AS,exp,27,↓,up,↑,0.791024100035429,False,17,-1,0,2
Y2-S2-033K24,3,254,AS,exp,25,→,right,→,0.5462550004012883,True,18,-1,0,2
Y2-S2-033K24,3,255,AS,exp,47,↓,up,↑,0.8214103002101183,False,18,-1,0,2
Y2-S2-033K24,3,256,AS,exp,44,→,right,→,0.4504888001829386,True,19,-1,0,2
Y2-S2-033K24,3,257,AS,exp,33,↑,down,↓,0.6677680998109281,False,19,-1,0,2
Y2-S2-033K24,3,258,AS,exp,47,←,left,←,0.5101800998672843,True,20,-1,0,2
Y2-S2-033K24,3,259,AS,exp,34,↑,up,↑,0.8585836999118328,True,20,-1,0,2
Y2-S2-033K24,3,260,AS,exp,28,←,left,←,0.5523593998514116,True,20,1,1,3
Y2-S2-033K24,3,261,AS,exp,28,↓,down,↓,0.6461244998499751,True,19,1,0,3
Y2-S2-033K24,3,262,AS,exp,34,←,left,←,0.4506037998944521,True,19,1,0,3
Y2-S2-033K24,3,263,AS,exp,42,→,no_key,no_letter,-1.0,False,19,-1,1,4
Y2-S2-033K24,3,264,AS,exp,39,↑,up,↑,1.3429566002450883,True,20,-1,0,4
Y2-S2-033K24,3,265,AS,exp,30,←,left,←,1.119829900097102,True,20,-1,0,4
Y2-S2-033K24,3,266,AS,exp,45,↓,down,↓,0.7829342000186443,True,20,1,1,5
Y2-S2-033K24,3,267,AS,exp,28,→,right,→,0.5354591999202967,True,19,1,0,5
Y2-S2-033K24,3,268,AS,exp,44,↑,up,↑,1.248802799731493,True,19,1,0,5
Y2-S2-033K24,3,269,AS,exp,47,←,left,←,0.543561500031501,True,19,1,0,5
Y2-S2-033K24,3,270,AS,exp,38,↓,down,↓,1.258333900012076,True,18,1,0,5
Y2-S2-033K24,3,271,AS,exp,36,←,left,←,0.5895169000141323,True,18,1,0,5
Y2-S2-033K24,3,272,AS,exp,45,→,right,→,0.5529960999265313,True,18,1,0,5
Y2-S2-033K24,3,273,AS,exp,31,↓,down,↓,0.8696912997402251,True,17,1,0,5
Y2-S2-033K24,3,274,AS,exp,29,↑,up,↑,0.7511665001511574,True,17,1,0,5
Y2-S2-033K24,3,275,AS,exp,34,←,left,←,0.5449099000543356,True,17,1,0,5
Y2-S2-033K24,3,276,AS,exp,37,↑,up,↑,0.6309564001858234,True,16,1,0,5
Y2-S2-033K24,3,277,AS,exp,37,→,left,←,0.6956421001814306,False,16,-1,1,6
Y2-S2-033K24,3,278,AS,exp,31,←,no_key,no_letter,-1.0,False,17,-1,0,6
Y2-S2-033K24,3,279,AS,exp,45,↑,up,↑,0.6351947002112865,True,18,-1,0,6
Y2-S2-033K24,3,280,AS,exp,27,←,left,←,0.5387637000530958,True,18,-1,0,6
Y2-S2-033K24,3,281,AS,exp,45,→,right,→,0.5009141997434199,True,18,1,1,7
Y2-S2-033K24,3,282,AS,exp,37,↑,up,↑,0.6448792000301182,True,17,1,0,7
Y2-S2-033K24,3,283,AS,exp,47,↓,up,↑,0.6204254999756813,False,17,-1,1,8
Y2-S2-033K24,3,284,AS,exp,50,←,left,←,0.5219704997725785,True,18,-1,0,8
Y2-S2-033K24,3,285,AS,exp,31,→,right,→,0.65828140033409,True,18,-1,0,8
Y2-S2-033K24,3,286,AS,exp,50,←,left,←,0.602346200030297,True,18,1,1,9
Y2-S2-033K24,3,287,AS,exp,42,→,right,→,0.4987897998653352,True,17,1,0,9
Y2-S2-033K24,3,288,AS,exp,33,↑,up,↑,0.45789190009236336,True,17,1,0,9
Y2-S2-033K24,3,289,AS,exp,35,↓,down,↓,0.5686304001137614,True,17,1,0,9
Y2-S2-033K24,3,290,AS,exp,44,→,right,→,0.48277390003204346,True,16,1,0,9
Y2-S2-033K24,3,291,AS,exp,30,↓,right,→,0.5248262998647988,False,16,-1,1,10
Y2-S2-033K24,3,292,AS,exp,37,↑,up,↑,0.4174218997359276,True,17,-1,0,10
Y2-S2-033K24,3,293,AS,exp,43,↓,no_key,no_letter,-1.0,False,17,-1,0,10
Y2-S2-033K24,3,294,AS,exp,49,←,right,→,0.7060300000011921,False,18,-1,0,10
Y2-S2-033K24,3,295,AS,exp,45,↑,up,↑,1.8145316001027822,True,19,-1,0,10
Y2-S2-033K24,3,296,AS,exp,36,↓,down,↓,0.7031825999729335,True,19,-1,0,10
Y2-S2-033K24,3,297,AS,exp,37,←,left,←,1.9644573000259697,True,19,1,1,11
Y2-S2-033K24,3,298,AS,exp,33,→,left,←,0.7484152000397444,False,18,-1,1,12
Y2-S2-033K24,3,299,AS,exp,29,↓,down,↓,0.4958345997147262,True,19,-1,0,12
Y2-S2-033K24,3,300,AS,exp,25,↑,down,↓,0.9696795996278524,False,19,-1,0,12
Y2-S2-033K24,3,301,AS,exp,36,→,right,→,0.5927871996536851,True,20,-1,0,12
Y2-S2-033K24,3,302,AS,exp,38,↓,down,↓,0.5637607001699507,True,20,-1,0,12
Y2-S2-033K24,3,303,AS,exp,48,↑,up,↑,0.4676232999190688,True,20,1,1,13
Y2-S2-033K24,3,304,AS,exp,39,→,right,→,0.5325170997530222,True,19,1,0,13
Y2-S2-033K24,3,305,AS,exp,25,↑,up,↑,0.41704649990424514,True,19,1,0,13
Y2-S2-033K24,3,306,AS,exp,30,↓,down,↓,0.8103247000835836,True,19,1,0,13
Y2-S2-033K24,3,307,AS,exp,42,↑,right,→,0.6507774000056088,False,18,-1,1,14
Y2-S2-033K24,3,308,AS,exp,30,↓,right,→,0.7832265999168158,False,19,-1,0,14
Y2-S2-033K24,3,309,AS,exp,38,→,right,→,0.5329020000062883,True,20,-1,0,14
Y2-S2-033K24,3,310,AS,exp,45,↑,up,↑,0.45063470024615526,True,20,-1,0,14
Y2-S2-033K24,3,311,AS,exp,48,→,right,→,0.5101212002336979,True,20,1,1,15
Y2-S2-033K24,3,312,AS,exp,40,↓,down,↓,0.450456699822098,True,19,1,0,15
Y2-S2-033K24,3,313,AS,exp,31,↑,up,↑,0.7603253000415862,True,19,1,0,15
Y2-S2-033K24,3,314,AS,exp,48,←,left,←,0.5219152998179197,True,19,1,0,15
Y2-S2-033K24,3,315,AS,exp,26,↑,right,→,0.5475794998928905,False,18,-1,1,16
Y2-S2-033K24,4,316,PS,intra_train,28,↓,down,↓,0.7751458999700844,True,16,-,-,-
Y2-S2-033K24,4,317,PS,intra_train,36,↑,up,↑,0.5763655002228916,True,16,-,-,-
Y2-S2-033K24,4,318,PS,intra_train,31,→,right,→,0.7750133997760713,True,16,-,-,-
Y2-S2-033K24,4,319,PS,intra_train,28,↓,down,↓,0.7797119999304414,True,16,-,-,-
Y2-S2-033K24,4,320,PS,intra_train,45,→,right,→,0.5732881003059447,True,16,-,-,-
Y2-S2-033K24,4,321,PS,exp,29,←,left,←,0.6570516997016966,True,11,0,0,0
Y2-S2-033K24,4,322,PS,exp,29,↓,right,→,0.6523862998001277,False,11,-1,0,0
Y2-S2-033K24,4,323,PS,exp,26,→,right,→,0.5441738003864884,True,12,-1,0,0
Y2-S2-033K24,4,324,PS,exp,26,←,left,←,0.6281517003662884,True,12,-1,0,0
Y2-S2-033K24,4,325,PS,exp,43,↓,right,→,0.6677234997041523,False,12,-1,0,0
Y2-S2-033K24,4,326,PS,exp,41,←,right,→,0.6050355001352727,False,13,-1,0,0
Y2-S2-033K24,4,327,PS,exp,40,↓,down,↓,0.5718572000041604,True,14,-1,0,0
Y2-S2-033K24,4,328,PS,exp,38,←,left,←,0.6159403999336064,True,14,-1,0,0
Y2-S2-033K24,4,329,PS,exp,40,→,right,→,0.5606456003151834,True,14,1,1,1
Y2-S2-033K24,4,330,PS,exp,31,↑,right,→,0.7560987998731434,False,13,-1,1,2
Y2-S2-033K24,4,331,PS,exp,32,←,right,→,0.7100944998674095,False,14,-1,0,2
Y2-S2-033K24,4,332,PS,exp,45,→,right,→,0.6002708999440074,True,15,-1,0,2
Y2-S2-033K24,4,333,PS,exp,28,↑,up,↑,0.5521156997419894,True,15,-1,0,2
Y2-S2-033K24,4,334,PS,exp,42,←,left,←,0.6176636000163853,True,15,1,1,3
Y2-S2-033K24,4,335,PS,exp,28,→,right,→,0.5649802000261843,True,14,1,0,3
Y2-S2-033K24,4,336,PS,exp,27,↓,down,↓,0.7144538001157343,True,14,1,0,3
Y2-S2-033K24,4,337,PS,exp,40,←,left,←,0.5600581001490355,True,14,1,0,3
Y2-S2-033K24,4,338,PS,exp,45,→,right,→,0.4504824001342058,True,13,1,0,3
Y2-S2-033K24,4,339,PS,exp,49,←,left,←,0.5414785998873413,True,13,1,0,3
Y2-S2-033K24,4,340,PS,exp,35,→,right,→,0.47455229982733727,True,13,1,0,3
Y2-S2-033K24,4,341,PS,exp,48,↑,up,↑,0.5051231998950243,True,12,1,0,3
Y2-S2-033K24,4,342,PS,exp,33,←,left,←,0.4379019998013973,True,12,1,0,3
Y2-S2-033K24,4,343,PS,exp,33,↓,right,→,0.7651406000368297,False,12,-1,1,4
Y2-S2-033K24,4,344,PS,exp,29,→,right,→,0.5026724999770522,True,13,-1,0,4
Y2-S2-033K24,4,345,PS,exp,46,↑,up,↑,0.4968884000554681,True,13,-1,0,4
Y2-S2-033K24,4,346,PS,exp,37,←,left,←,0.6514635998755693,True,13,1,1,5
Y2-S2-033K24,4,347,PS,exp,30,↓,down,↓,0.5864782999269664,True,12,1,0,5
Y2-S2-033K24,4,348,PS,exp,41,→,right,→,0.5789303998462856,True,12,1,0,5
Y2-S2-033K24,4,349,PS,exp,49,↑,up,↑,0.4517622999846935,True,12,1,0,5
Y2-S2-033K24,4,350,PS,exp,43,←,left,←,0.6207365998998284,True,11,1,0,5
Y2-S2-033K24,4,351,PS,exp,33,↑,right,→,0.668009000364691,False,11,-1,1,6
Y2-S2-033K24,4,352,PS,exp,31,←,left,←,0.6571298995986581,True,12,-1,0,6
Y2-S2-033K24,4,353,PS,exp,28,↑,right,→,0.8176091997884214,False,12,-1,0,6
Y2-S2-033K24,4,354,PS,exp,46,←,right,→,0.6898439000360668,False,13,-1,0,6
Y2-S2-033K24,4,355,PS,exp,46,↓,down,↓,0.654252499807626,True,14,-1,0,6
Y2-S2-033K24,4,356,PS,exp,36,↑,up,↑,0.6168161001987755,True,14,-1,0,6
Y2-S2-033K24,4,357,PS,exp,27,↓,down,↓,0.5494260000996292,True,14,1,1,7
Y2-S2-033K24,4,358,PS,exp,32,↑,up,↑,0.4976925002411008,True,13,1,0,7
Y2-S2-033K24,4,359,PS,exp,50,←,up,↑,0.8286452000029385,False,13,-1,1,8
Y2-S2-033K24,4,360,PS,exp,38,↑,up,↑,0.5937788002192974,True,14,-1,0,8
Y2-S2-033K24,4,361,PS,exp,40,←,left,←,0.49944799998775125,True,14,-1,0,8
Y2-S2-033K24,4,362,PS,exp,39,→,right,→,0.49215269973501563,True,14,1,1,9
Y2-S2-033K24,4,363,PS,exp,34,↑,up,↑,0.9992044996470213,True,13,1,0,9
Y2-S2-033K24,4,364,PS,exp,40,↓,down,↓,0.5256272000260651,True,13,1,0,9
Y2-S2-033K24,4,365,PS,exp,35,↑,right,→,0.6336218998767436,False,13,-1,1,10
Y2-S2-033K24,4,366,PS,exp,49,→,right,→,0.5234056003391743,True,14,-1,0,10
Y2-S2-033K24,4,367,PS,exp,41,↑,up,↑,0.5368976998142898,True,14,-1,0,10
Y2-S2-033K24,4,368,PS,exp,46,→,right,→,0.5837922999635339,True,14,1,1,11
Y2-S2-033K24,4,369,PS,exp,45,↓,down,↓,0.5140891000628471,True,13,1,0,11
Y2-S2-033K24,4,370,PS,exp,50,→,right,→,0.5831939997151494,True,13,1,0,11
Y2-S2-033K24,4,371,PS,exp,46,↓,right,→,0.5291745001450181,False,13,-1,1,12
Y2-S2-033K24,4,372,PS,exp,27,→,right,→,0.511239499785006,True,14,-1,0,12
Y2-S2-033K24,4,373,PS,exp,26,←,left,←,0.5847168997861445,True,14,-1,0,12
Y2-S2-033K24,4,374,PS,exp,32,→,right,→,0.5514337997883558,True,14,1,1,13
Y2-S2-033K24,4,375,PS,exp,27,←,left,←,0.5873827999457717,True,13,1,0,13
Y2-S2-033K24,4,376,PS,exp,38,↑,left,←,0.7965241996571422,False,13,-1,1,14
Y2-S2-033K24,4,377,PS,exp,30,→,right,→,0.630245799664408,True,14,-1,0,14
Y2-S2-033K24,4,378,PS,exp,31,↓,down,↓,0.5052330000326037,True,14,-1,0,14
Y2-S2-033K24,4,379,PS,exp,39,←,left,←,0.5075793000869453,True,14,1,1,15
Y2-S2-033K24,4,380,PS,exp,46,↑,right,→,0.5334103000350296,False,13,-1,1,16
Y2-S2-033K24,5,381,PS,intra_train,33,←,left,←,0.4839027002453804,True,16,-,-,-
Y2-S2-033K24,5,382,PS,intra_train,40,→,right,→,0.4677031999453902,True,16,-,-,-
Y2-S2-033K24,5,383,PS,intra_train,28,↑,up,↑,0.7352151996456087,True,16,-,-,-
Y2-S2-033K24,5,384,PS,intra_train,39,←,left,←,0.5580466003157198,True,16,-,-,-
Y2-S2-033K24,5,385,PS,intra_train,48,→,right,→,0.4928890001028776,True,16,-,-,-
Y2-S2-033K24,5,386,PS,exp,38,↑,up,↑,0.5823532999493182,True,11,0,0,0
Y2-S2-033K24,5,387,PS,exp,50,↓,down,↓,0.5480583999305964,True,11,0,0,0
Y2-S2-033K24,5,388,PS,exp,42,←,right,→,0.46136320009827614,False,11,-1,0,0
Y2-S2-033K24,5,389,PS,exp,35,↓,up,↑,0.8076939000748098,False,12,-1,0,0
Y2-S2-033K24,5,390,PS,exp,41,→,right,→,0.5514042000286281,True,13,-1,0,0
Y2-S2-033K24,5,391,PS,exp,43,↓,up,↑,0.6486030998639762,False,13,-1,0,0
Y2-S2-033K24,5,392,PS,exp,43,←,left,←,0.6399938999675214,True,14,-1,0,0
Y2-S2-033K24,5,393,PS,exp,35,↓,down,↓,0.5734581002034247,True,14,-1,0,0
Y2-S2-033K24,5,394,PS,exp,50,←,left,←,0.5122738000936806,True,14,1,1,1
Y2-S2-033K24,5,395,PS,exp,48,↓,down,↓,0.5216525001451373,True,13,1,0,1
Y2-S2-033K24,5,396,PS,exp,36,←,left,←,0.4421224999241531,True,13,1,0,1
Y2-S2-033K24,5,397,PS,exp,27,↑,up,↑,0.41297969967126846,True,13,1,0,1
Y2-S2-033K24,5,398,PS,exp,30,↓,left,←,0.6201946996152401,False,12,-1,1,2
Y2-S2-033K24,5,399,PS,exp,42,←,left,←,0.5840543997474015,True,13,-1,0,2
Y2-S2-033K24,5,400,PS,exp,47,→,left,←,0.6749026998877525,False,13,-1,0,2
Y2-S2-033K24,5,401,PS,exp,37,↑,left,←,0.6594660999253392,False,14,-1,0,2
Y2-S2-033K24,5,402,PS,exp,29,←,left,←,0.6601566998288035,True,15,-1,0,2
Y2-S2-033K24,5,403,PS,exp,47,↑,up,↑,1.5587519998662174,True,15,-1,0,2
Y2-S2-033K24,5,404,PS,exp,48,←,left,←,0.6577180000022054,True,15,1,1,3
Y2-S2-033K24,5,405,PS,exp,43,↑,up,↑,0.48891690000891685,True,14,1,0,3
Y2-S2-033K24,5,406,PS,exp,31,←,left,←,0.7379902000539005,True,14,1,0,3
Y2-S2-033K24,5,407,PS,exp,43,↓,left,←,0.5596563997678459,False,14,-1,1,4
Y2-S2-033K24,5,408,PS,exp,45,↑,up,↑,0.5160393002443016,True,15,-1,0,4
Y2-S2-033K24,5,409,PS,exp,49,←,left,←,0.5535659999586642,True,15,-1,0,4
Y2-S2-033K24,5,410,PS,exp,40,→,right,→,0.45122359972447157,True,15,1,1,5
Y2-S2-033K24,5,411,PS,exp,29,↑,up,↑,0.7578195999376476,True,14,1,0,5
Y2-S2-033K24,5,412,PS,exp,25,→,right,→,0.5753574999980628,True,14,1,0,5
Y2-S2-033K24,5,413,PS,exp,39,↓,up,↑,0.6300333999097347,False,14,-1,1,6
Y2-S2-033K24,5,414,PS,exp,40,↑,up,↑,0.5424125995486975,True,15,-1,0,6
Y2-S2-033K24,5,415,PS,exp,39,→,right,→,0.48506430024281144,True,15,-1,0,6
Y2-S2-033K24,5,416,PS,exp,29,←,left,←,0.995331700425595,True,15,1,1,7
Y2-S2-033K24,5,417,PS,exp,37,→,right,→,0.6251123999245465,True,14,1,0,7
Y2-S2-033K24,5,418,PS,exp,46,←,left,←,0.45294929994270205,True,14,1,0,7
Y2-S2-033K24,5,419,PS,exp,45,→,right,→,0.8437219001352787,True,14,1,0,7
Y2-S2-033K24,5,420,PS,exp,50,↓,up,↑,0.5466800997965038,False,13,-1,1,8
Y2-S2-033K24,5,421,PS,exp,47,↑,up,↑,0.6253766999579966,True,14,-1,0,8
Y2-S2-033K24,5,422,PS,exp,33,↓,left,←,0.4449618998914957,False,14,-1,0,8
Y2-S2-033K24,5,423,PS,exp,35,←,left,←,0.5836823000572622,True,15,-1,0,8
Y2-S2-033K24,5,424,PS,exp,27,↑,up,↑,0.5078835003077984,True,15,-1,0,8
Y2-S2-033K24,5,425,PS,exp,26,←,left,←,0.4215895002707839,True,15,1,1,9
Y2-S2-033K24,5,426,PS,exp,33,↓,down,↓,0.6606984999962151,True,14,1,0,9
Y2-S2-033K24,5,427,PS,exp,43,→,right,→,0.7235803999938071,True,14,1,0,9
Y2-S2-033K24,5,428,PS,exp,39,↑,up,↑,0.5114929000847042,True,14,1,0,9
Y2-S2-033K24,5,429,PS,exp,31,↓,down,↓,0.6720854002051055,True,13,1,0,9
Y2-S2-033K24,5,430,PS,exp,48,→,right,→,0.4407704998739064,True,13,1,0,9
Y2-S2-033K24,5,431,PS,exp,43,←,right,→,0.6509471996687353,False,13,-1,1,10
Y2-S2-033K24,5,432,PS,exp,49,↑,right,→,0.6602102001197636,False,14,-1,0,10
Y2-S2-033K24,5,433,PS,exp,28,↓,right,→,0.6180297997780144,False,15,-1,0,10
Y2-S2-033K24,5,434,PS,exp,30,→,left,←,0.7999452999792993,False,16,-1,0,10
Y2-S2-033K24,5,435,PS,exp,29,↑,up,↑,0.5513502997346222,True,17,-1,0,10
Y2-S2-033K24,5,436,PS,exp,42,←,right,→,0.9524236996658146,False,17,-1,0,10
Y2-S2-033K24,5,437,PS,exp,31,↑,up,↑,0.7295675999484956,True,18,-1,0,10
Y2-S2-033K24,5,438,PS,exp,36,←,left,←,0.5174521002918482,True,18,-1,0,10
Y2-S2-033K24,5,439,PS,exp,44,↑,up,↑,0.4752751002088189,True,18,1,1,11
Y2-S2-033K24,5,440,PS,exp,48,→,up,↑,0.635445499792695,False,17,-1,1,12
Y2-S2-033K24,5,441,PS,exp,28,↑,right,→,0.8415084998123348,False,18,-1,0,12
Y2-S2-033K24,5,442,PS,exp,49,↓,down,↓,0.5710358996875584,True,19,-1,0,12
Y2-S2-033K24,5,443,PS,exp,44,→,no_key,no_letter,-1.0,False,19,-1,0,12
Y2-S2-033K24,5,444,PS,exp,47,↑,right,→,0.555806000251323,False,20,-1,0,12
Y2-S2-033K24,5,445,PS,exp,26,→,up,↑,0.8378277998417616,False,21,-1,0,12
Y2-S2-033K24,5,446,PS,exp,50,↓,down,↓,0.5830451999790967,True,22,-1,0,12
Y2-S2-033K24,5,447,PS,exp,30,→,right,→,0.7376799997873604,True,22,-1,0,12
Y2-S2-033K24,5,448,PS,exp,27,←,left,←,0.6550857000984251,True,22,1,1,13
Y2-S2-033K24,5,449,PS,exp,33,→,right,→,0.6738861999474466,True,21,1,0,13
Y2-S2-033K24,5,450,PS,exp,29,↓,down,↓,0.5338693000376225,True,21,1,0,13
Y2-S2-033K24,5,451,PS,exp,27,↑,up,↑,0.6415047999471426,True,21,1,0,13
Y2-S2-033K24,5,452,PS,exp,34,←,left,←,0.7037416999228299,True,20,1,0,13
Y2-S2-033K24,5,453,PS,exp,40,→,no_key,no_letter,-1.0,False,20,-1,1,14
Y2-S2-033K24,5,454,PS,exp,42,↑,up,↑,0.5474489000625908,True,21,-1,0,14
Y2-S2-033K24,5,455,PS,exp,28,←,right,→,0.5750019000843167,False,21,-1,0,14
Y2-S2-033K24,5,456,PS,exp,35,↓,down,↓,1.7264077002182603,True,22,-1,0,14
Y2-S2-033K24,5,457,PS,exp,43,→,right,→,1.564553499687463,True,22,-1,0,14
Y2-S2-033K24,5,458,PS,exp,41,↓,down,↓,1.4740838003344834,True,22,1,1,15
Y2-S2-033K24,5,459,PS,exp,34,↑,up,↑,0.4838176001794636,True,21,1,0,15
Y2-S2-033K24,5,460,PS,exp,39,←,left,←,0.5868126000277698,True,21,1,0,15
Y2-S2-033K24,5,461,PS,exp,28,→,right,→,0.5354554001241922,True,21,1,0,15
Y2-S2-033K24,5,462,PS,exp,46,↑,up,↑,0.5265397001057863,True,20,1,0,15
Y2-S2-033K24,5,463,PS,exp,44,↓,up,↑,0.6695710001513362,False,20,-1,1,16
Y2-S2-033K24,6,464,AS,intra_train,49,↑,up,↑,0.6143840001896024,True,25,-,-,-
Y2-S2-033K24,6,465,AS,intra_train,45,→,right,→,0.4843289996497333,True,25,-,-,-
Y2-S2-033K24,6,466,AS,intra_train,35,←,left,←,0.7936639999970794,True,25,-,-,-
Y2-S2-033K24,6,467,AS,intra_train,29,→,right,→,0.7208867003209889,True,25,-,-,-
Y2-S2-033K24,6,468,AS,intra_train,26,↑,up,↑,0.6020340998657048,True,25,-,-,-
Y2-S2-033K24,6,469,AS,exp,36,↓,down,↓,0.653154999949038,True,17,0,0,0
Y2-S2-033K24,6,470,AS,exp,33,→,right,→,0.4988686996512115,True,17,0,0,0
Y2-S2-033K24,6,471,AS,exp,41,←,right,→,0.5406151004135609,False,17,-1,0,0
Y2-S2-033K24,6,472,AS,exp,30,→,right,→,0.5350065999664366,True,18,-1,0,0
Y2-S2-033K24,6,473,AS,exp,33,↓,down,↓,0.6026296997442842,True,18,-1,0,0
Y2-S2-033K24,6,474,AS,exp,28,→,right,→,0.5896720001474023,True,18,1,1,1
Y2-S2-033K24,6,475,AS,exp,27,↓,down,↓,0.5832493002526462,True,17,1,0,1
Y2-S2-033K24,6,476,AS,exp,35,←,left,←,0.9249444999732077,True,17,1,0,1
Y2-S2-033K24,6,477,AS,exp,33,↓,down,↓,0.5116608003154397,True,17,1,0,1
Y2-S2-033K24,6,478,AS,exp,40,↑,up,↑,0.7399022998288274,True,16,1,0,1
Y2-S2-033K24,6,479,AS,exp,44,←,right,→,0.5889569004066288,False,16,-1,1,2
Y2-S2-033K24,6,480,AS,exp,32,↑,right,→,0.4596692998893559,False,17,-1,0,2
Y2-S2-033K24,6,481,AS,exp,32,←,left,←,0.7002241001464427,True,18,-1,0,2
Y2-S2-033K24,6,482,AS,exp,28,→,right,→,0.7800930999219418,True,18,-1,0,2
Y2-S2-033K24,6,483,AS,exp,25,↑,up,↑,0.7099591996520758,True,18,1,1,3
Y2-S2-033K24,6,484,AS,exp,36,→,right,→,0.46487269969657063,True,17,1,0,3
Y2-S2-033K24,6,485,AS,exp,38,↓,down,↓,0.6993068000301719,True,17,1,0,3
Y2-S2-033K24,6,486,AS,exp,45,→,right,→,0.41702889977023005,True,17,1,0,3
Y2-S2-033K24,6,487,AS,exp,28,↑,up,↑,0.6191357001662254,True,16,1,0,3
Y2-S2-033K24,6,488,AS,exp,50,↓,down,↓,0.5535828000865877,True,16,1,0,3
Y2-S2-033K24,6,489,AS,exp,44,→,right,→,0.49291739985346794,True,16,1,0,3
Y2-S2-033K24,6,490,AS,exp,29,←,left,←,0.830074300058186,True,15,1,0,3
Y2-S2-033K24,6,491,AS,exp,33,↑,up,↑,0.6967965001240373,True,15,1,0,3
Y2-S2-033K24,6,492,AS,exp,30,←,left,←,0.5342149003408849,True,15,1,0,3
Y2-S2-033K24,6,493,AS,exp,49,→,right,→,0.434795199893415,True,14,1,0,3
Y2-S2-033K24,6,494,AS,exp,39,↑,up,↑,0.6227322998456657,True,14,1,0,3
Y2-S2-033K24,6,495,AS,exp,25,→,right,→,0.4768826002255082,True,14,1,0,3
Y2-S2-033K24,6,496,AS,exp,39,↓,up,↑,0.733982099685818,False,13,-1,1,4
Y2-S2-033K24,6,497,AS,exp,39,↑,up,↑,0.849337300285697,True,14,-1,0,4
Y2-S2-033K24,6,498,AS,exp,46,←,left,←,0.8162686000578105,True,14,-1,0,4
Y2-S2-033K24,6,499,AS,exp,28,↑,up,↑,0.4992403001524508,True,14,1,1,5
Y2-S2-033K24,6,500,AS,exp,27,↓,up,↑,0.5352996997535229,False,13,-1,1,6
Y2-S2-033K24,6,501,AS,exp,29,→,right,→,0.6380557999946177,True,14,-1,0,6
Y2-S2-033K24,6,502,AS,exp,33,↓,up,↑,0.6875243000686169,False,14,-1,0,6
Y2-S2-033K24,6,503,AS,exp,33,↑,up,↑,0.6054006996564567,True,15,-1,0,6
Y2-S2-033K24,6,504,AS,exp,33,↓,up,↑,0.7921040002256632,False,15,-1,0,6
Y2-S2-033K24,6,505,AS,exp,28,←,left,←,0.6799327000044286,True,16,-1,0,6
Y2-S2-033K24,6,506,AS,exp,31,↑,up,↑,0.4657183000817895,True,16,-1,0,6
Y2-S2-033K24,6,507,AS,exp,29,→,right,→,0.7268286999315023,True,16,1,1,7
Y2-S2-033K24,6,508,AS,exp,37,←,left,←,0.7454090001992881,True,15,1,0,7
Y2-S2-033K24,6,509,AS,exp,49,↓,up,↑,0.6967358002439141,False,15,-1,1,8
Y2-S2-033K24,6,510,AS,exp,33,→,right,→,1.2615939998067915,True,16,-1,0,8
Y2-S2-033K24,6,511,AS,exp,50,↓,up,↑,0.6437872000969946,False,16,-1,0,8
Y2-S2-033K24,6,512,AS,exp,37,↑,up,↑,0.45741079980507493,True,17,-1,0,8
Y2-S2-033K24,6,513,AS,exp,39,←,left,←,0.5901367999613285,True,17,-1,0,8
Y2-S2-033K24,6,514,AS,exp,45,↑,up,↑,0.3838876001536846,True,17,1,1,9
Y2-S2-033K24,6,515,AS,exp,43,↓,up,↑,0.7467118999920785,False,16,-1,1,10
Y2-S2-033K24,6,516,AS,exp,40,↑,up,↑,0.4006330999545753,True,17,-1,0,10
Y2-S2-033K24,6,517,AS,exp,29,→,right,→,0.6929101003333926,True,17,-1,0,10
Y2-S2-033K24,6,518,AS,exp,28,↓,down,↓,0.48960720002651215,True,17,1,1,11
Y2-S2-033K24,6,519,AS,exp,41,↑,up,↑,0.7017596000805497,True,16,1,0,11
Y2-S2-033K24,6,520,AS,exp,43,←,left,←,0.7178651001304388,True,16,1,0,11
Y2-S2-033K24,6,521,AS,exp,31,→,right,→,0.47381410002708435,True,16,1,0,11
Y2-S2-033K24,6,522,AS,exp,48,←,left,←,0.6455211001448333,True,15,1,0,11
Y2-S2-033K24,6,523,AS,exp,47,→,right,→,0.49077909998595715,True,15,1,0,11
Y2-S2-033K24,6,524,AS,exp,37,↑,up,↑,0.5096062999218702,True,15,1,0,11
Y2-S2-033K24,6,525,AS,exp,40,↓,down,↓,0.501012799795717,True,14,1,0,11
Y2-S2-033K24,6,526,AS,exp,32,→,left,←,0.6129359002225101,False,14,-1,1,12
Y2-S2-033K24,6,527,AS,exp,25,←,left,←,0.4883200000040233,True,15,-1,0,12
Y2-S2-033K24,6,528,AS,exp,31,↓,down,↓,0.45085630007088184,True,15,-1,0,12
Y2-S2-033K24,6,529,AS,exp,44,↑,up,↑,0.4577528000809252,True,15,1,1,13
Y2-S2-033K24,6,530,AS,exp,39,↓,down,↓,0.5823288997635245,True,14,1,0,13
Y2-S2-033K24,6,531,AS,exp,47,↑,up,↑,0.8472559996880591,True,14,1,0,13
Y2-S2-033K24,6,532,AS,exp,29,↓,down,↓,0.6514142001979053,True,14,1,0,13
Y2-S2-033K24,6,533,AS,exp,39,→,right,→,0.5312089999206364,True,13,1,0,13
Y2-S2-033K24,6,534,AS,exp,41,↓,down,↓,0.6827891999855638,True,13,1,0,13
Y2-S2-033K24,6,535,AS,exp,50,↑,down,↓,0.5651380000635982,False,13,-1,1,14
Y2-S2-033K24,6,536,AS,exp,25,←,left,←,0.6187519999220967,True,14,-1,0,14
Y2-S2-033K24,6,537,AS,exp,45,↑,up,↑,0.6376641001552343,True,14,-1,0,14
Y2-S2-033K24,6,538,AS,exp,29,→,right,→,0.5258634998463094,True,14,1,1,15
Y2-S2-033K24,6,539,AS,exp,26,↓,up,↑,0.6602334002964199,False,13,-1,1,16
Y2-S2-033K24,7,540,AS,intra_train,39,←,left,←,0.5009228000417352,True,25,-,-,-
Y2-S2-033K24,7,541,AS,intra_train,37,↑,up,↑,0.6328942999243736,True,25,-,-,-
Y2-S2-033K24,7,542,AS,intra_train,32,←,left,←,0.5355389998294413,True,25,-,-,-
Y2-S2-033K24,7,543,AS,intra_train,31,↓,down,↓,0.4671600996516645,True,25,-,-,-
Y2-S2-033K24,7,544,AS,intra_train,32,↑,up,↑,0.689860699698329,True,25,-,-,-
Y2-S2-033K24,7,545,AS,exp,25,↓,down,↓,0.6579188997857273,True,17,0,0,0
Y2-S2-033K24,7,546,AS,exp,30,↑,up,↑,0.8244284996762872,True,17,0,0,0
Y2-S2-033K24,7,547,AS,exp,27,←,left,←,0.7389465002343059,True,17,1,0,0
Y2-S2-033K24,7,548,AS,exp,33,↓,down,↓,0.4442247999832034,True,16,1,0,0
Y2-S2-033K24,7,549,AS,exp,26,→,right,→,0.5865937997587025,True,16,1,0,0
Y2-S2-033K24,7,550,AS,exp,42,←,left,←,0.4484592997469008,True,16,1,0,0
Y2-S2-033K24,7,551,AS,exp,32,↓,down,↓,0.7525416002608836,True,15,1,0,0
Y2-S2-033K24,7,552,AS,exp,37,←,left,←,0.44153530010953546,True,15,1,0,0
Y2-S2-033K24,7,553,AS,exp,44,→,left,←,0.6973218000493944,False,15,-1,1,1
Y2-S2-033K24,7,554,AS,exp,27,↑,up,↑,0.4829730996862054,True,16,-1,0,1
Y2-S2-033K24,7,555,AS,exp,27,→,left,←,0.6480543003417552,False,16,-1,0,1
Y2-S2-033K24,7,556,AS,exp,27,↑,down,↓,0.7127843997441232,False,17,-1,0,1
Y2-S2-033K24,7,557,AS,exp,36,→,left,←,0.550662100315094,False,18,-1,0,1
Y2-S2-033K24,7,558,AS,exp,34,←,left,←,0.6439761002548039,True,19,-1,0,1
Y2-S2-033K24,7,559,AS,exp,35,→,right,→,0.5438507003709674,True,19,-1,0,1
Y2-S2-033K24,7,560,AS,exp,43,←,left,←,0.599102399777621,True,19,1,1,2
Y2-S2-033K24,7,561,AS,exp,45,→,right,→,0.7848718999885023,True,18,1,0,2
Y2-S2-033K24,7,562,AS,exp,28,↑,up,↑,0.4176097996532917,True,18,1,0,2
Y2-S2-033K24,7,563,AS,exp,26,↓,down,↓,0.7159358002245426,True,18,1,0,2
Y2-S2-033K24,7,564,AS,exp,46,→,right,→,0.5584776997566223,True,17,1,0,2
Y2-S2-033K24,7,565,AS,exp,31,↓,down,↓,0.538094500079751,True,17,1,0,2
Y2-S2-033K24,7,566,AS,exp,41,→,right,→,0.5274087996222079,True,17,1,0,2
Y2-S2-033K24,7,567,AS,exp,29,←,left,←,0.5176559002138674,True,16,1,0,2
Y2-S2-033K24,7,568,AS,exp,43,↓,down,↓,0.4850875996053219,True,16,1,0,2
Y2-S2-033K24,7,569,AS,exp,36,↑,down,↓,0.695955999661237,False,16,-1,1,3
Y2-S2-033K24,7,570,AS,exp,37,→,right,→,0.5056952997110784,True,17,-1,0,3
Y2-S2-033K24,7,571,AS,exp,38,←,left,←,0.4699360001832247,True,17,-1,0,3
Y2-S2-033K24,7,572,AS,exp,34,↑,right,→,0.5436863997019827,False,17,-1,0,3
Y2-S2-033K24,7,573,AS,exp,38,↓,down,↓,0.41678169975057244,True,18,-1,0,3
Y2-S2-033K24,7,574,AS,exp,43,→,right,→,1.6072704000398517,True,18,-1,0,3
Y2-S2-033K24,7,575,AS,exp,28,↓,down,↓,0.4798606997355819,True,18,1,1,4
Y2-S2-033K24,7,576,AS,exp,28,↑,up,↑,0.490179399959743,True,17,1,0,4
Y2-S2-033K24,7,577,AS,exp,45,→,right,→,0.7821498000994325,True,17,1,0,4
Y2-S2-033K24,7,578,AS,exp,42,↑,up,↑,0.48487910022959113,True,17,1,0,4
Y2-S2-033K24,7,579,AS,exp,38,←,left,←,0.7450416996143758,True,16,1,0,4
Y2-S2-033K24,7,580,AS,exp,31,↓,up,↑,0.9400313002988696,False,16,-1,1,5
Y2-S2-033K24,7,581,AS,exp,28,→,right,→,0.8178420998156071,True,17,-1,0,5
Y2-S2-033K24,7,582,AS,exp,37,←,left,←,0.8057118998840451,True,17,-1,0,5
Y2-S2-033K24,7,583,AS,exp,26,↓,no_key,no_letter,-1.0,False,17,-1,0,5
Y2-S2-033K24,7,584,AS,exp,27,↑,up,↑,0.5415541999973357,True,18,-1,0,5
Y2-S2-033K24,7,585,AS,exp,26,→,right,→,0.6093774000182748,True,18,-1,0,5
Y2-S2-033K24,7,586,AS,exp,36,↓,down,↓,1.348193900194019,True,18,1,1,6
Y2-S2-033K24,7,587,AS,exp,50,←,left,←,1.2409254000522196,True,17,1,0,6
Y2-S2-033K24,7,588,AS,exp,48,↓,down,↓,0.745834399946034,True,17,1,0,6
Y2-S2-033K24,7,589,AS,exp,38,←,left,←,0.7965449001640081,True,17,1,0,6
Y2-S2-033K24,7,590,AS,exp,50,→,left,←,0.6708277999423444,False,16,-1,1,7
Y2-S2-033K24,7,591,AS,exp,30,↑,up,↑,0.49480829993262887,True,17,-1,0,7
Y2-S2-033K24,7,592,AS,exp,35,↓,down,↓,0.5388186001218855,True,17,-1,0,7
Y2-S2-033K24,7,593,AS,exp,48,→,right,→,0.468164199963212,True,17,1,1,8
Y2-S2-033K24,7,594,AS,exp,48,↑,up,↑,0.5816759997978806,True,16,1,0,8
Y2-S2-033K24,7,595,AS,exp,28,↓,down,↓,0.4007894000969827,True,16,1,0,8
Y2-S2-033K24,7,596,AS,exp,43,↑,up,↑,0.4385123997926712,True,16,1,0,8
Y2-S2-033K24,7,597,AS,exp,42,→,right,→,0.5822445000521839,True,15,1,0,8
Y2-S2-033K24,7,598,AS,exp,25,↑,up,↑,0.44675099989399314,True,15,1,0,8
Y2-S2-033K24,7,599,AS,exp,26,←,left,←,0.8081537997350097,True,15,1,0,8
Y2-S2-033K24,7,600,AS,exp,49,↑,up,↑,0.7094922000542283,True,14,1,0,8
Y2-S2-033K24,7,601,AS,exp,50,←,left,←,0.6654938003048301,True,14,1,0,8
Y2-S2-033K24,7,602,AS,exp,49,→,left,←,0.7188139003701508,False,14,-1,1,9
Y2-S2-033K24,7,603,AS,exp,29,↑,up,↑,0.6156710996292531,True,15,-1,0,9
Y2-S2-033K24,7,604,AS,exp,40,→,right,→,0.6535290000028908,True,15,-1,0,9
Y2-S2-033K24,7,605,AS,exp,42,←,left,←,0.5775124998763204,True,15,1,1,10
Y2-S2-033K24,7,606,AS,exp,31,→,left,←,0.5758591000922024,False,14,-1,1,11
Y2-S2-033K24,7,607,AS,exp,46,↑,up,↑,0.5746532003395259,True,15,-1,0,11
Y2-S2-033K24,7,608,AS,exp,45,←,left,←,0.7120059002190828,True,15,-1,0,11
Y2-S2-033K24,7,609,AS,exp,35,↓,down,↓,0.6756854001432657,True,15,1,1,12
Y2-S2-033K24,7,610,AS,exp,40,→,left,←,0.9418574003502727,False,14,-1,1,13
Y2-S2-033K24,7,611,AS,exp,39,↓,up,↑,0.7100658002309501,False,15,-1,0,13
Y2-S2-033K24,7,612,AS,exp,33,↑,up,↑,0.6796434000134468,True,16,-1,0,13
Y2-S2-033K24,7,613,AS,exp,32,←,left,←,0.49872880009934306,True,16,-1,0,13
Y2-S2-033K24,7,614,AS,exp,25,→,right,→,0.6337675000540912,True,16,1,1,14
Y2-S2-033K24,7,615,AS,exp,43,←,up,↑,0.609292000066489,False,15,-1,1,15
Y2-S2-033K24,7,616,AS,exp,41,↓,down,↓,0.5319924997165799,True,16,-1,0,15
Y2-S2-033K24,7,617,AS,exp,43,→,right,→,0.5488668000325561,True,16,-1,0,15
Y2-S2-033K24,7,618,AS,exp,36,↓,down,↓,0.5871361000463367,True,16,1,1,16
Y2-S2-033K24,8,619,PS,intra_train,26,→,right,→,0.5789910000748932,True,16,-,-,-
Y2-S2-033K24,8,620,PS,intra_train,50,↓,up,↑,0.8127065002918243,False,16,-,-,-
Y2-S2-033K24,8,621,PS,intra_train,25,←,left,←,0.49537030002102256,True,16,-,-,-
Y2-S2-033K24,8,622,PS,intra_train,26,↓,down,↓,0.556438900064677,True,16,-,-,-
Y2-S2-033K24,8,623,PS,intra_train,32,↑,right,→,0.44729970023036003,False,16,-,-,-
Y2-S2-033K24,8,624,PS,exp,26,↓,down,↓,0.5400996999815106,True,11,0,0,0
Y2-S2-033K24,8,625,PS,exp,46,↑,right,→,0.6539043998345733,False,11,-1,0,0
Y2-S2-033K24,8,626,PS,exp,45,←,right,→,0.8073877999559045,False,12,-1,0,0
Y2-S2-033K24,8,627,PS,exp,48,→,right,→,0.5594273996539414,True,13,-1,0,0
Y2-S2-033K24,8,628,PS,exp,43,←,left,←,0.5772663000971079,True,13,-1,0,0
Y2-S2-033K24,8,629,PS,exp,32,↓,down,↓,0.5432346002198756,True,13,1,1,1
Y2-S2-033K24,8,630,PS,exp,28,←,up,↑,0.5850029001012444,False,12,-1,1,2
Y2-S2-033K24,8,631,PS,exp,45,↓,left,←,0.8839912000112236,False,13,-1,0,2
Y2-S2-033K24,8,632,PS,exp,37,↑,up,↑,0.6601893003098667,True,14,-1,0,2
Y2-S2-033K24,8,633,PS,exp,40,→,right,→,0.5279410001821816,True,14,-1,0,2
Y2-S2-033K24,8,634,PS,exp,25,↓,down,↓,0.4816286996938288,True,14,1,1,3
Y2-S2-033K24,8,635,PS,exp,33,→,up,↑,0.5502285999245942,False,13,-1,1,4
Y2-S2-033K24,8,636,PS,exp,27,↓,down,↓,0.45570409996435046,True,14,-1,0,4
Y2-S2-033K24,8,637,PS,exp,45,→,left,←,0.897692000027746,False,14,-1,0,4
Y2-S2-033K24,8,638,PS,exp,47,←,left,←,0.5499038998968899,True,15,-1,0,4
Y2-S2-033K24,8,639,PS,exp,48,→,left,←,0.8674324001185596,False,15,-1,0,4
Y2-S2-033K24,8,640,PS,exp,45,↑,left,←,0.5603955001570284,False,16,-1,0,4
Y2-S2-033K24,8,641,PS,exp,33,←,up,↑,0.6483426000922918,False,17,-1,0,4
Y2-S2-033K24,8,642,PS,exp,36,↓,left,←,1.0436721998266876,False,18,-1,0,4
Y2-S2-033K24,8,643,PS,exp,44,←,up,↑,0.5720311999320984,False,19,-1,0,4
Y2-S2-033K24,8,644,PS,exp,27,→,left,←,0.5768291996791959,False,20,-1,0,4
Y2-S2-033K24,8,645,PS,exp,41,←,left,←,0.40100300032645464,True,21,-1,0,4
Y2-S2-033K24,8,646,PS,exp,33,↑,up,↑,0.5382924000732601,True,21,-1,0,4
Y2-S2-033K24,8,647,PS,exp,39,↓,down,↓,0.7889530998654664,True,21,1,1,5
Y2-S2-033K24,8,648,PS,exp,30,←,left,←,1.4806144000031054,True,20,1,0,5
Y2-S2-033K24,8,649,PS,exp,44,↑,up,↑,0.5996154001913965,True,20,1,0,5
Y2-S2-033K24,8,650,PS,exp,42,←,left,←,0.5964540001004934,True,20,1,0,5
Y2-S2-033K24,8,651,PS,exp,25,↓,up,↑,0.7110217004083097,False,19,-1,1,6
Y2-S2-033K24,8,652,PS,exp,41,↑,up,↑,1.7289346000179648,True,20,-1,0,6
Y2-S2-033K24,8,653,PS,exp,41,←,up,↑,0.9273564000613987,False,20,-1,0,6
Y2-S2-033K24,8,654,PS,exp,45,↑,up,↑,0.5188043001107872,True,21,-1,0,6
Y2-S2-033K24,8,655,PS,exp,28,↓,up,↑,0.9143727999180555,False,21,-1,0,6
Y2-S2-033K24,8,656,PS,exp,26,↑,up,↑,0.6106495996937156,True,22,-1,0,6
Y2-S2-033K24,8,657,PS,exp,49,←,left,←,1.46984349982813,True,22,-1,0,6
Y2-S2-033K24,8,658,PS,exp,25,→,right,→,0.5354556003585458,True,22,1,1,7
Y2-S2-033K24,8,659,PS,exp,40,↑,up,↑,0.6829850999638438,True,21,1,0,7
Y2-S2-033K24,8,660,PS,exp,35,←,left,←,0.43416239973157644,True,21,1,0,7
Y2-S2-033K24,8,661,PS,exp,32,→,right,→,0.5191359999589622,True,21,1,0,7
Y2-S2-033K24,8,662,PS,exp,29,↓,up,↑,0.935563700273633,False,20,-1,1,8
Y2-S2-033K24,8,663,PS,exp,37,↑,up,↑,0.6188789000734687,True,21,-1,0,8
Y2-S2-033K24,8,664,PS,exp,40,←,left,←,1.2808423996903002,True,21,-1,0,8
Y2-S2-033K24,8,665,PS,exp,36,→,right,→,0.6273984001018107,True,21,1,1,9
Y2-S2-033K24,8,666,PS,exp,33,↓,down,↓,0.6730035999789834,True,20,1,0,9
Y2-S2-033K24,8,667,PS,exp,29,↑,up,↑,1.103409799747169,True,20,1,0,9
Y2-S2-033K24,8,668,PS,exp,49,↓,down,↓,0.561871699988842,True,20,1,0,9
Y2-S2-033K24,8,669,PS,exp,37,↑,up,↑,0.4170681997202337,True,19,1,0,9
Y2-S2-033K24,8,670,PS,exp,31,←,left,←,1.2256947997957468,True,19,1,0,9
Y2-S2-033K24,8,671,PS,exp,27,↑,up,↑,0.5357726998627186,True,19,1,0,9
Y2-S2-033K24,8,672,PS,exp,48,↓,down,↓,0.5150378001853824,True,18,1,0,9
Y2-S2-033K24,8,673,PS,exp,29,→,right,→,0.8705207002349198,True,18,1,0,9
Y2-S2-033K24,8,674,PS,exp,41,↓,down,↓,0.5958960000425577,True,18,1,0,9
Y2-S2-033K24,8,675,PS,exp,31,→,right,→,1.3107429002411664,True,17,1,0,9
Y2-S2-033K24,8,676,PS,exp,29,←,right,→,0.5699859000742435,False,17,-1,1,10
Y2-S2-033K24,8,677,PS,exp,26,→,up,↑,0.6008729003369808,False,18,-1,0,10
Y2-S2-033K24,8,678,PS,exp,33,↑,right,→,0.4503888003528118,False,19,-1,0,10
Y2-S2-033K24,8,679,PS,exp,30,→,right,→,0.5274904002435505,True,20,-1,0,10
Y2-S2-033K24,8,680,PS,exp,27,↓,down,↓,0.4343449999578297,True,20,-1,0,10
Y2-S2-033K24,8,681,PS,exp,50,→,right,→,0.6278619999065995,True,20,1,1,11
Y2-S2-033K24,8,682,PS,exp,44,↓,down,↓,0.7115532997995615,True,19,1,0,11
Y2-S2-033K24,8,683,PS,exp,36,←,left,←,0.7614540001377463,True,19,1,0,11
Y2-S2-033K24,8,684,PS,exp,44,↑,left,←,0.5567954001016915,False,19,-1,1,12
Y2-S2-033K24,8,685,PS,exp,39,→,right,→,0.7465573004446924,True,20,-1,0,12
Y2-S2-033K24,8,686,PS,exp,33,←,left,←,0.45068749971687794,True,20,-1,0,12
Y2-S2-033K24,8,687,PS,exp,36,↑,up,↑,1.187533499673009,True,20,1,1,13
Y2-S2-033K24,8,688,PS,exp,34,←,left,←,0.7251114998944104,True,19,1,0,13
Y2-S2-033K24,8,689,PS,exp,42,↓,down,↓,0.5058879000134766,True,19,1,0,13
Y2-S2-033K24,8,690,PS,exp,27,→,right,→,0.6424012999050319,True,19,1,0,13
Y2-S2-033K24,8,691,PS,exp,29,←,left,←,0.5996782998554409,True,18,1,0,13
Y2-S2-033K24,8,692,PS,exp,37,→,right,→,0.4999254001304507,True,18,1,0,13
Y2-S2-033K24,8,693,PS,exp,49,←,left,←,0.5772211002185941,True,18,1,0,13
Y2-S2-033K24,8,694,PS,exp,29,↑,up,↑,0.6929625999182463,True,17,1,0,13
Y2-S2-033K24,8,695,PS,exp,29,←,right,→,0.726082899607718,False,17,-1,1,14
Y2-S2-033K24,8,696,PS,exp,46,→,right,→,0.5102973999455571,True,18,-1,0,14
Y2-S2-033K24,8,697,PS,exp,29,↑,up,↑,0.48815609980374575,True,18,-1,0,14
Y2-S2-033K24,8,698,PS,exp,29,↓,down,↓,1.2226899000816047,True,18,1,1,15
Y2-S2-033K24,8,699,PS,exp,28,↑,right,→,0.752339200116694,False,17,-1,1,16
