PART_ID,Block_no,Trial_no,Block_type,Trial_type,CSI,Stim_letter,Key_pressed,letter_choose,Rt,Corr,Stimulus Time,Level,Reversal,Revs_count
Y2-S2-285M22,1,1,PS,train,35,←,left,←,0.7042689999798313,True,30,-,-,-
Y2-S2-285M22,1,2,PS,train,30,→,right,→,0.4841349000344053,True,30,-,-,-
Y2-S2-285M22,1,3,PS,train,28,←,left,←,0.4676676000235602,True,30,-,-,-
Y2-S2-285M22,1,4,PS,train,32,↓,right,→,0.10127049998845905,False,30,-,-,-
Y2-S2-285M22,1,5,PS,train,38,←,left,←,0.48482979997061193,True,30,-,-,-
Y2-S2-285M22,1,6,PS,train,37,→,right,→,0.45097909995820373,True,30,-,-,-
Y2-S2-285M22,1,7,PS,train,36,↑,up,↑,0.5505854000803083,True,30,-,-,-
Y2-S2-285M22,1,8,PS,train,49,→,right,→,0.7661424999823794,True,30,-,-,-
Y2-S2-285M22,1,9,PS,train,49,←,left,←,0.8349440000019968,True,30,-,-,-
Y2-S2-285M22,1,10,PS,train,29,↓,down,↓,1.1157480999827385,True,30,-,-,-
Y2-S2-285M22,2,11,AS,train,28,→,right,→,0.8507874000351876,True,45,-,-,-
Y2-S2-285M22,2,12,AS,train,45,↓,down,↓,1.1985356999794021,True,45,-,-,-
Y2-S2-285M22,2,13,AS,train,38,←,left,←,0.8675329000689089,True,45,-,-,-
Y2-S2-285M22,2,14,AS,train,44,↓,down,↓,0.6344936999958009,True,45,-,-,-
Y2-S2-285M22,2,15,AS,train,34,↑,down,↓,0.4012325999792665,False,45,-,-,-
Y2-S2-285M22,2,16,AS,train,26,→,right,→,0.8505502000916749,True,45,-,-,-
Y2-S2-285M22,2,17,AS,train,32,↑,up,↑,0.7175952999386936,True,45,-,-,-
Y2-S2-285M22,2,18,AS,train,36,↓,down,↓,0.817424500011839,True,45,-,-,-
Y2-S2-285M22,2,19,AS,train,32,↑,up,↑,0.7176321999868378,True,45,-,-,-
Y2-S2-285M22,2,20,AS,train,41,←,left,←,0.5677844999590889,True,45,-,-,-
Y2-S2-285M22,-,21,PS,adaptive,47,↓,down,↓,0.6437586999963969,True,10,0,0,0
Y2-S2-285M22,-,22,PS,adaptive,32,→,right,→,0.914859400014393,True,10,0,0,0
Y2-S2-285M22,-,23,PS,adaptive,39,↓,down,↓,0.8422174999723211,True,10,1,0,0
Y2-S2-285M22,-,24,PS,adaptive,41,↑,up,↑,0.5117803999455646,True,9,1,0,0
Y2-S2-285M22,-,25,PS,adaptive,31,↓,down,↓,0.7815983999753371,True,9,1,0,0
Y2-S2-285M22,-,26,PS,adaptive,42,↑,up,↑,0.49016039993148297,True,9,1,0,0
Y2-S2-285M22,-,27,PS,adaptive,47,←,left,←,0.4773186999373138,True,8,1,0,0
Y2-S2-285M22,-,28,PS,adaptive,25,→,right,→,1.3715475000208244,True,8,1,0,0
Y2-S2-285M22,-,29,PS,adaptive,37,↓,down,↓,0.6452782000415027,True,8,1,0,0
Y2-S2-285M22,-,30,PS,adaptive,27,↑,right,→,0.8100588000379503,False,7,-1,1,1
Y2-S2-285M22,-,31,PS,adaptive,40,↓,down,↓,0.968552100006491,True,8,-1,0,1
Y2-S2-285M22,-,32,PS,adaptive,48,←,left,←,0.5057390000438318,True,8,-1,0,1
Y2-S2-285M22,-,33,PS,adaptive,45,→,right,→,0.46451890002936125,True,8,1,1,2
Y2-S2-285M22,-,34,PS,adaptive,50,↑,up,↑,0.6891126000555232,True,7,1,0,2
Y2-S2-285M22,-,35,PS,adaptive,36,→,right,→,0.46711369999684393,True,7,1,0,2
Y2-S2-285M22,-,36,PS,adaptive,39,↓,left,←,0.9753493000753224,False,7,-1,1,3
Y2-S2-285M22,-,37,PS,adaptive,45,↑,right,→,0.6751186000183225,False,8,-1,0,3
Y2-S2-285M22,-,38,PS,adaptive,47,→,right,→,0.4487163999583572,True,9,-1,0,3
Y2-S2-285M22,-,39,PS,adaptive,33,↑,up,↑,0.49192860000766814,True,9,-1,0,3
Y2-S2-285M22,-,40,PS,adaptive,41,↓,down,↓,0.4996219000313431,True,9,1,1,4
Y2-S2-285M22,-,41,AS,adaptive,25,↑,up,↑,0.6327232999028638,True,20,0,0,0
Y2-S2-285M22,-,42,AS,adaptive,49,↓,down,↓,0.7161647999892011,True,20,0,0,0
Y2-S2-285M22,-,43,AS,adaptive,33,←,left,←,0.6076406000647694,True,20,1,0,0
Y2-S2-285M22,-,44,AS,adaptive,27,↓,down,↓,0.6450921000214294,True,19,1,0,0
Y2-S2-285M22,-,45,AS,adaptive,42,←,left,←,0.5752099000383168,True,19,1,0,0
Y2-S2-285M22,-,46,AS,adaptive,50,↓,down,↓,1.4759154999628663,True,19,1,0,0
Y2-S2-285M22,-,47,AS,adaptive,50,↑,up,↑,0.9517751999665052,True,18,1,0,0
Y2-S2-285M22,-,48,AS,adaptive,44,↓,down,↓,0.6524566999869421,True,18,1,0,0
Y2-S2-285M22,-,49,AS,adaptive,26,↑,up,↑,0.6833053999580443,True,18,1,0,0
Y2-S2-285M22,-,50,AS,adaptive,34,←,left,←,0.740720700006932,True,17,1,0,0
Y2-S2-285M22,-,51,AS,adaptive,33,↓,down,↓,0.7152953000040725,True,17,1,0,0
Y2-S2-285M22,-,52,AS,adaptive,48,←,left,←,0.6355412999400869,True,17,1,0,0
Y2-S2-285M22,-,53,AS,adaptive,45,↑,up,↑,0.8195485000032932,True,16,1,0,0
Y2-S2-285M22,-,54,AS,adaptive,43,←,left,←,0.5792456000344828,True,16,1,0,0
Y2-S2-285M22,-,55,AS,adaptive,37,→,right,→,0.6071269999956712,True,16,1,0,0
Y2-S2-285M22,-,56,AS,adaptive,49,↑,up,↑,0.6532628000713885,True,15,1,0,0
Y2-S2-285M22,-,57,AS,adaptive,45,←,right,→,0.6456209000898525,False,15,-1,1,1
Y2-S2-285M22,-,58,AS,adaptive,46,↓,down,↓,0.8236564000835642,True,16,-1,0,1
Y2-S2-285M22,-,59,AS,adaptive,47,→,left,←,0.5806709999451414,False,16,-1,0,1
Y2-S2-285M22,-,60,AS,adaptive,26,↓,down,↓,0.9423005999997258,True,17,-1,0,1
Y2-S2-285M22,-,61,AS,adaptive,40,→,right,→,0.6949604999972507,True,17,-1,0,1
Y2-S2-285M22,-,62,AS,adaptive,39,←,left,←,0.7011377000017092,True,17,1,1,2
Y2-S2-285M22,-,63,AS,adaptive,50,→,right,→,0.5608667000196874,True,16,1,0,2
Y2-S2-285M22,-,64,AS,adaptive,26,←,left,←,0.5581619000295177,True,16,1,0,2
Y2-S2-285M22,-,65,AS,adaptive,31,↓,up,↑,1.2299932000460103,False,16,-1,1,3
Y2-S2-285M22,-,66,AS,adaptive,48,→,left,←,0.9214978000381961,False,17,-1,0,3
Y2-S2-285M22,-,67,AS,adaptive,28,↓,down,↓,1.3200745999347419,True,18,-1,0,3
Y2-S2-285M22,-,68,AS,adaptive,36,→,right,→,0.71053259994369,True,18,-1,0,3
Y2-S2-285M22,-,69,AS,adaptive,42,←,left,←,0.6994297999190167,True,18,1,1,4
Y2-S2-285M22,1,70,PS,intra_train,33,↑,up,↑,0.4595544000621885,True,12,-,-,-
Y2-S2-285M22,1,71,PS,intra_train,39,↓,down,↓,0.6756513000000268,True,12,-,-,-
Y2-S2-285M22,1,72,PS,intra_train,38,←,left,←,0.5022283999715,True,12,-,-,-
Y2-S2-285M22,1,73,PS,intra_train,33,↑,up,↑,0.5052910000085831,True,12,-,-,-
Y2-S2-285M22,1,74,PS,intra_train,43,↓,down,↓,0.7774204999441281,True,12,-,-,-
Y2-S2-285M22,1,75,PS,exp,27,←,right,→,0.7159244999056682,False,8,-1,0,0
Y2-S2-285M22,1,76,PS,exp,36,↓,down,↓,0.6605264999670908,True,9,-1,0,0
Y2-S2-285M22,1,77,PS,exp,45,←,left,←,0.5429945000214502,True,9,-1,0,0
Y2-S2-285M22,1,78,PS,exp,50,→,right,→,0.5948356000008062,True,9,1,1,1
Y2-S2-285M22,1,79,PS,exp,49,←,left,←,0.4374002000549808,True,8,1,0,1
Y2-S2-285M22,1,80,PS,exp,44,↓,up,↑,0.6125059000914916,False,8,-1,1,2
Y2-S2-285M22,1,81,PS,exp,40,←,up,↑,0.5693570000585169,False,9,-1,0,2
Y2-S2-285M22,1,82,PS,exp,28,→,right,→,0.7213527000276372,True,10,-1,0,2
Y2-S2-285M22,1,83,PS,exp,49,↑,up,↑,0.43075559998396784,True,10,-1,0,2
Y2-S2-285M22,1,84,PS,exp,43,←,right,→,0.3006242999108508,False,10,-1,0,2
Y2-S2-285M22,1,85,PS,exp,46,→,right,→,0.7118391999974847,True,11,-1,0,2
Y2-S2-285M22,1,86,PS,exp,30,↑,up,↑,0.5691733999410644,True,11,-1,0,2
Y2-S2-285M22,1,87,PS,exp,29,←,right,→,0.7742467999923974,False,11,-1,0,2
Y2-S2-285M22,1,88,PS,exp,44,↑,up,↑,0.4552930999780074,True,12,-1,0,2
Y2-S2-285M22,1,89,PS,exp,47,→,right,→,0.5429568999679759,True,12,-1,0,2
Y2-S2-285M22,1,90,PS,exp,25,↑,up,↑,0.4255508999340236,True,12,1,1,3
Y2-S2-285M22,1,91,PS,exp,39,↓,down,↓,0.7707514999201521,True,11,1,0,3
Y2-S2-285M22,1,92,PS,exp,44,↑,left,←,0.7639103999827057,False,11,-1,1,4
Y2-S2-285M22,1,93,PS,exp,32,→,left,←,0.704804899985902,False,12,-1,0,4
Y2-S2-285M22,1,94,PS,exp,45,↓,down,↓,0.7047242999542505,True,13,-1,0,4
Y2-S2-285M22,1,95,PS,exp,30,↑,up,↑,0.5245913999387994,True,13,-1,0,4
Y2-S2-285M22,1,96,PS,exp,36,↓,down,↓,0.6137097000610083,True,13,1,1,5
Y2-S2-285M22,1,97,PS,exp,33,↑,up,↑,0.49476130004040897,True,12,1,0,5
Y2-S2-285M22,1,98,PS,exp,38,←,right,→,0.5636480000102893,False,12,-1,1,6
Y2-S2-285M22,1,99,PS,exp,43,→,right,→,0.480068999924697,True,13,-1,0,6
Y2-S2-285M22,1,100,PS,exp,38,←,right,→,0.4606635000091046,False,13,-1,0,6
Y2-S2-285M22,1,101,PS,exp,41,↑,up,↑,0.6787799999583513,True,14,-1,0,6
Y2-S2-285M22,1,102,PS,exp,33,←,up,↑,0.3672082000412047,False,14,-1,0,6
Y2-S2-285M22,1,103,PS,exp,40,↓,down,↓,0.7875343000050634,True,15,-1,0,6
Y2-S2-285M22,1,104,PS,exp,39,←,down,↓,0.48117719998117536,False,15,-1,0,6
Y2-S2-285M22,1,105,PS,exp,49,↑,left,←,0.630071600084193,False,16,-1,0,6
Y2-S2-285M22,1,106,PS,exp,39,↓,down,↓,0.729399700067006,True,17,-1,0,6
Y2-S2-285M22,1,107,PS,exp,44,↑,up,↑,0.4578564000548795,True,17,-1,0,6
Y2-S2-285M22,1,108,PS,exp,40,→,right,→,0.6494665999198332,True,17,1,1,7
Y2-S2-285M22,1,109,PS,exp,47,↑,up,↑,0.43746089993510395,True,16,1,0,7
Y2-S2-285M22,1,110,PS,exp,50,→,up,↑,0.36792430002242327,False,16,-1,1,8
Y2-S2-285M22,1,111,PS,exp,49,↓,down,↓,0.7108341000275686,True,17,-1,0,8
Y2-S2-285M22,1,112,PS,exp,34,↑,left,←,0.827625900041312,False,17,-1,0,8
Y2-S2-285M22,1,113,PS,exp,35,↓,down,↓,0.7334823000710458,True,18,-1,0,8
Y2-S2-285M22,1,114,PS,exp,32,↑,up,↑,0.4339365999912843,True,18,-1,0,8
Y2-S2-285M22,1,115,PS,exp,30,→,right,→,0.41741970006842166,True,18,1,1,9
Y2-S2-285M22,1,116,PS,exp,34,←,left,←,0.41733089997433126,True,17,1,0,9
Y2-S2-285M22,1,117,PS,exp,49,↓,down,↓,0.7710054999915883,True,17,1,0,9
Y2-S2-285M22,1,118,PS,exp,29,→,right,→,0.8306795000098646,True,17,1,0,9
Y2-S2-285M22,1,119,PS,exp,27,↓,down,↓,0.6884144999785349,True,16,1,0,9
Y2-S2-285M22,1,120,PS,exp,41,→,right,→,0.4413601999403909,True,16,1,0,9
Y2-S2-285M22,1,121,PS,exp,29,←,left,←,0.6738978999201208,True,16,1,0,9
Y2-S2-285M22,1,122,PS,exp,38,→,right,→,0.4745450000045821,True,15,1,0,9
Y2-S2-285M22,1,123,PS,exp,40,←,right,→,0.4485618999460712,False,15,-1,1,10
Y2-S2-285M22,1,124,PS,exp,45,↑,up,↑,0.5520029000472277,True,16,-1,0,10
Y2-S2-285M22,1,125,PS,exp,32,↓,down,↓,0.8928413999965414,True,16,-1,0,10
Y2-S2-285M22,1,126,PS,exp,32,↑,left,←,0.8455161000601947,False,16,-1,0,10
Y2-S2-285M22,1,127,PS,exp,43,←,left,←,0.4562661999370903,True,17,-1,0,10
Y2-S2-285M22,1,128,PS,exp,31,↓,left,←,0.9751280999043956,False,17,-1,0,10
Y2-S2-285M22,1,129,PS,exp,40,→,right,→,0.5355863999575377,True,18,-1,0,10
Y2-S2-285M22,1,130,PS,exp,49,↓,down,↓,0.5769393999362364,True,18,-1,0,10
Y2-S2-285M22,1,131,PS,exp,37,←,left,←,0.49027050007134676,True,18,1,1,11
Y2-S2-285M22,1,132,PS,exp,49,↓,down,↓,0.5709679999854416,True,17,1,0,11
Y2-S2-285M22,1,133,PS,exp,43,↑,up,↑,0.5655533999670297,True,17,1,0,11
Y2-S2-285M22,1,134,PS,exp,25,→,right,→,0.4942558000329882,True,17,1,0,11
Y2-S2-285M22,1,135,PS,exp,36,←,down,↓,1.1112251000013202,False,16,-1,1,12
Y2-S2-285M22,1,136,PS,exp,43,→,right,→,0.3676686000544578,True,17,-1,0,12
Y2-S2-285M22,1,137,PS,exp,28,←,left,←,0.4006513999775052,True,17,-1,0,12
Y2-S2-285M22,1,138,PS,exp,35,→,right,→,0.7663732999935746,True,17,1,1,13
Y2-S2-285M22,1,139,PS,exp,46,↑,up,↑,0.45398230000864714,True,16,1,0,13
Y2-S2-285M22,1,140,PS,exp,47,↓,left,←,0.9280251000309363,False,16,-1,1,14
Y2-S2-285M22,1,141,PS,exp,36,↑,left,←,0.41740569996181875,False,17,-1,0,14
Y2-S2-285M22,1,142,PS,exp,30,↓,right,→,0.83896880003158,False,18,-1,0,14
Y2-S2-285M22,1,143,PS,exp,35,←,up,↑,0.0009301999816671014,False,19,-1,0,14
Y2-S2-285M22,1,144,PS,exp,33,→,right,→,0.5273778000846505,True,20,-1,0,14
Y2-S2-285M22,1,145,PS,exp,45,↑,up,↑,0.40072240005247295,True,20,-1,0,14
Y2-S2-285M22,1,146,PS,exp,29,→,right,→,0.41767600004095584,True,20,1,1,15
Y2-S2-285M22,1,147,PS,exp,44,↓,down,↓,0.6828295999439433,True,19,1,0,15
Y2-S2-285M22,1,148,PS,exp,37,→,right,→,0.5812023000326008,True,19,1,0,15
Y2-S2-285M22,1,149,PS,exp,36,↑,up,↑,0.41734689997974783,True,19,1,0,15
Y2-S2-285M22,1,150,PS,exp,33,←,left,←,0.5826533999061212,True,18,1,0,15
Y2-S2-285M22,1,151,PS,exp,30,→,right,→,0.6144139000680298,True,18,1,0,15
Y2-S2-285M22,1,152,PS,exp,47,↓,down,↓,0.824640900013037,True,18,1,0,15
Y2-S2-285M22,1,153,PS,exp,29,↑,up,↑,0.6515629000496119,True,17,1,0,15
Y2-S2-285M22,1,154,PS,exp,27,↓,down,↓,0.40056550002191216,True,17,1,0,15
Y2-S2-285M22,1,155,PS,exp,29,←,left,←,0.4006394000025466,True,17,1,0,15
Y2-S2-285M22,1,156,PS,exp,47,→,right,→,0.5020434999605641,True,16,1,0,15
Y2-S2-285M22,1,157,PS,exp,36,↑,up,↑,0.4602938999887556,True,16,1,0,15
Y2-S2-285M22,1,158,PS,exp,42,←,left,←,0.45526439999230206,True,16,1,0,15
Y2-S2-285M22,1,159,PS,exp,25,→,right,→,0.384127700002864,True,15,1,0,15
Y2-S2-285M22,1,160,PS,exp,42,↓,down,↓,0.6723395999288186,True,15,1,0,15
Y2-S2-285M22,1,161,PS,exp,44,←,left,←,0.438188900006935,True,15,1,0,15
Y2-S2-285M22,1,162,PS,exp,31,↑,up,↑,0.4308809000067413,True,14,1,0,15
Y2-S2-285M22,1,163,PS,exp,35,→,right,→,0.4264049999183044,True,14,1,0,15
Y2-S2-285M22,1,164,PS,exp,33,↓,down,↓,0.7139866000507027,True,14,1,0,15
Y2-S2-285M22,1,165,PS,exp,33,→,left,←,0.7837008000351489,False,13,-1,1,16
Y2-S2-285M22,2,166,AS,intra_train,40,←,left,←,1.5252430000109598,True,25,-,-,-
Y2-S2-285M22,2,167,AS,intra_train,46,→,right,→,0.48434520000591874,True,25,-,-,-
Y2-S2-285M22,2,168,AS,intra_train,46,←,right,→,0.9242074000649154,False,25,-,-,-
Y2-S2-285M22,2,169,AS,intra_train,31,↑,up,↑,0.5005774999735877,True,25,-,-,-
Y2-S2-285M22,2,170,AS,intra_train,50,↓,down,↓,1.1184245999902487,True,25,-,-,-
Y2-S2-285M22,2,171,AS,exp,30,←,left,←,0.5600484000751749,True,17,0,0,0
Y2-S2-285M22,2,172,AS,exp,26,→,right,→,0.7854279999155551,True,17,0,0,0
Y2-S2-285M22,2,173,AS,exp,35,↓,down,↓,0.6104191000340506,True,17,1,0,0
Y2-S2-285M22,2,174,AS,exp,25,↑,up,↑,0.47754019999410957,True,16,1,0,0
Y2-S2-285M22,2,175,AS,exp,27,←,right,→,0.7136400999734178,False,16,-1,1,1
Y2-S2-285M22,2,176,AS,exp,35,→,left,←,1.028311200090684,False,17,-1,0,1
Y2-S2-285M22,2,177,AS,exp,26,↓,down,↓,0.7003498999401927,True,18,-1,0,1
Y2-S2-285M22,2,178,AS,exp,25,→,right,→,0.8253393999766558,True,18,-1,0,1
Y2-S2-285M22,2,179,AS,exp,46,←,left,←,0.6368719999445602,True,18,1,1,2
Y2-S2-285M22,2,180,AS,exp,33,↓,down,↓,0.47541710000950843,True,17,1,0,2
Y2-S2-285M22,2,181,AS,exp,30,↑,up,↑,0.5097724999068305,True,17,1,0,2
Y2-S2-285M22,2,182,AS,exp,42,←,left,←,0.4852641000179574,True,17,1,0,2
Y2-S2-285M22,2,183,AS,exp,25,↑,up,↑,1.1900569000281394,True,16,1,0,2
Y2-S2-285M22,2,184,AS,exp,44,←,left,←,0.7671254000160843,True,16,1,0,2
Y2-S2-285M22,2,185,AS,exp,30,↓,down,↓,0.91771119995974,True,16,1,0,2
Y2-S2-285M22,2,186,AS,exp,27,→,left,←,0.9088332999963313,False,15,-1,1,3
Y2-S2-285M22,2,187,AS,exp,30,↑,up,↑,0.5264141999650747,True,16,-1,0,3
Y2-S2-285M22,2,188,AS,exp,49,←,left,←,0.4877668000990525,True,16,-1,0,3
Y2-S2-285M22,2,189,AS,exp,47,↓,down,↓,0.8538927999325097,True,16,1,1,4
Y2-S2-285M22,2,190,AS,exp,28,←,left,←,0.5632369999075308,True,15,1,0,4
Y2-S2-285M22,2,191,AS,exp,35,↓,down,↓,0.5616519999457523,True,15,1,0,4
Y2-S2-285M22,2,192,AS,exp,34,↑,up,↑,0.4445187000092119,True,15,1,0,4
Y2-S2-285M22,2,193,AS,exp,41,↓,right,→,0.910286600003019,False,14,-1,1,5
Y2-S2-285M22,2,194,AS,exp,45,←,up,↑,0.5259563000872731,False,15,-1,0,5
Y2-S2-285M22,2,195,AS,exp,29,↑,left,←,0.4959753999719396,False,16,-1,0,5
Y2-S2-285M22,2,196,AS,exp,31,←,left,←,1.251667600008659,True,17,-1,0,5
Y2-S2-285M22,2,197,AS,exp,42,↑,right,→,1.3040101999649778,False,17,-1,0,5
Y2-S2-285M22,2,198,AS,exp,46,←,up,↑,0.36765049991663545,False,18,-1,0,5
Y2-S2-285M22,2,199,AS,exp,48,→,left,←,0.8975097000366077,False,19,-1,0,5
Y2-S2-285M22,2,200,AS,exp,25,↑,right,→,1.2557832999154925,False,20,-1,0,5
Y2-S2-285M22,2,201,AS,exp,49,↓,down,↓,0.5247955999802798,True,21,-1,0,5
Y2-S2-285M22,2,202,AS,exp,41,→,right,→,0.5504878000356257,True,21,-1,0,5
Y2-S2-285M22,2,203,AS,exp,33,↑,up,↑,0.5777890000026673,True,21,1,1,6
Y2-S2-285M22,2,204,AS,exp,42,↓,down,↓,0.7333097000373527,True,20,1,0,6
Y2-S2-285M22,2,205,AS,exp,30,→,right,→,0.6130878999829292,True,20,1,0,6
Y2-S2-285M22,2,206,AS,exp,50,←,left,←,0.6467840999830514,True,20,1,0,6
Y2-S2-285M22,2,207,AS,exp,46,↑,up,↑,0.6315055000595748,True,19,1,0,6
Y2-S2-285M22,2,208,AS,exp,34,↓,down,↓,0.722141099977307,True,19,1,0,6
Y2-S2-285M22,2,209,AS,exp,48,→,right,→,0.4171760000754148,True,19,1,0,6
Y2-S2-285M22,2,210,AS,exp,50,↑,up,↑,0.709519200026989,True,18,1,0,6
Y2-S2-285M22,2,211,AS,exp,46,↓,down,↓,0.8968391000526026,True,18,1,0,6
Y2-S2-285M22,2,212,AS,exp,29,←,left,←,0.9456461000954732,True,18,1,0,6
Y2-S2-285M22,2,213,AS,exp,48,↓,down,↓,0.7336149000329897,True,17,1,0,6
Y2-S2-285M22,2,214,AS,exp,28,←,left,←,0.6079134999308735,True,17,1,0,6
Y2-S2-285M22,2,215,AS,exp,46,↓,down,↓,1.1252439999952912,True,17,1,0,6
Y2-S2-285M22,2,216,AS,exp,48,↑,up,↑,0.9208962999982759,True,16,1,0,6
Y2-S2-285M22,2,217,AS,exp,43,→,right,→,0.3340047000674531,True,16,1,0,6
Y2-S2-285M22,2,218,AS,exp,33,←,right,→,0.3338520999532193,False,16,-1,1,7
Y2-S2-285M22,2,219,AS,exp,31,→,right,→,0.23447250004392117,True,17,-1,0,7
Y2-S2-285M22,2,220,AS,exp,38,↓,up,↑,0.5896772000705823,False,17,-1,0,7
Y2-S2-285M22,2,221,AS,exp,46,→,left,←,0.4005143999820575,False,18,-1,0,7
Y2-S2-285M22,2,222,AS,exp,41,↑,right,→,0.26758060010615736,False,19,-1,0,7
Y2-S2-285M22,2,223,AS,exp,38,→,right,→,0.6830143000697717,True,20,-1,0,7
Y2-S2-285M22,2,224,AS,exp,29,←,left,←,0.450940000009723,True,20,-1,0,7
Y2-S2-285M22,2,225,AS,exp,35,→,right,→,0.6499199999962002,True,20,1,1,8
Y2-S2-285M22,2,226,AS,exp,41,←,left,←,0.9923266000114381,True,19,1,0,8
Y2-S2-285M22,2,227,AS,exp,48,→,right,→,0.5108053999720141,True,19,1,0,8
Y2-S2-285M22,2,228,AS,exp,44,←,left,←,0.45053350005764514,True,19,1,0,8
Y2-S2-285M22,2,229,AS,exp,49,→,right,→,0.6014534999849275,True,18,1,0,8
Y2-S2-285M22,2,230,AS,exp,41,←,left,←,0.5510637999977916,True,18,1,0,8
Y2-S2-285M22,2,231,AS,exp,35,↑,up,↑,0.05095649999566376,True,18,1,0,8
Y2-S2-285M22,2,232,AS,exp,37,→,right,→,0.5046005999902263,True,17,1,0,8
Y2-S2-285M22,2,233,AS,exp,49,←,left,←,0.47538150008767843,True,17,1,0,8
Y2-S2-285M22,2,234,AS,exp,43,↓,down,↓,0.5379711000714451,True,17,1,0,8
Y2-S2-285M22,2,235,AS,exp,45,↑,up,↑,0.9206232000142336,True,16,1,0,8
Y2-S2-285M22,2,236,AS,exp,44,↓,left,←,1.0388832999160513,False,16,-1,1,9
Y2-S2-285M22,2,237,AS,exp,47,←,left,←,0.3839420999865979,True,17,-1,0,9
Y2-S2-285M22,2,238,AS,exp,49,↓,up,↑,0.6515014000469819,False,17,-1,0,9
Y2-S2-285M22,2,239,AS,exp,40,←,right,→,1.1971907999832183,False,18,-1,0,9
Y2-S2-285M22,2,240,AS,exp,35,↑,up,↑,0.5776021999772638,True,19,-1,0,9
Y2-S2-285M22,2,241,AS,exp,41,→,right,→,0.4004259000066668,True,19,-1,0,9
Y2-S2-285M22,2,242,AS,exp,47,←,left,←,0.40062630001921207,True,19,1,1,10
Y2-S2-285M22,2,243,AS,exp,26,↓,right,→,0.5191534000914544,False,18,-1,1,11
Y2-S2-285M22,2,244,AS,exp,38,↑,up,↑,0.5283686000620946,True,19,-1,0,11
Y2-S2-285M22,2,245,AS,exp,26,→,right,→,0.6955794999375939,True,19,-1,0,11
Y2-S2-285M22,2,246,AS,exp,34,↑,up,↑,0.5345640999730676,True,19,1,1,12
Y2-S2-285M22,2,247,AS,exp,38,↓,down,↓,0.783689699950628,True,18,1,0,12
Y2-S2-285M22,2,248,AS,exp,26,←,left,←,0.7769674999872223,True,18,1,0,12
Y2-S2-285M22,2,249,AS,exp,40,↑,up,↑,0.5970802999800071,True,18,1,0,12
Y2-S2-285M22,2,250,AS,exp,44,↓,left,←,0.5493130000540987,False,17,-1,1,13
Y2-S2-285M22,2,251,AS,exp,31,↑,up,↑,0.5964724000077695,True,18,-1,0,13
Y2-S2-285M22,2,252,AS,exp,48,←,right,→,0.3181833999697119,False,18,-1,0,13
Y2-S2-285M22,2,253,AS,exp,40,→,left,←,0.5374449000228196,False,19,-1,0,13
Y2-S2-285M22,2,254,AS,exp,47,←,up,↑,1.0866960999555886,False,20,-1,0,13
Y2-S2-285M22,2,255,AS,exp,48,↓,down,↓,0.8019856999162585,True,21,-1,0,13
Y2-S2-285M22,2,256,AS,exp,42,↑,up,↑,0.6442962000146508,True,21,-1,0,13
Y2-S2-285M22,2,257,AS,exp,26,↓,no_key,no_letter,-1.0,False,21,-1,0,13
Y2-S2-285M22,2,258,AS,exp,27,↑,up,↑,0.6665398000041023,True,22,-1,0,13
Y2-S2-285M22,2,259,AS,exp,39,↓,down,↓,0.7205791999585927,True,22,-1,0,13
Y2-S2-285M22,2,260,AS,exp,47,↑,up,↑,0.5646694999886677,True,22,1,1,14
Y2-S2-285M22,2,261,AS,exp,49,↓,down,↓,0.6971173000056297,True,21,1,0,14
Y2-S2-285M22,2,262,AS,exp,33,→,right,→,0.6248583999695256,True,21,1,0,14
Y2-S2-285M22,2,263,AS,exp,44,←,left,←,1.421337499981746,True,21,1,0,14
Y2-S2-285M22,2,264,AS,exp,47,↑,up,↑,0.5911914000753313,True,20,1,0,14
Y2-S2-285M22,2,265,AS,exp,34,←,left,←,0.4670240000123158,True,20,1,0,14
Y2-S2-285M22,2,266,AS,exp,31,↓,down,↓,0.599511899985373,True,20,1,0,14
Y2-S2-285M22,2,267,AS,exp,37,↑,up,↑,0.5403771999990568,True,19,1,0,14
Y2-S2-285M22,2,268,AS,exp,28,←,left,←,0.6166207001078874,True,19,1,0,14
Y2-S2-285M22,2,269,AS,exp,40,↑,right,→,0.7521888000192121,False,19,-1,1,15
Y2-S2-285M22,2,270,AS,exp,36,←,right,→,0.417298800079152,False,20,-1,0,15
Y2-S2-285M22,2,271,AS,exp,29,↓,up,↑,0.2510933999437839,False,21,-1,0,15
Y2-S2-285M22,2,272,AS,exp,38,→,down,↓,0.3175688999472186,False,22,-1,0,15
Y2-S2-285M22,2,273,AS,exp,49,↑,up,↑,0.6311276000924408,True,23,-1,0,15
Y2-S2-285M22,2,274,AS,exp,42,↓,down,↓,1.3077467000111938,True,23,-1,0,15
Y2-S2-285M22,2,275,AS,exp,29,→,left,←,0.7527150999521837,False,23,-1,0,15
Y2-S2-285M22,2,276,AS,exp,48,↑,up,↑,0.500404000049457,True,24,-1,0,15
Y2-S2-285M22,2,277,AS,exp,46,↓,down,↓,0.6524037000490353,True,24,-1,0,15
Y2-S2-285M22,2,278,AS,exp,37,↑,up,↑,0.05125480005517602,True,24,1,1,16
Y2-S2-285M22,3,279,AS,intra_train,48,→,left,←,0.43413529999088496,False,25,-,-,-
Y2-S2-285M22,3,280,AS,intra_train,44,←,left,←,0.7308992000762373,True,25,-,-,-
Y2-S2-285M22,3,281,AS,intra_train,29,↑,up,↑,0.533965399954468,True,25,-,-,-
Y2-S2-285M22,3,282,AS,intra_train,32,←,right,→,0.534137099981308,False,25,-,-,-
Y2-S2-285M22,3,283,AS,intra_train,29,↑,up,↑,0.5008756999159232,True,25,-,-,-
Y2-S2-285M22,3,284,AS,exp,45,↓,down,↓,0.8144912000279874,True,17,0,0,0
Y2-S2-285M22,3,285,AS,exp,38,↑,up,↑,0.6395486999535933,True,17,0,0,0
Y2-S2-285M22,3,286,AS,exp,27,↓,down,↓,0.686970500042662,True,17,1,0,0
Y2-S2-285M22,3,287,AS,exp,41,↑,down,↓,0.13420199998654425,False,16,-1,1,1
Y2-S2-285M22,3,288,AS,exp,26,↓,down,↓,1.0592491999268532,True,17,-1,0,1
Y2-S2-285M22,3,289,AS,exp,41,←,right,→,0.6623152999673039,False,17,-1,0,1
Y2-S2-285M22,3,290,AS,exp,50,→,right,→,0.5622046999633312,True,18,-1,0,1
Y2-S2-285M22,3,291,AS,exp,44,←,left,←,0.5084304000483826,True,18,-1,0,1
Y2-S2-285M22,3,292,AS,exp,26,↓,right,→,0.5515780999558046,False,18,-1,0,1
Y2-S2-285M22,3,293,AS,exp,30,↑,up,↑,0.3676141999894753,True,19,-1,0,1
Y2-S2-285M22,3,294,AS,exp,31,→,right,→,0.6454806999536231,True,19,-1,0,1
Y2-S2-285M22,3,295,AS,exp,49,←,left,←,0.631339899962768,True,19,1,1,2
Y2-S2-285M22,3,296,AS,exp,29,→,right,→,0.542315199971199,True,18,1,0,2
Y2-S2-285M22,3,297,AS,exp,48,↓,down,↓,0.5872976999962702,True,18,1,0,2
Y2-S2-285M22,3,298,AS,exp,47,→,right,→,0.5612032000208274,True,18,1,0,2
Y2-S2-285M22,3,299,AS,exp,44,↓,down,↓,0.9250326999463141,True,17,1,0,2
Y2-S2-285M22,3,300,AS,exp,44,→,right,→,0.6207233999157324,True,17,1,0,2
Y2-S2-285M22,3,301,AS,exp,29,←,right,→,0.4998710999498144,False,17,-1,1,3
Y2-S2-285M22,3,302,AS,exp,48,↑,up,↑,0.69348210003227,True,18,-1,0,3
Y2-S2-285M22,3,303,AS,exp,35,↓,down,↓,0.63148929993622,True,18,-1,0,3
Y2-S2-285M22,3,304,AS,exp,33,←,left,←,0.6164788000751287,True,18,1,1,4
Y2-S2-285M22,3,305,AS,exp,44,↓,down,↓,0.40069170005153865,True,17,1,0,4
Y2-S2-285M22,3,306,AS,exp,40,→,right,→,0.4010378000093624,True,17,1,0,4
Y2-S2-285M22,3,307,AS,exp,38,←,left,←,0.5163830999517813,True,17,1,0,4
Y2-S2-285M22,3,308,AS,exp,35,↓,right,→,0.8671201000688598,False,16,-1,1,5
Y2-S2-285M22,3,309,AS,exp,46,→,right,→,0.4548232000088319,True,17,-1,0,5
Y2-S2-285M22,3,310,AS,exp,30,↑,up,↑,0.6258698999881744,True,17,-1,0,5
Y2-S2-285M22,3,311,AS,exp,34,→,right,→,0.40062030008994043,True,17,1,1,6
Y2-S2-285M22,3,312,AS,exp,49,↓,down,↓,0.8506402999628335,True,16,1,0,6
Y2-S2-285M22,3,313,AS,exp,42,↑,down,↓,1.171416600001976,False,16,-1,1,7
Y2-S2-285M22,3,314,AS,exp,42,↓,down,↓,0.861168299918063,True,17,-1,0,7
Y2-S2-285M22,3,315,AS,exp,48,→,right,→,0.5167708999942988,True,17,-1,0,7
Y2-S2-285M22,3,316,AS,exp,47,↓,down,↓,0.6640104999532923,True,17,1,1,8
Y2-S2-285M22,3,317,AS,exp,37,←,left,←,0.6866580999922007,True,16,1,0,8
Y2-S2-285M22,3,318,AS,exp,27,↓,down,↓,0.6556305000558496,True,16,1,0,8
Y2-S2-285M22,3,319,AS,exp,37,→,right,→,0.8569462999003008,True,16,1,0,8
Y2-S2-285M22,3,320,AS,exp,26,←,left,←,0.6395687999902293,True,15,1,0,8
Y2-S2-285M22,3,321,AS,exp,27,→,right,→,0.5590873999753967,True,15,1,0,8
Y2-S2-285M22,3,322,AS,exp,26,↑,right,→,0.30136749998200685,False,15,-1,1,9
Y2-S2-285M22,3,323,AS,exp,49,→,right,→,0.623030399903655,True,16,-1,0,9
Y2-S2-285M22,3,324,AS,exp,33,↑,up,↑,0.4889330000150949,True,16,-1,0,9
Y2-S2-285M22,3,325,AS,exp,48,→,up,↑,0.8027352000353858,False,16,-1,0,9
Y2-S2-285M22,3,326,AS,exp,36,↓,down,↓,0.6077256000135094,True,17,-1,0,9
Y2-S2-285M22,3,327,AS,exp,50,↑,up,↑,0.5942187999607995,True,17,-1,0,9
Y2-S2-285M22,3,328,AS,exp,37,↓,down,↓,0.5501285999780521,True,17,1,1,10
Y2-S2-285M22,3,329,AS,exp,48,→,right,→,1.4391415999270976,True,16,1,0,10
Y2-S2-285M22,3,330,AS,exp,50,←,left,←,0.7321671000681818,True,16,1,0,10
Y2-S2-285M22,3,331,AS,exp,33,→,up,↑,0.897595800110139,False,16,-1,1,11
Y2-S2-285M22,3,332,AS,exp,31,↓,down,↓,0.4802419999614358,True,17,-1,0,11
Y2-S2-285M22,3,333,AS,exp,26,↑,down,↓,0.8470505999866873,False,17,-1,0,11
Y2-S2-285M22,3,334,AS,exp,25,↓,down,↓,0.6352094999747351,True,18,-1,0,11
Y2-S2-285M22,3,335,AS,exp,33,↑,right,→,1.0630989000201225,False,18,-1,0,11
Y2-S2-285M22,3,336,AS,exp,25,→,right,→,0.6162820999743417,True,19,-1,0,11
Y2-S2-285M22,3,337,AS,exp,39,↓,down,↓,0.45108500006608665,True,19,-1,0,11
Y2-S2-285M22,3,338,AS,exp,38,→,right,→,0.7367527999449521,True,19,1,1,12
Y2-S2-285M22,3,339,AS,exp,38,↑,up,↑,0.7499419000232592,True,18,1,0,12
Y2-S2-285M22,3,340,AS,exp,49,↓,down,↓,0.5578540998976678,True,18,1,0,12
Y2-S2-285M22,3,341,AS,exp,37,→,right,→,0.6782608000794426,True,18,1,0,12
Y2-S2-285M22,3,342,AS,exp,34,↑,up,↑,0.6844481999287382,True,17,1,0,12
Y2-S2-285M22,3,343,AS,exp,47,←,left,←,0.876496099983342,True,17,1,0,12
Y2-S2-285M22,3,344,AS,exp,40,↑,up,↑,0.7349613000405952,True,17,1,0,12
Y2-S2-285M22,3,345,AS,exp,41,←,up,↑,0.7066000000340864,False,16,-1,1,13
Y2-S2-285M22,3,346,AS,exp,45,↓,down,↓,0.5802385000279173,True,17,-1,0,13
Y2-S2-285M22,3,347,AS,exp,31,↑,up,↑,0.7241180998971686,True,17,-1,0,13
Y2-S2-285M22,3,348,AS,exp,47,→,right,→,0.47070950001943856,True,17,1,1,14
Y2-S2-285M22,3,349,AS,exp,25,←,left,←,0.6319902000250295,True,16,1,0,14
Y2-S2-285M22,3,350,AS,exp,36,↓,down,↓,0.9142302999971434,True,16,1,0,14
Y2-S2-285M22,3,351,AS,exp,45,←,left,←,0.5035617999965325,True,16,1,0,14
Y2-S2-285M22,3,352,AS,exp,26,↓,right,→,0.3838644999777898,False,15,-1,1,15
Y2-S2-285M22,3,353,AS,exp,48,↑,up,↑,0.30140590004157275,True,16,-1,0,15
Y2-S2-285M22,3,354,AS,exp,39,←,up,↑,0.26695329998619854,False,16,-1,0,15
Y2-S2-285M22,3,355,AS,exp,41,↑,up,↑,0.30051520001143217,True,17,-1,0,15
Y2-S2-285M22,3,356,AS,exp,41,→,right,→,0.46234590001404285,True,17,-1,0,15
Y2-S2-285M22,3,357,AS,exp,46,←,left,←,0.40076839993707836,True,17,1,1,16
Y2-S2-285M22,4,358,PS,intra_train,33,↓,down,↓,0.6459683999419212,True,12,-,-,-
Y2-S2-285M22,4,359,PS,intra_train,48,→,right,→,0.513190200086683,True,12,-,-,-
Y2-S2-285M22,4,360,PS,intra_train,43,↑,left,←,0.7135226000100374,False,12,-,-,-
Y2-S2-285M22,4,361,PS,intra_train,46,←,left,←,0.5020736999576911,True,12,-,-,-
Y2-S2-285M22,4,362,PS,intra_train,45,↑,up,↑,0.7505944999866188,True,12,-,-,-
Y2-S2-285M22,4,363,PS,exp,39,←,down,↓,0.65284660004545,False,8,-1,0,0
Y2-S2-285M22,4,364,PS,exp,36,→,right,→,0.8634839000878856,True,9,-1,0,0
Y2-S2-285M22,4,365,PS,exp,37,↑,up,↑,0.6575238000368699,True,9,-1,0,0
Y2-S2-285M22,4,366,PS,exp,34,↓,right,→,0.815271700033918,False,9,-1,0,0
Y2-S2-285M22,4,367,PS,exp,29,←,left,←,0.723493600031361,True,10,-1,0,0
Y2-S2-285M22,4,368,PS,exp,38,→,left,←,0.6274122999748215,False,10,-1,0,0
Y2-S2-285M22,4,369,PS,exp,49,↓,up,↑,0.6858032000018284,False,11,-1,0,0
Y2-S2-285M22,4,370,PS,exp,45,↑,up,↑,0.9439392000203952,True,12,-1,0,0
Y2-S2-285M22,4,371,PS,exp,48,→,down,↓,0.9233123000012711,False,12,-1,0,0
Y2-S2-285M22,4,372,PS,exp,45,←,right,→,0.6691887000342831,False,13,-1,0,0
Y2-S2-285M22,4,373,PS,exp,36,↑,right,→,0.5109930000035092,False,14,-1,0,0
Y2-S2-285M22,4,374,PS,exp,47,→,up,↑,0.8553796999622136,False,15,-1,0,0
Y2-S2-285M22,4,375,PS,exp,31,↑,down,↓,0.9492467000382021,False,16,-1,0,0
Y2-S2-285M22,4,376,PS,exp,35,←,right,→,0.6846145000308752,False,17,-1,0,0
Y2-S2-285M22,4,377,PS,exp,30,↑,left,←,0.38449650001712143,False,18,-1,0,0
Y2-S2-285M22,4,378,PS,exp,35,→,right,→,1.0644078999757767,True,19,-1,0,0
Y2-S2-285M22,4,379,PS,exp,25,↓,down,↓,0.6880000999663025,True,19,-1,0,0
Y2-S2-285M22,4,380,PS,exp,29,→,right,→,1.3190969000570476,True,19,1,1,1
Y2-S2-285M22,4,381,PS,exp,33,↑,up,↑,0.681663200026378,True,18,1,0,1
Y2-S2-285M22,4,382,PS,exp,33,←,left,←,0.4338830999331549,True,18,1,0,1
Y2-S2-285M22,4,383,PS,exp,35,↑,up,↑,0.8043815999990329,True,18,1,0,1
Y2-S2-285M22,4,384,PS,exp,35,→,right,→,0.9329371999483556,True,17,1,0,1
Y2-S2-285M22,4,385,PS,exp,42,↓,down,↓,0.6826757999369875,True,17,1,0,1
Y2-S2-285M22,4,386,PS,exp,35,←,left,←,0.6239631000207737,True,17,1,0,1
Y2-S2-285M22,4,387,PS,exp,44,↑,up,↑,0.46410460001789033,True,16,1,0,1
Y2-S2-285M22,4,388,PS,exp,30,→,left,←,0.44103300001006573,False,16,-1,1,2
Y2-S2-285M22,4,389,PS,exp,30,↑,up,↑,0.8266039000591263,True,17,-1,0,2
Y2-S2-285M22,4,390,PS,exp,44,→,right,→,0.3838050999911502,True,17,-1,0,2
Y2-S2-285M22,4,391,PS,exp,44,←,left,←,0.40077549999114126,True,17,1,1,3
Y2-S2-285M22,4,392,PS,exp,27,→,right,→,0.40048559999559075,True,16,1,0,3
Y2-S2-285M22,4,393,PS,exp,41,↓,down,↓,0.6905633000424132,True,16,1,0,3
Y2-S2-285M22,4,394,PS,exp,33,↑,up,↑,1.2850653000641614,True,16,1,0,3
Y2-S2-285M22,4,395,PS,exp,44,←,left,←,0.596077699912712,True,15,1,0,3
Y2-S2-285M22,4,396,PS,exp,29,↑,up,↑,0.592532700044103,True,15,1,0,3
Y2-S2-285M22,4,397,PS,exp,37,←,left,←,0.4810969999525696,True,15,1,0,3
Y2-S2-285M22,4,398,PS,exp,50,↑,up,↑,0.4386696999426931,True,14,1,0,3
Y2-S2-285M22,4,399,PS,exp,43,↓,down,↓,0.4928164000157267,True,14,1,0,3
Y2-S2-285M22,4,400,PS,exp,49,↑,up,↑,0.4463113999227062,True,14,1,0,3
Y2-S2-285M22,4,401,PS,exp,34,↓,right,→,0.8628941000206396,False,13,-1,1,4
Y2-S2-285M22,4,402,PS,exp,47,↑,up,↑,0.693508299998939,True,14,-1,0,4
Y2-S2-285M22,4,403,PS,exp,25,→,right,→,0.42492730007506907,True,14,-1,0,4
Y2-S2-285M22,4,404,PS,exp,29,↑,up,↑,0.4906120999949053,True,14,1,1,5
Y2-S2-285M22,4,405,PS,exp,37,←,left,←,0.4410682999296114,True,13,1,0,5
Y2-S2-285M22,4,406,PS,exp,37,→,right,→,0.4016471999930218,True,13,1,0,5
Y2-S2-285M22,4,407,PS,exp,46,←,left,←,0.4157793000340462,True,13,1,0,5
Y2-S2-285M22,4,408,PS,exp,41,↓,down,↓,0.5628071998944506,True,12,1,0,5
Y2-S2-285M22,4,409,PS,exp,41,↑,up,↑,0.5598092000000179,True,12,1,0,5
Y2-S2-285M22,4,410,PS,exp,25,↓,down,↓,0.7280110999708995,True,12,1,0,5
Y2-S2-285M22,4,411,PS,exp,43,←,left,←,0.42053120001219213,True,11,1,0,5
Y2-S2-285M22,4,412,PS,exp,33,↑,up,↑,0.4233691000845283,True,11,1,0,5
Y2-S2-285M22,4,413,PS,exp,47,↓,left,←,0.6089079000521451,False,11,-1,1,6
Y2-S2-285M22,4,414,PS,exp,41,→,right,→,0.4631454999325797,True,12,-1,0,6
Y2-S2-285M22,4,415,PS,exp,33,↓,down,↓,0.6190096000209451,True,12,-1,0,6
Y2-S2-285M22,4,416,PS,exp,26,←,left,←,0.5169707000022754,True,12,1,1,7
Y2-S2-285M22,4,417,PS,exp,33,↓,right,→,0.5944831999950111,False,11,-1,1,8
Y2-S2-285M22,4,418,PS,exp,25,←,left,←,0.37542900000698864,True,12,-1,0,8
Y2-S2-285M22,4,419,PS,exp,27,↑,up,↑,0.44291540002450347,True,12,-1,0,8
Y2-S2-285M22,4,420,PS,exp,38,→,right,→,0.4619785000104457,True,12,1,1,9
Y2-S2-285M22,4,421,PS,exp,32,↓,down,↓,0.5583278000121936,True,11,1,0,9
Y2-S2-285M22,4,422,PS,exp,38,→,right,→,0.31715639994945377,True,11,1,0,9
Y2-S2-285M22,4,423,PS,exp,45,←,left,←,0.4310482000000775,True,11,1,0,9
Y2-S2-285M22,4,424,PS,exp,49,↓,down,↓,0.5770471000578254,True,10,1,0,9
Y2-S2-285M22,4,425,PS,exp,35,↑,up,↑,0.4816927000647411,True,10,1,0,9
Y2-S2-285M22,4,426,PS,exp,46,→,right,→,0.40424009994603693,True,10,1,0,9
Y2-S2-285M22,4,427,PS,exp,40,↑,up,↑,0.401183900074102,True,9,1,0,9
Y2-S2-285M22,4,428,PS,exp,37,↓,right,→,0.6442279999610037,False,9,-1,1,10
Y2-S2-285M22,4,429,PS,exp,32,→,right,→,0.4220350000541657,True,10,-1,0,10
Y2-S2-285M22,4,430,PS,exp,42,←,left,←,0.35659859993029386,True,10,-1,0,10
Y2-S2-285M22,4,431,PS,exp,49,↑,down,↓,0.6975689999526367,False,10,-1,0,10
Y2-S2-285M22,4,432,PS,exp,31,→,right,→,0.41949899995233864,True,11,-1,0,10
Y2-S2-285M22,4,433,PS,exp,34,↓,down,↓,0.384744800045155,True,11,-1,0,10
Y2-S2-285M22,4,434,PS,exp,45,→,up,↑,0.8899468000745401,False,11,-1,0,10
Y2-S2-285M22,4,435,PS,exp,37,←,left,←,0.4511832999996841,True,12,-1,0,10
Y2-S2-285M22,4,436,PS,exp,31,→,left,←,0.9324272000230849,False,12,-1,0,10
Y2-S2-285M22,4,437,PS,exp,40,↓,right,→,0.8036535000428557,False,13,-1,0,10
Y2-S2-285M22,4,438,PS,exp,26,→,right,→,0.7469046000624076,True,14,-1,0,10
Y2-S2-285M22,4,439,PS,exp,30,↑,up,↑,0.2172345999861136,True,14,-1,0,10
Y2-S2-285M22,4,440,PS,exp,41,←,down,↓,0.23388870002236217,False,14,-1,0,10
Y2-S2-285M22,4,441,PS,exp,30,↓,right,→,0.33391740010119975,False,15,-1,0,10
Y2-S2-285M22,4,442,PS,exp,30,↑,right,→,0.2505061000119895,False,16,-1,0,10
Y2-S2-285M22,4,443,PS,exp,34,↓,down,↓,0.6342970000114292,True,17,-1,0,10
Y2-S2-285M22,4,444,PS,exp,41,←,left,←,0.508414400042966,True,17,-1,0,10
Y2-S2-285M22,4,445,PS,exp,40,→,left,←,0.6016256000148132,False,17,-1,0,10
Y2-S2-285M22,4,446,PS,exp,33,↓,down,↓,0.531690200092271,True,18,-1,0,10
Y2-S2-285M22,4,447,PS,exp,50,→,right,→,0.4795712000923231,True,18,-1,0,10
Y2-S2-285M22,4,448,PS,exp,31,←,left,←,0.4341130000539124,True,18,1,1,11
Y2-S2-285M22,4,449,PS,exp,27,→,right,→,0.38386820000596344,True,17,1,0,11
Y2-S2-285M22,4,450,PS,exp,38,↓,up,↑,0.7952522999839857,False,17,-1,1,12
Y2-S2-285M22,4,451,PS,exp,32,→,right,→,0.73713060002774,True,18,-1,0,12
Y2-S2-285M22,4,452,PS,exp,35,↓,down,↓,0.5897135999985039,True,18,-1,0,12
Y2-S2-285M22,4,453,PS,exp,43,↑,down,↓,0.28387099993415177,False,18,-1,0,12
Y2-S2-285M22,4,454,PS,exp,28,↓,down,↓,0.594262299942784,True,19,-1,0,12
Y2-S2-285M22,4,455,PS,exp,39,↑,up,↑,0.48695489997044206,True,19,-1,0,12
Y2-S2-285M22,4,456,PS,exp,49,←,left,←,0.665394900017418,True,19,1,1,13
Y2-S2-285M22,4,457,PS,exp,29,↓,down,↓,0.40064969996456057,True,18,1,0,13
Y2-S2-285M22,4,458,PS,exp,44,←,left,←,0.6263989000581205,True,18,1,0,13
Y2-S2-285M22,4,459,PS,exp,39,→,right,→,0.6022942999843508,True,18,1,0,13
Y2-S2-285M22,4,460,PS,exp,36,↑,up,↑,1.0309103999752551,True,17,1,0,13
Y2-S2-285M22,4,461,PS,exp,48,←,left,←,1.0247893000487238,True,17,1,0,13
Y2-S2-285M22,4,462,PS,exp,38,↓,down,↓,0.5743466999847442,True,17,1,0,13
Y2-S2-285M22,4,463,PS,exp,42,→,right,→,0.5862331000389531,True,16,1,0,13
Y2-S2-285M22,4,464,PS,exp,34,↓,down,↓,0.6172112000640482,True,16,1,0,13
Y2-S2-285M22,4,465,PS,exp,44,→,right,→,0.5857826999854296,True,16,1,0,13
Y2-S2-285M22,4,466,PS,exp,36,←,left,←,0.77512140001636,True,15,1,0,13
Y2-S2-285M22,4,467,PS,exp,37,↑,up,↑,0.5461956000654027,True,15,1,0,13
Y2-S2-285M22,4,468,PS,exp,48,→,right,→,0.7241366000380367,True,15,1,0,13
Y2-S2-285M22,4,469,PS,exp,45,↑,up,↑,0.5865419000620022,True,14,1,0,13
Y2-S2-285M22,4,470,PS,exp,45,←,left,←,0.5921360999345779,True,14,1,0,13
Y2-S2-285M22,4,471,PS,exp,29,↓,right,→,0.7760255000321195,False,14,-1,1,14
Y2-S2-285M22,4,472,PS,exp,40,↑,left,←,0.33463010005652905,False,15,-1,0,14
Y2-S2-285M22,4,473,PS,exp,40,↓,up,↑,0.7201486000558361,False,16,-1,0,14
Y2-S2-285M22,4,474,PS,exp,38,→,right,→,0.6113875000737607,True,17,-1,0,14
Y2-S2-285M22,4,475,PS,exp,49,←,left,←,0.8569724000990391,True,17,-1,0,14
Y2-S2-285M22,4,476,PS,exp,27,→,right,→,0.9135713001014665,True,17,1,1,15
Y2-S2-285M22,4,477,PS,exp,31,←,left,←,0.6079906999366358,True,16,1,0,15
Y2-S2-285M22,4,478,PS,exp,45,↓,down,↓,0.6839778000721708,True,16,1,0,15
Y2-S2-285M22,4,479,PS,exp,26,↑,up,↑,0.7343654999276623,True,16,1,0,15
Y2-S2-285M22,4,480,PS,exp,48,←,left,←,0.6511101999785751,True,15,1,0,15
Y2-S2-285M22,4,481,PS,exp,43,↑,up,↑,0.5974540999159217,True,15,1,0,15
Y2-S2-285M22,4,482,PS,exp,42,←,left,←,0.6035265999380499,True,15,1,0,15
Y2-S2-285M22,4,483,PS,exp,28,↓,down,↓,0.644884999957867,True,14,1,0,15
Y2-S2-285M22,4,484,PS,exp,35,↑,up,↑,0.4521917999954894,True,14,1,0,15
Y2-S2-285M22,4,485,PS,exp,45,→,right,→,0.4981883999425918,True,14,1,0,15
Y2-S2-285M22,4,486,PS,exp,39,←,right,→,0.017830500029958785,False,13,-1,1,16
Y2-S2-285M22,5,487,PS,intra_train,42,↑,up,↑,0.48061019997112453,True,12,-,-,-
Y2-S2-285M22,5,488,PS,intra_train,35,←,left,←,0.3810075999936089,True,12,-,-,-
Y2-S2-285M22,5,489,PS,intra_train,40,↑,up,↑,0.527900299988687,True,12,-,-,-
Y2-S2-285M22,5,490,PS,intra_train,50,←,left,←,0.524309300002642,True,12,-,-,-
Y2-S2-285M22,5,491,PS,intra_train,26,↑,up,↑,0.6003520999802276,True,12,-,-,-
Y2-S2-285M22,5,492,PS,exp,47,←,right,→,0.2009284000378102,False,8,-1,0,0
Y2-S2-285M22,5,493,PS,exp,42,↑,up,↑,1.375228299992159,True,9,-1,0,0
Y2-S2-285M22,5,494,PS,exp,37,→,left,←,1.036262199981138,False,9,-1,0,0
Y2-S2-285M22,5,495,PS,exp,26,←,right,→,0.8036810000194237,False,10,-1,0,0
Y2-S2-285M22,5,496,PS,exp,44,↑,up,↑,0.6736731000710279,True,11,-1,0,0
Y2-S2-285M22,5,497,PS,exp,28,↓,down,↓,0.909965300001204,True,11,-1,0,0
Y2-S2-285M22,5,498,PS,exp,46,↑,up,↑,0.6734167000977322,True,11,1,1,1
Y2-S2-285M22,5,499,PS,exp,35,→,right,→,0.5558805000036955,True,10,1,0,1
Y2-S2-285M22,5,500,PS,exp,48,↓,left,←,0.7038526999531314,False,10,-1,1,2
Y2-S2-285M22,5,501,PS,exp,27,←,right,→,0.419190900051035,False,11,-1,0,2
Y2-S2-285M22,5,502,PS,exp,29,→,up,↑,0.9387350000906736,False,12,-1,0,2
Y2-S2-285M22,5,503,PS,exp,49,↑,up,↑,1.4594620000571012,True,13,-1,0,2
Y2-S2-285M22,5,504,PS,exp,43,↓,down,↓,0.6482667999807745,True,13,-1,0,2
Y2-S2-285M22,5,505,PS,exp,46,→,right,→,0.42248509998898953,True,13,1,1,3
Y2-S2-285M22,5,506,PS,exp,35,←,right,→,0.5947759000118822,False,12,-1,1,4
Y2-S2-285M22,5,507,PS,exp,38,→,up,↑,0.4139811999630183,False,13,-1,0,4
Y2-S2-285M22,5,508,PS,exp,49,←,up,↑,0.7894795999163762,False,14,-1,0,4
Y2-S2-285M22,5,509,PS,exp,42,↑,up,↑,0.46333950001280755,True,15,-1,0,4
Y2-S2-285M22,5,510,PS,exp,37,←,left,←,0.45317799993790686,True,15,-1,0,4
Y2-S2-285M22,5,511,PS,exp,35,↑,right,→,0.5618834999622777,False,15,-1,0,4
Y2-S2-285M22,5,512,PS,exp,46,→,right,→,0.40069130004849285,True,16,-1,0,4
Y2-S2-285M22,5,513,PS,exp,49,↑,up,↑,0.4533776000607759,True,16,-1,0,4
Y2-S2-285M22,5,514,PS,exp,34,↓,down,↓,0.9715287999715656,True,16,1,1,5
Y2-S2-285M22,5,515,PS,exp,28,→,right,→,0.43361770000774413,True,15,1,0,5
Y2-S2-285M22,5,516,PS,exp,44,↓,down,↓,0.42671200004406273,True,15,1,0,5
Y2-S2-285M22,5,517,PS,exp,25,←,left,←,0.42764080001506954,True,15,1,0,5
Y2-S2-285M22,5,518,PS,exp,44,→,left,←,0.5854045000160113,False,14,-1,1,6
Y2-S2-285M22,5,519,PS,exp,46,↓,down,↓,0.7057741000317037,True,15,-1,0,6
Y2-S2-285M22,5,520,PS,exp,47,←,left,←,0.5986295000184327,True,15,-1,0,6
Y2-S2-285M22,5,521,PS,exp,47,↓,down,↓,1.3512365999631584,True,15,1,1,7
Y2-S2-285M22,5,522,PS,exp,38,→,left,←,0.7629394000396132,False,14,-1,1,8
Y2-S2-285M22,5,523,PS,exp,26,↑,up,↑,1.0060605000471696,True,15,-1,0,8
Y2-S2-285M22,5,524,PS,exp,34,→,right,→,0.6875639000209048,True,15,-1,0,8
Y2-S2-285M22,5,525,PS,exp,44,←,left,←,0.6515772000420839,True,15,1,1,9
Y2-S2-285M22,5,526,PS,exp,44,↑,up,↑,0.5241210999665782,True,14,1,0,9
Y2-S2-285M22,5,527,PS,exp,31,→,right,→,1.5380516999866813,True,14,1,0,9
Y2-S2-285M22,5,528,PS,exp,35,↓,down,↓,0.9316151000093669,True,14,1,0,9
Y2-S2-285M22,5,529,PS,exp,34,←,left,←,0.6613280000165105,True,13,1,0,9
Y2-S2-285M22,5,530,PS,exp,48,↓,down,↓,0.6906863000476733,True,13,1,0,9
Y2-S2-285M22,5,531,PS,exp,26,↑,up,↑,0.5698285999242216,True,13,1,0,9
Y2-S2-285M22,5,532,PS,exp,47,↓,down,↓,0.6565639999462292,True,12,1,0,9
Y2-S2-285M22,5,533,PS,exp,30,→,right,→,0.5360566999297589,True,12,1,0,9
Y2-S2-285M22,5,534,PS,exp,36,←,left,←,0.5257120999740437,True,12,1,0,9
Y2-S2-285M22,5,535,PS,exp,28,↓,down,↓,0.7082477000076324,True,11,1,0,9
Y2-S2-285M22,5,536,PS,exp,50,←,left,←,0.6487156000221148,True,11,1,0,9
Y2-S2-285M22,5,537,PS,exp,40,↑,up,↑,0.6221082000993192,True,11,1,0,9
Y2-S2-285M22,5,538,PS,exp,30,↓,down,↓,0.6433805000269786,True,10,1,0,9
Y2-S2-285M22,5,539,PS,exp,39,↑,up,↑,0.6133645999943838,True,10,1,0,9
Y2-S2-285M22,5,540,PS,exp,35,↓,left,←,0.6770069999620318,False,10,-1,1,10
Y2-S2-285M22,5,541,PS,exp,50,→,right,→,0.6726448000408709,True,11,-1,0,10
Y2-S2-285M22,5,542,PS,exp,38,↑,up,↑,0.5358240000205114,True,11,-1,0,10
Y2-S2-285M22,5,543,PS,exp,27,←,left,←,0.5792482999386266,True,11,1,1,11
Y2-S2-285M22,5,544,PS,exp,49,↑,up,↑,0.4620004999451339,True,10,1,0,11
Y2-S2-285M22,5,545,PS,exp,45,←,left,←,0.40825360000599176,True,10,1,0,11
Y2-S2-285M22,5,546,PS,exp,29,↓,right,→,1.3541075999382883,False,10,-1,1,12
Y2-S2-285M22,5,547,PS,exp,30,→,right,→,0.5296233000699431,True,11,-1,0,12
Y2-S2-285M22,5,548,PS,exp,43,←,left,←,0.5520677999593318,True,11,-1,0,12
Y2-S2-285M22,5,549,PS,exp,43,→,up,↑,0.876988900010474,False,11,-1,0,12
Y2-S2-285M22,5,550,PS,exp,40,↑,up,↑,0.5086597000481561,True,12,-1,0,12
Y2-S2-285M22,5,551,PS,exp,31,↓,down,↓,0.6815416000317782,True,12,-1,0,12
Y2-S2-285M22,5,552,PS,exp,33,→,right,→,0.4719536000629887,True,12,1,1,13
Y2-S2-285M22,5,553,PS,exp,25,←,right,→,0.3173751999856904,False,11,-1,1,14
Y2-S2-285M22,5,554,PS,exp,42,↑,up,↑,0.4202108000172302,True,12,-1,0,14
Y2-S2-285M22,5,555,PS,exp,38,→,left,←,0.6007691000122577,False,12,-1,0,14
Y2-S2-285M22,5,556,PS,exp,32,↑,down,↓,0.8208321001147851,False,13,-1,0,14
Y2-S2-285M22,5,557,PS,exp,27,←,left,←,0.8289511000039056,True,14,-1,0,14
Y2-S2-285M22,5,558,PS,exp,33,↑,right,→,0.36747810000088066,False,14,-1,0,14
Y2-S2-285M22,5,559,PS,exp,46,↓,up,↑,0.21768350002821535,False,15,-1,0,14
Y2-S2-285M22,5,560,PS,exp,36,↑,down,↓,0.6920904000289738,False,16,-1,0,14
Y2-S2-285M22,5,561,PS,exp,41,→,right,→,0.3506162000121549,True,17,-1,0,14
Y2-S2-285M22,5,562,PS,exp,47,←,up,↑,0.4781434000469744,False,17,-1,0,14
Y2-S2-285M22,5,563,PS,exp,40,↑,up,↑,0.43386690004263073,True,18,-1,0,14
Y2-S2-285M22,5,564,PS,exp,38,←,up,↑,0.5675906999967992,False,18,-1,0,14
Y2-S2-285M22,5,565,PS,exp,28,→,right,→,0.4005287999752909,True,19,-1,0,14
Y2-S2-285M22,5,566,PS,exp,33,←,left,←,0.4339448999380693,True,19,-1,0,14
Y2-S2-285M22,5,567,PS,exp,27,↑,up,↑,0.5223500999854878,True,19,1,1,15
Y2-S2-285M22,5,568,PS,exp,29,→,right,→,0.384283599909395,True,18,1,0,15
Y2-S2-285M22,5,569,PS,exp,25,↑,up,↑,0.5022245000582188,True,18,1,0,15
Y2-S2-285M22,5,570,PS,exp,30,←,left,←,0.4337146000470966,True,18,1,0,15
Y2-S2-285M22,5,571,PS,exp,43,→,right,→,0.5270653000334278,True,17,1,0,15
Y2-S2-285M22,5,572,PS,exp,41,↓,down,↓,0.8258545999415219,True,17,1,0,15
Y2-S2-285M22,5,573,PS,exp,25,↑,up,↑,0.8344664999749511,True,17,1,0,15
Y2-S2-285M22,5,574,PS,exp,34,←,left,←,0.5141642999369651,True,16,1,0,15
Y2-S2-285M22,5,575,PS,exp,31,↓,left,←,0.5747214000439271,False,16,-1,1,16
Y2-S2-285M22,6,576,AS,intra_train,49,→,right,→,0.4172604999039322,True,25,-,-,-
Y2-S2-285M22,6,577,AS,intra_train,28,↓,down,↓,0.6134918000316247,True,25,-,-,-
Y2-S2-285M22,6,578,AS,intra_train,42,→,right,→,0.40074419998563826,True,25,-,-,-
Y2-S2-285M22,6,579,AS,intra_train,39,↑,left,←,0.5344965999247506,False,25,-,-,-
Y2-S2-285M22,6,580,AS,intra_train,25,↓,up,↑,1.1795464999740943,False,25,-,-,-
Y2-S2-285M22,6,581,AS,exp,40,↑,left,←,1.2005863999947906,False,17,-1,0,0
Y2-S2-285M22,6,582,AS,exp,49,↓,left,←,1.4044040999142453,False,18,-1,0,0
Y2-S2-285M22,6,583,AS,exp,32,←,up,↑,0.653987199999392,False,19,-1,0,0
Y2-S2-285M22,6,584,AS,exp,50,↑,up,↑,0.5583196000661701,True,20,-1,0,0
Y2-S2-285M22,6,585,AS,exp,45,→,right,→,0.5540017999010161,True,20,-1,0,0
Y2-S2-285M22,6,586,AS,exp,48,↓,right,→,1.839117299998179,False,20,-1,0,0
Y2-S2-285M22,6,587,AS,exp,48,←,up,↑,0.5375987999141216,False,21,-1,0,0
Y2-S2-285M22,6,588,AS,exp,33,↑,up,↑,1.1117956000380218,True,22,-1,0,0
Y2-S2-285M22,6,589,AS,exp,39,→,right,→,0.9755018999567255,True,22,-1,0,0
Y2-S2-285M22,6,590,AS,exp,26,↓,down,↓,0.7640792999882251,True,22,1,1,1
Y2-S2-285M22,6,591,AS,exp,48,→,right,→,0.6595770999556407,True,21,1,0,1
Y2-S2-285M22,6,592,AS,exp,27,↑,up,↑,0.5986190000548959,True,21,1,0,1
Y2-S2-285M22,6,593,AS,exp,28,→,down,↓,0.7891957999672741,False,21,-1,1,2
Y2-S2-285M22,6,594,AS,exp,42,↑,right,→,1.211576799978502,False,22,-1,0,2
Y2-S2-285M22,6,595,AS,exp,50,→,right,→,0.41735529992729425,True,23,-1,0,2
Y2-S2-285M22,6,596,AS,exp,42,←,up,↑,0.9071621000766754,False,23,-1,0,2
Y2-S2-285M22,6,597,AS,exp,41,↑,left,←,0.607220400008373,False,24,-1,0,2
Y2-S2-285M22,6,598,AS,exp,31,←,up,↑,0.962767600081861,False,25,-1,0,2
Y2-S2-285M22,6,599,AS,exp,49,→,down,↓,1.195640999940224,False,26,-1,0,2
Y2-S2-285M22,6,600,AS,exp,25,↓,down,↓,1.1157795999897644,True,27,-1,0,2
Y2-S2-285M22,6,601,AS,exp,31,↑,right,→,0.6519207000965253,False,27,-1,0,2
Y2-S2-285M22,6,602,AS,exp,47,→,right,→,0.5006907000206411,True,28,-1,0,2
Y2-S2-285M22,6,603,AS,exp,26,↑,right,→,0.8423819999443367,False,28,-1,0,2
Y2-S2-285M22,6,604,AS,exp,29,←,left,←,0.5836971999378875,True,29,-1,0,2
Y2-S2-285M22,6,605,AS,exp,33,→,right,→,0.9927014000713825,True,29,-1,0,2
Y2-S2-285M22,6,606,AS,exp,35,←,left,←,0.5173861000221223,True,29,1,1,3
Y2-S2-285M22,6,607,AS,exp,47,↑,up,↑,0.6355037000030279,True,28,1,0,3
Y2-S2-285M22,6,608,AS,exp,25,←,left,←,0.7459094999358058,True,28,1,0,3
Y2-S2-285M22,6,609,AS,exp,38,↑,up,↑,0.7575413000304252,True,28,1,0,3
Y2-S2-285M22,6,610,AS,exp,27,←,left,←,0.4507416000124067,True,27,1,0,3
Y2-S2-285M22,6,611,AS,exp,49,↓,down,↓,0.751369500067085,True,27,1,0,3
Y2-S2-285M22,6,612,AS,exp,44,↑,up,↑,0.43384359998162836,True,27,1,0,3
Y2-S2-285M22,6,613,AS,exp,28,↓,down,↓,0.8104931999696419,True,26,1,0,3
Y2-S2-285M22,6,614,AS,exp,48,←,left,←,0.7157266000285745,True,26,1,0,3
Y2-S2-285M22,6,615,AS,exp,44,↑,up,↑,0.8770767999812961,True,26,1,0,3
Y2-S2-285M22,6,616,AS,exp,47,↓,left,←,0.8024144000373781,False,25,-1,1,4
Y2-S2-285M22,6,617,AS,exp,41,←,left,←,0.4338799000252038,True,26,-1,0,4
Y2-S2-285M22,6,618,AS,exp,34,→,down,↓,1.094121899921447,False,26,-1,0,4
Y2-S2-285M22,6,619,AS,exp,32,↑,no_key,no_letter,-1.0,False,27,-1,0,4
Y2-S2-285M22,6,620,AS,exp,49,←,left,←,0.5839643999934196,True,28,-1,0,4
Y2-S2-285M22,6,621,AS,exp,50,↑,right,→,0.7604289000155404,False,28,-1,0,4
Y2-S2-285M22,6,622,AS,exp,28,←,right,→,1.1801987999351695,False,29,-1,0,4
Y2-S2-285M22,6,623,AS,exp,39,↓,up,↑,0.583968700026162,False,30,-1,0,4
Y2-S2-285M22,6,624,AS,exp,40,←,down,↓,1.148017100058496,False,31,-1,0,4
Y2-S2-285M22,6,625,AS,exp,50,↓,right,→,0.9873667999636382,False,32,-1,0,4
Y2-S2-285M22,6,626,AS,exp,27,→,up,↑,0.6004654000280425,False,33,-1,0,4
Y2-S2-285M22,6,627,AS,exp,25,↑,left,←,1.139960299944505,False,34,-1,0,4
Y2-S2-285M22,6,628,AS,exp,49,↓,right,→,1.0894195000873879,False,35,-1,0,4
Y2-S2-285M22,6,629,AS,exp,39,→,right,→,1.162629900034517,True,36,-1,0,4
Y2-S2-285M22,6,630,AS,exp,44,←,left,←,1.2282088999636471,True,36,-1,0,4
Y2-S2-285M22,6,631,AS,exp,27,→,right,→,0.8113143000518903,True,36,1,1,5
Y2-S2-285M22,6,632,AS,exp,29,←,up,↑,1.1250273000914603,False,35,-1,1,6
Y2-S2-285M22,6,633,AS,exp,44,↓,down,↓,1.3406649000244215,True,36,-1,0,6
Y2-S2-285M22,6,634,AS,exp,29,←,left,←,0.551323699997738,True,36,-1,0,6
Y2-S2-285M22,6,635,AS,exp,46,↓,down,↓,0.9850389000494033,True,36,1,1,7
Y2-S2-285M22,6,636,AS,exp,39,←,left,←,0.5176199999405071,True,35,1,0,7
Y2-S2-285M22,6,637,AS,exp,29,↑,up,↑,0.617175200022757,True,35,1,0,7
Y2-S2-285M22,6,638,AS,exp,34,→,right,→,0.5347228000173345,True,35,1,0,7
Y2-S2-285M22,6,639,AS,exp,27,↑,up,↑,0.501084899995476,True,34,1,0,7
Y2-S2-285M22,6,640,AS,exp,26,↓,down,↓,0.5507773000281304,True,34,1,0,7
Y2-S2-285M22,6,641,AS,exp,37,←,left,←,0.4510448999935761,True,34,1,0,7
Y2-S2-285M22,6,642,AS,exp,30,↓,down,↓,0.6174747999757528,True,33,1,0,7
Y2-S2-285M22,6,643,AS,exp,25,↑,right,→,0.3675602999283001,False,33,-1,1,8
Y2-S2-285M22,6,644,AS,exp,43,↓,down,↓,0.583919299999252,True,34,-1,0,8
Y2-S2-285M22,6,645,AS,exp,44,→,right,→,0.4507236999925226,True,34,-1,0,8
Y2-S2-285M22,6,646,AS,exp,27,↑,up,↑,0.41775779996532947,True,34,1,1,9
Y2-S2-285M22,6,647,AS,exp,49,←,left,←,0.5339505000738427,True,33,1,0,9
Y2-S2-285M22,6,648,AS,exp,29,↑,up,↑,0.9191914000548422,True,33,1,0,9
Y2-S2-285M22,6,649,AS,exp,28,→,right,→,0.7203697999939322,True,33,1,0,9
Y2-S2-285M22,6,650,AS,exp,45,↑,left,←,0.3179903000127524,False,32,-1,1,10
Y2-S2-285M22,6,651,AS,exp,47,↓,down,↓,0.6335419999668375,True,33,-1,0,10
Y2-S2-285M22,6,652,AS,exp,34,←,left,←,0.7231605000561103,True,33,-1,0,10
Y2-S2-285M22,6,653,AS,exp,32,↓,down,↓,0.7555746999569237,True,33,1,1,11
Y2-S2-285M22,6,654,AS,exp,27,←,left,←,0.6674580000108108,True,32,1,0,11
Y2-S2-285M22,6,655,AS,exp,28,↓,left,←,1.240180299966596,False,32,-1,1,12
Y2-S2-285M22,6,656,AS,exp,36,↑,up,↑,0.5837971000000834,True,33,-1,0,12
Y2-S2-285M22,6,657,AS,exp,39,→,right,→,0.7836372000165284,True,33,-1,0,12
Y2-S2-285M22,6,658,AS,exp,32,↓,down,↓,0.46790369995869696,True,33,1,1,13
Y2-S2-285M22,6,659,AS,exp,25,←,left,←,0.7545848999870941,True,32,1,0,13
Y2-S2-285M22,6,660,AS,exp,36,↓,down,↓,0.8654983999440446,True,32,1,0,13
Y2-S2-285M22,6,661,AS,exp,42,↑,up,↑,0.4849069999763742,True,32,1,0,13
Y2-S2-285M22,6,662,AS,exp,37,↓,down,↓,0.8636733000166714,True,31,1,0,13
Y2-S2-285M22,6,663,AS,exp,48,↑,up,↑,0.9512565999757499,True,31,1,0,13
Y2-S2-285M22,6,664,AS,exp,27,←,left,←,1.259085000026971,True,31,1,0,13
Y2-S2-285M22,6,665,AS,exp,50,→,left,←,0.1678554000100121,False,30,-1,1,14
Y2-S2-285M22,6,666,AS,exp,41,←,right,→,0.6173315999330953,False,31,-1,0,14
Y2-S2-285M22,6,667,AS,exp,50,→,right,→,0.7115069000283256,True,32,-1,0,14
Y2-S2-285M22,6,668,AS,exp,39,↑,up,↑,0.4675133000127971,True,32,-1,0,14
Y2-S2-285M22,6,669,AS,exp,29,←,left,←,0.6170500000007451,True,32,1,1,15
Y2-S2-285M22,6,670,AS,exp,47,→,right,→,0.7253758000442758,True,31,1,0,15
Y2-S2-285M22,6,671,AS,exp,33,↑,right,→,0.46809980005491525,False,31,-1,1,16
Y2-S2-285M22,7,672,AS,intra_train,26,→,right,→,0.6718443999998271,True,25,-,-,-
Y2-S2-285M22,7,673,AS,intra_train,31,↓,down,↓,0.9710381999611855,True,25,-,-,-
Y2-S2-285M22,7,674,AS,intra_train,50,←,right,→,0.3511036999989301,False,25,-,-,-
Y2-S2-285M22,7,675,AS,intra_train,35,↑,up,↑,0.6408666999777779,True,25,-,-,-
Y2-S2-285M22,7,676,AS,intra_train,30,→,down,↓,0.8960307999514043,False,25,-,-,-
Y2-S2-285M22,7,677,AS,exp,27,↓,up,↑,0.8657317999750376,False,17,-1,0,0
Y2-S2-285M22,7,678,AS,exp,44,→,up,↑,1.1505228999303654,False,18,-1,0,0
Y2-S2-285M22,7,679,AS,exp,30,←,left,←,0.5823692000703886,True,19,-1,0,0
Y2-S2-285M22,7,680,AS,exp,35,↑,left,←,0.7756886000279337,False,19,-1,0,0
Y2-S2-285M22,7,681,AS,exp,36,→,right,→,0.6156476000323892,True,20,-1,0,0
Y2-S2-285M22,7,682,AS,exp,32,↓,down,↓,0.7877366000320762,True,20,-1,0,0
Y2-S2-285M22,7,683,AS,exp,30,→,right,→,0.7581243999302387,True,20,1,1,1
Y2-S2-285M22,7,684,AS,exp,39,↓,up,↑,0.6124980000313371,False,19,-1,1,2
Y2-S2-285M22,7,685,AS,exp,37,→,right,→,0.6016747000394389,True,20,-1,0,2
Y2-S2-285M22,7,686,AS,exp,28,←,left,←,0.7034703999524936,True,20,-1,0,2
Y2-S2-285M22,7,687,AS,exp,48,↑,up,↑,0.46700780000537634,True,20,1,1,3
Y2-S2-285M22,7,688,AS,exp,26,←,left,←,0.5337775000371039,True,19,1,0,3
Y2-S2-285M22,7,689,AS,exp,33,↓,down,↓,0.6599033999955282,True,19,1,0,3
Y2-S2-285M22,7,690,AS,exp,46,←,right,→,0.5243382999906316,False,19,-1,1,4
Y2-S2-285M22,7,691,AS,exp,35,→,left,←,0.5826318999752402,False,20,-1,0,4
Y2-S2-285M22,7,692,AS,exp,39,↑,up,↑,0.8613986999262124,True,21,-1,0,4
Y2-S2-285M22,7,693,AS,exp,42,↓,down,↓,0.9599217000650242,True,21,-1,0,4
Y2-S2-285M22,7,694,AS,exp,46,↑,up,↑,0.8122447000350803,True,21,1,1,5
Y2-S2-285M22,7,695,AS,exp,38,←,up,↑,0.9550475000869483,False,20,-1,1,6
Y2-S2-285M22,7,696,AS,exp,30,↑,up,↑,0.46774699992965907,True,21,-1,0,6
Y2-S2-285M22,7,697,AS,exp,37,↓,down,↓,0.8617175000254065,True,21,-1,0,6
Y2-S2-285M22,7,698,AS,exp,35,→,right,→,0.4504816000116989,True,21,1,1,7
Y2-S2-285M22,7,699,AS,exp,32,←,right,→,0.743803899968043,False,20,-1,1,8
Y2-S2-285M22,7,700,AS,exp,32,→,right,→,0.5942569000180811,True,21,-1,0,8
Y2-S2-285M22,7,701,AS,exp,30,↓,down,↓,0.873952400055714,True,21,-1,0,8
Y2-S2-285M22,7,702,AS,exp,29,↑,up,↑,0.7674460000125691,True,21,1,1,9
Y2-S2-285M22,7,703,AS,exp,32,→,right,→,1.6874137999257073,True,20,1,0,9
Y2-S2-285M22,7,704,AS,exp,33,↓,down,↓,0.6362611000658944,True,20,1,0,9
Y2-S2-285M22,7,705,AS,exp,36,↑,up,↑,0.6886055000359192,True,20,1,0,9
Y2-S2-285M22,7,706,AS,exp,33,←,left,←,1.4076223999727517,True,19,1,0,9
Y2-S2-285M22,7,707,AS,exp,47,→,left,←,0.4338281999807805,False,19,-1,1,10
Y2-S2-285M22,7,708,AS,exp,29,↑,up,↑,0.5138352999929339,True,20,-1,0,10
Y2-S2-285M22,7,709,AS,exp,47,←,left,←,0.605974700069055,True,20,-1,0,10
Y2-S2-285M22,7,710,AS,exp,46,↓,down,↓,0.6791785999666899,True,20,1,1,11
Y2-S2-285M22,7,711,AS,exp,26,→,right,→,0.36739599995780736,True,19,1,0,11
Y2-S2-285M22,7,712,AS,exp,38,↑,up,↑,0.4007315000053495,True,19,1,0,11
Y2-S2-285M22,7,713,AS,exp,28,←,left,←,0.3673570000100881,True,19,1,0,11
Y2-S2-285M22,7,714,AS,exp,39,→,right,→,0.96401820005849,True,18,1,0,11
Y2-S2-285M22,7,715,AS,exp,49,←,right,→,0.6729331000242382,False,18,-1,1,12
Y2-S2-285M22,7,716,AS,exp,50,↑,up,↑,0.4508008999982849,True,19,-1,0,12
Y2-S2-285M22,7,717,AS,exp,28,→,right,→,0.5964236999861896,True,19,-1,0,12
Y2-S2-285M22,7,718,AS,exp,42,←,left,←,0.36727279995102435,True,19,1,1,13
Y2-S2-285M22,7,719,AS,exp,35,↓,right,→,0.6059523000149056,False,18,-1,1,14
Y2-S2-285M22,7,720,AS,exp,28,↑,up,↑,0.2844418999738991,True,19,-1,0,14
Y2-S2-285M22,7,721,AS,exp,36,↓,up,↑,0.9567959000123665,False,19,-1,0,14
Y2-S2-285M22,7,722,AS,exp,30,↑,left,←,0.30099530005827546,False,20,-1,0,14
Y2-S2-285M22,7,723,AS,exp,42,↓,down,↓,0.7604470999212936,True,21,-1,0,14
Y2-S2-285M22,7,724,AS,exp,30,↑,up,↑,0.3332949999021366,True,21,-1,0,14
Y2-S2-285M22,7,725,AS,exp,30,→,right,→,0.6757099999813363,True,21,1,1,15
Y2-S2-285M22,7,726,AS,exp,47,↑,left,←,1.1445375999901444,False,20,-1,1,16
Y2-S2-285M22,8,727,PS,intra_train,35,→,right,→,0.42695800005458295,True,12,-,-,-
Y2-S2-285M22,8,728,PS,intra_train,39,↑,right,→,0.4626165999798104,False,12,-,-,-
Y2-S2-285M22,8,729,PS,intra_train,42,↓,up,↑,0.6074136999668553,False,12,-,-,-
Y2-S2-285M22,8,730,PS,intra_train,47,←,down,↓,0.43733119999524206,False,12,-,-,-
Y2-S2-285M22,8,731,PS,intra_train,37,↑,up,↑,0.6014027999481186,True,12,-,-,-
Y2-S2-285M22,8,732,PS,exp,39,↓,up,↑,0.5748881000326946,False,8,-1,0,0
Y2-S2-285M22,8,733,PS,exp,33,→,up,↑,0.0678673000074923,False,9,-1,0,0
Y2-S2-285M22,8,734,PS,exp,34,↑,up,↑,0.4623629000270739,True,10,-1,0,0
Y2-S2-285M22,8,735,PS,exp,34,↓,down,↓,0.7095386000582948,True,10,-1,0,0
Y2-S2-285M22,8,736,PS,exp,40,↑,down,↓,0.5915424999548122,False,10,-1,0,0
Y2-S2-285M22,8,737,PS,exp,40,→,right,→,0.43155530001968145,True,11,-1,0,0
Y2-S2-285M22,8,738,PS,exp,45,↓,left,←,0.7608234999934211,False,11,-1,0,0
Y2-S2-285M22,8,739,PS,exp,26,→,right,→,0.6304057999514043,True,12,-1,0,0
Y2-S2-285M22,8,740,PS,exp,29,←,up,↑,0.7050279000541195,False,12,-1,0,0
Y2-S2-285M22,8,741,PS,exp,44,↑,up,↑,0.6793139999499545,True,13,-1,0,0
Y2-S2-285M22,8,742,PS,exp,39,→,left,←,0.8316924000391737,False,13,-1,0,0
Y2-S2-285M22,8,743,PS,exp,26,↓,down,↓,0.6187765999929979,True,14,-1,0,0
Y2-S2-285M22,8,744,PS,exp,49,↑,up,↑,0.4151834000367671,True,14,-1,0,0
Y2-S2-285M22,8,745,PS,exp,38,→,right,→,0.7030394000466913,True,14,1,1,1
Y2-S2-285M22,8,746,PS,exp,48,↓,down,↓,0.6649871999397874,True,13,1,0,1
Y2-S2-285M22,8,747,PS,exp,28,↑,right,→,0.7976211999775842,False,13,-1,1,2
Y2-S2-285M22,8,748,PS,exp,42,→,up,↑,0.4060061000054702,False,14,-1,0,2
Y2-S2-285M22,8,749,PS,exp,35,←,left,←,0.46439539990387857,True,15,-1,0,2
Y2-S2-285M22,8,750,PS,exp,37,→,up,↑,0.5000265000853688,False,15,-1,0,2
Y2-S2-285M22,8,751,PS,exp,31,↑,up,↑,0.5260068000061437,True,16,-1,0,2
Y2-S2-285M22,8,752,PS,exp,45,←,up,↑,0.6205036999890581,False,16,-1,0,2
Y2-S2-285M22,8,753,PS,exp,36,→,up,↑,1.1645166999660432,False,17,-1,0,2
Y2-S2-285M22,8,754,PS,exp,30,↑,up,↑,1.241278599947691,True,18,-1,0,2
Y2-S2-285M22,8,755,PS,exp,35,→,up,↑,0.4730443999869749,False,18,-1,0,2
Y2-S2-285M22,8,756,PS,exp,33,←,up,↑,1.0907892000395805,False,19,-1,0,2
Y2-S2-285M22,8,757,PS,exp,25,↓,right,→,1.1801892999792472,False,20,-1,0,2
Y2-S2-285M22,8,758,PS,exp,32,←,left,←,0.6436436999356374,True,21,-1,0,2
Y2-S2-285M22,8,759,PS,exp,29,↓,down,↓,0.7486621000571176,True,21,-1,0,2
Y2-S2-285M22,8,760,PS,exp,33,↑,up,↑,0.48412869998719543,True,21,1,1,3
Y2-S2-285M22,8,761,PS,exp,35,←,down,↓,0.5459318000357598,False,20,-1,1,4
Y2-S2-285M22,8,762,PS,exp,48,↓,right,→,0.10116740001831204,False,21,-1,0,4
Y2-S2-285M22,8,763,PS,exp,31,→,right,→,0.3176908999448642,True,22,-1,0,4
Y2-S2-285M22,8,764,PS,exp,34,↓,left,←,0.3671254999935627,False,22,-1,0,4
Y2-S2-285M22,8,765,PS,exp,45,↑,left,←,0.8178557999199256,False,23,-1,0,4
Y2-S2-285M22,8,766,PS,exp,45,↓,up,↑,0.16763130004983395,False,24,-1,0,4
Y2-S2-285M22,8,767,PS,exp,31,↑,down,↓,0.43427169998176396,False,25,-1,0,4
Y2-S2-285M22,8,768,PS,exp,38,→,up,↑,0.018025800003670156,False,26,-1,0,4
Y2-S2-285M22,8,769,PS,exp,36,←,up,↑,0.5845571999670938,False,27,-1,0,4
Y2-S2-285M22,8,770,PS,exp,33,↑,left,←,0.4351090000709519,False,28,-1,0,4
Y2-S2-285M22,8,771,PS,exp,30,←,left,←,0.5172757999971509,True,29,-1,0,4
Y2-S2-285M22,8,772,PS,exp,30,↓,down,↓,0.6561806999379769,True,29,-1,0,4
Y2-S2-285M22,8,773,PS,exp,48,←,up,↑,0.26744600001256913,False,29,-1,0,4
Y2-S2-285M22,8,774,PS,exp,43,↑,up,↑,0.45090049994178116,True,30,-1,0,4
Y2-S2-285M22,8,775,PS,exp,47,←,right,→,0.674139600014314,False,30,-1,0,4
Y2-S2-285M22,8,776,PS,exp,31,↓,down,↓,1.6524350000545382,True,31,-1,0,4
Y2-S2-285M22,8,777,PS,exp,39,→,left,←,0.5503386999480426,False,31,-1,0,4
Y2-S2-285M22,8,778,PS,exp,47,↑,up,↑,0.4343006999697536,True,32,-1,0,4
Y2-S2-285M22,8,779,PS,exp,30,↓,left,←,0.20093150006141514,False,32,-1,0,4
Y2-S2-285M22,8,780,PS,exp,36,↑,up,↑,0.5506189999869093,True,33,-1,0,4
Y2-S2-285M22,8,781,PS,exp,25,→,up,↑,0.5673009000020102,False,33,-1,0,4
Y2-S2-285M22,8,782,PS,exp,39,←,left,←,0.4507629999425262,True,34,-1,0,4
Y2-S2-285M22,8,783,PS,exp,40,→,right,→,0.38428779994137585,True,34,-1,0,4
Y2-S2-285M22,8,784,PS,exp,49,←,left,←,0.40106739988550544,True,34,1,1,5
Y2-S2-285M22,8,785,PS,exp,33,↓,down,↓,0.6669905000599101,True,33,1,0,5
Y2-S2-285M22,8,786,PS,exp,31,←,left,←,0.46767829998862,True,33,1,0,5
Y2-S2-285M22,8,787,PS,exp,32,→,right,→,0.3679850000189617,True,33,1,0,5
Y2-S2-285M22,8,788,PS,exp,39,↑,up,↑,0.5009995000436902,True,32,1,0,5
Y2-S2-285M22,8,789,PS,exp,47,↓,down,↓,0.567367700044997,True,32,1,0,5
Y2-S2-285M22,8,790,PS,exp,37,↑,up,↑,0.6339216000633314,True,32,1,0,5
Y2-S2-285M22,8,791,PS,exp,34,←,left,←,0.6507626000093296,True,31,1,0,5
Y2-S2-285M22,8,792,PS,exp,30,↓,down,↓,0.7225877000018954,True,31,1,0,5
Y2-S2-285M22,8,793,PS,exp,31,←,left,←,0.5842934999382123,True,31,1,0,5
Y2-S2-285M22,8,794,PS,exp,35,→,right,→,0.5340809999033809,True,30,1,0,5
Y2-S2-285M22,8,795,PS,exp,39,↓,down,↓,0.6878302999539301,True,30,1,0,5
Y2-S2-285M22,8,796,PS,exp,36,→,right,→,0.4178574000252411,True,30,1,0,5
Y2-S2-285M22,8,797,PS,exp,42,↑,up,↑,0.3676120999734849,True,29,1,0,5
Y2-S2-285M22,8,798,PS,exp,50,→,right,→,0.3844395000487566,True,29,1,0,5
Y2-S2-285M22,8,799,PS,exp,27,↑,up,↑,0.3845923999324441,True,29,1,0,5
Y2-S2-285M22,8,800,PS,exp,42,←,left,←,0.43475909996777773,True,28,1,0,5
Y2-S2-285M22,8,801,PS,exp,35,↑,up,↑,0.4676895000739023,True,28,1,0,5
Y2-S2-285M22,8,802,PS,exp,36,↓,down,↓,0.6490595999639481,True,28,1,0,5
Y2-S2-285M22,8,803,PS,exp,36,←,left,←,0.4339185000862926,True,27,1,0,5
Y2-S2-285M22,8,804,PS,exp,34,→,right,→,0.40118890011217445,True,27,1,0,5
Y2-S2-285M22,8,805,PS,exp,50,↓,down,↓,0.5339618000434712,True,27,1,0,5
Y2-S2-285M22,8,806,PS,exp,43,→,right,→,0.46726270008366555,True,26,1,0,5
Y2-S2-285M22,8,807,PS,exp,34,←,left,←,0.3843370000831783,True,26,1,0,5
Y2-S2-285M22,8,808,PS,exp,47,→,right,→,1.3738503000931814,True,26,1,0,5
Y2-S2-285M22,8,809,PS,exp,34,↓,down,↓,0.7477789999684319,True,25,1,0,5
Y2-S2-285M22,8,810,PS,exp,40,→,right,→,0.3343492998974398,True,25,1,0,5
Y2-S2-285M22,8,811,PS,exp,30,←,left,←,0.6213060000445694,True,25,1,0,5
Y2-S2-285M22,8,812,PS,exp,38,↓,down,↓,0.7592081000329927,True,24,1,0,5
Y2-S2-285M22,8,813,PS,exp,42,↑,up,↑,0.6998220999957994,True,24,1,0,5
Y2-S2-285M22,8,814,PS,exp,42,→,right,→,1.1429319999879226,True,24,1,0,5
Y2-S2-285M22,8,815,PS,exp,32,←,left,←,0.7138451999053359,True,23,1,0,5
Y2-S2-285M22,8,816,PS,exp,34,↓,down,↓,0.6340038999915123,True,23,1,0,5
Y2-S2-285M22,8,817,PS,exp,49,←,left,←,0.5580064000096172,True,23,1,0,5
Y2-S2-285M22,8,818,PS,exp,32,→,right,→,0.3513533000368625,True,22,1,0,5
Y2-S2-285M22,8,819,PS,exp,33,↑,up,↑,0.7262621000409126,True,22,1,0,5
Y2-S2-285M22,8,820,PS,exp,50,→,right,→,0.4002067999681458,True,22,1,0,5
Y2-S2-285M22,8,821,PS,exp,40,←,right,→,0.4509919999400154,False,21,-1,1,6
Y2-S2-285M22,8,822,PS,exp,44,↑,up,↑,0.6521415999159217,True,22,-1,0,6
Y2-S2-285M22,8,823,PS,exp,37,→,right,→,0.5591007999610156,True,22,-1,0,6
Y2-S2-285M22,8,824,PS,exp,38,↓,down,↓,0.48380940000060946,True,22,1,1,7
Y2-S2-285M22,8,825,PS,exp,44,↑,up,↑,1.1131253000348806,True,21,1,0,7
Y2-S2-285M22,8,826,PS,exp,44,←,left,←,0.40055270004086196,True,21,1,0,7
Y2-S2-285M22,8,827,PS,exp,33,↑,up,↑,0.4172027000458911,True,21,1,0,7
Y2-S2-285M22,8,828,PS,exp,45,←,left,←,0.40071229997556657,True,20,1,0,7
Y2-S2-285M22,8,829,PS,exp,45,→,right,→,0.5295816001016647,True,20,1,0,7
Y2-S2-285M22,8,830,PS,exp,34,←,left,←,0.7735985999461263,True,20,1,0,7
Y2-S2-285M22,8,831,PS,exp,43,↓,down,↓,0.6840782000217587,True,19,1,0,7
Y2-S2-285M22,8,832,PS,exp,49,←,left,←,0.9236715000588447,True,19,1,0,7
Y2-S2-285M22,8,833,PS,exp,34,↑,up,↑,1.0413115998962894,True,19,1,0,7
Y2-S2-285M22,8,834,PS,exp,44,←,right,→,0.38403750001452863,False,18,-1,1,8
Y2-S2-285M22,8,835,PS,exp,46,↑,up,↑,0.7602647999301553,True,19,-1,0,8
Y2-S2-285M22,8,836,PS,exp,49,↓,up,↑,0.5566872999770567,False,19,-1,0,8
Y2-S2-285M22,8,837,PS,exp,50,↑,up,↑,0.45046139997430146,True,20,-1,0,8
Y2-S2-285M22,8,838,PS,exp,39,↓,down,↓,0.7294152000686154,True,20,-1,0,8
Y2-S2-285M22,8,839,PS,exp,45,↑,up,↑,0.7290445000398904,True,20,1,1,9
Y2-S2-285M22,8,840,PS,exp,37,→,right,→,0.4339711000211537,True,19,1,0,9
Y2-S2-285M22,8,841,PS,exp,32,↓,down,↓,0.7529645999893546,True,19,1,0,9
Y2-S2-285M22,8,842,PS,exp,37,←,left,←,0.5829881000099704,True,19,1,0,9
Y2-S2-285M22,8,843,PS,exp,26,↓,down,↓,0.11777999997138977,True,18,1,0,9
Y2-S2-285M22,8,844,PS,exp,45,↑,up,↑,0.6176898999838158,True,18,1,0,9
Y2-S2-285M22,8,845,PS,exp,32,←,left,←,0.48682780005037785,True,18,1,0,9
Y2-S2-285M22,8,846,PS,exp,49,→,down,↓,0.30040379997808486,False,17,-1,1,10
Y2-S2-285M22,8,847,PS,exp,30,↑,up,↑,0.710586000001058,True,18,-1,0,10
Y2-S2-285M22,8,848,PS,exp,42,→,right,→,0.433798799989745,True,18,-1,0,10
Y2-S2-285M22,8,849,PS,exp,31,↓,right,→,0.31701309990603477,False,18,-1,0,10
Y2-S2-285M22,8,850,PS,exp,28,↑,up,↑,0.38402780005708337,True,19,-1,0,10
Y2-S2-285M22,8,851,PS,exp,25,←,right,→,0.5421226999023929,False,19,-1,0,10
Y2-S2-285M22,8,852,PS,exp,41,↑,up,↑,0.45087439997587353,True,20,-1,0,10
Y2-S2-285M22,8,853,PS,exp,40,←,right,→,0.3841394999762997,False,20,-1,0,10
Y2-S2-285M22,8,854,PS,exp,34,→,left,←,0.7150304999668151,False,21,-1,0,10
Y2-S2-285M22,8,855,PS,exp,44,↓,down,↓,1.194691300042905,True,22,-1,0,10
Y2-S2-285M22,8,856,PS,exp,29,→,right,→,0.6440798999974504,True,22,-1,0,10
Y2-S2-285M22,8,857,PS,exp,27,←,left,←,0.4341497999848798,True,22,1,1,11
Y2-S2-285M22,8,858,PS,exp,44,↑,up,↑,0.4338333000196144,True,21,1,0,11
Y2-S2-285M22,8,859,PS,exp,37,→,right,→,0.41731789999175817,True,21,1,0,11
Y2-S2-285M22,8,860,PS,exp,28,↑,up,↑,0.5364942000014707,True,21,1,0,11
Y2-S2-285M22,8,861,PS,exp,28,↓,down,↓,0.7766888999613002,True,20,1,0,11
Y2-S2-285M22,8,862,PS,exp,33,↑,up,↑,0.5503167000133544,True,20,1,0,11
Y2-S2-285M22,8,863,PS,exp,47,↓,down,↓,0.5290617999853566,True,20,1,0,11
Y2-S2-285M22,8,864,PS,exp,27,←,left,←,0.433830099995248,True,19,1,0,11
Y2-S2-285M22,8,865,PS,exp,29,↑,up,↑,0.5358051999937743,True,19,1,0,11
Y2-S2-285M22,8,866,PS,exp,50,←,left,←,0.4171727999346331,True,19,1,0,11
Y2-S2-285M22,8,867,PS,exp,26,↑,up,↑,0.9519615999888629,True,18,1,0,11
Y2-S2-285M22,8,868,PS,exp,28,↓,down,↓,0.6577339000068605,True,18,1,0,11
Y2-S2-285M22,8,869,PS,exp,50,↑,up,↑,0.40038540004752576,True,18,1,0,11
Y2-S2-285M22,8,870,PS,exp,28,←,left,←,0.925678399973549,True,17,1,0,11
Y2-S2-285M22,8,871,PS,exp,30,↓,up,↑,0.7307973999995738,False,17,-1,1,12
Y2-S2-285M22,8,872,PS,exp,29,←,left,←,0.367087300051935,True,18,-1,0,12
Y2-S2-285M22,8,873,PS,exp,43,↑,up,↑,0.5049042999744415,True,18,-1,0,12
Y2-S2-285M22,8,874,PS,exp,39,→,right,→,0.6206779000349343,True,18,1,1,13
Y2-S2-285M22,8,875,PS,exp,43,←,left,←,0.6365075999638066,True,17,1,0,13
Y2-S2-285M22,8,876,PS,exp,37,↓,down,↓,0.8266231999732554,True,17,1,0,13
Y2-S2-285M22,8,877,PS,exp,44,→,right,→,0.4005678000394255,True,17,1,0,13
Y2-S2-285M22,8,878,PS,exp,45,←,left,←,0.3671410999959335,True,16,1,0,13
Y2-S2-285M22,8,879,PS,exp,29,↑,up,↑,1.0005597999552265,True,16,1,0,13
Y2-S2-285M22,8,880,PS,exp,47,←,left,←,0.4784033999312669,True,16,1,0,13
Y2-S2-285M22,8,881,PS,exp,39,→,right,→,0.48170959996059537,True,15,1,0,13
Y2-S2-285M22,8,882,PS,exp,49,↑,up,↑,0.5693903000792488,True,15,1,0,13
Y2-S2-285M22,8,883,PS,exp,38,→,right,→,0.9451619000174105,True,15,1,0,13
Y2-S2-285M22,8,884,PS,exp,32,←,left,←,0.46262400003615767,True,14,1,0,13
Y2-S2-285M22,8,885,PS,exp,32,↑,up,↑,0.6977627000305802,True,14,1,0,13
Y2-S2-285M22,8,886,PS,exp,29,→,right,→,1.0018590999534354,True,14,1,0,13
Y2-S2-285M22,8,887,PS,exp,47,↑,up,↑,0.4813490000087768,True,13,1,0,13
Y2-S2-285M22,8,888,PS,exp,32,←,left,←,0.41475379990879446,True,13,1,0,13
Y2-S2-285M22,8,889,PS,exp,29,↑,up,↑,0.40408400003798306,True,13,1,0,13
Y2-S2-285M22,8,890,PS,exp,26,→,right,→,0.612327600014396,True,12,1,0,13
Y2-S2-285M22,8,891,PS,exp,40,↑,up,↑,0.3342346999561414,True,12,1,0,13
Y2-S2-285M22,8,892,PS,exp,44,→,left,←,0.8064546999521554,False,12,-1,1,14
Y2-S2-285M22,8,893,PS,exp,25,←,right,→,0.317510399967432,False,13,-1,0,14
Y2-S2-285M22,8,894,PS,exp,50,→,right,→,0.9138708999380469,True,14,-1,0,14
Y2-S2-285M22,8,895,PS,exp,43,←,left,←,0.4338989000534639,True,14,-1,0,14
Y2-S2-285M22,8,896,PS,exp,45,↑,up,↑,0.6182511000661179,True,14,1,1,15
Y2-S2-285M22,8,897,PS,exp,25,↓,right,→,0.443485000054352,False,13,-1,1,16
