PART_ID,Block_no,Trial_no,Block_type,Trial_type,CSI,Stim_letter,Key_pressed,letter_choose,Rt,Corr,Stimulus Time,Level,Reversal,Revs_count
Y2-S2-008K23,1,1,PS,train,31,↑,up,↑,1.43231560010463,True,30,-,-,-
Y2-S2-008K23,1,2,PS,train,35,→,right,→,0.6987019999651238,True,30,-,-,-
Y2-S2-008K23,1,3,PS,train,25,↓,down,↓,0.7699521000031382,True,30,-,-,-
Y2-S2-008K23,1,4,PS,train,29,↑,up,↑,0.6926054999930784,True,30,-,-,-
Y2-S2-008K23,1,5,PS,train,38,←,left,←,0.9777406000066549,True,30,-,-,-
Y2-S2-008K23,1,6,PS,train,32,→,right,→,1.271857300074771,True,30,-,-,-
Y2-S2-008K23,1,7,PS,train,37,↑,up,↑,1.0016235000221059,True,30,-,-,-
Y2-S2-008K23,1,8,PS,train,49,↓,down,↓,0.8716748999431729,True,30,-,-,-
Y2-S2-008K23,1,9,PS,train,31,←,left,←,0.8845957999583334,True,30,-,-,-
Y2-S2-008K23,1,10,PS,train,27,→,right,→,0.5837724000448361,True,30,-,-,-
Y2-S2-008K23,2,11,AS,train,32,↑,up,↑,1.1107600000686944,True,45,-,-,-
Y2-S2-008K23,2,12,AS,train,27,↓,down,↓,0.8506356000434607,True,45,-,-,-
Y2-S2-008K23,2,13,AS,train,27,↑,up,↑,0.8506338000297546,True,45,-,-,-
Y2-S2-008K23,2,14,AS,train,27,↓,down,↓,0.9358056000201032,True,45,-,-,-
Y2-S2-008K23,2,15,AS,train,45,↑,up,↑,0.8172989001031965,True,45,-,-,-
Y2-S2-008K23,2,16,AS,train,38,←,left,←,1.1444377000443637,True,45,-,-,-
Y2-S2-008K23,2,17,AS,train,36,→,right,→,0.7333450000733137,True,45,-,-,-
Y2-S2-008K23,2,18,AS,train,38,↓,down,↓,1.0181926999939606,True,45,-,-,-
Y2-S2-008K23,2,19,AS,train,48,←,left,←,1.3897740999236703,True,45,-,-,-
Y2-S2-008K23,2,20,AS,train,27,→,right,→,0.5343150999397039,True,45,-,-,-
Y2-S2-008K23,-,21,PS,adaptive,39,↑,up,↑,0.7172075000125915,True,10,0,0,0
Y2-S2-008K23,-,22,PS,adaptive,25,↓,down,↓,0.7720650000264868,True,10,0,0,0
Y2-S2-008K23,-,23,PS,adaptive,36,←,left,←,1.0892574999015778,True,10,1,0,0
Y2-S2-008K23,-,24,PS,adaptive,27,→,right,→,0.5867097000591457,True,9,1,0,0
Y2-S2-008K23,-,25,PS,adaptive,44,↑,up,↑,0.5872359999921173,True,9,1,0,0
Y2-S2-008K23,-,26,PS,adaptive,30,←,left,←,0.8769089999841526,True,9,1,0,0
Y2-S2-008K23,-,27,PS,adaptive,46,↓,down,↓,0.7565910000121221,True,8,1,0,0
Y2-S2-008K23,-,28,PS,adaptive,44,→,right,→,0.5426817000843585,True,8,1,0,0
Y2-S2-008K23,-,29,PS,adaptive,49,↑,up,↑,0.6339021000312641,True,8,1,0,0
Y2-S2-008K23,-,30,PS,adaptive,33,↓,down,↓,0.8412118999985978,True,7,1,0,0
Y2-S2-008K23,-,31,PS,adaptive,39,→,down,↓,0.8091990000102669,False,7,-1,1,1
Y2-S2-008K23,-,32,PS,adaptive,37,←,down,↓,0.7100948999868706,False,8,-1,0,1
Y2-S2-008K23,-,33,PS,adaptive,28,→,down,↓,0.7139970998978242,False,9,-1,0,1
Y2-S2-008K23,-,34,PS,adaptive,33,↑,up,↑,0.783163100015372,True,10,-1,0,1
Y2-S2-008K23,-,35,PS,adaptive,25,↓,down,↓,0.7591777000343427,True,10,-1,0,1
Y2-S2-008K23,-,36,PS,adaptive,39,←,left,←,0.946189200039953,True,10,1,1,2
Y2-S2-008K23,-,37,PS,adaptive,48,→,right,→,0.65479239996057,True,9,1,0,2
Y2-S2-008K23,-,38,PS,adaptive,35,↓,down,↓,0.7458994999760762,True,9,1,0,2
Y2-S2-008K23,-,39,PS,adaptive,46,←,left,←,1.313323299982585,True,9,1,0,2
Y2-S2-008K23,-,40,PS,adaptive,37,↓,down,↓,0.8458994999527931,True,8,1,0,2
Y2-S2-008K23,-,41,PS,adaptive,32,←,left,←,0.770647699944675,True,8,1,0,2
Y2-S2-008K23,-,42,PS,adaptive,42,↓,up,↑,0.8203222000738606,False,8,-1,1,3
Y2-S2-008K23,-,43,PS,adaptive,26,→,up,↑,0.8854887000052258,False,9,-1,0,3
Y2-S2-008K23,-,44,PS,adaptive,42,←,left,←,0.7739026000490412,True,10,-1,0,3
Y2-S2-008K23,-,45,PS,adaptive,38,↑,right,→,0.7750626000342891,False,10,-1,0,3
Y2-S2-008K23,-,46,PS,adaptive,47,↓,down,↓,0.9721498000435531,True,11,-1,0,3
Y2-S2-008K23,-,47,PS,adaptive,44,↑,up,↑,0.5909404000267386,True,11,-1,0,3
Y2-S2-008K23,-,48,PS,adaptive,47,←,left,←,0.9384519999148324,True,11,1,1,4
Y2-S2-008K23,-,49,AS,adaptive,31,↓,down,↓,1.0334673000033945,True,20,0,0,0
Y2-S2-008K23,-,50,AS,adaptive,42,←,left,←,1.0662624000106007,True,20,0,0,0
Y2-S2-008K23,-,51,AS,adaptive,41,→,right,→,0.553087200038135,True,20,1,0,0
Y2-S2-008K23,-,52,AS,adaptive,39,↑,up,↑,1.1935900000389665,True,19,1,0,0
Y2-S2-008K23,-,53,AS,adaptive,28,↓,down,↓,0.6733443000121042,True,19,1,0,0
Y2-S2-008K23,-,54,AS,adaptive,43,←,down,↓,1.261809500050731,False,19,-1,1,1
Y2-S2-008K23,-,55,AS,adaptive,44,→,down,↓,1.3251659999368712,False,20,-1,0,1
Y2-S2-008K23,-,56,AS,adaptive,33,↑,up,↑,0.7545627999352291,True,21,-1,0,1
Y2-S2-008K23,-,57,AS,adaptive,33,←,up,↑,0.9057393000693992,False,21,-1,0,1
Y2-S2-008K23,-,58,AS,adaptive,32,→,right,→,0.5491441999329254,True,22,-1,0,1
Y2-S2-008K23,-,59,AS,adaptive,38,↑,no_key,no_letter,-1.0,False,22,-1,0,1
Y2-S2-008K23,-,60,AS,adaptive,34,→,right,→,0.5729572999989614,True,23,-1,0,1
Y2-S2-008K23,-,61,AS,adaptive,26,↑,up,↑,1.9251405000686646,True,23,-1,0,1
Y2-S2-008K23,-,62,AS,adaptive,39,↓,down,↓,1.0595421999460086,True,23,1,1,2
Y2-S2-008K23,-,63,AS,adaptive,45,→,right,→,0.6376941000344232,True,22,1,0,2
Y2-S2-008K23,-,64,AS,adaptive,35,↓,down,↓,1.0059055999154225,True,22,1,0,2
Y2-S2-008K23,-,65,AS,adaptive,35,→,right,→,0.6031978001119569,True,22,1,0,2
Y2-S2-008K23,-,66,AS,adaptive,44,↑,up,↑,0.7076610999647528,True,21,1,0,2
Y2-S2-008K23,-,67,AS,adaptive,36,↓,down,↓,0.9374507999746129,True,21,1,0,2
Y2-S2-008K23,-,68,AS,adaptive,44,→,right,→,0.850379699957557,True,21,1,0,2
Y2-S2-008K23,-,69,AS,adaptive,40,↑,up,↑,0.9263445999240503,True,20,1,0,2
Y2-S2-008K23,-,70,AS,adaptive,47,→,right,→,0.6789045000914484,True,20,1,0,2
Y2-S2-008K23,-,71,AS,adaptive,26,↑,up,↑,0.6768272999906912,True,20,1,0,2
Y2-S2-008K23,-,72,AS,adaptive,31,→,right,→,0.43383749993517995,True,19,1,0,2
Y2-S2-008K23,-,73,AS,adaptive,36,↓,up,↑,0.7153862999984995,False,19,-1,1,3
Y2-S2-008K23,-,74,AS,adaptive,40,→,up,↑,0.8580783000215888,False,20,-1,0,3
Y2-S2-008K23,-,75,AS,adaptive,46,←,left,←,1.303184699965641,True,21,-1,0,3
Y2-S2-008K23,-,76,AS,adaptive,38,↑,up,↑,0.6887569000246003,True,21,-1,0,3
Y2-S2-008K23,-,77,AS,adaptive,42,←,left,←,0.8513508000178263,True,21,1,1,4
Y2-S2-008K23,1,78,AS,intra_train,44,↓,down,↓,0.7820105999708176,True,30,-,-,-
Y2-S2-008K23,1,79,AS,intra_train,38,↑,up,↑,1.1284569000126794,True,30,-,-,-
Y2-S2-008K23,1,80,AS,intra_train,46,→,right,→,0.6338432999327779,True,30,-,-,-
Y2-S2-008K23,1,81,AS,intra_train,49,↓,down,↓,1.0507119999965653,True,30,-,-,-
Y2-S2-008K23,1,82,AS,intra_train,49,↑,up,↑,0.533845700090751,True,30,-,-,-
Y2-S2-008K23,1,83,AS,exp,32,←,down,↓,1.04408829996828,False,20,-1,0,0
Y2-S2-008K23,1,84,AS,exp,50,↓,down,↓,0.7408686999697238,True,21,-1,0,0
Y2-S2-008K23,1,85,AS,exp,30,→,right,→,0.5925391999771819,True,21,-1,0,0
Y2-S2-008K23,1,86,AS,exp,26,↓,down,↓,0.5797856999561191,True,21,1,1,1
Y2-S2-008K23,1,87,AS,exp,48,↑,up,↑,0.875632300041616,True,20,1,0,1
Y2-S2-008K23,1,88,AS,exp,28,←,left,←,0.9730763001134619,True,20,1,0,1
Y2-S2-008K23,1,89,AS,exp,38,↑,up,↑,0.7443282000022009,True,20,1,0,1
Y2-S2-008K23,1,90,AS,exp,47,↓,down,↓,1.1262324000708759,True,19,1,0,1
Y2-S2-008K23,1,91,AS,exp,27,↑,up,↑,0.7252490000100806,True,19,1,0,1
Y2-S2-008K23,1,92,AS,exp,39,→,up,↑,0.6301306000677869,False,19,-1,1,2
Y2-S2-008K23,1,93,AS,exp,49,↑,down,↓,1.0332070000004023,False,20,-1,0,2
Y2-S2-008K23,1,94,AS,exp,33,←,left,←,0.7079298000317067,True,21,-1,0,2
Y2-S2-008K23,1,95,AS,exp,47,→,right,→,0.4670515999896452,True,21,-1,0,2
Y2-S2-008K23,1,96,AS,exp,50,↑,up,↑,0.9383039000676945,True,21,1,1,3
Y2-S2-008K23,1,97,AS,exp,32,←,left,←,0.695476199965924,True,20,1,0,3
Y2-S2-008K23,1,98,AS,exp,38,↓,right,→,0.4674555000383407,False,20,-1,1,4
Y2-S2-008K23,1,99,AS,exp,26,→,right,→,0.5680389000335708,True,21,-1,0,4
Y2-S2-008K23,1,100,AS,exp,50,↑,up,↑,0.6949764000019059,True,21,-1,0,4
Y2-S2-008K23,1,101,AS,exp,37,←,right,→,1.9273667000234127,False,21,-1,0,4
Y2-S2-008K23,1,102,AS,exp,26,↓,up,↑,1.2700190999312326,False,22,-1,0,4
Y2-S2-008K23,1,103,AS,exp,33,↑,up,↑,0.6570851999567822,True,23,-1,0,4
Y2-S2-008K23,1,104,AS,exp,43,↓,right,→,1.2051580999977887,False,23,-1,0,4
Y2-S2-008K23,1,105,AS,exp,43,↑,up,↑,0.5770928000565618,True,24,-1,0,4
Y2-S2-008K23,1,106,AS,exp,44,←,left,←,0.6927189000416547,True,24,-1,0,4
Y2-S2-008K23,1,107,AS,exp,33,↑,left,←,0.7429164000786841,False,24,-1,0,4
Y2-S2-008K23,1,108,AS,exp,28,↓,up,↑,0.8840875000460073,False,25,-1,0,4
Y2-S2-008K23,1,109,AS,exp,35,↑,up,↑,0.6978598000714555,True,26,-1,0,4
Y2-S2-008K23,1,110,AS,exp,27,↓,down,↓,0.8102692000102252,True,26,-1,0,4
Y2-S2-008K23,1,111,AS,exp,26,→,right,→,0.8047019999939948,True,26,1,1,5
Y2-S2-008K23,1,112,AS,exp,39,↓,down,↓,1.1332907999167219,True,25,1,0,5
Y2-S2-008K23,1,113,AS,exp,34,→,right,→,0.8230529999127612,True,25,1,0,5
Y2-S2-008K23,1,114,AS,exp,34,↓,right,→,0.7097764000063762,False,25,-1,1,6
Y2-S2-008K23,1,115,AS,exp,46,←,up,↑,0.5171292000450194,False,26,-1,0,6
Y2-S2-008K23,1,116,AS,exp,26,→,no_key,no_letter,-1.0,False,27,-1,0,6
Y2-S2-008K23,1,117,AS,exp,40,↓,up,↑,0.5333814000478014,False,28,-1,0,6
Y2-S2-008K23,1,118,AS,exp,31,↑,up,↑,0.9141345999669284,True,29,-1,0,6
Y2-S2-008K23,1,119,AS,exp,39,↓,down,↓,0.7253938999492675,True,29,-1,0,6
Y2-S2-008K23,1,120,AS,exp,40,→,right,→,1.1173132000258192,True,29,1,1,7
Y2-S2-008K23,1,121,AS,exp,35,←,left,←,0.9623543000780046,True,28,1,0,7
Y2-S2-008K23,1,122,AS,exp,28,↑,left,←,0.1846564000006765,False,28,-1,1,8
Y2-S2-008K23,1,123,AS,exp,36,←,no_key,no_letter,-1.0,False,29,-1,0,8
Y2-S2-008K23,1,124,AS,exp,35,→,right,→,0.7840489000082016,True,30,-1,0,8
Y2-S2-008K23,1,125,AS,exp,34,↑,up,↑,0.7052200000034645,True,30,-1,0,8
Y2-S2-008K23,1,126,AS,exp,35,↓,down,↓,1.1141037000343204,True,30,1,1,9
Y2-S2-008K23,1,127,AS,exp,28,↑,up,↑,0.6586747999535874,True,29,1,0,9
Y2-S2-008K23,1,128,AS,exp,41,←,left,←,0.9623811000492424,True,29,1,0,9
Y2-S2-008K23,1,129,AS,exp,33,↓,down,↓,0.8979304999811575,True,29,1,0,9
Y2-S2-008K23,1,130,AS,exp,47,↑,up,↑,0.6955187999410555,True,28,1,0,9
Y2-S2-008K23,1,131,AS,exp,38,→,right,→,0.6545076000038534,True,28,1,0,9
Y2-S2-008K23,1,132,AS,exp,29,↑,up,↑,0.7801787999924272,True,28,1,0,9
Y2-S2-008K23,1,133,AS,exp,42,→,right,→,0.5840660999529064,True,27,1,0,9
Y2-S2-008K23,1,134,AS,exp,26,←,left,←,0.5838196000549942,True,27,1,0,9
Y2-S2-008K23,1,135,AS,exp,41,→,right,→,0.5340646000113338,True,27,1,0,9
Y2-S2-008K23,1,136,AS,exp,46,↑,up,↑,0.6114243000047281,True,26,1,0,9
Y2-S2-008K23,1,137,AS,exp,36,←,left,←,0.611333700013347,True,26,1,0,9
Y2-S2-008K23,1,138,AS,exp,48,↑,up,↑,0.6421811999753118,True,26,1,0,9
Y2-S2-008K23,1,139,AS,exp,50,←,left,←,0.6463954999344423,True,25,1,0,9
Y2-S2-008K23,1,140,AS,exp,41,↑,up,↑,1.6123271000105888,True,25,1,0,9
Y2-S2-008K23,1,141,AS,exp,29,→,right,→,0.7681784000014886,True,25,1,0,9
Y2-S2-008K23,1,142,AS,exp,36,←,right,→,0.4504417999414727,False,24,-1,1,10
Y2-S2-008K23,1,143,AS,exp,37,↑,up,↑,0.612905599991791,True,25,-1,0,10
Y2-S2-008K23,1,144,AS,exp,48,→,right,→,0.7863737000152469,True,25,-1,0,10
Y2-S2-008K23,1,145,AS,exp,33,↑,up,↑,0.6291435000021011,True,25,1,1,11
Y2-S2-008K23,1,146,AS,exp,30,↓,down,↓,1.1497364999959245,True,24,1,0,11
Y2-S2-008K23,1,147,AS,exp,48,→,right,→,0.6765290999319404,True,24,1,0,11
Y2-S2-008K23,1,148,AS,exp,36,↑,up,↑,0.779099200037308,True,24,1,0,11
Y2-S2-008K23,1,149,AS,exp,25,↓,down,↓,0.8543055999325588,True,23,1,0,11
Y2-S2-008K23,1,150,AS,exp,48,→,right,→,0.6086244999896735,True,23,1,0,11
Y2-S2-008K23,1,151,AS,exp,32,←,left,←,0.7251562000019476,True,23,1,0,11
Y2-S2-008K23,1,152,AS,exp,42,↓,down,↓,1.0975286999018863,True,22,1,0,11
Y2-S2-008K23,1,153,AS,exp,49,→,right,→,0.8135877000167966,True,22,1,0,11
Y2-S2-008K23,1,154,AS,exp,37,↓,down,↓,0.8467179000144824,True,22,1,0,11
Y2-S2-008K23,1,155,AS,exp,38,→,right,→,0.7111274000490084,True,21,1,0,11
Y2-S2-008K23,1,156,AS,exp,28,↑,up,↑,0.800604399992153,True,21,1,0,11
Y2-S2-008K23,1,157,AS,exp,35,↓,down,↓,1.0389318999368697,True,21,1,0,11
Y2-S2-008K23,1,158,AS,exp,43,→,right,→,0.8436153000220656,True,20,1,0,11
Y2-S2-008K23,1,159,AS,exp,31,↑,up,↑,0.6850406000157818,True,20,1,0,11
Y2-S2-008K23,1,160,AS,exp,47,←,left,←,1.0425183000043035,True,20,1,0,11
Y2-S2-008K23,1,161,AS,exp,28,↑,up,↑,0.5325032999971882,True,19,1,0,11
Y2-S2-008K23,1,162,AS,exp,36,→,left,←,0.8894951998954639,False,19,-1,1,12
Y2-S2-008K23,1,163,AS,exp,34,←,left,←,0.8443162000039592,True,20,-1,0,12
Y2-S2-008K23,1,164,AS,exp,40,↑,up,↑,0.6049830999691039,True,20,-1,0,12
Y2-S2-008K23,1,165,AS,exp,30,↓,up,↑,1.0133266999619082,False,20,-1,0,12
Y2-S2-008K23,1,166,AS,exp,29,←,left,←,0.6337342000333592,True,21,-1,0,12
Y2-S2-008K23,1,167,AS,exp,30,↑,up,↑,0.6608184000942856,True,21,-1,0,12
Y2-S2-008K23,1,168,AS,exp,32,←,right,→,1.3026157000567764,False,21,-1,0,12
Y2-S2-008K23,1,169,AS,exp,28,→,left,←,0.43365150003228337,False,22,-1,0,12
Y2-S2-008K23,1,170,AS,exp,30,↓,down,↓,1.1479242999339476,True,23,-1,0,12
Y2-S2-008K23,1,171,AS,exp,38,←,left,←,1.0187446000054479,True,23,-1,0,12
Y2-S2-008K23,1,172,AS,exp,34,↓,down,↓,1.1341897000093013,True,23,1,1,13
Y2-S2-008K23,1,173,AS,exp,36,→,left,←,1.4078828999772668,False,22,-1,1,14
Y2-S2-008K23,1,174,AS,exp,41,←,left,←,0.416974600055255,True,23,-1,0,14
Y2-S2-008K23,1,175,AS,exp,48,↓,down,↓,1.0090405999217182,True,23,-1,0,14
Y2-S2-008K23,1,176,AS,exp,44,→,right,→,0.8304712999379262,True,23,1,1,15
Y2-S2-008K23,1,177,AS,exp,34,←,left,←,0.7409893000731245,True,22,1,0,15
Y2-S2-008K23,1,178,AS,exp,43,↑,up,↑,0.7657867000671104,True,22,1,0,15
Y2-S2-008K23,1,179,AS,exp,48,↓,down,↓,0.9104607999324799,True,22,1,0,15
Y2-S2-008K23,1,180,AS,exp,50,↑,up,↑,0.8177504000486806,True,21,1,0,15
Y2-S2-008K23,1,181,AS,exp,32,↓,down,↓,0.9213408000068739,True,21,1,0,15
Y2-S2-008K23,1,182,AS,exp,38,←,left,←,0.7909050999442115,True,21,1,0,15
Y2-S2-008K23,1,183,AS,exp,34,↓,down,↓,1.4051086999243125,True,20,1,0,15
Y2-S2-008K23,1,184,AS,exp,42,↑,down,↓,1.1866722999839112,False,20,-1,1,16
Y2-S2-008K23,2,185,PS,intra_train,35,↓,down,↓,1.476779899909161,True,15,-,-,-
Y2-S2-008K23,2,186,PS,intra_train,26,↑,up,↑,0.632065000012517,True,15,-,-,-
Y2-S2-008K23,2,187,PS,intra_train,33,↓,down,↓,0.8975342999910936,True,15,-,-,-
Y2-S2-008K23,2,188,PS,intra_train,27,↑,up,↑,0.6055815001018345,True,15,-,-,-
Y2-S2-008K23,2,189,PS,intra_train,36,→,right,→,0.5138957999879494,True,15,-,-,-
Y2-S2-008K23,2,190,PS,exp,34,↑,up,↑,0.8593721999786794,True,10,0,0,0
Y2-S2-008K23,2,191,PS,exp,35,←,left,←,0.8535079000284895,True,10,0,0,0
Y2-S2-008K23,2,192,PS,exp,37,↑,up,↑,0.7731051000300795,True,10,1,0,0
Y2-S2-008K23,2,193,PS,exp,32,→,right,→,0.5157437999732792,True,9,1,0,0
Y2-S2-008K23,2,194,PS,exp,44,↑,left,←,1.0140415000496432,False,9,-1,1,1
Y2-S2-008K23,2,195,PS,exp,28,↓,up,↑,0.60514969995711,False,10,-1,0,1
Y2-S2-008K23,2,196,PS,exp,49,↑,down,↓,1.168120100046508,False,11,-1,0,1
Y2-S2-008K23,2,197,PS,exp,31,→,down,↓,1.0017774000298232,False,12,-1,0,1
Y2-S2-008K23,2,198,PS,exp,28,↑,down,↓,0.8492818999802694,False,13,-1,0,1
Y2-S2-008K23,2,199,PS,exp,38,→,right,→,0.8826918000122532,True,14,-1,0,1
Y2-S2-008K23,2,200,PS,exp,36,↑,right,→,0.424158800044097,False,14,-1,0,1
Y2-S2-008K23,2,201,PS,exp,49,←,right,→,0.6579535000491887,False,15,-1,0,1
Y2-S2-008K23,2,202,PS,exp,41,↑,up,↑,0.9128788999514654,True,16,-1,0,1
Y2-S2-008K23,2,203,PS,exp,27,→,right,→,0.6400524999480695,True,16,-1,0,1
Y2-S2-008K23,2,204,PS,exp,43,←,right,→,0.5198096999665722,False,16,-1,0,1
Y2-S2-008K23,2,205,PS,exp,44,→,right,→,0.7763034000527114,True,17,-1,0,1
Y2-S2-008K23,2,206,PS,exp,49,↑,up,↑,0.5101187999825925,True,17,-1,0,1
Y2-S2-008K23,2,207,PS,exp,40,↓,down,↓,0.9876083999406546,True,17,1,1,2
Y2-S2-008K23,2,208,PS,exp,48,←,left,←,1.3020632000407204,True,16,1,0,2
Y2-S2-008K23,2,209,PS,exp,50,↑,left,←,1.085730400052853,False,16,-1,1,3
Y2-S2-008K23,2,210,PS,exp,46,↓,down,↓,1.4151277000783011,True,17,-1,0,3
Y2-S2-008K23,2,211,PS,exp,44,→,right,→,0.6589281000196934,True,17,-1,0,3
Y2-S2-008K23,2,212,PS,exp,31,←,left,←,0.7881587001029402,True,17,1,1,4
Y2-S2-008K23,2,213,PS,exp,49,→,right,→,0.47953899996355176,True,16,1,0,4
Y2-S2-008K23,2,214,PS,exp,48,←,left,←,0.6003954000771046,True,16,1,0,4
Y2-S2-008K23,2,215,PS,exp,29,↑,up,↑,0.8910747999325395,True,16,1,0,4
Y2-S2-008K23,2,216,PS,exp,47,↓,down,↓,1.1605871000792831,True,15,1,0,4
Y2-S2-008K23,2,217,PS,exp,33,↑,right,→,0.7480107999872416,False,15,-1,1,5
Y2-S2-008K23,2,218,PS,exp,34,←,up,↑,0.744417899986729,False,16,-1,0,5
Y2-S2-008K23,2,219,PS,exp,40,↑,up,↑,0.6928747000638396,True,17,-1,0,5
Y2-S2-008K23,2,220,PS,exp,40,→,right,→,0.4817661000415683,True,17,-1,0,5
Y2-S2-008K23,2,221,PS,exp,25,↑,up,↑,0.5661831999896094,True,17,1,1,6
Y2-S2-008K23,2,222,PS,exp,37,↓,up,↑,0.4960424000164494,False,16,-1,1,7
Y2-S2-008K23,2,223,PS,exp,34,←,left,←,0.6426731999963522,True,17,-1,0,7
Y2-S2-008K23,2,224,PS,exp,29,→,right,→,0.7778497999534011,True,17,-1,0,7
Y2-S2-008K23,2,225,PS,exp,30,↓,up,↑,0.8529893000377342,False,17,-1,0,7
Y2-S2-008K23,2,226,PS,exp,34,→,left,←,1.0590157000115141,False,18,-1,0,7
Y2-S2-008K23,2,227,PS,exp,31,←,left,←,0.880036799935624,True,19,-1,0,7
Y2-S2-008K23,2,228,PS,exp,34,↑,up,↑,0.9111085999757051,True,19,-1,0,7
Y2-S2-008K23,2,229,PS,exp,25,→,right,→,0.8543751999968663,True,19,1,1,8
Y2-S2-008K23,2,230,PS,exp,46,↓,down,↓,0.6906369000207633,True,18,1,0,8
Y2-S2-008K23,2,231,PS,exp,47,←,left,←,0.745470599969849,True,18,1,0,8
Y2-S2-008K23,2,232,PS,exp,31,→,right,→,0.7483617999823764,True,18,1,0,8
Y2-S2-008K23,2,233,PS,exp,25,↓,left,←,0.9088048000121489,False,17,-1,1,9
Y2-S2-008K23,2,234,PS,exp,42,←,left,←,1.225380799965933,True,18,-1,0,9
Y2-S2-008K23,2,235,PS,exp,37,↓,down,↓,1.1091533000580966,True,18,-1,0,9
Y2-S2-008K23,2,236,PS,exp,49,→,right,→,0.6530604000436142,True,18,1,1,10
Y2-S2-008K23,2,237,PS,exp,41,↓,right,→,0.8947348999790847,False,17,-1,1,11
Y2-S2-008K23,2,238,PS,exp,28,→,right,→,0.7192991999909282,True,18,-1,0,11
Y2-S2-008K23,2,239,PS,exp,42,↓,down,↓,0.9802352000260726,True,18,-1,0,11
Y2-S2-008K23,2,240,PS,exp,34,←,left,←,0.8099242999451235,True,18,1,1,12
Y2-S2-008K23,2,241,PS,exp,48,→,right,→,0.5755459000356495,True,17,1,0,12
Y2-S2-008K23,2,242,PS,exp,37,←,left,←,0.38413510005921125,True,17,1,0,12
Y2-S2-008K23,2,243,PS,exp,44,→,right,→,0.5262043999973685,True,17,1,0,12
Y2-S2-008K23,2,244,PS,exp,27,←,left,←,0.7644478000001982,True,16,1,0,12
Y2-S2-008K23,2,245,PS,exp,29,→,right,→,0.5654856000328436,True,16,1,0,12
Y2-S2-008K23,2,246,PS,exp,39,←,left,←,0.6476700000930578,True,16,1,0,12
Y2-S2-008K23,2,247,PS,exp,44,↓,left,←,1.064028299995698,False,15,-1,1,13
Y2-S2-008K23,2,248,PS,exp,49,←,left,←,0.8053359999321401,True,16,-1,0,13
Y2-S2-008K23,2,249,PS,exp,26,↑,left,←,0.5439491999568418,False,16,-1,0,13
Y2-S2-008K23,2,250,PS,exp,50,←,left,←,0.8159896000288427,True,17,-1,0,13
Y2-S2-008K23,2,251,PS,exp,44,↑,up,↑,0.7062433999963105,True,17,-1,0,13
Y2-S2-008K23,2,252,PS,exp,48,→,right,→,0.5706819000188261,True,17,1,1,14
Y2-S2-008K23,2,253,PS,exp,30,↑,up,↑,0.7475507999770343,True,16,1,0,14
Y2-S2-008K23,2,254,PS,exp,42,→,right,→,0.7054103999398649,True,16,1,0,14
Y2-S2-008K23,2,255,PS,exp,30,↑,up,↑,0.5384707999182865,True,16,1,0,14
Y2-S2-008K23,2,256,PS,exp,43,→,right,→,0.8238817000528798,True,15,1,0,14
Y2-S2-008K23,2,257,PS,exp,33,←,left,←,0.7278110999614,True,15,1,0,14
Y2-S2-008K23,2,258,PS,exp,35,↓,right,→,1.090321599971503,False,15,-1,1,15
Y2-S2-008K23,2,259,PS,exp,34,←,left,←,0.8349690999602899,True,16,-1,0,15
Y2-S2-008K23,2,260,PS,exp,40,↓,down,↓,0.6496950999135152,True,16,-1,0,15
Y2-S2-008K23,2,261,PS,exp,36,←,left,←,0.6701835000421852,True,16,1,1,16
Y2-S2-008K23,3,262,PS,intra_train,27,↓,down,↓,0.6345512000843883,True,15,-,-,-
Y2-S2-008K23,3,263,PS,intra_train,37,→,right,→,0.6967187999980524,True,15,-,-,-
Y2-S2-008K23,3,264,PS,intra_train,47,↓,down,↓,0.7728966999566182,True,15,-,-,-
Y2-S2-008K23,3,265,PS,intra_train,33,↑,up,↑,0.5591817999957129,True,15,-,-,-
Y2-S2-008K23,3,266,PS,intra_train,26,→,right,→,0.8146494999527931,True,15,-,-,-
Y2-S2-008K23,3,267,PS,exp,25,↓,down,↓,1.2245650000404567,True,10,0,0,0
Y2-S2-008K23,3,268,PS,exp,33,←,right,→,0.691956999944523,False,10,-1,0,0
Y2-S2-008K23,3,269,PS,exp,36,↑,up,↑,1.0468723999802023,True,11,-1,0,0
Y2-S2-008K23,3,270,PS,exp,45,→,right,→,0.46806549991015345,True,11,-1,0,0
Y2-S2-008K23,3,271,PS,exp,46,↑,up,↑,0.763368499930948,True,11,1,1,1
Y2-S2-008K23,3,272,PS,exp,26,←,right,→,0.6542609999887645,False,10,-1,1,2
Y2-S2-008K23,3,273,PS,exp,48,→,right,→,0.5265628000488505,True,11,-1,0,2
Y2-S2-008K23,3,274,PS,exp,45,↑,up,↑,0.5121209999779239,True,11,-1,0,2
Y2-S2-008K23,3,275,PS,exp,50,↓,right,→,0.7798092999728397,False,11,-1,0,2
Y2-S2-008K23,3,276,PS,exp,34,←,right,→,0.45119290007278323,False,12,-1,0,2
Y2-S2-008K23,3,277,PS,exp,44,→,right,→,0.42042610002681613,True,13,-1,0,2
Y2-S2-008K23,3,278,PS,exp,41,↑,up,↑,0.5550428000278771,True,13,-1,0,2
Y2-S2-008K23,3,279,PS,exp,28,←,right,→,0.33413209998980165,False,13,-1,0,2
Y2-S2-008K23,3,280,PS,exp,35,↓,down,↓,0.9285133000230417,True,14,-1,0,2
Y2-S2-008K23,3,281,PS,exp,32,←,left,←,1.2007035000715405,True,14,-1,0,2
Y2-S2-008K23,3,282,PS,exp,34,↑,up,↑,0.7980330999707803,True,14,1,1,3
Y2-S2-008K23,3,283,PS,exp,50,←,left,←,0.7368907000636682,True,13,1,0,3
Y2-S2-008K23,3,284,PS,exp,41,↓,down,↓,0.8453334999503568,True,13,1,0,3
Y2-S2-008K23,3,285,PS,exp,34,↑,up,↑,0.6668047000421211,True,13,1,0,3
Y2-S2-008K23,3,286,PS,exp,47,→,up,↑,0.873379800003022,False,12,-1,1,4
Y2-S2-008K23,3,287,PS,exp,40,↑,up,↑,0.5450285000260919,True,13,-1,0,4
Y2-S2-008K23,3,288,PS,exp,29,→,right,→,0.6556853000074625,True,13,-1,0,4
Y2-S2-008K23,3,289,PS,exp,34,←,right,→,0.8109877000097185,False,13,-1,0,4
Y2-S2-008K23,3,290,PS,exp,34,→,right,→,0.5818961999611929,True,14,-1,0,4
Y2-S2-008K23,3,291,PS,exp,35,↓,down,↓,0.8081231000833213,True,14,-1,0,4
Y2-S2-008K23,3,292,PS,exp,48,→,right,→,0.600412999978289,True,14,1,1,5
Y2-S2-008K23,3,293,PS,exp,27,↑,up,↑,0.5634486000053585,True,13,1,0,5
Y2-S2-008K23,3,294,PS,exp,42,←,left,←,0.686444399994798,True,13,1,0,5
Y2-S2-008K23,3,295,PS,exp,38,↓,down,↓,0.8011249999981374,True,13,1,0,5
Y2-S2-008K23,3,296,PS,exp,28,→,right,→,0.6067685000598431,True,12,1,0,5
Y2-S2-008K23,3,297,PS,exp,32,↑,up,↑,0.7557559999404475,True,12,1,0,5
Y2-S2-008K23,3,298,PS,exp,45,←,left,←,0.7765844999812543,True,12,1,0,5
Y2-S2-008K23,3,299,PS,exp,30,→,right,→,0.5860850000753999,True,11,1,0,5
Y2-S2-008K23,3,300,PS,exp,25,↓,down,↓,0.9926747999852523,True,11,1,0,5
Y2-S2-008K23,3,301,PS,exp,27,↑,up,↑,0.4935937999980524,True,11,1,0,5
Y2-S2-008K23,3,302,PS,exp,28,→,right,→,0.4794148999499157,True,10,1,0,5
Y2-S2-008K23,3,303,PS,exp,35,↓,down,↓,0.9146790999220684,True,10,1,0,5
Y2-S2-008K23,3,304,PS,exp,47,→,right,→,0.5465208000969142,True,10,1,0,5
Y2-S2-008K23,3,305,PS,exp,32,←,right,→,0.4746921999612823,False,9,-1,1,6
Y2-S2-008K23,3,306,PS,exp,50,→,left,←,0.9733430999331176,False,10,-1,0,6
Y2-S2-008K23,3,307,PS,exp,25,←,right,→,0.73090319999028,False,11,-1,0,6
Y2-S2-008K23,3,308,PS,exp,47,↑,up,↑,0.6437168000265956,True,12,-1,0,6
Y2-S2-008K23,3,309,PS,exp,29,→,right,→,0.4702584999613464,True,12,-1,0,6
Y2-S2-008K23,3,310,PS,exp,25,←,right,→,0.7623097999021411,False,12,-1,0,6
Y2-S2-008K23,3,311,PS,exp,43,↓,down,↓,1.1003563000122085,True,13,-1,0,6
Y2-S2-008K23,3,312,PS,exp,29,→,left,←,1.0273363000014797,False,13,-1,0,6
Y2-S2-008K23,3,313,PS,exp,35,↓,down,↓,1.080402999999933,True,14,-1,0,6
Y2-S2-008K23,3,314,PS,exp,40,→,right,→,0.5391216001007706,True,14,-1,0,6
Y2-S2-008K23,3,315,PS,exp,44,↓,down,↓,1.0409142998978496,True,14,1,1,7
Y2-S2-008K23,3,316,PS,exp,35,↑,up,↑,0.7288263000082225,True,13,1,0,7
Y2-S2-008K23,3,317,PS,exp,25,↓,down,↓,0.7916750999866053,True,13,1,0,7
Y2-S2-008K23,3,318,PS,exp,34,←,left,←,0.7587045000400394,True,13,1,0,7
Y2-S2-008K23,3,319,PS,exp,34,↓,down,↓,0.6780968999955803,True,12,1,0,7
Y2-S2-008K23,3,320,PS,exp,46,←,right,→,0.6476823999546468,False,12,-1,1,8
Y2-S2-008K23,3,321,PS,exp,40,↑,left,←,1.330977899953723,False,13,-1,0,8
Y2-S2-008K23,3,322,PS,exp,50,→,right,→,0.5518488999223337,True,14,-1,0,8
Y2-S2-008K23,3,323,PS,exp,48,↑,up,↑,0.8025607999879867,True,14,-1,0,8
Y2-S2-008K23,3,324,PS,exp,35,→,right,→,0.4954659999348223,True,14,1,1,9
Y2-S2-008K23,3,325,PS,exp,34,↓,down,↓,1.2393908000085503,True,13,1,0,9
Y2-S2-008K23,3,326,PS,exp,35,↑,down,↓,1.2777290999656543,False,13,-1,1,10
Y2-S2-008K23,3,327,PS,exp,36,↓,down,↓,0.6742752999998629,True,14,-1,0,10
Y2-S2-008K23,3,328,PS,exp,49,←,right,→,0.5536659000208601,False,14,-1,0,10
Y2-S2-008K23,3,329,PS,exp,43,→,right,→,0.7119197000283748,True,15,-1,0,10
Y2-S2-008K23,3,330,PS,exp,26,↑,down,↓,0.998866599984467,False,15,-1,0,10
Y2-S2-008K23,3,331,PS,exp,46,→,right,→,0.516356399981305,True,16,-1,0,10
Y2-S2-008K23,3,332,PS,exp,25,←,left,←,0.8110478000016883,True,16,-1,0,10
Y2-S2-008K23,3,333,PS,exp,37,↓,down,↓,0.6798257000045851,True,16,1,1,11
Y2-S2-008K23,3,334,PS,exp,38,←,down,↓,1.178687100065872,False,15,-1,1,12
Y2-S2-008K23,3,335,PS,exp,29,→,right,→,0.8045319999800995,True,16,-1,0,12
Y2-S2-008K23,3,336,PS,exp,40,←,left,←,0.6044217000016943,True,16,-1,0,12
Y2-S2-008K23,3,337,PS,exp,25,↑,up,↑,0.6325555999064818,True,16,1,1,13
Y2-S2-008K23,3,338,PS,exp,30,←,right,→,0.690932200057432,False,15,-1,1,14
Y2-S2-008K23,3,339,PS,exp,49,↑,up,↑,0.6710330999922007,True,16,-1,0,14
Y2-S2-008K23,3,340,PS,exp,46,→,right,→,0.5379113000817597,True,16,-1,0,14
Y2-S2-008K23,3,341,PS,exp,49,↑,up,↑,0.6857281000120565,True,16,1,1,15
Y2-S2-008K23,3,342,PS,exp,31,←,left,←,1.0283591999905184,True,15,1,0,15
Y2-S2-008K23,3,343,PS,exp,36,↓,no_key,no_letter,-1.0,False,15,-1,1,16
Y2-S2-008K23,4,344,AS,intra_train,43,←,left,←,1.2965654999716207,True,30,-,-,-
Y2-S2-008K23,4,345,AS,intra_train,36,↓,down,↓,0.9738399999914691,True,30,-,-,-
Y2-S2-008K23,4,346,AS,intra_train,36,↑,up,↑,0.8515996000496671,True,30,-,-,-
Y2-S2-008K23,4,347,AS,intra_train,47,→,right,→,0.7322083000326529,True,30,-,-,-
Y2-S2-008K23,4,348,AS,intra_train,40,←,left,←,0.7476868000812829,True,30,-,-,-
Y2-S2-008K23,4,349,AS,exp,48,↓,down,↓,0.9049832000164315,True,20,0,0,0
Y2-S2-008K23,4,350,AS,exp,48,→,right,→,0.8020045999437571,True,20,0,0,0
Y2-S2-008K23,4,351,AS,exp,28,↓,down,↓,0.5608605000888929,True,20,1,0,0
Y2-S2-008K23,4,352,AS,exp,46,↑,up,↑,0.7406150000169873,True,19,1,0,0
Y2-S2-008K23,4,353,AS,exp,49,→,right,→,0.5410275000613183,True,19,1,0,0
Y2-S2-008K23,4,354,AS,exp,30,↓,up,↑,0.8785067000426352,False,19,-1,1,1
Y2-S2-008K23,4,355,AS,exp,29,←,right,→,0.6811240999959409,False,20,-1,0,1
Y2-S2-008K23,4,356,AS,exp,41,↓,down,↓,0.8434696000767872,True,21,-1,0,1
Y2-S2-008K23,4,357,AS,exp,46,←,left,←,0.8456494000274688,True,21,-1,0,1
Y2-S2-008K23,4,358,AS,exp,25,→,right,→,0.9161594000179321,True,21,1,1,2
Y2-S2-008K23,4,359,AS,exp,43,←,left,←,0.6336372999940068,True,20,1,0,2
Y2-S2-008K23,4,360,AS,exp,30,↓,down,↓,0.8187539000064135,True,20,1,0,2
Y2-S2-008K23,4,361,AS,exp,43,←,left,←,0.6668955999193713,True,20,1,0,2
Y2-S2-008K23,4,362,AS,exp,26,→,right,→,0.6975484000286087,True,19,1,0,2
Y2-S2-008K23,4,363,AS,exp,47,↑,up,↑,0.5113140000030398,True,19,1,0,2
Y2-S2-008K23,4,364,AS,exp,30,→,left,←,1.0326809000689536,False,19,-1,1,3
Y2-S2-008K23,4,365,AS,exp,29,↓,down,↓,0.8562085999874398,True,20,-1,0,3
Y2-S2-008K23,4,366,AS,exp,35,←,left,←,0.6812059000367299,True,20,-1,0,3
Y2-S2-008K23,4,367,AS,exp,33,↑,up,↑,0.6376049999380484,True,20,1,1,4
Y2-S2-008K23,4,368,AS,exp,39,→,right,→,0.6207115000579506,True,19,1,0,4
Y2-S2-008K23,4,369,AS,exp,39,↓,up,↑,0.6837844999972731,False,19,-1,1,5
Y2-S2-008K23,4,370,AS,exp,36,↑,up,↑,1.2579141999594867,True,20,-1,0,5
Y2-S2-008K23,4,371,AS,exp,35,←,left,←,0.7734287999337539,True,20,-1,0,5
Y2-S2-008K23,4,372,AS,exp,39,↓,down,↓,0.8202838000142947,True,20,1,1,6
Y2-S2-008K23,4,373,AS,exp,26,→,right,→,0.8373056000564247,True,19,1,0,6
Y2-S2-008K23,4,374,AS,exp,37,↑,down,↓,0.5899875001050532,False,19,-1,1,7
Y2-S2-008K23,4,375,AS,exp,34,←,left,←,1.024912300053984,True,20,-1,0,7
Y2-S2-008K23,4,376,AS,exp,26,↑,down,↓,1.3419595001032576,False,20,-1,0,7
Y2-S2-008K23,4,377,AS,exp,40,←,left,←,0.7878168999450281,True,21,-1,0,7
Y2-S2-008K23,4,378,AS,exp,47,↓,down,↓,1.433181200060062,True,21,-1,0,7
Y2-S2-008K23,4,379,AS,exp,36,←,left,←,1.1216818999964744,True,21,1,1,8
Y2-S2-008K23,4,380,AS,exp,27,↓,left,←,0.8983788000186905,False,20,-1,1,9
Y2-S2-008K23,4,381,AS,exp,26,→,left,←,0.5811169999651611,False,21,-1,0,9
Y2-S2-008K23,4,382,AS,exp,49,←,left,←,0.3343859000597149,True,22,-1,0,9
Y2-S2-008K23,4,383,AS,exp,46,↓,left,←,0.4504720000550151,False,22,-1,0,9
Y2-S2-008K23,4,384,AS,exp,46,↑,left,←,1.258775299997069,False,23,-1,0,9
Y2-S2-008K23,4,385,AS,exp,26,←,left,←,0.7872708999784663,True,24,-1,0,9
Y2-S2-008K23,4,386,AS,exp,28,↑,left,←,0.9795723999850452,False,24,-1,0,9
Y2-S2-008K23,4,387,AS,exp,39,↓,down,↓,1.1734268000582233,True,25,-1,0,9
Y2-S2-008K23,4,388,AS,exp,38,↑,up,↑,0.7801110000582412,True,25,-1,0,9
Y2-S2-008K23,4,389,AS,exp,26,↓,down,↓,0.6053309999406338,True,25,1,1,10
Y2-S2-008K23,4,390,AS,exp,30,↑,up,↑,0.6769657999975607,True,24,1,0,10
Y2-S2-008K23,4,391,AS,exp,43,←,left,←,0.8864594000624493,True,24,1,0,10
Y2-S2-008K23,4,392,AS,exp,38,→,right,→,0.6613794999429956,True,24,1,0,10
Y2-S2-008K23,4,393,AS,exp,50,↑,up,↑,1.4365905000595376,True,23,1,0,10
Y2-S2-008K23,4,394,AS,exp,30,←,left,←,1.2129080999875441,True,23,1,0,10
Y2-S2-008K23,4,395,AS,exp,35,→,right,→,1.2214348999550566,True,23,1,0,10
Y2-S2-008K23,4,396,AS,exp,26,↑,up,↑,1.1830878000473604,True,22,1,0,10
Y2-S2-008K23,4,397,AS,exp,48,←,left,←,0.9937600999837741,True,22,1,0,10
Y2-S2-008K23,4,398,AS,exp,25,→,right,→,0.6731382000725716,True,22,1,0,10
Y2-S2-008K23,4,399,AS,exp,25,↑,up,↑,0.9469171999953687,True,21,1,0,10
Y2-S2-008K23,4,400,AS,exp,28,←,right,→,0.5256659000879154,False,21,-1,1,11
Y2-S2-008K23,4,401,AS,exp,40,→,right,→,0.46730540005955845,True,22,-1,0,11
Y2-S2-008K23,4,402,AS,exp,39,↓,down,↓,0.577268399996683,True,22,-1,0,11
Y2-S2-008K23,4,403,AS,exp,26,↑,down,↓,0.7263751999707893,False,22,-1,0,11
Y2-S2-008K23,4,404,AS,exp,36,↓,down,↓,0.8375207999488339,True,23,-1,0,11
Y2-S2-008K23,4,405,AS,exp,44,→,right,→,1.0720322000561282,True,23,-1,0,11
Y2-S2-008K23,4,406,AS,exp,27,↑,down,↓,1.173995199962519,False,23,-1,0,11
Y2-S2-008K23,4,407,AS,exp,39,→,right,→,0.6284052000846714,True,24,-1,0,11
Y2-S2-008K23,4,408,AS,exp,45,↑,up,↑,0.9020768000045791,True,24,-1,0,11
Y2-S2-008K23,4,409,AS,exp,46,↓,down,↓,0.8545156000182033,True,24,1,1,12
Y2-S2-008K23,4,410,AS,exp,31,→,right,→,1.157937700045295,True,23,1,0,12
Y2-S2-008K23,4,411,AS,exp,43,↑,up,↑,0.8678314000135288,True,23,1,0,12
Y2-S2-008K23,4,412,AS,exp,25,↓,down,↓,0.7424086999380961,True,23,1,0,12
Y2-S2-008K23,4,413,AS,exp,47,→,right,→,0.5729497000575066,True,22,1,0,12
Y2-S2-008K23,4,414,AS,exp,47,↑,up,↑,0.8603549000108615,True,22,1,0,12
Y2-S2-008K23,4,415,AS,exp,27,↓,down,↓,0.763771399972029,True,22,1,0,12
Y2-S2-008K23,4,416,AS,exp,29,↑,up,↑,1.0376906999154016,True,21,1,0,12
Y2-S2-008K23,4,417,AS,exp,46,←,right,→,1.048814499983564,False,21,-1,1,13
Y2-S2-008K23,4,418,AS,exp,36,↑,up,↑,1.071437800070271,True,22,-1,0,13
Y2-S2-008K23,4,419,AS,exp,25,←,left,←,0.812837400007993,True,22,-1,0,13
Y2-S2-008K23,4,420,AS,exp,44,→,right,→,0.5807213999796659,True,22,1,1,14
Y2-S2-008K23,4,421,AS,exp,41,←,left,←,0.9056801000842825,True,21,1,0,14
Y2-S2-008K23,4,422,AS,exp,34,→,right,→,0.9711392000317574,True,21,1,0,14
Y2-S2-008K23,4,423,AS,exp,26,↑,up,↑,0.9052978999679908,True,21,1,0,14
Y2-S2-008K23,4,424,AS,exp,44,←,left,←,0.7482980999629945,True,20,1,0,14
Y2-S2-008K23,4,425,AS,exp,33,↑,up,↑,0.9208303999621421,True,20,1,0,14
Y2-S2-008K23,4,426,AS,exp,43,←,left,←,0.7249589000130072,True,20,1,0,14
Y2-S2-008K23,4,427,AS,exp,26,↑,up,↑,0.7007923000492156,True,19,1,0,14
Y2-S2-008K23,4,428,AS,exp,49,←,up,↑,1.0475783000001684,False,19,-1,1,15
Y2-S2-008K23,4,429,AS,exp,42,→,right,→,0.6631627000169829,True,20,-1,0,15
Y2-S2-008K23,4,430,AS,exp,45,↑,up,↑,0.8574467999860644,True,20,-1,0,15
Y2-S2-008K23,4,431,AS,exp,35,←,left,←,0.6998748000478372,True,20,1,1,16
Y2-S2-008K23,5,432,AS,intra_train,27,↑,up,↑,0.9188456000993028,True,30,-,-,-
Y2-S2-008K23,5,433,AS,intra_train,35,←,left,←,0.5842086999909952,True,30,-,-,-
Y2-S2-008K23,5,434,AS,intra_train,49,↑,up,↑,0.8742822998901829,True,30,-,-,-
Y2-S2-008K23,5,435,AS,intra_train,38,→,right,→,0.9896408999338746,True,30,-,-,-
Y2-S2-008K23,5,436,AS,intra_train,29,↓,down,↓,0.8339224000228569,True,30,-,-,-
Y2-S2-008K23,5,437,AS,exp,30,←,left,←,0.9358600999694318,True,20,0,0,0
Y2-S2-008K23,5,438,AS,exp,38,↓,down,↓,0.636412400053814,True,20,0,0,0
Y2-S2-008K23,5,439,AS,exp,48,↑,up,↑,0.8167683000210673,True,20,1,0,0
Y2-S2-008K23,5,440,AS,exp,33,←,left,←,0.6241820999421179,True,19,1,0,0
Y2-S2-008K23,5,441,AS,exp,40,→,right,→,0.8210274999728426,True,19,1,0,0
Y2-S2-008K23,5,442,AS,exp,41,↑,up,↑,0.8107513999566436,True,19,1,0,0
Y2-S2-008K23,5,443,AS,exp,35,↓,down,↓,0.7804231999907643,True,18,1,0,0
Y2-S2-008K23,5,444,AS,exp,39,←,left,←,0.7445117000024766,True,18,1,0,0
Y2-S2-008K23,5,445,AS,exp,32,↓,down,↓,0.6239104999694973,True,18,1,0,0
Y2-S2-008K23,5,446,AS,exp,39,←,left,←,0.6557877000886947,True,17,1,0,0
Y2-S2-008K23,5,447,AS,exp,26,↑,down,↓,0.8287136000581086,False,17,-1,1,1
Y2-S2-008K23,5,448,AS,exp,35,↓,down,↓,0.5660430999705568,True,18,-1,0,1
Y2-S2-008K23,5,449,AS,exp,29,→,right,→,1.032973900088109,True,18,-1,0,1
Y2-S2-008K23,5,450,AS,exp,43,↑,down,↓,0.48970969999209046,False,18,-1,0,1
Y2-S2-008K23,5,451,AS,exp,46,↓,down,↓,0.5618118999991566,True,19,-1,0,1
Y2-S2-008K23,5,452,AS,exp,33,→,right,→,0.7113955999957398,True,19,-1,0,1
Y2-S2-008K23,5,453,AS,exp,27,↑,down,↓,0.8392676999792457,False,19,-1,0,1
Y2-S2-008K23,5,454,AS,exp,45,←,right,→,0.9629673999734223,False,20,-1,0,1
Y2-S2-008K23,5,455,AS,exp,42,↓,down,↓,1.0256392000010237,True,21,-1,0,1
Y2-S2-008K23,5,456,AS,exp,28,→,right,→,1.007426799973473,True,21,-1,0,1
Y2-S2-008K23,5,457,AS,exp,26,←,left,←,1.1600424000062048,True,21,1,1,2
Y2-S2-008K23,5,458,AS,exp,37,→,right,→,1.013381200027652,True,20,1,0,2
Y2-S2-008K23,5,459,AS,exp,25,←,left,←,1.1235458999872208,True,20,1,0,2
Y2-S2-008K23,5,460,AS,exp,40,→,right,→,0.7532998999813572,True,20,1,0,2
Y2-S2-008K23,5,461,AS,exp,32,↓,down,↓,1.0290371000301093,True,19,1,0,2
Y2-S2-008K23,5,462,AS,exp,48,↑,up,↑,1.2659729000879452,True,19,1,0,2
Y2-S2-008K23,5,463,AS,exp,36,←,left,←,1.1251886000391096,True,19,1,0,2
Y2-S2-008K23,5,464,AS,exp,30,↑,left,←,1.1008927000220865,False,18,-1,1,3
Y2-S2-008K23,5,465,AS,exp,45,←,left,←,0.6899628000101075,True,19,-1,0,3
Y2-S2-008K23,5,466,AS,exp,32,→,right,→,0.5472337000537664,True,19,-1,0,3
Y2-S2-008K23,5,467,AS,exp,38,↑,up,↑,0.8945627000648528,True,19,1,1,4
Y2-S2-008K23,5,468,AS,exp,36,↓,down,↓,0.8051848999457434,True,18,1,0,4
Y2-S2-008K23,5,469,AS,exp,38,↑,up,↑,0.9922184000024572,True,18,1,0,4
Y2-S2-008K23,5,470,AS,exp,38,→,right,→,0.8779763000784442,True,18,1,0,4
Y2-S2-008K23,5,471,AS,exp,36,↓,down,↓,0.908861199975945,True,17,1,0,4
Y2-S2-008K23,5,472,AS,exp,36,↑,up,↑,0.8091343999840319,True,17,1,0,4
Y2-S2-008K23,5,473,AS,exp,43,→,right,→,0.7502281999913976,True,17,1,0,4
Y2-S2-008K23,5,474,AS,exp,34,←,right,→,1.5613801999716088,False,16,-1,1,5
Y2-S2-008K23,5,475,AS,exp,48,↑,right,→,1.2830178000731394,False,17,-1,0,5
Y2-S2-008K23,5,476,AS,exp,43,→,right,→,0.558780400082469,True,18,-1,0,5
Y2-S2-008K23,5,477,AS,exp,28,←,left,←,0.9068296999903396,True,18,-1,0,5
Y2-S2-008K23,5,478,AS,exp,48,→,right,→,0.7636520999949425,True,18,1,1,6
Y2-S2-008K23,5,479,AS,exp,38,←,left,←,0.7007943999487907,True,17,1,0,6
Y2-S2-008K23,5,480,AS,exp,27,↓,left,←,0.6847220999188721,False,17,-1,1,7
Y2-S2-008K23,5,481,AS,exp,36,←,left,←,0.5936372999567538,True,18,-1,0,7
Y2-S2-008K23,5,482,AS,exp,26,↓,left,←,0.5976958000101149,False,18,-1,0,7
Y2-S2-008K23,5,483,AS,exp,43,→,right,→,0.5548122000182047,True,19,-1,0,7
Y2-S2-008K23,5,484,AS,exp,26,↓,left,←,0.9010029999772087,False,19,-1,0,7
Y2-S2-008K23,5,485,AS,exp,34,↑,left,←,0.8167711000423878,False,20,-1,0,7
Y2-S2-008K23,5,486,AS,exp,50,→,right,→,0.6362641000887379,True,21,-1,0,7
Y2-S2-008K23,5,487,AS,exp,30,←,left,←,0.45072319998871535,True,21,-1,0,7
Y2-S2-008K23,5,488,AS,exp,45,↑,up,↑,0.9891744999913499,True,21,1,1,8
Y2-S2-008K23,5,489,AS,exp,31,←,left,←,0.7250236000400037,True,20,1,0,8
Y2-S2-008K23,5,490,AS,exp,37,↓,down,↓,0.8265363000100479,True,20,1,0,8
Y2-S2-008K23,5,491,AS,exp,32,↑,up,↑,0.8192226000828668,True,20,1,0,8
Y2-S2-008K23,5,492,AS,exp,45,←,left,←,0.5587296000448987,True,19,1,0,8
Y2-S2-008K23,5,493,AS,exp,48,→,right,→,0.8414290000218898,True,19,1,0,8
Y2-S2-008K23,5,494,AS,exp,40,←,right,→,0.9818787999683991,False,19,-1,1,9
Y2-S2-008K23,5,495,AS,exp,48,↑,up,↑,1.253275000024587,True,20,-1,0,9
Y2-S2-008K23,5,496,AS,exp,31,←,right,→,0.6593053999822587,False,20,-1,0,9
Y2-S2-008K23,5,497,AS,exp,25,↓,down,↓,0.7730001999298111,True,21,-1,0,9
Y2-S2-008K23,5,498,AS,exp,45,↑,down,↓,0.9296563999960199,False,21,-1,0,9
Y2-S2-008K23,5,499,AS,exp,37,→,right,→,0.6224231000524014,True,22,-1,0,9
Y2-S2-008K23,5,500,AS,exp,40,↓,down,↓,0.5530019999714568,True,22,-1,0,9
Y2-S2-008K23,5,501,AS,exp,28,→,right,→,0.7222341999877244,True,22,1,1,10
Y2-S2-008K23,5,502,AS,exp,34,↑,right,→,1.0125584000488743,False,21,-1,1,11
Y2-S2-008K23,5,503,AS,exp,39,→,right,→,0.540909199975431,True,22,-1,0,11
Y2-S2-008K23,5,504,AS,exp,33,↓,down,↓,0.45052339998073876,True,22,-1,0,11
Y2-S2-008K23,5,505,AS,exp,35,←,right,→,0.6999310998944566,False,22,-1,0,11
Y2-S2-008K23,5,506,AS,exp,48,↑,right,→,0.15104529995005578,False,23,-1,0,11
Y2-S2-008K23,5,507,AS,exp,36,←,up,↑,1.2518298999639228,False,24,-1,0,11
Y2-S2-008K23,5,508,AS,exp,38,↑,right,→,0.7440453000599518,False,25,-1,0,11
Y2-S2-008K23,5,509,AS,exp,37,←,left,←,1.221305700019002,True,26,-1,0,11
Y2-S2-008K23,5,510,AS,exp,40,↑,right,→,0.9138040000107139,False,26,-1,0,11
Y2-S2-008K23,5,511,AS,exp,48,↓,down,↓,1.5640753000043333,True,27,-1,0,11
Y2-S2-008K23,5,512,AS,exp,27,→,left,←,1.4137956999475136,False,27,-1,0,11
Y2-S2-008K23,5,513,AS,exp,31,↓,left,←,0.40110600006300956,False,28,-1,0,11
Y2-S2-008K23,5,514,AS,exp,35,→,right,→,1.2372522000223398,True,29,-1,0,11
Y2-S2-008K23,5,515,AS,exp,41,←,left,←,1.0122797000221908,True,29,-1,0,11
Y2-S2-008K23,5,516,AS,exp,33,→,left,←,1.0777420999947935,False,29,-1,0,11
Y2-S2-008K23,5,517,AS,exp,35,←,left,←,0.6172122999560088,True,30,-1,0,11
Y2-S2-008K23,5,518,AS,exp,26,↑,up,↑,1.2038960000500083,True,30,-1,0,11
Y2-S2-008K23,5,519,AS,exp,45,↓,down,↓,1.0744565000059083,True,30,1,1,12
Y2-S2-008K23,5,520,AS,exp,36,→,right,→,0.9362892999779433,True,29,1,0,12
Y2-S2-008K23,5,521,AS,exp,42,↓,down,↓,1.3794833000283688,True,29,1,0,12
Y2-S2-008K23,5,522,AS,exp,43,↑,up,↑,1.0904977000318468,True,29,1,0,12
Y2-S2-008K23,5,523,AS,exp,43,↓,down,↓,0.9650955999968573,True,28,1,0,12
Y2-S2-008K23,5,524,AS,exp,27,↑,up,↑,0.6589244999922812,True,28,1,0,12
Y2-S2-008K23,5,525,AS,exp,48,↓,down,↓,0.9310234000440687,True,28,1,0,12
Y2-S2-008K23,5,526,AS,exp,38,→,right,→,0.8666599999414757,True,27,1,0,12
Y2-S2-008K23,5,527,AS,exp,41,←,left,←,0.8072546999901533,True,27,1,0,12
Y2-S2-008K23,5,528,AS,exp,27,↑,up,↑,0.9829838000005111,True,27,1,0,12
Y2-S2-008K23,5,529,AS,exp,48,→,right,→,0.6731529999524355,True,26,1,0,12
Y2-S2-008K23,5,530,AS,exp,50,←,left,←,1.1598079999675974,True,26,1,0,12
Y2-S2-008K23,5,531,AS,exp,44,→,right,→,0.9451684000669047,True,26,1,0,12
Y2-S2-008K23,5,532,AS,exp,34,↑,up,↑,0.6531391999451444,True,25,1,0,12
Y2-S2-008K23,5,533,AS,exp,39,→,right,→,0.7380754000041634,True,25,1,0,12
Y2-S2-008K23,5,534,AS,exp,31,↑,up,↑,0.5991812999127433,True,25,1,0,12
Y2-S2-008K23,5,535,AS,exp,36,↓,down,↓,0.9282695000292733,True,24,1,0,12
Y2-S2-008K23,5,536,AS,exp,30,←,left,←,0.9525703999679536,True,24,1,0,12
Y2-S2-008K23,5,537,AS,exp,31,→,right,→,0.6047054999507964,True,24,1,0,12
Y2-S2-008K23,5,538,AS,exp,27,←,left,←,1.2307385000167415,True,23,1,0,12
Y2-S2-008K23,5,539,AS,exp,34,→,right,→,0.8781959000043571,True,23,1,0,12
Y2-S2-008K23,5,540,AS,exp,42,↑,up,↑,0.8300169999711215,True,23,1,0,12
Y2-S2-008K23,5,541,AS,exp,27,←,left,←,1.1638935999944806,True,22,1,0,12
Y2-S2-008K23,5,542,AS,exp,41,↓,down,↓,1.151382000069134,True,22,1,0,12
Y2-S2-008K23,5,543,AS,exp,42,↑,up,↑,0.6074277000734583,True,22,1,0,12
Y2-S2-008K23,5,544,AS,exp,40,↓,down,↓,0.9945938000455499,True,21,1,0,12
Y2-S2-008K23,5,545,AS,exp,39,←,left,←,1.3525226999772713,True,21,1,0,12
Y2-S2-008K23,5,546,AS,exp,34,↓,down,↓,0.9503415999934077,True,21,1,0,12
Y2-S2-008K23,5,547,AS,exp,34,↑,up,↑,0.7701447999570519,True,20,1,0,12
Y2-S2-008K23,5,548,AS,exp,26,→,right,→,0.9768532000016421,True,20,1,0,12
Y2-S2-008K23,5,549,AS,exp,43,↓,down,↓,0.8611183000029996,True,20,1,0,12
Y2-S2-008K23,5,550,AS,exp,44,←,left,←,0.8006598999490961,True,19,1,0,12
Y2-S2-008K23,5,551,AS,exp,40,↑,up,↑,0.902003200026229,True,19,1,0,12
Y2-S2-008K23,5,552,AS,exp,28,→,right,→,0.6872688999865204,True,19,1,0,12
Y2-S2-008K23,5,553,AS,exp,37,↑,down,↓,0.9508229000493884,False,18,-1,1,13
Y2-S2-008K23,5,554,AS,exp,28,↓,right,→,0.9112515000160784,False,19,-1,0,13
Y2-S2-008K23,5,555,AS,exp,32,→,left,←,0.9982855999842286,False,20,-1,0,13
Y2-S2-008K23,5,556,AS,exp,37,←,left,←,0.5300519000738859,True,21,-1,0,13
Y2-S2-008K23,5,557,AS,exp,48,↑,left,←,0.6229736999375746,False,21,-1,0,13
Y2-S2-008K23,5,558,AS,exp,48,←,left,←,0.4341015999671072,True,22,-1,0,13
Y2-S2-008K23,5,559,AS,exp,43,↓,down,↓,0.8276537000201643,True,22,-1,0,13
Y2-S2-008K23,5,560,AS,exp,42,←,left,←,1.0921106999740005,True,22,1,1,14
Y2-S2-008K23,5,561,AS,exp,47,↓,down,↓,0.9487038999795914,True,21,1,0,14
Y2-S2-008K23,5,562,AS,exp,33,←,left,←,0.8482454000040889,True,21,1,0,14
Y2-S2-008K23,5,563,AS,exp,36,↑,up,↑,0.6924069999950007,True,21,1,0,14
Y2-S2-008K23,5,564,AS,exp,41,←,left,←,0.8116177000338212,True,20,1,0,14
Y2-S2-008K23,5,565,AS,exp,36,↑,up,↑,0.5040964999934658,True,20,1,0,14
Y2-S2-008K23,5,566,AS,exp,27,←,left,←,0.7773081000195816,True,20,1,0,14
Y2-S2-008K23,5,567,AS,exp,44,→,right,→,0.6863852000096813,True,19,1,0,14
Y2-S2-008K23,5,568,AS,exp,47,↑,up,↑,0.8301196000538766,True,19,1,0,14
Y2-S2-008K23,5,569,AS,exp,38,→,up,↑,0.8661581999622285,False,19,-1,1,15
Y2-S2-008K23,5,570,AS,exp,41,↓,down,↓,0.8442690999945626,True,20,-1,0,15
Y2-S2-008K23,5,571,AS,exp,26,←,left,←,1.177343500079587,True,20,-1,0,15
Y2-S2-008K23,5,572,AS,exp,26,↓,down,↓,0.7632903000339866,True,20,1,1,16
Y2-S2-008K23,6,573,PS,intra_train,39,←,left,←,0.7390913999406621,True,15,-,-,-
Y2-S2-008K23,6,574,PS,intra_train,35,↑,up,↑,0.7963378999847919,True,15,-,-,-
Y2-S2-008K23,6,575,PS,intra_train,31,←,left,←,0.7435491998912767,True,15,-,-,-
Y2-S2-008K23,6,576,PS,intra_train,35,↑,up,↑,0.49143059994094074,True,15,-,-,-
Y2-S2-008K23,6,577,PS,intra_train,28,→,right,→,0.48144730005878955,True,15,-,-,-
Y2-S2-008K23,6,578,PS,exp,29,↑,up,↑,1.3257387999910861,True,10,0,0,0
Y2-S2-008K23,6,579,PS,exp,38,→,up,↑,1.047280800063163,False,10,-1,0,0
Y2-S2-008K23,6,580,PS,exp,37,←,left,←,0.7594982000300661,True,11,-1,0,0
Y2-S2-008K23,6,581,PS,exp,33,↓,down,↓,0.7524065000470728,True,11,-1,0,0
Y2-S2-008K23,6,582,PS,exp,37,→,right,→,0.6866638000356033,True,11,1,1,1
Y2-S2-008K23,6,583,PS,exp,34,↑,up,↑,0.8290849999757484,True,10,1,0,1
Y2-S2-008K23,6,584,PS,exp,26,→,left,←,1.3158726000692695,False,10,-1,1,2
Y2-S2-008K23,6,585,PS,exp,25,←,right,→,0.6901442999951541,False,11,-1,0,2
Y2-S2-008K23,6,586,PS,exp,25,↓,left,←,1.1714567999588326,False,12,-1,0,2
Y2-S2-008K23,6,587,PS,exp,36,→,right,→,0.7801171999890357,True,13,-1,0,2
Y2-S2-008K23,6,588,PS,exp,37,←,left,←,0.5427284999750555,True,13,-1,0,2
Y2-S2-008K23,6,589,PS,exp,47,↑,left,←,1.2699103000340983,False,13,-1,0,2
Y2-S2-008K23,6,590,PS,exp,50,←,left,←,0.5032366000814363,True,14,-1,0,2
Y2-S2-008K23,6,591,PS,exp,48,→,right,→,0.7828426999039948,True,14,-1,0,2
Y2-S2-008K23,6,592,PS,exp,40,↓,down,↓,0.8467757999897003,True,14,1,1,3
Y2-S2-008K23,6,593,PS,exp,40,→,right,→,1.4169117000419647,True,13,1,0,3
Y2-S2-008K23,6,594,PS,exp,36,↓,down,↓,0.8298228000057861,True,13,1,0,3
Y2-S2-008K23,6,595,PS,exp,25,→,left,←,1.0387527999700978,False,13,-1,1,4
Y2-S2-008K23,6,596,PS,exp,46,↑,down,↓,0.48708230000920594,False,14,-1,0,4
Y2-S2-008K23,6,597,PS,exp,32,→,right,→,0.6767706000246108,True,15,-1,0,4
Y2-S2-008K23,6,598,PS,exp,43,←,left,←,0.6722292000195011,True,15,-1,0,4
Y2-S2-008K23,6,599,PS,exp,38,→,right,→,0.4715604999801144,True,15,1,1,5
Y2-S2-008K23,6,600,PS,exp,36,↓,down,↓,0.5051279000472277,True,14,1,0,5
Y2-S2-008K23,6,601,PS,exp,36,→,right,→,0.46245180000551045,True,14,1,0,5
Y2-S2-008K23,6,602,PS,exp,35,←,left,←,0.9108749999431893,True,14,1,0,5
Y2-S2-008K23,6,603,PS,exp,29,→,down,↓,0.8333249000133947,False,13,-1,1,6
Y2-S2-008K23,6,604,PS,exp,39,←,right,→,0.4594793999567628,False,14,-1,0,6
Y2-S2-008K23,6,605,PS,exp,26,↓,down,↓,0.9258315999759361,True,15,-1,0,6
Y2-S2-008K23,6,606,PS,exp,30,←,left,←,0.8580469998996705,True,15,-1,0,6
Y2-S2-008K23,6,607,PS,exp,31,→,right,→,0.7815226999809965,True,15,1,1,7
Y2-S2-008K23,6,608,PS,exp,50,←,left,←,1.4903055999893695,True,14,1,0,7
Y2-S2-008K23,6,609,PS,exp,26,→,right,→,0.5660365000367165,True,14,1,0,7
Y2-S2-008K23,6,610,PS,exp,38,↓,down,↓,0.6985730999149382,True,14,1,0,7
Y2-S2-008K23,6,611,PS,exp,39,←,left,←,0.7298199000069872,True,13,1,0,7
Y2-S2-008K23,6,612,PS,exp,28,→,down,↓,0.9791381000541151,False,13,-1,1,8
Y2-S2-008K23,6,613,PS,exp,44,←,left,←,0.6871928999898955,True,14,-1,0,8
Y2-S2-008K23,6,614,PS,exp,30,↓,left,←,1.087806399911642,False,14,-1,0,8
Y2-S2-008K23,6,615,PS,exp,42,↑,up,↑,0.7971559000434354,True,15,-1,0,8
Y2-S2-008K23,6,616,PS,exp,42,↓,down,↓,0.6755316000198945,True,15,-1,0,8
Y2-S2-008K23,6,617,PS,exp,46,←,left,←,0.6169962000567466,True,15,1,1,9
Y2-S2-008K23,6,618,PS,exp,47,→,right,→,0.8391789000015706,True,14,1,0,9
Y2-S2-008K23,6,619,PS,exp,42,↓,down,↓,0.8553741999203339,True,14,1,0,9
Y2-S2-008K23,6,620,PS,exp,50,↑,up,↑,0.7922523999586701,True,14,1,0,9
Y2-S2-008K23,6,621,PS,exp,33,←,left,←,0.6523173999739811,True,13,1,0,9
Y2-S2-008K23,6,622,PS,exp,38,↑,down,↓,0.9237898000283167,False,13,-1,1,10
Y2-S2-008K23,6,623,PS,exp,26,→,right,→,0.5822788000805303,True,14,-1,0,10
Y2-S2-008K23,6,624,PS,exp,39,←,down,↓,1.1152285999851301,False,14,-1,0,10
Y2-S2-008K23,6,625,PS,exp,31,↓,up,↑,1.0581480000400916,False,15,-1,0,10
Y2-S2-008K23,6,626,PS,exp,44,↑,up,↑,0.5298333000391722,True,16,-1,0,10
Y2-S2-008K23,6,627,PS,exp,27,↓,down,↓,0.8579342999728397,True,16,-1,0,10
Y2-S2-008K23,6,628,PS,exp,37,↑,up,↑,0.8288010999094695,True,16,1,1,11
Y2-S2-008K23,6,629,PS,exp,45,→,up,↑,1.674509699922055,False,15,-1,1,12
Y2-S2-008K23,6,630,PS,exp,27,↑,up,↑,0.6510279999347404,True,16,-1,0,12
Y2-S2-008K23,6,631,PS,exp,34,→,right,→,0.7071368999313563,True,16,-1,0,12
Y2-S2-008K23,6,632,PS,exp,38,↑,no_key,no_letter,-1.0,False,16,-1,0,12
Y2-S2-008K23,6,633,PS,exp,41,→,right,→,0.49920870002824813,True,17,-1,0,12
Y2-S2-008K23,6,634,PS,exp,30,↑,up,↑,0.8482536000665277,True,17,-1,0,12
Y2-S2-008K23,6,635,PS,exp,37,→,no_key,no_letter,-1.0,False,17,-1,0,12
Y2-S2-008K23,6,636,PS,exp,44,←,left,←,1.110319400089793,True,18,-1,0,12
Y2-S2-008K23,6,637,PS,exp,30,↓,down,↓,1.6038781000534073,True,18,-1,0,12
Y2-S2-008K23,6,638,PS,exp,27,→,right,→,1.1818222000729293,True,18,1,1,13
Y2-S2-008K23,6,639,PS,exp,26,↑,up,↑,1.2357515000039712,True,17,1,0,13
Y2-S2-008K23,6,640,PS,exp,40,↓,down,↓,0.7706450000405312,True,17,1,0,13
Y2-S2-008K23,6,641,PS,exp,26,↑,right,→,1.103747499990277,False,17,-1,1,14
Y2-S2-008K23,6,642,PS,exp,27,→,right,→,0.5048631000099704,True,18,-1,0,14
Y2-S2-008K23,6,643,PS,exp,28,↑,down,↓,1.177832099958323,False,18,-1,0,14
Y2-S2-008K23,6,644,PS,exp,40,←,left,←,1.2674051000503823,True,19,-1,0,14
Y2-S2-008K23,6,645,PS,exp,28,↑,down,↓,1.0824403999140486,False,19,-1,0,14
Y2-S2-008K23,6,646,PS,exp,45,↓,down,↓,0.8856515999650583,True,20,-1,0,14
Y2-S2-008K23,6,647,PS,exp,45,←,left,←,0.5665639000944793,True,20,-1,0,14
Y2-S2-008K23,6,648,PS,exp,38,↑,up,↑,0.8505256000207737,True,20,1,1,15
Y2-S2-008K23,6,649,PS,exp,38,←,left,←,0.5632811000104994,True,19,1,0,15
Y2-S2-008K23,6,650,PS,exp,45,→,right,→,0.6649085000390187,True,19,1,0,15
Y2-S2-008K23,6,651,PS,exp,48,←,left,←,0.8136034000199288,True,19,1,0,15
Y2-S2-008K23,6,652,PS,exp,35,↑,up,↑,0.6219132000114769,True,18,1,0,15
Y2-S2-008K23,6,653,PS,exp,30,↓,up,↑,0.8563886000774801,False,18,-1,1,16
Y2-S2-008K23,7,654,PS,intra_train,49,→,right,→,1.3349178000353277,True,15,-,-,-
Y2-S2-008K23,7,655,PS,intra_train,44,←,left,←,0.9072618000209332,True,15,-,-,-
Y2-S2-008K23,7,656,PS,intra_train,31,↑,up,↑,0.7066382999764755,True,15,-,-,-
Y2-S2-008K23,7,657,PS,intra_train,26,→,right,→,0.5733668999746442,True,15,-,-,-
Y2-S2-008K23,7,658,PS,intra_train,47,↑,up,↑,0.8260241999523714,True,15,-,-,-
Y2-S2-008K23,7,659,PS,exp,25,→,right,→,1.0259047999279574,True,10,0,0,0
Y2-S2-008K23,7,660,PS,exp,25,↑,up,↑,1.0272638999158517,True,10,0,0,0
Y2-S2-008K23,7,661,PS,exp,49,→,up,↑,0.9383059999672696,False,10,-1,0,0
Y2-S2-008K23,7,662,PS,exp,48,←,left,←,0.79460410005413,True,11,-1,0,0
Y2-S2-008K23,7,663,PS,exp,30,→,right,→,0.6354568999959156,True,11,-1,0,0
Y2-S2-008K23,7,664,PS,exp,47,↑,up,↑,0.5507894000038505,True,11,1,1,1
Y2-S2-008K23,7,665,PS,exp,48,→,right,→,0.4883648999966681,True,10,1,0,1
Y2-S2-008K23,7,666,PS,exp,44,↑,up,↑,0.7630395999876782,True,10,1,0,1
Y2-S2-008K23,7,667,PS,exp,27,→,right,→,0.4867919000098482,True,10,1,0,1
Y2-S2-008K23,7,668,PS,exp,40,↑,up,↑,0.6301354999886826,True,9,1,0,1
Y2-S2-008K23,7,669,PS,exp,35,↓,right,→,0.731653599999845,False,9,-1,1,2
Y2-S2-008K23,7,670,PS,exp,50,↑,up,↑,0.5964652999537066,True,10,-1,0,2
Y2-S2-008K23,7,671,PS,exp,26,←,left,←,1.0927323999349028,True,10,-1,0,2
Y2-S2-008K23,7,672,PS,exp,43,↑,up,↑,1.1463240999728441,True,10,1,1,3
Y2-S2-008K23,7,673,PS,exp,45,↓,up,↑,0.8251338000409305,False,9,-1,1,4
Y2-S2-008K23,7,674,PS,exp,43,→,no_key,no_letter,-1.0,False,10,-1,0,4
Y2-S2-008K23,7,675,PS,exp,30,↓,up,↑,0.4454048000043258,False,11,-1,0,4
Y2-S2-008K23,7,676,PS,exp,42,←,left,←,1.143841200042516,True,12,-1,0,4
Y2-S2-008K23,7,677,PS,exp,46,↑,up,↑,0.4533906999276951,True,12,-1,0,4
Y2-S2-008K23,7,678,PS,exp,25,←,left,←,1.0978530999273062,True,12,1,1,5
Y2-S2-008K23,7,679,PS,exp,46,→,right,→,0.7100070000160486,True,11,1,0,5
Y2-S2-008K23,7,680,PS,exp,48,↑,up,↑,0.8202045999933034,True,11,1,0,5
Y2-S2-008K23,7,681,PS,exp,50,←,up,↑,0.8004864000249654,False,11,-1,1,6
Y2-S2-008K23,7,682,PS,exp,30,↓,up,↑,0.7439236999489367,False,12,-1,0,6
Y2-S2-008K23,7,683,PS,exp,31,→,up,↑,0.6677781998878345,False,13,-1,0,6
Y2-S2-008K23,7,684,PS,exp,31,←,left,←,0.9749944000504911,True,14,-1,0,6
Y2-S2-008K23,7,685,PS,exp,45,→,left,←,0.8155202000634745,False,14,-1,0,6
Y2-S2-008K23,7,686,PS,exp,27,↑,up,↑,0.9305479999165982,True,15,-1,0,6
Y2-S2-008K23,7,687,PS,exp,25,→,right,→,0.9544384999899194,True,15,-1,0,6
Y2-S2-008K23,7,688,PS,exp,38,←,left,←,0.6744972000597045,True,15,1,1,7
Y2-S2-008K23,7,689,PS,exp,46,↑,left,←,1.0444155998993665,False,14,-1,1,8
Y2-S2-008K23,7,690,PS,exp,38,→,left,←,0.7628909000195563,False,15,-1,0,8
Y2-S2-008K23,7,691,PS,exp,29,↓,down,↓,0.8496159000787884,True,16,-1,0,8
Y2-S2-008K23,7,692,PS,exp,31,↑,down,↓,1.5691402000375092,False,16,-1,0,8
Y2-S2-008K23,7,693,PS,exp,42,→,left,←,0.9221907000755891,False,17,-1,0,8
Y2-S2-008K23,7,694,PS,exp,25,↓,down,↓,0.9849218000890687,True,18,-1,0,8
Y2-S2-008K23,7,695,PS,exp,29,←,left,←,0.861251899972558,True,18,-1,0,8
Y2-S2-008K23,7,696,PS,exp,41,→,right,→,0.8614718000171706,True,18,1,1,9
Y2-S2-008K23,7,697,PS,exp,41,↓,down,↓,0.7802294000284746,True,17,1,0,9
Y2-S2-008K23,7,698,PS,exp,49,→,right,→,0.4978704999666661,True,17,1,0,9
Y2-S2-008K23,7,699,PS,exp,33,↓,down,↓,0.9776480000000447,True,17,1,0,9
Y2-S2-008K23,7,700,PS,exp,42,←,right,→,0.5515478999586776,False,16,-1,1,10
Y2-S2-008K23,7,701,PS,exp,27,↑,left,←,1.20325420005247,False,17,-1,0,10
Y2-S2-008K23,7,702,PS,exp,34,→,right,→,0.8604967000428587,True,18,-1,0,10
Y2-S2-008K23,7,703,PS,exp,43,↓,down,↓,1.0092916999710724,True,18,-1,0,10
Y2-S2-008K23,7,704,PS,exp,45,↑,up,↑,0.8621524999616668,True,18,1,1,11
Y2-S2-008K23,7,705,PS,exp,37,↓,down,↓,1.4215929000638425,True,17,1,0,11
Y2-S2-008K23,7,706,PS,exp,45,←,left,←,0.8652512000408024,True,17,1,0,11
Y2-S2-008K23,7,707,PS,exp,48,↓,down,↓,1.417704900028184,True,17,1,0,11
Y2-S2-008K23,7,708,PS,exp,48,←,left,←,0.7424195000203326,True,16,1,0,11
Y2-S2-008K23,7,709,PS,exp,40,↓,right,→,0.6044458999531344,False,16,-1,1,12
Y2-S2-008K23,7,710,PS,exp,38,→,right,→,1.0472241000970826,True,17,-1,0,12
Y2-S2-008K23,7,711,PS,exp,44,↓,down,↓,1.0471608000807464,True,17,-1,0,12
Y2-S2-008K23,7,712,PS,exp,40,←,left,←,0.7050597000634298,True,17,1,1,13
Y2-S2-008K23,7,713,PS,exp,32,↓,down,↓,1.3467414999613538,True,16,1,0,13
Y2-S2-008K23,7,714,PS,exp,34,→,down,↓,0.018311599968001246,False,16,-1,1,14
Y2-S2-008K23,7,715,PS,exp,47,←,right,→,0.6862189999083057,False,17,-1,0,14
Y2-S2-008K23,7,716,PS,exp,34,→,left,←,0.7873689000261948,False,18,-1,0,14
Y2-S2-008K23,7,717,PS,exp,45,←,left,←,0.8132076000329107,True,19,-1,0,14
Y2-S2-008K23,7,718,PS,exp,29,↓,right,→,0.9828846999444067,False,19,-1,0,14
Y2-S2-008K23,7,719,PS,exp,43,↑,up,↑,0.6606656999792904,True,20,-1,0,14
Y2-S2-008K23,7,720,PS,exp,34,↓,up,↑,1.2524422000860795,False,20,-1,0,14
Y2-S2-008K23,7,721,PS,exp,49,←,up,↑,1.1008636000333354,False,21,-1,0,14
Y2-S2-008K23,7,722,PS,exp,48,↓,up,↑,1.1099402999971062,False,22,-1,0,14
Y2-S2-008K23,7,723,PS,exp,38,→,left,←,1.2537754999939352,False,23,-1,0,14
Y2-S2-008K23,7,724,PS,exp,46,←,left,←,0.6033686000155285,True,24,-1,0,14
Y2-S2-008K23,7,725,PS,exp,50,→,right,→,0.4013356000650674,True,24,-1,0,14
Y2-S2-008K23,7,726,PS,exp,37,←,right,→,0.3838162999600172,False,24,-1,0,14
Y2-S2-008K23,7,727,PS,exp,32,→,right,→,0.38406089995987713,True,25,-1,0,14
Y2-S2-008K23,7,728,PS,exp,40,↓,down,↓,0.9408001000992954,True,25,-1,0,14
Y2-S2-008K23,7,729,PS,exp,26,→,down,↓,0.10119629988912493,False,25,-1,0,14
Y2-S2-008K23,7,730,PS,exp,43,←,down,↓,0.46720760001335293,False,26,-1,0,14
Y2-S2-008K23,7,731,PS,exp,28,↑,up,↑,0.9320344000589103,True,27,-1,0,14
Y2-S2-008K23,7,732,PS,exp,42,→,right,→,0.6342881999444216,True,27,-1,0,14
Y2-S2-008K23,7,733,PS,exp,42,↑,up,↑,0.9285468000452965,True,27,1,1,15
Y2-S2-008K23,7,734,PS,exp,38,→,right,→,0.9272142000263557,True,26,1,0,15
Y2-S2-008K23,7,735,PS,exp,33,↓,down,↓,0.8642589000519365,True,26,1,0,15
Y2-S2-008K23,7,736,PS,exp,37,↑,up,↑,0.8224411000264809,True,26,1,0,15
Y2-S2-008K23,7,737,PS,exp,50,←,left,←,1.290433100075461,True,25,1,0,15
Y2-S2-008K23,7,738,PS,exp,31,→,right,→,0.6190199000993744,True,25,1,0,15
Y2-S2-008K23,7,739,PS,exp,40,↓,down,↓,0.8998766000149772,True,25,1,0,15
Y2-S2-008K23,7,740,PS,exp,36,←,left,←,0.6824210999766365,True,24,1,0,15
Y2-S2-008K23,7,741,PS,exp,38,↑,up,↑,0.7385606999741867,True,24,1,0,15
Y2-S2-008K23,7,742,PS,exp,44,↓,down,↓,0.6447681999998167,True,24,1,0,15
Y2-S2-008K23,7,743,PS,exp,46,↑,up,↑,0.6314895999385044,True,23,1,0,15
Y2-S2-008K23,7,744,PS,exp,26,↓,down,↓,0.6727040000259876,True,23,1,0,15
Y2-S2-008K23,7,745,PS,exp,35,→,right,→,1.2773623999673873,True,23,1,0,15
Y2-S2-008K23,7,746,PS,exp,48,↓,down,↓,1.0097341999644414,True,22,1,0,15
Y2-S2-008K23,7,747,PS,exp,50,←,left,←,0.774595299968496,True,22,1,0,15
Y2-S2-008K23,7,748,PS,exp,43,→,right,→,0.693450800026767,True,22,1,0,15
Y2-S2-008K23,7,749,PS,exp,26,↓,down,↓,0.6643282999284565,True,21,1,0,15
Y2-S2-008K23,7,750,PS,exp,30,←,left,←,0.8048621999332681,True,21,1,0,15
Y2-S2-008K23,7,751,PS,exp,42,↑,up,↑,0.8403008000459522,True,21,1,0,15
Y2-S2-008K23,7,752,PS,exp,30,←,right,→,1.0736593999899924,False,20,-1,1,16
Y2-S2-008K23,8,753,AS,intra_train,27,→,right,→,0.9308738999534398,True,30,-,-,-
Y2-S2-008K23,8,754,AS,intra_train,36,↑,left,←,0.677599799935706,False,30,-,-,-
Y2-S2-008K23,8,755,AS,intra_train,37,→,right,→,0.6848490999545902,True,30,-,-,-
Y2-S2-008K23,8,756,AS,intra_train,31,↑,up,↑,1.0219281999161467,True,30,-,-,-
Y2-S2-008K23,8,757,AS,intra_train,25,←,left,←,0.9544657999649644,True,30,-,-,-
Y2-S2-008K23,8,758,AS,exp,26,→,right,→,1.3016952000325546,True,20,0,0,0
Y2-S2-008K23,8,759,AS,exp,33,←,left,←,0.7795046999817714,True,20,0,0,0
Y2-S2-008K23,8,760,AS,exp,29,↓,down,↓,0.9591899000806734,True,20,1,0,0
Y2-S2-008K23,8,761,AS,exp,29,→,up,↑,1.0563194999704137,False,19,-1,1,1
Y2-S2-008K23,8,762,AS,exp,48,↓,down,↓,1.1555411000736058,True,20,-1,0,1
Y2-S2-008K23,8,763,AS,exp,44,↑,up,↑,1.1674913000315428,True,20,-1,0,1
Y2-S2-008K23,8,764,AS,exp,47,↓,down,↓,0.9718074999982491,True,20,1,1,2
Y2-S2-008K23,8,765,AS,exp,28,→,right,→,1.2898236999753863,True,19,1,0,2
Y2-S2-008K23,8,766,AS,exp,47,↓,down,↓,1.006665900000371,True,19,1,0,2
Y2-S2-008K23,8,767,AS,exp,49,→,right,→,1.146123499958776,True,19,1,0,2
Y2-S2-008K23,8,768,AS,exp,37,↑,left,←,1.2888383999234065,False,18,-1,1,3
Y2-S2-008K23,8,769,AS,exp,31,↓,down,↓,1.0696633999468759,True,19,-1,0,3
Y2-S2-008K23,8,770,AS,exp,46,↑,down,↓,1.1741260000271723,False,19,-1,0,3
Y2-S2-008K23,8,771,AS,exp,34,↓,down,↓,1.0565329999662936,True,20,-1,0,3
Y2-S2-008K23,8,772,AS,exp,32,←,left,←,1.1459550999570638,True,20,-1,0,3
Y2-S2-008K23,8,773,AS,exp,46,↓,down,↓,1.3096214999677613,True,20,1,1,4
Y2-S2-008K23,8,774,AS,exp,34,↑,up,↑,1.2203829999780282,True,19,1,0,4
Y2-S2-008K23,8,775,AS,exp,45,→,left,←,1.308373700012453,False,19,-1,1,5
Y2-S2-008K23,8,776,AS,exp,35,←,left,←,1.0697070000460371,True,20,-1,0,5
Y2-S2-008K23,8,777,AS,exp,47,↑,down,↓,1.414068599930033,False,20,-1,0,5
Y2-S2-008K23,8,778,AS,exp,46,→,left,←,1.1789635999593884,False,21,-1,0,5
Y2-S2-008K23,8,779,AS,exp,26,←,left,←,1.0784359999233857,True,22,-1,0,5
Y2-S2-008K23,8,780,AS,exp,30,↑,down,↓,1.5309030000353232,False,22,-1,0,5
Y2-S2-008K23,8,781,AS,exp,25,←,right,→,1.4303175000241026,False,23,-1,0,5
Y2-S2-008K23,8,782,AS,exp,42,→,right,→,1.114791200030595,True,24,-1,0,5
Y2-S2-008K23,8,783,AS,exp,46,↓,down,↓,0.7968287999974564,True,24,-1,0,5
Y2-S2-008K23,8,784,AS,exp,31,↑,up,↑,1.4492038000607863,True,24,1,1,6
Y2-S2-008K23,8,785,AS,exp,38,←,left,←,1.0761772999539971,True,23,1,0,6
Y2-S2-008K23,8,786,AS,exp,29,↑,no_key,no_letter,-1.0,False,23,-1,1,7
Y2-S2-008K23,8,787,AS,exp,30,→,right,→,1.09166119992733,True,24,-1,0,7
Y2-S2-008K23,8,788,AS,exp,30,↑,up,↑,1.2824048000620678,True,24,-1,0,7
Y2-S2-008K23,8,789,AS,exp,40,↓,up,↑,0.08456230000592768,False,24,-1,0,7
Y2-S2-008K23,8,790,AS,exp,45,←,left,←,1.1076335000107065,True,25,-1,0,7
Y2-S2-008K23,8,791,AS,exp,25,↑,up,↑,0.7893122000386938,True,25,-1,0,7
Y2-S2-008K23,8,792,AS,exp,40,←,left,←,0.8753307000733912,True,25,1,1,8
Y2-S2-008K23,8,793,AS,exp,34,→,right,→,1.4345033999998122,True,24,1,0,8
Y2-S2-008K23,8,794,AS,exp,25,↑,up,↑,0.635831099934876,True,24,1,0,8
Y2-S2-008K23,8,795,AS,exp,31,↓,down,↓,0.8638311999384314,True,24,1,0,8
Y2-S2-008K23,8,796,AS,exp,33,→,right,→,0.697084299987182,True,23,1,0,8
Y2-S2-008K23,8,797,AS,exp,37,↓,down,↓,1.0698486000765115,True,23,1,0,8
Y2-S2-008K23,8,798,AS,exp,47,↑,down,↓,0.7598814000375569,False,23,-1,1,9
Y2-S2-008K23,8,799,AS,exp,39,↓,down,↓,0.7125466000288725,True,24,-1,0,9
Y2-S2-008K23,8,800,AS,exp,33,↑,up,↑,1.013117800001055,True,24,-1,0,9
Y2-S2-008K23,8,801,AS,exp,38,←,left,←,0.8300780000863597,True,24,1,1,10
Y2-S2-008K23,8,802,AS,exp,45,↑,up,↑,0.5172010000096634,True,23,1,0,10
Y2-S2-008K23,8,803,AS,exp,44,←,left,←,0.9458739999681711,True,23,1,0,10
Y2-S2-008K23,8,804,AS,exp,33,↑,down,↓,1.3120836999733,False,23,-1,1,11
Y2-S2-008K23,8,805,AS,exp,40,→,right,→,0.9436928000068292,True,24,-1,0,11
Y2-S2-008K23,8,806,AS,exp,29,←,left,←,0.7671740000369027,True,24,-1,0,11
Y2-S2-008K23,8,807,AS,exp,28,↑,up,↑,0.7392951000947505,True,24,1,1,12
Y2-S2-008K23,8,808,AS,exp,44,←,left,←,0.5570879000006244,True,23,1,0,12
Y2-S2-008K23,8,809,AS,exp,33,→,right,→,1.2671158999437466,True,23,1,0,12
Y2-S2-008K23,8,810,AS,exp,41,↓,down,↓,0.9990501999855042,True,23,1,0,12
Y2-S2-008K23,8,811,AS,exp,26,←,left,←,1.1814095000736415,True,22,1,0,12
Y2-S2-008K23,8,812,AS,exp,43,↓,down,↓,1.0769027000060305,True,22,1,0,12
Y2-S2-008K23,8,813,AS,exp,35,←,down,↓,1.5056630000472069,False,22,-1,1,13
Y2-S2-008K23,8,814,AS,exp,42,↑,up,↑,0.871214900049381,True,23,-1,0,13
Y2-S2-008K23,8,815,AS,exp,44,→,right,→,0.7835100999800488,True,23,-1,0,13
Y2-S2-008K23,8,816,AS,exp,50,↓,down,↓,0.9598180999746546,True,23,1,1,14
Y2-S2-008K23,8,817,AS,exp,35,↑,up,↑,1.0509668999584392,True,22,1,0,14
Y2-S2-008K23,8,818,AS,exp,41,↓,down,↓,1.086772899958305,True,22,1,0,14
Y2-S2-008K23,8,819,AS,exp,43,→,right,→,0.9626733999466524,True,22,1,0,14
Y2-S2-008K23,8,820,AS,exp,31,←,left,←,0.6272242999402806,True,21,1,0,14
Y2-S2-008K23,8,821,AS,exp,30,↓,down,↓,0.9097953999880701,True,21,1,0,14
Y2-S2-008K23,8,822,AS,exp,46,↑,up,↑,1.058677799999714,True,21,1,0,14
Y2-S2-008K23,8,823,AS,exp,32,→,right,→,0.8602811000309885,True,20,1,0,14
Y2-S2-008K23,8,824,AS,exp,42,←,left,←,0.8578805000288412,True,20,1,0,14
Y2-S2-008K23,8,825,AS,exp,49,↑,down,↓,0.8752498999238014,False,20,-1,1,15
Y2-S2-008K23,8,826,AS,exp,43,←,left,←,0.7246041999896988,True,21,-1,0,15
Y2-S2-008K23,8,827,AS,exp,48,↓,down,↓,0.7875254999380559,True,21,-1,0,15
Y2-S2-008K23,8,828,AS,exp,38,→,right,→,0.900160999968648,True,21,1,1,16
