PART_ID,Block_no,Trial_no,Block_type,Trial_type,CSI,Stim_letter,Key_pressed,letter_choose,Rt,Corr,Stimulus Time,Level,Reversal,Revs_count
Y2-S2-226M20,1,1,PS,train,30,↑,left,←,0.5513374004513025,False,30,-,-,-
Y2-S2-226M20,1,2,PS,train,33,←,left,←,0.550828599371016,True,30,-,-,-
Y2-S2-226M20,1,3,PS,train,50,→,right,→,0.46776959951967,True,30,-,-,-
Y2-S2-226M20,1,4,PS,train,39,↑,up,↑,0.6007793005555868,True,30,-,-,-
Y2-S2-226M20,1,5,PS,train,39,→,right,→,0.38432920072227716,True,30,-,-,-
Y2-S2-226M20,1,6,PS,train,48,↓,down,↓,1.5000778008252382,True,30,-,-,-
Y2-S2-226M20,1,7,PS,train,42,←,left,←,0.500832200050354,True,30,-,-,-
Y2-S2-226M20,1,8,PS,train,47,↑,up,↑,0.6172447996214032,True,30,-,-,-
Y2-S2-226M20,1,9,PS,train,38,↓,down,↓,0.6177430003881454,True,30,-,-,-
Y2-S2-226M20,1,10,PS,train,26,←,left,←,0.5172173008322716,True,30,-,-,-
Y2-S2-226M20,2,11,AS,train,30,↓,down,↓,1.4742124006152153,True,45,-,-,-
Y2-S2-226M20,2,12,AS,train,33,↑,up,↑,0.6169275995343924,True,45,-,-,-
Y2-S2-226M20,2,13,AS,train,32,↓,down,↓,0.7009139005094767,True,45,-,-,-
Y2-S2-226M20,2,14,AS,train,28,←,left,←,0.5845339000225067,True,45,-,-,-
Y2-S2-226M20,2,15,AS,train,26,→,right,→,0.5176740996539593,True,45,-,-,-
Y2-S2-226M20,2,16,AS,train,31,←,left,←,0.6513491999357939,True,45,-,-,-
Y2-S2-226M20,2,17,AS,train,41,→,right,→,0.36782990023493767,True,45,-,-,-
Y2-S2-226M20,2,18,AS,train,41,↑,up,↑,0.551069600507617,True,45,-,-,-
Y2-S2-226M20,2,19,AS,train,40,→,right,→,0.4843261996284127,True,45,-,-,-
Y2-S2-226M20,2,20,AS,train,28,↑,up,↑,0.5508646005764604,True,45,-,-,-
Y2-S2-226M20,-,21,PS,adaptive,35,→,right,→,0.46615090034902096,True,10,0,0,0
Y2-S2-226M20,-,22,PS,adaptive,28,↓,right,→,1.1012495001778007,False,10,-1,0,0
Y2-S2-226M20,-,23,PS,adaptive,26,→,right,→,0.7118312995880842,True,11,-1,0,0
Y2-S2-226M20,-,24,PS,adaptive,28,↓,right,→,0.778757200576365,False,11,-1,0,0
Y2-S2-226M20,-,25,PS,adaptive,25,→,right,→,0.7402451001107693,True,12,-1,0,0
Y2-S2-226M20,-,26,PS,adaptive,45,↑,up,↑,0.510792899876833,True,12,-1,0,0
Y2-S2-226M20,-,27,PS,adaptive,42,←,left,←,0.5558725008741021,True,12,1,1,1
Y2-S2-226M20,-,28,PS,adaptive,35,↑,down,↓,0.954126900061965,False,11,-1,1,2
Y2-S2-226M20,-,29,PS,adaptive,33,←,left,←,0.5308414995670319,True,12,-1,0,2
Y2-S2-226M20,-,30,PS,adaptive,41,↓,down,↓,0.5874900007620454,True,12,-1,0,2
Y2-S2-226M20,-,31,PS,adaptive,31,↑,left,←,0.9182780999690294,False,12,-1,0,2
Y2-S2-226M20,-,32,PS,adaptive,35,↓,down,↓,0.6130342995747924,True,13,-1,0,2
Y2-S2-226M20,-,33,PS,adaptive,41,→,right,→,0.5244744997471571,True,13,-1,0,2
Y2-S2-226M20,-,34,PS,adaptive,49,↑,up,↑,0.6647983007133007,True,13,1,1,3
Y2-S2-226M20,-,35,PS,adaptive,41,↓,down,↓,0.5500352000817657,True,12,1,0,3
Y2-S2-226M20,-,36,PS,adaptive,36,←,left,←,0.7800841005519032,True,12,1,0,3
Y2-S2-226M20,-,37,PS,adaptive,37,→,right,→,0.5859787994995713,True,12,1,0,3
Y2-S2-226M20,-,38,PS,adaptive,40,↓,down,↓,0.5210159001871943,True,11,1,0,3
Y2-S2-226M20,-,39,PS,adaptive,30,↑,up,↑,0.5141230002045631,True,11,1,0,3
Y2-S2-226M20,-,40,PS,adaptive,37,→,right,→,0.5503011997789145,True,11,1,0,3
Y2-S2-226M20,-,41,PS,adaptive,40,↑,up,↑,0.531980499625206,True,10,1,0,3
Y2-S2-226M20,-,42,PS,adaptive,28,↓,right,→,0.6481875004246831,False,10,-1,1,4
Y2-S2-226M20,-,43,AS,adaptive,38,←,left,←,0.6536229997873306,True,20,0,0,0
Y2-S2-226M20,-,44,AS,adaptive,47,↑,up,↑,0.6936363000422716,True,20,0,0,0
Y2-S2-226M20,-,45,AS,adaptive,36,←,left,←,0.5904876999557018,True,20,1,0,0
Y2-S2-226M20,-,46,AS,adaptive,33,↓,right,→,0.5303989006206393,False,19,-1,1,1
Y2-S2-226M20,-,47,AS,adaptive,34,←,left,←,0.36730040051043034,True,20,-1,0,1
Y2-S2-226M20,-,48,AS,adaptive,29,↑,up,↑,0.6547386003658175,True,20,-1,0,1
Y2-S2-226M20,-,49,AS,adaptive,31,↓,down,↓,0.5803610002622008,True,20,1,1,2
Y2-S2-226M20,-,50,AS,adaptive,46,↑,down,↓,1.1055046003311872,False,19,-1,1,3
Y2-S2-226M20,-,51,AS,adaptive,30,←,left,←,0.35057790018618107,True,20,-1,0,3
Y2-S2-226M20,-,52,AS,adaptive,32,→,right,→,0.5875279996544123,True,20,-1,0,3
Y2-S2-226M20,-,53,AS,adaptive,36,↑,up,↑,1.5056626005098224,True,20,1,1,4
Y2-S2-226M20,1,54,PS,intra_train,27,↓,down,↓,0.5329391993582249,True,16,-,-,-
Y2-S2-226M20,1,55,PS,intra_train,28,←,left,←,0.5475610001012683,True,16,-,-,-
Y2-S2-226M20,1,56,PS,intra_train,31,→,left,←,0.8537777001038194,False,16,-,-,-
Y2-S2-226M20,1,57,PS,intra_train,31,←,left,←,1.1696541998535395,True,16,-,-,-
Y2-S2-226M20,1,58,PS,intra_train,47,→,right,→,0.6440322995185852,True,16,-,-,-
Y2-S2-226M20,1,59,PS,exp,47,←,left,←,0.41591050010174513,True,11,0,0,0
Y2-S2-226M20,1,60,PS,exp,43,↑,up,↑,0.6702074995264411,True,11,0,0,0
Y2-S2-226M20,1,61,PS,exp,33,↓,down,↓,1.0623240005224943,True,11,1,0,0
Y2-S2-226M20,1,62,PS,exp,40,←,right,→,0.8837422002106905,False,10,-1,1,1
Y2-S2-226M20,1,63,PS,exp,30,→,right,→,0.5449914997443557,True,11,-1,0,1
Y2-S2-226M20,1,64,PS,exp,36,↓,down,↓,0.6297413995489478,True,11,-1,0,1
Y2-S2-226M20,1,65,PS,exp,46,←,left,←,0.5029611000791192,True,11,1,1,2
Y2-S2-226M20,1,66,PS,exp,41,→,right,→,0.535087900236249,True,10,1,0,2
Y2-S2-226M20,1,67,PS,exp,25,↓,down,↓,0.5696398997679353,True,10,1,0,2
Y2-S2-226M20,1,68,PS,exp,46,→,right,→,0.5230986000970006,True,10,1,0,2
Y2-S2-226M20,1,69,PS,exp,34,←,left,←,0.47985379956662655,True,9,1,0,2
Y2-S2-226M20,1,70,PS,exp,35,↓,down,↓,0.8914741007611156,True,9,1,0,2
Y2-S2-226M20,1,71,PS,exp,44,←,left,←,0.41873589996248484,True,9,1,0,2
Y2-S2-226M20,1,72,PS,exp,31,↓,down,↓,0.5281346999108791,True,8,1,0,2
Y2-S2-226M20,1,73,PS,exp,42,←,right,→,0.747928699478507,False,8,-1,1,3
Y2-S2-226M20,1,74,PS,exp,40,↑,up,↑,0.6690915999934077,True,9,-1,0,3
Y2-S2-226M20,1,75,PS,exp,46,←,left,←,0.7268690997734666,True,9,-1,0,3
Y2-S2-226M20,1,76,PS,exp,32,↓,down,↓,0.9663340002298355,True,9,1,1,4
Y2-S2-226M20,1,77,PS,exp,37,↑,up,↑,0.5056806998327374,True,8,1,0,4
Y2-S2-226M20,1,78,PS,exp,46,←,left,←,0.7032713992521167,True,8,1,0,4
Y2-S2-226M20,1,79,PS,exp,26,↑,up,↑,0.46343010012060404,True,8,1,0,4
Y2-S2-226M20,1,80,PS,exp,38,←,left,←,0.4128988003358245,True,7,1,0,4
Y2-S2-226M20,1,81,PS,exp,47,↓,down,↓,0.4995857998728752,True,7,1,0,4
Y2-S2-226M20,1,82,PS,exp,30,→,right,→,0.48627559933811426,True,7,1,0,4
Y2-S2-226M20,1,83,PS,exp,44,↑,up,↑,0.549978100694716,True,6,1,0,4
Y2-S2-226M20,1,84,PS,exp,39,↓,right,→,0.6849592002108693,False,6,-1,1,5
Y2-S2-226M20,1,85,PS,exp,31,→,right,→,0.6315858997404575,True,7,-1,0,5
Y2-S2-226M20,1,86,PS,exp,25,↑,right,→,0.8070981996133924,False,7,-1,0,5
Y2-S2-226M20,1,87,PS,exp,49,↓,down,↓,0.5589137002825737,True,8,-1,0,5
Y2-S2-226M20,1,88,PS,exp,41,→,right,→,0.6220420999452472,True,8,-1,0,5
Y2-S2-226M20,1,89,PS,exp,35,←,right,→,0.6814614003524184,False,8,-1,0,5
Y2-S2-226M20,1,90,PS,exp,37,→,right,→,0.38913460075855255,True,9,-1,0,5
Y2-S2-226M20,1,91,PS,exp,36,←,left,←,0.6125908996909857,True,9,-1,0,5
Y2-S2-226M20,1,92,PS,exp,44,↓,right,→,0.6935400003567338,False,9,-1,0,5
Y2-S2-226M20,1,93,PS,exp,43,←,left,←,0.4287871001288295,True,10,-1,0,5
Y2-S2-226M20,1,94,PS,exp,26,↑,up,↑,0.5788162006065249,True,10,-1,0,5
Y2-S2-226M20,1,95,PS,exp,47,↓,down,↓,0.8913223994895816,True,10,1,1,6
Y2-S2-226M20,1,96,PS,exp,36,←,left,←,0.33522449992597103,True,9,1,0,6
Y2-S2-226M20,1,97,PS,exp,38,→,right,→,0.5796419000253081,True,9,1,0,6
Y2-S2-226M20,1,98,PS,exp,34,↓,right,→,0.4588662004098296,False,9,-1,1,7
Y2-S2-226M20,1,99,PS,exp,31,→,down,↓,0.7084964998066425,False,10,-1,0,7
Y2-S2-226M20,1,100,PS,exp,44,↑,up,↑,0.7199644995853305,True,11,-1,0,7
Y2-S2-226M20,1,101,PS,exp,31,→,right,→,0.5882605006918311,True,11,-1,0,7
Y2-S2-226M20,1,102,PS,exp,27,↓,left,←,0.8326506000012159,False,11,-1,0,7
Y2-S2-226M20,1,103,PS,exp,37,→,left,←,0.3170767994597554,False,12,-1,0,7
Y2-S2-226M20,1,104,PS,exp,32,←,left,←,0.7714953999966383,True,13,-1,0,7
Y2-S2-226M20,1,105,PS,exp,44,↓,left,←,0.42896049935370684,False,13,-1,0,7
Y2-S2-226M20,1,106,PS,exp,34,←,left,←,0.7525680996477604,True,14,-1,0,7
Y2-S2-226M20,1,107,PS,exp,32,→,right,→,0.41518940031528473,True,14,-1,0,7
Y2-S2-226M20,1,108,PS,exp,40,↑,up,↑,0.7482450995594263,True,14,1,1,8
Y2-S2-226M20,1,109,PS,exp,28,↓,left,←,0.868006699718535,False,13,-1,1,9
Y2-S2-226M20,1,110,PS,exp,33,←,left,←,0.5238835997879505,True,14,-1,0,9
Y2-S2-226M20,1,111,PS,exp,27,↓,down,↓,0.6145129995420575,True,14,-1,0,9
Y2-S2-226M20,1,112,PS,exp,25,↑,up,↑,0.47096619941294193,True,14,1,1,10
Y2-S2-226M20,1,113,PS,exp,38,←,left,←,0.4893578998744488,True,13,1,0,10
Y2-S2-226M20,1,114,PS,exp,39,→,right,→,0.6019958993420005,True,13,1,0,10
Y2-S2-226M20,1,115,PS,exp,34,←,left,←,0.8094312995672226,True,13,1,0,10
Y2-S2-226M20,1,116,PS,exp,42,↑,up,↑,0.4853527005761862,True,12,1,0,10
Y2-S2-226M20,1,117,PS,exp,49,↓,down,↓,0.5692091006785631,True,12,1,0,10
Y2-S2-226M20,1,118,PS,exp,30,←,left,←,0.4487848998978734,True,12,1,0,10
Y2-S2-226M20,1,119,PS,exp,35,↓,down,↓,0.4287101998925209,True,11,1,0,10
Y2-S2-226M20,1,120,PS,exp,41,↑,up,↑,0.7587837995961308,True,11,1,0,10
Y2-S2-226M20,1,121,PS,exp,42,←,left,←,0.5305752996355295,True,11,1,0,10
Y2-S2-226M20,1,122,PS,exp,38,→,up,↑,0.7556740995496511,False,10,-1,1,11
Y2-S2-226M20,1,123,PS,exp,29,←,left,←,0.5892731994390488,True,11,-1,0,11
Y2-S2-226M20,1,124,PS,exp,43,↓,right,→,0.8313103001564741,False,11,-1,0,11
Y2-S2-226M20,1,125,PS,exp,47,←,left,←,0.48060599993914366,True,12,-1,0,11
Y2-S2-226M20,1,126,PS,exp,32,↓,down,↓,0.6270749000832438,True,12,-1,0,11
Y2-S2-226M20,1,127,PS,exp,42,→,right,→,0.4413222996518016,True,12,1,1,12
Y2-S2-226M20,1,128,PS,exp,29,↓,down,↓,0.5873619997873902,True,11,1,0,12
Y2-S2-226M20,1,129,PS,exp,29,↑,up,↑,0.4643783001229167,True,11,1,0,12
Y2-S2-226M20,1,130,PS,exp,25,↓,left,←,0.4395981002599001,False,11,-1,1,13
Y2-S2-226M20,1,131,PS,exp,41,↑,up,↑,0.49067069962620735,True,12,-1,0,13
Y2-S2-226M20,1,132,PS,exp,47,↓,down,↓,0.5191247006878257,True,12,-1,0,13
Y2-S2-226M20,1,133,PS,exp,34,→,right,→,0.4973018001765013,True,12,1,1,14
Y2-S2-226M20,1,134,PS,exp,31,←,left,←,0.4465581001713872,True,11,1,0,14
Y2-S2-226M20,1,135,PS,exp,35,↓,down,↓,0.5552237005904317,True,11,1,0,14
Y2-S2-226M20,1,136,PS,exp,47,↑,up,↑,0.4638284994289279,True,11,1,0,14
Y2-S2-226M20,1,137,PS,exp,28,←,left,←,0.3867154000326991,True,10,1,0,14
Y2-S2-226M20,1,138,PS,exp,44,↓,down,↓,0.5102273002266884,True,10,1,0,14
Y2-S2-226M20,1,139,PS,exp,47,←,left,←,1.1779745006933808,True,10,1,0,14
Y2-S2-226M20,1,140,PS,exp,37,↓,down,↓,0.46045210026204586,True,9,1,0,14
Y2-S2-226M20,1,141,PS,exp,47,↑,left,←,0.34107229951769114,False,9,-1,1,15
Y2-S2-226M20,1,142,PS,exp,31,→,down,↓,0.7370084002614021,False,10,-1,0,15
Y2-S2-226M20,1,143,PS,exp,47,←,left,←,0.8206489002332091,True,11,-1,0,15
Y2-S2-226M20,1,144,PS,exp,38,↓,down,↓,0.4822316002100706,True,11,-1,0,15
Y2-S2-226M20,1,145,PS,exp,48,→,right,→,0.5331464996561408,True,11,1,1,16
Y2-S2-226M20,2,146,AS,intra_train,30,↓,left,←,0.6739791994914412,False,28,-,-,-
Y2-S2-226M20,2,147,AS,intra_train,25,↑,up,↑,0.6404194002971053,True,28,-,-,-
Y2-S2-226M20,2,148,AS,intra_train,29,→,right,→,0.533949600532651,True,28,-,-,-
Y2-S2-226M20,2,149,AS,intra_train,38,↑,up,↑,0.7010530000552535,True,28,-,-,-
Y2-S2-226M20,2,150,AS,intra_train,35,←,left,←,0.7748236991465092,True,28,-,-,-
Y2-S2-226M20,2,151,AS,exp,46,↑,up,↑,0.9524312000721693,True,19,0,0,0
Y2-S2-226M20,2,152,AS,exp,29,↓,down,↓,0.7434465996921062,True,19,0,0,0
Y2-S2-226M20,2,153,AS,exp,38,→,left,←,0.5583969000726938,False,19,-1,0,0
Y2-S2-226M20,2,154,AS,exp,45,←,left,←,0.400603000074625,True,20,-1,0,0
Y2-S2-226M20,2,155,AS,exp,47,↓,down,↓,0.733457500115037,True,20,-1,0,0
Y2-S2-226M20,2,156,AS,exp,25,←,left,←,0.4005928002297878,True,20,1,1,1
Y2-S2-226M20,2,157,AS,exp,38,↓,up,↑,0.6986963003873825,False,19,-1,1,2
Y2-S2-226M20,2,158,AS,exp,40,→,right,→,0.45057510025799274,True,20,-1,0,2
Y2-S2-226M20,2,159,AS,exp,40,←,left,←,0.38404189981520176,True,20,-1,0,2
Y2-S2-226M20,2,160,AS,exp,32,↑,up,↑,0.45081999991089106,True,20,1,1,3
Y2-S2-226M20,2,161,AS,exp,36,↓,down,↓,0.7084470996633172,True,19,1,0,3
Y2-S2-226M20,2,162,AS,exp,27,↑,up,↑,0.813663000240922,True,19,1,0,3
Y2-S2-226M20,2,163,AS,exp,38,→,left,←,1.5969645995646715,False,19,-1,1,4
Y2-S2-226M20,2,164,AS,exp,38,←,left,←,0.5023037996143103,True,20,-1,0,4
Y2-S2-226M20,2,165,AS,exp,48,→,right,→,0.6297359000891447,True,20,-1,0,4
Y2-S2-226M20,2,166,AS,exp,47,←,left,←,0.40050380025058985,True,20,1,1,5
Y2-S2-226M20,2,167,AS,exp,37,→,right,→,0.6843953002244234,True,19,1,0,5
Y2-S2-226M20,2,168,AS,exp,32,↑,up,↑,0.5716775003820658,True,19,1,0,5
Y2-S2-226M20,2,169,AS,exp,49,←,right,→,0.9499738998711109,False,19,-1,1,6
Y2-S2-226M20,2,170,AS,exp,33,↑,up,↑,0.40086130052804947,True,20,-1,0,6
Y2-S2-226M20,2,171,AS,exp,36,↓,down,↓,0.6941264001652598,True,20,-1,0,6
Y2-S2-226M20,2,172,AS,exp,40,→,right,→,0.6162094995379448,True,20,1,1,7
Y2-S2-226M20,2,173,AS,exp,39,←,left,←,1.3185270996764302,True,19,1,0,7
Y2-S2-226M20,2,174,AS,exp,45,↓,down,↓,0.9993813997134566,True,19,1,0,7
Y2-S2-226M20,2,175,AS,exp,40,→,right,→,0.7759226001799107,True,19,1,0,7
Y2-S2-226M20,2,176,AS,exp,48,←,left,←,0.9331235000863671,True,18,1,0,7
Y2-S2-226M20,2,177,AS,exp,33,→,right,→,0.6338042998686433,True,18,1,0,7
Y2-S2-226M20,2,178,AS,exp,37,↓,down,↓,0.5321741001680493,True,18,1,0,7
Y2-S2-226M20,2,179,AS,exp,49,↑,down,↓,0.7089424999430776,False,17,-1,1,8
Y2-S2-226M20,2,180,AS,exp,47,↓,down,↓,1.204735199920833,True,18,-1,0,8
Y2-S2-226M20,2,181,AS,exp,47,→,right,→,0.597337800078094,True,18,-1,0,8
Y2-S2-226M20,2,182,AS,exp,38,↑,up,↑,0.5096353003755212,True,18,1,1,9
Y2-S2-226M20,2,183,AS,exp,39,↓,up,↑,0.9765427000820637,False,17,-1,1,10
Y2-S2-226M20,2,184,AS,exp,43,←,left,←,0.6434837998822331,True,18,-1,0,10
Y2-S2-226M20,2,185,AS,exp,45,→,right,→,0.6950000002980232,True,18,-1,0,10
Y2-S2-226M20,2,186,AS,exp,38,←,left,←,0.754050999879837,True,18,1,1,11
Y2-S2-226M20,2,187,AS,exp,45,↑,up,↑,0.6739104995504022,True,17,1,0,11
Y2-S2-226M20,2,188,AS,exp,36,→,left,←,0.2511192001402378,False,17,-1,1,12
Y2-S2-226M20,2,189,AS,exp,28,↓,down,↓,1.1226389007642865,True,18,-1,0,12
Y2-S2-226M20,2,190,AS,exp,26,↑,down,↓,1.8851064005866647,False,18,-1,0,12
Y2-S2-226M20,2,191,AS,exp,43,→,right,→,0.6242262003943324,True,19,-1,0,12
Y2-S2-226M20,2,192,AS,exp,42,↑,up,↑,0.6994703002274036,True,19,-1,0,12
Y2-S2-226M20,2,193,AS,exp,34,←,left,←,0.4938445994630456,True,19,1,1,13
Y2-S2-226M20,2,194,AS,exp,45,↓,down,↓,0.6992209004238248,True,18,1,0,13
Y2-S2-226M20,2,195,AS,exp,25,←,left,←,0.48545239958912134,True,18,1,0,13
Y2-S2-226M20,2,196,AS,exp,34,↑,up,↑,0.5642670001834631,True,18,1,0,13
Y2-S2-226M20,2,197,AS,exp,50,↓,down,↓,0.5491557000204921,True,17,1,0,13
Y2-S2-226M20,2,198,AS,exp,26,↑,down,↓,0.8888561995700002,False,17,-1,1,14
Y2-S2-226M20,2,199,AS,exp,32,→,right,→,0.6530332006514072,True,18,-1,0,14
Y2-S2-226M20,2,200,AS,exp,33,↑,up,↑,0.7910481002181768,True,18,-1,0,14
Y2-S2-226M20,2,201,AS,exp,42,↓,down,↓,0.5102414004504681,True,18,1,1,15
Y2-S2-226M20,2,202,AS,exp,30,→,right,→,0.4723553005605936,True,17,1,0,15
Y2-S2-226M20,2,203,AS,exp,33,↓,down,↓,0.64533849991858,True,17,1,0,15
Y2-S2-226M20,2,204,AS,exp,34,←,left,←,0.36752040032297373,True,17,1,0,15
Y2-S2-226M20,2,205,AS,exp,41,→,right,→,0.688574000261724,True,16,1,0,15
Y2-S2-226M20,2,206,AS,exp,39,↓,down,↓,0.7196267005056143,True,16,1,0,15
Y2-S2-226M20,2,207,AS,exp,37,→,right,→,0.481853399425745,True,16,1,0,15
Y2-S2-226M20,2,208,AS,exp,27,↑,down,↓,1.0119193000718951,False,15,-1,1,16
Y2-S2-226M20,3,209,AS,intra_train,31,←,left,←,0.600030199624598,True,28,-,-,-
Y2-S2-226M20,3,210,AS,intra_train,39,↑,up,↑,0.7026885002851486,True,28,-,-,-
Y2-S2-226M20,3,211,AS,intra_train,40,←,left,←,0.5007680999115109,True,28,-,-,-
Y2-S2-226M20,3,212,AS,intra_train,37,↑,up,↑,0.6350198993459344,True,28,-,-,-
Y2-S2-226M20,3,213,AS,intra_train,27,→,right,→,0.40114109963178635,True,28,-,-,-
Y2-S2-226M20,3,214,AS,exp,31,←,left,←,0.5379644008353353,True,19,0,0,0
Y2-S2-226M20,3,215,AS,exp,49,↓,down,↓,0.871925599873066,True,19,0,0,0
Y2-S2-226M20,3,216,AS,exp,28,↑,up,↑,0.3841411005705595,True,19,1,0,0
Y2-S2-226M20,3,217,AS,exp,48,←,up,↑,1.1659045005217195,False,18,-1,1,1
Y2-S2-226M20,3,218,AS,exp,46,↓,down,↓,0.8019916005432606,True,19,-1,0,1
Y2-S2-226M20,3,219,AS,exp,40,←,left,←,0.3675279999151826,True,19,-1,0,1
Y2-S2-226M20,3,220,AS,exp,32,→,right,→,0.6644785003736615,True,19,1,1,2
Y2-S2-226M20,3,221,AS,exp,43,↑,up,↑,0.4959250995889306,True,18,1,0,2
Y2-S2-226M20,3,222,AS,exp,40,↓,down,↓,0.7249512998387218,True,18,1,0,2
Y2-S2-226M20,3,223,AS,exp,34,↑,up,↑,0.48153069987893105,True,18,1,0,2
Y2-S2-226M20,3,224,AS,exp,32,→,right,→,0.9329352006316185,True,17,1,0,2
Y2-S2-226M20,3,225,AS,exp,47,↓,down,↓,0.9788838000968099,True,17,1,0,2
Y2-S2-226M20,3,226,AS,exp,31,←,left,←,0.4883508002385497,True,17,1,0,2
Y2-S2-226M20,3,227,AS,exp,42,↓,down,↓,0.6459435997530818,True,16,1,0,2
Y2-S2-226M20,3,228,AS,exp,25,←,left,←,0.9638128997758031,True,16,1,0,2
Y2-S2-226M20,3,229,AS,exp,33,↑,up,↑,0.6593471998348832,True,16,1,0,2
Y2-S2-226M20,3,230,AS,exp,45,→,right,→,1.0113856000825763,True,15,1,0,2
Y2-S2-226M20,3,231,AS,exp,36,←,left,←,0.38398030027747154,True,15,1,0,2
Y2-S2-226M20,3,232,AS,exp,36,↓,down,↓,0.5068688997998834,True,15,1,0,2
Y2-S2-226M20,3,233,AS,exp,30,→,right,→,1.1408301005139947,True,14,1,0,2
Y2-S2-226M20,3,234,AS,exp,47,←,left,←,0.9800803996622562,True,14,1,0,2
Y2-S2-226M20,3,235,AS,exp,50,↑,up,↑,0.4224551999941468,True,14,1,0,2
Y2-S2-226M20,3,236,AS,exp,45,↓,down,↓,1.0505111999809742,True,13,1,0,2
Y2-S2-226M20,3,237,AS,exp,32,→,right,→,0.4385876003652811,True,13,1,0,2
Y2-S2-226M20,3,238,AS,exp,40,↑,up,↑,0.42620979994535446,True,13,1,0,2
Y2-S2-226M20,3,239,AS,exp,42,↓,down,↓,0.4906576992943883,True,12,1,0,2
Y2-S2-226M20,3,240,AS,exp,38,←,left,←,0.3860419997945428,True,12,1,0,2
Y2-S2-226M20,3,241,AS,exp,44,→,right,→,0.6974504999816418,True,12,1,0,2
Y2-S2-226M20,3,242,AS,exp,25,←,left,←,0.4276955993846059,True,11,1,0,2
Y2-S2-226M20,3,243,AS,exp,43,↓,down,↓,0.4808416999876499,True,11,1,0,2
Y2-S2-226M20,3,244,AS,exp,25,←,left,←,0.5779184000566602,True,11,1,0,2
Y2-S2-226M20,3,245,AS,exp,35,↑,up,↑,0.43236880004405975,True,10,1,0,2
Y2-S2-226M20,3,246,AS,exp,25,↓,down,↓,0.6127858003601432,True,10,1,0,2
Y2-S2-226M20,3,247,AS,exp,31,→,right,→,0.44390660058707,True,10,1,0,2
Y2-S2-226M20,3,248,AS,exp,50,↑,up,↑,0.8121895007789135,True,9,1,0,2
Y2-S2-226M20,3,249,AS,exp,36,→,right,→,0.7386285001412034,True,9,1,0,2
Y2-S2-226M20,3,250,AS,exp,26,←,left,←,0.6251876000314951,True,9,1,0,2
Y2-S2-226M20,3,251,AS,exp,38,↑,right,→,0.6624731002375484,False,8,-1,1,3
Y2-S2-226M20,3,252,AS,exp,34,→,left,←,0.5731878001242876,False,9,-1,0,3
Y2-S2-226M20,3,253,AS,exp,37,↑,right,→,0.7487357007339597,False,10,-1,0,3
Y2-S2-226M20,3,254,AS,exp,44,↓,down,↓,0.5635194992646575,True,11,-1,0,3
Y2-S2-226M20,3,255,AS,exp,33,→,right,→,0.40378749929368496,True,11,-1,0,3
Y2-S2-226M20,3,256,AS,exp,38,↑,up,↑,0.5737463003024459,True,11,1,1,4
Y2-S2-226M20,3,257,AS,exp,49,→,left,←,0.5934778992086649,False,10,-1,1,5
Y2-S2-226M20,3,258,AS,exp,43,↓,down,↓,0.9580832999199629,True,11,-1,0,5
Y2-S2-226M20,3,259,AS,exp,37,↑,down,↓,0.7873138999566436,False,11,-1,0,5
Y2-S2-226M20,3,260,AS,exp,27,→,right,→,0.5173669001087546,True,12,-1,0,5
Y2-S2-226M20,3,261,AS,exp,45,←,left,←,0.5894277999177575,True,12,-1,0,5
Y2-S2-226M20,3,262,AS,exp,27,→,right,→,0.5551409004256129,True,12,1,1,6
Y2-S2-226M20,3,263,AS,exp,31,↓,right,→,0.5713223991915584,False,11,-1,1,7
Y2-S2-226M20,3,264,AS,exp,30,→,left,←,0.6511711999773979,False,12,-1,0,7
Y2-S2-226M20,3,265,AS,exp,47,↓,left,←,0.6525778993964195,False,13,-1,0,7
Y2-S2-226M20,3,266,AS,exp,27,←,left,←,0.7763612000271678,True,14,-1,0,7
Y2-S2-226M20,3,267,AS,exp,49,↑,left,←,0.6286442996934056,False,14,-1,0,7
Y2-S2-226M20,3,268,AS,exp,44,←,left,←,1.371789699420333,True,15,-1,0,7
Y2-S2-226M20,3,269,AS,exp,49,→,left,←,0.6783880004659295,False,15,-1,0,7
Y2-S2-226M20,3,270,AS,exp,37,←,left,←,0.5955302994698286,True,16,-1,0,7
Y2-S2-226M20,3,271,AS,exp,47,↓,left,←,0.6139177000150084,False,16,-1,0,7
Y2-S2-226M20,3,272,AS,exp,25,↑,left,←,0.38401649985462427,False,17,-1,0,7
Y2-S2-226M20,3,273,AS,exp,32,→,right,→,0.5812096996232867,True,18,-1,0,7
Y2-S2-226M20,3,274,AS,exp,47,↓,down,↓,0.7533323997631669,True,18,-1,0,7
Y2-S2-226M20,3,275,AS,exp,32,→,right,→,0.5622138995677233,True,18,1,1,8
Y2-S2-226M20,3,276,AS,exp,34,←,left,←,0.38383170031011105,True,17,1,0,8
Y2-S2-226M20,3,277,AS,exp,34,↑,up,↑,0.5354501996189356,True,17,1,0,8
Y2-S2-226M20,3,278,AS,exp,41,→,right,→,0.38461059983819723,True,17,1,0,8
Y2-S2-226M20,3,279,AS,exp,30,←,left,←,0.7118817996233702,True,16,1,0,8
Y2-S2-226M20,3,280,AS,exp,42,↑,up,↑,0.3840178996324539,True,16,1,0,8
Y2-S2-226M20,3,281,AS,exp,26,→,left,←,0.7747884998098016,False,16,-1,1,9
Y2-S2-226M20,3,282,AS,exp,49,↑,left,←,1.1654109004884958,False,17,-1,0,9
Y2-S2-226M20,3,283,AS,exp,40,←,left,←,0.40092850010842085,True,18,-1,0,9
Y2-S2-226M20,3,284,AS,exp,49,↑,up,↑,0.4006829001009464,True,18,-1,0,9
Y2-S2-226M20,3,285,AS,exp,42,↓,up,↑,0.4338006991893053,False,18,-1,0,9
Y2-S2-226M20,3,286,AS,exp,27,→,right,→,0.3843614999204874,True,19,-1,0,9
Y2-S2-226M20,3,287,AS,exp,27,←,left,←,0.5995892006903887,True,19,-1,0,9
Y2-S2-226M20,3,288,AS,exp,43,↓,down,↓,0.3841193001717329,True,19,1,1,10
Y2-S2-226M20,3,289,AS,exp,41,→,right,→,0.4178879000246525,True,18,1,0,10
Y2-S2-226M20,3,290,AS,exp,25,↓,down,↓,0.868456999771297,True,18,1,0,10
Y2-S2-226M20,3,291,AS,exp,36,↑,up,↑,0.7802069000899792,True,18,1,0,10
Y2-S2-226M20,3,292,AS,exp,48,←,left,←,0.5441707000136375,True,17,1,0,10
Y2-S2-226M20,3,293,AS,exp,30,→,left,←,0.5883725006133318,False,17,-1,1,11
Y2-S2-226M20,3,294,AS,exp,26,↓,left,←,0.9912470001727343,False,18,-1,0,11
Y2-S2-226M20,3,295,AS,exp,39,→,right,→,0.5487671000882983,True,19,-1,0,11
Y2-S2-226M20,3,296,AS,exp,49,↓,down,↓,0.7891381001099944,True,19,-1,0,11
Y2-S2-226M20,3,297,AS,exp,45,←,left,←,0.9665179001167417,True,19,1,1,12
Y2-S2-226M20,3,298,AS,exp,46,↓,up,↑,0.7320983996614814,False,18,-1,1,13
Y2-S2-226M20,3,299,AS,exp,35,→,right,→,0.4507585000246763,True,19,-1,0,13
Y2-S2-226M20,3,300,AS,exp,47,↓,down,↓,0.732829000800848,True,19,-1,0,13
Y2-S2-226M20,3,301,AS,exp,40,→,right,→,0.693291399627924,True,19,1,1,14
Y2-S2-226M20,3,302,AS,exp,43,↑,up,↑,0.7138507999479771,True,18,1,0,14
Y2-S2-226M20,3,303,AS,exp,34,→,right,→,0.43409560061991215,True,18,1,0,14
Y2-S2-226M20,3,304,AS,exp,48,←,left,←,0.4006393002346158,True,18,1,0,14
Y2-S2-226M20,3,305,AS,exp,48,↑,up,↑,0.4174362001940608,True,17,1,0,14
Y2-S2-226M20,3,306,AS,exp,27,↓,left,←,0.36729659978300333,False,17,-1,1,15
Y2-S2-226M20,3,307,AS,exp,28,←,left,←,0.6223239004611969,True,18,-1,0,15
Y2-S2-226M20,3,308,AS,exp,27,→,right,→,0.5787686007097363,True,18,-1,0,15
Y2-S2-226M20,3,309,AS,exp,38,←,left,←,0.9870818993076682,True,18,1,1,16
Y2-S2-226M20,4,310,PS,intra_train,50,↑,up,↑,0.726877499371767,True,16,-,-,-
Y2-S2-226M20,4,311,PS,intra_train,25,→,right,→,1.6852514008060098,True,16,-,-,-
Y2-S2-226M20,4,312,PS,intra_train,31,↑,right,→,0.7852819999679923,False,16,-,-,-
Y2-S2-226M20,4,313,PS,intra_train,26,→,right,→,1.5260549001395702,True,16,-,-,-
Y2-S2-226M20,4,314,PS,intra_train,34,←,left,←,0.6509908000007272,True,16,-,-,-
Y2-S2-226M20,4,315,PS,exp,37,→,right,→,0.470176100730896,True,11,0,0,0
Y2-S2-226M20,4,316,PS,exp,38,↑,right,→,0.8286921000108123,False,11,-1,0,0
Y2-S2-226M20,4,317,PS,exp,34,↓,down,↓,0.5514406999573112,True,12,-1,0,0
Y2-S2-226M20,4,318,PS,exp,43,↑,up,↑,0.42220669984817505,True,12,-1,0,0
Y2-S2-226M20,4,319,PS,exp,34,←,left,←,0.5843077003955841,True,12,1,1,1
Y2-S2-226M20,4,320,PS,exp,39,↓,right,→,0.5916069000959396,False,11,-1,1,2
Y2-S2-226M20,4,321,PS,exp,32,↑,up,↑,0.4401831002905965,True,12,-1,0,2
Y2-S2-226M20,4,322,PS,exp,35,↓,down,↓,0.5900085996836424,True,12,-1,0,2
Y2-S2-226M20,4,323,PS,exp,43,↑,right,→,0.6519007999449968,False,12,-1,0,2
Y2-S2-226M20,4,324,PS,exp,25,←,left,←,0.4176624994724989,True,13,-1,0,2
Y2-S2-226M20,4,325,PS,exp,40,↑,up,↑,0.4194563999772072,True,13,-1,0,2
Y2-S2-226M20,4,326,PS,exp,42,→,right,→,0.44157860055565834,True,13,1,1,3
Y2-S2-226M20,4,327,PS,exp,30,↑,up,↑,0.4487116998061538,True,12,1,0,3
Y2-S2-226M20,4,328,PS,exp,38,→,right,→,0.4892763998359442,True,12,1,0,3
Y2-S2-226M20,4,329,PS,exp,27,↓,right,→,1.0775704002007842,False,12,-1,1,4
Y2-S2-226M20,4,330,PS,exp,43,→,right,→,0.8712202999740839,True,13,-1,0,4
Y2-S2-226M20,4,331,PS,exp,30,←,right,→,0.85943360067904,False,13,-1,0,4
Y2-S2-226M20,4,332,PS,exp,41,↑,up,↑,0.9850581996142864,True,14,-1,0,4
Y2-S2-226M20,4,333,PS,exp,25,→,right,→,0.6698545999825001,True,14,-1,0,4
Y2-S2-226M20,4,334,PS,exp,25,←,right,→,0.4133949000388384,False,14,-1,0,4
Y2-S2-226M20,4,335,PS,exp,50,↑,right,→,0.5231290003284812,False,15,-1,0,4
Y2-S2-226M20,4,336,PS,exp,49,→,right,→,0.40076049976050854,True,16,-1,0,4
Y2-S2-226M20,4,337,PS,exp,50,←,right,→,0.5149811999872327,False,16,-1,0,4
Y2-S2-226M20,4,338,PS,exp,28,↓,right,→,0.9018155001103878,False,17,-1,0,4
Y2-S2-226M20,4,339,PS,exp,50,←,left,←,0.43418189976364374,True,18,-1,0,4
Y2-S2-226M20,4,340,PS,exp,39,↓,down,↓,0.5988162998110056,True,18,-1,0,4
Y2-S2-226M20,4,341,PS,exp,34,←,left,←,0.36731280013918877,True,18,1,1,5
Y2-S2-226M20,4,342,PS,exp,36,→,right,→,0.8833826994523406,True,17,1,0,5
Y2-S2-226M20,4,343,PS,exp,45,↑,left,←,0.2841791994869709,False,17,-1,1,6
Y2-S2-226M20,4,344,PS,exp,39,↓,down,↓,0.6856150003150105,True,18,-1,0,6
Y2-S2-226M20,4,345,PS,exp,29,→,right,→,0.6235940000042319,True,18,-1,0,6
Y2-S2-226M20,4,346,PS,exp,29,↑,up,↑,0.41717979963868856,True,18,1,1,7
Y2-S2-226M20,4,347,PS,exp,36,→,right,→,0.4708082992583513,True,17,1,0,7
Y2-S2-226M20,4,348,PS,exp,50,←,right,→,0.5076963994652033,False,17,-1,1,8
Y2-S2-226M20,4,349,PS,exp,49,↓,down,↓,0.5202143006026745,True,18,-1,0,8
Y2-S2-226M20,4,350,PS,exp,31,←,left,←,0.43398050032556057,True,18,-1,0,8
Y2-S2-226M20,4,351,PS,exp,27,→,right,→,0.40076429955661297,True,18,1,1,9
Y2-S2-226M20,4,352,PS,exp,29,↑,up,↑,0.3504755003377795,True,17,1,0,9
Y2-S2-226M20,4,353,PS,exp,25,↓,down,↓,0.63390769995749,True,17,1,0,9
Y2-S2-226M20,4,354,PS,exp,27,→,left,←,0.8310708999633789,False,17,-1,1,10
Y2-S2-226M20,4,355,PS,exp,45,↓,down,↓,0.6242538001388311,True,18,-1,0,10
Y2-S2-226M20,4,356,PS,exp,31,←,left,←,1.0501761995255947,True,18,-1,0,10
Y2-S2-226M20,4,357,PS,exp,45,→,right,→,0.36709010042250156,True,18,1,1,11
Y2-S2-226M20,4,358,PS,exp,28,←,left,←,0.4547025002539158,True,17,1,0,11
Y2-S2-226M20,4,359,PS,exp,39,↑,up,↑,0.5989081002771854,True,17,1,0,11
Y2-S2-226M20,4,360,PS,exp,26,←,left,←,0.317633000202477,True,17,1,0,11
Y2-S2-226M20,4,361,PS,exp,43,→,right,→,0.8817573003470898,True,16,1,0,11
Y2-S2-226M20,4,362,PS,exp,40,↑,up,↑,0.482350199483335,True,16,1,0,11
Y2-S2-226M20,4,363,PS,exp,32,↓,down,↓,0.6169448997825384,True,16,1,0,11
Y2-S2-226M20,4,364,PS,exp,39,↑,up,↑,0.45272540021687746,True,15,1,0,11
Y2-S2-226M20,4,365,PS,exp,40,←,left,←,0.42159560043364763,True,15,1,0,11
Y2-S2-226M20,4,366,PS,exp,45,↓,down,↓,0.8358066994696856,True,15,1,0,11
Y2-S2-226M20,4,367,PS,exp,40,↑,up,↑,0.6172970002517104,True,14,1,0,11
Y2-S2-226M20,4,368,PS,exp,40,←,left,←,0.53822180069983,True,14,1,0,11
Y2-S2-226M20,4,369,PS,exp,38,↓,down,↓,0.5541904997080564,True,14,1,0,11
Y2-S2-226M20,4,370,PS,exp,30,↑,up,↑,0.4830408003181219,True,13,1,0,11
Y2-S2-226M20,4,371,PS,exp,37,↓,left,←,0.7219475004822016,False,13,-1,1,12
Y2-S2-226M20,4,372,PS,exp,47,←,right,→,0.756309200078249,False,14,-1,0,12
Y2-S2-226M20,4,373,PS,exp,30,→,left,←,0.42480270005762577,False,15,-1,0,12
Y2-S2-226M20,4,374,PS,exp,38,↓,left,←,0.6555185001343489,False,16,-1,0,12
Y2-S2-226M20,4,375,PS,exp,41,↑,up,↑,0.9810990998521447,True,17,-1,0,12
Y2-S2-226M20,4,376,PS,exp,35,←,left,←,0.3841743003576994,True,17,-1,0,12
Y2-S2-226M20,4,377,PS,exp,47,↑,up,↑,0.5319197000935674,True,17,1,1,13
Y2-S2-226M20,4,378,PS,exp,37,→,right,→,0.4667108003050089,True,16,1,0,13
Y2-S2-226M20,4,379,PS,exp,29,↑,up,↑,0.9169724993407726,True,16,1,0,13
Y2-S2-226M20,4,380,PS,exp,44,←,left,←,0.47129209991544485,True,16,1,0,13
Y2-S2-226M20,4,381,PS,exp,45,↑,up,↑,0.500972400419414,True,15,1,0,13
Y2-S2-226M20,4,382,PS,exp,30,←,left,←,0.6339054005220532,True,15,1,0,13
Y2-S2-226M20,4,383,PS,exp,30,→,right,→,0.4594976995140314,True,15,1,0,13
Y2-S2-226M20,4,384,PS,exp,33,↑,left,←,0.5407464001327753,False,14,-1,1,14
Y2-S2-226M20,4,385,PS,exp,27,→,right,→,0.7852711994200945,True,15,-1,0,14
Y2-S2-226M20,4,386,PS,exp,28,↑,up,↑,0.42632840014994144,True,15,-1,0,14
Y2-S2-226M20,4,387,PS,exp,45,↓,down,↓,0.5886787995696068,True,15,1,1,15
Y2-S2-226M20,4,388,PS,exp,37,←,left,←,0.5492154005914927,True,14,1,0,15
Y2-S2-226M20,4,389,PS,exp,49,↓,down,↓,0.8874249998480082,True,14,1,0,15
Y2-S2-226M20,4,390,PS,exp,25,↑,up,↑,0.41615950036793947,True,14,1,0,15
Y2-S2-226M20,4,391,PS,exp,31,←,left,←,0.4683624003082514,True,13,1,0,15
Y2-S2-226M20,4,392,PS,exp,36,↑,up,↑,0.5221311999484897,True,13,1,0,15
Y2-S2-226M20,4,393,PS,exp,30,→,right,→,0.4516313001513481,True,13,1,0,15
Y2-S2-226M20,4,394,PS,exp,36,↓,down,↓,0.5010416004806757,True,12,1,0,15
Y2-S2-226M20,4,395,PS,exp,50,←,left,←,0.4931777995079756,True,12,1,0,15
Y2-S2-226M20,4,396,PS,exp,44,↑,right,→,0.47603899985551834,False,12,-1,1,16
Y2-S2-226M20,5,397,PS,intra_train,25,↓,down,↓,0.5437801005318761,True,16,-,-,-
Y2-S2-226M20,5,398,PS,intra_train,43,↑,up,↑,0.5316131999716163,True,16,-,-,-
Y2-S2-226M20,5,399,PS,intra_train,29,→,right,→,0.4507729997858405,True,16,-,-,-
Y2-S2-226M20,5,400,PS,intra_train,30,↑,up,↑,0.4618188003078103,True,16,-,-,-
Y2-S2-226M20,5,401,PS,intra_train,48,→,right,→,0.35062899999320507,True,16,-,-,-
Y2-S2-226M20,5,402,PS,exp,42,↓,down,↓,0.582476700656116,True,11,0,0,0
Y2-S2-226M20,5,403,PS,exp,34,→,right,→,0.5168751999735832,True,11,0,0,0
Y2-S2-226M20,5,404,PS,exp,48,↓,right,→,0.3851887993514538,False,11,-1,0,0
Y2-S2-226M20,5,405,PS,exp,47,→,right,→,0.4733658004552126,True,12,-1,0,0
Y2-S2-226M20,5,406,PS,exp,35,↓,down,↓,0.5388318998739123,True,12,-1,0,0
Y2-S2-226M20,5,407,PS,exp,45,↑,up,↑,0.4466142999008298,True,12,1,1,1
Y2-S2-226M20,5,408,PS,exp,43,↓,down,↓,0.4811303997412324,True,11,1,0,1
Y2-S2-226M20,5,409,PS,exp,45,↑,up,↑,0.4083746001124382,True,11,1,0,1
Y2-S2-226M20,5,410,PS,exp,36,→,right,→,0.5142788998782635,True,11,1,0,1
Y2-S2-226M20,5,411,PS,exp,40,←,left,←,0.4654093002900481,True,10,1,0,1
Y2-S2-226M20,5,412,PS,exp,30,↑,left,←,0.7023505996912718,False,10,-1,1,2
Y2-S2-226M20,5,413,PS,exp,34,←,right,→,0.3862700993195176,False,11,-1,0,2
Y2-S2-226M20,5,414,PS,exp,36,↓,down,↓,0.47521689999848604,True,12,-1,0,2
Y2-S2-226M20,5,415,PS,exp,43,→,right,→,0.45147900003939867,True,12,-1,0,2
Y2-S2-226M20,5,416,PS,exp,34,←,right,→,0.30051689967513084,False,12,-1,0,2
Y2-S2-226M20,5,417,PS,exp,38,→,right,→,1.1679206006228924,True,13,-1,0,2
Y2-S2-226M20,5,418,PS,exp,27,←,left,←,0.41304259933531284,True,13,-1,0,2
Y2-S2-226M20,5,419,PS,exp,28,↓,down,↓,0.4812113996595144,True,13,1,1,3
Y2-S2-226M20,5,420,PS,exp,25,→,right,→,0.5563300000503659,True,12,1,0,3
Y2-S2-226M20,5,421,PS,exp,30,←,left,←,0.5226539997383952,True,12,1,0,3
Y2-S2-226M20,5,422,PS,exp,26,↑,up,↑,0.45661509968340397,True,12,1,0,3
Y2-S2-226M20,5,423,PS,exp,33,↓,down,↓,0.5526186004281044,True,11,1,0,3
Y2-S2-226M20,5,424,PS,exp,26,↑,up,↑,0.4085416002199054,True,11,1,0,3
Y2-S2-226M20,5,425,PS,exp,47,←,left,←,0.4992142003029585,True,11,1,0,3
Y2-S2-226M20,5,426,PS,exp,43,↑,up,↑,0.3820632006973028,True,10,1,0,3
Y2-S2-226M20,5,427,PS,exp,47,↓,left,←,0.7786021996289492,False,10,-1,1,4
Y2-S2-226M20,5,428,PS,exp,34,←,right,→,0.9161007003858685,False,11,-1,0,4
Y2-S2-226M20,5,429,PS,exp,47,↑,up,↑,0.8194043999537826,True,12,-1,0,4
Y2-S2-226M20,5,430,PS,exp,36,→,right,→,0.5145550994202495,True,12,-1,0,4
Y2-S2-226M20,5,431,PS,exp,35,↓,up,↑,0.5891025001183152,False,12,-1,0,4
Y2-S2-226M20,5,432,PS,exp,45,↑,up,↑,0.4560446999967098,True,13,-1,0,4
Y2-S2-226M20,5,433,PS,exp,34,→,right,→,0.42794490046799183,True,13,-1,0,4
Y2-S2-226M20,5,434,PS,exp,42,↑,right,→,0.6520869005471468,False,13,-1,0,4
Y2-S2-226M20,5,435,PS,exp,25,→,right,→,0.48699510004371405,True,14,-1,0,4
Y2-S2-226M20,5,436,PS,exp,49,↑,up,↑,0.9062333004549146,True,14,-1,0,4
Y2-S2-226M20,5,437,PS,exp,28,↓,down,↓,0.5452604005113244,True,14,1,1,5
Y2-S2-226M20,5,438,PS,exp,36,↑,right,→,0.5203603999689221,False,13,-1,1,6
Y2-S2-226M20,5,439,PS,exp,50,←,left,←,0.4101962996646762,True,14,-1,0,6
Y2-S2-226M20,5,440,PS,exp,40,↓,down,↓,0.5151813998818398,True,14,-1,0,6
Y2-S2-226M20,5,441,PS,exp,31,↑,right,→,0.7093716003000736,False,14,-1,0,6
Y2-S2-226M20,5,442,PS,exp,36,←,left,←,0.3836602997034788,True,15,-1,0,6
Y2-S2-226M20,5,443,PS,exp,27,↑,up,↑,0.5140685997903347,True,15,-1,0,6
Y2-S2-226M20,5,444,PS,exp,49,↓,down,↓,0.5334572000429034,True,15,1,1,7
Y2-S2-226M20,5,445,PS,exp,25,↑,up,↑,0.43678770028054714,True,14,1,0,7
Y2-S2-226M20,5,446,PS,exp,34,↓,down,↓,0.5012269001454115,True,14,1,0,7
Y2-S2-226M20,5,447,PS,exp,49,→,right,→,0.40360920038074255,True,14,1,0,7
Y2-S2-226M20,5,448,PS,exp,39,↑,up,↑,0.6536707999184728,True,13,1,0,7
Y2-S2-226M20,5,449,PS,exp,39,→,right,→,0.8990002004429698,True,13,1,0,7
Y2-S2-226M20,5,450,PS,exp,46,←,left,←,0.38722689915448427,True,13,1,0,7
Y2-S2-226M20,5,451,PS,exp,35,↓,right,→,1.216053900308907,False,12,-1,1,8
Y2-S2-226M20,5,452,PS,exp,36,→,right,→,0.4125318005681038,True,13,-1,0,8
Y2-S2-226M20,5,453,PS,exp,38,↓,left,←,0.8649176005274057,False,13,-1,0,8
Y2-S2-226M20,5,454,PS,exp,44,↑,up,↑,0.4803167004138231,True,14,-1,0,8
Y2-S2-226M20,5,455,PS,exp,46,↓,left,←,0.6696180002763867,False,14,-1,0,8
Y2-S2-226M20,5,456,PS,exp,39,↑,left,←,0.6890575997531414,False,15,-1,0,8
Y2-S2-226M20,5,457,PS,exp,50,←,up,↑,0.4888214999809861,False,16,-1,0,8
Y2-S2-226M20,5,458,PS,exp,40,↑,left,←,0.959417000412941,False,17,-1,0,8
Y2-S2-226M20,5,459,PS,exp,40,←,left,←,0.5692504998296499,True,18,-1,0,8
Y2-S2-226M20,5,460,PS,exp,37,→,right,→,1.5865155002102256,True,18,-1,0,8
Y2-S2-226M20,5,461,PS,exp,35,↑,left,←,0.8981539998203516,False,18,-1,0,8
Y2-S2-226M20,5,462,PS,exp,27,←,left,←,0.3678411999717355,True,19,-1,0,8
Y2-S2-226M20,5,463,PS,exp,28,↑,up,↑,1.1204787995666265,True,19,-1,0,8
Y2-S2-226M20,5,464,PS,exp,29,←,right,→,0.7438412001356483,False,19,-1,0,8
Y2-S2-226M20,5,465,PS,exp,44,→,right,→,0.5670170001685619,True,20,-1,0,8
Y2-S2-226M20,5,466,PS,exp,43,↓,down,↓,0.6444976003840566,True,20,-1,0,8
Y2-S2-226M20,5,467,PS,exp,31,←,right,→,0.6486082002520561,False,20,-1,0,8
Y2-S2-226M20,5,468,PS,exp,46,→,right,→,0.434009300544858,True,21,-1,0,8
Y2-S2-226M20,5,469,PS,exp,44,↓,down,↓,0.9295021994039416,True,21,-1,0,8
Y2-S2-226M20,5,470,PS,exp,26,↑,up,↑,0.6497700000181794,True,21,1,1,9
Y2-S2-226M20,5,471,PS,exp,32,→,right,→,0.641932999715209,True,20,1,0,9
Y2-S2-226M20,5,472,PS,exp,47,↓,right,→,1.0689393002539873,False,20,-1,1,10
Y2-S2-226M20,5,473,PS,exp,36,↑,no_key,no_letter,-1.0,False,21,-1,0,10
Y2-S2-226M20,5,474,PS,exp,35,↓,down,↓,0.7319318000227213,True,22,-1,0,10
Y2-S2-226M20,5,475,PS,exp,39,↑,up,↑,0.5005427999421954,True,22,-1,0,10
Y2-S2-226M20,5,476,PS,exp,35,←,left,←,0.9407537002116442,True,22,1,1,11
Y2-S2-226M20,5,477,PS,exp,25,→,left,←,0.9565024003386497,False,21,-1,1,12
Y2-S2-226M20,5,478,PS,exp,28,↓,down,↓,0.5565295005217195,True,22,-1,0,12
Y2-S2-226M20,5,479,PS,exp,42,←,right,→,1.1521883998066187,False,22,-1,0,12
Y2-S2-226M20,5,480,PS,exp,45,→,right,→,0.4004338998347521,True,23,-1,0,12
Y2-S2-226M20,5,481,PS,exp,28,↓,left,←,0.4336761999875307,False,23,-1,0,12
Y2-S2-226M20,5,482,PS,exp,32,←,right,→,1.4443750996142626,False,24,-1,0,12
Y2-S2-226M20,5,483,PS,exp,33,↑,no_key,no_letter,-1.0,False,25,-1,0,12
Y2-S2-226M20,5,484,PS,exp,47,↓,down,↓,0.5339892003685236,True,26,-1,0,12
Y2-S2-226M20,5,485,PS,exp,39,↑,left,←,0.15093520004302263,False,26,-1,0,12
Y2-S2-226M20,5,486,PS,exp,31,↓,right,→,0.2859976999461651,False,27,-1,0,12
Y2-S2-226M20,5,487,PS,exp,35,→,down,↓,0.2675814004614949,False,28,-1,0,12
Y2-S2-226M20,5,488,PS,exp,26,↑,right,→,0.6794563997536898,False,29,-1,0,12
Y2-S2-226M20,5,489,PS,exp,26,↓,down,↓,1.4994816994294524,True,30,-1,0,12
Y2-S2-226M20,5,490,PS,exp,30,←,left,←,0.6340329004451632,True,30,-1,0,12
Y2-S2-226M20,5,491,PS,exp,44,↓,left,←,0.3010808005928993,False,30,-1,0,12
Y2-S2-226M20,5,492,PS,exp,43,↑,up,↑,0.48457750026136637,True,31,-1,0,12
Y2-S2-226M20,5,493,PS,exp,46,←,left,←,0.3349168002605438,True,31,-1,0,12
Y2-S2-226M20,5,494,PS,exp,41,→,right,→,0.5838253004476428,True,31,1,1,13
Y2-S2-226M20,5,495,PS,exp,29,←,left,←,0.4509768998250365,True,30,1,0,13
Y2-S2-226M20,5,496,PS,exp,36,→,right,→,0.48409279994666576,True,30,1,0,13
Y2-S2-226M20,5,497,PS,exp,25,↓,down,↓,0.8307943996042013,True,30,1,0,13
Y2-S2-226M20,5,498,PS,exp,30,↑,up,↑,0.5007777996361256,True,29,1,0,13
Y2-S2-226M20,5,499,PS,exp,40,→,right,→,0.35108770057559013,True,29,1,0,13
Y2-S2-226M20,5,500,PS,exp,45,↓,down,↓,0.5504829995334148,True,29,1,0,13
Y2-S2-226M20,5,501,PS,exp,50,↑,up,↑,0.7037159996107221,True,28,1,0,13
Y2-S2-226M20,5,502,PS,exp,44,→,left,←,0.45052010007202625,False,28,-1,1,14
Y2-S2-226M20,5,503,PS,exp,36,←,left,←,0.36790130008012056,True,29,-1,0,14
Y2-S2-226M20,5,504,PS,exp,27,↓,right,→,0.33428999967873096,False,29,-1,0,14
Y2-S2-226M20,5,505,PS,exp,37,←,left,←,0.4838718995451927,True,30,-1,0,14
Y2-S2-226M20,5,506,PS,exp,31,↑,up,↑,0.5170686999335885,True,30,-1,0,14
Y2-S2-226M20,5,507,PS,exp,43,←,left,←,0.5004238998517394,True,30,1,1,15
Y2-S2-226M20,5,508,PS,exp,43,↑,right,→,0.3176485002040863,False,29,-1,1,16
Y2-S2-226M20,6,509,AS,intra_train,45,←,left,←,1.494891700334847,True,28,-,-,-
Y2-S2-226M20,6,510,AS,intra_train,29,↑,up,↑,0.5336901992559433,True,28,-,-,-
Y2-S2-226M20,6,511,AS,intra_train,29,↓,down,↓,0.6889252997934818,True,28,-,-,-
Y2-S2-226M20,6,512,AS,intra_train,49,→,right,→,0.6501193000003695,True,28,-,-,-
Y2-S2-226M20,6,513,AS,intra_train,41,↑,down,↓,1.639508300460875,False,28,-,-,-
Y2-S2-226M20,6,514,AS,exp,27,↓,down,↓,1.1268879994750023,True,19,0,0,0
Y2-S2-226M20,6,515,AS,exp,47,←,left,←,0.36736620031297207,True,19,0,0,0
Y2-S2-226M20,6,516,AS,exp,43,→,right,→,0.6058876002207398,True,19,1,0,0
Y2-S2-226M20,6,517,AS,exp,49,←,left,←,0.6342842001467943,True,18,1,0,0
Y2-S2-226M20,6,518,AS,exp,48,→,right,→,0.5346354003995657,True,18,1,0,0
Y2-S2-226M20,6,519,AS,exp,36,←,left,←,0.5479456000030041,True,18,1,0,0
Y2-S2-226M20,6,520,AS,exp,35,↓,down,↓,0.6865325001999736,True,17,1,0,0
Y2-S2-226M20,6,521,AS,exp,27,→,right,→,1.076096799224615,True,17,1,0,0
Y2-S2-226M20,6,522,AS,exp,41,←,left,←,0.500738799571991,True,17,1,0,0
Y2-S2-226M20,6,523,AS,exp,34,→,right,→,0.6513419998809695,True,16,1,0,0
Y2-S2-226M20,6,524,AS,exp,26,←,left,←,1.1018212996423244,True,16,1,0,0
Y2-S2-226M20,6,525,AS,exp,39,↓,down,↓,0.4453128995373845,True,16,1,0,0
Y2-S2-226M20,6,526,AS,exp,31,→,right,→,0.658318099565804,True,15,1,0,0
Y2-S2-226M20,6,527,AS,exp,39,←,left,←,0.36757809948176146,True,15,1,0,0
Y2-S2-226M20,6,528,AS,exp,33,↑,up,↑,0.6941162003204226,True,15,1,0,0
Y2-S2-226M20,6,529,AS,exp,41,←,left,←,0.4228550996631384,True,14,1,0,0
Y2-S2-226M20,6,530,AS,exp,50,↑,up,↑,0.4349362002685666,True,14,1,0,0
Y2-S2-226M20,6,531,AS,exp,50,→,right,→,0.41632610000669956,True,14,1,0,0
Y2-S2-226M20,6,532,AS,exp,36,↓,down,↓,0.5529217999428511,True,13,1,0,0
Y2-S2-226M20,6,533,AS,exp,28,→,right,→,0.9501800006255507,True,13,1,0,0
Y2-S2-226M20,6,534,AS,exp,47,←,left,←,0.39691059943288565,True,13,1,0,0
Y2-S2-226M20,6,535,AS,exp,33,↑,down,↓,0.9574336996302009,False,12,-1,1,1
Y2-S2-226M20,6,536,AS,exp,44,↓,down,↓,0.4922591997310519,True,13,-1,0,1
Y2-S2-226M20,6,537,AS,exp,35,↑,left,←,0.5962086003273726,False,13,-1,0,1
Y2-S2-226M20,6,538,AS,exp,41,←,right,→,0.8847328005358577,False,14,-1,0,1
Y2-S2-226M20,6,539,AS,exp,48,↓,down,↓,0.48151890002191067,True,15,-1,0,1
Y2-S2-226M20,6,540,AS,exp,45,→,right,→,0.933564499951899,True,15,-1,0,1
Y2-S2-226M20,6,541,AS,exp,46,←,left,←,0.3501050993800163,True,15,1,1,2
Y2-S2-226M20,6,542,AS,exp,37,→,right,→,0.8882702002301812,True,14,1,0,2
Y2-S2-226M20,6,543,AS,exp,42,↑,up,↑,0.8026218004524708,True,14,1,0,2
Y2-S2-226M20,6,544,AS,exp,49,↓,down,↓,0.7370114997029305,True,14,1,0,2
Y2-S2-226M20,6,545,AS,exp,48,→,right,→,0.46782940067350864,True,13,1,0,2
Y2-S2-226M20,6,546,AS,exp,37,↓,right,→,0.8460833998396993,False,13,-1,1,3
Y2-S2-226M20,6,547,AS,exp,43,↑,down,↓,0.9417940005660057,False,14,-1,0,3
Y2-S2-226M20,6,548,AS,exp,40,←,down,↓,0.5676680998876691,False,15,-1,0,3
Y2-S2-226M20,6,549,AS,exp,38,↓,down,↓,0.6126472000032663,True,16,-1,0,3
Y2-S2-226M20,6,550,AS,exp,31,←,left,←,0.54464550036937,True,16,-1,0,3
Y2-S2-226M20,6,551,AS,exp,43,↓,down,↓,0.5218786001205444,True,16,1,1,4
Y2-S2-226M20,6,552,AS,exp,28,↑,down,↓,0.49250090029090643,False,15,-1,1,5
Y2-S2-226M20,6,553,AS,exp,26,↓,up,↑,0.857447300106287,False,16,-1,0,5
Y2-S2-226M20,6,554,AS,exp,28,←,left,←,0.4179942002519965,True,17,-1,0,5
Y2-S2-226M20,6,555,AS,exp,44,→,right,→,0.5266736000776291,True,17,-1,0,5
Y2-S2-226M20,6,556,AS,exp,38,↓,down,↓,0.9907793002203107,True,17,1,1,6
Y2-S2-226M20,6,557,AS,exp,45,↑,up,↑,0.7519134003669024,True,16,1,0,6
Y2-S2-226M20,6,558,AS,exp,32,→,left,←,0.4922646004706621,False,16,-1,1,7
Y2-S2-226M20,6,559,AS,exp,35,↑,up,↑,0.848160800524056,True,17,-1,0,7
Y2-S2-226M20,6,560,AS,exp,42,→,right,→,0.36771070025861263,True,17,-1,0,7
Y2-S2-226M20,6,561,AS,exp,49,↓,down,↓,0.49688030034303665,True,17,1,1,8
Y2-S2-226M20,6,562,AS,exp,25,→,right,→,0.7177753001451492,True,16,1,0,8
Y2-S2-226M20,6,563,AS,exp,26,↑,up,↑,0.7501413002610207,True,16,1,0,8
Y2-S2-226M20,6,564,AS,exp,35,→,right,→,0.7087809005752206,True,16,1,0,8
Y2-S2-226M20,6,565,AS,exp,49,↓,down,↓,0.6469106003642082,True,15,1,0,8
Y2-S2-226M20,6,566,AS,exp,43,→,right,→,0.4235089998692274,True,15,1,0,8
Y2-S2-226M20,6,567,AS,exp,44,↓,up,↑,0.5455121006816626,False,15,-1,1,9
Y2-S2-226M20,6,568,AS,exp,30,→,left,←,0.5252778995782137,False,16,-1,0,9
Y2-S2-226M20,6,569,AS,exp,40,↓,up,↑,0.45186449959874153,False,17,-1,0,9
Y2-S2-226M20,6,570,AS,exp,48,↑,up,↑,0.7609739005565643,True,18,-1,0,9
Y2-S2-226M20,6,571,AS,exp,47,→,right,→,0.40100810024887323,True,18,-1,0,9
Y2-S2-226M20,6,572,AS,exp,31,↓,down,↓,0.5315569005906582,True,18,1,1,10
Y2-S2-226M20,6,573,AS,exp,38,→,right,→,0.35048129968345165,True,17,1,0,10
Y2-S2-226M20,6,574,AS,exp,46,↓,down,↓,0.41739470046013594,True,17,1,0,10
Y2-S2-226M20,6,575,AS,exp,34,←,left,←,1.1549010006710887,True,17,1,0,10
Y2-S2-226M20,6,576,AS,exp,30,↑,up,↑,0.44729929976165295,True,16,1,0,10
Y2-S2-226M20,6,577,AS,exp,25,↓,left,←,0.5820161998271942,False,16,-1,1,11
Y2-S2-226M20,6,578,AS,exp,25,→,right,→,0.3673208002001047,True,17,-1,0,11
Y2-S2-226M20,6,579,AS,exp,48,↓,left,←,0.4797330992296338,False,17,-1,0,11
Y2-S2-226M20,6,580,AS,exp,31,→,right,→,0.4174443995580077,True,18,-1,0,11
Y2-S2-226M20,6,581,AS,exp,41,↑,up,↑,0.5068664997816086,True,18,-1,0,11
Y2-S2-226M20,6,582,AS,exp,30,←,left,←,0.36710300017148256,True,18,1,1,12
Y2-S2-226M20,6,583,AS,exp,45,↓,right,→,0.8156470991671085,False,17,-1,1,13
Y2-S2-226M20,6,584,AS,exp,29,↑,up,↑,0.6629250999540091,True,18,-1,0,13
Y2-S2-226M20,6,585,AS,exp,41,↓,down,↓,0.6864495994523168,True,18,-1,0,13
Y2-S2-226M20,6,586,AS,exp,30,←,left,←,0.5939737996086478,True,18,1,1,14
Y2-S2-226M20,6,587,AS,exp,49,↑,right,→,1.0255401004105806,False,17,-1,1,15
Y2-S2-226M20,6,588,AS,exp,25,↓,down,↓,0.6048723002895713,True,18,-1,0,15
Y2-S2-226M20,6,589,AS,exp,41,↑,up,↑,1.0131692998111248,True,18,-1,0,15
Y2-S2-226M20,6,590,AS,exp,39,↓,down,↓,0.7028054995462298,True,18,1,1,16
Y2-S2-226M20,7,591,AS,intra_train,25,↑,no_key,no_letter,-1.0,False,28,-,-,-
Y2-S2-226M20,7,592,AS,intra_train,50,→,left,←,0.28451899997889996,False,28,-,-,-
Y2-S2-226M20,7,593,AS,intra_train,30,←,left,←,0.5505202999338508,True,28,-,-,-
Y2-S2-226M20,7,594,AS,intra_train,49,↑,up,↑,1.2471843007951975,True,28,-,-,-
Y2-S2-226M20,7,595,AS,intra_train,33,→,left,←,0.483797799795866,False,28,-,-,-
Y2-S2-226M20,7,596,AS,exp,31,←,left,←,0.41717580053955317,True,19,0,0,0
Y2-S2-226M20,7,597,AS,exp,39,↑,up,↑,0.4006105000153184,True,19,0,0,0
Y2-S2-226M20,7,598,AS,exp,33,←,left,←,0.41712099965661764,True,19,1,0,0
Y2-S2-226M20,7,599,AS,exp,44,→,right,→,0.536867999471724,True,18,1,0,0
Y2-S2-226M20,7,600,AS,exp,46,↑,up,↑,0.3845128994435072,True,18,1,0,0
Y2-S2-226M20,7,601,AS,exp,32,↓,down,↓,0.734047899954021,True,18,1,0,0
Y2-S2-226M20,7,602,AS,exp,40,↑,up,↑,0.5240430003032088,True,17,1,0,0
Y2-S2-226M20,7,603,AS,exp,34,←,left,←,0.3838994996622205,True,17,1,0,0
Y2-S2-226M20,7,604,AS,exp,37,→,right,→,0.40071569941937923,True,17,1,0,0
Y2-S2-226M20,7,605,AS,exp,46,↓,down,↓,0.5197360999882221,True,16,1,0,0
Y2-S2-226M20,7,606,AS,exp,46,←,left,←,0.5399401998147368,True,16,1,0,0
Y2-S2-226M20,7,607,AS,exp,43,↓,down,↓,0.5066838003695011,True,16,1,0,0
Y2-S2-226M20,7,608,AS,exp,35,→,left,←,0.4846229003742337,False,15,-1,1,1
Y2-S2-226M20,7,609,AS,exp,48,←,left,←,0.3839945001527667,True,16,-1,0,1
Y2-S2-226M20,7,610,AS,exp,32,↓,left,←,0.3173132995143533,False,16,-1,0,1
Y2-S2-226M20,7,611,AS,exp,45,→,right,→,0.41712299920618534,True,17,-1,0,1
Y2-S2-226M20,7,612,AS,exp,35,↓,down,↓,0.5268839998170733,True,17,-1,0,1
Y2-S2-226M20,7,613,AS,exp,33,↑,up,↑,0.47239680029451847,True,17,1,1,2
Y2-S2-226M20,7,614,AS,exp,28,↓,down,↓,0.46695700008422136,True,16,1,0,2
Y2-S2-226M20,7,615,AS,exp,44,↑,up,↑,0.5627635000273585,True,16,1,0,2
Y2-S2-226M20,7,616,AS,exp,50,↓,down,↓,0.7493618000298738,True,16,1,0,2
Y2-S2-226M20,7,617,AS,exp,30,↑,up,↑,0.7570131998509169,True,15,1,0,2
Y2-S2-226M20,7,618,AS,exp,34,←,left,←,0.5474996007978916,True,15,1,0,2
Y2-S2-226M20,7,619,AS,exp,47,→,right,→,0.4393562003970146,True,15,1,0,2
Y2-S2-226M20,7,620,AS,exp,43,↓,down,↓,0.6663555996492505,True,14,1,0,2
Y2-S2-226M20,7,621,AS,exp,31,↑,up,↑,0.4983675004914403,True,14,1,0,2
Y2-S2-226M20,7,622,AS,exp,27,←,up,↑,0.7512707002460957,False,14,-1,1,3
Y2-S2-226M20,7,623,AS,exp,32,→,right,→,0.5896533997729421,True,15,-1,0,3
Y2-S2-226M20,7,624,AS,exp,49,↑,up,↑,0.6731354994699359,True,15,-1,0,3
Y2-S2-226M20,7,625,AS,exp,28,↓,down,↓,0.6505086002871394,True,15,1,1,4
Y2-S2-226M20,7,626,AS,exp,36,→,left,←,1.0665993997827172,False,14,-1,1,5
Y2-S2-226M20,7,627,AS,exp,45,↓,down,↓,0.6463567996397614,True,15,-1,0,5
Y2-S2-226M20,7,628,AS,exp,42,←,down,↓,0.49372819997370243,False,15,-1,0,5
Y2-S2-226M20,7,629,AS,exp,33,→,right,→,1.0451774997636676,True,16,-1,0,5
Y2-S2-226M20,7,630,AS,exp,43,←,left,←,0.6588112991303205,True,16,-1,0,5
Y2-S2-226M20,7,631,AS,exp,26,↓,down,↓,0.6833185004070401,True,16,1,1,6
Y2-S2-226M20,7,632,AS,exp,25,↑,up,↑,0.4222212005406618,True,15,1,0,6
Y2-S2-226M20,7,633,AS,exp,39,↓,down,↓,0.5467828996479511,True,15,1,0,6
Y2-S2-226M20,7,634,AS,exp,34,←,left,←,1.1177680995315313,True,15,1,0,6
Y2-S2-226M20,7,635,AS,exp,48,↑,up,↑,0.45180980022996664,True,14,1,0,6
Y2-S2-226M20,7,636,AS,exp,42,←,left,←,0.9327284004539251,True,14,1,0,6
Y2-S2-226M20,7,637,AS,exp,41,↓,down,↓,0.8998456997796893,True,14,1,0,6
Y2-S2-226M20,7,638,AS,exp,35,↑,up,↑,0.8265578001737595,True,13,1,0,6
Y2-S2-226M20,7,639,AS,exp,26,→,right,→,0.6587490001693368,True,13,1,0,6
Y2-S2-226M20,7,640,AS,exp,35,↓,up,↑,0.6946488004177809,False,13,-1,1,7
Y2-S2-226M20,7,641,AS,exp,41,→,down,↓,0.7075963001698256,False,14,-1,0,7
Y2-S2-226M20,7,642,AS,exp,41,↑,up,↑,0.5324170999228954,True,15,-1,0,7
Y2-S2-226M20,7,643,AS,exp,44,↓,up,↑,0.45965659990906715,False,15,-1,0,7
Y2-S2-226M20,7,644,AS,exp,44,↑,down,↓,0.6540908999741077,False,16,-1,0,7
Y2-S2-226M20,7,645,AS,exp,48,↓,down,↓,0.4799726000055671,True,17,-1,0,7
Y2-S2-226M20,7,646,AS,exp,45,→,right,→,0.5640655001625419,True,17,-1,0,7
Y2-S2-226M20,7,647,AS,exp,25,↓,down,↓,0.5970048001036048,True,17,1,1,8
Y2-S2-226M20,7,648,AS,exp,43,←,left,←,0.8148592002689838,True,16,1,0,8
Y2-S2-226M20,7,649,AS,exp,44,↑,left,←,1.0055881002917886,False,16,-1,1,9
Y2-S2-226M20,7,650,AS,exp,30,←,left,←,0.49225430004298687,True,17,-1,0,9
Y2-S2-226M20,7,651,AS,exp,39,→,right,→,0.5292162001132965,True,17,-1,0,9
Y2-S2-226M20,7,652,AS,exp,43,←,left,←,0.41726630087941885,True,17,1,1,10
Y2-S2-226M20,7,653,AS,exp,45,↓,down,↓,0.5600434001535177,True,16,1,0,10
Y2-S2-226M20,7,654,AS,exp,46,←,left,←,0.4479448003694415,True,16,1,0,10
Y2-S2-226M20,7,655,AS,exp,46,↑,up,↑,0.6940123001113534,True,16,1,0,10
Y2-S2-226M20,7,656,AS,exp,40,↓,down,↓,0.5290943002328277,True,15,1,0,10
Y2-S2-226M20,7,657,AS,exp,45,←,left,←,0.9975978005677462,True,15,1,0,10
Y2-S2-226M20,7,658,AS,exp,35,↑,up,↑,0.6905186995863914,True,15,1,0,10
Y2-S2-226M20,7,659,AS,exp,43,←,left,←,0.401516099460423,True,14,1,0,10
Y2-S2-226M20,7,660,AS,exp,43,→,right,→,0.8250414002686739,True,14,1,0,10
Y2-S2-226M20,7,661,AS,exp,37,↓,down,↓,0.450416199862957,True,14,1,0,10
Y2-S2-226M20,7,662,AS,exp,37,→,right,→,0.4306760001927614,True,13,1,0,10
Y2-S2-226M20,7,663,AS,exp,50,←,left,←,0.8178910007700324,True,13,1,0,10
Y2-S2-226M20,7,664,AS,exp,49,↑,up,↑,0.48534660041332245,True,13,1,0,10
Y2-S2-226M20,7,665,AS,exp,35,↓,down,↓,0.5478819999843836,True,12,1,0,10
Y2-S2-226M20,7,666,AS,exp,32,↑,up,↑,0.45644980017095804,True,12,1,0,10
Y2-S2-226M20,7,667,AS,exp,28,→,right,→,0.4500866997987032,True,12,1,0,10
Y2-S2-226M20,7,668,AS,exp,44,↓,down,↓,0.5176157001405954,True,11,1,0,10
Y2-S2-226M20,7,669,AS,exp,25,→,right,→,0.6377061000093818,True,11,1,0,10
Y2-S2-226M20,7,670,AS,exp,46,↑,up,↑,0.42633629962801933,True,11,1,0,10
Y2-S2-226M20,7,671,AS,exp,35,↓,up,↑,0.8383226003497839,False,10,-1,1,11
Y2-S2-226M20,7,672,AS,exp,41,→,right,→,0.4161882000043988,True,11,-1,0,11
Y2-S2-226M20,7,673,AS,exp,47,↑,left,←,0.3598519004881382,False,11,-1,0,11
Y2-S2-226M20,7,674,AS,exp,29,→,right,→,0.6789076998829842,True,12,-1,0,11
Y2-S2-226M20,7,675,AS,exp,39,↓,down,↓,0.8502684002742171,True,12,-1,0,11
Y2-S2-226M20,7,676,AS,exp,28,←,left,←,0.41968660056591034,True,12,1,1,12
Y2-S2-226M20,7,677,AS,exp,34,↓,down,↓,0.49531720019876957,True,11,1,0,12
Y2-S2-226M20,7,678,AS,exp,36,→,right,→,0.4543631998822093,True,11,1,0,12
Y2-S2-226M20,7,679,AS,exp,42,↓,left,←,0.7450166000053287,False,11,-1,1,13
Y2-S2-226M20,7,680,AS,exp,29,↑,left,←,0.7255786005407572,False,12,-1,0,13
Y2-S2-226M20,7,681,AS,exp,29,↓,down,↓,0.5852108001708984,True,13,-1,0,13
Y2-S2-226M20,7,682,AS,exp,38,↑,left,←,0.7944335993379354,False,13,-1,0,13
Y2-S2-226M20,7,683,AS,exp,36,↓,down,↓,0.8107238998636603,True,14,-1,0,13
Y2-S2-226M20,7,684,AS,exp,49,→,left,←,0.4905971996486187,False,14,-1,0,13
Y2-S2-226M20,7,685,AS,exp,28,↑,up,↑,0.47821279987692833,True,15,-1,0,13
Y2-S2-226M20,7,686,AS,exp,37,↓,down,↓,0.5439464999362826,True,15,-1,0,13
Y2-S2-226M20,7,687,AS,exp,32,→,right,→,0.5379552999511361,True,15,1,1,14
Y2-S2-226M20,7,688,AS,exp,33,↓,down,↓,0.5861526001244783,True,14,1,0,14
Y2-S2-226M20,7,689,AS,exp,42,→,right,→,1.085623500868678,True,14,1,0,14
Y2-S2-226M20,7,690,AS,exp,34,←,down,↓,0.6709623001515865,False,14,-1,1,15
Y2-S2-226M20,7,691,AS,exp,45,↓,down,↓,0.4497481994330883,True,15,-1,0,15
Y2-S2-226M20,7,692,AS,exp,40,→,right,→,0.7646755008026958,True,15,-1,0,15
Y2-S2-226M20,7,693,AS,exp,38,←,left,←,0.41885310038924217,True,15,1,1,16
Y2-S2-226M20,8,694,PS,intra_train,33,↓,down,↓,0.9577091000974178,True,16,-,-,-
Y2-S2-226M20,8,695,PS,intra_train,41,↑,up,↑,0.44963090028613806,True,16,-,-,-
Y2-S2-226M20,8,696,PS,intra_train,25,↓,down,↓,1.0421730000525713,True,16,-,-,-
Y2-S2-226M20,8,697,PS,intra_train,45,←,right,→,0.5984751991927624,False,16,-,-,-
Y2-S2-226M20,8,698,PS,intra_train,40,→,right,→,0.43735930044203997,True,16,-,-,-
Y2-S2-226M20,8,699,PS,exp,45,↑,left,←,0.8984313001856208,False,11,-1,0,0
Y2-S2-226M20,8,700,PS,exp,30,←,left,←,0.5520403999835253,True,12,-1,0,0
Y2-S2-226M20,8,701,PS,exp,39,↓,down,↓,0.5575794000178576,True,12,-1,0,0
Y2-S2-226M20,8,702,PS,exp,41,→,right,→,0.42278390005230904,True,12,1,1,1
Y2-S2-226M20,8,703,PS,exp,46,↑,up,↑,0.6256518997251987,True,11,1,0,1
Y2-S2-226M20,8,704,PS,exp,35,→,right,→,0.5061496999114752,True,11,1,0,1
Y2-S2-226M20,8,705,PS,exp,40,↓,down,↓,0.4966088002547622,True,11,1,0,1
Y2-S2-226M20,8,706,PS,exp,26,→,right,→,0.40914690028876066,True,10,1,0,1
Y2-S2-226M20,8,707,PS,exp,35,↓,down,↓,0.4716681996360421,True,10,1,0,1
Y2-S2-226M20,8,708,PS,exp,50,↑,right,→,0.5743144005537033,False,10,-1,1,2
Y2-S2-226M20,8,709,PS,exp,37,↓,down,↓,0.38945990055799484,True,11,-1,0,2
Y2-S2-226M20,8,710,PS,exp,26,→,right,→,0.41697230003774166,True,11,-1,0,2
Y2-S2-226M20,8,711,PS,exp,46,↓,down,↓,0.5334585001692176,True,11,1,1,3
Y2-S2-226M20,8,712,PS,exp,49,→,right,→,0.635717099532485,True,10,1,0,3
Y2-S2-226M20,8,713,PS,exp,39,←,left,←,0.44476230069994926,True,10,1,0,3
Y2-S2-226M20,8,714,PS,exp,41,↓,right,→,0.5215389002114534,False,10,-1,1,4
Y2-S2-226M20,8,715,PS,exp,32,↑,up,↑,0.4332059994339943,True,11,-1,0,4
Y2-S2-226M20,8,716,PS,exp,42,←,left,←,0.43919150065630674,True,11,-1,0,4
Y2-S2-226M20,8,717,PS,exp,39,↓,down,↓,0.6023695003241301,True,11,1,1,5
Y2-S2-226M20,8,718,PS,exp,26,←,right,→,0.42658929992467165,False,10,-1,1,6
Y2-S2-226M20,8,719,PS,exp,27,↓,right,→,0.5728520005941391,False,11,-1,0,6
Y2-S2-226M20,8,720,PS,exp,35,→,right,→,0.4208907000720501,True,12,-1,0,6
Y2-S2-226M20,8,721,PS,exp,35,←,left,←,0.527178400196135,True,12,-1,0,6
Y2-S2-226M20,8,722,PS,exp,33,↓,down,↓,0.6598832001909614,True,12,1,1,7
Y2-S2-226M20,8,723,PS,exp,49,↑,up,↑,0.36562340054661036,True,11,1,0,7
Y2-S2-226M20,8,724,PS,exp,31,←,left,←,0.46427009999752045,True,11,1,0,7
Y2-S2-226M20,8,725,PS,exp,49,↓,right,→,0.40208959951996803,False,11,-1,1,8
Y2-S2-226M20,8,726,PS,exp,45,↑,right,→,0.694764900021255,False,12,-1,0,8
Y2-S2-226M20,8,727,PS,exp,40,↓,down,↓,0.4950822005048394,True,13,-1,0,8
Y2-S2-226M20,8,728,PS,exp,30,↑,up,↑,0.5913831004872918,True,13,-1,0,8
Y2-S2-226M20,8,729,PS,exp,27,→,right,→,0.39290580060333014,True,13,1,1,9
Y2-S2-226M20,8,730,PS,exp,25,←,left,←,0.6190121993422508,True,12,1,0,9
Y2-S2-226M20,8,731,PS,exp,30,↓,right,→,0.5406106999143958,False,12,-1,1,10
Y2-S2-226M20,8,732,PS,exp,33,→,right,→,0.5349794002249837,True,13,-1,0,10
Y2-S2-226M20,8,733,PS,exp,50,↑,left,←,0.3173634996637702,False,13,-1,0,10
Y2-S2-226M20,8,734,PS,exp,40,↓,left,←,1.040179799310863,False,14,-1,0,10
Y2-S2-226M20,8,735,PS,exp,30,←,down,↓,0.7482179999351501,False,15,-1,0,10
Y2-S2-226M20,8,736,PS,exp,31,→,right,→,0.663107399828732,True,16,-1,0,10
Y2-S2-226M20,8,737,PS,exp,45,←,left,←,0.485585100017488,True,16,-1,0,10
Y2-S2-226M20,8,738,PS,exp,26,→,right,→,0.9509213007986546,True,16,1,1,11
Y2-S2-226M20,8,739,PS,exp,46,↓,down,↓,0.5231997994706035,True,15,1,0,11
Y2-S2-226M20,8,740,PS,exp,34,←,right,→,0.31734250020235777,False,15,-1,1,12
Y2-S2-226M20,8,741,PS,exp,50,↑,right,→,0.36722869984805584,False,16,-1,0,12
Y2-S2-226M20,8,742,PS,exp,35,←,right,→,0.31722369976341724,False,17,-1,0,12
Y2-S2-226M20,8,743,PS,exp,42,→,right,→,0.334362699650228,True,18,-1,0,12
Y2-S2-226M20,8,744,PS,exp,39,↓,up,↑,0.5677117994055152,False,18,-1,0,12
Y2-S2-226M20,8,745,PS,exp,34,→,right,→,0.41716179996728897,True,19,-1,0,12
Y2-S2-226M20,8,746,PS,exp,49,←,left,←,0.3838431006297469,True,19,-1,0,12
Y2-S2-226M20,8,747,PS,exp,26,↓,left,←,0.9007401997223496,False,19,-1,0,12
Y2-S2-226M20,8,748,PS,exp,46,←,left,←,0.36736669950187206,True,20,-1,0,12
Y2-S2-226M20,8,749,PS,exp,44,↓,down,↓,0.4005893003195524,True,20,-1,0,12
Y2-S2-226M20,8,750,PS,exp,28,→,right,→,0.41739189997315407,True,20,1,1,13
Y2-S2-226M20,8,751,PS,exp,43,↓,down,↓,0.5178763000294566,True,19,1,0,13
Y2-S2-226M20,8,752,PS,exp,42,←,left,←,0.5668549994006753,True,19,1,0,13
Y2-S2-226M20,8,753,PS,exp,43,↓,down,↓,0.5337305003777146,True,19,1,0,13
Y2-S2-226M20,8,754,PS,exp,37,→,right,→,1.4359977003186941,True,18,1,0,13
Y2-S2-226M20,8,755,PS,exp,31,↓,down,↓,0.9390749996528029,True,18,1,0,13
Y2-S2-226M20,8,756,PS,exp,34,←,left,←,0.7370691001415253,True,18,1,0,13
Y2-S2-226M20,8,757,PS,exp,46,↑,up,↑,0.7312956005334854,True,17,1,0,13
Y2-S2-226M20,8,758,PS,exp,49,↓,down,↓,0.508083900436759,True,17,1,0,13
Y2-S2-226M20,8,759,PS,exp,28,→,right,→,0.4659569002687931,True,17,1,0,13
Y2-S2-226M20,8,760,PS,exp,35,↓,down,↓,0.7379956999793649,True,16,1,0,13
Y2-S2-226M20,8,761,PS,exp,36,←,left,←,0.5383868999779224,True,16,1,0,13
Y2-S2-226M20,8,762,PS,exp,26,→,right,→,0.5908578000962734,True,16,1,0,13
Y2-S2-226M20,8,763,PS,exp,25,↑,up,↑,0.7379987994208932,True,15,1,0,13
Y2-S2-226M20,8,764,PS,exp,27,↓,down,↓,0.5022610006853938,True,15,1,0,13
Y2-S2-226M20,8,765,PS,exp,33,↑,up,↑,0.45255540031939745,True,15,1,0,13
Y2-S2-226M20,8,766,PS,exp,47,←,left,←,0.5344630004838109,True,14,1,0,13
Y2-S2-226M20,8,767,PS,exp,39,↑,up,↑,0.36717129964381456,True,14,1,0,13
Y2-S2-226M20,8,768,PS,exp,33,↓,left,←,0.579776800237596,False,14,-1,1,14
Y2-S2-226M20,8,769,PS,exp,49,←,left,←,0.43370920047163963,True,15,-1,0,14
Y2-S2-226M20,8,770,PS,exp,39,↓,left,←,0.751965899951756,False,15,-1,0,14
Y2-S2-226M20,8,771,PS,exp,33,↑,up,↑,0.8875061003491282,True,16,-1,0,14
Y2-S2-226M20,8,772,PS,exp,49,←,left,←,0.5107531007379293,True,16,-1,0,14
Y2-S2-226M20,8,773,PS,exp,34,↑,up,↑,0.7973819002509117,True,16,1,1,15
Y2-S2-226M20,8,774,PS,exp,41,→,left,←,0.7418192997574806,False,15,-1,1,16
