PART_ID,Block_no,Trial_no,Block_type,Trial_type,CSI,Stim_letter,Key_pressed,letter_choose,Rt,Corr,Stimulus Time,Level,Reversal,Revs_count
Y2-S2-181K21,1,1,PS,train,45,←,left,←,0.5840491000562906,True,30,-,-,-
Y2-S2-181K21,1,2,PS,train,30,→,right,→,1.746419600211084,True,30,-,-,-
Y2-S2-181K21,1,3,PS,train,50,←,left,←,0.5172174996696413,True,30,-,-,-
Y2-S2-181K21,1,4,PS,train,36,→,right,→,0.7088232999667525,True,30,-,-,-
Y2-S2-181K21,1,5,PS,train,30,↓,down,↓,0.7926499997265637,True,30,-,-,-
Y2-S2-181K21,1,6,PS,train,40,→,right,→,0.6172545999288559,True,30,-,-,-
Y2-S2-181K21,1,7,PS,train,38,↑,up,↑,0.7542346999980509,True,30,-,-,-
Y2-S2-181K21,1,8,PS,train,46,←,left,←,0.48391730012372136,True,30,-,-,-
Y2-S2-181K21,1,9,PS,train,36,→,right,→,0.5672770999372005,True,30,-,-,-
Y2-S2-181K21,1,10,PS,train,42,←,left,←,0.4509372999891639,True,30,-,-,-
Y2-S2-181K21,2,11,AS,train,28,→,right,→,0.6012220000848174,True,45,-,-,-
Y2-S2-181K21,2,12,AS,train,32,←,left,←,0.5346877998672426,True,45,-,-,-
Y2-S2-181K21,2,13,AS,train,35,↓,down,↓,0.6011801999993622,True,45,-,-,-
Y2-S2-181K21,2,14,AS,train,34,←,left,←,0.5345008000731468,True,45,-,-,-
Y2-S2-181K21,2,15,AS,train,42,↑,down,↓,0.5511937998235226,False,45,-,-,-
Y2-S2-181K21,2,16,AS,train,40,↓,down,↓,0.5843401001766324,True,45,-,-,-
Y2-S2-181K21,2,17,AS,train,32,←,left,←,0.48422900028526783,True,45,-,-,-
Y2-S2-181K21,2,18,AS,train,31,→,right,→,0.767238300293684,True,45,-,-,-
Y2-S2-181K21,2,19,AS,train,26,←,left,←,0.5013633002527058,True,45,-,-,-
Y2-S2-181K21,2,20,AS,train,29,→,right,→,0.6177940000779927,True,45,-,-,-
Y2-S2-181K21,-,21,PS,adaptive,30,↓,right,→,1.54726090002805,False,10,-1,0,0
Y2-S2-181K21,-,22,PS,adaptive,48,↑,up,↑,0.5071771000511944,True,11,-1,0,0
Y2-S2-181K21,-,23,PS,adaptive,25,→,right,→,0.4844148997217417,True,11,-1,0,0
Y2-S2-181K21,-,24,PS,adaptive,26,←,left,←,0.38904729997739196,True,11,1,1,1
Y2-S2-181K21,-,25,PS,adaptive,46,→,right,→,0.9274562001228333,True,10,1,0,1
Y2-S2-181K21,-,26,PS,adaptive,45,←,right,→,0.8053295002318919,False,10,-1,1,2
Y2-S2-181K21,-,27,PS,adaptive,34,→,right,→,0.8353808000683784,True,11,-1,0,2
Y2-S2-181K21,-,28,PS,adaptive,50,↑,up,↑,0.4960764995776117,True,11,-1,0,2
Y2-S2-181K21,-,29,PS,adaptive,50,→,right,→,0.677717600017786,True,11,1,1,3
Y2-S2-181K21,-,30,PS,adaptive,27,↓,left,←,1.1151082003489137,False,10,-1,1,4
Y2-S2-181K21,-,31,AS,adaptive,33,→,right,→,0.563026400282979,True,20,0,0,0
Y2-S2-181K21,-,32,AS,adaptive,35,←,left,←,0.6255554999224842,True,20,0,0,0
Y2-S2-181K21,-,33,AS,adaptive,40,↑,up,↑,0.4674372998997569,True,20,1,0,0
Y2-S2-181K21,-,34,AS,adaptive,32,→,right,→,0.8046773001551628,True,19,1,0,0
Y2-S2-181K21,-,35,AS,adaptive,49,↓,down,↓,0.544614200014621,True,19,1,0,0
Y2-S2-181K21,-,36,AS,adaptive,43,←,left,←,0.5420575002208352,True,19,1,0,0
Y2-S2-181K21,-,37,AS,adaptive,32,↑,down,↓,0.6014272999018431,False,18,-1,1,1
Y2-S2-181K21,-,38,AS,adaptive,43,↓,down,↓,0.587153899949044,True,19,-1,0,1
Y2-S2-181K21,-,39,AS,adaptive,25,←,left,←,0.726093600038439,True,19,-1,0,1
Y2-S2-181K21,-,40,AS,adaptive,47,↓,down,↓,0.8280895999632776,True,19,1,1,2
Y2-S2-181K21,-,41,AS,adaptive,35,←,left,←,0.8261299999430776,True,18,1,0,2
Y2-S2-181K21,-,42,AS,adaptive,48,↑,up,↑,0.6230393997393548,True,18,1,0,2
Y2-S2-181K21,-,43,AS,adaptive,29,↓,down,↓,0.6209558001719415,True,18,1,0,2
Y2-S2-181K21,-,44,AS,adaptive,50,↑,up,↑,0.5533569003455341,True,17,1,0,2
Y2-S2-181K21,-,45,AS,adaptive,46,←,left,←,0.6696238997392356,True,17,1,0,2
Y2-S2-181K21,-,46,AS,adaptive,46,↓,down,↓,0.6424982999451458,True,17,1,0,2
Y2-S2-181K21,-,47,AS,adaptive,42,←,left,←,0.49967309972271323,True,16,1,0,2
Y2-S2-181K21,-,48,AS,adaptive,32,↑,up,↑,0.5076497001573443,True,16,1,0,2
Y2-S2-181K21,-,49,AS,adaptive,49,→,right,→,0.6335621997714043,True,16,1,0,2
Y2-S2-181K21,-,50,AS,adaptive,28,←,left,←,1.7291981000453234,True,15,1,0,2
Y2-S2-181K21,-,51,AS,adaptive,44,↓,down,↓,0.5745744002051651,True,15,1,0,2
Y2-S2-181K21,-,52,AS,adaptive,26,←,left,←,0.5763631002046168,True,15,1,0,2
Y2-S2-181K21,-,53,AS,adaptive,49,↑,down,↓,0.5347122000530362,False,14,-1,1,3
Y2-S2-181K21,-,54,AS,adaptive,26,↓,down,↓,0.5831349003128707,True,15,-1,0,3
Y2-S2-181K21,-,55,AS,adaptive,29,→,left,←,0.5718098999932408,False,15,-1,0,3
Y2-S2-181K21,-,56,AS,adaptive,42,↑,up,↑,0.7117363000288606,True,16,-1,0,3
Y2-S2-181K21,-,57,AS,adaptive,45,→,right,→,0.7063667001202703,True,16,-1,0,3
Y2-S2-181K21,-,58,AS,adaptive,31,↑,up,↑,0.5843782997690141,True,16,1,1,4
Y2-S2-181K21,1,59,PS,intra_train,27,→,right,→,0.5172664001584053,True,16,-,-,-
Y2-S2-181K21,1,60,PS,intra_train,34,↑,up,↑,0.5457512000575662,True,16,-,-,-
Y2-S2-181K21,1,61,PS,intra_train,28,→,right,→,0.535744100343436,True,16,-,-,-
Y2-S2-181K21,1,62,PS,intra_train,49,↑,no_key,no_letter,-1.0,False,16,-,-,-
Y2-S2-181K21,1,63,PS,intra_train,40,←,left,←,0.48960139974951744,True,16,-,-,-
Y2-S2-181K21,1,64,PS,exp,45,→,right,→,0.5301630003377795,True,11,0,0,0
Y2-S2-181K21,1,65,PS,exp,31,↓,up,↑,0.5896967998705804,False,11,-1,0,0
Y2-S2-181K21,1,66,PS,exp,39,→,right,→,0.49537110002711415,True,12,-1,0,0
Y2-S2-181K21,1,67,PS,exp,43,↑,up,↑,0.39693110017105937,True,12,-1,0,0
Y2-S2-181K21,1,68,PS,exp,43,→,right,→,0.4712722999975085,True,12,1,1,1
Y2-S2-181K21,1,69,PS,exp,41,↓,down,↓,0.583379799965769,True,11,1,0,1
Y2-S2-181K21,1,70,PS,exp,39,→,down,↓,0.9020863999612629,False,11,-1,1,2
Y2-S2-181K21,1,71,PS,exp,26,↓,down,↓,0.550936299841851,True,12,-1,0,2
Y2-S2-181K21,1,72,PS,exp,47,↑,up,↑,0.4600304001942277,True,12,-1,0,2
Y2-S2-181K21,1,73,PS,exp,36,↓,up,↑,0.600246200338006,False,12,-1,0,2
Y2-S2-181K21,1,74,PS,exp,42,↑,up,↑,0.4919118001125753,True,13,-1,0,2
Y2-S2-181K21,1,75,PS,exp,35,→,right,→,0.6975754001177847,True,13,-1,0,2
Y2-S2-181K21,1,76,PS,exp,48,↑,up,↑,0.42520639998838305,True,13,1,1,3
Y2-S2-181K21,1,77,PS,exp,38,←,left,←,0.5060723996721208,True,12,1,0,3
Y2-S2-181K21,1,78,PS,exp,42,→,right,→,0.49895470030605793,True,12,1,0,3
Y2-S2-181K21,1,79,PS,exp,29,←,left,←,0.4195775999687612,True,12,1,0,3
Y2-S2-181K21,1,80,PS,exp,26,↓,down,↓,0.5139492000453174,True,11,1,0,3
Y2-S2-181K21,1,81,PS,exp,38,→,right,→,0.47979839984327555,True,11,1,0,3
Y2-S2-181K21,1,82,PS,exp,32,↓,down,↓,0.5074384999461472,True,11,1,0,3
Y2-S2-181K21,1,83,PS,exp,44,←,left,←,0.5311448001302779,True,10,1,0,3
Y2-S2-181K21,1,84,PS,exp,37,↓,right,→,0.7579263001680374,False,10,-1,1,4
Y2-S2-181K21,1,85,PS,exp,48,←,left,←,0.3787485999055207,True,11,-1,0,4
Y2-S2-181K21,1,86,PS,exp,33,↓,down,↓,0.49472459964454174,True,11,-1,0,4
Y2-S2-181K21,1,87,PS,exp,31,↑,up,↑,0.45132889971137047,True,11,1,1,5
Y2-S2-181K21,1,88,PS,exp,31,→,right,→,0.5243806000798941,True,10,1,0,5
Y2-S2-181K21,1,89,PS,exp,38,↑,up,↑,0.43274979991838336,True,10,1,0,5
Y2-S2-181K21,1,90,PS,exp,29,←,left,←,0.5055826003663242,True,10,1,0,5
Y2-S2-181K21,1,91,PS,exp,45,→,right,→,0.649303900077939,True,9,1,0,5
Y2-S2-181K21,1,92,PS,exp,47,↑,up,↑,0.4920518002472818,True,9,1,0,5
Y2-S2-181K21,1,93,PS,exp,32,→,right,→,0.9518995000980794,True,9,1,0,5
Y2-S2-181K21,1,94,PS,exp,32,↑,down,↓,0.6651277998462319,False,8,-1,1,6
Y2-S2-181K21,1,95,PS,exp,46,↓,down,↓,0.4825168000534177,True,9,-1,0,6
Y2-S2-181K21,1,96,PS,exp,48,←,left,←,0.43680959986522794,True,9,-1,0,6
Y2-S2-181K21,1,97,PS,exp,29,↓,down,↓,0.5061707999557257,True,9,1,1,7
Y2-S2-181K21,1,98,PS,exp,43,→,left,←,0.8084766999818385,False,8,-1,1,8
Y2-S2-181K21,1,99,PS,exp,44,←,left,←,0.4817695003002882,True,9,-1,0,8
Y2-S2-181K21,1,100,PS,exp,39,→,right,→,0.7378282998688519,True,9,-1,0,8
Y2-S2-181K21,1,101,PS,exp,49,↑,up,↑,0.48198609985411167,True,9,1,1,9
Y2-S2-181K21,1,102,PS,exp,36,↓,down,↓,0.5487898997962475,True,8,1,0,9
Y2-S2-181K21,1,103,PS,exp,41,↑,down,↓,0.802689699921757,False,8,-1,1,10
Y2-S2-181K21,1,104,PS,exp,41,←,left,←,0.5293606002815068,True,9,-1,0,10
Y2-S2-181K21,1,105,PS,exp,30,↑,up,↑,0.43537480011582375,True,9,-1,0,10
Y2-S2-181K21,1,106,PS,exp,26,←,left,←,0.6684355000033975,True,9,1,1,11
Y2-S2-181K21,1,107,PS,exp,41,↑,up,↑,0.4771517999470234,True,8,1,0,11
Y2-S2-181K21,1,108,PS,exp,30,←,left,←,0.6349944001995027,True,8,1,0,11
Y2-S2-181K21,1,109,PS,exp,46,↑,up,↑,0.5075228000059724,True,8,1,0,11
Y2-S2-181K21,1,110,PS,exp,32,↓,left,←,0.6393269998952746,False,7,-1,1,12
Y2-S2-181K21,1,111,PS,exp,36,↑,up,↑,0.4668781999498606,True,8,-1,0,12
Y2-S2-181K21,1,112,PS,exp,43,↓,down,↓,0.5064294999465346,True,8,-1,0,12
Y2-S2-181K21,1,113,PS,exp,25,↑,down,↓,0.9836094998754561,False,8,-1,0,12
Y2-S2-181K21,1,114,PS,exp,27,↓,down,↓,0.4799958001822233,True,9,-1,0,12
Y2-S2-181K21,1,115,PS,exp,50,←,down,↓,0.7256737998686731,False,9,-1,0,12
Y2-S2-181K21,1,116,PS,exp,50,↓,down,↓,0.5364568997174501,True,10,-1,0,12
Y2-S2-181K21,1,117,PS,exp,43,↑,up,↑,0.5038395002484322,True,10,-1,0,12
Y2-S2-181K21,1,118,PS,exp,40,←,down,↓,0.5179812996648252,False,10,-1,0,12
Y2-S2-181K21,1,119,PS,exp,46,↑,up,↑,0.5031149000860751,True,11,-1,0,12
Y2-S2-181K21,1,120,PS,exp,31,↓,down,↓,0.455889499746263,True,11,-1,0,12
Y2-S2-181K21,1,121,PS,exp,39,↑,up,↑,0.5289076999761164,True,11,1,1,13
Y2-S2-181K21,1,122,PS,exp,46,↓,down,↓,0.5510228998027742,True,10,1,0,13
Y2-S2-181K21,1,123,PS,exp,37,←,up,↑,0.8987973001785576,False,10,-1,1,14
Y2-S2-181K21,1,124,PS,exp,40,↑,down,↓,0.8810906000435352,False,11,-1,0,14
Y2-S2-181K21,1,125,PS,exp,48,←,left,←,0.46193340001627803,True,12,-1,0,14
Y2-S2-181K21,1,126,PS,exp,40,→,right,→,0.4722520001232624,True,12,-1,0,14
Y2-S2-181K21,1,127,PS,exp,49,↓,down,↓,0.5292893000878394,True,12,1,1,15
Y2-S2-181K21,1,128,PS,exp,44,←,left,←,0.38013239996507764,True,11,1,0,15
Y2-S2-181K21,1,129,PS,exp,40,→,right,→,0.5756435999646783,True,11,1,0,15
Y2-S2-181K21,1,130,PS,exp,48,↑,up,↑,0.5220352001488209,True,11,1,0,15
Y2-S2-181K21,1,131,PS,exp,36,→,right,→,0.48161990009248257,True,10,1,0,15
Y2-S2-181K21,1,132,PS,exp,29,↑,up,↑,0.47684000013396144,True,10,1,0,15
Y2-S2-181K21,1,133,PS,exp,48,←,left,←,0.36977870017290115,True,10,1,0,15
Y2-S2-181K21,1,134,PS,exp,36,↓,down,↓,0.57895030034706,True,9,1,0,15
Y2-S2-181K21,1,135,PS,exp,28,←,left,←,0.3827256001532078,True,9,1,0,15
Y2-S2-181K21,1,136,PS,exp,36,↑,up,↑,0.47082879999652505,True,9,1,0,15
Y2-S2-181K21,1,137,PS,exp,37,→,down,↓,0.7808047002181411,False,8,-1,1,16
Y2-S2-181K21,2,138,AS,intra_train,35,←,left,←,0.7032929002307355,True,22,-,-,-
Y2-S2-181K21,2,139,AS,intra_train,35,↓,down,↓,0.5450758999213576,True,22,-,-,-
Y2-S2-181K21,2,140,AS,intra_train,46,↑,up,↑,0.8799883997999132,True,22,-,-,-
Y2-S2-181K21,2,141,AS,intra_train,30,←,left,←,0.5430705999024212,True,22,-,-,-
Y2-S2-181K21,2,142,AS,intra_train,38,↓,down,↓,0.5935750999487936,True,22,-,-,-
Y2-S2-181K21,2,143,AS,exp,34,→,left,←,0.5405723000876606,False,15,-1,0,0
Y2-S2-181K21,2,144,AS,exp,43,↓,down,↓,1.52964869979769,True,16,-1,0,0
Y2-S2-181K21,2,145,AS,exp,33,↑,up,↑,0.6388889001682401,True,16,-1,0,0
Y2-S2-181K21,2,146,AS,exp,46,↓,down,↓,0.6102239000611007,True,16,1,1,1
Y2-S2-181K21,2,147,AS,exp,29,←,down,↓,0.5917404997162521,False,15,-1,1,2
Y2-S2-181K21,2,148,AS,exp,47,→,right,→,0.6815120000392199,True,16,-1,0,2
Y2-S2-181K21,2,149,AS,exp,47,←,down,↓,0.7708196002058685,False,16,-1,0,2
Y2-S2-181K21,2,150,AS,exp,45,↓,down,↓,0.550248000305146,True,17,-1,0,2
Y2-S2-181K21,2,151,AS,exp,25,→,right,→,0.6956751001998782,True,17,-1,0,2
Y2-S2-181K21,2,152,AS,exp,31,↓,down,↓,0.7134621003642678,True,17,1,1,3
Y2-S2-181K21,2,153,AS,exp,30,→,right,→,0.5418295999988914,True,16,1,0,3
Y2-S2-181K21,2,154,AS,exp,45,↑,down,↓,0.7104674996808171,False,16,-1,1,4
Y2-S2-181K21,2,155,AS,exp,43,↓,down,↓,0.532192200422287,True,17,-1,0,4
Y2-S2-181K21,2,156,AS,exp,49,→,right,→,0.4780206996947527,True,17,-1,0,4
Y2-S2-181K21,2,157,AS,exp,35,←,left,←,0.6112417001277208,True,17,1,1,5
Y2-S2-181K21,2,158,AS,exp,42,→,right,→,0.5158995999954641,True,16,1,0,5
Y2-S2-181K21,2,159,AS,exp,27,↑,up,↑,0.5519206998869777,True,16,1,0,5
Y2-S2-181K21,2,160,AS,exp,33,↓,no_key,no_letter,-1.0,False,16,-1,1,6
Y2-S2-181K21,2,161,AS,exp,50,↑,up,↑,0.46447249967604876,True,17,-1,0,6
Y2-S2-181K21,2,162,AS,exp,29,↓,down,↓,0.7165486998856068,True,17,-1,0,6
Y2-S2-181K21,2,163,AS,exp,48,↑,up,↑,0.6363385999575257,True,17,1,1,7
Y2-S2-181K21,2,164,AS,exp,49,↓,down,↓,0.49617099994793534,True,16,1,0,7
Y2-S2-181K21,2,165,AS,exp,27,←,left,←,0.574127099942416,True,16,1,0,7
Y2-S2-181K21,2,166,AS,exp,26,→,down,↓,0.7544716997072101,False,16,-1,1,8
Y2-S2-181K21,2,167,AS,exp,39,↓,down,↓,0.5063749002292752,True,17,-1,0,8
Y2-S2-181K21,2,168,AS,exp,50,↑,up,↑,0.6329228999093175,True,17,-1,0,8
Y2-S2-181K21,2,169,AS,exp,34,→,right,→,0.48078380012884736,True,17,1,1,9
Y2-S2-181K21,2,170,AS,exp,50,←,right,→,0.7889490001834929,False,16,-1,1,10
Y2-S2-181K21,2,171,AS,exp,32,→,right,→,0.7397716999985278,True,17,-1,0,10
Y2-S2-181K21,2,172,AS,exp,49,←,left,←,0.6555382004007697,True,17,-1,0,10
Y2-S2-181K21,2,173,AS,exp,41,↓,down,↓,0.5185226001776755,True,17,1,1,11
Y2-S2-181K21,2,174,AS,exp,41,→,right,→,0.6248746998608112,True,16,1,0,11
Y2-S2-181K21,2,175,AS,exp,50,↓,down,↓,0.4806841001845896,True,16,1,0,11
Y2-S2-181K21,2,176,AS,exp,45,←,left,←,0.3845756002701819,True,16,1,0,11
Y2-S2-181K21,2,177,AS,exp,25,↓,down,↓,0.47834759997203946,True,15,1,0,11
Y2-S2-181K21,2,178,AS,exp,28,→,down,↓,0.6044685998931527,False,15,-1,1,12
Y2-S2-181K21,2,179,AS,exp,37,↑,up,↑,0.5304931001737714,True,16,-1,0,12
Y2-S2-181K21,2,180,AS,exp,41,→,right,→,0.3672681995667517,True,16,-1,0,12
Y2-S2-181K21,2,181,AS,exp,36,↓,down,↓,0.6989588001742959,True,16,1,1,13
Y2-S2-181K21,2,182,AS,exp,38,←,left,←,0.5895624998956919,True,15,1,0,13
Y2-S2-181K21,2,183,AS,exp,28,→,right,→,0.46067450009286404,True,15,1,0,13
Y2-S2-181K21,2,184,AS,exp,39,↑,down,↓,0.5721633997745812,False,15,-1,1,14
Y2-S2-181K21,2,185,AS,exp,33,→,right,→,0.36701070005074143,True,16,-1,0,14
Y2-S2-181K21,2,186,AS,exp,35,↓,down,↓,0.5130098997615278,True,16,-1,0,14
Y2-S2-181K21,2,187,AS,exp,37,↑,down,↓,0.6495819999836385,False,16,-1,0,14
Y2-S2-181K21,2,188,AS,exp,42,←,down,↓,0.6441893996670842,False,17,-1,0,14
Y2-S2-181K21,2,189,AS,exp,33,→,left,←,0.5232808999717236,False,18,-1,0,14
Y2-S2-181K21,2,190,AS,exp,45,←,left,←,1.4139205999672413,True,19,-1,0,14
Y2-S2-181K21,2,191,AS,exp,37,→,right,→,1.2124552000313997,True,19,-1,0,14
Y2-S2-181K21,2,192,AS,exp,27,↓,down,↓,0.5095965997315943,True,19,1,1,15
Y2-S2-181K21,2,193,AS,exp,50,→,right,→,0.40079509979113936,True,18,1,0,15
Y2-S2-181K21,2,194,AS,exp,26,↑,up,↑,0.7982629998587072,True,18,1,0,15
Y2-S2-181K21,2,195,AS,exp,43,→,right,→,0.4005883000791073,True,18,1,0,15
Y2-S2-181K21,2,196,AS,exp,33,←,left,←,0.5575594999827445,True,17,1,0,15
Y2-S2-181K21,2,197,AS,exp,42,↓,down,↓,0.4897172995842993,True,17,1,0,15
Y2-S2-181K21,2,198,AS,exp,41,→,left,←,1.835766699630767,False,17,-1,1,16
Y2-S2-181K21,3,199,AS,intra_train,32,←,left,←,0.6194199998863041,True,22,-,-,-
Y2-S2-181K21,3,200,AS,intra_train,45,→,right,→,0.4839023998938501,True,22,-,-,-
Y2-S2-181K21,3,201,AS,intra_train,26,←,left,←,0.4837229000404477,True,22,-,-,-
Y2-S2-181K21,3,202,AS,intra_train,48,↑,up,↑,0.8245461001060903,True,22,-,-,-
Y2-S2-181K21,3,203,AS,intra_train,26,→,right,→,0.5650252001360059,True,22,-,-,-
Y2-S2-181K21,3,204,AS,exp,36,↓,up,↑,0.8730727997608483,False,15,-1,0,0
Y2-S2-181K21,3,205,AS,exp,30,←,left,←,0.4963376997038722,True,16,-1,0,0
Y2-S2-181K21,3,206,AS,exp,41,↑,up,↑,0.8451841999776661,True,16,-1,0,0
Y2-S2-181K21,3,207,AS,exp,36,→,right,→,0.7574256001971662,True,16,1,1,1
Y2-S2-181K21,3,208,AS,exp,30,←,left,←,0.7785537000745535,True,15,1,0,1
Y2-S2-181K21,3,209,AS,exp,35,→,left,←,1.007939100265503,False,15,-1,1,2
Y2-S2-181K21,3,210,AS,exp,41,↓,up,↑,0.6657237997278571,False,16,-1,0,2
Y2-S2-181K21,3,211,AS,exp,39,←,left,←,0.5106774000450969,True,17,-1,0,2
Y2-S2-181K21,3,212,AS,exp,44,↑,down,↓,1.1096566002815962,False,17,-1,0,2
Y2-S2-181K21,3,213,AS,exp,46,↓,down,↓,0.5927049997262657,True,18,-1,0,2
Y2-S2-181K21,3,214,AS,exp,45,↑,up,↑,0.5511742001399398,True,18,-1,0,2
Y2-S2-181K21,3,215,AS,exp,36,←,left,←,1.268110299948603,True,18,1,1,3
Y2-S2-181K21,3,216,AS,exp,40,↑,down,↓,0.8908887999132276,False,17,-1,1,4
Y2-S2-181K21,3,217,AS,exp,31,←,left,←,0.6768692000769079,True,18,-1,0,4
Y2-S2-181K21,3,218,AS,exp,31,→,right,→,0.5705804000608623,True,18,-1,0,4
Y2-S2-181K21,3,219,AS,exp,50,↑,down,↓,0.6611649999395013,False,18,-1,0,4
Y2-S2-181K21,3,220,AS,exp,34,←,left,←,0.5204644999466836,True,19,-1,0,4
Y2-S2-181K21,3,221,AS,exp,45,↑,up,↑,0.7175724999979138,True,19,-1,0,4
Y2-S2-181K21,3,222,AS,exp,39,→,right,→,0.45106339966878295,True,19,1,1,5
Y2-S2-181K21,3,223,AS,exp,35,↑,down,↓,1.0465385001152754,False,18,-1,1,6
Y2-S2-181K21,3,224,AS,exp,38,←,left,←,1.2156787998974323,True,19,-1,0,6
Y2-S2-181K21,3,225,AS,exp,35,↓,down,↓,0.7708923001773655,True,19,-1,0,6
Y2-S2-181K21,3,226,AS,exp,42,↑,up,↑,0.5501849995926023,True,19,1,1,7
Y2-S2-181K21,3,227,AS,exp,36,←,left,←,0.5336587000638247,True,18,1,0,7
Y2-S2-181K21,3,228,AS,exp,36,↓,down,↓,0.7206501998007298,True,18,1,0,7
Y2-S2-181K21,3,229,AS,exp,45,↑,up,↑,0.8665496003814042,True,18,1,0,7
Y2-S2-181K21,3,230,AS,exp,33,←,left,←,0.6011581001803279,True,17,1,0,7
Y2-S2-181K21,3,231,AS,exp,30,→,right,→,0.5443032002076507,True,17,1,0,7
Y2-S2-181K21,3,232,AS,exp,27,↓,down,↓,0.5889398003928363,True,17,1,0,7
Y2-S2-181K21,3,233,AS,exp,46,↑,up,↑,0.8406608998775482,True,16,1,0,7
Y2-S2-181K21,3,234,AS,exp,49,→,right,→,0.6520867999643087,True,16,1,0,7
Y2-S2-181K21,3,235,AS,exp,47,↑,down,↓,0.7248955997638404,False,16,-1,1,8
Y2-S2-181K21,3,236,AS,exp,26,→,right,→,0.4772852002643049,True,17,-1,0,8
Y2-S2-181K21,3,237,AS,exp,43,↑,down,↓,0.9515034002251923,False,17,-1,0,8
Y2-S2-181K21,3,238,AS,exp,40,↓,down,↓,0.47711610002443194,True,18,-1,0,8
Y2-S2-181K21,3,239,AS,exp,46,→,right,→,0.6837833998724818,True,18,-1,0,8
Y2-S2-181K21,3,240,AS,exp,47,↓,down,↓,0.7543207998387516,True,18,1,1,9
Y2-S2-181K21,3,241,AS,exp,40,→,right,→,1.448006299789995,True,17,1,0,9
Y2-S2-181K21,3,242,AS,exp,36,↑,down,↓,0.9058461003005505,False,17,-1,1,10
Y2-S2-181K21,3,243,AS,exp,33,←,left,←,0.5538691999390721,True,18,-1,0,10
Y2-S2-181K21,3,244,AS,exp,37,↑,up,↑,0.65110980020836,True,18,-1,0,10
Y2-S2-181K21,3,245,AS,exp,41,→,right,→,1.04689330002293,True,18,1,1,11
Y2-S2-181K21,3,246,AS,exp,26,↑,up,↑,0.5915926997549832,True,17,1,0,11
Y2-S2-181K21,3,247,AS,exp,26,→,right,→,0.7096095001325011,True,17,1,0,11
Y2-S2-181K21,3,248,AS,exp,48,↓,down,↓,0.7007176000624895,True,17,1,0,11
Y2-S2-181K21,3,249,AS,exp,25,←,left,←,0.6221831999719143,True,16,1,0,11
Y2-S2-181K21,3,250,AS,exp,38,↑,up,↑,0.5860509998165071,True,16,1,0,11
Y2-S2-181K21,3,251,AS,exp,30,←,right,→,1.0188347003422678,False,16,-1,1,12
Y2-S2-181K21,3,252,AS,exp,29,↓,down,↓,0.6115099000744522,True,17,-1,0,12
Y2-S2-181K21,3,253,AS,exp,44,←,left,←,1.1256585996598005,True,17,-1,0,12
Y2-S2-181K21,3,254,AS,exp,36,↓,down,↓,0.5657826000824571,True,17,1,1,13
Y2-S2-181K21,3,255,AS,exp,25,→,down,↓,0.673953799996525,False,16,-1,1,14
Y2-S2-181K21,3,256,AS,exp,48,↓,down,↓,0.5037110997363925,True,17,-1,0,14
Y2-S2-181K21,3,257,AS,exp,33,←,left,←,0.4692760002799332,True,17,-1,0,14
Y2-S2-181K21,3,258,AS,exp,41,↓,down,↓,0.6186807001940906,True,17,1,1,15
Y2-S2-181K21,3,259,AS,exp,50,↑,down,↓,0.6044092001393437,False,16,-1,1,16
Y2-S2-181K21,4,260,PS,intra_train,48,←,left,←,0.47185129998251796,True,16,-,-,-
Y2-S2-181K21,4,261,PS,intra_train,38,↓,down,↓,0.5788159999065101,True,16,-,-,-
Y2-S2-181K21,4,262,PS,intra_train,34,↑,up,↑,0.4919102997519076,True,16,-,-,-
Y2-S2-181K21,4,263,PS,intra_train,43,←,left,←,0.4622939000837505,True,16,-,-,-
Y2-S2-181K21,4,264,PS,intra_train,44,↓,down,↓,0.8854086003266275,True,16,-,-,-
Y2-S2-181K21,4,265,PS,exp,25,→,right,→,0.4302115002647042,True,11,0,0,0
Y2-S2-181K21,4,266,PS,exp,29,↓,down,↓,0.6937834001146257,True,11,0,0,0
Y2-S2-181K21,4,267,PS,exp,28,←,left,←,0.4364787000231445,True,11,1,0,0
Y2-S2-181K21,4,268,PS,exp,26,↓,down,↓,0.49490070017054677,True,10,1,0,0
Y2-S2-181K21,4,269,PS,exp,44,↑,down,↓,0.9106799000874162,False,10,-1,1,1
Y2-S2-181K21,4,270,PS,exp,42,→,right,→,0.35986259998753667,True,11,-1,0,1
Y2-S2-181K21,4,271,PS,exp,34,←,left,←,0.39946570014581084,True,11,-1,0,1
Y2-S2-181K21,4,272,PS,exp,46,→,right,→,0.4750848999246955,True,11,1,1,2
Y2-S2-181K21,4,273,PS,exp,47,↓,down,↓,0.4615899999625981,True,10,1,0,2
Y2-S2-181K21,4,274,PS,exp,37,←,right,→,0.4256091001443565,False,10,-1,1,3
Y2-S2-181K21,4,275,PS,exp,33,→,right,→,0.4655536999925971,True,11,-1,0,3
Y2-S2-181K21,4,276,PS,exp,36,←,right,→,0.3171934001147747,False,11,-1,0,3
Y2-S2-181K21,4,277,PS,exp,38,↑,up,↑,0.4714576001279056,True,12,-1,0,3
Y2-S2-181K21,4,278,PS,exp,34,←,left,←,0.4046892002224922,True,12,-1,0,3
Y2-S2-181K21,4,279,PS,exp,42,↓,down,↓,0.549097300041467,True,12,1,1,4
Y2-S2-181K21,4,280,PS,exp,42,←,right,→,0.7083036997355521,False,11,-1,1,5
Y2-S2-181K21,4,281,PS,exp,45,↓,right,→,1.0423449999652803,False,12,-1,0,5
Y2-S2-181K21,4,282,PS,exp,46,←,left,←,0.4829156999476254,True,13,-1,0,5
Y2-S2-181K21,4,283,PS,exp,46,↑,up,↑,0.4560714000836015,True,13,-1,0,5
Y2-S2-181K21,4,284,PS,exp,35,→,right,→,0.43561379984021187,True,13,1,1,6
Y2-S2-181K21,4,285,PS,exp,32,↓,up,↑,1.04926300002262,False,12,-1,1,7
Y2-S2-181K21,4,286,PS,exp,48,←,left,←,0.4946131003089249,True,13,-1,0,7
Y2-S2-181K21,4,287,PS,exp,26,↑,up,↑,0.5880518001504242,True,13,-1,0,7
Y2-S2-181K21,4,288,PS,exp,26,↓,down,↓,0.5586711000651121,True,13,1,1,8
Y2-S2-181K21,4,289,PS,exp,35,→,down,↓,0.7410801001824439,False,12,-1,1,9
Y2-S2-181K21,4,290,PS,exp,32,↓,down,↓,0.5829608999192715,True,13,-1,0,9
Y2-S2-181K21,4,291,PS,exp,48,→,right,→,0.4821684998460114,True,13,-1,0,9
Y2-S2-181K21,4,292,PS,exp,33,←,left,←,0.501547500025481,True,13,1,1,10
Y2-S2-181K21,4,293,PS,exp,32,→,right,→,0.4329508999362588,True,12,1,0,10
Y2-S2-181K21,4,294,PS,exp,44,↑,up,↑,0.396528999786824,True,12,1,0,10
Y2-S2-181K21,4,295,PS,exp,43,→,right,→,0.42661620024591684,True,12,1,0,10
Y2-S2-181K21,4,296,PS,exp,25,↑,up,↑,0.4591439999639988,True,11,1,0,10
Y2-S2-181K21,4,297,PS,exp,34,←,left,←,0.5966918999329209,True,11,1,0,10
Y2-S2-181K21,4,298,PS,exp,35,↑,up,↑,0.396339800208807,True,11,1,0,10
Y2-S2-181K21,4,299,PS,exp,43,↓,down,↓,0.5229094997048378,True,10,1,0,10
Y2-S2-181K21,4,300,PS,exp,30,←,left,←,0.5443176999688148,True,10,1,0,10
Y2-S2-181K21,4,301,PS,exp,45,↓,down,↓,0.5423318003304303,True,10,1,0,10
Y2-S2-181K21,4,302,PS,exp,40,↑,up,↑,0.6195403002202511,True,9,1,0,10
Y2-S2-181K21,4,303,PS,exp,38,→,right,→,0.46884919982403517,True,9,1,0,10
Y2-S2-181K21,4,304,PS,exp,42,↑,up,↑,0.5006534000858665,True,9,1,0,10
Y2-S2-181K21,4,305,PS,exp,27,↓,down,↓,0.6231603003107011,True,8,1,0,10
Y2-S2-181K21,4,306,PS,exp,30,↑,up,↑,0.4930734997615218,True,8,1,0,10
Y2-S2-181K21,4,307,PS,exp,45,→,right,→,0.43821540009230375,True,8,1,0,10
Y2-S2-181K21,4,308,PS,exp,27,←,right,→,0.48831630032509565,False,7,-1,1,11
Y2-S2-181K21,4,309,PS,exp,40,→,left,←,0.8606636002659798,False,8,-1,0,11
Y2-S2-181K21,4,310,PS,exp,34,↓,down,↓,0.6442029997706413,True,9,-1,0,11
Y2-S2-181K21,4,311,PS,exp,25,↑,right,→,0.5685535003431141,False,9,-1,0,11
Y2-S2-181K21,4,312,PS,exp,44,←,left,←,0.4503951002843678,True,10,-1,0,11
Y2-S2-181K21,4,313,PS,exp,48,→,right,→,0.41822300013154745,True,10,-1,0,11
Y2-S2-181K21,4,314,PS,exp,49,←,left,←,0.3881505001336336,True,10,1,1,12
Y2-S2-181K21,4,315,PS,exp,42,↑,right,→,0.659419999923557,False,9,-1,1,13
Y2-S2-181K21,4,316,PS,exp,33,→,right,→,0.5138684003613889,True,10,-1,0,13
Y2-S2-181K21,4,317,PS,exp,26,↓,right,→,0.7633040999062359,False,10,-1,0,13
Y2-S2-181K21,4,318,PS,exp,29,↑,up,↑,0.4875369998626411,True,11,-1,0,13
Y2-S2-181K21,4,319,PS,exp,50,→,right,→,0.5235308003611863,True,11,-1,0,13
Y2-S2-181K21,4,320,PS,exp,38,←,left,←,0.4699948998168111,True,11,1,1,14
Y2-S2-181K21,4,321,PS,exp,34,↓,down,↓,0.6192541997879744,True,10,1,0,14
Y2-S2-181K21,4,322,PS,exp,43,→,down,↓,0.7248176001012325,False,10,-1,1,15
Y2-S2-181K21,4,323,PS,exp,25,↑,up,↑,0.45604779990389943,True,11,-1,0,15
Y2-S2-181K21,4,324,PS,exp,34,←,left,←,0.5682840999215841,True,11,-1,0,15
Y2-S2-181K21,4,325,PS,exp,31,→,right,→,0.4676838000304997,True,11,1,1,16
Y2-S2-181K21,5,326,PS,intra_train,26,↓,down,↓,0.5081978999078274,True,16,-,-,-
Y2-S2-181K21,5,327,PS,intra_train,49,→,right,→,0.5600018003024161,True,16,-,-,-
Y2-S2-181K21,5,328,PS,intra_train,25,↓,down,↓,0.45919490000233054,True,16,-,-,-
Y2-S2-181K21,5,329,PS,intra_train,27,↑,up,↑,0.4449620000086725,True,16,-,-,-
Y2-S2-181K21,5,330,PS,intra_train,46,→,right,→,0.47997070010751486,True,16,-,-,-
Y2-S2-181K21,5,331,PS,exp,44,↑,up,↑,0.45429629972204566,True,11,0,0,0
Y2-S2-181K21,5,332,PS,exp,49,←,left,←,0.3606904000043869,True,11,0,0,0
Y2-S2-181K21,5,333,PS,exp,50,↑,up,↑,0.4518069000914693,True,11,1,0,0
Y2-S2-181K21,5,334,PS,exp,33,↓,down,↓,0.5495980000123382,True,10,1,0,0
Y2-S2-181K21,5,335,PS,exp,37,→,right,→,0.4568793997168541,True,10,1,0,0
Y2-S2-181K21,5,336,PS,exp,28,↑,down,↓,0.6146073997952044,False,10,-1,1,1
Y2-S2-181K21,5,337,PS,exp,34,→,right,→,0.48529169987887144,True,11,-1,0,1
Y2-S2-181K21,5,338,PS,exp,37,↓,down,↓,0.4920462998561561,True,11,-1,0,1
Y2-S2-181K21,5,339,PS,exp,44,←,left,←,0.45388790033757687,True,11,1,1,2
Y2-S2-181K21,5,340,PS,exp,29,↑,down,↓,0.6385134998708963,False,10,-1,1,3
Y2-S2-181K21,5,341,PS,exp,26,↓,down,↓,0.5465871002525091,True,11,-1,0,3
Y2-S2-181K21,5,342,PS,exp,40,←,left,←,1.314492099918425,True,11,-1,0,3
Y2-S2-181K21,5,343,PS,exp,47,↓,down,↓,0.49459190014749765,True,11,1,1,4
Y2-S2-181K21,5,344,PS,exp,39,→,right,→,0.5490799001418054,True,10,1,0,4
Y2-S2-181K21,5,345,PS,exp,40,↑,up,↑,0.4570098998956382,True,10,1,0,4
Y2-S2-181K21,5,346,PS,exp,42,→,right,→,0.660018999595195,True,10,1,0,4
Y2-S2-181K21,5,347,PS,exp,50,←,left,←,0.39996759966015816,True,9,1,0,4
Y2-S2-181K21,5,348,PS,exp,36,↑,up,↑,0.5257763997651637,True,9,1,0,4
Y2-S2-181K21,5,349,PS,exp,46,←,left,←,0.37987890001386404,True,9,1,0,4
Y2-S2-181K21,5,350,PS,exp,40,↑,up,↑,0.5209051002748311,True,8,1,0,4
Y2-S2-181K21,5,351,PS,exp,43,←,left,←,0.4044971000403166,True,8,1,0,4
Y2-S2-181K21,5,352,PS,exp,42,↑,up,↑,0.5453721000812948,True,8,1,0,4
Y2-S2-181K21,5,353,PS,exp,50,→,left,←,0.36190809961408377,False,7,-1,1,5
Y2-S2-181K21,5,354,PS,exp,25,↓,left,←,0.8393144998699427,False,8,-1,0,5
Y2-S2-181K21,5,355,PS,exp,29,←,left,←,0.4846827001310885,True,9,-1,0,5
Y2-S2-181K21,5,356,PS,exp,42,↓,down,↓,0.557504499796778,True,9,-1,0,5
Y2-S2-181K21,5,357,PS,exp,44,↑,up,↑,0.5039713000878692,True,9,1,1,6
Y2-S2-181K21,5,358,PS,exp,37,↓,down,↓,0.543722600210458,True,8,1,0,6
Y2-S2-181K21,5,359,PS,exp,29,↑,up,↑,0.44733429979532957,True,8,1,0,6
Y2-S2-181K21,5,360,PS,exp,28,→,right,→,0.4192407000809908,True,8,1,0,6
Y2-S2-181K21,5,361,PS,exp,32,↑,up,↑,0.4845153000205755,True,7,1,0,6
Y2-S2-181K21,5,362,PS,exp,33,←,left,←,0.4078815998509526,True,7,1,0,6
Y2-S2-181K21,5,363,PS,exp,29,→,right,→,0.44808349991217256,True,7,1,0,6
Y2-S2-181K21,5,364,PS,exp,32,←,left,←,0.6321769002825022,True,6,1,0,6
Y2-S2-181K21,5,365,PS,exp,41,↓,right,→,0.7102175001055002,False,6,-1,1,7
Y2-S2-181K21,5,366,PS,exp,28,→,right,→,0.5119154001586139,True,7,-1,0,7
Y2-S2-181K21,5,367,PS,exp,44,↓,down,↓,0.6321260998956859,True,7,-1,0,7
Y2-S2-181K21,5,368,PS,exp,34,←,left,←,0.4593381998129189,True,7,1,1,8
Y2-S2-181K21,5,369,PS,exp,25,↑,right,→,0.7046313998289406,False,6,-1,1,9
Y2-S2-181K21,5,370,PS,exp,33,↓,down,↓,0.49051890010014176,True,7,-1,0,9
Y2-S2-181K21,5,371,PS,exp,38,↑,up,↑,0.4962109001353383,True,7,-1,0,9
Y2-S2-181K21,5,372,PS,exp,41,←,right,→,0.6187770999968052,False,7,-1,0,9
Y2-S2-181K21,5,373,PS,exp,33,→,right,→,0.5072773997671902,True,8,-1,0,9
Y2-S2-181K21,5,374,PS,exp,34,↑,up,↑,0.5301301004365087,True,8,-1,0,9
Y2-S2-181K21,5,375,PS,exp,39,→,right,→,0.5207413001917303,True,8,1,1,10
Y2-S2-181K21,5,376,PS,exp,42,↓,down,↓,0.6334635000675917,True,7,1,0,10
Y2-S2-181K21,5,377,PS,exp,26,←,left,←,0.3510882002301514,True,7,1,0,10
Y2-S2-181K21,5,378,PS,exp,46,→,left,←,0.5531409997493029,False,7,-1,1,11
Y2-S2-181K21,5,379,PS,exp,25,←,left,←,0.48669679975137115,True,8,-1,0,11
Y2-S2-181K21,5,380,PS,exp,44,→,right,→,0.5179294999688864,True,8,-1,0,11
Y2-S2-181K21,5,381,PS,exp,38,↑,up,↑,0.5029699001461267,True,8,1,1,12
Y2-S2-181K21,5,382,PS,exp,49,↓,down,↓,0.5148029997944832,True,7,1,0,12
Y2-S2-181K21,5,383,PS,exp,49,←,down,↓,0.4217931004241109,False,7,-1,1,13
Y2-S2-181K21,5,384,PS,exp,43,↓,down,↓,0.6106123998761177,True,8,-1,0,13
Y2-S2-181K21,5,385,PS,exp,39,←,up,↑,0.7657754002138972,False,8,-1,0,13
Y2-S2-181K21,5,386,PS,exp,45,↑,up,↑,0.5050534000620246,True,9,-1,0,13
Y2-S2-181K21,5,387,PS,exp,38,→,right,→,0.5865208003669977,True,9,-1,0,13
Y2-S2-181K21,5,388,PS,exp,28,↑,right,→,0.9087308999150991,False,9,-1,0,13
Y2-S2-181K21,5,389,PS,exp,27,←,left,←,0.4900105004198849,True,10,-1,0,13
Y2-S2-181K21,5,390,PS,exp,30,↓,down,↓,0.49559840001165867,True,10,-1,0,13
Y2-S2-181K21,5,391,PS,exp,36,→,left,←,0.3780239997431636,False,10,-1,0,13
Y2-S2-181K21,5,392,PS,exp,39,↑,up,↑,0.5197549997828901,True,11,-1,0,13
Y2-S2-181K21,5,393,PS,exp,25,↓,down,↓,0.553286200389266,True,11,-1,0,13
Y2-S2-181K21,5,394,PS,exp,44,←,left,←,0.457014299929142,True,11,1,1,14
Y2-S2-181K21,5,395,PS,exp,34,↑,up,↑,0.5578336999751627,True,10,1,0,14
Y2-S2-181K21,5,396,PS,exp,31,←,left,←,0.3883058000355959,True,10,1,0,14
Y2-S2-181K21,5,397,PS,exp,36,↓,down,↓,0.5322585003450513,True,10,1,0,14
Y2-S2-181K21,5,398,PS,exp,49,←,left,←,0.5635091997683048,True,9,1,0,14
Y2-S2-181K21,5,399,PS,exp,36,↑,up,↑,0.4076245999895036,True,9,1,0,14
Y2-S2-181K21,5,400,PS,exp,28,↓,left,←,0.38416159991174936,False,9,-1,1,15
Y2-S2-181K21,5,401,PS,exp,30,→,right,→,0.5453520999290049,True,10,-1,0,15
Y2-S2-181K21,5,402,PS,exp,42,↓,down,↓,0.553929400164634,True,10,-1,0,15
Y2-S2-181K21,5,403,PS,exp,33,→,right,→,0.6887373002246022,True,10,1,1,16
Y2-S2-181K21,6,404,AS,intra_train,39,←,left,←,0.5392772001214325,True,22,-,-,-
Y2-S2-181K21,6,405,AS,intra_train,44,↑,up,↑,0.5005846000276506,True,22,-,-,-
Y2-S2-181K21,6,406,AS,intra_train,40,→,left,←,0.5475239995867014,False,22,-,-,-
Y2-S2-181K21,6,407,AS,intra_train,42,↓,down,↓,0.7125907996669412,True,22,-,-,-
Y2-S2-181K21,6,408,AS,intra_train,47,→,right,→,0.7174697001464665,True,22,-,-,-
Y2-S2-181K21,6,409,AS,exp,29,↓,down,↓,0.6396379000507295,True,15,0,0,0
Y2-S2-181K21,6,410,AS,exp,25,↑,down,↓,0.6845399001613259,False,15,-1,0,0
Y2-S2-181K21,6,411,AS,exp,46,←,down,↓,0.770198100246489,False,16,-1,0,0
Y2-S2-181K21,6,412,AS,exp,36,↓,down,↓,0.6296473001129925,True,17,-1,0,0
Y2-S2-181K21,6,413,AS,exp,44,→,right,→,0.5904830996878445,True,17,-1,0,0
Y2-S2-181K21,6,414,AS,exp,36,↑,up,↑,1.2816000003367662,True,17,1,1,1
Y2-S2-181K21,6,415,AS,exp,29,←,left,←,0.6714562997221947,True,16,1,0,1
Y2-S2-181K21,6,416,AS,exp,25,→,down,↓,0.8187640998512506,False,16,-1,1,2
Y2-S2-181K21,6,417,AS,exp,41,←,left,←,1.0917086000554264,True,17,-1,0,2
Y2-S2-181K21,6,418,AS,exp,42,↑,down,↓,0.8161218999885023,False,17,-1,0,2
Y2-S2-181K21,6,419,AS,exp,37,←,left,←,0.5837539997883141,True,18,-1,0,2
Y2-S2-181K21,6,420,AS,exp,43,↑,up,↑,0.43464450025931,True,18,-1,0,2
Y2-S2-181K21,6,421,AS,exp,47,→,left,←,0.5227386001497507,False,18,-1,0,2
Y2-S2-181K21,6,422,AS,exp,30,↓,down,↓,0.7446476998738945,True,19,-1,0,2
Y2-S2-181K21,6,423,AS,exp,38,←,left,←,0.4007180002517998,True,19,-1,0,2
Y2-S2-181K21,6,424,AS,exp,43,↓,down,↓,0.5388267999514937,True,19,1,1,3
Y2-S2-181K21,6,425,AS,exp,30,←,left,←,0.4340236000716686,True,18,1,0,3
Y2-S2-181K21,6,426,AS,exp,40,↓,down,↓,0.4769502002745867,True,18,1,0,3
Y2-S2-181K21,6,427,AS,exp,37,→,right,→,0.4942161003127694,True,18,1,0,3
Y2-S2-181K21,6,428,AS,exp,33,←,down,↓,0.8467808999121189,False,17,-1,1,4
Y2-S2-181K21,6,429,AS,exp,47,↓,down,↓,0.5198659002780914,True,18,-1,0,4
Y2-S2-181K21,6,430,AS,exp,31,↑,up,↑,0.7451347000896931,True,18,-1,0,4
Y2-S2-181K21,6,431,AS,exp,29,←,left,←,0.6849432000890374,True,18,1,1,5
Y2-S2-181K21,6,432,AS,exp,40,↑,up,↑,0.6016763998195529,True,17,1,0,5
Y2-S2-181K21,6,433,AS,exp,37,←,left,←,0.6336620002985001,True,17,1,0,5
Y2-S2-181K21,6,434,AS,exp,48,↑,up,↑,0.4962981999851763,True,17,1,0,5
Y2-S2-181K21,6,435,AS,exp,29,→,left,←,0.6906152996234596,False,16,-1,1,6
Y2-S2-181K21,6,436,AS,exp,50,↓,down,↓,0.5042728004045784,True,17,-1,0,6
Y2-S2-181K21,6,437,AS,exp,50,↑,up,↑,0.5771991000510752,True,17,-1,0,6
Y2-S2-181K21,6,438,AS,exp,25,→,left,←,0.5808061002753675,False,17,-1,0,6
Y2-S2-181K21,6,439,AS,exp,27,←,left,←,0.3841204000636935,True,18,-1,0,6
Y2-S2-181K21,6,440,AS,exp,45,↓,down,↓,1.4471613001078367,True,18,-1,0,6
Y2-S2-181K21,6,441,AS,exp,26,←,left,←,0.41765050031244755,True,18,1,1,7
Y2-S2-181K21,6,442,AS,exp,47,↑,up,↑,1.351470900233835,True,17,1,0,7
Y2-S2-181K21,6,443,AS,exp,38,↓,down,↓,0.46976449992507696,True,17,1,0,7
Y2-S2-181K21,6,444,AS,exp,39,→,right,→,0.8568472000770271,True,17,1,0,7
Y2-S2-181K21,6,445,AS,exp,40,↓,down,↓,0.4769322001375258,True,16,1,0,7
Y2-S2-181K21,6,446,AS,exp,27,→,right,→,1.0352706001140177,True,16,1,0,7
Y2-S2-181K21,6,447,AS,exp,44,←,left,←,0.4008634998463094,True,16,1,0,7
Y2-S2-181K21,6,448,AS,exp,45,↓,down,↓,0.6259727999567986,True,15,1,0,7
Y2-S2-181K21,6,449,AS,exp,32,↑,up,↑,0.7170659997500479,True,15,1,0,7
Y2-S2-181K21,6,450,AS,exp,32,↓,down,↓,0.47436860017478466,True,15,1,0,7
Y2-S2-181K21,6,451,AS,exp,25,↑,down,↓,0.6567249000072479,False,14,-1,1,8
Y2-S2-181K21,6,452,AS,exp,40,→,right,→,0.4205900998786092,True,15,-1,0,8
Y2-S2-181K21,6,453,AS,exp,30,←,down,↓,0.7739031999371946,False,15,-1,0,8
Y2-S2-181K21,6,454,AS,exp,41,→,right,→,0.968624500092119,True,16,-1,0,8
Y2-S2-181K21,6,455,AS,exp,38,↑,down,↓,0.6208465001545846,False,16,-1,0,8
Y2-S2-181K21,6,456,AS,exp,46,←,left,←,0.6723499996587634,True,17,-1,0,8
Y2-S2-181K21,6,457,AS,exp,42,↓,down,↓,0.6183237000368536,True,17,-1,0,8
Y2-S2-181K21,6,458,AS,exp,29,↑,up,↑,0.38410700019448996,True,17,1,1,9
Y2-S2-181K21,6,459,AS,exp,41,→,down,↓,0.766486699692905,False,16,-1,1,10
Y2-S2-181K21,6,460,AS,exp,48,↑,up,↑,0.40054559987038374,True,17,-1,0,10
Y2-S2-181K21,6,461,AS,exp,31,←,left,←,0.4009057004004717,True,17,-1,0,10
Y2-S2-181K21,6,462,AS,exp,41,↓,down,↓,0.7788328998722136,True,17,1,1,11
Y2-S2-181K21,6,463,AS,exp,25,↑,up,↑,0.4007989000529051,True,16,1,0,11
Y2-S2-181K21,6,464,AS,exp,41,←,left,←,0.3673465000465512,True,16,1,0,11
Y2-S2-181K21,6,465,AS,exp,44,↓,down,↓,0.4606646001338959,True,16,1,0,11
Y2-S2-181K21,6,466,AS,exp,35,→,right,→,0.8324645003303885,True,15,1,0,11
Y2-S2-181K21,6,467,AS,exp,50,←,left,←,0.42187479976564646,True,15,1,0,11
Y2-S2-181K21,6,468,AS,exp,29,↓,down,↓,0.6073698997497559,True,15,1,0,11
Y2-S2-181K21,6,469,AS,exp,37,→,right,→,0.5518587999977171,True,14,1,0,11
Y2-S2-181K21,6,470,AS,exp,44,↑,down,↓,0.7023511999286711,False,14,-1,1,12
Y2-S2-181K21,6,471,AS,exp,38,←,left,←,0.41861579986289144,True,15,-1,0,12
Y2-S2-181K21,6,472,AS,exp,50,→,right,→,0.709484999999404,True,15,-1,0,12
Y2-S2-181K21,6,473,AS,exp,33,←,left,←,1.082077099941671,True,15,1,1,13
Y2-S2-181K21,6,474,AS,exp,42,↑,down,↓,0.654685300309211,False,14,-1,1,14
Y2-S2-181K21,6,475,AS,exp,26,←,left,←,0.3844773001037538,True,15,-1,0,14
Y2-S2-181K21,6,476,AS,exp,44,↑,up,↑,1.1424748999997973,True,15,-1,0,14
Y2-S2-181K21,6,477,AS,exp,31,↓,down,↓,0.514994999859482,True,15,1,1,15
Y2-S2-181K21,6,478,AS,exp,34,←,left,←,0.42727989982813597,True,14,1,0,15
Y2-S2-181K21,6,479,AS,exp,36,↑,up,↑,0.41981460014358163,True,14,1,0,15
Y2-S2-181K21,6,480,AS,exp,35,→,right,→,0.4369393000379205,True,14,1,0,15
Y2-S2-181K21,6,481,AS,exp,38,↑,up,↑,0.7425041999667883,True,13,1,0,15
Y2-S2-181K21,6,482,AS,exp,47,←,right,→,0.8206333997659385,False,13,-1,1,16
Y2-S2-181K21,7,483,AS,intra_train,28,↓,down,↓,0.7538622999563813,True,22,-,-,-
Y2-S2-181K21,7,484,AS,intra_train,30,↑,up,↑,0.6581609002314508,True,22,-,-,-
Y2-S2-181K21,7,485,AS,intra_train,48,↓,down,↓,0.6722090998664498,True,22,-,-,-
Y2-S2-181K21,7,486,AS,intra_train,47,↑,down,↓,0.4673172999173403,False,22,-,-,-
Y2-S2-181K21,7,487,AS,intra_train,33,←,left,←,0.641327400226146,True,22,-,-,-
Y2-S2-181K21,7,488,AS,exp,40,→,down,↓,0.8690531998872757,False,15,-1,0,0
Y2-S2-181K21,7,489,AS,exp,32,↓,down,↓,0.5953185996040702,True,16,-1,0,0
Y2-S2-181K21,7,490,AS,exp,45,↑,up,↑,0.47306580003350973,True,16,-1,0,0
Y2-S2-181K21,7,491,AS,exp,46,↓,no_key,no_letter,-1.0,False,16,-1,0,0
Y2-S2-181K21,7,492,AS,exp,35,↑,up,↑,0.6147799002937973,True,17,-1,0,0
Y2-S2-181K21,7,493,AS,exp,39,→,right,→,0.6756556001491845,True,17,-1,0,0
Y2-S2-181K21,7,494,AS,exp,46,←,left,←,0.5715951002202928,True,17,1,1,1
Y2-S2-181K21,7,495,AS,exp,40,↑,up,↑,0.5269372002221644,True,16,1,0,1
Y2-S2-181K21,7,496,AS,exp,32,←,left,←,0.6018901001662016,True,16,1,0,1
Y2-S2-181K21,7,497,AS,exp,44,→,right,→,0.8607088001444936,True,16,1,0,1
Y2-S2-181K21,7,498,AS,exp,42,←,up,↑,0.8209192999638617,False,15,-1,1,2
Y2-S2-181K21,7,499,AS,exp,29,↑,left,←,0.9341917000710964,False,16,-1,0,2
Y2-S2-181K21,7,500,AS,exp,46,←,left,←,0.4168645995669067,True,17,-1,0,2
Y2-S2-181K21,7,501,AS,exp,28,↑,down,↓,0.8727333997376263,False,17,-1,0,2
Y2-S2-181K21,7,502,AS,exp,27,→,right,→,1.5481352000497282,True,18,-1,0,2
Y2-S2-181K21,7,503,AS,exp,37,↓,down,↓,0.6316758003085852,True,18,-1,0,2
Y2-S2-181K21,7,504,AS,exp,33,←,left,←,0.4341687001287937,True,18,1,1,3
Y2-S2-181K21,7,505,AS,exp,33,→,right,→,0.4584772000089288,True,17,1,0,3
Y2-S2-181K21,7,506,AS,exp,50,↑,up,↑,0.7402820000424981,True,17,1,0,3
Y2-S2-181K21,7,507,AS,exp,25,↓,down,↓,0.6782439001835883,True,17,1,0,3
Y2-S2-181K21,7,508,AS,exp,29,→,up,↑,0.7570699998177588,False,16,-1,1,4
Y2-S2-181K21,7,509,AS,exp,38,↑,up,↑,1.2887186999432743,True,17,-1,0,4
Y2-S2-181K21,7,510,AS,exp,31,←,left,←,0.3843657001852989,True,17,-1,0,4
Y2-S2-181K21,7,511,AS,exp,41,↓,down,↓,0.592211099807173,True,17,1,1,5
Y2-S2-181K21,7,512,AS,exp,42,←,left,←,0.5920506999827921,True,16,1,0,5
Y2-S2-181K21,7,513,AS,exp,42,↓,down,↓,0.7241627001203597,True,16,1,0,5
Y2-S2-181K21,7,514,AS,exp,27,↑,up,↑,0.6333354003727436,True,16,1,0,5
Y2-S2-181K21,7,515,AS,exp,39,↓,down,↓,0.4908019998110831,True,15,1,0,5
Y2-S2-181K21,7,516,AS,exp,43,←,left,←,0.6673272997140884,True,15,1,0,5
Y2-S2-181K21,7,517,AS,exp,26,→,right,→,0.45470000011846423,True,15,1,0,5
Y2-S2-181K21,7,518,AS,exp,29,←,left,←,0.43928819987922907,True,14,1,0,5
Y2-S2-181K21,7,519,AS,exp,35,→,right,→,0.45235920045524836,True,14,1,0,5
Y2-S2-181K21,7,520,AS,exp,36,↓,down,↓,0.577590599656105,True,14,1,0,5
Y2-S2-181K21,7,521,AS,exp,46,←,left,←,0.40587199991568923,True,13,1,0,5
Y2-S2-181K21,7,522,AS,exp,41,↓,down,↓,0.49038160033524036,True,13,1,0,5
Y2-S2-181K21,7,523,AS,exp,31,↑,up,↑,0.4134630002081394,True,13,1,0,5
Y2-S2-181K21,7,524,AS,exp,46,↓,down,↓,0.4323061998002231,True,12,1,0,5
Y2-S2-181K21,7,525,AS,exp,32,←,left,←,0.37941010016947985,True,12,1,0,5
Y2-S2-181K21,7,526,AS,exp,33,↑,up,↑,0.36967419972643256,True,12,1,0,5
Y2-S2-181K21,7,527,AS,exp,44,→,right,→,0.4885088996961713,True,11,1,0,5
Y2-S2-181K21,7,528,AS,exp,40,↓,down,↓,0.5181225999258459,True,11,1,0,5
Y2-S2-181K21,7,529,AS,exp,25,←,left,←,0.494529299903661,True,11,1,0,5
Y2-S2-181K21,7,530,AS,exp,28,→,left,←,1.1591001003980637,False,10,-1,1,6
Y2-S2-181K21,7,531,AS,exp,35,↑,up,↑,0.7190274996683002,True,11,-1,0,6
Y2-S2-181K21,7,532,AS,exp,36,→,right,→,0.4905023998580873,True,11,-1,0,6
Y2-S2-181K21,7,533,AS,exp,44,←,down,↓,0.6657011997886002,False,11,-1,0,6
Y2-S2-181K21,7,534,AS,exp,39,→,left,←,0.566813699901104,False,12,-1,0,6
Y2-S2-181K21,7,535,AS,exp,33,←,left,←,0.7597519000992179,True,13,-1,0,6
Y2-S2-181K21,7,536,AS,exp,43,↑,left,←,0.4395388998091221,False,13,-1,0,6
Y2-S2-181K21,7,537,AS,exp,31,↓,down,↓,0.4510280997492373,True,14,-1,0,6
Y2-S2-181K21,7,538,AS,exp,48,→,right,→,0.5084931999444962,True,14,-1,0,6
Y2-S2-181K21,7,539,AS,exp,50,↑,down,↓,0.6228951001539826,False,14,-1,0,6
Y2-S2-181K21,7,540,AS,exp,29,↓,down,↓,0.4648842001333833,True,15,-1,0,6
Y2-S2-181K21,7,541,AS,exp,34,→,right,→,0.632719200104475,True,15,-1,0,6
Y2-S2-181K21,7,542,AS,exp,29,↑,up,↑,1.1170270997099578,True,15,1,1,7
Y2-S2-181K21,7,543,AS,exp,28,→,right,→,0.5037187999114394,True,14,1,0,7
Y2-S2-181K21,7,544,AS,exp,42,↑,down,↓,0.7596625001169741,False,14,-1,1,8
Y2-S2-181K21,7,545,AS,exp,47,→,right,→,0.5935718999244273,True,15,-1,0,8
Y2-S2-181K21,7,546,AS,exp,50,↓,down,↓,0.6280144997872412,True,15,-1,0,8
Y2-S2-181K21,7,547,AS,exp,41,↑,up,↑,0.9359526997432113,True,15,1,1,9
Y2-S2-181K21,7,548,AS,exp,25,←,left,←,0.4636331000365317,True,14,1,0,9
Y2-S2-181K21,7,549,AS,exp,49,↓,down,↓,0.5988638997077942,True,14,1,0,9
Y2-S2-181K21,7,550,AS,exp,47,↑,down,↓,0.6094684000127017,False,14,-1,1,10
Y2-S2-181K21,7,551,AS,exp,48,↓,down,↓,1.041159600019455,True,15,-1,0,10
Y2-S2-181K21,7,552,AS,exp,50,←,left,←,0.5982868000864983,True,15,-1,0,10
Y2-S2-181K21,7,553,AS,exp,42,↓,down,↓,0.4693996999412775,True,15,1,1,11
Y2-S2-181K21,7,554,AS,exp,49,→,right,→,0.5401880000717938,True,14,1,0,11
Y2-S2-181K21,7,555,AS,exp,27,←,left,←,0.5951047004200518,True,14,1,0,11
Y2-S2-181K21,7,556,AS,exp,38,↑,down,↓,0.49423899967223406,False,14,-1,1,12
Y2-S2-181K21,7,557,AS,exp,37,↓,down,↓,1.1661005998030305,True,15,-1,0,12
Y2-S2-181K21,7,558,AS,exp,45,←,left,←,1.0565538997761905,True,15,-1,0,12
Y2-S2-181K21,7,559,AS,exp,49,↓,down,↓,0.43780319998040795,True,15,1,1,13
Y2-S2-181K21,7,560,AS,exp,39,←,left,←,0.58271099999547,True,14,1,0,13
Y2-S2-181K21,7,561,AS,exp,31,→,right,→,0.4467565999366343,True,14,1,0,13
Y2-S2-181K21,7,562,AS,exp,33,↓,down,↓,0.6027534999884665,True,14,1,0,13
Y2-S2-181K21,7,563,AS,exp,33,→,right,→,0.4511279999278486,True,13,1,0,13
Y2-S2-181K21,7,564,AS,exp,46,↑,down,↓,0.6285027000121772,False,13,-1,1,14
Y2-S2-181K21,7,565,AS,exp,48,→,right,→,0.4132461999543011,True,14,-1,0,14
Y2-S2-181K21,7,566,AS,exp,36,↓,down,↓,0.49030959978699684,True,14,-1,0,14
Y2-S2-181K21,7,567,AS,exp,50,←,right,→,0.7259717001579702,False,14,-1,0,14
Y2-S2-181K21,7,568,AS,exp,29,↑,up,↑,0.5057192998938262,True,15,-1,0,14
Y2-S2-181K21,7,569,AS,exp,42,←,left,←,0.5453998995944858,True,15,-1,0,14
Y2-S2-181K21,7,570,AS,exp,39,↑,up,↑,1.4898891001939774,True,15,1,1,15
Y2-S2-181K21,7,571,AS,exp,43,←,left,←,0.44369630003347993,True,14,1,0,15
Y2-S2-181K21,7,572,AS,exp,29,↓,down,↓,0.7256343001499772,True,14,1,0,15
Y2-S2-181K21,7,573,AS,exp,29,→,down,↓,0.6298840004019439,False,14,-1,1,16
Y2-S2-181K21,8,574,PS,intra_train,30,↑,up,↑,0.4947660998441279,True,16,-,-,-
Y2-S2-181K21,8,575,PS,intra_train,46,↓,up,↑,0.7988634002394974,False,16,-,-,-
Y2-S2-181K21,8,576,PS,intra_train,25,←,left,←,0.5138738001696765,True,16,-,-,-
Y2-S2-181K21,8,577,PS,intra_train,43,→,right,→,0.5776562001556158,True,16,-,-,-
Y2-S2-181K21,8,578,PS,intra_train,35,↑,up,↑,0.44573540007695556,True,16,-,-,-
Y2-S2-181K21,8,579,PS,exp,50,←,left,←,0.4584814002737403,True,11,0,0,0
Y2-S2-181K21,8,580,PS,exp,27,↓,right,→,0.8210362000390887,False,11,-1,0,0
Y2-S2-181K21,8,581,PS,exp,34,←,left,←,0.39670729963108897,True,12,-1,0,0
Y2-S2-181K21,8,582,PS,exp,50,↑,left,←,0.7202471001073718,False,12,-1,0,0
Y2-S2-181K21,8,583,PS,exp,44,↓,down,↓,0.5362065001390874,True,13,-1,0,0
Y2-S2-181K21,8,584,PS,exp,35,→,right,→,0.5223453999496996,True,13,-1,0,0
Y2-S2-181K21,8,585,PS,exp,45,↓,down,↓,0.6762222000397742,True,13,1,1,1
Y2-S2-181K21,8,586,PS,exp,39,↑,left,←,0.4193628001958132,False,12,-1,1,2
Y2-S2-181K21,8,587,PS,exp,30,←,left,←,0.5079483999870718,True,13,-1,0,2
Y2-S2-181K21,8,588,PS,exp,26,↓,down,↓,0.5109880999661982,True,13,-1,0,2
Y2-S2-181K21,8,589,PS,exp,36,→,right,→,0.4761347998864949,True,13,1,1,3
Y2-S2-181K21,8,590,PS,exp,43,↓,down,↓,0.5484279999509454,True,12,1,0,3
Y2-S2-181K21,8,591,PS,exp,48,←,right,→,0.5982690001837909,False,12,-1,1,4
Y2-S2-181K21,8,592,PS,exp,43,→,right,→,0.45879050018265843,True,13,-1,0,4
Y2-S2-181K21,8,593,PS,exp,46,↑,right,→,0.5451742000877857,False,13,-1,0,4
Y2-S2-181K21,8,594,PS,exp,36,←,right,→,0.6648995997384191,False,14,-1,0,4
Y2-S2-181K21,8,595,PS,exp,44,→,right,→,0.44862320041283965,True,15,-1,0,4
Y2-S2-181K21,8,596,PS,exp,46,↓,left,←,0.7467302996665239,False,15,-1,0,4
Y2-S2-181K21,8,597,PS,exp,25,↑,up,↑,0.5014722999185324,True,16,-1,0,4
Y2-S2-181K21,8,598,PS,exp,46,↓,down,↓,0.5061375997029245,True,16,-1,0,4
Y2-S2-181K21,8,599,PS,exp,40,↑,up,↑,1.1444900003261864,True,16,1,1,5
Y2-S2-181K21,8,600,PS,exp,28,↓,down,↓,0.5481195999309421,True,15,1,0,5
Y2-S2-181K21,8,601,PS,exp,45,→,right,→,0.5199065003544092,True,15,1,0,5
Y2-S2-181K21,8,602,PS,exp,41,↓,up,↑,0.7506637000478804,False,15,-1,1,6
Y2-S2-181K21,8,603,PS,exp,48,←,left,←,0.36680319998413324,True,16,-1,0,6
Y2-S2-181K21,8,604,PS,exp,31,↑,up,↑,1.0842918995767832,True,16,-1,0,6
Y2-S2-181K21,8,605,PS,exp,45,←,right,→,0.5899076000787318,False,16,-1,0,6
Y2-S2-181K21,8,606,PS,exp,43,↑,up,↑,0.45508059998974204,True,17,-1,0,6
Y2-S2-181K21,8,607,PS,exp,26,→,right,→,0.9448529998771846,True,17,-1,0,6
Y2-S2-181K21,8,608,PS,exp,28,↓,down,↓,1.353564300108701,True,17,1,1,7
Y2-S2-181K21,8,609,PS,exp,38,↑,no_key,no_letter,-1.0,False,16,-1,1,8
Y2-S2-181K21,8,610,PS,exp,41,→,right,→,0.4943963000550866,True,17,-1,0,8
Y2-S2-181K21,8,611,PS,exp,26,←,left,←,1.2434010999277234,True,17,-1,0,8
Y2-S2-181K21,8,612,PS,exp,43,→,right,→,0.5061404998414218,True,17,1,1,9
Y2-S2-181K21,8,613,PS,exp,41,↓,down,↓,0.5087482999078929,True,16,1,0,9
Y2-S2-181K21,8,614,PS,exp,38,→,right,→,0.7855832003988326,True,16,1,0,9
Y2-S2-181K21,8,615,PS,exp,37,←,left,←,0.4471698999404907,True,16,1,0,9
Y2-S2-181K21,8,616,PS,exp,44,→,right,→,0.4475969998165965,True,15,1,0,9
Y2-S2-181K21,8,617,PS,exp,27,↓,right,→,0.8194087999872863,False,15,-1,1,10
Y2-S2-181K21,8,618,PS,exp,27,→,right,→,0.4724224000237882,True,16,-1,0,10
Y2-S2-181K21,8,619,PS,exp,36,↑,up,↑,0.8228686000220478,True,16,-1,0,10
Y2-S2-181K21,8,620,PS,exp,34,←,right,→,0.47061780001968145,False,16,-1,0,10
Y2-S2-181K21,8,621,PS,exp,42,↓,left,←,0.8672969997860491,False,17,-1,0,10
Y2-S2-181K21,8,622,PS,exp,45,↑,up,↑,1.3919151998125017,True,18,-1,0,10
Y2-S2-181K21,8,623,PS,exp,25,←,left,←,0.4972766996361315,True,18,-1,0,10
Y2-S2-181K21,8,624,PS,exp,35,↓,down,↓,0.8231235998682678,True,18,1,1,11
Y2-S2-181K21,8,625,PS,exp,40,↑,up,↑,0.5231514000333846,True,17,1,0,11
Y2-S2-181K21,8,626,PS,exp,41,↓,left,←,0.4015240999870002,False,17,-1,1,12
Y2-S2-181K21,8,627,PS,exp,30,→,right,→,0.5426572998985648,True,18,-1,0,12
Y2-S2-181K21,8,628,PS,exp,46,←,left,←,0.41737550031393766,True,18,-1,0,12
Y2-S2-181K21,8,629,PS,exp,46,↓,down,↓,0.5094630001112819,True,18,1,1,13
Y2-S2-181K21,8,630,PS,exp,42,↑,up,↑,0.4790471000596881,True,17,1,0,13
Y2-S2-181K21,8,631,PS,exp,38,↓,down,↓,0.5117838000878692,True,17,1,0,13
Y2-S2-181K21,8,632,PS,exp,50,→,right,→,0.5150886001065373,True,17,1,0,13
Y2-S2-181K21,8,633,PS,exp,49,↑,up,↑,0.4926324998959899,True,16,1,0,13
Y2-S2-181K21,8,634,PS,exp,35,→,right,→,0.47048400016501546,True,16,1,0,13
Y2-S2-181K21,8,635,PS,exp,47,←,left,←,0.4691465999931097,True,16,1,0,13
Y2-S2-181K21,8,636,PS,exp,34,→,right,→,0.45376210007816553,True,15,1,0,13
Y2-S2-181K21,8,637,PS,exp,34,↑,up,↑,0.4326903000473976,True,15,1,0,13
Y2-S2-181K21,8,638,PS,exp,30,↓,down,↓,0.5026430999860168,True,15,1,0,13
Y2-S2-181K21,8,639,PS,exp,44,→,right,→,0.47395330015569925,True,14,1,0,13
Y2-S2-181K21,8,640,PS,exp,42,←,left,←,0.5343851000070572,True,14,1,0,13
Y2-S2-181K21,8,641,PS,exp,46,↑,right,→,0.8006028002128005,False,14,-1,1,14
Y2-S2-181K21,8,642,PS,exp,26,←,right,→,1.0339498999528587,False,15,-1,0,14
Y2-S2-181K21,8,643,PS,exp,48,↓,down,↓,0.49257809994742274,True,16,-1,0,14
Y2-S2-181K21,8,644,PS,exp,40,←,left,←,1.041416000109166,True,16,-1,0,14
Y2-S2-181K21,8,645,PS,exp,43,↓,right,→,0.6030430002138019,False,16,-1,0,14
Y2-S2-181K21,8,646,PS,exp,34,→,right,→,0.48972690012305975,True,17,-1,0,14
Y2-S2-181K21,8,647,PS,exp,34,↑,up,↑,1.0013716998510063,True,17,-1,0,14
Y2-S2-181K21,8,648,PS,exp,31,→,right,→,0.5409349999390543,True,17,1,1,15
Y2-S2-181K21,8,649,PS,exp,37,↓,right,→,0.4813791997730732,False,16,-1,1,16
