PART_ID,Block_no,Trial_no,Block_type,Trial_type,CSI,Stim_letter,Key_pressed,letter_choose,Rt,Corr,Stimulus Time,Level,Reversal,Revs_count
Y2-S2-229K21,1,1,PS,train,34,←,left,←,0.7793895001523197,True,30,-,-,-
Y2-S2-229K21,1,2,PS,train,44,↓,down,↓,0.7406046001706272,True,30,-,-,-
Y2-S2-229K21,1,3,PS,train,46,←,left,←,0.6173527000937611,True,30,-,-,-
Y2-S2-229K21,1,4,PS,train,43,↑,up,↑,0.7137629000935704,True,30,-,-,-
Y2-S2-229K21,1,5,PS,train,35,→,right,→,0.5340197999030352,True,30,-,-,-
Y2-S2-229K21,1,6,PS,train,42,↑,up,↑,1.0726310999598354,True,30,-,-,-
Y2-S2-229K21,1,7,PS,train,28,→,right,→,0.5836899999994785,True,30,-,-,-
Y2-S2-229K21,1,8,PS,train,43,←,right,→,0.5842228000983596,False,30,-,-,-
Y2-S2-229K21,1,9,PS,train,26,→,right,→,1.0401132002007216,True,30,-,-,-
Y2-S2-229K21,1,10,PS,train,33,↑,up,↑,0.6006063998211175,True,30,-,-,-
Y2-S2-229K21,2,11,AS,train,26,→,right,→,0.7340863000135869,True,45,-,-,-
Y2-S2-229K21,2,12,AS,train,33,←,left,←,0.5843605999834836,True,45,-,-,-
Y2-S2-229K21,2,13,AS,train,41,→,right,→,0.684983299812302,True,45,-,-,-
Y2-S2-229K21,2,14,AS,train,31,←,left,←,0.7174989001359791,True,45,-,-,-
Y2-S2-229K21,2,15,AS,train,38,↑,up,↑,0.9648082999046892,True,45,-,-,-
Y2-S2-229K21,2,16,AS,train,42,→,right,→,0.6346744000911713,True,45,-,-,-
Y2-S2-229K21,2,17,AS,train,42,↓,down,↓,0.8339146999642253,True,45,-,-,-
Y2-S2-229K21,2,18,AS,train,26,↑,up,↑,0.6178411999717355,True,45,-,-,-
Y2-S2-229K21,2,19,AS,train,27,↓,right,→,0.568005699897185,False,45,-,-,-
Y2-S2-229K21,2,20,AS,train,43,←,left,←,0.7010361000429839,True,45,-,-,-
Y2-S2-229K21,-,21,PS,adaptive,30,→,down,↓,0.7060173000209033,False,10,-1,0,0
Y2-S2-229K21,-,22,PS,adaptive,25,↑,up,↑,0.6714939998928457,True,11,-1,0,0
Y2-S2-229K21,-,23,PS,adaptive,43,↓,down,↓,1.0705525998491794,True,11,-1,0,0
Y2-S2-229K21,-,24,PS,adaptive,37,←,left,←,0.8007290998939425,True,11,1,1,1
Y2-S2-229K21,-,25,PS,adaptive,43,→,right,→,0.5529369998257607,True,10,1,0,1
Y2-S2-229K21,-,26,PS,adaptive,31,↑,up,↑,1.4071176000870764,True,10,1,0,1
Y2-S2-229K21,-,27,PS,adaptive,27,←,left,←,0.5721776999998838,True,10,1,0,1
Y2-S2-229K21,-,28,PS,adaptive,34,↑,up,↑,0.7739857998676598,True,9,1,0,1
Y2-S2-229K21,-,29,PS,adaptive,47,→,right,→,0.6550334000494331,True,9,1,0,1
Y2-S2-229K21,-,30,PS,adaptive,26,↓,down,↓,0.6108909000176936,True,9,1,0,1
Y2-S2-229K21,-,31,PS,adaptive,50,→,right,→,1.1153065001126379,True,8,1,0,1
Y2-S2-229K21,-,32,PS,adaptive,46,←,right,→,0.7230477000121027,False,8,-1,1,2
Y2-S2-229K21,-,33,PS,adaptive,27,↓,left,←,0.8410400999709964,False,9,-1,0,2
Y2-S2-229K21,-,34,PS,adaptive,25,↑,right,→,0.832096999976784,False,10,-1,0,2
Y2-S2-229K21,-,35,PS,adaptive,48,↓,down,↓,0.6000506000127643,True,11,-1,0,2
Y2-S2-229K21,-,36,PS,adaptive,49,←,left,←,0.6125905001536012,True,11,-1,0,2
Y2-S2-229K21,-,37,PS,adaptive,39,↑,up,↑,0.6180513000581414,True,11,1,1,3
Y2-S2-229K21,-,38,PS,adaptive,49,↓,up,↑,1.0146729000844061,False,10,-1,1,4
Y2-S2-229K21,-,39,AS,adaptive,45,←,left,←,0.783231999957934,True,20,0,0,0
Y2-S2-229K21,-,40,AS,adaptive,28,↓,down,↓,0.6851552000734955,True,20,0,0,0
Y2-S2-229K21,-,41,AS,adaptive,31,←,left,←,0.7191844000481069,True,20,1,0,0
Y2-S2-229K21,-,42,AS,adaptive,39,↓,down,↓,0.7057721000164747,True,19,1,0,0
Y2-S2-229K21,-,43,AS,adaptive,37,↑,up,↑,0.7515137000009418,True,19,1,0,0
Y2-S2-229K21,-,44,AS,adaptive,37,←,left,←,0.6001255998853594,True,19,1,0,0
Y2-S2-229K21,-,45,AS,adaptive,27,→,left,←,1.0177394999191165,False,18,-1,1,1
Y2-S2-229K21,-,46,AS,adaptive,32,↓,down,↓,0.49510789988562465,True,19,-1,0,1
Y2-S2-229K21,-,47,AS,adaptive,37,←,left,←,0.5945702998433262,True,19,-1,0,1
Y2-S2-229K21,-,48,AS,adaptive,28,→,right,→,0.6499165000859648,True,19,1,1,2
Y2-S2-229K21,-,49,AS,adaptive,45,↑,down,↓,1.0615028999745846,False,18,-1,1,3
Y2-S2-229K21,-,50,AS,adaptive,36,↓,down,↓,1.0934017999097705,True,19,-1,0,3
Y2-S2-229K21,-,51,AS,adaptive,37,←,left,←,0.72788399993442,True,19,-1,0,3
Y2-S2-229K21,-,52,AS,adaptive,28,↑,up,↑,0.7134960000403225,True,19,1,1,4
Y2-S2-229K21,1,53,PS,intra_train,40,→,right,→,0.6291804001666605,True,16,-,-,-
Y2-S2-229K21,1,54,PS,intra_train,30,↑,up,↑,0.5058085999917239,True,16,-,-,-
Y2-S2-229K21,1,55,PS,intra_train,29,→,right,→,0.6977760998997837,True,16,-,-,-
Y2-S2-229K21,1,56,PS,intra_train,49,←,left,←,0.5109204999171197,True,16,-,-,-
Y2-S2-229K21,1,57,PS,intra_train,31,↓,down,↓,0.6146197998896241,True,16,-,-,-
Y2-S2-229K21,1,58,PS,exp,27,←,left,←,0.6433135999832302,True,11,0,0,0
Y2-S2-229K21,1,59,PS,exp,50,→,right,→,0.531092899851501,True,11,0,0,0
Y2-S2-229K21,1,60,PS,exp,45,↓,down,↓,0.5958803999237716,True,11,1,0,0
Y2-S2-229K21,1,61,PS,exp,30,↑,up,↑,0.5057356001343578,True,10,1,0,0
Y2-S2-229K21,1,62,PS,exp,29,→,right,→,0.6077354999724776,True,10,1,0,0
Y2-S2-229K21,1,63,PS,exp,26,←,right,→,0.5863169999793172,False,10,-1,1,1
Y2-S2-229K21,1,64,PS,exp,49,↑,up,↑,0.599940599873662,True,11,-1,0,1
Y2-S2-229K21,1,65,PS,exp,31,↓,down,↓,0.5543434000574052,True,11,-1,0,1
Y2-S2-229K21,1,66,PS,exp,47,←,left,←,0.7271805999334902,True,11,1,1,2
Y2-S2-229K21,1,67,PS,exp,37,↑,up,↑,0.5647219000384212,True,10,1,0,2
Y2-S2-229K21,1,68,PS,exp,36,↓,up,↑,1.0319058001041412,False,10,-1,1,3
Y2-S2-229K21,1,69,PS,exp,27,→,right,→,0.5307624000124633,True,11,-1,0,3
Y2-S2-229K21,1,70,PS,exp,28,←,up,↑,0.8019155999645591,False,11,-1,0,3
Y2-S2-229K21,1,71,PS,exp,44,↓,down,↓,0.6180894998833537,True,12,-1,0,3
Y2-S2-229K21,1,72,PS,exp,26,↑,up,↑,0.5022977001499385,True,12,-1,0,3
Y2-S2-229K21,1,73,PS,exp,25,←,left,←,0.6126461999956518,True,12,1,1,4
Y2-S2-229K21,1,74,PS,exp,26,↓,down,↓,0.5942170000635087,True,11,1,0,4
Y2-S2-229K21,1,75,PS,exp,33,↑,left,←,1.3469901999924332,False,11,-1,1,5
Y2-S2-229K21,1,76,PS,exp,34,↓,down,↓,0.49762609996832907,True,12,-1,0,5
Y2-S2-229K21,1,77,PS,exp,48,←,left,←,0.6954697000328451,True,12,-1,0,5
Y2-S2-229K21,1,78,PS,exp,41,↓,up,↑,1.0336190001107752,False,12,-1,0,5
Y2-S2-229K21,1,79,PS,exp,48,←,left,←,0.6180030000396073,True,13,-1,0,5
Y2-S2-229K21,1,80,PS,exp,45,↑,up,↑,0.6783432001248002,True,13,-1,0,5
Y2-S2-229K21,1,81,PS,exp,45,←,left,←,0.5216673000250012,True,13,1,1,6
Y2-S2-229K21,1,82,PS,exp,46,↑,up,↑,0.5141801999416202,True,12,1,0,6
Y2-S2-229K21,1,83,PS,exp,29,←,left,←,0.5597620999906212,True,12,1,0,6
Y2-S2-229K21,1,84,PS,exp,33,↓,right,→,0.7363774001132697,False,12,-1,1,7
Y2-S2-229K21,1,85,PS,exp,50,↑,up,↑,0.6446816998068243,True,13,-1,0,7
Y2-S2-229K21,1,86,PS,exp,42,←,right,→,0.9708901999983937,False,13,-1,0,7
Y2-S2-229K21,1,87,PS,exp,45,↑,up,↑,0.584145899862051,True,14,-1,0,7
Y2-S2-229K21,1,88,PS,exp,50,→,right,→,0.4959869999438524,True,14,-1,0,7
Y2-S2-229K21,1,89,PS,exp,36,←,left,←,0.654233600012958,True,14,1,1,8
Y2-S2-229K21,1,90,PS,exp,45,↑,up,↑,0.594553500181064,True,13,1,0,8
Y2-S2-229K21,1,91,PS,exp,50,←,left,←,0.5099243998993188,True,13,1,0,8
Y2-S2-229K21,1,92,PS,exp,32,↑,up,↑,0.5299405001569539,True,13,1,0,8
Y2-S2-229K21,1,93,PS,exp,29,↓,down,↓,0.5818254998885095,True,12,1,0,8
Y2-S2-229K21,1,94,PS,exp,36,←,right,→,0.6994619998149574,False,12,-1,1,9
Y2-S2-229K21,1,95,PS,exp,36,→,right,→,0.5749121999833733,True,13,-1,0,9
Y2-S2-229K21,1,96,PS,exp,27,↑,up,↑,0.4781529000028968,True,13,-1,0,9
Y2-S2-229K21,1,97,PS,exp,32,→,right,→,0.44205770012922585,True,13,1,1,10
Y2-S2-229K21,1,98,PS,exp,43,↑,up,↑,0.5630095000378788,True,12,1,0,10
Y2-S2-229K21,1,99,PS,exp,36,→,right,→,0.5336196999996901,True,12,1,0,10
Y2-S2-229K21,1,100,PS,exp,35,↓,down,↓,0.7158643000293523,True,12,1,0,10
Y2-S2-229K21,1,101,PS,exp,45,←,left,←,0.55880880006589,True,11,1,0,10
Y2-S2-229K21,1,102,PS,exp,39,↓,down,↓,0.591525899944827,True,11,1,0,10
Y2-S2-229K21,1,103,PS,exp,33,←,left,←,0.6627591999713331,True,11,1,0,10
Y2-S2-229K21,1,104,PS,exp,39,↑,up,↑,0.5236073997803032,True,10,1,0,10
Y2-S2-229K21,1,105,PS,exp,30,→,right,→,0.4751832000911236,True,10,1,0,10
Y2-S2-229K21,1,106,PS,exp,34,↓,down,↓,0.513752399943769,True,10,1,0,10
Y2-S2-229K21,1,107,PS,exp,48,→,right,→,0.5159130999818444,True,9,1,0,10
Y2-S2-229K21,1,108,PS,exp,26,↑,up,↑,0.5113813001662493,True,9,1,0,10
Y2-S2-229K21,1,109,PS,exp,37,→,right,→,0.5944398001302034,True,9,1,0,10
Y2-S2-229K21,1,110,PS,exp,34,↑,up,↑,0.5041714000981301,True,8,1,0,10
Y2-S2-229K21,1,111,PS,exp,40,←,left,←,0.5617353001143783,True,8,1,0,10
Y2-S2-229K21,1,112,PS,exp,33,↑,up,↑,0.5096239999402314,True,8,1,0,10
Y2-S2-229K21,1,113,PS,exp,37,←,right,→,0.7804774001706392,False,7,-1,1,11
Y2-S2-229K21,1,114,PS,exp,49,→,right,→,0.6530152000486851,True,8,-1,0,11
Y2-S2-229K21,1,115,PS,exp,30,↓,left,←,0.9557898000348359,False,8,-1,0,11
Y2-S2-229K21,1,116,PS,exp,30,↑,up,↑,0.830955300014466,True,9,-1,0,11
Y2-S2-229K21,1,117,PS,exp,50,↓,left,←,1.0794913000427186,False,9,-1,0,11
Y2-S2-229K21,1,118,PS,exp,45,↑,up,↑,0.5545322000980377,True,10,-1,0,11
Y2-S2-229K21,1,119,PS,exp,49,←,right,→,1.748001999920234,False,10,-1,0,11
Y2-S2-229K21,1,120,PS,exp,48,→,right,→,0.5295833998825401,True,11,-1,0,11
Y2-S2-229K21,1,121,PS,exp,30,←,left,←,0.5815030001103878,True,11,-1,0,11
Y2-S2-229K21,1,122,PS,exp,46,↓,down,↓,0.6228092000819743,True,11,1,1,12
Y2-S2-229K21,1,123,PS,exp,47,↑,up,↑,0.5869227999355644,True,10,1,0,12
Y2-S2-229K21,1,124,PS,exp,41,→,right,→,0.673899999819696,True,10,1,0,12
Y2-S2-229K21,1,125,PS,exp,33,↑,up,↑,0.586545999860391,True,10,1,0,12
Y2-S2-229K21,1,126,PS,exp,33,↓,right,→,0.7495024998206645,False,9,-1,1,13
Y2-S2-229K21,1,127,PS,exp,43,←,left,←,0.5061994001735002,True,10,-1,0,13
Y2-S2-229K21,1,128,PS,exp,32,↓,down,↓,0.63157429988496,True,10,-1,0,13
Y2-S2-229K21,1,129,PS,exp,40,↑,up,↑,0.5589924000669271,True,10,1,1,14
Y2-S2-229K21,1,130,PS,exp,39,↓,down,↓,0.6472772001288831,True,9,1,0,14
Y2-S2-229K21,1,131,PS,exp,28,↑,up,↑,0.5593028999865055,True,9,1,0,14
Y2-S2-229K21,1,132,PS,exp,47,↓,down,↓,0.5934222999494523,True,9,1,0,14
Y2-S2-229K21,1,133,PS,exp,37,←,left,←,0.4757817001082003,True,8,1,0,14
Y2-S2-229K21,1,134,PS,exp,44,↑,up,↑,0.49591870000585914,True,8,1,0,14
Y2-S2-229K21,1,135,PS,exp,49,↓,down,↓,0.5342657000292093,True,8,1,0,14
Y2-S2-229K21,1,136,PS,exp,30,←,left,←,0.7067867999430746,True,7,1,0,14
Y2-S2-229K21,1,137,PS,exp,29,→,right,→,0.4902484999038279,True,7,1,0,14
Y2-S2-229K21,1,138,PS,exp,29,↓,down,↓,0.6964688999578357,True,7,1,0,14
Y2-S2-229K21,1,139,PS,exp,35,→,right,→,0.5864900001324713,True,6,1,0,14
Y2-S2-229K21,1,140,PS,exp,50,↑,right,→,0.7650184000376612,False,6,-1,1,15
Y2-S2-229K21,1,141,PS,exp,48,→,right,→,0.5977520998567343,True,7,-1,0,15
Y2-S2-229K21,1,142,PS,exp,47,↑,left,←,0.4415143998339772,False,7,-1,0,15
Y2-S2-229K21,1,143,PS,exp,29,←,right,→,0.6139304998796433,False,8,-1,0,15
Y2-S2-229K21,1,144,PS,exp,41,↓,down,↓,0.6014773000497371,True,9,-1,0,15
Y2-S2-229K21,1,145,PS,exp,49,←,left,←,0.8661406999453902,True,9,-1,0,15
Y2-S2-229K21,1,146,PS,exp,29,→,right,→,0.5527619998902082,True,9,1,1,16
Y2-S2-229K21,2,147,AS,intra_train,48,↑,up,↑,1.316037500044331,True,27,-,-,-
Y2-S2-229K21,2,148,AS,intra_train,44,←,left,←,0.6763607000466436,True,27,-,-,-
Y2-S2-229K21,2,149,AS,intra_train,39,↓,down,↓,1.2531181001104414,True,27,-,-,-
Y2-S2-229K21,2,150,AS,intra_train,49,→,right,→,0.5337949001695961,True,27,-,-,-
Y2-S2-229K21,2,151,AS,intra_train,40,↓,down,↓,0.7952153999358416,True,27,-,-,-
Y2-S2-229K21,2,152,AS,exp,49,↑,down,↓,0.671527500031516,False,18,-1,0,0
Y2-S2-229K21,2,153,AS,exp,29,→,left,←,0.7599012998398393,False,19,-1,0,0
Y2-S2-229K21,2,154,AS,exp,36,↓,left,←,1.4504771998617798,False,20,-1,0,0
Y2-S2-229K21,2,155,AS,exp,37,→,right,→,0.8131887000054121,True,21,-1,0,0
Y2-S2-229K21,2,156,AS,exp,44,↑,up,↑,0.7826588000170887,True,21,-1,0,0
Y2-S2-229K21,2,157,AS,exp,26,→,right,→,0.6123954998329282,True,21,1,1,1
Y2-S2-229K21,2,158,AS,exp,46,←,right,→,0.6013082000426948,False,20,-1,1,2
Y2-S2-229K21,2,159,AS,exp,30,↑,up,↑,0.7327892000321299,True,21,-1,0,2
Y2-S2-229K21,2,160,AS,exp,41,←,left,←,0.7579125999473035,True,21,-1,0,2
Y2-S2-229K21,2,161,AS,exp,44,↑,up,↑,1.2480740000028163,True,21,1,1,3
Y2-S2-229K21,2,162,AS,exp,40,↓,down,↓,0.7271714999806136,True,20,1,0,3
Y2-S2-229K21,2,163,AS,exp,49,→,right,→,0.7714825998991728,True,20,1,0,3
Y2-S2-229K21,2,164,AS,exp,34,←,left,←,0.6786699998192489,True,20,1,0,3
Y2-S2-229K21,2,165,AS,exp,49,↓,right,→,1.0632669001352042,False,19,-1,1,4
Y2-S2-229K21,2,166,AS,exp,48,→,right,→,0.8079828999470919,True,20,-1,0,4
Y2-S2-229K21,2,167,AS,exp,27,↓,down,↓,0.9154052999801934,True,20,-1,0,4
Y2-S2-229K21,2,168,AS,exp,44,→,right,→,0.9534011001233011,True,20,1,1,5
Y2-S2-229K21,2,169,AS,exp,32,↓,right,→,0.755775999976322,False,19,-1,1,6
Y2-S2-229K21,2,170,AS,exp,28,↑,right,→,0.7693704001139849,False,20,-1,0,6
Y2-S2-229K21,2,171,AS,exp,38,↓,down,↓,0.56392029998824,True,21,-1,0,6
Y2-S2-229K21,2,172,AS,exp,48,↑,up,↑,0.7591182000469416,True,21,-1,0,6
Y2-S2-229K21,2,173,AS,exp,39,↓,down,↓,0.7667681998573244,True,21,1,1,7
Y2-S2-229K21,2,174,AS,exp,46,↑,up,↑,0.517191399820149,True,20,1,0,7
Y2-S2-229K21,2,175,AS,exp,45,→,right,→,0.6597374000120908,True,20,1,0,7
Y2-S2-229K21,2,176,AS,exp,47,↓,down,↓,0.6007986001204699,True,20,1,0,7
Y2-S2-229K21,2,177,AS,exp,49,→,right,→,0.7687611998990178,True,19,1,0,7
Y2-S2-229K21,2,178,AS,exp,31,←,right,→,1.4980091999750584,False,19,-1,1,8
Y2-S2-229K21,2,179,AS,exp,29,↑,down,↓,0.7530137000139803,False,20,-1,0,8
Y2-S2-229K21,2,180,AS,exp,50,↓,down,↓,0.8110719001851976,True,21,-1,0,8
Y2-S2-229K21,2,181,AS,exp,39,←,down,↓,0.5648237999994308,False,21,-1,0,8
Y2-S2-229K21,2,182,AS,exp,27,↑,up,↑,0.7656759000383317,True,22,-1,0,8
Y2-S2-229K21,2,183,AS,exp,50,→,right,→,0.6974830001126975,True,22,-1,0,8
Y2-S2-229K21,2,184,AS,exp,44,←,left,←,0.7454368998296559,True,22,1,1,9
Y2-S2-229K21,2,185,AS,exp,44,→,right,→,0.8083909000270069,True,21,1,0,9
Y2-S2-229K21,2,186,AS,exp,36,↑,up,↑,0.796638100175187,True,21,1,0,9
Y2-S2-229K21,2,187,AS,exp,41,↓,down,↓,0.7077736998908222,True,21,1,0,9
Y2-S2-229K21,2,188,AS,exp,38,↑,up,↑,0.6777935000136495,True,20,1,0,9
Y2-S2-229K21,2,189,AS,exp,43,→,no_key,no_letter,-1.0,False,20,-1,1,10
Y2-S2-229K21,2,190,AS,exp,40,↓,down,↓,1.2378813000395894,True,21,-1,0,10
Y2-S2-229K21,2,191,AS,exp,45,←,left,←,0.7421866001095623,True,21,-1,0,10
Y2-S2-229K21,2,192,AS,exp,32,↓,down,↓,0.6112369999755174,True,21,1,1,11
Y2-S2-229K21,2,193,AS,exp,26,←,left,←,0.531172800110653,True,20,1,0,11
Y2-S2-229K21,2,194,AS,exp,44,↑,up,↑,0.5364715000614524,True,20,1,0,11
Y2-S2-229K21,2,195,AS,exp,35,←,left,←,0.6757786001544446,True,20,1,0,11
Y2-S2-229K21,2,196,AS,exp,47,↑,down,↓,0.7238260998856276,False,19,-1,1,12
Y2-S2-229K21,2,197,AS,exp,41,↓,down,↓,0.810388799989596,True,20,-1,0,12
Y2-S2-229K21,2,198,AS,exp,27,←,left,←,0.7221524000633508,True,20,-1,0,12
Y2-S2-229K21,2,199,AS,exp,42,↓,up,↑,1.017093600006774,False,20,-1,0,12
Y2-S2-229K21,2,200,AS,exp,44,→,right,→,0.7464858999010175,True,21,-1,0,12
Y2-S2-229K21,2,201,AS,exp,41,↑,up,↑,0.6835770001634955,True,21,-1,0,12
Y2-S2-229K21,2,202,AS,exp,34,←,left,←,0.7559424000792205,True,21,1,1,13
Y2-S2-229K21,2,203,AS,exp,31,↓,down,↓,0.9825911999214441,True,20,1,0,13
Y2-S2-229K21,2,204,AS,exp,28,←,left,←,0.8117070998996496,True,20,1,0,13
Y2-S2-229K21,2,205,AS,exp,36,↓,down,↓,0.9274726000148803,True,20,1,0,13
Y2-S2-229K21,2,206,AS,exp,36,←,left,←,0.5404731999151409,True,19,1,0,13
Y2-S2-229K21,2,207,AS,exp,34,↓,down,↓,0.8373161000199616,True,19,1,0,13
Y2-S2-229K21,2,208,AS,exp,39,←,left,←,0.7215039001312107,True,19,1,0,13
Y2-S2-229K21,2,209,AS,exp,34,→,left,←,0.7618172001093626,False,18,-1,1,14
Y2-S2-229K21,2,210,AS,exp,30,↓,down,↓,0.6947576000820845,True,19,-1,0,14
Y2-S2-229K21,2,211,AS,exp,30,←,left,←,0.7595240001101047,True,19,-1,0,14
Y2-S2-229K21,2,212,AS,exp,41,↓,down,↓,0.6418756002094597,True,19,1,1,15
Y2-S2-229K21,2,213,AS,exp,41,←,left,←,0.5878479001112282,True,18,1,0,15
Y2-S2-229K21,2,214,AS,exp,37,↓,down,↓,0.5994437001645565,True,18,1,0,15
Y2-S2-229K21,2,215,AS,exp,41,→,right,→,0.7541754001285881,True,18,1,0,15
Y2-S2-229K21,2,216,AS,exp,44,↑,down,↓,0.6788298999890685,False,17,-1,1,16
Y2-S2-229K21,3,217,AS,intra_train,39,→,right,→,0.6661662999540567,True,27,-,-,-
Y2-S2-229K21,3,218,AS,intra_train,46,↑,up,↑,0.5505979999434203,True,27,-,-,-
Y2-S2-229K21,3,219,AS,intra_train,48,→,right,→,0.4678771998733282,True,27,-,-,-
Y2-S2-229K21,3,220,AS,intra_train,31,↑,up,↑,0.5509953999426216,True,27,-,-,-
Y2-S2-229K21,3,221,AS,intra_train,42,↓,down,↓,0.7808450998272747,True,27,-,-,-
Y2-S2-229K21,3,222,AS,exp,39,↑,up,↑,0.48384330002591014,True,18,0,0,0
Y2-S2-229K21,3,223,AS,exp,46,↓,down,↓,0.6676356999669224,True,18,0,0,0
Y2-S2-229K21,3,224,AS,exp,29,←,left,←,0.5570855000987649,True,18,1,0,0
Y2-S2-229K21,3,225,AS,exp,44,→,right,→,0.45140010002069175,True,17,1,0,0
Y2-S2-229K21,3,226,AS,exp,27,↓,down,↓,0.5221056998707354,True,17,1,0,0
Y2-S2-229K21,3,227,AS,exp,41,→,right,→,0.584236899856478,True,17,1,0,0
Y2-S2-229K21,3,228,AS,exp,47,↑,up,↑,0.4795073999557644,True,16,1,0,0
Y2-S2-229K21,3,229,AS,exp,30,↓,down,↓,0.4827843001112342,True,16,1,0,0
Y2-S2-229K21,3,230,AS,exp,28,↑,left,←,1.20647899992764,False,16,-1,1,1
Y2-S2-229K21,3,231,AS,exp,32,→,right,→,0.5494966998230666,True,17,-1,0,1
Y2-S2-229K21,3,232,AS,exp,43,↓,left,←,0.970543600153178,False,17,-1,0,1
Y2-S2-229K21,3,233,AS,exp,42,←,left,←,0.5063350000418723,True,18,-1,0,1
Y2-S2-229K21,3,234,AS,exp,28,→,right,→,0.7936699001584202,True,18,-1,0,1
Y2-S2-229K21,3,235,AS,exp,50,←,left,←,0.7498480000067502,True,18,1,1,2
Y2-S2-229K21,3,236,AS,exp,41,↓,down,↓,0.5083653000183403,True,17,1,0,2
Y2-S2-229K21,3,237,AS,exp,42,→,right,→,0.557778200134635,True,17,1,0,2
Y2-S2-229K21,3,238,AS,exp,43,←,left,←,0.6990787000395358,True,17,1,0,2
Y2-S2-229K21,3,239,AS,exp,38,↑,right,→,0.8471437999978662,False,16,-1,1,3
Y2-S2-229K21,3,240,AS,exp,43,→,right,→,0.9863785998895764,True,17,-1,0,3
Y2-S2-229K21,3,241,AS,exp,50,↓,right,→,0.8775989001151174,False,17,-1,0,3
Y2-S2-229K21,3,242,AS,exp,38,←,left,←,0.6307379000354558,True,18,-1,0,3
Y2-S2-229K21,3,243,AS,exp,25,↑,up,↑,0.6220634998753667,True,18,-1,0,3
Y2-S2-229K21,3,244,AS,exp,27,→,right,→,0.685821499908343,True,18,1,1,4
Y2-S2-229K21,3,245,AS,exp,28,←,left,←,0.5073571000248194,True,17,1,0,4
Y2-S2-229K21,3,246,AS,exp,30,↓,down,↓,0.5282068999949843,True,17,1,0,4
Y2-S2-229K21,3,247,AS,exp,38,→,left,←,0.644015199970454,False,17,-1,1,5
Y2-S2-229K21,3,248,AS,exp,39,↓,down,↓,0.7662059001158923,True,18,-1,0,5
Y2-S2-229K21,3,249,AS,exp,46,→,right,→,0.5861563000362366,True,18,-1,0,5
Y2-S2-229K21,3,250,AS,exp,37,←,left,←,0.5158848999999464,True,18,1,1,6
Y2-S2-229K21,3,251,AS,exp,32,↑,up,↑,0.5867726001888514,True,17,1,0,6
Y2-S2-229K21,3,252,AS,exp,37,→,left,←,0.7625219998881221,False,17,-1,1,7
Y2-S2-229K21,3,253,AS,exp,25,↑,up,↑,0.6378569998778403,True,18,-1,0,7
Y2-S2-229K21,3,254,AS,exp,37,←,left,←,0.5541375000029802,True,18,-1,0,7
Y2-S2-229K21,3,255,AS,exp,43,→,left,←,0.7559322998858988,False,18,-1,0,7
Y2-S2-229K21,3,256,AS,exp,28,←,left,←,0.4885889000725001,True,19,-1,0,7
Y2-S2-229K21,3,257,AS,exp,28,↓,down,↓,0.59758699988015,True,19,-1,0,7
Y2-S2-229K21,3,258,AS,exp,25,↑,up,↑,0.7031463000457734,True,19,1,1,8
Y2-S2-229K21,3,259,AS,exp,48,→,right,→,0.41668280004523695,True,18,1,0,8
Y2-S2-229K21,3,260,AS,exp,50,↑,up,↑,0.5107718999497592,True,18,1,0,8
Y2-S2-229K21,3,261,AS,exp,46,←,left,←,0.5691490999888629,True,18,1,0,8
Y2-S2-229K21,3,262,AS,exp,39,↑,up,↑,0.7463360000401735,True,17,1,0,8
Y2-S2-229K21,3,263,AS,exp,29,↓,left,←,0.8490976998582482,False,17,-1,1,9
Y2-S2-229K21,3,264,AS,exp,27,→,right,→,0.6830358000006527,True,18,-1,0,9
Y2-S2-229K21,3,265,AS,exp,26,↓,down,↓,0.7224914999678731,True,18,-1,0,9
Y2-S2-229K21,3,266,AS,exp,25,→,right,→,0.8306734999641776,True,18,1,1,10
Y2-S2-229K21,3,267,AS,exp,44,↓,down,↓,0.776145099895075,True,17,1,0,10
Y2-S2-229K21,3,268,AS,exp,37,←,left,←,0.49970369995571673,True,17,1,0,10
Y2-S2-229K21,3,269,AS,exp,47,↓,down,↓,0.785279099829495,True,17,1,0,10
Y2-S2-229K21,3,270,AS,exp,27,←,left,←,0.6257700000423938,True,16,1,0,10
Y2-S2-229K21,3,271,AS,exp,39,↑,down,↓,0.6714896000921726,False,16,-1,1,11
Y2-S2-229K21,3,272,AS,exp,28,←,left,←,0.5124375999439508,True,17,-1,0,11
Y2-S2-229K21,3,273,AS,exp,47,→,right,→,0.6436538000125438,True,17,-1,0,11
Y2-S2-229K21,3,274,AS,exp,45,↓,left,←,0.8420317999552935,False,17,-1,0,11
Y2-S2-229K21,3,275,AS,exp,29,←,left,←,0.7708638999611139,True,18,-1,0,11
Y2-S2-229K21,3,276,AS,exp,47,→,right,→,0.7608779000584036,True,18,-1,0,11
Y2-S2-229K21,3,277,AS,exp,42,↑,up,↑,0.6283813000191003,True,18,1,1,12
Y2-S2-229K21,3,278,AS,exp,49,↓,right,→,0.8655643998645246,False,17,-1,1,13
Y2-S2-229K21,3,279,AS,exp,39,←,left,←,0.5169242001138628,True,18,-1,0,13
Y2-S2-229K21,3,280,AS,exp,27,↓,down,↓,0.9519303000997752,True,18,-1,0,13
Y2-S2-229K21,3,281,AS,exp,46,↑,up,↑,0.4995860999915749,True,18,1,1,14
Y2-S2-229K21,3,282,AS,exp,33,←,left,←,0.4880851998459548,True,17,1,0,14
Y2-S2-229K21,3,283,AS,exp,34,↓,left,←,0.9682123002130538,False,17,-1,1,15
Y2-S2-229K21,3,284,AS,exp,34,←,left,←,0.825317099923268,True,18,-1,0,15
Y2-S2-229K21,3,285,AS,exp,38,→,left,←,1.0789262999314815,False,18,-1,0,15
Y2-S2-229K21,3,286,AS,exp,39,↓,left,←,0.5568492000456899,False,19,-1,0,15
Y2-S2-229K21,3,287,AS,exp,47,→,right,→,0.7769704998936504,True,20,-1,0,15
Y2-S2-229K21,3,288,AS,exp,46,↓,down,↓,0.5918713000137359,True,20,-1,0,15
Y2-S2-229K21,3,289,AS,exp,43,←,left,←,0.5763117999304086,True,20,1,1,16
Y2-S2-229K21,4,290,PS,intra_train,30,→,right,→,0.6363624001387507,True,16,-,-,-
Y2-S2-229K21,4,291,PS,intra_train,46,↓,right,→,1.0894402998965234,False,16,-,-,-
Y2-S2-229K21,4,292,PS,intra_train,31,←,left,←,0.49963649990968406,True,16,-,-,-
Y2-S2-229K21,4,293,PS,intra_train,45,↓,left,←,0.7901495001278818,False,16,-,-,-
Y2-S2-229K21,4,294,PS,intra_train,37,→,down,↓,1.2464537001214921,False,16,-,-,-
Y2-S2-229K21,4,295,PS,exp,41,↑,up,↑,0.5458251999225467,True,11,0,0,0
Y2-S2-229K21,4,296,PS,exp,41,→,right,→,0.5139944998081774,True,11,0,0,0
Y2-S2-229K21,4,297,PS,exp,43,←,left,←,0.6308643000666052,True,11,1,0,0
Y2-S2-229K21,4,298,PS,exp,44,↑,up,↑,0.7382028000429273,True,10,1,0,0
Y2-S2-229K21,4,299,PS,exp,40,→,right,→,0.59319410007447,True,10,1,0,0
Y2-S2-229K21,4,300,PS,exp,39,←,left,←,0.6756261999253184,True,10,1,0,0
Y2-S2-229K21,4,301,PS,exp,37,→,right,→,0.5312510998919606,True,9,1,0,0
Y2-S2-229K21,4,302,PS,exp,48,↓,left,←,0.9111051000654697,False,9,-1,1,1
Y2-S2-229K21,4,303,PS,exp,47,↑,up,↑,0.4971037998329848,True,10,-1,0,1
Y2-S2-229K21,4,304,PS,exp,41,↓,up,↑,1.2371136001311243,False,10,-1,0,1
Y2-S2-229K21,4,305,PS,exp,47,↑,up,↑,0.5423369000200182,True,11,-1,0,1
Y2-S2-229K21,4,306,PS,exp,48,←,left,←,0.5537655001971871,True,11,-1,0,1
Y2-S2-229K21,4,307,PS,exp,31,→,left,←,0.8241358001250774,False,11,-1,0,1
Y2-S2-229K21,4,308,PS,exp,50,↓,left,←,0.8733112998306751,False,12,-1,0,1
Y2-S2-229K21,4,309,PS,exp,43,→,right,→,0.6256379999686033,True,13,-1,0,1
Y2-S2-229K21,4,310,PS,exp,29,←,left,←,0.66180370002985,True,13,-1,0,1
Y2-S2-229K21,4,311,PS,exp,50,↑,up,↑,0.600776500068605,True,13,1,1,2
Y2-S2-229K21,4,312,PS,exp,45,←,left,←,0.7004752000793815,True,12,1,0,2
Y2-S2-229K21,4,313,PS,exp,34,↑,up,↑,0.5241170998197049,True,12,1,0,2
Y2-S2-229K21,4,314,PS,exp,44,↓,down,↓,0.522576300194487,True,12,1,0,2
Y2-S2-229K21,4,315,PS,exp,45,←,right,→,0.9825492999516428,False,11,-1,1,3
Y2-S2-229K21,4,316,PS,exp,35,↑,up,↑,0.5791833999101073,True,12,-1,0,3
Y2-S2-229K21,4,317,PS,exp,32,↓,down,↓,0.6551705000456423,True,12,-1,0,3
Y2-S2-229K21,4,318,PS,exp,34,→,right,→,0.562015000032261,True,12,1,1,4
Y2-S2-229K21,4,319,PS,exp,44,←,left,←,0.7084236999507993,True,11,1,0,4
Y2-S2-229K21,4,320,PS,exp,37,↓,down,↓,0.46910600014962256,True,11,1,0,4
Y2-S2-229K21,4,321,PS,exp,35,→,right,→,0.5154780000448227,True,11,1,0,4
Y2-S2-229K21,4,322,PS,exp,39,↓,left,←,0.6376487000379711,False,10,-1,1,5
Y2-S2-229K21,4,323,PS,exp,45,→,right,→,0.48281889990903437,True,11,-1,0,5
Y2-S2-229K21,4,324,PS,exp,47,←,left,←,0.4937799000181258,True,11,-1,0,5
Y2-S2-229K21,4,325,PS,exp,34,↓,down,↓,0.5311141000129282,True,11,1,1,6
Y2-S2-229K21,4,326,PS,exp,49,←,left,←,0.45311170001514256,True,10,1,0,6
Y2-S2-229K21,4,327,PS,exp,44,→,right,→,0.4884238999802619,True,10,1,0,6
Y2-S2-229K21,4,328,PS,exp,37,←,right,→,0.6757137000095099,False,10,-1,1,7
Y2-S2-229K21,4,329,PS,exp,38,→,right,→,0.48756189993582666,True,11,-1,0,7
Y2-S2-229K21,4,330,PS,exp,41,←,left,←,0.47941230004653335,True,11,-1,0,7
Y2-S2-229K21,4,331,PS,exp,49,→,right,→,0.5271705000195652,True,11,1,1,8
Y2-S2-229K21,4,332,PS,exp,49,↑,up,↑,0.49393439991399646,True,10,1,0,8
Y2-S2-229K21,4,333,PS,exp,28,↓,down,↓,0.6003711998928338,True,10,1,0,8
Y2-S2-229K21,4,334,PS,exp,49,→,down,↓,0.8021068000234663,False,10,-1,1,9
Y2-S2-229K21,4,335,PS,exp,42,←,left,←,0.45224509993568063,True,11,-1,0,9
Y2-S2-229K21,4,336,PS,exp,30,→,right,→,0.49162149988114834,True,11,-1,0,9
Y2-S2-229K21,4,337,PS,exp,31,↓,left,←,0.5874528000131249,False,11,-1,0,9
Y2-S2-229K21,4,338,PS,exp,26,→,right,→,0.45080269989557564,True,12,-1,0,9
Y2-S2-229K21,4,339,PS,exp,48,↑,up,↑,0.4914440999273211,True,12,-1,0,9
Y2-S2-229K21,4,340,PS,exp,26,→,right,→,0.5931034998502582,True,12,1,1,10
Y2-S2-229K21,4,341,PS,exp,29,↑,up,↑,0.6859663999639452,True,11,1,0,10
Y2-S2-229K21,4,342,PS,exp,36,↓,down,↓,0.47222370002418756,True,11,1,0,10
Y2-S2-229K21,4,343,PS,exp,41,↑,up,↑,0.5628227000124753,True,11,1,0,10
Y2-S2-229K21,4,344,PS,exp,38,↓,down,↓,0.5384331999812275,True,10,1,0,10
Y2-S2-229K21,4,345,PS,exp,30,→,right,→,0.5580781998578459,True,10,1,0,10
Y2-S2-229K21,4,346,PS,exp,49,↑,up,↑,0.5057432998437434,True,10,1,0,10
Y2-S2-229K21,4,347,PS,exp,27,→,right,→,0.7479904999490827,True,9,1,0,10
Y2-S2-229K21,4,348,PS,exp,48,←,down,↓,0.6563152999151498,False,9,-1,1,11
Y2-S2-229K21,4,349,PS,exp,40,↑,down,↓,0.7125444000121206,False,10,-1,0,11
Y2-S2-229K21,4,350,PS,exp,41,↓,down,↓,0.5341444998048246,True,11,-1,0,11
Y2-S2-229K21,4,351,PS,exp,37,←,left,←,0.4355958001688123,True,11,-1,0,11
Y2-S2-229K21,4,352,PS,exp,41,→,down,↓,0.6914643999189138,False,11,-1,0,11
Y2-S2-229K21,4,353,PS,exp,43,↑,down,↓,0.7010415000841022,False,12,-1,0,11
Y2-S2-229K21,4,354,PS,exp,44,←,left,←,0.47537660016678274,True,13,-1,0,11
Y2-S2-229K21,4,355,PS,exp,48,↓,down,↓,0.5559529999736696,True,13,-1,0,11
Y2-S2-229K21,4,356,PS,exp,38,→,right,→,0.6968205000739545,True,13,1,1,12
Y2-S2-229K21,4,357,PS,exp,41,←,left,←,0.5009291998576373,True,12,1,0,12
Y2-S2-229K21,4,358,PS,exp,42,↑,down,↓,0.698124699993059,False,12,-1,1,13
Y2-S2-229K21,4,359,PS,exp,41,←,left,←,0.4995243998710066,True,13,-1,0,13
Y2-S2-229K21,4,360,PS,exp,48,↓,down,↓,0.5111374999396503,True,13,-1,0,13
Y2-S2-229K21,4,361,PS,exp,45,→,right,→,0.6440029002260417,True,13,1,1,14
Y2-S2-229K21,4,362,PS,exp,34,←,left,←,0.42875459999777377,True,12,1,0,14
Y2-S2-229K21,4,363,PS,exp,50,↓,down,↓,0.7534282999113202,True,12,1,0,14
Y2-S2-229K21,4,364,PS,exp,29,→,right,→,0.5205745999701321,True,12,1,0,14
Y2-S2-229K21,4,365,PS,exp,31,↑,up,↑,0.6608913000673056,True,11,1,0,14
Y2-S2-229K21,4,366,PS,exp,44,←,right,→,1.2145010000094771,False,11,-1,1,15
Y2-S2-229K21,4,367,PS,exp,26,↓,down,↓,0.5792417000047863,True,12,-1,0,15
Y2-S2-229K21,4,368,PS,exp,37,→,right,→,0.5102806999348104,True,12,-1,0,15
Y2-S2-229K21,4,369,PS,exp,46,↑,up,↑,0.4630479000043124,True,12,1,1,16
Y2-S2-229K21,5,370,PS,intra_train,48,↓,down,↓,0.5614489000290632,True,16,-,-,-
Y2-S2-229K21,5,371,PS,intra_train,37,→,right,→,0.4982516998425126,True,16,-,-,-
Y2-S2-229K21,5,372,PS,intra_train,26,↓,down,↓,0.5165257998742163,True,16,-,-,-
Y2-S2-229K21,5,373,PS,intra_train,50,→,right,→,0.5157127999700606,True,16,-,-,-
Y2-S2-229K21,5,374,PS,intra_train,42,←,left,←,0.9400457998272032,True,16,-,-,-
Y2-S2-229K21,5,375,PS,exp,39,→,right,→,0.5571253998205066,True,11,0,0,0
Y2-S2-229K21,5,376,PS,exp,46,←,left,←,0.6199017998296767,True,11,0,0,0
Y2-S2-229K21,5,377,PS,exp,42,→,right,→,0.45098070008680224,True,11,1,0,0
Y2-S2-229K21,5,378,PS,exp,46,↑,up,↑,0.6029014000669122,True,10,1,0,0
Y2-S2-229K21,5,379,PS,exp,35,←,left,←,0.558911900036037,True,10,1,0,0
Y2-S2-229K21,5,380,PS,exp,35,↑,up,↑,0.493270399980247,True,10,1,0,0
Y2-S2-229K21,5,381,PS,exp,38,↓,down,↓,0.6279604998417199,True,9,1,0,0
Y2-S2-229K21,5,382,PS,exp,50,↑,up,↑,0.5541802002117038,True,9,1,0,0
Y2-S2-229K21,5,383,PS,exp,49,↓,down,↓,0.5802760000806302,True,9,1,0,0
Y2-S2-229K21,5,384,PS,exp,31,→,right,→,0.5968865000177175,True,8,1,0,0
Y2-S2-229K21,5,385,PS,exp,49,←,left,←,0.9012753998395056,True,8,1,0,0
Y2-S2-229K21,5,386,PS,exp,41,→,right,→,0.6688153999857605,True,8,1,0,0
Y2-S2-229K21,5,387,PS,exp,30,↓,right,→,0.8294225998688489,False,7,-1,1,1
Y2-S2-229K21,5,388,PS,exp,26,←,up,↑,0.9290901999920607,False,8,-1,0,1
Y2-S2-229K21,5,389,PS,exp,33,↓,down,↓,0.675137200159952,True,9,-1,0,1
Y2-S2-229K21,5,390,PS,exp,41,↑,up,↑,0.566688499879092,True,9,-1,0,1
Y2-S2-229K21,5,391,PS,exp,36,→,right,→,0.4315671001095325,True,9,1,1,2
Y2-S2-229K21,5,392,PS,exp,47,↓,down,↓,0.4834145000204444,True,8,1,0,2
Y2-S2-229K21,5,393,PS,exp,46,←,left,←,0.4794075000099838,True,8,1,0,2
Y2-S2-229K21,5,394,PS,exp,50,→,right,→,0.5639309999532998,True,8,1,0,2
Y2-S2-229K21,5,395,PS,exp,35,↑,up,↑,0.5209379000589252,True,7,1,0,2
Y2-S2-229K21,5,396,PS,exp,47,→,right,→,0.6845917000900954,True,7,1,0,2
Y2-S2-229K21,5,397,PS,exp,49,↓,down,↓,0.49242420005612075,True,7,1,0,2
Y2-S2-229K21,5,398,PS,exp,36,↑,up,↑,0.6457143998704851,True,6,1,0,2
Y2-S2-229K21,5,399,PS,exp,29,→,right,→,0.7369001000188291,True,6,1,0,2
Y2-S2-229K21,5,400,PS,exp,32,↓,left,←,0.4991518999449909,False,6,-1,1,3
Y2-S2-229K21,5,401,PS,exp,44,←,left,←,0.5459330000448972,True,7,-1,0,3
Y2-S2-229K21,5,402,PS,exp,25,↑,right,→,0.7124993000179529,False,7,-1,0,3
Y2-S2-229K21,5,403,PS,exp,26,→,right,→,0.6333201001398265,True,8,-1,0,3
Y2-S2-229K21,5,404,PS,exp,48,←,left,←,0.7119106999598444,True,8,-1,0,3
Y2-S2-229K21,5,405,PS,exp,30,→,right,→,0.5310520001221448,True,8,1,1,4
Y2-S2-229K21,5,406,PS,exp,38,↑,up,↑,0.508428999921307,True,7,1,0,4
Y2-S2-229K21,5,407,PS,exp,45,←,right,→,0.5996695999056101,False,7,-1,1,5
Y2-S2-229K21,5,408,PS,exp,42,↓,down,↓,0.5012765000574291,True,8,-1,0,5
Y2-S2-229K21,5,409,PS,exp,48,→,right,→,0.5295239998959005,True,8,-1,0,5
Y2-S2-229K21,5,410,PS,exp,41,←,left,←,0.4049923999700695,True,8,1,1,6
Y2-S2-229K21,5,411,PS,exp,36,↓,down,↓,0.6020589999388903,True,7,1,0,6
Y2-S2-229K21,5,412,PS,exp,50,←,right,→,1.0326666999608278,False,7,-1,1,7
Y2-S2-229K21,5,413,PS,exp,28,↑,up,↑,0.47604180010966957,True,8,-1,0,7
Y2-S2-229K21,5,414,PS,exp,29,↓,down,↓,0.5106536000967026,True,8,-1,0,7
Y2-S2-229K21,5,415,PS,exp,32,←,left,←,0.43985279998742044,True,8,1,1,8
Y2-S2-229K21,5,416,PS,exp,40,↓,down,↓,0.5047305999323726,True,7,1,0,8
Y2-S2-229K21,5,417,PS,exp,46,→,right,→,0.5825110001023859,True,7,1,0,8
Y2-S2-229K21,5,418,PS,exp,31,←,right,→,0.81573859998025,False,7,-1,1,9
Y2-S2-229K21,5,419,PS,exp,36,→,right,→,0.6220317000988871,True,8,-1,0,9
Y2-S2-229K21,5,420,PS,exp,28,↓,down,↓,0.48872829996980727,True,8,-1,0,9
Y2-S2-229K21,5,421,PS,exp,36,←,left,←,0.48455070005729795,True,8,1,1,10
Y2-S2-229K21,5,422,PS,exp,38,↑,right,→,0.6885238999966532,False,7,-1,1,11
Y2-S2-229K21,5,423,PS,exp,35,→,right,→,0.5596566000021994,True,8,-1,0,11
Y2-S2-229K21,5,424,PS,exp,30,↑,up,↑,0.5219662999734282,True,8,-1,0,11
Y2-S2-229K21,5,425,PS,exp,31,↓,down,↓,0.48306760005652905,True,8,1,1,12
Y2-S2-229K21,5,426,PS,exp,42,→,down,↓,0.4960890000220388,False,7,-1,1,13
Y2-S2-229K21,5,427,PS,exp,49,↑,up,↑,0.5164578000549227,True,8,-1,0,13
Y2-S2-229K21,5,428,PS,exp,28,←,up,↑,0.6321078999899328,False,8,-1,0,13
Y2-S2-229K21,5,429,PS,exp,34,↓,down,↓,0.615531399846077,True,9,-1,0,13
Y2-S2-229K21,5,430,PS,exp,31,↑,up,↑,0.5560415999498218,True,9,-1,0,13
Y2-S2-229K21,5,431,PS,exp,46,↓,down,↓,0.5391576997935772,True,9,1,1,14
Y2-S2-229K21,5,432,PS,exp,26,←,left,←,0.7316833999939263,True,8,1,0,14
Y2-S2-229K21,5,433,PS,exp,48,→,right,→,0.4571893000975251,True,8,1,0,14
Y2-S2-229K21,5,434,PS,exp,35,←,left,←,0.4862477998249233,True,8,1,0,14
Y2-S2-229K21,5,435,PS,exp,40,↑,no_key,no_letter,-1.0,False,7,-1,1,15
Y2-S2-229K21,5,436,PS,exp,45,←,left,←,0.5183417999651283,True,8,-1,0,15
Y2-S2-229K21,5,437,PS,exp,25,↑,right,→,0.621318600140512,False,8,-1,0,15
Y2-S2-229K21,5,438,PS,exp,31,→,right,→,0.5346983999479562,True,9,-1,0,15
Y2-S2-229K21,5,439,PS,exp,37,←,left,←,0.4812307998072356,True,9,-1,0,15
Y2-S2-229K21,5,440,PS,exp,42,→,right,→,0.6310513999778777,True,9,1,1,16
Y2-S2-229K21,6,441,AS,intra_train,49,↑,up,↑,0.7399552001152188,True,27,-,-,-
Y2-S2-229K21,6,442,AS,intra_train,39,→,right,→,0.7279028000775725,True,27,-,-,-
Y2-S2-229K21,6,443,AS,intra_train,28,↑,up,↑,0.7120179999619722,True,27,-,-,-
Y2-S2-229K21,6,444,AS,intra_train,40,→,right,→,0.6468533999286592,True,27,-,-,-
Y2-S2-229K21,6,445,AS,intra_train,30,↑,up,↑,0.6267455001361668,True,27,-,-,-
Y2-S2-229K21,6,446,AS,exp,36,↓,down,↓,0.7936831000261009,True,18,0,0,0
Y2-S2-229K21,6,447,AS,exp,39,→,right,→,0.7065206000115722,True,18,0,0,0
Y2-S2-229K21,6,448,AS,exp,25,↑,up,↑,0.6769395000301301,True,18,1,0,0
Y2-S2-229K21,6,449,AS,exp,40,→,right,→,0.49809110001660883,True,17,1,0,0
Y2-S2-229K21,6,450,AS,exp,27,←,left,←,0.7423729000147432,True,17,1,0,0
Y2-S2-229K21,6,451,AS,exp,35,→,right,→,0.5000819999258965,True,17,1,0,0
Y2-S2-229K21,6,452,AS,exp,49,←,left,←,0.5101796998642385,True,16,1,0,0
Y2-S2-229K21,6,453,AS,exp,49,→,right,→,0.49990010005421937,True,16,1,0,0
Y2-S2-229K21,6,454,AS,exp,33,↑,up,↑,0.4979966999962926,True,16,1,0,0
Y2-S2-229K21,6,455,AS,exp,30,→,right,→,0.8813183000311255,True,15,1,0,0
Y2-S2-229K21,6,456,AS,exp,34,↓,down,↓,0.56130599998869,True,15,1,0,0
Y2-S2-229K21,6,457,AS,exp,49,→,right,→,1.247537299990654,True,15,1,0,0
Y2-S2-229K21,6,458,AS,exp,47,↑,down,↓,0.668349500047043,False,14,-1,1,1
Y2-S2-229K21,6,459,AS,exp,42,←,left,←,0.4977792000863701,True,15,-1,0,1
Y2-S2-229K21,6,460,AS,exp,33,↑,down,↓,0.6985917999409139,False,15,-1,0,1
Y2-S2-229K21,6,461,AS,exp,48,→,left,←,0.8498982000164688,False,16,-1,0,1
Y2-S2-229K21,6,462,AS,exp,31,↓,left,←,0.7775616999715567,False,17,-1,0,1
Y2-S2-229K21,6,463,AS,exp,27,↑,up,↑,0.8529610999394208,True,18,-1,0,1
Y2-S2-229K21,6,464,AS,exp,38,→,right,→,0.6319200999569148,True,18,-1,0,1
Y2-S2-229K21,6,465,AS,exp,42,↑,up,↑,1.0538494000211358,True,18,1,1,2
Y2-S2-229K21,6,466,AS,exp,50,←,left,←,0.6654225001111627,True,17,1,0,2
Y2-S2-229K21,6,467,AS,exp,36,↓,down,↓,0.707371799973771,True,17,1,0,2
Y2-S2-229K21,6,468,AS,exp,36,←,right,→,0.6866445001214743,False,17,-1,1,3
Y2-S2-229K21,6,469,AS,exp,50,↓,down,↓,0.5048380999360234,True,18,-1,0,3
Y2-S2-229K21,6,470,AS,exp,29,←,left,←,0.7520951998885721,True,18,-1,0,3
Y2-S2-229K21,6,471,AS,exp,43,↑,up,↑,0.47854179982095957,True,18,1,1,4
Y2-S2-229K21,6,472,AS,exp,50,↓,down,↓,0.8888898000586778,True,17,1,0,4
Y2-S2-229K21,6,473,AS,exp,33,→,right,→,0.6785106000024825,True,17,1,0,4
Y2-S2-229K21,6,474,AS,exp,35,←,down,↓,0.6027571999002248,False,17,-1,1,5
Y2-S2-229K21,6,475,AS,exp,50,→,right,→,0.4335654000751674,True,18,-1,0,5
Y2-S2-229K21,6,476,AS,exp,44,↑,up,↑,0.7345215000677854,True,18,-1,0,5
Y2-S2-229K21,6,477,AS,exp,39,↓,down,↓,0.7486476998310536,True,18,1,1,6
Y2-S2-229K21,6,478,AS,exp,41,←,left,←,0.5398144999053329,True,17,1,0,6
Y2-S2-229K21,6,479,AS,exp,26,↑,up,↑,0.8909506001509726,True,17,1,0,6
Y2-S2-229K21,6,480,AS,exp,26,→,right,→,0.46942580002360046,True,17,1,0,6
Y2-S2-229K21,6,481,AS,exp,42,↓,down,↓,0.6749399001710117,True,16,1,0,6
Y2-S2-229K21,6,482,AS,exp,35,←,left,←,0.5673982999287546,True,16,1,0,6
Y2-S2-229K21,6,483,AS,exp,27,↑,up,↑,0.4687878000549972,True,16,1,0,6
Y2-S2-229K21,6,484,AS,exp,50,←,right,→,0.5800526000093669,False,15,-1,1,7
Y2-S2-229K21,6,485,AS,exp,28,↓,down,↓,0.8803340001031756,True,16,-1,0,7
Y2-S2-229K21,6,486,AS,exp,31,←,left,←,0.7491426998749375,True,16,-1,0,7
Y2-S2-229K21,6,487,AS,exp,39,↑,up,↑,0.48242649994790554,True,16,1,1,8
Y2-S2-229K21,6,488,AS,exp,29,←,right,→,0.5464738998562098,False,15,-1,1,9
Y2-S2-229K21,6,489,AS,exp,32,↓,down,↓,0.7982012999709696,True,16,-1,0,9
Y2-S2-229K21,6,490,AS,exp,48,←,left,←,0.7550436998717487,True,16,-1,0,9
Y2-S2-229K21,6,491,AS,exp,34,↓,left,←,0.5573531000409275,False,16,-1,0,9
Y2-S2-229K21,6,492,AS,exp,38,←,left,←,1.2539429001044482,True,17,-1,0,9
Y2-S2-229K21,6,493,AS,exp,50,↑,up,↑,1.1245526000857353,True,17,-1,0,9
Y2-S2-229K21,6,494,AS,exp,34,↓,left,←,0.6768171999137849,False,17,-1,0,9
Y2-S2-229K21,6,495,AS,exp,27,→,right,→,0.7741884000133723,True,18,-1,0,9
Y2-S2-229K21,6,496,AS,exp,38,↑,up,↑,0.48547409987077117,True,18,-1,0,9
Y2-S2-229K21,6,497,AS,exp,49,←,left,←,0.5413485001772642,True,18,1,1,10
Y2-S2-229K21,6,498,AS,exp,43,↓,down,↓,0.4870716000441462,True,17,1,0,10
Y2-S2-229K21,6,499,AS,exp,42,↑,up,↑,0.6688706001732498,True,17,1,0,10
Y2-S2-229K21,6,500,AS,exp,44,←,left,←,0.764335700077936,True,17,1,0,10
Y2-S2-229K21,6,501,AS,exp,35,↓,down,↓,0.8825234000105411,True,16,1,0,10
Y2-S2-229K21,6,502,AS,exp,45,↑,up,↑,0.7301082999911159,True,16,1,0,10
Y2-S2-229K21,6,503,AS,exp,29,→,right,→,0.6602338999509811,True,16,1,0,10
Y2-S2-229K21,6,504,AS,exp,30,←,left,←,0.5701683999504894,True,15,1,0,10
Y2-S2-229K21,6,505,AS,exp,50,↓,down,↓,0.7157244000118226,True,15,1,0,10
Y2-S2-229K21,6,506,AS,exp,50,→,right,→,0.6070602999534458,True,15,1,0,10
Y2-S2-229K21,6,507,AS,exp,46,←,left,←,0.6309938000049442,True,14,1,0,10
Y2-S2-229K21,6,508,AS,exp,40,↑,up,↑,0.732073400169611,True,14,1,0,10
Y2-S2-229K21,6,509,AS,exp,30,↓,down,↓,0.507941999938339,True,14,1,0,10
Y2-S2-229K21,6,510,AS,exp,45,→,right,→,0.4582475000061095,True,13,1,0,10
Y2-S2-229K21,6,511,AS,exp,31,↑,up,↑,0.6193986998405308,True,13,1,0,10
Y2-S2-229K21,6,512,AS,exp,31,→,left,←,0.7655587000772357,False,13,-1,1,11
Y2-S2-229K21,6,513,AS,exp,25,←,left,←,0.7483122998382896,True,14,-1,0,11
Y2-S2-229K21,6,514,AS,exp,38,→,left,←,0.7590531001333147,False,14,-1,0,11
Y2-S2-229K21,6,515,AS,exp,46,←,left,←,0.5180177998263389,True,15,-1,0,11
Y2-S2-229K21,6,516,AS,exp,34,↑,left,←,0.8295949001330882,False,15,-1,0,11
Y2-S2-229K21,6,517,AS,exp,29,←,left,←,0.49453569995239377,True,16,-1,0,11
Y2-S2-229K21,6,518,AS,exp,49,↑,up,↑,0.5674807999748737,True,16,-1,0,11
Y2-S2-229K21,6,519,AS,exp,27,↓,right,→,0.7596579999662936,False,16,-1,0,11
Y2-S2-229K21,6,520,AS,exp,44,↑,up,↑,0.46132540004327893,True,17,-1,0,11
Y2-S2-229K21,6,521,AS,exp,43,→,right,→,0.9624773999676108,True,17,-1,0,11
Y2-S2-229K21,6,522,AS,exp,41,↓,right,→,0.776784900110215,False,17,-1,0,11
Y2-S2-229K21,6,523,AS,exp,28,↑,left,←,0.5068410001695156,False,18,-1,0,11
Y2-S2-229K21,6,524,AS,exp,49,←,right,→,0.7269694001879543,False,19,-1,0,11
Y2-S2-229K21,6,525,AS,exp,30,→,right,→,0.8875750000588596,True,20,-1,0,11
Y2-S2-229K21,6,526,AS,exp,47,←,left,←,0.5185930000152439,True,20,-1,0,11
Y2-S2-229K21,6,527,AS,exp,29,→,right,→,0.691896699834615,True,20,1,1,12
Y2-S2-229K21,6,528,AS,exp,36,←,left,←,0.6741582001559436,True,19,1,0,12
Y2-S2-229K21,6,529,AS,exp,32,→,left,←,0.8515876999590546,False,19,-1,1,13
Y2-S2-229K21,6,530,AS,exp,34,↑,up,↑,1.1707713999785483,True,20,-1,0,13
Y2-S2-229K21,6,531,AS,exp,50,→,right,→,0.6851270999759436,True,20,-1,0,13
Y2-S2-229K21,6,532,AS,exp,40,↓,down,↓,0.5886405000928789,True,20,1,1,14
Y2-S2-229K21,6,533,AS,exp,44,←,left,←,1.3540632999502122,True,19,1,0,14
Y2-S2-229K21,6,534,AS,exp,50,→,right,→,0.5400254998821765,True,19,1,0,14
Y2-S2-229K21,6,535,AS,exp,44,↓,right,→,0.7773723001591861,False,19,-1,1,15
Y2-S2-229K21,6,536,AS,exp,25,↑,up,↑,0.7378434999845922,True,20,-1,0,15
Y2-S2-229K21,6,537,AS,exp,44,→,right,→,0.525587499840185,True,20,-1,0,15
Y2-S2-229K21,6,538,AS,exp,40,↑,up,↑,0.7221675000619143,True,20,1,1,16
Y2-S2-229K21,7,539,AS,intra_train,45,←,left,←,0.7336095999926329,True,27,-,-,-
Y2-S2-229K21,7,540,AS,intra_train,42,→,right,→,0.48428079998120666,True,27,-,-,-
Y2-S2-229K21,7,541,AS,intra_train,39,↓,down,↓,0.7114778999239206,True,27,-,-,-
Y2-S2-229K21,7,542,AS,intra_train,47,↑,up,↑,1.7712079000193626,True,27,-,-,-
Y2-S2-229K21,7,543,AS,intra_train,43,↓,down,↓,0.4671571000944823,True,27,-,-,-
Y2-S2-229K21,7,544,AS,exp,46,←,left,←,0.8279975999612361,True,18,0,0,0
Y2-S2-229K21,7,545,AS,exp,34,→,right,→,0.7880458999425173,True,18,0,0,0
Y2-S2-229K21,7,546,AS,exp,29,←,left,←,0.6906642999965698,True,18,1,0,0
Y2-S2-229K21,7,547,AS,exp,26,↓,down,↓,0.7515833999495953,True,17,1,0,0
Y2-S2-229K21,7,548,AS,exp,27,→,left,←,0.7906224001199007,False,17,-1,1,1
Y2-S2-229K21,7,549,AS,exp,32,↑,right,→,0.7811485000420362,False,18,-1,0,1
Y2-S2-229K21,7,550,AS,exp,38,→,no_key,no_letter,-1.0,False,19,-1,0,1
Y2-S2-229K21,7,551,AS,exp,27,↓,no_key,no_letter,-1.0,False,20,-1,0,1
Y2-S2-229K21,7,552,AS,exp,43,↑,no_key,no_letter,-1.0,False,21,-1,0,1
Y2-S2-229K21,7,553,AS,exp,30,↓,down,↓,0.4671449000015855,True,22,-1,0,1
Y2-S2-229K21,7,554,AS,exp,28,↑,up,↑,0.9503347999416292,True,22,-1,0,1
Y2-S2-229K21,7,555,AS,exp,46,←,left,←,1.1688469999935478,True,22,1,1,2
Y2-S2-229K21,7,556,AS,exp,28,↑,up,↑,0.8632005001418293,True,21,1,0,2
Y2-S2-229K21,7,557,AS,exp,33,←,left,←,0.5335907998960465,True,21,1,0,2
Y2-S2-229K21,7,558,AS,exp,38,→,left,←,0.8041477000806481,False,21,-1,1,3
Y2-S2-229K21,7,559,AS,exp,39,←,left,←,0.8549606001470238,True,22,-1,0,3
Y2-S2-229K21,7,560,AS,exp,38,→,right,→,0.5012111999094486,True,22,-1,0,3
Y2-S2-229K21,7,561,AS,exp,44,←,left,←,0.7702258999925107,True,22,1,1,4
Y2-S2-229K21,7,562,AS,exp,45,↑,up,↑,1.1506349998526275,True,21,1,0,4
Y2-S2-229K21,7,563,AS,exp,25,→,right,→,0.6617624000646174,True,21,1,0,4
Y2-S2-229K21,7,564,AS,exp,32,↓,down,↓,0.5913589999545366,True,21,1,0,4
Y2-S2-229K21,7,565,AS,exp,25,↑,up,↑,0.7043375000357628,True,20,1,0,4
Y2-S2-229K21,7,566,AS,exp,49,←,left,←,0.8208121999632567,True,20,1,0,4
Y2-S2-229K21,7,567,AS,exp,41,↓,down,↓,0.7410170999355614,True,20,1,0,4
Y2-S2-229K21,7,568,AS,exp,32,↑,up,↑,0.879525100113824,True,19,1,0,4
Y2-S2-229K21,7,569,AS,exp,42,←,left,←,0.5369909999426454,True,19,1,0,4
Y2-S2-229K21,7,570,AS,exp,32,→,right,→,0.43379539996385574,True,19,1,0,4
Y2-S2-229K21,7,571,AS,exp,47,↑,up,↑,0.6247537001036108,True,18,1,0,4
Y2-S2-229K21,7,572,AS,exp,27,↓,down,↓,0.8053172000218183,True,18,1,0,4
Y2-S2-229K21,7,573,AS,exp,40,→,right,→,0.7871848999056965,True,18,1,0,4
Y2-S2-229K21,7,574,AS,exp,35,←,right,→,0.5799246998503804,False,17,-1,1,5
Y2-S2-229K21,7,575,AS,exp,47,↑,left,←,0.729544899892062,False,18,-1,0,5
Y2-S2-229K21,7,576,AS,exp,50,↓,down,↓,0.5600165999494493,True,19,-1,0,5
Y2-S2-229K21,7,577,AS,exp,45,←,left,←,0.5152018999215215,True,19,-1,0,5
Y2-S2-229K21,7,578,AS,exp,29,↓,down,↓,0.5736356000415981,True,19,1,1,6
Y2-S2-229K21,7,579,AS,exp,41,←,down,↓,0.6957780001685023,False,18,-1,1,7
Y2-S2-229K21,7,580,AS,exp,29,→,left,←,0.7339592000935227,False,19,-1,0,7
Y2-S2-229K21,7,581,AS,exp,34,↑,up,↑,0.8333172001875937,True,20,-1,0,7
Y2-S2-229K21,7,582,AS,exp,27,←,left,←,0.8025530001614243,True,20,-1,0,7
Y2-S2-229K21,7,583,AS,exp,45,↑,up,↑,0.450686699943617,True,20,1,1,8
Y2-S2-229K21,7,584,AS,exp,37,→,right,→,0.41888960008509457,True,19,1,0,8
Y2-S2-229K21,7,585,AS,exp,32,←,left,←,0.789127100026235,True,19,1,0,8
Y2-S2-229K21,7,586,AS,exp,38,↑,right,→,1.0324858999811113,False,19,-1,1,9
Y2-S2-229K21,7,587,AS,exp,28,←,left,←,0.578510700026527,True,20,-1,0,9
Y2-S2-229K21,7,588,AS,exp,42,↑,up,↑,0.5337410001084208,True,20,-1,0,9
Y2-S2-229K21,7,589,AS,exp,36,↓,down,↓,1.110083800042048,True,20,1,1,10
Y2-S2-229K21,7,590,AS,exp,27,→,right,→,0.5693705000448972,True,19,1,0,10
Y2-S2-229K21,7,591,AS,exp,50,↓,down,↓,0.4966202999930829,True,19,1,0,10
Y2-S2-229K21,7,592,AS,exp,45,→,right,→,0.7550551001913846,True,19,1,0,10
Y2-S2-229K21,7,593,AS,exp,30,↓,down,↓,0.5176151001360267,True,18,1,0,10
Y2-S2-229K21,7,594,AS,exp,25,→,right,→,0.5163643001578748,True,18,1,0,10
Y2-S2-229K21,7,595,AS,exp,33,←,left,←,0.5251596998423338,True,18,1,0,10
Y2-S2-229K21,7,596,AS,exp,47,→,left,←,0.8281843999866396,False,17,-1,1,11
Y2-S2-229K21,7,597,AS,exp,25,↓,right,→,0.8943875001277775,False,18,-1,0,11
Y2-S2-229K21,7,598,AS,exp,38,→,right,→,0.5854444999713451,True,19,-1,0,11
Y2-S2-229K21,7,599,AS,exp,43,←,left,←,1.047319500008598,True,19,-1,0,11
Y2-S2-229K21,7,600,AS,exp,35,↓,left,←,1.107011599931866,False,19,-1,0,11
Y2-S2-229K21,7,601,AS,exp,50,↑,up,↑,1.0599629001226276,True,20,-1,0,11
Y2-S2-229K21,7,602,AS,exp,36,↓,down,↓,0.6606113000307232,True,20,-1,0,11
Y2-S2-229K21,7,603,AS,exp,44,←,down,↓,0.400540400063619,False,20,-1,0,11
Y2-S2-229K21,7,604,AS,exp,25,→,left,←,1.5241783999372274,False,21,-1,0,11
Y2-S2-229K21,7,605,AS,exp,47,←,left,←,0.4335499000735581,True,22,-1,0,11
Y2-S2-229K21,7,606,AS,exp,46,→,right,→,0.45026860013604164,True,22,-1,0,11
Y2-S2-229K21,7,607,AS,exp,41,←,left,←,0.4502711999230087,True,22,1,1,12
Y2-S2-229K21,7,608,AS,exp,33,→,right,→,0.5908494000323117,True,21,1,0,12
Y2-S2-229K21,7,609,AS,exp,46,↑,up,↑,0.8628932998981327,True,21,1,0,12
Y2-S2-229K21,7,610,AS,exp,49,↓,down,↓,0.5535693999845535,True,21,1,0,12
Y2-S2-229K21,7,611,AS,exp,39,←,left,←,0.4505925001576543,True,20,1,0,12
Y2-S2-229K21,7,612,AS,exp,41,↑,up,↑,0.46707429992966354,True,20,1,0,12
Y2-S2-229K21,7,613,AS,exp,44,↓,down,↓,0.8829898999538273,True,20,1,0,12
Y2-S2-229K21,7,614,AS,exp,47,→,right,→,0.512848700163886,True,19,1,0,12
Y2-S2-229K21,7,615,AS,exp,45,←,left,←,0.7453082001302391,True,19,1,0,12
Y2-S2-229K21,7,616,AS,exp,32,→,right,→,0.4509039002005011,True,19,1,0,12
Y2-S2-229K21,7,617,AS,exp,29,←,left,←,0.40129059995524585,True,18,1,0,12
Y2-S2-229K21,7,618,AS,exp,27,↓,down,↓,0.474241100018844,True,18,1,0,12
Y2-S2-229K21,7,619,AS,exp,43,→,right,→,0.41714769997633994,True,18,1,0,12
Y2-S2-229K21,7,620,AS,exp,29,↓,down,↓,1.1658356999978423,True,17,1,0,12
Y2-S2-229K21,7,621,AS,exp,48,→,right,→,1.329541499959305,True,17,1,0,12
Y2-S2-229K21,7,622,AS,exp,31,←,left,←,0.552339999936521,True,17,1,0,12
Y2-S2-229K21,7,623,AS,exp,43,→,right,→,0.49426529998891056,True,16,1,0,12
Y2-S2-229K21,7,624,AS,exp,28,↑,down,↓,0.8172949999570847,False,16,-1,1,13
Y2-S2-229K21,7,625,AS,exp,25,↓,left,←,1.3205490000545979,False,17,-1,0,13
Y2-S2-229K21,7,626,AS,exp,38,↑,left,←,0.7068741000257432,False,18,-1,0,13
Y2-S2-229K21,7,627,AS,exp,48,→,right,→,0.4350092001259327,True,19,-1,0,13
Y2-S2-229K21,7,628,AS,exp,46,↓,down,↓,1.3442802000790834,True,19,-1,0,13
Y2-S2-229K21,7,629,AS,exp,29,←,left,←,1.329639099771157,True,19,1,1,14
Y2-S2-229K21,7,630,AS,exp,46,↓,down,↓,0.548767700092867,True,18,1,0,14
Y2-S2-229K21,7,631,AS,exp,49,←,left,←,0.8335216999985278,True,18,1,0,14
Y2-S2-229K21,7,632,AS,exp,36,→,right,→,0.5465864001307636,True,18,1,0,14
Y2-S2-229K21,7,633,AS,exp,40,↓,right,→,0.8632374999579042,False,17,-1,1,15
Y2-S2-229K21,7,634,AS,exp,39,←,left,←,0.7557341000065207,True,18,-1,0,15
Y2-S2-229K21,7,635,AS,exp,37,→,right,→,0.5094971999060363,True,18,-1,0,15
Y2-S2-229K21,7,636,AS,exp,46,↓,down,↓,0.6810294999741018,True,18,1,1,16
Y2-S2-229K21,8,637,PS,intra_train,44,←,left,←,0.4560748999938369,True,16,-,-,-
Y2-S2-229K21,8,638,PS,intra_train,30,↓,down,↓,0.5447136000730097,True,16,-,-,-
Y2-S2-229K21,8,639,PS,intra_train,38,←,left,←,1.0304979998618364,True,16,-,-,-
Y2-S2-229K21,8,640,PS,intra_train,41,↑,down,↓,0.9352810001000762,False,16,-,-,-
Y2-S2-229K21,8,641,PS,intra_train,48,↓,down,↓,0.610844099894166,True,16,-,-,-
Y2-S2-229K21,8,642,PS,exp,26,←,left,←,0.4532613998744637,True,11,0,0,0
Y2-S2-229K21,8,643,PS,exp,33,↑,up,↑,0.5231206000316888,True,11,0,0,0
Y2-S2-229K21,8,644,PS,exp,34,→,left,←,0.8531448000576347,False,11,-1,0,0
Y2-S2-229K21,8,645,PS,exp,35,↓,down,↓,0.621682400116697,True,12,-1,0,0
Y2-S2-229K21,8,646,PS,exp,38,↑,up,↑,0.5634955000132322,True,12,-1,0,0
Y2-S2-229K21,8,647,PS,exp,48,←,left,←,0.5419783999677747,True,12,1,1,1
Y2-S2-229K21,8,648,PS,exp,41,→,down,↓,0.980875900015235,False,11,-1,1,2
Y2-S2-229K21,8,649,PS,exp,39,←,left,←,0.5297533001285046,True,12,-1,0,2
Y2-S2-229K21,8,650,PS,exp,33,→,down,↓,0.7837427000049502,False,12,-1,0,2
Y2-S2-229K21,8,651,PS,exp,44,←,left,←,0.5196461000014096,True,13,-1,0,2
Y2-S2-229K21,8,652,PS,exp,49,↑,up,↑,0.5023179999552667,True,13,-1,0,2
Y2-S2-229K21,8,653,PS,exp,27,↓,down,↓,0.6074289998505265,True,13,1,1,3
Y2-S2-229K21,8,654,PS,exp,42,→,left,←,0.8268170000519603,False,12,-1,1,4
Y2-S2-229K21,8,655,PS,exp,32,↑,up,↑,0.5135089999530464,True,13,-1,0,4
Y2-S2-229K21,8,656,PS,exp,28,↓,down,↓,0.4649844001978636,True,13,-1,0,4
Y2-S2-229K21,8,657,PS,exp,27,←,left,←,0.9651167001575232,True,13,1,1,5
Y2-S2-229K21,8,658,PS,exp,47,↓,right,→,1.0515952999703586,False,12,-1,1,6
Y2-S2-229K21,8,659,PS,exp,41,→,right,→,0.5627937000244856,True,13,-1,0,6
Y2-S2-229K21,8,660,PS,exp,31,↑,up,↑,0.4748509000055492,True,13,-1,0,6
Y2-S2-229K21,8,661,PS,exp,43,→,right,→,0.4728990001603961,True,13,1,1,7
Y2-S2-229K21,8,662,PS,exp,49,↓,down,↓,0.5162549000233412,True,12,1,0,7
Y2-S2-229K21,8,663,PS,exp,48,↑,right,→,0.8114003001246601,False,12,-1,1,8
Y2-S2-229K21,8,664,PS,exp,46,←,right,→,0.6806109000463039,False,13,-1,0,8
Y2-S2-229K21,8,665,PS,exp,41,→,right,→,0.758470700122416,True,14,-1,0,8
Y2-S2-229K21,8,666,PS,exp,42,↓,down,↓,0.510438600089401,True,14,-1,0,8
Y2-S2-229K21,8,667,PS,exp,28,→,right,→,0.471266700187698,True,14,1,1,9
Y2-S2-229K21,8,668,PS,exp,27,↑,left,←,0.6436560999136418,False,13,-1,1,10
Y2-S2-229K21,8,669,PS,exp,44,←,left,←,0.6119101999793202,True,14,-1,0,10
Y2-S2-229K21,8,670,PS,exp,34,↓,down,↓,0.7754846999887377,True,14,-1,0,10
Y2-S2-229K21,8,671,PS,exp,26,↑,right,→,0.604823200032115,False,14,-1,0,10
Y2-S2-229K21,8,672,PS,exp,30,↓,right,→,0.7612789999693632,False,15,-1,0,10
Y2-S2-229K21,8,673,PS,exp,50,→,right,→,0.4743094998411834,True,16,-1,0,10
Y2-S2-229K21,8,674,PS,exp,27,↓,down,↓,0.6039219999220222,True,16,-1,0,10
Y2-S2-229K21,8,675,PS,exp,30,↑,up,↑,0.5803925998043269,True,16,1,1,11
Y2-S2-229K21,8,676,PS,exp,47,←,left,←,1.1482227998785675,True,15,1,0,11
Y2-S2-229K21,8,677,PS,exp,36,→,right,→,0.5624025999568403,True,15,1,0,11
Y2-S2-229K21,8,678,PS,exp,40,↑,up,↑,0.5110120999161154,True,15,1,0,11
Y2-S2-229K21,8,679,PS,exp,25,↓,down,↓,0.4984089001081884,True,14,1,0,11
Y2-S2-229K21,8,680,PS,exp,47,↑,up,↑,0.6052321000024676,True,14,1,0,11
Y2-S2-229K21,8,681,PS,exp,40,↓,down,↓,0.5354969000909477,True,14,1,0,11
Y2-S2-229K21,8,682,PS,exp,39,↑,right,→,0.6299844000022858,False,13,-1,1,12
Y2-S2-229K21,8,683,PS,exp,25,↓,right,→,0.7477183998562396,False,14,-1,0,12
Y2-S2-229K21,8,684,PS,exp,49,→,right,→,0.8413327999878675,True,15,-1,0,12
Y2-S2-229K21,8,685,PS,exp,46,←,left,←,0.6248892000876367,True,15,-1,0,12
Y2-S2-229K21,8,686,PS,exp,49,→,right,→,0.5199839998967946,True,15,1,1,13
Y2-S2-229K21,8,687,PS,exp,46,↓,down,↓,0.47877950011752546,True,14,1,0,13
Y2-S2-229K21,8,688,PS,exp,33,↑,right,→,0.7277977000921965,False,14,-1,1,14
Y2-S2-229K21,8,689,PS,exp,35,↓,right,→,1.0449749999679625,False,15,-1,0,14
Y2-S2-229K21,8,690,PS,exp,25,←,left,←,0.9786092999856919,True,16,-1,0,14
Y2-S2-229K21,8,691,PS,exp,41,↑,up,↑,0.5946140999440104,True,16,-1,0,14
Y2-S2-229K21,8,692,PS,exp,41,→,right,→,0.40061269979923964,True,16,1,1,15
Y2-S2-229K21,8,693,PS,exp,34,↑,up,↑,0.6039301999844611,True,15,1,0,15
Y2-S2-229K21,8,694,PS,exp,47,→,right,→,0.43927610013633966,True,15,1,0,15
Y2-S2-229K21,8,695,PS,exp,26,↓,down,↓,0.5629751000087708,True,15,1,0,15
Y2-S2-229K21,8,696,PS,exp,41,↑,right,→,0.48292249999940395,False,14,-1,1,16
