PART_ID,Block_no,Trial_no,Block_type,Trial_type,CSI,Stim_letter,Key_pressed,letter_choose,Rt,Corr,Stimulus Time,Level,Reversal,Revs_count
Y2-S2-069K23,1,1,PS,train,27,→,right,→,0.600678600021638,True,30,-,-,-
Y2-S2-069K23,1,2,PS,train,46,←,left,←,0.6175068999873474,True,30,-,-,-
Y2-S2-069K23,1,3,PS,train,40,↓,down,↓,0.9731964999809861,True,30,-,-,-
Y2-S2-069K23,1,4,PS,train,43,→,right,→,0.6942895000101998,True,30,-,-,-
Y2-S2-069K23,1,5,PS,train,31,←,no_key,no_letter,-1.0,False,30,-,-,-
Y2-S2-069K23,1,6,PS,train,41,→,right,→,0.6007371000014246,True,30,-,-,-
Y2-S2-069K23,1,7,PS,train,40,↓,down,↓,1.126585700083524,True,30,-,-,-
Y2-S2-069K23,1,8,PS,train,28,↑,no_key,no_letter,-1.0,False,30,-,-,-
Y2-S2-069K23,1,9,PS,train,43,→,right,→,0.8350297999568284,True,30,-,-,-
Y2-S2-069K23,1,10,PS,train,44,←,left,←,0.8642029999755323,True,30,-,-,-
Y2-S2-069K23,2,11,AS,train,49,↑,up,↑,0.6844716999912634,True,45,-,-,-
Y2-S2-069K23,2,12,AS,train,27,←,left,←,0.7339690000517294,True,45,-,-,-
Y2-S2-069K23,2,13,AS,train,29,↑,up,↑,0.6841691000154242,True,45,-,-,-
Y2-S2-069K23,2,14,AS,train,29,←,right,→,0.8506881999783218,False,45,-,-,-
Y2-S2-069K23,2,15,AS,train,41,↑,up,↑,0.7840401000576094,True,45,-,-,-
Y2-S2-069K23,2,16,AS,train,28,←,left,←,0.8173766999971122,True,45,-,-,-
Y2-S2-069K23,2,17,AS,train,33,↓,down,↓,1.439166700001806,True,45,-,-,-
Y2-S2-069K23,2,18,AS,train,45,→,right,→,0.7339392000576481,True,45,-,-,-
Y2-S2-069K23,2,19,AS,train,42,↑,up,↑,0.7175831999629736,True,45,-,-,-
Y2-S2-069K23,2,20,AS,train,39,←,left,←,0.8006112999282777,True,45,-,-,-
Y2-S2-069K23,-,21,PS,adaptive,41,↓,up,↑,1.088467999943532,False,10,-1,0,0
Y2-S2-069K23,-,22,PS,adaptive,37,↑,down,↓,1.7585036000236869,False,11,-1,0,0
Y2-S2-069K23,-,23,PS,adaptive,33,→,right,→,0.5861744000576437,True,12,-1,0,0
Y2-S2-069K23,-,24,PS,adaptive,28,↑,right,→,1.1654645999660715,False,12,-1,0,0
Y2-S2-069K23,-,25,PS,adaptive,42,←,left,←,0.943078999989666,True,13,-1,0,0
Y2-S2-069K23,-,26,PS,adaptive,36,→,up,↑,0.8273257999680936,False,13,-1,0,0
Y2-S2-069K23,-,27,PS,adaptive,33,↑,up,↑,0.7727150999708101,True,14,-1,0,0
Y2-S2-069K23,-,28,PS,adaptive,45,→,right,→,0.6058893000008538,True,14,-1,0,0
Y2-S2-069K23,-,29,PS,adaptive,34,←,right,→,0.7815616000443697,False,14,-1,0,0
Y2-S2-069K23,-,30,PS,adaptive,49,↓,right,→,0.9065849999897182,False,15,-1,0,0
Y2-S2-069K23,-,31,PS,adaptive,26,→,left,←,0.7271844999631867,False,16,-1,0,0
Y2-S2-069K23,-,32,PS,adaptive,37,↓,down,↓,0.9680119999684393,True,17,-1,0,0
Y2-S2-069K23,-,33,PS,adaptive,25,→,right,→,0.5742573000025004,True,17,-1,0,0
Y2-S2-069K23,-,34,PS,adaptive,28,↑,up,↑,0.583297900040634,True,17,1,1,1
Y2-S2-069K23,-,35,PS,adaptive,29,↓,down,↓,0.6801400000695139,True,16,1,0,1
Y2-S2-069K23,-,36,PS,adaptive,34,←,left,←,0.6437229999573901,True,16,1,0,1
Y2-S2-069K23,-,37,PS,adaptive,38,→,right,→,0.6993671000236645,True,16,1,0,1
Y2-S2-069K23,-,38,PS,adaptive,45,←,left,←,0.9266320000169799,True,15,1,0,1
Y2-S2-069K23,-,39,PS,adaptive,44,→,right,→,0.663992700050585,True,15,1,0,1
Y2-S2-069K23,-,40,PS,adaptive,37,←,down,↓,0.9060352001106367,False,15,-1,1,2
Y2-S2-069K23,-,41,PS,adaptive,33,↑,right,→,0.8692391000222415,False,16,-1,0,2
Y2-S2-069K23,-,42,PS,adaptive,28,→,left,←,0.812994199921377,False,17,-1,0,2
Y2-S2-069K23,-,43,PS,adaptive,29,↓,down,↓,0.9279193000402302,True,18,-1,0,2
Y2-S2-069K23,-,44,PS,adaptive,38,→,right,→,0.7803189000114799,True,18,-1,0,2
Y2-S2-069K23,-,45,PS,adaptive,26,←,left,←,0.8231289000250399,True,18,1,1,3
Y2-S2-069K23,-,46,PS,adaptive,40,↑,up,↑,0.849570499965921,True,17,1,0,3
Y2-S2-069K23,-,47,PS,adaptive,32,↓,down,↓,0.6583736999891698,True,17,1,0,3
Y2-S2-069K23,-,48,PS,adaptive,42,→,right,→,0.7379488000879064,True,17,1,0,3
Y2-S2-069K23,-,49,PS,adaptive,42,↑,up,↑,0.8900198999326676,True,16,1,0,3
Y2-S2-069K23,-,50,PS,adaptive,33,↓,down,↓,0.8930207000812516,True,16,1,0,3
Y2-S2-069K23,-,51,PS,adaptive,34,←,right,→,1.6573911999585107,False,16,-1,1,4
Y2-S2-069K23,-,52,AS,adaptive,41,→,right,→,0.6541166000533849,True,20,0,0,0
Y2-S2-069K23,-,53,AS,adaptive,26,↓,down,↓,0.8096414000028744,True,20,0,0,0
Y2-S2-069K23,-,54,AS,adaptive,30,↑,up,↑,0.7525093000149354,True,20,1,0,0
Y2-S2-069K23,-,55,AS,adaptive,48,←,right,→,0.8356421000789851,False,19,-1,1,1
Y2-S2-069K23,-,56,AS,adaptive,42,→,right,→,0.6738543000537902,True,20,-1,0,1
Y2-S2-069K23,-,57,AS,adaptive,44,↑,up,↑,0.8616026999661699,True,20,-1,0,1
Y2-S2-069K23,-,58,AS,adaptive,33,←,left,←,0.7262511999579147,True,20,1,1,2
Y2-S2-069K23,-,59,AS,adaptive,34,↑,up,↑,1.1389083999674767,True,19,1,0,2
Y2-S2-069K23,-,60,AS,adaptive,26,←,left,←,0.8589758999878541,True,19,1,0,2
Y2-S2-069K23,-,61,AS,adaptive,46,↑,up,↑,0.7359316000947729,True,19,1,0,2
Y2-S2-069K23,-,62,AS,adaptive,50,←,down,↓,0.8388812000630423,False,18,-1,1,3
Y2-S2-069K23,-,63,AS,adaptive,27,↑,up,↑,0.6190513999899849,True,19,-1,0,3
Y2-S2-069K23,-,64,AS,adaptive,31,→,left,←,1.18097789993044,False,19,-1,0,3
Y2-S2-069K23,-,65,AS,adaptive,36,↓,down,↓,0.9415246000280604,True,20,-1,0,3
Y2-S2-069K23,-,66,AS,adaptive,48,←,left,←,0.7032061999198049,True,20,-1,0,3
Y2-S2-069K23,-,67,AS,adaptive,26,→,right,→,0.5799390999600291,True,20,1,1,4
Y2-S2-069K23,1,68,PS,intra_train,29,↑,up,↑,1.5450907000340521,True,25,-,-,-
Y2-S2-069K23,1,69,PS,intra_train,33,→,right,→,0.609711299999617,True,25,-,-,-
Y2-S2-069K23,1,70,PS,intra_train,29,↑,up,↑,0.8742498999927193,True,25,-,-,-
Y2-S2-069K23,1,71,PS,intra_train,37,↓,down,↓,0.6745022999821231,True,25,-,-,-
Y2-S2-069K23,1,72,PS,intra_train,37,→,right,→,0.6495998000027612,True,25,-,-,-
Y2-S2-069K23,1,73,PS,exp,29,↑,up,↑,0.5823046000441536,True,17,0,0,0
Y2-S2-069K23,1,74,PS,exp,50,→,down,↓,1.0220643000211567,False,17,-1,0,0
Y2-S2-069K23,1,75,PS,exp,30,↑,up,↑,0.580573600018397,True,18,-1,0,0
Y2-S2-069K23,1,76,PS,exp,36,↓,down,↓,0.7092421000124887,True,18,-1,0,0
Y2-S2-069K23,1,77,PS,exp,49,→,right,→,0.6670403000898659,True,18,1,1,1
Y2-S2-069K23,1,78,PS,exp,32,↑,up,↑,0.7561329000163823,True,17,1,0,1
Y2-S2-069K23,1,79,PS,exp,35,→,right,→,0.6859943999443203,True,17,1,0,1
Y2-S2-069K23,1,80,PS,exp,33,←,left,←,0.6246635999996215,True,17,1,0,1
Y2-S2-069K23,1,81,PS,exp,26,↑,up,↑,0.6038523999741301,True,16,1,0,1
Y2-S2-069K23,1,82,PS,exp,37,←,left,←,0.6515540999826044,True,16,1,0,1
Y2-S2-069K23,1,83,PS,exp,33,→,right,→,0.6789937999565154,True,16,1,0,1
Y2-S2-069K23,1,84,PS,exp,39,←,left,←,0.693506499985233,True,15,1,0,1
Y2-S2-069K23,1,85,PS,exp,32,↓,down,↓,0.8197850999422371,True,15,1,0,1
Y2-S2-069K23,1,86,PS,exp,32,↑,up,↑,0.5744087999919429,True,15,1,0,1
Y2-S2-069K23,1,87,PS,exp,30,→,right,→,0.4811228000326082,True,14,1,0,1
Y2-S2-069K23,1,88,PS,exp,40,←,up,↑,0.7291445001028478,False,14,-1,1,2
Y2-S2-069K23,1,89,PS,exp,49,↑,up,↑,0.7122695998987183,True,15,-1,0,2
Y2-S2-069K23,1,90,PS,exp,26,↓,up,↑,0.7940943000139669,False,15,-1,0,2
Y2-S2-069K23,1,91,PS,exp,38,↑,left,←,0.6648816999513656,False,16,-1,0,2
Y2-S2-069K23,1,92,PS,exp,43,↓,down,↓,0.8043012000853196,True,17,-1,0,2
Y2-S2-069K23,1,93,PS,exp,26,↑,up,↑,0.7479841000167653,True,17,-1,0,2
Y2-S2-069K23,1,94,PS,exp,25,↓,up,↑,0.8236269000917673,False,17,-1,0,2
Y2-S2-069K23,1,95,PS,exp,31,→,right,→,0.7583929999964312,True,18,-1,0,2
Y2-S2-069K23,1,96,PS,exp,26,↓,down,↓,0.8816791999852285,True,18,-1,0,2
Y2-S2-069K23,1,97,PS,exp,41,→,right,→,0.8611618999857455,True,18,1,1,3
Y2-S2-069K23,1,98,PS,exp,41,←,left,←,0.7897808999987319,True,17,1,0,3
Y2-S2-069K23,1,99,PS,exp,48,→,right,→,0.686651699943468,True,17,1,0,3
Y2-S2-069K23,1,100,PS,exp,36,←,left,←,0.7601248000282794,True,17,1,0,3
Y2-S2-069K23,1,101,PS,exp,42,↑,up,↑,0.5485420000040904,True,16,1,0,3
Y2-S2-069K23,1,102,PS,exp,36,↓,up,↑,1.0748266999144107,False,16,-1,1,4
Y2-S2-069K23,1,103,PS,exp,29,↑,up,↑,0.5491978999925777,True,17,-1,0,4
Y2-S2-069K23,1,104,PS,exp,41,←,left,←,0.7313416000688449,True,17,-1,0,4
Y2-S2-069K23,1,105,PS,exp,45,→,right,→,0.5953487000660971,True,17,1,1,5
Y2-S2-069K23,1,106,PS,exp,48,↑,up,↑,0.5990143000381067,True,16,1,0,5
Y2-S2-069K23,1,107,PS,exp,30,↓,down,↓,0.7470958000048995,True,16,1,0,5
Y2-S2-069K23,1,108,PS,exp,35,←,left,←,0.6933138999156654,True,16,1,0,5
Y2-S2-069K23,1,109,PS,exp,25,↓,down,↓,0.7803490000078455,True,15,1,0,5
Y2-S2-069K23,1,110,PS,exp,40,↑,up,↑,0.6298623000038788,True,15,1,0,5
Y2-S2-069K23,1,111,PS,exp,37,↓,down,↓,0.7329524999950081,True,15,1,0,5
Y2-S2-069K23,1,112,PS,exp,37,←,left,←,0.5996631999732926,True,14,1,0,5
Y2-S2-069K23,1,113,PS,exp,46,↓,down,↓,0.7195253999670967,True,14,1,0,5
Y2-S2-069K23,1,114,PS,exp,35,←,left,←,0.631029500043951,True,14,1,0,5
Y2-S2-069K23,1,115,PS,exp,39,↓,down,↓,0.7721993000013754,True,13,1,0,5
Y2-S2-069K23,1,116,PS,exp,41,↑,up,↑,0.6492384999291971,True,13,1,0,5
Y2-S2-069K23,1,117,PS,exp,25,↓,down,↓,0.7056887000799179,True,13,1,0,5
Y2-S2-069K23,1,118,PS,exp,38,→,right,→,0.7638249000301585,True,12,1,0,5
Y2-S2-069K23,1,119,PS,exp,41,↓,down,↓,0.8467869000742212,True,12,1,0,5
Y2-S2-069K23,1,120,PS,exp,31,→,right,→,0.7637636999133974,True,12,1,0,5
Y2-S2-069K23,1,121,PS,exp,41,←,left,←,0.5408607999561355,True,11,1,0,5
Y2-S2-069K23,1,122,PS,exp,29,↓,left,←,0.7022358999820426,False,11,-1,1,6
Y2-S2-069K23,1,123,PS,exp,31,←,left,←,0.5427862000651658,True,12,-1,0,6
Y2-S2-069K23,1,124,PS,exp,25,→,left,←,0.8565714999567717,False,12,-1,0,6
Y2-S2-069K23,1,125,PS,exp,27,←,left,←,0.5014998000115156,True,13,-1,0,6
Y2-S2-069K23,1,126,PS,exp,49,↑,up,↑,0.6534392999019474,True,13,-1,0,6
Y2-S2-069K23,1,127,PS,exp,32,←,left,←,0.7494031999958679,True,13,1,1,7
Y2-S2-069K23,1,128,PS,exp,49,↓,down,↓,0.6134039000608027,True,12,1,0,7
Y2-S2-069K23,1,129,PS,exp,47,←,left,←,0.6704403000185266,True,12,1,0,7
Y2-S2-069K23,1,130,PS,exp,46,↓,down,↓,0.7251351999584585,True,12,1,0,7
Y2-S2-069K23,1,131,PS,exp,46,←,right,→,0.6070612999610603,False,11,-1,1,8
Y2-S2-069K23,1,132,PS,exp,44,→,right,→,0.5898409999208525,True,12,-1,0,8
Y2-S2-069K23,1,133,PS,exp,45,↑,down,↓,0.7414900999283418,False,12,-1,0,8
Y2-S2-069K23,1,134,PS,exp,48,←,left,←,0.5604090000269935,True,13,-1,0,8
Y2-S2-069K23,1,135,PS,exp,27,→,right,→,0.5413420000113547,True,13,-1,0,8
Y2-S2-069K23,1,136,PS,exp,48,↓,down,↓,0.7083411000203341,True,13,1,1,9
Y2-S2-069K23,1,137,PS,exp,47,↑,up,↑,0.6427812000038102,True,12,1,0,9
Y2-S2-069K23,1,138,PS,exp,38,→,right,→,0.48352949996478856,True,12,1,0,9
Y2-S2-069K23,1,139,PS,exp,34,←,left,←,0.5277084999252111,True,12,1,0,9
Y2-S2-069K23,1,140,PS,exp,28,↑,up,↑,0.6446838999399915,True,11,1,0,9
Y2-S2-069K23,1,141,PS,exp,49,→,right,→,0.5119816999649629,True,11,1,0,9
Y2-S2-069K23,1,142,PS,exp,34,←,left,←,0.6070479000918567,True,11,1,0,9
Y2-S2-069K23,1,143,PS,exp,38,→,right,→,0.47616270009893924,True,10,1,0,9
Y2-S2-069K23,1,144,PS,exp,45,↓,left,←,0.578061499982141,False,10,-1,1,10
Y2-S2-069K23,1,145,PS,exp,34,→,right,→,0.8949316000798717,True,11,-1,0,10
Y2-S2-069K23,1,146,PS,exp,40,↑,right,→,0.5930243999464437,False,11,-1,0,10
Y2-S2-069K23,1,147,PS,exp,35,↓,down,↓,0.6938340000342578,True,12,-1,0,10
Y2-S2-069K23,1,148,PS,exp,25,↑,left,←,0.3176654999842867,False,12,-1,0,10
Y2-S2-069K23,1,149,PS,exp,46,←,left,←,0.7320006000809371,True,13,-1,0,10
Y2-S2-069K23,1,150,PS,exp,36,↓,down,↓,0.6686429999535903,True,13,-1,0,10
Y2-S2-069K23,1,151,PS,exp,29,→,right,→,1.0969009000109509,True,13,1,1,11
Y2-S2-069K23,1,152,PS,exp,34,↓,right,→,0.8627613999415189,False,12,-1,1,12
Y2-S2-069K23,1,153,PS,exp,49,↑,up,↑,0.7806950999656692,True,13,-1,0,12
Y2-S2-069K23,1,154,PS,exp,36,→,left,←,1.1756638999795541,False,13,-1,0,12
Y2-S2-069K23,1,155,PS,exp,37,↑,up,↑,0.8860594000434503,True,14,-1,0,12
Y2-S2-069K23,1,156,PS,exp,48,↓,down,↓,0.7974945999449119,True,14,-1,0,12
Y2-S2-069K23,1,157,PS,exp,27,←,left,←,0.9473304999992251,True,14,1,1,13
Y2-S2-069K23,1,158,PS,exp,36,↓,down,↓,0.8594334999797866,True,13,1,0,13
Y2-S2-069K23,1,159,PS,exp,39,←,left,←,0.6748426000121981,True,13,1,0,13
Y2-S2-069K23,1,160,PS,exp,30,↓,down,↓,0.6605060999281704,True,13,1,0,13
Y2-S2-069K23,1,161,PS,exp,37,←,left,←,0.6192643999820575,True,12,1,0,13
Y2-S2-069K23,1,162,PS,exp,25,↓,down,↓,0.6487883999943733,True,12,1,0,13
Y2-S2-069K23,1,163,PS,exp,34,↑,right,→,0.612433800008148,False,12,-1,1,14
Y2-S2-069K23,1,164,PS,exp,35,←,right,→,0.6001990999793634,False,13,-1,0,14
Y2-S2-069K23,1,165,PS,exp,31,→,right,→,0.7253565000137314,True,14,-1,0,14
Y2-S2-069K23,1,166,PS,exp,46,↓,down,↓,0.7019126999657601,True,14,-1,0,14
Y2-S2-069K23,1,167,PS,exp,44,→,right,→,0.6375374000053853,True,14,1,1,15
Y2-S2-069K23,1,168,PS,exp,36,↑,up,↑,0.7960563000524417,True,13,1,0,15
Y2-S2-069K23,1,169,PS,exp,36,←,down,↓,0.6984686000505462,False,13,-1,1,16
Y2-S2-069K23,2,170,AS,intra_train,32,→,right,→,0.8316460000351071,True,28,-,-,-
Y2-S2-069K23,2,171,AS,intra_train,36,←,left,←,2.0168470999924466,True,28,-,-,-
Y2-S2-069K23,2,172,AS,intra_train,41,↑,up,↑,0.9643997999373823,True,28,-,-,-
Y2-S2-069K23,2,173,AS,intra_train,50,↓,down,↓,0.8340699999826029,True,28,-,-,-
Y2-S2-069K23,2,174,AS,intra_train,31,→,right,→,2.0112052999902517,True,28,-,-,-
Y2-S2-069K23,2,175,AS,exp,34,↑,up,↑,0.9427707999711856,True,19,0,0,0
Y2-S2-069K23,2,176,AS,exp,31,←,right,→,0.764632900012657,False,19,-1,0,0
Y2-S2-069K23,2,177,AS,exp,48,↑,up,↑,0.8344295000424609,True,20,-1,0,0
Y2-S2-069K23,2,178,AS,exp,46,→,right,→,0.6558554000221193,True,20,-1,0,0
Y2-S2-069K23,2,179,AS,exp,43,↓,down,↓,0.8073936000000685,True,20,1,1,1
Y2-S2-069K23,2,180,AS,exp,34,←,left,←,0.8331976999761537,True,19,1,0,1
Y2-S2-069K23,2,181,AS,exp,44,↓,down,↓,0.8237897999351844,True,19,1,0,1
Y2-S2-069K23,2,182,AS,exp,49,→,right,→,0.7748549999669194,True,19,1,0,1
Y2-S2-069K23,2,183,AS,exp,44,↓,down,↓,0.8316921000368893,True,18,1,0,1
Y2-S2-069K23,2,184,AS,exp,25,←,left,←,0.6757502000546083,True,18,1,0,1
Y2-S2-069K23,2,185,AS,exp,37,↓,down,↓,1.1318073999136686,True,18,1,0,1
Y2-S2-069K23,2,186,AS,exp,27,→,right,→,0.6840230000670999,True,17,1,0,1
Y2-S2-069K23,2,187,AS,exp,30,↓,down,↓,0.7583534000441432,True,17,1,0,1
Y2-S2-069K23,2,188,AS,exp,47,↑,up,↑,0.7108562999637797,True,17,1,0,1
Y2-S2-069K23,2,189,AS,exp,34,←,left,←,0.6907545999856666,True,16,1,0,1
Y2-S2-069K23,2,190,AS,exp,33,→,right,→,0.7027474999194965,True,16,1,0,1
Y2-S2-069K23,2,191,AS,exp,38,↑,right,→,0.9054742000298575,False,16,-1,1,2
Y2-S2-069K23,2,192,AS,exp,25,→,right,→,1.0632655000081286,True,17,-1,0,2
Y2-S2-069K23,2,193,AS,exp,27,↓,down,↓,0.8100122000323609,True,17,-1,0,2
Y2-S2-069K23,2,194,AS,exp,49,→,right,→,0.7867712000152096,True,17,1,1,3
Y2-S2-069K23,2,195,AS,exp,27,←,left,←,0.8274075000081211,True,16,1,0,3
Y2-S2-069K23,2,196,AS,exp,46,↓,right,→,0.8762731999158859,False,16,-1,1,4
Y2-S2-069K23,2,197,AS,exp,37,→,left,←,0.8752065999433398,False,17,-1,0,4
Y2-S2-069K23,2,198,AS,exp,41,↓,down,↓,0.8606174000306055,True,18,-1,0,4
Y2-S2-069K23,2,199,AS,exp,31,↑,up,↑,0.7616317999782041,True,18,-1,0,4
Y2-S2-069K23,2,200,AS,exp,42,→,right,→,0.7403010999551043,True,18,1,1,5
Y2-S2-069K23,2,201,AS,exp,44,←,left,←,0.9027242000447586,True,17,1,0,5
Y2-S2-069K23,2,202,AS,exp,39,→,right,→,0.7475650999695063,True,17,1,0,5
Y2-S2-069K23,2,203,AS,exp,38,←,left,←,0.8527405000058934,True,17,1,0,5
Y2-S2-069K23,2,204,AS,exp,32,↓,down,↓,0.8559063000138849,True,16,1,0,5
Y2-S2-069K23,2,205,AS,exp,35,←,left,←,0.8145671000238508,True,16,1,0,5
Y2-S2-069K23,2,206,AS,exp,29,↑,left,←,0.942387800081633,False,16,-1,1,6
Y2-S2-069K23,2,207,AS,exp,35,↓,down,↓,0.817324599949643,True,17,-1,0,6
Y2-S2-069K23,2,208,AS,exp,34,↑,up,↑,0.8621839999686927,True,17,-1,0,6
Y2-S2-069K23,2,209,AS,exp,28,→,right,→,0.7875682000303641,True,17,1,1,7
Y2-S2-069K23,2,210,AS,exp,31,←,left,←,0.7384639999363571,True,16,1,0,7
Y2-S2-069K23,2,211,AS,exp,34,→,right,→,0.6237568000797182,True,16,1,0,7
Y2-S2-069K23,2,212,AS,exp,35,↓,down,↓,0.6710829000221565,True,16,1,0,7
Y2-S2-069K23,2,213,AS,exp,41,←,left,←,0.6629467000020668,True,15,1,0,7
Y2-S2-069K23,2,214,AS,exp,46,↑,right,→,0.7287753999698907,False,15,-1,1,8
Y2-S2-069K23,2,215,AS,exp,48,→,right,→,0.553422600030899,True,16,-1,0,8
Y2-S2-069K23,2,216,AS,exp,44,↓,down,↓,0.7628308999119326,True,16,-1,0,8
Y2-S2-069K23,2,217,AS,exp,45,←,left,←,0.5883155999472365,True,16,1,1,9
Y2-S2-069K23,2,218,AS,exp,46,↓,down,↓,0.731360699981451,True,15,1,0,9
Y2-S2-069K23,2,219,AS,exp,48,↑,up,↑,0.4785389000317082,True,15,1,0,9
Y2-S2-069K23,2,220,AS,exp,25,←,right,→,0.8416365999728441,False,15,-1,1,10
Y2-S2-069K23,2,221,AS,exp,30,→,right,→,1.0065359000582248,True,16,-1,0,10
Y2-S2-069K23,2,222,AS,exp,25,←,left,←,0.8384455000050366,True,16,-1,0,10
Y2-S2-069K23,2,223,AS,exp,26,↑,up,↑,0.9905284000560641,True,16,1,1,11
Y2-S2-069K23,2,224,AS,exp,33,↓,down,↓,0.7365642000222579,True,15,1,0,11
Y2-S2-069K23,2,225,AS,exp,47,→,right,→,0.8797947999555618,True,15,1,0,11
Y2-S2-069K23,2,226,AS,exp,36,↓,down,↓,0.8634471000405028,True,15,1,0,11
Y2-S2-069K23,2,227,AS,exp,38,↑,down,↓,0.7665283000096679,False,14,-1,1,12
Y2-S2-069K23,2,228,AS,exp,42,←,up,↑,1.3062122000847012,False,15,-1,0,12
Y2-S2-069K23,2,229,AS,exp,38,→,right,→,0.5891609999816865,True,16,-1,0,12
Y2-S2-069K23,2,230,AS,exp,28,↓,down,↓,0.7598713000770658,True,16,-1,0,12
Y2-S2-069K23,2,231,AS,exp,31,←,left,←,0.5772103000199422,True,16,1,1,13
Y2-S2-069K23,2,232,AS,exp,28,↓,down,↓,0.721496699959971,True,15,1,0,13
Y2-S2-069K23,2,233,AS,exp,29,→,left,←,0.6151018000673503,False,15,-1,1,14
Y2-S2-069K23,2,234,AS,exp,39,↓,down,↓,0.611328300088644,True,16,-1,0,14
Y2-S2-069K23,2,235,AS,exp,38,↑,up,↑,0.8500514000188559,True,16,-1,0,14
Y2-S2-069K23,2,236,AS,exp,34,↓,down,↓,0.6662035000044852,True,16,1,1,15
Y2-S2-069K23,2,237,AS,exp,32,←,left,←,0.5829159000422806,True,15,1,0,15
Y2-S2-069K23,2,238,AS,exp,38,→,right,→,0.5083413999527693,True,15,1,0,15
Y2-S2-069K23,2,239,AS,exp,27,↓,down,↓,0.7058148999931291,True,15,1,0,15
Y2-S2-069K23,2,240,AS,exp,38,↑,up,↑,0.748004199936986,True,14,1,0,15
Y2-S2-069K23,2,241,AS,exp,28,←,right,→,0.5939081000396982,False,14,-1,1,16
Y2-S2-069K23,3,242,AS,intra_train,38,↓,left,←,1.7477891000453383,False,28,-,-,-
Y2-S2-069K23,3,243,AS,intra_train,27,←,left,←,0.7462363999802619,True,28,-,-,-
Y2-S2-069K23,3,244,AS,intra_train,37,↑,up,↑,0.8770618999842554,True,28,-,-,-
Y2-S2-069K23,3,245,AS,intra_train,39,←,left,←,0.6344331000000238,True,28,-,-,-
Y2-S2-069K23,3,246,AS,intra_train,29,↓,down,↓,1.0776435000589117,True,28,-,-,-
Y2-S2-069K23,3,247,AS,exp,44,→,right,→,0.615060199983418,True,19,0,0,0
Y2-S2-069K23,3,248,AS,exp,26,↓,down,↓,0.8771228000987321,True,19,0,0,0
Y2-S2-069K23,3,249,AS,exp,37,→,right,→,0.7449066999834031,True,19,1,0,0
Y2-S2-069K23,3,250,AS,exp,38,←,left,←,0.6826745000435039,True,18,1,0,0
Y2-S2-069K23,3,251,AS,exp,29,↑,up,↑,0.6858475001063198,True,18,1,0,0
Y2-S2-069K23,3,252,AS,exp,43,↓,up,↑,0.8312069999519736,False,18,-1,1,1
Y2-S2-069K23,3,253,AS,exp,41,↑,up,↑,0.6295205000787973,True,19,-1,0,1
Y2-S2-069K23,3,254,AS,exp,49,↓,down,↓,0.6940106999827549,True,19,-1,0,1
Y2-S2-069K23,3,255,AS,exp,41,←,left,←,0.769224900053814,True,19,1,1,2
Y2-S2-069K23,3,256,AS,exp,25,↓,down,↓,0.7028065000195056,True,18,1,0,2
Y2-S2-069K23,3,257,AS,exp,31,←,left,←,0.5736686000600457,True,18,1,0,2
Y2-S2-069K23,3,258,AS,exp,41,→,right,→,0.6399864999111742,True,18,1,0,2
Y2-S2-069K23,3,259,AS,exp,48,↑,up,↑,0.5908997999504209,True,17,1,0,2
Y2-S2-069K23,3,260,AS,exp,50,←,left,←,0.640739299939014,True,17,1,0,2
Y2-S2-069K23,3,261,AS,exp,34,↓,down,↓,0.7536238000029698,True,17,1,0,2
Y2-S2-069K23,3,262,AS,exp,35,↑,up,↑,0.5813747000647709,True,16,1,0,2
Y2-S2-069K23,3,263,AS,exp,42,←,up,↑,0.8794338000006974,False,16,-1,1,3
Y2-S2-069K23,3,264,AS,exp,38,→,right,→,0.7624207000480965,True,17,-1,0,3
Y2-S2-069K23,3,265,AS,exp,26,↑,up,↑,0.8820074000395834,True,17,-1,0,3
Y2-S2-069K23,3,266,AS,exp,34,↓,down,↓,0.8160422999644652,True,17,1,1,4
Y2-S2-069K23,3,267,AS,exp,36,↑,right,→,0.8425201000645757,False,16,-1,1,5
Y2-S2-069K23,3,268,AS,exp,37,←,right,→,0.572389499982819,False,17,-1,0,5
Y2-S2-069K23,3,269,AS,exp,35,→,right,→,0.48196260002441704,True,18,-1,0,5
Y2-S2-069K23,3,270,AS,exp,40,↓,down,↓,0.753830400062725,True,18,-1,0,5
Y2-S2-069K23,3,271,AS,exp,38,→,right,→,0.6511936000315472,True,18,1,1,6
Y2-S2-069K23,3,272,AS,exp,31,↑,up,↑,0.7034652000293136,True,17,1,0,6
Y2-S2-069K23,3,273,AS,exp,33,→,right,→,0.6744693999644369,True,17,1,0,6
Y2-S2-069K23,3,274,AS,exp,41,←,right,→,0.8637036000145599,False,17,-1,1,7
Y2-S2-069K23,3,275,AS,exp,29,↓,down,↓,0.7173238999675959,True,18,-1,0,7
Y2-S2-069K23,3,276,AS,exp,25,→,right,→,0.6018681999994442,True,18,-1,0,7
Y2-S2-069K23,3,277,AS,exp,27,←,left,←,0.6845453000860289,True,18,1,1,8
Y2-S2-069K23,3,278,AS,exp,49,→,right,→,0.6769457999616861,True,17,1,0,8
Y2-S2-069K23,3,279,AS,exp,49,↑,up,↑,0.6709874999942258,True,17,1,0,8
Y2-S2-069K23,3,280,AS,exp,34,↓,down,↓,0.7346410999307409,True,17,1,0,8
Y2-S2-069K23,3,281,AS,exp,43,↑,up,↑,0.8267991000320762,True,16,1,0,8
Y2-S2-069K23,3,282,AS,exp,43,→,right,→,0.5370690000709146,True,16,1,0,8
Y2-S2-069K23,3,283,AS,exp,45,←,left,←,0.5952653000131249,True,16,1,0,8
Y2-S2-069K23,3,284,AS,exp,33,↓,up,↑,0.7246304000727832,False,15,-1,1,9
Y2-S2-069K23,3,285,AS,exp,42,↑,up,↑,0.6354072999674827,True,16,-1,0,9
Y2-S2-069K23,3,286,AS,exp,29,→,right,→,0.6694546999642625,True,16,-1,0,9
Y2-S2-069K23,3,287,AS,exp,43,←,left,←,0.6007015999639407,True,16,1,1,10
Y2-S2-069K23,3,288,AS,exp,44,↑,up,↑,0.5890205000760034,True,15,1,0,10
Y2-S2-069K23,3,289,AS,exp,29,←,left,←,0.6419898000312969,True,15,1,0,10
Y2-S2-069K23,3,290,AS,exp,35,↓,down,↓,0.8700162000022829,True,15,1,0,10
Y2-S2-069K23,3,291,AS,exp,34,↑,right,→,0.697894399985671,False,14,-1,1,11
Y2-S2-069K23,3,292,AS,exp,34,↓,down,↓,0.4483878000173718,True,15,-1,0,11
Y2-S2-069K23,3,293,AS,exp,29,→,right,→,0.6676621000515297,True,15,-1,0,11
Y2-S2-069K23,3,294,AS,exp,38,↓,down,↓,0.5829706999938935,True,15,1,1,12
Y2-S2-069K23,3,295,AS,exp,25,↑,down,↓,0.6952981000067666,False,14,-1,1,13
Y2-S2-069K23,3,296,AS,exp,42,←,left,←,0.7212174000451341,True,15,-1,0,13
Y2-S2-069K23,3,297,AS,exp,44,↑,up,↑,0.7579889000626281,True,15,-1,0,13
Y2-S2-069K23,3,298,AS,exp,41,→,down,↓,0.7061276999302208,False,15,-1,0,13
Y2-S2-069K23,3,299,AS,exp,47,↑,up,↑,0.620911999954842,True,16,-1,0,13
Y2-S2-069K23,3,300,AS,exp,49,←,left,←,0.7793545000022277,True,16,-1,0,13
Y2-S2-069K23,3,301,AS,exp,44,→,left,←,0.7421315000392497,False,16,-1,0,13
Y2-S2-069K23,3,302,AS,exp,36,↓,up,↑,0.7872751000104472,False,17,-1,0,13
Y2-S2-069K23,3,303,AS,exp,48,↑,up,↑,0.6736873999470845,True,18,-1,0,13
Y2-S2-069K23,3,304,AS,exp,48,↓,down,↓,0.7744483998976648,True,18,-1,0,13
Y2-S2-069K23,3,305,AS,exp,39,→,left,←,0.7372582000680268,False,18,-1,0,13
Y2-S2-069K23,3,306,AS,exp,39,←,left,←,0.8000203999690711,True,19,-1,0,13
Y2-S2-069K23,3,307,AS,exp,30,↑,up,↑,0.7114848999772221,True,19,-1,0,13
Y2-S2-069K23,3,308,AS,exp,41,↓,down,↓,0.8517456999979913,True,19,1,1,14
Y2-S2-069K23,3,309,AS,exp,29,→,left,←,0.6336017000721768,False,18,-1,1,15
Y2-S2-069K23,3,310,AS,exp,27,↓,down,↓,0.7443460000213236,True,19,-1,0,15
Y2-S2-069K23,3,311,AS,exp,30,←,left,←,0.8896768001141027,True,19,-1,0,15
Y2-S2-069K23,3,312,AS,exp,27,↑,up,↑,1.0810954999178648,True,19,1,1,16
Y2-S2-069K23,4,313,PS,intra_train,50,←,no_key,no_letter,-1.0,False,25,-,-,-
Y2-S2-069K23,4,314,PS,intra_train,41,→,right,→,0.6730596999404952,True,25,-,-,-
Y2-S2-069K23,4,315,PS,intra_train,38,←,left,←,0.701044199988246,True,25,-,-,-
Y2-S2-069K23,4,316,PS,intra_train,44,→,right,→,0.6965899999486282,True,25,-,-,-
Y2-S2-069K23,4,317,PS,intra_train,28,←,left,←,0.6142314000753686,True,25,-,-,-
Y2-S2-069K23,4,318,PS,exp,43,↓,down,↓,0.8211878999136388,True,17,0,0,0
Y2-S2-069K23,4,319,PS,exp,29,→,left,←,0.8025187000166625,False,17,-1,0,0
Y2-S2-069K23,4,320,PS,exp,48,↓,down,↓,0.7242794999619946,True,18,-1,0,0
Y2-S2-069K23,4,321,PS,exp,41,↑,up,↑,0.6703683000523597,True,18,-1,0,0
Y2-S2-069K23,4,322,PS,exp,30,↓,down,↓,0.8126429000403732,True,18,1,1,1
Y2-S2-069K23,4,323,PS,exp,40,→,right,→,0.708430300001055,True,17,1,0,1
Y2-S2-069K23,4,324,PS,exp,43,↓,down,↓,0.7972055000718683,True,17,1,0,1
Y2-S2-069K23,4,325,PS,exp,39,←,left,←,0.6386488999705762,True,17,1,0,1
Y2-S2-069K23,4,326,PS,exp,42,→,right,→,0.6755926999030635,True,16,1,0,1
Y2-S2-069K23,4,327,PS,exp,46,←,right,→,0.6257163999835029,False,16,-1,1,2
Y2-S2-069K23,4,328,PS,exp,46,↓,down,↓,0.6902311000740156,True,17,-1,0,2
Y2-S2-069K23,4,329,PS,exp,31,↑,up,↑,0.5620695999823511,True,17,-1,0,2
Y2-S2-069K23,4,330,PS,exp,28,→,right,→,0.564034300041385,True,17,1,1,3
Y2-S2-069K23,4,331,PS,exp,33,↑,up,↑,0.7448724999558181,True,16,1,0,3
Y2-S2-069K23,4,332,PS,exp,32,←,left,←,0.7234250999754295,True,16,1,0,3
Y2-S2-069K23,4,333,PS,exp,42,→,right,→,0.6601152000948787,True,16,1,0,3
Y2-S2-069K23,4,334,PS,exp,42,←,left,←,0.5804459999781102,True,15,1,0,3
Y2-S2-069K23,4,335,PS,exp,31,↓,up,↑,0.7290634999517351,False,15,-1,1,4
Y2-S2-069K23,4,336,PS,exp,34,↑,up,↑,0.6249459000537172,True,16,-1,0,4
Y2-S2-069K23,4,337,PS,exp,43,→,right,→,0.6299718000227585,True,16,-1,0,4
Y2-S2-069K23,4,338,PS,exp,46,←,left,←,0.5509378000861034,True,16,1,1,5
Y2-S2-069K23,4,339,PS,exp,44,↓,down,↓,0.7296028999844566,True,15,1,0,5
Y2-S2-069K23,4,340,PS,exp,35,→,right,→,0.7454821000574157,True,15,1,0,5
Y2-S2-069K23,4,341,PS,exp,36,↑,up,↑,0.6053632999537513,True,15,1,0,5
Y2-S2-069K23,4,342,PS,exp,35,→,right,→,0.5605590000050142,True,14,1,0,5
Y2-S2-069K23,4,343,PS,exp,29,↑,up,↑,0.542445300030522,True,14,1,0,5
Y2-S2-069K23,4,344,PS,exp,41,←,right,→,0.6894246999872848,False,14,-1,1,6
Y2-S2-069K23,4,345,PS,exp,35,→,right,→,0.628435599966906,True,15,-1,0,6
Y2-S2-069K23,4,346,PS,exp,50,←,left,←,0.5795216999249533,True,15,-1,0,6
Y2-S2-069K23,4,347,PS,exp,41,↓,down,↓,0.7124386000214145,True,15,1,1,7
Y2-S2-069K23,4,348,PS,exp,28,→,right,→,0.5824966999934986,True,14,1,0,7
Y2-S2-069K23,4,349,PS,exp,28,↓,down,↓,0.6474089999683201,True,14,1,0,7
Y2-S2-069K23,4,350,PS,exp,30,→,right,→,0.5671976999146864,True,14,1,0,7
Y2-S2-069K23,4,351,PS,exp,38,←,right,→,0.6937805000925437,False,13,-1,1,8
Y2-S2-069K23,4,352,PS,exp,27,↑,right,→,0.624642499955371,False,14,-1,0,8
Y2-S2-069K23,4,353,PS,exp,46,←,left,←,0.4748909999616444,True,15,-1,0,8
Y2-S2-069K23,4,354,PS,exp,43,↑,right,→,0.5675731999799609,False,15,-1,0,8
Y2-S2-069K23,4,355,PS,exp,25,←,right,→,0.5752442999510095,False,16,-1,0,8
Y2-S2-069K23,4,356,PS,exp,34,↑,up,↑,0.7462178999558091,True,17,-1,0,8
Y2-S2-069K23,4,357,PS,exp,47,←,left,←,0.49939050001557916,True,17,-1,0,8
Y2-S2-069K23,4,358,PS,exp,47,→,right,→,0.5697113999631256,True,17,1,1,9
Y2-S2-069K23,4,359,PS,exp,48,↑,up,↑,0.6171770000364631,True,16,1,0,9
Y2-S2-069K23,4,360,PS,exp,34,←,left,←,0.634995200089179,True,16,1,0,9
Y2-S2-069K23,4,361,PS,exp,40,↓,down,↓,0.6584476000862196,True,16,1,0,9
Y2-S2-069K23,4,362,PS,exp,36,↑,right,→,0.7495926000410691,False,15,-1,1,10
Y2-S2-069K23,4,363,PS,exp,48,→,right,→,0.7378643000265583,True,16,-1,0,10
Y2-S2-069K23,4,364,PS,exp,47,↑,up,↑,0.6965889999410138,True,16,-1,0,10
Y2-S2-069K23,4,365,PS,exp,50,←,left,←,0.6592218999285251,True,16,1,1,11
Y2-S2-069K23,4,366,PS,exp,35,↑,up,↑,0.6674699999857694,True,15,1,0,11
Y2-S2-069K23,4,367,PS,exp,28,↓,down,↓,0.7342589000472799,True,15,1,0,11
Y2-S2-069K23,4,368,PS,exp,33,→,right,→,0.46271870005875826,True,15,1,0,11
Y2-S2-069K23,4,369,PS,exp,36,↑,up,↑,0.4939437999855727,True,14,1,0,11
Y2-S2-069K23,4,370,PS,exp,46,→,right,→,0.506192300003022,True,14,1,0,11
Y2-S2-069K23,4,371,PS,exp,32,↓,down,↓,0.7447926999302581,True,14,1,0,11
Y2-S2-069K23,4,372,PS,exp,39,↑,up,↑,0.49924919998738915,True,13,1,0,11
Y2-S2-069K23,4,373,PS,exp,33,←,up,↑,0.8204659998882562,False,13,-1,1,12
Y2-S2-069K23,4,374,PS,exp,26,↑,up,↑,0.6961987999966368,True,14,-1,0,12
Y2-S2-069K23,4,375,PS,exp,40,→,right,→,0.5348003999097273,True,14,-1,0,12
Y2-S2-069K23,4,376,PS,exp,38,↓,down,↓,0.7800358000677079,True,14,1,1,13
Y2-S2-069K23,4,377,PS,exp,31,↑,down,↓,0.9041163999354467,False,13,-1,1,14
Y2-S2-069K23,4,378,PS,exp,42,→,right,→,0.5921565999742597,True,14,-1,0,14
Y2-S2-069K23,4,379,PS,exp,46,←,left,←,0.5013416999718174,True,14,-1,0,14
Y2-S2-069K23,4,380,PS,exp,36,↑,up,↑,0.6916865999810398,True,14,1,1,15
Y2-S2-069K23,4,381,PS,exp,26,↓,down,↓,0.6463405000977218,True,13,1,0,15
Y2-S2-069K23,4,382,PS,exp,49,→,right,→,0.4648269999306649,True,13,1,0,15
Y2-S2-069K23,4,383,PS,exp,48,↑,up,↑,0.8527358999708667,True,13,1,0,15
Y2-S2-069K23,4,384,PS,exp,30,←,left,←,0.6473300000652671,True,12,1,0,15
Y2-S2-069K23,4,385,PS,exp,38,↓,down,↓,0.567596499924548,True,12,1,0,15
Y2-S2-069K23,4,386,PS,exp,50,←,right,→,0.5696535999886692,False,12,-1,1,16
Y2-S2-069K23,5,387,PS,intra_train,45,↓,down,↓,0.725146499928087,True,25,-,-,-
Y2-S2-069K23,5,388,PS,intra_train,45,←,left,←,0.9522063999902457,True,25,-,-,-
Y2-S2-069K23,5,389,PS,intra_train,30,↓,down,↓,0.6779310000129044,True,25,-,-,-
Y2-S2-069K23,5,390,PS,intra_train,49,→,right,→,0.5877366999629885,True,25,-,-,-
Y2-S2-069K23,5,391,PS,intra_train,45,↑,up,↑,0.6394757999805734,True,25,-,-,-
Y2-S2-069K23,5,392,PS,exp,48,↓,down,↓,0.9069689000025392,True,17,0,0,0
Y2-S2-069K23,5,393,PS,exp,42,→,right,→,0.6251251000212505,True,17,0,0,0
Y2-S2-069K23,5,394,PS,exp,44,←,left,←,0.5404981999890879,True,17,1,0,0
Y2-S2-069K23,5,395,PS,exp,31,↓,right,→,0.7169059999287128,False,16,-1,1,1
Y2-S2-069K23,5,396,PS,exp,44,↑,up,↑,0.6200620000017807,True,17,-1,0,1
Y2-S2-069K23,5,397,PS,exp,48,↓,down,↓,0.7792887999676168,True,17,-1,0,1
Y2-S2-069K23,5,398,PS,exp,39,→,right,→,0.5308004999533296,True,17,1,1,2
Y2-S2-069K23,5,399,PS,exp,25,←,left,←,0.5001622999552637,True,16,1,0,2
Y2-S2-069K23,5,400,PS,exp,29,↓,down,↓,0.7467215999495238,True,16,1,0,2
Y2-S2-069K23,5,401,PS,exp,46,←,right,→,0.4841960999183357,False,16,-1,1,3
Y2-S2-069K23,5,402,PS,exp,39,→,right,→,0.5801106999861076,True,17,-1,0,3
Y2-S2-069K23,5,403,PS,exp,25,↓,down,↓,0.7359442999586463,True,17,-1,0,3
Y2-S2-069K23,5,404,PS,exp,26,↑,up,↑,0.7262949000578374,True,17,1,1,4
Y2-S2-069K23,5,405,PS,exp,47,→,right,→,0.6216011999640614,True,16,1,0,4
Y2-S2-069K23,5,406,PS,exp,48,↓,down,↓,0.6979911000235006,True,16,1,0,4
Y2-S2-069K23,5,407,PS,exp,26,→,right,→,0.5514932000078261,True,16,1,0,4
Y2-S2-069K23,5,408,PS,exp,35,↑,up,↑,0.5672532999888062,True,15,1,0,4
Y2-S2-069K23,5,409,PS,exp,50,→,right,→,0.5317716000135988,True,15,1,0,4
Y2-S2-069K23,5,410,PS,exp,41,←,left,←,0.7138089000945911,True,15,1,0,4
Y2-S2-069K23,5,411,PS,exp,35,↑,up,↑,0.6209453999763355,True,14,1,0,4
Y2-S2-069K23,5,412,PS,exp,47,↓,down,↓,0.7844477999024093,True,14,1,0,4
Y2-S2-069K23,5,413,PS,exp,43,←,left,←,0.6227051999885589,True,14,1,0,4
Y2-S2-069K23,5,414,PS,exp,43,↑,right,→,0.5766131000127643,False,13,-1,1,5
Y2-S2-069K23,5,415,PS,exp,44,→,up,↑,1.0183216000441462,False,14,-1,0,5
Y2-S2-069K23,5,416,PS,exp,49,↑,up,↑,0.5805649000685662,True,15,-1,0,5
Y2-S2-069K23,5,417,PS,exp,25,↓,down,↓,0.7265450999839231,True,15,-1,0,5
Y2-S2-069K23,5,418,PS,exp,28,→,right,→,0.46264879999216646,True,15,1,1,6
Y2-S2-069K23,5,419,PS,exp,44,↓,down,↓,0.6383778000017628,True,14,1,0,6
Y2-S2-069K23,5,420,PS,exp,34,←,left,←,0.6559799000388011,True,14,1,0,6
Y2-S2-069K23,5,421,PS,exp,27,→,right,→,0.6506141999270767,True,14,1,0,6
Y2-S2-069K23,5,422,PS,exp,30,↑,up,↑,0.5982949999161065,True,13,1,0,6
Y2-S2-069K23,5,423,PS,exp,36,→,right,→,0.5965895999688655,True,13,1,0,6
Y2-S2-069K23,5,424,PS,exp,48,←,right,→,0.6181862000375986,False,13,-1,1,7
Y2-S2-069K23,5,425,PS,exp,32,↓,down,↓,0.8233944000676274,True,14,-1,0,7
Y2-S2-069K23,5,426,PS,exp,36,→,left,←,0.9424170999554917,False,14,-1,0,7
Y2-S2-069K23,5,427,PS,exp,34,↓,down,↓,0.5772399000125006,True,15,-1,0,7
Y2-S2-069K23,5,428,PS,exp,29,←,right,→,0.6762770999921486,False,15,-1,0,7
Y2-S2-069K23,5,429,PS,exp,33,↓,down,↓,0.6323072999948636,True,16,-1,0,7
Y2-S2-069K23,5,430,PS,exp,34,→,left,←,0.8205723999999464,False,16,-1,0,7
Y2-S2-069K23,5,431,PS,exp,31,↓,down,↓,0.8478192000184208,True,17,-1,0,7
Y2-S2-069K23,5,432,PS,exp,26,→,right,→,0.672136600012891,True,17,-1,0,7
Y2-S2-069K23,5,433,PS,exp,27,↓,down,↓,0.857936300104484,True,17,1,1,8
Y2-S2-069K23,5,434,PS,exp,27,←,left,←,0.695752099971287,True,16,1,0,8
Y2-S2-069K23,5,435,PS,exp,25,↓,down,↓,0.8239000000758097,True,16,1,0,8
Y2-S2-069K23,5,436,PS,exp,32,←,left,←,0.6487308000214398,True,16,1,0,8
Y2-S2-069K23,5,437,PS,exp,35,→,right,→,0.5529270999832079,True,15,1,0,8
Y2-S2-069K23,5,438,PS,exp,50,↓,up,↑,0.7128341000061482,False,15,-1,1,9
Y2-S2-069K23,5,439,PS,exp,29,←,up,↑,0.7394019000930712,False,16,-1,0,9
Y2-S2-069K23,5,440,PS,exp,33,↑,up,↑,0.6151232999982312,True,17,-1,0,9
Y2-S2-069K23,5,441,PS,exp,27,↓,down,↓,0.7299855999881402,True,17,-1,0,9
Y2-S2-069K23,5,442,PS,exp,33,→,right,→,0.7523996999952942,True,17,1,1,10
Y2-S2-069K23,5,443,PS,exp,47,←,left,←,0.7445298000238836,True,16,1,0,10
Y2-S2-069K23,5,444,PS,exp,41,↓,down,↓,0.8517611999996006,True,16,1,0,10
Y2-S2-069K23,5,445,PS,exp,50,←,left,←,0.5799247999675572,True,16,1,0,10
Y2-S2-069K23,5,446,PS,exp,45,→,right,→,0.5645311999833211,True,15,1,0,10
Y2-S2-069K23,5,447,PS,exp,30,←,right,→,0.6763477000640705,False,15,-1,1,11
Y2-S2-069K23,5,448,PS,exp,28,→,right,→,0.4983657000120729,True,16,-1,0,11
Y2-S2-069K23,5,449,PS,exp,27,↑,up,↑,0.8281080999877304,True,16,-1,0,11
Y2-S2-069K23,5,450,PS,exp,38,↓,down,↓,0.7487530999351293,True,16,1,1,12
Y2-S2-069K23,5,451,PS,exp,40,→,right,→,0.7003086999757215,True,15,1,0,12
Y2-S2-069K23,5,452,PS,exp,26,↑,up,↑,1.1417883000103757,True,15,1,0,12
Y2-S2-069K23,5,453,PS,exp,26,↓,down,↓,0.5941253999480978,True,15,1,0,12
Y2-S2-069K23,5,454,PS,exp,28,↑,up,↑,0.5552973999874666,True,14,1,0,12
Y2-S2-069K23,5,455,PS,exp,26,→,right,→,0.6049663000740111,True,14,1,0,12
Y2-S2-069K23,5,456,PS,exp,33,↑,up,↑,0.837719599949196,True,14,1,0,12
Y2-S2-069K23,5,457,PS,exp,42,←,right,→,0.5750461000716314,False,13,-1,1,13
Y2-S2-069K23,5,458,PS,exp,29,↑,up,↑,0.8460694999666885,True,14,-1,0,13
Y2-S2-069K23,5,459,PS,exp,45,→,right,→,0.5190056000137702,True,14,-1,0,13
Y2-S2-069K23,5,460,PS,exp,39,↓,down,↓,0.7240284999134019,True,14,1,1,14
Y2-S2-069K23,5,461,PS,exp,26,←,left,←,0.52340710000135,True,13,1,0,14
Y2-S2-069K23,5,462,PS,exp,30,→,right,→,0.412999999942258,True,13,1,0,14
Y2-S2-069K23,5,463,PS,exp,50,↑,left,←,1.6971351000247523,False,13,-1,1,15
Y2-S2-069K23,5,464,PS,exp,43,←,left,←,0.5710192999104038,True,14,-1,0,15
Y2-S2-069K23,5,465,PS,exp,43,↑,up,↑,0.5105301999719813,True,14,-1,0,15
Y2-S2-069K23,5,466,PS,exp,42,↓,down,↓,0.5434252000413835,True,14,1,1,16
Y2-S2-069K23,6,467,AS,intra_train,25,→,right,→,0.6468710999470204,True,28,-,-,-
Y2-S2-069K23,6,468,AS,intra_train,32,←,left,←,0.5008428000146523,True,28,-,-,-
Y2-S2-069K23,6,469,AS,intra_train,37,↑,up,↑,0.736558600096032,True,28,-,-,-
Y2-S2-069K23,6,470,AS,intra_train,43,←,left,←,0.7100350999971852,True,28,-,-,-
Y2-S2-069K23,6,471,AS,intra_train,45,→,right,→,0.6004539000568911,True,28,-,-,-
Y2-S2-069K23,6,472,AS,exp,25,←,right,→,0.764035000000149,False,19,-1,0,0
Y2-S2-069K23,6,473,AS,exp,42,↑,up,↑,1.0201336001046002,True,20,-1,0,0
Y2-S2-069K23,6,474,AS,exp,27,↓,down,↓,0.9698211000068113,True,20,-1,0,0
Y2-S2-069K23,6,475,AS,exp,27,→,right,→,0.6878430999349803,True,20,1,1,1
Y2-S2-069K23,6,476,AS,exp,50,↑,up,↑,0.6203703000210226,True,19,1,0,1
Y2-S2-069K23,6,477,AS,exp,26,→,right,→,0.6879880999913439,True,19,1,0,1
Y2-S2-069K23,6,478,AS,exp,31,↑,up,↑,0.6796403999906033,True,19,1,0,1
Y2-S2-069K23,6,479,AS,exp,36,↓,down,↓,0.8445424999808893,True,18,1,0,1
Y2-S2-069K23,6,480,AS,exp,46,←,left,←,0.7442365000024438,True,18,1,0,1
Y2-S2-069K23,6,481,AS,exp,49,↓,right,→,0.8341406000545248,False,18,-1,1,2
Y2-S2-069K23,6,482,AS,exp,36,←,left,←,0.5929608000442386,True,19,-1,0,2
Y2-S2-069K23,6,483,AS,exp,36,↓,right,→,0.6219218000769615,False,19,-1,0,2
Y2-S2-069K23,6,484,AS,exp,40,↑,up,↑,0.5902827000245452,True,20,-1,0,2
Y2-S2-069K23,6,485,AS,exp,30,↓,down,↓,0.8529542000032961,True,20,-1,0,2
Y2-S2-069K23,6,486,AS,exp,42,↑,up,↑,1.1524284000042826,True,20,1,1,3
Y2-S2-069K23,6,487,AS,exp,47,↓,down,↓,0.8507654999848455,True,19,1,0,3
Y2-S2-069K23,6,488,AS,exp,38,→,right,→,0.6595200999872759,True,19,1,0,3
Y2-S2-069K23,6,489,AS,exp,45,↓,left,←,0.6606345000909641,False,19,-1,1,4
Y2-S2-069K23,6,490,AS,exp,28,→,left,←,0.6097529999678954,False,20,-1,0,4
Y2-S2-069K23,6,491,AS,exp,48,←,right,→,0.683119900058955,False,21,-1,0,4
Y2-S2-069K23,6,492,AS,exp,27,↑,up,↑,0.7686081000138074,True,22,-1,0,4
Y2-S2-069K23,6,493,AS,exp,45,→,right,→,0.7404342999216169,True,22,-1,0,4
Y2-S2-069K23,6,494,AS,exp,48,←,left,←,0.8483670999994501,True,22,1,1,5
Y2-S2-069K23,6,495,AS,exp,26,↓,down,↓,0.7372965000104159,True,21,1,0,5
Y2-S2-069K23,6,496,AS,exp,40,←,left,←,0.7572557999519631,True,21,1,0,5
Y2-S2-069K23,6,497,AS,exp,33,→,right,→,0.6134855999844149,True,21,1,0,5
Y2-S2-069K23,6,498,AS,exp,49,←,left,←,0.6807475000387058,True,20,1,0,5
Y2-S2-069K23,6,499,AS,exp,37,↑,up,↑,0.7377340999664739,True,20,1,0,5
Y2-S2-069K23,6,500,AS,exp,48,→,no_key,no_letter,-1.0,False,20,-1,1,6
Y2-S2-069K23,6,501,AS,exp,44,↓,down,↓,0.9022147000068799,True,21,-1,0,6
Y2-S2-069K23,6,502,AS,exp,36,←,left,←,0.7945460000773892,True,21,-1,0,6
Y2-S2-069K23,6,503,AS,exp,47,↑,up,↑,0.6086552999913692,True,21,1,1,7
Y2-S2-069K23,6,504,AS,exp,28,→,right,→,0.6065115000819787,True,20,1,0,7
Y2-S2-069K23,6,505,AS,exp,38,↓,down,↓,0.7176794999977574,True,20,1,0,7
Y2-S2-069K23,6,506,AS,exp,41,←,left,←,0.6667876999126747,True,20,1,0,7
Y2-S2-069K23,6,507,AS,exp,35,↑,up,↑,0.8301268999930471,True,19,1,0,7
Y2-S2-069K23,6,508,AS,exp,48,↓,left,←,0.7127635000506416,False,19,-1,1,8
Y2-S2-069K23,6,509,AS,exp,41,←,right,→,0.5699411999667063,False,20,-1,0,8
Y2-S2-069K23,6,510,AS,exp,33,↑,up,↑,0.8986385999014601,True,21,-1,0,8
Y2-S2-069K23,6,511,AS,exp,42,←,left,←,0.671396000077948,True,21,-1,0,8
Y2-S2-069K23,6,512,AS,exp,36,↑,down,↓,0.986955999978818,False,21,-1,0,8
Y2-S2-069K23,6,513,AS,exp,37,←,left,←,0.5786480000242591,True,22,-1,0,8
Y2-S2-069K23,6,514,AS,exp,40,→,right,→,0.5543991000158712,True,22,-1,0,8
Y2-S2-069K23,6,515,AS,exp,45,↑,up,↑,0.5750683998921886,True,22,1,1,9
Y2-S2-069K23,6,516,AS,exp,46,↓,down,↓,0.7242657999740914,True,21,1,0,9
Y2-S2-069K23,6,517,AS,exp,32,↑,up,↑,0.6974152000620961,True,21,1,0,9
Y2-S2-069K23,6,518,AS,exp,43,↓,right,→,0.843696599942632,False,21,-1,1,10
Y2-S2-069K23,6,519,AS,exp,25,↑,up,↑,1.1494861000683159,True,22,-1,0,10
Y2-S2-069K23,6,520,AS,exp,32,↓,down,↓,0.7130017000017688,True,22,-1,0,10
Y2-S2-069K23,6,521,AS,exp,47,↑,up,↑,0.6169347000541165,True,22,1,1,11
Y2-S2-069K23,6,522,AS,exp,35,←,right,→,1.0627272999845445,False,21,-1,1,12
Y2-S2-069K23,6,523,AS,exp,48,↓,up,↑,1.0715750999515876,False,22,-1,0,12
Y2-S2-069K23,6,524,AS,exp,39,↑,up,↑,0.587808100041002,True,23,-1,0,12
Y2-S2-069K23,6,525,AS,exp,44,←,left,←,0.7903208000352606,True,23,-1,0,12
Y2-S2-069K23,6,526,AS,exp,27,↑,up,↑,0.7887383000925183,True,23,1,1,13
Y2-S2-069K23,6,527,AS,exp,36,←,left,←,0.8204888999462128,True,22,1,0,13
Y2-S2-069K23,6,528,AS,exp,38,→,right,→,0.5891829000320286,True,22,1,0,13
Y2-S2-069K23,6,529,AS,exp,43,↓,down,↓,0.7026573000475764,True,22,1,0,13
Y2-S2-069K23,6,530,AS,exp,28,→,right,→,0.7379703000187874,True,21,1,0,13
Y2-S2-069K23,6,531,AS,exp,26,←,left,←,0.7665637999307364,True,21,1,0,13
Y2-S2-069K23,6,532,AS,exp,33,→,left,←,0.7627377000171691,False,21,-1,1,14
Y2-S2-069K23,6,533,AS,exp,42,↓,down,↓,0.7781007000012323,True,22,-1,0,14
Y2-S2-069K23,6,534,AS,exp,36,←,left,←,0.9742458000546321,True,22,-1,0,14
Y2-S2-069K23,6,535,AS,exp,27,→,right,→,0.7121021000202745,True,22,1,1,15
Y2-S2-069K23,6,536,AS,exp,44,←,left,←,0.9670734000392258,True,21,1,0,15
Y2-S2-069K23,6,537,AS,exp,25,↑,left,←,0.7731015000026673,False,21,-1,1,16
Y2-S2-069K23,7,538,AS,intra_train,40,→,right,→,0.5840094999875873,True,28,-,-,-
Y2-S2-069K23,7,539,AS,intra_train,32,↑,up,↑,0.73261129995808,True,28,-,-,-
Y2-S2-069K23,7,540,AS,intra_train,29,↓,down,↓,1.28296949993819,True,28,-,-,-
Y2-S2-069K23,7,541,AS,intra_train,31,↑,up,↑,1.0661582000320777,True,28,-,-,-
Y2-S2-069K23,7,542,AS,intra_train,31,→,no_key,no_letter,-1.0,False,28,-,-,-
Y2-S2-069K23,7,543,AS,exp,40,↑,up,↑,0.8006171999732032,True,19,0,0,0
Y2-S2-069K23,7,544,AS,exp,33,↓,down,↓,0.786100700031966,True,19,0,0,0
Y2-S2-069K23,7,545,AS,exp,47,→,no_key,no_letter,-1.0,False,19,-1,0,0
Y2-S2-069K23,7,546,AS,exp,41,←,left,←,0.8944441999774426,True,20,-1,0,0
Y2-S2-069K23,7,547,AS,exp,28,→,right,→,1.4406841000309214,True,20,-1,0,0
Y2-S2-069K23,7,548,AS,exp,28,↑,right,→,1.0155070000328124,False,20,-1,0,0
Y2-S2-069K23,7,549,AS,exp,40,←,left,←,0.6410375999985263,True,21,-1,0,0
Y2-S2-069K23,7,550,AS,exp,27,↑,up,↑,0.8799501999747008,True,21,-1,0,0
Y2-S2-069K23,7,551,AS,exp,28,→,right,→,0.6708489999873564,True,21,1,1,1
Y2-S2-069K23,7,552,AS,exp,37,↑,up,↑,0.7499176999554038,True,20,1,0,1
Y2-S2-069K23,7,553,AS,exp,33,→,right,→,0.6609908998943865,True,20,1,0,1
Y2-S2-069K23,7,554,AS,exp,48,↑,up,↑,0.6500896000070497,True,20,1,0,1
Y2-S2-069K23,7,555,AS,exp,50,←,left,←,0.6290603000670671,True,19,1,0,1
Y2-S2-069K23,7,556,AS,exp,38,→,right,→,0.6189760999986902,True,19,1,0,1
Y2-S2-069K23,7,557,AS,exp,41,↑,up,↑,0.6640761999879032,True,19,1,0,1
Y2-S2-069K23,7,558,AS,exp,29,→,right,→,0.7542078000260517,True,18,1,0,1
Y2-S2-069K23,7,559,AS,exp,29,↓,down,↓,0.878733400022611,True,18,1,0,1
Y2-S2-069K23,7,560,AS,exp,39,→,right,→,0.9023367000045255,True,18,1,0,1
Y2-S2-069K23,7,561,AS,exp,47,←,left,←,1.7075297000119463,True,17,1,0,1
Y2-S2-069K23,7,562,AS,exp,45,↑,right,→,1.516870499937795,False,17,-1,1,2
Y2-S2-069K23,7,563,AS,exp,48,←,left,←,1.0913961000042036,True,18,-1,0,2
Y2-S2-069K23,7,564,AS,exp,35,↑,up,↑,1.0012271999148652,True,18,-1,0,2
Y2-S2-069K23,7,565,AS,exp,38,←,left,←,0.9398877000203356,True,18,1,1,3
Y2-S2-069K23,7,566,AS,exp,38,↑,right,→,0.7513248000759631,False,17,-1,1,4
Y2-S2-069K23,7,567,AS,exp,39,←,left,←,0.699881499982439,True,18,-1,0,4
Y2-S2-069K23,7,568,AS,exp,44,↑,up,↑,0.9789110000710934,True,18,-1,0,4
Y2-S2-069K23,7,569,AS,exp,48,→,right,→,0.8072048999601975,True,18,1,1,5
Y2-S2-069K23,7,570,AS,exp,29,↑,up,↑,0.7371972999535501,True,17,1,0,5
Y2-S2-069K23,7,571,AS,exp,28,←,right,→,0.7189655000111088,False,17,-1,1,6
Y2-S2-069K23,7,572,AS,exp,50,→,right,→,0.8577282999176532,True,18,-1,0,6
Y2-S2-069K23,7,573,AS,exp,37,←,right,→,0.7032488000113517,False,18,-1,0,6
Y2-S2-069K23,7,574,AS,exp,33,→,left,←,0.7751154999714345,False,19,-1,0,6
Y2-S2-069K23,7,575,AS,exp,37,↑,up,↑,0.6559261000948027,True,20,-1,0,6
Y2-S2-069K23,7,576,AS,exp,34,↓,down,↓,0.8491511999163777,True,20,-1,0,6
Y2-S2-069K23,7,577,AS,exp,38,↑,right,→,0.7519501999486238,False,20,-1,0,6
Y2-S2-069K23,7,578,AS,exp,44,→,right,→,0.7132844999432564,True,21,-1,0,6
Y2-S2-069K23,7,579,AS,exp,48,←,left,←,0.8556837000651285,True,21,-1,0,6
Y2-S2-069K23,7,580,AS,exp,43,→,right,→,0.6454076999798417,True,21,1,1,7
Y2-S2-069K23,7,581,AS,exp,36,↑,up,↑,0.9966040999861434,True,20,1,0,7
Y2-S2-069K23,7,582,AS,exp,48,↓,down,↓,0.9061637000413612,True,20,1,0,7
Y2-S2-069K23,7,583,AS,exp,29,→,right,→,0.564691299921833,True,20,1,0,7
Y2-S2-069K23,7,584,AS,exp,38,↓,down,↓,0.9383423000108451,True,19,1,0,7
Y2-S2-069K23,7,585,AS,exp,30,→,right,→,0.5959304000716656,True,19,1,0,7
Y2-S2-069K23,7,586,AS,exp,30,↓,down,↓,0.796037600026466,True,19,1,0,7
Y2-S2-069K23,7,587,AS,exp,48,←,left,←,0.5845447999890894,True,18,1,0,7
Y2-S2-069K23,7,588,AS,exp,35,↓,down,↓,0.6248268000781536,True,18,1,0,7
Y2-S2-069K23,7,589,AS,exp,37,→,right,→,0.5134456999367103,True,18,1,0,7
Y2-S2-069K23,7,590,AS,exp,26,↑,up,↑,1.139957100036554,True,17,1,0,7
Y2-S2-069K23,7,591,AS,exp,50,←,right,→,0.532510400051251,False,17,-1,1,8
Y2-S2-069K23,7,592,AS,exp,29,↑,down,↓,0.6557098000776023,False,18,-1,0,8
Y2-S2-069K23,7,593,AS,exp,45,→,right,→,0.5744777000509202,True,19,-1,0,8
Y2-S2-069K23,7,594,AS,exp,25,↑,up,↑,0.9442306000273675,True,19,-1,0,8
Y2-S2-069K23,7,595,AS,exp,29,↓,down,↓,0.6360102999024093,True,19,1,1,9
Y2-S2-069K23,7,596,AS,exp,26,→,right,→,0.4811131999595091,True,18,1,0,9
Y2-S2-069K23,7,597,AS,exp,40,↓,right,→,0.9217350999824703,False,18,-1,1,10
Y2-S2-069K23,7,598,AS,exp,50,↑,up,↑,0.7048886000411585,True,19,-1,0,10
Y2-S2-069K23,7,599,AS,exp,29,←,left,←,0.861869900021702,True,19,-1,0,10
Y2-S2-069K23,7,600,AS,exp,37,↑,up,↑,0.6296430999645963,True,19,1,1,11
Y2-S2-069K23,7,601,AS,exp,27,←,right,→,0.6591831999830902,False,18,-1,1,12
Y2-S2-069K23,7,602,AS,exp,36,↑,right,→,0.7398063000291586,False,19,-1,0,12
Y2-S2-069K23,7,603,AS,exp,33,→,right,→,0.7025762000121176,True,20,-1,0,12
Y2-S2-069K23,7,604,AS,exp,33,↓,right,→,0.8729518000036478,False,20,-1,0,12
Y2-S2-069K23,7,605,AS,exp,45,←,right,→,0.6040996999945492,False,21,-1,0,12
Y2-S2-069K23,7,606,AS,exp,44,↑,left,←,0.9671071000630036,False,22,-1,0,12
Y2-S2-069K23,7,607,AS,exp,43,→,right,→,0.9530145999742672,True,23,-1,0,12
Y2-S2-069K23,7,608,AS,exp,31,↓,down,↓,0.8008142999606207,True,23,-1,0,12
Y2-S2-069K23,7,609,AS,exp,34,→,no_key,no_letter,-1.0,False,23,-1,0,12
Y2-S2-069K23,7,610,AS,exp,27,↓,down,↓,1.101994700031355,True,24,-1,0,12
Y2-S2-069K23,7,611,AS,exp,37,→,right,→,0.6005677999928594,True,24,-1,0,12
Y2-S2-069K23,7,612,AS,exp,42,↓,down,↓,0.6085985000245273,True,24,1,1,13
Y2-S2-069K23,7,613,AS,exp,47,↑,up,↑,0.6505852999398485,True,23,1,0,13
Y2-S2-069K23,7,614,AS,exp,45,↓,down,↓,0.6152478000149131,True,23,1,0,13
Y2-S2-069K23,7,615,AS,exp,25,←,left,←,0.5901985999662429,True,23,1,0,13
Y2-S2-069K23,7,616,AS,exp,29,↓,down,↓,0.899215399986133,True,22,1,0,13
Y2-S2-069K23,7,617,AS,exp,39,←,left,←,0.7862162999808788,True,22,1,0,13
Y2-S2-069K23,7,618,AS,exp,38,→,right,→,0.6364742999430746,True,22,1,0,13
Y2-S2-069K23,7,619,AS,exp,25,←,left,←,0.7854100000113249,True,21,1,0,13
Y2-S2-069K23,7,620,AS,exp,30,↑,up,↑,0.7327456999337301,True,21,1,0,13
Y2-S2-069K23,7,621,AS,exp,41,←,left,←,0.8067617000779137,True,21,1,0,13
Y2-S2-069K23,7,622,AS,exp,30,→,right,→,0.7062290000030771,True,20,1,0,13
Y2-S2-069K23,7,623,AS,exp,42,←,left,←,0.6387872999766842,True,20,1,0,13
Y2-S2-069K23,7,624,AS,exp,34,↑,up,↑,0.6268027999904007,True,20,1,0,13
Y2-S2-069K23,7,625,AS,exp,39,←,left,←,0.6032733999891207,True,19,1,0,13
Y2-S2-069K23,7,626,AS,exp,31,→,right,→,0.5165596000151709,True,19,1,0,13
Y2-S2-069K23,7,627,AS,exp,43,↑,up,↑,0.5761198999825865,True,19,1,0,13
Y2-S2-069K23,7,628,AS,exp,25,→,right,→,0.5440096000675112,True,18,1,0,13
Y2-S2-069K23,7,629,AS,exp,41,←,left,←,0.6846977999666706,True,18,1,0,13
Y2-S2-069K23,7,630,AS,exp,34,→,right,→,0.6137247999431565,True,18,1,0,13
Y2-S2-069K23,7,631,AS,exp,38,←,left,←,0.5841410000575706,True,17,1,0,13
Y2-S2-069K23,7,632,AS,exp,31,↑,up,↑,0.8339536999119446,True,17,1,0,13
Y2-S2-069K23,7,633,AS,exp,42,↓,right,→,0.9400054999860004,False,17,-1,1,14
Y2-S2-069K23,7,634,AS,exp,25,→,left,←,1.021489500068128,False,18,-1,0,14
Y2-S2-069K23,7,635,AS,exp,33,←,left,←,1.8326377000194043,True,19,-1,0,14
Y2-S2-069K23,7,636,AS,exp,34,↑,up,↑,0.5533902000170201,True,19,-1,0,14
Y2-S2-069K23,7,637,AS,exp,47,↓,down,↓,0.8086305999895558,True,19,1,1,15
Y2-S2-069K23,7,638,AS,exp,50,←,right,→,0.6639024000614882,False,18,-1,1,16
Y2-S2-069K23,8,639,PS,intra_train,39,↓,up,↑,0.6310763000510633,False,25,-,-,-
Y2-S2-069K23,8,640,PS,intra_train,46,→,right,→,0.5171811000909656,True,25,-,-,-
Y2-S2-069K23,8,641,PS,intra_train,49,↓,down,↓,0.7228788000065833,True,25,-,-,-
Y2-S2-069K23,8,642,PS,intra_train,46,←,left,←,0.7708724000258371,True,25,-,-,-
Y2-S2-069K23,8,643,PS,intra_train,43,↑,up,↑,1.0714533999562263,True,25,-,-,-
Y2-S2-069K23,8,644,PS,exp,30,→,right,→,0.5083399000577629,True,17,0,0,0
Y2-S2-069K23,8,645,PS,exp,37,←,left,←,0.6305089000379667,True,17,0,0,0
Y2-S2-069K23,8,646,PS,exp,27,↓,down,↓,0.7895682000089437,True,17,1,0,0
Y2-S2-069K23,8,647,PS,exp,38,→,right,→,0.814817399950698,True,16,1,0,0
Y2-S2-069K23,8,648,PS,exp,31,↓,left,←,0.4897928999271244,False,16,-1,1,1
Y2-S2-069K23,8,649,PS,exp,30,↑,left,←,0.5060113999061286,False,17,-1,0,1
Y2-S2-069K23,8,650,PS,exp,27,→,right,→,0.5457084999652579,True,18,-1,0,1
Y2-S2-069K23,8,651,PS,exp,44,↑,right,→,1.1848105000099167,False,18,-1,0,1
Y2-S2-069K23,8,652,PS,exp,25,←,left,←,0.626644300064072,True,19,-1,0,1
Y2-S2-069K23,8,653,PS,exp,37,→,right,→,0.6769588000606745,True,19,-1,0,1
Y2-S2-069K23,8,654,PS,exp,37,↓,down,↓,0.6269275000086054,True,19,1,1,2
Y2-S2-069K23,8,655,PS,exp,34,→,right,→,1.7585188000230119,True,18,1,0,2
Y2-S2-069K23,8,656,PS,exp,45,↓,down,↓,0.7790604999754578,True,18,1,0,2
Y2-S2-069K23,8,657,PS,exp,34,↑,up,↑,0.7273986999643967,True,18,1,0,2
Y2-S2-069K23,8,658,PS,exp,49,→,right,→,0.48374510009307414,True,17,1,0,2
Y2-S2-069K23,8,659,PS,exp,47,↑,right,→,0.660269399988465,False,17,-1,1,3
Y2-S2-069K23,8,660,PS,exp,45,→,right,→,0.636311799986288,True,18,-1,0,3
Y2-S2-069K23,8,661,PS,exp,28,↓,down,↓,0.6177567999111488,True,18,-1,0,3
Y2-S2-069K23,8,662,PS,exp,34,→,right,→,1.3618747000582516,True,18,1,1,4
Y2-S2-069K23,8,663,PS,exp,46,←,left,←,0.8430951000191271,True,17,1,0,4
Y2-S2-069K23,8,664,PS,exp,47,→,right,→,0.5513946999562904,True,17,1,0,4
Y2-S2-069K23,8,665,PS,exp,41,←,left,←,0.629849899909459,True,17,1,0,4
Y2-S2-069K23,8,666,PS,exp,33,→,right,→,0.6249799999641255,True,16,1,0,4
Y2-S2-069K23,8,667,PS,exp,39,↑,up,↑,1.189122699899599,True,16,1,0,4
Y2-S2-069K23,8,668,PS,exp,26,←,left,←,0.5073998000007123,True,16,1,0,4
Y2-S2-069K23,8,669,PS,exp,37,→,right,→,0.48077020002529025,True,15,1,0,4
Y2-S2-069K23,8,670,PS,exp,44,↓,down,↓,0.7905053000431508,True,15,1,0,4
Y2-S2-069K23,8,671,PS,exp,44,↑,up,↑,0.5457890999969095,True,15,1,0,4
Y2-S2-069K23,8,672,PS,exp,37,↓,down,↓,0.7741036999505013,True,14,1,0,4
Y2-S2-069K23,8,673,PS,exp,48,↑,up,↑,0.4499697999563068,True,14,1,0,4
Y2-S2-069K23,8,674,PS,exp,43,↓,down,↓,0.7485007999930531,True,14,1,0,4
Y2-S2-069K23,8,675,PS,exp,49,→,right,→,0.48068010003771633,True,13,1,0,4
Y2-S2-069K23,8,676,PS,exp,41,↓,right,→,0.6669420999241993,False,13,-1,1,5
Y2-S2-069K23,8,677,PS,exp,48,←,left,←,0.5827138000167906,True,14,-1,0,5
Y2-S2-069K23,8,678,PS,exp,33,↓,down,↓,0.6510016000829637,True,14,-1,0,5
Y2-S2-069K23,8,679,PS,exp,34,↑,up,↑,0.5250474000349641,True,14,1,1,6
Y2-S2-069K23,8,680,PS,exp,40,↓,down,↓,0.7324670000234619,True,13,1,0,6
Y2-S2-069K23,8,681,PS,exp,45,↑,up,↑,0.5590498000383377,True,13,1,0,6
Y2-S2-069K23,8,682,PS,exp,35,→,up,↑,0.8165978000033647,False,13,-1,1,7
Y2-S2-069K23,8,683,PS,exp,25,↑,up,↑,0.5308387000113726,True,14,-1,0,7
Y2-S2-069K23,8,684,PS,exp,43,←,left,←,0.528269000002183,True,14,-1,0,7
Y2-S2-069K23,8,685,PS,exp,38,↑,up,↑,0.6905018999241292,True,14,1,1,8
Y2-S2-069K23,8,686,PS,exp,33,→,right,→,0.45421610004268587,True,13,1,0,8
Y2-S2-069K23,8,687,PS,exp,50,↑,up,↑,0.5067480000434443,True,13,1,0,8
Y2-S2-069K23,8,688,PS,exp,45,←,left,←,0.49791429995093495,True,13,1,0,8
Y2-S2-069K23,8,689,PS,exp,27,→,right,→,0.5962552999844775,True,12,1,0,8
Y2-S2-069K23,8,690,PS,exp,40,↓,right,→,0.5230486000655219,False,12,-1,1,9
Y2-S2-069K23,8,691,PS,exp,30,↑,up,↑,0.5289583000121638,True,13,-1,0,9
Y2-S2-069K23,8,692,PS,exp,29,→,right,→,0.49911319999955595,True,13,-1,0,9
Y2-S2-069K23,8,693,PS,exp,38,↑,up,↑,0.4801198000786826,True,13,1,1,10
Y2-S2-069K23,8,694,PS,exp,33,↓,right,→,0.5761787999654189,False,12,-1,1,11
Y2-S2-069K23,8,695,PS,exp,45,→,right,→,0.5582888000644743,True,13,-1,0,11
Y2-S2-069K23,8,696,PS,exp,45,←,left,←,0.7104545999318361,True,13,-1,0,11
Y2-S2-069K23,8,697,PS,exp,30,→,right,→,0.4359353999607265,True,13,1,1,12
Y2-S2-069K23,8,698,PS,exp,33,↓,right,→,0.6022978000110015,False,12,-1,1,13
Y2-S2-069K23,8,699,PS,exp,35,←,right,→,0.5614788000239059,False,13,-1,0,13
Y2-S2-069K23,8,700,PS,exp,40,↑,up,↑,1.0756019999971613,True,14,-1,0,13
Y2-S2-069K23,8,701,PS,exp,27,↓,down,↓,0.7606121000135317,True,14,-1,0,13
Y2-S2-069K23,8,702,PS,exp,49,←,right,→,0.5832270999671891,False,14,-1,0,13
Y2-S2-069K23,8,703,PS,exp,26,↑,up,↑,0.5414113999577239,True,15,-1,0,13
Y2-S2-069K23,8,704,PS,exp,35,↓,down,↓,0.8786916000535712,True,15,-1,0,13
Y2-S2-069K23,8,705,PS,exp,29,←,left,←,0.9357142999069765,True,15,1,1,14
Y2-S2-069K23,8,706,PS,exp,36,↓,down,↓,0.813906199997291,True,14,1,0,14
Y2-S2-069K23,8,707,PS,exp,34,↑,up,↑,0.7538625000743195,True,14,1,0,14
Y2-S2-069K23,8,708,PS,exp,31,←,left,←,0.6060357999522239,True,14,1,0,14
Y2-S2-069K23,8,709,PS,exp,34,↓,right,→,0.659942000056617,False,13,-1,1,15
Y2-S2-069K23,8,710,PS,exp,44,←,left,←,0.5550098000094295,True,14,-1,0,15
Y2-S2-069K23,8,711,PS,exp,44,↓,down,↓,0.6162766000488773,True,14,-1,0,15
Y2-S2-069K23,8,712,PS,exp,29,←,right,→,0.5693213000195101,False,14,-1,0,15
Y2-S2-069K23,8,713,PS,exp,30,↑,up,↑,0.5268029998987913,True,15,-1,0,15
Y2-S2-069K23,8,714,PS,exp,50,↓,down,↓,0.5859915999462828,True,15,-1,0,15
Y2-S2-069K23,8,715,PS,exp,41,→,right,→,0.43533749994821846,True,15,1,1,16
