PART_ID,Block_no,Trial_no,Block_type,Trial_type,CSI,Stim_letter,Key_pressed,letter_choose,Rt,Corr,Stimulus Time,Level,Reversal,Revs_count
Y2-S2-051K23,1,1,PS,train,40,→,right,→,0.6174762999871746,True,30,-,-,-
Y2-S2-051K23,1,2,PS,train,27,↑,up,↑,0.5508068000199273,True,30,-,-,-
Y2-S2-051K23,1,3,PS,train,41,→,right,→,0.4680804000236094,True,30,-,-,-
Y2-S2-051K23,1,4,PS,train,45,↓,right,→,0.4511755999410525,False,30,-,-,-
Y2-S2-051K23,1,5,PS,train,49,↑,up,↑,0.6174122999655083,True,30,-,-,-
Y2-S2-051K23,1,6,PS,train,47,←,left,←,0.6005478999577463,True,30,-,-,-
Y2-S2-051K23,1,7,PS,train,44,↓,down,↓,0.6341553999809548,True,30,-,-,-
Y2-S2-051K23,1,8,PS,train,45,←,left,←,0.5509390999795869,True,30,-,-,-
Y2-S2-051K23,1,9,PS,train,46,→,right,→,0.45101960003376007,True,30,-,-,-
Y2-S2-051K23,1,10,PS,train,49,↑,up,↑,0.5338170999893919,True,30,-,-,-
Y2-S2-051K23,2,11,AS,train,42,→,left,←,0.45117389992810786,False,45,-,-,-
Y2-S2-051K23,2,12,AS,train,50,↑,up,↑,0.7182034000288695,True,45,-,-,-
Y2-S2-051K23,2,13,AS,train,42,↓,down,↓,0.8172926000552252,True,45,-,-,-
Y2-S2-051K23,2,14,AS,train,48,→,right,→,0.8174278000369668,True,45,-,-,-
Y2-S2-051K23,2,15,AS,train,30,↑,up,↑,0.6341545999748632,True,45,-,-,-
Y2-S2-051K23,2,16,AS,train,29,←,left,←,0.8340144999092445,True,45,-,-,-
Y2-S2-051K23,2,17,AS,train,49,→,right,→,0.6843730999389663,True,45,-,-,-
Y2-S2-051K23,2,18,AS,train,36,←,left,←,0.7337841000407934,True,45,-,-,-
Y2-S2-051K23,2,19,AS,train,36,↑,up,↑,0.8672723999479786,True,45,-,-,-
Y2-S2-051K23,2,20,AS,train,31,↓,down,↓,0.7504669999470934,True,45,-,-,-
Y2-S2-051K23,-,21,PS,adaptive,34,←,left,←,0.6103268000297248,True,10,0,0,0
Y2-S2-051K23,-,22,PS,adaptive,31,↓,down,↓,0.5340605999808758,True,10,0,0,0
Y2-S2-051K23,-,23,PS,adaptive,37,→,right,→,0.4716425999067724,True,10,1,0,0
Y2-S2-051K23,-,24,PS,adaptive,42,↓,down,↓,0.6152322000125423,True,9,1,0,0
Y2-S2-051K23,-,25,PS,adaptive,31,←,left,←,0.4918614000780508,True,9,1,0,0
Y2-S2-051K23,-,26,PS,adaptive,40,↑,up,↑,0.5487931999377906,True,9,1,0,0
Y2-S2-051K23,-,27,PS,adaptive,32,←,right,→,0.6818981999531388,False,8,-1,1,1
Y2-S2-051K23,-,28,PS,adaptive,47,↓,down,↓,0.8004345000954345,True,9,-1,0,1
Y2-S2-051K23,-,29,PS,adaptive,49,↑,up,↑,0.49422320001758635,True,9,-1,0,1
Y2-S2-051K23,-,30,PS,adaptive,39,←,left,←,0.552039600093849,True,9,1,1,2
Y2-S2-051K23,-,31,PS,adaptive,35,↓,down,↓,0.6041163000045344,True,8,1,0,2
Y2-S2-051K23,-,32,PS,adaptive,49,↑,up,↑,0.5749555000802502,True,8,1,0,2
Y2-S2-051K23,-,33,PS,adaptive,33,↓,down,↓,0.8382462000008672,True,8,1,0,2
Y2-S2-051K23,-,34,PS,adaptive,28,→,left,←,0.6606971999863163,False,7,-1,1,3
Y2-S2-051K23,-,35,PS,adaptive,38,↑,up,↑,0.6435974000487477,True,8,-1,0,3
Y2-S2-051K23,-,36,PS,adaptive,32,↓,down,↓,0.548321699956432,True,8,-1,0,3
Y2-S2-051K23,-,37,PS,adaptive,48,→,right,→,0.45423219993244857,True,8,1,1,4
Y2-S2-051K23,-,38,AS,adaptive,50,↓,down,↓,0.7387261999538168,True,20,0,0,0
Y2-S2-051K23,-,39,AS,adaptive,47,→,right,→,0.7152578999521211,True,20,0,0,0
Y2-S2-051K23,-,40,AS,adaptive,36,↓,down,↓,0.7036535000661388,True,20,1,0,0
Y2-S2-051K23,-,41,AS,adaptive,34,↑,down,↓,0.8266536000883207,False,19,-1,1,1
Y2-S2-051K23,-,42,AS,adaptive,49,←,left,←,0.5095790000632405,True,20,-1,0,1
Y2-S2-051K23,-,43,AS,adaptive,49,→,right,→,0.5455040000379086,True,20,-1,0,1
Y2-S2-051K23,-,44,AS,adaptive,29,←,left,←,0.6174790000077337,True,20,1,1,2
Y2-S2-051K23,-,45,AS,adaptive,45,↓,down,↓,0.7973252999363467,True,19,1,0,2
Y2-S2-051K23,-,46,AS,adaptive,40,↑,down,↓,0.7050390000222251,False,19,-1,1,3
Y2-S2-051K23,-,47,AS,adaptive,33,↓,down,↓,0.7449899999191985,True,20,-1,0,3
Y2-S2-051K23,-,48,AS,adaptive,35,↑,up,↑,0.6984691999386996,True,20,-1,0,3
Y2-S2-051K23,-,49,AS,adaptive,30,↓,down,↓,0.6673982000211254,True,20,1,1,4
Y2-S2-051K23,1,50,AS,intra_train,35,→,right,→,1.5777210000669584,True,28,-,-,-
Y2-S2-051K23,1,51,AS,intra_train,39,←,left,←,0.5506238000234589,True,28,-,-,-
Y2-S2-051K23,1,52,AS,intra_train,39,↑,up,↑,1.3228779999772087,True,28,-,-,-
Y2-S2-051K23,1,53,AS,intra_train,34,←,left,←,0.6904473999748006,True,28,-,-,-
Y2-S2-051K23,1,54,AS,intra_train,42,↓,down,↓,0.6854793999809772,True,28,-,-,-
Y2-S2-051K23,1,55,AS,exp,33,↑,up,↑,0.43442270008381456,True,19,0,0,0
Y2-S2-051K23,1,56,AS,exp,50,←,left,←,0.954824100015685,True,19,0,0,0
Y2-S2-051K23,1,57,AS,exp,39,↑,up,↑,1.0817043000133708,True,19,1,0,0
Y2-S2-051K23,1,58,AS,exp,46,↓,down,↓,0.5876831000205129,True,18,1,0,0
Y2-S2-051K23,1,59,AS,exp,42,↑,up,↑,0.5158831999870017,True,18,1,0,0
Y2-S2-051K23,1,60,AS,exp,31,←,left,←,0.5853630999336019,True,18,1,0,0
Y2-S2-051K23,1,61,AS,exp,40,↓,down,↓,0.528987199999392,True,17,1,0,0
Y2-S2-051K23,1,62,AS,exp,46,↑,down,↓,0.73853880004026,False,17,-1,1,1
Y2-S2-051K23,1,63,AS,exp,45,→,right,→,0.7400527000427246,True,18,-1,0,1
Y2-S2-051K23,1,64,AS,exp,34,↓,down,↓,0.6393256000010297,True,18,-1,0,1
Y2-S2-051K23,1,65,AS,exp,49,←,left,←,0.5673061000416055,True,18,1,1,2
Y2-S2-051K23,1,66,AS,exp,30,↓,down,↓,0.6230558999814093,True,17,1,0,2
Y2-S2-051K23,1,67,AS,exp,34,←,left,←,0.6833300000289455,True,17,1,0,2
Y2-S2-051K23,1,68,AS,exp,41,↑,up,↑,0.5408791999798268,True,17,1,0,2
Y2-S2-051K23,1,69,AS,exp,31,←,left,←,0.6492690000450239,True,16,1,0,2
Y2-S2-051K23,1,70,AS,exp,29,↓,down,↓,0.7038351000519469,True,16,1,0,2
Y2-S2-051K23,1,71,AS,exp,26,↑,up,↑,0.558413999970071,True,16,1,0,2
Y2-S2-051K23,1,72,AS,exp,38,←,left,←,0.5272893999936059,True,15,1,0,2
Y2-S2-051K23,1,73,AS,exp,39,→,left,←,0.984915200038813,False,15,-1,1,3
Y2-S2-051K23,1,74,AS,exp,50,↓,down,↓,0.6208655000664294,True,16,-1,0,3
Y2-S2-051K23,1,75,AS,exp,45,→,down,↓,0.8768810000037774,False,16,-1,0,3
Y2-S2-051K23,1,76,AS,exp,29,←,left,←,0.5838462999090552,True,17,-1,0,3
Y2-S2-051K23,1,77,AS,exp,42,↑,up,↑,0.591150899999775,True,17,-1,0,3
Y2-S2-051K23,1,78,AS,exp,48,←,left,←,0.9025502000004053,True,17,1,1,4
Y2-S2-051K23,1,79,AS,exp,26,↓,down,↓,0.9508198000257835,True,16,1,0,4
Y2-S2-051K23,1,80,AS,exp,40,→,left,←,1.3667627000249922,False,16,-1,1,5
Y2-S2-051K23,1,81,AS,exp,32,↑,up,↑,0.7962489000055939,True,17,-1,0,5
Y2-S2-051K23,1,82,AS,exp,48,↓,down,↓,0.6101007000543177,True,17,-1,0,5
Y2-S2-051K23,1,83,AS,exp,36,←,left,←,0.5593804999953136,True,17,1,1,6
Y2-S2-051K23,1,84,AS,exp,29,↓,down,↓,0.6211788000073284,True,16,1,0,6
Y2-S2-051K23,1,85,AS,exp,34,→,left,←,0.818915200070478,False,16,-1,1,7
Y2-S2-051K23,1,86,AS,exp,50,↑,up,↑,0.7248539000283927,True,17,-1,0,7
Y2-S2-051K23,1,87,AS,exp,48,←,left,←,1.5438499000156298,True,17,-1,0,7
Y2-S2-051K23,1,88,AS,exp,47,→,left,←,0.7322907000780106,False,17,-1,0,7
Y2-S2-051K23,1,89,AS,exp,27,↑,up,↑,0.7788101000478491,True,18,-1,0,7
Y2-S2-051K23,1,90,AS,exp,34,←,left,←,0.7244939999654889,True,18,-1,0,7
Y2-S2-051K23,1,91,AS,exp,27,→,right,→,0.8232181000057608,True,18,1,1,8
Y2-S2-051K23,1,92,AS,exp,47,←,left,←,0.5852604999672621,True,17,1,0,8
Y2-S2-051K23,1,93,AS,exp,33,→,right,→,0.7242540000006557,True,17,1,0,8
Y2-S2-051K23,1,94,AS,exp,42,←,left,←,0.5151769999647513,True,17,1,0,8
Y2-S2-051K23,1,95,AS,exp,36,→,right,→,0.5697374000446871,True,16,1,0,8
Y2-S2-051K23,1,96,AS,exp,37,↑,up,↑,0.6712244999362156,True,16,1,0,8
Y2-S2-051K23,1,97,AS,exp,25,←,left,←,0.6527108000591397,True,16,1,0,8
Y2-S2-051K23,1,98,AS,exp,31,↑,up,↑,0.527142999926582,True,15,1,0,8
Y2-S2-051K23,1,99,AS,exp,49,←,left,←,0.5588925000047311,True,15,1,0,8
Y2-S2-051K23,1,100,AS,exp,29,→,right,→,0.8644808999961242,True,15,1,0,8
Y2-S2-051K23,1,101,AS,exp,32,↓,down,↓,0.660729099996388,True,14,1,0,8
Y2-S2-051K23,1,102,AS,exp,43,←,left,←,0.47612559993285686,True,14,1,0,8
Y2-S2-051K23,1,103,AS,exp,37,↑,up,↑,1.315930200042203,True,14,1,0,8
Y2-S2-051K23,1,104,AS,exp,33,→,right,→,0.7985747000202537,True,13,1,0,8
Y2-S2-051K23,1,105,AS,exp,37,←,left,←,0.5003923000767827,True,13,1,0,8
Y2-S2-051K23,1,106,AS,exp,29,↓,up,↑,1.3647553999908268,False,13,-1,1,9
Y2-S2-051K23,1,107,AS,exp,44,→,right,→,0.7024306999519467,True,14,-1,0,9
Y2-S2-051K23,1,108,AS,exp,30,↓,down,↓,0.5831692999927327,True,14,-1,0,9
Y2-S2-051K23,1,109,AS,exp,36,←,down,↓,1.7413969000335783,False,14,-1,0,9
Y2-S2-051K23,1,110,AS,exp,43,↑,up,↑,0.4706083000637591,True,15,-1,0,9
Y2-S2-051K23,1,111,AS,exp,30,↓,down,↓,0.49680379999335855,True,15,-1,0,9
Y2-S2-051K23,1,112,AS,exp,42,←,left,←,0.5367638999596238,True,15,1,1,10
Y2-S2-051K23,1,113,AS,exp,31,↓,down,↓,0.6072329999879003,True,14,1,0,10
Y2-S2-051K23,1,114,AS,exp,48,←,left,←,0.5291856999974698,True,14,1,0,10
Y2-S2-051K23,1,115,AS,exp,40,↓,down,↓,1.0197638999670744,True,14,1,0,10
Y2-S2-051K23,1,116,AS,exp,39,→,down,↓,0.7662366000004113,False,13,-1,1,11
Y2-S2-051K23,1,117,AS,exp,34,←,left,←,0.5785664999857545,True,14,-1,0,11
Y2-S2-051K23,1,118,AS,exp,29,↓,left,←,0.862119699944742,False,14,-1,0,11
Y2-S2-051K23,1,119,AS,exp,49,→,no_key,no_letter,-1.0,False,15,-1,0,11
Y2-S2-051K23,1,120,AS,exp,41,↓,down,↓,0.7724806999322027,True,16,-1,0,11
Y2-S2-051K23,1,121,AS,exp,45,→,right,→,0.685618199990131,True,16,-1,0,11
Y2-S2-051K23,1,122,AS,exp,28,↑,up,↑,0.5298444000072777,True,16,1,1,12
Y2-S2-051K23,1,123,AS,exp,33,↓,down,↓,0.7111559000331908,True,15,1,0,12
Y2-S2-051K23,1,124,AS,exp,28,↑,up,↑,0.7568666000152007,True,15,1,0,12
Y2-S2-051K23,1,125,AS,exp,28,←,no_key,no_letter,-1.0,False,15,-1,1,13
Y2-S2-051K23,1,126,AS,exp,45,→,left,←,1.0371824000030756,False,16,-1,0,13
Y2-S2-051K23,1,127,AS,exp,30,↓,down,↓,0.6785931999329478,True,17,-1,0,13
Y2-S2-051K23,1,128,AS,exp,43,→,right,→,0.6970274000195786,True,17,-1,0,13
Y2-S2-051K23,1,129,AS,exp,45,↓,down,↓,0.6755980999441817,True,17,1,1,14
Y2-S2-051K23,1,130,AS,exp,35,↑,up,↑,0.7288320000516251,True,16,1,0,14
Y2-S2-051K23,1,131,AS,exp,40,→,down,↓,1.2045417000772431,False,16,-1,1,15
Y2-S2-051K23,1,132,AS,exp,41,←,left,←,0.6826498999726027,True,17,-1,0,15
Y2-S2-051K23,1,133,AS,exp,43,→,right,→,0.5831399000016972,True,17,-1,0,15
Y2-S2-051K23,1,134,AS,exp,44,←,right,→,0.669094100012444,False,17,-1,0,15
Y2-S2-051K23,1,135,AS,exp,38,→,right,→,0.49685140000656247,True,18,-1,0,15
Y2-S2-051K23,1,136,AS,exp,33,←,right,→,0.43406699993647635,False,18,-1,0,15
Y2-S2-051K23,1,137,AS,exp,50,↑,left,←,0.9885900999652222,False,19,-1,0,15
Y2-S2-051K23,1,138,AS,exp,25,↓,right,→,0.7199314999161288,False,20,-1,0,15
Y2-S2-051K23,1,139,AS,exp,43,→,right,→,0.484305499936454,True,21,-1,0,15
Y2-S2-051K23,1,140,AS,exp,42,↑,up,↑,1.3239089000271633,True,21,-1,0,15
Y2-S2-051K23,1,141,AS,exp,43,←,left,←,0.5932675999356434,True,21,1,1,16
Y2-S2-051K23,2,142,PS,intra_train,41,↑,up,↑,0.5429353000363335,True,10,-,-,-
Y2-S2-051K23,2,143,PS,intra_train,34,↓,down,↓,0.6555622000014409,True,10,-,-,-
Y2-S2-051K23,2,144,PS,intra_train,32,↑,up,↑,0.4234697000356391,True,10,-,-,-
Y2-S2-051K23,2,145,PS,intra_train,31,→,right,→,0.5058564998907968,True,10,-,-,-
Y2-S2-051K23,2,146,PS,intra_train,46,↑,up,↑,0.4681651999708265,True,10,-,-,-
Y2-S2-051K23,2,147,PS,exp,41,→,right,→,0.5027323999674991,True,7,0,0,0
Y2-S2-051K23,2,148,PS,exp,47,↓,up,↑,0.6137251000618562,False,7,-1,0,0
Y2-S2-051K23,2,149,PS,exp,49,↑,left,←,1.2201862999936566,False,8,-1,0,0
Y2-S2-051K23,2,150,PS,exp,39,↓,left,←,0.6803735001012683,False,9,-1,0,0
Y2-S2-051K23,2,151,PS,exp,50,→,left,←,0.9311207999708131,False,10,-1,0,0
Y2-S2-051K23,2,152,PS,exp,26,←,left,←,0.49541700002737343,True,11,-1,0,0
Y2-S2-051K23,2,153,PS,exp,43,→,right,→,0.4490503000561148,True,11,-1,0,0
Y2-S2-051K23,2,154,PS,exp,41,←,right,→,0.7160059999441728,False,11,-1,0,0
Y2-S2-051K23,2,155,PS,exp,31,↑,up,↑,0.5926814000122249,True,12,-1,0,0
Y2-S2-051K23,2,156,PS,exp,30,↓,down,↓,0.8077626000158489,True,12,-1,0,0
Y2-S2-051K23,2,157,PS,exp,43,→,left,←,0.7497923000482842,False,12,-1,0,0
Y2-S2-051K23,2,158,PS,exp,32,←,left,←,0.5158245000056922,True,13,-1,0,0
Y2-S2-051K23,2,159,PS,exp,37,↑,left,←,1.7708045999752358,False,13,-1,0,0
Y2-S2-051K23,2,160,PS,exp,37,↓,down,↓,0.6120280000614002,True,14,-1,0,0
Y2-S2-051K23,2,161,PS,exp,34,↑,up,↑,0.7349462000420317,True,14,-1,0,0
Y2-S2-051K23,2,162,PS,exp,42,←,left,←,0.48942859994713217,True,14,1,1,1
Y2-S2-051K23,2,163,PS,exp,48,↑,up,↑,0.5018253999296576,True,13,1,0,1
Y2-S2-051K23,2,164,PS,exp,26,↓,down,↓,0.754014200065285,True,13,1,0,1
Y2-S2-051K23,2,165,PS,exp,50,↑,left,←,0.5684025000082329,False,13,-1,1,2
Y2-S2-051K23,2,166,PS,exp,42,→,right,→,0.6161711000604555,True,14,-1,0,2
Y2-S2-051K23,2,167,PS,exp,49,←,left,←,0.5155160999856889,True,14,-1,0,2
Y2-S2-051K23,2,168,PS,exp,40,↓,down,↓,0.6296853000530973,True,14,1,1,3
Y2-S2-051K23,2,169,PS,exp,39,→,left,←,0.5455712999682873,False,13,-1,1,4
Y2-S2-051K23,2,170,PS,exp,27,←,left,←,0.5487828999757767,True,14,-1,0,4
Y2-S2-051K23,2,171,PS,exp,32,↑,left,←,0.7718029000097886,False,14,-1,0,4
Y2-S2-051K23,2,172,PS,exp,37,→,right,→,0.5881425000261515,True,15,-1,0,4
Y2-S2-051K23,2,173,PS,exp,34,←,left,←,0.6044848999008536,True,15,-1,0,4
Y2-S2-051K23,2,174,PS,exp,45,→,right,→,0.5928637000033632,True,15,1,1,5
Y2-S2-051K23,2,175,PS,exp,33,↓,left,←,0.6504985999781638,False,14,-1,1,6
Y2-S2-051K23,2,176,PS,exp,36,↑,up,↑,0.48349639994557947,True,15,-1,0,6
Y2-S2-051K23,2,177,PS,exp,31,←,left,←,0.3835536000551656,True,15,-1,0,6
Y2-S2-051K23,2,178,PS,exp,38,↓,down,↓,0.6902678000042215,True,15,1,1,7
Y2-S2-051K23,2,179,PS,exp,41,→,right,→,0.47357220004778355,True,14,1,0,7
Y2-S2-051K23,2,180,PS,exp,32,←,left,←,0.5855677999788895,True,14,1,0,7
Y2-S2-051K23,2,181,PS,exp,44,↑,up,↑,0.6660688000265509,True,14,1,0,7
Y2-S2-051K23,2,182,PS,exp,45,↓,down,↓,0.6090471999486908,True,13,1,0,7
Y2-S2-051K23,2,183,PS,exp,33,→,right,→,0.6085235000355169,True,13,1,0,7
Y2-S2-051K23,2,184,PS,exp,25,↑,up,↑,0.51321799994912,True,13,1,0,7
Y2-S2-051K23,2,185,PS,exp,48,↓,down,↓,0.6441061000805348,True,12,1,0,7
Y2-S2-051K23,2,186,PS,exp,32,→,right,→,0.5427919999929145,True,12,1,0,7
Y2-S2-051K23,2,187,PS,exp,45,↓,down,↓,0.6215180000290275,True,12,1,0,7
Y2-S2-051K23,2,188,PS,exp,42,←,left,←,0.5928876999532804,True,11,1,0,7
Y2-S2-051K23,2,189,PS,exp,36,→,right,→,0.5264798999996856,True,11,1,0,7
Y2-S2-051K23,2,190,PS,exp,48,↑,up,↑,0.5850578000536188,True,11,1,0,7
Y2-S2-051K23,2,191,PS,exp,36,←,up,↑,0.6323576000286266,False,10,-1,1,8
Y2-S2-051K23,2,192,PS,exp,40,→,right,→,0.7346884000580758,True,11,-1,0,8
Y2-S2-051K23,2,193,PS,exp,48,↓,down,↓,0.5901112999999896,True,11,-1,0,8
Y2-S2-051K23,2,194,PS,exp,42,←,left,←,0.5288025999907404,True,11,1,1,9
Y2-S2-051K23,2,195,PS,exp,31,↓,down,↓,0.5908190000336617,True,10,1,0,9
Y2-S2-051K23,2,196,PS,exp,28,↑,up,↑,0.5510586999589577,True,10,1,0,9
Y2-S2-051K23,2,197,PS,exp,35,→,right,→,0.5190881999442354,True,10,1,0,9
Y2-S2-051K23,2,198,PS,exp,47,↑,up,↑,0.6988360000541434,True,9,1,0,9
Y2-S2-051K23,2,199,PS,exp,37,→,right,→,0.5491305999457836,True,9,1,0,9
Y2-S2-051K23,2,200,PS,exp,25,↑,up,↑,1.2298378000268713,True,9,1,0,9
Y2-S2-051K23,2,201,PS,exp,37,↓,down,↓,0.7516533000161871,True,8,1,0,9
Y2-S2-051K23,2,202,PS,exp,28,←,left,←,0.4675109999952838,True,8,1,0,9
Y2-S2-051K23,2,203,PS,exp,36,→,right,→,0.45879689999856055,True,8,1,0,9
Y2-S2-051K23,2,204,PS,exp,34,↑,no_key,no_letter,-1.0,False,7,-1,1,10
Y2-S2-051K23,2,205,PS,exp,33,→,no_key,no_letter,-1.0,False,8,-1,0,10
Y2-S2-051K23,2,206,PS,exp,41,←,left,←,0.4868531000101939,True,9,-1,0,10
Y2-S2-051K23,2,207,PS,exp,33,↓,down,↓,0.5449893999611959,True,9,-1,0,10
Y2-S2-051K23,2,208,PS,exp,26,→,right,→,0.5163158000214025,True,9,1,1,11
Y2-S2-051K23,2,209,PS,exp,41,↓,down,↓,0.5969191999174654,True,8,1,0,11
Y2-S2-051K23,2,210,PS,exp,29,→,right,→,0.41495459992438555,True,8,1,0,11
Y2-S2-051K23,2,211,PS,exp,33,←,left,←,0.3594493999844417,True,8,1,0,11
Y2-S2-051K23,2,212,PS,exp,38,→,right,→,0.4600344999926165,True,7,1,0,11
Y2-S2-051K23,2,213,PS,exp,50,↓,left,←,0.37188099999912083,False,7,-1,1,12
Y2-S2-051K23,2,214,PS,exp,34,↑,up,↑,0.5527923000045121,True,8,-1,0,12
Y2-S2-051K23,2,215,PS,exp,41,↓,down,↓,0.5763869000365958,True,8,-1,0,12
Y2-S2-051K23,2,216,PS,exp,25,←,left,←,0.5484526000218466,True,8,1,1,13
Y2-S2-051K23,2,217,PS,exp,37,→,right,→,0.6219831999624148,True,7,1,0,13
Y2-S2-051K23,2,218,PS,exp,48,↑,up,↑,0.6854016999714077,True,7,1,0,13
Y2-S2-051K23,2,219,PS,exp,47,←,left,←,0.5895545000676066,True,7,1,0,13
Y2-S2-051K23,2,220,PS,exp,35,↑,left,←,1.1279790999833494,False,6,-1,1,14
Y2-S2-051K23,2,221,PS,exp,39,→,right,→,0.5191209999611601,True,7,-1,0,14
Y2-S2-051K23,2,222,PS,exp,31,←,left,←,0.41866029996890575,True,7,-1,0,14
Y2-S2-051K23,2,223,PS,exp,33,↑,up,↑,0.4626299000810832,True,7,1,1,15
Y2-S2-051K23,2,224,PS,exp,49,←,left,←,0.36445459991227835,True,6,1,0,15
Y2-S2-051K23,2,225,PS,exp,43,↓,right,→,0.47090299997944385,False,6,-1,1,16
Y2-S2-051K23,3,226,PS,intra_train,42,↑,up,↑,0.5250878999941051,True,10,-,-,-
Y2-S2-051K23,3,227,PS,intra_train,39,↓,down,↓,0.5803390999790281,True,10,-,-,-
Y2-S2-051K23,3,228,PS,intra_train,40,↑,up,↑,0.701601899927482,True,10,-,-,-
Y2-S2-051K23,3,229,PS,intra_train,40,→,right,→,0.48961739998776466,True,10,-,-,-
Y2-S2-051K23,3,230,PS,intra_train,48,↑,up,↑,0.47654369997326285,True,10,-,-,-
Y2-S2-051K23,3,231,PS,exp,37,←,left,←,0.48108079994563013,True,7,0,0,0
Y2-S2-051K23,3,232,PS,exp,32,↓,up,↑,0.872287500067614,False,7,-1,0,0
Y2-S2-051K23,3,233,PS,exp,31,←,left,←,0.51944539998658,True,8,-1,0,0
Y2-S2-051K23,3,234,PS,exp,49,→,right,→,0.5122813999187201,True,8,-1,0,0
Y2-S2-051K23,3,235,PS,exp,48,↑,right,→,0.811487799976021,False,8,-1,0,0
Y2-S2-051K23,3,236,PS,exp,26,→,right,→,0.529363900073804,True,9,-1,0,0
Y2-S2-051K23,3,237,PS,exp,27,↓,down,↓,0.6484555000206456,True,9,-1,0,0
Y2-S2-051K23,3,238,PS,exp,29,→,right,→,0.45228909992147237,True,9,1,1,1
Y2-S2-051K23,3,239,PS,exp,27,←,left,←,0.555978300049901,True,8,1,0,1
Y2-S2-051K23,3,240,PS,exp,41,→,right,→,0.42655840003862977,True,8,1,0,1
Y2-S2-051K23,3,241,PS,exp,31,↑,right,→,0.6814507000381127,False,8,-1,1,2
Y2-S2-051K23,3,242,PS,exp,42,↓,left,←,0.7787682999623939,False,9,-1,0,2
Y2-S2-051K23,3,243,PS,exp,36,→,right,→,0.4137042999500409,True,10,-1,0,2
Y2-S2-051K23,3,244,PS,exp,50,↑,up,↑,1.0672528999857605,True,10,-1,0,2
Y2-S2-051K23,3,245,PS,exp,40,←,left,←,0.5255465999944136,True,10,1,1,3
Y2-S2-051K23,3,246,PS,exp,26,→,right,→,0.8720618000952527,True,9,1,0,3
Y2-S2-051K23,3,247,PS,exp,32,↑,right,→,0.8339753999607638,False,9,-1,1,4
Y2-S2-051K23,3,248,PS,exp,48,→,right,→,0.49794900009874254,True,10,-1,0,4
Y2-S2-051K23,3,249,PS,exp,34,←,left,←,0.7992851999588311,True,10,-1,0,4
Y2-S2-051K23,3,250,PS,exp,39,↓,down,↓,0.9212538000429049,True,10,1,1,5
Y2-S2-051K23,3,251,PS,exp,44,→,right,→,0.5001109000295401,True,9,1,0,5
Y2-S2-051K23,3,252,PS,exp,44,↓,down,↓,0.5410886000609025,True,9,1,0,5
Y2-S2-051K23,3,253,PS,exp,38,↑,up,↑,0.8794348000083119,True,9,1,0,5
Y2-S2-051K23,3,254,PS,exp,50,↓,right,→,0.38290770002640784,False,8,-1,1,6
Y2-S2-051K23,3,255,PS,exp,34,→,right,→,0.4798956000013277,True,9,-1,0,6
Y2-S2-051K23,3,256,PS,exp,30,←,left,←,0.7712167000863701,True,9,-1,0,6
Y2-S2-051K23,3,257,PS,exp,33,↓,down,↓,0.6113104000687599,True,9,1,1,7
Y2-S2-051K23,3,258,PS,exp,44,←,left,←,0.501183099928312,True,8,1,0,7
Y2-S2-051K23,3,259,PS,exp,44,↑,left,←,0.6391062000766397,False,8,-1,1,8
Y2-S2-051K23,3,260,PS,exp,34,→,right,→,0.4824560999404639,True,9,-1,0,8
Y2-S2-051K23,3,261,PS,exp,36,←,left,←,0.8299361999379471,True,9,-1,0,8
Y2-S2-051K23,3,262,PS,exp,31,↑,up,↑,1.019458799972199,True,9,1,1,9
Y2-S2-051K23,3,263,PS,exp,36,→,right,→,0.520062500028871,True,8,1,0,9
Y2-S2-051K23,3,264,PS,exp,44,↓,down,↓,0.745920000015758,True,8,1,0,9
Y2-S2-051K23,3,265,PS,exp,36,→,left,←,0.7320781000889838,False,8,-1,1,10
Y2-S2-051K23,3,266,PS,exp,38,←,left,←,0.5376085999887437,True,9,-1,0,10
Y2-S2-051K23,3,267,PS,exp,43,→,left,←,0.6266853000270203,False,9,-1,0,10
Y2-S2-051K23,3,268,PS,exp,32,←,left,←,1.6759099999908358,True,10,-1,0,10
Y2-S2-051K23,3,269,PS,exp,49,↑,no_key,no_letter,-1.0,False,10,-1,0,10
Y2-S2-051K23,3,270,PS,exp,42,←,left,←,0.46227189991623163,True,11,-1,0,10
Y2-S2-051K23,3,271,PS,exp,27,→,right,→,0.4512125999899581,True,11,-1,0,10
Y2-S2-051K23,3,272,PS,exp,49,↓,down,↓,0.6684146000770852,True,11,1,1,11
Y2-S2-051K23,3,273,PS,exp,50,→,left,←,0.7103182000573725,False,10,-1,1,12
Y2-S2-051K23,3,274,PS,exp,38,←,left,←,0.5129013999830931,True,11,-1,0,12
Y2-S2-051K23,3,275,PS,exp,44,→,right,→,0.4596368999918923,True,11,-1,0,12
Y2-S2-051K23,3,276,PS,exp,41,↑,left,←,0.7755202000262216,False,11,-1,0,12
Y2-S2-051K23,3,277,PS,exp,46,←,left,←,0.435491899959743,True,12,-1,0,12
Y2-S2-051K23,3,278,PS,exp,37,→,right,→,0.5962137000169605,True,12,-1,0,12
Y2-S2-051K23,3,279,PS,exp,28,←,left,←,0.6390609999652952,True,12,1,1,13
Y2-S2-051K23,3,280,PS,exp,41,↓,down,↓,0.6356169999344274,True,11,1,0,13
Y2-S2-051K23,3,281,PS,exp,36,↑,right,→,0.9839102999540046,False,11,-1,1,14
Y2-S2-051K23,3,282,PS,exp,39,↓,down,↓,0.7646856000646949,True,12,-1,0,14
Y2-S2-051K23,3,283,PS,exp,27,←,left,←,0.5579937000293285,True,12,-1,0,14
Y2-S2-051K23,3,284,PS,exp,28,↑,up,↑,0.5778359000105411,True,12,1,1,15
Y2-S2-051K23,3,285,PS,exp,44,→,right,→,0.515235299943015,True,11,1,0,15
Y2-S2-051K23,3,286,PS,exp,34,↓,down,↓,0.6308052999665961,True,11,1,0,15
Y2-S2-051K23,3,287,PS,exp,28,←,left,←,0.4648938999744132,True,11,1,0,15
Y2-S2-051K23,3,288,PS,exp,38,↑,up,↑,0.6211670000338927,True,10,1,0,15
Y2-S2-051K23,3,289,PS,exp,50,↓,down,↓,0.553748199949041,True,10,1,0,15
Y2-S2-051K23,3,290,PS,exp,25,↑,up,↑,0.705498700030148,True,10,1,0,15
Y2-S2-051K23,3,291,PS,exp,30,↓,down,↓,0.673597100074403,True,9,1,0,15
Y2-S2-051K23,3,292,PS,exp,37,↑,up,↑,0.5964125000173226,True,9,1,0,15
Y2-S2-051K23,3,293,PS,exp,43,↓,down,↓,0.5682064000284299,True,9,1,0,15
Y2-S2-051K23,3,294,PS,exp,34,→,right,→,0.8757696999236941,True,8,1,0,15
Y2-S2-051K23,3,295,PS,exp,41,←,left,←,0.6360880000283942,True,8,1,0,15
Y2-S2-051K23,3,296,PS,exp,46,→,right,→,0.5454533000010997,True,8,1,0,15
Y2-S2-051K23,3,297,PS,exp,49,↑,up,↑,1.460996299982071,True,7,1,0,15
Y2-S2-051K23,3,298,PS,exp,42,↓,down,↓,0.8413380000274628,True,7,1,0,15
Y2-S2-051K23,3,299,PS,exp,50,←,left,←,0.43270259990822524,True,7,1,0,15
Y2-S2-051K23,3,300,PS,exp,37,↓,down,↓,0.6476932999212295,True,6,1,0,15
Y2-S2-051K23,3,301,PS,exp,44,↑,left,←,0.43312560010235757,False,6,-1,1,16
Y2-S2-051K23,4,302,AS,intra_train,50,→,right,→,1.611252999980934,True,28,-,-,-
Y2-S2-051K23,4,303,AS,intra_train,47,↓,down,↓,0.6620719999773428,True,28,-,-,-
Y2-S2-051K23,4,304,AS,intra_train,39,←,left,←,0.7116991999791935,True,28,-,-,-
Y2-S2-051K23,4,305,AS,intra_train,29,→,right,→,0.6420764999929816,True,28,-,-,-
Y2-S2-051K23,4,306,AS,intra_train,36,←,left,←,0.4173066000221297,True,28,-,-,-
Y2-S2-051K23,4,307,AS,exp,28,↑,up,↑,0.6339921000180766,True,19,0,0,0
Y2-S2-051K23,4,308,AS,exp,38,←,left,←,0.7573331999592483,True,19,0,0,0
Y2-S2-051K23,4,309,AS,exp,33,→,right,→,0.6076418999582529,True,19,1,0,0
Y2-S2-051K23,4,310,AS,exp,49,←,left,←,0.5613456999417394,True,18,1,0,0
Y2-S2-051K23,4,311,AS,exp,25,↑,up,↑,0.5667230000253767,True,18,1,0,0
Y2-S2-051K23,4,312,AS,exp,26,→,right,→,0.524577199947089,True,18,1,0,0
Y2-S2-051K23,4,313,AS,exp,37,←,left,←,0.8373483999166638,True,17,1,0,0
Y2-S2-051K23,4,314,AS,exp,45,↓,up,↑,0.7054671000223607,False,17,-1,1,1
Y2-S2-051K23,4,315,AS,exp,35,←,left,←,0.5762730999849737,True,18,-1,0,1
Y2-S2-051K23,4,316,AS,exp,25,↓,down,↓,1.2753430000739172,True,18,-1,0,1
Y2-S2-051K23,4,317,AS,exp,43,↑,up,↑,0.6192539000185207,True,18,1,1,2
Y2-S2-051K23,4,318,AS,exp,27,←,left,←,0.6055231000063941,True,17,1,0,2
Y2-S2-051K23,4,319,AS,exp,40,↓,up,↑,0.6887613000581041,False,17,-1,1,3
Y2-S2-051K23,4,320,AS,exp,31,→,left,←,0.3507330999709666,False,18,-1,0,3
Y2-S2-051K23,4,321,AS,exp,49,↑,up,↑,0.5786894999910146,True,19,-1,0,3
Y2-S2-051K23,4,322,AS,exp,43,←,left,←,0.5512785000028089,True,19,-1,0,3
Y2-S2-051K23,4,323,AS,exp,47,↓,down,↓,0.7014187999302521,True,19,1,1,4
Y2-S2-051K23,4,324,AS,exp,34,↑,up,↑,0.587650700006634,True,18,1,0,4
Y2-S2-051K23,4,325,AS,exp,35,→,right,→,0.6093934000236914,True,18,1,0,4
Y2-S2-051K23,4,326,AS,exp,46,↓,down,↓,1.629780099960044,True,18,1,0,4
Y2-S2-051K23,4,327,AS,exp,28,→,right,→,0.5760045999195427,True,17,1,0,4
Y2-S2-051K23,4,328,AS,exp,34,←,left,←,0.782979300012812,True,17,1,0,4
Y2-S2-051K23,4,329,AS,exp,42,↑,down,↓,0.8445789000252262,False,17,-1,1,5
Y2-S2-051K23,4,330,AS,exp,42,→,right,→,0.6146865000482649,True,18,-1,0,5
Y2-S2-051K23,4,331,AS,exp,31,←,left,←,0.7259747999487445,True,18,-1,0,5
Y2-S2-051K23,4,332,AS,exp,31,↑,up,↑,0.7911194000625983,True,18,1,1,6
Y2-S2-051K23,4,333,AS,exp,31,↓,up,↑,1.1710034999996424,False,17,-1,1,7
Y2-S2-051K23,4,334,AS,exp,35,→,right,→,0.43424039997626096,True,18,-1,0,7
Y2-S2-051K23,4,335,AS,exp,31,↑,up,↑,0.6449925999622792,True,18,-1,0,7
Y2-S2-051K23,4,336,AS,exp,34,↓,down,↓,0.793244699947536,True,18,1,1,8
Y2-S2-051K23,4,337,AS,exp,37,→,right,→,1.0357075999490917,True,17,1,0,8
Y2-S2-051K23,4,338,AS,exp,45,↑,up,↑,0.5966622999403626,True,17,1,0,8
Y2-S2-051K23,4,339,AS,exp,32,↓,down,↓,1.1634723000461236,True,17,1,0,8
Y2-S2-051K23,4,340,AS,exp,38,→,right,→,0.7567739000078291,True,16,1,0,8
Y2-S2-051K23,4,341,AS,exp,25,↑,down,↓,0.9289057001005858,False,16,-1,1,9
Y2-S2-051K23,4,342,AS,exp,29,←,left,←,0.4743679000530392,True,17,-1,0,9
Y2-S2-051K23,4,343,AS,exp,36,↓,down,↓,0.8761670999228954,True,17,-1,0,9
Y2-S2-051K23,4,344,AS,exp,48,←,left,←,0.6636607999680564,True,17,1,1,10
Y2-S2-051K23,4,345,AS,exp,26,↓,up,↑,0.6282694999827072,False,16,-1,1,11
Y2-S2-051K23,4,346,AS,exp,38,↑,up,↑,0.5385422999970615,True,17,-1,0,11
Y2-S2-051K23,4,347,AS,exp,25,↓,up,↑,0.9211761000333354,False,17,-1,0,11
Y2-S2-051K23,4,348,AS,exp,49,→,right,→,0.6355412000557408,True,18,-1,0,11
Y2-S2-051K23,4,349,AS,exp,37,↓,down,↓,0.6802690000040457,True,18,-1,0,11
Y2-S2-051K23,4,350,AS,exp,49,↑,down,↓,0.9034131999360397,False,18,-1,0,11
Y2-S2-051K23,4,351,AS,exp,29,↓,down,↓,0.7858206999953836,True,19,-1,0,11
Y2-S2-051K23,4,352,AS,exp,43,←,left,←,1.8787142999935895,True,19,-1,0,11
Y2-S2-051K23,4,353,AS,exp,36,↓,down,↓,0.6475537999067456,True,19,1,1,12
Y2-S2-051K23,4,354,AS,exp,44,←,left,←,1.6025004999246448,True,18,1,0,12
Y2-S2-051K23,4,355,AS,exp,33,↓,down,↓,0.6330249999882653,True,18,1,0,12
Y2-S2-051K23,4,356,AS,exp,33,↑,up,↑,0.6134206000715494,True,18,1,0,12
Y2-S2-051K23,4,357,AS,exp,31,→,right,→,0.5481624999083579,True,17,1,0,12
Y2-S2-051K23,4,358,AS,exp,36,↓,down,↓,0.5311183000449091,True,17,1,0,12
Y2-S2-051K23,4,359,AS,exp,48,→,left,←,0.74910000001546,False,17,-1,1,13
Y2-S2-051K23,4,360,AS,exp,27,↑,up,↑,0.7641626000404358,True,18,-1,0,13
Y2-S2-051K23,4,361,AS,exp,44,→,left,←,0.6084811999462545,False,18,-1,0,13
Y2-S2-051K23,4,362,AS,exp,41,↑,up,↑,0.8243951000040397,True,19,-1,0,13
Y2-S2-051K23,4,363,AS,exp,29,→,right,→,0.7164029000559822,True,19,-1,0,13
Y2-S2-051K23,4,364,AS,exp,40,↓,down,↓,0.928001300082542,True,19,1,1,14
Y2-S2-051K23,4,365,AS,exp,33,→,left,←,0.6592303999932483,False,18,-1,1,15
Y2-S2-051K23,4,366,AS,exp,25,↓,down,↓,0.8807065000291914,True,19,-1,0,15
Y2-S2-051K23,4,367,AS,exp,36,↑,up,↑,0.764702899963595,True,19,-1,0,15
Y2-S2-051K23,4,368,AS,exp,41,←,left,←,0.575868200045079,True,19,1,1,16
Y2-S2-051K23,5,369,AS,intra_train,39,→,right,→,0.5173240000149235,True,28,-,-,-
Y2-S2-051K23,5,370,AS,intra_train,37,↑,up,↑,0.45167029998265207,True,28,-,-,-
Y2-S2-051K23,5,371,AS,intra_train,47,←,left,←,0.6933071999810636,True,28,-,-,-
Y2-S2-051K23,5,372,AS,intra_train,30,↓,down,↓,0.7556250999914482,True,28,-,-,-
Y2-S2-051K23,5,373,AS,intra_train,34,←,left,←,0.5181799998972565,True,28,-,-,-
Y2-S2-051K23,5,374,AS,exp,30,→,right,→,0.4503806000575423,True,19,0,0,0
Y2-S2-051K23,5,375,AS,exp,42,↑,left,←,1.0637954999692738,False,19,-1,0,0
Y2-S2-051K23,5,376,AS,exp,44,↓,down,↓,0.7827148000942543,True,20,-1,0,0
Y2-S2-051K23,5,377,AS,exp,48,←,left,←,0.6350562999723479,True,20,-1,0,0
Y2-S2-051K23,5,378,AS,exp,31,↓,down,↓,0.4671727999811992,True,20,1,1,1
Y2-S2-051K23,5,379,AS,exp,37,→,right,→,0.6313941000262275,True,19,1,0,1
Y2-S2-051K23,5,380,AS,exp,40,↓,down,↓,0.5209589001024142,True,19,1,0,1
Y2-S2-051K23,5,381,AS,exp,33,←,left,←,1.2861299000214785,True,19,1,0,1
Y2-S2-051K23,5,382,AS,exp,44,→,right,→,0.8585771999787539,True,18,1,0,1
Y2-S2-051K23,5,383,AS,exp,45,↓,left,←,0.9290196999209002,False,18,-1,1,2
Y2-S2-051K23,5,384,AS,exp,37,←,left,←,0.6424323000246659,True,19,-1,0,2
Y2-S2-051K23,5,385,AS,exp,49,→,right,→,0.45131250005215406,True,19,-1,0,2
Y2-S2-051K23,5,386,AS,exp,46,←,left,←,0.4508281999733299,True,19,1,1,3
Y2-S2-051K23,5,387,AS,exp,29,→,left,←,0.7053900000173599,False,18,-1,1,4
Y2-S2-051K23,5,388,AS,exp,47,↓,down,↓,0.7957259999820963,True,19,-1,0,4
Y2-S2-051K23,5,389,AS,exp,39,↑,up,↑,0.8258809000253677,True,19,-1,0,4
Y2-S2-051K23,5,390,AS,exp,49,↓,down,↓,0.7589197000488639,True,19,1,1,5
Y2-S2-051K23,5,391,AS,exp,38,←,left,←,0.7154136999743059,True,18,1,0,5
Y2-S2-051K23,5,392,AS,exp,27,↓,down,↓,0.6214330999646336,True,18,1,0,5
Y2-S2-051K23,5,393,AS,exp,34,←,left,←,0.669373800046742,True,18,1,0,5
Y2-S2-051K23,5,394,AS,exp,30,↑,left,←,1.1642408999614418,False,17,-1,1,6
Y2-S2-051K23,5,395,AS,exp,34,→,right,→,0.5999021000461653,True,18,-1,0,6
Y2-S2-051K23,5,396,AS,exp,39,↓,down,↓,1.6937362999888137,True,18,-1,0,6
Y2-S2-051K23,5,397,AS,exp,30,←,left,←,0.614631799980998,True,18,1,1,7
Y2-S2-051K23,5,398,AS,exp,41,↑,up,↑,0.5763504999922588,True,17,1,0,7
Y2-S2-051K23,5,399,AS,exp,40,→,right,→,0.555009700008668,True,17,1,0,7
Y2-S2-051K23,5,400,AS,exp,27,↑,left,←,1.008540700073354,False,17,-1,1,8
Y2-S2-051K23,5,401,AS,exp,36,→,no_key,no_letter,-1.0,False,18,-1,0,8
Y2-S2-051K23,5,402,AS,exp,46,↑,up,↑,0.519683999940753,True,19,-1,0,8
Y2-S2-051K23,5,403,AS,exp,30,↓,up,↑,0.5435918000293896,False,19,-1,0,8
Y2-S2-051K23,5,404,AS,exp,42,→,right,→,0.4673022000351921,True,20,-1,0,8
Y2-S2-051K23,5,405,AS,exp,31,←,left,←,0.5865678999107331,True,20,-1,0,8
Y2-S2-051K23,5,406,AS,exp,34,↓,down,↓,0.9522695000050589,True,20,1,1,9
Y2-S2-051K23,5,407,AS,exp,31,←,left,←,0.9076387999812141,True,19,1,0,9
Y2-S2-051K23,5,408,AS,exp,31,→,right,→,0.5464095999486744,True,19,1,0,9
Y2-S2-051K23,5,409,AS,exp,44,↑,down,↓,0.7660291000502184,False,19,-1,1,10
Y2-S2-051K23,5,410,AS,exp,31,→,left,←,0.6847035000100732,False,20,-1,0,10
Y2-S2-051K23,5,411,AS,exp,30,↑,up,↑,0.5821565000806004,True,21,-1,0,10
Y2-S2-051K23,5,412,AS,exp,33,↓,down,↓,0.7998373000882566,True,21,-1,0,10
Y2-S2-051K23,5,413,AS,exp,46,→,down,↓,0.8418049999745563,False,21,-1,0,10
Y2-S2-051K23,5,414,AS,exp,38,↓,down,↓,0.781039800029248,True,22,-1,0,10
Y2-S2-051K23,5,415,AS,exp,40,←,left,←,0.6042065999936312,True,22,-1,0,10
Y2-S2-051K23,5,416,AS,exp,42,→,right,→,0.5647854000562802,True,22,1,1,11
Y2-S2-051K23,5,417,AS,exp,31,←,left,←,0.5230709000024945,True,21,1,0,11
Y2-S2-051K23,5,418,AS,exp,32,↓,down,↓,0.6077815999742597,True,21,1,0,11
Y2-S2-051K23,5,419,AS,exp,42,→,right,→,0.4506836000364274,True,21,1,0,11
Y2-S2-051K23,5,420,AS,exp,43,←,left,←,0.7119840000523254,True,20,1,0,11
Y2-S2-051K23,5,421,AS,exp,32,→,right,→,0.5422361000673845,True,20,1,0,11
Y2-S2-051K23,5,422,AS,exp,25,↓,down,↓,1.6254299000138417,True,20,1,0,11
Y2-S2-051K23,5,423,AS,exp,28,↑,up,↑,0.7709670000476763,True,19,1,0,11
Y2-S2-051K23,5,424,AS,exp,47,→,right,→,0.6787453000433743,True,19,1,0,11
Y2-S2-051K23,5,425,AS,exp,48,←,left,←,0.5947820000583306,True,19,1,0,11
Y2-S2-051K23,5,426,AS,exp,28,↑,up,↑,1.2085304000647739,True,18,1,0,11
Y2-S2-051K23,5,427,AS,exp,38,←,left,←,0.5031669000163674,True,18,1,0,11
Y2-S2-051K23,5,428,AS,exp,40,↓,down,↓,0.7287621001014486,True,18,1,0,11
Y2-S2-051K23,5,429,AS,exp,39,←,left,←,0.6376657999353483,True,17,1,0,11
Y2-S2-051K23,5,430,AS,exp,42,↓,down,↓,0.5818137000314891,True,17,1,0,11
Y2-S2-051K23,5,431,AS,exp,28,←,left,←,0.630640699993819,True,17,1,0,11
Y2-S2-051K23,5,432,AS,exp,43,↑,left,←,0.819578199996613,False,16,-1,1,12
Y2-S2-051K23,5,433,AS,exp,31,↓,down,↓,0.6447801999747753,True,17,-1,0,12
Y2-S2-051K23,5,434,AS,exp,46,↑,up,↑,0.6660922999726608,True,17,-1,0,12
Y2-S2-051K23,5,435,AS,exp,30,→,right,→,0.7085572000360116,True,17,1,1,13
Y2-S2-051K23,5,436,AS,exp,46,↓,down,↓,0.5558137000771239,True,16,1,0,13
Y2-S2-051K23,5,437,AS,exp,33,←,left,←,0.6310651999665424,True,16,1,0,13
Y2-S2-051K23,5,438,AS,exp,43,↓,down,↓,0.644766699988395,True,16,1,0,13
Y2-S2-051K23,5,439,AS,exp,49,←,left,←,0.46238659997470677,True,15,1,0,13
Y2-S2-051K23,5,440,AS,exp,31,→,left,←,0.6039386000484228,False,15,-1,1,14
Y2-S2-051K23,5,441,AS,exp,31,↑,down,↓,0.7226724999491125,False,16,-1,0,14
Y2-S2-051K23,5,442,AS,exp,46,←,left,←,0.6152655000332743,True,17,-1,0,14
Y2-S2-051K23,5,443,AS,exp,38,↑,up,↑,0.6403585000662133,True,17,-1,0,14
Y2-S2-051K23,5,444,AS,exp,36,↓,up,↑,0.6522255000891164,False,17,-1,0,14
Y2-S2-051K23,5,445,AS,exp,25,→,right,→,0.6566127999685705,True,18,-1,0,14
Y2-S2-051K23,5,446,AS,exp,40,↓,down,↓,0.9599935000296682,True,18,-1,0,14
Y2-S2-051K23,5,447,AS,exp,49,→,left,←,0.6039372000377625,False,18,-1,0,14
Y2-S2-051K23,5,448,AS,exp,38,↓,down,↓,1.669027299969457,True,19,-1,0,14
Y2-S2-051K23,5,449,AS,exp,40,→,left,←,0.608933600015007,False,19,-1,0,14
Y2-S2-051K23,5,450,AS,exp,30,←,left,←,0.6515786000527442,True,20,-1,0,14
Y2-S2-051K23,5,451,AS,exp,50,→,left,←,0.8991782999364659,False,20,-1,0,14
Y2-S2-051K23,5,452,AS,exp,45,←,left,←,0.7751955999992788,True,21,-1,0,14
Y2-S2-051K23,5,453,AS,exp,42,↓,down,↓,0.616615799954161,True,21,-1,0,14
Y2-S2-051K23,5,454,AS,exp,37,→,no_key,no_letter,-1.0,False,21,-1,0,14
Y2-S2-051K23,5,455,AS,exp,46,↓,down,↓,0.8682228999678046,True,22,-1,0,14
Y2-S2-051K23,5,456,AS,exp,43,←,left,←,0.6457765999948606,True,22,-1,0,14
Y2-S2-051K23,5,457,AS,exp,25,↓,down,↓,0.5403136999811977,True,22,1,1,15
Y2-S2-051K23,5,458,AS,exp,40,→,left,←,0.8267214000225067,False,21,-1,1,16
Y2-S2-051K23,6,459,PS,intra_train,45,↓,down,↓,0.4877246000105515,True,10,-,-,-
Y2-S2-051K23,6,460,PS,intra_train,38,←,down,↓,1.2703553000465035,False,10,-,-,-
Y2-S2-051K23,6,461,PS,intra_train,33,↑,up,↑,0.4856891999952495,True,10,-,-,-
Y2-S2-051K23,6,462,PS,intra_train,27,←,left,←,0.5202887000050396,True,10,-,-,-
Y2-S2-051K23,6,463,PS,intra_train,27,↑,up,↑,0.4483510000864044,True,10,-,-,-
Y2-S2-051K23,6,464,PS,exp,50,→,right,→,0.46189989999402314,True,7,0,0,0
Y2-S2-051K23,6,465,PS,exp,45,↑,up,↑,0.5015341000398621,True,7,0,0,0
Y2-S2-051K23,6,466,PS,exp,50,→,left,←,0.680426700040698,False,7,-1,0,0
Y2-S2-051K23,6,467,PS,exp,28,←,left,←,0.6339634999167174,True,8,-1,0,0
Y2-S2-051K23,6,468,PS,exp,27,↓,down,↓,0.5724212999921292,True,8,-1,0,0
Y2-S2-051K23,6,469,PS,exp,31,←,left,←,0.40967309998814017,True,8,1,1,1
Y2-S2-051K23,6,470,PS,exp,27,↓,down,↓,0.6030987000558525,True,7,1,0,1
Y2-S2-051K23,6,471,PS,exp,38,↑,up,↑,0.6067061999347061,True,7,1,0,1
Y2-S2-051K23,6,472,PS,exp,34,↓,down,↓,0.6602762000402436,True,7,1,0,1
Y2-S2-051K23,6,473,PS,exp,40,→,right,→,0.5426876000128686,True,6,1,0,1
Y2-S2-051K23,6,474,PS,exp,30,←,left,←,0.6452259999932721,True,6,1,0,1
Y2-S2-051K23,6,475,PS,exp,41,→,right,→,0.44495319994166493,True,6,1,0,1
Y2-S2-051K23,6,476,PS,exp,29,↑,right,→,0.8686671999748796,False,5,-1,1,2
Y2-S2-051K23,6,477,PS,exp,36,←,left,←,0.4636219000676647,True,6,-1,0,2
Y2-S2-051K23,6,478,PS,exp,49,↓,left,←,0.40440740005578846,False,6,-1,0,2
Y2-S2-051K23,6,479,PS,exp,28,↑,up,↑,0.8017617000732571,True,7,-1,0,2
Y2-S2-051K23,6,480,PS,exp,38,↓,down,↓,1.0209671999327838,True,7,-1,0,2
Y2-S2-051K23,6,481,PS,exp,36,→,left,←,0.5256809999700636,False,7,-1,0,2
Y2-S2-051K23,6,482,PS,exp,29,↑,up,↑,0.6053373999893665,True,8,-1,0,2
Y2-S2-051K23,6,483,PS,exp,25,→,right,→,0.4929773999610916,True,8,-1,0,2
Y2-S2-051K23,6,484,PS,exp,33,←,left,←,0.4914613999426365,True,8,1,1,3
Y2-S2-051K23,6,485,PS,exp,34,↑,left,←,1.4022738999919966,False,7,-1,1,4
Y2-S2-051K23,6,486,PS,exp,38,→,left,←,1.0151728999335319,False,8,-1,0,4
Y2-S2-051K23,6,487,PS,exp,38,↑,up,↑,0.6639067000942305,True,9,-1,0,4
Y2-S2-051K23,6,488,PS,exp,25,↓,down,↓,0.6343318000435829,True,9,-1,0,4
Y2-S2-051K23,6,489,PS,exp,38,↑,up,↑,0.5933960999827832,True,9,1,1,5
Y2-S2-051K23,6,490,PS,exp,40,←,left,←,0.7216251000063494,True,8,1,0,5
Y2-S2-051K23,6,491,PS,exp,36,↑,up,↑,0.7412250000052154,True,8,1,0,5
Y2-S2-051K23,6,492,PS,exp,45,→,right,→,0.4698004999663681,True,8,1,0,5
Y2-S2-051K23,6,493,PS,exp,49,↑,up,↑,0.5074734999798238,True,7,1,0,5
Y2-S2-051K23,6,494,PS,exp,44,↓,up,↑,0.5546112000010908,False,7,-1,1,6
Y2-S2-051K23,6,495,PS,exp,28,→,right,→,0.48937340010888875,True,8,-1,0,6
Y2-S2-051K23,6,496,PS,exp,29,↑,up,↑,0.5251543000340462,True,8,-1,0,6
Y2-S2-051K23,6,497,PS,exp,49,←,left,←,0.48914289998356253,True,8,1,1,7
Y2-S2-051K23,6,498,PS,exp,26,↑,up,↑,0.6195760000264272,True,7,1,0,7
Y2-S2-051K23,6,499,PS,exp,30,←,left,←,0.6010959000559524,True,7,1,0,7
Y2-S2-051K23,6,500,PS,exp,41,↓,down,↓,0.6021719999844208,True,7,1,0,7
Y2-S2-051K23,6,501,PS,exp,27,←,left,←,0.7193095000693575,True,6,1,0,7
Y2-S2-051K23,6,502,PS,exp,34,↑,up,↑,0.5299737000605091,True,6,1,0,7
Y2-S2-051K23,6,503,PS,exp,25,←,right,→,0.7242757000494748,False,6,-1,1,8
Y2-S2-051K23,6,504,PS,exp,46,→,up,↑,0.5223487000912428,False,7,-1,0,8
Y2-S2-051K23,6,505,PS,exp,34,↓,down,↓,0.6412266000406817,True,8,-1,0,8
Y2-S2-051K23,6,506,PS,exp,46,←,left,←,0.5500148999271914,True,8,-1,0,8
Y2-S2-051K23,6,507,PS,exp,32,↑,up,↑,0.4669788999017328,True,8,1,1,9
Y2-S2-051K23,6,508,PS,exp,27,→,right,→,0.49828990001697093,True,7,1,0,9
Y2-S2-051K23,6,509,PS,exp,40,←,left,←,0.4561478999676183,True,7,1,0,9
Y2-S2-051K23,6,510,PS,exp,45,↓,down,↓,0.5749818000476807,True,7,1,0,9
Y2-S2-051K23,6,511,PS,exp,38,←,left,←,0.424476100015454,True,6,1,0,9
Y2-S2-051K23,6,512,PS,exp,50,↓,left,←,0.6722874999977648,False,6,-1,1,10
Y2-S2-051K23,6,513,PS,exp,26,→,right,→,0.4301419999683276,True,7,-1,0,10
Y2-S2-051K23,6,514,PS,exp,26,↓,down,↓,0.6355780999874696,True,7,-1,0,10
Y2-S2-051K23,6,515,PS,exp,31,↑,up,↑,0.5631407999899238,True,7,1,1,11
Y2-S2-051K23,6,516,PS,exp,49,←,right,→,1.4399339999072254,False,6,-1,1,12
Y2-S2-051K23,6,517,PS,exp,29,↑,up,↑,0.5593591999495402,True,7,-1,0,12
Y2-S2-051K23,6,518,PS,exp,46,→,right,→,0.596864499966614,True,7,-1,0,12
Y2-S2-051K23,6,519,PS,exp,40,↑,left,←,0.6570476000197232,False,7,-1,0,12
Y2-S2-051K23,6,520,PS,exp,31,←,right,→,1.1773120000725612,False,8,-1,0,12
Y2-S2-051K23,6,521,PS,exp,45,↓,down,↓,0.7793619999429211,True,9,-1,0,12
Y2-S2-051K23,6,522,PS,exp,42,↑,up,↑,0.6073963000671938,True,9,-1,0,12
Y2-S2-051K23,6,523,PS,exp,25,↓,down,↓,0.5958400000818074,True,9,1,1,13
Y2-S2-051K23,6,524,PS,exp,41,↑,left,←,0.7543630000436679,False,8,-1,1,14
Y2-S2-051K23,6,525,PS,exp,31,←,down,↓,1.331562300096266,False,9,-1,0,14
Y2-S2-051K23,6,526,PS,exp,32,↓,down,↓,0.879228699952364,True,10,-1,0,14
Y2-S2-051K23,6,527,PS,exp,27,→,right,→,0.43067610007710755,True,10,-1,0,14
Y2-S2-051K23,6,528,PS,exp,44,↑,down,↓,0.8296978999860585,False,10,-1,0,14
Y2-S2-051K23,6,529,PS,exp,43,←,left,←,0.5364824999123812,True,11,-1,0,14
Y2-S2-051K23,6,530,PS,exp,36,→,right,→,0.49374209996312857,True,11,-1,0,14
Y2-S2-051K23,6,531,PS,exp,25,←,left,←,0.8484897000016645,True,11,1,1,15
Y2-S2-051K23,6,532,PS,exp,27,↓,left,←,0.7591366999549791,False,10,-1,1,16
Y2-S2-051K23,7,533,PS,intra_train,42,→,right,→,0.41672080010175705,True,10,-,-,-
Y2-S2-051K23,7,534,PS,intra_train,36,↑,up,↑,0.5446139000123367,True,10,-,-,-
Y2-S2-051K23,7,535,PS,intra_train,44,↓,down,↓,0.5269785999553278,True,10,-,-,-
Y2-S2-051K23,7,536,PS,intra_train,35,↑,up,↑,0.4245379000203684,True,10,-,-,-
Y2-S2-051K23,7,537,PS,intra_train,29,↓,down,↓,0.6789392000064254,True,10,-,-,-
Y2-S2-051K23,7,538,PS,exp,29,→,right,→,0.4686770000262186,True,7,0,0,0
Y2-S2-051K23,7,539,PS,exp,46,↓,down,↓,0.7655559000559151,True,7,0,0,0
Y2-S2-051K23,7,540,PS,exp,46,←,down,↓,1.2840212000301108,False,7,-1,0,0
Y2-S2-051K23,7,541,PS,exp,39,→,left,←,0.4293846000218764,False,8,-1,0,0
Y2-S2-051K23,7,542,PS,exp,43,↓,down,↓,0.5494133000029251,True,9,-1,0,0
Y2-S2-051K23,7,543,PS,exp,41,→,right,→,0.46901310002431273,True,9,-1,0,0
Y2-S2-051K23,7,544,PS,exp,36,↑,left,←,0.2838791999965906,False,9,-1,0,0
Y2-S2-051K23,7,545,PS,exp,32,←,left,←,0.4636923000216484,True,10,-1,0,0
Y2-S2-051K23,7,546,PS,exp,25,→,right,→,0.5636863000690937,True,10,-1,0,0
Y2-S2-051K23,7,547,PS,exp,30,↓,down,↓,0.4954513000557199,True,10,1,1,1
Y2-S2-051K23,7,548,PS,exp,26,→,right,→,0.4708959999261424,True,9,1,0,1
Y2-S2-051K23,7,549,PS,exp,43,←,left,←,0.480567799997516,True,9,1,0,1
Y2-S2-051K23,7,550,PS,exp,40,↓,down,↓,0.4545873000752181,True,9,1,0,1
Y2-S2-051K23,7,551,PS,exp,40,↑,up,↑,0.4762462000362575,True,8,1,0,1
Y2-S2-051K23,7,552,PS,exp,41,←,left,←,0.9508485000114888,True,8,1,0,1
Y2-S2-051K23,7,553,PS,exp,28,↓,down,↓,0.5401139999739826,True,8,1,0,1
Y2-S2-051K23,7,554,PS,exp,31,↑,up,↑,0.5455176000250503,True,7,1,0,1
Y2-S2-051K23,7,555,PS,exp,36,→,left,←,0.5690750000067055,False,7,-1,1,2
Y2-S2-051K23,7,556,PS,exp,42,←,left,←,0.5137146000051871,True,8,-1,0,2
Y2-S2-051K23,7,557,PS,exp,33,↓,down,↓,0.5686006000032648,True,8,-1,0,2
Y2-S2-051K23,7,558,PS,exp,39,→,left,←,0.49790089996531606,False,8,-1,0,2
Y2-S2-051K23,7,559,PS,exp,43,↑,up,↑,0.4328446000581607,True,9,-1,0,2
Y2-S2-051K23,7,560,PS,exp,41,→,right,→,0.3847783000674099,True,9,-1,0,2
Y2-S2-051K23,7,561,PS,exp,29,↓,down,↓,0.49365690001286566,True,9,1,1,3
Y2-S2-051K23,7,562,PS,exp,50,←,left,←,0.4866008999524638,True,8,1,0,3
Y2-S2-051K23,7,563,PS,exp,39,↑,up,↑,0.4917171000270173,True,8,1,0,3
Y2-S2-051K23,7,564,PS,exp,35,↓,left,←,0.46368749998509884,False,8,-1,1,4
Y2-S2-051K23,7,565,PS,exp,29,↑,up,↑,0.465306100086309,True,9,-1,0,4
Y2-S2-051K23,7,566,PS,exp,32,←,left,←,0.39535490004345775,True,9,-1,0,4
Y2-S2-051K23,7,567,PS,exp,48,↓,down,↓,0.5939484999980778,True,9,1,1,5
Y2-S2-051K23,7,568,PS,exp,39,↑,left,←,1.1260833999840543,False,8,-1,1,6
Y2-S2-051K23,7,569,PS,exp,39,↓,down,↓,1.2828739999094978,True,9,-1,0,6
Y2-S2-051K23,7,570,PS,exp,42,↑,up,↑,0.5493841000134125,True,9,-1,0,6
Y2-S2-051K23,7,571,PS,exp,27,←,left,←,0.4798674000194296,True,9,1,1,7
Y2-S2-051K23,7,572,PS,exp,27,↓,down,↓,0.6401468999683857,True,8,1,0,7
Y2-S2-051K23,7,573,PS,exp,30,→,left,←,0.5882880999706686,False,8,-1,1,8
Y2-S2-051K23,7,574,PS,exp,48,←,left,←,0.4098896000068635,True,9,-1,0,8
Y2-S2-051K23,7,575,PS,exp,40,↑,up,↑,0.5043919000308961,True,9,-1,0,8
Y2-S2-051K23,7,576,PS,exp,34,←,left,←,0.5423352000070736,True,9,1,1,9
Y2-S2-051K23,7,577,PS,exp,25,→,right,→,0.44203310005832464,True,8,1,0,9
Y2-S2-051K23,7,578,PS,exp,49,←,left,←,0.4857015999732539,True,8,1,0,9
Y2-S2-051K23,7,579,PS,exp,40,↑,left,←,0.6649183999979869,False,8,-1,1,10
Y2-S2-051K23,7,580,PS,exp,35,↓,down,↓,0.6195950999390334,True,9,-1,0,10
Y2-S2-051K23,7,581,PS,exp,47,→,right,→,0.41720869997516274,True,9,-1,0,10
Y2-S2-051K23,7,582,PS,exp,48,←,left,←,0.47102459997404367,True,9,1,1,11
Y2-S2-051K23,7,583,PS,exp,50,→,right,→,0.49595530005171895,True,8,1,0,11
Y2-S2-051K23,7,584,PS,exp,27,↑,up,↑,0.4806977999396622,True,8,1,0,11
Y2-S2-051K23,7,585,PS,exp,41,↓,left,←,0.8836301000555977,False,8,-1,1,12
Y2-S2-051K23,7,586,PS,exp,25,→,right,→,0.5298572999890894,True,9,-1,0,12
Y2-S2-051K23,7,587,PS,exp,26,←,left,←,0.40690689999610186,True,9,-1,0,12
Y2-S2-051K23,7,588,PS,exp,27,→,right,→,0.6490114000625908,True,9,1,1,13
Y2-S2-051K23,7,589,PS,exp,42,←,left,←,0.5708834000397474,True,8,1,0,13
Y2-S2-051K23,7,590,PS,exp,30,↑,up,↑,0.7414482000749558,True,8,1,0,13
Y2-S2-051K23,7,591,PS,exp,29,←,left,←,0.706717099994421,True,8,1,0,13
Y2-S2-051K23,7,592,PS,exp,35,→,left,←,0.5435663999523968,False,7,-1,1,14
Y2-S2-051K23,7,593,PS,exp,38,←,left,←,0.5378298999276012,True,8,-1,0,14
Y2-S2-051K23,7,594,PS,exp,50,↓,down,↓,0.55212260002736,True,8,-1,0,14
Y2-S2-051K23,7,595,PS,exp,43,→,right,→,0.38288009993266314,True,8,1,1,15
Y2-S2-051K23,7,596,PS,exp,33,←,left,←,0.8349620000226423,True,7,1,0,15
Y2-S2-051K23,7,597,PS,exp,36,→,right,→,0.4547699000686407,True,7,1,0,15
Y2-S2-051K23,7,598,PS,exp,33,↓,down,↓,0.9236658000154421,True,7,1,0,15
Y2-S2-051K23,7,599,PS,exp,31,→,left,←,0.4720196999842301,False,6,-1,1,16
Y2-S2-051K23,8,600,AS,intra_train,41,←,left,←,0.7527527998900041,True,28,-,-,-
Y2-S2-051K23,8,601,AS,intra_train,25,↑,up,↑,0.6899505000328645,True,28,-,-,-
Y2-S2-051K23,8,602,AS,intra_train,28,↓,down,↓,0.7674575999844819,True,28,-,-,-
Y2-S2-051K23,8,603,AS,intra_train,37,↑,up,↑,0.8157200999557972,True,28,-,-,-
Y2-S2-051K23,8,604,AS,intra_train,34,→,right,→,0.7144429999170825,True,28,-,-,-
Y2-S2-051K23,8,605,AS,exp,49,↓,down,↓,0.7824022000422701,True,19,0,0,0
Y2-S2-051K23,8,606,AS,exp,38,←,left,←,0.6933089999947697,True,19,0,0,0
Y2-S2-051K23,8,607,AS,exp,32,↑,up,↑,0.6857636999338865,True,19,1,0,0
Y2-S2-051K23,8,608,AS,exp,43,↓,down,↓,0.5750453999498859,True,18,1,0,0
Y2-S2-051K23,8,609,AS,exp,25,↑,down,↓,0.7199362999526784,False,18,-1,1,1
Y2-S2-051K23,8,610,AS,exp,45,→,right,→,0.45068190002348274,True,19,-1,0,1
Y2-S2-051K23,8,611,AS,exp,39,←,left,←,0.5889261999400333,True,19,-1,0,1
Y2-S2-051K23,8,612,AS,exp,45,→,right,→,0.4178234999999404,True,19,1,1,2
Y2-S2-051K23,8,613,AS,exp,35,↑,up,↑,0.7888617999851704,True,18,1,0,2
Y2-S2-051K23,8,614,AS,exp,45,↓,down,↓,0.7043509000213817,True,18,1,0,2
Y2-S2-051K23,8,615,AS,exp,42,↑,up,↑,0.6523685000138357,True,18,1,0,2
Y2-S2-051K23,8,616,AS,exp,26,→,right,→,1.4442160000326112,True,17,1,0,2
Y2-S2-051K23,8,617,AS,exp,48,←,left,←,0.40042750001884997,True,17,1,0,2
Y2-S2-051K23,8,618,AS,exp,26,↓,up,↑,0.8003027000231668,False,17,-1,1,3
Y2-S2-051K23,8,619,AS,exp,46,→,no_key,no_letter,-1.0,False,18,-1,0,3
Y2-S2-051K23,8,620,AS,exp,31,↓,down,↓,0.5694629000499845,True,19,-1,0,3
Y2-S2-051K23,8,621,AS,exp,30,↑,up,↑,0.7336959999520332,True,19,-1,0,3
Y2-S2-051K23,8,622,AS,exp,43,↓,left,←,0.35039500007405877,False,19,-1,0,3
Y2-S2-051K23,8,623,AS,exp,25,↑,up,↑,0.7285487999906763,True,20,-1,0,3
Y2-S2-051K23,8,624,AS,exp,32,↓,down,↓,0.848356100032106,True,20,-1,0,3
Y2-S2-051K23,8,625,AS,exp,35,→,right,→,0.4005652000196278,True,20,1,1,4
Y2-S2-051K23,8,626,AS,exp,40,←,left,←,0.4006627999478951,True,19,1,0,4
Y2-S2-051K23,8,627,AS,exp,33,↓,down,↓,0.5119136000284925,True,19,1,0,4
Y2-S2-051K23,8,628,AS,exp,26,↑,down,↓,0.7324178999988362,False,19,-1,1,5
Y2-S2-051K23,8,629,AS,exp,43,→,right,→,0.4508648000191897,True,20,-1,0,5
Y2-S2-051K23,8,630,AS,exp,50,←,left,←,0.558711800025776,True,20,-1,0,5
Y2-S2-051K23,8,631,AS,exp,28,↑,up,↑,0.7322576000588015,True,20,1,1,6
Y2-S2-051K23,8,632,AS,exp,31,→,right,→,0.4174127000151202,True,19,1,0,6
Y2-S2-051K23,8,633,AS,exp,29,↑,up,↑,0.41754569998010993,True,19,1,0,6
Y2-S2-051K23,8,634,AS,exp,46,↓,down,↓,0.7281974999932572,True,19,1,0,6
Y2-S2-051K23,8,635,AS,exp,33,→,left,←,0.5455967000452802,False,18,-1,1,7
Y2-S2-051K23,8,636,AS,exp,33,↑,up,↑,0.6964025000343099,True,19,-1,0,7
Y2-S2-051K23,8,637,AS,exp,32,↓,down,↓,0.5364766999846324,True,19,-1,0,7
Y2-S2-051K23,8,638,AS,exp,46,↑,down,↓,0.49522779998369515,False,19,-1,0,7
Y2-S2-051K23,8,639,AS,exp,30,←,left,←,0.5373667000094429,True,20,-1,0,7
Y2-S2-051K23,8,640,AS,exp,33,↓,down,↓,0.5054205000633374,True,20,-1,0,7
Y2-S2-051K23,8,641,AS,exp,50,←,left,←,0.5250632000388578,True,20,1,1,8
Y2-S2-051K23,8,642,AS,exp,40,↑,up,↑,1.260676399921067,True,19,1,0,8
Y2-S2-051K23,8,643,AS,exp,28,↓,down,↓,0.6363954999251291,True,19,1,0,8
Y2-S2-051K23,8,644,AS,exp,35,→,left,←,0.4854141999967396,False,19,-1,1,9
Y2-S2-051K23,8,645,AS,exp,43,←,left,←,0.35057160002179444,True,20,-1,0,9
Y2-S2-051K23,8,646,AS,exp,49,→,right,→,0.4673358000582084,True,20,-1,0,9
Y2-S2-051K23,8,647,AS,exp,43,↑,up,↑,1.113530799979344,True,20,1,1,10
Y2-S2-051K23,8,648,AS,exp,44,→,right,→,0.4172785999253392,True,19,1,0,10
Y2-S2-051K23,8,649,AS,exp,44,←,left,←,0.5996847000205889,True,19,1,0,10
Y2-S2-051K23,8,650,AS,exp,26,↓,up,↑,0.6148585000773892,False,19,-1,1,11
Y2-S2-051K23,8,651,AS,exp,47,→,left,←,0.5350608000298962,False,20,-1,0,11
Y2-S2-051K23,8,652,AS,exp,30,←,left,←,0.5715603999560699,True,21,-1,0,11
Y2-S2-051K23,8,653,AS,exp,46,→,right,→,0.5495956999948248,True,21,-1,0,11
Y2-S2-051K23,8,654,AS,exp,28,↓,down,↓,0.8343230000464246,True,21,1,1,12
Y2-S2-051K23,8,655,AS,exp,35,→,left,←,0.6296801000135019,False,20,-1,1,13
Y2-S2-051K23,8,656,AS,exp,32,↓,down,↓,0.7226516000228003,True,21,-1,0,13
Y2-S2-051K23,8,657,AS,exp,47,↑,up,↑,0.5451571999583393,True,21,-1,0,13
Y2-S2-051K23,8,658,AS,exp,34,→,left,←,0.525671000010334,False,21,-1,0,13
Y2-S2-051K23,8,659,AS,exp,47,↓,down,↓,0.8050241000019014,True,22,-1,0,13
Y2-S2-051K23,8,660,AS,exp,42,←,left,←,0.5649102999595925,True,22,-1,0,13
Y2-S2-051K23,8,661,AS,exp,26,→,right,→,0.5378363999770954,True,22,1,1,14
Y2-S2-051K23,8,662,AS,exp,43,↓,down,↓,1.0865236999234185,True,21,1,0,14
Y2-S2-051K23,8,663,AS,exp,34,↑,up,↑,0.4837824000278488,True,21,1,0,14
Y2-S2-051K23,8,664,AS,exp,30,↓,down,↓,0.774213399970904,True,21,1,0,14
Y2-S2-051K23,8,665,AS,exp,32,→,right,→,1.2905759999994189,True,20,1,0,14
Y2-S2-051K23,8,666,AS,exp,32,↓,down,↓,0.5898178999777883,True,20,1,0,14
Y2-S2-051K23,8,667,AS,exp,38,→,right,→,0.4504929999820888,True,20,1,0,14
Y2-S2-051K23,8,668,AS,exp,35,↑,down,↓,0.7490254000294954,False,19,-1,1,15
Y2-S2-051K23,8,669,AS,exp,33,→,right,→,1.376992900040932,True,20,-1,0,15
Y2-S2-051K23,8,670,AS,exp,50,↓,down,↓,0.6144782999763265,True,20,-1,0,15
Y2-S2-051K23,8,671,AS,exp,42,↑,up,↑,0.5893391000572592,True,20,1,1,16
