PART_ID,Block_no,Trial_no,Block_type,Trial_type,CSI,Stim_letter,Key_pressed,letter_choose,Rt,Corr,Stimulus Time,Level,Reversal,Revs_count
Y2-S2-195K21,1,1,PS,train,26,←,left,←,1.2331799999810755,True,30,-,-,-
Y2-S2-195K21,1,2,PS,train,47,↓,down,↓,1.5738782999105752,True,30,-,-,-
Y2-S2-195K21,1,3,PS,train,34,↑,up,↑,1.0754450000822544,True,30,-,-,-
Y2-S2-195K21,1,4,PS,train,48,↓,down,↓,1.1511094002053142,True,30,-,-,-
Y2-S2-195K21,1,5,PS,train,38,→,right,→,0.9325248999521136,True,30,-,-,-
Y2-S2-195K21,1,6,PS,train,38,←,left,←,1.0507822001818568,True,30,-,-,-
Y2-S2-195K21,1,7,PS,train,41,↑,up,↑,0.9804213000461459,True,30,-,-,-
Y2-S2-195K21,1,8,PS,train,47,→,right,→,1.0989343000110239,True,30,-,-,-
Y2-S2-195K21,1,9,PS,train,42,←,left,←,0.7737437000032514,True,30,-,-,-
Y2-S2-195K21,1,10,PS,train,34,↓,down,↓,0.8806799999438226,True,30,-,-,-
Y2-S2-195K21,2,11,AS,train,47,←,left,←,0.8341355000156909,True,45,-,-,-
Y2-S2-195K21,2,12,AS,train,28,↑,up,↑,1.054677400039509,True,45,-,-,-
Y2-S2-195K21,2,13,AS,train,29,↓,down,↓,1.0592933997977525,True,45,-,-,-
Y2-S2-195K21,2,14,AS,train,40,←,left,←,1.1943314999807626,True,45,-,-,-
Y2-S2-195K21,2,15,AS,train,37,↓,down,↓,1.054273100104183,True,45,-,-,-
Y2-S2-195K21,2,16,AS,train,48,←,left,←,1.1280133998952806,True,45,-,-,-
Y2-S2-195K21,2,17,AS,train,26,↑,up,↑,1.1391834998503327,True,45,-,-,-
Y2-S2-195K21,2,18,AS,train,41,↓,down,↓,0.9984660998452455,True,45,-,-,-
Y2-S2-195K21,2,19,AS,train,35,↑,up,↑,1.390218999935314,True,45,-,-,-
Y2-S2-195K21,2,20,AS,train,38,→,right,→,1.171707300003618,True,45,-,-,-
Y2-S2-195K21,-,21,PS,adaptive,27,←,right,→,0.9500974998809397,False,10,-1,0,0
Y2-S2-195K21,-,22,PS,adaptive,45,→,up,↑,1.6276174001395702,False,11,-1,0,0
Y2-S2-195K21,-,23,PS,adaptive,46,↓,down,↓,0.7469906001351774,True,12,-1,0,0
Y2-S2-195K21,-,24,PS,adaptive,37,→,right,→,0.8580042000394315,True,12,-1,0,0
Y2-S2-195K21,-,25,PS,adaptive,34,←,left,←,0.6753750001080334,True,12,1,1,1
Y2-S2-195K21,-,26,PS,adaptive,32,→,right,→,0.8157319999299943,True,11,1,0,1
Y2-S2-195K21,-,27,PS,adaptive,47,↑,up,↑,0.8858618999365717,True,11,1,0,1
Y2-S2-195K21,-,28,PS,adaptive,38,↓,down,↓,0.8077646000310779,True,11,1,0,1
Y2-S2-195K21,-,29,PS,adaptive,32,→,right,→,0.5621876001823694,True,10,1,0,1
Y2-S2-195K21,-,30,PS,adaptive,36,↓,down,↓,1.0599180001299828,True,10,1,0,1
Y2-S2-195K21,-,31,PS,adaptive,31,↑,right,→,0.8212341000325978,False,10,-1,1,2
Y2-S2-195K21,-,32,PS,adaptive,45,→,left,←,0.8703610999509692,False,11,-1,0,2
Y2-S2-195K21,-,33,PS,adaptive,30,←,left,←,1.0183678998146206,True,12,-1,0,2
Y2-S2-195K21,-,34,PS,adaptive,31,→,right,→,0.748500999994576,True,12,-1,0,2
Y2-S2-195K21,-,35,PS,adaptive,43,←,left,←,0.6959515998605639,True,12,1,1,3
Y2-S2-195K21,-,36,PS,adaptive,31,↓,down,↓,0.7948904000222683,True,11,1,0,3
Y2-S2-195K21,-,37,PS,adaptive,45,←,left,←,0.7531201001256704,True,11,1,0,3
Y2-S2-195K21,-,38,PS,adaptive,36,↑,up,↑,0.6741722000297159,True,11,1,0,3
Y2-S2-195K21,-,39,PS,adaptive,31,↓,down,↓,0.7513611998874694,True,10,1,0,3
Y2-S2-195K21,-,40,PS,adaptive,29,→,right,→,0.5716586001217365,True,10,1,0,3
Y2-S2-195K21,-,41,PS,adaptive,33,↑,up,↑,0.6483010000083596,True,10,1,0,3
Y2-S2-195K21,-,42,PS,adaptive,47,→,right,→,0.6541454000398517,True,9,1,0,3
Y2-S2-195K21,-,43,PS,adaptive,49,←,left,←,0.5844912999309599,True,9,1,0,3
Y2-S2-195K21,-,44,PS,adaptive,45,↑,up,↑,0.7387876999564469,True,9,1,0,3
Y2-S2-195K21,-,45,PS,adaptive,48,↓,down,↓,0.6839401999022812,True,8,1,0,3
Y2-S2-195K21,-,46,PS,adaptive,36,→,left,←,0.8173128000926226,False,8,-1,1,4
Y2-S2-195K21,-,47,AS,adaptive,34,↓,down,↓,0.7865381001029164,True,20,0,0,0
Y2-S2-195K21,-,48,AS,adaptive,36,←,left,←,0.7039837001357228,True,20,0,0,0
Y2-S2-195K21,-,49,AS,adaptive,48,→,right,→,0.7980615999549627,True,20,1,0,0
Y2-S2-195K21,-,50,AS,adaptive,26,↑,up,↑,0.6836625998839736,True,19,1,0,0
Y2-S2-195K21,-,51,AS,adaptive,33,←,left,←,0.6557920000050217,True,19,1,0,0
Y2-S2-195K21,-,52,AS,adaptive,29,↑,up,↑,0.7009378999937326,True,19,1,0,0
Y2-S2-195K21,-,53,AS,adaptive,25,→,right,→,0.8366704999934882,True,18,1,0,0
Y2-S2-195K21,-,54,AS,adaptive,45,←,left,←,0.7199510999489576,True,18,1,0,0
Y2-S2-195K21,-,55,AS,adaptive,38,↑,up,↑,0.7328863998409361,True,18,1,0,0
Y2-S2-195K21,-,56,AS,adaptive,32,↓,down,↓,0.8102796000894159,True,17,1,0,0
Y2-S2-195K21,-,57,AS,adaptive,28,↑,up,↑,0.5945490999147296,True,17,1,0,0
Y2-S2-195K21,-,58,AS,adaptive,39,→,left,←,0.9383533999789506,False,17,-1,1,1
Y2-S2-195K21,-,59,AS,adaptive,49,←,left,←,0.7926596000324935,True,18,-1,0,1
Y2-S2-195K21,-,60,AS,adaptive,46,↓,down,↓,0.972522099968046,True,18,-1,0,1
Y2-S2-195K21,-,61,AS,adaptive,32,←,left,←,0.714589900104329,True,18,1,1,2
Y2-S2-195K21,-,62,AS,adaptive,42,↑,up,↑,0.8976708999834955,True,17,1,0,2
Y2-S2-195K21,-,63,AS,adaptive,50,↓,down,↓,1.708068799925968,True,17,1,0,2
Y2-S2-195K21,-,64,AS,adaptive,25,←,left,←,0.7785989998374134,True,17,1,0,2
Y2-S2-195K21,-,65,AS,adaptive,41,↑,up,↑,0.7197974000591785,True,16,1,0,2
Y2-S2-195K21,-,66,AS,adaptive,33,←,left,←,0.798747300170362,True,16,1,0,2
Y2-S2-195K21,-,67,AS,adaptive,43,→,right,→,0.7851301999762654,True,16,1,0,2
Y2-S2-195K21,-,68,AS,adaptive,26,↓,down,↓,0.8416692998725921,True,15,1,0,2
Y2-S2-195K21,-,69,AS,adaptive,43,→,left,←,1.1320964000187814,False,15,-1,1,3
Y2-S2-195K21,-,70,AS,adaptive,35,↑,up,↑,0.8031234000809491,True,16,-1,0,3
Y2-S2-195K21,-,71,AS,adaptive,41,→,right,→,0.751116800121963,True,16,-1,0,3
Y2-S2-195K21,-,72,AS,adaptive,40,↑,up,↑,0.657465600175783,True,16,1,1,4
Y2-S2-195K21,1,73,PS,intra_train,36,←,left,←,0.7244080000091344,True,13,-,-,-
Y2-S2-195K21,1,74,PS,intra_train,41,↓,down,↓,0.8127133999951184,True,13,-,-,-
Y2-S2-195K21,1,75,PS,intra_train,33,←,left,←,0.6748986998572946,True,13,-,-,-
Y2-S2-195K21,1,76,PS,intra_train,48,↑,up,↑,0.6750860998872668,True,13,-,-,-
Y2-S2-195K21,1,77,PS,intra_train,38,↓,down,↓,0.7366863000206649,True,13,-,-,-
Y2-S2-195K21,1,78,PS,exp,41,↑,up,↑,0.677115999860689,True,9,0,0,0
Y2-S2-195K21,1,79,PS,exp,32,→,right,→,0.5665146999526769,True,9,0,0,0
Y2-S2-195K21,1,80,PS,exp,33,←,left,←,0.7688551000319421,True,9,1,0,0
Y2-S2-195K21,1,81,PS,exp,40,↑,left,←,0.8943768998142332,False,8,-1,1,1
Y2-S2-195K21,1,82,PS,exp,37,↓,down,↓,0.7541874998714775,True,9,-1,0,1
Y2-S2-195K21,1,83,PS,exp,50,↑,up,↑,0.6501311999745667,True,9,-1,0,1
Y2-S2-195K21,1,84,PS,exp,36,↓,down,↓,0.627707100007683,True,9,1,1,2
Y2-S2-195K21,1,85,PS,exp,45,→,right,→,0.7077905999030918,True,8,1,0,2
Y2-S2-195K21,1,86,PS,exp,25,↑,up,↑,0.6291920999065042,True,8,1,0,2
Y2-S2-195K21,1,87,PS,exp,29,→,right,→,0.7858368000015616,True,8,1,0,2
Y2-S2-195K21,1,88,PS,exp,41,↑,up,↑,1.181287500075996,True,7,1,0,2
Y2-S2-195K21,1,89,PS,exp,27,←,left,←,0.7474978000391275,True,7,1,0,2
Y2-S2-195K21,1,90,PS,exp,49,→,right,→,0.5940004999283701,True,7,1,0,2
Y2-S2-195K21,1,91,PS,exp,32,←,right,→,1.1386791002005339,False,6,-1,1,3
Y2-S2-195K21,1,92,PS,exp,50,↑,left,←,1.0966983998659998,False,7,-1,0,3
Y2-S2-195K21,1,93,PS,exp,45,↓,down,↓,0.7731137000955641,True,8,-1,0,3
Y2-S2-195K21,1,94,PS,exp,32,←,right,→,0.9781090000178665,False,8,-1,0,3
Y2-S2-195K21,1,95,PS,exp,25,↓,left,←,1.3139514001086354,False,9,-1,0,3
Y2-S2-195K21,1,96,PS,exp,37,↑,up,↑,0.741706500062719,True,10,-1,0,3
Y2-S2-195K21,1,97,PS,exp,46,←,left,←,0.7662741998210549,True,10,-1,0,3
Y2-S2-195K21,1,98,PS,exp,47,→,left,←,0.8523536999709904,False,10,-1,0,3
Y2-S2-195K21,1,99,PS,exp,26,↓,left,←,0.950720300199464,False,11,-1,0,3
Y2-S2-195K21,1,100,PS,exp,26,→,left,←,1.5809911000542343,False,12,-1,0,3
Y2-S2-195K21,1,101,PS,exp,30,↑,up,↑,0.7758111997973174,True,13,-1,0,3
Y2-S2-195K21,1,102,PS,exp,45,↓,down,↓,0.8505806000903249,True,13,-1,0,3
Y2-S2-195K21,1,103,PS,exp,39,↑,up,↑,0.8162750999908894,True,13,1,1,4
Y2-S2-195K21,1,104,PS,exp,44,→,right,→,0.8614262999035418,True,12,1,0,4
Y2-S2-195K21,1,105,PS,exp,44,↓,down,↓,0.8705372998956591,True,12,1,0,4
Y2-S2-195K21,1,106,PS,exp,38,←,left,←,0.8759873998351395,True,12,1,0,4
Y2-S2-195K21,1,107,PS,exp,50,→,right,→,0.8326499001123011,True,11,1,0,4
Y2-S2-195K21,1,108,PS,exp,29,↑,up,↑,0.9041508999653161,True,11,1,0,4
Y2-S2-195K21,1,109,PS,exp,32,→,right,→,0.8549864999949932,True,11,1,0,4
Y2-S2-195K21,1,110,PS,exp,29,←,no_key,no_letter,-1.0,False,10,-1,1,5
Y2-S2-195K21,1,111,PS,exp,49,→,left,←,0.7088864999823272,False,11,-1,0,5
Y2-S2-195K21,1,112,PS,exp,30,↑,up,↑,0.9233592001255602,True,12,-1,0,5
Y2-S2-195K21,1,113,PS,exp,32,←,left,←,0.8049473999999464,True,12,-1,0,5
Y2-S2-195K21,1,114,PS,exp,46,→,right,→,0.6836323000025004,True,12,1,1,6
Y2-S2-195K21,1,115,PS,exp,50,↑,up,↑,0.6209684000350535,True,11,1,0,6
Y2-S2-195K21,1,116,PS,exp,50,←,left,←,0.5756220000330359,True,11,1,0,6
Y2-S2-195K21,1,117,PS,exp,28,→,right,→,0.6620252998545766,True,11,1,0,6
Y2-S2-195K21,1,118,PS,exp,37,↑,up,↑,0.6389631999190897,True,10,1,0,6
Y2-S2-195K21,1,119,PS,exp,35,↓,down,↓,0.7206564999651164,True,10,1,0,6
Y2-S2-195K21,1,120,PS,exp,43,↑,up,↑,0.7435802998952568,True,10,1,0,6
Y2-S2-195K21,1,121,PS,exp,50,←,left,←,0.5975156000349671,True,9,1,0,6
Y2-S2-195K21,1,122,PS,exp,35,↑,up,↑,0.5551376000512391,True,9,1,0,6
Y2-S2-195K21,1,123,PS,exp,30,→,right,→,0.5744147999212146,True,9,1,0,6
Y2-S2-195K21,1,124,PS,exp,46,↓,down,↓,0.7646133999805897,True,8,1,0,6
Y2-S2-195K21,1,125,PS,exp,35,→,right,→,0.8294166000559926,True,8,1,0,6
Y2-S2-195K21,1,126,PS,exp,36,↑,down,↓,1.3025328000076115,False,8,-1,1,7
Y2-S2-195K21,1,127,PS,exp,34,→,right,→,0.6287659998051822,True,9,-1,0,7
Y2-S2-195K21,1,128,PS,exp,47,←,left,←,0.6730520999990404,True,9,-1,0,7
Y2-S2-195K21,1,129,PS,exp,27,↓,down,↓,0.8054035999812186,True,9,1,1,8
Y2-S2-195K21,1,130,PS,exp,27,→,right,→,1.064681800082326,True,8,1,0,8
Y2-S2-195K21,1,131,PS,exp,30,↑,left,←,0.860718599986285,False,8,-1,1,9
Y2-S2-195K21,1,132,PS,exp,43,←,left,←,0.6871917000971735,True,9,-1,0,9
Y2-S2-195K21,1,133,PS,exp,49,↑,up,↑,0.9423872998449951,True,9,-1,0,9
Y2-S2-195K21,1,134,PS,exp,29,←,left,←,1.302131500095129,True,9,1,1,10
Y2-S2-195K21,1,135,PS,exp,36,→,right,→,0.6475653999950737,True,8,1,0,10
Y2-S2-195K21,1,136,PS,exp,35,←,left,←,0.7340088000055403,True,8,1,0,10
Y2-S2-195K21,1,137,PS,exp,31,↑,up,↑,0.7410917000379413,True,8,1,0,10
Y2-S2-195K21,1,138,PS,exp,50,↓,right,→,1.0076904001180083,False,7,-1,1,11
Y2-S2-195K21,1,139,PS,exp,48,←,left,←,0.5826809999998659,True,8,-1,0,11
Y2-S2-195K21,1,140,PS,exp,32,↑,up,↑,0.7551343999803066,True,8,-1,0,11
Y2-S2-195K21,1,141,PS,exp,27,→,right,→,1.0056021998170763,True,8,1,1,12
Y2-S2-195K21,1,142,PS,exp,31,↓,down,↓,0.7757488000206649,True,7,1,0,12
Y2-S2-195K21,1,143,PS,exp,46,←,left,←,0.9108080000150949,True,7,1,0,12
Y2-S2-195K21,1,144,PS,exp,49,↓,down,↓,1.5578922000713646,True,7,1,0,12
Y2-S2-195K21,1,145,PS,exp,31,↑,left,←,0.9116194001398981,False,6,-1,1,13
Y2-S2-195K21,1,146,PS,exp,44,←,right,→,1.7564161999616772,False,7,-1,0,13
Y2-S2-195K21,1,147,PS,exp,29,↑,left,←,0.8872721998486668,False,8,-1,0,13
Y2-S2-195K21,1,148,PS,exp,34,↓,left,←,0.8513455998618156,False,9,-1,0,13
Y2-S2-195K21,1,149,PS,exp,29,↑,right,→,0.7365643999073654,False,10,-1,0,13
Y2-S2-195K21,1,150,PS,exp,30,←,left,←,0.8512717999983579,True,11,-1,0,13
Y2-S2-195K21,1,151,PS,exp,46,↑,up,↑,1.4081800000276417,True,11,-1,0,13
Y2-S2-195K21,1,152,PS,exp,34,←,left,←,0.8715997999534011,True,11,1,1,14
Y2-S2-195K21,1,153,PS,exp,29,↑,up,↑,1.1872689998708665,True,10,1,0,14
Y2-S2-195K21,1,154,PS,exp,26,→,right,→,0.877062699990347,True,10,1,0,14
Y2-S2-195K21,1,155,PS,exp,25,↑,up,↑,0.8890460000839084,True,10,1,0,14
Y2-S2-195K21,1,156,PS,exp,40,←,left,←,0.8972015001345426,True,9,1,0,14
Y2-S2-195K21,1,157,PS,exp,35,↓,down,↓,0.7521827998571098,True,9,1,0,14
Y2-S2-195K21,1,158,PS,exp,49,↑,left,←,1.2242860000114888,False,9,-1,1,15
Y2-S2-195K21,1,159,PS,exp,26,↓,down,↓,0.9147628999780864,True,10,-1,0,15
Y2-S2-195K21,1,160,PS,exp,30,→,right,→,1.0164359998889267,True,10,-1,0,15
Y2-S2-195K21,1,161,PS,exp,49,↓,down,↓,1.0131874000653625,True,10,1,1,16
Y2-S2-195K21,2,162,AS,intra_train,37,↑,up,↑,0.7685082999523729,True,22,-,-,-
Y2-S2-195K21,2,163,AS,intra_train,35,→,right,→,0.7833593999966979,True,22,-,-,-
Y2-S2-195K21,2,164,AS,intra_train,49,↓,down,↓,0.8641619998961687,True,22,-,-,-
Y2-S2-195K21,2,165,AS,intra_train,26,→,right,→,0.8768202001228929,True,22,-,-,-
Y2-S2-195K21,2,166,AS,intra_train,29,↑,up,↑,1.0207338000182062,True,22,-,-,-
Y2-S2-195K21,2,167,AS,exp,34,→,left,←,1.028140699956566,False,15,-1,0,0
Y2-S2-195K21,2,168,AS,exp,34,↑,up,↑,1.5396433998830616,True,16,-1,0,0
Y2-S2-195K21,2,169,AS,exp,43,↓,down,↓,0.7958984000142664,True,16,-1,0,0
Y2-S2-195K21,2,170,AS,exp,30,←,left,←,1.035710700089112,True,16,1,1,1
Y2-S2-195K21,2,171,AS,exp,28,↓,down,↓,0.8550214001443237,True,15,1,0,1
Y2-S2-195K21,2,172,AS,exp,28,↑,up,↑,0.6365869999863207,True,15,1,0,1
Y2-S2-195K21,2,173,AS,exp,44,→,left,←,1.330276899971068,False,15,-1,1,2
Y2-S2-195K21,2,174,AS,exp,48,←,left,←,0.6876266000326723,True,16,-1,0,2
Y2-S2-195K21,2,175,AS,exp,28,→,left,←,1.2281612001825124,False,16,-1,0,2
Y2-S2-195K21,2,176,AS,exp,37,↓,down,↓,0.8061395999975502,True,17,-1,0,2
Y2-S2-195K21,2,177,AS,exp,33,→,right,→,0.8558813999406993,True,17,-1,0,2
Y2-S2-195K21,2,178,AS,exp,36,↓,down,↓,0.7987624001689255,True,17,1,1,3
Y2-S2-195K21,2,179,AS,exp,46,←,left,←,0.625802000053227,True,16,1,0,3
Y2-S2-195K21,2,180,AS,exp,38,→,right,→,0.6536645002197474,True,16,1,0,3
Y2-S2-195K21,2,181,AS,exp,44,↑,up,↑,0.918838000157848,True,16,1,0,3
Y2-S2-195K21,2,182,AS,exp,44,↓,down,↓,0.8100427999161184,True,15,1,0,3
Y2-S2-195K21,2,183,AS,exp,25,←,left,←,0.6204850999638438,True,15,1,0,3
Y2-S2-195K21,2,184,AS,exp,45,↓,down,↓,0.952308899955824,True,15,1,0,3
Y2-S2-195K21,2,185,AS,exp,29,↑,up,↑,0.8380013999994844,True,14,1,0,3
Y2-S2-195K21,2,186,AS,exp,25,↓,down,↓,0.8369243000634015,True,14,1,0,3
Y2-S2-195K21,2,187,AS,exp,50,→,right,→,0.7488013999536633,True,14,1,0,3
Y2-S2-195K21,2,188,AS,exp,28,←,left,←,0.8280830001458526,True,13,1,0,3
Y2-S2-195K21,2,189,AS,exp,31,→,right,→,0.8090142000000924,True,13,1,0,3
Y2-S2-195K21,2,190,AS,exp,44,↓,down,↓,0.7830008000601083,True,13,1,0,3
Y2-S2-195K21,2,191,AS,exp,40,→,left,←,0.755654500098899,False,12,-1,1,4
Y2-S2-195K21,2,192,AS,exp,49,↓,down,↓,0.867266499903053,True,13,-1,0,4
Y2-S2-195K21,2,193,AS,exp,38,→,right,→,0.7982155999634415,True,13,-1,0,4
Y2-S2-195K21,2,194,AS,exp,36,↑,up,↑,0.8024204999674112,True,13,1,1,5
Y2-S2-195K21,2,195,AS,exp,37,→,right,→,0.5923997999634594,True,12,1,0,5
Y2-S2-195K21,2,196,AS,exp,37,↓,down,↓,0.7147142000030726,True,12,1,0,5
Y2-S2-195K21,2,197,AS,exp,33,→,right,→,0.7079043001867831,True,12,1,0,5
Y2-S2-195K21,2,198,AS,exp,27,↓,down,↓,0.7364596000406891,True,11,1,0,5
Y2-S2-195K21,2,199,AS,exp,32,→,right,→,0.7753567998297513,True,11,1,0,5
Y2-S2-195K21,2,200,AS,exp,35,←,left,←,0.7496878001838923,True,11,1,0,5
Y2-S2-195K21,2,201,AS,exp,37,→,right,→,0.9204574001487345,True,10,1,0,5
Y2-S2-195K21,2,202,AS,exp,30,↓,down,↓,1.2448244001716375,True,10,1,0,5
Y2-S2-195K21,2,203,AS,exp,33,→,right,→,0.8523085000924766,True,10,1,0,5
Y2-S2-195K21,2,204,AS,exp,41,↓,down,↓,0.9919521999545395,True,9,1,0,5
Y2-S2-195K21,2,205,AS,exp,47,←,left,←,1.2484482999425381,True,9,1,0,5
Y2-S2-195K21,2,206,AS,exp,27,↓,down,↓,1.101057300111279,True,9,1,0,5
Y2-S2-195K21,2,207,AS,exp,37,↑,down,↓,1.0346245002001524,False,8,-1,1,6
Y2-S2-195K21,2,208,AS,exp,26,→,left,←,0.8358454999979585,False,9,-1,0,6
Y2-S2-195K21,2,209,AS,exp,40,↓,down,↓,0.9669577998574823,True,10,-1,0,6
Y2-S2-195K21,2,210,AS,exp,36,←,right,→,1.2666268001776189,False,10,-1,0,6
Y2-S2-195K21,2,211,AS,exp,35,→,right,→,0.9750195001251996,True,11,-1,0,6
Y2-S2-195K21,2,212,AS,exp,25,↓,down,↓,0.8310026999097317,True,11,-1,0,6
Y2-S2-195K21,2,213,AS,exp,38,→,right,→,0.7197945001535118,True,11,1,1,7
Y2-S2-195K21,2,214,AS,exp,40,↓,down,↓,1.2513003998901695,True,10,1,0,7
Y2-S2-195K21,2,215,AS,exp,27,↑,down,↓,0.9017390999943018,False,10,-1,1,8
Y2-S2-195K21,2,216,AS,exp,26,↓,down,↓,0.7115340998861939,True,11,-1,0,8
Y2-S2-195K21,2,217,AS,exp,34,↑,no_key,no_letter,-1.0,False,11,-1,0,8
Y2-S2-195K21,2,218,AS,exp,37,→,right,→,0.7826874000020325,True,12,-1,0,8
Y2-S2-195K21,2,219,AS,exp,42,↑,up,↑,0.9250076999887824,True,12,-1,0,8
Y2-S2-195K21,2,220,AS,exp,45,←,left,←,0.6556708000134677,True,12,1,1,9
Y2-S2-195K21,2,221,AS,exp,47,↑,down,↓,1.5744335998315364,False,11,-1,1,10
Y2-S2-195K21,2,222,AS,exp,27,↓,up,↑,0.8774421999696642,False,12,-1,0,10
Y2-S2-195K21,2,223,AS,exp,29,←,left,←,0.8027830999344587,True,13,-1,0,10
Y2-S2-195K21,2,224,AS,exp,35,↑,up,↑,0.7797991998959333,True,13,-1,0,10
Y2-S2-195K21,2,225,AS,exp,43,←,left,←,0.711646500043571,True,13,1,1,11
Y2-S2-195K21,2,226,AS,exp,35,↓,down,↓,0.8236381001770496,True,12,1,0,11
Y2-S2-195K21,2,227,AS,exp,45,→,right,→,0.7567201999481767,True,12,1,0,11
Y2-S2-195K21,2,228,AS,exp,38,↓,down,↓,1.0517224001232535,True,12,1,0,11
Y2-S2-195K21,2,229,AS,exp,31,↑,up,↑,0.673160000005737,True,11,1,0,11
Y2-S2-195K21,2,230,AS,exp,48,←,left,←,0.5939685001503676,True,11,1,0,11
Y2-S2-195K21,2,231,AS,exp,30,↓,up,↑,0.88978479988873,False,11,-1,1,12
Y2-S2-195K21,2,232,AS,exp,40,→,right,→,0.8704266999848187,True,12,-1,0,12
Y2-S2-195K21,2,233,AS,exp,29,←,left,←,1.099128299858421,True,12,-1,0,12
Y2-S2-195K21,2,234,AS,exp,34,→,left,←,1.0960446998942643,False,12,-1,0,12
Y2-S2-195K21,2,235,AS,exp,26,←,left,←,0.9199066001456231,True,13,-1,0,12
Y2-S2-195K21,2,236,AS,exp,47,↓,down,↓,1.382373800035566,True,13,-1,0,12
Y2-S2-195K21,2,237,AS,exp,38,←,left,←,0.8411562000401318,True,13,1,1,13
Y2-S2-195K21,2,238,AS,exp,28,↓,down,↓,1.1495310000609607,True,12,1,0,13
Y2-S2-195K21,2,239,AS,exp,33,↑,left,←,1.609773200005293,False,12,-1,1,14
Y2-S2-195K21,2,240,AS,exp,41,←,left,←,0.714183900039643,True,13,-1,0,14
Y2-S2-195K21,2,241,AS,exp,49,→,right,→,1.158804199891165,True,13,-1,0,14
Y2-S2-195K21,2,242,AS,exp,28,←,left,←,0.8515896000899374,True,13,1,1,15
Y2-S2-195K21,2,243,AS,exp,29,↓,down,↓,0.9975501000881195,True,12,1,0,15
Y2-S2-195K21,2,244,AS,exp,41,←,left,←,0.7978167999535799,True,12,1,0,15
Y2-S2-195K21,2,245,AS,exp,31,↑,up,↑,0.885238700080663,True,12,1,0,15
Y2-S2-195K21,2,246,AS,exp,50,→,left,←,1.2403138000518084,False,11,-1,1,16
Y2-S2-195K21,3,247,AS,intra_train,48,↓,down,↓,0.9156694000121206,True,22,-,-,-
Y2-S2-195K21,3,248,AS,intra_train,44,→,right,→,0.8925469999667257,True,22,-,-,-
Y2-S2-195K21,3,249,AS,intra_train,45,↓,down,↓,1.0311131998896599,True,22,-,-,-
Y2-S2-195K21,3,250,AS,intra_train,26,←,left,←,0.8383967999834567,True,22,-,-,-
Y2-S2-195K21,3,251,AS,intra_train,31,↑,up,↑,0.8968760999850929,True,22,-,-,-
Y2-S2-195K21,3,252,AS,exp,48,←,left,←,0.821601799922064,True,15,0,0,0
Y2-S2-195K21,3,253,AS,exp,43,↓,down,↓,0.9034246001392603,True,15,0,0,0
Y2-S2-195K21,3,254,AS,exp,44,↑,up,↑,0.7229909999296069,True,15,1,0,0
Y2-S2-195K21,3,255,AS,exp,25,←,left,←,0.8124772999435663,True,14,1,0,0
Y2-S2-195K21,3,256,AS,exp,36,→,right,→,0.7639754000119865,True,14,1,0,0
Y2-S2-195K21,3,257,AS,exp,27,↓,down,↓,0.7453551001381129,True,14,1,0,0
Y2-S2-195K21,3,258,AS,exp,28,→,right,→,0.6388140001799911,True,13,1,0,0
Y2-S2-195K21,3,259,AS,exp,35,↑,up,↑,0.9448316001798958,True,13,1,0,0
Y2-S2-195K21,3,260,AS,exp,48,↓,up,↑,1.1377963998820633,False,13,-1,1,1
Y2-S2-195K21,3,261,AS,exp,49,→,right,→,0.724421399878338,True,14,-1,0,1
Y2-S2-195K21,3,262,AS,exp,34,↑,up,↑,0.7659756999928504,True,14,-1,0,1
Y2-S2-195K21,3,263,AS,exp,50,→,right,→,0.7872999999672174,True,14,1,1,2
Y2-S2-195K21,3,264,AS,exp,28,↑,up,↑,0.9585017000790685,True,13,1,0,2
Y2-S2-195K21,3,265,AS,exp,29,←,left,←,0.756002499954775,True,13,1,0,2
Y2-S2-195K21,3,266,AS,exp,29,→,right,→,0.678948599845171,True,13,1,0,2
Y2-S2-195K21,3,267,AS,exp,35,←,left,←,1.1670134998857975,True,12,1,0,2
Y2-S2-195K21,3,268,AS,exp,46,↑,up,↑,0.7941519999876618,True,12,1,0,2
Y2-S2-195K21,3,269,AS,exp,47,←,right,→,0.7561094001866877,False,12,-1,1,3
Y2-S2-195K21,3,270,AS,exp,35,→,right,→,0.7626251999754459,True,13,-1,0,3
Y2-S2-195K21,3,271,AS,exp,25,←,left,←,0.7332230999600142,True,13,-1,0,3
Y2-S2-195K21,3,272,AS,exp,48,→,right,→,0.7605145000852644,True,13,1,1,4
Y2-S2-195K21,3,273,AS,exp,40,↑,up,↑,0.7328114002011716,True,12,1,0,4
Y2-S2-195K21,3,274,AS,exp,31,↓,down,↓,0.8824700999539346,True,12,1,0,4
Y2-S2-195K21,3,275,AS,exp,33,→,right,→,0.6310012000612915,True,12,1,0,4
Y2-S2-195K21,3,276,AS,exp,44,↑,up,↑,0.6700480999425054,True,11,1,0,4
Y2-S2-195K21,3,277,AS,exp,35,↓,down,↓,0.7731339000165462,True,11,1,0,4
Y2-S2-195K21,3,278,AS,exp,35,↑,up,↑,1.0469161998480558,True,11,1,0,4
Y2-S2-195K21,3,279,AS,exp,48,→,right,→,1.0006390998605639,True,10,1,0,4
Y2-S2-195K21,3,280,AS,exp,41,↓,down,↓,0.7710142000578344,True,10,1,0,4
Y2-S2-195K21,3,281,AS,exp,47,←,right,→,0.7138110999949276,False,10,-1,1,5
Y2-S2-195K21,3,282,AS,exp,44,↓,down,↓,0.822308300063014,True,11,-1,0,5
Y2-S2-195K21,3,283,AS,exp,48,→,right,→,0.7383721000514925,True,11,-1,0,5
Y2-S2-195K21,3,284,AS,exp,37,↓,down,↓,0.7358548999764025,True,11,1,1,6
Y2-S2-195K21,3,285,AS,exp,42,↑,up,↑,1.484993000049144,True,10,1,0,6
Y2-S2-195K21,3,286,AS,exp,28,→,right,→,0.6627122999634594,True,10,1,0,6
Y2-S2-195K21,3,287,AS,exp,31,←,left,←,0.8525576000101864,True,10,1,0,6
Y2-S2-195K21,3,288,AS,exp,34,↑,down,↓,1.1625908000860363,False,9,-1,1,7
Y2-S2-195K21,3,289,AS,exp,48,←,left,←,1.245601600036025,True,10,-1,0,7
Y2-S2-195K21,3,290,AS,exp,37,→,right,→,0.6979805999435484,True,10,-1,0,7
Y2-S2-195K21,3,291,AS,exp,44,↓,down,↓,0.769507999997586,True,10,1,1,8
Y2-S2-195K21,3,292,AS,exp,33,↑,down,↓,0.9107100998517126,False,9,-1,1,9
Y2-S2-195K21,3,293,AS,exp,26,↓,down,↓,0.6787560998927802,True,10,-1,0,9
Y2-S2-195K21,3,294,AS,exp,46,←,left,←,1.08597829984501,True,10,-1,0,9
Y2-S2-195K21,3,295,AS,exp,45,→,left,←,0.7769031999632716,False,10,-1,0,9
Y2-S2-195K21,3,296,AS,exp,28,←,left,←,0.7336328001692891,True,11,-1,0,9
Y2-S2-195K21,3,297,AS,exp,50,↑,down,↓,0.7501751000527292,False,11,-1,0,9
Y2-S2-195K21,3,298,AS,exp,46,↓,down,↓,1.4794769999571145,True,12,-1,0,9
Y2-S2-195K21,3,299,AS,exp,49,↑,up,↑,0.7899741001892835,True,12,-1,0,9
Y2-S2-195K21,3,300,AS,exp,26,↓,down,↓,0.7221752000041306,True,12,1,1,10
Y2-S2-195K21,3,301,AS,exp,32,←,left,←,0.8197987000457942,True,11,1,0,10
Y2-S2-195K21,3,302,AS,exp,27,↑,down,↓,0.8067712001502514,False,11,-1,1,11
Y2-S2-195K21,3,303,AS,exp,25,→,left,←,1.0352229001000524,False,12,-1,0,11
Y2-S2-195K21,3,304,AS,exp,27,↑,up,↑,0.7567251001019031,True,13,-1,0,11
Y2-S2-195K21,3,305,AS,exp,41,←,left,←,0.923487100051716,True,13,-1,0,11
Y2-S2-195K21,3,306,AS,exp,50,↑,up,↑,0.90096680005081,True,13,1,1,12
Y2-S2-195K21,3,307,AS,exp,48,→,right,→,0.751642300048843,True,12,1,0,12
Y2-S2-195K21,3,308,AS,exp,49,↑,up,↑,1.3419011998921633,True,12,1,0,12
Y2-S2-195K21,3,309,AS,exp,28,→,left,←,1.023847799981013,False,12,-1,1,13
Y2-S2-195K21,3,310,AS,exp,49,←,left,←,0.7087278000544757,True,13,-1,0,13
Y2-S2-195K21,3,311,AS,exp,45,↓,up,↑,0.8122096001170576,False,13,-1,0,13
Y2-S2-195K21,3,312,AS,exp,38,←,up,↑,1.2067406999412924,False,14,-1,0,13
Y2-S2-195K21,3,313,AS,exp,42,↓,down,↓,0.9049136999528855,True,15,-1,0,13
Y2-S2-195K21,3,314,AS,exp,25,←,left,←,0.8103451998904347,True,15,-1,0,13
Y2-S2-195K21,3,315,AS,exp,49,↑,up,↑,0.7845703999046236,True,15,1,1,14
Y2-S2-195K21,3,316,AS,exp,40,←,left,←,0.6654439999256283,True,14,1,0,14
Y2-S2-195K21,3,317,AS,exp,30,↑,up,↑,0.6996389001142234,True,14,1,0,14
Y2-S2-195K21,3,318,AS,exp,35,→,up,↑,1.1941938998643309,False,14,-1,1,15
Y2-S2-195K21,3,319,AS,exp,26,↓,up,↑,1.3768883000593632,False,15,-1,0,15
Y2-S2-195K21,3,320,AS,exp,31,↑,down,↓,1.3389933998696506,False,16,-1,0,15
Y2-S2-195K21,3,321,AS,exp,29,←,left,←,0.7728228999767452,True,17,-1,0,15
Y2-S2-195K21,3,322,AS,exp,40,↑,up,↑,0.9588482999242842,True,17,-1,0,15
Y2-S2-195K21,3,323,AS,exp,37,←,left,←,0.8099213000386953,True,17,1,1,16
Y2-S2-195K21,4,324,PS,intra_train,31,→,right,→,0.8253590001258999,True,13,-,-,-
Y2-S2-195K21,4,325,PS,intra_train,43,↑,up,↑,0.7435912000946701,True,13,-,-,-
Y2-S2-195K21,4,326,PS,intra_train,39,↓,down,↓,0.9275388000532985,True,13,-,-,-
Y2-S2-195K21,4,327,PS,intra_train,48,→,right,→,0.6729063000530005,True,13,-,-,-
Y2-S2-195K21,4,328,PS,intra_train,39,↓,down,↓,0.8331748999189585,True,13,-,-,-
Y2-S2-195K21,4,329,PS,exp,31,↑,left,←,0.941938899923116,False,9,-1,0,0
Y2-S2-195K21,4,330,PS,exp,30,↓,down,↓,0.7517035000491887,True,10,-1,0,0
Y2-S2-195K21,4,331,PS,exp,26,→,right,→,0.710238300031051,True,10,-1,0,0
Y2-S2-195K21,4,332,PS,exp,46,↓,down,↓,0.7233840001281351,True,10,1,1,1
Y2-S2-195K21,4,333,PS,exp,49,←,left,←,0.5739941999781877,True,9,1,0,1
Y2-S2-195K21,4,334,PS,exp,34,↑,left,←,1.1960130000952631,False,9,-1,1,2
Y2-S2-195K21,4,335,PS,exp,25,←,left,←,1.3440485999453813,True,10,-1,0,2
Y2-S2-195K21,4,336,PS,exp,36,→,right,→,0.8994915999937803,True,10,-1,0,2
Y2-S2-195K21,4,337,PS,exp,45,←,right,→,1.7793868000153452,False,10,-1,0,2
Y2-S2-195K21,4,338,PS,exp,49,↓,down,↓,0.8627075999975204,True,11,-1,0,2
Y2-S2-195K21,4,339,PS,exp,46,←,left,←,0.6632062999997288,True,11,-1,0,2
Y2-S2-195K21,4,340,PS,exp,34,→,right,→,0.7075573999900371,True,11,1,1,3
Y2-S2-195K21,4,341,PS,exp,39,←,left,←,0.6298579000867903,True,10,1,0,3
Y2-S2-195K21,4,342,PS,exp,37,↑,left,←,0.791283099912107,False,10,-1,1,4
Y2-S2-195K21,4,343,PS,exp,36,←,left,←,0.7670452001038939,True,11,-1,0,4
Y2-S2-195K21,4,344,PS,exp,30,↑,up,↑,0.7985362000763416,True,11,-1,0,4
Y2-S2-195K21,4,345,PS,exp,45,↓,down,↓,0.8668211998883635,True,11,1,1,5
Y2-S2-195K21,4,346,PS,exp,43,→,right,→,0.6753904998768121,True,10,1,0,5
Y2-S2-195K21,4,347,PS,exp,44,↑,left,←,0.7176568999420851,False,10,-1,1,6
Y2-S2-195K21,4,348,PS,exp,31,→,right,→,0.7666821000166237,True,11,-1,0,6
Y2-S2-195K21,4,349,PS,exp,44,←,left,←,0.6962800000328571,True,11,-1,0,6
Y2-S2-195K21,4,350,PS,exp,45,→,right,→,0.71767139993608,True,11,1,1,7
Y2-S2-195K21,4,351,PS,exp,45,↓,down,↓,1.1232346999458969,True,10,1,0,7
Y2-S2-195K21,4,352,PS,exp,43,→,right,→,0.7605385000351816,True,10,1,0,7
Y2-S2-195K21,4,353,PS,exp,29,↑,left,←,0.7767405998893082,False,10,-1,1,8
Y2-S2-195K21,4,354,PS,exp,41,↓,down,↓,0.7745781000703573,True,11,-1,0,8
Y2-S2-195K21,4,355,PS,exp,25,↑,up,↑,0.7167786001227796,True,11,-1,0,8
Y2-S2-195K21,4,356,PS,exp,36,→,right,→,0.6131049999967217,True,11,1,1,9
Y2-S2-195K21,4,357,PS,exp,49,↓,down,↓,0.7904080001171678,True,10,1,0,9
Y2-S2-195K21,4,358,PS,exp,42,←,left,←,1.0970892999321222,True,10,1,0,9
Y2-S2-195K21,4,359,PS,exp,31,→,right,→,0.6469946000725031,True,10,1,0,9
Y2-S2-195K21,4,360,PS,exp,33,↓,down,↓,0.8754934999160469,True,9,1,0,9
Y2-S2-195K21,4,361,PS,exp,29,←,left,←,0.6170693000312895,True,9,1,0,9
Y2-S2-195K21,4,362,PS,exp,47,→,left,←,0.635115000186488,False,9,-1,1,10
Y2-S2-195K21,4,363,PS,exp,50,←,left,←,0.6303381999023259,True,10,-1,0,10
Y2-S2-195K21,4,364,PS,exp,30,↓,right,→,0.7961190000642091,False,10,-1,0,10
Y2-S2-195K21,4,365,PS,exp,29,←,left,←,0.4906820999458432,True,11,-1,0,10
Y2-S2-195K21,4,366,PS,exp,32,↓,left,←,0.7704583001323044,False,11,-1,0,10
Y2-S2-195K21,4,367,PS,exp,46,←,left,←,0.5531459997873753,True,12,-1,0,10
Y2-S2-195K21,4,368,PS,exp,47,↓,down,↓,0.7849079000297934,True,12,-1,0,10
Y2-S2-195K21,4,369,PS,exp,48,→,right,→,0.7807700000703335,True,12,1,1,11
Y2-S2-195K21,4,370,PS,exp,31,↓,down,↓,0.7455531000159681,True,11,1,0,11
Y2-S2-195K21,4,371,PS,exp,42,↑,left,←,0.6397273999173194,False,11,-1,1,12
Y2-S2-195K21,4,372,PS,exp,35,←,right,→,1.2940374999307096,False,12,-1,0,12
Y2-S2-195K21,4,373,PS,exp,47,→,right,→,0.89800909999758,True,13,-1,0,12
Y2-S2-195K21,4,374,PS,exp,40,↑,up,↑,1.2575119999237359,True,13,-1,0,12
Y2-S2-195K21,4,375,PS,exp,42,→,right,→,0.6707425001077354,True,13,1,1,13
Y2-S2-195K21,4,376,PS,exp,37,↓,down,↓,1.2212278000079095,True,12,1,0,13
Y2-S2-195K21,4,377,PS,exp,50,→,right,→,1.056083200033754,True,12,1,0,13
Y2-S2-195K21,4,378,PS,exp,29,↓,down,↓,0.7238478998187929,True,12,1,0,13
Y2-S2-195K21,4,379,PS,exp,28,→,right,→,0.6973278999794275,True,11,1,0,13
Y2-S2-195K21,4,380,PS,exp,47,←,left,←,0.7946552999783307,True,11,1,0,13
Y2-S2-195K21,4,381,PS,exp,31,↑,up,↑,1.0423620999790728,True,11,1,0,13
Y2-S2-195K21,4,382,PS,exp,42,←,left,←,1.0122843999415636,True,10,1,0,13
Y2-S2-195K21,4,383,PS,exp,48,→,right,→,0.5802217999007553,True,10,1,0,13
Y2-S2-195K21,4,384,PS,exp,35,←,left,←,0.5707745000254363,True,10,1,0,13
Y2-S2-195K21,4,385,PS,exp,34,→,right,→,0.6851412001997232,True,9,1,0,13
Y2-S2-195K21,4,386,PS,exp,40,↓,left,←,0.7673714999109507,False,9,-1,1,14
Y2-S2-195K21,4,387,PS,exp,30,↑,left,←,0.7489468001294881,False,10,-1,0,14
Y2-S2-195K21,4,388,PS,exp,45,↓,down,↓,0.708869099849835,True,11,-1,0,14
Y2-S2-195K21,4,389,PS,exp,45,←,left,←,0.7087504998780787,True,11,-1,0,14
Y2-S2-195K21,4,390,PS,exp,25,→,left,←,0.8379850001074374,False,11,-1,0,14
Y2-S2-195K21,4,391,PS,exp,49,↓,down,↓,0.7650523998308927,True,12,-1,0,14
Y2-S2-195K21,4,392,PS,exp,46,←,left,←,0.881850800011307,True,12,-1,0,14
Y2-S2-195K21,4,393,PS,exp,46,↓,down,↓,0.7088738000020385,True,12,1,1,15
Y2-S2-195K21,4,394,PS,exp,49,→,right,→,0.7385223999153823,True,11,1,0,15
Y2-S2-195K21,4,395,PS,exp,30,←,left,←,0.567918699933216,True,11,1,0,15
Y2-S2-195K21,4,396,PS,exp,42,→,right,→,0.701740900054574,True,11,1,0,15
Y2-S2-195K21,4,397,PS,exp,30,↓,down,↓,0.7011772999539971,True,10,1,0,15
Y2-S2-195K21,4,398,PS,exp,39,→,right,→,1.0163777999114245,True,10,1,0,15
Y2-S2-195K21,4,399,PS,exp,39,↓,down,↓,0.6943094001617283,True,10,1,0,15
Y2-S2-195K21,4,400,PS,exp,49,→,right,→,0.630192699842155,True,9,1,0,15
Y2-S2-195K21,4,401,PS,exp,30,↓,left,←,0.8232160001061857,False,9,-1,1,16
Y2-S2-195K21,5,402,PS,intra_train,33,↑,up,↑,0.7158379000611603,True,13,-,-,-
Y2-S2-195K21,5,403,PS,intra_train,46,↓,down,↓,0.7948463000357151,True,13,-,-,-
Y2-S2-195K21,5,404,PS,intra_train,39,↑,up,↑,0.7178724999539554,True,13,-,-,-
Y2-S2-195K21,5,405,PS,intra_train,36,←,left,←,0.4989730000961572,True,13,-,-,-
Y2-S2-195K21,5,406,PS,intra_train,27,↓,down,↓,0.6294439998455346,True,13,-,-,-
Y2-S2-195K21,5,407,PS,exp,25,↑,up,↑,0.7349733000155538,True,9,0,0,0
Y2-S2-195K21,5,408,PS,exp,39,←,left,←,0.6216124999336898,True,9,0,0,0
Y2-S2-195K21,5,409,PS,exp,49,↑,up,↑,0.6187218001578003,True,9,1,0,0
Y2-S2-195K21,5,410,PS,exp,26,↓,up,↑,0.8330953998956829,False,8,-1,1,1
Y2-S2-195K21,5,411,PS,exp,32,→,right,→,0.68029970000498,True,9,-1,0,1
Y2-S2-195K21,5,412,PS,exp,44,↓,down,↓,0.6753891999833286,True,9,-1,0,1
Y2-S2-195K21,5,413,PS,exp,34,←,left,←,0.4755729001481086,True,9,1,1,2
Y2-S2-195K21,5,414,PS,exp,30,→,right,→,0.6018061998765916,True,8,1,0,2
Y2-S2-195K21,5,415,PS,exp,25,←,right,→,0.8819349000696093,False,8,-1,1,3
Y2-S2-195K21,5,416,PS,exp,46,→,right,→,0.6590759998653084,True,9,-1,0,3
Y2-S2-195K21,5,417,PS,exp,28,↓,down,↓,0.8472483998630196,True,9,-1,0,3
Y2-S2-195K21,5,418,PS,exp,45,←,left,←,0.6547344999853522,True,9,1,1,4
Y2-S2-195K21,5,419,PS,exp,40,↓,down,↓,0.7798238999675959,True,8,1,0,4
Y2-S2-195K21,5,420,PS,exp,25,↑,up,↑,0.6056543001905084,True,8,1,0,4
Y2-S2-195K21,5,421,PS,exp,26,←,left,←,0.6320134999696165,True,8,1,0,4
Y2-S2-195K21,5,422,PS,exp,37,↑,up,↑,0.7640489998739213,True,7,1,0,4
Y2-S2-195K21,5,423,PS,exp,45,↓,down,↓,0.8863431001082063,True,7,1,0,4
Y2-S2-195K21,5,424,PS,exp,50,→,right,→,0.5730803001206368,True,7,1,0,4
Y2-S2-195K21,5,425,PS,exp,43,↓,down,↓,1.0089198001660407,True,6,1,0,4
Y2-S2-195K21,5,426,PS,exp,45,↑,left,←,0.7158594999928027,False,6,-1,1,5
Y2-S2-195K21,5,427,PS,exp,37,→,right,→,0.6178572000935674,True,7,-1,0,5
Y2-S2-195K21,5,428,PS,exp,31,←,right,→,0.879394399933517,False,7,-1,0,5
Y2-S2-195K21,5,429,PS,exp,34,→,up,↑,0.9285591000225395,False,8,-1,0,5
Y2-S2-195K21,5,430,PS,exp,46,↑,left,←,0.6646022000350058,False,9,-1,0,5
Y2-S2-195K21,5,431,PS,exp,50,←,left,←,0.7074625000823289,True,10,-1,0,5
Y2-S2-195K21,5,432,PS,exp,35,↑,up,↑,0.7905899998731911,True,10,-1,0,5
Y2-S2-195K21,5,433,PS,exp,35,←,left,←,0.5791935999877751,True,10,1,1,6
Y2-S2-195K21,5,434,PS,exp,25,↑,left,←,0.9128323998302221,False,9,-1,1,7
Y2-S2-195K21,5,435,PS,exp,41,↓,down,↓,0.8494037000928074,True,10,-1,0,7
Y2-S2-195K21,5,436,PS,exp,30,→,left,←,0.5678559998050332,False,10,-1,0,7
Y2-S2-195K21,5,437,PS,exp,31,←,left,←,0.7205632000695914,True,11,-1,0,7
Y2-S2-195K21,5,438,PS,exp,32,↑,up,↑,1.0890713001135737,True,11,-1,0,7
Y2-S2-195K21,5,439,PS,exp,36,↓,down,↓,0.7925900998525321,True,11,1,1,8
Y2-S2-195K21,5,440,PS,exp,47,←,left,←,0.5486534000374377,True,10,1,0,8
Y2-S2-195K21,5,441,PS,exp,25,↑,up,↑,0.7109713000245392,True,10,1,0,8
Y2-S2-195K21,5,442,PS,exp,26,←,left,←,0.9557015998288989,True,10,1,0,8
Y2-S2-195K21,5,443,PS,exp,31,↓,right,→,0.8737040001433343,False,9,-1,1,9
Y2-S2-195K21,5,444,PS,exp,45,↑,up,↑,0.7031320000533015,True,10,-1,0,9
Y2-S2-195K21,5,445,PS,exp,26,→,left,←,0.8912887000478804,False,10,-1,0,9
Y2-S2-195K21,5,446,PS,exp,50,↓,down,↓,0.7890659000258893,True,11,-1,0,9
Y2-S2-195K21,5,447,PS,exp,37,↑,up,↑,1.2294892000500113,True,11,-1,0,9
Y2-S2-195K21,5,448,PS,exp,38,←,left,←,0.553758499911055,True,11,1,1,10
Y2-S2-195K21,5,449,PS,exp,30,→,right,→,0.7038229000754654,True,10,1,0,10
Y2-S2-195K21,5,450,PS,exp,30,↑,up,↑,0.6908450999762863,True,10,1,0,10
Y2-S2-195K21,5,451,PS,exp,44,→,right,→,0.6993273000698537,True,10,1,0,10
Y2-S2-195K21,5,452,PS,exp,47,←,right,→,0.9707110999152064,False,9,-1,1,11
Y2-S2-195K21,5,453,PS,exp,26,↑,left,←,0.6553115001879632,False,10,-1,0,11
Y2-S2-195K21,5,454,PS,exp,41,←,left,←,0.6860422000754625,True,11,-1,0,11
Y2-S2-195K21,5,455,PS,exp,46,→,right,→,0.815180900041014,True,11,-1,0,11
Y2-S2-195K21,5,456,PS,exp,26,←,left,←,0.6891871001571417,True,11,1,1,12
Y2-S2-195K21,5,457,PS,exp,28,↑,up,↑,0.6604730999097228,True,10,1,0,12
Y2-S2-195K21,5,458,PS,exp,40,←,left,←,0.5600419000256807,True,10,1,0,12
Y2-S2-195K21,5,459,PS,exp,45,↑,left,←,1.0650305000599474,False,10,-1,1,13
Y2-S2-195K21,5,460,PS,exp,33,→,right,→,0.7035030999686569,True,11,-1,0,13
Y2-S2-195K21,5,461,PS,exp,32,←,left,←,0.5397403000388294,True,11,-1,0,13
Y2-S2-195K21,5,462,PS,exp,25,→,right,→,0.5938530000858009,True,11,1,1,14
Y2-S2-195K21,5,463,PS,exp,32,←,left,←,0.5308077000081539,True,10,1,0,14
Y2-S2-195K21,5,464,PS,exp,32,↓,down,↓,0.7673833998851478,True,10,1,0,14
Y2-S2-195K21,5,465,PS,exp,32,←,left,←,0.6180301001295447,True,10,1,0,14
Y2-S2-195K21,5,466,PS,exp,48,→,left,←,0.6636711000464857,False,9,-1,1,15
Y2-S2-195K21,5,467,PS,exp,43,↓,down,↓,0.79408899997361,True,10,-1,0,15
Y2-S2-195K21,5,468,PS,exp,43,←,left,←,1.0093372999690473,True,10,-1,0,15
Y2-S2-195K21,5,469,PS,exp,41,↓,right,→,0.8797634998336434,False,10,-1,0,15
Y2-S2-195K21,5,470,PS,exp,29,←,left,←,0.6777669000439346,True,11,-1,0,15
Y2-S2-195K21,5,471,PS,exp,36,↓,up,↑,1.030162899987772,False,11,-1,0,15
Y2-S2-195K21,5,472,PS,exp,42,↑,up,↑,0.6883191999513656,True,12,-1,0,15
Y2-S2-195K21,5,473,PS,exp,37,←,left,←,0.6408843998797238,True,12,-1,0,15
Y2-S2-195K21,5,474,PS,exp,44,→,right,→,0.6407347000204027,True,12,1,1,16
Y2-S2-195K21,6,475,AS,intra_train,29,←,left,←,0.7294077000115067,True,22,-,-,-
Y2-S2-195K21,6,476,AS,intra_train,49,↑,up,↑,0.7834686001297086,True,22,-,-,-
Y2-S2-195K21,6,477,AS,intra_train,33,↓,down,↓,0.7349682000931352,True,22,-,-,-
Y2-S2-195K21,6,478,AS,intra_train,36,←,left,←,0.7478741998784244,True,22,-,-,-
Y2-S2-195K21,6,479,AS,intra_train,37,↑,up,↑,0.7153540998697281,True,22,-,-,-
Y2-S2-195K21,6,480,AS,exp,32,←,left,←,0.6278901998884976,True,15,0,0,0
Y2-S2-195K21,6,481,AS,exp,29,→,left,←,1.0640971001703292,False,15,-1,0,0
Y2-S2-195K21,6,482,AS,exp,38,←,left,←,0.9820946000982076,True,16,-1,0,0
Y2-S2-195K21,6,483,AS,exp,30,↑,up,↑,0.7626461999025196,True,16,-1,0,0
Y2-S2-195K21,6,484,AS,exp,43,←,left,←,0.7460370999760926,True,16,1,1,1
Y2-S2-195K21,6,485,AS,exp,43,→,left,←,0.8493890999816358,False,15,-1,1,2
Y2-S2-195K21,6,486,AS,exp,32,←,left,←,0.6638195000123233,True,16,-1,0,2
Y2-S2-195K21,6,487,AS,exp,47,↓,down,↓,0.8611506999004632,True,16,-1,0,2
Y2-S2-195K21,6,488,AS,exp,42,→,right,→,0.5673707001842558,True,16,1,1,3
Y2-S2-195K21,6,489,AS,exp,44,↓,down,↓,0.7735464000143111,True,15,1,0,3
Y2-S2-195K21,6,490,AS,exp,41,→,right,→,0.6853996000718325,True,15,1,0,3
Y2-S2-195K21,6,491,AS,exp,39,↑,right,→,1.150587399955839,False,15,-1,1,4
Y2-S2-195K21,6,492,AS,exp,27,→,right,→,0.6950721000321209,True,16,-1,0,4
Y2-S2-195K21,6,493,AS,exp,33,↓,down,↓,0.8735946998931468,True,16,-1,0,4
Y2-S2-195K21,6,494,AS,exp,34,↑,up,↑,0.612599000101909,True,16,1,1,5
Y2-S2-195K21,6,495,AS,exp,31,←,left,←,0.614038199884817,True,15,1,0,5
Y2-S2-195K21,6,496,AS,exp,26,↓,down,↓,0.8770459999796003,True,15,1,0,5
Y2-S2-195K21,6,497,AS,exp,46,→,right,→,0.7286946999374777,True,15,1,0,5
Y2-S2-195K21,6,498,AS,exp,36,↓,down,↓,0.8053933999035507,True,14,1,0,5
Y2-S2-195K21,6,499,AS,exp,26,→,right,→,0.581514700083062,True,14,1,0,5
Y2-S2-195K21,6,500,AS,exp,48,↑,up,↑,0.7620055999141186,True,14,1,0,5
Y2-S2-195K21,6,501,AS,exp,44,→,right,→,0.669769300147891,True,13,1,0,5
Y2-S2-195K21,6,502,AS,exp,40,←,left,←,0.628770099952817,True,13,1,0,5
Y2-S2-195K21,6,503,AS,exp,32,→,right,→,0.7667912000324577,True,13,1,0,5
Y2-S2-195K21,6,504,AS,exp,50,↑,up,↑,0.6516499000135809,True,12,1,0,5
Y2-S2-195K21,6,505,AS,exp,41,→,right,→,0.6188020000699908,True,12,1,0,5
Y2-S2-195K21,6,506,AS,exp,35,←,left,←,0.5841101999394596,True,12,1,0,5
Y2-S2-195K21,6,507,AS,exp,34,↓,up,↑,1.0083552999421954,False,11,-1,1,6
Y2-S2-195K21,6,508,AS,exp,34,←,left,←,0.5235562999732792,True,12,-1,0,6
Y2-S2-195K21,6,509,AS,exp,44,↑,left,←,0.9090563000645489,False,12,-1,0,6
Y2-S2-195K21,6,510,AS,exp,32,↓,down,↓,0.7313989999238402,True,13,-1,0,6
Y2-S2-195K21,6,511,AS,exp,38,↑,up,↑,0.6971615001093596,True,13,-1,0,6
Y2-S2-195K21,6,512,AS,exp,34,→,up,↑,0.7330177000258118,False,13,-1,0,6
Y2-S2-195K21,6,513,AS,exp,31,↓,up,↑,0.6513956000562757,False,14,-1,0,6
Y2-S2-195K21,6,514,AS,exp,47,←,left,←,0.7041529000271112,True,15,-1,0,6
Y2-S2-195K21,6,515,AS,exp,35,↓,down,↓,0.7517395000904799,True,15,-1,0,6
Y2-S2-195K21,6,516,AS,exp,40,→,right,→,0.5622318999376148,True,15,1,1,7
Y2-S2-195K21,6,517,AS,exp,25,←,right,→,0.9934019001666456,False,14,-1,1,8
Y2-S2-195K21,6,518,AS,exp,48,↑,up,↑,1.3150482000783086,True,15,-1,0,8
Y2-S2-195K21,6,519,AS,exp,35,←,left,←,0.750844300026074,True,15,-1,0,8
Y2-S2-195K21,6,520,AS,exp,46,↓,down,↓,0.8287328998558223,True,15,1,1,9
Y2-S2-195K21,6,521,AS,exp,50,→,right,→,0.7666357001289725,True,14,1,0,9
Y2-S2-195K21,6,522,AS,exp,41,↑,up,↑,0.6237294999882579,True,14,1,0,9
Y2-S2-195K21,6,523,AS,exp,31,→,left,←,0.6111161999870092,False,14,-1,1,10
Y2-S2-195K21,6,524,AS,exp,33,↑,up,↑,0.98737070010975,True,15,-1,0,10
Y2-S2-195K21,6,525,AS,exp,34,→,right,→,0.684877100167796,True,15,-1,0,10
Y2-S2-195K21,6,526,AS,exp,36,↓,down,↓,0.6740153999999166,True,15,1,1,11
Y2-S2-195K21,6,527,AS,exp,37,←,left,←,0.9620493999682367,True,14,1,0,11
Y2-S2-195K21,6,528,AS,exp,25,↑,up,↑,0.5929040000773966,True,14,1,0,11
Y2-S2-195K21,6,529,AS,exp,28,↓,down,↓,0.7700943001545966,True,14,1,0,11
Y2-S2-195K21,6,530,AS,exp,34,←,left,←,0.711046100128442,True,13,1,0,11
Y2-S2-195K21,6,531,AS,exp,38,↑,down,↓,0.9099484998732805,False,13,-1,1,12
Y2-S2-195K21,6,532,AS,exp,31,→,right,→,0.8688250000122935,True,14,-1,0,12
Y2-S2-195K21,6,533,AS,exp,33,←,right,→,0.6487176001537591,False,14,-1,0,12
Y2-S2-195K21,6,534,AS,exp,37,→,right,→,0.7736446999479085,True,15,-1,0,12
Y2-S2-195K21,6,535,AS,exp,44,↑,up,↑,0.8235565000213683,True,15,-1,0,12
Y2-S2-195K21,6,536,AS,exp,32,↓,up,↑,0.9508758999872953,False,15,-1,0,12
Y2-S2-195K21,6,537,AS,exp,26,←,right,→,0.6285313998814672,False,16,-1,0,12
Y2-S2-195K21,6,538,AS,exp,38,↓,down,↓,0.8689906999934465,True,17,-1,0,12
Y2-S2-195K21,6,539,AS,exp,48,↑,up,↑,0.7297473999205977,True,17,-1,0,12
Y2-S2-195K21,6,540,AS,exp,27,←,left,←,0.635733800008893,True,17,1,1,13
Y2-S2-195K21,6,541,AS,exp,46,↑,up,↑,0.8870355000253767,True,16,1,0,13
Y2-S2-195K21,6,542,AS,exp,25,←,right,→,1.2788689997978508,False,16,-1,1,14
Y2-S2-195K21,6,543,AS,exp,26,↑,up,↑,0.8216520000714809,True,17,-1,0,14
Y2-S2-195K21,6,544,AS,exp,25,→,right,→,0.7668637000024319,True,17,-1,0,14
Y2-S2-195K21,6,545,AS,exp,43,↑,up,↑,0.8274371000006795,True,17,1,1,15
Y2-S2-195K21,6,546,AS,exp,35,←,left,←,0.8393210999201983,True,16,1,0,15
Y2-S2-195K21,6,547,AS,exp,49,↑,up,↑,0.7389287000987679,True,16,1,0,15
Y2-S2-195K21,6,548,AS,exp,43,←,left,←,0.8019250999204814,True,16,1,0,15
Y2-S2-195K21,6,549,AS,exp,26,↑,up,↑,0.8694496999960393,True,15,1,0,15
Y2-S2-195K21,6,550,AS,exp,43,←,left,←,1.0051106999162585,True,15,1,0,15
Y2-S2-195K21,6,551,AS,exp,34,↓,down,↓,0.9493782999925315,True,15,1,0,15
Y2-S2-195K21,6,552,AS,exp,28,←,left,←,0.6779499999247491,True,14,1,0,15
Y2-S2-195K21,6,553,AS,exp,46,↓,down,↓,1.0207446001004428,True,14,1,0,15
Y2-S2-195K21,6,554,AS,exp,43,→,left,←,0.7282149000093341,False,14,-1,1,16
Y2-S2-195K21,7,555,AS,intra_train,47,←,left,←,0.5815153000876307,True,22,-,-,-
Y2-S2-195K21,7,556,AS,intra_train,41,→,right,→,0.5665991001296788,True,22,-,-,-
Y2-S2-195K21,7,557,AS,intra_train,26,↑,up,↑,0.6315957000479102,True,22,-,-,-
Y2-S2-195K21,7,558,AS,intra_train,31,←,left,←,0.6197841998655349,True,22,-,-,-
Y2-S2-195K21,7,559,AS,intra_train,34,↓,down,↓,0.7090620999224484,True,22,-,-,-
Y2-S2-195K21,7,560,AS,exp,25,←,left,←,0.5854078000411391,True,15,0,0,0
Y2-S2-195K21,7,561,AS,exp,46,↓,down,↓,1.1176905001047999,True,15,0,0,0
Y2-S2-195K21,7,562,AS,exp,26,→,right,→,0.7000851000193506,True,15,1,0,0
Y2-S2-195K21,7,563,AS,exp,31,↑,up,↑,0.6558153999503702,True,14,1,0,0
Y2-S2-195K21,7,564,AS,exp,40,←,left,←,0.6635170001536608,True,14,1,0,0
Y2-S2-195K21,7,565,AS,exp,47,↓,down,↓,0.7612113000359386,True,14,1,0,0
Y2-S2-195K21,7,566,AS,exp,41,→,right,→,0.5796765999402851,True,13,1,0,0
Y2-S2-195K21,7,567,AS,exp,36,←,left,←,0.59174619987607,True,13,1,0,0
Y2-S2-195K21,7,568,AS,exp,45,↑,left,←,0.6354617001488805,False,13,-1,1,1
Y2-S2-195K21,7,569,AS,exp,27,→,left,←,0.6393009999301285,False,14,-1,0,1
Y2-S2-195K21,7,570,AS,exp,42,↓,down,↓,0.8402292998507619,True,15,-1,0,1
Y2-S2-195K21,7,571,AS,exp,29,→,right,→,0.6268881999421865,True,15,-1,0,1
Y2-S2-195K21,7,572,AS,exp,37,←,left,←,0.6589821998495609,True,15,1,1,2
Y2-S2-195K21,7,573,AS,exp,34,↑,up,↑,0.7207003000658005,True,14,1,0,2
Y2-S2-195K21,7,574,AS,exp,29,↓,down,↓,1.1457913999911398,True,14,1,0,2
Y2-S2-195K21,7,575,AS,exp,32,→,right,→,1.0977472998201847,True,14,1,0,2
Y2-S2-195K21,7,576,AS,exp,31,←,left,←,0.5703171000350267,True,13,1,0,2
Y2-S2-195K21,7,577,AS,exp,50,↓,down,↓,0.7796086999587715,True,13,1,0,2
Y2-S2-195K21,7,578,AS,exp,33,→,right,→,0.8198160000611097,True,13,1,0,2
Y2-S2-195K21,7,579,AS,exp,33,↑,up,↑,0.5405439999885857,True,12,1,0,2
Y2-S2-195K21,7,580,AS,exp,37,→,right,→,0.7184602001216263,True,12,1,0,2
Y2-S2-195K21,7,581,AS,exp,37,↑,up,↑,0.6585914001334459,True,12,1,0,2
Y2-S2-195K21,7,582,AS,exp,25,←,right,→,0.621937399962917,False,11,-1,1,3
Y2-S2-195K21,7,583,AS,exp,43,↑,up,↑,0.6757571999914944,True,12,-1,0,3
Y2-S2-195K21,7,584,AS,exp,31,→,right,→,0.6269298999104649,True,12,-1,0,3
Y2-S2-195K21,7,585,AS,exp,43,←,right,→,1.1424733998719603,False,12,-1,0,3
Y2-S2-195K21,7,586,AS,exp,50,→,right,→,0.5952766998670995,True,13,-1,0,3
Y2-S2-195K21,7,587,AS,exp,47,←,right,→,0.802438999991864,False,13,-1,0,3
Y2-S2-195K21,7,588,AS,exp,39,→,right,→,0.6519681999925524,True,14,-1,0,3
Y2-S2-195K21,7,589,AS,exp,45,←,right,→,0.584491599816829,False,14,-1,0,3
Y2-S2-195K21,7,590,AS,exp,49,→,right,→,0.9619169998914003,True,15,-1,0,3
Y2-S2-195K21,7,591,AS,exp,30,←,left,←,1.3138828000519425,True,15,-1,0,3
Y2-S2-195K21,7,592,AS,exp,40,→,right,→,1.3990984000265598,True,15,1,1,4
Y2-S2-195K21,7,593,AS,exp,45,←,left,←,0.7237519000191242,True,14,1,0,4
Y2-S2-195K21,7,594,AS,exp,37,→,right,→,0.9634511999320239,True,14,1,0,4
Y2-S2-195K21,7,595,AS,exp,25,←,right,→,0.8497955999337137,False,14,-1,1,5
Y2-S2-195K21,7,596,AS,exp,42,↓,down,↓,0.8207441999111325,True,15,-1,0,5
Y2-S2-195K21,7,597,AS,exp,34,→,left,←,0.6844375999644399,False,15,-1,0,5
Y2-S2-195K21,7,598,AS,exp,35,↓,down,↓,0.868615300161764,True,16,-1,0,5
Y2-S2-195K21,7,599,AS,exp,36,←,left,←,0.741211999906227,True,16,-1,0,5
Y2-S2-195K21,7,600,AS,exp,34,↓,left,←,0.9301591000985354,False,16,-1,0,5
Y2-S2-195K21,7,601,AS,exp,34,←,left,←,0.7686260000336915,True,17,-1,0,5
Y2-S2-195K21,7,602,AS,exp,26,→,left,←,0.6473435000516474,False,17,-1,0,5
Y2-S2-195K21,7,603,AS,exp,28,←,left,←,0.6225908999331295,True,18,-1,0,5
Y2-S2-195K21,7,604,AS,exp,41,↑,up,↑,0.7504183000419289,True,18,-1,0,5
Y2-S2-195K21,7,605,AS,exp,36,→,right,→,0.6345501998439431,True,18,1,1,6
Y2-S2-195K21,7,606,AS,exp,26,←,left,←,0.7723709000274539,True,17,1,0,6
Y2-S2-195K21,7,607,AS,exp,41,↑,up,↑,0.745266699930653,True,17,1,0,6
Y2-S2-195K21,7,608,AS,exp,44,↓,down,↓,1.1657145000062883,True,17,1,0,6
Y2-S2-195K21,7,609,AS,exp,37,↑,up,↑,0.9693554998375475,True,16,1,0,6
Y2-S2-195K21,7,610,AS,exp,28,←,left,←,0.8831491000019014,True,16,1,0,6
Y2-S2-195K21,7,611,AS,exp,31,→,no_key,no_letter,-1.0,False,16,-1,1,7
Y2-S2-195K21,7,612,AS,exp,25,←,left,←,0.6387787000276148,True,17,-1,0,7
Y2-S2-195K21,7,613,AS,exp,32,→,left,←,0.7687414998654276,False,17,-1,0,7
Y2-S2-195K21,7,614,AS,exp,33,↑,up,↑,0.6368943999987096,True,18,-1,0,7
Y2-S2-195K21,7,615,AS,exp,50,↓,down,↓,0.8318562998902053,True,18,-1,0,7
Y2-S2-195K21,7,616,AS,exp,25,→,right,→,0.4688559998758137,True,18,1,1,8
Y2-S2-195K21,7,617,AS,exp,26,↑,up,↑,0.7275626000482589,True,17,1,0,8
Y2-S2-195K21,7,618,AS,exp,35,↓,down,↓,0.7644058999139816,True,17,1,0,8
Y2-S2-195K21,7,619,AS,exp,38,←,left,←,0.6338904998265207,True,17,1,0,8
Y2-S2-195K21,7,620,AS,exp,38,↓,down,↓,0.7625459998380393,True,16,1,0,8
Y2-S2-195K21,7,621,AS,exp,41,↑,up,↑,0.6746908000204712,True,16,1,0,8
Y2-S2-195K21,7,622,AS,exp,46,→,right,→,0.8302915999665856,True,16,1,0,8
Y2-S2-195K21,7,623,AS,exp,48,←,up,↑,0.8909487000200897,False,15,-1,1,9
Y2-S2-195K21,7,624,AS,exp,50,↑,up,↑,0.5600793999619782,True,16,-1,0,9
Y2-S2-195K21,7,625,AS,exp,37,→,right,→,0.7178523000329733,True,16,-1,0,9
Y2-S2-195K21,7,626,AS,exp,25,↓,down,↓,1.0733219000976533,True,16,1,1,10
Y2-S2-195K21,7,627,AS,exp,37,←,left,←,0.7226299000903964,True,15,1,0,10
Y2-S2-195K21,7,628,AS,exp,31,↑,up,↑,1.2657610999885947,True,15,1,0,10
Y2-S2-195K21,7,629,AS,exp,49,↓,up,↑,1.2237755001988262,False,15,-1,1,11
Y2-S2-195K21,7,630,AS,exp,33,↑,up,↑,0.8476798001211137,True,16,-1,0,11
Y2-S2-195K21,7,631,AS,exp,42,→,left,←,0.7873223000206053,False,16,-1,0,11
Y2-S2-195K21,7,632,AS,exp,38,↓,up,↑,0.5892708001192659,False,17,-1,0,11
Y2-S2-195K21,7,633,AS,exp,36,→,right,→,0.6304560999851674,True,18,-1,0,11
Y2-S2-195K21,7,634,AS,exp,35,↑,up,↑,0.47697019996121526,True,18,-1,0,11
Y2-S2-195K21,7,635,AS,exp,32,←,left,←,0.5623157999943942,True,18,1,1,12
Y2-S2-195K21,7,636,AS,exp,27,↓,down,↓,0.726792800007388,True,17,1,0,12
Y2-S2-195K21,7,637,AS,exp,36,←,left,←,0.5145868000108749,True,17,1,0,12
Y2-S2-195K21,7,638,AS,exp,28,↑,up,↑,0.5292585999704897,True,17,1,0,12
Y2-S2-195K21,7,639,AS,exp,50,↓,down,↓,0.7393447998911142,True,16,1,0,12
Y2-S2-195K21,7,640,AS,exp,41,↑,up,↑,0.7635888000950217,True,16,1,0,12
Y2-S2-195K21,7,641,AS,exp,33,←,right,→,0.542689299909398,False,16,-1,1,13
Y2-S2-195K21,7,642,AS,exp,33,→,right,→,0.5283091999590397,True,17,-1,0,13
Y2-S2-195K21,7,643,AS,exp,35,←,right,→,1.3710422997828573,False,17,-1,0,13
Y2-S2-195K21,7,644,AS,exp,36,→,right,→,0.7277488000690937,True,18,-1,0,13
Y2-S2-195K21,7,645,AS,exp,26,←,right,→,1.0548900999128819,False,18,-1,0,13
Y2-S2-195K21,7,646,AS,exp,26,→,right,→,0.679313600063324,True,19,-1,0,13
Y2-S2-195K21,7,647,AS,exp,34,↑,up,↑,0.844777800142765,True,19,-1,0,13
Y2-S2-195K21,7,648,AS,exp,49,→,right,→,0.7328878999687731,True,19,1,1,14
Y2-S2-195K21,7,649,AS,exp,50,↑,up,↑,0.6798890999052674,True,18,1,0,14
Y2-S2-195K21,7,650,AS,exp,45,←,right,→,0.7249643998220563,False,18,-1,1,15
Y2-S2-195K21,7,651,AS,exp,42,↑,left,←,0.8670729000587016,False,19,-1,0,15
Y2-S2-195K21,7,652,AS,exp,31,↓,left,←,1.0120399999432266,False,20,-1,0,15
Y2-S2-195K21,7,653,AS,exp,35,←,left,←,0.8623842999804765,True,21,-1,0,15
Y2-S2-195K21,7,654,AS,exp,47,↓,down,↓,1.009949600091204,True,21,-1,0,15
Y2-S2-195K21,7,655,AS,exp,28,←,left,←,0.6483639001380652,True,21,1,1,16
Y2-S2-195K21,8,656,PS,intra_train,48,→,right,→,0.8256628999952227,True,13,-,-,-
Y2-S2-195K21,8,657,PS,intra_train,33,←,left,←,0.5871260999701917,True,13,-,-,-
Y2-S2-195K21,8,658,PS,intra_train,29,↓,right,→,0.8509476000908762,False,13,-,-,-
Y2-S2-195K21,8,659,PS,intra_train,28,↑,up,↑,0.7262542999815196,True,13,-,-,-
Y2-S2-195K21,8,660,PS,intra_train,34,→,right,→,0.6188721999060363,True,13,-,-,-
Y2-S2-195K21,8,661,PS,exp,28,←,left,←,0.6293051999527961,True,9,0,0,0
Y2-S2-195K21,8,662,PS,exp,33,↑,right,→,0.7136828999500722,False,9,-1,0,0
Y2-S2-195K21,8,663,PS,exp,27,↓,up,↑,1.1368568998295814,False,10,-1,0,0
Y2-S2-195K21,8,664,PS,exp,34,→,right,→,0.6386896998155862,True,11,-1,0,0
Y2-S2-195K21,8,665,PS,exp,34,←,left,←,0.6981701001059264,True,11,-1,0,0
Y2-S2-195K21,8,666,PS,exp,46,↑,left,←,1.0729387002065778,False,11,-1,0,0
Y2-S2-195K21,8,667,PS,exp,26,→,right,→,0.6376791000366211,True,12,-1,0,0
Y2-S2-195K21,8,668,PS,exp,42,←,right,→,0.833745599957183,False,12,-1,0,0
Y2-S2-195K21,8,669,PS,exp,44,→,right,→,0.9265596999321133,True,13,-1,0,0
Y2-S2-195K21,8,670,PS,exp,38,↓,down,↓,0.6570328001398593,True,13,-1,0,0
Y2-S2-195K21,8,671,PS,exp,42,←,left,←,0.6475599999539554,True,13,1,1,1
Y2-S2-195K21,8,672,PS,exp,45,→,right,→,0.813029499957338,True,12,1,0,1
Y2-S2-195K21,8,673,PS,exp,26,↓,down,↓,0.84052799991332,True,12,1,0,1
Y2-S2-195K21,8,674,PS,exp,29,→,right,→,0.6668772001285106,True,12,1,0,1
Y2-S2-195K21,8,675,PS,exp,29,↑,up,↑,0.7534645001869649,True,11,1,0,1
Y2-S2-195K21,8,676,PS,exp,45,→,right,→,0.6071520000696182,True,11,1,0,1
Y2-S2-195K21,8,677,PS,exp,43,↓,down,↓,1.0026799999177456,True,11,1,0,1
Y2-S2-195K21,8,678,PS,exp,31,←,left,←,0.6000586000736803,True,10,1,0,1
Y2-S2-195K21,8,679,PS,exp,49,↓,down,↓,0.9224286000244319,True,10,1,0,1
Y2-S2-195K21,8,680,PS,exp,26,←,right,→,0.839416699949652,False,10,-1,1,2
Y2-S2-195K21,8,681,PS,exp,43,↑,up,↑,0.9182654998730868,True,11,-1,0,2
Y2-S2-195K21,8,682,PS,exp,37,←,left,←,0.5552956000901759,True,11,-1,0,2
Y2-S2-195K21,8,683,PS,exp,45,↓,left,←,0.7530914999078959,False,11,-1,0,2
Y2-S2-195K21,8,684,PS,exp,35,←,left,←,0.6618767001200467,True,12,-1,0,2
Y2-S2-195K21,8,685,PS,exp,39,→,right,→,0.5965599999763072,True,12,-1,0,2
Y2-S2-195K21,8,686,PS,exp,29,↓,down,↓,0.9294636000413448,True,12,1,1,3
Y2-S2-195K21,8,687,PS,exp,37,←,left,←,0.5483041000552475,True,11,1,0,3
Y2-S2-195K21,8,688,PS,exp,50,↑,up,↑,0.6723734999541193,True,11,1,0,3
Y2-S2-195K21,8,689,PS,exp,26,↓,down,↓,0.7622936998959631,True,11,1,0,3
Y2-S2-195K21,8,690,PS,exp,28,↑,up,↑,0.6267644001636654,True,10,1,0,3
Y2-S2-195K21,8,691,PS,exp,36,↓,down,↓,0.751115299994126,True,10,1,0,3
Y2-S2-195K21,8,692,PS,exp,25,→,right,→,0.5988404999952763,True,10,1,0,3
Y2-S2-195K21,8,693,PS,exp,29,←,left,←,0.6511105999816209,True,9,1,0,3
Y2-S2-195K21,8,694,PS,exp,27,↑,up,↑,0.7008249000646174,True,9,1,0,3
Y2-S2-195K21,8,695,PS,exp,36,→,right,→,0.6389860000927001,True,9,1,0,3
Y2-S2-195K21,8,696,PS,exp,45,←,left,←,0.6325255001429468,True,8,1,0,3
Y2-S2-195K21,8,697,PS,exp,40,↓,up,↑,0.9145659001078457,False,8,-1,1,4
Y2-S2-195K21,8,698,PS,exp,35,←,left,←,0.5924247999209911,True,9,-1,0,4
Y2-S2-195K21,8,699,PS,exp,46,↓,down,↓,0.8335994998924434,True,9,-1,0,4
Y2-S2-195K21,8,700,PS,exp,50,↑,up,↑,0.8356083000544459,True,9,1,1,5
Y2-S2-195K21,8,701,PS,exp,35,↓,down,↓,0.7878162001725286,True,8,1,0,5
Y2-S2-195K21,8,702,PS,exp,31,←,right,→,0.9679185000713915,False,8,-1,1,6
Y2-S2-195K21,8,703,PS,exp,30,→,right,→,0.6463903000112623,True,9,-1,0,6
Y2-S2-195K21,8,704,PS,exp,48,↓,down,↓,0.6788122998550534,True,9,-1,0,6
Y2-S2-195K21,8,705,PS,exp,48,→,right,→,0.7549655998591334,True,9,1,1,7
Y2-S2-195K21,8,706,PS,exp,30,←,left,←,0.9031879999674857,True,8,1,0,7
Y2-S2-195K21,8,707,PS,exp,28,↑,left,←,0.7638111999258399,False,8,-1,1,8
Y2-S2-195K21,8,708,PS,exp,40,←,left,←,0.9579995998647064,True,9,-1,0,8
Y2-S2-195K21,8,709,PS,exp,29,↓,left,←,0.9070391000714153,False,9,-1,0,8
Y2-S2-195K21,8,710,PS,exp,30,↑,up,↑,0.4980750000104308,True,10,-1,0,8
Y2-S2-195K21,8,711,PS,exp,40,↓,down,↓,0.6291283001191914,True,10,-1,0,8
Y2-S2-195K21,8,712,PS,exp,34,↑,up,↑,1.1231620002072304,True,10,1,1,9
Y2-S2-195K21,8,713,PS,exp,46,↓,down,↓,0.7677474000956863,True,9,1,0,9
Y2-S2-195K21,8,714,PS,exp,41,↑,up,↑,0.7859772001393139,True,9,1,0,9
Y2-S2-195K21,8,715,PS,exp,37,↓,down,↓,0.9079024998936802,True,9,1,0,9
Y2-S2-195K21,8,716,PS,exp,37,←,left,←,0.5536237000487745,True,8,1,0,9
Y2-S2-195K21,8,717,PS,exp,27,↓,left,←,0.8696989000309259,False,8,-1,1,10
Y2-S2-195K21,8,718,PS,exp,49,←,left,←,0.587250999873504,True,9,-1,0,10
Y2-S2-195K21,8,719,PS,exp,42,↑,right,→,0.5394961000420153,False,9,-1,0,10
Y2-S2-195K21,8,720,PS,exp,30,←,right,→,0.9744464000687003,False,10,-1,0,10
Y2-S2-195K21,8,721,PS,exp,37,↑,up,↑,1.0721807000227273,True,11,-1,0,10
Y2-S2-195K21,8,722,PS,exp,29,←,right,→,0.8365064999088645,False,11,-1,0,10
Y2-S2-195K21,8,723,PS,exp,38,↑,up,↑,1.011538099963218,True,12,-1,0,10
Y2-S2-195K21,8,724,PS,exp,34,←,left,←,0.6429290999658406,True,12,-1,0,10
Y2-S2-195K21,8,725,PS,exp,32,↑,up,↑,1.0374640999361873,True,12,1,1,11
Y2-S2-195K21,8,726,PS,exp,26,←,left,←,0.7543538000900298,True,11,1,0,11
Y2-S2-195K21,8,727,PS,exp,37,↑,right,→,1.4939367999322712,False,11,-1,1,12
Y2-S2-195K21,8,728,PS,exp,47,→,right,→,0.7713738998863846,True,12,-1,0,12
Y2-S2-195K21,8,729,PS,exp,50,↑,up,↑,0.9470756999216974,True,12,-1,0,12
Y2-S2-195K21,8,730,PS,exp,47,→,right,→,0.8001176998950541,True,12,1,1,13
Y2-S2-195K21,8,731,PS,exp,37,←,right,→,1.1762486998923123,False,11,-1,1,14
Y2-S2-195K21,8,732,PS,exp,42,↑,up,↑,0.5668770999182016,True,12,-1,0,14
Y2-S2-195K21,8,733,PS,exp,44,↓,down,↓,0.8311110001523048,True,12,-1,0,14
Y2-S2-195K21,8,734,PS,exp,28,↑,up,↑,0.5859135999344289,True,12,1,1,15
Y2-S2-195K21,8,735,PS,exp,39,↓,right,→,0.7224316999781877,False,11,-1,1,16
