PART_ID,Block_no,Trial_no,Block_type,Trial_type,CSI,Stim_letter,Key_pressed,letter_choose,Rt,Corr,Stimulus Time,Level,Reversal,Revs_count
Y2-S2-247K19,1,1,PS,train,47,→,no_key,no_letter,-1.0,False,30,-,-,-
Y2-S2-247K19,1,2,PS,train,36,↓,down,↓,1.175327599979937,True,30,-,-,-
Y2-S2-247K19,1,3,PS,train,47,↑,up,↑,1.064582500141114,True,30,-,-,-
Y2-S2-247K19,1,4,PS,train,31,←,left,←,1.450825999956578,True,30,-,-,-
Y2-S2-247K19,1,5,PS,train,33,→,right,→,1.0716984001919627,True,30,-,-,-
Y2-S2-247K19,1,6,PS,train,34,←,left,←,0.5323812998831272,True,30,-,-,-
Y2-S2-247K19,1,7,PS,train,45,→,right,→,0.8948949002660811,True,30,-,-,-
Y2-S2-247K19,1,8,PS,train,27,←,left,←,0.533797400072217,True,30,-,-,-
Y2-S2-247K19,1,9,PS,train,43,→,right,→,0.6168239000253379,True,30,-,-,-
Y2-S2-247K19,1,10,PS,train,28,←,left,←,0.6683848001994193,True,30,-,-,-
Y2-S2-247K19,2,11,AS,train,34,↓,down,↓,0.8168956995941699,True,45,-,-,-
Y2-S2-247K19,2,12,AS,train,48,↑,up,↑,0.7836875999346375,True,45,-,-,-
Y2-S2-247K19,2,13,AS,train,47,←,left,←,0.8002045997418463,True,45,-,-,-
Y2-S2-247K19,2,14,AS,train,38,↑,up,↑,0.7006323002278805,True,45,-,-,-
Y2-S2-247K19,2,15,AS,train,44,←,left,←,2.072170800063759,True,45,-,-,-
Y2-S2-247K19,2,16,AS,train,43,↓,down,↓,0.7832130999304354,True,45,-,-,-
Y2-S2-247K19,2,17,AS,train,46,→,right,→,0.9491166998632252,True,45,-,-,-
Y2-S2-247K19,2,18,AS,train,34,↓,down,↓,1.6479358999058604,True,45,-,-,-
Y2-S2-247K19,2,19,AS,train,44,←,left,←,0.9548373003490269,True,45,-,-,-
Y2-S2-247K19,2,20,AS,train,43,↓,down,↓,0.8504984998144209,True,45,-,-,-
Y2-S2-247K19,-,21,PS,adaptive,37,↑,up,↑,1.14815489994362,True,10,0,0,0
Y2-S2-247K19,-,22,PS,adaptive,46,↓,down,↓,0.6877830000594258,True,10,0,0,0
Y2-S2-247K19,-,23,PS,adaptive,49,←,left,←,0.8392964997328818,True,10,1,0,0
Y2-S2-247K19,-,24,PS,adaptive,33,→,right,→,0.5582538000307977,True,9,1,0,0
Y2-S2-247K19,-,25,PS,adaptive,43,↑,up,↑,0.8664278998039663,True,9,1,0,0
Y2-S2-247K19,-,26,PS,adaptive,31,→,right,→,0.8444719999097288,True,9,1,0,0
Y2-S2-247K19,-,27,PS,adaptive,40,↑,up,↑,0.7423370000906289,True,8,1,0,0
Y2-S2-247K19,-,28,PS,adaptive,34,←,left,←,0.762939800042659,True,8,1,0,0
Y2-S2-247K19,-,29,PS,adaptive,25,→,right,→,0.7176099000498652,True,8,1,0,0
Y2-S2-247K19,-,30,PS,adaptive,29,↓,left,←,0.8189106001518667,False,7,-1,1,1
Y2-S2-247K19,-,31,PS,adaptive,27,←,left,←,0.7527780998498201,True,8,-1,0,1
Y2-S2-247K19,-,32,PS,adaptive,49,→,right,→,0.7142024002969265,True,8,-1,0,1
Y2-S2-247K19,-,33,PS,adaptive,50,↑,up,↑,0.7156358999200165,True,8,1,1,2
Y2-S2-247K19,-,34,PS,adaptive,42,←,up,↑,0.7836953001096845,False,7,-1,1,3
Y2-S2-247K19,-,35,PS,adaptive,39,→,right,→,0.7424713997170329,True,8,-1,0,3
Y2-S2-247K19,-,36,PS,adaptive,29,←,left,←,0.7150132996030152,True,8,-1,0,3
Y2-S2-247K19,-,37,PS,adaptive,30,↑,up,↑,0.6772157000377774,True,8,1,1,4
Y2-S2-247K19,-,38,AS,adaptive,31,↓,down,↓,1.1627635997720063,True,20,0,0,0
Y2-S2-247K19,-,39,AS,adaptive,44,↑,up,↑,0.8642966002225876,True,20,0,0,0
Y2-S2-247K19,-,40,AS,adaptive,25,←,right,→,0.9942351002246141,False,20,-1,0,0
Y2-S2-247K19,-,41,AS,adaptive,34,↓,down,↓,0.9148387997411191,True,21,-1,0,0
Y2-S2-247K19,-,42,AS,adaptive,40,←,left,←,0.7659341003745794,True,21,-1,0,0
Y2-S2-247K19,-,43,AS,adaptive,26,↑,left,←,1.0641994997859001,False,21,-1,0,0
Y2-S2-247K19,-,44,AS,adaptive,27,→,right,→,0.7646374003961682,True,22,-1,0,0
Y2-S2-247K19,-,45,AS,adaptive,38,←,left,←,0.8601572001352906,True,22,-1,0,0
Y2-S2-247K19,-,46,AS,adaptive,36,↓,down,↓,1.0685325996018946,True,22,1,1,1
Y2-S2-247K19,-,47,AS,adaptive,25,→,right,→,0.9485587999224663,True,21,1,0,1
Y2-S2-247K19,-,48,AS,adaptive,39,↓,down,↓,1.131916499696672,True,21,1,0,1
Y2-S2-247K19,-,49,AS,adaptive,44,→,right,→,0.8929934999905527,True,21,1,0,1
Y2-S2-247K19,-,50,AS,adaptive,37,↑,up,↑,1.5437651998363435,True,20,1,0,1
Y2-S2-247K19,-,51,AS,adaptive,28,→,down,↓,1.7201510001905262,False,20,-1,1,2
Y2-S2-247K19,-,52,AS,adaptive,43,↓,down,↓,1.0323613001964986,True,21,-1,0,2
Y2-S2-247K19,-,53,AS,adaptive,38,↑,left,←,1.116028199903667,False,21,-1,0,2
Y2-S2-247K19,-,54,AS,adaptive,34,↓,down,↓,0.9889430003240705,True,22,-1,0,2
Y2-S2-247K19,-,55,AS,adaptive,46,→,down,↓,1.4753837999887764,False,22,-1,0,2
Y2-S2-247K19,-,56,AS,adaptive,48,↑,left,←,1.5053730001673102,False,23,-1,0,2
Y2-S2-247K19,-,57,AS,adaptive,44,→,right,→,0.8366080997511744,True,24,-1,0,2
Y2-S2-247K19,-,58,AS,adaptive,32,↑,up,↑,1.2804410001263022,True,24,-1,0,2
Y2-S2-247K19,-,59,AS,adaptive,25,→,right,→,0.7675328999757767,True,24,1,1,3
Y2-S2-247K19,-,60,AS,adaptive,29,↑,up,↑,0.972013299819082,True,23,1,0,3
Y2-S2-247K19,-,61,AS,adaptive,27,←,right,→,1.2736427001655102,False,23,-1,1,4
Y2-S2-247K19,1,62,AS,intra_train,34,↑,up,↑,0.7896745996549726,True,36,-,-,-
Y2-S2-247K19,1,63,AS,intra_train,32,↓,down,↓,0.86568049993366,True,36,-,-,-
Y2-S2-247K19,1,64,AS,intra_train,27,←,left,←,0.8855809001252055,True,36,-,-,-
Y2-S2-247K19,1,65,AS,intra_train,32,↓,down,↓,1.0558869997039437,True,36,-,-,-
Y2-S2-247K19,1,66,AS,intra_train,29,↑,up,↑,1.0024383999407291,True,36,-,-,-
Y2-S2-247K19,1,67,AS,exp,35,→,right,→,0.7554648001678288,True,24,0,0,0
Y2-S2-247K19,1,68,AS,exp,48,↑,up,↑,1.008682900108397,True,24,0,0,0
Y2-S2-247K19,1,69,AS,exp,42,→,right,→,0.7881316998973489,True,24,1,0,0
Y2-S2-247K19,1,70,AS,exp,48,↑,up,↑,0.8339915997348726,True,23,1,0,0
Y2-S2-247K19,1,71,AS,exp,48,→,left,←,1.1876483000814915,False,23,-1,1,1
Y2-S2-247K19,1,72,AS,exp,25,↓,down,↓,1.2253095000050962,True,24,-1,0,1
Y2-S2-247K19,1,73,AS,exp,44,←,left,←,1.008206999860704,True,24,-1,0,1
Y2-S2-247K19,1,74,AS,exp,49,↑,up,↑,0.8991518998518586,True,24,1,1,2
Y2-S2-247K19,1,75,AS,exp,34,←,left,←,1.0123231997713447,True,23,1,0,2
Y2-S2-247K19,1,76,AS,exp,47,→,left,←,1.2482683998532593,False,23,-1,1,3
Y2-S2-247K19,1,77,AS,exp,38,↑,up,↑,1.0864854999817908,True,24,-1,0,3
Y2-S2-247K19,1,78,AS,exp,47,←,right,→,1.1079796999692917,False,24,-1,0,3
Y2-S2-247K19,1,79,AS,exp,28,↓,down,↓,0.7051691003143787,True,25,-1,0,3
Y2-S2-247K19,1,80,AS,exp,28,↑,up,↑,0.9238862995989621,True,25,-1,0,3
Y2-S2-247K19,1,81,AS,exp,36,↓,down,↓,1.0884957001544535,True,25,1,1,4
Y2-S2-247K19,1,82,AS,exp,32,←,left,←,1.008850000333041,True,24,1,0,4
Y2-S2-247K19,1,83,AS,exp,44,→,down,↓,1.3221514001488686,False,24,-1,1,5
Y2-S2-247K19,1,84,AS,exp,36,↑,up,↑,1.019516899716109,True,25,-1,0,5
Y2-S2-247K19,1,85,AS,exp,34,↓,down,↓,1.060802400112152,True,25,-1,0,5
Y2-S2-247K19,1,86,AS,exp,37,→,up,↑,1.4229084001854062,False,25,-1,0,5
Y2-S2-247K19,1,87,AS,exp,25,←,left,←,1.2358316001482308,True,26,-1,0,5
Y2-S2-247K19,1,88,AS,exp,40,→,right,→,1.091584499925375,True,26,-1,0,5
Y2-S2-247K19,1,89,AS,exp,47,←,left,←,0.8960784999653697,True,26,1,1,6
Y2-S2-247K19,1,90,AS,exp,35,↓,down,↓,1.2057610996998847,True,25,1,0,6
Y2-S2-247K19,1,91,AS,exp,30,→,right,→,0.9114168998785317,True,25,1,0,6
Y2-S2-247K19,1,92,AS,exp,31,↓,down,↓,1.6808317000977695,True,25,1,0,6
Y2-S2-247K19,1,93,AS,exp,26,↑,up,↑,1.036183699965477,True,24,1,0,6
Y2-S2-247K19,1,94,AS,exp,41,→,right,→,0.8890106002800167,True,24,1,0,6
Y2-S2-247K19,1,95,AS,exp,33,←,left,←,1.0403106999583542,True,24,1,0,6
Y2-S2-247K19,1,96,AS,exp,28,→,left,←,1.0619173999875784,False,23,-1,1,7
Y2-S2-247K19,1,97,AS,exp,45,↑,up,↑,0.9755699001252651,True,24,-1,0,7
Y2-S2-247K19,1,98,AS,exp,32,↓,down,↓,0.8894036998972297,True,24,-1,0,7
Y2-S2-247K19,1,99,AS,exp,38,→,right,→,0.8442214000970125,True,24,1,1,8
Y2-S2-247K19,1,100,AS,exp,36,←,left,←,0.7588533000089228,True,23,1,0,8
Y2-S2-247K19,1,101,AS,exp,40,↓,down,↓,0.9978905003517866,True,23,1,0,8
Y2-S2-247K19,1,102,AS,exp,43,↑,up,↑,0.7437443998642266,True,23,1,0,8
Y2-S2-247K19,1,103,AS,exp,28,←,right,→,1.0661738999187946,False,22,-1,1,9
Y2-S2-247K19,1,104,AS,exp,45,↓,up,↑,1.1822902001440525,False,23,-1,0,9
Y2-S2-247K19,1,105,AS,exp,50,←,left,←,1.1254607001319528,True,24,-1,0,9
Y2-S2-247K19,1,106,AS,exp,41,→,left,←,1.0420945999212563,False,24,-1,0,9
Y2-S2-247K19,1,107,AS,exp,26,↑,up,↑,2.000375300180167,True,25,-1,0,9
Y2-S2-247K19,1,108,AS,exp,33,→,right,→,0.9970657001249492,True,25,-1,0,9
Y2-S2-247K19,1,109,AS,exp,41,←,left,←,1.0718717998825014,True,25,1,1,10
Y2-S2-247K19,1,110,AS,exp,44,→,right,→,1.024613999761641,True,24,1,0,10
Y2-S2-247K19,1,111,AS,exp,29,↑,left,←,2.0223813001066446,False,24,-1,1,11
Y2-S2-247K19,1,112,AS,exp,31,→,right,→,0.8251213002949953,True,25,-1,0,11
Y2-S2-247K19,1,113,AS,exp,50,↑,up,↑,1.0251135998405516,True,25,-1,0,11
Y2-S2-247K19,1,114,AS,exp,34,↓,down,↓,0.8926829001866281,True,25,1,1,12
Y2-S2-247K19,1,115,AS,exp,27,←,left,←,0.9022956998087466,True,24,1,0,12
Y2-S2-247K19,1,116,AS,exp,36,→,down,↓,1.7771279998123646,False,24,-1,1,13
Y2-S2-247K19,1,117,AS,exp,34,←,left,←,1.2209474998526275,True,25,-1,0,13
Y2-S2-247K19,1,118,AS,exp,26,↓,down,↓,1.1366475000977516,True,25,-1,0,13
Y2-S2-247K19,1,119,AS,exp,39,←,left,←,0.8049971000291407,True,25,1,1,14
Y2-S2-247K19,1,120,AS,exp,41,→,right,→,0.9903782000765204,True,24,1,0,14
Y2-S2-247K19,1,121,AS,exp,33,↓,down,↓,0.9412529999390244,True,24,1,0,14
Y2-S2-247K19,1,122,AS,exp,46,←,left,←,0.7459292998537421,True,24,1,0,14
Y2-S2-247K19,1,123,AS,exp,37,↑,up,↑,0.9988679997622967,True,23,1,0,14
Y2-S2-247K19,1,124,AS,exp,32,←,left,←,0.6677990998141468,True,23,1,0,14
Y2-S2-247K19,1,125,AS,exp,49,→,down,↓,1.4314345000311732,False,23,-1,1,15
Y2-S2-247K19,1,126,AS,exp,45,↑,up,↑,0.8547549000941217,True,24,-1,0,15
Y2-S2-247K19,1,127,AS,exp,44,→,right,→,0.7452584002166986,True,24,-1,0,15
Y2-S2-247K19,1,128,AS,exp,48,←,left,←,1.057006400078535,True,24,1,1,16
Y2-S2-247K19,2,129,PS,intra_train,25,↓,down,↓,0.7681566001847386,True,10,-,-,-
Y2-S2-247K19,2,130,PS,intra_train,39,←,left,←,0.7085621999576688,True,10,-,-,-
Y2-S2-247K19,2,131,PS,intra_train,41,↑,up,↑,0.8469743002206087,True,10,-,-,-
Y2-S2-247K19,2,132,PS,intra_train,41,←,left,←,0.5031411000527442,True,10,-,-,-
Y2-S2-247K19,2,133,PS,intra_train,33,↓,down,↓,0.6367174000479281,True,10,-,-,-
Y2-S2-247K19,2,134,PS,exp,42,↑,up,↑,0.7570957001298666,True,7,0,0,0
Y2-S2-247K19,2,135,PS,exp,39,→,right,→,1.1639548996463418,True,7,0,0,0
Y2-S2-247K19,2,136,PS,exp,47,↑,left,←,1.0096869999542832,False,7,-1,0,0
Y2-S2-247K19,2,137,PS,exp,42,↓,down,↓,0.6314639002084732,True,8,-1,0,0
Y2-S2-247K19,2,138,PS,exp,28,←,left,←,0.8408650998026133,True,8,-1,0,0
Y2-S2-247K19,2,139,PS,exp,46,↓,down,↓,0.7048633997328579,True,8,1,1,1
Y2-S2-247K19,2,140,PS,exp,42,←,left,←,1.0093119000084698,True,7,1,0,1
Y2-S2-247K19,2,141,PS,exp,47,↑,left,←,1.395568400155753,False,7,-1,1,2
Y2-S2-247K19,2,142,PS,exp,47,←,left,←,0.9710558000952005,True,8,-1,0,2
Y2-S2-247K19,2,143,PS,exp,25,↓,down,↓,0.6744653000496328,True,8,-1,0,2
Y2-S2-247K19,2,144,PS,exp,31,→,right,→,0.7042644000612199,True,8,1,1,3
Y2-S2-247K19,2,145,PS,exp,49,↓,down,↓,0.7245921003632247,True,7,1,0,3
Y2-S2-247K19,2,146,PS,exp,37,↑,up,↑,0.6387312998995185,True,7,1,0,3
Y2-S2-247K19,2,147,PS,exp,46,↓,down,↓,0.6932151997461915,True,7,1,0,3
Y2-S2-247K19,2,148,PS,exp,41,↑,down,↓,0.8313330002129078,False,6,-1,1,4
Y2-S2-247K19,2,149,PS,exp,38,↓,down,↓,0.7319860998541117,True,7,-1,0,4
Y2-S2-247K19,2,150,PS,exp,37,→,right,→,0.7062059999443591,True,7,-1,0,4
Y2-S2-247K19,2,151,PS,exp,28,↓,down,↓,0.7756436998024583,True,7,1,1,5
Y2-S2-247K19,2,152,PS,exp,36,→,right,→,0.607662099879235,True,6,1,0,5
Y2-S2-247K19,2,153,PS,exp,45,←,left,←,0.7622531000524759,True,6,1,0,5
Y2-S2-247K19,2,154,PS,exp,25,↑,down,↓,0.8631138000637293,False,6,-1,1,6
Y2-S2-247K19,2,155,PS,exp,34,↓,right,→,0.8580081998370588,False,7,-1,0,6
Y2-S2-247K19,2,156,PS,exp,47,→,left,←,0.9791374001652002,False,8,-1,0,6
Y2-S2-247K19,2,157,PS,exp,45,↑,left,←,1.3296389998868108,False,9,-1,0,6
Y2-S2-247K19,2,158,PS,exp,34,→,right,→,0.7834558999165893,True,10,-1,0,6
Y2-S2-247K19,2,159,PS,exp,39,←,down,↓,1.3184851999394596,False,10,-1,0,6
Y2-S2-247K19,2,160,PS,exp,43,→,right,→,1.3302947003394365,True,11,-1,0,6
Y2-S2-247K19,2,161,PS,exp,39,↑,up,↑,0.651838299818337,True,11,-1,0,6
Y2-S2-247K19,2,162,PS,exp,41,→,right,→,0.8179043000563979,True,11,1,1,7
Y2-S2-247K19,2,163,PS,exp,39,↓,down,↓,0.7524474998936057,True,10,1,0,7
Y2-S2-247K19,2,164,PS,exp,47,→,right,→,1.2630591997876763,True,10,1,0,7
Y2-S2-247K19,2,165,PS,exp,39,↓,down,↓,0.7001069998368621,True,10,1,0,7
Y2-S2-247K19,2,166,PS,exp,47,←,left,←,0.7652286998927593,True,9,1,0,7
Y2-S2-247K19,2,167,PS,exp,43,↑,down,↓,0.8535536997951567,False,9,-1,1,8
Y2-S2-247K19,2,168,PS,exp,30,↓,down,↓,0.8107066000811756,True,10,-1,0,8
Y2-S2-247K19,2,169,PS,exp,32,↑,up,↑,0.7765932003967464,True,10,-1,0,8
Y2-S2-247K19,2,170,PS,exp,28,←,left,←,0.8128538997843862,True,10,1,1,9
Y2-S2-247K19,2,171,PS,exp,34,↓,down,↓,0.7993526002392173,True,9,1,0,9
Y2-S2-247K19,2,172,PS,exp,30,→,right,→,0.8287871000356972,True,9,1,0,9
Y2-S2-247K19,2,173,PS,exp,39,↓,down,↓,0.8495306000113487,True,9,1,0,9
Y2-S2-247K19,2,174,PS,exp,28,←,left,←,0.7604674999602139,True,8,1,0,9
Y2-S2-247K19,2,175,PS,exp,30,↓,down,↓,0.7365623000077903,True,8,1,0,9
Y2-S2-247K19,2,176,PS,exp,32,→,right,→,0.7589491000398993,True,8,1,0,9
Y2-S2-247K19,2,177,PS,exp,44,↑,down,↓,0.7765949000604451,False,7,-1,1,10
Y2-S2-247K19,2,178,PS,exp,50,→,right,→,1.017638800200075,True,8,-1,0,10
Y2-S2-247K19,2,179,PS,exp,37,↑,up,↑,0.7964261001907289,True,8,-1,0,10
Y2-S2-247K19,2,180,PS,exp,48,↓,down,↓,0.7832577000372112,True,8,1,1,11
Y2-S2-247K19,2,181,PS,exp,44,↑,up,↑,0.7575147999450564,True,7,1,0,11
Y2-S2-247K19,2,182,PS,exp,29,→,right,→,0.970855999737978,True,7,1,0,11
Y2-S2-247K19,2,183,PS,exp,30,↓,down,↓,0.8523639999330044,True,7,1,0,11
Y2-S2-247K19,2,184,PS,exp,47,←,left,←,1.081876500044018,True,6,1,0,11
Y2-S2-247K19,2,185,PS,exp,36,↑,up,↑,0.9415672002360225,True,6,1,0,11
Y2-S2-247K19,2,186,PS,exp,26,→,left,←,0.8693198999390006,False,6,-1,1,12
Y2-S2-247K19,2,187,PS,exp,26,←,no_key,no_letter,-1.0,False,7,-1,0,12
Y2-S2-247K19,2,188,PS,exp,34,→,right,→,0.8221537000499666,True,8,-1,0,12
Y2-S2-247K19,2,189,PS,exp,33,←,right,→,0.9936420996673405,False,8,-1,0,12
Y2-S2-247K19,2,190,PS,exp,47,→,right,→,0.7152554001659155,True,9,-1,0,12
Y2-S2-247K19,2,191,PS,exp,28,↑,right,→,0.80616689985618,False,9,-1,0,12
Y2-S2-247K19,2,192,PS,exp,40,←,left,←,0.7258980995975435,True,10,-1,0,12
Y2-S2-247K19,2,193,PS,exp,46,↑,up,↑,0.6953561999835074,True,10,-1,0,12
Y2-S2-247K19,2,194,PS,exp,35,→,up,↑,1.0604395000264049,False,10,-1,0,12
Y2-S2-247K19,2,195,PS,exp,41,↓,down,↓,0.8526381002739072,True,11,-1,0,12
Y2-S2-247K19,2,196,PS,exp,49,↑,up,↑,0.6644329996779561,True,11,-1,0,12
Y2-S2-247K19,2,197,PS,exp,37,←,left,←,0.9457380003295839,True,11,1,1,13
Y2-S2-247K19,2,198,PS,exp,36,↓,down,↓,0.6378595000132918,True,10,1,0,13
Y2-S2-247K19,2,199,PS,exp,46,←,left,←,0.7447127997875214,True,10,1,0,13
Y2-S2-247K19,2,200,PS,exp,37,↑,up,↑,0.6947039002552629,True,10,1,0,13
Y2-S2-247K19,2,201,PS,exp,49,↓,down,↓,0.8067103000357747,True,9,1,0,13
Y2-S2-247K19,2,202,PS,exp,44,←,left,←,0.6966157001443207,True,9,1,0,13
Y2-S2-247K19,2,203,PS,exp,32,↓,down,↓,0.7678996003232896,True,9,1,0,13
Y2-S2-247K19,2,204,PS,exp,28,↑,down,↓,0.8889091997407377,False,8,-1,1,14
Y2-S2-247K19,2,205,PS,exp,49,↓,up,↑,0.7658277000300586,False,9,-1,0,14
Y2-S2-247K19,2,206,PS,exp,36,→,left,←,1.1723633999936283,False,10,-1,0,14
Y2-S2-247K19,2,207,PS,exp,45,↓,down,↓,0.6474362998269498,True,11,-1,0,14
Y2-S2-247K19,2,208,PS,exp,35,→,right,→,0.6809475999325514,True,11,-1,0,14
Y2-S2-247K19,2,209,PS,exp,48,←,left,←,1.0953153995797038,True,11,1,1,15
Y2-S2-247K19,2,210,PS,exp,27,↑,left,←,1.676346500404179,False,10,-1,1,16
Y2-S2-247K19,3,211,PS,intra_train,40,↓,right,→,1.2227559001185,False,10,-,-,-
Y2-S2-247K19,3,212,PS,intra_train,32,↑,up,↑,0.6923858998343349,True,10,-,-,-
Y2-S2-247K19,3,213,PS,intra_train,28,↓,down,↓,0.6552123003639281,True,10,-,-,-
Y2-S2-247K19,3,214,PS,intra_train,37,→,right,→,0.5342248999513686,True,10,-,-,-
Y2-S2-247K19,3,215,PS,intra_train,28,←,left,←,0.6592450002208352,True,10,-,-,-
Y2-S2-247K19,3,216,PS,exp,36,→,right,→,0.560622800141573,True,7,0,0,0
Y2-S2-247K19,3,217,PS,exp,46,↓,down,↓,0.7428444996476173,True,7,0,0,0
Y2-S2-247K19,3,218,PS,exp,26,←,left,←,0.5302940001711249,True,7,1,0,0
Y2-S2-247K19,3,219,PS,exp,43,↓,down,↓,0.642626800108701,True,6,1,0,0
Y2-S2-247K19,3,220,PS,exp,31,↑,up,↑,0.6526600001379848,True,6,1,0,0
Y2-S2-247K19,3,221,PS,exp,45,←,right,→,0.780278000049293,False,6,-1,1,1
Y2-S2-247K19,3,222,PS,exp,30,↑,left,←,1.0973128997720778,False,7,-1,0,1
Y2-S2-247K19,3,223,PS,exp,48,←,left,←,0.6402777000330389,True,8,-1,0,1
Y2-S2-247K19,3,224,PS,exp,40,↑,up,↑,0.6766106998547912,True,8,-1,0,1
Y2-S2-247K19,3,225,PS,exp,43,→,down,↓,0.7840508003719151,False,8,-1,0,1
Y2-S2-247K19,3,226,PS,exp,47,←,left,←,0.6117862998507917,True,9,-1,0,1
Y2-S2-247K19,3,227,PS,exp,39,↓,down,↓,0.834328300319612,True,9,-1,0,1
Y2-S2-247K19,3,228,PS,exp,30,↑,up,↑,0.8383849998936057,True,9,1,1,2
Y2-S2-247K19,3,229,PS,exp,29,←,left,←,0.6411493001505733,True,8,1,0,2
Y2-S2-247K19,3,230,PS,exp,40,↑,right,→,0.9928465001285076,False,8,-1,1,3
Y2-S2-247K19,3,231,PS,exp,49,↓,down,↓,0.9897695002146065,True,9,-1,0,3
Y2-S2-247K19,3,232,PS,exp,33,↑,up,↑,0.8448694003745914,True,9,-1,0,3
Y2-S2-247K19,3,233,PS,exp,40,→,up,↑,1.692776800133288,False,9,-1,0,3
Y2-S2-247K19,3,234,PS,exp,41,←,no_key,no_letter,-1.0,False,10,-1,0,3
Y2-S2-247K19,3,235,PS,exp,49,→,right,→,0.8633968997746706,True,11,-1,0,3
Y2-S2-247K19,3,236,PS,exp,37,↓,down,↓,0.7150282999500632,True,11,-1,0,3
Y2-S2-247K19,3,237,PS,exp,50,→,right,→,0.7999793002381921,True,11,1,1,4
Y2-S2-247K19,3,238,PS,exp,49,↑,left,←,0.9660574002191424,False,10,-1,1,5
Y2-S2-247K19,3,239,PS,exp,39,→,right,→,0.8219393999315798,True,11,-1,0,5
Y2-S2-247K19,3,240,PS,exp,36,↑,left,←,0.9508120999671519,False,11,-1,0,5
Y2-S2-247K19,3,241,PS,exp,25,→,right,→,0.8290814999490976,True,12,-1,0,5
Y2-S2-247K19,3,242,PS,exp,39,↑,left,←,1.3141220998950303,False,12,-1,0,5
Y2-S2-247K19,3,243,PS,exp,28,→,right,→,0.582464000210166,True,13,-1,0,5
Y2-S2-247K19,3,244,PS,exp,31,↑,down,↓,1.3985341000370681,False,13,-1,0,5
Y2-S2-247K19,3,245,PS,exp,48,←,left,←,0.851981199812144,True,14,-1,0,5
Y2-S2-247K19,3,246,PS,exp,37,↓,down,↓,1.1783862002193928,True,14,-1,0,5
Y2-S2-247K19,3,247,PS,exp,42,←,left,←,1.2086828998290002,True,14,1,1,6
Y2-S2-247K19,3,248,PS,exp,48,↓,down,↓,0.7286964999511838,True,13,1,0,6
Y2-S2-247K19,3,249,PS,exp,31,→,right,→,0.869463300332427,True,13,1,0,6
Y2-S2-247K19,3,250,PS,exp,33,←,left,←,0.652745499741286,True,13,1,0,6
Y2-S2-247K19,3,251,PS,exp,36,↑,up,↑,0.76997089991346,True,12,1,0,6
Y2-S2-247K19,3,252,PS,exp,29,→,right,→,1.0054269996471703,True,12,1,0,6
Y2-S2-247K19,3,253,PS,exp,31,↓,down,↓,0.6639705998823047,True,12,1,0,6
Y2-S2-247K19,3,254,PS,exp,50,↑,up,↑,0.570487099699676,True,11,1,0,6
Y2-S2-247K19,3,255,PS,exp,36,↓,down,↓,0.6384570002555847,True,11,1,0,6
Y2-S2-247K19,3,256,PS,exp,44,←,left,←,0.6061726002953947,True,11,1,0,6
Y2-S2-247K19,3,257,PS,exp,32,↓,down,↓,0.5909692998975515,True,10,1,0,6
Y2-S2-247K19,3,258,PS,exp,33,→,left,←,0.8337487000972033,False,10,-1,1,7
Y2-S2-247K19,3,259,PS,exp,39,←,left,←,0.5040095001459122,True,11,-1,0,7
Y2-S2-247K19,3,260,PS,exp,44,→,right,→,0.5190360001288354,True,11,-1,0,7
Y2-S2-247K19,3,261,PS,exp,37,←,left,←,0.5798851996660233,True,11,1,1,8
Y2-S2-247K19,3,262,PS,exp,40,↓,down,↓,0.6379296001978219,True,10,1,0,8
Y2-S2-247K19,3,263,PS,exp,50,←,left,←,0.5857890998013318,True,10,1,0,8
Y2-S2-247K19,3,264,PS,exp,37,→,right,→,0.5727328998036683,True,10,1,0,8
Y2-S2-247K19,3,265,PS,exp,39,↑,no_key,no_letter,-1.0,False,9,-1,1,9
Y2-S2-247K19,3,266,PS,exp,43,→,right,→,0.5247102002613246,True,10,-1,0,9
Y2-S2-247K19,3,267,PS,exp,25,↑,down,↓,1.1544482000172138,False,10,-1,0,9
Y2-S2-247K19,3,268,PS,exp,48,←,left,←,0.8569953003898263,True,11,-1,0,9
Y2-S2-247K19,3,269,PS,exp,49,↑,up,↑,0.775847400072962,True,11,-1,0,9
Y2-S2-247K19,3,270,PS,exp,34,↓,down,↓,0.653961599804461,True,11,1,1,10
Y2-S2-247K19,3,271,PS,exp,34,→,right,→,0.7320234999060631,True,10,1,0,10
Y2-S2-247K19,3,272,PS,exp,50,↓,down,↓,0.7365153999999166,True,10,1,0,10
Y2-S2-247K19,3,273,PS,exp,31,→,right,→,0.6843976001255214,True,10,1,0,10
Y2-S2-247K19,3,274,PS,exp,47,←,right,→,0.7703185002319515,False,9,-1,1,11
Y2-S2-247K19,3,275,PS,exp,40,↓,left,←,1.1148588000796735,False,10,-1,0,11
Y2-S2-247K19,3,276,PS,exp,34,←,no_key,no_letter,-1.0,False,11,-1,0,11
Y2-S2-247K19,3,277,PS,exp,28,→,left,←,0.766466099768877,False,12,-1,0,11
Y2-S2-247K19,3,278,PS,exp,40,←,left,←,0.7847406999208033,True,13,-1,0,11
Y2-S2-247K19,3,279,PS,exp,50,↓,down,↓,0.9261907995678484,True,13,-1,0,11
Y2-S2-247K19,3,280,PS,exp,30,←,left,←,0.9159324001520872,True,13,1,1,12
Y2-S2-247K19,3,281,PS,exp,34,→,left,←,0.7958518997766078,False,12,-1,1,13
Y2-S2-247K19,3,282,PS,exp,34,←,left,←,0.6794867999851704,True,13,-1,0,13
Y2-S2-247K19,3,283,PS,exp,28,↑,left,←,1.0551665001548827,False,13,-1,0,13
Y2-S2-247K19,3,284,PS,exp,50,→,right,→,0.7155444999225438,True,14,-1,0,13
Y2-S2-247K19,3,285,PS,exp,48,←,left,←,0.8925980003550649,True,14,-1,0,13
Y2-S2-247K19,3,286,PS,exp,44,↓,down,↓,0.7631240002810955,True,14,1,1,14
Y2-S2-247K19,3,287,PS,exp,39,←,no_key,no_letter,-1.0,False,13,-1,1,15
Y2-S2-247K19,3,288,PS,exp,39,↓,right,→,1.6520382999442518,False,14,-1,0,15
Y2-S2-247K19,3,289,PS,exp,50,←,left,←,0.7515408000908792,True,15,-1,0,15
Y2-S2-247K19,3,290,PS,exp,44,↓,down,↓,0.7379644997417927,True,15,-1,0,15
Y2-S2-247K19,3,291,PS,exp,43,←,left,←,0.6531797000207007,True,15,1,1,16
Y2-S2-247K19,4,292,AS,intra_train,47,↓,down,↓,1.052403099834919,True,36,-,-,-
Y2-S2-247K19,4,293,AS,intra_train,25,→,right,→,0.797212999779731,True,36,-,-,-
Y2-S2-247K19,4,294,AS,intra_train,31,←,left,←,0.6003406997770071,True,36,-,-,-
Y2-S2-247K19,4,295,AS,intra_train,37,↑,up,↑,0.8079276001080871,True,36,-,-,-
Y2-S2-247K19,4,296,AS,intra_train,29,↓,down,↓,0.683650600258261,True,36,-,-,-
Y2-S2-247K19,4,297,AS,exp,45,←,left,←,0.736060599796474,True,24,0,0,0
Y2-S2-247K19,4,298,AS,exp,26,↓,down,↓,0.6492173997685313,True,24,0,0,0
Y2-S2-247K19,4,299,AS,exp,27,←,left,←,0.726897899992764,True,24,1,0,0
Y2-S2-247K19,4,300,AS,exp,37,↑,up,↑,0.7182177999056876,True,23,1,0,0
Y2-S2-247K19,4,301,AS,exp,28,←,left,←,0.6728143999353051,True,23,1,0,0
Y2-S2-247K19,4,302,AS,exp,34,↑,down,↓,0.8773231999948621,False,23,-1,1,1
Y2-S2-247K19,4,303,AS,exp,27,↓,down,↓,0.9794431999325752,True,24,-1,0,1
Y2-S2-247K19,4,304,AS,exp,31,↑,up,↑,1.0857969000935555,True,24,-1,0,1
Y2-S2-247K19,4,305,AS,exp,39,←,no_key,no_letter,-1.0,False,24,-1,0,1
Y2-S2-247K19,4,306,AS,exp,28,↑,down,↓,1.6814242000691593,False,25,-1,0,1
Y2-S2-247K19,4,307,AS,exp,44,→,right,→,0.7843923000618815,True,26,-1,0,1
Y2-S2-247K19,4,308,AS,exp,46,←,left,←,0.7976020998321474,True,26,-1,0,1
Y2-S2-247K19,4,309,AS,exp,33,→,right,→,0.696603300049901,True,26,1,1,2
Y2-S2-247K19,4,310,AS,exp,49,←,left,←,0.6251059998758137,True,25,1,0,2
Y2-S2-247K19,4,311,AS,exp,44,↓,down,↓,0.7833294002339244,True,25,1,0,2
Y2-S2-247K19,4,312,AS,exp,42,↑,up,↑,1.1172013003379107,True,25,1,0,2
Y2-S2-247K19,4,313,AS,exp,48,←,left,←,0.5797337000258267,True,24,1,0,2
Y2-S2-247K19,4,314,AS,exp,32,↓,down,↓,0.9356828001327813,True,24,1,0,2
Y2-S2-247K19,4,315,AS,exp,42,↑,up,↑,1.445749799720943,True,24,1,0,2
Y2-S2-247K19,4,316,AS,exp,39,↓,no_key,no_letter,-1.0,False,23,-1,1,3
Y2-S2-247K19,4,317,AS,exp,38,→,right,→,0.7050128001719713,True,24,-1,0,3
Y2-S2-247K19,4,318,AS,exp,29,↓,down,↓,1.262990599963814,True,24,-1,0,3
Y2-S2-247K19,4,319,AS,exp,47,↑,up,↑,0.7499143001623452,True,24,1,1,4
Y2-S2-247K19,4,320,AS,exp,26,→,right,→,0.8615517001599073,True,23,1,0,4
Y2-S2-247K19,4,321,AS,exp,50,↑,up,↑,0.7782825999893248,True,23,1,0,4
Y2-S2-247K19,4,322,AS,exp,50,↓,down,↓,0.7533160001039505,True,23,1,0,4
Y2-S2-247K19,4,323,AS,exp,25,→,right,→,0.7056430000811815,True,22,1,0,4
Y2-S2-247K19,4,324,AS,exp,35,↑,up,↑,1.0437870998866856,True,22,1,0,4
Y2-S2-247K19,4,325,AS,exp,37,←,left,←,0.6844011000357568,True,22,1,0,4
Y2-S2-247K19,4,326,AS,exp,36,↑,up,↑,0.6400133999995887,True,21,1,0,4
Y2-S2-247K19,4,327,AS,exp,37,←,left,←,0.7099762000143528,True,21,1,0,4
Y2-S2-247K19,4,328,AS,exp,46,→,right,→,0.8049706998281181,True,21,1,0,4
Y2-S2-247K19,4,329,AS,exp,43,↓,down,↓,0.782288399990648,True,20,1,0,4
Y2-S2-247K19,4,330,AS,exp,40,→,right,→,0.6667154999449849,True,20,1,0,4
Y2-S2-247K19,4,331,AS,exp,38,↑,up,↑,1.0088892001658678,True,20,1,0,4
Y2-S2-247K19,4,332,AS,exp,31,↓,down,↓,0.8130220999009907,True,19,1,0,4
Y2-S2-247K19,4,333,AS,exp,28,←,left,←,0.7497801999561489,True,19,1,0,4
Y2-S2-247K19,4,334,AS,exp,35,↑,up,↑,0.8457269002683461,True,19,1,0,4
Y2-S2-247K19,4,335,AS,exp,36,↓,up,↑,0.9969902997836471,False,18,-1,1,5
Y2-S2-247K19,4,336,AS,exp,32,←,up,↑,1.4360001999884844,False,19,-1,0,5
Y2-S2-247K19,4,337,AS,exp,39,↓,left,←,1.0714960000477731,False,20,-1,0,5
Y2-S2-247K19,4,338,AS,exp,32,↑,up,↑,0.5982541996054351,True,21,-1,0,5
Y2-S2-247K19,4,339,AS,exp,41,←,left,←,0.5191815998405218,True,21,-1,0,5
Y2-S2-247K19,4,340,AS,exp,41,→,right,→,0.5785332000814378,True,21,1,1,6
Y2-S2-247K19,4,341,AS,exp,30,←,left,←,0.7102051000110805,True,20,1,0,6
Y2-S2-247K19,4,342,AS,exp,35,↑,up,↑,0.6194118000566959,True,20,1,0,6
Y2-S2-247K19,4,343,AS,exp,33,←,left,←,0.7283985000103712,True,20,1,0,6
Y2-S2-247K19,4,344,AS,exp,33,↑,up,↑,1.0687534003518522,True,19,1,0,6
Y2-S2-247K19,4,345,AS,exp,27,→,right,→,0.8631167998537421,True,19,1,0,6
Y2-S2-247K19,4,346,AS,exp,40,↓,down,↓,0.8157618003897369,True,19,1,0,6
Y2-S2-247K19,4,347,AS,exp,33,↑,up,↑,0.6656635999679565,True,18,1,0,6
Y2-S2-247K19,4,348,AS,exp,42,→,right,→,1.0607211999595165,True,18,1,0,6
Y2-S2-247K19,4,349,AS,exp,35,↑,up,↑,0.7349616000428796,True,18,1,0,6
Y2-S2-247K19,4,350,AS,exp,44,→,right,→,0.8210330000147223,True,17,1,0,6
Y2-S2-247K19,4,351,AS,exp,39,↓,down,↓,0.8546985001303256,True,17,1,0,6
Y2-S2-247K19,4,352,AS,exp,28,→,left,←,1.0779137001372874,False,17,-1,1,7
Y2-S2-247K19,4,353,AS,exp,33,↓,down,↓,0.9076322000473738,True,18,-1,0,7
Y2-S2-247K19,4,354,AS,exp,48,←,left,←,0.9248878001235425,True,18,-1,0,7
Y2-S2-247K19,4,355,AS,exp,44,↑,up,↑,0.6567143998108804,True,18,1,1,8
Y2-S2-247K19,4,356,AS,exp,46,→,right,→,0.763995099812746,True,17,1,0,8
Y2-S2-247K19,4,357,AS,exp,40,↓,down,↓,0.6678960998542607,True,17,1,0,8
Y2-S2-247K19,4,358,AS,exp,40,←,right,→,0.9348376002162695,False,17,-1,1,9
Y2-S2-247K19,4,359,AS,exp,42,↓,down,↓,0.9243954997509718,True,18,-1,0,9
Y2-S2-247K19,4,360,AS,exp,26,→,right,→,0.810789099894464,True,18,-1,0,9
Y2-S2-247K19,4,361,AS,exp,45,↑,up,↑,0.8264232999645174,True,18,1,1,10
Y2-S2-247K19,4,362,AS,exp,46,→,right,→,0.7266302001662552,True,17,1,0,10
Y2-S2-247K19,4,363,AS,exp,29,←,left,←,0.7197056002914906,True,17,1,0,10
Y2-S2-247K19,4,364,AS,exp,37,→,right,→,0.6704206001013517,True,17,1,0,10
Y2-S2-247K19,4,365,AS,exp,50,↑,up,↑,0.6079723997972906,True,16,1,0,10
Y2-S2-247K19,4,366,AS,exp,28,→,right,→,0.5244118999689817,True,16,1,0,10
Y2-S2-247K19,4,367,AS,exp,41,↓,down,↓,1.0022209002636373,True,16,1,0,10
Y2-S2-247K19,4,368,AS,exp,37,→,left,←,0.7031193999573588,False,15,-1,1,11
Y2-S2-247K19,4,369,AS,exp,46,←,left,←,0.7951344000175595,True,16,-1,0,11
Y2-S2-247K19,4,370,AS,exp,34,↑,up,↑,1.069009399972856,True,16,-1,0,11
Y2-S2-247K19,4,371,AS,exp,32,→,left,←,1.8370619001798332,False,16,-1,0,11
Y2-S2-247K19,4,372,AS,exp,30,↑,down,↓,0.9537010998465121,False,17,-1,0,11
Y2-S2-247K19,4,373,AS,exp,35,↓,down,↓,0.7957720002159476,True,18,-1,0,11
Y2-S2-247K19,4,374,AS,exp,28,→,left,←,1.1750034000724554,False,18,-1,0,11
Y2-S2-247K19,4,375,AS,exp,30,←,left,←,0.8779688999056816,True,19,-1,0,11
Y2-S2-247K19,4,376,AS,exp,25,↑,up,↑,0.9311985997483134,True,19,-1,0,11
Y2-S2-247K19,4,377,AS,exp,35,↓,down,↓,0.9459793004207313,True,19,1,1,12
Y2-S2-247K19,4,378,AS,exp,49,←,left,←,0.9759685001336038,True,18,1,0,12
Y2-S2-247K19,4,379,AS,exp,34,→,right,→,0.8976448001340032,True,18,1,0,12
Y2-S2-247K19,4,380,AS,exp,49,↑,up,↑,1.1425678003579378,True,18,1,0,12
Y2-S2-247K19,4,381,AS,exp,50,→,right,→,0.9294781000353396,True,17,1,0,12
Y2-S2-247K19,4,382,AS,exp,50,←,left,←,1.0380064002238214,True,17,1,0,12
Y2-S2-247K19,4,383,AS,exp,46,↑,left,←,1.2323770001530647,False,17,-1,1,13
Y2-S2-247K19,4,384,AS,exp,25,↓,up,↑,1.1916495002806187,False,18,-1,0,13
Y2-S2-247K19,4,385,AS,exp,44,→,right,→,0.8309067999944091,True,19,-1,0,13
Y2-S2-247K19,4,386,AS,exp,43,←,left,←,0.8032324002124369,True,19,-1,0,13
Y2-S2-247K19,4,387,AS,exp,42,↑,up,↑,0.9723012000322342,True,19,1,1,14
Y2-S2-247K19,4,388,AS,exp,38,↓,down,↓,0.8800654001533985,True,18,1,0,14
Y2-S2-247K19,4,389,AS,exp,27,→,left,←,0.5890160999260843,False,18,-1,1,15
Y2-S2-247K19,4,390,AS,exp,41,↓,down,↓,0.7610549000091851,True,19,-1,0,15
Y2-S2-247K19,4,391,AS,exp,34,↑,up,↑,1.029373399913311,True,19,-1,0,15
Y2-S2-247K19,4,392,AS,exp,38,→,right,→,0.80147589975968,True,19,1,1,16
Y2-S2-247K19,5,393,AS,intra_train,41,↑,up,↑,0.6834799000062048,True,36,-,-,-
Y2-S2-247K19,5,394,AS,intra_train,45,↓,down,↓,0.7921895999461412,True,36,-,-,-
Y2-S2-247K19,5,395,AS,intra_train,36,↑,up,↑,1.837657299824059,True,36,-,-,-
Y2-S2-247K19,5,396,AS,intra_train,44,→,right,→,0.9653878998942673,True,36,-,-,-
Y2-S2-247K19,5,397,AS,intra_train,31,←,left,←,0.6002786001190543,True,36,-,-,-
Y2-S2-247K19,5,398,AS,exp,27,→,right,→,0.6430331999436021,True,24,0,0,0
Y2-S2-247K19,5,399,AS,exp,43,←,left,←,1.1199631001800299,True,24,0,0,0
Y2-S2-247K19,5,400,AS,exp,46,↓,down,↓,0.8093326003290713,True,24,1,0,0
Y2-S2-247K19,5,401,AS,exp,30,↑,up,↑,0.994690100196749,True,23,1,0,0
Y2-S2-247K19,5,402,AS,exp,30,↓,down,↓,0.8966573998332024,True,23,1,0,0
Y2-S2-247K19,5,403,AS,exp,39,↑,up,↑,0.6535606002435088,True,23,1,0,0
Y2-S2-247K19,5,404,AS,exp,32,→,right,→,0.9197081997990608,True,22,1,0,0
Y2-S2-247K19,5,405,AS,exp,32,↑,up,↑,1.111228599678725,True,22,1,0,0
Y2-S2-247K19,5,406,AS,exp,48,↓,down,↓,0.9426754000596702,True,22,1,0,0
Y2-S2-247K19,5,407,AS,exp,49,→,right,→,0.8325437996536493,True,21,1,0,0
Y2-S2-247K19,5,408,AS,exp,46,↑,up,↑,0.9438147000037134,True,21,1,0,0
Y2-S2-247K19,5,409,AS,exp,34,←,left,←,0.6451912997290492,True,21,1,0,0
Y2-S2-247K19,5,410,AS,exp,41,↓,down,↓,0.8402424002997577,True,20,1,0,0
Y2-S2-247K19,5,411,AS,exp,36,←,left,←,0.675161199644208,True,20,1,0,0
Y2-S2-247K19,5,412,AS,exp,34,↓,down,↓,0.8968681995756924,True,20,1,0,0
Y2-S2-247K19,5,413,AS,exp,32,→,right,→,1.173067499883473,True,19,1,0,0
Y2-S2-247K19,5,414,AS,exp,32,↑,up,↑,0.7810419001616538,True,19,1,0,0
Y2-S2-247K19,5,415,AS,exp,40,↓,down,↓,0.7948000999167562,True,19,1,0,0
Y2-S2-247K19,5,416,AS,exp,28,↑,up,↑,0.7557879001833498,True,18,1,0,0
Y2-S2-247K19,5,417,AS,exp,38,→,right,→,0.8229119000025094,True,18,1,0,0
Y2-S2-247K19,5,418,AS,exp,45,←,left,←,0.7483751000836492,True,18,1,0,0
Y2-S2-247K19,5,419,AS,exp,26,↑,up,↑,0.8299763998948038,True,17,1,0,0
Y2-S2-247K19,5,420,AS,exp,47,→,left,←,1.243131899740547,False,17,-1,1,1
Y2-S2-247K19,5,421,AS,exp,32,↓,up,↑,1.1496568000875413,False,18,-1,0,1
Y2-S2-247K19,5,422,AS,exp,43,←,left,←,0.877918700221926,True,19,-1,0,1
Y2-S2-247K19,5,423,AS,exp,48,→,right,→,0.947861900087446,True,19,-1,0,1
Y2-S2-247K19,5,424,AS,exp,33,↑,up,↑,0.7037126002833247,True,19,1,1,2
Y2-S2-247K19,5,425,AS,exp,44,→,left,←,0.7960434998385608,False,18,-1,1,3
Y2-S2-247K19,5,426,AS,exp,42,←,left,←,0.659350199624896,True,19,-1,0,3
Y2-S2-247K19,5,427,AS,exp,41,↑,up,↑,0.9167096996679902,True,19,-1,0,3
Y2-S2-247K19,5,428,AS,exp,37,→,right,→,0.7817349997349083,True,19,1,1,4
Y2-S2-247K19,5,429,AS,exp,34,↑,up,↑,0.8872054000385106,True,18,1,0,4
Y2-S2-247K19,5,430,AS,exp,48,←,left,←,0.9034174000844359,True,18,1,0,4
Y2-S2-247K19,5,431,AS,exp,47,↑,up,↑,1.0122209000401199,True,18,1,0,4
Y2-S2-247K19,5,432,AS,exp,41,←,left,←,0.9510429999791086,True,17,1,0,4
Y2-S2-247K19,5,433,AS,exp,47,↑,down,↓,1.9411495001986623,False,17,-1,1,5
Y2-S2-247K19,5,434,AS,exp,39,→,right,→,1.2908942000940442,True,18,-1,0,5
Y2-S2-247K19,5,435,AS,exp,46,↑,up,↑,0.7425476000644267,True,18,-1,0,5
Y2-S2-247K19,5,436,AS,exp,33,←,left,←,0.9479948999360204,True,18,1,1,6
Y2-S2-247K19,5,437,AS,exp,29,↓,down,↓,0.891428199596703,True,17,1,0,6
Y2-S2-247K19,5,438,AS,exp,35,←,left,←,0.8027471997775137,True,17,1,0,6
Y2-S2-247K19,5,439,AS,exp,36,→,left,←,0.7825186001136899,False,17,-1,1,7
Y2-S2-247K19,5,440,AS,exp,39,↓,down,↓,0.9341192999854684,True,18,-1,0,7
Y2-S2-247K19,5,441,AS,exp,48,←,left,←,0.8161229002289474,True,18,-1,0,7
Y2-S2-247K19,5,442,AS,exp,29,↓,down,↓,0.972974400036037,True,18,1,1,8
Y2-S2-247K19,5,443,AS,exp,50,→,right,→,1.1822661999613047,True,17,1,0,8
Y2-S2-247K19,5,444,AS,exp,31,↓,down,↓,0.9144450998865068,True,17,1,0,8
Y2-S2-247K19,5,445,AS,exp,47,←,left,←,0.9199032001197338,True,17,1,0,8
Y2-S2-247K19,5,446,AS,exp,33,↑,left,←,1.0043106996454298,False,16,-1,1,9
Y2-S2-247K19,5,447,AS,exp,44,↓,down,↓,1.0050356001593173,True,17,-1,0,9
Y2-S2-247K19,5,448,AS,exp,26,→,right,→,0.8383569000288844,True,17,-1,0,9
Y2-S2-247K19,5,449,AS,exp,43,↑,up,↑,0.9075724999420345,True,17,1,1,10
Y2-S2-247K19,5,450,AS,exp,49,→,right,→,0.8898423002101481,True,16,1,0,10
Y2-S2-247K19,5,451,AS,exp,28,↓,down,↓,1.4785612998530269,True,16,1,0,10
Y2-S2-247K19,5,452,AS,exp,45,←,left,←,0.6389342998154461,True,16,1,0,10
Y2-S2-247K19,5,453,AS,exp,37,→,right,→,0.9506820002570748,True,15,1,0,10
Y2-S2-247K19,5,454,AS,exp,36,↑,up,↑,0.9149166001006961,True,15,1,0,10
Y2-S2-247K19,5,455,AS,exp,30,↓,down,↓,0.8051284002140164,True,15,1,0,10
Y2-S2-247K19,5,456,AS,exp,37,→,right,→,0.7241159002296627,True,14,1,0,10
Y2-S2-247K19,5,457,AS,exp,44,↓,down,↓,0.9177015996538103,True,14,1,0,10
Y2-S2-247K19,5,458,AS,exp,27,↑,down,↓,1.1619728999212384,False,14,-1,1,11
Y2-S2-247K19,5,459,AS,exp,43,→,right,→,0.6566152996383607,True,15,-1,0,11
Y2-S2-247K19,5,460,AS,exp,26,↑,up,↑,0.8190099000930786,True,15,-1,0,11
Y2-S2-247K19,5,461,AS,exp,49,→,right,→,0.8091696999035776,True,15,1,1,12
Y2-S2-247K19,5,462,AS,exp,50,↓,down,↓,0.7903665001504123,True,14,1,0,12
Y2-S2-247K19,5,463,AS,exp,30,←,left,←,0.886523200199008,True,14,1,0,12
Y2-S2-247K19,5,464,AS,exp,25,→,right,→,0.8250070996582508,True,14,1,0,12
Y2-S2-247K19,5,465,AS,exp,26,←,right,→,0.8983750003390014,False,13,-1,1,13
Y2-S2-247K19,5,466,AS,exp,44,↓,down,↓,0.7777344998903573,True,14,-1,0,13
Y2-S2-247K19,5,467,AS,exp,48,←,left,←,0.9671380999498069,True,14,-1,0,13
Y2-S2-247K19,5,468,AS,exp,43,↓,right,→,0.8844142998568714,False,14,-1,0,13
Y2-S2-247K19,5,469,AS,exp,40,↑,up,↑,0.6649253000505269,True,15,-1,0,13
Y2-S2-247K19,5,470,AS,exp,41,→,right,→,0.7522832998074591,True,15,-1,0,13
Y2-S2-247K19,5,471,AS,exp,48,←,left,←,0.6913222000002861,True,15,1,1,14
Y2-S2-247K19,5,472,AS,exp,32,↓,up,↑,1.0953184999525547,False,14,-1,1,15
Y2-S2-247K19,5,473,AS,exp,25,→,left,←,0.6705669998191297,False,15,-1,0,15
Y2-S2-247K19,5,474,AS,exp,30,↓,down,↓,0.8891425998881459,True,16,-1,0,15
Y2-S2-247K19,5,475,AS,exp,29,↑,up,↑,0.7647768999449909,True,16,-1,0,15
Y2-S2-247K19,5,476,AS,exp,26,→,left,←,0.715136899612844,False,16,-1,0,15
Y2-S2-247K19,5,477,AS,exp,33,↑,up,↑,0.7536663003265858,True,17,-1,0,15
Y2-S2-247K19,5,478,AS,exp,45,←,left,←,0.9102356000803411,True,17,-1,0,15
Y2-S2-247K19,5,479,AS,exp,33,↓,up,↑,1.0686317002400756,False,17,-1,0,15
Y2-S2-247K19,5,480,AS,exp,48,↑,up,↑,1.1104097999632359,True,18,-1,0,15
Y2-S2-247K19,5,481,AS,exp,41,↓,left,←,1.1053698002360761,False,18,-1,0,15
Y2-S2-247K19,5,482,AS,exp,40,→,right,→,0.9142145998775959,True,19,-1,0,15
Y2-S2-247K19,5,483,AS,exp,43,←,left,←,0.9558732998557389,True,19,-1,0,15
Y2-S2-247K19,5,484,AS,exp,27,→,right,→,0.9889263999648392,True,19,1,1,16
Y2-S2-247K19,6,485,PS,intra_train,30,↑,left,←,1.7663585999980569,False,10,-,-,-
Y2-S2-247K19,6,486,PS,intra_train,36,←,left,←,0.7190398001112044,True,10,-,-,-
Y2-S2-247K19,6,487,PS,intra_train,40,↑,up,↑,0.7111472003161907,True,10,-,-,-
Y2-S2-247K19,6,488,PS,intra_train,30,←,left,←,0.5542124002240598,True,10,-,-,-
Y2-S2-247K19,6,489,PS,intra_train,35,→,right,→,0.5377245000563562,True,10,-,-,-
Y2-S2-247K19,6,490,PS,exp,29,↓,down,↓,0.6786778001114726,True,7,0,0,0
Y2-S2-247K19,6,491,PS,exp,29,→,up,↑,1.147714499849826,False,7,-1,0,0
Y2-S2-247K19,6,492,PS,exp,40,↓,down,↓,0.6784046003594995,True,8,-1,0,0
Y2-S2-247K19,6,493,PS,exp,38,←,left,←,0.6967557002790272,True,8,-1,0,0
Y2-S2-247K19,6,494,PS,exp,33,↓,down,↓,0.6831735000014305,True,8,1,1,1
Y2-S2-247K19,6,495,PS,exp,47,←,left,←,0.7776890997774899,True,7,1,0,1
Y2-S2-247K19,6,496,PS,exp,50,↑,up,↑,0.7788689001463354,True,7,1,0,1
Y2-S2-247K19,6,497,PS,exp,47,←,left,←,0.5727823004126549,True,7,1,0,1
Y2-S2-247K19,6,498,PS,exp,34,→,left,←,1.010394999757409,False,6,-1,1,2
Y2-S2-247K19,6,499,PS,exp,40,↓,down,↓,0.625151100102812,True,7,-1,0,2
Y2-S2-247K19,6,500,PS,exp,46,↑,left,←,0.7456012996844947,False,7,-1,0,2
Y2-S2-247K19,6,501,PS,exp,39,↓,down,↓,0.7572137000970542,True,8,-1,0,2
Y2-S2-247K19,6,502,PS,exp,31,→,right,→,0.6591398003511131,True,8,-1,0,2
Y2-S2-247K19,6,503,PS,exp,33,↑,up,↑,0.7304894998669624,True,8,1,1,3
Y2-S2-247K19,6,504,PS,exp,29,←,left,←,0.9961815997958183,True,7,1,0,3
Y2-S2-247K19,6,505,PS,exp,29,↑,up,↑,1.1653092997148633,True,7,1,0,3
Y2-S2-247K19,6,506,PS,exp,36,←,left,←,0.7489137998782098,True,7,1,0,3
Y2-S2-247K19,6,507,PS,exp,47,→,right,→,0.7088159997947514,True,6,1,0,3
Y2-S2-247K19,6,508,PS,exp,31,↑,up,↑,0.8655589995905757,True,6,1,0,3
Y2-S2-247K19,6,509,PS,exp,32,←,left,←,0.7895971001125872,True,6,1,0,3
Y2-S2-247K19,6,510,PS,exp,42,→,left,←,0.8008754998445511,False,5,-1,1,4
Y2-S2-247K19,6,511,PS,exp,46,↓,down,↓,0.745869199745357,True,6,-1,0,4
Y2-S2-247K19,6,512,PS,exp,38,→,right,→,0.7371828998439014,True,6,-1,0,4
Y2-S2-247K19,6,513,PS,exp,29,↓,left,←,0.8431449001654983,False,6,-1,0,4
Y2-S2-247K19,6,514,PS,exp,29,↑,up,↑,0.5522936000488698,True,7,-1,0,4
Y2-S2-247K19,6,515,PS,exp,50,→,right,→,0.6313811000436544,True,7,-1,0,4
Y2-S2-247K19,6,516,PS,exp,27,←,left,←,0.6509750997647643,True,7,1,1,5
Y2-S2-247K19,6,517,PS,exp,44,→,right,→,0.900123099796474,True,6,1,0,5
Y2-S2-247K19,6,518,PS,exp,35,↓,left,←,0.9113843999803066,False,6,-1,1,6
Y2-S2-247K19,6,519,PS,exp,39,→,right,→,0.606882999651134,True,7,-1,0,6
Y2-S2-247K19,6,520,PS,exp,44,↑,up,↑,0.6986310002394021,True,7,-1,0,6
Y2-S2-247K19,6,521,PS,exp,27,←,up,↑,0.7375066000968218,False,7,-1,0,6
Y2-S2-247K19,6,522,PS,exp,40,→,left,←,0.8825413999147713,False,8,-1,0,6
Y2-S2-247K19,6,523,PS,exp,26,←,left,←,0.49456549994647503,True,9,-1,0,6
Y2-S2-247K19,6,524,PS,exp,48,→,left,←,1.0201544999144971,False,9,-1,0,6
Y2-S2-247K19,6,525,PS,exp,31,←,left,←,0.9672043998725712,True,10,-1,0,6
Y2-S2-247K19,6,526,PS,exp,50,→,right,→,0.7308085998520255,True,10,-1,0,6
Y2-S2-247K19,6,527,PS,exp,34,←,left,←,0.8085074000991881,True,10,1,1,7
Y2-S2-247K19,6,528,PS,exp,42,↓,down,↓,1.0686129000969231,True,9,1,0,7
Y2-S2-247K19,6,529,PS,exp,27,→,right,→,0.8336789002642035,True,9,1,0,7
Y2-S2-247K19,6,530,PS,exp,37,←,right,→,0.9061388000845909,False,9,-1,1,8
Y2-S2-247K19,6,531,PS,exp,49,↑,up,↑,0.9108242997899652,True,10,-1,0,8
Y2-S2-247K19,6,532,PS,exp,25,←,left,←,0.8060364997945726,True,10,-1,0,8
Y2-S2-247K19,6,533,PS,exp,35,↑,up,↑,0.9732670001685619,True,10,1,1,9
Y2-S2-247K19,6,534,PS,exp,39,↓,down,↓,0.7409946997649968,True,9,1,0,9
Y2-S2-247K19,6,535,PS,exp,35,←,left,←,1.1072193998843431,True,9,1,0,9
Y2-S2-247K19,6,536,PS,exp,43,↑,up,↑,0.7008979003876448,True,9,1,0,9
Y2-S2-247K19,6,537,PS,exp,46,↓,down,↓,0.8348989002406597,True,8,1,0,9
Y2-S2-247K19,6,538,PS,exp,25,←,left,←,0.7646711999550462,True,8,1,0,9
Y2-S2-247K19,6,539,PS,exp,50,↓,up,↑,0.8592346999794245,False,8,-1,1,10
Y2-S2-247K19,6,540,PS,exp,34,↑,right,→,0.7323616999201477,False,9,-1,0,10
Y2-S2-247K19,6,541,PS,exp,27,↓,down,↓,0.8954912000335753,True,10,-1,0,10
Y2-S2-247K19,6,542,PS,exp,34,→,right,→,0.6488601001910865,True,10,-1,0,10
Y2-S2-247K19,6,543,PS,exp,32,↑,up,↑,0.5298355002887547,True,10,1,1,11
Y2-S2-247K19,6,544,PS,exp,45,→,right,→,0.7300346996635199,True,9,1,0,11
Y2-S2-247K19,6,545,PS,exp,28,↑,left,←,1.1381378001533449,False,9,-1,1,12
Y2-S2-247K19,6,546,PS,exp,42,←,left,←,0.6010755999013782,True,10,-1,0,12
Y2-S2-247K19,6,547,PS,exp,42,→,right,→,0.8180471998639405,True,10,-1,0,12
Y2-S2-247K19,6,548,PS,exp,38,←,left,←,0.7981171999126673,True,10,1,1,13
Y2-S2-247K19,6,549,PS,exp,31,↓,down,↓,1.132119100075215,True,9,1,0,13
Y2-S2-247K19,6,550,PS,exp,31,→,right,→,0.6166017996147275,True,9,1,0,13
Y2-S2-247K19,6,551,PS,exp,41,←,left,←,0.5743534998036921,True,9,1,0,13
Y2-S2-247K19,6,552,PS,exp,50,↓,down,↓,0.7565132998861372,True,8,1,0,13
Y2-S2-247K19,6,553,PS,exp,36,→,right,→,0.6014177002944052,True,8,1,0,13
Y2-S2-247K19,6,554,PS,exp,48,↓,down,↓,0.7628344004042447,True,8,1,0,13
Y2-S2-247K19,6,555,PS,exp,50,↑,down,↓,0.7121385997161269,False,7,-1,1,14
Y2-S2-247K19,6,556,PS,exp,41,←,left,←,0.8237171997316182,True,8,-1,0,14
Y2-S2-247K19,6,557,PS,exp,46,→,right,→,0.7823805999942124,True,8,-1,0,14
Y2-S2-247K19,6,558,PS,exp,38,↑,right,→,0.8662888002581894,False,8,-1,0,14
Y2-S2-247K19,6,559,PS,exp,49,↓,down,↓,0.7706583999097347,True,9,-1,0,14
Y2-S2-247K19,6,560,PS,exp,46,←,left,←,0.9980971999466419,True,9,-1,0,14
Y2-S2-247K19,6,561,PS,exp,40,↓,right,→,0.9347919998690486,False,9,-1,0,14
Y2-S2-247K19,6,562,PS,exp,31,←,left,←,1.08641010010615,True,10,-1,0,14
Y2-S2-247K19,6,563,PS,exp,27,↑,up,↑,0.901070199906826,True,10,-1,0,14
Y2-S2-247K19,6,564,PS,exp,43,↓,down,↓,0.704441400244832,True,10,1,1,15
Y2-S2-247K19,6,565,PS,exp,40,←,left,←,0.7858796999789774,True,9,1,0,15
Y2-S2-247K19,6,566,PS,exp,39,→,right,→,1.641646399628371,True,9,1,0,15
Y2-S2-247K19,6,567,PS,exp,50,↓,down,↓,0.7256940002553165,True,9,1,0,15
Y2-S2-247K19,6,568,PS,exp,25,→,right,→,0.6184772001579404,True,8,1,0,15
Y2-S2-247K19,6,569,PS,exp,42,←,right,→,0.9728132002055645,False,8,-1,1,16
Y2-S2-247K19,7,570,PS,intra_train,43,↑,up,↑,0.5812877002172172,True,10,-,-,-
Y2-S2-247K19,7,571,PS,intra_train,45,→,right,→,0.5906795999035239,True,10,-,-,-
Y2-S2-247K19,7,572,PS,intra_train,48,↓,down,↓,0.6493779001757503,True,10,-,-,-
Y2-S2-247K19,7,573,PS,intra_train,37,←,left,←,0.5075381998904049,True,10,-,-,-
Y2-S2-247K19,7,574,PS,intra_train,47,→,right,→,0.538580700289458,True,10,-,-,-
Y2-S2-247K19,7,575,PS,exp,39,↓,down,↓,0.6729266000911593,True,7,0,0,0
Y2-S2-247K19,7,576,PS,exp,40,↑,up,↑,0.5974217001348734,True,7,0,0,0
Y2-S2-247K19,7,577,PS,exp,40,←,left,←,0.572991400025785,True,7,1,0,0
Y2-S2-247K19,7,578,PS,exp,49,↓,down,↓,0.8140418999828398,True,6,1,0,0
Y2-S2-247K19,7,579,PS,exp,30,←,right,→,0.5477048000320792,False,6,-1,1,1
Y2-S2-247K19,7,580,PS,exp,37,↓,down,↓,0.7241515000350773,True,7,-1,0,1
Y2-S2-247K19,7,581,PS,exp,48,←,left,←,0.7703736000694335,True,7,-1,0,1
Y2-S2-247K19,7,582,PS,exp,49,↑,up,↑,0.643853799905628,True,7,1,1,2
Y2-S2-247K19,7,583,PS,exp,49,↓,down,↓,0.6794222998432815,True,6,1,0,2
Y2-S2-247K19,7,584,PS,exp,26,←,left,←,0.5500751002691686,True,6,1,0,2
Y2-S2-247K19,7,585,PS,exp,25,↑,up,↑,0.7725810999982059,True,6,1,0,2
Y2-S2-247K19,7,586,PS,exp,44,←,left,←,0.663914100266993,True,5,1,0,2
Y2-S2-247K19,7,587,PS,exp,40,↓,left,←,0.8386567002162337,False,5,-1,1,3
Y2-S2-247K19,7,588,PS,exp,47,↑,up,↑,0.7049341001547873,True,6,-1,0,3
Y2-S2-247K19,7,589,PS,exp,39,←,left,←,0.8863917998969555,True,6,-1,0,3
Y2-S2-247K19,7,590,PS,exp,38,↑,down,↓,0.8351634996943176,False,6,-1,0,3
Y2-S2-247K19,7,591,PS,exp,45,→,right,→,0.672414000146091,True,7,-1,0,3
Y2-S2-247K19,7,592,PS,exp,39,↑,up,↑,0.6451826002448797,True,7,-1,0,3
Y2-S2-247K19,7,593,PS,exp,41,←,left,←,0.7066241004504263,True,7,1,1,4
Y2-S2-247K19,7,594,PS,exp,43,↓,left,←,0.8187957000918686,False,6,-1,1,5
Y2-S2-247K19,7,595,PS,exp,47,→,right,→,0.5612053996883333,True,7,-1,0,5
Y2-S2-247K19,7,596,PS,exp,34,↑,up,↑,0.5745724001899362,True,7,-1,0,5
Y2-S2-247K19,7,597,PS,exp,28,←,left,←,0.7582153002731502,True,7,1,1,6
Y2-S2-247K19,7,598,PS,exp,41,↓,down,↓,0.6503230999223888,True,6,1,0,6
Y2-S2-247K19,7,599,PS,exp,40,←,right,→,1.0056149000301957,False,6,-1,1,7
Y2-S2-247K19,7,600,PS,exp,41,↓,down,↓,0.6852227002382278,True,7,-1,0,7
Y2-S2-247K19,7,601,PS,exp,41,↑,down,↓,1.0041029998101294,False,7,-1,0,7
Y2-S2-247K19,7,602,PS,exp,30,↓,down,↓,0.7458114000037313,True,8,-1,0,7
Y2-S2-247K19,7,603,PS,exp,48,↑,up,↑,0.5658611999824643,True,8,-1,0,7
Y2-S2-247K19,7,604,PS,exp,37,↓,up,↑,1.0034254002384841,False,8,-1,0,7
Y2-S2-247K19,7,605,PS,exp,47,←,left,←,0.7047421000897884,True,9,-1,0,7
Y2-S2-247K19,7,606,PS,exp,45,↓,left,←,1.0111465002410114,False,9,-1,0,7
Y2-S2-247K19,7,607,PS,exp,40,↑,up,↑,0.683833499904722,True,10,-1,0,7
Y2-S2-247K19,7,608,PS,exp,42,→,right,→,0.5721463998779655,True,10,-1,0,7
Y2-S2-247K19,7,609,PS,exp,50,↓,down,↓,0.7257757000625134,True,10,1,1,8
Y2-S2-247K19,7,610,PS,exp,35,→,right,→,0.6479795002378523,True,9,1,0,8
Y2-S2-247K19,7,611,PS,exp,48,↑,up,↑,0.7523143999278545,True,9,1,0,8
Y2-S2-247K19,7,612,PS,exp,27,←,right,→,1.0643210001289845,False,9,-1,1,9
Y2-S2-247K19,7,613,PS,exp,43,→,right,→,0.6296248999424279,True,10,-1,0,9
Y2-S2-247K19,7,614,PS,exp,29,←,left,←,0.8079492999240756,True,10,-1,0,9
Y2-S2-247K19,7,615,PS,exp,31,↓,down,↓,0.7065293001942337,True,10,1,1,10
Y2-S2-247K19,7,616,PS,exp,36,←,left,←,0.7586118001490831,True,9,1,0,10
Y2-S2-247K19,7,617,PS,exp,26,↓,down,↓,0.7343982001766562,True,9,1,0,10
Y2-S2-247K19,7,618,PS,exp,46,←,left,←,0.7981569999828935,True,9,1,0,10
Y2-S2-247K19,7,619,PS,exp,48,→,right,→,0.764693200122565,True,8,1,0,10
Y2-S2-247K19,7,620,PS,exp,44,←,right,→,0.9491547998040915,False,8,-1,1,11
Y2-S2-247K19,7,621,PS,exp,29,↓,down,↓,0.7965382998809218,True,9,-1,0,11
Y2-S2-247K19,7,622,PS,exp,44,←,left,←,0.6788304001092911,True,9,-1,0,11
Y2-S2-247K19,7,623,PS,exp,45,→,right,→,0.6973783997818828,True,9,1,1,12
Y2-S2-247K19,7,624,PS,exp,33,↑,up,↑,0.8102325000800192,True,8,1,0,12
Y2-S2-247K19,7,625,PS,exp,41,←,down,↓,0.8125628000125289,False,8,-1,1,13
Y2-S2-247K19,7,626,PS,exp,37,↓,down,↓,0.6785768996924162,True,9,-1,0,13
Y2-S2-247K19,7,627,PS,exp,43,↑,up,↑,0.6060879002325237,True,9,-1,0,13
Y2-S2-247K19,7,628,PS,exp,49,→,right,→,0.9676963998936117,True,9,1,1,14
Y2-S2-247K19,7,629,PS,exp,38,↑,up,↑,0.7555077997967601,True,8,1,0,14
Y2-S2-247K19,7,630,PS,exp,33,→,down,↓,0.8476194003596902,False,8,-1,1,15
Y2-S2-247K19,7,631,PS,exp,47,↓,down,↓,0.7871019998565316,True,9,-1,0,15
Y2-S2-247K19,7,632,PS,exp,50,↑,up,↑,0.8691540998406708,True,9,-1,0,15
Y2-S2-247K19,7,633,PS,exp,48,↓,down,↓,0.7826976999640465,True,9,1,1,16
Y2-S2-247K19,8,634,AS,intra_train,49,→,right,→,1.0941228996962309,True,36,-,-,-
Y2-S2-247K19,8,635,AS,intra_train,49,↓,down,↓,0.6839930000714958,True,36,-,-,-
Y2-S2-247K19,8,636,AS,intra_train,30,←,left,←,0.8108644001185894,True,36,-,-,-
Y2-S2-247K19,8,637,AS,intra_train,46,↓,down,↓,0.8054987001232803,True,36,-,-,-
Y2-S2-247K19,8,638,AS,intra_train,26,←,left,←,0.6665655998513103,True,36,-,-,-
Y2-S2-247K19,8,639,AS,exp,41,↓,left,←,0.612635999917984,False,24,-1,0,0
Y2-S2-247K19,8,640,AS,exp,35,↑,up,↑,0.7423697002232075,True,25,-1,0,0
Y2-S2-247K19,8,641,AS,exp,25,↓,down,↓,0.9047837001271546,True,25,-1,0,0
Y2-S2-247K19,8,642,AS,exp,29,↑,up,↑,0.7691017002798617,True,25,1,1,1
Y2-S2-247K19,8,643,AS,exp,41,↓,down,↓,0.6911928001791239,True,24,1,0,1
Y2-S2-247K19,8,644,AS,exp,41,←,left,←,0.6512934002093971,True,24,1,0,1
Y2-S2-247K19,8,645,AS,exp,47,↑,up,↑,0.6794278002344072,True,24,1,0,1
Y2-S2-247K19,8,646,AS,exp,32,↓,down,↓,0.9128438998013735,True,23,1,0,1
Y2-S2-247K19,8,647,AS,exp,49,→,right,→,0.7418474000878632,True,23,1,0,1
Y2-S2-247K19,8,648,AS,exp,36,↑,up,↑,0.9145905999466777,True,23,1,0,1
Y2-S2-247K19,8,649,AS,exp,29,↓,down,↓,0.9189182999543846,True,22,1,0,1
Y2-S2-247K19,8,650,AS,exp,25,↑,up,↑,0.6579621997661889,True,22,1,0,1
Y2-S2-247K19,8,651,AS,exp,31,↓,down,↓,0.9113656003028154,True,22,1,0,1
Y2-S2-247K19,8,652,AS,exp,46,←,left,←,1.8614166998304427,True,21,1,0,1
Y2-S2-247K19,8,653,AS,exp,35,↓,down,↓,1.3680421002209187,True,21,1,0,1
Y2-S2-247K19,8,654,AS,exp,39,↑,up,↑,0.7161467000842094,True,21,1,0,1
Y2-S2-247K19,8,655,AS,exp,36,→,right,→,1.00344070000574,True,20,1,0,1
Y2-S2-247K19,8,656,AS,exp,47,↑,up,↑,0.9978658999316394,True,20,1,0,1
Y2-S2-247K19,8,657,AS,exp,40,←,left,←,0.6623583999462426,True,20,1,0,1
Y2-S2-247K19,8,658,AS,exp,25,↓,down,↓,0.8252001004293561,True,19,1,0,1
Y2-S2-247K19,8,659,AS,exp,28,↑,up,↑,0.922165900003165,True,19,1,0,1
Y2-S2-247K19,8,660,AS,exp,33,↓,down,↓,0.9188739000819623,True,19,1,0,1
Y2-S2-247K19,8,661,AS,exp,35,↑,left,←,1.8095308002084494,False,18,-1,1,2
Y2-S2-247K19,8,662,AS,exp,49,→,right,→,0.8251196001656353,True,19,-1,0,2
Y2-S2-247K19,8,663,AS,exp,36,↓,down,↓,0.715915999840945,True,19,-1,0,2
Y2-S2-247K19,8,664,AS,exp,25,↑,up,↑,0.6999335000291467,True,19,1,1,3
Y2-S2-247K19,8,665,AS,exp,43,↓,up,↑,1.0003335997462273,False,18,-1,1,4
Y2-S2-247K19,8,666,AS,exp,43,↑,right,→,1.4217452998273075,False,19,-1,0,4
Y2-S2-247K19,8,667,AS,exp,36,←,left,←,0.8343680999241769,True,20,-1,0,4
Y2-S2-247K19,8,668,AS,exp,47,→,right,→,1.3110247999429703,True,20,-1,0,4
Y2-S2-247K19,8,669,AS,exp,46,←,left,←,0.7330935001373291,True,20,1,1,5
Y2-S2-247K19,8,670,AS,exp,39,↓,down,↓,0.7030329001136124,True,19,1,0,5
Y2-S2-247K19,8,671,AS,exp,27,↑,up,↑,0.7885814001783729,True,19,1,0,5
Y2-S2-247K19,8,672,AS,exp,40,←,left,←,0.709160499740392,True,19,1,0,5
Y2-S2-247K19,8,673,AS,exp,48,↑,up,↑,0.7565839998424053,True,18,1,0,5
Y2-S2-247K19,8,674,AS,exp,32,→,right,→,0.6365836998447776,True,18,1,0,5
Y2-S2-247K19,8,675,AS,exp,49,←,left,←,0.8136904002167284,True,18,1,0,5
Y2-S2-247K19,8,676,AS,exp,45,→,up,↑,0.8786679999902844,False,17,-1,1,6
Y2-S2-247K19,8,677,AS,exp,45,↓,down,↓,0.9946599998511374,True,18,-1,0,6
Y2-S2-247K19,8,678,AS,exp,25,←,left,←,0.910237000323832,True,18,-1,0,6
Y2-S2-247K19,8,679,AS,exp,50,↓,left,←,0.9894193997606635,False,18,-1,0,6
Y2-S2-247K19,8,680,AS,exp,42,↑,up,↑,0.648602600209415,True,19,-1,0,6
Y2-S2-247K19,8,681,AS,exp,44,→,right,→,0.8179353000596166,True,19,-1,0,6
Y2-S2-247K19,8,682,AS,exp,40,←,left,←,0.9600084996782243,True,19,1,1,7
Y2-S2-247K19,8,683,AS,exp,46,→,left,←,0.983481400180608,False,18,-1,1,8
Y2-S2-247K19,8,684,AS,exp,45,←,left,←,0.58397960010916,True,19,-1,0,8
Y2-S2-247K19,8,685,AS,exp,32,→,right,→,1.113440299872309,True,19,-1,0,8
Y2-S2-247K19,8,686,AS,exp,30,↓,down,↓,1.1645840001292527,True,19,1,1,9
Y2-S2-247K19,8,687,AS,exp,44,↑,left,←,1.3850314002484083,False,18,-1,1,10
Y2-S2-247K19,8,688,AS,exp,50,→,right,→,0.9099042001180351,True,19,-1,0,10
Y2-S2-247K19,8,689,AS,exp,43,←,left,←,0.7232925002463162,True,19,-1,0,10
Y2-S2-247K19,8,690,AS,exp,47,↓,down,↓,0.8956841002218425,True,19,1,1,11
Y2-S2-247K19,8,691,AS,exp,31,→,right,→,0.9065819000825286,True,18,1,0,11
Y2-S2-247K19,8,692,AS,exp,36,↑,up,↑,0.9516083002090454,True,18,1,0,11
Y2-S2-247K19,8,693,AS,exp,25,←,right,→,1.5877279001288116,False,18,-1,1,12
Y2-S2-247K19,8,694,AS,exp,36,↓,down,↓,1.511851899791509,True,19,-1,0,12
Y2-S2-247K19,8,695,AS,exp,39,→,left,←,0.6234948001801968,False,19,-1,0,12
Y2-S2-247K19,8,696,AS,exp,38,↓,down,↓,0.8860820000991225,True,20,-1,0,12
Y2-S2-247K19,8,697,AS,exp,47,↑,up,↑,0.6615466997027397,True,20,-1,0,12
Y2-S2-247K19,8,698,AS,exp,44,←,left,←,1.305918499827385,True,20,1,1,13
Y2-S2-247K19,8,699,AS,exp,38,↓,down,↓,0.9312384999357164,True,19,1,0,13
Y2-S2-247K19,8,700,AS,exp,38,→,no_key,no_letter,-1.0,False,19,-1,1,14
Y2-S2-247K19,8,701,AS,exp,33,↓,down,↓,0.8165339999832213,True,20,-1,0,14
Y2-S2-247K19,8,702,AS,exp,37,←,left,←,0.7716724001802504,True,20,-1,0,14
Y2-S2-247K19,8,703,AS,exp,46,↓,down,↓,0.8163363002240658,True,20,1,1,15
Y2-S2-247K19,8,704,AS,exp,28,←,left,←,0.7706483998335898,True,19,1,0,15
Y2-S2-247K19,8,705,AS,exp,30,↓,down,↓,0.730895800050348,True,19,1,0,15
Y2-S2-247K19,8,706,AS,exp,29,←,left,←,0.867802600376308,True,19,1,0,15
Y2-S2-247K19,8,707,AS,exp,46,↑,up,↑,1.284630199894309,True,18,1,0,15
Y2-S2-247K19,8,708,AS,exp,35,→,right,→,0.9700496001169086,True,18,1,0,15
Y2-S2-247K19,8,709,AS,exp,37,←,left,←,0.8423643000423908,True,18,1,0,15
Y2-S2-247K19,8,710,AS,exp,42,→,right,→,1.2497029998339713,True,17,1,0,15
Y2-S2-247K19,8,711,AS,exp,31,↓,down,↓,0.8544638999737799,True,17,1,0,15
Y2-S2-247K19,8,712,AS,exp,43,←,left,←,0.727483999915421,True,17,1,0,15
Y2-S2-247K19,8,713,AS,exp,45,→,right,→,0.7522938000038266,True,16,1,0,15
Y2-S2-247K19,8,714,AS,exp,44,↓,down,↓,1.0980261997319758,True,16,1,0,15
Y2-S2-247K19,8,715,AS,exp,43,↑,up,↑,0.8072048998437822,True,16,1,0,15
Y2-S2-247K19,8,716,AS,exp,40,↓,down,↓,0.581218000035733,True,15,1,0,15
Y2-S2-247K19,8,717,AS,exp,46,←,left,←,0.9111812999472022,True,15,1,0,15
Y2-S2-247K19,8,718,AS,exp,32,→,right,→,0.9220222998410463,True,15,1,0,15
Y2-S2-247K19,8,719,AS,exp,38,←,left,←,1.7585154003463686,True,14,1,0,15
Y2-S2-247K19,8,720,AS,exp,45,↑,down,↓,0.9920652001164854,False,14,-1,1,16
