PART_ID,Block_no,Trial_no,Block_type,Trial_type,CSI,Stim_letter,Key_pressed,letter_choose,Rt,Corr,Stimulus Time,Level,Reversal,Revs_count
Y2-S2-130K21,1,1,PS,train,48,↓,down,↓,0.7213623998686671,True,30,-,-,-
Y2-S2-130K21,1,2,PS,train,48,←,left,←,0.6973120998591185,True,30,-,-,-
Y2-S2-130K21,1,3,PS,train,44,↑,up,↑,0.6760216001421213,True,30,-,-,-
Y2-S2-130K21,1,4,PS,train,40,←,left,←,0.6176818991079926,True,30,-,-,-
Y2-S2-130K21,1,5,PS,train,46,→,right,→,1.4953858004882932,True,30,-,-,-
Y2-S2-130K21,1,6,PS,train,34,↓,down,↓,0.5838926006108522,True,30,-,-,-
Y2-S2-130K21,1,7,PS,train,40,←,left,←,0.4510214999318123,True,30,-,-,-
Y2-S2-130K21,1,8,PS,train,44,↓,down,↓,0.5006452007219195,True,30,-,-,-
Y2-S2-130K21,1,9,PS,train,39,←,left,←,1.1844822997227311,True,30,-,-,-
Y2-S2-130K21,1,10,PS,train,35,→,right,→,0.4180605001747608,True,30,-,-,-
Y2-S2-130K21,2,11,AS,train,39,↓,down,↓,0.6011276999488473,True,45,-,-,-
Y2-S2-130K21,2,12,AS,train,50,→,right,→,0.6008965000510216,True,45,-,-,-
Y2-S2-130K21,2,13,AS,train,33,←,left,←,0.5177879994735122,True,45,-,-,-
Y2-S2-130K21,2,14,AS,train,43,→,right,→,0.7177169993519783,True,45,-,-,-
Y2-S2-130K21,2,15,AS,train,41,↓,down,↓,0.5175441997125745,True,45,-,-,-
Y2-S2-130K21,2,16,AS,train,41,→,right,→,0.5678381994366646,True,45,-,-,-
Y2-S2-130K21,2,17,AS,train,46,↓,down,↓,0.5677132001146674,True,45,-,-,-
Y2-S2-130K21,2,18,AS,train,50,↑,up,↑,0.76730199996382,True,45,-,-,-
Y2-S2-130K21,2,19,AS,train,39,←,left,←,0.6678390000015497,True,45,-,-,-
Y2-S2-130K21,2,20,AS,train,37,→,right,→,0.534515299834311,True,45,-,-,-
Y2-S2-130K21,-,21,PS,adaptive,30,↓,down,↓,0.40383260045200586,True,10,0,0,0
Y2-S2-130K21,-,22,PS,adaptive,32,→,right,→,0.5387981003150344,True,10,0,0,0
Y2-S2-130K21,-,23,PS,adaptive,26,↑,up,↑,0.6057076994329691,True,10,1,0,0
Y2-S2-130K21,-,24,PS,adaptive,44,→,right,→,1.1222354993224144,True,9,1,0,0
Y2-S2-130K21,-,25,PS,adaptive,45,←,left,←,0.5738257998600602,True,9,1,0,0
Y2-S2-130K21,-,26,PS,adaptive,25,→,up,↑,0.9919806001707911,False,9,-1,1,1
Y2-S2-130K21,-,27,PS,adaptive,26,↑,left,←,0.7510472005233169,False,10,-1,0,1
Y2-S2-130K21,-,28,PS,adaptive,41,→,right,→,1.2616328001022339,True,11,-1,0,1
Y2-S2-130K21,-,29,PS,adaptive,32,←,left,←,0.5385344997048378,True,11,-1,0,1
Y2-S2-130K21,-,30,PS,adaptive,25,↓,down,↓,0.7218594998121262,True,11,1,1,2
Y2-S2-130K21,-,31,PS,adaptive,27,→,right,→,0.4397179000079632,True,10,1,0,2
Y2-S2-130K21,-,32,PS,adaptive,33,↑,up,↑,0.484128899872303,True,10,1,0,2
Y2-S2-130K21,-,33,PS,adaptive,49,←,left,←,0.5762617997825146,True,10,1,0,2
Y2-S2-130K21,-,34,PS,adaptive,41,→,left,←,0.7832713993266225,False,9,-1,1,3
Y2-S2-130K21,-,35,PS,adaptive,40,↑,left,←,0.8935797000303864,False,10,-1,0,3
Y2-S2-130K21,-,36,PS,adaptive,28,←,right,→,0.8918128004297614,False,11,-1,0,3
Y2-S2-130K21,-,37,PS,adaptive,33,↑,up,↑,0.4735334003344178,True,12,-1,0,3
Y2-S2-130K21,-,38,PS,adaptive,31,→,right,→,0.8360930997878313,True,12,-1,0,3
Y2-S2-130K21,-,39,PS,adaptive,40,↓,up,↑,0.668877899646759,False,12,-1,0,3
Y2-S2-130K21,-,40,PS,adaptive,28,→,left,←,0.8392949001863599,False,13,-1,0,3
Y2-S2-130K21,-,41,PS,adaptive,30,↑,left,←,0.841796999797225,False,14,-1,0,3
Y2-S2-130K21,-,42,PS,adaptive,38,↓,down,↓,0.6254006000235677,True,15,-1,0,3
Y2-S2-130K21,-,43,PS,adaptive,27,←,left,←,0.6207075007259846,True,15,-1,0,3
Y2-S2-130K21,-,44,PS,adaptive,26,↓,right,→,0.6714257001876831,False,15,-1,0,3
Y2-S2-130K21,-,45,PS,adaptive,36,↑,up,↑,0.5266463998705149,True,16,-1,0,3
Y2-S2-130K21,-,46,PS,adaptive,48,→,right,→,0.5413658004254103,True,16,-1,0,3
Y2-S2-130K21,-,47,PS,adaptive,50,↓,down,↓,0.7874555997550488,True,16,1,1,4
Y2-S2-130K21,-,48,AS,adaptive,45,↑,up,↑,0.6684109000489116,True,20,0,0,0
Y2-S2-130K21,-,49,AS,adaptive,40,→,right,→,0.8241830999031663,True,20,0,0,0
Y2-S2-130K21,-,50,AS,adaptive,26,↑,up,↑,0.545219499617815,True,20,1,0,0
Y2-S2-130K21,-,51,AS,adaptive,50,←,left,←,0.6734496997669339,True,19,1,0,0
Y2-S2-130K21,-,52,AS,adaptive,44,→,right,→,0.38365809991955757,True,19,1,0,0
Y2-S2-130K21,-,53,AS,adaptive,41,←,left,←,0.41728509962558746,True,19,1,0,0
Y2-S2-130K21,-,54,AS,adaptive,33,↓,down,↓,0.5440461002290249,True,18,1,0,0
Y2-S2-130K21,-,55,AS,adaptive,46,←,right,→,0.7132826000452042,False,18,-1,1,1
Y2-S2-130K21,-,56,AS,adaptive,45,↑,up,↑,0.6876369994133711,True,19,-1,0,1
Y2-S2-130K21,-,57,AS,adaptive,42,→,right,→,0.5466844001784921,True,19,-1,0,1
Y2-S2-130K21,-,58,AS,adaptive,40,←,left,←,0.6696097999811172,True,19,1,1,2
Y2-S2-130K21,-,59,AS,adaptive,27,↑,up,↑,1.411349999718368,True,18,1,0,2
Y2-S2-130K21,-,60,AS,adaptive,29,→,left,←,0.8913901001214981,False,18,-1,1,3
Y2-S2-130K21,-,61,AS,adaptive,50,↓,down,↓,0.5661680996417999,True,19,-1,0,3
Y2-S2-130K21,-,62,AS,adaptive,42,↑,down,↓,1.560601900331676,False,19,-1,0,3
Y2-S2-130K21,-,63,AS,adaptive,39,←,left,←,0.6445116996765137,True,20,-1,0,3
Y2-S2-130K21,-,64,AS,adaptive,39,↓,down,↓,0.6960757998749614,True,20,-1,0,3
Y2-S2-130K21,-,65,AS,adaptive,30,↑,up,↑,0.6799110993742943,True,20,1,1,4
Y2-S2-130K21,1,66,AS,intra_train,46,↓,down,↓,0.8520464999601245,True,28,-,-,-
Y2-S2-130K21,1,67,AS,intra_train,40,←,left,←,0.6652612993493676,True,28,-,-,-
Y2-S2-130K21,1,68,AS,intra_train,26,↑,up,↑,0.5174319995567203,True,28,-,-,-
Y2-S2-130K21,1,69,AS,intra_train,50,←,no_key,no_letter,-1.0,False,28,-,-,-
Y2-S2-130K21,1,70,AS,intra_train,42,↓,up,↑,0.5507758995518088,False,28,-,-,-
Y2-S2-130K21,1,71,AS,exp,46,↑,up,↑,0.9320160001516342,True,19,0,0,0
Y2-S2-130K21,1,72,AS,exp,47,→,left,←,0.7478620996698737,False,19,-1,0,0
Y2-S2-130K21,1,73,AS,exp,34,←,left,←,1.5375949991866946,True,20,-1,0,0
Y2-S2-130K21,1,74,AS,exp,30,→,right,→,0.6117110997438431,True,20,-1,0,0
Y2-S2-130K21,1,75,AS,exp,35,←,left,←,0.5847513005137444,True,20,1,1,1
Y2-S2-130K21,1,76,AS,exp,43,→,up,↑,1.36359169986099,False,19,-1,1,2
Y2-S2-130K21,1,77,AS,exp,44,↓,down,↓,0.6779713993892074,True,20,-1,0,2
Y2-S2-130K21,1,78,AS,exp,40,↑,up,↑,0.6797335995361209,True,20,-1,0,2
Y2-S2-130K21,1,79,AS,exp,30,→,right,→,0.4506576005369425,True,20,1,1,3
Y2-S2-130K21,1,80,AS,exp,33,←,left,←,0.67543809954077,True,19,1,0,3
Y2-S2-130K21,1,81,AS,exp,48,→,no_key,no_letter,-1.0,False,19,-1,1,4
Y2-S2-130K21,1,82,AS,exp,33,←,left,←,1.2361549008637667,True,20,-1,0,4
Y2-S2-130K21,1,83,AS,exp,29,↑,up,↑,0.6445748992264271,True,20,-1,0,4
Y2-S2-130K21,1,84,AS,exp,35,←,left,←,0.7616028003394604,True,20,1,1,5
Y2-S2-130K21,1,85,AS,exp,43,↑,up,↑,0.7919279998168349,True,19,1,0,5
Y2-S2-130K21,1,86,AS,exp,31,→,right,→,0.6380607997998595,True,19,1,0,5
Y2-S2-130K21,1,87,AS,exp,41,↑,down,↓,0.9302547005936503,False,19,-1,1,6
Y2-S2-130K21,1,88,AS,exp,26,←,left,←,0.9283637003973126,True,20,-1,0,6
Y2-S2-130K21,1,89,AS,exp,28,→,up,↑,1.2810403006151319,False,20,-1,0,6
Y2-S2-130K21,1,90,AS,exp,49,↓,right,→,0.9415988000109792,False,21,-1,0,6
Y2-S2-130K21,1,91,AS,exp,34,↑,no_key,no_letter,-1.0,False,22,-1,0,6
Y2-S2-130K21,1,92,AS,exp,48,→,right,→,0.6295591006055474,True,23,-1,0,6
Y2-S2-130K21,1,93,AS,exp,49,←,up,↑,0.8272546995431185,False,23,-1,0,6
Y2-S2-130K21,1,94,AS,exp,30,→,right,→,0.6423086998984218,True,24,-1,0,6
Y2-S2-130K21,1,95,AS,exp,35,←,left,←,0.7092377003282309,True,24,-1,0,6
Y2-S2-130K21,1,96,AS,exp,50,↓,down,↓,0.6733402004465461,True,24,1,1,7
Y2-S2-130K21,1,97,AS,exp,28,←,down,↓,1.842336700297892,False,23,-1,1,8
Y2-S2-130K21,1,98,AS,exp,41,→,right,→,0.4336419003084302,True,24,-1,0,8
Y2-S2-130K21,1,99,AS,exp,28,↓,down,↓,0.7633718000724912,True,24,-1,0,8
Y2-S2-130K21,1,100,AS,exp,29,→,right,→,0.5907624000683427,True,24,1,1,9
Y2-S2-130K21,1,101,AS,exp,41,←,left,←,0.5004447000101209,True,23,1,0,9
Y2-S2-130K21,1,102,AS,exp,27,↓,up,↑,0.9265454998239875,False,23,-1,1,10
Y2-S2-130K21,1,103,AS,exp,45,↑,up,↑,0.7022217996418476,True,24,-1,0,10
Y2-S2-130K21,1,104,AS,exp,44,←,left,←,0.6876001004129648,True,24,-1,0,10
Y2-S2-130K21,1,105,AS,exp,36,→,right,→,0.4505350003018975,True,24,1,1,11
Y2-S2-130K21,1,106,AS,exp,46,←,left,←,0.5867996998131275,True,23,1,0,11
Y2-S2-130K21,1,107,AS,exp,45,↑,up,↑,0.8369831005111337,True,23,1,0,11
Y2-S2-130K21,1,108,AS,exp,31,→,no_key,no_letter,-1.0,False,23,-1,1,12
Y2-S2-130K21,1,109,AS,exp,44,↓,down,↓,0.6728396005928516,True,24,-1,0,12
Y2-S2-130K21,1,110,AS,exp,37,→,right,→,0.5339433001354337,True,24,-1,0,12
Y2-S2-130K21,1,111,AS,exp,47,↓,down,↓,0.6306012999266386,True,24,1,1,13
Y2-S2-130K21,1,112,AS,exp,47,→,left,←,0.9610776994377375,False,23,-1,1,14
Y2-S2-130K21,1,113,AS,exp,40,←,left,←,1.0039678998291492,True,24,-1,0,14
Y2-S2-130K21,1,114,AS,exp,44,↑,up,↑,0.6442624004557729,True,24,-1,0,14
Y2-S2-130K21,1,115,AS,exp,27,←,up,↑,1.4859867999330163,False,24,-1,0,14
Y2-S2-130K21,1,116,AS,exp,34,↑,up,↑,0.6725634997710586,True,25,-1,0,14
Y2-S2-130K21,1,117,AS,exp,35,←,left,←,0.6559770004823804,True,25,-1,0,14
Y2-S2-130K21,1,118,AS,exp,50,↓,down,↓,0.8998354999348521,True,25,1,1,15
Y2-S2-130K21,1,119,AS,exp,33,←,left,←,0.5844237999990582,True,24,1,0,15
Y2-S2-130K21,1,120,AS,exp,49,↑,up,↑,0.4505866998806596,True,24,1,0,15
Y2-S2-130K21,1,121,AS,exp,47,→,right,→,0.45085550006479025,True,24,1,0,15
Y2-S2-130K21,1,122,AS,exp,42,←,left,←,1.021160800009966,True,23,1,0,15
Y2-S2-130K21,1,123,AS,exp,40,↓,down,↓,0.7340936996042728,True,23,1,0,15
Y2-S2-130K21,1,124,AS,exp,46,←,down,↓,1.2339741997420788,False,23,-1,1,16
Y2-S2-130K21,2,125,PS,intra_train,43,↓,up,↑,1.344140000641346,False,22,-,-,-
Y2-S2-130K21,2,126,PS,intra_train,48,←,left,←,0.500505100004375,True,22,-,-,-
Y2-S2-130K21,2,127,PS,intra_train,40,→,right,→,0.4170617004856467,True,22,-,-,-
Y2-S2-130K21,2,128,PS,intra_train,45,↑,up,↑,1.8799524996429682,True,22,-,-,-
Y2-S2-130K21,2,129,PS,intra_train,35,←,left,←,0.6239932999014854,True,22,-,-,-
Y2-S2-130K21,2,130,PS,exp,41,↑,up,↑,0.4849042994901538,True,15,0,0,0
Y2-S2-130K21,2,131,PS,exp,25,→,right,→,0.5658844001591206,True,15,0,0,0
Y2-S2-130K21,2,132,PS,exp,33,↑,up,↑,0.4764467002823949,True,15,1,0,0
Y2-S2-130K21,2,133,PS,exp,34,↓,down,↓,0.6993735004216433,True,14,1,0,0
Y2-S2-130K21,2,134,PS,exp,42,↑,up,↑,0.4483542004600167,True,14,1,0,0
Y2-S2-130K21,2,135,PS,exp,50,→,right,→,0.4421650003641844,True,14,1,0,0
Y2-S2-130K21,2,136,PS,exp,35,↑,up,↑,0.47014669980853796,True,13,1,0,0
Y2-S2-130K21,2,137,PS,exp,32,→,right,→,0.847252800129354,True,13,1,0,0
Y2-S2-130K21,2,138,PS,exp,41,↓,down,↓,0.6540299998596311,True,13,1,0,0
Y2-S2-130K21,2,139,PS,exp,42,↑,up,↑,0.6187146995216608,True,12,1,0,0
Y2-S2-130K21,2,140,PS,exp,46,↓,down,↓,0.5440787002444267,True,12,1,0,0
Y2-S2-130K21,2,141,PS,exp,33,→,right,→,0.6373357996344566,True,12,1,0,0
Y2-S2-130K21,2,142,PS,exp,27,↓,down,↓,0.7075714999809861,True,11,1,0,0
Y2-S2-130K21,2,143,PS,exp,44,↑,up,↑,0.4789862995967269,True,11,1,0,0
Y2-S2-130K21,2,144,PS,exp,25,→,right,→,0.4682442005723715,True,11,1,0,0
Y2-S2-130K21,2,145,PS,exp,44,↓,down,↓,0.6303214002400637,True,10,1,0,0
Y2-S2-130K21,2,146,PS,exp,40,→,right,→,0.4800154995173216,True,10,1,0,0
Y2-S2-130K21,2,147,PS,exp,36,↑,up,↑,0.5596151007339358,True,10,1,0,0
Y2-S2-130K21,2,148,PS,exp,34,↓,up,↑,0.746543399989605,False,9,-1,1,1
Y2-S2-130K21,2,149,PS,exp,33,←,left,←,0.7352729998528957,True,10,-1,0,1
Y2-S2-130K21,2,150,PS,exp,50,→,right,→,0.5953607996925712,True,10,-1,0,1
Y2-S2-130K21,2,151,PS,exp,40,←,left,←,0.6348040997982025,True,10,1,1,2
Y2-S2-130K21,2,152,PS,exp,37,↑,right,→,0.7852111998945475,False,9,-1,1,3
Y2-S2-130K21,2,153,PS,exp,50,←,left,←,0.5742589002475142,True,10,-1,0,3
Y2-S2-130K21,2,154,PS,exp,39,→,right,→,0.6167530994862318,True,10,-1,0,3
Y2-S2-130K21,2,155,PS,exp,25,↓,up,↑,0.85124840028584,False,10,-1,0,3
Y2-S2-130K21,2,156,PS,exp,41,←,down,↓,0.8755427002906799,False,11,-1,0,3
Y2-S2-130K21,2,157,PS,exp,41,→,right,→,0.5070123001933098,True,12,-1,0,3
Y2-S2-130K21,2,158,PS,exp,43,↓,down,↓,0.6374353999271989,True,12,-1,0,3
Y2-S2-130K21,2,159,PS,exp,30,↑,up,↑,0.7240385999903083,True,12,1,1,4
Y2-S2-130K21,2,160,PS,exp,37,←,right,→,0.8165239999070764,False,11,-1,1,5
Y2-S2-130K21,2,161,PS,exp,34,→,left,←,0.9819983001798391,False,12,-1,0,5
Y2-S2-130K21,2,162,PS,exp,33,↓,down,↓,0.7448706002905965,True,13,-1,0,5
Y2-S2-130K21,2,163,PS,exp,25,↑,up,↑,0.4498799005523324,True,13,-1,0,5
Y2-S2-130K21,2,164,PS,exp,29,←,left,←,0.5521887000650167,True,13,1,1,6
Y2-S2-130K21,2,165,PS,exp,29,→,right,→,0.5357157001271844,True,12,1,0,6
Y2-S2-130K21,2,166,PS,exp,50,↑,up,↑,0.7189644994214177,True,12,1,0,6
Y2-S2-130K21,2,167,PS,exp,46,←,right,→,0.4881936004385352,False,12,-1,1,7
Y2-S2-130K21,2,168,PS,exp,48,↑,up,↑,0.49049750063568354,True,13,-1,0,7
Y2-S2-130K21,2,169,PS,exp,39,↓,up,↑,0.7324902005493641,False,13,-1,0,7
Y2-S2-130K21,2,170,PS,exp,37,↑,right,→,1.1951920008286834,False,14,-1,0,7
Y2-S2-130K21,2,171,PS,exp,40,↓,down,↓,0.6170455999672413,True,15,-1,0,7
Y2-S2-130K21,2,172,PS,exp,44,→,right,→,0.43016740027815104,True,15,-1,0,7
Y2-S2-130K21,2,173,PS,exp,39,←,left,←,0.6361486995592713,True,15,1,1,8
Y2-S2-130K21,2,174,PS,exp,44,↓,down,↓,0.317348700016737,True,14,1,0,8
Y2-S2-130K21,2,175,PS,exp,48,↑,up,↑,0.7336595002561808,True,14,1,0,8
Y2-S2-130K21,2,176,PS,exp,47,↓,up,↑,1.6929454002529383,False,14,-1,1,9
Y2-S2-130K21,2,177,PS,exp,27,→,right,→,0.5450045997276902,True,15,-1,0,9
Y2-S2-130K21,2,178,PS,exp,38,↑,right,→,1.3377160001546144,False,15,-1,0,9
Y2-S2-130K21,2,179,PS,exp,32,→,right,→,0.507600300014019,True,16,-1,0,9
Y2-S2-130K21,2,180,PS,exp,42,↓,down,↓,0.5535253994166851,True,16,-1,0,9
Y2-S2-130K21,2,181,PS,exp,47,←,left,←,0.613145999610424,True,16,1,1,10
Y2-S2-130K21,2,182,PS,exp,46,↑,up,↑,0.4206528998911381,True,15,1,0,10
Y2-S2-130K21,2,183,PS,exp,45,←,left,←,0.6578784994781017,True,15,1,0,10
Y2-S2-130K21,2,184,PS,exp,40,↑,up,↑,0.6087128007784486,True,15,1,0,10
Y2-S2-130K21,2,185,PS,exp,39,←,left,←,0.9502862999215722,True,14,1,0,10
Y2-S2-130K21,2,186,PS,exp,48,→,right,→,0.8071089005097747,True,14,1,0,10
Y2-S2-130K21,2,187,PS,exp,46,↑,down,↓,1.0989675000309944,False,14,-1,1,11
Y2-S2-130K21,2,188,PS,exp,45,↓,down,↓,0.8854246996343136,True,15,-1,0,11
Y2-S2-130K21,2,189,PS,exp,44,↑,up,↑,0.4645491000264883,True,15,-1,0,11
Y2-S2-130K21,2,190,PS,exp,33,←,left,←,0.45817040000110865,True,15,1,1,12
Y2-S2-130K21,2,191,PS,exp,28,↓,left,←,0.7847165996208787,False,14,-1,1,13
Y2-S2-130K21,2,192,PS,exp,45,←,left,←,0.5236252006143332,True,15,-1,0,13
Y2-S2-130K21,2,193,PS,exp,38,↓,down,↓,0.5019332999363542,True,15,-1,0,13
Y2-S2-130K21,2,194,PS,exp,32,↑,right,→,0.4191022999584675,False,15,-1,0,13
Y2-S2-130K21,2,195,PS,exp,46,←,right,→,0.47336020041257143,False,16,-1,0,13
Y2-S2-130K21,2,196,PS,exp,28,↑,up,↑,0.6351674003526568,True,17,-1,0,13
Y2-S2-130K21,2,197,PS,exp,32,→,right,→,0.5665702000260353,True,17,-1,0,13
Y2-S2-130K21,2,198,PS,exp,41,↓,down,↓,0.6510801995173097,True,17,1,1,14
Y2-S2-130K21,2,199,PS,exp,45,→,right,→,0.4452168997377157,True,16,1,0,14
Y2-S2-130K21,2,200,PS,exp,50,↓,left,←,0.6041479995474219,False,16,-1,1,15
Y2-S2-130K21,2,201,PS,exp,47,↑,up,↑,1.089941400103271,True,17,-1,0,15
Y2-S2-130K21,2,202,PS,exp,28,↓,down,↓,0.7172270994633436,True,17,-1,0,15
Y2-S2-130K21,2,203,PS,exp,37,←,left,←,0.6770455995574594,True,17,1,1,16
Y2-S2-130K21,3,204,PS,intra_train,38,→,right,→,0.4672286994755268,True,22,-,-,-
Y2-S2-130K21,3,205,PS,intra_train,36,↑,up,↑,0.46684239991009235,True,22,-,-,-
Y2-S2-130K21,3,206,PS,intra_train,32,↓,down,↓,1.0903885001316667,True,22,-,-,-
Y2-S2-130K21,3,207,PS,intra_train,45,←,left,←,0.500479499809444,True,22,-,-,-
Y2-S2-130K21,3,208,PS,intra_train,48,↓,down,↓,0.6499977000057697,True,22,-,-,-
Y2-S2-130K21,3,209,PS,exp,39,↑,up,↑,0.6465996000915766,True,15,0,0,0
Y2-S2-130K21,3,210,PS,exp,39,↓,down,↓,0.5645914999768138,True,15,0,0,0
Y2-S2-130K21,3,211,PS,exp,45,→,right,→,0.4698087004944682,True,15,1,0,0
Y2-S2-130K21,3,212,PS,exp,40,←,left,←,0.6847067000344396,True,14,1,0,0
Y2-S2-130K21,3,213,PS,exp,36,→,left,←,0.901724100112915,False,14,-1,1,1
Y2-S2-130K21,3,214,PS,exp,25,↑,down,↓,1.2776814000681043,False,15,-1,0,1
Y2-S2-130K21,3,215,PS,exp,26,↓,down,↓,0.5128790996968746,True,16,-1,0,1
Y2-S2-130K21,3,216,PS,exp,25,←,right,→,0.6157856993377209,False,16,-1,0,1
Y2-S2-130K21,3,217,PS,exp,36,↑,up,↑,1.1518657002598047,True,17,-1,0,1
Y2-S2-130K21,3,218,PS,exp,37,→,right,→,0.4843043992295861,True,17,-1,0,1
Y2-S2-130K21,3,219,PS,exp,47,←,left,←,0.5269344998523593,True,17,1,1,2
Y2-S2-130K21,3,220,PS,exp,36,↓,down,↓,0.7049436001107097,True,16,1,0,2
Y2-S2-130K21,3,221,PS,exp,25,←,left,←,0.5425346000120044,True,16,1,0,2
Y2-S2-130K21,3,222,PS,exp,40,↑,up,↑,0.6178933996707201,True,16,1,0,2
Y2-S2-130K21,3,223,PS,exp,29,↓,down,↓,0.6634780997410417,True,15,1,0,2
Y2-S2-130K21,3,224,PS,exp,26,↑,up,↑,0.5961563996970654,True,15,1,0,2
Y2-S2-130K21,3,225,PS,exp,48,→,right,→,0.5655110999941826,True,15,1,0,2
Y2-S2-130K21,3,226,PS,exp,28,↓,down,↓,0.5617377003654838,True,14,1,0,2
Y2-S2-130K21,3,227,PS,exp,26,←,right,→,0.9028689004480839,False,14,-1,1,3
Y2-S2-130K21,3,228,PS,exp,48,→,left,←,0.812678299844265,False,15,-1,0,3
Y2-S2-130K21,3,229,PS,exp,43,↑,up,↑,0.8633166002109647,True,16,-1,0,3
Y2-S2-130K21,3,230,PS,exp,35,→,right,→,0.5363937998190522,True,16,-1,0,3
Y2-S2-130K21,3,231,PS,exp,50,↓,down,↓,0.6583524998277426,True,16,1,1,4
Y2-S2-130K21,3,232,PS,exp,47,←,left,←,0.526541699655354,True,15,1,0,4
Y2-S2-130K21,3,233,PS,exp,32,↓,down,↓,0.5720558008179069,True,15,1,0,4
Y2-S2-130K21,3,234,PS,exp,40,↑,up,↑,0.5508220000192523,True,15,1,0,4
Y2-S2-130K21,3,235,PS,exp,27,↓,down,↓,0.8258581999689341,True,14,1,0,4
Y2-S2-130K21,3,236,PS,exp,26,↑,up,↑,0.6322822999209166,True,14,1,0,4
Y2-S2-130K21,3,237,PS,exp,40,→,left,←,0.9238099996000528,False,14,-1,1,5
Y2-S2-130K21,3,238,PS,exp,30,↓,down,↓,0.5507586998865008,True,15,-1,0,5
Y2-S2-130K21,3,239,PS,exp,47,↑,up,↑,0.57407440058887,True,15,-1,0,5
Y2-S2-130K21,3,240,PS,exp,40,→,right,→,0.7539249993860722,True,15,1,1,6
Y2-S2-130K21,3,241,PS,exp,28,↑,up,↑,0.43219050019979477,True,14,1,0,6
Y2-S2-130K21,3,242,PS,exp,46,→,right,→,1.1454079998657107,True,14,1,0,6
Y2-S2-130K21,3,243,PS,exp,34,←,left,←,0.4120357008650899,True,14,1,0,6
Y2-S2-130K21,3,244,PS,exp,48,↑,up,↑,0.495002799667418,True,13,1,0,6
Y2-S2-130K21,3,245,PS,exp,35,→,left,←,0.8763784002512693,False,13,-1,1,7
Y2-S2-130K21,3,246,PS,exp,42,↓,down,↓,0.6274696001783013,True,14,-1,0,7
Y2-S2-130K21,3,247,PS,exp,35,↑,up,↑,0.637979899533093,True,14,-1,0,7
Y2-S2-130K21,3,248,PS,exp,46,→,right,→,0.5308726001530886,True,14,1,1,8
Y2-S2-130K21,3,249,PS,exp,44,↑,up,↑,0.5031925002112985,True,13,1,0,8
Y2-S2-130K21,3,250,PS,exp,39,←,left,←,0.5516231004148722,True,13,1,0,8
Y2-S2-130K21,3,251,PS,exp,28,↑,up,↑,0.4520832998678088,True,13,1,0,8
Y2-S2-130K21,3,252,PS,exp,38,→,right,→,0.4148635007441044,True,12,1,0,8
Y2-S2-130K21,3,253,PS,exp,30,↑,up,↑,0.6534567000344396,True,12,1,0,8
Y2-S2-130K21,3,254,PS,exp,44,↓,down,↓,0.7566269999369979,True,12,1,0,8
Y2-S2-130K21,3,255,PS,exp,30,←,up,↑,0.4595005000010133,False,11,-1,1,9
Y2-S2-130K21,3,256,PS,exp,36,↓,down,↓,0.5741544002667069,True,12,-1,0,9
Y2-S2-130K21,3,257,PS,exp,45,↑,up,↑,0.6040011001750827,True,12,-1,0,9
Y2-S2-130K21,3,258,PS,exp,46,↓,down,↓,0.6578962998464704,True,12,1,1,10
Y2-S2-130K21,3,259,PS,exp,43,↑,up,↑,0.5095760999247432,True,11,1,0,10
Y2-S2-130K21,3,260,PS,exp,38,→,right,→,0.40506310015916824,True,11,1,0,10
Y2-S2-130K21,3,261,PS,exp,43,↓,down,↓,0.7522202003747225,True,11,1,0,10
Y2-S2-130K21,3,262,PS,exp,30,←,right,→,0.508262800052762,False,10,-1,1,11
Y2-S2-130K21,3,263,PS,exp,38,↓,down,↓,0.586812200024724,True,11,-1,0,11
Y2-S2-130K21,3,264,PS,exp,37,→,right,→,0.528694000095129,True,11,-1,0,11
Y2-S2-130K21,3,265,PS,exp,33,←,left,←,0.8061201004311442,True,11,1,1,12
Y2-S2-130K21,3,266,PS,exp,39,→,right,→,0.3903473997488618,True,10,1,0,12
Y2-S2-130K21,3,267,PS,exp,44,↑,up,↑,0.4879855001345277,True,10,1,0,12
Y2-S2-130K21,3,268,PS,exp,50,→,right,→,0.4508571997284889,True,10,1,0,12
Y2-S2-130K21,3,269,PS,exp,39,↑,up,↑,0.5224505998194218,True,9,1,0,12
Y2-S2-130K21,3,270,PS,exp,45,←,left,←,0.44390799943357706,True,9,1,0,12
Y2-S2-130K21,3,271,PS,exp,34,↓,down,↓,0.6764766005799174,True,9,1,0,12
Y2-S2-130K21,3,272,PS,exp,35,→,left,←,0.6622085999697447,False,8,-1,1,13
Y2-S2-130K21,3,273,PS,exp,48,↓,right,→,0.779806699603796,False,9,-1,0,13
Y2-S2-130K21,3,274,PS,exp,43,↑,down,↓,1.1277994001284242,False,10,-1,0,13
Y2-S2-130K21,3,275,PS,exp,43,→,left,←,0.7922435998916626,False,11,-1,0,13
Y2-S2-130K21,3,276,PS,exp,48,↓,down,↓,0.695796400308609,True,12,-1,0,13
Y2-S2-130K21,3,277,PS,exp,45,←,left,←,0.47926130052655935,True,12,-1,0,13
Y2-S2-130K21,3,278,PS,exp,49,↑,up,↑,0.5977007001638412,True,12,1,1,14
Y2-S2-130K21,3,279,PS,exp,31,→,right,→,0.46299959998577833,True,11,1,0,14
Y2-S2-130K21,3,280,PS,exp,33,↑,right,→,0.4256871994584799,False,11,-1,1,15
Y2-S2-130K21,3,281,PS,exp,36,→,left,←,0.08378049917519093,False,12,-1,0,15
Y2-S2-130K21,3,282,PS,exp,29,↓,down,↓,0.7771071000024676,True,13,-1,0,15
Y2-S2-130K21,3,283,PS,exp,42,→,right,→,0.6529320003464818,True,13,-1,0,15
Y2-S2-130K21,3,284,PS,exp,38,↑,up,↑,0.8247879995033145,True,13,1,1,16
Y2-S2-130K21,4,285,AS,intra_train,46,→,right,→,1.0876794997602701,True,28,-,-,-
Y2-S2-130K21,4,286,AS,intra_train,39,←,left,←,0.7084590001031756,True,28,-,-,-
Y2-S2-130K21,4,287,AS,intra_train,34,→,right,→,0.43377040047198534,True,28,-,-,-
Y2-S2-130K21,4,288,AS,intra_train,31,←,left,←,0.8228013999760151,True,28,-,-,-
Y2-S2-130K21,4,289,AS,intra_train,50,↑,up,↑,0.4177194004878402,True,28,-,-,-
Y2-S2-130K21,4,290,AS,exp,50,→,right,→,0.40052219945937395,True,19,0,0,0
Y2-S2-130K21,4,291,AS,exp,46,↓,down,↓,0.7035724995657802,True,19,0,0,0
Y2-S2-130K21,4,292,AS,exp,30,←,left,←,0.651154899969697,True,19,1,0,0
Y2-S2-130K21,4,293,AS,exp,25,↑,up,↑,0.9779415000230074,True,18,1,0,0
Y2-S2-130K21,4,294,AS,exp,37,←,left,←,0.6351614994928241,True,18,1,0,0
Y2-S2-130K21,4,295,AS,exp,38,→,right,→,1.6650870004668832,True,18,1,0,0
Y2-S2-130K21,4,296,AS,exp,34,←,left,←,0.33390820026397705,True,17,1,0,0
Y2-S2-130K21,4,297,AS,exp,29,↑,up,↑,0.38391279987990856,True,17,1,0,0
Y2-S2-130K21,4,298,AS,exp,31,←,left,←,1.0067341001704335,True,17,1,0,0
Y2-S2-130K21,4,299,AS,exp,50,↑,up,↑,0.5634353002533317,True,16,1,0,0
Y2-S2-130K21,4,300,AS,exp,46,↓,down,↓,0.6776524996384978,True,16,1,0,0
Y2-S2-130K21,4,301,AS,exp,28,↑,up,↑,1.5985332001000643,True,16,1,0,0
Y2-S2-130K21,4,302,AS,exp,37,←,left,←,0.9149223994463682,True,15,1,0,0
Y2-S2-130K21,4,303,AS,exp,47,↑,no_key,no_letter,-1.0,False,15,-1,1,1
Y2-S2-130K21,4,304,AS,exp,43,←,left,←,0.4748702999204397,True,16,-1,0,1
Y2-S2-130K21,4,305,AS,exp,31,↑,up,↑,0.4664517007768154,True,16,-1,0,1
Y2-S2-130K21,4,306,AS,exp,36,←,left,←,0.38391979970037937,True,16,1,1,2
Y2-S2-130K21,4,307,AS,exp,25,↓,down,↓,0.6464929999783635,True,15,1,0,2
Y2-S2-130K21,4,308,AS,exp,48,↑,down,↓,1.106547700241208,False,15,-1,1,3
Y2-S2-130K21,4,309,AS,exp,39,↓,up,↑,0.8729780996218324,False,16,-1,0,3
Y2-S2-130K21,4,310,AS,exp,28,↑,up,↑,0.6499162996187806,True,17,-1,0,3
Y2-S2-130K21,4,311,AS,exp,49,↓,down,↓,0.8321553999558091,True,17,-1,0,3
Y2-S2-130K21,4,312,AS,exp,35,←,left,←,0.7103039007633924,True,17,1,1,4
Y2-S2-130K21,4,313,AS,exp,40,↑,down,↓,0.7939083995297551,False,16,-1,1,5
Y2-S2-130K21,4,314,AS,exp,39,←,left,←,0.505519200116396,True,17,-1,0,5
Y2-S2-130K21,4,315,AS,exp,35,↓,left,←,0.6646669004112482,False,17,-1,0,5
Y2-S2-130K21,4,316,AS,exp,33,→,left,←,0.5834985999390483,False,18,-1,0,5
Y2-S2-130K21,4,317,AS,exp,36,←,right,→,0.7751561999320984,False,19,-1,0,5
Y2-S2-130K21,4,318,AS,exp,26,→,down,↓,0.8688880000263453,False,20,-1,0,5
Y2-S2-130K21,4,319,AS,exp,31,↑,left,←,0.8177537005394697,False,21,-1,0,5
Y2-S2-130K21,4,320,AS,exp,27,→,left,←,0.6092129992321134,False,22,-1,0,5
Y2-S2-130K21,4,321,AS,exp,47,↑,up,↑,0.6738854004070163,True,23,-1,0,5
Y2-S2-130K21,4,322,AS,exp,26,→,down,↓,1.249423200264573,False,23,-1,0,5
Y2-S2-130K21,4,323,AS,exp,29,←,down,↓,1.1879726005718112,False,24,-1,0,5
Y2-S2-130K21,4,324,AS,exp,30,→,right,→,0.28438409976661205,True,25,-1,0,5
Y2-S2-130K21,4,325,AS,exp,40,↓,down,↓,0.4506490007042885,True,25,-1,0,5
Y2-S2-130K21,4,326,AS,exp,47,↑,up,↑,0.6368174999952316,True,25,1,1,6
Y2-S2-130K21,4,327,AS,exp,43,←,left,←,0.6017521992325783,True,24,1,0,6
Y2-S2-130K21,4,328,AS,exp,32,↑,left,←,0.8347303001210093,False,24,-1,1,7
Y2-S2-130K21,4,329,AS,exp,39,←,right,→,0.6703516002744436,False,25,-1,0,7
Y2-S2-130K21,4,330,AS,exp,44,↓,down,↓,0.9542311001569033,True,26,-1,0,7
Y2-S2-130K21,4,331,AS,exp,36,←,left,←,0.8312084004282951,True,26,-1,0,7
Y2-S2-130K21,4,332,AS,exp,39,↑,down,↓,0.7241855999454856,False,26,-1,0,7
Y2-S2-130K21,4,333,AS,exp,41,←,up,↑,0.01741340011358261,False,27,-1,0,7
Y2-S2-130K21,4,334,AS,exp,29,→,left,←,0.2675685007125139,False,28,-1,0,7
Y2-S2-130K21,4,335,AS,exp,31,↓,left,←,0.3685945998877287,False,29,-1,0,7
Y2-S2-130K21,4,336,AS,exp,50,←,left,←,0.517297899350524,True,30,-1,0,7
Y2-S2-130K21,4,337,AS,exp,35,↑,left,←,0.384421500377357,False,30,-1,0,7
Y2-S2-130K21,4,338,AS,exp,50,→,right,→,0.4177189003676176,True,31,-1,0,7
Y2-S2-130K21,4,339,AS,exp,33,←,left,←,0.5676273992285132,True,31,-1,0,7
Y2-S2-130K21,4,340,AS,exp,41,↑,up,↑,1.5119708003476262,True,31,1,1,8
Y2-S2-130K21,4,341,AS,exp,26,←,left,←,0.7392949005588889,True,30,1,0,8
Y2-S2-130K21,4,342,AS,exp,43,↑,up,↑,0.600730599835515,True,30,1,0,8
Y2-S2-130K21,4,343,AS,exp,48,←,up,↑,1.6576431998983026,False,30,-1,1,9
Y2-S2-130K21,4,344,AS,exp,50,↑,up,↑,0.8269565999507904,True,31,-1,0,9
Y2-S2-130K21,4,345,AS,exp,39,↓,down,↓,0.8054953999817371,True,31,-1,0,9
Y2-S2-130K21,4,346,AS,exp,32,←,left,←,0.7994168000295758,True,31,1,1,10
Y2-S2-130K21,4,347,AS,exp,29,↓,down,↓,0.4837899003177881,True,30,1,0,10
Y2-S2-130K21,4,348,AS,exp,47,←,left,←,0.500446499325335,True,30,1,0,10
Y2-S2-130K21,4,349,AS,exp,42,↑,up,↑,0.8106416994705796,True,30,1,0,10
Y2-S2-130K21,4,350,AS,exp,30,←,left,←,0.8302667997777462,True,29,1,0,10
Y2-S2-130K21,4,351,AS,exp,41,↑,up,↑,0.6910662008449435,True,29,1,0,10
Y2-S2-130K21,4,352,AS,exp,27,←,down,↓,0.5336940996348858,False,29,-1,1,11
Y2-S2-130K21,4,353,AS,exp,30,→,right,→,0.5169775001704693,True,30,-1,0,11
Y2-S2-130K21,4,354,AS,exp,41,↑,up,↑,0.533894999884069,True,30,-1,0,11
Y2-S2-130K21,4,355,AS,exp,28,←,left,←,0.8487373003736138,True,30,1,1,12
Y2-S2-130K21,4,356,AS,exp,37,→,right,→,0.5838510002940893,True,29,1,0,12
Y2-S2-130K21,4,357,AS,exp,36,↑,up,↑,0.720706700347364,True,29,1,0,12
Y2-S2-130K21,4,358,AS,exp,46,→,right,→,0.5339774992316961,True,29,1,0,12
Y2-S2-130K21,4,359,AS,exp,33,←,left,←,0.8251309003680944,True,28,1,0,12
Y2-S2-130K21,4,360,AS,exp,26,↓,down,↓,1.0432687997817993,True,28,1,0,12
Y2-S2-130K21,4,361,AS,exp,46,→,right,→,0.500955200754106,True,28,1,0,12
Y2-S2-130K21,4,362,AS,exp,48,←,left,←,0.6573673998937011,True,27,1,0,12
Y2-S2-130K21,4,363,AS,exp,26,↑,up,↑,0.6808560006320477,True,27,1,0,12
Y2-S2-130K21,4,364,AS,exp,38,→,right,→,0.5508046997711062,True,27,1,0,12
Y2-S2-130K21,4,365,AS,exp,42,↑,left,←,0.4008336002007127,False,26,-1,1,13
Y2-S2-130K21,4,366,AS,exp,34,↓,down,↓,0.28409199975430965,True,27,-1,0,13
Y2-S2-130K21,4,367,AS,exp,34,↑,up,↑,0.567488900385797,True,27,-1,0,13
Y2-S2-130K21,4,368,AS,exp,47,←,right,→,1.3871614998206496,False,27,-1,0,13
Y2-S2-130K21,4,369,AS,exp,27,→,left,←,0.6553248995915055,False,28,-1,0,13
Y2-S2-130K21,4,370,AS,exp,50,←,left,←,0.5842532999813557,True,29,-1,0,13
Y2-S2-130K21,4,371,AS,exp,43,↑,up,↑,0.567208900116384,True,29,-1,0,13
Y2-S2-130K21,4,372,AS,exp,37,↓,no_key,no_letter,-1.0,False,29,-1,0,13
Y2-S2-130K21,4,373,AS,exp,36,↑,down,↓,0.13460110034793615,False,30,-1,0,13
Y2-S2-130K21,4,374,AS,exp,29,↓,right,→,1.8096455996856093,False,31,-1,0,13
Y2-S2-130K21,4,375,AS,exp,39,→,left,←,2.0755052994936705,False,32,-1,0,13
Y2-S2-130K21,4,376,AS,exp,26,↑,up,↑,0.85651780012995,True,33,-1,0,13
Y2-S2-130K21,4,377,AS,exp,34,↓,right,→,1.4919217005372047,False,33,-1,0,13
Y2-S2-130K21,4,378,AS,exp,33,←,right,→,0.5840433994308114,False,34,-1,0,13
Y2-S2-130K21,4,379,AS,exp,49,↑,up,↑,0.45110860001295805,True,35,-1,0,13
Y2-S2-130K21,4,380,AS,exp,46,↓,down,↓,0.9978663995862007,True,35,-1,0,13
Y2-S2-130K21,4,381,AS,exp,29,←,left,←,0.6338376998901367,True,35,1,1,14
Y2-S2-130K21,4,382,AS,exp,29,↑,up,↑,0.46779359970241785,True,34,1,0,14
Y2-S2-130K21,4,383,AS,exp,38,←,left,←,0.40127559937536716,True,34,1,0,14
Y2-S2-130K21,4,384,AS,exp,45,↑,up,↑,1.8228584993630648,True,34,1,0,14
Y2-S2-130K21,4,385,AS,exp,36,→,right,→,0.534281600266695,True,33,1,0,14
Y2-S2-130K21,4,386,AS,exp,25,←,left,←,1.012173700146377,True,33,1,0,14
Y2-S2-130K21,4,387,AS,exp,44,→,right,→,0.4012667005881667,True,33,1,0,14
Y2-S2-130K21,4,388,AS,exp,36,←,left,←,0.9785084007307887,True,32,1,0,14
Y2-S2-130K21,4,389,AS,exp,26,↑,up,↑,1.1451831003651023,True,32,1,0,14
Y2-S2-130K21,4,390,AS,exp,49,←,right,→,0.9674113998189569,False,32,-1,1,15
Y2-S2-130K21,4,391,AS,exp,28,→,up,↑,1.5295330006629229,False,33,-1,0,15
Y2-S2-130K21,4,392,AS,exp,25,↑,up,↑,1.0507268998771906,True,34,-1,0,15
Y2-S2-130K21,4,393,AS,exp,35,→,left,←,0.7857408002018929,False,34,-1,0,15
Y2-S2-130K21,4,394,AS,exp,29,↓,down,↓,1.1210303995758295,True,35,-1,0,15
Y2-S2-130K21,4,395,AS,exp,44,→,down,↓,1.3693265998736024,False,35,-1,0,15
Y2-S2-130K21,4,396,AS,exp,39,↓,down,↓,1.8671881994232535,True,36,-1,0,15
Y2-S2-130K21,4,397,AS,exp,25,↑,up,↑,0.5673636002466083,True,36,-1,0,15
Y2-S2-130K21,4,398,AS,exp,40,↓,down,↓,0.8986552003771067,True,36,1,1,16
Y2-S2-130K21,5,399,AS,intra_train,36,→,right,→,0.33448310010135174,True,28,-,-,-
Y2-S2-130K21,5,400,AS,intra_train,31,↓,down,↓,0.710075999610126,True,28,-,-,-
Y2-S2-130K21,5,401,AS,intra_train,30,→,right,→,0.5007120994850993,True,28,-,-,-
Y2-S2-130K21,5,402,AS,intra_train,49,↑,up,↑,0.8090085005387664,True,28,-,-,-
Y2-S2-130K21,5,403,AS,intra_train,46,↓,left,←,1.5038354992866516,False,28,-,-,-
Y2-S2-130K21,5,404,AS,exp,37,↑,no_key,no_letter,-1.0,False,19,-1,0,0
Y2-S2-130K21,5,405,AS,exp,26,←,down,↓,0.9826308004558086,False,20,-1,0,0
Y2-S2-130K21,5,406,AS,exp,43,↓,down,↓,0.6942076003178954,True,21,-1,0,0
Y2-S2-130K21,5,407,AS,exp,26,↑,left,←,0.9418636001646519,False,21,-1,0,0
Y2-S2-130K21,5,408,AS,exp,29,↓,down,↓,0.7941185999661684,True,22,-1,0,0
Y2-S2-130K21,5,409,AS,exp,43,←,up,↑,1.3185195997357368,False,22,-1,0,0
Y2-S2-130K21,5,410,AS,exp,41,→,right,→,0.7414481993764639,True,23,-1,0,0
Y2-S2-130K21,5,411,AS,exp,26,↑,left,←,1.0953204995021224,False,23,-1,0,0
Y2-S2-130K21,5,412,AS,exp,39,→,down,↓,0.9230429995805025,False,24,-1,0,0
Y2-S2-130K21,5,413,AS,exp,47,←,left,←,0.6845809994265437,True,25,-1,0,0
Y2-S2-130K21,5,414,AS,exp,33,↑,up,↑,1.1279049003496766,True,25,-1,0,0
Y2-S2-130K21,5,415,AS,exp,41,←,left,←,0.9188680993393064,True,25,1,1,1
Y2-S2-130K21,5,416,AS,exp,28,↑,no_key,no_letter,-1.0,False,24,-1,1,2
Y2-S2-130K21,5,417,AS,exp,44,←,left,←,0.9930560002103448,True,25,-1,0,2
Y2-S2-130K21,5,418,AS,exp,36,↑,up,↑,1.613719499669969,True,25,-1,0,2
Y2-S2-130K21,5,419,AS,exp,37,↓,down,↓,1.587569199502468,True,25,1,1,3
Y2-S2-130K21,5,420,AS,exp,39,→,right,→,0.7989275995641947,True,24,1,0,3
Y2-S2-130K21,5,421,AS,exp,30,←,left,←,0.8901750007644296,True,24,1,0,3
Y2-S2-130K21,5,422,AS,exp,43,↑,left,←,0.8461850006133318,False,24,-1,1,4
Y2-S2-130K21,5,423,AS,exp,33,→,right,→,0.6788787003606558,True,25,-1,0,4
Y2-S2-130K21,5,424,AS,exp,47,←,left,←,0.7388645000755787,True,25,-1,0,4
Y2-S2-130K21,5,425,AS,exp,29,→,right,→,0.8931877994909883,True,25,1,1,5
Y2-S2-130K21,5,426,AS,exp,43,←,left,←,0.6665278002619743,True,24,1,0,5
Y2-S2-130K21,5,427,AS,exp,39,→,right,→,0.7017131000757217,True,24,1,0,5
Y2-S2-130K21,5,428,AS,exp,33,↑,up,↑,0.7500200998038054,True,24,1,0,5
Y2-S2-130K21,5,429,AS,exp,50,→,down,↓,0.5575842997059226,False,23,-1,1,6
Y2-S2-130K21,5,430,AS,exp,26,←,left,←,0.7876100996509194,True,24,-1,0,6
Y2-S2-130K21,5,431,AS,exp,48,→,right,→,0.6711924001574516,True,24,-1,0,6
Y2-S2-130K21,5,432,AS,exp,46,↓,left,←,0.26752369944006205,False,24,-1,0,6
Y2-S2-130K21,5,433,AS,exp,36,→,down,↓,0.1844354998320341,False,25,-1,0,6
Y2-S2-130K21,5,434,AS,exp,41,↓,down,↓,0.6401307005435228,True,26,-1,0,6
Y2-S2-130K21,5,435,AS,exp,38,←,no_key,no_letter,-1.0,False,26,-1,0,6
Y2-S2-130K21,5,436,AS,exp,32,↑,up,↑,0.7077727001160383,True,27,-1,0,6
Y2-S2-130K21,5,437,AS,exp,38,→,right,→,0.7286988999694586,True,27,-1,0,6
Y2-S2-130K21,5,438,AS,exp,30,↓,up,↑,0.8107011998072267,False,27,-1,0,6
Y2-S2-130K21,5,439,AS,exp,44,↑,right,→,0.7223559999838471,False,28,-1,0,6
Y2-S2-130K21,5,440,AS,exp,40,→,right,→,0.6000324003398418,True,29,-1,0,6
Y2-S2-130K21,5,441,AS,exp,37,↑,left,←,1.237258999608457,False,29,-1,0,6
Y2-S2-130K21,5,442,AS,exp,50,↓,down,↓,0.7580063994973898,True,30,-1,0,6
Y2-S2-130K21,5,443,AS,exp,34,←,left,←,1.067501900717616,True,30,-1,0,6
Y2-S2-130K21,5,444,AS,exp,44,↑,right,→,1.3293048003688455,False,30,-1,0,6
Y2-S2-130K21,5,445,AS,exp,31,↓,no_key,no_letter,-1.0,False,31,-1,0,6
Y2-S2-130K21,5,446,AS,exp,44,←,down,↓,0.31794119998812675,False,32,-1,0,6
Y2-S2-130K21,5,447,AS,exp,37,→,right,→,1.055183700285852,True,33,-1,0,6
Y2-S2-130K21,5,448,AS,exp,29,↓,up,↑,0.5340577997267246,False,33,-1,0,6
Y2-S2-130K21,5,449,AS,exp,39,←,down,↓,1.5146334003657103,False,34,-1,0,6
Y2-S2-130K21,5,450,AS,exp,33,↓,up,↑,1.4757823999971151,False,35,-1,0,6
Y2-S2-130K21,5,451,AS,exp,37,→,left,←,1.3305220995098352,False,36,-1,0,6
Y2-S2-130K21,5,452,AS,exp,44,↑,up,↑,0.6839075004681945,True,37,-1,0,6
Y2-S2-130K21,5,453,AS,exp,42,←,left,←,0.6506451005116105,True,37,-1,0,6
Y2-S2-130K21,5,454,AS,exp,49,→,right,→,0.7505811993032694,True,37,1,1,7
Y2-S2-130K21,5,455,AS,exp,44,←,right,→,0.7173731001093984,False,36,-1,1,8
Y2-S2-130K21,5,456,AS,exp,41,→,down,↓,0.15019149985164404,False,37,-1,0,8
Y2-S2-130K21,5,457,AS,exp,33,↑,up,↑,0.8866940001025796,True,38,-1,0,8
Y2-S2-130K21,5,458,AS,exp,29,←,left,←,1.1792146004736423,True,38,-1,0,8
Y2-S2-130K21,5,459,AS,exp,26,↑,up,↑,0.9797328002750874,True,38,1,1,9
Y2-S2-130K21,5,460,AS,exp,26,↓,down,↓,0.8700371999293566,True,37,1,0,9
Y2-S2-130K21,5,461,AS,exp,43,→,right,→,0.46797090023756027,True,37,1,0,9
Y2-S2-130K21,5,462,AS,exp,36,↓,no_key,no_letter,-1.0,False,37,-1,1,10
Y2-S2-130K21,5,463,AS,exp,27,↑,up,↑,0.6508098999038339,True,38,-1,0,10
Y2-S2-130K21,5,464,AS,exp,36,←,left,←,0.6172866998240352,True,38,-1,0,10
Y2-S2-130K21,5,465,AS,exp,42,↑,left,←,1.4180268999189138,False,38,-1,0,10
Y2-S2-130K21,5,466,AS,exp,26,↓,down,↓,0.9668726995587349,True,39,-1,0,10
Y2-S2-130K21,5,467,AS,exp,34,←,left,←,0.8303380999714136,True,39,-1,0,10
Y2-S2-130K21,5,468,AS,exp,28,→,right,→,0.7507230993360281,True,39,1,1,11
Y2-S2-130K21,5,469,AS,exp,32,←,left,←,0.8096827007830143,True,38,1,0,11
Y2-S2-130K21,5,470,AS,exp,50,→,right,→,2.060968500562012,True,38,1,0,11
Y2-S2-130K21,5,471,AS,exp,47,↑,up,↑,0.5009078998118639,True,38,1,0,11
Y2-S2-130K21,5,472,AS,exp,35,→,right,→,0.584599600173533,True,37,1,0,11
Y2-S2-130K21,5,473,AS,exp,28,↑,up,↑,0.6504764007404447,True,37,1,0,11
Y2-S2-130K21,5,474,AS,exp,42,↓,up,↑,0.5842875000089407,False,37,-1,1,12
Y2-S2-130K21,5,475,AS,exp,39,←,left,←,2.1305355997756124,True,38,-1,0,12
Y2-S2-130K21,5,476,AS,exp,31,→,right,→,0.6337505001574755,True,38,-1,0,12
Y2-S2-130K21,5,477,AS,exp,41,←,right,→,0.5677127996459603,False,38,-1,0,12
Y2-S2-130K21,5,478,AS,exp,40,↓,down,↓,0.6176535999402404,True,39,-1,0,12
Y2-S2-130K21,5,479,AS,exp,30,→,right,→,1.2893831999972463,True,39,-1,0,12
Y2-S2-130K21,5,480,AS,exp,37,↑,up,↑,0.8632184006273746,True,39,1,1,13
Y2-S2-130K21,5,481,AS,exp,28,↓,down,↓,1.4520143000409007,True,38,1,0,13
Y2-S2-130K21,5,482,AS,exp,38,←,left,←,0.7673160005360842,True,38,1,0,13
Y2-S2-130K21,5,483,AS,exp,34,↓,left,←,1.4311512997373939,False,38,-1,1,14
Y2-S2-130K21,5,484,AS,exp,31,→,no_key,no_letter,-1.0,False,39,-1,0,14
Y2-S2-130K21,5,485,AS,exp,45,↓,left,←,0.3013251004740596,False,40,-1,0,14
Y2-S2-130K21,5,486,AS,exp,25,←,left,←,1.8675753995776176,True,41,-1,0,14
Y2-S2-130K21,5,487,AS,exp,38,↑,up,↑,0.7507541999220848,True,41,-1,0,14
Y2-S2-130K21,5,488,AS,exp,34,←,left,←,1.594527299515903,True,41,1,1,15
Y2-S2-130K21,5,489,AS,exp,39,→,left,←,0.9618842992931604,False,40,-1,1,16
Y2-S2-130K21,6,490,PS,intra_train,33,←,left,←,1.0364311998710036,True,22,-,-,-
Y2-S2-130K21,6,491,PS,intra_train,33,↑,up,↑,0.5010362006723881,True,22,-,-,-
Y2-S2-130K21,6,492,PS,intra_train,50,↓,down,↓,0.9682103004306555,True,22,-,-,-
Y2-S2-130K21,6,493,PS,intra_train,39,→,left,←,0.4336633002385497,False,22,-,-,-
Y2-S2-130K21,6,494,PS,intra_train,50,↑,up,↑,0.4669604003429413,True,22,-,-,-
Y2-S2-130K21,6,495,PS,exp,25,→,right,→,0.523755899630487,True,15,0,0,0
Y2-S2-130K21,6,496,PS,exp,44,↑,up,↑,0.4488343996927142,True,15,0,0,0
Y2-S2-130K21,6,497,PS,exp,45,↓,up,↑,1.2100168000906706,False,15,-1,0,0
Y2-S2-130K21,6,498,PS,exp,33,↑,right,→,0.5663021998479962,False,16,-1,0,0
Y2-S2-130K21,6,499,PS,exp,44,→,left,←,0.35073209926486015,False,17,-1,0,0
Y2-S2-130K21,6,500,PS,exp,34,↓,down,↓,0.5137064000591636,True,18,-1,0,0
Y2-S2-130K21,6,501,PS,exp,26,↑,up,↑,0.6442533005028963,True,18,-1,0,0
Y2-S2-130K21,6,502,PS,exp,28,↓,down,↓,0.7191595993936062,True,18,1,1,1
Y2-S2-130K21,6,503,PS,exp,27,←,left,←,0.6241339994594455,True,17,1,0,1
Y2-S2-130K21,6,504,PS,exp,31,↑,no_key,no_letter,-1.0,False,17,-1,1,2
Y2-S2-130K21,6,505,PS,exp,47,→,right,→,0.6266291001811624,True,18,-1,0,2
Y2-S2-130K21,6,506,PS,exp,50,↓,down,↓,0.5597527995705605,True,18,-1,0,2
Y2-S2-130K21,6,507,PS,exp,25,←,left,←,0.7763227000832558,True,18,1,1,3
Y2-S2-130K21,6,508,PS,exp,49,↓,up,↑,1.404785600490868,False,17,-1,1,4
Y2-S2-130K21,6,509,PS,exp,44,↑,up,↑,0.40075760055333376,True,18,-1,0,4
Y2-S2-130K21,6,510,PS,exp,50,↓,up,↑,0.151167300529778,False,18,-1,0,4
Y2-S2-130K21,6,511,PS,exp,26,←,down,↓,1.2494918005540967,False,19,-1,0,4
Y2-S2-130K21,6,512,PS,exp,29,→,right,→,0.5151448994874954,True,20,-1,0,4
Y2-S2-130K21,6,513,PS,exp,29,↓,down,↓,0.7768376003950834,True,20,-1,0,4
Y2-S2-130K21,6,514,PS,exp,42,↑,up,↑,0.4172279005870223,True,20,1,1,5
Y2-S2-130K21,6,515,PS,exp,26,↓,down,↓,0.5578143000602722,True,19,1,0,5
Y2-S2-130K21,6,516,PS,exp,37,↑,up,↑,0.722919600084424,True,19,1,0,5
Y2-S2-130K21,6,517,PS,exp,41,↓,right,→,0.764431300573051,False,19,-1,1,6
Y2-S2-130K21,6,518,PS,exp,36,→,down,↓,0.9055858002975583,False,20,-1,0,6
Y2-S2-130K21,6,519,PS,exp,41,←,left,←,0.781564200296998,True,21,-1,0,6
Y2-S2-130K21,6,520,PS,exp,38,→,right,→,0.5587301002815366,True,21,-1,0,6
Y2-S2-130K21,6,521,PS,exp,39,←,left,←,0.6601760992780328,True,21,1,1,7
Y2-S2-130K21,6,522,PS,exp,27,↑,up,↑,0.5145784998312593,True,20,1,0,7
Y2-S2-130K21,6,523,PS,exp,45,←,left,←,0.6204680996015668,True,20,1,0,7
Y2-S2-130K21,6,524,PS,exp,29,→,right,→,1.5618284000083804,True,20,1,0,7
Y2-S2-130K21,6,525,PS,exp,28,←,left,←,1.0235549006611109,True,19,1,0,7
Y2-S2-130K21,6,526,PS,exp,33,→,right,→,0.4972127992659807,True,19,1,0,7
Y2-S2-130K21,6,527,PS,exp,46,↑,left,←,0.8302499996498227,False,19,-1,1,8
Y2-S2-130K21,6,528,PS,exp,36,↓,down,↓,0.7015725001692772,True,20,-1,0,8
Y2-S2-130K21,6,529,PS,exp,35,←,left,←,0.748327799141407,True,20,-1,0,8
Y2-S2-130K21,6,530,PS,exp,38,↑,down,↓,1.103718800470233,False,20,-1,0,8
Y2-S2-130K21,6,531,PS,exp,26,←,right,→,0.5572331994771957,False,21,-1,0,8
Y2-S2-130K21,6,532,PS,exp,27,↓,up,↑,0.6807752996683121,False,22,-1,0,8
Y2-S2-130K21,6,533,PS,exp,40,↑,left,←,0.500857999548316,False,23,-1,0,8
Y2-S2-130K21,6,534,PS,exp,46,←,left,←,0.7110834000632167,True,24,-1,0,8
Y2-S2-130K21,6,535,PS,exp,46,↑,up,↑,0.48428199999034405,True,24,-1,0,8
Y2-S2-130K21,6,536,PS,exp,41,→,right,→,1.9188679000362754,True,24,1,1,9
Y2-S2-130K21,6,537,PS,exp,36,↓,no_key,no_letter,-1.0,False,23,-1,1,10
Y2-S2-130K21,6,538,PS,exp,30,↑,down,↓,0.28432729933410883,False,24,-1,0,10
Y2-S2-130K21,6,539,PS,exp,40,←,right,→,0.7209474006667733,False,25,-1,0,10
Y2-S2-130K21,6,540,PS,exp,41,↑,up,↑,0.5505830999463797,True,26,-1,0,10
Y2-S2-130K21,6,541,PS,exp,43,←,left,←,0.6158718001097441,True,26,-1,0,10
Y2-S2-130K21,6,542,PS,exp,49,→,right,→,0.48408279940485954,True,26,1,1,11
Y2-S2-130K21,6,543,PS,exp,46,←,left,←,0.3677872000262141,True,25,1,0,11
Y2-S2-130K21,6,544,PS,exp,45,↑,up,↑,0.8432572996243834,True,25,1,0,11
Y2-S2-130K21,6,545,PS,exp,47,←,down,↓,0.36788410041481256,False,25,-1,1,12
Y2-S2-130K21,6,546,PS,exp,41,↓,down,↓,0.7518418999388814,True,26,-1,0,12
Y2-S2-130K21,6,547,PS,exp,34,→,right,→,1.5318849002942443,True,26,-1,0,12
Y2-S2-130K21,6,548,PS,exp,34,←,left,←,0.8661903999745846,True,26,1,1,13
Y2-S2-130K21,6,549,PS,exp,31,→,right,→,0.5856498004868627,True,25,1,0,13
Y2-S2-130K21,6,550,PS,exp,31,↑,left,←,0.1513179000467062,False,25,-1,1,14
Y2-S2-130K21,6,551,PS,exp,36,↓,right,→,0.017682699486613274,False,26,-1,0,14
Y2-S2-130K21,6,552,PS,exp,46,↑,down,↓,0.234349200502038,False,27,-1,0,14
Y2-S2-130K21,6,553,PS,exp,36,←,left,←,1.2891967995092273,True,28,-1,0,14
Y2-S2-130K21,6,554,PS,exp,26,→,right,→,0.7290512006729841,True,28,-1,0,14
Y2-S2-130K21,6,555,PS,exp,36,←,left,←,0.600671200081706,True,28,1,1,15
Y2-S2-130K21,6,556,PS,exp,32,→,right,→,0.46751859970390797,True,27,1,0,15
Y2-S2-130K21,6,557,PS,exp,30,↓,down,↓,0.6925261998549104,True,27,1,0,15
Y2-S2-130K21,6,558,PS,exp,48,←,left,←,1.2180682001635432,True,27,1,0,15
Y2-S2-130K21,6,559,PS,exp,25,→,right,→,0.754096900112927,True,26,1,0,15
Y2-S2-130K21,6,560,PS,exp,32,↓,down,↓,0.8653196999803185,True,26,1,0,15
Y2-S2-130K21,6,561,PS,exp,43,↑,up,↑,0.8003489002585411,True,26,1,0,15
Y2-S2-130K21,6,562,PS,exp,39,→,right,→,0.8325284998863935,True,25,1,0,15
Y2-S2-130K21,6,563,PS,exp,34,↑,up,↑,0.48373179975897074,True,25,1,0,15
Y2-S2-130K21,6,564,PS,exp,39,→,right,→,0.4506825003772974,True,25,1,0,15
Y2-S2-130K21,6,565,PS,exp,36,↓,down,↓,0.6891783997416496,True,24,1,0,15
Y2-S2-130K21,6,566,PS,exp,43,↑,up,↑,0.6600682996213436,True,24,1,0,15
Y2-S2-130K21,6,567,PS,exp,47,→,right,→,1.7720050001516938,True,24,1,0,15
Y2-S2-130K21,6,568,PS,exp,39,↑,up,↑,0.516945100389421,True,23,1,0,15
Y2-S2-130K21,6,569,PS,exp,35,→,down,↓,0.9021922005340457,False,23,-1,1,16
Y2-S2-130K21,7,570,PS,intra_train,35,←,right,→,1.4114710995927453,False,22,-,-,-
Y2-S2-130K21,7,571,PS,intra_train,43,↑,up,↑,0.7014915002509952,True,22,-,-,-
Y2-S2-130K21,7,572,PS,intra_train,46,↓,down,↓,0.652419600635767,True,22,-,-,-
Y2-S2-130K21,7,573,PS,intra_train,41,→,down,↓,0.6913136001676321,False,22,-,-,-
Y2-S2-130K21,7,574,PS,intra_train,35,↑,up,↑,0.729173700325191,True,22,-,-,-
Y2-S2-130K21,7,575,PS,exp,41,→,right,→,0.4836296997964382,True,15,0,0,0
Y2-S2-130K21,7,576,PS,exp,40,←,down,↓,1.0748859997838736,False,15,-1,0,0
Y2-S2-130K21,7,577,PS,exp,37,↑,up,↑,0.9447133000940084,True,16,-1,0,0
Y2-S2-130K21,7,578,PS,exp,47,↓,left,←,0.9052277998998761,False,16,-1,0,0
Y2-S2-130K21,7,579,PS,exp,33,→,no_key,no_letter,-1.0,False,17,-1,0,0
Y2-S2-130K21,7,580,PS,exp,39,←,left,←,0.7024632999673486,True,18,-1,0,0
Y2-S2-130K21,7,581,PS,exp,35,↓,down,↓,0.7133940001949668,True,18,-1,0,0
Y2-S2-130K21,7,582,PS,exp,39,→,right,→,0.6023766007274389,True,18,1,1,1
Y2-S2-130K21,7,583,PS,exp,31,↓,down,↓,1.3070844998583198,True,17,1,0,1
Y2-S2-130K21,7,584,PS,exp,26,↑,up,↑,0.5955349998548627,True,17,1,0,1
Y2-S2-130K21,7,585,PS,exp,43,←,up,↑,0.9755126005038619,False,17,-1,1,2
Y2-S2-130K21,7,586,PS,exp,39,↓,down,↓,0.7353237997740507,True,18,-1,0,2
Y2-S2-130K21,7,587,PS,exp,28,→,right,→,0.6474390001967549,True,18,-1,0,2
Y2-S2-130K21,7,588,PS,exp,47,←,left,←,0.5870561003684998,True,18,1,1,3
Y2-S2-130K21,7,589,PS,exp,41,↓,up,↑,0.8503151005133986,False,17,-1,1,4
Y2-S2-130K21,7,590,PS,exp,30,→,down,↓,0.8685050997883081,False,18,-1,0,4
Y2-S2-130K21,7,591,PS,exp,32,↑,right,→,0.8032750999554992,False,19,-1,0,4
Y2-S2-130K21,7,592,PS,exp,25,→,right,→,0.4670874001458287,True,20,-1,0,4
Y2-S2-130K21,7,593,PS,exp,27,↓,no_key,no_letter,-1.0,False,20,-1,0,4
Y2-S2-130K21,7,594,PS,exp,39,→,left,←,1.0940437000244856,False,21,-1,0,4
Y2-S2-130K21,7,595,PS,exp,46,↓,left,←,0.5588814998045564,False,22,-1,0,4
Y2-S2-130K21,7,596,PS,exp,50,↑,up,↑,1.3441813001409173,True,23,-1,0,4
Y2-S2-130K21,7,597,PS,exp,50,↓,down,↓,0.8969112997874618,True,23,-1,0,4
Y2-S2-130K21,7,598,PS,exp,29,→,right,→,1.0302803004160523,True,23,1,1,5
Y2-S2-130K21,7,599,PS,exp,41,←,left,←,0.5785295004025102,True,22,1,0,5
Y2-S2-130K21,7,600,PS,exp,39,↓,down,↓,1.0786749999970198,True,22,1,0,5
Y2-S2-130K21,7,601,PS,exp,32,↑,up,↑,0.5640097996219993,True,22,1,0,5
Y2-S2-130K21,7,602,PS,exp,50,←,no_key,no_letter,-1.0,False,21,-1,1,6
Y2-S2-130K21,7,603,PS,exp,26,↑,up,↑,0.6621126001700759,True,22,-1,0,6
Y2-S2-130K21,7,604,PS,exp,28,←,left,←,0.7749079000204802,True,22,-1,0,6
Y2-S2-130K21,7,605,PS,exp,38,↓,down,↓,0.68308350071311,True,22,1,1,7
Y2-S2-130K21,7,606,PS,exp,26,↑,down,↓,1.6262489994987845,False,21,-1,1,8
Y2-S2-130K21,7,607,PS,exp,36,←,left,←,1.2240629000589252,True,22,-1,0,8
Y2-S2-130K21,7,608,PS,exp,41,↑,up,↑,0.5387595994397998,True,22,-1,0,8
Y2-S2-130K21,7,609,PS,exp,34,←,left,←,0.5010470002889633,True,22,1,1,9
Y2-S2-130K21,7,610,PS,exp,35,→,up,↑,1.655022899620235,False,21,-1,1,10
Y2-S2-130K21,7,611,PS,exp,50,↑,up,↑,0.5006607007235289,True,22,-1,0,10
Y2-S2-130K21,7,612,PS,exp,39,→,right,→,0.48380890022963285,True,22,-1,0,10
Y2-S2-130K21,7,613,PS,exp,44,←,left,←,0.6214406993240118,True,22,1,1,11
Y2-S2-130K21,7,614,PS,exp,35,↑,up,↑,0.5362406000494957,True,21,1,0,11
Y2-S2-130K21,7,615,PS,exp,41,→,up,↑,1.441265200264752,False,21,-1,1,12
Y2-S2-130K21,7,616,PS,exp,30,←,left,←,0.7020731996744871,True,22,-1,0,12
Y2-S2-130K21,7,617,PS,exp,26,→,right,→,0.7436805004253983,True,22,-1,0,12
Y2-S2-130K21,7,618,PS,exp,34,↑,up,↑,0.6288429005071521,True,22,1,1,13
Y2-S2-130K21,7,619,PS,exp,47,→,right,→,0.5399078000336885,True,21,1,0,13
Y2-S2-130K21,7,620,PS,exp,50,↑,down,↓,1.333190600387752,False,21,-1,1,14
Y2-S2-130K21,7,621,PS,exp,38,←,up,↑,0.887653199955821,False,22,-1,0,14
Y2-S2-130K21,7,622,PS,exp,40,↓,down,↓,0.6939452001824975,True,23,-1,0,14
Y2-S2-130K21,7,623,PS,exp,25,←,left,←,0.7874136995524168,True,23,-1,0,14
Y2-S2-130K21,7,624,PS,exp,27,→,right,→,0.9169946005567908,True,23,1,1,15
Y2-S2-130K21,7,625,PS,exp,45,↑,no_key,no_letter,-1.0,False,22,-1,1,16
Y2-S2-130K21,8,626,AS,intra_train,29,→,right,→,0.5677840001881123,True,28,-,-,-
Y2-S2-130K21,8,627,AS,intra_train,43,←,left,←,0.5175818996503949,True,28,-,-,-
Y2-S2-130K21,8,628,AS,intra_train,27,→,right,→,0.501460500061512,True,28,-,-,-
Y2-S2-130K21,8,629,AS,intra_train,28,↑,up,↑,0.7515686005353928,True,28,-,-,-
Y2-S2-130K21,8,630,AS,intra_train,38,←,left,←,0.9249518001452088,True,28,-,-,-
Y2-S2-130K21,8,631,AS,exp,43,→,down,↓,1.4008429003879428,False,19,-1,0,0
Y2-S2-130K21,8,632,AS,exp,36,↑,up,↑,0.6868602996692061,True,20,-1,0,0
Y2-S2-130K21,8,633,AS,exp,48,↓,up,↑,0.21773679926991463,False,20,-1,0,0
Y2-S2-130K21,8,634,AS,exp,31,←,left,←,0.5320512000471354,True,21,-1,0,0
Y2-S2-130K21,8,635,AS,exp,47,→,right,→,0.5591898001730442,True,21,-1,0,0
Y2-S2-130K21,8,636,AS,exp,44,↓,down,↓,1.0290349004790187,True,21,1,1,1
Y2-S2-130K21,8,637,AS,exp,27,→,right,→,0.5912506999447942,True,20,1,0,1
Y2-S2-130K21,8,638,AS,exp,45,↑,up,↑,0.5223420998081565,True,20,1,0,1
Y2-S2-130K21,8,639,AS,exp,36,→,up,↑,0.2179080005735159,False,20,-1,1,2
Y2-S2-130K21,8,640,AS,exp,37,↓,down,↓,0.5724684996530414,True,21,-1,0,2
Y2-S2-130K21,8,641,AS,exp,40,←,right,→,0.835144099779427,False,21,-1,0,2
Y2-S2-130K21,8,642,AS,exp,40,→,down,↓,0.5496319001540542,False,22,-1,0,2
Y2-S2-130K21,8,643,AS,exp,29,↓,down,↓,0.7026270003989339,True,23,-1,0,2
Y2-S2-130K21,8,644,AS,exp,32,→,down,↓,0.9621031004935503,False,23,-1,0,2
Y2-S2-130K21,8,645,AS,exp,36,←,right,→,0.2845692001283169,False,24,-1,0,2
Y2-S2-130K21,8,646,AS,exp,25,↓,down,↓,0.6839223001152277,True,25,-1,0,2
Y2-S2-130K21,8,647,AS,exp,42,↑,up,↑,1.0031767999753356,True,25,-1,0,2
Y2-S2-130K21,8,648,AS,exp,26,→,right,→,0.8817413998767734,True,25,1,1,3
Y2-S2-130K21,8,649,AS,exp,47,←,down,↓,0.5340229999274015,False,24,-1,1,4
Y2-S2-130K21,8,650,AS,exp,28,→,right,→,1.0875441003590822,True,25,-1,0,4
Y2-S2-130K21,8,651,AS,exp,44,↑,up,↑,0.40048309974372387,True,25,-1,0,4
Y2-S2-130K21,8,652,AS,exp,35,→,down,↓,0.3013605996966362,False,25,-1,0,4
Y2-S2-130K21,8,653,AS,exp,34,↑,right,→,0.5016873991116881,False,26,-1,0,4
Y2-S2-130K21,8,654,AS,exp,50,←,down,↓,1.4138903999701142,False,27,-1,0,4
Y2-S2-130K21,8,655,AS,exp,29,→,no_key,no_letter,-1.0,False,28,-1,0,4
Y2-S2-130K21,8,656,AS,exp,28,←,right,→,0.16813679970800877,False,29,-1,0,4
Y2-S2-130K21,8,657,AS,exp,43,→,right,→,1.3878418998792768,True,30,-1,0,4
Y2-S2-130K21,8,658,AS,exp,47,←,left,←,1.2006756998598576,True,30,-1,0,4
Y2-S2-130K21,8,659,AS,exp,40,↓,right,→,2.0679919999092817,False,30,-1,0,4
Y2-S2-130K21,8,660,AS,exp,35,→,right,→,0.9211299000307918,True,31,-1,0,4
Y2-S2-130K21,8,661,AS,exp,27,←,no_key,no_letter,-1.0,False,31,-1,0,4
Y2-S2-130K21,8,662,AS,exp,32,↓,down,↓,1.0267120003700256,True,32,-1,0,4
Y2-S2-130K21,8,663,AS,exp,48,←,left,←,1.0196992997080088,True,32,-1,0,4
Y2-S2-130K21,8,664,AS,exp,40,→,right,→,1.2177798999473453,True,32,1,1,5
Y2-S2-130K21,8,665,AS,exp,42,↓,right,→,1.2801404995843768,False,31,-1,1,6
Y2-S2-130K21,8,666,AS,exp,27,→,right,→,1.5603229999542236,True,32,-1,0,6
Y2-S2-130K21,8,667,AS,exp,35,↑,left,←,0.9484384004026651,False,32,-1,0,6
Y2-S2-130K21,8,668,AS,exp,26,↓,down,↓,0.9825029000639915,True,33,-1,0,6
Y2-S2-130K21,8,669,AS,exp,43,↑,no_key,no_letter,-1.0,False,33,-1,0,6
Y2-S2-130K21,8,670,AS,exp,46,→,left,←,1.4475481994450092,False,34,-1,0,6
Y2-S2-130K21,8,671,AS,exp,29,←,left,←,0.6342982994392514,True,35,-1,0,6
Y2-S2-130K21,8,672,AS,exp,44,→,right,→,1.0056286007165909,True,35,-1,0,6
Y2-S2-130K21,8,673,AS,exp,44,↓,down,↓,0.6008497001603246,True,35,1,1,7
Y2-S2-130K21,8,674,AS,exp,47,↑,up,↑,0.9716442003846169,True,34,1,0,7
Y2-S2-130K21,8,675,AS,exp,30,←,left,←,0.7630334999412298,True,34,1,0,7
Y2-S2-130K21,8,676,AS,exp,26,↑,left,←,1.2349319998174906,False,34,-1,1,8
Y2-S2-130K21,8,677,AS,exp,32,→,right,→,1.0584745993837714,True,35,-1,0,8
Y2-S2-130K21,8,678,AS,exp,41,↑,up,↑,1.12175100017339,True,35,-1,0,8
Y2-S2-130K21,8,679,AS,exp,49,→,right,→,0.634022899903357,True,35,1,1,9
Y2-S2-130K21,8,680,AS,exp,37,↑,down,↓,0.9121058005839586,False,34,-1,1,10
Y2-S2-130K21,8,681,AS,exp,35,→,right,→,0.6171339992433786,True,35,-1,0,10
Y2-S2-130K21,8,682,AS,exp,36,↓,down,↓,1.057218199595809,True,35,-1,0,10
Y2-S2-130K21,8,683,AS,exp,37,←,left,←,0.9378642998635769,True,35,1,1,11
Y2-S2-130K21,8,684,AS,exp,29,↓,right,→,0.11768190003931522,False,34,-1,1,12
Y2-S2-130K21,8,685,AS,exp,34,→,right,→,0.7536947000771761,True,35,-1,0,12
Y2-S2-130K21,8,686,AS,exp,46,←,left,←,0.8308709999546409,True,35,-1,0,12
Y2-S2-130K21,8,687,AS,exp,31,↑,right,→,0.5841771997511387,False,35,-1,0,12
Y2-S2-130K21,8,688,AS,exp,31,→,right,→,0.4677614001557231,True,36,-1,0,12
Y2-S2-130K21,8,689,AS,exp,37,↑,up,↑,0.862155799753964,True,36,-1,0,12
Y2-S2-130K21,8,690,AS,exp,30,↓,down,↓,1.1192789999768138,True,36,1,1,13
Y2-S2-130K21,8,691,AS,exp,49,→,down,↓,0.20120410062372684,False,35,-1,1,14
Y2-S2-130K21,8,692,AS,exp,34,↑,left,←,0.7763232998549938,False,36,-1,0,14
Y2-S2-130K21,8,693,AS,exp,46,←,right,→,1.6767301000654697,False,37,-1,0,14
Y2-S2-130K21,8,694,AS,exp,31,↓,down,↓,1.0664077000692487,True,38,-1,0,14
Y2-S2-130K21,8,695,AS,exp,26,→,right,→,0.7172338999807835,True,38,-1,0,14
Y2-S2-130K21,8,696,AS,exp,28,↓,down,↓,0.7340541006997228,True,38,1,1,15
Y2-S2-130K21,8,697,AS,exp,31,←,no_key,no_letter,-1.0,False,37,-1,1,16
