PART_ID,Trial_no,Trial_type,PDI,Stim_letter,Key_pressed,letter_choose,Rt,Corr,Stimulus Time
X014K22,1,training,10,←,left,←,1.5416549001820385,True,30
X014K22,2,training,10,↑,up,↑,2.0084758000448346,True,30
X014K22,3,training,10,↑,up,↑,0.9244200000539422,True,30
X014K22,4,training,10,→,right,→,0.54994250042364,True,30
X014K22,5,training,10,→,right,→,0.6338630001991987,True,30
X014K22,6,training,10,↑,up,↑,0.78336470015347,True,30
X014K22,7,training,10,↓,right,→,0.3671208000741899,False,30
X014K22,8,training,10,↑,up,↑,0.9205415998585522,True,30
X014K22,9,training,10,↓,down,↓,1.2980919000692666,True,30
X014K22,10,training,10,←,left,←,1.1478775003924966,True,30
X014K22,11,training,10,←,left,←,1.1344876000657678,True,30
X014K22,12,training,10,←,left,←,0.9170483998022974,True,30
X014K22,13,training,10,←,left,←,0.8631751998327672,True,30
X014K22,14,training,10,←,left,←,0.9036095002666116,True,30
X014K22,15,training,10,↑,up,↑,0.6338892001658678,True,30
X014K22,16,training,10,↓,down,↓,0.8065335000865161,True,30
X014K22,17,training,10,←,left,←,0.7904584002681077,True,30
X014K22,18,training,10,→,right,→,0.7900174004025757,True,30
X014K22,19,training,10,→,right,→,0.6768613997846842,True,30
X014K22,20,training,10,↑,up,↑,0.8166344002820551,True,30
X014K22,21,training,10,→,right,→,0.6102240001782775,True,18
X014K22,22,training,10,→,right,→,0.8120806999504566,True,18
X014K22,23,training,10,←,left,←,0.7015746999531984,True,18
X014K22,24,training,10,↑,up,↑,0.6312345997430384,True,18
X014K22,25,training,10,→,right,→,0.5101723000407219,True,18
X014K22,26,training,10,→,down,↓,0.7407650002278388,False,18
X014K22,27,training,10,→,right,→,0.6106257997453213,True,18
X014K22,28,training,10,→,right,→,0.7658549002371728,True,18
X014K22,29,training,10,↓,down,↓,0.5772044998593628,True,18
X014K22,30,training,10,↓,down,↓,0.7559424000792205,True,18
X014K22,31,training,168,↑,down,↓,0.9606075002811849,False,15
X014K22,32,training,180,↑,up,↑,0.7591995997354388,True,15
X014K22,33,training,72,→,left,←,0.9532953999005258,False,15
X014K22,34,experiment,108,←,right,→,0.6809788001701236,False,15
X014K22,35,experiment,12,↓,down,↓,1.6954132001847029,True,15
X014K22,36,experiment,108,↓,down,↓,0.5217153998091817,True,15
X014K22,37,experiment,180,↑,up,↑,0.666402299888432,True,15
X014K22,38,experiment,96,→,right,→,0.7370592998340726,True,15
X014K22,39,experiment,96,→,right,→,0.5360451000742614,True,15
X014K22,40,experiment,60,↑,up,↑,1.1734219999052584,True,15
X014K22,41,experiment,168,→,left,←,0.8173055998049676,False,15
X014K22,42,experiment,84,→,right,→,0.7338589997962117,True,15
X014K22,43,experiment,180,→,right,→,0.47602370008826256,True,15
X014K22,44,experiment,120,→,right,→,0.8932806001976132,True,15
X014K22,45,experiment,156,→,left,←,1.0257470002397895,False,15
X014K22,46,experiment,48,↑,up,↑,1.109810700174421,True,15
X014K22,47,experiment,120,→,right,→,0.5268175001256168,True,15
X014K22,48,experiment,24,↓,up,↑,0.8017893000505865,False,15
X014K22,49,experiment,36,↓,down,↓,0.636651000007987,True,15
X014K22,50,experiment,180,↓,down,↓,0.7409426998347044,True,15
X014K22,51,experiment,72,←,left,←,0.6000031000003219,True,15
X014K22,52,experiment,168,↓,right,→,1.2698427001014352,False,15
X014K22,53,experiment,60,→,right,→,0.6299908999353647,True,15
X014K22,54,experiment,96,↓,down,↓,0.5358204999938607,True,15
X014K22,55,experiment,72,←,left,←,0.5676899999380112,True,15
X014K22,56,experiment,180,→,right,→,0.4830025997944176,True,15
X014K22,57,experiment,168,↑,up,↑,0.6509956000372767,True,15
X014K22,58,experiment,24,↓,down,↓,0.540100899990648,True,15
X014K22,59,experiment,84,←,left,←,0.5385445998981595,True,15
X014K22,60,experiment,144,←,left,←,0.49896280001848936,True,15
X014K22,61,experiment,36,←,right,→,0.7265294999815524,False,15
X014K22,62,experiment,72,↑,down,↓,0.8276464003138244,False,15
X014K22,63,experiment,120,←,right,→,1.6877075000666082,False,15
X014K22,64,experiment,12,↑,up,↑,0.6758161000907421,True,15
X014K22,65,experiment,108,→,right,→,0.45889770006760955,True,15
X014K22,66,experiment,132,←,left,←,0.5435782996937633,True,15
X014K22,67,experiment,144,←,left,←,0.6393991000950336,True,15
X014K22,68,experiment,48,←,left,←,0.6351387002505362,True,15
X014K22,69,experiment,48,↑,no_key,no_letter,-1.0,False,15
X014K22,70,experiment,108,↓,right,→,0.4448788999579847,False,15
X014K22,71,experiment,48,↑,down,↓,0.5810555000789464,False,15
X014K22,72,experiment,36,↑,left,←,1.144266600254923,False,15
X014K22,73,experiment,12,←,left,←,0.6028713998384774,True,15
X014K22,74,experiment,144,↑,up,↑,0.5529310000129044,True,15
X014K22,75,experiment,72,↓,down,↓,0.716176999732852,True,15
X014K22,76,experiment,12,→,right,→,1.7630361998453736,True,15
X014K22,77,experiment,96,↑,up,↑,0.4513424001634121,True,15
X014K22,78,experiment,24,↑,up,↑,1.2415747996419668,True,15
X014K22,79,experiment,60,→,right,→,0.7041597999632359,True,15
X014K22,80,experiment,84,↑,right,→,1.1427215998992324,False,15
X014K22,81,experiment,156,←,left,←,0.5100898998789489,True,15
X014K22,82,experiment,132,←,right,→,0.6357986000366509,False,15
X014K22,83,experiment,24,→,right,→,0.4739429000765085,True,15
X014K22,84,experiment,156,→,left,←,0.49712059972807765,False,15
X014K22,85,experiment,132,↓,down,↓,1.3638638001866639,True,15
X014K22,86,experiment,144,↓,right,→,0.5152824996039271,False,15
X014K22,87,experiment,120,→,left,←,0.5213003000244498,False,15
X014K22,88,experiment,156,↓,down,↓,1.1168980998918414,True,15
X014K22,89,experiment,132,↓,down,↓,0.6496823998168111,True,15
X014K22,90,experiment,168,→,right,→,0.5040420000441372,True,15
X014K22,91,experiment,36,↓,right,→,0.8324561002664268,False,15
X014K22,92,experiment,84,↓,up,↑,1.5669817999005318,False,15
X014K22,93,experiment,60,↑,down,↓,0.6883779000490904,False,15
X014K22,94,training,36,←,right,→,0.7458250001072884,False,15
X014K22,95,training,132,→,right,→,0.7316846000030637,True,15
X014K22,96,training,96,↑,up,↑,0.6363502996973693,True,15
X014K22,97,experiment,108,↓,up,↑,0.9922185000032187,False,15
X014K22,98,experiment,12,↓,up,↑,1.0348077998496592,False,15
X014K22,99,experiment,168,↑,up,↑,0.6656257999129593,True,15
X014K22,100,experiment,12,↓,down,↓,1.3783526001498103,True,15
X014K22,101,experiment,156,←,left,←,0.5285738999955356,True,15
X014K22,102,experiment,60,→,left,←,0.6743300002999604,False,15
X014K22,103,experiment,120,←,left,←,0.4293069997802377,True,15
X014K22,104,experiment,24,↑,up,↑,0.4307814002968371,True,15
X014K22,105,experiment,84,↓,down,↓,0.5660546999424696,True,15
X014K22,106,experiment,180,↑,up,↑,0.5583815998397768,True,15
X014K22,107,experiment,168,↓,down,↓,0.6147413002327085,True,15
X014K22,108,experiment,72,↓,down,↓,0.7260344000533223,True,15
X014K22,109,experiment,84,→,right,→,0.5479386001825333,True,15
X014K22,110,experiment,72,↓,left,←,1.6909088999964297,False,15
X014K22,111,experiment,12,↓,no_key,no_letter,-1.0,False,15
X014K22,112,experiment,168,↓,no_key,no_letter,-1.0,False,15
X014K22,113,experiment,132,→,left,←,0.6989461998455226,False,15
X014K22,114,experiment,72,↑,down,↓,1.3009119997732341,False,15
X014K22,115,experiment,120,↑,up,↑,0.49361159978434443,True,15
X014K22,116,experiment,48,↑,down,↓,0.8368688002228737,False,15
X014K22,117,experiment,60,↑,right,→,1.2760421000421047,False,15
X014K22,118,experiment,180,↓,down,↓,0.6522556999698281,True,15
X014K22,119,experiment,144,↑,up,↑,0.5560104004107416,True,15
X014K22,120,experiment,168,→,right,→,0.642592899966985,True,15
X014K22,121,experiment,84,←,right,→,1.3270898000337183,False,15
X014K22,122,experiment,132,↓,down,↓,0.7663058000616729,True,15
X014K22,123,experiment,48,↑,up,↑,0.5965256998315454,True,15
X014K22,124,experiment,120,↓,up,↑,1.2927304999902844,False,15
X014K22,125,experiment,156,←,left,←,0.36724029993638396,True,15
X014K22,126,experiment,24,→,right,→,1.3925399002619088,True,15
X014K22,127,experiment,156,→,right,→,0.7711851997300982,True,15
X014K22,128,experiment,132,↑,down,↓,0.7616687002591789,False,15
X014K22,129,experiment,108,↑,up,↑,0.4797228998504579,True,15
X014K22,130,experiment,144,←,left,←,0.6805533999577165,True,15
X014K22,131,experiment,180,←,left,←,0.5911689000204206,True,15
X014K22,132,experiment,12,→,left,←,0.7610955997370183,False,15
X014K22,133,experiment,36,→,right,→,0.4441434000618756,True,15
X014K22,134,experiment,108,↑,left,←,0.8060725000686944,False,15
X014K22,135,experiment,132,↑,up,↑,0.9581919996999204,True,15
X014K22,136,experiment,120,→,right,→,0.6913028000853956,True,15
X014K22,137,experiment,24,←,right,→,0.8806722001172602,False,15
X014K22,138,experiment,60,↓,up,↑,0.7721114000305533,False,15
X014K22,139,experiment,72,↑,up,↑,0.701583200134337,True,15
X014K22,140,experiment,84,→,right,→,0.4469457999803126,True,15
X014K22,141,experiment,24,↑,up,↑,0.7518440997228026,True,15
X014K22,142,experiment,96,←,right,→,0.7948954999446869,False,15
X014K22,143,experiment,36,↑,down,↓,1.3755319998599589,False,15
X014K22,144,experiment,96,↓,down,↓,0.8831909000873566,True,15
X014K22,145,experiment,36,↓,down,↓,1.041230299975723,True,15
X014K22,146,experiment,60,↑,up,↑,0.4953128001652658,True,15
X014K22,147,experiment,96,←,down,↓,0.7126802997663617,False,15
X014K22,148,experiment,96,↑,left,←,1.3302539000287652,False,15
X014K22,149,experiment,144,→,down,↓,1.1075373999774456,False,15
X014K22,150,experiment,48,←,left,←,0.8089760998263955,True,15
X014K22,151,experiment,180,←,left,←,0.8660264001227915,True,15
X014K22,152,experiment,156,↓,down,↓,0.5398108996450901,True,15
X014K22,153,experiment,36,↓,right,→,1.3826969997026026,False,15
X014K22,154,experiment,144,←,left,←,0.5669141001999378,True,15
X014K22,155,experiment,48,↓,down,↓,0.5545387999154627,True,15
X014K22,156,experiment,108,↓,left,←,1.05739889992401,False,15
X014K22,157,training,84,↓,down,↓,0.721229899674654,True,15
X014K22,158,training,120,↑,down,↓,0.6918834997341037,False,15
X014K22,159,training,72,↑,up,↑,0.6303435997106135,True,15
X014K22,160,experiment,132,↑,down,↓,0.603570899926126,False,15
X014K22,161,experiment,60,→,right,→,0.4535894999280572,True,15
X014K22,162,experiment,180,←,left,←,0.7411647997796535,True,15
X014K22,163,experiment,12,↑,up,↑,0.7570031997747719,True,15
X014K22,164,experiment,48,←,left,←,0.46377060003578663,True,15
X014K22,165,experiment,48,←,left,←,0.8585604997351766,True,15
X014K22,166,experiment,24,←,left,←,0.469204000197351,True,15
X014K22,167,experiment,36,↑,up,↑,0.6131667997688055,True,15
X014K22,168,experiment,144,↓,down,↓,0.8163324999623001,True,15
X014K22,169,experiment,132,↓,down,↓,0.5285911997780204,True,15
X014K22,170,experiment,60,↓,down,↓,0.48285969998687506,True,15
X014K22,171,experiment,72,→,right,→,0.42798810033127666,True,15
X014K22,172,experiment,120,↑,down,↓,0.8104652999900281,False,15
X014K22,173,experiment,156,←,left,←,0.7222917000763118,True,15
X014K22,174,experiment,96,↑,up,↑,0.6612501000054181,True,15
X014K22,175,experiment,84,←,up,↑,0.7636483004316688,False,15
X014K22,176,experiment,24,↑,up,↑,0.48318779980763793,True,15
X014K22,177,experiment,180,←,left,←,0.6510971002280712,True,15
X014K22,178,experiment,12,↓,down,↓,1.3956535998731852,True,15
X014K22,179,experiment,132,→,right,→,0.5158255002461374,True,15
X014K22,180,experiment,168,←,right,→,0.7180827003903687,False,15
X014K22,181,experiment,180,→,left,←,0.9704605001024902,False,15
X014K22,182,experiment,180,←,left,←,0.8457931000739336,True,15
X014K22,183,experiment,36,↑,up,↑,0.6945410999469459,True,15
X014K22,184,experiment,168,↑,up,↑,0.7796101002022624,True,15
X014K22,185,experiment,24,←,left,←,0.8181659001857042,True,15
X014K22,186,experiment,48,←,left,←,0.6440682001411915,True,15
X014K22,187,experiment,108,↑,up,↑,0.6726791998371482,True,15
X014K22,188,experiment,156,↑,up,↑,0.7981151002459228,True,15
X014K22,189,experiment,108,→,right,→,0.44572020042687654,True,15
X014K22,190,experiment,12,→,right,→,0.9168805000372231,True,15
X014K22,191,experiment,72,→,no_key,no_letter,-1.0,False,15
X014K22,192,experiment,120,↑,up,↑,0.7085023997351527,True,15
X014K22,193,experiment,84,↑,right,→,1.6338777001947165,False,15
X014K22,194,experiment,108,→,right,→,0.781175300013274,True,15
X014K22,195,experiment,144,←,left,←,0.625810599885881,True,15
X014K22,196,experiment,72,↓,down,↓,0.7773695001378655,True,15
X014K22,197,experiment,24,→,right,→,0.6257376000285149,True,15
X014K22,198,experiment,60,→,left,←,1.7452593999914825,False,15
X014K22,199,experiment,96,→,down,↓,1.4241567999124527,False,15
X014K22,200,experiment,48,←,right,→,0.7853369996882975,False,15
X014K22,201,experiment,168,↑,up,↑,1.2457787999883294,True,15
X014K22,202,experiment,96,←,left,←,0.5934906001202762,True,15
X014K22,203,experiment,168,↓,down,↓,0.549490800127387,True,15
X014K22,204,experiment,144,←,right,→,0.8309887000359595,False,15
X014K22,205,experiment,120,↓,down,↓,0.6554298000410199,True,15
X014K22,206,experiment,60,←,left,←,0.49049670016393065,True,15
X014K22,207,experiment,132,↓,down,↓,0.5131447999738157,True,15
X014K22,208,experiment,36,↑,down,↓,0.9170539998449385,False,15
X014K22,209,experiment,156,↓,down,↓,0.5890915002673864,True,15
X014K22,210,experiment,84,↓,down,↓,0.7745619998313487,True,15
X014K22,211,experiment,156,↓,down,↓,1.157710500061512,True,15
X014K22,212,experiment,84,←,right,→,1.0344555000774562,False,15
X014K22,213,experiment,12,↓,down,↓,0.5972896004095674,True,15
X014K22,214,experiment,144,↓,down,↓,0.7440080000087619,True,15
X014K22,215,experiment,96,←,up,↑,1.4864149000495672,False,15
X014K22,216,experiment,36,↑,up,↑,0.8680118001066148,True,15
X014K22,217,experiment,120,→,right,→,0.9742511999793351,True,15
X014K22,218,experiment,108,↓,down,↓,0.6392405997030437,True,15
X014K22,219,experiment,72,←,right,→,0.6737663000822067,False,15
X014K22,220,training,48,↑,down,↓,0.5618426003493369,False,15
X014K22,221,training,72,↓,down,↓,0.635455199982971,True,15
X014K22,222,training,132,←,left,←,0.5425181002356112,True,15
X014K22,223,experiment,108,↑,down,↓,0.6319909999147058,False,15
X014K22,224,experiment,168,↓,down,↓,0.6301525998860598,True,15
X014K22,225,experiment,144,↓,down,↓,0.574371499940753,True,15
X014K22,226,experiment,120,↑,down,↓,0.5796419000253081,False,15
X014K22,227,experiment,72,←,left,←,0.43134870007634163,True,15
X014K22,228,experiment,12,→,right,→,1.1025708001106977,True,15
X014K22,229,experiment,60,↑,down,↓,0.5088365999981761,False,15
X014K22,230,experiment,48,↓,down,↓,0.6563068996183574,True,15
X014K22,231,experiment,180,→,right,→,0.38391439989209175,True,15
X014K22,232,experiment,84,↓,down,↓,0.7049081004224718,True,15
X014K22,233,experiment,36,↓,down,↓,0.740674200002104,True,15
X014K22,234,experiment,12,↑,up,↑,0.8447571001015604,True,15
X014K22,235,experiment,24,←,right,→,0.5607249001041055,False,15
X014K22,236,experiment,96,←,left,←,0.7606544001027942,True,15
X014K22,237,experiment,12,→,right,→,0.7970855003222823,True,15
X014K22,238,experiment,132,←,right,→,1.2037257002666593,False,15
X014K22,239,experiment,96,→,right,→,0.8676187000237405,True,15
X014K22,240,experiment,36,→,right,→,1.1470022001303732,True,15
X014K22,241,experiment,156,↑,down,↓,1.8730568997561932,False,15
X014K22,242,experiment,12,↓,down,↓,0.6300817001610994,True,15
X014K22,243,experiment,96,↑,up,↑,0.48880230030044913,True,15
X014K22,244,experiment,108,↑,up,↑,0.7723854999057949,True,15
X014K22,245,experiment,132,↑,left,←,1.4218545998446643,False,15
X014K22,246,experiment,36,←,left,←,0.4758251002058387,True,15
X014K22,247,experiment,156,↓,up,↑,0.821643200237304,False,15
X014K22,248,experiment,144,←,left,←,0.45879629999399185,True,15
X014K22,249,experiment,120,→,right,→,0.5964218000881374,True,15
X014K22,250,experiment,24,↓,down,↓,0.9495953000150621,True,15
X014K22,251,experiment,24,←,left,←,1.3059274996630847,True,15
X014K22,252,experiment,72,↓,up,↑,0.8749818000942469,False,15
X014K22,253,experiment,108,→,right,→,0.64384979987517,True,15
X014K22,254,experiment,168,↓,up,↑,1.1629928997717798,False,15
X014K22,255,experiment,144,→,right,→,0.662929099984467,True,15
X014K22,256,experiment,72,↓,down,↓,0.7891076002269983,True,15
X014K22,257,experiment,132,←,left,←,0.6710368003696203,True,15
X014K22,258,experiment,120,↑,up,↑,0.6490559000521898,True,15
X014K22,259,experiment,84,↓,down,↓,0.7122866003774107,True,15
X014K22,260,experiment,72,←,right,→,0.7175770001485944,False,15
X014K22,261,experiment,180,↓,up,↑,0.8609734000638127,False,15
X014K22,262,experiment,144,→,left,←,1.0160723999142647,False,15
X014K22,263,experiment,84,↑,up,↑,0.8110187002457678,True,15
X014K22,264,experiment,96,↓,up,↑,0.7458593002520502,False,15
X014K22,265,experiment,60,→,right,→,0.49564610002562404,True,15
X014K22,266,experiment,132,↑,up,↑,0.4928971999324858,True,15
X014K22,267,experiment,168,→,left,←,0.7781725004315376,False,15
X014K22,268,experiment,168,↑,down,↓,0.7517802002839744,False,15
X014K22,269,experiment,180,↓,down,↓,0.6262834998778999,True,15
X014K22,270,experiment,108,←,left,←,0.6027522003278136,True,15
X014K22,271,experiment,36,→,right,→,0.5849898997694254,True,15
X014K22,272,experiment,120,↓,down,↓,0.6545524001121521,True,15
X014K22,273,experiment,24,←,right,→,0.9587602997198701,False,15
X014K22,274,experiment,48,↓,down,↓,0.641259599942714,True,15
X014K22,275,experiment,156,↑,down,↓,0.6657696003094316,False,15
X014K22,276,experiment,84,↑,right,→,1.3324919999577105,False,15
X014K22,277,experiment,60,→,right,→,0.49071660032495856,True,15
X014K22,278,experiment,156,→,right,→,0.5428646001964808,True,15
X014K22,279,experiment,60,↑,right,→,1.689877400174737,False,15
X014K22,280,experiment,48,→,right,→,1.0414155996404588,True,15
X014K22,281,experiment,48,←,right,→,0.9591262000612915,False,15
X014K22,282,experiment,180,↓,down,↓,0.5866310000419617,True,15
X014K22,283,training,120,↓,down,↓,0.5155030000023544,True,15
X014K22,284,training,72,←,left,←,0.5979780997149646,True,15
X014K22,285,training,60,←,left,←,0.5595021997578442,True,15
X014K22,286,experiment,120,←,right,→,0.8778117997571826,False,15
X014K22,287,experiment,72,↓,down,↓,1.3231819001957774,True,15
X014K22,288,experiment,36,←,left,←,0.5984388003125787,True,15
X014K22,289,experiment,84,↑,down,↓,0.6089439000934362,False,15
X014K22,290,experiment,168,→,right,→,0.7280442998744547,True,15
X014K22,291,experiment,156,→,right,→,0.531074299942702,True,15
X014K22,292,experiment,180,↑,up,↑,0.892813399899751,True,15
X014K22,293,experiment,72,→,right,→,0.8614099002443254,True,15
X014K22,294,experiment,180,←,right,→,1.3991962000727654,False,15
X014K22,295,experiment,132,↑,up,↑,0.706602199934423,True,15
X014K22,296,experiment,120,↓,up,↑,1.1706753000617027,False,15
X014K22,297,experiment,132,→,right,→,0.5282128001563251,True,15
X014K22,298,experiment,144,←,right,→,0.7406113999895751,False,15
X014K22,299,experiment,96,↑,up,↑,0.6416445998474956,True,15
X014K22,300,experiment,144,→,right,→,0.7088907002471387,True,15
X014K22,301,experiment,156,↑,up,↑,0.5830983999185264,True,15
X014K22,302,experiment,96,↑,up,↑,0.7171200001612306,True,15
X014K22,303,experiment,24,←,right,→,0.6585474000312388,False,15
X014K22,304,experiment,84,↑,up,↑,0.5909640998579562,True,15
X014K22,305,experiment,48,→,right,→,0.61851009959355,True,15
X014K22,306,experiment,72,↑,up,↑,1.5620868001133204,True,15
X014K22,307,experiment,168,↓,up,↑,1.1327093001455069,False,15
X014K22,308,experiment,72,→,right,→,0.7635337999090552,True,15
X014K22,309,experiment,60,↓,right,→,1.0674732998013496,False,15
X014K22,310,experiment,96,↑,down,↓,0.6415555998682976,False,15
X014K22,311,experiment,36,→,right,→,0.4656289000995457,True,15
X014K22,312,experiment,108,→,left,←,1.0784482997842133,False,15
X014K22,313,experiment,168,↓,down,↓,0.7371080000884831,True,15
X014K22,314,experiment,168,→,right,→,0.4376162001863122,True,15
X014K22,315,experiment,132,→,right,→,0.5674083000048995,True,15
X014K22,316,experiment,12,↑,up,↑,0.8301323000341654,True,15
X014K22,317,experiment,24,←,right,→,0.8097492000088096,False,15
X014K22,318,experiment,12,←,right,→,1.1556567000225186,False,15
X014K22,319,experiment,120,↑,down,↓,0.669357200153172,False,15
X014K22,320,experiment,84,↓,down,↓,0.5572056001983583,True,15
X014K22,321,experiment,132,←,right,→,0.3673445996828377,False,15
X014K22,322,experiment,24,←,left,←,0.7136987000703812,True,15
X014K22,323,experiment,36,↓,down,↓,0.8331113001331687,True,15
X014K22,324,experiment,60,←,left,←,0.5550550003536046,True,15
X014K22,325,experiment,180,↓,down,↓,0.623102200217545,True,15
X014K22,326,experiment,120,↑,up,↑,0.8461210001260042,True,15
X014K22,327,experiment,48,↑,up,↑,0.5937669998966157,True,15
X014K22,328,experiment,48,↑,up,↑,0.6879651001654565,True,15
X014K22,329,experiment,180,↑,down,↓,1.0078344997018576,False,15
X014K22,330,experiment,96,↓,down,↓,0.6355168004520237,True,15
X014K22,331,experiment,12,↓,down,↓,1.0767319002188742,True,15
X014K22,332,experiment,144,↑,down,↓,0.47402859991416335,False,15
X014K22,333,experiment,108,→,right,→,0.7207246003672481,True,15
X014K22,334,experiment,108,→,right,→,0.6417100997641683,True,15
X014K22,335,experiment,144,←,left,←,0.488058399874717,True,15
X014K22,336,experiment,36,→,down,↓,0.9270997997373343,False,15
X014K22,337,experiment,60,↑,left,←,1.1355248996987939,False,15
X014K22,338,experiment,60,→,right,→,0.8316952004097402,True,15
X014K22,339,experiment,108,↓,down,↓,0.636190399993211,True,15
X014K22,340,experiment,156,↓,down,↓,0.6754624997265637,True,15
X014K22,341,experiment,24,→,right,→,0.8701749998144805,True,15
X014K22,342,experiment,48,↑,down,↓,0.7402015998959541,False,15
X014K22,343,experiment,12,↑,up,↑,0.832886999938637,True,15
X014K22,344,experiment,156,↑,right,→,0.9011520999483764,False,15
X014K22,345,experiment,84,→,right,→,0.5990634998306632,True,15
X014K22,346,training,96,←,left,←,0.6554632000625134,True,15
X014K22,347,training,84,↓,down,↓,0.6674557998776436,True,15
X014K22,348,training,72,→,right,→,0.5048328996635973,True,15
X014K22,349,experiment,48,→,left,←,0.8052280996926129,False,15
X014K22,350,experiment,24,↑,up,↑,0.5959668001160026,True,15
X014K22,351,experiment,96,←,right,→,0.5193610000424087,False,15
X014K22,352,experiment,108,↓,up,↑,0.8235956002026796,False,15
X014K22,353,experiment,84,→,right,→,0.44991640001535416,True,15
X014K22,354,experiment,72,←,right,→,0.5777590996585786,False,15
X014K22,355,experiment,12,←,no_key,no_letter,-1.0,False,15
X014K22,356,experiment,108,↓,down,↓,0.6911486997269094,True,15
X014K22,357,experiment,96,↑,right,→,0.9101909999735653,False,15
X014K22,358,experiment,180,→,right,→,0.5770384999923408,True,15
X014K22,359,experiment,72,→,left,←,0.645635399967432,False,15
X014K22,360,experiment,180,→,right,→,0.7288532997481525,True,15
X014K22,361,experiment,120,↓,down,↓,0.6442320998758078,True,15
X014K22,362,experiment,24,↑,up,↑,0.4746125000528991,True,15
X014K22,363,experiment,144,↓,down,↓,0.49140070006251335,True,15
X014K22,364,experiment,84,←,left,←,0.6078441003337502,True,15
X014K22,365,experiment,144,↓,down,↓,0.47864910028874874,True,15
X014K22,366,experiment,24,←,left,←,0.610833500046283,True,15
X014K22,367,experiment,144,↓,down,↓,0.5448933001607656,True,15
X014K22,368,experiment,132,↑,up,↑,0.5968956002034247,True,15
X014K22,369,experiment,108,→,right,→,0.5418576998636127,True,15
X014K22,370,experiment,120,←,left,←,0.7266588998027146,True,15
X014K22,371,experiment,48,→,right,→,0.7022647000849247,True,15
X014K22,372,experiment,168,→,right,→,0.43972889985889196,True,15
X014K22,373,experiment,84,↑,up,↑,0.5320013999007642,True,15
X014K22,374,experiment,168,→,right,→,0.6205788999795914,True,15
X014K22,375,experiment,156,↑,up,↑,0.5569704999215901,True,15
X014K22,376,experiment,12,↑,down,↓,0.6561523000709713,False,15
X014K22,377,experiment,12,↑,up,↑,0.5575752998702228,True,15
X014K22,378,experiment,12,←,left,←,0.48005069978535175,True,15
X014K22,379,experiment,168,↓,up,↑,1.0457834000699222,False,15
X014K22,380,experiment,168,→,right,→,0.6922955000773072,True,15
X014K22,381,experiment,180,↑,up,↑,0.49149550031870604,True,15
X014K22,382,experiment,60,→,right,→,0.6368958000093699,True,15
X014K22,383,experiment,96,→,right,→,0.9638554998673499,True,15
X014K22,384,experiment,156,↑,up,↑,0.5480138999409974,True,15
X014K22,385,experiment,84,↑,up,↑,0.571700599975884,True,15
X014K22,386,experiment,96,←,up,↑,0.6830675001256168,False,15
X014K22,387,experiment,24,↑,up,↑,0.8506435002200305,True,15
X014K22,388,experiment,36,→,up,↑,0.8897690996527672,False,15
X014K22,389,experiment,60,→,right,→,0.9082913002930582,True,15
X014K22,390,experiment,156,←,left,←,0.6749273999594152,True,15
X014K22,391,experiment,120,←,right,→,0.6388276997022331,False,15
X014K22,392,experiment,60,→,right,→,0.6007146998308599,True,15
X014K22,393,experiment,120,→,right,→,0.5318533997051418,True,15
X014K22,394,experiment,180,↓,down,↓,0.6176578002050519,True,15
X014K22,395,experiment,132,↓,down,↓,0.5801507001742721,True,15
X014K22,396,experiment,156,→,right,→,0.6041065999306738,True,15
X014K22,397,experiment,36,↓,down,↓,0.971087499987334,True,15
X014K22,398,experiment,108,→,right,→,0.6760633001103997,True,15
X014K22,399,experiment,132,→,right,→,0.5312783000990748,True,15
X014K22,400,experiment,48,↑,down,↓,0.6618754002265632,False,15
X014K22,401,experiment,36,↑,down,↓,0.6902997000142932,False,15
X014K22,402,experiment,72,↓,down,↓,0.6975039998069406,True,15
X014K22,403,experiment,132,↑,up,↑,0.8176639000885189,True,15
X014K22,404,experiment,144,←,left,←,0.7201833003200591,True,15
X014K22,405,experiment,36,←,right,→,0.9761657998897135,False,15
X014K22,406,experiment,72,→,right,→,0.5250623999163508,True,15
X014K22,407,experiment,60,←,left,←,0.9652510001324117,True,15
X014K22,408,experiment,48,↑,down,↓,0.7094291001558304,False,15
X014K22,409,training,12,↑,up,↑,0.6277291998267174,True,15
X014K22,410,training,144,↑,up,↑,0.7193085001781583,True,15
X014K22,411,training,72,←,left,←,0.6747181001119316,True,15
X014K22,412,experiment,108,↓,up,↑,0.5683804997242987,False,15
X014K22,413,experiment,180,↓,down,↓,0.5573262996040285,True,15
X014K22,414,experiment,120,↑,up,↑,0.5600046999752522,True,15
X014K22,415,experiment,168,→,left,←,0.7075147996656597,False,15
X014K22,416,experiment,48,→,left,←,0.5087970998138189,False,15
X014K22,417,experiment,144,↑,up,↑,0.5800590999424458,True,15
X014K22,418,experiment,60,←,left,←,0.5323586999438703,True,15
X014K22,419,experiment,132,→,right,→,0.549600999802351,True,15
X014K22,420,experiment,144,↑,up,↑,0.5262327999807894,True,15
X014K22,421,experiment,84,→,right,→,0.47970640007406473,True,15
X014K22,422,experiment,132,↓,down,↓,0.5934405997395515,True,15
X014K22,423,experiment,36,←,right,→,0.8440201999619603,False,15
X014K22,424,experiment,72,↓,left,←,0.8087840997613966,False,15
X014K22,425,experiment,120,←,right,→,0.48725590016692877,False,15
X014K22,426,experiment,168,↓,left,←,1.0645432998426259,False,15
X014K22,427,experiment,36,↑,left,←,1.2409748998470604,False,15
X014K22,428,experiment,12,↓,down,↓,0.5727780996821821,True,15
X014K22,429,experiment,96,→,right,→,0.6247864998877048,True,15
X014K22,430,experiment,156,←,left,←,0.7857915000058711,True,15
X014K22,431,experiment,48,←,right,→,0.8432659995742142,False,15
X014K22,432,experiment,48,↓,down,↓,0.6020639999769628,True,15
X014K22,433,experiment,48,→,right,→,0.8060249998234212,True,15
X014K22,434,experiment,96,↓,down,↓,0.524891700129956,True,15
X014K22,435,experiment,12,↑,down,↓,0.7831667000427842,False,15
X014K22,436,experiment,36,→,right,→,0.6297419997863472,True,15
X014K22,437,experiment,96,←,left,←,0.5955876000225544,True,15
X014K22,438,experiment,168,↑,down,↓,0.6299434001557529,False,15
X014K22,439,experiment,180,←,left,←,0.6955490000545979,True,15
X014K22,440,experiment,96,←,left,←,0.5055837999098003,True,15
X014K22,441,experiment,132,↓,left,←,0.973008600063622,False,15
X014K22,442,experiment,84,→,left,←,0.6499755000695586,False,15
X014K22,443,experiment,12,↑,down,↓,0.6542953001335263,False,15
X014K22,444,experiment,120,←,left,←,1.0130791999399662,True,15
X014K22,445,experiment,24,→,right,→,0.6269871997646987,True,15
X014K22,446,experiment,12,↑,down,↓,0.5246401997283101,False,15
X014K22,447,experiment,108,↓,up,↑,0.7745627998374403,False,15
X014K22,448,experiment,108,←,down,↓,0.6381391999311745,False,15
X014K22,449,experiment,60,↑,up,↑,0.8555903998203576,True,15
X014K22,450,experiment,144,↓,down,↓,0.5612376001663506,True,15
X014K22,451,experiment,36,→,right,→,0.8709336998872459,True,15
X014K22,452,experiment,84,↑,down,↓,0.6353633003309369,False,15
X014K22,453,experiment,132,↓,down,↓,0.5057644997723401,True,15
X014K22,454,experiment,156,→,right,→,0.7911834996193647,True,15
X014K22,455,experiment,60,↑,up,↑,0.7230287003330886,True,15
X014K22,456,experiment,168,↓,down,↓,0.5451830001547933,True,15
X014K22,457,experiment,60,↑,up,↑,0.6380243999883533,True,15
X014K22,458,experiment,156,↓,down,↓,0.515155500266701,True,15
X014K22,459,experiment,24,↓,down,↓,0.5231432998552918,True,15
X014K22,460,experiment,108,→,right,→,0.6838134001009166,True,15
X014K22,461,experiment,72,←,right,→,0.6030867998488247,False,15
X014K22,462,experiment,72,↓,down,↓,0.577140100300312,True,15
X014K22,463,experiment,24,→,right,→,0.8076372002251446,True,15
X014K22,464,experiment,180,↑,up,↑,0.6122482996433973,True,15
X014K22,465,experiment,180,→,right,→,0.7010787003673613,True,15
X014K22,466,experiment,156,→,right,→,0.6954252999275923,True,15
X014K22,467,experiment,120,→,right,→,0.5792731000110507,True,15
X014K22,468,experiment,144,→,left,←,0.9521021000109613,False,15
X014K22,469,experiment,84,→,right,→,0.5278755002655089,True,15
X014K22,470,experiment,72,→,right,→,0.653806600254029,True,15
X014K22,471,experiment,24,→,right,→,0.6295549003407359,True,15
X014K22,472,training,60,→,right,→,0.7270916001871228,True,15
X014K22,473,training,108,←,right,→,0.517629399895668,False,15
X014K22,474,training,180,↑,up,↑,0.5375624001026154,True,15
X014K22,475,experiment,72,→,right,→,0.494320800062269,True,15
X014K22,476,experiment,12,↓,left,←,1.0339442999102175,False,15
X014K22,477,experiment,96,→,right,→,0.7717992998659611,True,15
X014K22,478,experiment,60,↓,down,↓,0.5868775001727045,True,15
X014K22,479,experiment,96,←,left,←,0.6698249001055956,True,15
X014K22,480,experiment,132,←,left,←,0.4888601000420749,True,15
X014K22,481,experiment,12,↓,down,↓,0.5331518999300897,True,15
X014K22,482,experiment,60,↑,up,↑,0.5663320999592543,True,15
X014K22,483,experiment,120,→,right,→,0.7525167996063828,True,15
X014K22,484,experiment,24,↑,up,↑,0.5764819998294115,True,15
X014K22,485,experiment,156,←,left,←,0.6392071000300348,True,15
X014K22,486,experiment,156,←,left,←,0.6318906000815332,True,15
X014K22,487,experiment,24,↑,up,↑,0.8420128002762794,True,15
X014K22,488,experiment,24,→,left,←,0.7492538997903466,False,15
X014K22,489,experiment,132,→,right,→,0.8666045996360481,True,15
X014K22,490,experiment,156,↓,down,↓,0.5767541001550853,True,15
X014K22,491,experiment,132,↑,up,↑,0.6201073001138866,True,15
X014K22,492,experiment,180,↓,up,↑,0.8150761998258531,False,15
X014K22,493,experiment,48,↓,down,↓,0.5592446997761726,True,15
X014K22,494,experiment,36,↑,up,↑,0.8628201000392437,True,15
X014K22,495,experiment,180,←,left,←,0.8725759000517428,True,15
X014K22,496,experiment,108,←,left,←,0.6492721000686288,True,15
X014K22,497,experiment,12,↑,up,↑,0.8563529001548886,True,15
X014K22,498,experiment,144,↑,up,↑,0.8008671002462506,True,15
X014K22,499,experiment,36,↑,down,↓,0.721741100307554,False,15
X014K22,500,experiment,108,↑,down,↓,0.6108834999613464,False,15
X014K22,501,experiment,108,→,right,→,0.7624264000914991,True,15
X014K22,502,experiment,12,↑,up,↑,0.7462989999912679,True,15
X014K22,503,experiment,168,↑,down,↓,0.6139871999621391,False,15
X014K22,504,experiment,120,↑,down,↓,0.6608203002251685,False,15
X014K22,505,experiment,168,↑,down,↓,0.7259514997713268,False,15
X014K22,506,experiment,144,↑,right,→,0.5108329001814127,False,15
X014K22,507,experiment,180,→,right,→,0.6888977000489831,True,15
X014K22,508,experiment,36,→,down,↓,0.9892719998024404,False,15
X014K22,509,experiment,84,←,left,←,0.6407460998743773,True,15
X014K22,510,experiment,24,↑,up,↑,0.5118928998708725,True,15
X014K22,511,experiment,84,←,left,←,0.5467534000054002,True,15
X014K22,512,experiment,120,←,right,→,0.7200050000101328,False,15
X014K22,513,experiment,84,←,left,←,0.4365628999657929,True,15
X014K22,514,experiment,96,↑,up,↑,0.7135626003146172,True,15
X014K22,515,experiment,60,→,left,←,0.9998547001741827,False,15
X014K22,516,experiment,108,←,right,→,0.4912744998000562,False,15
X014K22,517,experiment,132,↓,left,←,0.7694274000823498,False,15
X014K22,518,experiment,72,←,left,←,1.021289300173521,True,15
X014K22,519,experiment,144,↑,up,↑,0.7104842001572251,True,15
X014K22,520,experiment,48,↓,up,↑,0.7827421999536455,False,15
X014K22,521,experiment,168,→,right,→,1.1181131000630558,True,15
X014K22,522,experiment,48,↓,up,↑,0.790003300178796,False,15
X014K22,523,experiment,60,←,left,←,0.5543673001229763,True,15
X014K22,524,experiment,120,→,right,→,0.5156434997916222,True,15
X014K22,525,experiment,156,←,right,→,0.8072265000082552,False,15
X014K22,526,experiment,48,→,right,→,0.5940744001418352,True,15
X014K22,527,experiment,168,↓,right,→,0.5234614000655711,False,15
X014K22,528,experiment,96,←,left,←,0.5042539997957647,True,15
X014K22,529,experiment,180,↑,left,←,0.829224499873817,False,15
X014K22,530,experiment,84,↓,left,←,0.839230100158602,False,15
X014K22,531,experiment,36,←,right,→,0.6569667998701334,False,15
X014K22,532,experiment,72,→,right,→,0.8221137998625636,True,15
X014K22,533,experiment,72,↑,up,↑,0.5345390001311898,True,15
X014K22,534,experiment,144,←,left,←,0.6299883997999132,True,15
X014K22,535,training,168,↓,down,↓,0.7143815001472831,True,15
X014K22,536,training,24,→,right,→,0.6153387003578246,True,15
X014K22,537,training,180,←,left,←,0.48984149983152747,True,15
X014K22,538,experiment,48,←,right,→,0.6160349999554455,False,15
X014K22,539,experiment,120,↓,right,→,0.6601702002808452,False,15
X014K22,540,experiment,96,↓,up,↑,0.7059240001253784,False,15
X014K22,541,experiment,60,↓,down,↓,0.5472665000706911,True,15
X014K22,542,experiment,168,↑,up,↑,0.8117689997889102,True,15
X014K22,543,experiment,36,→,right,→,0.4681575996801257,True,15
X014K22,544,experiment,144,←,left,←,0.5650613000616431,True,15
X014K22,545,experiment,72,↑,up,↑,0.7174333999864757,True,15
X014K22,546,experiment,84,←,right,→,0.7255862997844815,False,15
X014K22,547,experiment,12,→,right,→,0.6980912000872195,True,15
X014K22,548,experiment,120,→,right,→,0.7155365999788046,True,15
X014K22,549,experiment,180,↑,up,↑,0.9902713997289538,True,15
X014K22,550,experiment,120,↑,down,↓,0.6102788001298904,False,15
X014K22,551,experiment,156,↓,down,↓,0.5666012996807694,True,15
X014K22,552,experiment,108,←,left,←,0.6208895002491772,True,15
X014K22,553,experiment,72,→,right,→,0.4706955002620816,True,15
X014K22,554,experiment,108,↑,up,↑,0.6881475998088717,True,15
X014K22,555,experiment,24,↑,up,↑,0.883602799847722,True,15
X014K22,556,experiment,24,→,right,→,0.4830549000762403,True,15
X014K22,557,experiment,144,↓,down,↓,0.6408310001716018,True,15
X014K22,558,experiment,132,←,left,←,0.5720950998365879,True,15
X014K22,559,experiment,96,↑,down,↓,0.5586715997196734,False,15
X014K22,560,experiment,60,→,right,→,0.7032292997464538,True,15
X014K22,561,experiment,12,↑,up,↑,0.7844162997789681,True,15
X014K22,562,experiment,24,↓,down,↓,0.8038306999951601,True,15
X014K22,563,experiment,156,→,right,→,0.5642347997054458,True,15
X014K22,564,experiment,72,↑,down,↓,0.5692825000733137,False,15
X014K22,565,experiment,108,↓,down,↓,0.5316376001574099,True,15
X014K22,566,experiment,180,↓,down,↓,0.5414430000819266,True,15
X014K22,567,experiment,180,↑,up,↑,0.5779586001299322,True,15
X014K22,568,experiment,60,↑,up,↑,0.7390414997935295,True,15
X014K22,569,experiment,156,←,no_key,no_letter,-1.0,False,15
X014K22,570,experiment,120,←,left,←,0.5761992000043392,True,15
X014K22,571,experiment,84,↓,down,↓,0.6421294002793729,True,15
X014K22,572,experiment,36,↑,right,→,0.6799959000200033,False,15
X014K22,573,experiment,168,↑,up,↑,0.6619115001522005,True,15
X014K22,574,experiment,84,→,right,→,0.5597342997789383,True,15
X014K22,575,experiment,48,←,right,→,0.6742950999177992,False,15
X014K22,576,experiment,84,←,left,←,0.5752970003522933,True,15
X014K22,577,experiment,156,←,left,←,0.6203844002448022,True,15
X014K22,578,experiment,168,←,left,←,0.5362863996997476,True,15
X014K22,579,experiment,12,↑,left,←,1.126536900177598,False,15
X014K22,580,experiment,132,→,right,→,0.6354967998340726,True,15
X014K22,581,experiment,144,↓,down,↓,0.5209380998276174,True,15
X014K22,582,experiment,180,→,right,→,0.8694809996522963,True,15
X014K22,583,experiment,132,→,right,→,0.6270860000513494,True,15
X014K22,584,experiment,12,↑,down,↓,0.7465007002465427,False,15
X014K22,585,experiment,168,↑,up,↑,0.6313172001391649,True,15
X014K22,586,experiment,96,↑,down,↓,0.6423722999170423,False,15
X014K22,587,experiment,132,←,left,←,0.6379468999803066,True,15
X014K22,588,experiment,36,→,right,→,0.8073646002449095,True,15
X014K22,589,experiment,60,↑,up,↑,0.9745987998321652,True,15
X014K22,590,experiment,48,←,left,←,0.6041330001316965,True,15
X014K22,591,experiment,108,→,right,→,0.8277428997680545,True,15
X014K22,592,experiment,48,↑,up,↑,0.6554318997077644,True,15
X014K22,593,experiment,96,←,left,←,0.5329645001329482,True,15
X014K22,594,experiment,72,↓,down,↓,0.698122899979353,True,15
X014K22,595,experiment,144,←,left,←,0.5483539998531342,True,15
X014K22,596,experiment,24,↓,down,↓,0.7238050000742078,True,15
X014K22,597,experiment,36,←,right,→,0.6763283000327647,False,15
X014K22,598,training,168,→,left,←,0.6945046000182629,False,15
X014K22,599,training,156,↑,up,↑,0.7888005999848247,True,15
X014K22,600,training,168,→,right,→,0.5470727998763323,True,15
X014K22,601,experiment,24,→,up,↑,1.3348620999604464,False,15
X014K22,602,experiment,156,→,right,→,0.5617853999137878,True,15
X014K22,603,experiment,180,↑,up,↑,0.4741813000291586,True,15
X014K22,604,experiment,60,↓,down,↓,0.654889099765569,True,15
X014K22,605,experiment,108,←,left,←,0.487310899887234,True,15
X014K22,606,experiment,132,←,right,→,0.5021100002340972,False,15
X014K22,607,experiment,12,↓,down,↓,0.6976972999982536,True,15
X014K22,608,experiment,60,←,left,←,0.6724283997900784,True,15
X014K22,609,experiment,84,↑,down,↓,0.5142016001045704,False,15
X014K22,610,experiment,144,↓,down,↓,0.5985385999083519,True,15
X014K22,611,experiment,180,↑,up,↑,0.5493027996271849,True,15
X014K22,612,experiment,72,→,right,→,0.42924310034140944,True,15
X014K22,613,experiment,12,↑,up,↑,0.664684799965471,True,15
X014K22,614,experiment,120,←,right,→,0.6466083996929228,False,15
X014K22,615,experiment,96,→,right,→,0.5042921998538077,True,15
X014K22,616,experiment,168,↑,down,↓,0.6225761999376118,False,15
X014K22,617,experiment,48,↓,down,↓,0.5550242001190782,True,15
X014K22,618,experiment,36,↑,up,↑,0.6160693001002073,True,15
X014K22,619,experiment,72,→,right,→,0.5317049999721348,True,15
X014K22,620,experiment,144,↓,down,↓,0.6296954001300037,True,15
X014K22,621,experiment,168,↑,up,↑,1.0720628998242319,True,15
X014K22,622,experiment,48,→,right,→,0.5508420001715422,True,15
X014K22,623,experiment,60,↓,down,↓,0.6370204002596438,True,15
X014K22,624,experiment,144,←,left,←,0.504600000102073,True,15
X014K22,625,experiment,84,→,right,→,0.6445957999676466,True,15
X014K22,626,experiment,156,↑,up,↑,0.6561739998869598,True,15
X014K22,627,experiment,36,↑,up,↑,0.49284529965370893,True,15
X014K22,628,experiment,108,↓,down,↓,0.8582727001048625,True,15
X014K22,629,experiment,120,→,right,→,1.399865500163287,True,15
X014K22,630,experiment,180,←,right,→,0.5196036999113858,False,15
X014K22,631,experiment,108,↑,up,↑,0.6679016998969018,True,15
X014K22,632,experiment,24,←,left,←,0.6191759002394974,True,15
X014K22,633,experiment,180,↓,down,↓,0.6116624004207551,True,15
X014K22,634,experiment,60,↑,up,↑,0.5373836001381278,True,15
X014K22,635,experiment,36,↑,up,↑,0.7608322999440134,True,15
X014K22,636,experiment,96,↑,up,↑,0.7333832001313567,True,15
X014K22,637,experiment,168,↑,up,↑,0.6111496998928487,True,15
X014K22,638,experiment,72,←,left,←,0.705927699804306,True,15
X014K22,639,experiment,12,→,right,→,0.7185154999606311,True,15
X014K22,640,experiment,132,→,right,→,0.5898772003129125,True,15
X014K22,641,experiment,132,←,left,←,0.5682207997888327,True,15
X014K22,642,experiment,132,→,right,→,0.4546225001104176,True,15
X014K22,643,experiment,120,←,left,←,0.6248010997660458,True,15
X014K22,644,experiment,48,←,left,←,0.8579432996921241,True,15
X014K22,645,experiment,168,→,right,→,0.6192582999356091,True,15
X014K22,646,experiment,36,→,right,→,0.9420007998123765,True,15
X014K22,647,experiment,72,→,right,→,0.7314161001704633,True,15
X014K22,648,experiment,156,→,right,→,0.46758880000561476,True,15
X014K22,649,experiment,96,→,right,→,1.0855711000040174,True,15
X014K22,650,experiment,48,←,up,↑,1.611243600025773,False,15
X014K22,651,experiment,12,→,right,→,0.5534990997985005,True,15
X014K22,652,experiment,84,↓,down,↓,0.5525173000060022,True,15
X014K22,653,experiment,108,→,right,→,0.4779055002145469,True,15
X014K22,654,experiment,120,↓,right,→,1.1747289998456836,False,15
X014K22,655,experiment,24,→,down,↓,1.2115752003155649,False,15
X014K22,656,experiment,84,→,right,→,0.5344671001657844,True,15
X014K22,657,experiment,144,↑,up,↑,0.6495741996914148,True,15
X014K22,658,experiment,156,→,left,←,0.742009200155735,False,15
X014K22,659,experiment,96,↓,down,↓,0.4727996997535229,True,15
X014K22,660,experiment,24,→,up,↑,1.0008896999061108,False,15
X014K22,661,training,120,↑,down,↓,0.6632512998767197,False,15
X014K22,662,training,48,↑,left,←,0.5545542999170721,False,15
X014K22,663,training,48,←,left,←,0.7777137001976371,True,15
X014K22,664,experiment,96,↑,down,↓,0.4613707000389695,False,15
X014K22,665,experiment,180,→,right,→,0.454583200160414,True,15
X014K22,666,experiment,60,↓,down,↓,0.624151200056076,True,15
X014K22,667,experiment,132,↓,down,↓,0.5782244000583887,True,15
X014K22,668,experiment,72,←,right,→,0.4921949999406934,False,15
X014K22,669,experiment,168,↑,up,↑,0.6422401000745595,True,15
X014K22,670,experiment,144,←,left,←,0.5600874000228941,True,15
X014K22,671,experiment,144,↑,right,→,0.5731609002687037,False,15
X014K22,672,experiment,96,↑,up,↑,0.5951867001131177,True,15
X014K22,673,experiment,156,→,right,→,0.6470118002034724,True,15
X014K22,674,experiment,96,↓,down,↓,0.7322591999545693,True,15
X014K22,675,experiment,132,↑,up,↑,0.547415700275451,True,15
X014K22,676,experiment,24,→,right,→,0.7154140002094209,True,15
X014K22,677,experiment,72,→,right,→,0.7496927999891341,True,15
X014K22,678,experiment,36,←,left,←,0.5446480000391603,True,15
X014K22,679,experiment,60,→,right,→,0.5024299002252519,True,15
X014K22,680,experiment,144,→,right,→,0.5390420001931489,True,15
X014K22,681,experiment,60,↓,down,↓,0.5595763996243477,True,15
X014K22,682,experiment,72,↓,down,↓,0.7295761001296341,True,15
X014K22,683,experiment,180,→,right,→,0.6341764000244439,True,15
X014K22,684,experiment,132,←,right,→,0.7613363997079432,False,15
X014K22,685,experiment,168,↑,down,↓,0.7160101002082229,False,15
X014K22,686,experiment,48,↓,down,↓,0.6498128999955952,True,15
X014K22,687,experiment,60,←,left,←,0.7223033998161554,True,15
X014K22,688,experiment,120,←,left,←,0.6945911999791861,True,15
X014K22,689,experiment,36,↑,up,↑,0.7069401000626385,True,15
X014K22,690,experiment,48,←,left,←,0.6300944997929037,True,15
X014K22,691,experiment,84,↓,down,↓,0.6624065996147692,True,15
X014K22,692,experiment,24,↑,up,↑,0.5606923000887036,True,15
X014K22,693,experiment,84,←,right,→,0.6048170002177358,False,15
X014K22,694,experiment,156,↓,right,→,0.869937099982053,False,15
X014K22,695,experiment,12,→,down,↓,1.0887254998087883,False,15
X014K22,696,experiment,96,↓,down,↓,0.6731263999827206,True,15
X014K22,697,experiment,108,→,right,→,0.5519881001673639,True,15
X014K22,698,experiment,36,↑,up,↑,0.6810638001188636,True,15
X014K22,699,experiment,180,←,left,←,0.6143050002865493,True,15
X014K22,700,experiment,120,→,right,→,0.6031340998597443,True,15
X014K22,701,experiment,48,↑,up,↑,0.6622888999991119,True,15
X014K22,702,experiment,108,↑,up,↑,0.6385111999697983,True,15
X014K22,703,experiment,48,↓,down,↓,0.5547843002714217,True,15
X014K22,704,experiment,84,↑,up,↑,0.646314200013876,True,15
X014K22,705,experiment,72,↑,up,↑,0.5320950001478195,True,15
X014K22,706,experiment,12,←,right,→,0.6381143997423351,False,15
X014K22,707,experiment,120,↓,down,↓,0.6930967997759581,True,15
X014K22,708,experiment,156,→,right,→,0.590883799828589,True,15
X014K22,709,experiment,12,←,right,→,1.3717565997503698,False,15
X014K22,710,experiment,36,→,right,→,0.5426513003185391,True,15
X014K22,711,experiment,108,←,right,→,0.623316299635917,False,15
X014K22,712,experiment,24,←,right,→,1.5829397002235055,False,15
X014K22,713,experiment,12,←,left,←,0.7581939999945462,True,15
X014K22,714,experiment,24,←,left,←,1.3749764002859592,True,15
X014K22,715,experiment,156,↓,no_key,no_letter,-1.0,False,15
X014K22,716,experiment,168,↓,down,↓,0.6864948999136686,True,15
X014K22,717,experiment,120,↓,right,→,1.7807602998800576,False,15
X014K22,718,experiment,168,→,right,→,0.5606737001799047,True,15
X014K22,719,experiment,84,↓,down,↓,0.6158537999726832,True,15
X014K22,720,experiment,108,←,left,←,0.5999066000804305,True,15
X014K22,721,experiment,180,←,left,←,0.604538599960506,True,15
X014K22,722,experiment,132,↑,up,↑,0.49930679984390736,True,15
X014K22,723,experiment,144,←,left,←,0.6049905000254512,True,15
X014K22,724,training,48,→,right,→,0.9707166999578476,True,15
X014K22,725,training,48,←,left,←,0.6830023000948131,True,15
X014K22,726,training,144,→,right,→,0.6327221998944879,True,15
X014K22,727,experiment,96,←,left,←,0.4827331001870334,True,15
X014K22,728,experiment,72,↓,down,↓,0.8484541000798345,True,15
X014K22,729,experiment,144,↓,down,↓,0.4744803998619318,True,15
X014K22,730,experiment,168,↑,down,↓,0.46190880006179214,False,15
X014K22,731,experiment,132,↓,up,↑,0.4227184997871518,False,15
X014K22,732,experiment,120,→,down,↓,0.7579553998075426,False,15
X014K22,733,experiment,36,→,right,→,0.6003551003523171,True,15
X014K22,734,experiment,72,→,right,→,0.6189631000161171,True,15
X014K22,735,experiment,96,↓,up,↑,0.6536073996685445,False,15
X014K22,736,experiment,120,←,left,←,0.8971832999959588,True,15
X014K22,737,experiment,48,↑,up,↑,0.6851755999960005,True,15
X014K22,738,experiment,180,→,right,→,0.6910553001798689,True,15
X014K22,739,experiment,108,→,right,→,0.5602517002262175,True,15
X014K22,740,experiment,132,→,right,→,0.5952738998457789,True,15
X014K22,741,experiment,36,↑,up,↑,0.6400350001640618,True,15
X014K22,742,experiment,24,→,left,←,0.6254513999447227,False,15
X014K22,743,experiment,108,→,right,→,0.5207039001397789,True,15
X014K22,744,experiment,60,↑,right,→,1.7705711000598967,False,15
X014K22,745,experiment,120,↓,down,↓,0.9295712998136878,True,15
X014K22,746,experiment,144,↑,up,↑,0.5642381999641657,True,15
X014K22,747,experiment,156,↑,down,↓,0.6370469997636974,False,15
X014K22,748,experiment,180,↓,up,↑,1.1038629999384284,False,15
X014K22,749,experiment,12,↑,right,→,1.0584291997365654,False,15
X014K22,750,experiment,48,↓,down,↓,0.7190542002208531,True,15
X014K22,751,experiment,84,↑,down,↓,1.3314860998652875,False,15
X014K22,752,experiment,144,↓,down,↓,0.5605750000104308,True,15
X014K22,753,experiment,24,←,right,→,1.6330634001642466,False,15
X014K22,754,experiment,12,↑,down,↓,0.7958430997096002,False,15
X014K22,755,experiment,72,↑,up,↑,0.600970400031656,True,15
X014K22,756,experiment,156,←,left,←,0.8171421000733972,True,15
X014K22,757,experiment,96,↓,down,↓,0.5731066004373133,True,15
X014K22,758,experiment,84,↑,up,↑,0.6896901000291109,True,15
X014K22,759,experiment,36,←,left,←,0.8671320998109877,True,15
X014K22,760,experiment,72,→,right,→,0.49284640001133084,True,15
X014K22,761,experiment,120,→,right,→,0.693231999874115,True,15
X014K22,762,experiment,48,←,left,←,0.8606231999583542,True,15
X014K22,763,experiment,60,↓,down,↓,0.5628980998881161,True,15
X014K22,764,experiment,168,↑,down,↓,0.6449732002802193,False,15
X014K22,765,experiment,144,↓,down,↓,0.6126550999470055,True,15
X014K22,766,experiment,108,↓,down,↓,0.5573479002341628,True,15
X014K22,767,experiment,96,↑,up,↑,0.7692432003095746,True,15
X014K22,768,experiment,12,←,left,←,0.7093182001262903,True,15
X014K22,769,experiment,36,→,right,→,0.5529489000327885,True,15
X014K22,770,experiment,180,→,right,→,1.2914744997397065,True,15
X014K22,771,experiment,60,↑,up,↑,0.823613400105387,True,15
X014K22,772,experiment,48,↑,up,↑,0.45533919986337423,True,15
X014K22,773,experiment,84,→,right,→,0.6499534999020398,True,15
X014K22,774,experiment,24,←,left,←,0.5532893002964556,True,15
X014K22,775,experiment,132,←,left,←,0.5172428996302187,True,15
X014K22,776,experiment,132,↓,down,↓,0.8074972997419536,True,15
X014K22,777,experiment,180,↑,right,→,0.7533545000478625,False,15
X014K22,778,experiment,156,↓,down,↓,0.7378320000134408,True,15
X014K22,779,experiment,24,→,right,→,0.5910337003879249,True,15
X014K22,780,experiment,108,←,left,←,0.5949177998118103,True,15
X014K22,781,experiment,168,←,left,←,0.6734029999934137,True,15
X014K22,782,experiment,60,→,right,→,0.666949899867177,True,15
X014K22,783,experiment,12,↑,right,→,1.2781600998714566,False,15
X014K22,784,experiment,156,←,left,←,0.6075245002284646,True,15
X014K22,785,experiment,168,←,left,←,0.7011254001408815,True,15
X014K22,786,experiment,84,←,left,←,0.6503670001402497,True,15
X014K22,787,training,120,←,right,→,0.46579809999093413,False,15
X014K22,788,training,180,→,left,←,0.7353715002536774,False,15
X014K22,789,training,168,→,right,→,0.9337920001707971,True,15
X014K22,790,experiment,108,→,right,→,0.5642740996554494,True,15
X014K22,791,experiment,120,←,left,←,0.5812303000129759,True,15
X014K22,792,experiment,24,←,right,→,0.9679760998114944,False,15
X014K22,793,experiment,144,→,right,→,0.6095818001776934,True,15
X014K22,794,experiment,132,→,right,→,0.5670199003070593,True,15
X014K22,795,experiment,180,←,left,←,0.6676703998818994,True,15
X014K22,796,experiment,180,↑,up,↑,0.9213165999390185,True,15
X014K22,797,experiment,180,↑,up,↑,0.7155670002102852,True,15
X014K22,798,experiment,12,↑,right,→,1.2352555999532342,False,15
X014K22,799,experiment,120,→,right,→,0.6702819997444749,True,15
X014K22,800,experiment,108,↑,right,→,1.0233430997468531,False,15
X014K22,801,experiment,144,↓,down,↓,0.741196199785918,True,15
X014K22,802,experiment,48,←,left,←,0.5800512996502221,True,15
X014K22,803,experiment,36,←,left,←,1.0426790001802146,True,15
X014K22,804,experiment,180,→,right,→,0.6264542997814715,True,15
X014K22,805,experiment,156,↑,up,↑,0.574328999966383,True,15
X014K22,806,experiment,72,→,right,→,0.684861599933356,True,15
X014K22,807,experiment,144,↑,left,←,1.2758301999419928,False,15
X014K22,808,experiment,24,←,left,←,0.6082087997347116,True,15
X014K22,809,experiment,36,←,right,→,0.8376800999976695,False,15
X014K22,810,experiment,132,↑,up,↑,0.6522212997078896,True,15
X014K22,811,experiment,156,→,right,→,0.6885800999589264,True,15
X014K22,812,experiment,144,→,right,→,0.4895310001447797,True,15
X014K22,813,experiment,72,←,left,←,0.5934202000498772,True,15
X014K22,814,experiment,84,→,right,→,0.4840778997167945,True,15
X014K22,815,experiment,84,↓,down,↓,0.5864762999117374,True,15
X014K22,816,experiment,96,↓,down,↓,0.5438309996388853,True,15
X014K22,817,experiment,168,↓,down,↓,1.3384961998090148,True,15
X014K22,818,experiment,168,→,right,→,0.5031405999325216,True,15
X014K22,819,experiment,96,↓,down,↓,0.5655124001204967,True,15
X014K22,820,experiment,24,↓,down,↓,0.8856603000313044,True,15
X014K22,821,experiment,84,→,right,→,0.5866839997470379,True,15
X014K22,822,experiment,96,↑,down,↓,1.0167921003885567,False,15
X014K22,823,experiment,36,←,left,←,0.6345080002211034,True,15
X014K22,824,experiment,156,↑,up,↑,0.7622523000463843,True,15
X014K22,825,experiment,60,↓,down,↓,0.5441815000958741,True,15
X014K22,826,experiment,36,↑,right,→,1.271229799836874,False,15
X014K22,827,experiment,132,↓,down,↓,0.8846519002690911,True,15
X014K22,828,experiment,48,→,right,→,0.59307049959898,True,15
X014K22,829,experiment,120,↑,up,↑,0.714756399858743,True,15
X014K22,830,experiment,12,→,right,→,0.7572260000742972,True,15
X014K22,831,experiment,156,→,right,→,0.49096739990636706,True,15
X014K22,832,experiment,72,↑,up,↑,0.6018007001839578,True,15
X014K22,833,experiment,48,↑,up,↑,0.571002600248903,True,15
X014K22,834,experiment,168,→,right,→,0.4952641995623708,True,15
X014K22,835,experiment,96,→,right,→,0.6848885002546012,True,15
X014K22,836,experiment,84,↓,right,→,1.1076119001954794,False,15
X014K22,837,experiment,60,↓,up,↑,1.5412007002159953,False,15
X014K22,838,experiment,168,↑,up,↑,0.6732594999484718,True,15
X014K22,839,experiment,24,↓,up,↑,0.8671650998294353,False,15
X014K22,840,experiment,48,↓,down,↓,1.321528600063175,True,15
X014K22,841,experiment,60,←,left,←,0.6279817000031471,True,15
X014K22,842,experiment,120,→,right,→,0.49027250008657575,True,15
X014K22,843,experiment,132,←,right,→,0.45478529995307326,False,15
X014K22,844,experiment,60,↑,up,↑,0.6053118999116123,True,15
X014K22,845,experiment,72,↓,down,↓,1.1197370998561382,True,15
X014K22,846,experiment,12,←,left,←,0.6882239999249578,True,15
X014K22,847,experiment,12,←,right,→,0.695393200032413,False,15
X014K22,848,experiment,108,↓,down,↓,0.6750977002084255,True,15
X014K22,849,experiment,108,→,right,→,0.4560209000483155,True,15
