PART_ID,Trial_no,Trial_type,CSI,Stim_letter,Key_pressed,letter_choose,Rt,Corr,Stimulus Time,nDropped
156K28S1,1,training,120,←,left,←,0.5919604000227991,True,60,2
156K28S1,2,training,120,→,right,→,0.44299949999549426,True,60,0
156K28S1,3,training,120,→,right,→,0.350993500003824,True,60,0
156K28S1,4,training,120,↑,right,→,0.32566609999048524,False,60,0
156K28S1,5,training,120,←,left,←,0.6005368999904022,True,60,0
156K28S1,6,training,120,↓,down,↓,0.800978400016902,True,60,0
156K28S1,7,training,120,↑,up,↑,0.7293460000073537,True,60,0
156K28S1,8,training,120,→,right,→,0.6255153999954928,True,60,0
156K28S1,9,training,120,↑,right,→,0.4435533999931067,False,60,0
156K28S1,10,training,120,↓,down,↓,0.7048201000143308,True,60,0
156K28S1,11,training,120,→,right,→,0.717512600007467,True,60,0
156K28S1,12,training,120,↑,up,↑,0.6424117000133265,True,60,0
156K28S1,13,training,120,↓,down,↓,0.6335059000120964,True,60,0
156K28S1,14,training,120,↓,down,↓,0.5008678000012878,True,60,0
156K28S1,15,training,120,←,left,←,0.4754579000000376,True,60,0
156K28S1,16,training,120,↑,up,↑,0.5005246999789961,True,60,0
156K28S1,17,training,120,←,left,←,0.7228798000141978,True,60,0
156K28S1,18,training,120,↑,up,↑,0.5332151000038721,True,60,0
156K28S1,19,training,120,↑,up,↑,0.6171802000026219,True,60,0
156K28S1,20,training,120,↓,down,↓,0.4099644999951124,True,60,0
156K28S1,21,no_adaptation,120,←,left,←,0.42622309998841956,True,36,0
156K28S1,22,no_adaptation,120,←,right,→,0.5043128000106663,False,36,0
156K28S1,23,no_adaptation,120,↓,no_key,no_letter,-1.0,False,36,0
156K28S1,24,no_adaptation,120,→,down,↓,0.5023621000000276,False,36,0
156K28S1,25,no_adaptation,120,↓,down,↓,0.5467720999731682,True,36,0
156K28S1,26,no_adaptation,120,↓,down,↓,0.47056159999920055,True,36,0
156K28S1,27,no_adaptation,120,↓,down,↓,0.5949043000000529,True,36,0
156K28S1,28,no_adaptation,120,←,left,←,0.5636434000043664,True,36,0
156K28S1,29,no_adaptation,120,←,left,←,0.7177101999986917,True,36,0
156K28S1,30,no_adaptation,120,↓,down,↓,0.6816148000070825,True,36,0
156K28S1,31,no_adaptation,120,→,right,→,0.7029777999850921,True,36,0
156K28S1,32,no_adaptation,120,→,left,←,0.5155547000176739,False,36,0
156K28S1,33,no_adaptation,120,↑,up,↑,0.48781759999110363,True,36,0
156K28S1,34,no_adaptation,120,↓,left,←,0.5084566999867093,False,36,0
156K28S1,35,no_adaptation,120,←,right,→,0.5686020000139251,False,36,0
156K28S1,36,no_adaptation,120,↓,no_key,no_letter,-1.0,False,36,0
156K28S1,37,no_adaptation,120,←,no_key,no_letter,-1.0,False,36,0
156K28S1,38,no_adaptation,120,←,right,→,0.551129100000253,False,36,0
156K28S1,39,no_adaptation,120,→,right,→,0.6175232999958098,True,36,0
156K28S1,40,no_adaptation,120,↑,up,↑,0.6572456000139937,True,36,0
156K28S1,41,training,84,→,right,→,0.46815510001033545,True,36,0
156K28S1,42,training,93,←,right,→,0.4821924999996554,False,36,0
156K28S1,43,experiment,69,←,right,→,0.49649230000795797,False,36,1
156K28S1,44,experiment,97,↓,no_key,no_letter,-1.0,False,36,1
156K28S1,45,experiment,83,↓,down,↓,0.40848889999324456,True,36,1
156K28S1,46,experiment,58,↑,left,←,0.5682777999900281,False,36,0
156K28S1,47,experiment,67,↓,up,↑,0.48427419998915866,False,36,1
156K28S1,48,experiment,65,↑,up,↑,0.6591527000127826,True,36,1
156K28S1,49,experiment,64,↓,down,↓,0.6118189999833703,True,36,1
156K28S1,50,experiment,57,↓,down,↓,0.7453376000048593,True,36,1
156K28S1,51,experiment,63,↓,down,↓,0.5510094999917783,True,36,1
156K28S1,52,experiment,70,↑,up,↑,0.6022225999913644,True,36,1
156K28S1,53,experiment,68,↓,no_key,no_letter,-1.0,False,36,1
156K28S1,54,experiment,86,→,down,↓,0.43413409998174757,False,36,1
156K28S1,55,experiment,91,←,left,←,0.5548456000105944,True,36,0
156K28S1,56,experiment,103,↑,down,↓,0.5711692000040784,False,36,1
156K28S1,57,experiment,85,→,right,→,0.4506659999897238,True,36,1
156K28S1,58,experiment,75,←,left,←,0.35005539999110624,True,36,1
156K28S1,59,experiment,96,↓,down,↓,0.43374999999650754,True,36,0
156K28S1,60,experiment,72,↑,no_key,no_letter,-1.0,False,36,0
156K28S1,61,experiment,92,→,no_key,no_letter,-1.0,False,36,1
156K28S1,62,experiment,53,→,no_key,no_letter,-1.0,False,36,1
156K28S1,63,experiment,105,→,left,←,0.40037990000564605,False,36,1
156K28S1,64,experiment,104,↓,no_key,no_letter,-1.0,False,36,0
156K28S1,65,experiment,48,→,right,→,0.5542923000175506,True,36,1
156K28S1,66,experiment,51,←,down,↓,0.7800985999929253,False,36,1
156K28S1,67,experiment,79,↓,left,←,0.31707380001898855,False,36,1
156K28S1,68,experiment,106,↓,down,↓,0.36701580000226386,True,36,0
156K28S1,69,experiment,101,↓,down,↓,0.292391700000735,True,36,0
156K28S1,70,experiment,88,↑,no_key,no_letter,-1.0,False,36,0
156K28S1,71,experiment,108,←,right,→,0.6327550999994855,False,36,1
156K28S1,72,experiment,98,→,left,←,0.36723350000102073,False,36,1
156K28S1,73,experiment,78,←,right,→,0.5749661999871023,False,36,0
156K28S1,74,experiment,93,←,left,←,0.36746039998251945,True,36,1
156K28S1,75,experiment,94,↑,left,←,0.40789100000984035,False,36,0
156K28S1,76,experiment,60,↑,down,↓,0.5197196000081021,False,36,0
156K28S1,77,experiment,100,↑,no_key,no_letter,-1.0,False,36,1
156K28S1,78,experiment,90,←,left,←,0.43402109999442473,True,36,1
156K28S1,79,experiment,81,→,right,→,0.48267610001494177,True,36,1
156K28S1,80,experiment,102,↓,down,↓,0.5577241000137292,True,36,1
156K28S1,81,experiment,73,↑,down,↓,0.5277009999845177,False,36,1
156K28S1,82,experiment,76,↓,down,↓,0.5858859000145458,True,36,1
156K28S1,83,experiment,52,←,up,↑,0.6817925999930594,False,36,1
156K28S1,84,experiment,66,↓,down,↓,0.569055700005265,True,36,1
156K28S1,85,experiment,49,→,right,→,0.5465628999809269,True,36,1
156K28S1,86,experiment,87,→,no_key,no_letter,-1.0,False,36,1
156K28S1,87,experiment,80,→,right,→,0.6881289999873843,True,36,1
156K28S1,88,experiment,95,↓,down,↓,0.6453166999854147,True,36,1
156K28S1,89,experiment,56,←,left,←,0.5211855999950785,True,36,1
156K28S1,90,experiment,99,→,right,→,0.391471700015245,True,36,1
156K28S1,91,experiment,71,→,right,→,0.408644799987087,True,36,0
156K28S1,92,experiment,107,↑,down,↓,0.5211578999878839,False,36,0
156K28S1,93,experiment,84,↑,up,↑,0.6810482000000775,True,36,1
156K28S1,94,experiment,74,→,left,←,0.4937319999735337,False,36,1
156K28S1,95,experiment,54,→,right,→,0.5764881000213791,True,36,1
156K28S1,96,experiment,61,→,right,→,0.8858209000027273,True,36,1
156K28S1,97,experiment,55,←,right,→,0.6171026999945752,False,36,1
156K28S1,98,experiment,77,↑,up,↑,0.7189899999939371,True,36,1
156K28S1,99,experiment,89,→,right,→,0.4780126000114251,True,36,1
156K28S1,100,experiment,82,↓,down,↓,0.5512728000176139,True,36,1
156K28S1,101,experiment,50,→,right,→,0.48170929998741485,True,36,1
156K28S1,102,experiment,59,↓,down,↓,0.44213439998566173,True,36,1
156K28S1,103,experiment,62,→,left,←,0.5967797999910545,False,36,0
156K28S1,104,training,100,↓,down,↓,0.494650599983288,True,37,0
156K28S1,105,training,57,←,left,←,0.358887100010179,True,37,1
156K28S1,106,experiment,101,↑,left,←,0.4015753000276163,False,37,1
156K28S1,107,experiment,61,↑,up,↑,0.4175643000053242,True,37,0
156K28S1,108,experiment,67,→,right,→,0.5089459999871906,True,37,0
156K28S1,109,experiment,69,→,right,→,0.41747910002595745,True,37,1
156K28S1,110,experiment,60,↑,up,↑,0.4087450000224635,True,37,0
156K28S1,111,experiment,108,←,left,←,0.5216428000130691,True,37,0
156K28S1,112,experiment,99,↑,no_key,no_letter,-1.0,False,37,1
156K28S1,113,experiment,65,↑,no_key,no_letter,-1.0,False,37,1
156K28S1,114,experiment,106,↑,up,↑,0.4957840999995824,True,37,1
156K28S1,115,experiment,54,↑,up,↑,0.4512926999886986,True,37,1
156K28S1,116,experiment,89,←,right,→,0.43374489998677745,False,37,0
156K28S1,117,experiment,77,↑,up,↑,0.6316234999976587,True,37,0
156K28S1,118,experiment,107,→,right,→,0.5392142000200693,True,37,1
156K28S1,119,experiment,104,←,right,→,0.5396851999976207,False,37,1
156K28S1,120,experiment,90,↓,down,↓,0.5606364000122994,True,37,1
156K28S1,121,experiment,63,↓,down,↓,0.5739484000077937,True,37,1
156K28S1,122,experiment,103,↑,left,←,0.45913870001095347,False,37,1
156K28S1,123,experiment,64,↓,down,↓,0.49407300000893883,True,37,0
156K28S1,124,experiment,51,↓,down,↓,0.5296517999959178,True,37,1
156K28S1,125,experiment,71,←,left,←,0.6132157999963965,True,37,1
156K28S1,126,experiment,72,↓,down,↓,0.5411775999818929,True,37,1
156K28S1,127,experiment,56,→,no_key,no_letter,-1.0,False,37,1
156K28S1,128,experiment,83,↑,left,←,0.40882480001891963,False,37,1
156K28S1,129,experiment,93,↑,up,↑,0.6767222000053152,True,37,0
156K28S1,130,experiment,98,→,right,→,0.49781060000532307,True,37,1
156K28S1,131,experiment,88,←,left,←,0.5934134999988601,True,37,1
156K28S1,132,experiment,82,→,right,→,0.5986516000120901,True,37,1
156K28S1,133,experiment,70,↑,up,↑,0.6879458999901544,True,37,1
156K28S1,134,experiment,87,↑,up,↑,0.39285030000610277,True,37,1
156K28S1,135,experiment,75,→,right,→,0.4791497999976855,True,37,0
156K28S1,136,experiment,78,←,left,←,0.2516349000215996,True,37,0
156K28S1,137,experiment,59,←,left,←,0.4339238000102341,True,37,0
156K28S1,138,experiment,68,→,right,→,0.41750819998560473,True,37,1
156K28S1,139,experiment,84,→,right,→,0.5426722000120208,True,37,0
156K28S1,140,experiment,49,←,left,←,0.34199739998439327,True,37,1
156K28S1,141,experiment,73,↑,right,→,0.36720700000296347,False,37,0
156K28S1,142,experiment,85,→,no_key,no_letter,-1.0,False,37,0
156K28S1,143,experiment,96,↑,no_key,no_letter,-1.0,False,37,1
156K28S1,144,experiment,57,→,no_key,no_letter,-1.0,False,37,1
156K28S1,145,experiment,105,↑,up,↑,0.48931889998493716,True,37,1
156K28S1,146,experiment,100,↑,right,→,0.43327459998545237,False,37,1
156K28S1,147,experiment,80,↓,left,←,0.4507416000124067,False,37,0
156K28S1,148,experiment,53,→,right,→,1.0933878000068944,True,37,0
156K28S1,149,experiment,81,→,right,→,0.5758346999937203,True,37,1
156K28S1,150,experiment,97,↑,up,↑,0.42506300000241026,True,37,1
156K28S1,151,experiment,55,→,right,→,0.49365649998071603,True,37,0
156K28S1,152,experiment,62,→,right,→,0.4422359000018332,True,37,1
156K28S1,153,experiment,74,→,right,→,0.37566650001099333,True,37,0
156K28S1,154,experiment,94,←,left,←,0.4255053999950178,True,37,0
156K28S1,155,experiment,79,←,right,→,0.5065966000256594,False,37,0
156K28S1,156,experiment,86,↑,right,→,0.5858029000228271,False,37,1
156K28S1,157,experiment,92,→,left,←,0.41736230000969954,False,37,1
156K28S1,158,experiment,48,↓,right,→,0.5399499000050128,False,37,1
156K28S1,159,experiment,58,↓,down,↓,0.5315023000002839,True,37,1
156K28S1,160,experiment,102,←,right,→,0.5256203000026289,False,37,1
156K28S1,161,experiment,50,←,no_key,no_letter,-1.0,False,37,1
156K28S1,162,experiment,91,↓,down,↓,0.5715513999748509,True,37,1
156K28S1,163,experiment,66,←,left,←,0.5350998999783769,True,37,1
156K28S1,164,experiment,52,↓,down,↓,0.5769894999975804,True,37,1
156K28S1,165,experiment,76,→,left,←,0.38320899999234825,False,37,1
156K28S1,166,experiment,95,↑,up,↑,0.4908843000011984,True,37,0
156K28S1,167,training,85,→,right,→,0.5471873999922536,True,37,0
156K28S1,168,training,84,↑,up,↑,0.45879010000498965,True,37,1
156K28S1,169,experiment,98,↑,up,↑,1.6713618999929167,True,37,0
156K28S1,170,experiment,93,↓,down,↓,1.6941879999940284,True,37,1
156K28S1,171,experiment,82,→,right,→,0.5361487000191119,True,37,1
156K28S1,172,experiment,56,→,right,→,0.45858289999887347,True,37,1
156K28S1,173,experiment,84,←,left,←,0.5787934000254609,True,37,0
156K28S1,174,experiment,51,←,left,←,0.37572759998147376,True,37,1
156K28S1,175,experiment,85,↑,up,↑,0.5760415000258945,True,37,0
156K28S1,176,experiment,91,←,left,←,0.42474980000406504,True,37,1
156K28S1,177,experiment,73,↑,up,↑,0.93019389998517,True,37,0
156K28S1,178,experiment,78,↓,down,↓,0.6277561000024434,True,37,1
156K28S1,179,experiment,77,↓,down,↓,0.5536180999770295,True,37,1
156K28S1,180,experiment,52,↑,down,↓,0.5944919000030495,False,37,1
156K28S1,181,experiment,97,↑,up,↑,0.42550099999061786,True,37,1
156K28S1,182,experiment,62,←,left,←,0.36728859998402186,True,37,0
156K28S1,183,experiment,80,→,right,→,1.956718200002797,True,37,0
156K28S1,184,experiment,96,→,right,→,0.5193446000048425,True,37,1
156K28S1,185,experiment,74,→,right,→,0.43358989999978803,True,37,1
156K28S1,186,experiment,81,→,right,→,0.5585336000076495,True,37,0
156K28S1,187,experiment,60,↓,down,↓,0.5567741999984719,True,37,1
156K28S1,188,experiment,83,←,left,←,0.5078711000096519,True,37,1
156K28S1,189,experiment,57,↑,down,↓,0.6525644999928772,False,37,1
156K28S1,190,experiment,59,↑,up,↑,0.5674663000099827,True,37,1
156K28S1,191,experiment,66,→,up,↑,0.7554239000019152,False,37,1
156K28S1,192,experiment,53,→,left,←,0.7322740999807138,False,37,1
156K28S1,193,experiment,92,←,left,←,0.42559220001567155,True,37,1
156K28S1,194,experiment,79,←,left,←,0.5256040999956895,True,37,0
156K28S1,195,experiment,88,↑,left,←,0.40881749999243766,False,37,1
156K28S1,196,experiment,76,→,right,→,0.5865298999997322,True,37,0
156K28S1,197,experiment,69,←,left,←,0.5970727000094485,True,37,1
156K28S1,198,experiment,105,→,left,←,0.6506598000123631,False,37,1
156K28S1,199,experiment,55,→,right,→,0.671160099998815,True,37,1
156K28S1,200,experiment,89,→,right,→,0.47910769999725744,True,37,1
156K28S1,201,experiment,100,↓,down,↓,0.5392427999759093,True,37,0
156K28S1,202,experiment,103,←,left,←,0.48427979997359216,True,37,1
156K28S1,203,experiment,64,↓,left,←,0.4338698999781627,False,37,1
156K28S1,204,experiment,95,→,up,↑,1.4265546999813523,False,37,0
156K28S1,205,experiment,75,↓,down,↓,0.5214820000110194,True,37,1
156K28S1,206,experiment,87,↑,up,↑,0.8640892000112217,True,37,1
156K28S1,207,experiment,101,↑,up,↑,0.7005760999745689,True,37,1
156K28S1,208,experiment,107,→,right,→,0.685602999990806,True,37,1
156K28S1,209,experiment,90,←,left,←,0.5648462999961339,True,37,1
156K28S1,210,experiment,49,↑,up,↑,0.958667200000491,True,37,1
156K28S1,211,experiment,70,↑,down,↓,0.8415330999996513,False,37,1
156K28S1,212,experiment,71,←,left,←,0.4493818999908399,True,37,1
156K28S1,213,experiment,63,←,left,←,0.5622542000201065,True,37,0
156K28S1,214,experiment,68,→,right,→,0.5014040000096429,True,37,1
156K28S1,215,experiment,94,→,right,→,0.8987384999927599,True,37,1
156K28S1,216,experiment,72,→,right,→,0.663322500011418,True,37,1
156K28S1,217,experiment,54,←,left,←,0.8512483999948017,True,37,1
156K28S1,218,experiment,61,↓,down,↓,0.6696259999880567,True,37,1
156K28S1,219,experiment,86,→,right,→,0.6949266000010539,True,37,1
156K28S1,220,experiment,102,→,right,→,0.49003100002300926,True,37,1
156K28S1,221,experiment,50,→,left,←,0.8381192999950144,False,37,1
156K28S1,222,experiment,99,→,right,→,0.4336316999979317,True,37,1
156K28S1,223,experiment,48,←,left,←,0.6111271000117995,True,37,0
156K28S1,224,experiment,58,←,left,←,0.6879430999979377,True,37,1
156K28S1,225,experiment,106,←,left,←,0.753997599997092,True,37,1
156K28S1,226,experiment,108,↑,up,↑,0.6163856999773998,True,37,1
156K28S1,227,experiment,67,↓,down,↓,0.6423474999901373,True,37,1
156K28S1,228,experiment,104,←,left,←,0.5503967000113335,True,37,1
156K28S1,229,experiment,65,←,no_key,no_letter,-1.0,False,37,1
156K28S1,230,training,96,←,left,←,0.504614200006472,True,37,0
156K28S1,231,training,92,↑,up,↑,0.5497887999808881,True,37,1
156K28S1,232,experiment,60,↑,up,↑,0.7645024000084959,True,37,1
156K28S1,233,experiment,100,↑,up,↑,0.5571290999941994,True,37,1
156K28S1,234,experiment,82,→,right,→,0.6363017999974545,True,37,1
156K28S1,235,experiment,72,←,left,←,0.491421500017168,True,37,1
156K28S1,236,experiment,92,↑,up,↑,0.5297634000016842,True,37,1
156K28S1,237,experiment,99,←,left,←,0.35074429999804124,True,37,1
156K28S1,238,experiment,77,→,left,←,0.9005735999962781,False,37,1
156K28S1,239,experiment,64,→,up,↑,0.6600045000086538,False,37,1
156K28S1,240,experiment,70,↓,down,↓,0.5870723999978509,True,37,1
156K28S1,241,experiment,105,←,left,←,0.5608325999928638,True,37,1
156K28S1,242,experiment,104,↓,down,↓,0.560757899977034,True,37,1
156K28S1,243,experiment,88,←,right,→,0.8617983000003733,False,37,1
156K28S1,244,experiment,78,←,left,←,0.4981468999758363,True,37,1
156K28S1,245,experiment,62,←,right,→,0.8501060999988113,False,37,1
156K28S1,246,experiment,63,→,right,→,0.7234795999829657,True,37,1
156K28S1,247,experiment,68,←,left,←,0.61684149998473,True,37,1
156K28S1,248,experiment,97,↓,left,←,1.232915700005833,False,37,1
156K28S1,249,experiment,81,←,left,←,0.6606452999985777,True,37,1
156K28S1,250,experiment,61,→,right,→,0.6308064000040758,True,37,1
156K28S1,251,experiment,108,←,left,←,0.48255149999749847,True,37,1
156K28S1,252,experiment,71,→,right,→,0.6716987999971025,True,37,1
156K28S1,253,experiment,85,↑,up,↑,0.6729562999971677,True,37,1
156K28S1,254,experiment,67,←,left,←,0.5444984000059776,True,37,1
156K28S1,255,experiment,75,→,right,→,0.4590114999737125,True,37,1
156K28S1,256,experiment,54,→,right,→,0.5499183000065386,True,37,0
156K28S1,257,experiment,87,↑,left,←,0.31718589999945834,False,37,1
156K28S1,258,experiment,76,→,right,→,0.4500409000029322,True,37,0
156K28S1,259,experiment,52,←,left,←,0.5868450000125449,True,37,0
156K28S1,260,experiment,101,←,left,←,0.4828966000059154,True,37,1
156K28S1,261,experiment,102,↑,up,↑,0.5173096000216901,True,37,1
156K28S1,262,experiment,80,↑,up,↑,0.5105115000042133,True,37,1
156K28S1,263,experiment,91,↓,down,↓,0.8049249000032432,True,37,1
156K28S1,264,experiment,53,↑,up,↑,0.5072409000131302,True,37,1
156K28S1,265,experiment,86,↑,up,↑,0.4171988000161946,True,37,1
156K28S1,266,experiment,90,←,left,←,0.5247454999771435,True,37,1
156K28S1,267,experiment,106,→,right,→,0.8928242000110913,True,37,1
156K28S1,268,experiment,59,←,left,←,0.6143410999793559,True,37,1
156K28S1,269,experiment,50,←,left,←,0.4853174999880139,True,37,1
156K28S1,270,experiment,95,↑,up,↑,1.8272294999915175,True,37,1
156K28S1,271,experiment,48,↑,up,↑,0.9068721999938134,True,37,1
156K28S1,272,experiment,84,←,left,←,0.555214000021806,True,37,1
156K28S1,273,experiment,74,←,left,←,0.45873919999576174,True,37,1
156K28S1,274,experiment,51,↓,up,↑,0.6258668000227772,False,37,0
156K28S1,275,experiment,57,↑,up,↑,1.4223035000031814,True,37,1
156K28S1,276,experiment,69,↑,up,↑,0.42484829999739304,True,37,1
156K28S1,277,experiment,93,↑,up,↑,0.49584299998241477,True,37,0
156K28S1,278,experiment,79,↑,up,↑,0.9304911999788601,True,37,1
156K28S1,279,experiment,58,↓,down,↓,0.6022118999972008,True,37,1
156K28S1,280,experiment,94,↓,right,→,0.8832632999983616,False,37,1
156K28S1,281,experiment,56,↓,down,↓,0.5339808999851812,True,37,1
156K28S1,282,experiment,98,↓,down,↓,0.6486199000210036,True,37,1
156K28S1,283,experiment,96,→,down,↓,0.751395200000843,False,37,1
156K28S1,284,experiment,89,↓,down,↓,0.8283876999921631,True,37,1
156K28S1,285,experiment,55,↓,down,↓,0.5456820000254083,True,37,1
156K28S1,286,experiment,107,→,right,→,0.6009855000011157,True,37,1
156K28S1,287,experiment,73,↑,up,↑,0.8253894999797922,True,37,1
156K28S1,288,experiment,103,→,right,→,0.9186855000152718,True,37,1
156K28S1,289,experiment,83,↑,down,↓,0.8388054000097327,False,37,1
156K28S1,290,experiment,66,←,left,←,0.4885162999853492,True,37,1
156K28S1,291,experiment,65,↓,down,↓,0.5352076999843121,True,37,1
156K28S1,292,experiment,49,→,left,←,0.45071789997746237,False,37,1
156K28S1,293,training,94,→,right,→,0.5721293000096921,True,37,0
156K28S1,294,training,65,→,right,→,0.6401530000148341,True,37,1
156K28S1,295,experiment,56,↓,down,↓,0.476575300010154,True,37,1
156K28S1,296,experiment,105,↓,down,↓,0.433769499999471,True,37,0
156K28S1,297,experiment,95,→,right,→,0.5176744000054896,True,37,0
156K28S1,298,experiment,70,←,left,←,0.8744326999876648,True,37,1
156K28S1,299,experiment,75,↓,down,↓,0.5748908999958076,True,37,1
156K28S1,300,experiment,61,←,left,←,0.7001621999952476,True,37,1
156K28S1,301,experiment,81,→,right,→,0.6057980999758001,True,37,1
156K28S1,302,experiment,92,←,right,→,0.7117415999819059,False,37,1
156K28S1,303,experiment,62,↓,down,↓,0.5513450000144076,True,37,1
156K28S1,304,experiment,55,←,right,→,1.4396656000171788,False,37,1
156K28S1,305,experiment,89,→,right,→,0.6009051000000909,True,37,1
156K28S1,306,experiment,60,↓,down,↓,0.5338558000221383,True,37,1
156K28S1,307,experiment,93,←,right,→,1.8980077999876812,False,37,1
156K28S1,308,experiment,87,↓,down,↓,0.5861136000021361,True,37,1
156K28S1,309,experiment,91,↓,down,↓,0.5890609000052791,True,37,1
156K28S1,310,experiment,82,↑,up,↑,0.4504630999872461,True,37,1
156K28S1,311,experiment,97,←,left,←,0.4497282000083942,True,37,0
156K28S1,312,experiment,79,←,left,←,0.5643831999914255,True,37,0
156K28S1,313,experiment,72,→,right,→,0.7669504000223242,True,37,1
156K28S1,314,experiment,63,↑,up,↑,0.6512728999950923,True,37,1
156K28S1,315,experiment,102,←,left,←,0.7604364000144415,True,37,1
156K28S1,316,experiment,76,→,right,→,0.6248865999805275,True,37,1
156K28S1,317,experiment,67,←,left,←,0.7142864000052214,True,37,1
156K28S1,318,experiment,88,↑,up,↑,1.3449288999836426,True,37,1
156K28S1,319,experiment,108,←,left,←,0.48838830000022426,True,37,1
156K28S1,320,experiment,106,↓,down,↓,1.0498048999870662,True,37,1
156K28S1,321,experiment,48,→,left,←,0.5122744999825954,False,37,1
156K28S1,322,experiment,58,→,right,→,0.6493248000042513,True,37,1
156K28S1,323,experiment,90,→,right,→,0.64185450001969,True,37,1
156K28S1,324,experiment,68,↑,up,↑,0.45912779998616315,True,37,1
156K28S1,325,experiment,98,↓,down,↓,0.6473363999975845,True,37,1
156K28S1,326,experiment,73,↑,down,↓,0.9336406999791507,False,37,1
156K28S1,327,experiment,99,↓,down,↓,0.5921692000119947,True,37,1
156K28S1,328,experiment,59,←,left,←,0.6373978000192437,True,37,1
156K28S1,329,experiment,51,↓,down,↓,0.6593247000128031,True,37,1
156K28S1,330,experiment,65,↑,up,↑,0.7161375000141561,True,37,1
156K28S1,331,experiment,77,↓,down,↓,0.6145053000072949,True,37,1
156K28S1,332,experiment,83,↑,up,↑,0.5628557000018191,True,37,1
156K28S1,333,experiment,50,↓,up,↑,0.6437103000062052,False,37,1
156K28S1,334,experiment,80,↑,down,↓,0.6484048000129405,False,37,1
156K28S1,335,experiment,66,↑,up,↑,0.5526795999903698,True,37,1
156K28S1,336,experiment,103,→,right,→,0.7529686999914702,True,37,1
156K28S1,337,experiment,85,↓,down,↓,0.5033093999954872,True,37,1
156K28S1,338,experiment,52,↓,down,↓,0.6824920999933966,True,37,1
156K28S1,339,experiment,57,→,right,→,0.4172674999863375,True,37,1
156K28S1,340,experiment,53,↓,down,↓,1.8105992000200786,True,37,0
156K28S1,341,experiment,64,←,left,←,0.605933200014988,True,37,1
156K28S1,342,experiment,94,←,right,→,1.3269917000143323,False,37,1
156K28S1,343,experiment,49,→,right,→,0.530357500014361,True,37,1
156K28S1,344,experiment,104,←,left,←,0.44983070000307634,True,37,1
156K28S1,345,experiment,101,↑,up,↑,0.6557466000085697,True,37,0
156K28S1,346,experiment,69,→,right,→,0.4508290000085253,True,37,1
156K28S1,347,experiment,86,↓,down,↓,0.5125906000030227,True,37,0
156K28S1,348,experiment,78,↓,up,↑,1.1948520000150893,False,37,1
156K28S1,349,experiment,100,↓,down,↓,0.5470451000146568,True,37,1
156K28S1,350,experiment,84,→,right,→,0.6334317000000738,True,37,1
156K28S1,351,experiment,71,↓,down,↓,0.5849126999964938,True,37,1
156K28S1,352,experiment,54,→,right,→,0.4501975000021048,True,37,1
156K28S1,353,experiment,74,↑,up,↑,0.6778592999908142,True,37,1
156K28S1,354,experiment,107,←,left,←,0.7437237999984063,True,37,1
156K28S1,355,experiment,96,→,right,→,0.5708769999910146,True,37,1
156K28S1,356,training,72,↓,down,↓,0.6837635999836493,True,37,0
156K28S1,357,training,83,←,left,←,1.1895807000109926,True,37,1
156K28S1,358,experiment,89,←,left,←,0.6730712999997195,True,37,1
156K28S1,359,experiment,84,↓,down,↓,0.578688300010981,True,37,1
156K28S1,360,experiment,96,↑,up,↑,0.6599813999782782,True,37,1
156K28S1,361,experiment,56,↓,down,↓,0.49575970001751557,True,37,1
156K28S1,362,experiment,61,↓,down,↓,0.5041459000203758,True,37,1
156K28S1,363,experiment,72,→,right,→,0.5726741999969818,True,37,1
156K28S1,364,experiment,107,↑,up,↑,0.6105662999907508,True,37,1
156K28S1,365,experiment,85,→,right,→,0.5024638999893796,True,37,1
156K28S1,366,experiment,91,→,right,→,1.196606499986956,True,37,1
156K28S1,367,experiment,73,↓,down,↓,0.6050278999900911,True,37,1
156K28S1,368,experiment,102,→,right,→,0.6355649000033736,True,37,1
156K28S1,369,experiment,66,↑,up,↑,0.6532462000031956,True,37,1
156K28S1,370,experiment,78,←,left,←,0.561395700002322,True,37,1
156K28S1,371,experiment,63,↑,right,→,0.9521942000137642,False,37,1
156K28S1,372,experiment,98,→,right,→,0.8249112000048626,True,37,1
156K28S1,373,experiment,79,←,left,←,0.5981043000065256,True,37,1
156K28S1,374,experiment,69,←,left,←,0.38475040000048466,True,37,1
156K28S1,375,experiment,71,↓,down,↓,0.624573099979898,True,37,0
156K28S1,376,experiment,86,→,right,→,0.4340573000081349,True,37,1
156K28S1,377,experiment,88,↑,up,↑,0.5254265000112355,True,37,0
156K28S1,378,experiment,62,↓,down,↓,0.5480023999989498,True,37,1
156K28S1,379,experiment,65,←,left,←,0.5130466999835335,True,37,1
156K28S1,380,experiment,49,↑,right,→,0.660497500008205,False,37,1
156K28S1,381,experiment,92,→,left,←,0.4254860000219196,False,37,1
156K28S1,382,experiment,57,←,right,→,0.6727194999984931,False,37,0
156K28S1,383,experiment,74,→,right,→,0.45081300000310875,True,37,1
156K28S1,384,experiment,64,↓,down,↓,0.6622903000097722,True,37,1
156K28S1,385,experiment,90,→,right,→,0.6701804000185803,True,37,1
156K28S1,386,experiment,54,↑,up,↑,0.49078689998714253,True,37,1
156K28S1,387,experiment,58,↓,down,↓,0.5155393999884836,True,37,1
156K28S1,388,experiment,82,→,right,→,0.5000716999929864,True,37,1
156K28S1,389,experiment,108,→,left,←,0.308860499993898,False,37,1
156K28S1,390,experiment,94,↓,up,↑,1.1448142000008374,False,37,0
156K28S1,391,experiment,50,↓,down,↓,0.4751479999977164,True,37,1
156K28S1,392,experiment,93,↑,up,↑,0.7855589999817312,True,37,0
156K28S1,393,experiment,99,←,left,←,0.49844240001402795,True,37,1
156K28S1,394,experiment,59,↓,down,↓,0.8747898999718018,True,37,1
156K28S1,395,experiment,70,→,right,→,0.5853361000190489,True,37,1
156K28S1,396,experiment,76,→,right,→,0.6810926000180189,True,37,1
156K28S1,397,experiment,81,→,right,→,0.6197061999992002,True,37,1
156K28S1,398,experiment,95,↑,up,↑,0.4837775999912992,True,37,1
156K28S1,399,experiment,53,↑,up,↑,0.43394429999170825,True,37,0
156K28S1,400,experiment,103,↑,up,↑,0.4258945999899879,True,37,0
156K28S1,401,experiment,97,→,right,→,0.7148855999985244,True,37,1
156K28S1,402,experiment,75,→,right,→,0.6380891999870073,True,37,1
156K28S1,403,experiment,48,↑,up,↑,0.6367543000087608,True,37,1
156K28S1,404,experiment,104,↓,down,↓,0.6655191000027116,True,37,1
156K28S1,405,experiment,105,↑,up,↑,0.6925438999896869,True,37,1
156K28S1,406,experiment,52,←,left,←,0.5680530999961775,True,37,1
156K28S1,407,experiment,68,↓,down,↓,0.6433480999839958,True,37,1
156K28S1,408,experiment,101,↓,down,↓,0.5928492000093684,True,37,1
156K28S1,409,experiment,100,→,right,→,0.6724109000060707,True,37,1
156K28S1,410,experiment,51,←,left,←,0.49363830001675524,True,37,1
156K28S1,411,experiment,83,←,left,←,1.4064397999900393,True,37,1
156K28S1,412,experiment,55,←,left,←,0.5483873999910429,True,37,1
156K28S1,413,experiment,67,↑,up,↑,0.6090071999933571,True,37,1
156K28S1,414,experiment,77,→,left,←,0.3922790999931749,False,37,1
156K28S1,415,experiment,80,↓,down,↓,0.5250907999870833,True,37,0
156K28S1,416,experiment,60,→,right,→,0.5247520999982953,True,37,1
156K28S1,417,experiment,106,↓,down,↓,0.6613170000200626,True,37,1
156K28S1,418,experiment,87,↓,down,↓,0.574640900013037,True,37,1
156K28S1,419,training,105,→,right,→,0.47843610000563785,True,37,0
156K28S1,420,training,68,→,right,→,0.5088622000184841,True,37,0
156K28S1,421,experiment,56,↓,down,↓,0.7663903999782633,True,37,1
156K28S1,422,experiment,76,→,up,↑,0.7510499999916647,False,37,1
156K28S1,423,experiment,92,↑,up,↑,0.8031550000014249,True,37,1
156K28S1,424,experiment,59,↓,down,↓,0.5756164999911562,True,37,1
156K28S1,425,experiment,90,↑,up,↑,0.7233227000106126,True,37,1
156K28S1,426,experiment,71,↑,up,↑,0.7435049999912735,True,37,1
156K28S1,427,experiment,78,↑,up,↑,0.4340959999826737,True,37,1
156K28S1,428,experiment,52,←,left,←,0.662089699995704,True,37,0
156K28S1,429,experiment,106,←,left,←,0.6411244999908376,True,37,1
156K28S1,430,experiment,105,↑,up,↑,1.2771659999853,True,37,1
156K28S1,431,experiment,61,↑,up,↑,0.4789998999913223,True,37,1
156K28S1,432,experiment,68,←,left,←,0.661277200008044,True,37,1
156K28S1,433,experiment,55,←,left,←,0.5135202000092249,True,37,1
156K28S1,434,experiment,95,←,left,←,0.9654877000139095,True,37,1
156K28S1,435,experiment,107,↑,up,↑,0.6920533999800682,True,37,1
156K28S1,436,experiment,104,→,right,→,0.5824192999862134,True,37,1
156K28S1,437,experiment,79,→,right,→,0.6933678000059444,True,37,1
156K28S1,438,experiment,64,↑,up,↑,0.6292220999894198,True,37,1
156K28S1,439,experiment,81,↑,up,↑,0.5622522000048775,True,37,1
156K28S1,440,experiment,83,↑,up,↑,0.5043404000170995,True,37,1
156K28S1,441,experiment,89,↑,up,↑,0.671583199989982,True,37,1
156K28S1,442,experiment,75,↓,up,↑,0.425666099996306,False,37,1
156K28S1,443,experiment,98,↑,up,↑,0.6344108000048436,True,37,0
156K28S1,444,experiment,101,→,right,→,0.7442508999956772,True,37,1
156K28S1,445,experiment,80,↓,down,↓,0.4967502999934368,True,37,1
156K28S1,446,experiment,53,↑,up,↑,0.45889359997818246,True,37,1
156K28S1,447,experiment,60,→,right,→,0.7811983000137843,True,37,0
156K28S1,448,experiment,54,↓,down,↓,0.5404971999814734,True,37,1
156K28S1,449,experiment,73,→,left,←,0.6875190999999177,False,37,1
156K28S1,450,experiment,85,↑,up,↑,0.7597845999989659,True,37,1
156K28S1,451,experiment,57,↑,up,↑,0.6631561999965925,True,37,1
156K28S1,452,experiment,87,←,left,←,1.4000288000097498,True,37,1
156K28S1,453,experiment,72,↑,up,↑,0.5210103999997955,True,37,1
156K28S1,454,experiment,108,→,right,→,1.352887399989413,True,37,1
156K28S1,455,experiment,69,↑,up,↑,0.5804538000083994,True,37,1
156K28S1,456,experiment,102,→,right,→,0.5800341999856755,True,37,1
156K28S1,457,experiment,67,↑,up,↑,1.2310178999905474,True,37,1
156K28S1,458,experiment,86,←,left,←,0.6099534999812022,True,37,1
156K28S1,459,experiment,84,↓,down,↓,0.7260013000050094,True,37,1
156K28S1,460,experiment,82,←,left,←,0.5024208000104409,True,37,1
156K28S1,461,experiment,49,←,left,←,0.5866482999990694,True,37,1
156K28S1,462,experiment,99,←,up,↑,0.325570000015432,False,37,1
156K28S1,463,experiment,94,↑,down,↓,0.950818999990588,False,37,1
156K28S1,464,experiment,96,↓,down,↓,0.6015141000098083,True,37,1
156K28S1,465,experiment,51,→,right,→,0.6012734000105411,True,37,1
156K28S1,466,experiment,63,→,right,→,0.5566077000112273,True,37,1
156K28S1,467,experiment,48,↓,down,↓,0.7909530000179075,True,37,1
156K28S1,468,experiment,77,→,right,→,0.5101961999898776,True,37,1
156K28S1,469,experiment,91,↓,down,↓,0.7165257000015117,True,37,1
156K28S1,470,experiment,66,↓,down,↓,0.6585278999991715,True,37,1
156K28S1,471,experiment,50,↑,up,↑,0.5836870000057388,True,37,1
156K28S1,472,experiment,88,←,left,←,0.9235645000007935,True,37,1
156K28S1,473,experiment,74,↓,up,↑,1.190715699980501,False,37,1
156K28S1,474,experiment,103,↓,down,↓,0.8297049000102561,True,37,1
156K28S1,475,experiment,100,↑,up,↑,0.6276837000041269,True,37,1
156K28S1,476,experiment,97,↑,up,↑,1.6830712000082713,True,37,1
156K28S1,477,experiment,58,→,up,↑,0.9815306000236887,False,37,1
156K28S1,478,experiment,93,↓,down,↓,0.6320978000003379,True,37,1
156K28S1,479,experiment,65,↑,down,↓,0.7134797000035178,False,37,1
156K28S1,480,experiment,62,→,right,→,0.672638599993661,True,37,1
156K28S1,481,experiment,70,↑,up,↑,0.6633019000000786,True,37,1
156K28S1,482,training,49,→,right,→,0.558437400002731,True,37,0
156K28S1,483,training,101,↓,down,↓,0.6635321000067052,True,37,1
156K28S1,484,experiment,65,↓,down,↓,0.5603700999927241,True,37,1
156K28S1,485,experiment,104,←,left,←,0.6713098999753129,True,37,1
156K28S1,486,experiment,68,↑,down,↓,0.9505067000281997,False,37,1
156K28S1,487,experiment,90,↑,up,↑,0.5150974000280257,True,37,1
156K28S1,488,experiment,106,→,right,→,0.8836325999873225,True,37,1
156K28S1,489,experiment,101,↑,up,↑,0.450459999992745,True,37,1
156K28S1,490,experiment,96,↓,down,↓,0.6938168999913614,True,37,0
156K28S1,491,experiment,55,↓,down,↓,0.6163605999900028,True,37,1
156K28S1,492,experiment,82,↓,down,↓,0.5969670999911614,True,37,1
156K28S1,493,experiment,92,↑,up,↑,0.9029390999930911,True,37,1
156K28S1,494,experiment,57,↑,up,↑,0.7525786999904085,True,37,1
156K28S1,495,experiment,100,↓,down,↓,0.5860492000065278,True,37,1
156K28S1,496,experiment,54,↓,down,↓,0.881351900025038,True,37,1
156K28S1,497,experiment,50,↓,down,↓,0.5742483999929391,True,37,1
156K28S1,498,experiment,84,↑,up,↑,0.6915785000019241,True,37,1
156K28S1,499,experiment,80,↓,down,↓,0.5977825000009034,True,37,1
156K28S1,500,experiment,73,→,right,→,0.7741876000072807,True,37,1
156K28S1,501,experiment,69,↑,up,↑,0.840815500007011,True,37,1
156K28S1,502,experiment,102,↓,down,↓,0.4417918999970425,True,37,1
156K28S1,503,experiment,77,↓,down,↓,0.5870801999990363,True,37,0
156K28S1,504,experiment,74,←,left,←,0.7150141000165604,True,37,1
156K28S1,505,experiment,94,→,left,←,0.5758030999859329,False,37,1
156K28S1,506,experiment,76,←,left,←,0.4806298000039533,True,37,1
156K28S1,507,experiment,49,↑,up,↑,0.4337873999902513,True,37,1
156K28S1,508,experiment,86,↓,down,↓,0.4874271000153385,True,37,0
156K28S1,509,experiment,87,→,right,→,0.8468685000261758,True,37,1
156K28S1,510,experiment,81,→,right,→,0.4904726000095252,True,37,1
156K28S1,511,experiment,89,←,left,←,0.7060723999748006,True,37,1
156K28S1,512,experiment,52,←,left,←,0.7807193000044208,True,37,1
156K28S1,513,experiment,62,↑,no_key,no_letter,-1.0,False,37,1
156K28S1,514,experiment,53,↓,down,↓,0.8018875000125263,True,37,1
156K28S1,515,experiment,83,↑,up,↑,0.450788799993461,True,37,1
156K28S1,516,experiment,64,↑,no_key,no_letter,-1.0,False,37,0
156K28S1,517,experiment,63,→,right,→,0.7569090000179131,True,37,1
156K28S1,518,experiment,91,→,right,→,0.4176210000005085,True,37,1
156K28S1,519,experiment,95,←,left,←,0.6566205999988597,True,37,0
156K28S1,520,experiment,103,↓,down,↓,0.45034100001794286,True,37,1
156K28S1,521,experiment,97,↓,down,↓,1.2750173000094946,True,37,0
156K28S1,522,experiment,75,→,right,→,0.3917311000113841,True,37,1
156K28S1,523,experiment,85,→,right,→,0.39141929999459535,True,37,0
156K28S1,524,experiment,58,←,left,←,0.41785389999859035,True,37,0
156K28S1,525,experiment,107,↑,up,↑,0.6046273999963887,True,37,0
156K28S1,526,experiment,99,↓,down,↓,0.7399298000091221,True,37,1
156K28S1,527,experiment,105,←,left,←,0.5404484000173397,True,37,1
156K28S1,528,experiment,71,→,right,→,0.6555176000110805,True,37,1
156K28S1,529,experiment,66,←,left,←,0.9038508999801707,True,37,1
156K28S1,530,experiment,59,→,right,→,0.6081348000152502,True,37,1
156K28S1,531,experiment,51,←,right,→,0.5113793000055011,False,37,1
156K28S1,532,experiment,61,←,left,←,0.4587069000117481,True,37,1
156K28S1,533,experiment,78,↓,down,↓,0.7232344000076409,True,37,0
156K28S1,534,experiment,79,→,right,→,0.6926383999816608,True,37,1
156K28S1,535,experiment,88,←,left,←,0.5641608000150882,True,37,1
156K28S1,536,experiment,67,↓,up,↑,0.7358066000160761,False,37,1
156K28S1,537,experiment,48,↓,down,↓,0.6431092999991961,True,37,1
156K28S1,538,experiment,98,↑,up,↑,0.7614362000022084,True,37,1
156K28S1,539,experiment,108,→,right,→,0.4958919000055175,True,37,1
156K28S1,540,experiment,60,↑,up,↑,0.584322799986694,True,37,1
156K28S1,541,experiment,56,→,right,→,0.43381590000353754,True,37,1
156K28S1,542,experiment,93,←,left,←,0.4255700999929104,True,37,1
156K28S1,543,experiment,70,←,left,←,0.36671090000891127,True,37,0
156K28S1,544,experiment,72,←,right,→,0.40136879999772646,False,37,0
156K28S1,545,training,85,←,left,←,0.9599532999855,True,37,0
156K28S1,546,training,83,←,left,←,0.4587900999758858,True,37,1
156K28S1,547,experiment,69,←,left,←,0.4775395999895409,True,37,0
156K28S1,548,experiment,104,↑,up,↑,0.5440591000078712,True,37,0
156K28S1,549,experiment,55,→,left,←,0.6326449000043795,False,37,1
156K28S1,550,experiment,75,→,right,→,0.6550176999880932,True,37,1
156K28S1,551,experiment,81,→,right,→,0.6344696000160184,True,37,1
156K28S1,552,experiment,53,↓,down,↓,0.7840651999867987,True,37,1
156K28S1,553,experiment,103,↑,up,↑,0.6232288000173867,True,37,1
156K28S1,554,experiment,51,↑,up,↑,0.6215041000104975,True,37,1
156K28S1,555,experiment,48,→,right,→,0.6451265000214335,True,37,1
156K28S1,556,experiment,82,→,right,→,0.7207657000108156,True,37,1
156K28S1,557,experiment,101,←,left,←,0.5951309000083711,True,37,1
156K28S1,558,experiment,95,↑,up,↑,0.5880778000282589,True,37,1
156K28S1,559,experiment,73,←,left,←,0.6204971999977715,True,37,1
156K28S1,560,experiment,54,↑,up,↑,0.5066973000066355,True,37,1
156K28S1,561,experiment,71,↓,down,↓,0.4497405999863986,True,37,1
156K28S1,562,experiment,108,↑,up,↑,0.44226070001604967,True,37,0
156K28S1,563,experiment,77,←,left,←,0.5902285999909509,True,37,0
156K28S1,564,experiment,97,←,left,←,0.383786999998847,True,37,1
156K28S1,565,experiment,58,←,left,←,0.5163796000124421,True,37,0
156K28S1,566,experiment,100,↑,up,↑,0.6469654999964405,True,37,1
156K28S1,567,experiment,107,↓,down,↓,0.6582295999978669,True,37,1
156K28S1,568,experiment,57,↑,up,↑,0.5734189999930095,True,37,1
156K28S1,569,experiment,85,↑,down,↓,0.6025909999734722,False,37,1
156K28S1,570,experiment,52,→,right,→,0.7297567999921739,True,37,1
156K28S1,571,experiment,66,↓,down,↓,0.5989983000035863,True,37,1
156K28S1,572,experiment,94,←,left,←,0.5444614999869373,True,37,1
156K28S1,573,experiment,65,→,right,→,0.6855877000198234,True,37,1
156K28S1,574,experiment,62,←,left,←,0.7907424999866635,True,37,1
156K28S1,575,experiment,86,↑,up,↑,1.9146776999987196,True,37,1
156K28S1,576,experiment,80,↑,up,↑,0.5722769999993034,True,37,1
156K28S1,577,experiment,67,←,left,←,0.5355963000038173,True,37,1
156K28S1,578,experiment,84,↓,up,↑,0.4869223000132479,False,37,1
156K28S1,579,experiment,68,→,right,→,0.7171398000209592,True,37,1
156K28S1,580,experiment,63,↑,up,↑,0.6764273000007961,True,37,1
156K28S1,581,experiment,87,↓,down,↓,0.49274710001191124,True,37,1
156K28S1,582,experiment,89,↓,down,↓,0.5079810000024736,True,37,1
156K28S1,583,experiment,76,←,left,←,0.5271481999952812,True,37,1
156K28S1,584,experiment,59,↓,down,↓,0.7027870000165422,True,37,1
156K28S1,585,experiment,90,↓,down,↓,0.5019231999758631,True,37,1
156K28S1,586,experiment,61,↑,up,↑,0.5493931999953929,True,37,1
156K28S1,587,experiment,99,↓,down,↓,0.49522059998707846,True,37,1
156K28S1,588,experiment,64,→,left,←,0.7983821000088938,False,37,1
156K28S1,589,experiment,78,→,no_key,no_letter,-1.0,False,37,1
156K28S1,590,experiment,49,↓,down,↓,0.5190513000125065,True,37,1
156K28S1,591,experiment,60,↑,up,↑,0.4175876000081189,True,37,1
156K28S1,592,experiment,106,←,left,←,0.45893759999307804,True,37,0
156K28S1,593,experiment,96,↓,down,↓,0.5847776000155136,True,37,0
156K28S1,594,experiment,70,←,left,←,0.33413379997364245,True,37,1
156K28S1,595,experiment,83,→,right,→,0.5380441000161227,True,37,0
156K28S1,596,experiment,72,←,left,←,0.4584935999882873,True,37,1
156K28S1,597,experiment,92,↓,down,↓,0.6041302000230644,True,37,0
156K28S1,598,experiment,56,←,left,←,0.48324739999952726,True,37,1
156K28S1,599,experiment,74,→,right,→,0.5338380000030156,True,37,1
156K28S1,600,experiment,93,→,right,→,0.38390360001358204,True,37,1
156K28S1,601,experiment,98,↑,left,←,0.4504497000016272,False,37,0
156K28S1,602,experiment,79,→,left,←,0.4946138999948744,False,37,1
156K28S1,603,experiment,102,↓,down,↓,0.625453299988294,True,37,1
156K28S1,604,experiment,105,←,right,→,0.4414929000195116,False,37,1
156K28S1,605,experiment,88,←,left,←,1.223410500009777,True,37,0
156K28S1,606,experiment,91,↑,up,↑,0.5284768000128679,True,37,1
156K28S1,607,experiment,50,↑,up,↑,0.6358201999973971,True,37,1
156K28S1,608,training,103,↓,down,↓,0.6790250000194646,True,37,0
156K28S1,609,training,107,↓,down,↓,0.7694573999906424,True,37,1
156K28S1,610,experiment,52,←,left,←,0.5540383000043221,True,37,1
156K28S1,611,experiment,54,←,left,←,0.6028808999981266,True,37,1
156K28S1,612,experiment,95,←,left,←,0.7872360000037588,True,37,1
156K28S1,613,experiment,98,↓,down,↓,0.5640213000006042,True,37,1
156K28S1,614,experiment,71,→,left,←,0.5662253999907989,False,37,1
156K28S1,615,experiment,55,←,down,↓,0.80574019998312,False,37,1
156K28S1,616,experiment,93,→,left,←,0.5028735999949276,False,37,1
156K28S1,617,experiment,66,←,left,←,0.5974652000004426,True,37,1
156K28S1,618,experiment,82,↓,down,↓,0.6668883000093047,True,37,1
156K28S1,619,experiment,75,↑,up,↑,0.7116709999972954,True,37,1
156K28S1,620,experiment,72,→,right,→,0.6677022000076249,True,37,1
156K28S1,621,experiment,104,↑,up,↑,0.5830458000127692,True,37,1
156K28S1,622,experiment,50,→,right,→,0.8318092999979854,True,37,1
156K28S1,623,experiment,85,↑,up,↑,0.5945400000200607,True,37,1
156K28S1,624,experiment,100,←,left,←,0.5702015999995638,True,37,1
156K28S1,625,experiment,59,→,right,→,0.6244197000050917,True,37,1
156K28S1,626,experiment,69,→,right,→,0.9450817999895662,True,37,1
156K28S1,627,experiment,84,↑,up,↑,0.5277421000064351,True,37,1
156K28S1,628,experiment,86,→,right,→,0.5905218000116292,True,37,1
156K28S1,629,experiment,108,↑,up,↑,0.5160235000075772,True,37,1
156K28S1,630,experiment,62,→,right,→,0.4829418000008445,True,37,1
156K28S1,631,experiment,94,→,right,→,0.5449470000166912,True,37,0
156K28S1,632,experiment,63,↓,down,↓,0.6626421000109985,True,37,1
156K28S1,633,experiment,73,←,left,←,0.5082403999986127,True,37,1
156K28S1,634,experiment,106,↓,down,↓,0.5095370000053663,True,37,1
156K28S1,635,experiment,48,↓,up,↑,0.6977679999836255,False,37,1
156K28S1,636,experiment,58,→,right,→,0.4171463999955449,True,37,1
156K28S1,637,experiment,97,→,left,←,0.4510729000030551,False,37,0
156K28S1,638,experiment,70,→,right,→,0.5528816999867558,True,37,0
156K28S1,639,experiment,78,↑,up,↑,0.5297660000214819,True,37,1
156K28S1,640,experiment,56,↑,up,↑,0.770439499989152,True,37,1
156K28S1,641,experiment,87,→,right,→,0.5270670999889262,True,37,1
156K28S1,642,experiment,74,→,right,→,0.4338519000157248,True,37,1
156K28S1,643,experiment,105,↑,up,↑,0.637991299998248,True,37,0
156K28S1,644,experiment,83,↓,down,↓,0.4422331999812741,True,37,1
156K28S1,645,experiment,88,→,right,→,0.43383389999507926,True,37,0
156K28S1,646,experiment,49,←,left,←,0.6495205000101123,True,37,0
156K28S1,647,experiment,57,←,left,←,0.48517500000889413,True,37,1
156K28S1,648,experiment,80,↓,down,↓,0.6232099000189919,True,37,1
156K28S1,649,experiment,103,←,left,←,0.6126729999959935,True,37,1
156K28S1,650,experiment,81,→,left,←,0.5619085000071209,False,37,1
156K28S1,651,experiment,77,←,left,←,0.8020840999961365,True,37,1
156K28S1,652,experiment,68,→,right,→,0.5961286000092514,True,37,1
156K28S1,653,experiment,102,→,right,→,0.49935199998435564,True,37,1
156K28S1,654,experiment,99,←,left,←,0.8710853999946266,True,37,1
156K28S1,655,experiment,53,↑,up,↑,0.7229359000048134,True,37,1
156K28S1,656,experiment,92,←,left,←,0.7358291000127792,True,37,1
156K28S1,657,experiment,79,↓,down,↓,0.8252085999993142,True,37,1
156K28S1,658,experiment,90,↑,up,↑,0.5626023999939207,True,37,1
156K28S1,659,experiment,67,→,right,→,0.6542292000085581,True,37,1
156K28S1,660,experiment,76,↓,down,↓,0.5553356000164058,True,37,1
156K28S1,661,experiment,89,↓,down,↓,0.6238123000075575,True,37,1
156K28S1,662,experiment,107,←,left,←,0.6040246000047773,True,37,1
156K28S1,663,experiment,91,→,right,→,0.6858137999952305,True,37,1
156K28S1,664,experiment,101,→,right,→,0.49762419998296537,True,37,1
156K28S1,665,experiment,51,←,left,←,0.5570421000011265,True,37,1
156K28S1,666,experiment,96,→,right,→,0.5915642000036314,True,37,1
156K28S1,667,experiment,64,↓,down,↓,0.7071981999906711,True,37,1
156K28S1,668,experiment,61,→,right,→,0.5949174000124913,True,37,1
156K28S1,669,experiment,65,↑,up,↑,0.6864138999953866,True,37,1
156K28S1,670,experiment,60,↓,down,↓,0.7835664000012912,True,37,1
156K28S1,671,training,80,↑,up,↑,0.7168113999941852,True,36,0
156K28S1,672,training,83,←,left,←,0.6052206000022124,True,36,1
156K28S1,673,experiment,48,↓,down,↓,0.7174136999819893,True,36,1
156K28S1,674,experiment,97,→,left,←,0.6814651000022423,False,36,1
156K28S1,675,experiment,56,↓,down,↓,0.6116341000015382,True,36,1
156K28S1,676,experiment,101,←,left,←,0.5945637999975588,True,36,1
156K28S1,677,experiment,55,→,left,←,0.6409745000128169,False,36,1
156K28S1,678,experiment,104,↓,down,↓,0.6535407000046689,True,36,1
156K28S1,679,experiment,69,↓,up,↑,0.7252662000246346,False,36,1
156K28S1,680,experiment,75,↑,up,↑,0.8958129000093322,True,36,1
156K28S1,681,experiment,65,→,right,→,0.6385798999981489,True,36,1
156K28S1,682,experiment,99,↓,down,↓,0.7086061000009067,True,36,1
156K28S1,683,experiment,83,→,right,→,1.0453410999907646,True,36,1
156K28S1,684,experiment,66,→,right,→,0.6383475000038743,True,36,1
156K28S1,685,experiment,102,←,left,←,0.7314118000213057,True,36,1
156K28S1,686,experiment,49,↑,up,↑,0.7105900000024121,True,36,1
156K28S1,687,experiment,63,←,left,←,1.437992999999551,True,36,1
156K28S1,688,experiment,60,←,left,←,0.5534037000034004,True,36,1
156K28S1,689,experiment,52,↑,up,↑,0.57845709999674,True,36,1
156K28S1,690,experiment,93,↓,down,↓,0.6606906999950297,True,36,1
156K28S1,691,experiment,72,↑,up,↑,0.5952439000247978,True,36,1
156K28S1,692,experiment,68,↓,down,↓,0.6371737000008579,True,36,1
156K28S1,693,experiment,85,↓,up,↑,0.8001892000029329,False,36,1
156K28S1,694,experiment,106,↑,up,↑,0.6538607999973465,True,36,1
156K28S1,695,experiment,87,→,right,→,0.7510050999990199,True,36,1
156K28S1,696,experiment,96,↑,up,↑,0.5296451000031084,True,36,1
156K28S1,697,experiment,103,←,left,←,0.5226814999768976,True,36,1
156K28S1,698,experiment,74,↑,up,↑,0.5176230999932159,True,36,1
156K28S1,699,experiment,77,↑,up,↑,0.4169341000088025,True,36,1
156K28S1,700,experiment,108,↓,down,↓,0.5715166000009049,True,36,0
156K28S1,701,experiment,94,→,right,→,0.4502114999922924,True,36,1
156K28S1,702,experiment,76,←,right,→,0.490986899996642,False,36,0
156K28S1,703,experiment,80,←,left,←,0.5970859000226483,True,36,1
156K28S1,704,experiment,100,↓,down,↓,0.5804329999955371,True,36,1
156K28S1,705,experiment,53,↑,up,↑,0.6919363999913912,True,36,1
156K28S1,706,experiment,84,→,left,←,0.588894699991215,False,36,1
156K28S1,707,experiment,58,↑,up,↑,0.53053639997961,True,36,1
156K28S1,708,experiment,98,↑,up,↑,0.5411136000184342,True,36,1
156K28S1,709,experiment,64,↓,down,↓,0.5866984000022057,True,36,1
156K28S1,710,experiment,71,↑,up,↑,0.5323714000114705,True,36,1
156K28S1,711,experiment,57,↑,up,↑,0.500534399994649,True,36,1
156K28S1,712,experiment,95,←,right,→,0.9134753000107594,False,36,1
156K28S1,713,experiment,54,→,right,→,0.6432906999834813,True,36,1
156K28S1,714,experiment,79,↓,down,↓,0.6641421999956947,True,36,1
156K28S1,715,experiment,61,→,right,→,1.0337916999997105,True,36,1
156K28S1,716,experiment,51,←,right,→,0.8242942000215407,False,36,1
156K28S1,717,experiment,90,←,left,←,0.6900463000056334,True,36,1
156K28S1,718,experiment,86,→,right,→,0.6181520000100136,True,36,1
156K28S1,719,experiment,105,↑,up,↑,1.0475104999786709,True,36,1
156K28S1,720,experiment,67,↑,up,↑,0.623628400004236,True,36,1
156K28S1,721,experiment,91,↑,up,↑,0.5288506000069901,True,36,1
156K28S1,722,experiment,88,↑,up,↑,0.5351941999979317,True,36,1
156K28S1,723,experiment,89,←,left,←,0.46962500002700835,True,36,1
156K28S1,724,experiment,107,↑,down,↓,0.6709119000006467,False,36,1
156K28S1,725,experiment,50,←,left,←,0.5877670999907423,True,36,1
156K28S1,726,experiment,70,↓,down,↓,0.49328999998397194,True,36,1
156K28S1,727,experiment,59,←,left,←,0.5909009000170045,True,36,1
156K28S1,728,experiment,78,←,left,←,0.4775255999993533,True,36,1
156K28S1,729,experiment,73,↓,down,↓,0.6428021999890916,True,36,1
156K28S1,730,experiment,81,↓,right,→,0.9909049999841955,False,36,1
156K28S1,731,experiment,82,←,left,←,0.5804988000018056,True,36,1
156K28S1,732,experiment,62,→,right,→,0.553006500005722,True,36,1
156K28S1,733,experiment,92,↑,up,↑,0.54105250001885,True,36,1
156K28S1,734,training,98,↑,up,↑,0.5265004000102635,True,36,0
156K28S1,735,training,100,←,left,←,0.5044490000000224,True,36,1
156K28S1,736,experiment,95,↓,up,↑,0.9011399000009988,False,36,1
156K28S1,737,experiment,75,↓,down,↓,0.6653082999982871,True,36,1
156K28S1,738,experiment,92,↑,up,↑,0.736233599978732,True,36,1
156K28S1,739,experiment,89,↓,down,↓,0.4785952999955043,True,36,1
156K28S1,740,experiment,53,←,left,←,0.47355460000107996,True,36,1
156K28S1,741,experiment,98,←,left,←,0.4945562000211794,True,36,0
156K28S1,742,experiment,78,↑,up,↑,0.569334700005129,True,36,1
156K28S1,743,experiment,63,↑,up,↑,0.7342722000030335,True,36,1
156K28S1,744,experiment,93,↓,down,↓,0.626773800002411,True,36,1
156K28S1,745,experiment,49,↑,up,↑,0.5136840000050142,True,36,1
156K28S1,746,experiment,58,←,down,↓,0.5943760999944061,False,36,1
156K28S1,747,experiment,54,→,right,→,0.6256572999991477,True,36,1
156K28S1,748,experiment,103,↓,down,↓,1.6388030999805778,True,36,1
156K28S1,749,experiment,102,↓,down,↓,1.2599501000076998,True,36,1
156K28S1,750,experiment,81,↑,up,↑,0.5994619999837596,True,36,1
156K28S1,751,experiment,48,→,right,→,0.5042492999928072,True,36,1
156K28S1,752,experiment,99,→,right,→,0.40895360001013614,True,36,1
156K28S1,753,experiment,94,↓,down,↓,0.5086367999901995,True,36,0
156K28S1,754,experiment,84,←,left,←,0.4766632000100799,True,36,1
156K28S1,755,experiment,51,→,right,→,0.3842164999805391,True,36,1
156K28S1,756,experiment,108,↓,left,←,0.44211340000038035,False,36,1
156K28S1,757,experiment,73,←,left,←,0.6682605000096373,True,36,0
156K28S1,758,experiment,106,↓,down,↓,0.6150310999946669,True,36,1
156K28S1,759,experiment,59,→,right,→,0.5313441999896895,True,36,1
156K28S1,760,experiment,80,↓,right,→,0.7477310999820475,False,36,1
156K28S1,761,experiment,107,←,left,←,0.7229644999897573,True,36,1
156K28S1,762,experiment,57,↑,up,↑,0.6996860999788623,True,36,1
156K28S1,763,experiment,55,↓,down,↓,0.630079399998067,True,36,1
156K28S1,764,experiment,97,↓,down,↓,0.604774700012058,True,36,1
156K28S1,765,experiment,105,→,right,→,0.4900982999824919,True,36,1
156K28S1,766,experiment,60,←,left,←,0.5389486999774817,True,36,1
156K28S1,767,experiment,71,↑,up,↑,0.4342119000211824,True,36,1
156K28S1,768,experiment,96,↑,up,↑,0.5172392000094987,True,36,0
156K28S1,769,experiment,88,↑,up,↑,0.5479062999947928,True,36,1
156K28S1,770,experiment,104,↓,down,↓,0.4999183999898378,True,36,1
156K28S1,771,experiment,66,↓,down,↓,0.41748100001132116,True,36,1
156K28S1,772,experiment,91,↓,down,↓,0.5156420999846887,True,36,0
156K28S1,773,experiment,69,←,left,←,0.5605697999999393,True,36,1
156K28S1,774,experiment,62,↓,down,↓,0.6062299000041094,True,36,1
156K28S1,775,experiment,82,↓,down,↓,0.5390838999883272,True,36,1
156K28S1,776,experiment,70,→,right,→,0.6792077000136487,True,36,1
156K28S1,777,experiment,87,←,left,←,0.6069870000064839,True,36,1
156K28S1,778,experiment,64,→,down,↓,1.6026350999891292,False,36,1
156K28S1,779,experiment,79,←,left,←,0.528987199999392,True,36,1
156K28S1,780,experiment,65,↑,up,↑,0.5664934999949764,True,36,1
156K28S1,781,experiment,85,↓,down,↓,0.45044299997971393,True,36,1
156K28S1,782,experiment,77,↑,up,↑,0.48121399999945424,True,36,0
156K28S1,783,experiment,90,←,left,←,0.5523194999841508,True,36,1
156K28S1,784,experiment,83,←,left,←,0.4866867000237107,True,36,1
156K28S1,785,experiment,68,→,left,←,0.7569143000000622,False,36,1
156K28S1,786,experiment,101,↑,up,↑,0.4253910999977961,True,36,1
156K28S1,787,experiment,61,←,left,←,0.5765053000068292,True,36,0
156K28S1,788,experiment,52,↑,up,↑,0.4420096999965608,True,36,1
156K28S1,789,experiment,100,←,left,←,0.47046149999368936,True,36,0
156K28S1,790,experiment,74,←,left,←,0.4419614000071306,True,36,0
156K28S1,791,experiment,76,←,left,←,0.7280476999876555,True,36,0
156K28S1,792,experiment,56,→,right,→,0.4097559000074398,True,36,1
156K28S1,793,experiment,50,→,right,→,0.6481085999985225,True,36,0
156K28S1,794,experiment,72,←,left,←,0.4948687999858521,True,36,1
156K28S1,795,experiment,67,↓,down,↓,0.8206900999939535,True,36,1
156K28S1,796,experiment,86,↑,up,↑,0.5199041999876499,True,36,1
156K28S1,797,training,53,←,left,←,0.5030688999977428,True,35,0
156K28S1,798,training,105,↓,down,↓,0.6726498999923933,True,35,1
156K28S1,799,experiment,81,↑,down,↓,0.7310174999875017,False,35,1
156K28S1,800,experiment,102,↓,down,↓,0.5804316000139806,True,35,1
156K28S1,801,experiment,98,↑,up,↑,0.733146000013221,True,35,1
156K28S1,802,experiment,69,←,left,←,0.8974549999984447,True,35,1
156K28S1,803,experiment,61,→,left,←,1.1137086999951862,False,35,1
156K28S1,804,experiment,51,↑,up,↑,0.7408273000037298,True,35,1
156K28S1,805,experiment,73,→,right,→,0.6557316000107676,True,35,1
156K28S1,806,experiment,106,→,right,→,0.6107354999985546,True,35,1
156K28S1,807,experiment,55,↓,down,↓,0.7044300000125077,True,35,1
156K28S1,808,experiment,59,→,left,←,0.6892709000094328,False,35,1
156K28S1,809,experiment,79,↑,down,↓,0.7636293999967165,False,35,1
156K28S1,810,experiment,78,↓,down,↓,0.6436628999945242,True,35,1
156K28S1,811,experiment,58,↓,down,↓,0.7515298000071198,True,35,1
156K28S1,812,experiment,105,↑,up,↑,0.5910148000111803,True,35,1
156K28S1,813,experiment,57,↑,up,↑,0.5733806999924127,True,35,1
156K28S1,814,experiment,95,↑,up,↑,0.5989223000069614,True,35,1
156K28S1,815,experiment,63,←,left,←,0.6665268999931868,True,35,1
156K28S1,816,experiment,103,↓,down,↓,0.7424883999919984,True,35,1
156K28S1,817,experiment,75,→,right,→,0.5044177999952808,True,35,1
156K28S1,818,experiment,53,↑,up,↑,0.6747768000059295,True,35,1
156K28S1,819,experiment,83,↓,down,↓,0.4255379000096582,True,35,1
156K28S1,820,experiment,87,↑,up,↑,0.6792098000005353,True,35,0
156K28S1,821,experiment,65,→,right,→,0.766810400004033,True,35,1
156K28S1,822,experiment,93,→,right,→,0.6816920999845024,True,35,1
156K28S1,823,experiment,90,←,left,←,0.49704890002612956,True,35,1
156K28S1,824,experiment,68,↓,down,↓,0.7908487000095192,True,35,1
156K28S1,825,experiment,101,↑,up,↑,0.614505100005772,True,35,1
156K28S1,826,experiment,97,↓,down,↓,0.5740574999945238,True,35,1
156K28S1,827,experiment,80,↑,up,↑,0.6131927999958862,True,35,1
156K28S1,828,experiment,100,←,left,←,0.468286800023634,True,35,1
156K28S1,829,experiment,67,→,right,→,0.6591130000015255,True,35,1
156K28S1,830,experiment,54,↑,up,↑,0.4954120999900624,True,35,1
156K28S1,831,experiment,94,↓,down,↓,0.8204052999790292,True,35,1
156K28S1,832,experiment,64,→,right,→,0.486964599986095,True,35,1
156K28S1,833,experiment,108,↑,up,↑,0.6636598999903072,True,35,1
156K28S1,834,experiment,48,←,left,←,0.6136173999984749,True,35,1
156K28S1,835,experiment,70,→,up,↑,0.8144637999939732,False,35,1
156K28S1,836,experiment,104,↑,up,↑,0.5316602000093553,True,35,1
156K28S1,837,experiment,107,←,left,←,0.6913755999994464,True,35,1
156K28S1,838,experiment,99,←,left,←,0.5675480000209063,True,35,1
156K28S1,839,experiment,77,↓,down,↓,0.7037311999883968,True,35,1
156K28S1,840,experiment,52,←,left,←,0.9788894999946933,True,35,1
156K28S1,841,experiment,49,↑,right,→,0.6915828000055626,False,35,1
156K28S1,842,experiment,82,←,right,→,0.5176038999925368,False,35,1
156K28S1,843,experiment,56,→,down,↓,0.9824265999777708,False,35,1
156K28S1,844,experiment,76,↑,up,↑,0.5105964000103995,True,35,1
156K28S1,845,experiment,60,←,left,←,0.5749084000126459,True,35,1
156K28S1,846,experiment,91,→,right,→,0.7223610999935772,True,35,1
156K28S1,847,experiment,88,↓,up,↑,0.8003768000053242,False,35,1
156K28S1,848,experiment,89,→,right,→,0.5161704000202008,True,35,1
156K28S1,849,experiment,74,↑,left,←,0.463627599994652,False,35,1
156K28S1,850,experiment,50,↑,up,↑,0.4999616999994032,True,35,0
156K28S1,851,experiment,86,→,right,→,0.4254837000044063,True,35,1
156K28S1,852,experiment,84,→,left,←,0.3423423000203911,False,35,0
156K28S1,853,experiment,72,↑,up,↑,0.5777234999986831,True,35,0
156K28S1,854,experiment,71,↓,down,↓,0.6598127000033855,True,35,1
156K28S1,855,experiment,92,←,left,←,0.579280399979325,True,35,1
156K28S1,856,experiment,66,↑,up,↑,0.5025421000027563,True,35,1
156K28S1,857,experiment,85,↑,up,↑,0.49472870002500713,True,35,1
156K28S1,858,experiment,62,↓,up,↑,0.6469651000224985,False,35,1
156K28S1,859,experiment,96,←,left,←,0.5658861999982037,True,35,1
156K28S1,860,training,87,↑,down,↓,0.625550500000827,False,35,0
156K28S1,861,training,103,↓,down,↓,0.574966400017729,True,35,1
156K28S1,862,experiment,54,↑,down,↓,0.6625876999751199,False,35,1
156K28S1,863,experiment,73,←,left,←,0.6521401000209153,True,35,1
156K28S1,864,experiment,82,→,left,←,0.4639927000098396,False,35,1
156K28S1,865,experiment,63,←,left,←,0.5762849999882746,True,35,1
156K28S1,866,experiment,71,↓,down,↓,0.7063206999737304,True,35,1
156K28S1,867,experiment,61,←,left,←,0.6744737999979407,True,35,1
156K28S1,868,experiment,50,↓,down,↓,0.575373400002718,True,35,1
156K28S1,869,experiment,97,↓,down,↓,0.5444497000135016,True,35,1
156K28S1,870,experiment,57,←,left,←,0.5366033999889623,True,35,1
156K28S1,871,experiment,67,↓,down,↓,0.6052913000166882,True,35,1
156K28S1,872,experiment,70,↑,down,↓,0.4337244000053033,False,35,1
156K28S1,873,experiment,58,←,left,←,0.5936065000132658,True,35,0
156K28S1,874,experiment,49,←,left,←,0.6182059999846388,True,35,1
156K28S1,875,experiment,80,↑,up,↑,0.5037190000002738,True,35,1
156K28S1,876,experiment,103,←,right,→,0.6418973999971058,False,35,1
156K28S1,877,experiment,94,←,up,↑,0.82532689999789,False,35,1
156K28S1,878,experiment,108,↑,up,↑,0.7809933999960776,True,35,1
156K28S1,879,experiment,90,←,left,←,0.4422344999911729,True,35,1
156K28S1,880,experiment,86,←,left,←,1.4262692000193056,True,35,0
156K28S1,881,experiment,64,←,left,←,0.5648242000024766,True,35,1
156K28S1,882,experiment,102,↓,down,↓,0.7568666000152007,True,35,1
156K28S1,883,experiment,66,↑,up,↑,0.6574843999987934,True,35,1
156K28S1,884,experiment,91,↓,down,↓,0.6413774999964517,True,35,1
156K28S1,885,experiment,92,→,right,→,0.7375843999907374,True,35,1
156K28S1,886,experiment,69,↑,up,↑,0.6535909999802243,True,35,1
156K28S1,887,experiment,59,↓,down,↓,0.7200406999909319,True,35,1
156K28S1,888,experiment,98,←,left,←,0.6111170999938622,True,35,1
156K28S1,889,experiment,83,↓,down,↓,0.6801048000052106,True,35,1
156K28S1,890,experiment,79,→,right,→,0.6668019000208005,True,35,1
156K28S1,891,experiment,77,←,left,←,0.7753049999882933,True,35,1
156K28S1,892,experiment,78,→,right,→,0.5347557999775745,True,35,1
156K28S1,893,experiment,55,→,right,→,0.6398448999971151,True,35,1
156K28S1,894,experiment,89,↓,right,→,0.7129884000169113,False,35,1
156K28S1,895,experiment,62,←,left,←,0.48046660001273267,True,35,1
156K28S1,896,experiment,93,↓,down,↓,0.6145533000235446,True,35,1
156K28S1,897,experiment,48,←,right,→,0.5986335999914445,False,35,1
156K28S1,898,experiment,84,→,right,→,0.6034416999900714,True,35,1
156K28S1,899,experiment,105,↓,down,↓,0.8171157999895513,True,35,1
156K28S1,900,experiment,52,↓,down,↓,0.711320300004445,True,35,1
156K28S1,901,experiment,56,←,left,←,0.537017199996626,True,35,1
156K28S1,902,experiment,96,←,left,←,0.6523189000145067,True,35,1
156K28S1,903,experiment,88,→,right,→,0.549584499996854,True,35,1
156K28S1,904,experiment,107,↑,down,↓,0.6847173999994993,False,35,1
156K28S1,905,experiment,51,→,right,→,1.3288905000081286,True,35,1
156K28S1,906,experiment,95,←,left,←,1.0848669999977574,True,35,1
156K28S1,907,experiment,99,↓,down,↓,0.6653514000063296,True,35,1
156K28S1,908,experiment,104,←,left,←,0.5008297999738716,True,35,1
156K28S1,909,experiment,81,↓,down,↓,0.5266887999896426,True,35,1
156K28S1,910,experiment,72,↓,down,↓,0.5620877000037581,True,35,1
156K28S1,911,experiment,87,↓,down,↓,0.47942439999314956,True,35,1
156K28S1,912,experiment,75,↑,up,↑,0.6595241000177339,True,35,1
156K28S1,913,experiment,65,↑,up,↑,0.7320797999855131,True,35,1
156K28S1,914,experiment,68,→,right,→,0.5527795999951195,True,35,1
156K28S1,915,experiment,106,↓,down,↓,0.6803533000056632,True,35,1
156K28S1,916,experiment,100,↑,up,↑,0.8041246999928262,True,35,1
156K28S1,917,experiment,60,↓,down,↓,0.6485860999964643,True,35,1
156K28S1,918,experiment,101,↑,up,↑,0.5736570000008214,True,35,1
156K28S1,919,experiment,85,→,right,→,0.53066379998927,True,35,1
156K28S1,920,experiment,76,→,right,→,0.4768247999891173,True,35,1
156K28S1,921,experiment,74,↑,up,↑,0.6012226000020746,True,35,1
156K28S1,922,experiment,53,↓,down,↓,0.5120813999965321,True,35,1
156K28S1,923,training,107,←,left,←,0.5314990000042599,True,35,0
156K28S1,924,training,54,←,left,←,0.43354580001323484,True,35,1
156K28S1,925,experiment,87,←,left,←,0.5666744000045583,True,35,0
156K28S1,926,experiment,94,←,left,←,0.5053709999774583,True,35,1
156K28S1,927,experiment,108,→,left,←,0.48976569998194464,False,35,1
156K28S1,928,experiment,82,↑,up,↑,0.7074327000009362,True,35,1
156K28S1,929,experiment,107,↑,up,↑,0.6523080000188202,True,35,1
156K28S1,930,experiment,86,←,left,←,0.5739892999990843,True,35,1
156K28S1,931,experiment,83,→,left,←,0.6199965999985579,False,35,1
156K28S1,932,experiment,93,→,right,→,0.5329810999974143,True,35,1
156K28S1,933,experiment,50,↓,down,↓,0.7355049000179861,True,35,1
156K28S1,934,experiment,51,→,right,→,0.6496703999873716,True,35,1
156K28S1,935,experiment,70,←,left,←,0.6573897000052966,True,35,1
156K28S1,936,experiment,92,→,right,→,0.74479739999515,True,35,1
156K28S1,937,experiment,89,↑,up,↑,0.6463618999987375,True,35,1
156K28S1,938,experiment,53,←,left,←,0.6590706999995746,True,35,1
156K28S1,939,experiment,63,↑,up,↑,0.5172726000018883,True,35,1
156K28S1,940,experiment,81,↓,down,↓,0.4775560999987647,True,35,1
156K28S1,941,experiment,106,↑,up,↑,0.6314566000073683,True,35,1
156K28S1,942,experiment,101,←,left,←,0.5408525000093505,True,35,1
156K28S1,943,experiment,62,↓,down,↓,0.7151590999856126,True,35,1
156K28S1,944,experiment,103,←,left,←,0.6529104000073858,True,35,1
156K28S1,945,experiment,84,→,right,→,0.5035051000013482,True,35,1
156K28S1,946,experiment,54,→,right,→,0.48997210001107305,True,35,1
156K28S1,947,experiment,69,↑,up,↑,0.5596390999853611,True,35,1
156K28S1,948,experiment,77,↓,down,↓,0.5288189999992028,True,35,1
156K28S1,949,experiment,80,↑,up,↑,0.617298800003482,True,35,1
156K28S1,950,experiment,55,↓,down,↓,0.48699750000378117,True,35,1
156K28S1,951,experiment,75,↓,down,↓,0.6991199000040069,True,35,1
156K28S1,952,experiment,104,→,right,→,0.677158500009682,True,35,1
156K28S1,953,experiment,56,←,left,←,0.5679431000025943,True,35,1
156K28S1,954,experiment,72,↓,down,↓,0.6178568000032101,True,35,1
156K28S1,955,experiment,90,←,left,←,0.6282464000105392,True,35,1
156K28S1,956,experiment,98,→,right,→,0.5789693999977317,True,35,1
156K28S1,957,experiment,97,→,down,↓,1.0682171000225935,False,35,1
156K28S1,958,experiment,102,↓,down,↓,0.5523883000132628,True,35,1
156K28S1,959,experiment,85,←,left,←,0.6066620000055991,True,35,1
156K28S1,960,experiment,57,→,right,→,0.6040124999999534,True,35,1
156K28S1,961,experiment,61,←,left,←,1.3923538000090048,True,35,1
156K28S1,962,experiment,59,↑,right,→,0.8137124000058975,False,35,1
156K28S1,963,experiment,52,←,left,←,0.539964499999769,True,35,1
156K28S1,964,experiment,74,←,left,←,1.0382181000022683,True,35,1
156K28S1,965,experiment,88,↑,up,↑,0.512323800008744,True,35,1
156K28S1,966,experiment,105,→,right,→,0.6172627999912947,True,35,1
156K28S1,967,experiment,65,↓,down,↓,0.4915640999970492,True,35,1
156K28S1,968,experiment,71,↑,up,↑,0.4007102999894414,True,35,1
156K28S1,969,experiment,95,↑,up,↑,0.4974699999729637,True,35,0
156K28S1,970,experiment,99,→,right,→,0.7089217000175267,True,35,1
156K28S1,971,experiment,73,↑,up,↑,0.4342968999990262,True,35,1
156K28S1,972,experiment,96,→,right,→,0.5597777999937534,True,35,0
156K28S1,973,experiment,49,↓,down,↓,0.6335666000086349,True,35,1
156K28S1,974,experiment,60,→,right,→,0.7488750999909826,True,35,1
156K28S1,975,experiment,91,↑,up,↑,0.5292158999945968,True,35,1
156K28S1,976,experiment,64,←,down,↓,0.8637007999932393,False,35,1
156K28S1,977,experiment,48,↑,up,↑,0.5093166999868117,True,35,1
156K28S1,978,experiment,67,↑,up,↑,0.690969799994491,True,35,1
156K28S1,979,experiment,66,→,right,→,0.5381927999842446,True,35,1
156K28S1,980,experiment,78,↓,down,↓,0.5549074999871664,True,35,1
156K28S1,981,experiment,79,←,left,←,0.57110850000754,True,35,1
156K28S1,982,experiment,76,→,right,→,0.5633675999997649,True,35,1
156K28S1,983,experiment,58,↓,down,↓,1.2260554999811575,True,35,1
156K28S1,984,experiment,100,↓,down,↓,0.5925106999929994,True,35,1
156K28S1,985,experiment,68,↓,down,↓,0.6267195000255015,True,35,1
156K28S1,986,training,103,↓,down,↓,0.6001873999775853,True,34,0
156K28S1,987,training,58,→,right,→,0.4162775999866426,True,34,1
156K28S1,988,experiment,107,←,left,←,0.6652939000050537,True,34,0
156K28S1,989,experiment,76,→,right,→,1.2539684000075795,True,34,1
156K28S1,990,experiment,108,←,no_key,no_letter,-1.0,False,34,1
156K28S1,991,experiment,54,↓,down,↓,0.5215105000243057,True,34,1
156K28S1,992,experiment,97,↑,up,↑,0.6847758999792859,True,34,1
156K28S1,993,experiment,62,←,left,←,0.581665100005921,True,34,1
156K28S1,994,experiment,87,↓,down,↓,0.5621032000053674,True,34,1
156K28S1,995,experiment,84,→,right,→,0.5039874000067357,True,34,1
156K28S1,996,experiment,98,↑,up,↑,0.6117156000109389,True,34,1
156K28S1,997,experiment,106,↓,down,↓,0.6336603999952786,True,34,1
156K28S1,998,experiment,68,↑,up,↑,0.7053781000140589,True,34,1
156K28S1,999,experiment,93,→,right,→,0.5507133000064641,True,34,1
156K28S1,1000,experiment,66,→,left,←,0.6518352999992203,False,34,1
156K28S1,1001,experiment,69,↑,down,↓,0.7472272999875713,False,34,1
156K28S1,1002,experiment,65,↑,up,↑,0.6878781999985222,True,34,1
156K28S1,1003,experiment,74,←,left,←,0.6521718000003602,True,34,1
156K28S1,1004,experiment,77,↑,up,↑,0.9050663999805693,True,34,1
156K28S1,1005,experiment,105,←,left,←,0.5385939999832772,True,34,1
156K28S1,1006,experiment,91,→,right,→,0.6233265000046231,True,34,1
156K28S1,1007,experiment,67,→,right,→,0.6004951000213623,True,34,1
156K28S1,1008,experiment,96,←,left,←,0.6732176000077743,True,34,1
156K28S1,1009,experiment,83,↓,down,↓,0.5232371000165585,True,34,1
156K28S1,1010,experiment,102,↓,down,↓,0.588835200003814,True,34,1
156K28S1,1011,experiment,63,→,right,→,0.5767402999917977,True,34,1
156K28S1,1012,experiment,55,↑,up,↑,0.680208700010553,True,34,1
156K28S1,1013,experiment,95,→,left,←,0.7099039999884553,False,34,1
156K28S1,1014,experiment,80,↓,down,↓,0.4953817999921739,True,34,1
156K28S1,1015,experiment,51,↑,up,↑,0.5870998000027612,True,34,1
156K28S1,1016,experiment,104,→,down,↓,1.0251385000010487,False,34,1
156K28S1,1017,experiment,82,↑,up,↑,0.5739936000027228,True,34,1
156K28S1,1018,experiment,58,→,right,→,0.5399957000045106,True,34,1
156K28S1,1019,experiment,103,↑,up,↑,0.5008176999981515,True,34,1
156K28S1,1020,experiment,60,←,left,←,0.4616109000053257,True,34,1
156K28S1,1021,experiment,75,↓,down,↓,0.3839692000183277,True,34,1
156K28S1,1022,experiment,53,→,left,←,0.6891405000060331,False,34,1
156K28S1,1023,experiment,92,↓,down,↓,0.6075186999805737,True,34,1
156K28S1,1024,experiment,90,↓,down,↓,0.5938245999859646,True,34,1
156K28S1,1025,experiment,94,←,left,←,0.5318453999934718,True,34,1
156K28S1,1026,experiment,89,↓,down,↓,1.1371684999903664,True,34,1
156K28S1,1027,experiment,72,←,left,←,1.0202983999915887,True,34,1
156K28S1,1028,experiment,73,↑,up,↑,0.5879659999918658,True,34,1
156K28S1,1029,experiment,85,↑,up,↑,0.5606707000115421,True,34,1
156K28S1,1030,experiment,71,↑,down,↓,0.635327199997846,False,34,1
156K28S1,1031,experiment,79,←,left,←,0.5204465000133496,True,34,1
156K28S1,1032,experiment,50,↑,up,↑,0.5711095999868121,True,34,1
156K28S1,1033,experiment,57,←,left,←,0.41711740000755526,True,34,1
156K28S1,1034,experiment,86,←,left,←,0.6127159000025131,True,34,0
156K28S1,1035,experiment,52,↓,down,↓,0.5556951999897137,True,34,1
156K28S1,1036,experiment,100,→,right,→,0.6362048999872059,True,34,1
156K28S1,1037,experiment,70,←,left,←,0.4341228000121191,True,34,1
156K28S1,1038,experiment,88,←,right,→,0.749702500004787,False,34,0
156K28S1,1039,experiment,59,↑,up,↑,0.572638800018467,True,34,1
156K28S1,1040,experiment,99,←,right,→,0.6455847000179347,False,34,1
156K28S1,1041,experiment,78,←,left,←,0.7381720999837853,True,34,1
156K28S1,1042,experiment,61,←,right,→,0.8010476999916136,False,34,1
156K28S1,1043,experiment,49,↓,down,↓,0.6491441999969538,True,34,1
156K28S1,1044,experiment,56,↓,right,→,0.46163309999974445,False,34,1
156K28S1,1045,experiment,64,←,left,←,0.6136587999935728,True,34,1
156K28S1,1046,experiment,48,↓,down,↓,0.5174695999885444,True,34,1
156K28S1,1047,experiment,81,↑,up,↑,0.8709314999869093,True,34,1
156K28S1,1048,experiment,101,←,left,←,0.7785732000193093,True,34,1
156K28S1,1049,training,73,→,right,→,0.6968453000008594,True,34,0
156K28S1,1050,training,105,←,left,←,0.6425746000022627,True,34,1
156K28S1,1051,experiment,82,↓,down,↓,0.6221850999863818,True,34,1
156K28S1,1052,experiment,73,→,right,→,0.5895154000027105,True,34,1
156K28S1,1053,experiment,60,↓,down,↓,0.578396899974905,True,34,1
156K28S1,1054,experiment,74,→,right,→,0.5957255000248551,True,34,1
156K28S1,1055,experiment,78,↓,down,↓,0.5219916999922134,True,34,1
156K28S1,1056,experiment,99,→,right,→,0.5646832000056747,True,34,1
156K28S1,1057,experiment,101,←,left,←,0.5651172999932896,True,34,1
156K28S1,1058,experiment,53,↑,up,↑,0.5974816000089049,True,34,1
156K28S1,1059,experiment,77,←,left,←,0.6280683999939356,True,34,1
156K28S1,1060,experiment,79,↓,down,↓,0.5613467000075616,True,34,1
156K28S1,1061,experiment,83,→,right,→,0.6080065999994986,True,34,1
156K28S1,1062,experiment,91,←,left,←,0.5459749999863561,True,34,1
156K28S1,1063,experiment,106,↓,down,↓,0.5137118000129703,True,34,1
156K28S1,1064,experiment,75,↓,down,↓,0.5164962999988347,True,34,1
156K28S1,1065,experiment,70,↓,down,↓,0.5132733000209555,True,34,1
156K28S1,1066,experiment,95,←,left,←,0.46185649998369627,True,34,1
156K28S1,1067,experiment,66,↓,down,↓,0.4693441000126768,True,34,1
156K28S1,1068,experiment,55,→,right,→,0.5122695000027306,True,34,1
156K28S1,1069,experiment,61,→,left,←,0.7441513999947347,False,34,1
156K28S1,1070,experiment,71,↓,down,↓,1.2514680000022054,True,34,1
156K28S1,1071,experiment,92,→,right,→,0.8516432999749668,True,34,1
156K28S1,1072,experiment,58,→,right,→,0.5989984000043478,True,34,1
156K28S1,1073,experiment,105,←,left,←,0.6286488999903668,True,34,1
156K28S1,1074,experiment,59,←,right,→,1.5046560000046156,False,34,1
156K28S1,1075,experiment,48,→,right,→,0.6052830999833532,True,34,1
156K28S1,1076,experiment,102,→,left,←,0.7157950999971945,False,34,1
156K28S1,1077,experiment,96,↓,right,→,0.7674958000134211,False,34,1
156K28S1,1078,experiment,54,↓,down,↓,0.6955196000053547,True,34,1
156K28S1,1079,experiment,76,→,right,→,0.47488110000267625,True,34,1
156K28S1,1080,experiment,104,←,left,←,0.5017650999943726,True,34,1
156K28S1,1081,experiment,81,↓,down,↓,0.455414700001711,True,34,1
156K28S1,1082,experiment,103,→,right,→,0.4913439000083599,True,34,0
156K28S1,1083,experiment,51,↑,up,↑,0.5835048999870196,True,34,1
156K28S1,1084,experiment,108,↓,down,↓,0.41721030001644976,True,34,1
156K28S1,1085,experiment,64,↓,down,↓,0.6150903000088874,True,34,0
156K28S1,1086,experiment,93,→,right,→,0.43375249998643994,True,34,1
156K28S1,1087,experiment,72,←,left,←,0.39971159998094663,True,34,0
156K28S1,1088,experiment,100,↑,up,↑,0.5414607999846339,True,34,0
156K28S1,1089,experiment,52,↑,up,↑,0.5831530999857932,True,34,1
156K28S1,1090,experiment,50,↓,down,↓,0.5839599999890197,True,34,1
156K28S1,1091,experiment,89,→,right,→,0.659737000009045,True,34,1
156K28S1,1092,experiment,62,↑,down,↓,0.4698305999918375,False,34,1
156K28S1,1093,experiment,69,↑,up,↑,0.4528418999980204,True,34,1
156K28S1,1094,experiment,65,→,right,→,0.5404821000120137,True,34,1
156K28S1,1095,experiment,57,↑,up,↑,0.5087323999905493,True,34,1
156K28S1,1096,experiment,87,→,left,←,0.4515110999927856,False,34,1
156K28S1,1097,experiment,68,↑,up,↑,0.45951939999940805,True,34,0
156K28S1,1098,experiment,49,↓,down,↓,0.4886321000230964,True,34,1
156K28S1,1099,experiment,88,←,left,←,0.3758320000197273,True,34,1
156K28S1,1100,experiment,80,↓,down,↓,0.727072900015628,True,34,0
156K28S1,1101,experiment,90,→,right,→,0.6523355000244919,True,34,1
156K28S1,1102,experiment,63,↑,up,↑,0.6223804000183009,True,34,1
156K28S1,1103,experiment,98,↓,down,↓,0.5414254000061192,True,34,1
156K28S1,1104,experiment,107,↓,down,↓,0.5243637999810744,True,34,1
156K28S1,1105,experiment,86,→,right,→,0.48357720000785775,True,34,1
156K28S1,1106,experiment,94,→,right,→,0.497295800014399,True,34,1
156K28S1,1107,experiment,67,↓,down,↓,0.7755252000060864,True,34,1
156K28S1,1108,experiment,85,→,right,→,0.42551169998478144,True,34,1
156K28S1,1109,experiment,56,↑,up,↑,1.257376800000202,True,34,1
156K28S1,1110,experiment,84,←,right,→,0.5159312000032514,False,34,1
156K28S1,1111,experiment,97,↑,up,↑,0.9755732999765314,True,34,1
156K28S1,1112,training,106,↓,down,↓,0.72304380001151,True,34,0
156K28S1,1113,training,66,←,left,←,0.5284729000122752,True,34,1
156K28S1,1114,experiment,91,←,left,←,0.6455413999792654,True,34,1
156K28S1,1115,experiment,62,↑,up,↑,0.4794783999968786,True,34,1
156K28S1,1116,experiment,103,↓,down,↓,0.5625462000025436,True,34,1
156K28S1,1117,experiment,84,←,left,←,0.6004934000084177,True,34,1
156K28S1,1118,experiment,77,→,right,→,0.43346120000933297,True,34,1
156K28S1,1119,experiment,93,↑,down,↓,0.5197352999821305,False,34,0
156K28S1,1120,experiment,80,↑,up,↑,0.4646937999932561,True,34,1
156K28S1,1121,experiment,49,←,left,←,0.46247650001896545,True,34,1
156K28S1,1122,experiment,98,←,left,←,0.4335535000136588,True,34,1
156K28S1,1123,experiment,83,↑,left,←,0.4079238999984227,False,34,0
156K28S1,1124,experiment,104,↑,up,↑,0.5719780999934301,True,34,0
156K28S1,1125,experiment,108,→,right,→,0.5860030000039842,True,34,1
156K28S1,1126,experiment,101,↑,up,↑,0.4735774000000674,True,34,1
156K28S1,1127,experiment,74,↑,right,→,0.6549623999744654,False,34,1
156K28S1,1128,experiment,50,→,right,→,0.5878596999973524,True,34,1
156K28S1,1129,experiment,58,↑,right,→,0.8735034000128508,False,34,1
156K28S1,1130,experiment,64,↓,down,↓,0.553730000014184,True,34,1
156K28S1,1131,experiment,100,↑,up,↑,0.5467347000085283,True,34,1
156K28S1,1132,experiment,105,←,up,↑,0.9947469999897294,False,34,1
156K28S1,1133,experiment,106,↑,up,↑,0.5364799999806564,True,34,1
156K28S1,1134,experiment,90,↓,down,↓,0.485479299997678,True,34,1
156K28S1,1135,experiment,82,↑,up,↑,0.6719452999823261,True,34,1
156K28S1,1136,experiment,52,→,left,←,0.4837829000025522,False,34,1
156K28S1,1137,experiment,71,↓,down,↓,0.4330573000188451,True,34,1
156K28S1,1138,experiment,68,↓,down,↓,0.40051750000566244,True,34,0
156K28S1,1139,experiment,85,→,left,←,0.5254239000205416,False,34,0
156K28S1,1140,experiment,69,→,left,←,0.48215779999736696,False,34,1
156K28S1,1141,experiment,70,↓,down,↓,0.4799514999904204,True,34,1
156K28S1,1142,experiment,63,→,right,→,0.4086413999903016,True,34,1
156K28S1,1143,experiment,95,↑,up,↑,0.4566190000041388,True,34,0
156K28S1,1144,experiment,78,←,left,←,0.45273180000367574,True,34,1
156K28S1,1145,experiment,60,→,no_key,no_letter,-1.0,False,34,0
156K28S1,1146,experiment,67,↓,left,←,0.7636238999839406,False,34,1
156K28S1,1147,experiment,66,↑,up,↑,0.45619129997794516,True,34,1
156K28S1,1148,experiment,54,→,right,→,0.49133280001115054,True,34,1
156K28S1,1149,experiment,94,↓,down,↓,0.4574996999872383,True,34,1
156K28S1,1150,experiment,96,←,down,↓,0.7272578999982215,False,34,1
156K28S1,1151,experiment,79,↓,down,↓,0.48836609997670166,True,34,1
156K28S1,1152,experiment,99,←,down,↓,0.7642525999981444,False,34,1
156K28S1,1153,experiment,51,←,down,↓,0.9415732999914326,False,34,1
156K28S1,1154,experiment,75,↓,down,↓,0.6955801000003703,True,34,1
156K28S1,1155,experiment,55,←,down,↓,0.849751700006891,False,34,1
156K28S1,1156,experiment,102,←,left,←,1.230319900001632,True,34,1
156K28S1,1157,experiment,89,↑,down,↓,0.7121904999949038,False,34,1
156K28S1,1158,experiment,72,↓,down,↓,0.508396699995501,True,34,1
156K28S1,1159,experiment,107,→,right,→,1.4528186000243295,True,34,1
156K28S1,1160,experiment,57,→,left,←,0.7446723000030033,False,34,1
156K28S1,1161,experiment,53,→,right,→,0.6899431999772787,True,34,1
156K28S1,1162,experiment,87,↓,down,↓,1.0181929000245873,True,34,1
156K28S1,1163,experiment,59,→,right,→,0.7343996999843512,True,34,1
156K28S1,1164,experiment,48,→,right,→,0.37553679998381995,True,34,1
156K28S1,1165,experiment,86,→,left,←,0.9021162000135519,False,34,0
156K28S1,1166,experiment,97,↓,down,↓,0.595049099996686,True,34,1
156K28S1,1167,experiment,56,↓,down,↓,0.6408929000026546,True,34,1
156K28S1,1168,experiment,73,→,right,→,0.7595611000142526,True,34,1
156K28S1,1169,experiment,81,↓,down,↓,0.6388135000015609,True,34,1
156K28S1,1170,experiment,61,→,down,↓,0.4578414999996312,False,34,1
156K28S1,1171,experiment,65,→,right,→,0.6183707999880426,True,34,1
156K28S1,1172,experiment,88,←,left,←,0.46142770000733435,True,34,1
156K28S1,1173,experiment,92,→,right,→,0.3921889000048395,True,34,1
156K28S1,1174,experiment,76,↑,up,↑,0.8911323999927845,True,34,1
156K28S1,1175,training,82,↓,down,↓,0.49606890001450665,True,34,0
156K28S1,1176,training,60,↓,down,↓,0.5209851999825332,True,34,1
156K28S1,1177,experiment,69,←,left,←,0.6613927000144031,True,34,1
156K28S1,1178,experiment,91,↑,up,↑,0.6054598999908194,True,34,1
156K28S1,1179,experiment,77,↓,down,↓,0.6041086000041105,True,34,1
156K28S1,1180,experiment,65,↓,down,↓,0.6152107999951113,True,34,1
156K28S1,1181,experiment,100,→,right,→,0.701749200001359,True,34,1
156K28S1,1182,experiment,58,↓,down,↓,0.550978400016902,True,34,1
156K28S1,1183,experiment,88,→,right,→,0.7563115000084508,True,34,1
156K28S1,1184,experiment,106,←,left,←,0.6353994999954011,True,34,1
156K28S1,1185,experiment,108,↓,down,↓,0.5266289999999572,True,34,1
156K28S1,1186,experiment,79,←,left,←,1.1922840000188444,True,34,1
156K28S1,1187,experiment,104,→,right,→,0.6068199000146706,True,34,1
156K28S1,1188,experiment,82,←,right,→,0.7156195999996271,False,34,1
156K28S1,1189,experiment,72,←,left,←,0.51956510002492,True,34,1
156K28S1,1190,experiment,105,↓,down,↓,0.5605618999979924,True,34,1
156K28S1,1191,experiment,64,↓,down,↓,0.6299042000027839,True,34,1
156K28S1,1192,experiment,48,→,left,←,0.9649210999778006,False,34,1
156K28S1,1193,experiment,73,↑,up,↑,0.6783883000025526,True,34,1
156K28S1,1194,experiment,85,↑,up,↑,0.8717189999879338,True,34,1
156K28S1,1195,experiment,50,↓,down,↓,0.5327355000190437,True,34,1
156K28S1,1196,experiment,66,←,left,←,0.4741031000157818,True,34,1
156K28S1,1197,experiment,63,→,right,→,0.46704839999438263,True,34,1
156K28S1,1198,experiment,81,↑,up,↑,0.5570107000239659,True,34,1
156K28S1,1199,experiment,76,↑,down,↓,0.6300409999967087,False,34,1
156K28S1,1200,experiment,97,←,left,←,0.3840194999938831,True,34,1
156K28S1,1201,experiment,93,←,left,←,0.49495549997664057,True,34,0
156K28S1,1202,experiment,98,→,right,→,0.5789645999902859,True,34,1
156K28S1,1203,experiment,101,↓,up,↑,0.506593600002816,False,34,1
156K28S1,1204,experiment,60,→,right,→,0.6111038000090048,True,34,1
156K28S1,1205,experiment,86,↓,down,↓,0.4707362000190187,True,34,1
156K28S1,1206,experiment,51,↓,down,↓,0.72338030001265,True,34,1
156K28S1,1207,experiment,94,→,right,→,0.46401920000789687,True,34,1
156K28S1,1208,experiment,92,↓,up,↑,0.6712457000103313,False,34,1
156K28S1,1209,experiment,78,→,right,→,0.467149200005224,True,34,1
156K28S1,1210,experiment,95,→,right,→,0.5209657999803312,True,34,1
156K28S1,1211,experiment,67,←,left,←,0.6621027999790385,True,34,1
156K28S1,1212,experiment,52,→,right,→,0.9469179000006989,True,34,1
156K28S1,1213,experiment,59,↓,down,↓,0.7617849999805912,True,34,1
156K28S1,1214,experiment,74,←,left,←,0.6350781999935862,True,34,1
156K28S1,1215,experiment,71,←,left,←,0.6351061000023037,True,34,1
156K28S1,1216,experiment,102,↑,right,→,0.8960852999880444,False,34,1
156K28S1,1217,experiment,49,↓,right,→,1.0364677000034135,False,34,1
156K28S1,1218,experiment,103,→,left,←,0.5691881999955513,False,34,1
156K28S1,1219,experiment,55,→,right,→,0.6807778999791481,True,34,1
156K28S1,1220,experiment,75,←,left,←,0.581208699994022,True,34,1
156K28S1,1221,experiment,87,↑,up,↑,0.6256173999863677,True,34,1
156K28S1,1222,experiment,56,→,right,→,0.7103085000126157,True,34,1
156K28S1,1223,experiment,107,↑,up,↑,0.7272614999965299,True,34,1
156K28S1,1224,experiment,70,↑,up,↑,0.6754148000036366,True,34,1
156K28S1,1225,experiment,54,↑,up,↑,0.47124579999945126,True,34,1
156K28S1,1226,experiment,68,←,left,←,0.766099700005725,True,34,1
156K28S1,1227,experiment,53,→,right,→,0.7261455000261776,True,34,1
156K28S1,1228,experiment,89,→,left,←,0.5962353000068106,False,34,1
156K28S1,1229,experiment,80,←,left,←,0.6901194999809377,True,34,1
156K28S1,1230,experiment,84,↑,up,↑,0.8591232000035234,True,34,1
156K28S1,1231,experiment,83,→,right,→,0.6378616000001784,True,34,1
156K28S1,1232,experiment,99,←,left,←,0.9800511000212282,True,34,1
156K28S1,1233,experiment,96,↑,up,↑,0.5732382999849506,True,34,1
156K28S1,1234,experiment,62,→,right,→,0.7146541000111029,True,34,1
156K28S1,1235,experiment,90,→,right,→,0.4802662000001874,True,34,1
156K28S1,1236,experiment,61,→,right,→,0.5770943999814335,True,34,1
156K28S1,1237,experiment,57,↑,up,↑,0.4637127000023611,True,34,1
156K28S1,1238,training,58,←,left,←,0.5463816000265069,True,34,0
156K28S1,1239,training,87,↓,down,↓,0.6399556999967899,True,34,1
156K28S1,1240,experiment,81,←,left,←,0.47608530000434257,True,34,1
156K28S1,1241,experiment,93,→,right,→,0.4592041000141762,True,34,1
156K28S1,1242,experiment,90,→,right,→,0.4994742999842856,True,34,1
156K28S1,1243,experiment,58,←,left,←,0.5480430999887176,True,34,1
156K28S1,1244,experiment,87,↓,down,↓,0.5536438999988604,True,34,1
156K28S1,1245,experiment,51,↓,down,↓,0.5472315000079107,True,34,1
156K28S1,1246,experiment,89,←,left,←,0.5604778999986593,True,34,1
156K28S1,1247,experiment,83,↓,down,↓,0.5988720000023022,True,34,1
156K28S1,1248,experiment,75,→,right,→,0.46260239998809993,True,34,1
156K28S1,1249,experiment,105,←,left,←,0.5136508000141475,True,34,1
156K28S1,1250,experiment,73,→,right,→,0.6535434999968857,True,34,1
156K28S1,1251,experiment,55,↑,up,↑,0.6016706000082195,True,34,1
156K28S1,1252,experiment,57,↑,up,↑,0.5590861999953631,True,34,1
156K28S1,1253,experiment,78,←,left,←,0.6075879000127316,True,34,1
156K28S1,1254,experiment,82,↑,up,↑,0.5560938000271562,True,34,1
156K28S1,1255,experiment,54,↑,up,↑,0.7803286999987904,True,34,1
156K28S1,1256,experiment,67,←,left,←,0.719325200014282,True,34,1
156K28S1,1257,experiment,74,←,left,←,0.4669607999967411,True,34,1
156K28S1,1258,experiment,64,←,left,←,0.4914811000053305,True,34,1
156K28S1,1259,experiment,66,↑,up,↑,0.5302812000154518,True,34,1
156K28S1,1260,experiment,85,→,right,→,0.6410299999988638,True,34,1
156K28S1,1261,experiment,99,←,left,←,0.47122559999115765,True,34,1
156K28S1,1262,experiment,91,↑,down,↓,0.5344065999961458,False,34,1
156K28S1,1263,experiment,60,→,right,→,0.47752280000713654,True,34,1
156K28S1,1264,experiment,72,↑,up,↑,0.6113259000121616,True,34,1
156K28S1,1265,experiment,53,←,left,←,0.7056764000153635,True,34,1
156K28S1,1266,experiment,97,←,right,→,1.0456478000269271,False,34,1
156K28S1,1267,experiment,80,↓,down,↓,0.65801189999911,True,34,1
156K28S1,1268,experiment,77,←,left,←,0.5744754000043031,True,34,1
156K28S1,1269,experiment,103,↓,down,↓,0.47815489998902194,True,34,1
156K28S1,1270,experiment,84,→,right,→,0.5353481999773066,True,34,1
156K28S1,1271,experiment,69,↓,down,↓,0.5152911000186577,True,34,1
156K28S1,1272,experiment,108,↑,up,↑,0.5876715000194963,True,34,1
156K28S1,1273,experiment,65,→,left,←,0.5108964000246488,False,34,1
156K28S1,1274,experiment,68,↓,down,↓,0.6681357999914326,True,34,1
156K28S1,1275,experiment,71,↑,down,↓,0.6904012000013608,False,34,1
156K28S1,1276,experiment,59,→,right,→,0.627702900004806,True,34,1
156K28S1,1277,experiment,79,←,left,←,0.5053404999780469,True,34,1
156K28S1,1278,experiment,95,→,right,→,0.5257130000100005,True,34,1
156K28S1,1279,experiment,76,↑,down,↓,0.4799748999939766,False,34,1
156K28S1,1280,experiment,101,→,right,→,0.6279155999945942,True,34,1
156K28S1,1281,experiment,104,↑,up,↑,0.60865880001802,True,34,1
156K28S1,1282,experiment,52,↑,up,↑,0.663669800007483,True,34,1
156K28S1,1283,experiment,98,←,left,←,0.5248121000186075,True,34,1
156K28S1,1284,experiment,48,↑,up,↑,0.7204226999892853,True,34,1
156K28S1,1285,experiment,92,←,left,←,0.5653749000048265,True,34,1
156K28S1,1286,experiment,50,→,right,→,0.6228168999950867,True,34,1
156K28S1,1287,experiment,56,←,right,→,0.5075068000005558,False,34,1
156K28S1,1288,experiment,100,↓,down,↓,0.5427219000121113,True,34,1
156K28S1,1289,experiment,49,→,down,↓,0.3919249999744352,False,34,1
156K28S1,1290,experiment,61,←,left,←,0.7095421999983955,True,34,0
156K28S1,1291,experiment,86,→,right,→,1.2131064999848604,True,34,1
156K28S1,1292,experiment,107,←,left,←,0.7134363999939524,True,34,1
156K28S1,1293,experiment,62,←,left,←,0.6729141999967396,True,34,1
156K28S1,1294,experiment,96,↓,down,↓,0.8786962000012863,True,34,1
156K28S1,1295,experiment,106,←,left,←,0.48075889999745414,True,34,1
156K28S1,1296,experiment,88,↓,down,↓,0.6246173999970779,True,34,1
156K28S1,1297,experiment,63,→,right,→,0.8351531000225805,True,34,1
156K28S1,1298,experiment,94,↑,down,↓,0.5711642999958713,False,34,1
156K28S1,1299,experiment,70,→,right,→,0.5494180000096094,True,34,1
156K28S1,1300,experiment,102,←,left,←,0.3430971000052523,True,34,1
156K28S1,1301,training,74,→,right,→,0.5382794000033755,True,34,0
156K28S1,1302,training,66,→,right,→,0.6315087999973912,True,34,1
156K28S1,1303,experiment,80,→,right,→,0.5560599000018556,True,34,1
156K28S1,1304,experiment,108,↓,down,↓,0.578482700017048,True,34,1
156K28S1,1305,experiment,66,→,right,→,0.6299479000153951,True,34,1
156K28S1,1306,experiment,91,↓,down,↓,0.5268860000069253,True,34,1
156K28S1,1307,experiment,50,←,right,→,0.6018290999927558,False,34,1
156K28S1,1308,experiment,64,↓,down,↓,0.5331900999881327,True,34,1
156K28S1,1309,experiment,57,↑,down,↓,0.5332503000099678,False,34,1
156K28S1,1310,experiment,87,→,left,←,0.811439800017979,False,34,1
156K28S1,1311,experiment,58,→,right,→,0.560459100001026,True,34,1
156K28S1,1312,experiment,79,→,right,→,1.4164523999788798,True,34,1
156K28S1,1313,experiment,48,←,left,←,0.5524105000076815,True,34,1
156K28S1,1314,experiment,51,↓,down,↓,0.545791000011377,True,34,1
156K28S1,1315,experiment,56,→,right,→,0.6985480999865104,True,34,1
156K28S1,1316,experiment,76,←,left,←,0.5891279999923427,True,34,1
156K28S1,1317,experiment,105,↑,up,↑,0.6751562999852467,True,34,1
156K28S1,1318,experiment,71,→,right,→,0.521141200006241,True,34,1
156K28S1,1319,experiment,55,←,left,←,0.7063798999879509,True,34,1
156K28S1,1320,experiment,60,←,left,←,0.4169518999988213,True,34,1
156K28S1,1321,experiment,88,←,right,→,0.4341525000054389,False,34,0
156K28S1,1322,experiment,65,←,left,←,0.4547941999917384,True,34,0
156K28S1,1323,experiment,67,→,right,→,0.7015129000064917,True,34,1
156K28S1,1324,experiment,96,↑,up,↑,0.5543257000099402,True,34,1
156K28S1,1325,experiment,101,←,left,←,0.5629654999938793,True,34,1
156K28S1,1326,experiment,61,↓,down,↓,0.6407206000003498,True,34,1
156K28S1,1327,experiment,78,↓,down,↓,1.3815109999850392,True,34,1
156K28S1,1328,experiment,84,→,left,←,0.7151434000115842,False,34,1
156K28S1,1329,experiment,53,↓,down,↓,0.7416110999765806,True,34,1
156K28S1,1330,experiment,70,←,left,←,0.41792800000985153,True,34,1
156K28S1,1331,experiment,104,↑,down,↓,0.8136530999909155,False,34,0
156K28S1,1332,experiment,106,→,right,→,0.4509953999950085,True,34,1
156K28S1,1333,experiment,97,←,left,←,0.6652995999902487,True,34,1
156K28S1,1334,experiment,92,←,left,←,0.5357287999941036,True,34,1
156K28S1,1335,experiment,90,↓,down,↓,0.4534415999951307,True,34,1
156K28S1,1336,experiment,75,→,right,→,0.6583600000012666,True,34,0
156K28S1,1337,experiment,49,↓,down,↓,0.4172061000135727,True,34,1
156K28S1,1338,experiment,100,↓,down,↓,0.5747426000016276,True,34,0
156K28S1,1339,experiment,103,←,left,←,1.1177894000138622,True,34,1
156K28S1,1340,experiment,69,←,left,←,0.6509272000112105,True,34,1
156K28S1,1341,experiment,52,→,right,→,0.4721480000007432,True,34,1
156K28S1,1342,experiment,59,←,left,←,0.4742306000262033,True,34,1
156K28S1,1343,experiment,94,←,left,←,0.6803338000026997,True,34,1
156K28S1,1344,experiment,85,→,right,→,0.48927849999745376,True,34,1
156K28S1,1345,experiment,89,↑,up,↑,0.5126097000029404,True,34,1
156K28S1,1346,experiment,68,←,left,←,1.1098964999837335,True,34,1
156K28S1,1347,experiment,93,↓,down,↓,0.555303000001004,True,34,1
156K28S1,1348,experiment,99,↑,up,↑,0.6528500000131316,True,34,1
156K28S1,1349,experiment,98,↑,up,↑,0.5947222999820951,True,34,1
156K28S1,1350,experiment,54,↓,down,↓,0.7779939000029117,True,34,1
156K28S1,1351,experiment,74,←,left,←,0.6189064999925904,True,34,1
156K28S1,1352,experiment,102,↓,down,↓,0.5205947000067681,True,34,1
156K28S1,1353,experiment,73,↓,down,↓,0.4337048000015784,True,34,1
156K28S1,1354,experiment,107,↓,down,↓,0.6319211999943946,True,34,0
156K28S1,1355,experiment,95,→,right,→,0.5911264999886043,True,34,1
156K28S1,1356,experiment,77,↑,up,↑,0.47853379999287426,True,34,1
156K28S1,1357,experiment,83,→,right,→,0.5440958999970462,True,34,1
156K28S1,1358,experiment,86,↑,up,↑,0.8224111000017729,True,34,1
156K28S1,1359,experiment,63,↑,down,↓,1.0571078000066336,False,34,1
156K28S1,1360,experiment,62,→,right,→,0.6190070000011474,True,34,1
156K28S1,1361,experiment,81,↓,down,↓,0.6557319999847095,True,34,1
156K28S1,1362,experiment,82,↑,up,↑,0.5791315000096802,True,34,1
156K28S1,1363,experiment,72,→,right,→,1.0122430000046734,True,34,1
