PART_ID,Trial_no,Trial_type,CSI,Stim_letter,Key_pressed,letter_choose,Rt,Corr,Stimulus Time,nDropped
157K25S4,1,training,120,↓,down,↓,0.6420229999348521,True,60,0
157K25S4,2,training,120,→,right,→,0.5174345998093486,True,60,0
157K25S4,3,training,120,→,right,→,0.49213499994948506,True,60,0
157K25S4,4,training,120,↓,down,↓,0.5999413002282381,True,60,0
157K25S4,5,training,120,→,right,→,0.5091121001169086,True,60,0
157K25S4,6,training,120,↑,up,↑,0.45968550024554133,True,60,0
157K25S4,7,training,120,↓,down,↓,0.4914977001026273,True,60,0
157K25S4,8,training,120,↓,down,↓,0.458668100181967,True,60,0
157K25S4,9,training,120,←,left,←,0.6420617001131177,True,60,0
157K25S4,10,training,120,↑,up,↑,0.7488719001412392,True,60,0
157K25S4,11,training,120,→,right,→,0.5843524001538754,True,60,0
157K25S4,12,training,120,↓,down,↓,0.6508818999864161,True,60,0
157K25S4,13,training,120,↑,up,↑,0.4851007000543177,True,60,0
157K25S4,14,training,120,↓,down,↓,0.45164289977401495,True,60,0
157K25S4,15,training,120,→,right,→,0.5423917002044618,True,60,0
157K25S4,16,training,120,↑,up,↑,0.43493179976940155,True,60,0
157K25S4,17,training,120,→,right,→,0.5498126000165939,True,60,0
157K25S4,18,training,120,↑,up,↑,0.4266257002018392,True,60,0
157K25S4,19,training,120,→,right,→,0.44318770011886954,True,60,0
157K25S4,20,training,120,↓,down,↓,0.5594913000240922,True,60,0
157K25S4,21,no_adaptation,120,↑,up,↑,0.5385259999893606,True,36,0
157K25S4,22,no_adaptation,120,←,left,←,0.41649939958006144,True,36,0
157K25S4,23,no_adaptation,120,↓,no_key,no_letter,-1.0,False,36,0
157K25S4,24,no_adaptation,120,←,left,←,0.5272750998847187,True,36,0
157K25S4,25,no_adaptation,120,↓,down,↓,0.49893319979310036,True,36,0
157K25S4,26,no_adaptation,120,→,right,→,0.5034676003269851,True,36,0
157K25S4,27,no_adaptation,120,→,right,→,0.5960657000541687,True,36,0
157K25S4,28,no_adaptation,120,→,no_key,no_letter,-1.0,False,36,0
157K25S4,29,no_adaptation,120,→,right,→,0.4712621998041868,True,36,0
157K25S4,30,no_adaptation,120,→,right,→,0.45047640008851886,True,36,0
157K25S4,31,no_adaptation,120,↑,up,↑,0.6182221001945436,True,36,0
157K25S4,32,no_adaptation,120,→,no_key,no_letter,-1.0,False,36,0
157K25S4,33,no_adaptation,120,←,no_key,no_letter,-1.0,False,36,0
157K25S4,34,no_adaptation,120,→,no_key,no_letter,-1.0,False,36,0
157K25S4,35,no_adaptation,120,→,right,→,0.7128838999196887,True,36,0
157K25S4,36,no_adaptation,120,←,left,←,0.42574300011619925,True,36,0
157K25S4,37,no_adaptation,120,↑,down,↓,0.7641044002957642,False,36,0
157K25S4,38,no_adaptation,120,←,left,←,0.40026320004835725,True,36,0
157K25S4,39,no_adaptation,120,↑,up,↑,0.47904409980401397,True,36,0
157K25S4,40,no_adaptation,120,↓,down,↓,0.6920931995846331,True,36,0
157K25S4,41,training,76,↑,up,↑,0.502738599665463,True,36,0
157K25S4,42,training,104,←,left,←,0.35839000018313527,True,36,1
157K25S4,43,experiment,62,→,right,→,0.5258196997456253,True,36,0
157K25S4,44,experiment,81,↑,up,↑,0.4790660999715328,True,36,1
157K25S4,45,experiment,97,↑,up,↑,0.5715732001699507,True,36,1
157K25S4,46,experiment,53,←,no_key,no_letter,-1.0,False,36,1
157K25S4,47,experiment,54,↑,up,↑,0.5394724998623133,True,36,1
157K25S4,48,experiment,70,→,no_key,no_letter,-1.0,False,36,1
157K25S4,49,experiment,91,→,right,→,0.6671682000160217,True,36,1
157K25S4,50,experiment,102,→,right,→,0.4339223997667432,True,36,1
157K25S4,51,experiment,82,↑,up,↑,0.5469755004160106,True,36,0
157K25S4,52,experiment,73,↑,up,↑,0.3838774999603629,True,36,1
157K25S4,53,experiment,68,→,right,→,0.45021590031683445,True,36,0
157K25S4,54,experiment,69,↑,up,↑,0.3833522996865213,True,36,0
157K25S4,55,experiment,72,←,left,←,0.35885110031813383,True,36,0
157K25S4,56,experiment,89,↑,up,↑,0.41763690020889044,True,36,0
157K25S4,57,experiment,67,↑,up,↑,0.36646310007199645,True,36,0
157K25S4,58,experiment,56,↓,down,↓,0.4917235001921654,True,36,0
157K25S4,59,experiment,79,→,right,→,0.6381295998580754,True,36,1
157K25S4,60,experiment,71,↑,up,↑,0.4779492998495698,True,36,1
157K25S4,61,experiment,51,↑,up,↑,0.4247698001563549,True,36,1
157K25S4,62,experiment,57,→,right,→,0.4504762999713421,True,36,0
157K25S4,63,experiment,83,↑,up,↑,0.5284017999656498,True,36,0
157K25S4,64,experiment,84,←,right,→,0.5284222001209855,False,36,1
157K25S4,65,experiment,101,↓,down,↓,0.5143985003232956,True,36,1
157K25S4,66,experiment,58,↑,up,↑,0.48316039983183146,True,36,1
157K25S4,67,experiment,105,↑,up,↑,0.5967927998863161,True,36,1
157K25S4,68,experiment,63,←,left,←,0.48098509991541505,True,36,1
157K25S4,69,experiment,93,→,right,→,0.4505512001924217,True,36,1
157K25S4,70,experiment,59,↑,up,↑,0.417862500064075,True,36,1
157K25S4,71,experiment,66,→,right,→,0.425467099994421,True,36,0
157K25S4,72,experiment,104,→,right,→,0.48751530004665256,True,36,0
157K25S4,73,experiment,94,↑,up,↑,0.6127635999582708,True,36,1
157K25S4,74,experiment,106,↑,up,↑,0.8579653999768198,True,36,1
157K25S4,75,experiment,103,→,right,→,0.45030839974060655,True,36,1
157K25S4,76,experiment,98,↑,left,←,0.787614299915731,False,36,0
157K25S4,77,experiment,86,←,left,←,0.5121470997110009,True,36,1
157K25S4,78,experiment,88,→,no_key,no_letter,-1.0,False,36,1
157K25S4,79,experiment,90,↑,up,↑,0.4503931999206543,True,36,1
157K25S4,80,experiment,60,↓,left,←,0.5651227999478579,False,36,0
157K25S4,81,experiment,52,↑,up,↑,0.5099531998857856,True,36,1
157K25S4,82,experiment,55,→,right,→,0.43393220007419586,True,36,1
157K25S4,83,experiment,77,↓,down,↓,0.7171208998188376,True,36,0
157K25S4,84,experiment,65,↓,down,↓,0.5150827998295426,True,36,1
157K25S4,85,experiment,92,↑,no_key,no_letter,-1.0,False,36,1
157K25S4,86,experiment,61,←,no_key,no_letter,-1.0,False,36,1
157K25S4,87,experiment,85,←,left,←,1.1085192002356052,True,36,1
157K25S4,88,experiment,96,←,left,←,0.3588887001387775,True,36,1
157K25S4,89,experiment,50,↑,up,↑,0.5065427999943495,True,36,0
157K25S4,90,experiment,80,→,right,→,0.6122078998014331,True,36,1
157K25S4,91,experiment,74,←,left,←,0.5152741996571422,True,36,1
157K25S4,92,experiment,48,↓,no_key,no_letter,-1.0,False,36,1
157K25S4,93,experiment,87,→,right,→,0.4498187000863254,True,36,1
157K25S4,94,experiment,64,↓,down,↓,0.5572664001956582,True,36,0
157K25S4,95,experiment,78,→,right,→,0.47003290010616183,True,36,1
157K25S4,96,experiment,75,→,right,→,0.443117399699986,True,36,0
157K25S4,97,experiment,49,↓,down,↓,0.560260099824518,True,36,0
157K25S4,98,experiment,99,←,left,←,0.4896073997952044,True,36,1
157K25S4,99,experiment,107,↓,down,↓,0.43382859975099564,True,36,1
157K25S4,100,experiment,100,←,left,←,0.48097879998385906,True,36,0
157K25S4,101,experiment,76,←,left,←,0.5401146998628974,True,36,1
157K25S4,102,experiment,95,→,right,→,0.6235243999399245,True,36,1
157K25S4,103,experiment,108,↑,up,↑,0.6511804000474513,True,36,1
157K25S4,104,training,70,↓,down,↓,0.5036149001680315,True,36,0
157K25S4,105,training,104,↑,no_key,no_letter,-1.0,False,36,1
157K25S4,106,experiment,92,→,right,→,0.5809910004027188,True,36,1
157K25S4,107,experiment,48,→,right,→,0.4338011001236737,True,36,1
157K25S4,108,experiment,75,←,left,←,0.383897399995476,True,36,0
157K25S4,109,experiment,63,↓,down,↓,0.5123831001110375,True,36,0
157K25S4,110,experiment,82,←,left,←,0.45019100001081824,True,36,1
157K25S4,111,experiment,77,→,right,→,0.41757020028308034,True,36,1
157K25S4,112,experiment,68,↓,down,↓,0.629890900105238,True,36,0
157K25S4,113,experiment,102,↑,up,↑,0.5950728999450803,True,36,1
157K25S4,114,experiment,106,→,right,→,0.7045887000858784,True,36,1
157K25S4,115,experiment,59,←,left,←,0.42494669975712895,True,36,1
157K25S4,116,experiment,99,→,right,→,0.6073074000887573,True,36,0
157K25S4,117,experiment,56,←,left,←,0.42557880003005266,True,36,1
157K25S4,118,experiment,54,↑,up,↑,0.6421348000876606,True,36,0
157K25S4,119,experiment,94,↓,no_key,no_letter,-1.0,False,36,1
157K25S4,120,experiment,101,→,right,→,0.47522319993004203,True,36,1
157K25S4,121,experiment,85,→,right,→,0.4842861997894943,True,36,1
157K25S4,122,experiment,86,→,right,→,0.6205270001664758,True,36,1
157K25S4,123,experiment,103,↓,down,↓,0.4429846997372806,True,36,1
157K25S4,124,experiment,67,↑,up,↑,0.7938462998718023,True,36,0
157K25S4,125,experiment,61,↓,down,↓,0.4501980999484658,True,36,1
157K25S4,126,experiment,84,←,left,←,0.601070299744606,True,36,0
157K25S4,127,experiment,50,↑,up,↑,0.4424115000292659,True,36,1
157K25S4,128,experiment,60,↓,down,↓,0.6677600000984967,True,36,0
157K25S4,129,experiment,108,↑,up,↑,0.5098859998397529,True,36,1
157K25S4,130,experiment,74,↓,down,↓,0.4966430999338627,True,36,1
157K25S4,131,experiment,69,↓,up,↑,0.5182362999767065,False,36,1
157K25S4,132,experiment,97,→,no_key,no_letter,-1.0,False,36,1
157K25S4,133,experiment,91,→,right,→,0.4704690999351442,True,36,1
157K25S4,134,experiment,72,←,left,←,0.5875507998280227,True,36,1
157K25S4,135,experiment,71,→,left,←,0.4933215002529323,False,36,1
157K25S4,136,experiment,51,↓,down,↓,0.4728737003169954,True,36,1
157K25S4,137,experiment,49,↓,down,↓,0.4707475998438895,True,36,0
157K25S4,138,experiment,95,→,right,→,0.4919598000124097,True,36,0
157K25S4,139,experiment,53,↑,right,→,0.6310409000143409,False,36,1
157K25S4,140,experiment,66,→,right,→,0.40960510028526187,True,36,1
157K25S4,141,experiment,105,↑,up,↑,0.5575536000542343,True,36,0
157K25S4,142,experiment,93,↑,up,↑,0.3923519002273679,True,36,1
157K25S4,143,experiment,80,↓,down,↓,0.5664388998411596,True,36,0
157K25S4,144,experiment,76,↑,no_key,no_letter,-1.0,False,36,1
157K25S4,145,experiment,79,↑,up,↑,0.38401970034465194,True,36,1
157K25S4,146,experiment,89,↓,no_key,no_letter,-1.0,False,36,0
157K25S4,147,experiment,88,←,left,←,0.39983810018748045,True,36,1
157K25S4,148,experiment,70,→,right,→,0.5044527002610266,True,36,0
157K25S4,149,experiment,81,←,left,←,0.5537125002592802,True,36,1
157K25S4,150,experiment,90,→,right,→,0.646023300010711,True,36,1
157K25S4,151,experiment,64,↓,down,↓,0.4717906001023948,True,36,1
157K25S4,152,experiment,55,↑,up,↑,0.4089560997672379,True,36,1
157K25S4,153,experiment,62,↑,down,↓,0.6295863999985158,False,36,0
157K25S4,154,experiment,52,↓,down,↓,0.49152590008452535,True,36,1
157K25S4,155,experiment,83,↓,right,→,0.6611057003028691,False,36,1
157K25S4,156,experiment,96,←,left,←,0.5231082998216152,True,36,1
157K25S4,157,experiment,58,←,left,←,0.02666589990258217,True,36,1
157K25S4,158,experiment,100,→,right,→,0.40051910001784563,True,36,0
157K25S4,159,experiment,87,↓,down,↓,0.4743968998081982,True,36,0
157K25S4,160,experiment,65,↑,up,↑,0.4428747002966702,True,36,1
157K25S4,161,experiment,104,→,no_key,no_letter,-1.0,False,36,0
157K25S4,162,experiment,73,↓,no_key,no_letter,-1.0,False,36,1
157K25S4,163,experiment,98,↑,up,↑,0.43349710013717413,True,36,1
157K25S4,164,experiment,107,↓,no_key,no_letter,-1.0,False,36,0
157K25S4,165,experiment,78,↓,down,↓,0.5006922003813088,True,36,1
157K25S4,166,experiment,57,↓,no_key,no_letter,-1.0,False,36,1
157K25S4,167,training,95,↑,up,↑,0.5879577999003232,True,36,0
157K25S4,168,training,79,←,left,←,0.39147619996219873,True,36,1
157K25S4,169,experiment,98,↓,down,↓,0.4421720001846552,True,36,0
157K25S4,170,experiment,51,←,left,←,0.5278121000155807,True,36,0
157K25S4,171,experiment,57,↑,up,↑,0.4084904999472201,True,36,1
157K25S4,172,experiment,82,↓,no_key,no_letter,-1.0,False,36,0
157K25S4,173,experiment,60,↑,left,←,0.7148819002322853,False,36,1
157K25S4,174,experiment,97,→,left,←,0.4417531001381576,False,36,1
157K25S4,175,experiment,93,←,left,←,0.5341074001044035,True,36,0
157K25S4,176,experiment,92,↓,down,↓,0.6028106999583542,True,36,1
157K25S4,177,experiment,72,→,right,→,0.44237770000472665,True,36,1
157K25S4,178,experiment,59,→,right,→,0.582370899617672,True,36,0
157K25S4,179,experiment,104,↓,down,↓,0.5732130999676883,True,36,1
157K25S4,180,experiment,56,↑,up,↑,0.6759472000412643,True,36,1
157K25S4,181,experiment,81,←,left,←,0.4340552003122866,True,36,1
157K25S4,182,experiment,108,←,no_key,no_letter,-1.0,False,36,0
157K25S4,183,experiment,95,←,left,←,0.5243540001101792,True,36,1
157K25S4,184,experiment,58,↑,up,↑,0.5405476000159979,True,36,1
157K25S4,185,experiment,91,←,left,←,0.5691312998533249,True,36,1
157K25S4,186,experiment,55,↑,up,↑,0.43407690012827516,True,36,1
157K25S4,187,experiment,50,↑,up,↑,0.4259815998375416,True,36,0
157K25S4,188,experiment,101,↑,up,↑,0.38386180019006133,True,36,0
157K25S4,189,experiment,66,↑,up,↑,0.35883749974891543,True,36,0
157K25S4,190,experiment,76,←,left,←,0.5280883000232279,True,36,0
157K25S4,191,experiment,53,←,left,←,0.4827831997536123,True,36,1
157K25S4,192,experiment,54,↓,down,↓,0.7167338002473116,True,36,1
157K25S4,193,experiment,68,↓,down,↓,0.6501662000082433,True,36,1
157K25S4,194,experiment,88,↓,down,↓,0.4255154998973012,True,36,1
157K25S4,195,experiment,83,→,right,→,0.638873599935323,True,36,0
157K25S4,196,experiment,75,→,right,→,0.4507539998739958,True,36,1
157K25S4,197,experiment,48,↑,up,↑,0.635003799572587,True,36,0
157K25S4,198,experiment,94,↓,down,↓,0.4005672000348568,True,36,1
157K25S4,199,experiment,103,↓,down,↓,0.641132699791342,True,36,0
157K25S4,200,experiment,106,↑,up,↑,0.3921381002292037,True,36,1
157K25S4,201,experiment,107,←,left,←,0.4165626000612974,True,36,0
157K25S4,202,experiment,69,←,left,←,0.36722989985719323,True,36,0
157K25S4,203,experiment,78,↓,down,↓,0.5857086000032723,True,36,0
157K25S4,204,experiment,74,←,left,←,0.5702877999283373,True,36,1
157K25S4,205,experiment,63,→,right,→,0.6868811999447644,True,36,1
157K25S4,206,experiment,62,↓,left,←,0.6792651996947825,False,36,1
157K25S4,207,experiment,77,←,left,←,0.4680106998421252,True,36,1
157K25S4,208,experiment,64,→,right,→,0.6991274999454618,True,36,1
157K25S4,209,experiment,85,→,right,→,0.7396085001528263,True,36,1
157K25S4,210,experiment,87,↑,up,↑,0.7053913003765047,True,36,1
157K25S4,211,experiment,84,←,left,←,0.43411749973893166,True,36,1
157K25S4,212,experiment,65,←,left,←,0.6196481003426015,True,36,0
157K25S4,213,experiment,80,↑,up,↑,0.4727635998278856,True,36,1
157K25S4,214,experiment,52,→,right,→,0.5480800997465849,True,36,1
157K25S4,215,experiment,71,←,left,←,0.48693040013313293,True,36,1
157K25S4,216,experiment,67,↓,down,↓,0.5337231997400522,True,36,1
157K25S4,217,experiment,99,↑,up,↑,0.39313599979504943,True,36,1
157K25S4,218,experiment,96,←,left,←,0.5602553999051452,True,36,0
157K25S4,219,experiment,90,←,no_key,no_letter,-1.0,False,36,1
157K25S4,220,experiment,105,↓,no_key,no_letter,-1.0,False,36,1
157K25S4,221,experiment,70,↑,up,↑,0.6954538999125361,True,36,1
157K25S4,222,experiment,89,↓,down,↓,0.6141335996799171,True,36,1
157K25S4,223,experiment,61,↓,down,↓,0.7535744998604059,True,36,1
157K25S4,224,experiment,73,↓,down,↓,0.86805190006271,True,36,1
157K25S4,225,experiment,86,←,left,←,0.35857250029221177,True,36,1
157K25S4,226,experiment,79,←,left,←,0.39153150003403425,True,36,0
157K25S4,227,experiment,49,↑,up,↑,0.6612215996719897,True,36,0
157K25S4,228,experiment,102,←,left,←,0.42590339994058013,True,36,1
157K25S4,229,experiment,100,↑,up,↑,0.6080299001187086,True,36,1
157K25S4,230,training,60,←,left,←,0.4925820999778807,True,36,0
157K25S4,231,training,56,↑,up,↑,0.4175758003257215,True,36,1
157K25S4,232,experiment,91,↑,up,↑,0.3849844001233578,True,36,0
157K25S4,233,experiment,73,↑,up,↑,0.5759992999956012,True,36,0
157K25S4,234,experiment,83,←,left,←,0.5100369001738727,True,36,1
157K25S4,235,experiment,58,↑,up,↑,0.5752968997694552,True,36,1
157K25S4,236,experiment,65,→,right,→,0.530955399852246,True,36,1
157K25S4,237,experiment,89,←,left,←,0.3667656001634896,True,36,1
157K25S4,238,experiment,49,→,right,→,0.6258482001721859,True,36,1
157K25S4,239,experiment,74,→,right,→,0.504886600188911,True,36,1
157K25S4,240,experiment,102,↓,down,↓,0.45060670003294945,True,36,1
157K25S4,241,experiment,56,↑,up,↑,0.450464999768883,True,36,0
157K25S4,242,experiment,51,←,right,→,0.8117404002696276,False,36,0
157K25S4,243,experiment,85,↓,down,↓,0.6713181999512017,True,36,1
157K25S4,244,experiment,105,↑,up,↑,0.5459326999261975,True,36,1
157K25S4,245,experiment,69,←,left,←,0.4165802001953125,True,36,1
157K25S4,246,experiment,90,↑,up,↑,0.5670741000212729,True,36,0
157K25S4,247,experiment,75,↓,left,←,0.48088640021160245,False,36,1
157K25S4,248,experiment,50,↑,no_key,no_letter,-1.0,False,36,1
157K25S4,249,experiment,88,↑,up,↑,0.6420748000964522,True,36,1
157K25S4,250,experiment,108,↑,up,↑,0.5408859001472592,True,36,1
157K25S4,251,experiment,67,↑,up,↑,0.5692309001460671,True,36,1
157K25S4,252,experiment,87,→,no_key,no_letter,-1.0,False,36,1
157K25S4,253,experiment,79,←,left,←,0.4865492000244558,True,36,1
157K25S4,254,experiment,82,←,left,←,0.4418950998224318,True,36,1
157K25S4,255,experiment,48,↓,down,↓,0.7108491999097168,True,36,0
157K25S4,256,experiment,61,←,left,←,0.416729100048542,True,36,1
157K25S4,257,experiment,103,←,left,←,0.38380840001627803,True,36,0
157K25S4,258,experiment,92,↑,up,↑,0.654506899882108,True,36,0
157K25S4,259,experiment,70,↓,left,←,0.5654583000577986,False,36,1
157K25S4,260,experiment,81,↑,up,↑,0.6204580999910831,True,36,1
157K25S4,261,experiment,55,↓,down,↓,0.5136921000666916,True,36,1
157K25S4,262,experiment,62,←,left,←,0.4167482000775635,True,36,1
157K25S4,263,experiment,98,↑,up,↑,0.4331767000257969,True,36,0
157K25S4,264,experiment,76,←,left,←,0.37542130006477237,True,36,0
157K25S4,265,experiment,95,←,left,←,0.4251874000765383,True,36,0
157K25S4,266,experiment,52,→,right,→,0.4167709997855127,True,36,0
157K25S4,267,experiment,60,←,left,←,0.41734759975224733,True,36,0
157K25S4,268,experiment,97,↓,down,↓,0.41621180018410087,True,36,1
157K25S4,269,experiment,72,↓,down,↓,0.4246767000295222,True,36,0
157K25S4,270,experiment,78,↓,down,↓,0.587756700348109,True,36,0
157K25S4,271,experiment,68,←,left,←,0.6060029002837837,True,36,1
157K25S4,272,experiment,94,↑,up,↑,0.5910966000519693,True,36,1
157K25S4,273,experiment,71,↓,down,↓,0.5603728001005948,True,36,1
157K25S4,274,experiment,84,←,left,←,0.5106453001499176,True,36,1
157K25S4,275,experiment,77,↑,no_key,no_letter,-1.0,False,36,1
157K25S4,276,experiment,99,↑,up,↑,0.6267627999186516,True,36,1
157K25S4,277,experiment,80,↓,down,↓,0.5597975999116898,True,36,1
157K25S4,278,experiment,101,→,right,→,0.512314900290221,True,36,1
157K25S4,279,experiment,66,↓,down,↓,0.41734280018135905,True,36,1
157K25S4,280,experiment,53,→,right,→,0.4173921998590231,True,36,0
157K25S4,281,experiment,106,↓,down,↓,0.5843528001569211,True,36,0
157K25S4,282,experiment,107,←,left,←,0.43390489974990487,True,36,1
157K25S4,283,experiment,54,←,left,←,0.46744769997894764,True,36,0
157K25S4,284,experiment,63,→,right,→,0.5638309000059962,True,36,1
157K25S4,285,experiment,57,↓,no_key,no_letter,-1.0,False,36,1
157K25S4,286,experiment,59,→,right,→,0.5613522999919951,True,36,1
157K25S4,287,experiment,86,←,left,←,0.6147170001640916,True,36,1
157K25S4,288,experiment,100,←,left,←,0.3590603000484407,True,36,1
157K25S4,289,experiment,96,↑,up,↑,0.4873520997352898,True,36,0
157K25S4,290,experiment,93,←,left,←,0.5732207000255585,True,36,1
157K25S4,291,experiment,104,↑,up,↑,0.41677570017054677,True,36,1
157K25S4,292,experiment,64,→,right,→,0.4946813997812569,True,36,0
157K25S4,293,training,62,←,left,←,0.6019752998836339,True,36,0
157K25S4,294,training,63,↑,up,↑,0.4167316001839936,True,36,1
157K25S4,295,experiment,88,→,right,→,0.6157911000773311,True,36,0
157K25S4,296,experiment,71,↓,down,↓,0.5040648998692632,True,36,1
157K25S4,297,experiment,58,↑,up,↑,0.7370613999664783,True,36,1
157K25S4,298,experiment,107,←,left,←,0.3934098999015987,True,36,1
157K25S4,299,experiment,85,←,left,←,0.39214519970119,True,36,0
157K25S4,300,experiment,66,↓,down,↓,0.5028055999428034,True,36,0
157K25S4,301,experiment,95,→,right,→,0.603829899802804,True,36,1
157K25S4,302,experiment,83,←,left,←,0.38317389972507954,True,36,1
157K25S4,303,experiment,55,→,right,→,0.550886900164187,True,36,0
157K25S4,304,experiment,48,→,right,→,0.5293888999149203,True,36,1
157K25S4,305,experiment,73,→,right,→,0.5646152999252081,True,36,1
157K25S4,306,experiment,59,→,no_key,no_letter,-1.0,False,36,1
157K25S4,307,experiment,49,←,left,←,0.6611226997338235,True,36,1
157K25S4,308,experiment,93,→,right,→,0.43415579991415143,True,36,1
157K25S4,309,experiment,96,↑,no_key,no_letter,-1.0,False,36,0
157K25S4,310,experiment,70,←,left,←,0.45017659990116954,True,36,1
157K25S4,311,experiment,61,↓,down,↓,0.6481296997517347,True,36,0
157K25S4,312,experiment,74,←,left,←,0.5824128002859652,True,36,1
157K25S4,313,experiment,69,↓,down,↓,0.5523640997707844,True,36,1
157K25S4,314,experiment,106,→,right,→,0.4330183998681605,True,36,1
157K25S4,315,experiment,53,→,right,→,0.4258722998201847,True,36,0
157K25S4,316,experiment,57,↑,up,↑,0.5052636000327766,True,36,0
157K25S4,317,experiment,89,→,right,→,0.7435031002387404,True,36,1
157K25S4,318,experiment,72,←,left,←,0.4908670000731945,True,36,1
157K25S4,319,experiment,78,↓,no_key,no_letter,-1.0,False,36,1
157K25S4,320,experiment,50,↓,down,↓,0.45101809967309237,True,36,1
157K25S4,321,experiment,99,→,no_key,no_letter,-1.0,False,36,0
157K25S4,322,experiment,60,↑,up,↑,0.5468969997018576,True,36,1
157K25S4,323,experiment,87,↓,down,↓,0.5764939999207854,True,36,1
157K25S4,324,experiment,102,↓,down,↓,0.5361754996702075,True,36,1
157K25S4,325,experiment,92,→,no_key,no_letter,-1.0,False,36,1
157K25S4,326,experiment,80,→,right,→,0.6130085000768304,True,36,1
157K25S4,327,experiment,90,→,right,→,0.6229477003216743,True,36,1
157K25S4,328,experiment,104,→,right,→,0.5879592001438141,True,36,1
157K25S4,329,experiment,76,↑,up,↑,0.6518851001746953,True,36,1
157K25S4,330,experiment,64,←,left,←,0.47767719998955727,True,36,1
157K25S4,331,experiment,54,→,right,→,0.4809572999365628,True,36,1
157K25S4,332,experiment,97,↑,up,↑,0.4081756002269685,True,36,1
157K25S4,333,experiment,105,↑,up,↑,0.40820439998060465,True,36,0
157K25S4,334,experiment,86,↑,up,↑,0.4421844999305904,True,36,0
157K25S4,335,experiment,75,↓,down,↓,0.4757307996042073,True,36,0
157K25S4,336,experiment,77,↑,up,↑,0.7743318001739681,True,36,1
157K25S4,337,experiment,67,↑,up,↑,0.4086819998919964,True,36,1
157K25S4,338,experiment,81,→,no_key,no_letter,-1.0,False,36,0
157K25S4,339,experiment,101,↑,up,↑,0.49546819971874356,True,36,1
157K25S4,340,experiment,68,↓,down,↓,0.661364400293678,True,36,1
157K25S4,341,experiment,98,↓,down,↓,0.38314229995012283,True,36,1
157K25S4,342,experiment,79,↓,down,↓,0.3759048003703356,True,36,0
157K25S4,343,experiment,51,↑,up,↑,0.5377095001749694,True,36,0
157K25S4,344,experiment,103,←,left,←,0.35029289964586496,True,36,1
157K25S4,345,experiment,108,→,right,→,0.5446945000439882,True,36,0
157K25S4,346,experiment,91,←,left,←,0.525259000249207,True,36,1
157K25S4,347,experiment,94,←,left,←,0.43317250022664666,True,36,1
157K25S4,348,experiment,62,→,right,→,0.5718098999932408,True,36,0
157K25S4,349,experiment,65,↓,down,↓,0.6879245997406542,True,36,1
157K25S4,350,experiment,100,→,right,→,0.6356918001547456,True,36,1
157K25S4,351,experiment,82,→,right,→,0.56745700025931,True,36,1
157K25S4,352,experiment,63,→,right,→,0.5969158001244068,True,36,1
157K25S4,353,experiment,52,↑,up,↑,0.5397572000510991,True,36,1
157K25S4,354,experiment,56,↑,up,↑,0.7081242999993265,True,36,1
157K25S4,355,experiment,84,↑,up,↑,0.4921294995583594,True,36,1
157K25S4,356,training,76,↑,up,↑,0.6039770999923348,True,35,0
157K25S4,357,training,100,↑,up,↑,0.49918549973517656,True,35,1
157K25S4,358,experiment,88,←,left,←,0.4172152001410723,True,35,1
157K25S4,359,experiment,107,←,left,←,0.5660735000856221,True,35,0
157K25S4,360,experiment,67,←,left,←,0.4090422000735998,True,35,1
157K25S4,361,experiment,62,↑,up,↑,0.49284399999305606,True,35,1
157K25S4,362,experiment,58,→,no_key,no_letter,-1.0,False,35,1
157K25S4,363,experiment,84,←,right,→,0.3842386999167502,False,35,1
157K25S4,364,experiment,82,→,right,→,0.5468017002567649,True,35,0
157K25S4,365,experiment,66,←,left,←,0.43368889996781945,True,35,1
157K25S4,366,experiment,75,←,left,←,0.6293155001476407,True,35,0
157K25S4,367,experiment,103,←,left,←,0.4910077997483313,True,35,1
157K25S4,368,experiment,102,↑,left,←,0.44198690028861165,False,35,1
157K25S4,369,experiment,105,←,left,←,0.4342366997152567,True,35,0
157K25S4,370,experiment,54,←,left,←,0.478350100107491,True,35,0
157K25S4,371,experiment,100,→,right,→,0.46612670039758086,True,35,1
157K25S4,372,experiment,74,←,left,←,0.37562610022723675,True,35,1
157K25S4,373,experiment,94,←,left,←,0.4660513000562787,True,35,0
157K25S4,374,experiment,71,←,left,←,0.392469699960202,True,35,0
157K25S4,375,experiment,50,↓,down,↓,0.5353372003883123,True,35,0
157K25S4,376,experiment,83,↑,up,↑,0.6792929000221193,True,35,1
157K25S4,377,experiment,108,↓,down,↓,0.624255099799484,True,35,1
157K25S4,378,experiment,91,↑,up,↑,0.43387219961732626,True,35,1
157K25S4,379,experiment,57,→,right,→,0.5740416003391147,True,35,0
157K25S4,380,experiment,77,↑,up,↑,0.40883259987458587,True,35,1
157K25S4,381,experiment,68,↓,down,↓,0.47931860014796257,True,35,1
157K25S4,382,experiment,79,←,left,←,0.4247527001425624,True,35,1
157K25S4,383,experiment,69,↓,no_key,no_letter,-1.0,False,35,0
157K25S4,384,experiment,95,↑,up,↑,0.613128799945116,True,35,1
157K25S4,385,experiment,99,←,no_key,no_letter,-1.0,False,35,1
157K25S4,386,experiment,61,→,right,→,0.8748661000281572,True,35,1
157K25S4,387,experiment,98,↓,down,↓,0.4166196999140084,True,35,1
157K25S4,388,experiment,64,↓,down,↓,0.47418450005352497,True,35,0
157K25S4,389,experiment,96,↓,down,↓,0.5033021001145244,True,35,1
157K25S4,390,experiment,65,↑,up,↑,0.47034720005467534,True,35,1
157K25S4,391,experiment,92,↑,no_key,no_letter,-1.0,False,35,1
157K25S4,392,experiment,93,↑,up,↑,0.6329727997072041,True,35,1
157K25S4,393,experiment,70,↓,down,↓,0.44211680022999644,True,35,1
157K25S4,394,experiment,49,←,left,←,0.5670012999325991,True,35,0
157K25S4,395,experiment,81,←,left,←,0.40838130004704,True,35,1
157K25S4,396,experiment,101,↑,up,↑,0.3921237997710705,True,35,0
157K25S4,397,experiment,106,←,left,←,0.4175563999451697,True,35,0
157K25S4,398,experiment,53,↑,up,↑,0.5911842999048531,True,35,0
157K25S4,399,experiment,72,↓,no_key,no_letter,-1.0,False,35,1
157K25S4,400,experiment,56,→,right,→,0.43400869984179735,True,35,1
157K25S4,401,experiment,87,↑,up,↑,0.4419547999277711,True,35,0
157K25S4,402,experiment,80,←,left,←,0.3917211997322738,True,35,0
157K25S4,403,experiment,85,←,no_key,no_letter,-1.0,False,35,0
157K25S4,404,experiment,86,←,left,←,0.3756087999790907,True,35,1
157K25S4,405,experiment,59,←,left,←,0.5659071002155542,True,35,0
157K25S4,406,experiment,104,↓,down,↓,0.6533893002197146,True,35,1
157K25S4,407,experiment,89,→,right,→,0.6381991999223828,True,35,1
157K25S4,408,experiment,90,→,right,→,0.4330385001376271,True,35,1
157K25S4,409,experiment,48,←,left,←,0.39939159993082285,True,35,0
157K25S4,410,experiment,52,↑,up,↑,0.6048890999518335,True,35,0
157K25S4,411,experiment,55,↓,down,↓,0.4989836998283863,True,35,1
157K25S4,412,experiment,60,←,left,←,0.5151990000158548,True,35,1
157K25S4,413,experiment,63,↑,up,↑,0.6579892002046108,True,35,1
157K25S4,414,experiment,78,→,right,→,0.42592400033026934,True,35,1
157K25S4,415,experiment,73,→,right,→,0.4336398998275399,True,35,0
157K25S4,416,experiment,51,←,left,←,0.8032846003770828,True,35,0
157K25S4,417,experiment,97,↑,up,↑,0.5234034997411072,True,35,1
157K25S4,418,experiment,76,↑,up,↑,0.41734209982678294,True,35,1
157K25S4,419,training,83,←,left,←,0.507854400202632,True,35,0
157K25S4,420,training,84,←,left,←,0.4690466998144984,True,35,1
157K25S4,421,experiment,79,→,right,→,0.38454299978911877,True,35,1
157K25S4,422,experiment,71,↓,down,↓,0.6723009999841452,True,35,0
157K25S4,423,experiment,92,↓,down,↓,0.5272860997356474,True,35,1
157K25S4,424,experiment,81,↓,left,←,0.559874499682337,False,35,1
157K25S4,425,experiment,52,←,left,←,0.4096975000575185,True,35,1
157K25S4,426,experiment,87,↓,down,↓,0.4682117002084851,True,35,0
157K25S4,427,experiment,84,→,right,→,0.46147280000150204,True,35,1
157K25S4,428,experiment,70,↓,down,↓,0.4088484002277255,True,35,1
157K25S4,429,experiment,108,↑,down,↓,0.4877841998822987,False,35,0
157K25S4,430,experiment,54,↓,down,↓,0.5464157001115382,True,35,1
157K25S4,431,experiment,96,↑,up,↑,0.40816190000623465,True,35,1
157K25S4,432,experiment,98,↓,down,↓,0.5087147001177073,True,35,0
157K25S4,433,experiment,48,←,left,←,0.6245391997508705,True,35,1
157K25S4,434,experiment,97,→,right,→,0.5521610998548567,True,35,1
157K25S4,435,experiment,49,↑,no_key,no_letter,-1.0,False,35,1
157K25S4,436,experiment,103,↑,up,↑,0.6024290998466313,True,35,1
157K25S4,437,experiment,61,←,no_key,no_letter,-1.0,False,35,1
157K25S4,438,experiment,100,↑,up,↑,0.5041400999762118,True,35,1
157K25S4,439,experiment,80,↓,down,↓,0.6181708001531661,True,35,1
157K25S4,440,experiment,104,↓,down,↓,0.5353977000340819,True,35,1
157K25S4,441,experiment,77,←,left,←,0.48111569974571466,True,35,1
157K25S4,442,experiment,66,↑,up,↑,0.4174012001603842,True,35,1
157K25S4,443,experiment,56,→,right,→,0.4774579997174442,True,35,0
157K25S4,444,experiment,57,↑,down,↓,0.6470762002281845,False,35,1
157K25S4,445,experiment,65,↓,down,↓,0.615940900053829,True,35,1
157K25S4,446,experiment,82,↓,no_key,no_letter,-1.0,False,35,1
157K25S4,447,experiment,72,→,right,→,0.4875201000832021,True,35,1
157K25S4,448,experiment,60,↑,up,↑,0.3998553999699652,True,35,1
157K25S4,449,experiment,91,↑,right,→,0.3670272002927959,False,35,0
157K25S4,450,experiment,102,↑,up,↑,0.3838365999981761,True,35,0
157K25S4,451,experiment,62,↓,down,↓,0.590160199906677,True,35,0
157K25S4,452,experiment,107,↓,down,↓,0.5714603001251817,True,35,1
157K25S4,453,experiment,94,↓,down,↓,0.4624335002154112,True,35,1
157K25S4,454,experiment,86,→,right,→,0.5668663997203112,True,35,1
157K25S4,455,experiment,88,←,left,←,0.4331276002340019,True,35,1
157K25S4,456,experiment,95,→,right,→,0.47490180004388094,True,35,0
157K25S4,457,experiment,89,↑,no_key,no_letter,-1.0,False,35,1
157K25S4,458,experiment,106,←,left,←,0.6985206999816,True,35,1
157K25S4,459,experiment,74,←,left,←,0.41720210015773773,True,35,1
157K25S4,460,experiment,64,↓,left,←,0.44201540015637875,False,35,1
157K25S4,461,experiment,76,↓,down,↓,0.49405300011858344,True,35,0
157K25S4,462,experiment,58,→,right,→,0.5511130001395941,True,35,1
157K25S4,463,experiment,93,←,left,←,0.41649540001526475,True,35,1
157K25S4,464,experiment,105,↑,up,↑,0.6475530001334846,True,35,0
157K25S4,465,experiment,101,↑,up,↑,0.5649160002358258,True,35,1
157K25S4,466,experiment,55,←,left,←,0.66010079998523,True,35,1
157K25S4,467,experiment,69,↑,up,↑,0.6434601000510156,True,35,1
157K25S4,468,experiment,50,←,left,←,0.42569709988310933,True,35,1
157K25S4,469,experiment,63,↓,down,↓,0.6039014998823404,True,35,1
157K25S4,470,experiment,68,→,right,→,0.4703048001974821,True,35,1
157K25S4,471,experiment,78,↓,down,↓,0.6732191001065075,True,35,1
157K25S4,472,experiment,83,↓,down,↓,0.4749560998752713,True,35,1
157K25S4,473,experiment,99,↑,up,↑,0.47161030024290085,True,35,1
157K25S4,474,experiment,85,↑,up,↑,0.5612253001891077,True,35,1
157K25S4,475,experiment,73,←,left,←,0.6428443999029696,True,35,1
157K25S4,476,experiment,59,←,left,←,0.5900102001614869,True,35,1
157K25S4,477,experiment,53,→,right,→,0.6852492997422814,True,35,1
157K25S4,478,experiment,51,↑,up,↑,0.43365770019590855,True,35,1
157K25S4,479,experiment,75,←,left,←,0.35817320039495826,True,35,0
157K25S4,480,experiment,90,←,left,←,0.3257098002359271,True,35,0
157K25S4,481,experiment,67,↑,up,↑,0.6720414999872446,True,35,1
157K25S4,482,training,48,↑,up,↑,0.5319517999887466,True,35,0
157K25S4,483,training,68,↓,down,↓,0.7286586002446711,True,35,1
157K25S4,484,experiment,55,↓,down,↓,0.497772800270468,True,35,1
157K25S4,485,experiment,106,↓,down,↓,0.6030468996614218,True,35,1
157K25S4,486,experiment,60,↓,no_key,no_letter,-1.0,False,35,1
157K25S4,487,experiment,57,→,right,→,0.5994134000502527,True,35,1
157K25S4,488,experiment,92,→,right,→,0.7374999998137355,True,35,1
157K25S4,489,experiment,99,↓,down,↓,0.5554247000254691,True,35,1
157K25S4,490,experiment,75,→,right,→,0.46881579980254173,True,35,1
157K25S4,491,experiment,81,↓,down,↓,0.4413737999275327,True,35,1
157K25S4,492,experiment,108,→,right,→,0.4333927999250591,True,35,0
157K25S4,493,experiment,82,↑,up,↑,0.6936241001822054,True,35,0
157K25S4,494,experiment,98,→,right,→,0.4820479000918567,True,35,1
157K25S4,495,experiment,64,↓,down,↓,0.5381045998074114,True,35,1
157K25S4,496,experiment,48,←,left,←,0.44216700037941337,True,35,1
157K25S4,497,experiment,88,←,left,←,0.41717129992321134,True,35,0
157K25S4,498,experiment,71,↓,down,↓,0.6059463997371495,True,35,0
157K25S4,499,experiment,105,←,left,←,0.36698530009016395,True,35,1
157K25S4,500,experiment,107,→,right,→,0.5771522000432014,True,35,0
157K25S4,501,experiment,69,←,left,←,0.6680792002007365,True,35,1
157K25S4,502,experiment,100,↓,down,↓,0.7927214996889234,True,35,1
157K25S4,503,experiment,79,←,left,←,0.38343620020896196,True,35,1
157K25S4,504,experiment,73,→,right,→,0.6234361999668181,True,35,0
157K25S4,505,experiment,59,←,left,←,0.5551918996497989,True,35,1
157K25S4,506,experiment,66,↓,down,↓,0.7518799002282321,True,35,1
157K25S4,507,experiment,67,↑,up,↑,0.48395869974046946,True,35,1
157K25S4,508,experiment,102,→,right,→,0.487155900336802,True,35,1
157K25S4,509,experiment,63,→,right,→,0.6075034998357296,True,35,1
157K25S4,510,experiment,65,↓,left,←,0.6741546997800469,False,35,1
157K25S4,511,experiment,87,↑,up,↑,0.4829168999567628,True,35,1
157K25S4,512,experiment,53,↓,no_key,no_letter,-1.0,False,35,1
157K25S4,513,experiment,83,→,right,→,0.4424324003048241,True,35,1
157K25S4,514,experiment,50,←,right,→,0.6430913000367582,False,35,0
157K25S4,515,experiment,101,←,left,←,0.7286002999171615,True,35,1
157K25S4,516,experiment,52,←,left,←,0.6589192999526858,True,35,1
157K25S4,517,experiment,54,↓,right,→,0.7348752999678254,False,35,1
157K25S4,518,experiment,49,←,left,←,0.48195929965004325,True,35,1
157K25S4,519,experiment,86,←,left,←,0.6107644001021981,True,35,1
157K25S4,520,experiment,97,←,left,←,0.6264098999090493,True,35,1
157K25S4,521,experiment,104,→,right,→,0.43333199992775917,True,35,1
157K25S4,522,experiment,103,←,left,←,0.4004910998046398,True,35,0
157K25S4,523,experiment,76,←,left,←,0.3834220999851823,True,35,0
157K25S4,524,experiment,78,↓,down,↓,0.4900417998433113,True,35,0
157K25S4,525,experiment,91,↓,down,↓,0.43394350027665496,True,35,1
157K25S4,526,experiment,56,↓,no_key,no_letter,-1.0,False,35,0
157K25S4,527,experiment,89,→,right,→,0.497745200060308,True,35,1
157K25S4,528,experiment,77,↑,up,↑,0.7488903999328613,True,35,1
157K25S4,529,experiment,58,←,left,←,0.6200246000662446,True,35,1
157K25S4,530,experiment,80,→,no_key,no_letter,-1.0,False,35,1
157K25S4,531,experiment,90,←,right,→,0.6465088999830186,False,35,1
157K25S4,532,experiment,93,↓,down,↓,0.48576040007174015,True,35,1
157K25S4,533,experiment,85,←,left,←,0.42548689991235733,True,35,1
157K25S4,534,experiment,62,↑,up,↑,0.7451924998313189,True,35,0
157K25S4,535,experiment,96,↑,down,↓,0.6442705001682043,False,35,1
157K25S4,536,experiment,70,↑,no_key,no_letter,-1.0,False,35,1
157K25S4,537,experiment,61,↓,down,↓,0.6584573998115957,True,35,1
157K25S4,538,experiment,51,↑,up,↑,0.47985210036858916,True,35,1
157K25S4,539,experiment,72,↓,down,↓,0.46939830016344786,True,35,1
157K25S4,540,experiment,95,→,right,→,0.6346803000196815,True,35,1
157K25S4,541,experiment,84,↓,down,↓,0.5581360999494791,True,35,1
157K25S4,542,experiment,74,↓,down,↓,0.7598863998427987,True,35,1
157K25S4,543,experiment,68,↓,up,↑,0.6592096998356283,False,35,1
157K25S4,544,experiment,94,↑,up,↑,0.6023142002522945,True,35,1
157K25S4,545,training,97,→,right,→,0.611387399956584,True,35,0
157K25S4,546,training,84,↑,up,↑,0.6156665999442339,True,35,1
157K25S4,547,experiment,63,↑,up,↑,0.6185646001249552,True,35,1
157K25S4,548,experiment,62,←,left,←,0.6457752999849617,True,35,1
157K25S4,549,experiment,64,→,right,→,0.48736630007624626,True,35,1
157K25S4,550,experiment,101,←,left,←,0.42553400015458465,True,35,1
157K25S4,551,experiment,89,↓,down,↓,0.4999758000485599,True,35,1
157K25S4,552,experiment,61,↓,down,↓,0.6604605000466108,True,35,1
157K25S4,553,experiment,65,←,left,←,0.42574110021814704,True,35,1
157K25S4,554,experiment,81,↑,up,↑,0.5690379999577999,True,35,0
157K25S4,555,experiment,66,↓,down,↓,0.6209494997747242,True,35,1
157K25S4,556,experiment,103,←,left,←,0.554547700099647,True,35,1
157K25S4,557,experiment,102,↑,up,↑,0.5065776999108493,True,35,1
157K25S4,558,experiment,91,↑,up,↑,0.5525584002025425,True,35,1
157K25S4,559,experiment,85,←,left,←,0.5352250998839736,True,35,1
157K25S4,560,experiment,98,→,right,→,0.6176428999751806,True,35,1
157K25S4,561,experiment,77,→,right,→,0.6642332999035716,True,35,1
157K25S4,562,experiment,106,↑,up,↑,0.8028156999498606,True,35,1
157K25S4,563,experiment,75,←,left,←,0.42575389984995127,True,35,1
157K25S4,564,experiment,82,←,left,←,0.4001301000826061,True,35,0
157K25S4,565,experiment,72,↑,up,↑,0.5990451998077333,True,35,0
157K25S4,566,experiment,96,↓,down,↓,0.6791901001706719,True,35,1
157K25S4,567,experiment,108,←,left,←,0.5926210000179708,True,35,1
157K25S4,568,experiment,84,→,right,→,0.3916942998766899,True,35,1
157K25S4,569,experiment,54,←,left,←,0.588166699744761,True,35,0
157K25S4,570,experiment,58,↑,up,↑,0.5535210999660194,True,35,1
157K25S4,571,experiment,93,←,no_key,no_letter,-1.0,False,35,1
157K25S4,572,experiment,55,↓,down,↓,0.5893262000754476,True,35,1
157K25S4,573,experiment,79,←,left,←,0.3335748999379575,True,35,1
157K25S4,574,experiment,68,→,right,→,0.46468430012464523,True,35,0
157K25S4,575,experiment,95,←,right,→,0.6698522004298866,False,35,1
157K25S4,576,experiment,70,→,right,→,0.40883390000090003,True,35,1
157K25S4,577,experiment,83,←,left,←,0.6170919998548925,True,35,1
157K25S4,578,experiment,59,↓,down,↓,0.48513649962842464,True,35,1
157K25S4,579,experiment,69,←,left,←,0.5793229998089373,True,35,1
157K25S4,580,experiment,78,→,right,→,0.4005192001350224,True,35,1
157K25S4,581,experiment,48,←,left,←,0.5227188002318144,True,35,0
157K25S4,582,experiment,100,↑,up,↑,0.4779725996777415,True,35,1
157K25S4,583,experiment,90,→,right,→,0.4006747999228537,True,35,1
157K25S4,584,experiment,49,→,left,←,0.5005786996334791,False,35,0
157K25S4,585,experiment,50,↓,down,↓,0.6162902000360191,True,35,1
157K25S4,586,experiment,57,↑,down,↓,0.8609305000863969,False,35,1
157K25S4,587,experiment,51,←,left,←,0.42476959992200136,True,35,1
157K25S4,588,experiment,94,↑,up,↑,0.6505267997272313,True,35,0
157K25S4,589,experiment,87,→,right,→,0.4090240001678467,True,35,1
157K25S4,590,experiment,86,↓,down,↓,0.5913833002559841,True,35,0
157K25S4,591,experiment,105,→,left,←,0.5650067003443837,False,35,1
157K25S4,592,experiment,88,↓,down,↓,0.537731799762696,True,35,1
157K25S4,593,experiment,80,←,right,→,0.6979943001642823,False,35,1
157K25S4,594,experiment,74,→,right,→,0.46283460035920143,True,35,1
157K25S4,595,experiment,97,←,left,←,0.38406569976359606,True,35,1
157K25S4,596,experiment,52,↓,down,↓,0.5229525999166071,True,35,0
157K25S4,597,experiment,104,↓,down,↓,0.5880683003924787,True,35,1
157K25S4,598,experiment,76,↑,up,↑,0.5633962997235358,True,35,1
157K25S4,599,experiment,53,→,left,←,0.5634694001637399,False,35,1
157K25S4,600,experiment,60,←,left,←,0.7378788003697991,True,35,1
157K25S4,601,experiment,56,↓,down,↓,0.47406400041654706,True,35,1
157K25S4,602,experiment,92,→,right,→,0.656899600289762,True,35,1
157K25S4,603,experiment,99,↑,up,↑,0.47824900038540363,True,35,1
157K25S4,604,experiment,71,→,right,→,0.7155625997111201,True,35,1
157K25S4,605,experiment,67,←,left,←,0.6413671998307109,True,35,1
157K25S4,606,experiment,73,↓,down,↓,0.5118530998006463,True,35,1
157K25S4,607,experiment,107,↑,up,↑,0.44217259995639324,True,35,1
157K25S4,608,training,88,→,right,→,0.7350637000054121,True,35,0
157K25S4,609,training,108,←,no_key,no_letter,-1.0,False,35,1
157K25S4,610,experiment,103,←,left,←,0.5349845997989178,True,35,1
157K25S4,611,experiment,71,↓,down,↓,0.4423595000989735,True,35,1
157K25S4,612,experiment,98,↓,down,↓,0.5364795997738838,True,35,0
157K25S4,613,experiment,73,→,right,→,0.6674482999369502,True,35,1
157K25S4,614,experiment,75,↓,down,↓,0.5927332998253405,True,35,1
157K25S4,615,experiment,96,↑,up,↑,0.47396499989554286,True,35,1
157K25S4,616,experiment,48,←,left,←,0.4785907999612391,True,35,1
157K25S4,617,experiment,105,↓,down,↓,0.4171393997967243,True,35,1
157K25S4,618,experiment,82,←,left,←,0.5093554998748004,True,35,1
157K25S4,619,experiment,57,←,left,←,0.4255424998700619,True,35,1
157K25S4,620,experiment,56,←,right,→,0.6511473003774881,False,35,0
157K25S4,621,experiment,70,←,left,←,0.5624175001867115,True,35,1
157K25S4,622,experiment,72,↓,down,↓,0.7081402000039816,True,35,1
157K25S4,623,experiment,68,→,no_key,no_letter,-1.0,False,35,1
157K25S4,624,experiment,83,↑,no_key,no_letter,-1.0,False,35,1
157K25S4,625,experiment,104,↑,up,↑,0.6569918999448419,True,35,1
157K25S4,626,experiment,84,↑,up,↑,0.5552083998918533,True,35,1
157K25S4,627,experiment,58,↓,no_key,no_letter,-1.0,False,35,1
157K25S4,628,experiment,81,↑,up,↑,0.5458858995698392,True,35,1
157K25S4,629,experiment,102,←,left,←,0.6105055999942124,True,35,1
157K25S4,630,experiment,55,→,no_key,no_letter,-1.0,False,35,1
157K25S4,631,experiment,101,←,left,←,0.6017732000909746,True,35,1
157K25S4,632,experiment,88,←,left,←,0.5649636001326144,True,35,1
157K25S4,633,experiment,85,↓,down,↓,0.6348464996553957,True,35,1
157K25S4,634,experiment,49,↓,down,↓,0.8095162999816239,True,35,1
157K25S4,635,experiment,91,↑,up,↑,0.4601418999955058,True,35,1
157K25S4,636,experiment,74,↓,down,↓,0.4422133001498878,True,35,0
157K25S4,637,experiment,95,→,right,→,0.5920063001103699,True,35,0
157K25S4,638,experiment,65,←,left,←,0.4756081001833081,True,35,1
157K25S4,639,experiment,59,↑,up,↑,0.6925286003388464,True,35,1
157K25S4,640,experiment,87,↓,down,↓,0.508519500028342,True,35,1
157K25S4,641,experiment,94,↑,up,↑,0.44225959992036223,True,35,1
157K25S4,642,experiment,77,↑,up,↑,0.6303046997636557,True,35,0
157K25S4,643,experiment,60,→,right,→,0.4896944002248347,True,35,1
157K25S4,644,experiment,80,→,right,→,0.5480706002563238,True,35,1
157K25S4,645,experiment,51,↑,up,↑,0.5573861002922058,True,35,1
157K25S4,646,experiment,69,←,left,←,0.3669304000213742,True,35,1
157K25S4,647,experiment,93,←,left,←,0.5312441997230053,True,35,0
157K25S4,648,experiment,67,←,right,→,0.5442034001462162,False,35,1
157K25S4,649,experiment,79,↑,up,↑,0.5850662002339959,True,35,1
157K25S4,650,experiment,63,↓,down,↓,0.4775409996509552,True,35,1
157K25S4,651,experiment,64,↑,no_key,no_letter,-1.0,False,35,1
157K25S4,652,experiment,92,→,right,→,0.6970123997889459,True,35,1
157K25S4,653,experiment,53,↑,up,↑,0.5239681000821292,True,35,1
157K25S4,654,experiment,100,↑,up,↑,0.5262404000386596,True,35,1
157K25S4,655,experiment,66,↑,up,↑,0.40912440000101924,True,35,1
157K25S4,656,experiment,89,↑,up,↑,0.7023052000440657,True,35,0
157K25S4,657,experiment,50,↑,up,↑,0.674207600299269,True,35,1
157K25S4,658,experiment,106,↑,up,↑,0.46046119974926114,True,35,1
157K25S4,659,experiment,86,↑,up,↑,0.5659934999421239,True,35,0
157K25S4,660,experiment,99,↓,down,↓,0.6146432999521494,True,35,1
157K25S4,661,experiment,62,↑,up,↑,0.7139995000325143,True,35,1
157K25S4,662,experiment,52,←,left,←,0.5567119000479579,True,35,1
157K25S4,663,experiment,76,←,left,←,0.6694320999085903,True,35,1
157K25S4,664,experiment,61,→,right,→,0.5191520000807941,True,35,1
157K25S4,665,experiment,54,↓,down,↓,0.5451791002415121,True,35,1
157K25S4,666,experiment,108,→,right,→,0.5441674999892712,True,35,1
157K25S4,667,experiment,97,←,left,←,0.43319359980523586,True,35,1
157K25S4,668,experiment,107,↓,down,↓,0.5498951002955437,True,35,0
157K25S4,669,experiment,78,→,right,→,0.6067731999792159,True,35,1
157K25S4,670,experiment,90,←,left,←,0.5375500000081956,True,35,1
157K25S4,671,training,94,←,left,←,0.5671927998773754,True,35,0
157K25S4,672,training,55,↑,up,↑,0.7987417997792363,True,35,1
157K25S4,673,experiment,84,↑,up,↑,0.6434729997999966,True,35,1
157K25S4,674,experiment,56,←,left,←,0.5037623001262546,True,35,1
157K25S4,675,experiment,82,↓,down,↓,0.8092081001959741,True,35,1
157K25S4,676,experiment,94,↑,up,↑,0.3922162000089884,True,35,1
157K25S4,677,experiment,98,→,no_key,no_letter,-1.0,False,35,0
157K25S4,678,experiment,80,↓,down,↓,0.5220273998565972,True,35,1
157K25S4,679,experiment,76,↑,down,↓,0.6044862000271678,False,35,1
157K25S4,680,experiment,92,↓,down,↓,0.6057076998986304,True,35,1
157K25S4,681,experiment,66,↑,up,↑,0.3914833003655076,True,35,1
157K25S4,682,experiment,103,↓,down,↓,0.5102566001005471,True,35,0
157K25S4,683,experiment,78,↓,down,↓,0.5368503001518548,True,35,1
157K25S4,684,experiment,65,↓,down,↓,0.6623330996371806,True,35,1
157K25S4,685,experiment,81,↑,up,↑,0.801057499833405,True,35,1
157K25S4,686,experiment,87,↑,up,↑,0.5571288000792265,True,35,1
157K25S4,687,experiment,89,→,right,→,0.6413210998289287,True,35,1
157K25S4,688,experiment,72,←,left,←,0.4885170999914408,True,35,1
157K25S4,689,experiment,63,↓,down,↓,0.5605419999919832,True,35,1
157K25S4,690,experiment,108,→,no_key,no_letter,-1.0,False,35,1
157K25S4,691,experiment,67,→,left,←,0.6910002999939024,False,35,1
157K25S4,692,experiment,85,↑,up,↑,0.5876722000539303,True,35,1
157K25S4,693,experiment,97,↑,up,↑,0.8206358999013901,True,35,1
157K25S4,694,experiment,52,↓,down,↓,0.6032353001646698,True,35,1
157K25S4,695,experiment,77,→,right,→,0.5140748000703752,True,35,1
157K25S4,696,experiment,107,←,left,←,0.5142307002097368,True,35,1
157K25S4,697,experiment,60,→,right,→,0.6821809001266956,True,35,1
157K25S4,698,experiment,73,→,right,→,0.3764424999244511,True,35,1
157K25S4,699,experiment,90,↓,down,↓,0.47400989988818765,True,35,0
157K25S4,700,experiment,54,↑,up,↑,0.5896171000786126,True,35,1
157K25S4,701,experiment,88,↑,up,↑,0.47326230024918914,True,35,1
157K25S4,702,experiment,91,→,no_key,no_letter,-1.0,False,35,1
157K25S4,703,experiment,57,→,left,←,0.6082537001930177,False,35,1
157K25S4,704,experiment,99,↑,up,↑,0.4339195000939071,True,35,1
157K25S4,705,experiment,74,↓,down,↓,0.6302030002698302,True,35,0
157K25S4,706,experiment,83,←,left,←,0.3672315999865532,True,35,1
157K25S4,707,experiment,102,↑,up,↑,0.5772609999403358,True,35,0
157K25S4,708,experiment,95,←,no_key,no_letter,-1.0,False,35,1
157K25S4,709,experiment,79,→,right,→,0.6035060002468526,True,35,1
157K25S4,710,experiment,62,↓,down,↓,0.4871653001755476,True,35,1
157K25S4,711,experiment,71,↓,down,↓,0.49280779995024204,True,35,1
157K25S4,712,experiment,75,→,right,→,0.48072149977087975,True,35,1
157K25S4,713,experiment,55,←,no_key,no_letter,-1.0,False,35,1
157K25S4,714,experiment,61,↓,left,←,0.6736102998256683,False,35,1
157K25S4,715,experiment,49,→,right,→,0.4870027997530997,True,35,1
157K25S4,716,experiment,58,↑,up,↑,0.6644895002245903,True,35,1
157K25S4,717,experiment,96,→,left,←,0.5024644997902215,False,35,1
157K25S4,718,experiment,86,←,left,←,0.534400999546051,True,35,1
157K25S4,719,experiment,70,←,left,←,0.6503532999195158,True,35,1
157K25S4,720,experiment,48,→,no_key,no_letter,-1.0,False,35,1
157K25S4,721,experiment,53,→,right,→,0.5620013000443578,True,35,1
157K25S4,722,experiment,100,←,left,←,0.42479060031473637,True,35,1
157K25S4,723,experiment,50,↑,up,↑,0.7610735003836453,True,35,0
157K25S4,724,experiment,64,↓,down,↓,0.8144180001690984,True,35,1
157K25S4,725,experiment,51,↑,up,↑,0.5969803002662957,True,35,1
157K25S4,726,experiment,104,↑,up,↑,0.5790031999349594,True,35,1
157K25S4,727,experiment,59,←,right,→,0.9046423998661339,False,35,1
157K25S4,728,experiment,93,→,left,←,0.6620998997241259,False,35,1
157K25S4,729,experiment,69,↓,down,↓,0.5571943996474147,True,35,1
157K25S4,730,experiment,101,←,left,←,0.5896820998750627,True,35,1
157K25S4,731,experiment,68,↑,up,↑,0.4644188997335732,True,35,1
157K25S4,732,experiment,106,↑,down,↓,0.586699899751693,False,35,0
157K25S4,733,experiment,105,↑,up,↑,0.8251945003867149,True,35,1
157K25S4,734,training,51,↓,down,↓,0.5700755002908409,True,35,0
157K25S4,735,training,48,←,left,←,0.5795614998787642,True,35,1
157K25S4,736,experiment,84,←,left,←,0.4338666000403464,True,35,1
157K25S4,737,experiment,99,→,right,→,0.6634318996220827,True,35,1
157K25S4,738,experiment,85,↓,down,↓,0.47307389974594116,True,35,1
157K25S4,739,experiment,54,↓,no_key,no_letter,-1.0,False,35,1
157K25S4,740,experiment,86,↑,up,↑,0.5383310001343489,True,35,1
157K25S4,741,experiment,49,↑,up,↑,0.40861150017008185,True,35,1
157K25S4,742,experiment,94,↓,down,↓,0.5257604997605085,True,35,0
157K25S4,743,experiment,104,←,left,←,0.6384796001948416,True,35,1
157K25S4,744,experiment,50,→,no_key,no_letter,-1.0,False,35,1
157K25S4,745,experiment,92,←,left,←,0.40989149967208505,True,35,1
157K25S4,746,experiment,89,→,no_key,no_letter,-1.0,False,35,0
157K25S4,747,experiment,48,↓,down,↓,0.47751769982278347,True,35,1
157K25S4,748,experiment,55,↓,down,↓,0.5686977999284863,True,35,1
157K25S4,749,experiment,72,↑,up,↑,0.4003808000124991,True,35,1
157K25S4,750,experiment,53,↓,down,↓,0.5530639002099633,True,35,0
157K25S4,751,experiment,71,←,left,←,0.49214900005608797,True,35,1
157K25S4,752,experiment,67,↓,down,↓,0.8348228000104427,True,35,1
157K25S4,753,experiment,103,→,right,→,0.48805540008470416,True,35,1
157K25S4,754,experiment,64,↑,up,↑,0.4259378002025187,True,35,1
157K25S4,755,experiment,75,←,left,←,0.565751800313592,True,35,0
157K25S4,756,experiment,79,↑,up,↑,0.557237199973315,True,35,1
157K25S4,757,experiment,62,↓,down,↓,0.4985996000468731,True,35,1
157K25S4,758,experiment,97,↑,no_key,no_letter,-1.0,False,35,1
157K25S4,759,experiment,101,→,right,→,0.4726018998771906,True,35,1
157K25S4,760,experiment,105,↑,up,↑,0.5229432000778615,True,35,1
157K25S4,761,experiment,78,→,right,→,0.660600199829787,True,35,1
157K25S4,762,experiment,59,→,right,→,0.6308526997454464,True,35,1
157K25S4,763,experiment,58,↑,up,↑,0.5470390003174543,True,35,1
157K25S4,764,experiment,63,↓,down,↓,0.6489209998399019,True,35,1
157K25S4,765,experiment,96,←,left,←,0.5190985002554953,True,35,1
157K25S4,766,experiment,76,↑,up,↑,0.8976704999804497,True,35,1
157K25S4,767,experiment,98,←,left,←,0.6617764001712203,True,35,1
157K25S4,768,experiment,51,→,right,→,1.1790930000133812,True,35,1
157K25S4,769,experiment,100,↓,down,↓,0.666964900214225,True,35,1
157K25S4,770,experiment,60,↑,up,↑,0.42587639996781945,True,35,1
157K25S4,771,experiment,81,←,left,←,0.4009459000080824,True,35,0
157K25S4,772,experiment,107,→,right,→,0.4780439003370702,True,35,0
157K25S4,773,experiment,90,↑,up,↑,0.4166999999433756,True,35,1
157K25S4,774,experiment,70,→,right,→,0.7659280998632312,True,35,0
157K25S4,775,experiment,69,↑,up,↑,0.4097349001094699,True,35,1
157K25S4,776,experiment,95,←,left,←,0.37502759974449873,True,35,0
157K25S4,777,experiment,57,↑,up,↑,0.38332519959658384,True,35,0
157K25S4,778,experiment,88,←,left,←,0.5701954001560807,True,35,0
157K25S4,779,experiment,80,↑,up,↑,0.5615419996902347,True,35,1
157K25S4,780,experiment,77,↑,up,↑,0.810018299613148,True,35,1
157K25S4,781,experiment,56,↓,down,↓,0.5117333000525832,True,35,1
157K25S4,782,experiment,61,→,right,→,0.47208530036732554,True,35,1
157K25S4,783,experiment,68,↓,down,↓,0.6545309000648558,True,35,1
157K25S4,784,experiment,66,←,left,←,0.58281429996714,True,35,1
157K25S4,785,experiment,108,→,right,→,0.4423700999468565,True,35,1
157K25S4,786,experiment,73,↓,down,↓,0.6023368998430669,True,35,0
157K25S4,787,experiment,65,→,right,→,0.5177964996546507,True,35,1
157K25S4,788,experiment,93,→,right,→,0.6184741999022663,True,35,1
157K25S4,789,experiment,74,↑,up,↑,0.4345334996469319,True,35,1
157K25S4,790,experiment,82,↓,down,↓,0.7010728996247053,True,35,0
157K25S4,791,experiment,91,↓,down,↓,0.46764650009572506,True,35,1
157K25S4,792,experiment,102,→,right,→,0.4790193997323513,True,35,1
157K25S4,793,experiment,87,←,left,←,0.6712234998121858,True,35,1
157K25S4,794,experiment,52,↓,down,↓,0.6273282999172807,True,35,1
157K25S4,795,experiment,106,↓,down,↓,0.5199445001780987,True,35,1
157K25S4,796,experiment,83,↑,up,↑,0.7679985002614558,True,35,1
157K25S4,797,training,63,→,right,→,0.5649615000002086,True,34,0
157K25S4,798,training,87,→,left,←,0.5696159000508487,False,34,1
157K25S4,799,experiment,70,←,left,←,0.6361654000356793,True,34,1
157K25S4,800,experiment,90,↑,up,↑,0.4544973000884056,True,34,1
157K25S4,801,experiment,73,↑,up,↑,0.49156140023842454,True,34,0
157K25S4,802,experiment,58,↓,down,↓,0.6690540998242795,True,34,1
157K25S4,803,experiment,93,↑,up,↑,0.4760145000182092,True,34,1
157K25S4,804,experiment,98,↓,down,↓,0.4972397000528872,True,34,1
157K25S4,805,experiment,89,←,left,←,0.5603283001109958,True,34,1
157K25S4,806,experiment,59,↑,up,↑,0.4710345002822578,True,34,1
157K25S4,807,experiment,65,↑,up,↑,0.806791600305587,True,34,1
157K25S4,808,experiment,81,→,right,→,0.4523633997887373,True,34,1
157K25S4,809,experiment,91,↑,up,↑,0.4607019000686705,True,34,1
157K25S4,810,experiment,94,↓,down,↓,0.5788704003207386,True,34,1
157K25S4,811,experiment,52,→,right,→,0.722463299985975,True,34,1
157K25S4,812,experiment,83,↓,down,↓,0.3914489997550845,True,34,1
157K25S4,813,experiment,77,←,left,←,0.4657588000409305,True,34,0
157K25S4,814,experiment,86,←,left,←,0.43340579979121685,True,34,1
157K25S4,815,experiment,92,↓,no_key,no_letter,-1.0,False,34,0
157K25S4,816,experiment,105,←,left,←,0.3923876998014748,True,34,1
157K25S4,817,experiment,82,←,left,←,0.3924064999446273,True,34,0
157K25S4,818,experiment,69,↓,down,↓,0.40884350007399917,True,34,0
157K25S4,819,experiment,85,→,left,←,0.34221789985895157,False,34,0
157K25S4,820,experiment,95,↑,up,↑,0.4648104999214411,True,34,0
157K25S4,821,experiment,49,↓,down,↓,0.4164851997047663,True,34,1
157K25S4,822,experiment,88,←,left,←,0.3674456998705864,True,34,0
157K25S4,823,experiment,97,↑,up,↑,0.7051914003677666,True,34,0
157K25S4,824,experiment,60,→,right,→,0.5933912000618875,True,34,1
157K25S4,825,experiment,62,↑,down,↓,0.48572730040177703,False,34,1
157K25S4,826,experiment,54,→,right,→,0.6171162999235094,True,34,1
157K25S4,827,experiment,48,↓,up,↑,0.5126014999113977,False,34,1
157K25S4,828,experiment,76,↑,up,↑,0.4005145002156496,True,34,1
157K25S4,829,experiment,50,↑,up,↑,0.40915080020204186,True,34,0
157K25S4,830,experiment,74,↓,down,↓,0.6103408997878432,True,34,1
157K25S4,831,experiment,63,→,right,→,0.6452605999074876,True,34,1
157K25S4,832,experiment,107,→,right,→,0.6168317999690771,True,34,1
157K25S4,833,experiment,56,←,left,←,0.534264300018549,True,34,1
157K25S4,834,experiment,96,↑,up,↑,0.561130200047046,True,34,1
157K25S4,835,experiment,101,←,left,←,0.6659293998964131,True,34,1
157K25S4,836,experiment,78,↑,no_key,no_letter,-1.0,False,34,1
157K25S4,837,experiment,55,←,left,←,0.5987218003720045,True,34,1
157K25S4,838,experiment,79,↑,up,↑,0.5089928000234067,True,34,1
157K25S4,839,experiment,72,↓,down,↓,0.4973322004079819,True,34,1
157K25S4,840,experiment,103,←,left,←,0.5798125001601875,True,34,1
157K25S4,841,experiment,99,←,left,←,0.4527657995931804,True,34,1
157K25S4,842,experiment,84,→,no_key,no_letter,-1.0,False,34,0
157K25S4,843,experiment,53,←,left,←,0.4956954000517726,True,34,1
157K25S4,844,experiment,106,←,left,←,0.408101299777627,True,34,1
157K25S4,845,experiment,51,←,no_key,no_letter,-1.0,False,34,0
157K25S4,846,experiment,57,→,left,←,0.5283408998511732,False,34,1
157K25S4,847,experiment,80,↓,left,←,0.7051502000540495,False,34,1
157K25S4,848,experiment,66,←,left,←,0.43356919987127185,True,34,1
157K25S4,849,experiment,87,↓,down,↓,0.5455908002331853,True,34,1
157K25S4,850,experiment,108,←,left,←,0.57623720029369,True,34,1
157K25S4,851,experiment,100,↓,down,↓,0.6003693998791277,True,34,1
157K25S4,852,experiment,68,→,right,→,0.48262999998405576,True,34,1
157K25S4,853,experiment,64,↑,up,↑,0.4742963002063334,True,34,1
157K25S4,854,experiment,61,←,left,←,0.3754117996431887,True,34,1
157K25S4,855,experiment,75,→,no_key,no_letter,-1.0,False,34,0
157K25S4,856,experiment,102,↑,up,↑,0.6126999002881348,True,34,1
157K25S4,857,experiment,67,↑,up,↑,0.4631260000169277,True,34,1
157K25S4,858,experiment,71,↑,up,↑,0.45360299991443753,True,34,1
157K25S4,859,experiment,104,←,left,←,0.5443560997955501,True,34,1
157K25S4,860,training,59,↓,up,↑,0.49826870020478964,False,34,0
157K25S4,861,training,52,←,left,←,0.40881310030817986,True,34,1
157K25S4,862,experiment,106,→,right,→,0.6899594999849796,True,34,0
157K25S4,863,experiment,107,←,left,←,0.3921786001883447,True,34,1
157K25S4,864,experiment,53,↓,right,→,0.7063396000303328,False,34,0
157K25S4,865,experiment,67,↑,up,↑,0.5283488999120891,True,34,1
157K25S4,866,experiment,70,←,left,←,0.3755417000502348,True,34,1
157K25S4,867,experiment,49,→,right,→,0.45332320034503937,True,34,0
157K25S4,868,experiment,90,↑,up,↑,0.43383209966123104,True,34,0
157K25S4,869,experiment,82,↓,up,↑,0.5928338998928666,False,34,0
157K25S4,870,experiment,101,↑,up,↑,0.560408600140363,True,34,1
157K25S4,871,experiment,65,→,right,→,0.4773189998231828,True,34,1
157K25S4,872,experiment,76,↑,up,↑,0.3669672003015876,True,34,1
157K25S4,873,experiment,63,↑,up,↑,0.66140679968521,True,34,0
157K25S4,874,experiment,59,→,left,←,0.5518315997906029,False,34,1
157K25S4,875,experiment,96,↓,down,↓,0.4986899998039007,True,34,1
157K25S4,876,experiment,105,→,right,→,0.6602419000118971,True,34,1
157K25S4,877,experiment,75,→,right,→,0.46555230021476746,True,34,1
157K25S4,878,experiment,100,←,left,←,0.5980963003821671,True,34,1
157K25S4,879,experiment,48,↑,up,↑,0.5826898999512196,True,34,1
157K25S4,880,experiment,73,←,left,←,0.7278946000151336,True,34,1
157K25S4,881,experiment,64,→,right,→,0.6064561996608973,True,34,1
157K25S4,882,experiment,55,↓,down,↓,0.46810009982436895,True,34,1
157K25S4,883,experiment,83,↓,down,↓,0.5581142003647983,True,34,1
157K25S4,884,experiment,58,←,right,→,0.6609542998485267,False,34,1
157K25S4,885,experiment,51,↓,down,↓,0.4902953002601862,True,34,1
157K25S4,886,experiment,108,↑,right,→,0.715567999985069,False,34,1
157K25S4,887,experiment,88,→,left,←,0.6499251998029649,False,34,1
157K25S4,888,experiment,95,↓,down,↓,0.5288328998722136,True,34,1
157K25S4,889,experiment,91,↓,no_key,no_letter,-1.0,False,34,1
157K25S4,890,experiment,93,→,right,→,0.4663941999897361,True,34,1
157K25S4,891,experiment,99,←,no_key,no_letter,-1.0,False,34,1
157K25S4,892,experiment,102,↑,up,↑,0.8245353996753693,True,34,1
157K25S4,893,experiment,80,↓,down,↓,0.5733686001040041,True,34,1
157K25S4,894,experiment,52,↓,down,↓,0.6379169998690486,True,34,1
157K25S4,895,experiment,74,←,left,←,0.5162992002442479,True,34,1
157K25S4,896,experiment,92,↑,up,↑,0.46549430023878813,True,34,1
157K25S4,897,experiment,57,↓,down,↓,0.5800340999849141,True,34,1
157K25S4,898,experiment,60,↓,down,↓,0.5536034000106156,True,34,1
157K25S4,899,experiment,69,↓,down,↓,0.5489179999567568,True,34,1
157K25S4,900,experiment,104,↓,up,↑,0.5328575000166893,False,34,1
157K25S4,901,experiment,72,→,right,→,0.4256843002513051,True,34,1
157K25S4,902,experiment,84,↑,up,↑,0.595437700394541,True,34,1
157K25S4,903,experiment,56,←,left,←,0.4330448000691831,True,34,1
157K25S4,904,experiment,62,↓,down,↓,0.523448399733752,True,34,0
157K25S4,905,experiment,94,↓,down,↓,0.6078364001587033,True,34,1
157K25S4,906,experiment,50,↑,up,↑,0.5514278998598456,True,34,1
157K25S4,907,experiment,77,↓,down,↓,0.7363223000429571,True,34,1
157K25S4,908,experiment,54,↑,up,↑,0.43326389975845814,True,34,1
157K25S4,909,experiment,68,↓,down,↓,0.8178244000300765,True,34,0
157K25S4,910,experiment,89,↓,down,↓,0.47631079982966185,True,34,1
157K25S4,911,experiment,61,←,left,←,0.4853592999279499,True,34,1
157K25S4,912,experiment,81,↓,left,←,0.7917283996939659,False,34,1
157K25S4,913,experiment,97,→,right,→,0.5364585001952946,True,34,1
157K25S4,914,experiment,85,→,right,→,0.5752563001587987,True,34,1
157K25S4,915,experiment,98,←,left,←,0.43332230020314455,True,34,1
157K25S4,916,experiment,66,→,no_key,no_letter,-1.0,False,34,0
157K25S4,917,experiment,79,→,right,→,0.5458510001190007,True,34,1
157K25S4,918,experiment,103,←,left,←,0.4172280998900533,True,34,1
157K25S4,919,experiment,71,↑,up,↑,0.5224359999410808,True,34,0
157K25S4,920,experiment,78,↑,left,←,0.4759360998868942,False,34,1
157K25S4,921,experiment,87,↑,right,→,0.3668474997393787,False,34,1
157K25S4,922,experiment,86,↓,down,↓,0.5052313995547593,True,34,0
157K25S4,923,training,50,→,left,←,0.849178200121969,False,34,0
157K25S4,924,training,59,←,left,←,0.572322600055486,True,34,1
157K25S4,925,experiment,89,←,left,←,0.560336799826473,True,34,1
157K25S4,926,experiment,50,→,right,→,0.6496437001042068,True,34,1
157K25S4,927,experiment,79,↓,down,↓,0.6381353996694088,True,34,1
157K25S4,928,experiment,101,↓,no_key,no_letter,-1.0,False,34,1
157K25S4,929,experiment,93,↓,down,↓,0.5037385998293757,True,34,1
157K25S4,930,experiment,58,←,left,←,0.4089982002042234,True,34,1
157K25S4,931,experiment,78,↓,no_key,no_letter,-1.0,False,34,0
157K25S4,932,experiment,98,←,left,←,0.37594590010121465,True,34,1
157K25S4,933,experiment,82,↓,down,↓,0.4948418000712991,True,34,0
157K25S4,934,experiment,106,←,left,←,0.433421699795872,True,34,1
157K25S4,935,experiment,76,→,right,→,0.525662099942565,True,34,0
157K25S4,936,experiment,52,→,left,←,0.4725199998356402,False,34,1
157K25S4,937,experiment,61,↓,down,↓,0.5130472001619637,True,34,1
157K25S4,938,experiment,55,←,left,←,0.4087241003289819,True,34,1
157K25S4,939,experiment,80,←,right,→,0.7759823999367654,False,34,0
157K25S4,940,experiment,65,→,no_key,no_letter,-1.0,False,34,1
157K25S4,941,experiment,77,↑,up,↑,0.6613714001141489,True,34,1
157K25S4,942,experiment,57,↑,up,↑,0.40056199999526143,True,34,1
157K25S4,943,experiment,91,↑,up,↑,0.7865643999539316,True,34,0
157K25S4,944,experiment,75,↓,down,↓,0.4747499004006386,True,34,1
157K25S4,945,experiment,107,→,right,→,0.6688188998959959,True,34,1
157K25S4,946,experiment,69,↑,up,↑,0.4681087997741997,True,34,1
157K25S4,947,experiment,95,←,left,←,0.6657936000265181,True,34,1
157K25S4,948,experiment,87,←,left,←,0.4828290999867022,True,34,1
157K25S4,949,experiment,66,→,right,→,0.5222750999964774,True,34,1
157K25S4,950,experiment,90,↑,up,↑,0.4092084998264909,True,34,1
157K25S4,951,experiment,74,↑,up,↑,0.39195739990100265,True,34,0
157K25S4,952,experiment,62,↑,up,↑,0.5866292999126017,True,34,0
157K25S4,953,experiment,72,←,left,←,0.3748019998893142,True,34,1
157K25S4,954,experiment,103,←,left,←,0.4326217998750508,True,34,0
157K25S4,955,experiment,51,↓,down,↓,0.9287251997739077,True,34,0
157K25S4,956,experiment,56,↓,down,↓,0.46604770002886653,True,34,1
157K25S4,957,experiment,84,↑,up,↑,0.4600654998794198,True,34,1
157K25S4,958,experiment,92,↓,down,↓,0.6346555999480188,True,34,1
157K25S4,959,experiment,70,←,left,←,0.5308301001787186,True,34,1
157K25S4,960,experiment,100,→,right,→,0.6771222003735602,True,34,1
157K25S4,961,experiment,68,↑,up,↑,0.6116805002093315,True,34,1
157K25S4,962,experiment,59,←,left,←,0.5998374000191689,True,34,1
157K25S4,963,experiment,49,↑,up,↑,0.4091324000619352,True,34,1
157K25S4,964,experiment,102,↑,up,↑,0.6063024001196027,True,34,0
157K25S4,965,experiment,48,↑,down,↓,0.5901850000955164,False,34,1
157K25S4,966,experiment,94,↓,down,↓,0.6799113997258246,True,34,1
157K25S4,967,experiment,85,↓,no_key,no_letter,-1.0,False,34,1
157K25S4,968,experiment,71,↑,up,↑,0.564257699996233,True,34,1
157K25S4,969,experiment,88,→,no_key,no_letter,-1.0,False,34,1
157K25S4,970,experiment,64,↓,down,↓,0.5665748999454081,True,34,1
157K25S4,971,experiment,60,→,right,→,0.5646178000606596,True,34,1
157K25S4,972,experiment,99,→,no_key,no_letter,-1.0,False,34,1
157K25S4,973,experiment,63,↓,down,↓,0.4834753000177443,True,34,1
157K25S4,974,experiment,96,↓,down,↓,0.5929696001112461,True,34,1
157K25S4,975,experiment,105,↑,up,↑,0.45559110026806593,True,34,1
157K25S4,976,experiment,97,↓,down,↓,0.5644112997688353,True,34,1
157K25S4,977,experiment,67,↓,down,↓,0.5842654998414218,True,34,1
157K25S4,978,experiment,108,↓,down,↓,0.605616900138557,True,34,1
157K25S4,979,experiment,54,←,left,←,0.42576180025935173,True,34,1
157K25S4,980,experiment,81,→,right,→,0.4172939998097718,True,34,0
157K25S4,981,experiment,83,↑,up,↑,0.6358154001645744,True,34,0
157K25S4,982,experiment,73,←,left,←,0.3755731997080147,True,34,1
157K25S4,983,experiment,53,↑,up,↑,0.5622351998463273,True,34,0
157K25S4,984,experiment,86,←,left,←,0.4005145002156496,True,34,1
157K25S4,985,experiment,104,→,right,→,0.5893552997149527,True,34,0
157K25S4,986,training,75,←,left,←,0.5935575999319553,True,34,0
157K25S4,987,training,56,←,left,←,0.40024210000410676,True,34,1
157K25S4,988,experiment,103,←,left,←,0.3924980000592768,True,34,0
157K25S4,989,experiment,102,↓,down,↓,0.716355700045824,True,34,1
157K25S4,990,experiment,70,↑,up,↑,0.39201200008392334,True,34,1
157K25S4,991,experiment,82,←,left,←,0.4940235000103712,True,34,0
157K25S4,992,experiment,85,←,left,←,0.35027850000187755,True,34,1
157K25S4,993,experiment,99,↓,left,←,0.3931399998255074,False,34,0
157K25S4,994,experiment,83,→,right,→,0.6044290000572801,True,34,0
157K25S4,995,experiment,107,→,right,→,0.5056517999619246,True,34,1
157K25S4,996,experiment,101,→,right,→,0.469178999774158,True,34,1
157K25S4,997,experiment,78,→,right,→,0.46401580004021525,True,34,1
157K25S4,998,experiment,94,→,right,→,0.6146094002760947,True,34,1
157K25S4,999,experiment,77,→,right,→,0.33425449999049306,True,34,1
157K25S4,1000,experiment,75,↓,left,←,0.5509612997993827,False,34,0
157K25S4,1001,experiment,80,↑,up,↑,0.5350425997748971,True,34,1
157K25S4,1002,experiment,48,←,left,←,0.49801940005272627,True,34,1
157K25S4,1003,experiment,97,↓,no_key,no_letter,-1.0,False,34,1
157K25S4,1004,experiment,84,→,right,→,0.4338130000978708,True,34,1
157K25S4,1006,experiment,68,←,left,←,0.4171672002412379,True,34,1
157K25S4,1007,experiment,91,←,left,←,0.3838525996543467,True,34,0
157K25S4,1008,experiment,65,→,no_key,no_letter,-1.0,False,34,0
157K25S4,1009,experiment,53,↓,down,↓,0.5601188000291586,True,34,1
157K25S4,1010,experiment,49,→,right,→,0.6342076999135315,True,34,1
157K25S4,1011,experiment,89,↑,up,↑,0.4335373002104461,True,34,1
157K25S4,1012,experiment,86,←,left,←,0.6942139999009669,True,34,0
157K25S4,1013,experiment,54,↑,up,↑,0.45770000014454126,True,34,1
157K25S4,1014,experiment,56,↑,no_key,no_letter,-1.0,False,34,0
157K25S4,1015,experiment,72,→,right,→,0.4332286003045738,True,34,1
157K25S4,1016,experiment,100,←,left,←,0.5570362997241318,True,34,0
157K25S4,1017,experiment,50,↑,up,↑,0.4339323998428881,True,34,1
157K25S4,1018,experiment,104,←,left,←,0.3919298998080194,True,34,0
157K25S4,1019,experiment,63,↑,up,↑,0.630948799662292,True,34,1
157K25S4,1020,experiment,66,↑,up,↑,0.46416170010343194,True,34,1
157K25S4,1021,experiment,58,←,left,←,0.5141182001680136,True,34,1
157K25S4,1022,experiment,52,↑,up,↑,0.4080750998109579,True,34,1
157K25S4,1023,experiment,95,↓,down,↓,0.5891506997868419,True,34,0
157K25S4,1024,experiment,71,↑,up,↑,0.4623863003216684,True,34,1
157K25S4,1025,experiment,64,←,right,→,0.6308089001104236,False,34,1
157K25S4,1026,experiment,81,↓,down,↓,0.4990846002474427,True,34,1
157K25S4,1027,experiment,67,→,left,←,0.6413645003922284,False,34,1
157K25S4,1028,experiment,93,←,left,←,0.6253398996777833,True,34,1
157K25S4,1029,experiment,105,↑,up,↑,0.4785888004116714,True,34,1
157K25S4,1030,experiment,76,↓,down,↓,0.594130199868232,True,34,1
157K25S4,1031,experiment,59,↑,no_key,no_letter,-1.0,False,34,1
157K25S4,1032,experiment,88,→,right,→,0.4534549997188151,True,34,1
157K25S4,1033,experiment,57,↑,up,↑,0.4256098000332713,True,34,1
157K25S4,1034,experiment,55,→,right,→,0.5730416998267174,True,34,0
157K25S4,1035,experiment,98,↑,up,↑,0.3756065000779927,True,34,1
157K25S4,1036,experiment,92,↑,up,↑,0.4095269003883004,True,34,0
157K25S4,1037,experiment,73,↑,up,↑,0.38454499980434775,True,34,0
157K25S4,1038,experiment,87,←,left,←,0.5713649997487664,True,34,0
157K25S4,1039,experiment,60,←,left,←,0.3754980000667274,True,34,1
157K25S4,1040,experiment,90,↓,down,↓,0.516183199826628,True,34,0
157K25S4,1041,experiment,96,←,left,←,0.6081341002136469,True,34,1
157K25S4,1042,experiment,74,↓,down,↓,0.4253389001823962,True,34,1
157K25S4,1043,experiment,61,←,left,←,0.5145896999165416,True,34,0
157K25S4,1044,experiment,69,↓,down,↓,0.655816899612546,True,34,1
157K25S4,1045,experiment,106,←,no_key,no_letter,-1.0,False,34,1
157K25S4,1046,experiment,51,←,left,←,0.9968507001176476,True,34,1
157K25S4,1047,experiment,79,↓,down,↓,0.47515910025686026,True,34,1
157K25S4,1048,experiment,62,↓,left,←,0.35862250020727515,False,34,1
157K25S4,1049,training,68,↓,down,↓,0.5731474999338388,True,34,0
157K25S4,1050,training,87,↑,down,↓,0.5544461999088526,False,34,1
157K25S4,1051,experiment,77,↑,up,↑,0.4750200998969376,True,34,1
157K25S4,1052,experiment,88,↑,up,↑,0.6429916000925004,True,34,1
157K25S4,1053,experiment,56,←,left,←,0.6391741996631026,True,34,1
157K25S4,1054,experiment,83,→,right,→,0.4590683998540044,True,34,1
157K25S4,1055,experiment,51,↓,down,↓,0.45531680015847087,True,34,1
157K25S4,1056,experiment,76,→,right,→,0.6924517001025379,True,34,0
157K25S4,1057,experiment,80,↑,up,↑,0.6547501999884844,True,34,1
157K25S4,1058,experiment,74,→,right,→,0.43422319972887635,True,34,1
157K25S4,1059,experiment,100,↑,up,↑,0.5380678996443748,True,34,0
157K25S4,1060,experiment,101,←,left,←,0.4914433001540601,True,34,1
157K25S4,1061,experiment,64,↑,up,↑,0.4077697000466287,True,34,1
157K25S4,1062,experiment,96,←,left,←,0.4087891997769475,True,34,0
157K25S4,1063,experiment,65,↓,down,↓,0.5012089996598661,True,34,1
157K25S4,1064,experiment,61,↑,up,↑,0.5092787002213299,True,34,1
157K25S4,1065,experiment,84,→,right,→,0.46184720005840063,True,34,1
157K25S4,1066,experiment,104,←,left,←,0.5049155000597239,True,34,1
157K25S4,1067,experiment,71,↓,down,↓,0.5333304000087082,True,34,1
157K25S4,1068,experiment,86,↓,down,↓,0.6682528001256287,True,34,1
157K25S4,1069,experiment,67,→,right,→,0.7076155999675393,True,34,1
157K25S4,1070,experiment,107,↑,no_key,no_letter,-1.0,False,34,1
157K25S4,1071,experiment,81,↑,up,↑,0.620336000341922,True,34,1
157K25S4,1072,experiment,91,↑,up,↑,0.6540438998490572,True,34,1
157K25S4,1073,experiment,66,↓,down,↓,0.8066192003898323,True,34,1
157K25S4,1074,experiment,72,↓,down,↓,0.5507741998881102,True,34,1
157K25S4,1075,experiment,79,←,left,←,0.5348277003504336,True,34,1
157K25S4,1076,experiment,50,↓,down,↓,0.42619389994069934,True,34,1
157K25S4,1077,experiment,98,→,no_key,no_letter,-1.0,False,34,0
157K25S4,1078,experiment,78,→,left,←,0.6251475000753999,False,34,1
157K25S4,1079,experiment,99,←,left,←,0.5037071001715958,True,34,1
157K25S4,1080,experiment,48,↑,right,→,0.8600403000600636,False,34,1
157K25S4,1081,experiment,70,→,right,→,0.4827370001003146,True,34,1
157K25S4,1082,experiment,57,→,right,→,0.43387649999931455,True,34,1
157K25S4,1083,experiment,108,→,right,→,0.42537209996953607,True,34,0
157K25S4,1084,experiment,102,→,right,→,0.39181650010868907,True,34,0
157K25S4,1085,experiment,55,↓,down,↓,0.5472756000235677,True,34,0
157K25S4,1086,experiment,53,↓,right,→,0.5803753999061882,False,34,1
157K25S4,1087,experiment,90,←,left,←,0.3424205998890102,True,34,1
157K25S4,1088,experiment,93,←,right,→,0.4913182002492249,False,34,0
157K25S4,1089,experiment,62,↓,down,↓,0.5716327000409365,True,34,1
157K25S4,1090,experiment,54,→,right,→,0.4907994996756315,True,34,1
157K25S4,1091,experiment,105,↓,down,↓,0.5488109001889825,True,34,1
157K25S4,1092,experiment,85,←,left,←,0.4090672000311315,True,34,1
157K25S4,1093,experiment,73,↓,right,→,0.5866550002247095,False,34,0
157K25S4,1094,experiment,87,↑,up,↑,0.5272540003061295,True,34,1
157K25S4,1095,experiment,89,←,left,←,0.4335778998211026,True,34,1
157K25S4,1096,experiment,95,←,left,←,0.4247422004118562,True,34,0
157K25S4,1097,experiment,82,↑,up,↑,0.5684000002220273,True,34,0
157K25S4,1098,experiment,63,←,left,←,0.5249781999737024,True,34,1
157K25S4,1099,experiment,94,↑,up,↑,0.41706359991803765,True,34,1
157K25S4,1100,experiment,68,←,left,←,0.6582655999809504,True,34,0
157K25S4,1101,experiment,52,↓,down,↓,0.5110366996377707,True,34,1
157K25S4,1102,experiment,69,→,right,→,0.43383080000057817,True,34,1
157K25S4,1103,experiment,97,↓,down,↓,0.546883000060916,True,34,0
157K25S4,1104,experiment,60,↑,up,↑,0.6979835997335613,True,34,1
157K25S4,1105,experiment,92,↑,up,↑,0.679827599786222,True,34,1
157K25S4,1106,experiment,49,↑,up,↑,0.5564250997267663,True,34,1
157K25S4,1107,experiment,103,←,left,←,0.6284634997136891,True,34,1
157K25S4,1108,experiment,59,→,right,→,0.5441209999844432,True,34,1
157K25S4,1109,experiment,106,↓,left,←,0.3333522998727858,False,34,1
157K25S4,1110,experiment,75,←,right,→,0.7378140999935567,False,34,0
157K25S4,1111,experiment,58,↑,no_key,no_letter,-1.0,False,34,1
157K25S4,1112,training,61,↓,down,↓,0.8493417999707162,True,34,0
157K25S4,1113,training,50,→,right,→,0.623172199819237,True,34,1
157K25S4,1114,experiment,49,↑,up,↑,0.45500720012933016,True,34,1
157K25S4,1115,experiment,69,→,right,→,0.5897816000506282,True,34,1
157K25S4,1116,experiment,50,↑,up,↑,0.5497635002247989,True,34,1
157K25S4,1117,experiment,89,→,right,→,0.4088814998976886,True,34,1
157K25S4,1118,experiment,91,↑,up,↑,0.45244439970701933,True,34,0
157K25S4,1119,experiment,81,←,left,←,0.615886399988085,True,34,0
157K25S4,1120,experiment,93,↓,down,↓,0.7287214002572,True,34,1
157K25S4,1121,experiment,85,↑,up,↑,0.43351919995620847,True,34,1
157K25S4,1122,experiment,103,↑,up,↑,0.4763881000690162,True,34,0
157K25S4,1123,experiment,83,↑,up,↑,0.6302161999046803,True,34,1
157K25S4,1124,experiment,98,↓,down,↓,0.716948099900037,True,34,1
157K25S4,1125,experiment,48,←,no_key,no_letter,-1.0,False,34,1
157K25S4,1126,experiment,78,←,left,←,0.5218801000155509,True,34,1
157K25S4,1127,experiment,53,↓,down,↓,0.5156795000657439,True,34,1
157K25S4,1128,experiment,51,↓,down,↓,0.5665922998450696,True,34,1
157K25S4,1129,experiment,105,↓,down,↓,0.6858802000060678,True,34,1
157K25S4,1130,experiment,67,→,left,←,0.4929240997880697,False,34,1
157K25S4,1131,experiment,106,→,right,→,0.6627416000701487,True,34,1
157K25S4,1132,experiment,70,↓,down,↓,0.5090971998870373,True,34,1
157K25S4,1133,experiment,52,←,left,←,0.4005058999173343,True,34,1
157K25S4,1134,experiment,74,←,left,←,0.559319700114429,True,34,0
157K25S4,1135,experiment,95,↓,down,↓,0.47411519987508655,True,34,1
157K25S4,1136,experiment,58,→,right,→,0.5401751003228128,True,34,1
157K25S4,1137,experiment,80,→,right,→,0.548571600113064,True,34,1
157K25S4,1138,experiment,88,↑,up,↑,0.6896445001475513,True,34,1
157K25S4,1139,experiment,59,→,right,→,0.40822230000048876,True,34,1
157K25S4,1140,experiment,102,→,right,→,0.46527189994230866,True,34,0
157K25S4,1141,experiment,73,→,right,→,0.5670749000273645,True,34,1
157K25S4,1142,experiment,63,↓,down,↓,0.6753957998007536,True,34,1
157K25S4,1143,experiment,84,→,no_key,no_letter,-1.0,False,34,1
157K25S4,1144,experiment,100,↓,down,↓,0.7269161003641784,True,34,1
157K25S4,1145,experiment,56,↑,up,↑,0.5599855002947152,True,34,1
157K25S4,1146,experiment,62,→,right,→,0.39254549983888865,True,34,1
157K25S4,1147,experiment,55,↑,right,→,0.7956044999882579,False,34,0
157K25S4,1148,experiment,99,↑,up,↑,0.6596954995766282,True,34,1
157K25S4,1149,experiment,97,↓,down,↓,0.6980893998406827,True,34,1
157K25S4,1150,experiment,92,←,right,→,0.503691699821502,False,34,1
157K25S4,1151,experiment,77,↑,up,↑,0.4505952000617981,True,34,1
157K25S4,1152,experiment,96,→,right,→,0.6085486002266407,True,34,0
157K25S4,1153,experiment,57,↓,no_key,no_letter,-1.0,False,34,1
157K25S4,1154,experiment,72,←,left,←,0.488894899841398,True,34,1
157K25S4,1155,experiment,64,←,left,←,0.40979479998350143,True,34,1
157K25S4,1156,experiment,66,←,left,←,0.40843690000474453,True,34,0
157K25S4,1157,experiment,104,←,right,→,0.5351690999232233,False,34,0
157K25S4,1158,experiment,101,→,right,→,0.5448996000923216,True,34,1
157K25S4,1159,experiment,87,→,right,→,0.6474037999287248,True,34,1
157K25S4,1160,experiment,108,←,left,←,0.4975622999481857,True,34,1
157K25S4,1161,experiment,76,→,right,→,0.46905159996822476,True,34,1
157K25S4,1162,experiment,68,←,left,←,0.5957643003202975,True,34,1
157K25S4,1163,experiment,61,↓,down,↓,0.6478498000651598,True,34,1
157K25S4,1164,experiment,86,↑,up,↑,0.45814270013943315,True,34,1
157K25S4,1165,experiment,90,→,no_key,no_letter,-1.0,False,34,1
157K25S4,1166,experiment,75,↑,left,←,0.4527497999370098,False,34,1
157K25S4,1167,experiment,107,↓,down,↓,0.6472346996888518,True,34,1
157K25S4,1168,experiment,82,↑,up,↑,0.43381459964439273,True,34,1
157K25S4,1169,experiment,54,→,right,→,0.5110957999713719,True,34,0
157K25S4,1170,experiment,60,→,right,→,0.46362500032410026,True,34,1
157K25S4,1171,experiment,79,←,left,←,0.6029951996169984,True,34,1
157K25S4,1172,experiment,65,←,left,←,0.6378242000937462,True,34,1
157K25S4,1173,experiment,94,←,left,←,0.5340362000279129,True,34,1
157K25S4,1174,experiment,71,↑,up,↑,0.49745040014386177,True,34,1
157K25S4,1175,training,95,↓,down,↓,0.530048199929297,True,34,0
157K25S4,1176,training,93,↓,down,↓,0.45469290018081665,True,34,1
157K25S4,1177,experiment,48,↓,down,↓,0.4610798000358045,True,34,0
157K25S4,1178,experiment,71,↓,no_key,no_letter,-1.0,False,34,1
157K25S4,1179,experiment,94,↓,down,↓,0.5025025000795722,True,34,1
157K25S4,1180,experiment,67,→,right,→,0.4171545999124646,True,34,1
157K25S4,1181,experiment,103,↑,up,↑,0.49000580003485084,True,34,0
157K25S4,1182,experiment,63,→,right,→,0.5298919999040663,True,34,1
157K25S4,1183,experiment,62,→,no_key,no_letter,-1.0,False,34,1
157K25S4,1184,experiment,84,↓,down,↓,0.3846852998249233,True,34,1
157K25S4,1185,experiment,69,←,no_key,no_letter,-1.0,False,34,0
157K25S4,1186,experiment,70,←,left,←,0.36684759985655546,True,34,1
157K25S4,1187,experiment,74,←,left,←,0.6456563002429903,True,34,0
157K25S4,1188,experiment,77,→,right,→,0.6507069002836943,True,34,1
157K25S4,1189,experiment,91,↓,down,↓,0.6751304999925196,True,34,1
157K25S4,1190,experiment,89,←,left,←,0.5069929999299347,True,34,1
157K25S4,1191,experiment,58,↑,up,↑,0.6118830996565521,True,34,1
157K25S4,1192,experiment,108,↓,down,↓,0.4335487997159362,True,34,1
157K25S4,1193,experiment,75,↓,down,↓,0.5258712996728718,True,34,0
157K25S4,1194,experiment,80,↑,up,↑,0.6468079998157918,True,34,1
157K25S4,1195,experiment,72,↓,down,↓,0.4854141999967396,True,34,1
157K25S4,1196,experiment,53,↑,down,↓,0.5129542001523077,False,34,1
157K25S4,1197,experiment,82,←,left,←,0.4164324998855591,True,34,1
157K25S4,1198,experiment,102,→,no_key,no_letter,-1.0,False,34,0
157K25S4,1199,experiment,66,↑,up,↑,0.5641566999256611,True,34,1
157K25S4,1200,experiment,52,↓,down,↓,0.6768376003019512,True,34,1
157K25S4,1201,experiment,105,↑,up,↑,0.42461949959397316,True,34,1
157K25S4,1202,experiment,95,→,right,→,0.4557660003192723,True,34,0
157K25S4,1203,experiment,87,→,right,→,0.6885813004337251,True,34,0
157K25S4,1204,experiment,54,↑,up,↑,0.4834433998912573,True,34,1
157K25S4,1205,experiment,50,↓,down,↓,0.5517134997062385,True,34,1
157K25S4,1206,experiment,104,↑,no_key,no_letter,-1.0,False,34,1
157K25S4,1207,experiment,86,↓,down,↓,0.5502434000372887,True,34,1
157K25S4,1208,experiment,60,↑,up,↑,0.4612989001907408,True,34,1
157K25S4,1209,experiment,96,←,left,←,0.3673527999781072,True,34,1
157K25S4,1210,experiment,83,→,right,→,0.5526372999884188,True,34,1
157K25S4,1211,experiment,55,→,right,→,0.41720010014250875,True,34,1
157K25S4,1212,experiment,98,→,right,→,0.6954956003464758,True,34,0
157K25S4,1213,experiment,51,↑,up,↑,0.6751870000734925,True,34,1
157K25S4,1214,experiment,61,↑,up,↑,0.4252956002019346,True,34,1
157K25S4,1215,experiment,76,→,right,→,0.4507979000918567,True,34,0
157K25S4,1216,experiment,88,←,left,←,0.6671775998547673,True,34,1
157K25S4,1217,experiment,73,↓,down,↓,0.5932033001445234,True,34,1
157K25S4,1218,experiment,49,↓,down,↓,0.6412269999273121,True,34,1
157K25S4,1219,experiment,90,←,left,←,0.5066048000007868,True,34,1
157K25S4,1220,experiment,64,→,right,→,0.5051621999591589,True,34,1
157K25S4,1221,experiment,78,↓,down,↓,0.6435396997258067,True,34,1
157K25S4,1222,experiment,99,→,right,→,0.3663969002664089,True,34,1
157K25S4,1223,experiment,85,→,right,→,0.662965000141412,True,34,0
157K25S4,1224,experiment,97,→,right,→,0.42493219999596477,True,34,1
157K25S4,1225,experiment,81,→,right,→,0.38402910018339753,True,34,0
157K25S4,1226,experiment,101,→,right,→,0.40149990003556013,True,34,0
157K25S4,1227,experiment,106,→,right,→,0.6372588002122939,True,34,0
157K25S4,1228,experiment,56,←,no_key,no_letter,-1.0,False,34,1
157K25S4,1229,experiment,68,↑,right,→,0.6935840002261102,False,34,1
157K25S4,1230,experiment,59,↓,down,↓,0.45500960014760494,True,34,1
157K25S4,1231,experiment,92,→,right,→,0.55069819977507,True,34,0
157K25S4,1232,experiment,65,↓,down,↓,0.6433548000641167,True,34,1
157K25S4,1233,experiment,107,→,right,→,0.40899570006877184,True,34,1
157K25S4,1234,experiment,57,↓,down,↓,0.46000880002975464,True,34,1
157K25S4,1235,experiment,93,→,right,→,0.6589142000302672,True,34,1
157K25S4,1236,experiment,79,↑,down,↓,0.5268393000587821,False,34,1
157K25S4,1237,experiment,100,↑,up,↑,0.6252023000270128,True,34,1
157K25S4,1238,training,49,→,right,→,0.5891211996786296,True,34,0
157K25S4,1239,training,98,←,no_key,no_letter,-1.0,False,34,1
157K25S4,1240,experiment,61,↓,down,↓,0.6039432999677956,True,34,1
157K25S4,1241,experiment,72,↑,up,↑,0.4528076001442969,True,34,1
157K25S4,1242,experiment,86,←,left,←,0.39980809995904565,True,34,1
157K25S4,1243,experiment,80,→,right,→,0.5152545003220439,True,34,0
157K25S4,1244,experiment,58,↓,down,↓,0.5000118999741971,True,34,1
157K25S4,1245,experiment,71,→,left,←,0.5127700003795326,False,34,1
157K25S4,1246,experiment,85,↑,up,↑,0.4565201997756958,True,34,1
157K25S4,1247,experiment,65,→,right,→,0.6411222000606358,True,34,1
157K25S4,1248,experiment,62,→,right,→,0.5793026997707784,True,34,1
157K25S4,1249,experiment,54,↓,down,↓,0.4664272000081837,True,34,1
157K25S4,1250,experiment,79,↑,up,↑,0.5898917000740767,True,34,1
157K25S4,1251,experiment,64,↓,down,↓,0.6335183000192046,True,34,1
157K25S4,1252,experiment,68,←,left,←,0.5781975002028048,True,34,1
157K25S4,1253,experiment,104,→,no_key,no_letter,-1.0,False,34,1
157K25S4,1254,experiment,63,↑,up,↑,0.6232131998986006,True,34,1
157K25S4,1255,experiment,97,↓,up,↑,0.5107170999981463,False,34,1
157K25S4,1256,experiment,93,←,left,←,0.6038561002351344,True,34,1
157K25S4,1257,experiment,76,↑,up,↑,0.5387116000056267,True,34,1
157K25S4,1258,experiment,73,→,right,→,0.6380986999720335,True,34,1
157K25S4,1259,experiment,57,←,left,←,0.601281899958849,True,34,1
157K25S4,1260,experiment,106,←,left,←,0.50288139982149,True,34,1
157K25S4,1261,experiment,92,↓,down,↓,0.492592700291425,True,34,1
157K25S4,1262,experiment,53,↑,up,↑,0.6077750003896654,True,34,1
157K25S4,1263,experiment,66,→,right,→,0.5940586999058723,True,34,1
157K25S4,1264,experiment,89,←,left,←,0.709398000035435,True,34,1
157K25S4,1265,experiment,87,↓,down,↓,0.49276689998805523,True,34,1
157K25S4,1266,experiment,59,↑,no_key,no_letter,-1.0,False,34,1
157K25S4,1267,experiment,70,→,right,→,0.41693999990820885,True,34,1
157K25S4,1268,experiment,77,↑,up,↑,0.4003761997446418,True,34,0
157K25S4,1269,experiment,103,↑,up,↑,0.40928619960322976,True,34,0
157K25S4,1270,experiment,52,↓,down,↓,0.5082910996861756,True,34,0
157K25S4,1271,experiment,78,→,right,→,0.6464623999781907,True,34,1
157K25S4,1272,experiment,99,↓,down,↓,0.6279402999207377,True,34,1
157K25S4,1273,experiment,50,→,right,→,0.48293029982596636,True,34,1
157K25S4,1274,experiment,51,↓,down,↓,0.4790533003397286,True,34,1
157K25S4,1275,experiment,48,↓,down,↓,0.6284618000499904,True,34,1
157K25S4,1276,experiment,82,↓,down,↓,0.5928560998290777,True,34,1
157K25S4,1277,experiment,55,→,right,→,0.3836993002332747,True,34,1
157K25S4,1278,experiment,100,←,left,←,0.3995100003667176,True,34,0
157K25S4,1279,experiment,91,←,left,←,0.4887978998012841,True,34,0
157K25S4,1280,experiment,90,→,right,→,0.6397228999994695,True,34,1
157K25S4,1281,experiment,101,→,right,→,0.3999127000570297,True,34,1
157K25S4,1282,experiment,60,↓,down,↓,0.5610684999264777,True,34,0
157K25S4,1283,experiment,98,←,left,←,0.4748680996708572,True,34,1
157K25S4,1284,experiment,49,↑,no_key,no_letter,-1.0,False,34,1
157K25S4,1285,experiment,83,→,right,→,0.3841742998920381,True,34,1
157K25S4,1286,experiment,95,↓,down,↓,0.45628529973328114,True,34,0
157K25S4,1287,experiment,56,→,right,→,0.5158064002171159,True,34,0
157K25S4,1288,experiment,94,→,right,→,0.5683538001030684,True,34,1
157K25S4,1289,experiment,81,↓,down,↓,0.4086620002053678,True,34,1
157K25S4,1290,experiment,102,→,right,→,0.5095298001542687,True,34,0
157K25S4,1291,experiment,75,→,right,→,0.6328267999924719,True,34,1
157K25S4,1292,experiment,84,↑,no_key,no_letter,-1.0,False,34,1
157K25S4,1293,experiment,105,←,left,←,0.5000713001936674,True,34,1
157K25S4,1294,experiment,69,←,right,→,0.39197409991174936,False,34,1
157K25S4,1295,experiment,67,↓,down,↓,0.46030390029773116,True,34,0
157K25S4,1296,experiment,96,↑,up,↑,0.3918546000495553,True,34,1
157K25S4,1297,experiment,88,↓,down,↓,0.6130170002579689,True,34,0
157K25S4,1298,experiment,74,↑,down,↓,0.5562801999039948,False,34,1
157K25S4,1299,experiment,107,←,left,←,0.6191206001676619,True,34,1
157K25S4,1300,experiment,108,↑,up,↑,0.6071587996557355,True,34,1
157K25S4,1301,training,104,→,right,→,0.695348999928683,True,34,0
157K25S4,1302,training,74,↓,down,↓,0.475216300226748,True,34,1
157K25S4,1303,experiment,96,↓,down,↓,0.5849846000783145,True,34,1
157K25S4,1304,experiment,59,→,no_key,no_letter,-1.0,False,34,1
157K25S4,1305,experiment,94,←,left,←,0.6105858003720641,True,34,1
157K25S4,1306,experiment,48,→,right,→,0.4004962001927197,True,34,1
157K25S4,1307,experiment,92,←,left,←,0.5402890001423657,True,34,0
157K25S4,1308,experiment,53,→,right,→,0.6372183002531528,True,34,1
157K25S4,1309,experiment,75,→,right,→,0.4090259000658989,True,34,1
157K25S4,1310,experiment,72,↓,down,↓,0.5794374998658895,True,34,0
157K25S4,1311,experiment,98,←,left,←,0.41650169994682074,True,34,1
157K25S4,1312,experiment,93,↓,down,↓,0.5409965002909303,True,34,0
157K25S4,1313,experiment,57,←,no_key,no_letter,-1.0,False,34,1
157K25S4,1314,experiment,52,↓,down,↓,0.47063030023127794,True,34,1
157K25S4,1315,experiment,104,→,right,→,0.49724810011684895,True,34,1
157K25S4,1316,experiment,67,←,left,←,0.425543500110507,True,34,1
157K25S4,1317,experiment,71,←,left,←,0.5031961998902261,True,34,0
157K25S4,1318,experiment,50,←,left,←,0.5307854996062815,True,34,1
157K25S4,1319,experiment,81,↓,down,↓,0.5951467999257147,True,34,1
157K25S4,1320,experiment,91,↑,up,↑,0.6854221001267433,True,34,1
157K25S4,1321,experiment,82,↓,down,↓,0.5674670999869704,True,34,1
157K25S4,1322,experiment,103,↑,up,↑,0.7272093999199569,True,34,1
157K25S4,1323,experiment,74,←,left,←,0.5861325999721885,True,34,1
157K25S4,1324,experiment,106,↓,down,↓,0.6402499997057021,True,34,1
157K25S4,1325,experiment,83,↓,down,↓,0.475604800041765,True,34,1
157K25S4,1326,experiment,61,↑,up,↑,0.7567691002041101,True,34,1
157K25S4,1327,experiment,100,↓,down,↓,0.5738628003746271,True,34,1
157K25S4,1328,experiment,58,←,no_key,no_letter,-1.0,False,34,1
157K25S4,1329,experiment,107,→,right,→,0.6034883996471763,True,34,1
157K25S4,1330,experiment,76,→,left,←,0.47481990000233054,False,34,1
157K25S4,1331,experiment,77,↑,up,↑,0.6946928002871573,True,34,1
157K25S4,1332,experiment,51,↑,up,↑,0.554753000382334,True,34,1
157K25S4,1333,experiment,73,←,no_key,no_letter,-1.0,False,34,1
157K25S4,1334,experiment,54,←,left,←,0.6375791002064943,True,34,1
157K25S4,1335,experiment,89,→,no_key,no_letter,-1.0,False,34,1
157K25S4,1336,experiment,97,↑,up,↑,0.5777663998305798,True,34,1
157K25S4,1337,experiment,108,←,left,←,0.3924532998353243,True,34,1
157K25S4,1338,experiment,84,↑,up,↑,0.4338178001344204,True,34,0
157K25S4,1339,experiment,49,→,right,→,0.5943992999382317,True,34,1
157K25S4,1340,experiment,69,→,left,←,0.4763449998572469,False,34,1
157K25S4,1341,experiment,80,←,left,←,0.6873633996583521,True,34,1
157K25S4,1342,experiment,101,↓,down,↓,0.5306186000816524,True,34,1
157K25S4,1343,experiment,66,↑,up,↑,0.5922995000146329,True,34,1
157K25S4,1344,experiment,56,←,left,←,0.3919060998596251,True,34,1
157K25S4,1345,experiment,70,↑,up,↑,0.5753733003512025,True,34,0
157K25S4,1346,experiment,64,↓,no_key,no_letter,-1.0,False,34,1
157K25S4,1347,experiment,55,↑,up,↑,0.4763592998497188,True,34,1
157K25S4,1348,experiment,95,↑,down,↓,0.7701561003923416,False,34,1
157K25S4,1349,experiment,90,↓,up,↑,0.5021906001493335,False,34,1
157K25S4,1350,experiment,105,↑,down,↓,0.6157983997836709,False,34,1
157K25S4,1351,experiment,88,←,left,←,0.5541317001916468,True,34,1
157K25S4,1352,experiment,87,↓,down,↓,0.4718760000541806,True,34,1
157K25S4,1353,experiment,63,←,left,←,0.6001713001169264,True,34,1
157K25S4,1354,experiment,78,←,left,←,0.42547819996252656,True,34,1
157K25S4,1355,experiment,86,→,right,→,0.6173318000510335,True,34,1
157K25S4,1356,experiment,68,↑,up,↑,0.6266123000532389,True,34,1
157K25S4,1357,experiment,60,↓,down,↓,0.4338283999823034,True,34,1
157K25S4,1358,experiment,85,→,no_key,no_letter,-1.0,False,34,0
157K25S4,1359,experiment,99,←,left,←,0.41723280027508736,True,34,1
157K25S4,1360,experiment,62,↓,right,→,0.6937358998693526,False,34,0
157K25S4,1361,experiment,102,←,left,←,0.6089727999642491,True,34,1
157K25S4,1362,experiment,65,→,right,→,0.6514527997933328,True,34,1
157K25S4,1363,experiment,79,↑,up,↑,0.464130399748683,True,34,1
157K25S4,1364,training,84,→,right,→,0.6291145998984575,True,34,0
157K25S4,1365,training,77,←,left,←,0.3582252999767661,True,34,1
157K25S4,1366,experiment,58,→,left,←,0.4736899002455175,False,34,0
157K25S4,1367,experiment,90,←,left,←,0.48903009993955493,True,34,1
157K25S4,1368,experiment,70,↓,down,↓,0.5586059000343084,True,34,1
157K25S4,1369,experiment,88,←,left,←,0.45945689966902137,True,34,1
157K25S4,1370,experiment,81,←,left,←,0.49485869985073805,True,34,1
157K25S4,1371,experiment,56,→,right,→,0.5371551997959614,True,34,1
157K25S4,1372,experiment,63,→,right,→,0.5913415998220444,True,34,1
157K25S4,1373,experiment,101,←,left,←,0.6063959999009967,True,34,1
157K25S4,1374,experiment,62,↓,down,↓,0.5459793000482023,True,34,1
157K25S4,1375,experiment,55,↑,up,↑,0.4821393000893295,True,34,1
157K25S4,1376,experiment,84,→,right,→,0.5074162003584206,True,34,1
157K25S4,1377,experiment,92,↓,down,↓,0.5770757999271154,True,34,1
157K25S4,1378,experiment,67,←,no_key,no_letter,-1.0,False,34,1
157K25S4,1379,experiment,79,→,right,→,0.42564749997109175,True,34,1
157K25S4,1380,experiment,54,↑,up,↑,0.5142302997410297,True,34,0
157K25S4,1381,experiment,96,↑,up,↑,0.425817200448364,True,34,1
157K25S4,1382,experiment,66,↑,up,↑,0.3834246997721493,True,34,0
157K25S4,1383,experiment,100,→,right,→,0.45544479973614216,True,34,0
157K25S4,1384,experiment,93,↑,up,↑,0.6858640001155436,True,34,1
157K25S4,1385,experiment,75,↓,down,↓,0.5623698001727462,True,34,1
157K25S4,1386,experiment,95,→,right,→,0.4523934000171721,True,34,1
157K25S4,1387,experiment,76,↑,up,↑,0.425460500176996,True,34,0
157K25S4,1388,experiment,61,←,left,←,0.5317047000862658,True,34,0
157K25S4,1389,experiment,83,↓,down,↓,0.6274199998006225,True,34,1
157K25S4,1390,experiment,73,→,right,→,0.5306974002160132,True,34,1
157K25S4,1391,experiment,71,↑,up,↑,0.5582274002954364,True,34,1
157K25S4,1392,experiment,74,←,left,←,0.5119857997633517,True,34,1
157K25S4,1393,experiment,89,→,right,→,0.574422899633646,True,34,1
157K25S4,1394,experiment,77,↑,up,↑,0.4705127002671361,True,34,1
157K25S4,1395,experiment,87,←,right,→,0.6072074002586305,False,34,1
157K25S4,1396,experiment,103,←,left,←,0.46938080014660954,True,34,1
157K25S4,1397,experiment,86,↓,down,↓,0.5979821998625994,True,34,1
157K25S4,1398,experiment,105,→,right,→,0.4164594002068043,True,34,1
157K25S4,1399,experiment,82,↓,no_key,no_letter,-1.0,False,34,0
157K25S4,1400,experiment,48,→,right,→,0.434041999746114,True,34,1
157K25S4,1401,experiment,97,↓,down,↓,0.5780012998729944,True,34,0
157K25S4,1402,experiment,91,↑,up,↑,0.5648821000941098,True,34,1
157K25S4,1403,experiment,60,↓,down,↓,0.41749530006200075,True,34,1
157K25S4,1404,experiment,108,↑,up,↑,0.5263793999329209,True,34,0
157K25S4,1405,experiment,59,↑,down,↓,0.4256183998659253,False,34,1
157K25S4,1406,experiment,80,↑,up,↑,0.5070583000779152,True,34,0
157K25S4,1407,experiment,57,↓,down,↓,0.460092700086534,True,34,1
157K25S4,1408,experiment,94,↑,down,↓,0.4253263999707997,False,34,1
157K25S4,1409,experiment,99,↑,up,↑,0.5291643999516964,True,34,0
157K25S4,1410,experiment,51,↓,down,↓,0.4678210001438856,True,34,1
157K25S4,1411,experiment,104,→,right,→,0.47884610015898943,True,34,1
157K25S4,1412,experiment,107,↑,up,↑,0.4088598000817001,True,34,1
157K25S4,1413,experiment,98,↑,up,↑,0.5674227997660637,True,34,0
157K25S4,1414,experiment,64,←,left,←,0.4764169999398291,True,34,1
157K25S4,1415,experiment,53,↑,no_key,no_letter,-1.0,False,34,1
157K25S4,1416,experiment,72,→,right,→,0.5549103999510407,True,34,1
157K25S4,1417,experiment,78,→,no_key,no_letter,-1.0,False,34,1
157K25S4,1418,experiment,49,↑,right,→,0.6464790999889374,False,34,1
157K25S4,1419,experiment,85,↑,up,↑,0.4887840002775192,True,34,1
157K25S4,1420,experiment,68,→,no_key,no_letter,-1.0,False,34,1
157K25S4,1421,experiment,52,→,right,→,0.5127260000444949,True,34,1
157K25S4,1422,experiment,102,←,left,←,0.47499299980700016,True,34,1
157K25S4,1423,experiment,50,→,right,→,0.43318499997258186,True,34,1
157K25S4,1424,experiment,106,→,right,→,0.49923430010676384,True,34,0
157K25S4,1425,experiment,65,↑,up,↑,0.433782699983567,True,34,1
157K25S4,1426,experiment,69,←,left,←,0.6740313996560872,True,34,0
157K25S4,1427,training,60,↓,down,↓,0.6492125000804663,True,34,0
157K25S4,1428,training,55,→,left,←,0.5096355997957289,False,34,1
157K25S4,1429,experiment,68,→,right,→,0.46722190035507083,True,34,1
157K25S4,1430,experiment,88,←,left,←,0.41714789997786283,True,34,1
157K25S4,1431,experiment,63,↓,no_key,no_letter,-1.0,False,34,0
157K25S4,1432,experiment,71,↓,down,↓,0.5455459002405405,True,34,1
157K25S4,1433,experiment,55,←,left,←,0.41716259997338057,True,34,1
157K25S4,1434,experiment,73,→,right,→,0.5132035999558866,True,34,0
157K25S4,1435,experiment,49,↓,down,↓,0.508508900180459,True,34,1
157K25S4,1436,experiment,94,→,right,→,0.42588229989632964,True,34,1
157K25S4,1437,experiment,56,→,right,→,0.4091253001242876,True,34,0
157K25S4,1438,experiment,80,→,right,→,0.6028136997483671,True,34,0
157K25S4,1439,experiment,89,←,left,←,0.38361519994214177,True,34,1
157K25S4,1440,experiment,74,→,no_key,no_letter,-1.0,False,34,1
157K25S4,1441,experiment,96,←,right,→,0.5054514999501407,False,34,1
157K25S4,1442,experiment,48,→,right,→,0.41749020013958216,True,34,1
157K25S4,1443,experiment,57,←,left,←,0.45832600025460124,True,34,0
157K25S4,1444,experiment,100,↑,up,↑,0.5183842000551522,True,34,1
157K25S4,1445,experiment,102,↑,up,↑,0.48044269997626543,True,34,1
157K25S4,1446,experiment,67,→,left,←,0.4795625996775925,False,34,1
157K25S4,1447,experiment,85,↓,down,↓,0.600196999963373,True,34,1
157K25S4,1448,experiment,99,↓,down,↓,0.5040925000794232,True,34,1
157K25S4,1449,experiment,101,↓,down,↓,0.4832732998766005,True,34,1
157K25S4,1450,experiment,76,→,right,→,0.5668064998462796,True,34,1
157K25S4,1451,experiment,106,↓,down,↓,0.6055272999219596,True,34,1
157K25S4,1452,experiment,81,↑,up,↑,0.658795699942857,True,34,1
157K25S4,1453,experiment,79,↑,up,↑,0.425764299929142,True,34,1
157K25S4,1454,experiment,61,→,no_key,no_letter,-1.0,False,34,1
157K25S4,1455,experiment,78,↓,down,↓,0.5467423000372946,True,34,1
157K25S4,1456,experiment,90,↑,up,↑,0.4245127998292446,True,34,1
157K25S4,1457,experiment,98,↑,down,↓,0.5579595998860896,False,34,0
157K25S4,1458,experiment,86,↑,up,↑,0.4996509999036789,True,34,1
157K25S4,1459,experiment,84,↑,up,↑,0.40071990014985204,True,34,1
157K25S4,1460,experiment,77,↑,up,↑,0.5708583001978695,True,34,0
157K25S4,1461,experiment,59,↑,up,↑,0.3748369999229908,True,34,1
157K25S4,1462,experiment,87,↓,down,↓,0.7414240003563464,True,34,0
157K25S4,1463,experiment,93,→,no_key,no_letter,-1.0,False,34,1
157K25S4,1464,experiment,108,←,left,←,0.4005086999386549,True,34,1
157K25S4,1465,experiment,103,↑,up,↑,0.4005924998782575,True,34,0
157K25S4,1466,experiment,62,↑,up,↑,0.5139164002612233,True,34,0
157K25S4,1467,experiment,83,→,right,→,0.4090879000723362,True,34,1
157K25S4,1468,experiment,70,↓,down,↓,0.4516063001938164,True,34,0
157K25S4,1469,experiment,65,←,left,←,0.4090466001071036,True,34,1
157K25S4,1470,experiment,105,→,right,→,0.41705689998343587,True,34,0
157K25S4,1471,experiment,95,→,right,→,0.3590973997488618,True,34,0
157K25S4,1472,experiment,52,→,left,←,0.5846450002864003,False,34,0
157K25S4,1473,experiment,72,↑,no_key,no_letter,-1.0,False,34,1
157K25S4,1474,experiment,107,↓,down,↓,0.5136540997773409,True,34,1
157K25S4,1475,experiment,82,←,left,←,0.3757827999070287,True,34,1
157K25S4,1476,experiment,53,→,right,→,0.400479800067842,True,34,0
157K25S4,1477,experiment,51,←,left,←,0.3923401003703475,True,34,0
157K25S4,1478,experiment,64,→,right,→,0.38387069990858436,True,34,0
157K25S4,1479,experiment,54,←,left,←,0.4748698999173939,True,34,0
157K25S4,1480,experiment,60,↓,down,↓,0.6443072003312409,True,34,1
157K25S4,1481,experiment,50,←,left,←,0.4826965001411736,True,34,1
157K25S4,1482,experiment,97,↓,down,↓,0.47966179996728897,True,34,1
157K25S4,1483,experiment,69,→,no_key,no_letter,-1.0,False,34,1
157K25S4,1484,experiment,91,↑,down,↓,0.49838910019025207,False,34,1
157K25S4,1485,experiment,58,↑,no_key,no_letter,-1.0,False,34,1
157K25S4,1486,experiment,75,←,left,←,0.4545827000401914,True,34,1
157K25S4,1487,experiment,104,↓,down,↓,0.7052987003698945,True,34,1
157K25S4,1488,experiment,92,↓,down,↓,0.4550728998146951,True,34,1
157K25S4,1489,experiment,66,↓,no_key,no_letter,-1.0,False,34,0
157K25S4,1490,training,88,←,left,←,0.4339168998412788,True,34,0
157K25S4,1491,training,108,↓,down,↓,0.48572519980371,True,34,1
