PART_ID,Trial_no,Trial_type,CSI,Stim_letter,Key_pressed,letter_choose,Rt,Corr,Stimulus Time,nDropped
157K25S3,1,training,120,←,left,←,1.1370928003452718,True,60,0
157K25S3,2,training,120,←,left,←,0.4269085000269115,True,60,0
157K25S3,3,training,120,↑,up,↑,0.550848999992013,True,60,0
157K25S3,4,training,120,→,right,→,0.4852486001327634,True,60,0
157K25S3,5,training,120,↑,up,↑,0.4437264003790915,True,60,0
157K25S3,6,training,120,↑,down,↓,0.7646542000584304,False,60,0
157K25S3,7,training,120,↓,down,↓,0.5335653000511229,True,60,0
157K25S3,8,training,120,↓,down,↓,0.5257759001106024,True,60,0
157K25S3,9,training,120,↑,up,↑,0.4686131998896599,True,60,0
157K25S3,10,training,120,→,down,↓,0.6175698000006378,False,60,0
157K25S3,11,training,120,↓,down,↓,0.5007015001028776,True,60,0
157K25S3,12,training,120,←,left,←,0.4687898000702262,True,60,0
157K25S3,13,training,120,↓,down,↓,0.6421286999247968,True,60,0
157K25S3,14,training,120,↑,up,↑,0.7171835000626743,True,60,0
157K25S3,15,training,120,←,right,→,0.6254342999309301,False,60,0
157K25S3,16,training,120,↓,down,↓,0.5346651002764702,True,60,0
157K25S3,17,training,120,→,right,→,0.5090772998519242,True,60,0
157K25S3,18,training,120,↑,up,↑,0.5091539002023637,True,60,0
157K25S3,19,training,120,↑,up,↑,0.7877862001769245,True,60,0
157K25S3,20,training,120,→,right,→,0.6680167000740767,True,60,0
157K25S3,21,no_adaptation,120,←,left,←,0.6507143997587264,True,36,0
157K25S3,22,no_adaptation,120,↑,up,↑,0.6474554999731481,True,36,0
157K25S3,23,no_adaptation,120,↓,down,↓,0.636697500012815,True,36,0
157K25S3,24,no_adaptation,120,←,no_key,no_letter,-1.0,False,36,0
157K25S3,25,no_adaptation,120,→,right,→,0.49858180014416575,True,36,0
157K25S3,26,no_adaptation,120,←,down,↓,1.117703199852258,False,36,0
157K25S3,27,no_adaptation,120,←,left,←,0.4091382999904454,True,36,0
157K25S3,28,no_adaptation,120,→,right,→,0.4791792002506554,True,36,0
157K25S3,29,no_adaptation,120,←,left,←,0.5145704001188278,True,36,0
157K25S3,30,no_adaptation,120,↓,down,↓,0.6691939998418093,True,36,0
157K25S3,31,no_adaptation,120,→,right,→,0.6973656001500785,True,36,0
157K25S3,32,no_adaptation,120,↓,down,↓,0.4770164000801742,True,36,0
157K25S3,33,no_adaptation,120,↓,down,↓,0.8645290997810662,True,36,0
157K25S3,34,no_adaptation,120,←,left,←,0.708889199886471,True,36,0
157K25S3,35,no_adaptation,120,→,right,→,0.6717101000249386,True,36,0
157K25S3,36,no_adaptation,120,↓,right,→,0.7798814997076988,False,36,0
157K25S3,37,no_adaptation,120,←,left,←,0.5800153003074229,True,36,0
157K25S3,38,no_adaptation,120,↑,up,↑,0.6356809996068478,True,36,0
157K25S3,39,no_adaptation,120,←,left,←,0.481583199929446,True,36,0
157K25S3,40,no_adaptation,120,↓,down,↓,0.6206347998231649,True,36,0
157K25S3,41,training,101,←,left,←,0.5200747000053525,True,36,0
157K25S3,42,training,108,↓,down,↓,0.5030814004130661,True,36,1
157K25S3,43,experiment,69,↑,up,↑,0.7719576000235975,True,36,1
157K25S3,44,experiment,84,←,left,←,0.4810772999189794,True,36,1
157K25S3,45,experiment,48,↑,up,↑,0.6529323002323508,True,36,1
157K25S3,46,experiment,83,↑,up,↑,0.48730630008503795,True,36,1
157K25S3,47,experiment,88,↓,up,↑,0.7176985000260174,False,36,1
157K25S3,48,experiment,102,←,left,←,0.6307359002530575,True,36,1
157K25S3,49,experiment,86,→,right,→,0.5124666001647711,True,36,1
157K25S3,50,experiment,54,→,right,→,0.6898603001609445,True,36,1
157K25S3,51,experiment,100,↑,up,↑,0.500626599881798,True,36,1
157K25S3,52,experiment,76,→,right,→,0.8710179002955556,True,36,1
157K25S3,53,experiment,98,←,right,→,0.5559653998352587,False,36,1
157K25S3,54,experiment,61,↓,down,↓,0.7521077999845147,True,36,1
157K25S3,55,experiment,79,←,left,←,0.6475256001576781,True,36,1
157K25S3,56,experiment,65,↑,up,↑,0.5916091999970376,True,36,1
157K25S3,57,experiment,70,→,right,→,0.4962853998877108,True,36,1
157K25S3,58,experiment,63,↑,up,↑,0.6549824997782707,True,36,1
157K25S3,59,experiment,68,↓,down,↓,0.9017753000371158,True,36,1
157K25S3,60,experiment,85,↓,down,↓,0.5970314000733197,True,36,1
157K25S3,61,experiment,64,←,right,→,0.8155201999470592,False,36,1
157K25S3,62,experiment,62,→,right,→,0.5058713001199067,True,36,1
157K25S3,63,experiment,49,↓,down,↓,0.7730161002837121,True,36,1
157K25S3,64,experiment,59,←,no_key,no_letter,-1.0,False,36,1
157K25S3,65,experiment,90,→,right,→,0.5088951997458935,True,36,1
157K25S3,66,experiment,60,↓,up,↑,0.8282996001653373,False,36,1
157K25S3,67,experiment,51,→,right,→,0.5461091999895871,True,36,1
157K25S3,68,experiment,108,↑,up,↑,0.6877339999191463,True,36,1
157K25S3,69,experiment,53,↑,up,↑,0.5944773997180164,True,36,1
157K25S3,70,experiment,74,↓,down,↓,0.561799299903214,True,36,1
157K25S3,71,experiment,55,↓,down,↓,0.6169445002451539,True,36,1
157K25S3,72,experiment,95,→,right,→,0.6323389001190662,True,36,1
157K25S3,73,experiment,101,↑,up,↑,0.6369992000982165,True,36,1
157K25S3,74,experiment,77,↓,left,←,0.8418609998188913,False,36,1
157K25S3,75,experiment,67,→,right,→,0.5134184001944959,True,36,1
157K25S3,76,experiment,82,→,right,→,0.426445999648422,True,36,1
157K25S3,77,experiment,78,↑,up,↑,0.6935581001453102,True,36,0
157K25S3,78,experiment,72,→,right,→,0.6738126999698579,True,36,1
157K25S3,79,experiment,97,←,left,←,0.5580573999322951,True,36,1
157K25S3,80,experiment,92,↑,up,↑,0.6406862000003457,True,36,1
157K25S3,81,experiment,103,↓,up,↑,0.5804873998276889,False,36,1
157K25S3,82,experiment,52,→,right,→,0.6595354001037776,True,36,1
157K25S3,83,experiment,56,↓,down,↓,0.5982078001834452,True,36,1
157K25S3,84,experiment,94,←,left,←,0.6385432998649776,True,36,1
157K25S3,85,experiment,75,↑,up,↑,0.4997223000973463,True,36,1
157K25S3,86,experiment,57,↓,right,→,0.828473599627614,False,36,1
157K25S3,87,experiment,50,←,left,←,0.4906256999820471,True,36,1
157K25S3,88,experiment,93,←,left,←,0.4254274000413716,True,36,1
157K25S3,89,experiment,99,↓,down,↓,0.5890110996551812,True,36,0
157K25S3,90,experiment,87,←,left,←,0.40925000002607703,True,36,1
157K25S3,91,experiment,58,↑,up,↑,0.49182040011510253,True,36,0
157K25S3,92,experiment,91,↑,up,↑,0.7375308000482619,True,36,1
157K25S3,93,experiment,81,↓,down,↓,0.5046013998799026,True,36,1
157K25S3,94,experiment,80,→,right,→,0.6892723003402352,True,36,1
157K25S3,95,experiment,73,←,left,←,0.5889973002485931,True,36,1
157K25S3,96,experiment,71,↑,up,↑,0.46999499993398786,True,36,1
157K25S3,97,experiment,107,↑,up,↑,0.5744635998271406,True,36,0
157K25S3,98,experiment,106,←,left,←,0.38401490030810237,True,36,1
157K25S3,99,experiment,89,↑,up,↑,0.6944587999023497,True,36,0
157K25S3,100,experiment,96,→,right,→,0.4348965003155172,True,36,1
157K25S3,101,experiment,105,→,right,→,0.4173316997475922,True,36,0
157K25S3,102,experiment,66,←,left,←,0.885683000087738,True,36,0
157K25S3,103,experiment,104,↑,up,↑,0.7352729998528957,True,36,1
157K25S3,104,training,95,→,left,←,0.5642043999396265,False,36,0
157K25S3,105,training,94,→,right,→,0.549505400005728,True,36,1
157K25S3,106,experiment,54,→,right,→,0.434037699829787,True,36,1
157K25S3,107,experiment,95,←,left,←,0.5236538001336157,True,36,0
157K25S3,108,experiment,74,↓,down,↓,0.6141613000072539,True,36,1
157K25S3,109,experiment,53,↑,up,↑,0.7151312003843486,True,36,1
157K25S3,110,experiment,51,↑,up,↑,0.7092029000632465,True,36,1
157K25S3,111,experiment,65,↑,up,↑,0.7149128997698426,True,36,1
157K25S3,112,experiment,84,↓,down,↓,0.6020651999861002,True,36,1
157K25S3,113,experiment,102,←,left,←,0.4509621998295188,True,36,1
157K25S3,114,experiment,90,←,no_key,no_letter,-1.0,False,36,0
157K25S3,115,experiment,98,↓,down,↓,0.5513972002081573,True,36,1
157K25S3,116,experiment,70,←,right,→,0.7217211998067796,False,36,1
157K25S3,117,experiment,105,↑,no_key,no_letter,-1.0,False,36,1
157K25S3,118,experiment,80,←,no_key,no_letter,-1.0,False,36,1
157K25S3,119,experiment,104,↓,down,↓,0.5896542998962104,True,36,1
157K25S3,120,experiment,81,←,left,←,0.6588511001318693,True,36,1
157K25S3,121,experiment,75,↑,up,↑,0.6470814999192953,True,36,1
157K25S3,122,experiment,101,→,right,→,0.6271466999314725,True,36,1
157K25S3,123,experiment,89,←,left,←,0.5322118997573853,True,36,1
157K25S3,124,experiment,92,←,left,←,0.400727900210768,True,36,1
157K25S3,125,experiment,97,↓,up,↑,0.7349645998328924,False,36,0
157K25S3,126,experiment,99,←,no_key,no_letter,-1.0,False,36,1
157K25S3,127,experiment,58,→,right,→,0.6219643000513315,True,36,1
157K25S3,128,experiment,48,←,right,→,0.5246604001149535,False,36,1
157K25S3,129,experiment,77,↓,down,↓,0.6056771003641188,True,36,1
157K25S3,130,experiment,100,←,left,←,0.5878624999895692,True,36,1
157K25S3,131,experiment,72,↑,up,↑,0.5157336997799575,True,36,1
157K25S3,132,experiment,67,↓,down,↓,0.7607784997671843,True,36,1
157K25S3,133,experiment,59,←,left,←,0.4423860996030271,True,36,1
157K25S3,134,experiment,82,↓,down,↓,0.5286848000250757,True,36,0
157K25S3,135,experiment,79,→,right,→,0.47374199982732534,True,36,1
157K25S3,136,experiment,50,→,left,←,0.8770722001791,False,36,0
157K25S3,137,experiment,68,↑,up,↑,0.6031410000286996,True,36,1
157K25S3,138,experiment,60,↓,up,↑,0.6550118001177907,False,36,1
157K25S3,139,experiment,85,↓,down,↓,0.520316599868238,True,36,1
157K25S3,140,experiment,87,→,right,→,0.6784668997861445,True,36,1
157K25S3,141,experiment,62,↓,down,↓,0.6384884999133646,True,36,1
157K25S3,142,experiment,91,↑,up,↑,0.6460543000139296,True,36,1
157K25S3,143,experiment,106,←,left,←,0.5285280998796225,True,36,1
157K25S3,144,experiment,108,←,left,←,0.4507551002316177,True,36,1
157K25S3,145,experiment,94,→,right,→,0.48552409978583455,True,36,0
157K25S3,146,experiment,55,↓,down,↓,0.5830577998422086,True,36,1
157K25S3,147,experiment,88,←,left,←,0.7300688000395894,True,36,1
157K25S3,148,experiment,49,↑,up,↑,0.4845950002782047,True,36,1
157K25S3,149,experiment,103,↓,down,↓,0.6222299002110958,True,36,1
157K25S3,150,experiment,64,↓,down,↓,0.5116663002409041,True,36,1
157K25S3,151,experiment,86,↑,down,↓,0.6623085997998714,False,36,1
157K25S3,152,experiment,96,←,left,←,0.40909790014848113,True,36,1
157K25S3,153,experiment,66,→,right,→,0.41743530007079244,True,36,0
157K25S3,154,experiment,76,→,right,→,0.9622897999361157,True,36,0
157K25S3,155,experiment,71,←,left,←,0.476394800003618,True,36,1
157K25S3,156,experiment,78,→,right,→,0.43416459998115897,True,36,1
157K25S3,157,experiment,73,↑,down,↓,0.7158282999880612,False,36,0
157K25S3,158,experiment,56,↑,down,↓,0.6281900000758469,False,36,1
157K25S3,159,experiment,83,←,left,←,0.4952071998268366,True,36,1
157K25S3,160,experiment,63,←,left,←,0.6942990999668837,True,36,1
157K25S3,161,experiment,107,↓,down,↓,0.6226491001434624,True,36,1
157K25S3,162,experiment,69,↓,down,↓,0.606321600265801,True,36,1
157K25S3,163,experiment,57,→,left,←,0.5787339000962675,False,36,1
157K25S3,164,experiment,93,↓,down,↓,0.5326676997356117,True,36,1
157K25S3,165,experiment,61,→,right,→,0.6427350998856127,True,36,1
157K25S3,166,experiment,52,↓,down,↓,0.5112835001200438,True,36,1
157K25S3,167,training,59,↑,up,↑,0.7372794998809695,True,36,0
157K25S3,168,training,106,↓,down,↓,0.5202100002206862,True,36,1
157K25S3,169,experiment,67,↑,up,↑,0.6531408000737429,True,36,1
157K25S3,170,experiment,70,↑,up,↑,0.4993831003084779,True,36,1
157K25S3,171,experiment,49,→,right,→,0.5348722999915481,True,36,1
157K25S3,172,experiment,79,↓,down,↓,0.5269431998021901,True,36,1
157K25S3,173,experiment,81,↑,down,↓,0.6226091999560595,False,36,1
157K25S3,174,experiment,92,↓,down,↓,0.5426904000341892,True,36,1
157K25S3,175,experiment,75,↓,down,↓,0.5597776002250612,True,36,1
157K25S3,176,experiment,85,→,right,→,0.5328311999328434,True,36,1
157K25S3,177,experiment,89,→,no_key,no_letter,-1.0,False,36,1
157K25S3,178,experiment,103,↓,down,↓,0.6161060002632439,True,36,1
157K25S3,179,experiment,68,↑,up,↑,0.4964605001732707,True,36,1
157K25S3,180,experiment,53,←,right,→,0.602574999909848,False,36,1
157K25S3,181,experiment,51,←,left,←,0.633321899920702,True,36,1
157K25S3,182,experiment,106,↑,up,↑,0.47675339970737696,True,36,1
157K25S3,183,experiment,93,→,right,→,0.41735289990901947,True,36,1
157K25S3,184,experiment,100,←,left,←,0.42660300014540553,True,36,0
157K25S3,185,experiment,82,←,right,→,0.5942695001140237,False,36,0
157K25S3,186,experiment,73,↑,up,↑,0.6419787998311222,True,36,1
157K25S3,187,experiment,84,↑,up,↑,0.5640132003463805,True,36,1
157K25S3,188,experiment,48,←,left,←,0.4340507001616061,True,36,1
157K25S3,189,experiment,105,←,left,←,0.6160499001853168,True,36,0
157K25S3,190,experiment,101,←,left,←,0.5335383000783622,True,36,1
157K25S3,191,experiment,59,→,right,→,0.45096089970320463,True,36,1
157K25S3,192,experiment,88,↓,down,↓,0.5084027997218072,True,36,0
157K25S3,193,experiment,71,↓,down,↓,0.4962420999072492,True,36,1
157K25S3,194,experiment,69,←,left,←,0.5008059996180236,True,36,1
157K25S3,195,experiment,63,→,right,→,0.5636137998662889,True,36,1
157K25S3,196,experiment,98,↓,down,↓,0.5639670002274215,True,36,1
157K25S3,197,experiment,104,↑,up,↑,0.4823552002198994,True,36,1
157K25S3,198,experiment,66,←,right,→,0.5767222996801138,False,36,1
157K25S3,199,experiment,97,→,left,←,0.5211440003477037,False,36,1
157K25S3,200,experiment,58,↑,up,↑,0.48056629998609424,True,36,1
157K25S3,201,experiment,64,→,left,←,0.6636672997847199,False,36,1
157K25S3,202,experiment,96,←,left,←,0.5328909996896982,True,36,1
157K25S3,203,experiment,107,↑,up,↑,0.5314036002382636,True,36,1
157K25S3,204,experiment,76,→,right,→,0.5085603999905288,True,36,1
157K25S3,205,experiment,56,↓,down,↓,0.6851510000415146,True,36,1
157K25S3,206,experiment,74,←,left,←,0.520802800077945,True,36,1
157K25S3,207,experiment,99,←,left,←,0.4338712999597192,True,36,1
157K25S3,208,experiment,86,↓,down,↓,0.5803340002894402,True,36,0
157K25S3,209,experiment,83,↑,up,↑,0.4423497999086976,True,36,1
157K25S3,210,experiment,108,→,right,→,0.4257374000735581,True,36,0
157K25S3,211,experiment,94,↓,down,↓,0.8019055002368987,True,36,0
157K25S3,212,experiment,61,←,no_key,no_letter,-1.0,False,36,1
157K25S3,213,experiment,91,↓,down,↓,0.6076905997470021,True,36,1
157K25S3,214,experiment,62,↑,up,↑,0.6824802998453379,True,36,1
157K25S3,215,experiment,65,→,right,→,0.6493232999928296,True,36,1
157K25S3,216,experiment,50,↓,down,↓,0.5660934997722507,True,36,1
157K25S3,217,experiment,52,→,right,→,0.5260036997497082,True,36,1
157K25S3,218,experiment,90,→,right,→,0.602730100043118,True,36,1
157K25S3,219,experiment,72,←,left,←,0.6267605000175536,True,36,1
157K25S3,220,experiment,87,←,left,←,0.5324932001531124,True,36,1
157K25S3,221,experiment,57,→,left,←,0.5316924001090229,False,36,1
157K25S3,222,experiment,78,↓,down,↓,0.7800772003829479,True,36,1
157K25S3,223,experiment,77,↑,down,↓,0.514780499972403,False,36,1
157K25S3,224,experiment,80,↓,down,↓,0.883111999835819,True,36,1
157K25S3,225,experiment,95,↓,down,↓,0.5599231999367476,True,36,1
157K25S3,226,experiment,54,←,left,←,0.6552989999763668,True,36,1
157K25S3,227,experiment,60,→,right,→,0.5448825000785291,True,36,1
157K25S3,228,experiment,55,→,right,→,0.8164421999827027,True,36,1
157K25S3,229,experiment,102,→,no_key,no_letter,-1.0,False,36,1
157K25S3,230,training,61,←,left,←,0.557706099934876,True,36,0
157K25S3,231,training,101,→,right,→,0.4696146999485791,True,36,1
157K25S3,232,experiment,51,↓,down,↓,0.6807908001355827,True,36,0
157K25S3,233,experiment,50,↑,up,↑,0.516529300250113,True,36,1
157K25S3,234,experiment,61,←,left,←,0.6273670000955462,True,36,1
157K25S3,235,experiment,72,←,left,←,0.5301204998977482,True,36,1
157K25S3,236,experiment,74,↓,down,↓,0.45077979983761907,True,36,1
157K25S3,237,experiment,55,↓,no_key,no_letter,-1.0,False,36,0
157K25S3,238,experiment,97,→,right,→,0.7993856999091804,True,36,1
157K25S3,239,experiment,76,→,right,→,0.4700374002568424,True,36,1
157K25S3,240,experiment,89,↑,up,↑,0.5329900998622179,True,36,0
157K25S3,241,experiment,98,↑,up,↑,0.4424203000962734,True,36,1
157K25S3,242,experiment,91,←,no_key,no_letter,-1.0,False,36,0
157K25S3,243,experiment,73,→,no_key,no_letter,-1.0,False,36,1
157K25S3,244,experiment,96,↑,up,↑,0.663278799969703,True,36,1
157K25S3,245,experiment,57,↑,up,↑,0.4978934000246227,True,36,1
157K25S3,246,experiment,56,↓,down,↓,0.8108184998854995,True,36,1
157K25S3,247,experiment,80,↑,up,↑,0.5435494002886117,True,36,1
157K25S3,248,experiment,78,→,left,←,0.5914746997877955,False,36,1
157K25S3,249,experiment,66,←,left,←,0.4006978003308177,True,36,1
157K25S3,250,experiment,84,↑,up,↑,0.47769200010225177,True,36,0
157K25S3,251,experiment,82,→,right,→,0.4426703001372516,True,36,1
157K25S3,252,experiment,94,←,left,←,0.6447240998968482,True,36,0
157K25S3,253,experiment,60,←,right,→,0.606594099663198,False,36,1
157K25S3,254,experiment,70,←,left,←,0.4006938999518752,True,36,1
157K25S3,255,experiment,102,↓,down,↓,0.6360309002920985,True,36,0
157K25S3,256,experiment,95,↑,down,↓,0.5947455000132322,False,36,1
157K25S3,257,experiment,90,↑,up,↑,0.42575359996408224,True,36,1
157K25S3,258,experiment,103,←,left,←,0.656885199714452,True,36,0
157K25S3,259,experiment,64,←,no_key,no_letter,-1.0,False,36,1
157K25S3,260,experiment,86,↑,up,↑,0.5011262996122241,True,36,1
157K25S3,261,experiment,108,↓,down,↓,0.6768724001012743,True,36,1
157K25S3,262,experiment,69,←,left,←,0.49057749984785914,True,36,1
157K25S3,263,experiment,85,←,right,→,0.5382663998752832,False,36,1
157K25S3,264,experiment,87,↑,up,↑,0.48753639962524176,True,36,1
157K25S3,265,experiment,83,→,right,→,0.49572400003671646,True,36,1
157K25S3,266,experiment,52,→,right,→,0.6985352002084255,True,36,1
157K25S3,267,experiment,93,←,left,←,0.5752661000005901,True,36,1
157K25S3,268,experiment,49,→,right,→,0.44236720027402043,True,36,1
157K25S3,269,experiment,54,→,left,←,0.6031960002146661,False,36,0
157K25S3,270,experiment,105,↓,down,↓,0.7280939002521336,True,36,1
157K25S3,271,experiment,62,←,left,←,0.5341566996648908,True,36,1
157K25S3,272,experiment,68,→,right,→,0.4901135000400245,True,36,1
157K25S3,273,experiment,100,↓,down,↓,0.5486448998562992,True,36,1
157K25S3,274,experiment,48,↓,down,↓,0.5023610997013748,True,36,1
157K25S3,275,experiment,71,↓,down,↓,0.4749989998526871,True,36,1
157K25S3,276,experiment,101,↓,down,↓,0.6935016997158527,True,36,0
157K25S3,277,experiment,67,↓,down,↓,0.5952262999489903,True,36,1
157K25S3,278,experiment,106,←,left,←,0.519964000210166,True,36,1
157K25S3,279,experiment,77,←,no_key,no_letter,-1.0,False,36,1
157K25S3,280,experiment,53,→,left,←,0.6405350002460182,False,36,1
157K25S3,281,experiment,99,↓,down,↓,0.4775740997865796,True,36,1
157K25S3,282,experiment,81,↑,down,↓,0.5112443999387324,False,36,1
157K25S3,283,experiment,88,↑,down,↓,0.6453607999719679,False,36,1
157K25S3,284,experiment,79,↓,down,↓,0.5292138000950217,True,36,1
157K25S3,285,experiment,107,↑,down,↓,0.5198564999736845,False,36,1
157K25S3,286,experiment,58,↓,down,↓,0.503588099963963,True,36,1
157K25S3,287,experiment,59,→,left,←,0.5273279999382794,False,36,1
157K25S3,288,experiment,65,←,left,←,0.4340271996334195,True,36,1
157K25S3,289,experiment,92,→,no_key,no_letter,-1.0,False,36,0
157K25S3,290,experiment,63,←,left,←,0.6637773998081684,True,36,1
157K25S3,291,experiment,75,→,left,←,0.4762474000453949,False,36,1
157K25S3,292,experiment,104,←,left,←,0.43403750006109476,True,36,1
157K25S3,293,training,80,↓,down,↓,0.7196792997419834,True,36,0
157K25S3,294,training,90,↑,up,↑,0.612616500351578,True,36,1
157K25S3,295,experiment,74,←,left,←,0.5396723998710513,True,36,1
157K25S3,296,experiment,69,↑,down,↓,0.5260848999023438,False,36,1
157K25S3,297,experiment,99,↓,down,↓,0.5839192001149058,True,36,1
157K25S3,298,experiment,84,↓,down,↓,0.38384429970756173,True,36,1
157K25S3,299,experiment,63,↑,up,↑,0.7593193999491632,True,36,0
157K25S3,300,experiment,103,↓,down,↓,0.5264481999911368,True,36,1
157K25S3,301,experiment,79,←,no_key,no_letter,-1.0,False,36,1
157K25S3,302,experiment,93,↑,up,↑,0.6806041998788714,True,36,1
157K25S3,303,experiment,75,↑,up,↑,0.5398594997823238,True,36,1
157K25S3,304,experiment,100,↓,no_key,no_letter,-1.0,False,36,1
157K25S3,305,experiment,90,↑,down,↓,0.6476449999026954,False,36,1
157K25S3,306,experiment,96,←,left,←,0.4854306997731328,True,36,1
157K25S3,307,experiment,85,↓,down,↓,0.6291368999518454,True,36,1
157K25S3,308,experiment,62,↑,down,↓,0.5427684001624584,False,36,1
157K25S3,309,experiment,83,→,right,→,0.5091443997807801,True,36,1
157K25S3,310,experiment,72,↓,down,↓,0.7124524000100791,True,36,1
157K25S3,311,experiment,61,→,no_key,no_letter,-1.0,False,36,1
157K25S3,312,experiment,108,→,left,←,0.5961459004320204,False,36,1
157K25S3,313,experiment,97,↑,down,↓,0.6201908001676202,False,36,1
157K25S3,314,experiment,77,↓,down,↓,0.6008180002681911,True,36,1
157K25S3,315,experiment,86,→,right,→,0.46829470014199615,True,36,1
157K25S3,316,experiment,102,→,right,→,0.3922160002402961,True,36,0
157K25S3,317,experiment,101,→,right,→,0.3839914998970926,True,36,0
157K25S3,318,experiment,92,↓,down,↓,0.6460636998526752,True,36,0
157K25S3,319,experiment,67,↑,down,↓,0.5815047998912632,False,36,1
157K25S3,320,experiment,64,→,no_key,no_letter,-1.0,False,36,1
157K25S3,321,experiment,68,↓,down,↓,0.5707547999918461,True,36,1
157K25S3,322,experiment,48,←,left,←,0.5238009002059698,True,36,1
157K25S3,323,experiment,78,↓,down,↓,0.434207699727267,True,36,1
157K25S3,324,experiment,54,↓,down,↓,0.7288651000708342,True,36,0
157K25S3,325,experiment,55,←,left,←,0.5451330998912454,True,36,1
157K25S3,326,experiment,82,↓,down,↓,0.4506927998736501,True,36,1
157K25S3,327,experiment,81,←,no_key,no_letter,-1.0,False,36,0
157K25S3,328,experiment,104,↓,down,↓,0.5524189998395741,True,36,1
157K25S3,329,experiment,80,↑,no_key,no_letter,-1.0,False,36,1
157K25S3,330,experiment,59,→,right,→,0.5727141001261771,True,36,1
157K25S3,331,experiment,70,↑,up,↑,0.8222982999868691,True,36,1
157K25S3,332,experiment,107,←,no_key,no_letter,-1.0,False,36,1
157K25S3,333,experiment,89,←,left,←,0.41748080030083656,True,36,1
157K25S3,334,experiment,49,←,left,←,0.4339538998901844,True,36,0
157K25S3,335,experiment,65,↑,down,↓,0.5311671998351812,False,36,0
157K25S3,336,experiment,106,↓,down,↓,0.5222797002643347,True,36,1
157K25S3,337,experiment,98,↓,down,↓,0.7081752000376582,True,36,1
157K25S3,338,experiment,88,↓,down,↓,0.5301911998540163,True,36,1
157K25S3,339,experiment,95,↑,up,↑,0.5329828001558781,True,36,1
157K25S3,340,experiment,94,←,left,←,0.450774900149554,True,36,1
157K25S3,341,experiment,56,↑,down,↓,0.8749874997884035,False,36,0
157K25S3,342,experiment,51,↑,up,↑,0.7264465000480413,True,36,1
157K25S3,343,experiment,71,→,right,→,0.5216062003746629,True,36,1
157K25S3,344,experiment,105,↓,down,↓,0.6252770000137389,True,36,1
157K25S3,345,experiment,66,←,left,←,0.7780921002849936,True,36,1
157K25S3,346,experiment,58,←,left,←,0.5354194003157318,True,36,1
157K25S3,347,experiment,87,↑,up,↑,0.4928593998774886,True,36,1
157K25S3,348,experiment,57,↓,down,↓,0.5666211000643671,True,36,1
157K25S3,349,experiment,60,→,right,→,0.4753979998640716,True,36,1
157K25S3,350,experiment,73,→,right,→,0.6473707999102771,True,36,1
157K25S3,351,experiment,50,↑,up,↑,0.6285083997063339,True,36,1
157K25S3,352,experiment,52,↓,down,↓,0.5778588000684977,True,36,1
157K25S3,353,experiment,53,↓,left,←,0.5290165999904275,False,36,1
157K25S3,354,experiment,76,←,left,←,0.6663412000052631,True,36,1
157K25S3,355,experiment,91,←,left,←,0.6170322000980377,True,36,1
157K25S3,356,training,98,←,left,←,0.5147329000756145,True,36,0
157K25S3,357,training,80,→,left,←,0.48320299992337823,False,36,1
157K25S3,358,experiment,107,↑,up,↑,0.5316729000769556,True,36,1
157K25S3,359,experiment,103,↓,down,↓,0.5236093001440167,True,36,1
157K25S3,360,experiment,69,↑,up,↑,0.70342419994995,True,36,1
157K25S3,361,experiment,87,←,left,←,0.3669769000262022,True,36,1
157K25S3,362,experiment,92,→,right,→,0.6082144998945296,True,36,0
157K25S3,363,experiment,78,↑,up,↑,0.47007189970463514,True,36,1
157K25S3,364,experiment,104,←,left,←,0.3340917001478374,True,36,1
157K25S3,365,experiment,53,←,no_key,no_letter,-1.0,False,36,0
157K25S3,366,experiment,105,↑,up,↑,0.67008710000664,True,36,1
157K25S3,367,experiment,80,←,left,←,0.4090758999809623,True,36,1
157K25S3,368,experiment,73,→,right,→,0.6072109001688659,True,36,0
157K25S3,369,experiment,82,↓,down,↓,0.5311976000666618,True,36,1
157K25S3,370,experiment,94,↓,down,↓,0.5104469996877015,True,36,1
157K25S3,371,experiment,58,↑,down,↓,0.8622977999038994,False,36,1
157K25S3,372,experiment,93,→,right,→,0.5082279001362622,True,36,1
157K25S3,373,experiment,63,←,left,←,0.5786403999663889,True,36,1
157K25S3,374,experiment,52,→,no_key,no_letter,-1.0,False,36,1
157K25S3,375,experiment,88,↑,up,↑,0.48614609986543655,True,36,1
157K25S3,376,experiment,71,↑,down,↓,0.6584872999228537,False,36,1
157K25S3,377,experiment,74,→,right,→,0.4507508999668062,True,36,1
157K25S3,378,experiment,55,↓,up,↑,0.6502852998673916,False,36,0
157K25S3,379,experiment,81,←,left,←,0.4089116002433002,True,36,1
157K25S3,380,experiment,54,↑,up,↑,0.4348680004477501,True,36,0
157K25S3,381,experiment,77,↓,down,↓,0.6381772998720407,True,36,0
157K25S3,382,experiment,72,↓,no_key,no_letter,-1.0,False,36,1
157K25S3,383,experiment,57,→,right,→,0.6664955001324415,True,36,1
157K25S3,384,experiment,50,↓,down,↓,0.5507908998988569,True,36,1
157K25S3,385,experiment,98,→,down,↓,0.5039015002548695,False,36,1
157K25S3,386,experiment,75,←,left,←,0.6742947995662689,True,36,1
157K25S3,387,experiment,60,→,right,→,0.507296500261873,True,36,1
157K25S3,388,experiment,96,→,no_key,no_letter,-1.0,False,36,1
157K25S3,389,experiment,76,↑,up,↑,0.6699715000577271,True,36,1
157K25S3,390,experiment,108,↓,down,↓,0.574925699736923,True,36,1
157K25S3,391,experiment,101,→,right,→,0.45066520012915134,True,36,1
157K25S3,392,experiment,68,→,left,←,0.7167078000493348,False,36,0
157K25S3,393,experiment,48,↑,up,↑,0.5118530001491308,True,36,1
157K25S3,394,experiment,84,←,left,←,0.47955740010365844,True,36,1
157K25S3,395,experiment,97,→,no_key,no_letter,-1.0,False,36,1
157K25S3,396,experiment,85,↓,down,↓,0.5197644997388124,True,36,1
157K25S3,397,experiment,83,↑,up,↑,0.5032131001353264,True,36,1
157K25S3,398,experiment,56,←,right,→,0.7765207001939416,False,36,1
157K25S3,399,experiment,61,↑,up,↑,0.5567433997057378,True,36,1
157K25S3,400,experiment,51,→,no_key,no_letter,-1.0,False,36,1
157K25S3,401,experiment,59,↑,up,↑,0.6584304003044963,True,36,1
157K25S3,402,experiment,90,→,right,→,0.4821017002686858,True,36,1
157K25S3,403,experiment,86,↑,up,↑,0.4424523003399372,True,36,1
157K25S3,404,experiment,91,↓,down,↓,0.6487808004021645,True,36,0
157K25S3,405,experiment,106,→,right,→,0.6271788999438286,True,36,1
157K25S3,406,experiment,65,↑,up,↑,0.6522268997505307,True,36,1
157K25S3,407,experiment,67,→,no_key,no_letter,-1.0,False,36,1
157K25S3,408,experiment,70,←,left,←,0.6054214001633227,True,36,1
157K25S3,409,experiment,64,↓,down,↓,0.6632030000910163,True,36,1
157K25S3,410,experiment,79,→,right,→,0.48226970015093684,True,36,1
157K25S3,411,experiment,99,↓,down,↓,0.5094790998846292,True,36,1
157K25S3,412,experiment,89,→,right,→,0.4757526000030339,True,36,1
157K25S3,413,experiment,62,←,right,→,0.6508602001704276,False,36,1
157K25S3,414,experiment,49,←,left,←,0.5043024001643062,True,36,1
157K25S3,415,experiment,102,←,right,→,0.32566670002415776,False,36,1
157K25S3,416,experiment,100,↓,left,←,0.39242349984124303,False,36,0
157K25S3,417,experiment,66,↑,up,↑,0.500789999961853,True,36,0
157K25S3,418,experiment,95,↓,down,↓,0.6169520998373628,True,36,1
157K25S3,419,training,55,↑,no_key,no_letter,-1.0,False,36,0
157K25S3,420,training,100,↓,down,↓,0.5292542995885015,True,36,1
157K25S3,421,experiment,101,↓,no_key,no_letter,-1.0,False,36,1
157K25S3,422,experiment,96,↑,up,↑,0.6350620999000967,True,36,1
157K25S3,423,experiment,49,→,right,→,0.7051134998910129,True,36,1
157K25S3,424,experiment,52,↓,down,↓,0.555269000120461,True,36,1
157K25S3,425,experiment,77,→,no_key,no_letter,-1.0,False,36,1
157K25S3,426,experiment,97,→,no_key,no_letter,-1.0,False,36,1
157K25S3,427,experiment,55,↓,down,↓,0.6587624996900558,True,36,1
157K25S3,428,experiment,74,↓,down,↓,0.5346754998899996,True,36,1
157K25S3,429,experiment,48,↓,down,↓,0.5611380999907851,True,36,1
157K25S3,430,experiment,67,→,right,→,0.5322875999845564,True,36,1
157K25S3,431,experiment,71,←,left,←,0.5431396001949906,True,36,1
157K25S3,432,experiment,60,→,left,←,0.4853242998942733,False,36,1
157K25S3,433,experiment,107,←,left,←,0.4935006997548044,True,36,1
157K25S3,434,experiment,94,↓,down,↓,0.546191199682653,True,36,1
157K25S3,435,experiment,104,←,left,←,0.5932131004519761,True,36,1
157K25S3,436,experiment,105,↓,down,↓,0.5502821002155542,True,36,1
157K25S3,437,experiment,98,↓,down,↓,0.5992852998897433,True,36,1
157K25S3,438,experiment,61,↑,up,↑,0.5466649997979403,True,36,1
157K25S3,439,experiment,99,↓,down,↓,0.5874314997345209,True,36,1
157K25S3,440,experiment,75,↑,up,↑,0.6265185000374913,True,36,1
157K25S3,441,experiment,57,→,right,→,0.694153199903667,True,36,1
157K25S3,442,experiment,103,→,right,→,0.49584180023521185,True,36,1
157K25S3,443,experiment,56,→,right,→,0.5853224000893533,True,36,1
157K25S3,444,experiment,102,←,left,←,0.48805000027641654,True,36,1
157K25S3,445,experiment,54,→,right,→,0.8497799998149276,True,36,1
157K25S3,446,experiment,85,↓,down,↓,0.5391241000033915,True,36,1
157K25S3,447,experiment,100,↓,down,↓,0.6438233000226319,True,36,1
157K25S3,448,experiment,66,↓,down,↓,0.6759021999314427,True,36,1
157K25S3,449,experiment,72,↓,up,↑,0.6645875000394881,False,36,1
157K25S3,450,experiment,59,←,left,←,0.4509497000835836,True,36,1
157K25S3,451,experiment,63,↑,up,↑,0.5226668999530375,True,36,0
157K25S3,452,experiment,87,↑,up,↑,0.4337436002679169,True,36,1
157K25S3,453,experiment,70,→,right,→,0.5990089997649193,True,36,0
157K25S3,454,experiment,108,↑,up,↑,0.6585982996039093,True,36,1
157K25S3,455,experiment,91,↓,down,↓,0.5137074999511242,True,36,1
157K25S3,456,experiment,106,←,left,←,0.72126379981637,True,36,1
157K25S3,457,experiment,79,←,left,←,0.5620960001833737,True,36,1
157K25S3,458,experiment,50,→,right,→,0.6507502999156713,True,36,1
157K25S3,459,experiment,53,←,left,←,0.48708900017663836,True,36,1
157K25S3,460,experiment,80,←,left,←,0.6486930996179581,True,36,1
157K25S3,461,experiment,73,↓,down,↓,0.5980112999677658,True,36,1
157K25S3,462,experiment,92,↓,down,↓,0.5110399001277983,True,36,1
157K25S3,463,experiment,76,↓,down,↓,0.5130884000100195,True,36,1
157K25S3,464,experiment,81,↓,down,↓,0.7216038000769913,True,36,1
157K25S3,465,experiment,90,↑,up,↑,0.5822299001738429,True,36,1
157K25S3,466,experiment,88,↑,down,↓,0.6335815000347793,False,36,1
157K25S3,467,experiment,68,→,right,→,0.593060199636966,True,36,1
157K25S3,468,experiment,69,→,right,→,0.7300625997595489,True,36,1
157K25S3,469,experiment,86,↓,down,↓,0.6145549002103508,True,36,1
157K25S3,470,experiment,83,←,left,←,0.3674204000271857,True,36,1
157K25S3,471,experiment,82,↑,down,↓,0.6872992999851704,False,36,0
157K25S3,472,experiment,58,→,right,→,0.6083634998649359,True,36,1
157K25S3,473,experiment,65,↓,down,↓,0.738129900302738,True,36,1
157K25S3,474,experiment,95,←,left,←,0.45075260009616613,True,36,1
157K25S3,475,experiment,51,→,right,→,0.5049060001038015,True,36,0
157K25S3,476,experiment,78,↓,down,↓,0.5703183002769947,True,36,1
157K25S3,477,experiment,84,↑,up,↑,0.6715811002068222,True,36,1
157K25S3,478,experiment,64,↑,up,↑,0.6791974003426731,True,36,1
157K25S3,479,experiment,93,→,right,→,0.45078109996393323,True,36,1
157K25S3,480,experiment,62,→,right,→,0.501271499786526,True,36,0
157K25S3,481,experiment,89,↓,left,←,0.7316292999312282,False,36,1
157K25S3,482,training,49,↓,no_key,no_letter,-1.0,False,36,0
157K25S3,483,training,55,→,right,→,0.5319793000817299,True,36,1
157K25S3,484,experiment,54,→,right,→,0.5724277999252081,True,36,1
157K25S3,485,experiment,100,↑,up,↑,0.5237340996973217,True,36,1
157K25S3,486,experiment,75,↓,down,↓,0.597394899930805,True,36,1
157K25S3,487,experiment,76,↓,down,↓,0.467900900170207,True,36,1
157K25S3,488,experiment,98,↑,down,↓,0.5519030001014471,False,36,0
157K25S3,489,experiment,66,↓,down,↓,0.49166829977184534,True,36,1
157K25S3,490,experiment,80,↑,down,↓,0.5410915999673307,False,36,1
157K25S3,491,experiment,92,←,left,←,0.6004842999391258,True,36,1
157K25S3,492,experiment,60,↑,down,↓,0.6602040003053844,False,36,1
157K25S3,493,experiment,53,↑,up,↑,0.6640538000501692,True,36,1
157K25S3,494,experiment,58,↓,down,↓,0.5296807000413537,True,36,1
157K25S3,495,experiment,50,←,right,→,0.5315055996179581,False,36,1
157K25S3,496,experiment,67,↑,up,↑,0.5595309003256261,True,36,1
157K25S3,497,experiment,93,←,left,←,0.5619429997168481,True,36,1
157K25S3,498,experiment,86,←,no_key,no_letter,-1.0,False,36,1
157K25S3,499,experiment,59,↓,down,↓,0.6519690002314746,True,36,1
157K25S3,500,experiment,103,→,right,→,0.47974579967558384,True,36,1
157K25S3,501,experiment,88,→,no_key,no_letter,-1.0,False,36,1
157K25S3,502,experiment,95,←,left,←,0.5355317001231015,True,36,1
157K25S3,503,experiment,55,↓,left,←,0.6635112999938428,False,36,1
157K25S3,504,experiment,107,←,no_key,no_letter,-1.0,False,36,1
157K25S3,505,experiment,52,↑,down,↓,0.7604644000530243,False,36,1
157K25S3,506,experiment,48,↓,up,↑,0.5938753997907043,False,36,1
157K25S3,507,experiment,77,↓,down,↓,0.7362703001126647,True,36,1
157K25S3,508,experiment,51,↓,down,↓,0.6658950001001358,True,36,1
157K25S3,509,experiment,90,←,left,←,0.4504108000546694,True,36,1
157K25S3,510,experiment,69,↓,down,↓,0.5031411000527442,True,36,0
157K25S3,511,experiment,64,←,left,←,0.5495250998064876,True,36,1
157K25S3,512,experiment,65,↑,up,↑,0.5616004997864366,True,36,1
157K25S3,513,experiment,89,↑,up,↑,0.5013276999816298,True,36,1
157K25S3,514,experiment,49,←,no_key,no_letter,-1.0,False,36,1
157K25S3,515,experiment,87,→,left,←,0.5646590003743768,False,36,1
157K25S3,516,experiment,82,→,left,←,0.5063968999311328,False,36,1
157K25S3,517,experiment,72,←,left,←,0.45073849987238646,True,36,1
157K25S3,518,experiment,91,→,right,→,0.46931370021775365,True,36,0
157K25S3,519,experiment,56,↓,down,↓,0.6389315999113023,True,36,1
157K25S3,520,experiment,96,↑,up,↑,0.42571889981627464,True,36,1
157K25S3,521,experiment,73,↑,up,↑,0.41736850002780557,True,36,0
157K25S3,522,experiment,108,↑,up,↑,0.6461154003627598,True,36,0
157K25S3,523,experiment,74,↓,down,↓,0.5708534000441432,True,36,1
157K25S3,524,experiment,61,↑,up,↑,0.6872783997096121,True,36,1
157K25S3,525,experiment,97,↑,up,↑,0.5712989997118711,True,36,1
157K25S3,526,experiment,105,↑,up,↑,0.5373245002701879,True,36,1
157K25S3,527,experiment,79,→,right,→,0.6014272999018431,True,36,1
157K25S3,528,experiment,83,↑,left,←,0.50141859985888,False,36,1
157K25S3,529,experiment,63,←,left,←,0.40905069978907704,True,36,1
157K25S3,530,experiment,57,←,left,←,0.5043222000822425,True,36,0
157K25S3,531,experiment,71,↓,down,↓,0.5319562996737659,True,36,1
157K25S3,532,experiment,99,→,right,→,0.5253457999788225,True,36,1
157K25S3,533,experiment,81,↓,down,↓,0.7810579999350011,True,36,1
157K25S3,534,experiment,94,←,left,←,0.5662194998003542,True,36,1
157K25S3,535,experiment,85,↓,down,↓,0.4774535000324249,True,36,1
157K25S3,536,experiment,106,←,left,←,0.5323656001128256,True,36,1
157K25S3,537,experiment,68,↑,up,↑,0.5360670001246035,True,36,1
157K25S3,538,experiment,102,↓,down,↓,0.5683431997895241,True,36,1
157K25S3,539,experiment,70,←,left,←,0.47464050026610494,True,36,1
157K25S3,540,experiment,62,↑,up,↑,0.5378741002641618,True,36,1
157K25S3,541,experiment,104,←,left,←,0.41817159997299314,True,36,1
157K25S3,542,experiment,101,←,left,←,0.5180277000181377,True,36,0
157K25S3,543,experiment,78,←,left,←,0.400600700173527,True,36,1
157K25S3,544,experiment,84,→,left,←,0.49072729982435703,False,36,0
157K25S3,545,training,50,→,right,→,0.6437753001227975,True,36,0
157K25S3,546,training,86,←,left,←,0.3760103997774422,True,36,1
157K25S3,547,experiment,96,↓,down,↓,0.5494490000419319,True,36,0
157K25S3,548,experiment,88,→,right,→,0.7298526000231504,True,36,1
157K25S3,549,experiment,103,→,right,→,0.44256769958883524,True,36,1
157K25S3,550,experiment,54,↑,right,→,0.8855225997976959,False,36,0
157K25S3,551,experiment,72,↑,left,←,0.5939830997958779,False,36,1
157K25S3,552,experiment,90,←,left,←,0.5080770999193192,True,36,1
157K25S3,553,experiment,89,←,left,←,0.4004934001713991,True,36,1
157K25S3,554,experiment,75,→,right,→,0.4884186997078359,True,36,0
157K25S3,555,experiment,59,↑,up,↑,0.5284951999783516,True,36,1
157K25S3,556,experiment,97,←,left,←,0.4338007001206279,True,36,1
157K25S3,557,experiment,73,←,left,←,0.608742699958384,True,36,0
157K25S3,558,experiment,84,↑,up,↑,0.47664929972961545,True,36,1
157K25S3,559,experiment,74,↑,up,↑,0.42552309995517135,True,36,1
157K25S3,560,experiment,60,→,right,→,0.6027005999349058,True,36,0
157K25S3,561,experiment,98,←,left,←,0.4006932000629604,True,36,1
157K25S3,562,experiment,93,→,right,→,0.45096629997715354,True,36,0
157K25S3,563,experiment,53,↑,up,↑,0.47859019972383976,True,36,0
157K25S3,564,experiment,94,←,left,←,0.4090176997706294,True,36,1
157K25S3,565,experiment,48,↓,down,↓,0.7940340000204742,True,36,0
157K25S3,566,experiment,66,↓,down,↓,0.4923137999139726,True,36,1
157K25S3,567,experiment,67,→,right,→,0.6579829002730548,True,36,1
157K25S3,568,experiment,99,→,left,←,0.5982556999661028,False,36,1
157K25S3,569,experiment,56,↓,right,→,0.3171232999302447,False,36,1
157K25S3,570,experiment,91,→,right,→,0.4802294000983238,True,36,0
157K25S3,571,experiment,79,↑,up,↑,0.5216896999627352,True,36,1
157K25S3,572,experiment,82,←,no_key,no_letter,-1.0,False,36,1
157K25S3,573,experiment,61,←,left,←,0.47040530014783144,True,36,1
157K25S3,574,experiment,101,↑,up,↑,0.808700299821794,True,36,0
157K25S3,575,experiment,68,↓,down,↓,0.50566800031811,True,36,1
157K25S3,576,experiment,76,↑,up,↑,0.5876855999231339,True,36,1
157K25S3,577,experiment,102,→,right,→,0.6576302000321448,True,36,1
157K25S3,578,experiment,78,↑,down,↓,0.74898979999125,False,36,1
157K25S3,579,experiment,65,←,no_key,no_letter,-1.0,False,36,1
157K25S3,580,experiment,77,↑,down,↓,0.6163431000895798,False,36,1
157K25S3,581,experiment,49,←,left,←,0.527146500069648,True,36,1
157K25S3,582,experiment,104,→,right,→,0.7590335002169013,True,36,1
157K25S3,583,experiment,95,↑,left,←,0.5447396002709866,False,36,1
157K25S3,584,experiment,108,↓,up,↑,0.5666571999900043,False,36,1
157K25S3,585,experiment,81,←,right,→,0.5247206003405154,False,36,1
157K25S3,586,experiment,105,←,left,←,0.5647021997720003,True,36,1
157K25S3,587,experiment,51,←,right,→,0.450776900164783,False,36,1
157K25S3,588,experiment,71,→,right,→,0.5063461996614933,True,36,0
157K25S3,589,experiment,107,←,left,←,0.4901485997252166,True,36,1
157K25S3,590,experiment,100,↓,down,↓,0.5807184004224837,True,36,1
157K25S3,591,experiment,52,↓,down,↓,0.6358166001737118,True,36,1
157K25S3,592,experiment,58,↑,up,↑,0.5029408000409603,True,36,1
157K25S3,593,experiment,50,↑,down,↓,0.634020899888128,False,36,1
157K25S3,594,experiment,69,↑,up,↑,0.48169409995898604,True,36,1
157K25S3,595,experiment,83,↑,right,→,0.5541497999802232,False,36,1
157K25S3,596,experiment,62,←,left,←,0.5032470002770424,True,36,1
157K25S3,597,experiment,85,←,right,→,0.4340081000700593,False,36,1
157K25S3,598,experiment,92,→,left,←,0.45076079992577434,False,36,0
157K25S3,599,experiment,87,←,left,←,0.6144880000501871,True,36,0
157K25S3,600,experiment,86,→,right,→,0.49687999999150634,True,36,1
157K25S3,601,experiment,57,←,left,←,0.5136230997741222,True,36,1
157K25S3,602,experiment,64,→,right,→,0.6953196004033089,True,36,1
157K25S3,603,experiment,55,↑,up,↑,0.4813994998112321,True,36,1
157K25S3,604,experiment,63,↑,right,→,0.6326967999339104,False,36,1
157K25S3,605,experiment,80,↑,right,→,0.764238900039345,False,36,1
157K25S3,606,experiment,70,↑,left,←,0.5579470996744931,False,36,1
157K25S3,607,experiment,106,↓,left,←,0.29362230002880096,False,36,1
157K25S3,608,training,94,↑,down,↓,0.9425608003512025,False,36,0
157K25S3,609,training,93,←,left,←,0.48172290017828345,True,36,1
157K25S3,610,experiment,95,←,left,←,0.4257483999244869,True,36,1
157K25S3,611,experiment,89,↓,down,↓,0.4793075998313725,True,36,0
157K25S3,612,experiment,57,↓,down,↓,0.5525071998126805,True,36,1
157K25S3,613,experiment,55,→,left,←,0.5037952000275254,False,36,1
157K25S3,614,experiment,97,←,left,←,0.6347835003398359,True,36,1
157K25S3,615,experiment,108,↓,down,↓,0.47771710017696023,True,36,1
157K25S3,616,experiment,72,←,left,←,0.44244470028206706,True,36,1
157K25S3,617,experiment,71,←,left,←,0.4005063003860414,True,36,0
157K25S3,618,experiment,92,←,left,←,0.6004689997062087,True,36,0
157K25S3,619,experiment,76,↓,down,↓,0.5908758002333343,True,36,1
157K25S3,620,experiment,106,↓,left,←,0.425757700111717,False,36,1
157K25S3,621,experiment,82,↑,down,↓,0.5745514002628624,False,36,0
157K25S3,622,experiment,80,←,left,←,0.5246114996261895,True,36,1
157K25S3,623,experiment,94,→,left,←,0.48814550042152405,False,36,1
157K25S3,624,experiment,70,↑,left,←,0.6927883997559547,False,36,1
157K25S3,625,experiment,84,←,left,←,0.5328487996011972,True,36,1
157K25S3,626,experiment,58,←,left,←,0.4684001002460718,True,36,1
157K25S3,627,experiment,64,→,no_key,no_letter,-1.0,False,36,0
157K25S3,628,experiment,59,←,left,←,0.5845700004138052,True,36,1
157K25S3,629,experiment,78,←,left,←,0.45055329985916615,True,36,1
157K25S3,630,experiment,100,→,left,←,0.4423838001675904,False,36,0
157K25S3,631,experiment,87,↓,left,←,0.7156632002443075,False,36,0
157K25S3,632,experiment,93,↓,down,↓,0.5277412002906203,True,36,1
157K25S3,633,experiment,96,→,right,→,0.48279420007020235,True,36,1
157K25S3,634,experiment,98,↓,down,↓,0.6542022000066936,True,36,1
157K25S3,635,experiment,75,↓,down,↓,0.5869160001166165,True,36,1
157K25S3,636,experiment,54,↑,up,↑,0.625412099994719,True,36,1
157K25S3,637,experiment,63,→,right,→,0.4507659999653697,True,36,1
157K25S3,638,experiment,65,↓,down,↓,0.5228188997134566,True,36,0
157K25S3,639,experiment,68,←,right,→,0.6471226997673512,False,36,1
157K25S3,640,experiment,77,←,left,←,0.4274423997849226,True,36,1
157K25S3,641,experiment,53,←,left,←,0.40012629982084036,True,36,0
157K25S3,642,experiment,103,↓,right,→,0.7089736997149885,False,36,0
157K25S3,643,experiment,60,→,no_key,no_letter,-1.0,False,36,1
157K25S3,644,experiment,48,↓,left,←,0.9177035000175238,False,36,1
157K25S3,645,experiment,50,↓,down,↓,0.5194822000339627,True,36,1
157K25S3,646,experiment,66,↑,down,↓,0.5645306999795139,False,36,1
157K25S3,647,experiment,56,↓,down,↓,0.5789277004078031,True,36,1
157K25S3,648,experiment,107,←,left,←,0.4008651003241539,True,36,1
157K25S3,649,experiment,69,→,no_key,no_letter,-1.0,False,36,0
157K25S3,650,experiment,99,↓,down,↓,0.5043371003121138,True,36,1
157K25S3,651,experiment,85,→,right,→,0.49568730033934116,True,36,1
157K25S3,652,experiment,61,↑,no_key,no_letter,-1.0,False,36,1
157K25S3,653,experiment,79,↑,up,↑,0.6213632998988032,True,36,1
157K25S3,654,experiment,102,→,right,→,0.5779466000385582,True,36,1
157K25S3,655,experiment,62,↓,down,↓,0.518198000267148,True,36,1
157K25S3,656,experiment,81,↓,left,←,0.5741465999744833,False,36,1
157K25S3,657,experiment,101,→,right,→,0.45072289975360036,True,36,1
157K25S3,658,experiment,88,↑,left,←,0.8132779998704791,False,36,0
157K25S3,659,experiment,83,←,no_key,no_letter,-1.0,False,36,1
157K25S3,660,experiment,49,↑,up,↑,0.577209500130266,True,36,1
157K25S3,661,experiment,67,↑,up,↑,0.7236341000534594,True,36,1
157K25S3,662,experiment,51,→,right,→,0.5573443998582661,True,36,1
157K25S3,663,experiment,86,→,no_key,no_letter,-1.0,False,36,1
157K25S3,664,experiment,90,→,no_key,no_letter,-1.0,False,36,1
157K25S3,665,experiment,105,↓,left,←,1.090727400034666,False,36,1
157K25S3,666,experiment,52,↓,no_key,no_letter,-1.0,False,36,1
157K25S3,667,experiment,74,↑,up,↑,0.5016314997337759,True,36,1
157K25S3,668,experiment,73,↑,down,↓,0.7130085001699626,False,36,1
157K25S3,669,experiment,91,↑,up,↑,0.4705368001013994,True,36,1
157K25S3,670,experiment,104,←,left,←,0.7360952999442816,True,36,1
157K25S3,671,training,68,←,left,←,0.5381705998443067,True,36,0
157K25S3,672,training,88,↑,up,↑,0.6787490998394787,True,36,1
157K25S3,673,experiment,97,→,right,→,0.6032255999743938,True,36,1
157K25S3,674,experiment,90,→,right,→,0.8207626002840698,True,36,1
157K25S3,675,experiment,51,→,right,→,0.7468557003885508,True,36,1
157K25S3,676,experiment,69,↓,down,↓,0.5656432998366654,True,36,1
157K25S3,677,experiment,105,←,left,←,0.4507426000200212,True,36,1
157K25S3,678,experiment,58,←,left,←,0.7818434000946581,True,36,0
157K25S3,679,experiment,52,→,right,→,0.4851545998826623,True,36,1
157K25S3,680,experiment,55,↑,up,↑,0.4710094998590648,True,36,1
157K25S3,681,experiment,49,→,right,→,0.417369999922812,True,36,1
157K25S3,682,experiment,96,→,right,→,0.4174063000828028,True,36,0
157K25S3,683,experiment,53,↑,up,↑,0.6707854997366667,True,36,0
157K25S3,684,experiment,100,↑,no_key,no_letter,-1.0,False,36,1
157K25S3,685,experiment,84,↓,down,↓,0.6953627001494169,True,36,1
157K25S3,686,experiment,83,↓,down,↓,0.6876445999369025,True,36,1
157K25S3,687,experiment,103,←,left,←,0.5694106998853385,True,36,1
157K25S3,688,experiment,88,↓,down,↓,0.5412141000851989,True,36,1
157K25S3,689,experiment,94,↓,down,↓,0.5117533998563886,True,36,1
157K25S3,690,experiment,54,↑,up,↑,0.6332692997530103,True,36,1
157K25S3,691,experiment,59,→,right,→,0.4842513003386557,True,36,1
157K25S3,692,experiment,76,←,no_key,no_letter,-1.0,False,36,1
157K25S3,693,experiment,85,←,left,←,0.563657000195235,True,36,1
157K25S3,694,experiment,81,←,left,←,0.409105300437659,True,36,1
157K25S3,695,experiment,71,↓,down,↓,0.5451580998487771,True,36,0
157K25S3,696,experiment,64,↓,down,↓,0.4089891999028623,True,36,1
157K25S3,697,experiment,79,↑,left,←,0.5386342001147568,False,36,0
157K25S3,698,experiment,108,←,left,←,0.5126427998766303,True,36,1
157K25S3,699,experiment,66,←,left,←,0.3921451000496745,True,36,1
157K25S3,700,experiment,50,→,right,→,0.5091864997521043,True,36,0
157K25S3,701,experiment,89,↓,down,↓,0.4910753997974098,True,36,1
157K25S3,702,experiment,68,←,left,←,0.4504137998446822,True,36,1
157K25S3,703,experiment,60,↑,down,↓,0.5700103999115527,False,36,0
157K25S3,704,experiment,98,←,left,←,0.5621141004376113,True,36,1
157K25S3,705,experiment,61,↑,down,↓,0.6312273996882141,False,36,1
157K25S3,706,experiment,80,←,left,←,0.49095020024105906,True,36,1
157K25S3,707,experiment,75,↓,down,↓,0.5260110995732248,True,36,1
157K25S3,708,experiment,62,←,left,←,0.42576720006763935,True,36,1
157K25S3,709,experiment,87,↓,down,↓,0.6853978000581264,True,36,0
157K25S3,710,experiment,93,→,right,→,0.4831169000826776,True,36,1
157K25S3,711,experiment,73,←,left,←,0.4793551000766456,True,36,1
157K25S3,712,experiment,57,↑,up,↑,0.7766146999783814,True,36,1
157K25S3,713,experiment,107,↑,up,↑,0.5014843000099063,True,36,1
157K25S3,714,experiment,82,→,right,→,0.6777608003467321,True,36,1
157K25S3,715,experiment,48,←,left,←,0.594544599764049,True,36,1
157K25S3,716,experiment,106,→,left,←,0.5512295002117753,False,36,1
157K25S3,717,experiment,74,→,right,→,0.4963873000815511,True,36,1
157K25S3,718,experiment,63,↓,down,↓,0.5510266995988786,True,36,1
157K25S3,719,experiment,104,←,left,←,0.47840580018237233,True,36,1
157K25S3,720,experiment,91,↑,right,→,0.5961326002143323,False,36,1
157K25S3,721,experiment,72,↓,up,↑,0.6279573002830148,False,36,1
157K25S3,722,experiment,77,←,left,←,0.5448981998488307,True,36,1
157K25S3,723,experiment,78,↑,down,↓,0.6169897001236677,False,36,1
157K25S3,724,experiment,65,→,left,←,0.5463775000534952,False,36,1
157K25S3,725,experiment,86,↑,left,←,0.6396951000206172,False,36,1
157K25S3,726,experiment,70,→,right,→,0.9820926999673247,True,36,1
157K25S3,727,experiment,92,↓,left,←,0.7438628999516368,False,36,1
157K25S3,728,experiment,95,←,no_key,no_letter,-1.0,False,36,1
157K25S3,729,experiment,56,→,right,→,0.6005140002816916,True,36,1
157K25S3,730,experiment,67,↑,no_key,no_letter,-1.0,False,36,1
157K25S3,731,experiment,99,←,left,←,0.5135865001939237,True,36,1
157K25S3,732,experiment,102,↓,right,→,0.40073779970407486,False,36,1
157K25S3,733,experiment,101,←,right,→,0.9843532000668347,False,36,0
157K25S3,734,training,84,↑,up,↑,0.4921067003160715,True,36,0
157K25S3,735,training,100,→,right,→,0.638187900185585,True,36,1
157K25S3,736,experiment,48,↓,down,↓,0.5882887998595834,True,36,1
157K25S3,737,experiment,104,→,no_key,no_letter,-1.0,False,36,1
157K25S3,738,experiment,56,↓,down,↓,0.4956744001246989,True,36,1
157K25S3,739,experiment,64,↑,up,↑,0.49419260025024414,True,36,1
157K25S3,740,experiment,84,←,left,←,0.5743964002467692,True,36,1
157K25S3,741,experiment,89,↓,down,↓,0.5292487000115216,True,36,1
157K25S3,742,experiment,79,↑,up,↑,0.473772999830544,True,36,1
157K25S3,743,experiment,72,←,left,←,0.5259953998029232,True,36,1
157K25S3,744,experiment,95,→,right,→,0.401014800183475,True,36,1
157K25S3,745,experiment,98,↑,no_key,no_letter,-1.0,False,36,0
157K25S3,746,experiment,82,→,right,→,0.4697736999951303,True,36,1
157K25S3,747,experiment,94,←,left,←,0.48290099995210767,True,36,0
157K25S3,748,experiment,100,↑,up,↑,0.4173434004187584,True,36,1
157K25S3,749,experiment,102,↑,up,↑,0.4257589001208544,True,36,0
157K25S3,750,experiment,96,↓,down,↓,0.7608390999957919,True,36,0
157K25S3,751,experiment,69,→,right,→,0.46781589975580573,True,36,1
157K25S3,752,experiment,73,↓,down,↓,0.6476261001080275,True,36,0
157K25S3,753,experiment,58,→,no_key,no_letter,-1.0,False,36,1
157K25S3,754,experiment,70,↓,down,↓,0.5155266998335719,True,36,1
157K25S3,755,experiment,93,↑,up,↑,0.519552499987185,True,36,1
157K25S3,756,experiment,86,←,no_key,no_letter,-1.0,False,36,1
157K25S3,757,experiment,54,→,right,→,0.7009812998585403,True,36,1
157K25S3,758,experiment,78,→,right,→,0.4088054997846484,True,36,1
157K25S3,759,experiment,106,↓,no_key,no_letter,-1.0,False,36,0
157K25S3,760,experiment,57,→,right,→,0.4803944998420775,True,36,1
157K25S3,761,experiment,68,←,left,←,0.5660025998950005,True,36,1
157K25S3,762,experiment,60,→,left,←,0.450719699729234,False,36,1
157K25S3,763,experiment,97,↑,up,↑,0.4806045996956527,True,36,0
157K25S3,764,experiment,65,↓,down,↓,0.7268380997702479,True,36,1
157K25S3,765,experiment,76,→,right,→,0.4339257995598018,True,36,1
157K25S3,766,experiment,74,↑,up,↑,0.40904559986665845,True,36,0
157K25S3,767,experiment,52,↓,down,↓,0.4759887997061014,True,36,0
157K25S3,768,experiment,81,↑,no_key,no_letter,-1.0,False,36,1
157K25S3,769,experiment,83,→,right,→,0.4434502003714442,True,36,1
157K25S3,770,experiment,62,↓,down,↓,0.49903659988194704,True,36,0
157K25S3,771,experiment,67,←,left,←,0.6962876999750733,True,36,1
157K25S3,772,experiment,105,→,right,→,0.6088812001980841,True,36,1
157K25S3,773,experiment,90,→,right,→,0.4087621998041868,True,36,1
157K25S3,774,experiment,55,↑,up,↑,0.4714919999241829,True,36,0
157K25S3,775,experiment,61,←,left,←,0.400827799923718,True,36,1
157K25S3,776,experiment,75,←,left,←,0.6218769000843167,True,36,0
157K25S3,777,experiment,66,→,right,→,0.44233980029821396,True,36,1
157K25S3,778,experiment,49,←,left,←,0.40073660016059875,True,36,0
157K25S3,779,experiment,107,↑,down,↓,0.6798737002536654,False,36,0
157K25S3,780,experiment,108,←,left,←,0.5042077000252903,True,36,1
157K25S3,781,experiment,63,←,left,←,0.4175567999482155,True,36,1
157K25S3,782,experiment,51,←,left,←,0.46932899998500943,True,36,0
157K25S3,783,experiment,71,→,left,←,0.7138167000375688,False,36,0
157K25S3,784,experiment,77,↓,left,←,0.6431142999790609,False,36,1
157K25S3,785,experiment,59,←,left,←,0.44242790015414357,True,36,1
157K25S3,786,experiment,103,↓,down,↓,0.5449389000423253,True,36,0
157K25S3,787,experiment,50,↑,up,↑,0.49047139985486865,True,36,1
157K25S3,788,experiment,91,→,right,→,0.4421720001846552,True,36,1
157K25S3,789,experiment,80,↓,down,↓,0.49916489981114864,True,36,0
157K25S3,790,experiment,99,↑,up,↑,0.4703886997886002,True,36,1
157K25S3,791,experiment,101,↑,no_key,no_letter,-1.0,False,36,0
157K25S3,792,experiment,92,↑,down,↓,0.6671895999461412,False,36,1
157K25S3,793,experiment,88,↑,up,↑,0.7468240996822715,True,36,1
157K25S3,794,experiment,87,→,right,→,0.5115354000590742,True,36,1
157K25S3,795,experiment,85,→,right,→,0.4947119001299143,True,36,1
157K25S3,796,experiment,53,↑,up,↑,0.4966384000144899,True,36,1
157K25S3,797,training,88,↑,up,↑,0.717518899589777,True,36,0
157K25S3,798,training,64,↓,down,↓,0.43406530003994703,True,36,1
157K25S3,799,experiment,79,↓,down,↓,0.5429539000615478,True,36,0
157K25S3,800,experiment,77,←,left,←,0.5593934003263712,True,36,1
157K25S3,801,experiment,105,↓,down,↓,0.5017832000739872,True,36,1
157K25S3,802,experiment,63,↓,no_key,no_letter,-1.0,False,36,1
157K25S3,803,experiment,103,↓,down,↓,0.5150521998293698,True,36,1
157K25S3,804,experiment,106,←,right,→,0.6588055999018252,False,36,1
157K25S3,805,experiment,108,↓,no_key,no_letter,-1.0,False,36,1
157K25S3,806,experiment,54,↑,up,↑,0.5549901998601854,True,36,1
157K25S3,807,experiment,90,↑,up,↑,0.3756641000509262,True,36,1
157K25S3,808,experiment,59,↓,down,↓,0.4916575998067856,True,36,0
157K25S3,809,experiment,102,→,right,→,0.6541553996503353,True,36,1
157K25S3,810,experiment,66,↑,up,↑,0.7412434997968376,True,36,1
157K25S3,811,experiment,51,↓,up,↑,0.5503495996817946,False,36,1
157K25S3,812,experiment,89,↑,up,↑,0.6422938001342118,True,36,1
157K25S3,813,experiment,67,→,right,→,0.5700480001978576,True,36,1
157K25S3,814,experiment,86,→,right,→,0.5984175000339746,True,36,1
157K25S3,815,experiment,74,↑,right,→,0.4341204999946058,False,36,1
157K25S3,816,experiment,73,↓,down,↓,0.555273300036788,True,36,0
157K25S3,817,experiment,82,←,left,←,0.4504833002574742,True,36,1
157K25S3,818,experiment,97,→,right,→,0.47091699996963143,True,36,0
157K25S3,819,experiment,81,←,left,←,0.31734149996191263,True,36,1
157K25S3,820,experiment,98,←,right,→,0.49825810035690665,False,36,0
157K25S3,821,experiment,62,↑,up,↑,0.5372996996156871,True,36,1
157K25S3,822,experiment,55,↑,up,↑,0.593371500261128,True,36,1
157K25S3,823,experiment,50,→,right,→,0.5928029003553092,True,36,1
157K25S3,824,experiment,65,↓,down,↓,0.7639083000831306,True,36,1
157K25S3,825,experiment,72,↑,up,↑,0.4846187001094222,True,36,1
157K25S3,826,experiment,88,↑,up,↑,0.43420720007270575,True,36,1
157K25S3,827,experiment,104,←,left,←,0.5187753001227975,True,36,0
157K25S3,828,experiment,56,←,left,←,0.36001210007816553,True,36,1
157K25S3,829,experiment,49,↓,down,↓,0.5596206001937389,True,36,0
157K25S3,830,experiment,75,→,left,←,0.3506644000299275,False,36,1
157K25S3,831,experiment,69,→,right,→,0.41740519972518086,True,36,0
157K25S3,832,experiment,71,→,right,→,0.4007695000618696,True,36,0
157K25S3,833,experiment,83,↓,down,↓,0.6292066001333296,True,36,0
157K25S3,834,experiment,68,↓,no_key,no_letter,-1.0,False,36,1
157K25S3,835,experiment,95,→,right,→,0.6066338000819087,True,36,1
157K25S3,836,experiment,76,→,right,→,0.434086499735713,True,36,1
157K25S3,837,experiment,48,↑,down,↓,0.6588281998410821,False,36,0
157K25S3,838,experiment,100,↓,down,↓,0.5908107999712229,True,36,1
157K25S3,839,experiment,60,↓,down,↓,0.5628685001283884,True,36,1
157K25S3,840,experiment,58,↑,no_key,no_letter,-1.0,False,36,1
157K25S3,841,experiment,80,↓,down,↓,0.6548506002873182,True,36,1
157K25S3,842,experiment,70,↑,up,↑,0.4693368999287486,True,36,1
157K25S3,843,experiment,93,←,left,←,0.5066884001716971,True,36,0
157K25S3,844,experiment,94,↑,down,↓,0.5025683999992907,False,36,1
157K25S3,845,experiment,53,↑,up,↑,0.43419620022177696,True,36,1
157K25S3,846,experiment,57,←,right,→,0.6118510002270341,False,36,0
157K25S3,847,experiment,84,→,right,→,0.6472841002978384,True,36,1
157K25S3,848,experiment,61,↓,down,↓,0.6165646002627909,True,36,1
157K25S3,849,experiment,91,↑,up,↑,0.442333800252527,True,36,1
157K25S3,850,experiment,96,←,left,←,0.4173524002544582,True,36,0
157K25S3,851,experiment,99,←,left,←,0.44241129979491234,True,36,0
157K25S3,852,experiment,101,↑,up,↑,0.42580310022458434,True,36,0
157K25S3,853,experiment,92,→,right,→,0.4887485997751355,True,36,0
157K25S3,854,experiment,64,→,left,←,0.4423638000153005,False,36,1
157K25S3,855,experiment,87,↑,up,↑,0.5040451996028423,True,36,0
157K25S3,856,experiment,85,→,no_key,no_letter,-1.0,False,36,1
157K25S3,857,experiment,78,↑,up,↑,0.566027999855578,True,36,1
157K25S3,858,experiment,52,↓,down,↓,0.5657677999697626,True,36,1
157K25S3,859,experiment,107,↓,right,→,0.39235740015283227,False,36,1
157K25S3,860,training,61,↓,down,↓,0.6189057999290526,True,36,0
157K25S3,861,training,91,↓,down,↓,0.4424557997845113,True,36,1
157K25S3,862,experiment,75,↓,down,↓,0.42582729971036315,True,36,0
157K25S3,863,experiment,100,←,left,←,0.4856690000742674,True,36,0
157K25S3,864,experiment,58,↓,down,↓,0.526146600022912,True,36,1
157K25S3,865,experiment,85,→,left,←,0.5325159998610616,False,36,1
157K25S3,866,experiment,83,→,right,→,0.48347080033272505,True,36,1
157K25S3,867,experiment,53,↑,down,↓,0.5259936996735632,False,36,1
157K25S3,868,experiment,80,←,left,←,0.4507749998010695,True,36,1
157K25S3,869,experiment,103,↓,down,↓,0.6251210002228618,True,36,0
157K25S3,870,experiment,94,←,left,←,0.49655940011143684,True,36,1
157K25S3,871,experiment,82,↓,down,↓,0.5449998001568019,True,36,1
157K25S3,872,experiment,72,↑,up,↑,0.5070181000046432,True,36,1
157K25S3,873,experiment,60,→,right,→,0.5223179999738932,True,36,1
157K25S3,874,experiment,51,↓,down,↓,0.5963103999383748,True,36,1
157K25S3,875,experiment,61,→,right,→,0.42547040013596416,True,36,1
157K25S3,876,experiment,54,↑,up,↑,0.5239198002964258,True,36,0
157K25S3,877,experiment,78,←,left,←,0.4173828000202775,True,36,1
157K25S3,878,experiment,106,↓,down,↓,0.6241537001915276,True,36,0
157K25S3,879,experiment,107,↓,down,↓,0.547193399630487,True,36,1
157K25S3,880,experiment,99,←,left,←,0.4340902999974787,True,36,1
157K25S3,881,experiment,73,↓,down,↓,0.5056508001871407,True,36,0
157K25S3,882,experiment,57,↓,down,↓,0.6500435001216829,True,36,1
157K25S3,883,experiment,90,→,left,←,0.521764799952507,False,36,1
157K25S3,884,experiment,88,→,left,←,0.4798567001707852,False,36,1
157K25S3,885,experiment,87,←,left,←,0.42568910028785467,True,36,1
157K25S3,886,experiment,66,←,left,←,0.5109971002675593,True,36,0
157K25S3,887,experiment,49,↓,left,←,0.5700848996639252,False,36,1
157K25S3,888,experiment,50,↑,left,←,0.514506199862808,False,36,1
157K25S3,889,experiment,81,→,right,→,0.5545490998774767,True,36,1
157K25S3,890,experiment,95,↓,down,↓,0.5482642003335059,True,36,1
157K25S3,891,experiment,67,→,right,→,0.5044666002504528,True,36,1
157K25S3,892,experiment,70,←,left,←,0.5478169997222722,True,36,1
157K25S3,893,experiment,65,→,right,→,0.441735299769789,True,36,1
157K25S3,894,experiment,68,↑,left,←,0.679065200034529,False,36,0
157K25S3,895,experiment,89,←,left,←,0.5820443001575768,True,36,1
157K25S3,896,experiment,98,↓,down,↓,0.4938254002481699,True,36,1
157K25S3,897,experiment,105,↑,down,↓,0.6227282998152077,False,36,1
157K25S3,898,experiment,55,↑,up,↑,0.6031996002420783,True,36,1
157K25S3,899,experiment,64,←,left,←,0.47820570040494204,True,36,1
157K25S3,900,experiment,104,↑,up,↑,0.7112654997035861,True,36,1
157K25S3,901,experiment,108,↓,up,↑,0.5907189999707043,False,36,1
157K25S3,902,experiment,92,→,right,→,0.5840059001930058,True,36,1
157K25S3,903,experiment,71,↓,down,↓,0.520720100030303,True,36,1
157K25S3,904,experiment,97,←,left,←,0.47570049995556474,True,36,1
157K25S3,905,experiment,56,←,left,←,0.4698344003409147,True,36,1
157K25S3,906,experiment,91,←,left,←,0.6358891995623708,True,36,0
157K25S3,907,experiment,84,↓,down,↓,0.5180044998414814,True,36,1
157K25S3,908,experiment,74,←,left,←,0.45049090031534433,True,36,1
157K25S3,909,experiment,77,→,right,→,0.6441254997625947,True,36,0
157K25S3,910,experiment,86,←,left,←,0.3923491998575628,True,36,1
157K25S3,911,experiment,79,↓,down,↓,0.4990566000342369,True,36,0
157K25S3,912,experiment,59,→,no_key,no_letter,-1.0,False,36,1
157K25S3,913,experiment,63,↑,up,↑,0.5029486999846995,True,36,1
157K25S3,914,experiment,96,←,left,←,0.5066134999506176,True,36,1
157K25S3,915,experiment,69,↓,down,↓,0.6473826002329588,True,36,1
157K25S3,916,experiment,102,←,left,←,0.4007714996114373,True,36,1
157K25S3,917,experiment,93,→,right,→,0.43418140010908246,True,36,0
157K25S3,918,experiment,52,←,left,←,0.5439686998724937,True,36,0
157K25S3,919,experiment,76,↑,down,↓,0.5286721000447869,False,36,1
157K25S3,920,experiment,101,→,right,→,0.6176343001425266,True,36,1
157K25S3,921,experiment,62,→,left,←,0.524091400206089,False,36,1
157K25S3,922,experiment,48,↓,down,↓,0.6312462999485433,True,36,1
157K25S3,923,training,63,→,right,→,0.5585161000490189,True,36,0
157K25S3,924,training,57,→,right,→,0.4504354000091553,True,36,1
157K25S3,925,experiment,93,←,left,←,0.48352079978212714,True,36,0
157K25S3,926,experiment,108,←,left,←,0.45077629992738366,True,36,1
157K25S3,927,experiment,88,←,left,←,0.49177430011332035,True,36,0
157K25S3,928,experiment,106,↓,down,↓,0.5724971001036465,True,36,1
157K25S3,929,experiment,75,↑,down,↓,0.5800633998587728,False,36,1
157K25S3,930,experiment,54,↑,up,↑,0.47512949956580997,True,36,1
157K25S3,931,experiment,86,→,right,→,0.6105900998227298,True,36,1
157K25S3,932,experiment,49,↓,down,↓,0.5696991998702288,True,36,1
157K25S3,933,experiment,68,↓,down,↓,0.5160834002308547,True,36,1
157K25S3,934,experiment,98,→,right,→,0.7505208998918533,True,36,1
157K25S3,935,experiment,82,↓,down,↓,0.5808981000445783,True,36,1
157K25S3,936,experiment,57,↑,down,↓,0.4748059995472431,False,36,1
157K25S3,937,experiment,89,↑,up,↑,0.44279030011966825,True,36,1
157K25S3,938,experiment,79,↓,down,↓,0.7168610999360681,True,36,0
157K25S3,939,experiment,77,→,right,→,0.4173469999805093,True,36,1
157K25S3,940,experiment,62,↓,down,↓,0.6481456998735666,True,36,0
157K25S3,941,experiment,66,←,right,→,0.5038970001041889,False,36,1
157K25S3,942,experiment,55,↓,down,↓,0.4425205998122692,True,36,1
157K25S3,943,experiment,94,↓,down,↓,0.359003399964422,True,36,0
157K25S3,944,experiment,95,↑,no_key,no_letter,-1.0,False,36,0
157K25S3,945,experiment,69,↓,down,↓,0.6348001002334058,True,36,1
157K25S3,946,experiment,83,←,left,←,0.5816080998629332,True,36,1
157K25S3,947,experiment,59,↑,down,↓,0.5941459001041949,False,36,1
157K25S3,948,experiment,60,←,no_key,no_letter,-1.0,False,36,1
157K25S3,949,experiment,102,→,right,→,0.7011481998488307,True,36,1
157K25S3,950,experiment,65,↑,up,↑,0.5230657001957297,True,36,1
157K25S3,951,experiment,52,↓,down,↓,0.5086592002771795,True,36,1
157K25S3,952,experiment,104,←,left,←,0.3670610999688506,True,36,1
157K25S3,953,experiment,72,↑,up,↑,0.49402910005301237,True,36,0
157K25S3,954,experiment,71,↓,down,↓,0.65853810030967,True,36,1
157K25S3,955,experiment,90,→,right,→,0.48212079983204603,True,36,1
157K25S3,956,experiment,87,→,right,→,0.3671699003316462,True,36,1
157K25S3,957,experiment,56,↓,right,→,1.1593541000038385,False,36,0
157K25S3,958,experiment,74,→,right,→,0.3931553000584245,True,36,1
157K25S3,959,experiment,53,↑,no_key,no_letter,-1.0,False,36,0
157K25S3,960,experiment,100,↓,down,↓,0.55731730023399,True,36,1
157K25S3,961,experiment,50,↑,down,↓,0.5101367002353072,False,36,1
157K25S3,962,experiment,97,↑,down,↓,0.5052303001284599,False,36,1
157K25S3,963,experiment,78,←,left,←,0.6504631000570953,True,36,1
157K25S3,964,experiment,67,←,left,←,0.6339385001920164,True,36,1
157K25S3,965,experiment,81,←,left,←,0.425719799939543,True,36,1
157K25S3,966,experiment,101,↓,down,↓,0.5300197000615299,True,36,0
157K25S3,967,experiment,51,↑,up,↑,0.7314871000126004,True,36,1
157K25S3,968,experiment,99,↑,up,↑,0.6767893000505865,True,36,1
157K25S3,969,experiment,48,→,right,→,0.4508971003815532,True,36,1
157K25S3,970,experiment,85,↓,down,↓,0.41739149997010827,True,36,0
157K25S3,971,experiment,64,↑,down,↓,0.38422439992427826,False,36,0
157K25S3,972,experiment,63,←,up,↑,0.39257699996232986,False,36,0
157K25S3,973,experiment,70,↑,no_key,no_letter,-1.0,False,36,0
157K25S3,974,experiment,58,↑,right,→,0.7970813000574708,False,36,1
157K25S3,975,experiment,84,↓,down,↓,0.5688455998897552,True,36,1
157K25S3,976,experiment,96,↓,down,↓,0.6417912999168038,True,36,1
157K25S3,977,experiment,80,↓,down,↓,0.6692158998921514,True,36,1
157K25S3,978,experiment,91,↑,up,↑,0.5399246998131275,True,36,1
157K25S3,979,experiment,61,↑,up,↑,0.7856975002214313,True,36,1
157K25S3,980,experiment,107,↓,down,↓,0.47106079990044236,True,36,1
157K25S3,981,experiment,92,↓,right,→,0.4769664001651108,False,36,0
157K25S3,982,experiment,73,↑,no_key,no_letter,-1.0,False,36,1
157K25S3,983,experiment,103,→,right,→,0.47157789999619126,True,36,1
157K25S3,984,experiment,76,→,right,→,0.48308049980551004,True,36,0
157K25S3,985,experiment,105,↑,up,↑,0.49197129998356104,True,36,1
157K25S3,986,training,82,→,left,←,0.5671509001404047,False,36,0
157K25S3,987,training,101,↑,up,↑,0.4421809003688395,True,36,1
157K25S3,988,experiment,57,←,left,←,0.4737737001851201,True,36,0
157K25S3,989,experiment,91,→,right,→,0.42587060015648603,True,36,1
157K25S3,990,experiment,58,→,right,→,0.44241670006886125,True,36,0
157K25S3,991,experiment,108,←,left,←,0.43413970014080405,True,36,0
157K25S3,992,experiment,51,→,right,→,0.5052445996552706,True,36,0
157K25S3,993,experiment,103,↓,down,↓,0.514255200047046,True,36,1
157K25S3,994,experiment,69,→,right,→,0.3757643001154065,True,36,1
157K25S3,995,experiment,87,↑,no_key,no_letter,-1.0,False,36,0
157K25S3,996,experiment,54,→,right,→,0.4174144002608955,True,36,1
157K25S3,997,experiment,64,↓,down,↓,0.5061129997484386,True,36,0
157K25S3,998,experiment,81,↓,up,↑,0.714450899977237,False,36,1
157K25S3,999,experiment,105,↑,down,↓,0.546497699804604,False,36,1
157K25S3,1000,experiment,79,↓,down,↓,0.505942199844867,True,36,1
157K25S3,1001,experiment,75,↑,down,↓,0.5563310999423265,False,36,1
157K25S3,1002,experiment,74,←,left,←,0.5089714000932872,True,36,1
157K25S3,1003,experiment,107,←,right,→,0.31766000017523766,False,36,1
157K25S3,1004,experiment,102,→,left,←,0.26848800014704466,False,36,0
157K25S3,1005,experiment,98,→,right,→,0.3931221002712846,True,36,0
157K25S3,1006,experiment,63,→,left,←,0.40087739983573556,False,36,0
157K25S3,1007,experiment,94,→,left,←,0.49924399983137846,False,36,0
157K25S3,1008,experiment,101,↑,down,↓,0.7010898003354669,False,36,1
157K25S3,1009,experiment,89,↓,down,↓,0.5311084999702871,True,36,1
157K25S3,1010,experiment,59,↑,up,↑,0.6019387999549508,True,36,1
157K25S3,1011,experiment,49,←,right,→,0.7213908000849187,False,36,1
157K25S3,1012,experiment,71,←,left,←,0.6687436997890472,True,36,1
157K25S3,1013,experiment,95,↓,down,↓,0.5220204000361264,True,36,1
157K25S3,1014,experiment,56,↓,down,↓,0.4173856000415981,True,36,1
157K25S3,1015,experiment,85,→,right,→,0.5005944003351033,True,36,0
157K25S3,1016,experiment,100,↓,down,↓,0.3757566995918751,True,36,1
157K25S3,1017,experiment,77,→,right,→,0.5898101003840566,True,36,0
157K25S3,1018,experiment,90,↑,left,←,0.6397452997043729,False,36,1
157K25S3,1019,experiment,68,←,left,←,0.607110199984163,True,36,1
157K25S3,1020,experiment,82,↑,up,↑,0.7551098000258207,True,36,1
157K25S3,1021,experiment,86,↓,right,→,0.5601365999318659,False,36,1
157K25S3,1022,experiment,48,→,right,→,0.5133047997951508,True,36,1
157K25S3,1023,experiment,78,↓,left,←,0.5705134999006987,False,36,1
157K25S3,1024,experiment,92,→,left,←,0.3342410000041127,False,36,1
157K25S3,1025,experiment,65,↑,up,↑,0.8092144001275301,True,36,0
157K25S3,1026,experiment,88,↓,down,↓,0.5073178997263312,True,36,1
157K25S3,1027,experiment,76,↓,up,↑,0.6293349000625312,False,36,1
157K25S3,1028,experiment,104,→,right,→,0.5052849999628961,True,36,1
157K25S3,1029,experiment,61,↑,up,↑,0.6005559000186622,True,36,1
157K25S3,1030,experiment,67,↑,up,↑,0.48216979997232556,True,36,1
157K25S3,1031,experiment,83,↑,up,↑,0.5061772996559739,True,36,1
157K25S3,1032,experiment,73,↑,up,↑,0.42577069997787476,True,36,1
157K25S3,1033,experiment,53,↑,up,↑,0.5460891998372972,True,36,0
157K25S3,1034,experiment,66,←,up,↑,0.5098012001253664,False,36,1
157K25S3,1035,experiment,60,↓,down,↓,0.5013150000013411,True,36,1
157K25S3,1036,experiment,80,←,left,←,0.40020469995215535,True,36,1
157K25S3,1037,experiment,50,↑,up,↑,0.5171345002017915,True,36,0
157K25S3,1038,experiment,70,←,no_key,no_letter,-1.0,False,36,1
157K25S3,1039,experiment,62,←,left,←,0.5411744997836649,True,36,1
157K25S3,1040,experiment,55,←,left,←,0.5568061000667512,True,36,1
157K25S3,1041,experiment,106,←,left,←,0.4909898000769317,True,36,1
157K25S3,1042,experiment,72,←,no_key,no_letter,-1.0,False,36,1
157K25S3,1043,experiment,99,↑,no_key,no_letter,-1.0,False,36,1
157K25S3,1044,experiment,97,←,left,←,0.4173665000125766,True,36,1
157K25S3,1045,experiment,96,↑,up,↑,0.6221329998224974,True,36,0
157K25S3,1046,experiment,84,→,right,→,0.47323849983513355,True,36,1
157K25S3,1047,experiment,52,↓,down,↓,0.5804300000891089,True,36,1
157K25S3,1048,experiment,93,↑,up,↑,0.6055606999434531,True,36,1
157K25S3,1049,training,50,→,no_key,no_letter,-1.0,False,36,0
157K25S3,1050,training,75,↑,right,→,0.844210600014776,False,36,1
157K25S3,1051,experiment,104,←,left,←,0.495614199899137,True,36,1
157K25S3,1052,experiment,51,←,left,←,0.5066788997501135,True,36,1
157K25S3,1053,experiment,98,←,left,←,0.5253550000488758,True,36,1
157K25S3,1054,experiment,61,←,no_key,no_letter,-1.0,False,36,1
157K25S3,1055,experiment,54,↑,up,↑,0.5626984001137316,True,36,1
157K25S3,1056,experiment,88,→,left,←,0.35141179990023375,False,36,1
157K25S3,1057,experiment,55,←,no_key,no_letter,-1.0,False,36,0
157K25S3,1058,experiment,65,←,left,←,0.7045418997295201,True,36,1
157K25S3,1059,experiment,90,↑,up,↑,0.47826300002634525,True,36,1
157K25S3,1060,experiment,101,←,left,←,0.6172004998661578,True,36,1
157K25S3,1061,experiment,86,→,no_key,no_letter,-1.0,False,36,1
157K25S3,1062,experiment,53,↑,right,→,0.7301467000506818,False,36,1
157K25S3,1063,experiment,71,↑,up,↑,0.5412572999484837,True,36,1
157K25S3,1064,experiment,87,←,left,←,0.39236300019547343,True,36,1
157K25S3,1065,experiment,49,↑,no_key,no_letter,-1.0,False,36,0
157K25S3,1066,experiment,102,←,left,←,0.6244495999999344,True,36,1
157K25S3,1067,experiment,48,↓,down,↓,0.7435038997791708,True,36,1
157K25S3,1068,experiment,52,←,left,←,0.5359426997601986,True,36,1
157K25S3,1069,experiment,108,↓,down,↓,0.63033950002864,True,36,1
157K25S3,1070,experiment,58,←,left,←,0.5056036999449134,True,36,1
157K25S3,1071,experiment,63,→,right,→,0.5918022999539971,True,36,1
157K25S3,1072,experiment,67,↓,no_key,no_letter,-1.0,False,36,1
157K25S3,1073,experiment,57,→,left,←,0.591499200090766,False,36,1
157K25S3,1074,experiment,69,↑,up,↑,0.8085599998012185,True,36,1
157K25S3,1075,experiment,77,←,left,←,0.6142955999821424,True,36,1
157K25S3,1076,experiment,89,↑,down,↓,0.807578899897635,False,36,1
157K25S3,1077,experiment,95,↑,up,↑,0.6555293002165854,True,36,1
157K25S3,1078,experiment,74,↑,down,↓,0.587941000238061,False,36,1
157K25S3,1079,experiment,75,→,right,→,0.5310197998769581,True,36,1
157K25S3,1080,experiment,83,↑,up,↑,0.4176747999154031,True,36,1
157K25S3,1081,experiment,82,↓,down,↓,0.5732140000909567,True,36,0
157K25S3,1082,experiment,73,←,left,←,0.7816162998788059,True,36,1
157K25S3,1083,experiment,76,←,left,←,0.40081690018996596,True,36,1
157K25S3,1084,experiment,103,↑,no_key,no_letter,-1.0,False,36,0
157K25S3,1085,experiment,81,←,left,←,0.5036146999336779,True,36,1
157K25S3,1086,experiment,92,←,left,←,0.41736460011452436,True,36,1
157K25S3,1087,experiment,84,←,left,←,0.4796496001072228,True,36,0
157K25S3,1088,experiment,97,↓,down,↓,0.5156088001094759,True,36,1
157K25S3,1089,experiment,68,↑,up,↑,0.5357861001975834,True,36,1
157K25S3,1090,experiment,107,←,left,←,0.42569589987397194,True,36,1
157K25S3,1091,experiment,59,←,left,←,0.5775147001259029,True,36,0
157K25S3,1092,experiment,56,←,left,←,0.40894610015675426,True,36,1
157K25S3,1093,experiment,64,←,left,←,0.5538504002615809,True,36,0
157K25S3,1094,experiment,99,←,left,←,0.417285299859941,True,36,1
157K25S3,1095,experiment,70,→,left,←,0.41814809991046786,False,36,0
157K25S3,1096,experiment,79,←,left,←,0.40878659998998046,True,36,0
157K25S3,1097,experiment,105,→,right,→,0.6733625996857882,True,36,0
157K25S3,1098,experiment,85,↑,up,↑,0.593987500295043,True,36,1
157K25S3,1099,experiment,94,↑,down,↓,0.6826541000045836,False,36,1
157K25S3,1100,experiment,93,→,right,→,0.40077600022777915,True,36,1
157K25S3,1101,experiment,106,↑,up,↑,0.4423790997825563,True,36,0
157K25S3,1102,experiment,62,↑,up,↑,0.589022499974817,True,36,0
157K25S3,1103,experiment,60,←,left,←,0.5371489999815822,True,36,1
157K25S3,1104,experiment,78,→,right,→,0.43429799983277917,True,36,1
157K25S3,1105,experiment,66,←,left,←,0.49761349987238646,True,36,0
157K25S3,1106,experiment,80,←,left,←,0.5546284997835755,True,36,1
157K25S3,1107,experiment,50,←,left,←,0.4340654001571238,True,36,1
157K25S3,1108,experiment,100,←,left,←,0.40945459995418787,True,36,0
157K25S3,1109,experiment,96,←,left,←,0.4092504996806383,True,36,0
157K25S3,1110,experiment,91,↑,right,→,0.6242689997889102,False,36,0
157K25S3,1111,experiment,72,↑,up,↑,0.5830286997370422,True,36,1
157K25S3,1112,training,93,←,left,←,0.6254830998368561,True,36,0
157K25S3,1113,training,52,←,left,←,0.41717949975281954,True,36,1
157K25S3,1114,experiment,65,↓,down,↓,0.5999954999424517,True,36,0
157K25S3,1115,experiment,52,↑,up,↑,0.5106000998057425,True,36,1
157K25S3,1116,experiment,104,↑,up,↑,0.3838474000804126,True,36,1
157K25S3,1117,experiment,76,↑,up,↑,0.40912590036168694,True,36,0
157K25S3,1118,experiment,78,↓,down,↓,0.498955599963665,True,36,0
157K25S3,1119,experiment,59,↓,down,↓,0.5710271000862122,True,36,1
157K25S3,1120,experiment,83,↓,down,↓,0.568471500184387,True,36,1
157K25S3,1121,experiment,102,←,left,←,0.5034570000134408,True,36,1
157K25S3,1122,experiment,90,↓,down,↓,0.5255236001685262,True,36,1
157K25S3,1123,experiment,60,↑,up,↑,0.49992370000109076,True,36,1
157K25S3,1124,experiment,105,→,right,→,0.4171593999490142,True,36,1
157K25S3,1125,experiment,48,↑,up,↑,0.425717799924314,True,36,0
157K25S3,1126,experiment,54,←,left,←,0.5679529001936316,True,36,0
157K25S3,1127,experiment,101,↑,up,↑,0.4425888997502625,True,36,1
157K25S3,1128,experiment,66,↓,down,↓,0.6390129998326302,True,36,0
157K25S3,1129,experiment,87,↑,up,↑,0.6161980996839702,True,36,1
157K25S3,1130,experiment,61,↓,no_key,no_letter,-1.0,False,36,1
157K25S3,1131,experiment,55,→,right,→,0.41730180010199547,True,36,1
157K25S3,1132,experiment,82,←,left,←,0.5327437999658287,True,36,0
157K25S3,1133,experiment,93,←,right,→,0.4962288998067379,False,36,1
157K25S3,1134,experiment,108,→,right,→,0.6558523001149297,True,36,1
157K25S3,1135,experiment,88,→,left,←,0.5279644001275301,False,36,1
157K25S3,1136,experiment,69,↓,left,←,0.6036040000617504,False,36,1
157K25S3,1137,experiment,53,→,right,→,0.4425714001990855,True,36,1
157K25S3,1138,experiment,85,→,right,→,0.5230594999156892,True,36,0
157K25S3,1139,experiment,99,→,left,←,0.49291029991582036,False,36,1
157K25S3,1140,experiment,77,→,right,→,0.41707069985568523,True,36,1
157K25S3,1141,experiment,71,↓,down,↓,0.5183436996303499,True,36,0
157K25S3,1142,experiment,96,→,right,→,0.40073980018496513,True,36,1
157K25S3,1143,experiment,67,↑,up,↑,0.530466599855572,True,36,0
157K25S3,1144,experiment,51,←,no_key,no_letter,-1.0,False,36,1
157K25S3,1145,experiment,103,→,right,→,0.5544420997612178,True,36,1
157K25S3,1146,experiment,50,←,no_key,no_letter,-1.0,False,36,1
157K25S3,1147,experiment,97,→,right,→,0.49982160003855824,True,36,1
157K25S3,1148,experiment,94,←,left,←,0.4177767997607589,True,36,1
157K25S3,1149,experiment,106,→,right,→,0.45072410022839904,True,36,0
157K25S3,1150,experiment,49,↓,down,↓,0.6165336999110878,True,36,0
157K25S3,1151,experiment,95,←,left,←,0.3757046996615827,True,36,1
157K25S3,1152,experiment,56,↓,down,↓,0.6617946000769734,True,36,0
157K25S3,1153,experiment,86,←,no_key,no_letter,-1.0,False,36,1
157K25S3,1154,experiment,74,←,left,←,0.4257427998818457,True,36,1
157K25S3,1155,experiment,100,←,left,←,0.6278312997892499,True,36,0
157K25S3,1156,experiment,98,↑,up,↑,0.6098594996146858,True,36,1
157K25S3,1157,experiment,91,→,no_key,no_letter,-1.0,False,36,1
157K25S3,1158,experiment,68,↓,down,↓,0.6449884995818138,True,36,1
157K25S3,1159,experiment,70,↑,up,↑,0.45070570008829236,True,36,1
157K25S3,1160,experiment,80,↓,down,↓,0.4505849997512996,True,36,0
157K25S3,1161,experiment,64,→,left,←,0.5025561000220478,False,36,0
157K25S3,1162,experiment,62,↓,down,↓,0.5095834997482598,True,36,1
157K25S3,1163,experiment,72,↑,up,↑,0.6010118001140654,True,36,1
157K25S3,1164,experiment,107,→,right,→,0.4007411999627948,True,36,1
157K25S3,1165,experiment,81,↓,right,→,0.41741450037807226,False,36,0
157K25S3,1166,experiment,63,→,left,←,0.3427876001223922,False,36,0
157K25S3,1167,experiment,75,←,right,→,0.29379620030522346,False,36,0
157K25S3,1168,experiment,92,↓,down,↓,0.5687637999653816,True,36,0
157K25S3,1169,experiment,73,↓,down,↓,0.6095017995685339,True,36,1
157K25S3,1170,experiment,84,→,right,→,0.41669200034812093,True,36,1
157K25S3,1171,experiment,58,↓,down,↓,0.5842999997548759,True,36,0
157K25S3,1172,experiment,89,→,right,→,0.45002879993990064,True,36,1
157K25S3,1173,experiment,79,↓,down,↓,0.5741332997567952,True,36,0
157K25S3,1174,experiment,57,←,no_key,no_letter,-1.0,False,36,1
157K25S3,1175,training,82,→,right,→,0.49542609974741936,True,36,0
157K25S3,1176,training,63,→,right,→,0.4423723998479545,True,36,1
157K25S3,1177,experiment,60,→,right,→,0.4338563000783324,True,36,0
157K25S3,1178,experiment,101,↓,down,↓,0.6684542000293732,True,36,0
157K25S3,1179,experiment,103,↑,up,↑,0.4952321997843683,True,36,1
157K25S3,1180,experiment,51,↓,down,↓,0.4981717998161912,True,36,1
157K25S3,1181,experiment,69,↓,down,↓,0.670784099958837,True,36,1
157K25S3,1182,experiment,92,↑,up,↑,0.48484580032527447,True,36,1
157K25S3,1183,experiment,90,←,left,←,0.4338309997692704,True,36,1
157K25S3,1184,experiment,58,←,left,←,0.45071429992094636,True,36,0
157K25S3,1185,experiment,87,→,right,→,0.401127299759537,True,36,0
157K25S3,1186,experiment,80,→,right,→,0.5310967997647822,True,36,0
157K25S3,1187,experiment,95,↓,down,↓,0.5018102000467479,True,36,1
157K25S3,1188,experiment,71,↓,down,↓,0.443051400128752,True,36,1
157K25S3,1189,experiment,86,↓,down,↓,0.4174858001060784,True,36,0
157K25S3,1190,experiment,57,↑,up,↑,0.5664339000359178,True,36,0
157K25S3,1191,experiment,108,→,right,→,0.5074045001529157,True,36,1
157K25S3,1192,experiment,48,↓,no_key,no_letter,-1.0,False,36,1
157K25S3,1193,experiment,74,↓,down,↓,0.6071983999572694,True,36,1
157K25S3,1194,experiment,65,→,right,→,0.45046520000323653,True,36,1
157K25S3,1195,experiment,75,←,left,←,0.46971810003742576,True,36,0
157K25S3,1196,experiment,96,→,right,→,0.47382979979738593,True,36,0
157K25S3,1197,experiment,49,↑,down,↓,0.5583697999827564,False,36,0
157K25S3,1198,experiment,85,↑,up,↑,0.5634022001177073,True,36,1
157K25S3,1199,experiment,88,↑,up,↑,0.43402380030602217,True,36,1
157K25S3,1200,experiment,76,←,right,→,0.4088538996875286,False,36,0
157K25S3,1201,experiment,52,←,left,←,0.5376940001733601,True,36,0
157K25S3,1202,experiment,84,↑,no_key,no_letter,-1.0,False,36,1
157K25S3,1203,experiment,94,→,left,←,0.5692219999618828,False,36,1
157K25S3,1204,experiment,82,←,left,←,0.5188413998112082,True,36,1
157K25S3,1205,experiment,89,→,right,→,0.43406450003385544,True,36,1
157K25S3,1206,experiment,107,↑,right,→,0.6066787000745535,False,36,0
157K25S3,1207,experiment,50,→,no_key,no_letter,-1.0,False,36,1
157K25S3,1208,experiment,61,↑,up,↑,0.6581398998387158,True,36,1
157K25S3,1209,experiment,73,↑,up,↑,0.5590751003473997,True,36,1
157K25S3,1210,experiment,78,←,left,←,0.4256808999925852,True,36,1
157K25S3,1211,experiment,91,↓,left,←,0.36738510010764003,False,36,0
157K25S3,1212,experiment,70,↓,down,↓,0.5199084999039769,True,36,0
157K25S3,1213,experiment,55,↓,down,↓,0.4811372999101877,True,36,1
157K25S3,1214,experiment,56,↓,down,↓,0.6664865999482572,True,36,1
157K25S3,1215,experiment,68,↓,down,↓,0.5128815998323262,True,36,1
157K25S3,1216,experiment,72,↑,down,↓,0.795996299944818,False,36,1
157K25S3,1217,experiment,104,→,right,→,0.43376330006867647,True,36,1
157K25S3,1218,experiment,63,↑,right,→,0.6180699998512864,False,36,0
157K25S3,1219,experiment,105,↑,down,↓,0.750051099807024,False,36,1
157K25S3,1220,experiment,77,↓,down,↓,0.5663693998940289,True,36,1
157K25S3,1221,experiment,67,↑,up,↑,0.5208461000584066,True,36,1
157K25S3,1222,experiment,97,↑,up,↑,1.0435918997973204,True,36,1
157K25S3,1223,experiment,62,↓,down,↓,0.4930426999926567,True,36,1
157K25S3,1224,experiment,53,↓,right,→,0.6554848002269864,False,36,1
157K25S3,1225,experiment,83,←,left,←,0.4508131998591125,True,36,1
157K25S3,1226,experiment,54,↓,down,↓,0.5084910001605749,True,36,0
157K25S3,1227,experiment,66,→,right,→,0.42580970004200935,True,36,1
157K25S3,1228,experiment,93,↓,left,←,0.7213171999901533,False,36,0
157K25S3,1229,experiment,106,←,left,←,0.3924115998670459,True,36,1
157K25S3,1230,experiment,79,←,left,←,0.40904789976775646,True,36,0
157K25S3,1231,experiment,98,←,left,←,0.42575039993971586,True,36,0
157K25S3,1232,experiment,100,→,no_key,no_letter,-1.0,False,36,0
157K25S3,1233,experiment,81,↑,right,→,0.7596352002583444,False,36,1
157K25S3,1234,experiment,102,↓,down,↓,0.42563939979299903,True,36,1
157K25S3,1235,experiment,64,↑,left,←,0.8240048997104168,False,36,0
157K25S3,1236,experiment,99,↑,up,↑,0.7654959000647068,True,36,1
157K25S3,1237,experiment,59,←,left,←,0.5228540999814868,True,36,1
157K25S3,1238,training,81,↓,up,↑,0.6197132002562284,False,36,0
157K25S3,1239,training,106,↑,down,↓,0.5591735998168588,False,36,1
157K25S3,1240,experiment,81,↑,up,↑,0.5415489999577403,True,36,1
157K25S3,1241,experiment,86,↑,up,↑,0.4090792997740209,True,36,1
157K25S3,1242,experiment,64,→,right,→,0.588713999837637,True,36,0
157K25S3,1243,experiment,59,←,right,→,0.5130723998881876,False,36,1
157K25S3,1244,experiment,71,↑,left,←,0.5405342997983098,False,36,1
157K25S3,1245,experiment,52,→,right,→,0.4417110001668334,True,36,1
157K25S3,1246,experiment,61,→,right,→,0.4950311998836696,True,36,0
157K25S3,1247,experiment,65,↓,left,←,0.6847879001870751,False,36,1
157K25S3,1248,experiment,94,↑,no_key,no_letter,-1.0,False,36,1
157K25S3,1249,experiment,69,↓,down,↓,0.75579380011186,True,36,1
157K25S3,1250,experiment,49,↓,down,↓,0.8047651997767389,True,36,1
157K25S3,1251,experiment,79,↑,no_key,no_letter,-1.0,False,36,1
157K25S3,1252,experiment,66,↓,up,↑,1.0848022000864148,False,36,1
157K25S3,1253,experiment,68,→,right,→,0.6824181000702083,True,36,1
157K25S3,1254,experiment,107,↓,right,→,0.9550025998614728,False,36,1
157K25S3,1255,experiment,105,←,left,←,0.7212875001132488,True,36,1
157K25S3,1256,experiment,72,←,left,←,0.6124113998375833,True,36,1
157K25S3,1257,experiment,58,→,right,→,0.4338954999111593,True,36,1
157K25S3,1258,experiment,82,←,right,→,0.47548669995740056,False,36,0
157K25S3,1259,experiment,67,←,left,←,0.45097329979762435,True,36,1
157K25S3,1260,experiment,70,↑,left,←,0.7273869998753071,False,36,0
157K25S3,1261,experiment,93,←,left,←,0.6030582999810576,True,36,1
157K25S3,1262,experiment,56,↓,down,↓,0.5041685998439789,True,36,1
157K25S3,1263,experiment,57,←,left,←,0.4816918997094035,True,36,1
157K25S3,1264,experiment,55,←,left,←,0.40071479976177216,True,36,1
157K25S3,1265,experiment,101,↓,down,↓,0.5123713999055326,True,36,0
157K25S3,1266,experiment,74,↓,down,↓,0.4423643001355231,True,36,1
157K25S3,1267,experiment,104,↓,down,↓,0.6947347996756434,True,36,0
157K25S3,1268,experiment,84,→,left,←,0.5424132002517581,False,36,1
157K25S3,1269,experiment,63,←,no_key,no_letter,-1.0,False,36,1
157K25S3,1270,experiment,53,↓,right,→,0.5392204998061061,False,36,1
157K25S3,1271,experiment,62,↓,down,↓,0.5920033999718726,True,36,1
157K25S3,1272,experiment,97,↓,down,↓,0.5357231004163623,True,36,1
157K25S3,1273,experiment,85,←,left,←,0.6537184002809227,True,36,1
157K25S3,1274,experiment,88,↑,up,↑,0.5101574002765119,True,36,1
157K25S3,1275,experiment,78,↓,down,↓,0.5595097998157144,True,36,1
157K25S3,1276,experiment,54,←,left,←,0.4171319999732077,True,36,1
157K25S3,1277,experiment,108,↑,left,←,0.41868910007178783,False,36,0
157K25S3,1278,experiment,87,↑,up,↑,0.4507273999042809,True,36,0
157K25S3,1279,experiment,80,→,right,→,0.44190660025924444,True,36,0
157K25S3,1280,experiment,76,→,right,→,0.5702359001152217,True,36,0
157K25S3,1281,experiment,102,↓,down,↓,0.5772738000378013,True,36,1
157K25S3,1282,experiment,77,←,right,→,0.5843161004595459,False,36,1
157K25S3,1283,experiment,51,↑,left,←,0.5757801998406649,False,36,1
157K25S3,1284,experiment,91,↓,down,↓,0.43463349994271994,True,36,1
157K25S3,1285,experiment,96,↓,right,→,0.5999262002296746,False,36,0
157K25S3,1286,experiment,50,↑,down,↓,0.5109548000618815,False,36,1
157K25S3,1287,experiment,100,←,right,→,0.5769771998748183,False,36,1
157K25S3,1288,experiment,73,↓,down,↓,0.609440699685365,True,36,1
157K25S3,1289,experiment,75,↓,down,↓,0.5677661998197436,True,36,1
157K25S3,1290,experiment,48,←,left,←,0.5449959998950362,True,36,1
157K25S3,1291,experiment,90,↓,down,↓,0.764939600136131,True,36,1
157K25S3,1292,experiment,99,↓,down,↓,0.5009884000755847,True,36,1
157K25S3,1293,experiment,95,↑,down,↓,0.6089948997832835,False,36,1
157K25S3,1294,experiment,89,→,left,←,0.5627586003392935,False,36,1
157K25S3,1295,experiment,103,←,left,←,0.4176663001999259,True,36,1
157K25S3,1296,experiment,60,↑,up,↑,0.6122451000846922,True,36,0
157K25S3,1297,experiment,106,↓,up,↑,0.5685322000645101,False,36,1
157K25S3,1298,experiment,92,↓,down,↓,0.5385833000764251,True,36,1
157K25S3,1299,experiment,83,↑,up,↑,0.4425751999951899,True,36,1
157K25S3,1300,experiment,98,←,left,←,0.47048990009352565,True,36,0
157K25S3,1301,training,53,↓,up,↑,0.7353202998638153,False,36,0
157K25S3,1302,training,55,←,left,←,0.43421889981254935,True,36,1
157K25S3,1303,experiment,82,→,no_key,no_letter,-1.0,False,36,0
157K25S3,1304,experiment,61,→,right,→,0.5027527003549039,True,36,1
157K25S3,1305,experiment,62,↑,left,←,0.7576891998760402,False,36,1
157K25S3,1306,experiment,91,↑,up,↑,0.5607729000039399,True,36,1
157K25S3,1307,experiment,79,↓,down,↓,0.6718339999206364,True,36,1
157K25S3,1308,experiment,93,→,right,→,0.7575789000838995,True,36,1
157K25S3,1309,experiment,51,↑,up,↑,0.5178346000611782,True,36,1
157K25S3,1310,experiment,102,→,no_key,no_letter,-1.0,False,36,1
157K25S3,1311,experiment,71,↑,up,↑,0.640245399903506,True,36,1
157K25S3,1312,experiment,97,←,left,←,0.606039599981159,True,36,1
157K25S3,1313,experiment,50,↓,down,↓,0.4507066002115607,True,36,1
157K25S3,1314,experiment,60,↓,down,↓,0.4257630002684891,True,36,0
157K25S3,1315,experiment,78,↑,right,→,0.5144000998698175,False,36,0
157K25S3,1316,experiment,57,←,right,→,0.44309530034661293,False,36,1
157K25S3,1317,experiment,64,←,left,←,0.3841205001808703,True,36,0
157K25S3,1318,experiment,48,←,no_key,no_letter,-1.0,False,36,0
157K25S3,1319,experiment,89,↓,down,↓,0.5503452001139522,True,36,1
157K25S3,1320,experiment,63,↓,down,↓,0.44241590006276965,True,36,1
157K25S3,1321,experiment,69,→,right,→,0.41741100000217557,True,36,0
157K25S3,1322,experiment,104,←,left,←,0.42484339978545904,True,36,0
157K25S3,1323,experiment,103,←,left,←,0.3590695997700095,True,36,0
157K25S3,1324,experiment,107,↓,down,↓,0.5029553999193013,True,36,0
157K25S3,1325,experiment,72,→,right,→,0.40909400023519993,True,36,1
157K25S3,1326,experiment,56,→,no_key,no_letter,-1.0,False,36,0
157K25S3,1327,experiment,58,↓,down,↓,0.5409136996604502,True,36,1
157K25S3,1328,experiment,73,←,left,←,0.4507204000838101,True,36,1
157K25S3,1329,experiment,55,→,right,→,0.4425650998018682,True,36,0
157K25S3,1330,experiment,66,↓,left,←,0.4738214001990855,False,36,0
157K25S3,1331,experiment,95,↓,right,→,0.6631368002854288,False,36,0
157K25S3,1332,experiment,65,←,right,→,0.6457952000200748,False,36,1
157K25S3,1333,experiment,94,→,right,→,0.4771360997110605,True,36,1
157K25S3,1334,experiment,85,↑,left,←,0.44214330008253455,False,36,1
157K25S3,1335,experiment,70,←,left,←,0.45078449975699186,True,36,0
157K25S3,1336,experiment,81,→,right,→,0.43404139997437596,True,36,0
157K25S3,1337,experiment,49,↓,down,↓,0.523093500174582,True,36,0
157K25S3,1338,experiment,59,↓,right,→,0.5702436002902687,False,36,1
157K25S3,1339,experiment,100,→,left,←,0.6179379001259804,False,36,1
157K25S3,1340,experiment,99,→,right,→,0.42545370012521744,True,36,1
157K25S3,1341,experiment,76,←,left,←,0.4092103000730276,True,36,0
157K25S3,1342,experiment,98,←,left,←,0.34231860004365444,True,36,0
157K25S3,1343,experiment,75,↓,down,↓,0.5803278996609151,True,36,0
157K25S3,1344,experiment,68,→,down,↓,0.5339664001949131,False,36,1
157K25S3,1345,experiment,92,→,left,←,0.4173686997964978,False,36,1
157K25S3,1346,experiment,106,↓,down,↓,0.5810338002629578,True,36,0
157K25S3,1347,experiment,53,←,right,→,0.5799520998261869,False,36,1
157K25S3,1348,experiment,52,↓,left,←,0.4832280999980867,False,36,1
157K25S3,1349,experiment,108,↑,up,↑,0.851261300034821,True,36,1
157K25S3,1350,experiment,90,←,left,←,0.392722699791193,True,36,1
157K25S3,1351,experiment,86,↑,no_key,no_letter,-1.0,False,36,0
157K25S3,1352,experiment,83,↓,down,↓,0.699310400057584,True,36,1
157K25S3,1353,experiment,105,←,left,←,0.42574660014361143,True,36,1
157K25S3,1354,experiment,80,→,right,→,0.41728710010647774,True,36,0
157K25S3,1355,experiment,84,←,left,←,0.5384494001045823,True,36,0
157K25S3,1356,experiment,88,←,left,←,0.37594039971008897,True,36,1
157K25S3,1357,experiment,77,↑,down,↓,0.573864699807018,False,36,0
157K25S3,1358,experiment,67,↓,down,↓,0.91231369972229,True,36,1
157K25S3,1359,experiment,74,→,left,←,0.48292799992486835,False,36,1
157K25S3,1360,experiment,96,↓,down,↓,0.606980100274086,True,36,1
157K25S3,1361,experiment,87,→,right,→,0.45095770014449954,True,36,1
157K25S3,1362,experiment,101,←,left,←,0.4931745999492705,True,36,0
157K25S3,1363,experiment,54,↑,right,→,0.5433212001807988,False,36,1
157K25S3,1364,training,58,←,no_key,no_letter,-1.0,False,36,0
157K25S3,1365,training,89,→,right,→,0.6080133002251387,True,36,1
157K25S3,1366,experiment,50,→,right,→,0.4421189003624022,True,36,1
157K25S3,1367,experiment,92,↓,down,↓,0.5498464000411332,True,36,0
157K25S3,1368,experiment,86,↑,up,↑,0.4988913000561297,True,36,1
157K25S3,1369,experiment,72,↓,down,↓,0.6065249000675976,True,36,1
157K25S3,1370,experiment,55,→,right,→,0.4249891000799835,True,36,1
157K25S3,1371,experiment,58,↓,down,↓,0.6147030000574887,True,36,0
157K25S3,1372,experiment,82,←,right,→,0.49850390013307333,False,36,1
157K25S3,1373,experiment,97,←,left,←,0.5898454999551177,True,36,1
157K25S3,1374,experiment,75,→,right,→,0.5088505996391177,True,36,1
157K25S3,1375,experiment,91,→,right,→,0.6740239998325706,True,36,1
157K25S3,1376,experiment,57,→,no_key,no_letter,-1.0,False,36,1
157K25S3,1377,experiment,48,↑,up,↑,0.6368718002922833,True,36,1
157K25S3,1378,experiment,95,→,right,→,0.5152106997556984,True,36,1
157K25S3,1379,experiment,54,→,right,→,0.42632139986380935,True,36,1
157K25S3,1380,experiment,98,←,no_key,no_letter,-1.0,False,36,0
157K25S3,1381,experiment,87,←,left,←,0.5342689002864063,True,36,1
157K25S3,1382,experiment,68,←,no_key,no_letter,-1.0,False,36,1
157K25S3,1383,experiment,61,→,left,←,0.510273199994117,False,36,1
157K25S3,1384,experiment,94,↓,left,←,0.38400449976325035,False,36,1
157K25S3,1385,experiment,89,←,left,←,0.4004836999811232,True,36,0
157K25S3,1386,experiment,70,←,right,→,0.3424337999895215,False,36,0
157K25S3,1387,experiment,67,↓,left,←,0.300840400159359,False,36,0
157K25S3,1388,experiment,65,↓,down,↓,0.5425352002494037,True,36,0
157K25S3,1389,experiment,88,←,left,←,0.4909723000600934,True,36,1
157K25S3,1390,experiment,74,↓,down,↓,0.4785127998329699,True,36,1
157K25S3,1391,experiment,104,→,right,→,0.4255459001287818,True,36,1
157K25S3,1392,experiment,64,↓,down,↓,0.5132465003989637,True,36,0
157K25S3,1393,experiment,73,←,left,←,0.5155989001505077,True,36,1
157K25S3,1394,experiment,60,→,right,→,0.5468417000956833,True,36,1
157K25S3,1395,experiment,101,↑,up,↑,0.4423750997520983,True,36,1
157K25S3,1396,experiment,84,→,left,←,0.5006341999396682,False,36,0
157K25S3,1397,experiment,93,→,left,←,0.48169169994071126,False,36,1
157K25S3,1398,experiment,71,↑,up,↑,0.45079859998077154,True,36,1
157K25S3,1399,experiment,79,↑,up,↑,0.39252019999548793,True,36,0
157K25S3,1400,experiment,77,→,right,→,0.5753019000403583,True,36,0
157K25S3,1401,experiment,78,→,right,→,0.41750629991292953,True,36,1
157K25S3,1402,experiment,49,←,left,←,0.46898460015654564,True,36,0
157K25S3,1403,experiment,107,→,right,→,0.4091002997010946,True,36,0
157K25S3,1404,experiment,56,→,right,→,0.3590212003327906,True,36,0
157K25S3,1405,experiment,51,↑,no_key,no_letter,-1.0,False,36,0
157K25S3,1406,experiment,53,↑,up,↑,0.40915510011836886,True,36,1
157K25S3,1407,experiment,85,←,left,←,0.42571140034124255,True,36,0
157K25S3,1408,experiment,69,←,left,←,0.3837608997710049,True,36,0
157K25S3,1409,experiment,100,→,right,→,0.5462013999931514,True,36,0
157K25S3,1410,experiment,102,↓,down,↓,0.6583718997426331,True,36,1
157K25S3,1411,experiment,108,↑,right,→,0.507424000184983,False,36,1
157K25S3,1412,experiment,106,←,left,←,0.409050100017339,True,36,1
157K25S3,1413,experiment,63,↓,down,↓,0.5813473002053797,True,36,0
157K25S3,1414,experiment,62,→,no_key,no_letter,-1.0,False,36,1
157K25S3,1415,experiment,59,←,right,→,0.9023273000493646,False,36,1
157K25S3,1416,experiment,66,→,right,→,0.5800290000624955,True,36,1
157K25S3,1417,experiment,90,↑,down,↓,0.5983775001950562,False,36,1
157K25S3,1418,experiment,83,↓,up,↑,0.5624663000926375,False,36,1
157K25S3,1419,experiment,81,↑,up,↑,0.47299790009856224,True,36,1
157K25S3,1420,experiment,103,→,right,→,0.47538179997354746,True,36,1
157K25S3,1421,experiment,80,→,right,→,0.4341064998880029,True,36,1
157K25S3,1422,experiment,76,↓,down,↓,0.5537579003721476,True,36,0
157K25S3,1423,experiment,52,→,right,→,0.4982427996583283,True,36,1
157K25S3,1424,experiment,99,↑,up,↑,0.49303940031677485,True,36,1
157K25S3,1425,experiment,96,→,right,→,0.6491335998289287,True,36,1
157K25S3,1426,experiment,105,←,left,←,0.45075020007789135,True,36,1
157K25S3,1427,training,49,←,left,←,0.5776479998603463,True,36,0
157K25S3,1428,training,68,↓,down,↓,0.7956135999411345,True,36,1
157K25S3,1429,experiment,66,↑,up,↑,0.4257585001178086,True,36,1
157K25S3,1430,experiment,97,↓,down,↓,0.6757223000749946,True,36,0
157K25S3,1431,experiment,49,↑,right,→,0.688046199735254,False,36,1
157K25S3,1432,experiment,51,↑,no_key,no_letter,-1.0,False,36,1
157K25S3,1433,experiment,82,→,no_key,no_letter,-1.0,False,36,1
157K25S3,1434,experiment,70,↓,down,↓,0.5706747001968324,True,36,1
157K25S3,1435,experiment,65,→,right,→,0.4701644000597298,True,36,1
157K25S3,1436,experiment,63,↑,down,↓,0.5173090002499521,False,36,1
157K25S3,1437,experiment,100,↓,down,↓,0.535135299898684,True,36,1
157K25S3,1438,experiment,68,→,right,→,0.5629627001471817,True,36,1
157K25S3,1439,experiment,64,→,right,→,0.39250929979607463,True,36,1
157K25S3,1440,experiment,74,←,right,→,0.6460462999530137,False,36,0
157K25S3,1441,experiment,90,↑,up,↑,0.8616948998533189,True,36,1
157K25S3,1442,experiment,57,→,no_key,no_letter,-1.0,False,36,1
157K25S3,1443,experiment,85,↓,down,↓,0.4928534999489784,True,36,1
157K25S3,1444,experiment,103,→,no_key,no_letter,-1.0,False,36,1
157K25S3,1445,experiment,102,↓,down,↓,0.5973665001802146,True,36,1
157K25S3,1446,experiment,53,←,left,←,0.5472210999578238,True,36,1
157K25S3,1447,experiment,72,←,left,←,0.5653687999583781,True,36,1
157K25S3,1448,experiment,75,←,left,←,0.40001010010018945,True,36,1
157K25S3,1449,experiment,98,→,right,→,0.6277630003169179,True,36,0
157K25S3,1450,experiment,50,→,left,←,0.5218317001126707,False,36,1
157K25S3,1451,experiment,105,←,right,→,0.5375522999092937,False,36,1
157K25S3,1452,experiment,78,←,left,←,0.4902001000009477,True,36,1
157K25S3,1453,experiment,56,↑,left,←,0.7153990999795496,False,36,1
157K25S3,1454,experiment,93,→,right,→,0.4507816997356713,True,36,1
157K25S3,1455,experiment,61,↑,no_key,no_letter,-1.0,False,36,0
157K25S3,1456,experiment,67,→,right,→,0.44237380009144545,True,36,1
157K25S3,1457,experiment,83,←,left,←,0.4515362000092864,True,36,0
157K25S3,1458,experiment,92,↑,up,↑,0.6359105999581516,True,36,0
157K25S3,1459,experiment,88,↑,up,↑,0.5808769003488123,True,36,1
157K25S3,1460,experiment,58,←,left,←,0.4745473996736109,True,36,1
157K25S3,1461,experiment,106,→,no_key,no_letter,-1.0,False,36,1
157K25S3,1462,experiment,71,→,right,→,0.6682132002897561,True,36,1
157K25S3,1463,experiment,84,↑,up,↑,0.5813611000776291,True,36,1
157K25S3,1464,experiment,60,↑,no_key,no_letter,-1.0,False,36,1
157K25S3,1465,experiment,52,↓,right,→,0.5295226997695863,False,36,1
157K25S3,1466,experiment,94,↓,up,↑,0.4424979002214968,False,36,1
157K25S3,1467,experiment,80,→,right,→,0.07532320031896234,True,36,0
157K25S3,1468,experiment,77,←,left,←,0.40079270023852587,True,36,0
157K25S3,1469,experiment,79,←,left,←,0.48001709999516606,True,36,0
157K25S3,1470,experiment,86,→,right,→,0.434033100027591,True,36,1
157K25S3,1471,experiment,69,→,right,→,0.383810400031507,True,36,0
157K25S3,1472,experiment,96,→,right,→,0.36776409996673465,True,36,0
157K25S3,1473,experiment,48,↓,right,→,0.6307148998603225,False,36,0
157K25S3,1474,experiment,81,↑,left,←,0.5862353001721203,False,36,1
157K25S3,1475,experiment,99,↓,down,↓,0.5773302000015974,True,36,1
157K25S3,1476,experiment,91,→,right,→,0.48393720015883446,True,36,1
157K25S3,1477,experiment,62,↓,down,↓,0.5075208996422589,True,36,1
157K25S3,1478,experiment,95,↑,up,↑,0.5032422998920083,True,36,1
157K25S3,1479,experiment,108,←,right,→,0.5349225997924805,False,36,1
157K25S3,1480,experiment,76,↑,no_key,no_letter,-1.0,False,36,1
157K25S3,1481,experiment,104,↓,down,↓,0.5501633998937905,True,36,1
157K25S3,1482,experiment,73,↑,no_key,no_letter,-1.0,False,36,1
157K25S3,1483,experiment,59,↑,up,↑,0.588765200227499,True,36,1
157K25S3,1484,experiment,54,→,right,→,0.5228003999218345,True,36,1
157K25S3,1485,experiment,87,→,right,→,0.6566482000052929,True,36,1
