PART_ID,Trial_no,Trial_type,CSI,Stim_letter,Key_pressed,letter_choose,Rt,Corr,Stimulus Time,nDropped
158K23S2,1,training,120,→,right,→,0.4766745000088122,True,60,0
158K23S2,2,training,120,↑,up,↑,0.5509070999978576,True,60,0
158K23S2,3,training,120,↑,up,↑,0.8654550000210293,True,60,0
158K23S2,4,training,120,↑,up,↑,0.5925630000128876,True,60,0
158K23S2,5,training,120,←,left,←,1.053019699989818,True,60,0
158K23S2,6,training,120,←,left,←,0.6744214000063948,True,60,0
158K23S2,7,training,120,→,right,→,0.7816815999976825,True,60,0
158K23S2,8,training,120,←,left,←,0.9656300999922678,True,60,0
158K23S2,9,training,120,→,right,→,1.0459690999996383,True,60,0
158K23S2,10,training,120,←,left,←,0.36014430000795983,True,60,0
158K23S2,11,training,120,→,left,←,0.6173955000122078,False,60,0
158K23S2,12,training,120,←,left,←,0.6007892999914475,True,60,0
158K23S2,13,training,120,←,left,←,0.5756824999989476,True,60,0
158K23S2,14,training,120,→,right,→,0.5674976999871433,True,60,0
158K23S2,15,training,120,←,left,←,0.5087733000109438,True,60,0
158K23S2,16,training,120,→,right,→,0.617521600011969,True,60,0
158K23S2,17,training,120,↑,up,↑,0.6917089000053238,True,60,0
158K23S2,18,training,120,↓,down,↓,0.863053500012029,True,60,0
158K23S2,19,training,120,→,right,→,0.6674816000158899,True,60,0
158K23S2,20,training,120,↑,down,↓,0.672303200000897,False,60,0
158K23S2,21,no_adaptation,120,↓,down,↓,0.4256459000171162,True,36,0
158K23S2,22,no_adaptation,120,↑,up,↑,0.32568199999514036,True,36,0
158K23S2,23,no_adaptation,120,↑,up,↑,0.6996975999791175,True,36,0
158K23S2,24,no_adaptation,120,↑,up,↑,0.5509473000129219,True,36,0
158K23S2,25,no_adaptation,120,↓,down,↓,0.6561601999856066,True,36,0
158K23S2,26,no_adaptation,120,↑,up,↑,0.6292829999874812,True,36,0
158K23S2,27,no_adaptation,120,↑,down,↓,0.5787707999988925,False,36,0
158K23S2,28,no_adaptation,120,↓,down,↓,1.0906982999877073,True,36,0
158K23S2,29,no_adaptation,120,←,left,←,0.5581247999798506,True,36,0
158K23S2,30,no_adaptation,120,→,up,↑,0.5910023000033107,False,36,0
158K23S2,31,no_adaptation,120,↑,right,→,0.6783999000035692,False,36,0
158K23S2,32,no_adaptation,120,→,down,↓,0.43405099998926744,False,36,0
158K23S2,33,no_adaptation,120,↓,down,↓,0.5278585000196472,True,36,0
158K23S2,34,no_adaptation,120,↑,down,↓,0.8418863999831956,False,36,0
158K23S2,35,no_adaptation,120,←,up,↑,0.3841052000061609,False,36,0
158K23S2,36,no_adaptation,120,→,left,←,0.2768844999955036,False,36,0
158K23S2,37,no_adaptation,120,←,right,→,0.4745544000179507,False,36,0
158K23S2,38,no_adaptation,120,←,left,←,0.5658786999993026,True,36,0
158K23S2,39,no_adaptation,120,←,left,←,0.5344009000109509,True,36,0
158K23S2,40,no_adaptation,120,→,down,↓,0.4340569000050891,False,36,0
158K23S2,41,training,84,↑,up,↑,0.48554220001096837,True,36,0
158K23S2,42,training,94,→,right,→,0.7619866000022739,True,36,1
158K23S2,43,experiment,95,↓,down,↓,0.667657500016503,True,36,1
158K23S2,44,experiment,80,←,left,←,0.9181441999971867,True,36,1
158K23S2,45,experiment,88,↓,down,↓,0.8836833999957889,True,36,1
158K23S2,46,experiment,90,↓,down,↓,0.7940460999961942,True,36,1
158K23S2,47,experiment,83,→,right,→,0.7343150000087917,True,36,1
158K23S2,48,experiment,104,→,right,→,0.9740451999823563,True,36,1
158K23S2,49,experiment,94,↓,down,↓,0.7353339999972377,True,36,1
158K23S2,50,experiment,49,→,right,→,0.8014074999955483,True,36,1
158K23S2,51,experiment,87,↓,down,↓,0.7721065999940038,True,36,1
158K23S2,52,experiment,62,→,right,→,0.7361766999820247,True,36,1
158K23S2,53,experiment,68,→,right,→,0.6358584999979939,True,36,1
158K23S2,54,experiment,100,↓,down,↓,0.7369020000041928,True,36,1
158K23S2,55,experiment,67,↓,down,↓,0.8369577999983449,True,36,1
158K23S2,56,experiment,74,→,right,→,0.6509053999907337,True,36,1
158K23S2,57,experiment,106,←,left,←,0.5730076000036206,True,36,1
158K23S2,58,experiment,79,↓,down,↓,0.6113897000032011,True,36,1
158K23S2,59,experiment,52,←,left,←,0.6494404000113718,True,36,1
158K23S2,60,experiment,82,→,right,→,0.6678718000184745,True,36,1
158K23S2,61,experiment,92,→,right,→,0.5463112999859732,True,36,1
158K23S2,62,experiment,61,↓,down,↓,0.6322930000023916,True,36,1
158K23S2,63,experiment,65,↑,up,↑,0.8324798000103328,True,36,1
158K23S2,64,experiment,72,←,left,←,0.7748382999852765,True,36,1
158K23S2,65,experiment,69,←,left,←,0.6325145000009798,True,36,1
158K23S2,66,experiment,71,→,right,→,0.7111460999876726,True,36,1
158K23S2,67,experiment,50,→,right,→,0.7698352999868803,True,36,1
158K23S2,68,experiment,56,←,left,←,0.47316850000061095,True,36,1
158K23S2,69,experiment,57,↑,up,↑,0.6977774999977555,True,36,1
158K23S2,70,experiment,63,→,right,→,0.5525697999983095,True,36,1
158K23S2,71,experiment,108,←,left,←,0.5262174000090454,True,36,1
158K23S2,72,experiment,51,→,right,→,0.5279781999997795,True,36,1
158K23S2,73,experiment,98,→,right,→,0.6020323999982793,True,36,1
158K23S2,74,experiment,91,↑,up,↑,0.49157269997522235,True,36,1
158K23S2,75,experiment,58,↓,down,↓,0.6761539000144694,True,36,1
158K23S2,76,experiment,96,←,left,←,0.6248602000123356,True,36,1
158K23S2,77,experiment,75,←,left,←,0.6545819000166375,True,36,1
158K23S2,78,experiment,103,↑,up,↑,0.5456641000055242,True,36,1
158K23S2,79,experiment,85,←,left,←,0.5353100000065751,True,36,1
158K23S2,80,experiment,70,↓,down,↓,0.6583962000149768,True,36,1
158K23S2,81,experiment,77,↓,down,↓,0.5741578000015579,True,36,1
158K23S2,82,experiment,73,↑,up,↑,0.6785356000182219,True,36,1
158K23S2,83,experiment,101,←,left,←,0.5535612999810837,True,36,1
158K23S2,84,experiment,84,↑,up,↑,0.6152570000267588,True,36,1
158K23S2,85,experiment,93,↓,down,↓,0.5752713000110816,True,36,1
158K23S2,86,experiment,54,↓,down,↓,0.5660235999966972,True,36,1
158K23S2,87,experiment,99,←,left,←,0.566030399990268,True,36,1
158K23S2,88,experiment,59,←,left,←,0.5956357999821194,True,36,1
158K23S2,89,experiment,97,→,right,→,0.5632127999851946,True,36,1
158K23S2,90,experiment,64,↓,down,↓,0.574968999979319,True,36,1
158K23S2,91,experiment,102,←,left,←,0.5496215000166558,True,36,1
158K23S2,92,experiment,81,→,right,→,0.5723835999961011,True,36,1
158K23S2,93,experiment,60,↑,up,↑,0.617119400005322,True,36,1
158K23S2,94,experiment,89,↓,down,↓,0.5625126999802887,True,36,1
158K23S2,95,experiment,105,→,right,→,0.720593000005465,True,36,1
158K23S2,96,experiment,48,←,left,←,0.4834256999893114,True,36,1
158K23S2,97,experiment,66,←,left,←,0.5216576000093482,True,36,1
158K23S2,98,experiment,78,↓,down,↓,0.570381700003054,True,36,1
158K23S2,99,experiment,107,↑,up,↑,0.7118235999951139,True,36,1
158K23S2,100,experiment,86,→,right,→,0.4946089999866672,True,36,1
158K23S2,101,experiment,55,←,left,←,0.5606812000041828,True,36,1
158K23S2,102,experiment,53,↓,down,↓,0.591713300003903,True,36,1
158K23S2,103,experiment,76,→,right,→,0.5425855000212323,True,36,1
158K23S2,104,training,101,←,left,←,0.485139300028095,True,35,0
158K23S2,105,training,85,←,left,←,0.5091408000153024,True,35,1
158K23S2,106,experiment,79,↓,down,↓,0.4862399999983609,True,35,1
158K23S2,107,experiment,52,↓,down,↓,0.4973471000266727,True,35,1
158K23S2,108,experiment,105,↑,up,↑,0.4347762000106741,True,35,1
158K23S2,109,experiment,92,↑,up,↑,0.4182291000033729,True,35,0
158K23S2,110,experiment,98,←,left,←,0.5507502000255045,True,35,0
158K23S2,111,experiment,62,↓,down,↓,0.5478384000016376,True,35,1
158K23S2,112,experiment,80,→,right,→,0.4753580999968108,True,35,1
158K23S2,113,experiment,64,↓,down,↓,0.4824136999959592,True,35,1
158K23S2,114,experiment,56,←,left,←,0.5321034000080545,True,35,1
158K23S2,115,experiment,49,→,right,→,0.646194300003117,True,35,1
158K23S2,116,experiment,88,→,right,→,0.4870621000009123,True,35,1
158K23S2,117,experiment,59,↑,up,↑,0.5753426000010222,True,35,1
158K23S2,118,experiment,102,↑,up,↑,0.46265080000739545,True,35,1
158K23S2,119,experiment,91,→,right,→,0.6127694000024348,True,35,0
158K23S2,120,experiment,53,↓,down,↓,0.5382537000114098,True,35,1
158K23S2,121,experiment,84,←,left,←,0.4421526000078302,True,35,1
158K23S2,122,experiment,83,→,right,→,0.5063357999897562,True,35,0
158K23S2,123,experiment,87,→,right,→,0.5848097999987658,True,35,1
158K23S2,124,experiment,69,↓,down,↓,0.5863309999986086,True,35,1
158K23S2,125,experiment,85,↓,up,↑,0.6383623000001535,False,35,1
158K23S2,126,experiment,86,→,right,→,0.49560170000768267,True,35,1
158K23S2,127,experiment,61,↓,down,↓,0.5429978999891318,True,35,1
158K23S2,128,experiment,101,←,left,←,0.5114720000128727,True,35,1
158K23S2,129,experiment,97,→,right,→,0.8984883000084665,True,35,1
158K23S2,130,experiment,106,↓,down,↓,0.8427225999766961,True,35,1
158K23S2,131,experiment,54,↑,up,↑,0.8307488999853376,True,35,1
158K23S2,132,experiment,58,↓,down,↓,0.753842900012387,True,35,1
158K23S2,133,experiment,71,→,left,←,0.7558733000187203,False,35,1
158K23S2,134,experiment,96,→,right,→,0.5253322000207845,True,35,1
158K23S2,135,experiment,95,↓,down,↓,0.584407199989073,True,35,1
158K23S2,136,experiment,67,←,left,←,0.6343282000161707,True,35,1
158K23S2,137,experiment,57,→,right,→,0.6937779999861959,True,35,1
158K23S2,138,experiment,104,↓,down,↓,0.8071342000039294,True,35,1
158K23S2,139,experiment,75,→,right,→,0.6215029000013601,True,35,1
158K23S2,140,experiment,72,↑,up,↑,0.7481861000123899,True,35,1
158K23S2,141,experiment,66,←,left,←,0.6399477999948431,True,35,1
158K23S2,142,experiment,51,↑,up,↑,0.9090661999944132,True,35,1
158K23S2,143,experiment,78,←,left,←,0.8223862000158988,True,35,1
158K23S2,144,experiment,99,↓,down,↓,0.724095599987777,True,35,1
158K23S2,145,experiment,107,←,left,←,0.6910510000016075,True,35,1
158K23S2,146,experiment,63,↑,up,↑,0.810310800006846,True,35,1
158K23S2,147,experiment,89,↓,down,↓,0.7877635000040755,True,35,1
158K23S2,148,experiment,74,←,left,←,0.5793759000080172,True,35,1
158K23S2,149,experiment,55,→,right,→,0.8412132999801543,True,35,1
158K23S2,150,experiment,50,↑,up,↑,0.7825738999817986,True,35,1
158K23S2,151,experiment,103,↓,down,↓,0.6848849000234623,True,35,1
158K23S2,152,experiment,76,→,right,→,0.6477155000029597,True,35,1
158K23S2,153,experiment,82,↓,down,↓,0.6420394999731798,True,35,1
158K23S2,154,experiment,70,←,left,←,0.6888093000161462,True,35,1
158K23S2,155,experiment,100,↓,down,↓,0.6754674999974668,True,35,1
158K23S2,156,experiment,108,↓,down,↓,0.5641141999803949,True,35,1
158K23S2,157,experiment,77,↑,up,↑,0.5875689999957103,True,35,1
158K23S2,158,experiment,68,←,left,←,0.5972992999886628,True,35,1
158K23S2,159,experiment,73,←,left,←,0.6286565999907907,True,35,1
158K23S2,160,experiment,60,↑,up,↑,0.5754096000164282,True,35,1
158K23S2,161,experiment,94,↓,down,↓,1.1449162999924738,True,35,1
158K23S2,162,experiment,81,→,right,→,0.6558189000061247,True,35,1
158K23S2,163,experiment,48,←,left,←,0.6531321999791544,True,35,1
158K23S2,164,experiment,65,←,left,←,0.5092782000137959,True,35,1
158K23S2,165,experiment,90,↑,up,↑,0.602700499992352,True,35,1
158K23S2,166,experiment,93,→,right,→,0.5553653000097256,True,35,1
158K23S2,167,training,95,↓,down,↓,0.539474599994719,True,34,0
158K23S2,168,training,66,←,left,←,0.7272344000230078,True,34,1
158K23S2,169,experiment,52,→,right,→,0.6966553999809548,True,34,1
158K23S2,170,experiment,56,→,right,→,0.842050700011896,True,34,1
158K23S2,171,experiment,97,↑,up,↑,0.6797491999750491,True,34,1
158K23S2,172,experiment,57,←,left,←,0.7291983000177424,True,34,1
158K23S2,173,experiment,71,↑,up,↑,0.6038368000008631,True,34,1
158K23S2,174,experiment,61,↑,up,↑,0.7992815999896266,True,34,1
158K23S2,175,experiment,94,↑,up,↑,0.7996197000029497,True,34,1
158K23S2,176,experiment,54,←,left,←,0.8613120999943931,True,34,1
158K23S2,177,experiment,69,↓,down,↓,0.731679599994095,True,34,1
158K23S2,178,experiment,95,←,left,←,0.8063979999860749,True,34,1
158K23S2,179,experiment,101,↓,down,↓,0.652023000002373,True,34,1
158K23S2,180,experiment,84,→,right,→,0.5899926999991294,True,34,1
158K23S2,181,experiment,51,↓,down,↓,0.6768723000132013,True,34,1
158K23S2,182,experiment,98,←,no_key,no_letter,-1.0,False,34,1
158K23S2,183,experiment,99,→,left,←,0.801512099977117,False,34,1
158K23S2,184,experiment,70,↓,down,↓,0.5617762000183575,True,34,1
158K23S2,185,experiment,74,↑,up,↑,0.5624959000269882,True,34,1
158K23S2,186,experiment,104,←,left,←,0.60883310000645,True,34,1
158K23S2,187,experiment,96,↓,down,↓,0.6802545000100508,True,34,1
158K23S2,188,experiment,91,↓,down,↓,0.518280499993125,True,34,1
158K23S2,189,experiment,77,←,left,←,0.5036554000107571,True,34,1
158K23S2,190,experiment,73,↑,up,↑,0.5950607999984641,True,34,1
158K23S2,191,experiment,108,↑,up,↑,0.5750763000105508,True,34,1
158K23S2,192,experiment,50,←,left,←,0.5192280999908689,True,34,1
158K23S2,193,experiment,62,↑,up,↑,0.5176008999987971,True,34,1
158K23S2,194,experiment,72,→,right,→,0.5130178999970667,True,34,1
158K23S2,195,experiment,92,→,right,→,0.605408700008411,True,34,1
158K23S2,196,experiment,60,↓,down,↓,0.584820399992168,True,34,1
158K23S2,197,experiment,78,↓,down,↓,0.6232070999976713,True,34,1
158K23S2,198,experiment,49,←,left,←,0.5576450000226032,True,34,1
158K23S2,199,experiment,81,←,left,←,0.4762210999906529,True,34,1
158K23S2,200,experiment,107,←,left,←,0.5250577999977395,True,34,1
158K23S2,201,experiment,90,↑,up,↑,0.6498990000109188,True,34,1
158K23S2,202,experiment,82,←,left,←,0.5561882999900263,True,34,1
158K23S2,203,experiment,100,←,left,←,0.533073799975682,True,34,1
158K23S2,204,experiment,59,↓,down,↓,0.5711071999976411,True,34,1
158K23S2,205,experiment,87,↓,down,↓,0.5190392000076827,True,34,1
158K23S2,206,experiment,86,↑,up,↑,0.5494238999963272,True,34,1
158K23S2,207,experiment,106,↑,up,↑,0.4758922999899369,True,34,1
158K23S2,208,experiment,76,←,left,←,0.45568750001257285,True,34,1
158K23S2,209,experiment,80,→,right,→,0.46626929999911226,True,34,1
158K23S2,210,experiment,68,→,right,→,0.568403200013563,True,34,1
158K23S2,211,experiment,103,↓,down,↓,0.5510614000086207,True,34,1
158K23S2,212,experiment,89,←,left,←,0.6671869999845512,True,34,1
158K23S2,213,experiment,48,↑,up,↑,0.560306400002446,True,34,1
158K23S2,214,experiment,65,↓,down,↓,0.5803019000159111,True,34,1
158K23S2,215,experiment,58,→,right,→,0.4893471999967005,True,34,1
158K23S2,216,experiment,64,↑,up,↑,0.5358583999914117,True,34,1
158K23S2,217,experiment,79,→,right,→,0.48790330000338145,True,34,1
158K23S2,218,experiment,88,←,left,←,0.5747047000040766,True,34,1
158K23S2,219,experiment,83,→,right,→,0.5077080999908503,True,34,1
158K23S2,220,experiment,75,←,left,←,0.454911999986507,True,34,1
158K23S2,221,experiment,105,→,right,→,0.8484466000227258,True,34,0
158K23S2,222,experiment,63,↓,down,↓,0.8251399000000674,True,34,1
158K23S2,223,experiment,102,↓,down,↓,0.821797400014475,True,34,1
158K23S2,224,experiment,93,↑,up,↑,0.6935006999992765,True,34,1
158K23S2,225,experiment,55,↓,down,↓,0.6153262000007089,True,34,1
158K23S2,226,experiment,85,↑,up,↑,0.617938100011088,True,34,1
158K23S2,227,experiment,67,←,left,←,0.52293809998082,True,34,1
158K23S2,228,experiment,66,←,left,←,0.5834370999946259,True,34,1
158K23S2,229,experiment,53,↓,down,↓,0.6542885999951977,True,34,1
158K23S2,230,training,57,↓,down,↓,0.605409600015264,True,33,0
158K23S2,231,training,85,↓,down,↓,0.7761934000009205,True,33,1
158K23S2,232,experiment,50,→,right,→,0.6802796999982093,True,33,1
158K23S2,233,experiment,63,←,left,←,0.6158364999864716,True,33,1
158K23S2,234,experiment,83,↑,up,↑,0.5473295999981929,True,33,1
158K23S2,235,experiment,86,←,left,←,0.6244069000240415,True,33,1
158K23S2,236,experiment,70,→,right,→,0.5995486000028905,True,33,1
158K23S2,237,experiment,89,→,right,→,0.5615952000080142,True,33,1
158K23S2,238,experiment,96,→,right,→,0.5309626999951433,True,33,1
158K23S2,239,experiment,52,↓,down,↓,0.6281835999980103,True,33,1
158K23S2,240,experiment,73,↓,down,↓,0.6025146000029054,True,33,1
158K23S2,241,experiment,56,←,left,←,0.7035570000007283,True,33,1
158K23S2,242,experiment,82,↑,up,↑,0.7119130000064615,True,33,1
158K23S2,243,experiment,65,←,right,→,0.7496420000097714,False,33,1
158K23S2,244,experiment,69,→,right,→,0.5763818999985233,True,33,1
158K23S2,245,experiment,100,→,right,→,0.511731200007489,True,33,1
158K23S2,246,experiment,59,↑,up,↑,0.7275055999925826,True,33,1
158K23S2,247,experiment,101,↓,down,↓,0.4965082000126131,True,33,1
158K23S2,248,experiment,49,↓,down,↓,0.8683737000101246,True,33,1
158K23S2,249,experiment,99,←,left,←,1.1044350999873132,True,33,1
158K23S2,250,experiment,68,→,right,→,0.7649433000187855,True,33,1
158K23S2,251,experiment,71,→,right,→,0.814285700005712,True,33,1
158K23S2,252,experiment,61,→,right,→,0.6650598999985959,True,33,1
158K23S2,253,experiment,48,←,left,←,0.7101216999872122,True,33,1
158K23S2,254,experiment,88,↑,up,↑,0.6843534000217915,True,33,1
158K23S2,255,experiment,91,←,left,←,0.882141700014472,True,33,1
158K23S2,256,experiment,90,←,left,←,0.5925370000186376,True,33,1
158K23S2,257,experiment,76,↑,up,↑,0.6393391999881715,True,33,1
158K23S2,258,experiment,51,↑,up,↑,0.7083845000015572,True,33,1
158K23S2,259,experiment,106,↓,down,↓,0.6603670999757014,True,33,1
158K23S2,260,experiment,98,↑,up,↑,0.6731788000033703,True,33,1
158K23S2,261,experiment,85,↓,down,↓,0.801391999993939,True,33,1
158K23S2,262,experiment,58,↓,down,↓,0.853781199984951,True,33,1
158K23S2,263,experiment,95,→,right,→,0.7878941000089981,True,33,1
158K23S2,264,experiment,60,↓,down,↓,0.623816999985138,True,33,1
158K23S2,265,experiment,77,→,right,→,0.7569852000160608,True,33,1
158K23S2,266,experiment,57,↓,down,↓,0.5712880000064615,True,33,1
158K23S2,267,experiment,105,↑,up,↑,0.6889789999986533,True,33,1
158K23S2,268,experiment,55,↑,up,↑,0.6747546999831684,True,33,1
158K23S2,269,experiment,66,↓,up,↑,1.489435700001195,False,33,1
158K23S2,270,experiment,72,←,left,←,0.7176418000017293,True,33,1
158K23S2,271,experiment,80,↓,down,↓,0.6537559000134934,True,33,1
158K23S2,272,experiment,67,←,left,←,0.6772447999974247,True,33,1
158K23S2,273,experiment,54,↓,down,↓,0.6318960000062361,True,33,1
158K23S2,274,experiment,74,←,left,←,0.5337459000002127,True,33,1
158K23S2,275,experiment,64,↓,down,↓,0.570673899987014,True,33,1
158K23S2,276,experiment,92,↑,up,↑,0.6847307999851182,True,33,1
158K23S2,277,experiment,107,→,right,→,0.6215041999821551,True,33,1
158K23S2,278,experiment,93,↓,down,↓,0.6451531999919098,True,33,1
158K23S2,279,experiment,81,↓,down,↓,0.7122185000043828,True,33,1
158K23S2,280,experiment,84,↑,up,↑,0.7275638000282925,True,33,1
158K23S2,281,experiment,103,→,right,→,0.6636210000142455,True,33,1
158K23S2,282,experiment,53,←,left,←,0.8830465000064578,True,33,1
158K23S2,283,experiment,108,→,right,→,0.7152232999796979,True,33,1
158K23S2,284,experiment,78,→,right,→,0.8363681999908295,True,33,1
158K23S2,285,experiment,94,←,left,←,0.8996714999957476,True,33,1
158K23S2,286,experiment,97,↓,down,↓,0.8146207999961916,True,33,1
158K23S2,287,experiment,62,→,right,→,0.8491261999879498,True,33,1
158K23S2,288,experiment,79,↓,down,↓,0.6683787999791093,True,33,1
158K23S2,289,experiment,102,←,left,←,0.7593943999963813,True,33,1
158K23S2,290,experiment,75,↑,up,↑,0.7758383000036702,True,33,1
158K23S2,291,experiment,104,←,left,←,0.6777952999982517,True,33,1
158K23S2,292,experiment,87,→,right,→,0.9094984999974258,True,33,1
158K23S2,293,training,62,←,left,←,0.5413380000100005,True,32,0
158K23S2,294,training,79,↑,up,↑,0.7250376000010874,True,32,1
158K23S2,295,experiment,104,↑,up,↑,0.6849662000022363,True,32,1
158K23S2,296,experiment,62,↑,up,↑,0.756754500005627,True,32,1
158K23S2,297,experiment,107,↑,up,↑,0.7866936999780592,True,32,1
158K23S2,298,experiment,75,→,right,→,0.7537476000143215,True,32,1
158K23S2,299,experiment,73,←,left,←,0.7953173000132665,True,32,1
158K23S2,300,experiment,96,←,left,←,0.7151336999959312,True,32,1
158K23S2,301,experiment,95,←,left,←,0.7344630000006873,True,32,1
158K23S2,302,experiment,98,↑,up,↑,0.7201709999935701,True,32,1
158K23S2,303,experiment,88,←,left,←,0.6940070000127889,True,32,1
158K23S2,304,experiment,71,↑,up,↑,0.6743610999837983,True,32,1
158K23S2,305,experiment,54,↑,up,↑,0.7409807000076398,True,32,1
158K23S2,306,experiment,61,↓,down,↓,0.6908380000095349,True,32,1
158K23S2,307,experiment,55,←,left,←,0.7005038999777753,True,32,1
158K23S2,308,experiment,57,↓,down,↓,0.8052144999965094,True,32,1
158K23S2,309,experiment,81,←,left,←,0.6495184999948833,True,32,1
158K23S2,310,experiment,67,↑,up,↑,0.7050789000059012,True,32,1
158K23S2,311,experiment,91,↑,up,↑,0.6219990000245161,True,32,1
158K23S2,312,experiment,53,↓,down,↓,0.9951300999964587,True,32,1
158K23S2,313,experiment,83,↓,down,↓,0.6074516999942716,True,32,1
158K23S2,314,experiment,108,→,right,→,0.5949098000128288,True,32,1
158K23S2,315,experiment,76,↑,up,↑,0.5774629999941681,True,32,1
158K23S2,316,experiment,72,↑,up,↑,0.5221442999900319,True,32,1
158K23S2,317,experiment,74,→,right,→,0.5003493999829516,True,32,1
158K23S2,318,experiment,105,←,left,←,0.47698889998719096,True,32,1
158K23S2,319,experiment,99,→,right,→,0.5048762999940664,True,32,1
158K23S2,320,experiment,52,↑,up,↑,0.6508053000143263,True,32,1
158K23S2,321,experiment,92,↑,up,↑,0.5460508000105619,True,32,1
158K23S2,322,experiment,60,→,right,→,0.6401038999902084,True,32,1
158K23S2,323,experiment,94,←,left,←,0.5746474000043236,True,32,1
158K23S2,324,experiment,87,↓,down,↓,0.6583897999953479,True,32,1
158K23S2,325,experiment,90,→,right,→,0.5697518000088166,True,32,1
158K23S2,326,experiment,78,↓,down,↓,0.6007997999840882,True,32,1
158K23S2,327,experiment,59,←,left,←,0.596911899978295,True,32,1
158K23S2,328,experiment,64,↓,down,↓,0.5353147000132594,True,32,1
158K23S2,329,experiment,100,→,right,→,0.5845429000037257,True,32,1
158K23S2,330,experiment,101,←,left,←,0.5590068000019528,True,32,1
158K23S2,331,experiment,68,↑,up,↑,0.6018222999991849,True,32,1
158K23S2,332,experiment,66,→,right,→,0.5634855999960564,True,32,1
158K23S2,333,experiment,93,←,left,←,0.565596700005699,True,32,1
158K23S2,334,experiment,77,↑,up,↑,0.5089716000074986,True,32,1
158K23S2,335,experiment,89,→,right,→,0.5626808000088204,True,32,1
158K23S2,336,experiment,97,↓,down,↓,0.5153798999963328,True,32,1
158K23S2,337,experiment,49,→,right,→,0.6301477000233717,True,32,1
158K23S2,338,experiment,103,→,right,→,0.5541776999889407,True,32,1
158K23S2,339,experiment,69,↑,up,↑,0.780579599988414,True,32,1
158K23S2,340,experiment,58,→,right,→,0.5376681999769062,True,32,1
158K23S2,341,experiment,82,↑,up,↑,0.6084818999806885,True,32,1
158K23S2,342,experiment,51,→,right,→,0.5910693000187166,True,32,1
158K23S2,343,experiment,85,→,right,→,0.5866084999870509,True,32,1
158K23S2,344,experiment,106,←,left,←,0.9116072000178974,True,32,1
158K23S2,345,experiment,102,↓,down,↓,0.6408340999914799,True,32,1
158K23S2,346,experiment,50,↓,down,↓,0.8142820000066422,True,32,1
158K23S2,347,experiment,80,→,right,→,0.7066245000169147,True,32,1
158K23S2,348,experiment,84,↓,down,↓,0.7459788999985904,True,32,1
158K23S2,349,experiment,56,↑,up,↑,1.5690805000194814,True,32,1
158K23S2,350,experiment,63,↓,down,↓,0.525075299985474,True,32,1
158K23S2,351,experiment,70,→,right,→,0.6243979000137188,True,32,1
158K23S2,352,experiment,79,↓,down,↓,0.5248281999956816,True,32,1
158K23S2,353,experiment,86,→,right,→,0.6348596999887377,True,32,1
158K23S2,354,experiment,65,←,left,←,0.5716521999856923,True,32,1
158K23S2,355,experiment,48,←,left,←,0.5487466999911703,True,32,1
158K23S2,356,training,102,↓,down,↓,0.579735500010429,True,31,0
158K23S2,357,training,71,↓,down,↓,0.6045846000197344,True,31,1
158K23S2,358,experiment,51,↑,up,↑,0.6350570000067819,True,31,1
158K23S2,359,experiment,53,←,left,←,0.6397599000192713,True,31,1
158K23S2,360,experiment,60,←,left,←,0.5778982999909203,True,31,1
158K23S2,361,experiment,50,→,right,→,0.5779172999900766,True,31,1
158K23S2,362,experiment,81,↓,down,↓,0.671640100015793,True,31,1
158K23S2,363,experiment,101,↓,down,↓,0.5389891999948304,True,31,1
158K23S2,364,experiment,88,↓,down,↓,0.5917401000042446,True,31,1
158K23S2,365,experiment,58,←,left,←,0.6285675999824889,True,31,1
158K23S2,366,experiment,89,→,right,→,0.5975089999847114,True,31,1
158K23S2,367,experiment,68,←,left,←,0.6066023999883328,True,31,1
158K23S2,368,experiment,107,→,right,→,0.6826422000012826,True,31,1
158K23S2,369,experiment,91,↓,down,↓,0.6323271000001114,True,31,1
158K23S2,370,experiment,108,↑,up,↑,0.6186569000128657,True,31,1
158K23S2,371,experiment,83,→,right,→,0.5900241000053938,True,31,1
158K23S2,372,experiment,103,→,right,→,0.5638308000052348,True,31,1
158K23S2,373,experiment,69,↑,up,↑,0.6057953999843448,True,31,1
158K23S2,374,experiment,71,↓,down,↓,0.525527299992973,True,31,1
158K23S2,375,experiment,93,←,left,←,0.537214000010863,True,31,1
158K23S2,376,experiment,85,←,left,←,0.6633127999957651,True,31,1
158K23S2,377,experiment,49,↑,up,↑,1.348181499983184,True,31,1
158K23S2,378,experiment,77,↓,down,↓,0.5640465999895241,True,31,1
158K23S2,379,experiment,82,→,right,→,0.7138594999851193,True,31,1
158K23S2,380,experiment,48,↑,up,↑,0.6448245999927167,True,31,1
158K23S2,381,experiment,74,↓,down,↓,0.5061997000011615,True,31,1
158K23S2,382,experiment,92,↓,down,↓,0.47892169997794554,True,31,1
158K23S2,383,experiment,72,←,left,←,0.4917161000194028,True,31,1
158K23S2,384,experiment,84,←,left,←,0.4837188999808859,True,31,1
158K23S2,385,experiment,86,↑,up,↑,1.0914593000197783,True,31,1
158K23S2,386,experiment,57,↓,down,↓,0.5725880000100005,True,31,1
158K23S2,387,experiment,78,→,right,→,0.5872245999926236,True,31,1
158K23S2,388,experiment,64,↓,down,↓,0.5663392999849748,True,31,1
158K23S2,389,experiment,70,←,left,←,0.5840367999917362,True,31,1
158K23S2,390,experiment,94,↓,down,↓,0.6330727000022307,True,31,1
158K23S2,391,experiment,102,→,right,→,0.5014551999920513,True,31,1
158K23S2,392,experiment,100,←,left,←,0.4958558000216726,True,31,1
158K23S2,393,experiment,76,↑,up,↑,0.4822526999923866,True,31,1
158K23S2,394,experiment,62,→,right,→,0.6260392999975011,True,31,1
158K23S2,395,experiment,99,↑,up,↑,0.4877915999968536,True,31,1
158K23S2,396,experiment,54,↓,down,↓,0.5697710000094958,True,31,1
158K23S2,397,experiment,59,←,left,←,0.5752230000216514,True,31,1
158K23S2,398,experiment,55,↓,down,↓,0.5816229000047315,True,31,1
158K23S2,399,experiment,104,↓,down,↓,0.5473710999940522,True,31,1
158K23S2,400,experiment,56,→,right,→,0.6104281999869272,True,31,1
158K23S2,401,experiment,95,→,right,→,0.5541581000143196,True,31,1
158K23S2,402,experiment,105,→,left,←,0.6888169999874663,False,31,1
158K23S2,403,experiment,61,→,right,→,0.5045785999973305,True,31,1
158K23S2,404,experiment,90,←,left,←,0.5339845000125933,True,31,1
158K23S2,405,experiment,75,←,left,←,0.5593208000063896,True,31,1
158K23S2,406,experiment,52,→,right,→,0.6074765000084881,True,31,1
158K23S2,407,experiment,65,↓,down,↓,0.5692961000022478,True,31,1
158K23S2,408,experiment,98,↓,down,↓,0.5615452000056393,True,31,1
158K23S2,409,experiment,63,↓,down,↓,0.5579971999977715,True,31,1
158K23S2,410,experiment,66,→,right,→,0.6415886000031605,True,31,1
158K23S2,411,experiment,97,←,left,←,0.5911057000048459,True,31,1
158K23S2,412,experiment,79,→,right,→,0.6928265999886207,True,31,1
158K23S2,413,experiment,67,→,right,→,0.5705363999877591,True,31,1
158K23S2,414,experiment,106,→,right,→,0.472244899981888,True,31,1
158K23S2,415,experiment,73,→,right,→,0.4927880999748595,True,31,1
158K23S2,416,experiment,80,↑,up,↑,0.5741129999805707,True,31,1
158K23S2,417,experiment,96,↑,up,↑,0.5027842999843415,True,31,1
158K23S2,418,experiment,87,↑,no_key,no_letter,-1.0,False,31,1
158K23S2,419,training,101,←,left,←,0.46751170000061393,True,30,0
158K23S2,420,training,108,↓,down,↓,0.5487672000017483,True,30,1
158K23S2,421,experiment,91,↑,up,↑,0.5359684999857564,True,30,1
158K23S2,422,experiment,95,↓,down,↓,0.4907486999873072,True,30,1
158K23S2,423,experiment,55,←,left,←,0.5084425999957602,True,30,1
158K23S2,424,experiment,73,→,right,→,0.5355482999875676,True,30,1
158K23S2,425,experiment,65,→,left,←,1.1162197999947239,False,30,1
158K23S2,426,experiment,79,←,left,←,0.46886090000043623,True,30,1
158K23S2,427,experiment,53,↓,down,↓,0.5603354999911971,True,30,1
158K23S2,428,experiment,78,↓,down,↓,0.44774500001221895,True,30,1
158K23S2,429,experiment,59,↓,down,↓,0.4818187000055332,True,30,1
158K23S2,430,experiment,60,↑,up,↑,0.5462501000147313,True,30,1
158K23S2,431,experiment,62,↓,down,↓,0.6233168999897316,True,30,1
158K23S2,432,experiment,51,↑,up,↑,0.5891322999959812,True,30,1
158K23S2,433,experiment,83,→,right,→,1.1614698999910615,True,30,1
158K23S2,434,experiment,56,↓,down,↓,0.5362251000187825,True,30,1
158K23S2,435,experiment,93,↑,up,↑,0.5879506999917794,True,30,1
158K23S2,436,experiment,74,→,right,→,0.6352453999861609,True,30,1
158K23S2,437,experiment,49,↑,up,↑,0.5370841000112705,True,30,1
158K23S2,438,experiment,90,↑,up,↑,0.5174562000029255,True,30,1
158K23S2,439,experiment,89,↓,down,↓,0.5707812999899033,True,30,1
158K23S2,440,experiment,108,←,left,←,0.839461699972162,True,30,1
158K23S2,441,experiment,75,←,left,←,0.46872020000591874,True,30,1
158K23S2,442,experiment,107,↓,down,↓,0.5099705999891739,True,30,1
158K23S2,443,experiment,100,→,right,→,0.5039943999727257,True,30,1
158K23S2,444,experiment,70,→,right,→,0.4924033999850508,True,30,1
158K23S2,445,experiment,67,←,left,←,0.5621152999810874,True,30,1
158K23S2,446,experiment,105,→,right,→,0.744459099980304,True,30,1
158K23S2,447,experiment,66,→,right,→,0.5325667000142857,True,30,1
158K23S2,448,experiment,52,↓,down,↓,0.5656989999988582,True,30,1
158K23S2,449,experiment,103,→,right,→,0.5485891999851447,True,30,1
158K23S2,450,experiment,72,↑,up,↑,0.5100882000115234,True,30,1
158K23S2,451,experiment,97,↑,up,↑,0.49713790000532754,True,30,1
158K23S2,452,experiment,81,↑,up,↑,0.48985610000090674,True,30,1
158K23S2,453,experiment,87,↓,up,↑,1.5129478000162635,False,30,1
158K23S2,454,experiment,98,↓,down,↓,0.5874494000163395,True,30,1
158K23S2,455,experiment,82,↓,down,↓,0.44862760000978597,True,30,1
158K23S2,456,experiment,99,↑,up,↑,0.5734853000030853,True,30,1
158K23S2,457,experiment,71,←,left,←,0.6064380999887362,True,30,1
158K23S2,458,experiment,96,→,up,↑,1.7576635000004899,False,30,1
158K23S2,459,experiment,63,↑,up,↑,0.458010899979854,True,30,1
158K23S2,460,experiment,94,↑,up,↑,0.552131799980998,True,30,1
158K23S2,461,experiment,64,→,right,→,0.6924548000097275,True,30,1
158K23S2,462,experiment,84,↓,left,←,1.3084282999916468,False,30,1
158K23S2,463,experiment,102,↓,down,↓,0.5497692000062671,True,30,1
158K23S2,464,experiment,61,←,left,←,0.6513087000057567,True,30,1
158K23S2,465,experiment,104,↑,up,↑,0.5102195999934338,True,30,1
158K23S2,466,experiment,48,→,left,←,1.1055916999757756,False,30,1
158K23S2,467,experiment,57,↑,no_key,no_letter,-1.0,False,30,1
158K23S2,468,experiment,80,→,right,→,0.7701401000085752,True,30,1
158K23S2,469,experiment,54,→,right,→,0.4571636999899056,True,30,1
158K23S2,470,experiment,101,←,left,←,0.5157082000223454,True,30,1
158K23S2,471,experiment,76,→,right,→,0.7412881000200287,True,30,1
158K23S2,472,experiment,86,↑,up,↑,0.4666195999889169,True,30,1
158K23S2,473,experiment,92,←,left,←,0.472986899985699,True,30,1
158K23S2,474,experiment,106,→,right,→,0.5145677000109572,True,30,1
158K23S2,475,experiment,69,→,right,→,0.46253399999113753,True,30,1
158K23S2,476,experiment,50,←,left,←,0.4909478999907151,True,30,1
158K23S2,477,experiment,88,↑,up,↑,0.48178649999317713,True,30,1
158K23S2,478,experiment,85,←,left,←,0.5537775999982841,True,30,1
158K23S2,479,experiment,68,↓,down,↓,0.8611268000095151,True,30,1
158K23S2,480,experiment,58,↓,down,↓,0.6068951000052039,True,30,1
158K23S2,481,experiment,77,→,left,←,1.164652000006754,False,30,1
158K23S2,482,training,48,↑,up,↑,0.8340403000183869,True,30,0
158K23S2,483,training,66,→,right,→,0.5060859999794047,True,30,1
158K23S2,484,experiment,96,→,right,→,0.4456568000023253,True,30,1
158K23S2,485,experiment,49,↑,up,↑,0.5629965999978594,True,30,1
158K23S2,486,experiment,51,→,right,→,0.4750317999860272,True,30,1
158K23S2,487,experiment,52,←,left,←,0.46262140001636,True,30,1
158K23S2,488,experiment,53,↓,down,↓,0.5059326000045985,True,30,1
158K23S2,489,experiment,50,→,right,→,0.460730600025272,True,30,1
158K23S2,490,experiment,87,→,right,→,0.5011365000100341,True,30,1
158K23S2,491,experiment,81,↑,up,↑,0.5178511000121944,True,30,1
158K23S2,492,experiment,78,↓,down,↓,0.6069455000106245,True,30,1
158K23S2,493,experiment,99,↓,down,↓,0.5094601000018883,True,30,1
158K23S2,494,experiment,48,→,right,→,0.48897459998261184,True,30,1
158K23S2,495,experiment,97,↓,down,↓,0.49241050001000986,True,30,1
158K23S2,496,experiment,55,→,right,→,0.6303891999996267,True,30,1
158K23S2,497,experiment,98,→,right,→,0.46791719997418113,True,30,1
158K23S2,498,experiment,102,↓,down,↓,0.5110965000058059,True,30,1
158K23S2,499,experiment,68,↓,down,↓,0.44382149999728426,True,30,1
158K23S2,500,experiment,104,↑,down,↓,0.8310666999896057,False,30,1
158K23S2,501,experiment,106,→,right,→,0.6982699999934994,True,30,1
158K23S2,502,experiment,93,↓,down,↓,0.5349551000108477,True,30,1
158K23S2,503,experiment,64,←,left,←,0.6126039999944624,True,30,1
158K23S2,504,experiment,88,→,right,→,0.4619150000216905,True,30,1
158K23S2,505,experiment,86,↓,down,↓,0.5346046999911778,True,30,1
158K23S2,506,experiment,59,←,left,←,0.4693873999931384,True,30,1
158K23S2,507,experiment,89,→,right,→,1.5889566999976523,True,30,1
158K23S2,508,experiment,69,→,right,→,0.4536921000108123,True,30,1
158K23S2,509,experiment,100,↑,up,↑,0.6017581000050995,True,30,1
158K23S2,510,experiment,62,↓,down,↓,0.5408356999978423,True,30,1
158K23S2,511,experiment,80,→,right,→,0.49222919999738224,True,30,1
158K23S2,512,experiment,56,←,left,←,0.5416212000127416,True,30,1
158K23S2,513,experiment,95,↓,down,↓,0.5200630000035744,True,30,1
158K23S2,514,experiment,57,↓,down,↓,0.5361590999818873,True,30,1
158K23S2,515,experiment,91,→,right,→,0.5722182000172324,True,30,1
158K23S2,516,experiment,90,←,left,←,0.5269609999959357,True,30,1
158K23S2,517,experiment,66,←,left,←,0.5476502999954391,True,30,1
158K23S2,518,experiment,70,↓,down,↓,0.5180893999931868,True,30,1
158K23S2,519,experiment,71,→,right,→,0.5374803000013344,True,30,1
158K23S2,520,experiment,73,→,right,→,1.1642772000050172,True,30,1
158K23S2,521,experiment,58,↑,up,↑,0.5772843000013381,True,30,1
158K23S2,522,experiment,92,←,left,←,0.4752726999868173,True,30,1
158K23S2,523,experiment,83,→,right,→,0.644318500009831,True,30,1
158K23S2,524,experiment,61,↑,up,↑,0.5020976999949198,True,30,1
158K23S2,525,experiment,72,↑,up,↑,0.49797230001422577,True,30,1
158K23S2,526,experiment,75,↓,down,↓,0.6287505999789573,True,30,1
158K23S2,527,experiment,65,↑,up,↑,0.42224449999048375,True,30,1
158K23S2,528,experiment,67,↑,up,↑,0.4304102000023704,True,30,0
158K23S2,529,experiment,105,↓,down,↓,0.609473499993328,True,30,1
158K23S2,530,experiment,85,↑,up,↑,0.5485109000001103,True,30,1
158K23S2,531,experiment,63,↑,right,→,1.5774859999946784,False,30,1
158K23S2,532,experiment,60,←,left,←,0.541853100003209,True,30,1
158K23S2,533,experiment,101,→,right,→,0.48624019999988377,True,30,1
158K23S2,534,experiment,77,↑,up,↑,0.48901370001840405,True,30,1
158K23S2,535,experiment,107,↓,down,↓,0.5216244999901392,True,30,1
158K23S2,536,experiment,84,↑,up,↑,0.4880776999925729,True,30,1
158K23S2,537,experiment,82,↓,up,↑,0.7688519999792334,False,30,1
158K23S2,538,experiment,76,→,right,→,0.6175581999996211,True,30,1
158K23S2,539,experiment,94,←,left,←,0.49624830001266673,True,30,1
158K23S2,540,experiment,54,←,left,←,0.5144000000145752,True,30,1
158K23S2,541,experiment,79,←,left,←,0.4832348999916576,True,30,1
158K23S2,542,experiment,74,←,left,←,0.46282839999184944,True,30,1
158K23S2,543,experiment,103,↑,up,↑,0.4655215999810025,True,30,1
158K23S2,544,experiment,108,→,right,→,0.5625330000184476,True,30,1
158K23S2,545,training,84,↓,down,↓,0.5407924999890383,True,29,0
158K23S2,546,training,64,→,right,→,0.6253333000058774,True,29,1
158K23S2,547,experiment,56,→,right,→,0.5173777999880258,True,29,1
158K23S2,548,experiment,49,←,left,←,0.48056689999066293,True,29,1
158K23S2,549,experiment,96,↑,up,↑,0.4685262000130024,True,29,1
158K23S2,550,experiment,107,↓,down,↓,0.5501471000025049,True,29,1
158K23S2,551,experiment,50,←,left,←,0.5269731000007596,True,29,1
158K23S2,552,experiment,65,↓,down,↓,0.4921076000027824,True,29,1
158K23S2,553,experiment,76,↑,up,↑,0.598900799988769,True,29,1
158K23S2,554,experiment,70,→,right,→,0.4792301000270527,True,29,1
158K23S2,555,experiment,103,↑,up,↑,0.5292876999883447,True,29,1
158K23S2,556,experiment,57,→,right,→,0.4887927999952808,True,29,1
158K23S2,557,experiment,88,←,left,←,0.4954505999921821,True,29,1
158K23S2,558,experiment,74,←,left,←,0.5068944999948144,True,29,1
158K23S2,559,experiment,106,↑,up,↑,0.5229063000006136,True,29,1
158K23S2,560,experiment,83,→,right,→,0.561981700011529,True,29,1
158K23S2,561,experiment,55,↑,up,↑,0.5210415999754332,True,29,1
158K23S2,562,experiment,67,→,right,→,0.5174564000044484,True,29,1
158K23S2,563,experiment,99,→,right,→,0.4475457000080496,True,29,1
158K23S2,564,experiment,87,↑,up,↑,0.4562491999822669,True,29,1
158K23S2,565,experiment,68,↑,up,↑,0.5032171999919228,True,29,1
158K23S2,566,experiment,98,↓,down,↓,0.5860495000088122,True,29,1
158K23S2,567,experiment,75,→,right,→,0.5054768999980297,True,29,1
158K23S2,568,experiment,82,←,left,←,0.5135774000082165,True,29,1
158K23S2,569,experiment,97,↓,up,↑,1.2042249999940395,False,29,1
158K23S2,570,experiment,81,←,left,←,0.5445140000083484,True,29,1
158K23S2,571,experiment,80,↑,up,↑,0.5599328999815043,True,29,1
158K23S2,572,experiment,105,↑,up,↑,0.4942844999895897,True,29,1
158K23S2,573,experiment,91,←,left,←,0.5559792999993078,True,29,1
158K23S2,574,experiment,62,→,right,→,0.5047727999917697,True,29,1
158K23S2,575,experiment,95,←,left,←,0.4764800999837462,True,29,1
158K23S2,576,experiment,69,↑,up,↑,0.5062268000037875,True,29,1
158K23S2,577,experiment,53,↓,down,↓,0.5640461000148207,True,29,1
158K23S2,578,experiment,90,←,left,←,0.4710824999783654,True,29,1
158K23S2,579,experiment,102,→,right,→,0.7857583000150044,True,29,1
158K23S2,580,experiment,61,→,left,←,1.005864200007636,False,29,1
158K23S2,581,experiment,66,→,left,←,0.799161799979629,False,29,1
158K23S2,582,experiment,89,↑,up,↑,0.4333240000123624,True,29,1
158K23S2,583,experiment,48,↓,down,↓,0.5597115000127815,True,29,1
158K23S2,584,experiment,54,↑,up,↑,0.5190990999981295,True,29,1
158K23S2,585,experiment,64,→,right,→,0.5808370999875478,True,29,1
158K23S2,586,experiment,71,↓,down,↓,1.7335477999877185,True,29,1
158K23S2,587,experiment,59,←,left,←,0.5321894999942742,True,29,1
158K23S2,588,experiment,73,↑,up,↑,0.5901851000089664,True,29,1
158K23S2,589,experiment,108,↓,down,↓,0.5223095999972429,True,29,1
158K23S2,590,experiment,85,→,right,→,0.5446152000222355,True,29,1
158K23S2,591,experiment,52,↓,down,↓,0.5053650999907404,True,29,1
158K23S2,592,experiment,72,→,right,→,0.4688573000021279,True,29,1
158K23S2,593,experiment,79,↑,up,↑,0.6235394999966957,True,29,1
158K23S2,594,experiment,92,→,right,→,0.49570510000921786,True,29,1
158K23S2,595,experiment,51,↑,up,↑,0.6027487000101246,True,29,1
158K23S2,596,experiment,101,↓,down,↓,0.664699599990854,True,29,1
158K23S2,597,experiment,77,↓,down,↓,0.5802642999915406,True,29,1
158K23S2,598,experiment,84,→,right,→,0.5764986000140198,True,29,1
158K23S2,599,experiment,60,→,right,→,0.47729040001286194,True,29,1
158K23S2,600,experiment,63,←,left,←,0.5329982999828644,True,29,1
158K23S2,601,experiment,94,↑,up,↑,0.4960762999835424,True,29,1
158K23S2,602,experiment,100,↓,down,↓,0.9064433999883477,True,29,1
158K23S2,603,experiment,78,↑,up,↑,0.6038816999935079,True,29,1
158K23S2,604,experiment,86,↑,up,↑,0.5749571000051219,True,29,1
158K23S2,605,experiment,93,←,left,←,0.5925442999869119,True,29,1
158K23S2,606,experiment,104,→,right,→,0.4939213000179734,True,29,1
158K23S2,607,experiment,58,→,right,→,0.4786988999985624,True,29,1
158K23S2,608,training,64,→,right,→,0.517585900000995,True,28,0
158K23S2,609,training,48,→,right,→,0.44069930000114255,True,28,1
158K23S2,610,experiment,81,←,left,←,0.5077036000147928,True,28,1
158K23S2,611,experiment,84,↓,down,↓,0.5472118000034243,True,28,1
158K23S2,612,experiment,54,↑,down,↓,0.6828337000042666,False,28,1
158K23S2,613,experiment,72,↑,up,↑,0.4953037000086624,True,28,1
158K23S2,614,experiment,80,↑,up,↑,0.5206247000023723,True,28,1
158K23S2,615,experiment,101,↑,up,↑,0.5221145999967121,True,28,1
158K23S2,616,experiment,67,↓,down,↓,0.5504419000062626,True,28,1
158K23S2,617,experiment,90,←,left,←,0.6661431000102311,True,28,1
158K23S2,618,experiment,65,↓,down,↓,0.47362380000413395,True,28,1
158K23S2,619,experiment,50,↑,up,↑,0.5097213999833912,True,28,1
158K23S2,620,experiment,105,↑,up,↑,0.510088100010762,True,28,1
158K23S2,621,experiment,102,↓,down,↓,0.567476500000339,True,28,1
158K23S2,622,experiment,76,←,left,←,1.295254800003022,True,28,1
158K23S2,623,experiment,52,↑,up,↑,0.5541072000050917,True,28,1
158K23S2,624,experiment,55,←,left,←,0.5292534000182059,True,28,1
158K23S2,625,experiment,49,↑,up,↑,0.5713417000079062,True,28,1
158K23S2,626,experiment,86,→,right,→,0.48763899999903515,True,28,1
158K23S2,627,experiment,60,←,left,←,0.5035215000098106,True,28,1
158K23S2,628,experiment,95,←,left,←,0.5155312000133563,True,28,1
158K23S2,629,experiment,91,↓,down,↓,0.6643211000191513,True,28,1
158K23S2,630,experiment,85,↑,up,↑,0.521000400010962,True,28,1
158K23S2,631,experiment,83,↑,up,↑,0.48836809999193065,True,28,1
158K23S2,632,experiment,57,↑,up,↑,0.5455173999944236,True,28,1
158K23S2,633,experiment,97,↓,down,↓,0.6031606000033207,True,28,1
158K23S2,634,experiment,77,→,right,→,0.5132659000228159,True,28,1
158K23S2,635,experiment,73,←,left,←,0.5720551999984309,True,28,1
158K23S2,636,experiment,93,←,left,←,0.5577775999845471,True,28,1
158K23S2,637,experiment,106,→,left,←,0.5957437000179198,False,28,1
158K23S2,638,experiment,104,↑,down,↓,0.6647577999974601,False,28,1
158K23S2,639,experiment,70,→,right,→,0.6065543000004254,True,28,1
158K23S2,640,experiment,53,←,left,←,0.5489194999972824,True,28,1
158K23S2,641,experiment,79,↑,up,↑,1.2037066000048071,True,28,1
158K23S2,642,experiment,88,→,right,→,0.5500235999934375,True,28,1
158K23S2,643,experiment,98,→,left,←,0.7029753999959212,False,28,1
158K23S2,644,experiment,87,←,left,←,0.5176613999938127,True,28,1
158K23S2,645,experiment,51,→,right,→,0.5518056000000797,True,28,1
158K23S2,646,experiment,92,↓,down,↓,0.5388095999951474,True,28,1
158K23S2,647,experiment,108,→,right,→,1.1688544000207912,True,28,1
158K23S2,648,experiment,64,↓,down,↓,0.876540199998999,True,28,1
158K23S2,649,experiment,59,↑,up,↑,0.9256496999878436,True,28,1
158K23S2,650,experiment,89,←,left,←,0.9705369000148494,True,28,1
158K23S2,651,experiment,68,↓,down,↓,0.71705400000792,True,28,1
158K23S2,652,experiment,58,←,left,←,0.8286093999922741,True,28,1
158K23S2,653,experiment,69,→,right,→,0.7163297999941278,True,28,1
158K23S2,654,experiment,103,↑,up,↑,0.8849960000079591,True,28,1
158K23S2,655,experiment,94,↑,up,↑,0.8979740999930073,True,28,1
158K23S2,656,experiment,66,↓,down,↓,0.7677159000013489,True,28,1
158K23S2,657,experiment,71,↓,down,↓,0.7453050000185613,True,28,1
158K23S2,658,experiment,74,←,left,←,0.7224236000038218,True,28,1
158K23S2,659,experiment,75,↑,up,↑,0.8281680000072811,True,28,1
158K23S2,660,experiment,96,↑,up,↑,0.6748063999984879,True,28,1
158K23S2,661,experiment,78,↓,down,↓,0.7415221999981441,True,28,1
158K23S2,662,experiment,82,→,left,←,0.7882868000015151,False,28,1
158K23S2,663,experiment,100,↑,up,↑,0.6908622000191826,True,28,1
158K23S2,664,experiment,62,→,right,→,0.866308599972399,True,28,1
158K23S2,665,experiment,107,↑,up,↑,0.6756363000022247,True,28,1
158K23S2,666,experiment,63,↑,down,↓,0.7953543000039645,False,28,1
158K23S2,667,experiment,61,←,left,←,0.9991697999939788,True,28,1
158K23S2,668,experiment,48,↓,down,↓,0.8230801000026986,True,28,1
158K23S2,669,experiment,99,→,left,←,0.9404706000059377,False,28,1
158K23S2,670,experiment,56,↑,up,↑,0.7640494000224862,True,28,1
158K23S2,671,training,94,→,right,→,0.5004522000090219,True,28,0
158K23S2,672,training,93,↑,up,↑,0.5291982000053395,True,28,1
158K23S2,673,experiment,96,↑,up,↑,0.5478336999949533,True,28,1
158K23S2,674,experiment,49,↑,up,↑,0.6213217999902554,True,28,1
158K23S2,675,experiment,98,←,left,←,0.5314172000216786,True,28,1
158K23S2,676,experiment,60,↑,up,↑,0.6017509000084829,True,28,1
158K23S2,677,experiment,103,→,right,→,0.5111797000281513,True,28,1
158K23S2,678,experiment,75,↑,up,↑,0.5455227000056766,True,28,1
158K23S2,679,experiment,84,↑,up,↑,0.5116395000077318,True,28,1
158K23S2,680,experiment,69,↓,down,↓,0.5801044999971054,True,28,1
158K23S2,681,experiment,72,←,left,←,0.49238920002244413,True,28,1
158K23S2,682,experiment,56,←,left,←,0.5338673999940511,True,28,1
158K23S2,683,experiment,94,↓,up,↑,0.7451631000149064,False,28,1
158K23S2,684,experiment,64,↑,up,↑,0.7017390000110026,True,28,1
158K23S2,685,experiment,51,←,left,←,0.5605678999854717,True,28,1
158K23S2,686,experiment,83,↓,down,↓,0.5900451000197791,True,28,1
158K23S2,687,experiment,79,↓,down,↓,0.5318293000163976,True,28,1
158K23S2,688,experiment,107,↓,down,↓,0.4824916000070516,True,28,1
158K23S2,689,experiment,63,→,right,→,0.5379157999996096,True,28,1
158K23S2,690,experiment,50,→,right,→,0.44375599999330007,True,28,1
158K23S2,691,experiment,55,←,left,←,0.7034953999973368,True,28,1
158K23S2,692,experiment,52,↓,down,↓,1.1459894999861717,True,28,1
158K23S2,693,experiment,61,←,left,←,0.9832027000084054,True,28,1
158K23S2,694,experiment,65,↓,down,↓,0.9300144000153523,True,28,1
158K23S2,695,experiment,95,↑,up,↑,0.9086058999819215,True,28,1
158K23S2,696,experiment,74,↓,down,↓,0.7912254999973811,True,28,1
158K23S2,697,experiment,99,↓,down,↓,0.8944344000192359,True,28,1
158K23S2,698,experiment,70,↓,down,↓,0.794921599997906,True,28,1
158K23S2,699,experiment,54,→,right,→,0.7289936000015587,True,28,1
158K23S2,700,experiment,58,→,right,→,0.8884517000115011,True,28,1
158K23S2,701,experiment,59,→,right,→,0.7527761000092141,True,28,1
158K23S2,702,experiment,66,→,left,←,0.8844745999958832,False,28,1
158K23S2,703,experiment,80,↑,up,↑,0.6701850999961607,True,28,1
158K23S2,704,experiment,104,↓,down,↓,0.7045750000106636,True,28,1
158K23S2,705,experiment,48,←,left,←,0.7321193999960087,True,28,1
158K23S2,706,experiment,105,→,right,→,0.7392624000203796,True,28,1
158K23S2,707,experiment,106,↑,up,↑,0.7378849000087939,True,28,1
158K23S2,708,experiment,85,↓,down,↓,1.815641199995298,True,28,1
158K23S2,709,experiment,53,←,left,←,0.7809252000006381,True,28,1
158K23S2,710,experiment,97,←,left,←,0.6370029999816325,True,28,1
158K23S2,711,experiment,90,↓,down,↓,0.6213157000020146,True,28,1
158K23S2,712,experiment,62,→,right,→,0.5433756999846082,True,28,1
158K23S2,713,experiment,102,↑,down,↓,0.7034017000114545,False,28,1
158K23S2,714,experiment,91,→,right,→,0.6767598000005819,True,28,1
158K23S2,715,experiment,71,←,left,←,0.7297768999997061,True,28,1
158K23S2,716,experiment,89,↑,down,↓,0.8384926999860909,False,28,1
158K23S2,717,experiment,68,→,right,→,0.7498553000041284,True,28,1
158K23S2,718,experiment,108,→,left,←,0.6756471999979112,False,28,1
158K23S2,719,experiment,67,↓,down,↓,0.6500613999960478,True,28,1
158K23S2,720,experiment,101,←,left,←,0.6619481999950949,True,28,1
158K23S2,721,experiment,86,↑,up,↑,0.7426321000093594,True,28,1
158K23S2,722,experiment,87,↑,right,→,0.7718476000009105,False,28,1
158K23S2,723,experiment,100,→,no_key,no_letter,-1.0,False,28,1
158K23S2,724,experiment,88,←,left,←,0.5533760999969672,True,28,1
158K23S2,725,experiment,78,→,left,←,0.7929601999931037,False,28,1
158K23S2,726,experiment,77,←,left,←,0.5753155999991577,True,28,1
158K23S2,727,experiment,93,↑,up,↑,0.6650074000062887,True,28,1
158K23S2,728,experiment,57,←,left,←,0.5711981999920681,True,28,1
158K23S2,729,experiment,92,↓,right,→,1.157438899972476,False,28,1
158K23S2,730,experiment,73,↑,up,↑,0.6541884999896865,True,28,1
158K23S2,731,experiment,82,↓,down,↓,0.6561477000068408,True,28,1
158K23S2,732,experiment,81,→,right,→,0.8266502000042237,True,28,1
158K23S2,733,experiment,76,↓,down,↓,0.6159634999930859,True,28,1
158K23S2,734,training,94,→,right,→,0.48988969999481924,True,28,0
158K23S2,735,training,97,←,left,←,0.46157169999787584,True,28,1
158K23S2,736,experiment,60,→,right,→,0.4789388999924995,True,28,1
158K23S2,737,experiment,62,←,left,←,0.4710741000017151,True,28,1
158K23S2,738,experiment,50,←,left,←,0.4594715000130236,True,28,1
158K23S2,739,experiment,66,↓,down,↓,0.8909761999966577,True,28,1
158K23S2,740,experiment,64,←,left,←,0.9538314999954309,True,28,1
158K23S2,741,experiment,71,→,right,→,0.7876772999879904,True,28,1
158K23S2,742,experiment,78,←,left,←,0.6896707999985665,True,28,1
158K23S2,743,experiment,86,←,left,←,0.7290921999956481,True,28,1
158K23S2,744,experiment,82,→,right,→,0.8960552999924403,True,28,1
158K23S2,745,experiment,76,↓,down,↓,0.6426619999983814,True,28,1
158K23S2,746,experiment,70,←,left,←,0.6251385000068694,True,28,1
158K23S2,747,experiment,49,↓,down,↓,0.7036210999940522,True,28,1
158K23S2,748,experiment,87,→,right,→,0.5822487000259571,True,28,1
158K23S2,749,experiment,100,↑,down,↓,1.317538000002969,False,28,1
158K23S2,750,experiment,56,↑,up,↑,0.7576363999978639,True,28,1
158K23S2,751,experiment,72,↑,up,↑,0.607046100019943,True,28,1
158K23S2,752,experiment,77,←,left,←,0.46894410002278164,True,28,1
158K23S2,753,experiment,74,↑,up,↑,0.5051436999929138,True,28,1
158K23S2,754,experiment,63,↑,up,↑,0.8075702999776695,True,28,1
158K23S2,755,experiment,85,↓,down,↓,0.7065826000180095,True,28,1
158K23S2,756,experiment,90,↓,down,↓,0.6159386999788694,True,28,1
158K23S2,757,experiment,53,↑,down,↓,0.7174527999886777,False,28,1
158K23S2,758,experiment,93,←,left,←,0.7213991000025999,True,28,1
158K23S2,759,experiment,95,→,right,→,0.5726097000006121,True,28,1
158K23S2,760,experiment,105,→,right,→,0.5540800000017043,True,28,1
158K23S2,761,experiment,68,→,right,→,0.6452200999774504,True,28,1
158K23S2,762,experiment,52,←,left,←,0.7621081000252161,True,28,1
158K23S2,763,experiment,65,↑,up,↑,0.7496699999901466,True,28,1
158K23S2,764,experiment,89,→,right,→,0.6016553999797907,True,28,1
158K23S2,765,experiment,69,→,right,→,0.5064252000011038,True,28,1
158K23S2,766,experiment,59,←,left,←,0.6181689000222832,True,28,1
158K23S2,767,experiment,80,↓,down,↓,0.6385570999991614,True,28,1
158K23S2,768,experiment,94,→,right,→,0.5572840999811888,True,28,1
158K23S2,769,experiment,96,→,right,→,0.49465850001433864,True,28,1
158K23S2,770,experiment,58,←,left,←,0.7033702000044286,True,28,1
158K23S2,771,experiment,101,←,left,←,0.5934073999815155,True,28,1
158K23S2,772,experiment,92,↓,down,↓,0.5468385000131093,True,28,1
158K23S2,773,experiment,51,↓,down,↓,0.5156971999967936,True,28,1
158K23S2,774,experiment,57,←,left,←,0.5877164000121411,True,28,1
158K23S2,775,experiment,84,→,left,←,0.9678834999795072,False,28,1
158K23S2,776,experiment,55,↓,down,↓,0.5104163000069093,True,28,1
158K23S2,777,experiment,108,→,left,←,1.0778110999963246,False,28,1
158K23S2,778,experiment,79,↓,down,↓,0.5521644999971613,True,28,1
158K23S2,779,experiment,61,→,right,→,0.6375144999765325,True,28,1
158K23S2,780,experiment,107,→,right,→,0.5761962000105996,True,28,1
158K23S2,781,experiment,88,→,right,→,0.6118042999878526,True,28,1
158K23S2,782,experiment,99,←,left,←,0.5699180999945384,True,28,1
158K23S2,783,experiment,91,↑,up,↑,0.668758899992099,True,28,1
158K23S2,784,experiment,67,→,right,→,0.5793955000117421,True,28,1
158K23S2,785,experiment,75,↑,up,↑,0.586806000006618,True,28,1
158K23S2,786,experiment,97,←,left,←,0.5788523000082932,True,28,1
158K23S2,787,experiment,102,→,right,→,0.585777699976461,True,28,1
158K23S2,788,experiment,106,←,left,←,0.5985843999951612,True,28,1
158K23S2,789,experiment,81,↓,down,↓,0.7312989000056405,True,28,1
158K23S2,790,experiment,48,↓,down,↓,0.6136772999889217,True,28,1
158K23S2,791,experiment,98,→,right,→,0.8521418000163976,True,28,1
158K23S2,792,experiment,103,→,right,→,0.7033787000109442,True,28,1
158K23S2,793,experiment,54,→,right,→,1.0010862000053748,True,28,1
158K23S2,794,experiment,83,↑,up,↑,0.6531649999960791,True,28,1
158K23S2,795,experiment,104,↓,left,←,1.0081094999914058,False,28,1
158K23S2,796,experiment,73,↓,down,↓,0.5671278999943752,True,28,1
158K23S2,797,training,107,↑,up,↑,0.5084074000187684,True,28,0
158K23S2,798,training,85,↑,up,↑,0.7634613999980502,True,28,1
158K23S2,799,experiment,86,↓,down,↓,0.5998062999860849,True,28,1
158K23S2,800,experiment,101,↓,down,↓,0.52590350000537,True,28,1
158K23S2,801,experiment,60,→,left,←,0.6125357999990229,False,28,1
158K23S2,802,experiment,79,←,left,←,0.48137550000683405,True,28,1
158K23S2,803,experiment,108,↑,up,↑,0.4898985000036191,True,28,1
158K23S2,804,experiment,103,→,right,→,0.539426800009096,True,28,1
158K23S2,805,experiment,52,←,left,←,0.5241922000132035,True,28,1
158K23S2,806,experiment,54,→,left,←,1.044874700019136,False,28,1
158K23S2,807,experiment,80,←,left,←,0.5363038999785203,True,28,1
158K23S2,808,experiment,73,←,left,←,0.49832870002137497,True,28,1
158K23S2,809,experiment,69,↑,up,↑,0.4469985000032466,True,28,1
158K23S2,810,experiment,90,→,right,→,0.49470899999141693,True,28,1
158K23S2,811,experiment,70,↓,down,↓,0.5795986000157427,True,28,1
158K23S2,812,experiment,57,↓,up,↑,0.6972737000032794,False,28,1
158K23S2,813,experiment,64,→,right,→,0.4957731999747921,True,28,1
158K23S2,814,experiment,74,↓,down,↓,0.538868800009368,True,28,1
158K23S2,815,experiment,50,→,left,←,0.5081881000078283,False,28,1
158K23S2,816,experiment,85,←,right,→,0.5472429000074044,False,28,1
158K23S2,817,experiment,104,→,right,→,0.5303175000008196,True,28,1
158K23S2,818,experiment,106,↓,down,↓,0.5053654000221286,True,28,1
158K23S2,819,experiment,89,↓,down,↓,0.4630592000030447,True,28,1
158K23S2,820,experiment,92,↑,up,↑,0.6374439999926835,True,28,1
158K23S2,821,experiment,59,↑,up,↑,0.5841439999931026,True,28,1
158K23S2,822,experiment,91,↑,up,↑,0.5222264000040013,True,28,1
158K23S2,823,experiment,99,↓,down,↓,0.5479883000080008,True,28,1
158K23S2,824,experiment,67,→,right,→,0.4953414000046905,True,28,1
158K23S2,825,experiment,81,↑,up,↑,0.5844238999998197,True,28,1
158K23S2,826,experiment,82,←,left,←,0.5974950999952853,True,28,1
158K23S2,827,experiment,62,←,left,←,0.4885519999952521,True,28,1
158K23S2,828,experiment,100,→,down,↓,0.6353211000096053,False,28,1
158K23S2,829,experiment,88,↑,up,↑,0.5803168999846093,True,28,1
158K23S2,830,experiment,83,↓,up,↑,0.6573242000013124,False,28,1
158K23S2,831,experiment,68,→,right,→,0.6557743000157643,True,28,1
158K23S2,832,experiment,97,←,right,→,0.63679069999489,False,28,1
158K23S2,833,experiment,72,←,left,←,0.6351894999970682,True,28,1
158K23S2,834,experiment,49,↓,down,↓,0.5213227999920491,True,28,1
158K23S2,835,experiment,51,↑,up,↑,0.7630417000036687,True,28,1
158K23S2,836,experiment,102,↓,down,↓,0.6262517000141088,True,28,1
158K23S2,837,experiment,77,↓,down,↓,0.7192720000166446,True,28,1
158K23S2,838,experiment,65,→,right,→,0.5006183000223245,True,28,1
158K23S2,839,experiment,61,↓,right,→,0.643952000013087,False,28,1
158K23S2,840,experiment,63,←,left,←,0.46899150000535883,True,28,1
158K23S2,841,experiment,66,↑,up,↑,0.5321461999847088,True,28,1
158K23S2,842,experiment,55,↓,down,↓,0.5241859999950975,True,28,1
158K23S2,843,experiment,94,→,right,→,0.5518801999860443,True,28,1
158K23S2,844,experiment,58,←,left,←,0.4861257000011392,True,28,1
158K23S2,845,experiment,107,↑,down,↓,0.5506954000156838,False,28,1
158K23S2,846,experiment,78,↑,up,↑,0.5744408000027761,True,28,1
158K23S2,847,experiment,93,←,right,→,0.7363435000006575,False,28,1
158K23S2,848,experiment,98,→,right,→,0.8258272999955807,True,28,1
158K23S2,849,experiment,96,→,left,←,0.7204556000069715,False,28,1
158K23S2,850,experiment,76,→,right,→,0.6023003000009339,True,28,1
158K23S2,851,experiment,95,↓,down,↓,1.0983485000033397,True,28,1
158K23S2,852,experiment,53,↑,up,↑,0.596264699997846,True,28,1
158K23S2,853,experiment,87,↑,up,↑,0.5833285999833606,True,28,1
158K23S2,854,experiment,56,↓,up,↑,0.6851051999838091,False,28,1
158K23S2,855,experiment,48,←,up,↑,0.8335478999943007,False,28,1
158K23S2,856,experiment,75,→,right,→,0.5907762999995612,True,28,1
158K23S2,857,experiment,84,→,left,←,0.5948992000194266,False,28,1
158K23S2,858,experiment,71,↓,right,→,0.7314485000097193,False,28,1
158K23S2,859,experiment,105,↑,down,↓,0.5306558000156656,False,28,1
158K23S2,860,training,65,→,right,→,0.5952068000042345,True,28,0
158K23S2,861,training,52,→,left,←,0.5379494999942835,False,28,1
158K23S2,862,experiment,68,↑,up,↑,0.6933243999956176,True,28,1
158K23S2,863,experiment,105,↓,down,↓,0.4863820000027772,True,28,1
158K23S2,864,experiment,89,←,left,←,0.493028900003992,True,28,1
158K23S2,865,experiment,72,↑,up,↑,0.4413201000133995,True,28,1
158K23S2,866,experiment,106,↑,up,↑,0.4518318999907933,True,28,1
158K23S2,867,experiment,83,↓,down,↓,0.5259424000105355,True,28,1
158K23S2,868,experiment,49,←,left,←,0.49650959999416955,True,28,1
158K23S2,869,experiment,81,←,left,←,0.5374672999896575,True,28,1
158K23S2,870,experiment,108,↑,up,↑,0.5838334000145551,True,28,1
158K23S2,871,experiment,78,↑,down,↓,0.6303014000004623,False,28,1
158K23S2,872,experiment,48,↑,up,↑,0.6286464000004344,True,28,1
158K23S2,873,experiment,74,←,left,←,0.578711000009207,True,28,1
158K23S2,874,experiment,55,→,left,←,0.48113470000680536,False,28,1
158K23S2,875,experiment,97,↑,up,↑,0.4531280999945011,True,28,1
158K23S2,876,experiment,92,↑,up,↑,0.45227799998247065,True,28,1
158K23S2,877,experiment,98,→,left,←,0.45729379999102093,False,28,1
158K23S2,878,experiment,71,←,left,←,0.575053399981698,True,28,1
158K23S2,879,experiment,80,↑,up,↑,0.44554370001424104,True,28,1
158K23S2,880,experiment,59,↑,up,↑,0.44765600000391714,True,28,1
158K23S2,881,experiment,66,←,left,←,0.5353386000206228,True,28,1
158K23S2,882,experiment,69,→,right,→,0.6427927000040654,True,28,1
158K23S2,883,experiment,50,←,left,←,0.4324076999910176,True,28,1
158K23S2,884,experiment,82,↑,up,↑,0.419610000011744,True,28,1
158K23S2,885,experiment,76,↑,up,↑,0.4015734000131488,True,28,1
158K23S2,886,experiment,73,→,right,→,0.4721199999912642,True,28,0
158K23S2,887,experiment,94,↑,up,↑,0.42163920000893995,True,28,1
158K23S2,888,experiment,84,→,right,→,0.48022430000128224,True,28,1
158K23S2,889,experiment,88,↑,up,↑,0.4552939999848604,True,28,1
158K23S2,890,experiment,62,←,right,→,0.5200601000105962,False,28,1
158K23S2,891,experiment,79,→,left,←,0.48878899999544956,False,28,1
158K23S2,892,experiment,77,↑,up,↑,0.49120630000834353,True,28,1
158K23S2,893,experiment,100,←,left,←,0.46192480000900105,True,28,1
158K23S2,894,experiment,104,↑,up,↑,0.5047679000126664,True,28,1
158K23S2,895,experiment,57,←,left,←,0.46510629999102093,True,28,1
158K23S2,896,experiment,56,↓,down,↓,0.5715072000166401,True,28,1
158K23S2,897,experiment,63,→,left,←,0.5192893999919761,False,28,1
158K23S2,898,experiment,58,→,right,→,0.5031220000237226,True,28,1
158K23S2,899,experiment,101,←,left,←,0.44101869998848997,True,28,1
158K23S2,900,experiment,67,↑,up,↑,0.6087796000065282,True,28,1
158K23S2,901,experiment,70,↑,up,↑,0.4649187999893911,True,28,1
158K23S2,902,experiment,86,↑,up,↑,0.4813577000168152,True,28,1
158K23S2,903,experiment,99,↑,up,↑,0.5006551000114996,True,28,1
158K23S2,904,experiment,60,→,right,→,0.4844900000025518,True,28,1
158K23S2,905,experiment,90,↑,up,↑,0.5228133000200614,True,28,1
158K23S2,906,experiment,91,↓,down,↓,0.5112060999963433,True,28,1
158K23S2,907,experiment,107,↑,up,↑,0.5349419999984093,True,28,1
158K23S2,908,experiment,96,↑,up,↑,0.5932774000102654,True,28,1
158K23S2,909,experiment,85,↓,up,↑,0.5650748000189196,False,28,1
158K23S2,910,experiment,53,→,right,→,0.548446899978444,True,28,1
158K23S2,911,experiment,61,←,left,←,0.48985939999693073,True,28,1
158K23S2,912,experiment,87,↓,down,↓,0.5449189000064507,True,28,1
158K23S2,913,experiment,93,←,left,←,0.4840081000002101,True,28,1
158K23S2,914,experiment,51,↑,up,↑,0.4715977000014391,True,28,1
158K23S2,915,experiment,103,→,left,←,0.6017997000017203,False,28,1
158K23S2,916,experiment,65,↑,up,↑,0.5561280999972951,True,28,1
158K23S2,917,experiment,54,↑,up,↑,0.5713616000139154,True,28,1
158K23S2,918,experiment,102,↑,up,↑,0.4186014000151772,True,28,1
158K23S2,919,experiment,52,←,left,←,0.7198197000252549,True,28,1
158K23S2,920,experiment,64,←,left,←,0.4216557999898214,True,28,1
158K23S2,921,experiment,75,←,left,←,0.5472737000091001,True,28,1
158K23S2,922,experiment,95,→,right,→,0.533523599995533,True,28,1
158K23S2,923,training,73,←,left,←,0.4541255999938585,True,28,0
158K23S2,924,training,80,↓,down,↓,0.5772202000080142,True,28,1
158K23S2,925,experiment,73,↑,up,↑,0.5535654999839608,True,28,1
158K23S2,926,experiment,76,→,right,→,0.4976730000053067,True,28,1
158K23S2,927,experiment,104,↑,up,↑,0.4667206000012811,True,28,1
158K23S2,928,experiment,69,↑,up,↑,0.521084800013341,True,28,1
158K23S2,929,experiment,59,←,left,←,0.4878809999790974,True,28,1
158K23S2,930,experiment,84,→,right,→,0.5039795000047889,True,28,1
158K23S2,931,experiment,101,↑,up,↑,0.53769420000026,True,28,1
158K23S2,932,experiment,102,↓,down,↓,0.5057278999884147,True,28,1
158K23S2,933,experiment,81,↑,up,↑,0.522066299978178,True,28,1
158K23S2,934,experiment,71,↓,down,↓,0.6211530999862589,True,28,1
158K23S2,935,experiment,91,↓,down,↓,0.47783230000641197,True,28,1
158K23S2,936,experiment,60,↓,down,↓,0.5506504999939352,True,28,1
158K23S2,937,experiment,90,↑,up,↑,0.5384106999845244,True,28,1
158K23S2,938,experiment,107,←,left,←,0.560819200007245,True,28,1
158K23S2,939,experiment,105,↓,up,↑,0.6232770000060555,False,28,1
158K23S2,940,experiment,61,↑,up,↑,0.6416066999954637,True,28,1
158K23S2,941,experiment,63,←,left,←,0.4425207999884151,True,28,1
158K23S2,942,experiment,53,↓,down,↓,0.5430554000195116,True,28,1
158K23S2,943,experiment,100,↓,down,↓,0.4877223999937996,True,28,1
158K23S2,944,experiment,93,←,left,←,0.468769400002202,True,28,1
158K23S2,945,experiment,87,→,right,→,0.5167983999999706,True,28,1
158K23S2,946,experiment,66,↓,down,↓,0.5219509000016842,True,28,1
158K23S2,947,experiment,78,→,right,→,0.4669117000012193,True,28,1
158K23S2,948,experiment,108,→,right,→,0.5477564000175335,True,28,1
158K23S2,949,experiment,51,←,left,←,0.48447150000720285,True,28,1
158K23S2,950,experiment,58,↓,down,↓,0.45351490000030026,True,28,1
158K23S2,951,experiment,70,↑,up,↑,0.5160453999997117,True,28,1
158K23S2,952,experiment,99,↑,up,↑,0.6860254000057466,True,28,1
158K23S2,953,experiment,83,↑,up,↑,0.5347425999934785,True,28,1
158K23S2,954,experiment,80,↑,up,↑,0.6224510000029113,True,28,1
158K23S2,955,experiment,103,←,left,←,0.5868754000111949,True,28,1
158K23S2,956,experiment,50,→,right,→,0.4585324000217952,True,28,1
158K23S2,957,experiment,89,←,left,←,0.4824705000210088,True,28,1
158K23S2,958,experiment,92,←,left,←,0.7040909999923315,True,28,1
158K23S2,959,experiment,72,↓,down,↓,0.6274090000079013,True,28,1
158K23S2,960,experiment,77,↓,down,↓,0.4964810000092257,True,28,1
158K23S2,961,experiment,68,←,left,←,0.461702200002037,True,28,1
158K23S2,962,experiment,62,↑,up,↑,0.486773099983111,True,28,1
158K23S2,963,experiment,106,←,left,←,0.5433729999931529,True,28,1
158K23S2,964,experiment,88,↑,up,↑,0.4440879999892786,True,28,1
158K23S2,965,experiment,79,←,left,←,0.5198836000054143,True,28,1
158K23S2,966,experiment,75,←,right,→,0.5618777000054251,False,28,1
158K23S2,967,experiment,55,↑,up,↑,0.4730219999910332,True,28,1
158K23S2,968,experiment,94,←,left,←,0.5423989999981131,True,28,1
158K23S2,969,experiment,74,↑,up,↑,0.46419739999691956,True,28,1
158K23S2,970,experiment,97,←,left,←,0.5005082999996375,True,28,1
158K23S2,971,experiment,98,↓,down,↓,0.49558869999600574,True,28,1
158K23S2,972,experiment,67,↑,up,↑,0.5173736999859102,True,28,1
158K23S2,973,experiment,82,↓,right,→,0.693114699999569,False,28,1
158K23S2,974,experiment,57,↑,down,↓,0.5501107999880332,False,28,1
158K23S2,975,experiment,85,←,left,←,0.49952460001804866,True,28,1
158K23S2,976,experiment,54,←,left,←,0.46129859998472966,True,28,1
158K23S2,977,experiment,65,←,left,←,0.4372799000120722,True,28,1
158K23S2,978,experiment,52,↑,up,↑,0.5298399000021163,True,28,1
158K23S2,979,experiment,96,←,left,←,0.5722263999923598,True,28,1
158K23S2,980,experiment,48,↓,down,↓,0.5569970000069588,True,28,1
158K23S2,981,experiment,56,←,left,←,0.5238619000010658,True,28,1
158K23S2,982,experiment,86,↑,up,↑,0.5539806000015233,True,28,1
158K23S2,983,experiment,49,→,right,→,0.5313786999904551,True,28,1
158K23S2,984,experiment,95,↓,down,↓,0.5099552000174299,True,28,1
158K23S2,985,experiment,64,↓,down,↓,0.46006799998576753,True,28,1
158K23S2,986,training,94,→,right,→,0.5177116999984719,True,28,0
158K23S2,987,training,66,←,left,←,0.5227474999846891,True,28,1
158K23S2,988,experiment,99,↓,down,↓,0.47643810001318343,True,28,1
158K23S2,989,experiment,50,←,left,←,0.4645795999967959,True,28,1
158K23S2,990,experiment,58,→,right,→,0.4903176999941934,True,28,1
158K23S2,991,experiment,53,↓,down,↓,0.4767741000105161,True,28,1
158K23S2,992,experiment,52,↑,down,↓,0.4009906999999657,False,28,1
158K23S2,993,experiment,69,←,left,←,0.4727846000168938,True,28,0
158K23S2,994,experiment,72,↑,up,↑,0.549542399996426,True,28,1
158K23S2,995,experiment,73,←,left,←,0.6867978999798652,True,28,1
158K23S2,996,experiment,71,↓,down,↓,0.46750249998876825,True,28,1
158K23S2,997,experiment,56,↑,down,↓,0.46988650001003407,False,28,1
158K23S2,998,experiment,70,→,right,→,0.4836747999943327,True,28,1
158K23S2,999,experiment,79,→,left,←,0.5657742999901529,False,28,1
158K23S2,1000,experiment,108,↓,down,↓,0.5148172000190243,True,28,1
158K23S2,1001,experiment,95,↑,down,↓,0.5901951999985613,False,28,1
158K23S2,1002,experiment,93,→,right,→,0.5115229000221007,True,28,1
158K23S2,1003,experiment,106,↑,left,←,0.7832842000061646,False,28,1
158K23S2,1004,experiment,86,↓,down,↓,0.5390642999846023,True,28,1
158K23S2,1005,experiment,59,←,left,←,0.4019374000199605,True,28,1
158K23S2,1006,experiment,61,↑,up,↑,0.4604776999913156,True,28,0
158K23S2,1007,experiment,88,→,right,→,0.5166832000249997,True,28,1
158K23S2,1008,experiment,67,←,right,→,0.4975783000118099,False,28,1
158K23S2,1009,experiment,91,↑,up,↑,0.5826372999872547,True,28,1
158K23S2,1010,experiment,48,→,right,→,0.5191019999911077,True,28,1
158K23S2,1011,experiment,105,↓,down,↓,0.4076714000257198,True,28,1
158K23S2,1012,experiment,89,↑,up,↑,0.4645557999901939,True,28,1
158K23S2,1013,experiment,54,→,right,→,0.6117047000152525,True,28,1
158K23S2,1014,experiment,81,←,left,←,0.5442591000173707,True,28,1
158K23S2,1015,experiment,65,↑,down,↓,0.6286605000204872,False,28,1
158K23S2,1016,experiment,87,↑,up,↑,0.5182160999975167,True,28,1
158K23S2,1017,experiment,100,↑,up,↑,0.5039099999994505,True,28,1
158K23S2,1018,experiment,90,→,right,→,0.509623299993109,True,28,1
158K23S2,1019,experiment,78,↑,up,↑,0.48702319999574684,True,28,1
158K23S2,1020,experiment,102,↑,up,↑,0.5136095999914687,True,28,1
158K23S2,1021,experiment,96,↑,up,↑,0.4444348000106402,True,28,1
158K23S2,1022,experiment,49,→,right,→,0.5622467999928631,True,28,1
158K23S2,1023,experiment,84,←,left,←,0.4796341999899596,True,28,1
158K23S2,1024,experiment,97,→,left,←,0.48375029998715036,False,28,1
158K23S2,1025,experiment,82,←,left,←,0.6449129999964498,True,28,1
158K23S2,1026,experiment,68,↓,down,↓,0.5561231000174303,True,28,1
158K23S2,1027,experiment,101,↑,up,↑,0.7079496000078507,True,28,1
158K23S2,1028,experiment,76,↓,down,↓,0.5019811000092886,True,28,1
158K23S2,1029,experiment,64,↑,up,↑,0.5165340999956243,True,28,1
158K23S2,1030,experiment,75,→,left,←,0.4943896000040695,False,28,1
158K23S2,1031,experiment,57,↓,down,↓,0.51152890000958,True,28,1
158K23S2,1032,experiment,51,↑,up,↑,0.47403909999411553,True,28,1
158K23S2,1033,experiment,74,↓,up,↑,0.45395610001287423,False,28,1
158K23S2,1034,experiment,62,↑,down,↓,0.5671314999926835,False,28,1
158K23S2,1035,experiment,77,↓,down,↓,0.4545032000169158,True,28,1
158K23S2,1036,experiment,60,→,right,→,0.4799422000069171,True,28,1
158K23S2,1037,experiment,85,↑,up,↑,0.5280658999981824,True,28,1
158K23S2,1038,experiment,107,←,left,←,0.5191349000087939,True,28,1
158K23S2,1039,experiment,63,←,left,←,0.4698535999923479,True,28,1
158K23S2,1040,experiment,66,→,left,←,0.5002328999980818,False,28,1
158K23S2,1041,experiment,80,→,right,→,0.3839803999871947,True,28,1
158K23S2,1042,experiment,103,→,left,←,0.6110381000034977,False,28,0
158K23S2,1043,experiment,98,↓,left,←,0.4897362999909092,False,28,1
158K23S2,1044,experiment,92,↑,up,↑,0.43914679999579675,True,28,1
158K23S2,1045,experiment,104,↑,up,↑,0.4109783000021707,True,28,1
158K23S2,1046,experiment,83,↓,down,↓,0.5419908000039868,True,28,1
158K23S2,1047,experiment,94,→,right,→,0.4886757000058424,True,28,1
158K23S2,1048,experiment,55,↑,down,↓,0.9143854000139982,False,28,1
158K23S2,1049,training,61,←,right,→,0.4916994000086561,False,28,0
158K23S2,1050,training,55,←,left,←,0.3347074000048451,True,28,1
158K23S2,1051,experiment,51,←,no_key,no_letter,-1.0,False,28,0
158K23S2,1052,experiment,90,↑,up,↑,0.5717568999971263,True,28,1
158K23S2,1053,experiment,55,→,right,→,0.4981020000122953,True,28,1
158K23S2,1054,experiment,107,→,right,→,0.4263607000175398,True,28,1
158K23S2,1055,experiment,95,↓,down,↓,0.5374250000168104,True,28,1
158K23S2,1056,experiment,62,↑,down,↓,0.4307593999837991,False,28,1
158K23S2,1057,experiment,58,↓,up,↑,0.5140335000178311,False,28,1
158K23S2,1058,experiment,48,←,left,←,0.4053737999929581,True,28,1
158K23S2,1059,experiment,99,→,right,→,0.4274289000022691,True,28,1
158K23S2,1060,experiment,76,↓,down,↓,0.5286765999917407,True,28,1
158K23S2,1061,experiment,70,←,left,←,0.5241624999907799,True,28,1
158K23S2,1062,experiment,65,←,left,←,0.48917460002121516,True,28,1
158K23S2,1063,experiment,78,↑,up,↑,0.5152774000016507,True,28,1
158K23S2,1064,experiment,67,→,right,→,0.5119750000012573,True,28,1
158K23S2,1065,experiment,73,↓,down,↓,0.475101000018185,True,28,1
158K23S2,1066,experiment,75,↑,up,↑,0.4868461999867577,True,28,1
158K23S2,1067,experiment,94,←,left,←,0.46803849999560043,True,28,1
158K23S2,1068,experiment,74,↑,down,↓,0.544358299986925,False,28,1
158K23S2,1069,experiment,53,↓,down,↓,0.4407540000102017,True,28,1
158K23S2,1070,experiment,89,↑,down,↓,0.4411737000045832,False,28,1
158K23S2,1071,experiment,87,↓,down,↓,0.6422852999821771,True,28,1
158K23S2,1072,experiment,98,→,up,↑,0.6156707000045571,False,28,1
158K23S2,1073,experiment,49,←,left,←,0.49433010001666844,True,28,1
158K23S2,1074,experiment,63,←,left,←,0.453359899984207,True,28,1
158K23S2,1075,experiment,79,←,left,←,0.45678740000585094,True,28,1
158K23S2,1076,experiment,59,↑,down,↓,0.5225816000020131,False,28,1
158K23S2,1077,experiment,104,↑,down,↓,0.538881999993464,False,28,1
158K23S2,1078,experiment,71,↓,down,↓,0.581084599980386,True,28,1
158K23S2,1079,experiment,54,↓,down,↓,0.4755074999993667,True,28,1
158K23S2,1080,experiment,83,←,left,←,0.4765633999777492,True,28,1
158K23S2,1081,experiment,92,↑,right,→,0.5545780000102241,False,28,1
158K23S2,1082,experiment,106,→,right,→,0.5206238999962807,True,28,1
158K23S2,1083,experiment,50,↓,down,↓,0.47497779998229817,True,28,1
158K23S2,1084,experiment,66,↑,up,↑,0.4414822999970056,True,28,1
158K23S2,1085,experiment,100,←,left,←,0.4942387999908533,True,28,1
158K23S2,1086,experiment,103,→,right,→,0.5360463999968488,True,28,1
158K23S2,1087,experiment,93,←,left,←,0.48327600001357496,True,28,1
158K23S2,1088,experiment,108,←,left,←,0.43567169999005273,True,28,1
158K23S2,1089,experiment,102,↓,down,↓,0.5201413999893703,True,28,1
158K23S2,1090,experiment,69,↑,down,↓,0.49212700000498444,False,28,1
158K23S2,1091,experiment,97,←,left,←,0.519839199987473,True,28,1
158K23S2,1092,experiment,85,←,left,←,0.5745996999903582,True,28,1
158K23S2,1093,experiment,96,→,right,→,0.5192907000018749,True,28,1
158K23S2,1094,experiment,60,↓,down,↓,0.5744181000045501,True,28,1
158K23S2,1095,experiment,77,↓,down,↓,0.6054353000072297,True,28,1
158K23S2,1096,experiment,68,→,no_key,no_letter,-1.0,False,28,1
158K23S2,1097,experiment,72,↓,right,→,0.4337802000227384,False,28,1
158K23S2,1098,experiment,105,↑,no_key,no_letter,-1.0,False,28,1
158K23S2,1099,experiment,61,→,right,→,0.46035949999350123,True,28,1
158K23S2,1100,experiment,81,↑,left,←,0.35169630000018515,False,28,1
158K23S2,1101,experiment,80,→,right,→,0.4291990000056103,True,28,0
158K23S2,1102,experiment,84,←,left,←,0.4396225999807939,True,28,1
158K23S2,1103,experiment,88,→,right,→,0.4642582999949809,True,28,1
158K23S2,1104,experiment,91,↑,up,↑,0.5433588999731,True,28,1
158K23S2,1105,experiment,82,→,no_key,no_letter,-1.0,False,28,1
158K23S2,1106,experiment,52,↑,up,↑,0.44006919997627847,True,28,1
158K23S2,1107,experiment,64,↑,up,↑,0.4327532000024803,True,28,1
158K23S2,1108,experiment,57,↑,up,↑,0.5002439999952912,True,28,1
158K23S2,1109,experiment,86,↑,up,↑,0.35902839998016134,True,28,1
158K23S2,1110,experiment,56,↑,up,↑,0.3256962999876123,True,28,0
158K23S2,1111,experiment,101,←,no_key,no_letter,-1.0,False,28,0
158K23S2,1112,training,102,→,left,←,0.43949160000192933,False,28,0
158K23S2,1113,training,104,↓,down,↓,0.5067743999825325,True,28,1
158K23S2,1114,experiment,66,↑,up,↑,0.4882379999908153,True,28,1
158K23S2,1115,experiment,48,→,right,→,0.5803516999876592,True,28,1
158K23S2,1116,experiment,107,↓,down,↓,0.42519170002196915,True,28,1
158K23S2,1117,experiment,72,→,right,→,0.5197753999964334,True,28,1
158K23S2,1118,experiment,76,←,left,←,0.4977540000109002,True,28,1
158K23S2,1119,experiment,57,↑,down,↓,0.5065893999999389,False,28,1
158K23S2,1120,experiment,82,↓,down,↓,0.4343556000094395,True,28,1
158K23S2,1121,experiment,62,↓,down,↓,0.4921102999942377,True,28,1
158K23S2,1122,experiment,49,→,right,→,0.47187329997541383,True,28,1
158K23S2,1123,experiment,68,←,left,←,0.5740371999854688,True,28,1
158K23S2,1124,experiment,90,←,left,←,0.5207042999973055,True,28,1
158K23S2,1125,experiment,86,←,left,←,0.4870746999804396,True,28,1
158K23S2,1126,experiment,91,↓,left,←,0.49327169999014586,False,28,1
158K23S2,1127,experiment,64,↓,down,↓,0.5159333999908995,True,28,1
158K23S2,1128,experiment,58,↑,down,↓,0.45966459999908693,False,28,1
158K23S2,1129,experiment,84,←,left,←,0.48518119999789633,True,28,1
158K23S2,1130,experiment,96,↓,down,↓,0.4735133000067435,True,28,1
158K23S2,1131,experiment,87,→,right,→,0.5374027000216302,True,28,1
158K23S2,1132,experiment,102,←,left,←,0.4815562999865506,True,28,1
158K23S2,1133,experiment,95,→,right,→,0.518540099990787,True,28,1
158K23S2,1134,experiment,70,←,left,←,0.46615010002278723,True,28,1
158K23S2,1135,experiment,59,↑,down,↓,0.6194723999942653,False,28,1
158K23S2,1136,experiment,60,←,left,←,0.5024706999829505,True,28,1
158K23S2,1137,experiment,108,←,right,→,0.4942350999917835,False,28,1
158K23S2,1138,experiment,105,↑,down,↓,0.40776579998782836,False,28,1
158K23S2,1139,experiment,55,←,down,↓,0.4921005000069272,False,28,1
158K23S2,1140,experiment,52,→,left,←,0.4548226000042632,False,28,1
158K23S2,1141,experiment,97,→,left,←,0.48434660001657903,False,28,1
158K23S2,1142,experiment,85,↓,down,↓,0.6043041999801062,True,28,1
158K23S2,1143,experiment,65,→,down,↓,0.6541006999905221,False,28,1
158K23S2,1144,experiment,78,←,left,←,0.4497595000138972,True,28,1
158K23S2,1145,experiment,69,→,left,←,0.6085089000116568,False,28,1
158K23S2,1146,experiment,53,↓,up,↑,0.21012740000151098,False,28,1
158K23S2,1147,experiment,77,↑,down,↓,0.611096800013911,False,28,0
158K23S2,1148,experiment,94,↓,down,↓,0.49113460001535714,True,28,1
158K23S2,1149,experiment,50,←,left,←,0.5185495000041556,True,28,1
158K23S2,1150,experiment,98,←,right,→,0.4649772999982815,False,28,1
158K23S2,1151,experiment,106,←,left,←,0.3674738999980036,True,28,1
158K23S2,1152,experiment,73,←,left,←,0.43505490000825375,True,28,0
158K23S2,1153,experiment,63,↓,down,↓,0.47650320001412183,True,28,1
158K23S2,1154,experiment,67,↓,right,→,0.4034671999979764,False,28,1
158K23S2,1155,experiment,93,↓,down,↓,0.49941319998470135,True,28,0
158K23S2,1156,experiment,103,→,left,←,0.3096561999991536,False,28,1
158K23S2,1157,experiment,56,↓,up,↑,0.325715000013588,False,28,0
158K23S2,1158,experiment,83,←,left,←,0.28487690002657473,True,28,0
158K23S2,1159,experiment,74,↑,left,←,0.2590646999888122,False,28,0
158K23S2,1160,experiment,75,↓,down,↓,1.8747852999949828,True,28,0
158K23S2,1161,experiment,92,→,right,→,0.43275149998953566,True,28,1
158K23S2,1162,experiment,80,↑,right,→,0.32582080000429414,False,28,1
158K23S2,1163,experiment,89,↓,down,↓,0.3757723000016995,True,28,0
158K23S2,1164,experiment,104,↓,down,↓,0.494925000006333,True,28,0
158K23S2,1165,experiment,51,→,down,↓,0.41843859999789856,False,28,1
158K23S2,1166,experiment,101,↓,right,→,0.5751717000093777,False,28,1
158K23S2,1167,experiment,100,↑,up,↑,0.4785379999957513,True,28,1
158K23S2,1168,experiment,99,↑,up,↑,0.3756883999740239,True,28,1
158K23S2,1169,experiment,79,↑,up,↑,0.334071400022367,True,28,0
158K23S2,1170,experiment,71,←,left,←,0.5226782000099774,True,28,0
158K23S2,1171,experiment,81,→,right,→,0.4029597000044305,True,28,1
158K23S2,1172,experiment,88,↓,left,←,0.4764761999831535,False,28,0
158K23S2,1173,experiment,54,↑,up,↑,0.4792598000203725,True,28,1
158K23S2,1174,experiment,61,→,down,↓,0.5673411999887321,False,28,1
158K23S2,1175,training,53,→,left,←,0.5588483999890741,False,28,0
158K23S2,1176,training,52,←,right,→,0.33408599998801947,False,28,1
158K23S2,1177,experiment,101,→,left,←,0.3601120999956038,False,28,0
158K23S2,1178,experiment,105,→,right,→,0.36709699998027645,True,28,0
158K23S2,1179,experiment,54,←,right,→,0.3757144999981392,False,28,0
158K23S2,1180,experiment,55,←,left,←,0.36734649998834357,True,28,0
158K23S2,1181,experiment,94,←,right,→,0.4353831999760587,False,28,0
158K23S2,1182,experiment,96,↓,down,↓,0.44168839999474585,True,28,1
158K23S2,1183,experiment,50,→,down,↓,0.3506840000045486,False,28,1
158K23S2,1184,experiment,67,↓,left,←,0.22696780000114813,False,28,0
158K23S2,1185,experiment,78,→,left,←,0.2756748000101652,False,28,0
158K23S2,1186,experiment,73,↑,up,↑,0.9544763999874704,True,28,0
158K23S2,1187,experiment,100,←,down,↓,0.47451749999891035,False,28,1
158K23S2,1188,experiment,90,↑,up,↑,0.4812003999832086,True,28,1
158K23S2,1189,experiment,69,↓,left,←,0.45459460001438856,False,28,1
158K23S2,1190,experiment,70,→,down,↓,0.42883879999862984,False,28,1
158K23S2,1191,experiment,103,←,down,↓,0.4410038999922108,False,28,1
158K23S2,1192,experiment,65,↑,down,↓,0.334125800000038,False,28,1
158K23S2,1193,experiment,58,←,down,↓,0.24204480001935735,False,28,0
158K23S2,1194,experiment,102,→,right,→,0.9237338000093587,True,28,0
158K23S2,1195,experiment,74,↑,up,↑,0.42980769998393953,True,28,1
158K23S2,1196,experiment,53,↓,up,↑,0.6505224999855272,False,28,1
158K23S2,1197,experiment,95,←,right,→,0.48058010000386275,False,28,1
158K23S2,1198,experiment,92,→,left,←,0.3338685000198893,False,28,1
158K23S2,1199,experiment,62,→,left,←,0.30152119998820126,False,28,0
158K23S2,1200,experiment,56,←,left,←,0.5006045999762136,True,28,0
158K23S2,1201,experiment,97,↑,up,↑,0.48798550001811236,True,28,1
158K23S2,1202,experiment,48,→,up,↑,0.4202477000071667,False,28,1
158K23S2,1203,experiment,71,←,left,←,0.26812599998083897,True,28,1
158K23S2,1204,experiment,93,←,left,←,0.4405153999978211,True,28,0
158K23S2,1205,experiment,99,←,left,←,0.300728700007312,True,28,1
158K23S2,1206,experiment,68,→,no_key,no_letter,-1.0,False,28,0
158K23S2,1207,experiment,72,↑,up,↑,0.4539306999940891,True,28,1
158K23S2,1208,experiment,86,←,left,←,0.375990999978967,True,28,1
158K23S2,1209,experiment,76,↑,up,↑,0.3675197999982629,True,28,0
158K23S2,1210,experiment,61,←,left,←,0.4745217000017874,True,28,0
158K23S2,1211,experiment,66,↑,up,↑,0.4175851999898441,True,28,1
158K23S2,1212,experiment,57,←,right,→,0.5096214000077453,False,28,1
158K23S2,1213,experiment,81,↑,up,↑,0.42194639999070205,True,28,1
158K23S2,1214,experiment,60,←,left,←,0.5126370000070892,True,28,1
158K23S2,1215,experiment,98,↑,up,↑,0.4270611999963876,True,28,1
158K23S2,1216,experiment,49,←,left,←,0.41778779999003746,True,28,1
158K23S2,1217,experiment,80,←,right,→,0.5098564999934752,False,28,1
158K23S2,1218,experiment,104,↓,down,↓,0.4548561999981757,True,28,1
158K23S2,1219,experiment,52,↑,down,↓,0.6507192999997642,False,28,1
158K23S2,1220,experiment,88,→,right,→,0.44302850001258776,True,28,1
158K23S2,1221,experiment,84,↓,down,↓,0.4530570000060834,True,28,1
158K23S2,1222,experiment,75,↑,up,↑,0.6501188999973238,True,28,1
158K23S2,1223,experiment,107,→,right,→,0.48391329997684807,True,28,1
158K23S2,1224,experiment,63,↑,down,↓,0.49132559998543,False,28,1
158K23S2,1225,experiment,87,↓,down,↓,0.546350499993423,True,28,1
158K23S2,1226,experiment,82,↓,no_key,no_letter,-1.0,False,28,1
158K23S2,1227,experiment,108,↓,down,↓,0.44064739998430014,True,28,1
158K23S2,1228,experiment,91,↓,down,↓,0.4482737999933306,True,28,1
158K23S2,1229,experiment,79,→,right,→,0.5077470999967773,True,28,1
158K23S2,1230,experiment,77,↑,no_key,no_letter,-1.0,False,28,1
158K23S2,1231,experiment,51,↑,up,↑,0.44009569997433573,True,28,1
158K23S2,1232,experiment,59,→,right,→,0.5625281999818981,True,28,1
158K23S2,1233,experiment,83,↓,left,←,0.5041256999829784,False,28,1
158K23S2,1234,experiment,85,←,left,←,0.5028853999974672,True,28,1
158K23S2,1235,experiment,106,↑,up,↑,0.4157931999943685,True,28,1
158K23S2,1236,experiment,89,↑,up,↑,0.4249147000082303,True,28,1
158K23S2,1237,experiment,64,→,right,→,0.5301315000106115,True,28,1
158K23S2,1238,training,61,↓,down,↓,0.4735795999877155,True,29,0
158K23S2,1239,training,72,→,right,→,0.5503476999874692,True,29,1
158K23S2,1240,experiment,52,→,right,→,0.46284570000716485,True,29,1
158K23S2,1241,experiment,53,→,right,→,0.4346048000152223,True,29,1
158K23S2,1242,experiment,106,↑,up,↑,0.46967679998488165,True,29,1
158K23S2,1243,experiment,98,↑,no_key,no_letter,-1.0,False,29,1
158K23S2,1244,experiment,82,→,right,→,0.45784099999582395,True,29,1
158K23S2,1245,experiment,87,↓,down,↓,0.48228820000076666,True,29,1
158K23S2,1246,experiment,74,↑,down,↓,0.47013289999449626,False,29,1
158K23S2,1247,experiment,54,↓,down,↓,0.49719669998739846,True,29,1
158K23S2,1248,experiment,69,↓,down,↓,0.4538345000182744,True,29,1
158K23S2,1249,experiment,79,←,down,↓,0.39241599998786114,False,29,1
158K23S2,1250,experiment,58,→,left,←,0.3753971999976784,False,29,0
158K23S2,1251,experiment,102,→,right,→,0.3921599999885075,True,29,0
158K23S2,1252,experiment,66,↓,down,↓,0.4221974000101909,True,29,0
158K23S2,1253,experiment,84,←,left,←,0.4645234000054188,True,29,1
158K23S2,1254,experiment,83,←,right,→,0.5301236000086647,False,29,1
158K23S2,1255,experiment,80,←,left,←,0.4657539000036195,True,29,1
158K23S2,1256,experiment,92,↑,up,↑,0.4401095999928657,True,29,1
158K23S2,1257,experiment,60,←,left,←,0.5462215000006836,True,29,1
158K23S2,1258,experiment,65,←,left,←,0.478836099995533,True,29,1
158K23S2,1259,experiment,85,↑,up,↑,0.4630808999936562,True,29,1
158K23S2,1260,experiment,51,→,right,→,0.4753863000078127,True,29,1
158K23S2,1261,experiment,67,↑,up,↑,0.4898932999931276,True,29,1
158K23S2,1262,experiment,59,→,no_key,no_letter,-1.0,False,29,1
158K23S2,1263,experiment,101,↓,down,↓,0.4596651000028942,True,29,1
158K23S2,1264,experiment,55,↓,down,↓,0.4785901000141166,True,29,1
158K23S2,1265,experiment,61,→,right,→,0.4630122000235133,True,29,1
158K23S2,1266,experiment,107,↑,up,↑,0.424809499992989,True,29,1
158K23S2,1267,experiment,86,←,left,←,0.36739689999376424,True,29,1
158K23S2,1268,experiment,94,↓,down,↓,0.49992559998645447,True,29,0
158K23S2,1269,experiment,63,↑,up,↑,1.2266671000106726,True,29,1
158K23S2,1270,experiment,100,↓,down,↓,0.5360065999848302,True,29,1
158K23S2,1271,experiment,75,↓,no_key,no_letter,-1.0,False,29,1
158K23S2,1272,experiment,96,↓,down,↓,0.3757049999840092,True,29,1
158K23S2,1273,experiment,78,←,left,←,0.5549227000155952,True,29,0
158K23S2,1274,experiment,99,←,left,←,0.4118607999989763,True,29,1
158K23S2,1275,experiment,72,↑,up,↑,0.5544545000011567,True,29,0
158K23S2,1276,experiment,104,↓,right,→,0.3509155999927316,False,29,1
158K23S2,1277,experiment,76,←,left,←,0.3507633999979589,True,29,0
158K23S2,1278,experiment,71,←,right,→,0.5309941000014078,False,29,0
158K23S2,1279,experiment,91,←,left,←,0.5111156000057235,True,29,1
158K23S2,1280,experiment,81,↓,down,↓,0.5194070000143256,True,29,1
158K23S2,1281,experiment,95,←,left,←,0.47479129998828284,True,29,1
158K23S2,1282,experiment,50,↑,down,↓,0.662866300001042,False,29,1
158K23S2,1283,experiment,64,↓,down,↓,0.4626111999968998,True,29,1
158K23S2,1284,experiment,108,↓,down,↓,0.44015439998474903,True,29,1
158K23S2,1285,experiment,93,→,left,←,0.3601961000240408,False,29,1
158K23S2,1286,experiment,90,←,right,→,0.42604150000261143,False,29,0
158K23S2,1287,experiment,62,←,left,←,0.41261619998840615,True,29,1
158K23S2,1288,experiment,97,→,left,←,0.4747064999828581,False,29,1
158K23S2,1289,experiment,88,→,right,→,0.6828514000226278,True,29,1
158K23S2,1290,experiment,77,←,left,←,0.4448392999765929,True,29,1
158K23S2,1291,experiment,49,↓,down,↓,0.4665394000185188,True,29,1
158K23S2,1292,experiment,105,→,right,→,0.4288088000030257,True,29,1
158K23S2,1293,experiment,48,←,left,←,0.5230487999797333,True,29,1
158K23S2,1294,experiment,68,←,left,←,0.36815749999368563,True,29,1
158K23S2,1295,experiment,89,↑,up,↑,0.44189539999933913,True,29,0
158K23S2,1296,experiment,70,↑,up,↑,0.4566589999885764,True,29,1
158K23S2,1297,experiment,56,↑,up,↑,0.4593812999955844,True,29,1
158K23S2,1298,experiment,57,→,right,→,0.5178580000065267,True,29,1
158K23S2,1299,experiment,73,→,right,→,0.47257080001872964,True,29,1
158K23S2,1300,experiment,103,↓,left,←,0.5070323999971151,False,29,1
158K23S2,1301,training,82,↓,down,↓,0.5888121000025421,True,29,0
158K23S2,1302,training,99,→,down,↓,0.5316649999876972,False,29,1
158K23S2,1303,experiment,85,↑,up,↑,0.553732400003355,True,29,1
158K23S2,1304,experiment,96,←,left,←,0.46740540000610054,True,29,1
158K23S2,1305,experiment,104,↓,down,↓,0.4858354000025429,True,29,1
158K23S2,1306,experiment,103,→,right,→,0.46384819998638704,True,29,1
158K23S2,1307,experiment,61,→,left,←,0.6086282000178471,False,29,1
158K23S2,1308,experiment,86,→,right,→,0.6673465000058059,True,29,1
158K23S2,1309,experiment,51,↓,left,←,0.5434195999987423,False,29,1
158K23S2,1310,experiment,48,↑,down,↓,0.47358119999989867,False,29,1
158K23S2,1311,experiment,68,↓,right,→,0.5196122000052128,False,29,1
158K23S2,1312,experiment,62,↓,left,←,0.5021010999917053,False,29,1
158K23S2,1313,experiment,78,↓,left,←,0.6798549999948591,False,29,1
158K23S2,1314,experiment,74,←,no_key,no_letter,-1.0,False,29,1
158K23S2,1315,experiment,102,→,left,←,0.47695449998718686,False,29,1
158K23S2,1316,experiment,66,→,left,←,0.36714580000261776,False,29,1
158K23S2,1317,experiment,57,←,left,←,0.3174577000027057,True,29,0
158K23S2,1318,experiment,105,→,no_key,no_letter,-1.0,False,29,0
158K23S2,1319,experiment,69,↑,up,↑,0.383786999998847,True,29,1
158K23S2,1320,experiment,91,→,right,→,0.3682241000060458,True,29,0
158K23S2,1321,experiment,92,↑,right,→,0.4406664999842178,False,29,0
158K23S2,1322,experiment,60,→,right,→,0.4193102999997791,True,29,1
158K23S2,1323,experiment,71,↓,down,↓,0.5138957999879494,True,29,1
158K23S2,1324,experiment,76,↑,up,↑,0.4595225999946706,True,29,1
158K23S2,1325,experiment,70,→,no_key,no_letter,-1.0,False,29,1
158K23S2,1326,experiment,63,←,left,←,0.5278015999938361,True,29,1
158K23S2,1327,experiment,107,←,left,←,0.3924869000038598,True,29,1
158K23S2,1328,experiment,89,↓,down,↓,0.449036400008481,True,29,0
158K23S2,1329,experiment,79,←,left,←,0.444443999993382,True,29,1
158K23S2,1330,experiment,97,←,left,←,0.3674188999866601,True,29,1
158K23S2,1331,experiment,73,→,right,→,0.46648890001233667,True,29,0
158K23S2,1332,experiment,53,↓,down,↓,0.5020049000158906,True,29,1
158K23S2,1333,experiment,82,↑,up,↑,0.3430686999927275,True,29,1
158K23S2,1334,experiment,49,←,left,←,0.4636154000181705,True,29,0
158K23S2,1335,experiment,94,↓,down,↓,0.5572031999763567,True,29,1
158K23S2,1336,experiment,54,↑,up,↑,0.5807271999947261,True,29,1
158K23S2,1337,experiment,83,←,left,←,0.41804079999565147,True,29,1
158K23S2,1338,experiment,52,→,right,→,0.4233984999882523,True,29,1
158K23S2,1339,experiment,106,→,right,→,0.6902574000123423,True,29,1
158K23S2,1340,experiment,80,↓,down,↓,0.49965479999082163,True,29,1
158K23S2,1341,experiment,90,↓,down,↓,0.49750210001366213,True,29,1
158K23S2,1342,experiment,77,→,right,→,0.6834125999885146,True,29,1
158K23S2,1343,experiment,72,←,left,←,0.4164205999986734,True,29,1
158K23S2,1344,experiment,101,→,right,→,0.4135946000169497,True,29,1
158K23S2,1345,experiment,93,→,left,←,0.42141650000121444,False,29,0
158K23S2,1346,experiment,64,←,down,↓,0.30073370001628064,False,29,1
158K23S2,1347,experiment,98,↓,down,↓,0.48115529998904094,True,29,0
158K23S2,1348,experiment,75,↑,up,↑,0.42883160000201315,True,29,1
158K23S2,1349,experiment,81,→,right,→,0.4165117999946233,True,29,1
158K23S2,1350,experiment,59,↑,up,↑,0.659029600006761,True,29,1
158K23S2,1351,experiment,84,↑,up,↑,0.4210011000104714,True,29,1
158K23S2,1352,experiment,100,←,no_key,no_letter,-1.0,False,29,1
158K23S2,1353,experiment,50,→,left,←,0.7164389999816194,False,29,1
158K23S2,1354,experiment,95,←,left,←,0.4162810999841895,True,29,1
158K23S2,1355,experiment,99,→,right,→,0.392338200006634,True,29,1
158K23S2,1356,experiment,87,←,left,←,0.5842365999997128,True,29,0
158K23S2,1357,experiment,108,←,no_key,no_letter,-1.0,False,29,1
158K23S2,1358,experiment,88,←,left,←,0.48249890000442974,True,29,1
158K23S2,1359,experiment,56,←,left,←,0.4683480999956373,True,29,1
158K23S2,1360,experiment,58,↓,no_key,no_letter,-1.0,False,29,1
158K23S2,1361,experiment,65,↓,down,↓,0.435619099996984,True,29,1
158K23S2,1362,experiment,67,↑,up,↑,0.5157385000202339,True,29,1
158K23S2,1363,experiment,55,↓,up,↑,0.46032529999502003,False,29,1
