PART_ID,Trial_no,Trial_type,CSI,Stim_letter,Key_pressed,letter_choose,Rt,Corr,Stimulus Time,nDropped
158K23S1,1,training,120,↑,left,←,0.5087550000171177,False,60,0
158K23S1,2,training,120,↓,down,↓,0.8576417000149377,True,60,0
158K23S1,3,training,120,→,no_key,no_letter,-1.0,False,60,0
158K23S1,4,training,120,→,right,→,0.6006297999992967,True,60,0
158K23S1,5,training,120,→,right,→,0.542322499997681,True,60,0
158K23S1,6,training,120,↓,down,↓,0.8692647000134457,True,60,0
158K23S1,7,training,120,→,right,→,0.5922058999713045,True,60,0
158K23S1,8,training,120,←,left,←,0.8438426000066102,True,60,0
158K23S1,9,training,120,→,right,→,0.5504651000082958,True,60,0
158K23S1,10,training,120,←,left,←,0.5262851000006776,True,60,0
158K23S1,11,training,120,↓,down,↓,0.5840831999958027,True,60,0
158K23S1,12,training,120,→,right,→,0.9139309000165667,True,60,0
158K23S1,13,training,120,↓,down,↓,0.6088449999806471,True,60,0
158K23S1,14,training,120,→,right,→,0.5171365999849513,True,60,0
158K23S1,15,training,120,→,right,→,0.5671861000009812,True,60,0
158K23S1,16,training,120,↑,up,↑,0.7228499999910127,True,60,0
158K23S1,17,training,120,↓,down,↓,0.7268318999849726,True,60,0
158K23S1,18,training,120,←,no_key,no_letter,-1.0,False,60,0
158K23S1,19,training,120,↓,down,↓,0.9568699999945238,True,60,0
158K23S1,20,training,120,←,left,←,0.5846217000216711,True,60,0
158K23S1,21,no_adaptation,120,←,left,←,0.4505688000062946,True,36,0
158K23S1,22,no_adaptation,120,↓,down,↓,0.5215167000133079,True,36,0
158K23S1,23,no_adaptation,120,↑,up,↑,0.5572553000238258,True,36,0
158K23S1,24,no_adaptation,120,↓,down,↓,0.48788309999508783,True,36,0
158K23S1,25,no_adaptation,120,→,right,→,0.5086555999878328,True,36,0
158K23S1,26,no_adaptation,120,↑,up,↑,0.8091002999863122,True,36,0
158K23S1,27,no_adaptation,120,→,right,→,0.4344342999975197,True,36,0
158K23S1,28,no_adaptation,120,→,no_key,no_letter,-1.0,False,36,0
158K23S1,29,no_adaptation,120,→,right,→,1.1784515000181273,True,36,0
158K23S1,30,no_adaptation,120,↑,up,↑,0.5477849999733735,True,36,0
158K23S1,31,no_adaptation,120,←,left,←,0.4789525000087451,True,36,0
158K23S1,32,no_adaptation,120,←,left,←,0.6358445000078063,True,36,0
158K23S1,33,no_adaptation,120,→,right,→,0.5309343000117224,True,36,0
158K23S1,34,no_adaptation,120,←,left,←,0.6943753999948967,True,36,0
158K23S1,35,no_adaptation,120,↓,down,↓,0.5470970000023954,True,36,0
158K23S1,36,no_adaptation,120,←,left,←,0.44192119999206625,True,36,0
158K23S1,37,no_adaptation,120,↓,down,↓,0.7246192000166047,True,36,0
158K23S1,38,no_adaptation,120,→,right,→,0.5203277000109665,True,36,0
158K23S1,39,no_adaptation,120,↓,down,↓,0.8600669000006747,True,36,0
158K23S1,40,no_adaptation,120,→,right,→,0.48255950000020675,True,36,0
158K23S1,41,training,51,↓,down,↓,0.7443943000107538,True,36,0
158K23S1,42,training,101,←,left,←,0.49769849999574944,True,36,1
158K23S1,43,experiment,108,→,no_key,no_letter,-1.0,False,36,1
158K23S1,44,experiment,65,←,right,→,0.47162009999738075,False,36,1
158K23S1,45,experiment,100,→,right,→,0.6194248999818228,True,36,1
158K23S1,46,experiment,75,←,left,←,0.5383572000137065,True,36,1
158K23S1,47,experiment,107,←,left,←,0.5935801999876276,True,36,1
158K23S1,48,experiment,97,←,left,←,0.4438557000248693,True,36,1
158K23S1,49,experiment,90,→,right,→,0.5386154000007082,True,36,0
158K23S1,50,experiment,74,←,left,←,0.6688511999964248,True,36,1
158K23S1,51,experiment,50,↑,up,↑,0.6340716000122484,True,36,1
158K23S1,52,experiment,89,↑,up,↑,0.4918084000237286,True,36,1
158K23S1,53,experiment,96,←,no_key,no_letter,-1.0,False,36,1
158K23S1,54,experiment,95,→,right,→,0.7076232999970671,True,36,1
158K23S1,55,experiment,87,↓,down,↓,0.6508505999809131,True,36,1
158K23S1,56,experiment,58,←,left,←,0.5421043999958783,True,36,1
158K23S1,57,experiment,93,←,left,←,0.49812570001813583,True,36,1
158K23S1,58,experiment,60,↓,down,↓,0.8346075999725144,True,36,1
158K23S1,59,experiment,51,↑,up,↑,0.48161469999467954,True,36,1
158K23S1,60,experiment,66,↑,up,↑,0.4810316000075545,True,36,1
158K23S1,61,experiment,84,←,left,←,1.0333772000158206,True,36,1
158K23S1,62,experiment,81,←,left,←,0.6778448999975808,True,36,1
158K23S1,63,experiment,72,↓,down,↓,0.6835016999975778,True,36,1
158K23S1,64,experiment,54,→,right,→,0.8147612999891862,True,36,1
158K23S1,65,experiment,68,→,right,→,0.7040392000053544,True,36,1
158K23S1,66,experiment,99,↑,up,↑,0.6195157000038307,True,36,1
158K23S1,67,experiment,83,←,left,←,0.5598392999963835,True,36,1
158K23S1,68,experiment,78,↓,down,↓,0.640085299994098,True,36,1
158K23S1,69,experiment,105,→,right,→,0.7160691000171937,True,36,1
158K23S1,70,experiment,57,→,right,→,0.5010694999946281,True,36,1
158K23S1,71,experiment,49,↑,up,↑,0.8172304999898188,True,36,1
158K23S1,72,experiment,79,→,right,→,0.49493519999668933,True,36,1
158K23S1,73,experiment,103,←,left,←,0.5052164999942761,True,36,1
158K23S1,74,experiment,104,→,right,→,0.5468895999947563,True,36,1
158K23S1,75,experiment,59,↓,down,↓,0.6098256999976002,True,36,1
158K23S1,76,experiment,101,←,no_key,no_letter,-1.0,False,36,1
158K23S1,77,experiment,102,→,left,←,0.529154899995774,False,36,1
158K23S1,78,experiment,63,←,left,←,0.5194277999980841,True,36,1
158K23S1,79,experiment,77,←,left,←,0.48178220001864247,True,36,1
158K23S1,80,experiment,80,↓,down,↓,0.5321640000038315,True,36,1
158K23S1,81,experiment,76,↑,up,↑,0.6539947999990545,True,36,1
158K23S1,82,experiment,55,←,left,←,0.4429325999808498,True,36,1
158K23S1,83,experiment,82,←,left,←,0.5967862000106834,True,36,0
158K23S1,84,experiment,85,↑,no_key,no_letter,-1.0,False,36,1
158K23S1,85,experiment,56,↑,up,↑,0.6568304999964312,True,36,1
158K23S1,86,experiment,106,↑,up,↑,0.4919684999913443,True,36,1
158K23S1,87,experiment,98,↓,up,↑,0.8241697000048589,False,36,1
158K23S1,88,experiment,69,↑,up,↑,0.5368277999805287,True,36,1
158K23S1,89,experiment,73,↑,up,↑,0.683727399999043,True,36,1
158K23S1,90,experiment,94,→,right,→,0.5217650999838952,True,36,1
158K23S1,91,experiment,48,↑,left,←,1.1012839000031818,False,36,1
158K23S1,92,experiment,67,←,left,←,0.5957760000019334,True,36,1
158K23S1,93,experiment,92,↓,down,↓,0.6297646000166424,True,36,1
158K23S1,94,experiment,64,↑,up,↑,0.607754800003022,True,36,1
158K23S1,95,experiment,52,→,right,→,0.8225885000138078,True,36,1
158K23S1,96,experiment,86,↓,down,↓,0.5695538999862038,True,36,1
158K23S1,97,experiment,61,←,left,←,0.5831837999867275,True,36,1
158K23S1,98,experiment,53,←,left,←,0.6146953999996185,True,36,1
158K23S1,99,experiment,88,←,left,←,0.5855308000172954,True,36,1
158K23S1,100,experiment,62,←,left,←,0.48608770000282675,True,36,1
158K23S1,101,experiment,71,↓,down,↓,0.5152197999996133,True,36,1
158K23S1,102,experiment,91,↓,down,↓,0.8328814999840688,True,36,1
158K23S1,103,experiment,70,←,left,←,0.4891126999864355,True,36,1
158K23S1,104,training,82,→,left,←,0.7554200000013225,False,36,0
158K23S1,105,training,85,←,left,←,0.41747320001013577,True,36,1
158K23S1,106,experiment,92,↓,down,↓,0.4749061999900732,True,36,0
158K23S1,107,experiment,76,↓,no_key,no_letter,-1.0,False,36,1
158K23S1,108,experiment,75,←,right,→,0.7438927999755833,False,36,1
158K23S1,109,experiment,106,→,right,→,0.5276695000065956,True,36,1
158K23S1,110,experiment,74,↓,down,↓,0.5225020000070799,True,36,1
158K23S1,111,experiment,100,←,no_key,no_letter,-1.0,False,36,1
158K23S1,112,experiment,94,→,left,←,0.5280892000009771,False,36,1
158K23S1,113,experiment,77,↓,down,↓,0.6740596999879926,True,36,1
158K23S1,114,experiment,88,←,left,←,0.44218650000402704,True,36,1
158K23S1,115,experiment,51,→,right,→,0.599831900006393,True,36,0
158K23S1,116,experiment,55,→,right,→,0.5260401000268757,True,36,1
158K23S1,117,experiment,57,↓,down,↓,0.49469299998600036,True,36,1
158K23S1,118,experiment,108,←,no_key,no_letter,-1.0,False,36,1
158K23S1,119,experiment,101,↓,down,↓,0.5121256999846082,True,36,1
158K23S1,120,experiment,93,↓,down,↓,0.5174207999953069,True,36,1
158K23S1,121,experiment,91,→,right,→,0.6110291999939363,True,36,1
158K23S1,122,experiment,107,→,right,→,0.4800392000179272,True,36,1
158K23S1,123,experiment,90,↓,down,↓,0.5270703000132926,True,36,1
158K23S1,124,experiment,96,↓,no_key,no_letter,-1.0,False,36,1
158K23S1,125,experiment,56,←,left,←,0.778391300002113,True,36,1
158K23S1,126,experiment,48,→,right,→,0.6039850999950431,True,36,1
158K23S1,127,experiment,95,→,right,→,0.5089185000106227,True,36,1
158K23S1,128,experiment,73,↓,down,↓,0.5528464000090025,True,36,1
158K23S1,129,experiment,63,→,no_key,no_letter,-1.0,False,36,1
158K23S1,130,experiment,86,→,right,→,0.564232600008836,True,36,1
158K23S1,131,experiment,89,→,right,→,0.45019329999922775,True,36,1
158K23S1,132,experiment,64,→,right,→,0.5133964999986347,True,36,0
158K23S1,133,experiment,82,↑,down,↓,0.5385308999975678,False,36,1
158K23S1,134,experiment,81,←,left,←,0.49789079997572117,True,36,1
158K23S1,135,experiment,52,↓,down,↓,0.6130906000034884,True,36,1
158K23S1,136,experiment,68,↓,down,↓,0.5103725999942981,True,36,1
158K23S1,137,experiment,71,←,left,←,0.5390187000157312,True,36,1
158K23S1,138,experiment,69,↓,down,↓,0.5350614000053611,True,36,1
158K23S1,139,experiment,66,↓,down,↓,0.5800931999983732,True,36,1
158K23S1,140,experiment,65,↓,down,↓,0.7117072999826632,True,36,1
158K23S1,141,experiment,102,↓,down,↓,0.49797250001574866,True,36,1
158K23S1,142,experiment,58,↓,down,↓,0.6272662999981549,True,36,1
158K23S1,143,experiment,67,→,right,→,0.5165211000130512,True,36,1
158K23S1,144,experiment,80,←,left,←,0.49415569999837317,True,36,1
158K23S1,145,experiment,54,↓,down,↓,0.6407008999958634,True,36,1
158K23S1,146,experiment,60,→,right,→,0.6195395000104327,True,36,1
158K23S1,147,experiment,70,↓,down,↓,0.4688527999969665,True,36,1
158K23S1,148,experiment,79,←,left,←,0.7514366999967024,True,36,0
158K23S1,149,experiment,99,↑,up,↑,0.5772992999991402,True,36,1
158K23S1,150,experiment,85,→,right,→,0.5184029999945778,True,36,1
158K23S1,151,experiment,105,←,left,←,0.5114929999981541,True,36,1
158K23S1,152,experiment,98,↑,up,↑,0.5951189000043087,True,36,1
158K23S1,153,experiment,49,↓,down,↓,0.7556425000075251,True,36,1
158K23S1,154,experiment,50,↑,up,↑,0.5172632000176236,True,36,1
158K23S1,155,experiment,84,↓,down,↓,0.5174370000022464,True,36,1
158K23S1,156,experiment,78,↑,up,↑,0.5511949000065215,True,36,1
158K23S1,157,experiment,97,←,left,←,0.6656424999819137,True,36,1
158K23S1,158,experiment,53,↑,up,↑,0.5737236999848392,True,36,1
158K23S1,159,experiment,104,↑,up,↑,0.45018220000201836,True,36,1
158K23S1,160,experiment,103,←,left,←,0.5207335000159219,True,36,0
158K23S1,161,experiment,72,↓,down,↓,0.5082880000118166,True,36,1
158K23S1,162,experiment,62,→,right,→,0.6598770999989938,True,36,1
158K23S1,163,experiment,59,←,no_key,no_letter,-1.0,False,36,1
158K23S1,164,experiment,87,→,right,→,0.6439442000119016,True,36,1
158K23S1,165,experiment,61,←,left,←,0.582495700014988,True,36,1
158K23S1,166,experiment,83,→,right,→,0.5561484000063501,True,36,1
158K23S1,167,training,92,→,right,→,0.5389917999855243,True,36,0
158K23S1,168,training,55,↑,up,↑,0.5233527999953367,True,36,1
158K23S1,169,experiment,96,↑,up,↑,0.45064969998202287,True,36,1
158K23S1,170,experiment,59,↑,up,↑,0.5455443999962881,True,36,0
158K23S1,171,experiment,85,↑,up,↑,0.4013606999942567,True,36,1
158K23S1,172,experiment,86,↓,down,↓,0.5394397999916691,True,36,0
158K23S1,173,experiment,65,←,left,←,0.5608224000025075,True,36,1
158K23S1,174,experiment,101,←,left,←,0.5212684999860357,True,36,1
158K23S1,175,experiment,80,←,left,←,0.546849199978169,True,36,1
158K23S1,176,experiment,83,←,no_key,no_letter,-1.0,False,36,1
158K23S1,177,experiment,94,↑,up,↑,0.5487659999926109,True,36,1
158K23S1,178,experiment,48,←,left,←,0.47182360000442713,True,36,1
158K23S1,179,experiment,98,↓,down,↓,0.61222509999061,True,36,1
158K23S1,180,experiment,71,↑,no_key,no_letter,-1.0,False,36,1
158K23S1,181,experiment,62,↑,up,↑,0.6102174000116065,True,36,1
158K23S1,182,experiment,60,↑,no_key,no_letter,-1.0,False,36,1
158K23S1,183,experiment,57,→,left,←,0.9898095999960788,False,36,1
158K23S1,184,experiment,56,↑,no_key,no_letter,-1.0,False,36,1
158K23S1,185,experiment,63,←,left,←,0.5215497000026517,True,36,1
158K23S1,186,experiment,89,←,left,←,0.6798096999991685,True,36,1
158K23S1,187,experiment,97,↓,down,↓,0.5888974000117742,True,36,1
158K23S1,188,experiment,53,↓,down,↓,0.5560696000175085,True,36,1
158K23S1,189,experiment,100,→,right,→,0.5651573000068311,True,36,1
158K23S1,190,experiment,95,↑,up,↑,0.5913562999921851,True,36,1
158K23S1,191,experiment,103,←,left,←,0.5179989000025671,True,36,1
158K23S1,192,experiment,49,↓,down,↓,0.569576199981384,True,36,1
158K23S1,193,experiment,66,↑,no_key,no_letter,-1.0,False,36,1
158K23S1,194,experiment,74,←,left,←,0.6072673999879044,True,36,1
158K23S1,195,experiment,67,→,right,→,0.48928500001784414,True,36,1
158K23S1,196,experiment,92,←,left,←,0.7114733000053093,True,36,1
158K23S1,197,experiment,99,←,left,←,0.4674777000036556,True,36,1
158K23S1,198,experiment,93,↑,up,↑,0.5774498000100721,True,36,0
158K23S1,199,experiment,68,→,right,→,0.46888600001693703,True,36,1
158K23S1,200,experiment,77,↑,up,↑,0.5365193999896292,True,36,1
158K23S1,201,experiment,52,↓,down,↓,0.5061852000071667,True,36,1
158K23S1,202,experiment,54,↑,up,↑,0.4689698000147473,True,36,1
158K23S1,203,experiment,78,↓,down,↓,0.5279266000143252,True,36,0
158K23S1,204,experiment,58,→,right,→,0.568200399982743,True,36,1
158K23S1,205,experiment,106,↑,up,↑,0.48702130001038313,True,36,1
158K23S1,206,experiment,81,←,no_key,no_letter,-1.0,False,36,1
158K23S1,207,experiment,104,↓,down,↓,0.5526990999933332,True,36,1
158K23S1,208,experiment,84,↓,down,↓,0.615431800018996,True,36,1
158K23S1,209,experiment,76,↑,up,↑,0.5738797000085469,True,36,1
158K23S1,210,experiment,90,↑,up,↑,1.025532600004226,True,36,1
158K23S1,211,experiment,70,→,right,→,0.5379150999942794,True,36,1
158K23S1,212,experiment,64,→,right,→,0.5838173999800347,True,36,1
158K23S1,213,experiment,55,→,left,←,0.8787250000168569,False,36,1
158K23S1,214,experiment,107,←,left,←,0.6008181000070181,True,36,1
158K23S1,215,experiment,50,↓,down,↓,0.536705600010464,True,36,1
158K23S1,216,experiment,102,↓,down,↓,0.538280599983409,True,36,1
158K23S1,217,experiment,69,→,right,→,0.7259447000105865,True,36,1
158K23S1,218,experiment,87,↑,up,↑,0.5325579000054859,True,36,1
158K23S1,219,experiment,73,↓,up,↑,0.9995168999885209,False,36,1
158K23S1,220,experiment,75,→,right,→,0.5192436999932397,True,36,1
158K23S1,221,experiment,82,↓,down,↓,0.8239136999764014,True,36,1
158K23S1,222,experiment,91,←,left,←,0.4818249999952968,True,36,1
158K23S1,223,experiment,61,↑,up,↑,0.5141285999852698,True,36,1
158K23S1,224,experiment,79,←,left,←,0.400534799991874,True,36,1
158K23S1,225,experiment,51,↑,up,↑,0.491030100005446,True,36,0
158K23S1,226,experiment,108,←,no_key,no_letter,-1.0,False,36,1
158K23S1,227,experiment,88,↓,down,↓,0.5691206000046805,True,36,1
158K23S1,228,experiment,72,←,left,←,0.514944700000342,True,36,1
158K23S1,229,experiment,105,↑,up,↑,0.4685936000023503,True,36,1
158K23S1,230,training,104,←,left,←,0.5583654999791179,True,36,0
158K23S1,231,training,55,←,no_key,no_letter,-1.0,False,36,1
158K23S1,232,experiment,105,↑,up,↑,0.5019121999794152,True,36,1
158K23S1,233,experiment,85,↑,no_key,no_letter,-1.0,False,36,1
158K23S1,234,experiment,93,↑,up,↑,0.426687099999981,True,36,1
158K23S1,235,experiment,108,→,right,→,0.60452280001482,True,36,0
158K23S1,236,experiment,51,↓,up,↑,0.4344606999948155,False,36,1
158K23S1,237,experiment,53,←,left,←,0.5368739000114147,True,36,0
158K23S1,238,experiment,73,↑,up,↑,0.5077120999922045,True,36,1
158K23S1,239,experiment,77,←,left,←,0.606386500003282,True,36,1
158K23S1,240,experiment,95,↑,no_key,no_letter,-1.0,False,36,1
158K23S1,241,experiment,49,←,left,←,0.5930906000139657,True,36,1
158K23S1,242,experiment,99,←,left,←,0.5209775999828707,True,36,1
158K23S1,243,experiment,64,↑,no_key,no_letter,-1.0,False,36,1
158K23S1,244,experiment,54,←,left,←,0.7597084000008181,True,36,1
158K23S1,245,experiment,66,←,left,←,0.42553339997539297,True,36,1
158K23S1,246,experiment,59,→,right,→,0.45046489997184835,True,36,0
158K23S1,247,experiment,91,↑,up,↑,0.7596671000064816,True,36,0
158K23S1,248,experiment,90,↓,down,↓,0.5557351000024937,True,36,1
158K23S1,249,experiment,80,←,left,←,0.7073565000027884,True,36,1
158K23S1,250,experiment,97,↑,up,↑,0.6873827000090387,True,36,1
158K23S1,251,experiment,84,↑,up,↑,0.5447664999810513,True,36,1
158K23S1,252,experiment,74,←,no_key,no_letter,-1.0,False,36,1
158K23S1,253,experiment,89,→,right,→,0.5438500000163913,True,36,1
158K23S1,254,experiment,101,↑,up,↑,0.5210652000096161,True,36,1
158K23S1,255,experiment,82,↑,up,↑,0.6256959000020288,True,36,1
158K23S1,256,experiment,106,←,left,←,0.45066299999598414,True,36,1
158K23S1,257,experiment,92,↑,up,↑,0.5497628999873996,True,36,0
158K23S1,258,experiment,107,→,right,→,0.4851032999868039,True,36,1
158K23S1,259,experiment,94,←,left,←,0.4748879999970086,True,36,1
158K23S1,260,experiment,75,↓,down,↓,0.5906085000024177,True,36,1
158K23S1,261,experiment,81,↑,up,↑,0.4770962999900803,True,36,1
158K23S1,262,experiment,103,↑,up,↑,0.6079450999968685,True,36,1
158K23S1,263,experiment,57,←,left,←,0.4696591000247281,True,36,1
158K23S1,264,experiment,52,↑,up,↑,0.5372776000003796,True,36,0
158K23S1,265,experiment,60,↓,down,↓,0.5201607000199147,True,36,1
158K23S1,266,experiment,83,↓,down,↓,0.560663200012641,True,36,1
158K23S1,267,experiment,96,→,right,→,0.48302159999730065,True,36,1
158K23S1,268,experiment,69,→,right,→,0.48149970002123155,True,36,1
158K23S1,269,experiment,100,→,no_key,no_letter,-1.0,False,36,1
158K23S1,270,experiment,71,↑,up,↑,0.5997505999985151,True,36,1
158K23S1,271,experiment,87,→,right,→,0.46806860002106987,True,36,1
158K23S1,272,experiment,58,↑,up,↑,0.709565900004236,True,36,0
158K23S1,273,experiment,76,←,left,←,0.44959360000211746,True,36,1
158K23S1,274,experiment,72,←,no_key,no_letter,-1.0,False,36,0
158K23S1,275,experiment,50,↓,down,↓,0.7044891999976244,True,36,1
158K23S1,276,experiment,79,↓,down,↓,0.4754891000047792,True,36,1
158K23S1,277,experiment,67,↑,up,↑,0.5057410000008531,True,36,1
158K23S1,278,experiment,68,↓,down,↓,0.519266500021331,True,36,1
158K23S1,279,experiment,86,→,right,→,0.7104980000003707,True,36,1
158K23S1,280,experiment,70,↓,down,↓,0.5315234000154305,True,36,1
158K23S1,281,experiment,63,←,left,←,0.5937128000077792,True,36,1
158K23S1,282,experiment,65,↓,down,↓,0.7010585000098217,True,36,1
158K23S1,283,experiment,61,↑,up,↑,0.5732162999920547,True,36,1
158K23S1,284,experiment,98,→,right,→,0.47876240001642145,True,36,1
158K23S1,285,experiment,78,↑,up,↑,0.45066669999505393,True,36,1
158K23S1,286,experiment,56,↓,down,↓,0.5169746000028681,True,36,0
158K23S1,287,experiment,62,↓,down,↓,0.5002270999830216,True,36,1
158K23S1,288,experiment,104,↑,up,↑,0.8784920999896713,True,36,1
158K23S1,289,experiment,102,→,right,→,0.5299825000111014,True,36,1
158K23S1,290,experiment,88,↓,down,↓,0.5519633999792859,True,36,1
158K23S1,291,experiment,55,↓,down,↓,0.5442730000067968,True,36,1
158K23S1,292,experiment,48,↓,down,↓,0.4989949000009801,True,36,1
158K23S1,293,training,92,→,right,→,0.5075118000095244,True,36,0
158K23S1,294,training,76,→,right,→,0.45052290000603534,True,36,1
158K23S1,295,experiment,102,←,left,←,0.49051109998254105,True,36,0
158K23S1,296,experiment,97,←,left,←,0.4338203999795951,True,36,1
158K23S1,297,experiment,82,↑,up,↑,0.4674407000129577,True,36,0
158K23S1,298,experiment,96,→,right,→,0.4730676999897696,True,36,0
158K23S1,299,experiment,67,↑,up,↑,0.5436196000082418,True,36,1
158K23S1,300,experiment,107,↓,down,↓,0.5509778999839909,True,36,1
158K23S1,301,experiment,89,→,right,→,0.7399190000141971,True,36,1
158K23S1,302,experiment,94,↑,up,↑,0.5276594999886584,True,36,1
158K23S1,303,experiment,65,→,right,→,0.5256045999994967,True,36,1
158K23S1,304,experiment,80,↑,up,↑,0.4421914000122342,True,36,1
158K23S1,305,experiment,66,↑,up,↑,0.4715017999988049,True,36,0
158K23S1,306,experiment,77,↑,up,↑,0.43386600000667386,True,36,0
158K23S1,307,experiment,51,←,left,←,0.520681499998318,True,36,0
158K23S1,308,experiment,83,↓,down,↓,0.6327050999971107,True,36,1
158K23S1,309,experiment,108,↑,up,↑,0.4921784999896772,True,36,1
158K23S1,310,experiment,92,↑,up,↑,0.49849890000768937,True,36,1
158K23S1,311,experiment,53,→,right,→,0.5972079999919515,True,36,1
158K23S1,312,experiment,60,←,left,←,0.5617822000058368,True,36,1
158K23S1,313,experiment,81,↓,down,↓,0.6730850999883842,True,36,1
158K23S1,314,experiment,93,↓,down,↓,0.5998142999887932,True,36,1
158K23S1,315,experiment,74,←,left,←,0.6316927000007126,True,36,1
158K23S1,316,experiment,50,←,left,←,0.4789174000034109,True,36,1
158K23S1,317,experiment,73,↑,up,↑,0.5231790999823716,True,36,1
158K23S1,318,experiment,70,↓,down,↓,0.5754024999914691,True,36,1
158K23S1,319,experiment,52,↓,down,↓,0.5996849999937695,True,36,1
158K23S1,320,experiment,69,↓,down,↓,0.5772167999821249,True,36,1
158K23S1,321,experiment,57,↓,down,↓,0.6879176000074949,True,36,1
158K23S1,322,experiment,76,→,right,→,0.5233693999762181,True,36,1
158K23S1,323,experiment,54,↑,no_key,no_letter,-1.0,False,36,1
158K23S1,324,experiment,87,←,left,←,0.5066686999925878,True,36,1
158K23S1,325,experiment,72,↑,up,↑,0.5106273000128567,True,36,1
158K23S1,326,experiment,95,←,left,←,0.4498023000196554,True,36,1
158K23S1,327,experiment,55,↓,down,↓,0.5911763000185601,True,36,0
158K23S1,328,experiment,99,↑,up,↑,0.47977249999530613,True,36,1
158K23S1,329,experiment,84,↑,up,↑,0.39949710000655614,True,36,1
158K23S1,330,experiment,79,↑,up,↑,0.4002971999871079,True,36,0
158K23S1,331,experiment,85,→,right,→,0.4338461000006646,True,36,0
158K23S1,332,experiment,88,↑,up,↑,0.5157446000084747,True,36,0
158K23S1,333,experiment,68,↑,up,↑,0.45052479999139905,True,36,1
158K23S1,334,experiment,101,←,left,←,0.5257455999962986,True,36,0
158K23S1,335,experiment,78,↑,up,↑,0.40065840000170283,True,36,1
158K23S1,336,experiment,56,→,right,→,0.5727803000190761,True,36,0
158K23S1,337,experiment,100,→,right,→,0.55720989999827,True,36,1
158K23S1,338,experiment,64,→,left,←,0.5463266000151634,False,36,1
158K23S1,339,experiment,59,↓,down,↓,0.5609397999942303,True,36,1
158K23S1,340,experiment,86,←,left,←,0.41724330000579357,True,36,1
158K23S1,341,experiment,61,↓,down,↓,0.6177957000036258,True,36,0
158K23S1,342,experiment,106,→,right,→,0.534376900002826,True,36,1
158K23S1,343,experiment,103,←,left,←,0.5834375999984331,True,36,1
158K23S1,344,experiment,90,↓,down,↓,0.5387445999949705,True,36,1
158K23S1,345,experiment,71,←,right,→,0.51800860001822,False,36,1
158K23S1,346,experiment,58,↓,down,↓,0.5105197000084445,True,36,1
158K23S1,347,experiment,62,↑,up,↑,0.8461991000222042,True,36,1
158K23S1,348,experiment,91,←,left,←,0.574531999998726,True,36,1
158K23S1,349,experiment,105,←,left,←,0.4854156000073999,True,36,1
158K23S1,350,experiment,98,↑,up,↑,0.6895113999780733,True,36,1
158K23S1,351,experiment,63,↓,down,↓,0.5614460000069812,True,36,1
158K23S1,352,experiment,104,←,left,←,0.7211782000085805,True,36,1
158K23S1,353,experiment,75,→,no_key,no_letter,-1.0,False,36,1
158K23S1,354,experiment,48,↓,down,↓,0.5822657999815419,True,36,1
158K23S1,355,experiment,49,→,right,→,0.5270061999908648,True,36,1
158K23S1,356,training,52,→,right,→,0.5472965000080876,True,35,0
158K23S1,357,training,98,↓,down,↓,0.5574017000035383,True,35,1
158K23S1,358,experiment,91,↓,down,↓,0.5294386000023223,True,35,1
158K23S1,359,experiment,73,←,no_key,no_letter,-1.0,False,35,1
158K23S1,360,experiment,54,↑,up,↑,0.6208667999890167,True,35,1
158K23S1,361,experiment,72,↓,down,↓,0.5324442000128329,True,35,1
158K23S1,362,experiment,103,←,left,←,0.5494526000111364,True,35,1
158K23S1,363,experiment,57,→,right,→,0.5730225000006612,True,35,1
158K23S1,364,experiment,60,↑,up,↑,0.47512399998959154,True,35,1
158K23S1,365,experiment,93,←,left,←,0.7292907999944873,True,35,1
158K23S1,366,experiment,55,↓,down,↓,0.5301794999977574,True,35,1
158K23S1,367,experiment,92,←,left,←,0.4635998000157997,True,35,1
158K23S1,368,experiment,62,→,right,→,0.6240503000153694,True,35,0
158K23S1,369,experiment,96,→,right,→,0.6476670999836642,True,35,1
158K23S1,370,experiment,100,→,right,→,0.5090187999885529,True,35,1
158K23S1,371,experiment,58,↑,no_key,no_letter,-1.0,False,35,1
158K23S1,372,experiment,59,←,left,←,0.5009922000172082,True,35,1
158K23S1,373,experiment,65,→,right,→,0.5000288999872282,True,35,1
158K23S1,374,experiment,56,→,right,→,0.5738978000008501,True,35,1
158K23S1,375,experiment,80,→,right,→,0.49266889999853447,True,35,1
158K23S1,376,experiment,82,←,left,←,0.5103258999879472,True,35,1
158K23S1,377,experiment,97,↑,up,↑,0.5701843999850098,True,35,1
158K23S1,378,experiment,64,↓,down,↓,0.5588233000016771,True,35,1
158K23S1,379,experiment,51,→,right,→,0.6241760000120848,True,35,1
158K23S1,380,experiment,70,↓,no_key,no_letter,-1.0,False,35,1
158K23S1,381,experiment,67,→,right,→,0.49272429998381995,True,35,1
158K23S1,382,experiment,74,→,right,→,0.5689199999906123,True,35,1
158K23S1,383,experiment,108,←,left,←,0.4869372000102885,True,35,1
158K23S1,384,experiment,66,↑,down,↓,0.709785799990641,False,35,1
158K23S1,385,experiment,49,↓,down,↓,0.5697670000081416,True,35,1
158K23S1,386,experiment,98,→,right,→,0.49897849999251775,True,35,1
158K23S1,387,experiment,68,→,right,→,0.4656494999944698,True,35,1
158K23S1,388,experiment,88,←,left,←,0.5056353000109084,True,35,1
158K23S1,389,experiment,87,←,left,←,0.4968183000164572,True,35,1
158K23S1,390,experiment,86,←,left,←,0.46545779998996295,True,35,1
158K23S1,391,experiment,52,→,right,→,0.5012577000015881,True,35,1
158K23S1,392,experiment,63,↓,down,↓,0.5968854999809992,True,35,1
158K23S1,393,experiment,95,↑,up,↑,0.517865100002382,True,35,1
158K23S1,394,experiment,48,↓,down,↓,0.6336431999807246,True,35,1
158K23S1,395,experiment,105,→,right,→,0.4943044999963604,True,35,1
158K23S1,396,experiment,84,→,right,→,0.463615300017409,True,35,1
158K23S1,397,experiment,79,↑,up,↑,0.6346001999918371,True,35,1
158K23S1,398,experiment,53,←,left,←,0.5122927000047639,True,35,1
158K23S1,399,experiment,106,→,right,→,0.5051096999959555,True,35,1
158K23S1,400,experiment,69,↑,no_key,no_letter,-1.0,False,35,1
158K23S1,401,experiment,99,↓,down,↓,0.5762251999985892,True,35,1
158K23S1,402,experiment,77,↓,down,↓,0.4961216000083368,True,35,1
158K23S1,403,experiment,101,↓,down,↓,0.5074006000068039,True,35,1
158K23S1,404,experiment,75,↑,up,↑,0.6386961999814957,True,35,1
158K23S1,405,experiment,76,→,right,→,0.6283968999923673,True,35,1
158K23S1,406,experiment,85,←,left,←,0.8876283999998122,True,35,1
158K23S1,407,experiment,90,↑,up,↑,0.5909878000093158,True,35,1
158K23S1,408,experiment,89,←,left,←,0.4668801999941934,True,35,1
158K23S1,409,experiment,94,→,right,→,0.5528079999785405,True,35,1
158K23S1,410,experiment,102,↑,up,↑,0.5373607999936212,True,35,1
158K23S1,411,experiment,107,↓,down,↓,0.5527391000068747,True,35,1
158K23S1,412,experiment,61,←,left,←,0.6709686999965925,True,35,1
158K23S1,413,experiment,104,↓,down,↓,0.5060517000092659,True,35,1
158K23S1,414,experiment,81,←,left,←,0.4833976999798324,True,35,1
158K23S1,415,experiment,71,←,left,←,0.4423580000002403,True,35,1
158K23S1,416,experiment,83,↓,down,↓,0.5158398000057787,True,35,0
158K23S1,417,experiment,78,←,left,←,0.5257019999844488,True,35,1
158K23S1,418,experiment,50,↑,up,↑,0.5845609999960288,True,35,1
158K23S1,419,training,49,↓,down,↓,0.6130700999929104,True,34,0
158K23S1,420,training,49,↑,up,↑,0.48458270000992343,True,34,1
158K23S1,421,experiment,89,↓,down,↓,0.5561919000174385,True,34,1
158K23S1,422,experiment,82,↑,up,↑,0.5631205999816302,True,34,1
158K23S1,423,experiment,58,↑,up,↑,0.4977585999877192,True,34,1
158K23S1,424,experiment,77,←,left,←,0.7086685000103898,True,34,1
158K23S1,425,experiment,103,↑,up,↑,0.40853069999138825,True,34,1
158K23S1,426,experiment,63,↓,down,↓,0.5375594999932218,True,34,0
158K23S1,427,experiment,97,↓,down,↓,0.5005262000195216,True,34,1
158K23S1,428,experiment,48,→,right,→,0.5931109999946784,True,34,1
158K23S1,429,experiment,107,←,left,←,0.46294830000260845,True,34,1
158K23S1,430,experiment,68,↑,up,↑,0.5496054000104778,True,34,1
158K23S1,431,experiment,61,↓,down,↓,0.5238634999841452,True,34,1
158K23S1,432,experiment,72,←,left,←,0.6073808000073768,True,34,1
158K23S1,433,experiment,65,→,right,→,0.5219962999981362,True,34,1
158K23S1,434,experiment,91,→,right,→,0.5112894999911077,True,34,1
158K23S1,435,experiment,100,↓,down,↓,0.5305278000014368,True,34,1
158K23S1,436,experiment,51,←,left,←,0.48448549999739043,True,34,1
158K23S1,437,experiment,92,↑,up,↑,0.6190944999980275,True,34,1
158K23S1,438,experiment,54,→,no_key,no_letter,-1.0,False,34,1
158K23S1,439,experiment,52,←,left,←,0.4340525000006892,True,34,1
158K23S1,440,experiment,94,↓,down,↓,0.5143689999822527,True,34,0
158K23S1,441,experiment,66,↑,up,↑,0.6482165999768768,True,34,1
158K23S1,442,experiment,99,←,left,←,0.5339326999965124,True,34,1
158K23S1,443,experiment,53,→,left,←,0.9833929000014905,False,34,1
158K23S1,444,experiment,69,↓,down,↓,0.633807699981844,True,34,1
158K23S1,445,experiment,67,↓,down,↓,0.5467861999932211,True,34,1
158K23S1,446,experiment,56,→,right,→,0.6185317999916151,True,34,1
158K23S1,447,experiment,95,↑,up,↑,0.5149606000049971,True,34,1
158K23S1,448,experiment,85,→,right,→,0.5385883999988437,True,34,1
158K23S1,449,experiment,78,→,right,→,0.5315253000007942,True,34,1
158K23S1,450,experiment,57,←,left,←,0.5238445999857504,True,34,1
158K23S1,451,experiment,79,↑,up,↑,0.5009755000064615,True,34,1
158K23S1,452,experiment,83,↓,down,↓,0.5419370000017807,True,34,1
158K23S1,453,experiment,50,↓,down,↓,0.6480797000112943,True,34,1
158K23S1,454,experiment,59,→,right,→,0.47514589998172596,True,34,1
158K23S1,455,experiment,101,↑,up,↑,0.4949395000003278,True,34,1
158K23S1,456,experiment,62,←,left,←,0.4951725999999326,True,34,1
158K23S1,457,experiment,49,→,right,→,0.5558121000067331,True,34,1
158K23S1,458,experiment,88,←,left,←,0.48868390001007356,True,34,1
158K23S1,459,experiment,90,→,right,→,0.5277733000111766,True,34,1
158K23S1,460,experiment,64,←,no_key,no_letter,-1.0,False,34,1
158K23S1,461,experiment,75,↑,up,↑,0.5119621000194456,True,34,1
158K23S1,462,experiment,86,→,right,→,0.5276900999888312,True,34,1
158K23S1,463,experiment,74,→,right,→,0.4826869000098668,True,34,1
158K23S1,464,experiment,108,↑,up,↑,0.6038159999880008,True,34,1
158K23S1,465,experiment,105,←,no_key,no_letter,-1.0,False,34,1
158K23S1,466,experiment,81,→,right,→,0.4737336999969557,True,34,1
158K23S1,467,experiment,102,↓,down,↓,0.6373018999875057,True,34,1
158K23S1,468,experiment,73,→,right,→,0.46829769999021664,True,34,1
158K23S1,469,experiment,84,←,left,←,0.5078538000234403,True,34,1
158K23S1,470,experiment,71,←,no_key,no_letter,-1.0,False,34,1
158K23S1,471,experiment,55,→,right,→,0.6013382000091951,True,34,1
158K23S1,472,experiment,98,↓,down,↓,0.6331676999980118,True,34,1
158K23S1,473,experiment,104,→,right,→,0.47003850000328384,True,34,1
158K23S1,474,experiment,80,→,right,→,0.5450620999909006,True,34,1
158K23S1,475,experiment,60,↑,up,↑,0.6239026999974158,True,34,1
158K23S1,476,experiment,96,↑,up,↑,0.47168310001143254,True,34,1
158K23S1,477,experiment,76,↑,up,↑,0.45241619998705573,True,34,1
158K23S1,478,experiment,93,→,right,→,0.49115200000233017,True,34,0
158K23S1,479,experiment,70,←,left,←,0.43389320001006126,True,34,1
158K23S1,480,experiment,87,↓,down,↓,0.5307566000265069,True,34,0
158K23S1,481,experiment,106,←,left,←,0.6665747000079136,True,34,1
158K23S1,482,training,79,↓,down,↓,0.5364378999802284,True,33,0
158K23S1,483,training,103,→,right,→,0.5773127000138629,True,33,1
158K23S1,484,experiment,59,↓,down,↓,0.4952324000187218,True,33,1
158K23S1,485,experiment,101,→,no_key,no_letter,-1.0,False,33,1
158K23S1,486,experiment,83,→,right,→,0.4510086000082083,True,33,1
158K23S1,487,experiment,55,→,no_key,no_letter,-1.0,False,33,1
158K23S1,488,experiment,71,↓,down,↓,0.4508384000218939,True,33,1
158K23S1,489,experiment,48,↑,up,↑,0.6484086000127718,True,33,1
158K23S1,490,experiment,64,←,left,←,0.5136105999990832,True,33,1
158K23S1,491,experiment,96,↓,down,↓,0.5496760999958497,True,33,1
158K23S1,492,experiment,103,↓,down,↓,0.6379807000048459,True,33,1
158K23S1,493,experiment,65,↓,down,↓,0.6555770999984816,True,33,1
158K23S1,494,experiment,60,→,right,→,0.4659950000059325,True,33,1
158K23S1,495,experiment,57,←,left,←,0.45305899999220856,True,33,1
158K23S1,496,experiment,88,↑,up,↑,0.5017243000038434,True,33,1
158K23S1,497,experiment,104,←,left,←,0.448237100004917,True,33,1
158K23S1,498,experiment,99,↑,up,↑,0.55725490002078,True,33,1
158K23S1,499,experiment,56,↓,down,↓,0.6127628000103869,True,33,1
158K23S1,500,experiment,86,←,no_key,no_letter,-1.0,False,33,1
158K23S1,501,experiment,62,↓,down,↓,0.559029099997133,True,33,1
158K23S1,502,experiment,70,↑,up,↑,0.5856971999746747,True,33,1
158K23S1,503,experiment,72,←,left,←,0.5231960999954026,True,33,1
158K23S1,504,experiment,54,↓,down,↓,0.5485437999886926,True,33,1
158K23S1,505,experiment,98,↓,down,↓,0.5664223000057973,True,33,1
158K23S1,506,experiment,77,←,left,←,0.4947282999928575,True,33,1
158K23S1,507,experiment,100,↑,up,↑,0.5624368999851868,True,33,1
158K23S1,508,experiment,63,↑,up,↑,0.5437169999931939,True,33,1
158K23S1,509,experiment,53,↑,up,↑,0.5848658999893814,True,33,1
158K23S1,510,experiment,93,↓,down,↓,0.5714106000086758,True,33,1
158K23S1,511,experiment,97,←,left,←,0.6045265999855474,True,33,1
158K23S1,512,experiment,102,↓,down,↓,0.5549306999891996,True,33,1
158K23S1,513,experiment,95,↓,down,↓,0.6775677000114229,True,33,1
158K23S1,514,experiment,94,→,right,→,0.6278992999868933,True,33,1
158K23S1,515,experiment,74,↓,down,↓,0.4828630000120029,True,33,1
158K23S1,516,experiment,87,→,right,→,0.6591665000014473,True,33,1
158K23S1,517,experiment,76,↓,down,↓,0.49601889998302795,True,33,1
158K23S1,518,experiment,61,←,left,←,0.5922988000093028,True,33,1
158K23S1,519,experiment,75,↓,down,↓,0.4723641000164207,True,33,1
158K23S1,520,experiment,90,↓,down,↓,0.48786399999517016,True,33,1
158K23S1,521,experiment,107,→,right,→,0.5371900000027381,True,33,1
158K23S1,522,experiment,80,→,right,→,0.48977640000521205,True,33,1
158K23S1,523,experiment,69,←,left,←,0.42537719997926615,True,33,1
158K23S1,524,experiment,106,←,left,←,0.6756816999986768,True,33,0
158K23S1,525,experiment,78,→,right,→,0.5513140000111889,True,33,1
158K23S1,526,experiment,68,↑,up,↑,0.523365900007775,True,33,1
158K23S1,527,experiment,79,←,left,←,0.5085017000092193,True,33,1
158K23S1,528,experiment,105,→,right,→,0.4858494999934919,True,33,1
158K23S1,529,experiment,49,↓,down,↓,0.4987239000038244,True,33,1
158K23S1,530,experiment,81,↓,down,↓,0.6523944000073243,True,33,1
158K23S1,531,experiment,92,↓,down,↓,0.5403210000076797,True,33,1
158K23S1,532,experiment,66,→,no_key,no_letter,-1.0,False,33,1
158K23S1,533,experiment,67,→,right,→,0.46243660000618547,True,33,1
158K23S1,534,experiment,91,→,right,→,0.39192919997731224,True,33,1
158K23S1,535,experiment,84,↑,up,↑,0.5467809000110719,True,33,0
158K23S1,536,experiment,73,↑,up,↑,0.41716290000476874,True,33,1
158K23S1,537,experiment,108,↑,no_key,no_letter,-1.0,False,33,0
158K23S1,538,experiment,50,↓,up,↑,0.7394221000140533,False,33,1
158K23S1,539,experiment,51,↑,up,↑,0.5493190000124741,True,33,1
158K23S1,540,experiment,52,→,right,→,0.63042630002019,True,33,1
158K23S1,541,experiment,89,↓,down,↓,0.560380900016753,True,33,1
158K23S1,542,experiment,85,↓,down,↓,0.5261265000153799,True,33,1
158K23S1,543,experiment,82,←,left,←,0.5183594999834895,True,33,1
158K23S1,544,experiment,58,←,left,←,0.47891959999105893,True,33,1
158K23S1,545,training,67,←,left,←,0.5532354000024498,True,32,0
158K23S1,546,training,102,↓,down,↓,0.5057821999944281,True,32,1
158K23S1,547,experiment,105,←,right,→,0.4830835000029765,False,32,1
158K23S1,548,experiment,83,←,no_key,no_letter,-1.0,False,32,1
158K23S1,549,experiment,87,→,right,→,0.45211270000436343,True,32,1
158K23S1,550,experiment,79,↑,up,↑,0.5193855999968946,True,32,1
158K23S1,551,experiment,91,→,right,→,0.501015699992422,True,32,1
158K23S1,552,experiment,76,↑,up,↑,0.5762795000046026,True,32,1
158K23S1,553,experiment,71,↑,up,↑,0.4348980000067968,True,32,1
158K23S1,554,experiment,59,↓,down,↓,0.5496480999863707,True,32,0
158K23S1,555,experiment,81,↓,down,↓,0.5010679000115488,True,32,1
158K23S1,556,experiment,93,←,left,←,0.6106075999850873,True,32,1
158K23S1,557,experiment,106,↑,up,↑,0.44030459999339655,True,32,1
158K23S1,558,experiment,55,←,left,←,0.4522814000083599,True,32,1
158K23S1,559,experiment,80,→,right,→,0.4794355999911204,True,32,1
158K23S1,560,experiment,63,↑,up,↑,0.7836478999815881,True,32,1
158K23S1,561,experiment,62,→,right,→,0.46838110001408495,True,32,1
158K23S1,562,experiment,95,↓,down,↓,0.49867420000373386,True,32,1
158K23S1,563,experiment,88,↑,up,↑,0.45013969999854453,True,32,1
158K23S1,564,experiment,99,↑,up,↑,0.4480570000014268,True,32,1
158K23S1,565,experiment,82,←,no_key,no_letter,-1.0,False,32,1
158K23S1,566,experiment,96,↑,up,↑,0.526543899992248,True,32,1
158K23S1,567,experiment,48,↓,down,↓,0.6500082999991719,True,32,1
158K23S1,568,experiment,101,↓,down,↓,0.5350734999810811,True,32,1
158K23S1,569,experiment,84,↑,up,↑,0.5263841999985743,True,32,1
158K23S1,570,experiment,53,↑,up,↑,0.4407218999986071,True,32,1
158K23S1,571,experiment,56,↑,no_key,no_letter,-1.0,False,32,0
158K23S1,572,experiment,69,↑,up,↑,0.4494966999918688,True,32,1
158K23S1,573,experiment,49,↓,down,↓,0.6472733000118751,True,32,1
158K23S1,574,experiment,107,↑,up,↑,0.4664262000005692,True,32,1
158K23S1,575,experiment,51,→,right,→,0.4790394000010565,True,32,1
158K23S1,576,experiment,97,↓,down,↓,0.5401254000025801,True,32,1
158K23S1,577,experiment,64,←,left,←,0.6737520000024233,True,32,1
158K23S1,578,experiment,65,↑,up,↑,0.5136777999869082,True,32,1
158K23S1,579,experiment,75,←,left,←,0.732562000019243,True,32,1
158K23S1,580,experiment,58,↓,down,↓,0.516507999971509,True,32,1
158K23S1,581,experiment,86,↓,down,↓,0.5958788999996614,True,32,1
158K23S1,582,experiment,72,↑,up,↑,0.5723997000022791,True,32,1
158K23S1,583,experiment,66,←,left,←,0.44058500000392087,True,32,1
158K23S1,584,experiment,61,←,left,←,0.4171853000007104,True,32,0
158K23S1,585,experiment,68,→,right,→,0.5154446999949869,True,32,0
158K23S1,586,experiment,54,↑,up,↑,0.5172291999915615,True,32,1
158K23S1,587,experiment,94,↓,down,↓,0.4980952000187244,True,32,1
158K23S1,588,experiment,57,↑,up,↑,0.47538290001102723,True,32,1
158K23S1,589,experiment,98,↓,down,↓,0.504382799990708,True,32,1
158K23S1,590,experiment,108,←,left,←,0.528810899995733,True,32,1
158K23S1,591,experiment,73,↑,up,↑,0.4522540000034496,True,32,1
158K23S1,592,experiment,103,↓,down,↓,0.5280050000001211,True,32,1
158K23S1,593,experiment,78,→,right,→,0.5216186999750789,True,32,1
158K23S1,594,experiment,85,↓,down,↓,0.5209106999973301,True,32,1
158K23S1,595,experiment,52,→,left,←,0.594957199995406,False,32,1
158K23S1,596,experiment,102,↑,up,↑,0.5300722999963909,True,32,1
158K23S1,597,experiment,50,↓,down,↓,0.5087029999995138,True,32,1
158K23S1,598,experiment,77,↑,up,↑,0.5191930000146385,True,32,1
158K23S1,599,experiment,90,↑,up,↑,0.5091399000084493,True,32,1
158K23S1,600,experiment,100,↓,down,↓,0.5601486999948975,True,32,1
158K23S1,601,experiment,70,→,right,→,0.56309130002046,True,32,1
158K23S1,602,experiment,89,←,left,←,0.43988329998683184,True,32,1
158K23S1,603,experiment,74,←,left,←,0.4935887999890838,True,32,0
158K23S1,604,experiment,67,→,right,→,0.5481000999861863,True,32,1
158K23S1,605,experiment,104,↓,down,↓,0.5082756000047084,True,32,1
158K23S1,606,experiment,92,→,down,↓,0.8098103000083938,False,32,1
158K23S1,607,experiment,60,↓,down,↓,0.6220702000136953,True,32,1
158K23S1,608,training,95,←,left,←,0.5750533000100404,True,31,0
158K23S1,609,training,61,↓,down,↓,0.5325087000092026,True,31,1
158K23S1,610,experiment,91,←,left,←,0.4492829999944661,True,31,1
158K23S1,611,experiment,108,←,no_key,no_letter,-1.0,False,31,1
158K23S1,612,experiment,80,↓,down,↓,0.541340499999933,True,31,1
158K23S1,613,experiment,79,←,left,←,0.4459208000043873,True,31,1
158K23S1,614,experiment,98,↓,down,↓,0.47567320000962354,True,31,1
158K23S1,615,experiment,84,↓,down,↓,0.4694796999974642,True,31,1
158K23S1,616,experiment,58,↑,up,↑,0.6160477999947034,True,31,1
158K23S1,617,experiment,57,↓,down,↓,0.5087753999978304,True,31,1
158K23S1,618,experiment,65,←,left,←,0.40885940002044663,True,31,1
158K23S1,619,experiment,103,↑,up,↑,0.6490372999978717,True,31,0
158K23S1,620,experiment,93,↓,down,↓,0.5046334000071511,True,31,1
158K23S1,621,experiment,76,↑,up,↑,0.4996271000127308,True,31,1
158K23S1,622,experiment,63,←,left,←,0.49908390000928193,True,31,1
158K23S1,623,experiment,86,→,right,→,0.4749967999814544,True,31,1
158K23S1,624,experiment,56,↑,up,↑,0.49387099998421036,True,31,1
158K23S1,625,experiment,59,↓,down,↓,0.6231510000070557,True,31,1
158K23S1,626,experiment,77,↑,up,↑,0.5090528999862727,True,31,1
158K23S1,627,experiment,64,←,left,←,0.4441782000067178,True,31,1
158K23S1,628,experiment,102,↑,up,↑,0.44879260001471266,True,31,1
158K23S1,629,experiment,90,↑,up,↑,0.4492217999941204,True,31,1
158K23S1,630,experiment,75,↓,down,↓,0.6068120999843813,True,31,1
158K23S1,631,experiment,67,↑,up,↑,0.456741800007876,True,31,1
158K23S1,632,experiment,81,←,left,←,0.5799470000201836,True,31,1
158K23S1,633,experiment,105,↑,up,↑,0.46627380000427365,True,31,1
158K23S1,634,experiment,62,←,left,←,0.4595852000056766,True,31,1
158K23S1,635,experiment,69,↓,down,↓,0.5626708999916445,True,31,1
158K23S1,636,experiment,96,←,left,←,0.4088349000085145,True,31,1
158K23S1,637,experiment,60,↑,up,↑,0.4566913000016939,True,31,0
158K23S1,638,experiment,78,←,left,←,0.42952899998635985,True,31,1
158K23S1,639,experiment,87,→,right,→,0.7591074999945704,True,31,1
158K23S1,640,experiment,52,→,right,→,0.5600761999958195,True,31,1
158K23S1,641,experiment,97,←,no_key,no_letter,-1.0,False,31,1
158K23S1,642,experiment,106,↑,up,↑,0.5468270000128541,True,31,1
158K23S1,643,experiment,68,←,no_key,no_letter,-1.0,False,31,1
158K23S1,644,experiment,74,↑,up,↑,0.5141576000023633,True,31,1
158K23S1,645,experiment,100,↓,down,↓,0.588862100004917,True,31,1
158K23S1,646,experiment,85,→,right,→,0.4895101999863982,True,31,1
158K23S1,647,experiment,50,↓,down,↓,0.5977878000121564,True,31,1
158K23S1,648,experiment,89,→,right,→,0.5046201999939512,True,31,1
158K23S1,649,experiment,53,←,left,←,0.4514315999986138,True,31,1
158K23S1,650,experiment,70,←,left,←,0.46622760000173,True,31,1
158K23S1,651,experiment,95,↓,down,↓,0.5926421000040136,True,31,1
158K23S1,652,experiment,73,↓,down,↓,0.5691971000051126,True,31,1
158K23S1,653,experiment,107,→,right,→,0.4876442999811843,True,31,1
158K23S1,654,experiment,94,→,right,→,0.3922041999758221,True,31,1
158K23S1,655,experiment,82,←,left,←,0.45879360000253655,True,31,0
158K23S1,656,experiment,101,↓,down,↓,0.5435014999820851,True,31,1
158K23S1,657,experiment,71,↓,down,↓,0.5547046000137925,True,31,1
158K23S1,658,experiment,48,↑,up,↑,0.5648691999958828,True,31,1
158K23S1,659,experiment,99,→,left,←,1.1019900999963284,False,31,1
158K23S1,660,experiment,49,↑,up,↑,0.5305537999956869,True,31,1
158K23S1,661,experiment,88,↑,up,↑,0.5202570999972522,True,31,1
158K23S1,662,experiment,54,↑,up,↑,0.5941119999915827,True,31,1
158K23S1,663,experiment,92,→,right,→,0.492383200005861,True,31,1
158K23S1,664,experiment,51,→,no_key,no_letter,-1.0,False,31,1
158K23S1,665,experiment,72,←,left,←,0.4924322000006214,True,31,1
158K23S1,666,experiment,61,↓,down,↓,0.6208336000272539,True,31,1
158K23S1,667,experiment,66,→,no_key,no_letter,-1.0,False,31,1
158K23S1,668,experiment,55,↑,up,↑,0.7041005000064615,True,31,1
158K23S1,669,experiment,104,←,left,←,0.44202459999360144,True,31,1
158K23S1,670,experiment,83,↑,up,↑,0.4775128999899607,True,31,1
158K23S1,671,training,104,↑,up,↑,0.5864368999900762,True,30,0
158K23S1,672,training,54,↓,down,↓,0.6014195999887306,True,30,1
158K23S1,673,experiment,95,↑,up,↑,0.41910930001176894,True,30,1
158K23S1,674,experiment,69,↓,down,↓,0.5869055000075605,True,30,0
158K23S1,675,experiment,103,←,left,←,0.497954699996626,True,30,1
158K23S1,676,experiment,71,→,right,→,0.5429455999983475,True,30,1
158K23S1,677,experiment,86,←,no_key,no_letter,-1.0,False,30,1
158K23S1,678,experiment,56,→,left,←,0.4324436000024434,False,30,1
158K23S1,679,experiment,51,→,right,→,0.4769590999931097,True,30,1
158K23S1,680,experiment,81,↓,down,↓,0.5115732999984175,True,30,1
158K23S1,681,experiment,59,↓,down,↓,0.48799620001227595,True,30,1
158K23S1,682,experiment,90,↓,down,↓,0.4874388999887742,True,30,1
158K23S1,683,experiment,64,→,right,→,0.5350425999786239,True,30,1
158K23S1,684,experiment,49,←,left,←,0.5057262000045739,True,30,1
158K23S1,685,experiment,93,→,right,→,0.423671500000637,True,30,1
158K23S1,686,experiment,57,→,right,→,0.4200569000095129,True,30,0
158K23S1,687,experiment,83,↓,down,↓,0.7354551999887917,True,30,1
158K23S1,688,experiment,92,↓,down,↓,0.49219230000744574,True,30,1
158K23S1,689,experiment,80,→,right,→,1.3585328999906778,True,30,1
158K23S1,690,experiment,54,↑,up,↑,1.0069380000059027,True,30,1
158K23S1,691,experiment,60,→,left,←,0.4593084999942221,False,30,1
158K23S1,692,experiment,106,↑,up,↑,0.48685119999572635,True,30,1
158K23S1,693,experiment,91,→,right,→,0.5012855000095442,True,30,1
158K23S1,694,experiment,53,→,right,→,0.44833839999046177,True,30,1
158K23S1,695,experiment,96,←,left,←,0.49472919999971054,True,30,1
158K23S1,696,experiment,58,→,right,→,0.464290699979756,True,30,1
158K23S1,697,experiment,87,↑,up,↑,0.49730290001025423,True,30,1
158K23S1,698,experiment,79,↑,up,↑,0.5314019999932498,True,30,1
158K23S1,699,experiment,63,↓,down,↓,0.5376580000156537,True,30,1
158K23S1,700,experiment,85,→,right,→,0.39197490000515245,True,30,1
158K23S1,701,experiment,104,→,right,→,0.4461866000201553,True,30,0
158K23S1,702,experiment,102,←,left,←,0.47492029998102225,True,30,1
158K23S1,703,experiment,48,←,left,←,0.4887770999921486,True,30,1
158K23S1,704,experiment,101,←,left,←,0.651744000002509,True,30,1
158K23S1,705,experiment,75,←,left,←,0.4178775000036694,True,30,1
158K23S1,706,experiment,55,←,no_key,no_letter,-1.0,False,30,0
158K23S1,707,experiment,108,←,right,→,0.47906240000156686,False,30,1
158K23S1,708,experiment,82,←,left,←,0.5931985999923199,True,30,1
158K23S1,709,experiment,76,↑,up,↑,0.46486899998853914,True,30,1
158K23S1,710,experiment,62,↓,no_key,no_letter,-1.0,False,30,1
158K23S1,711,experiment,66,→,right,→,0.6725197000196204,True,30,1
158K23S1,712,experiment,52,←,left,←,0.48484979997738265,True,30,1
158K23S1,713,experiment,73,←,left,←,0.4007348000013735,True,30,1
158K23S1,714,experiment,78,↑,no_key,no_letter,-1.0,False,30,0
158K23S1,715,experiment,50,↑,up,↑,0.571579000010388,True,30,1
158K23S1,716,experiment,72,↑,up,↑,0.429452600015793,True,30,1
158K23S1,717,experiment,88,→,right,→,0.4950373000174295,True,30,1
158K23S1,718,experiment,67,→,right,→,0.42967170002521016,True,30,1
158K23S1,719,experiment,94,→,left,←,0.589836999977706,False,30,1
158K23S1,720,experiment,74,↑,no_key,no_letter,-1.0,False,30,1
158K23S1,721,experiment,61,←,left,←,0.5741845000011381,True,30,1
158K23S1,722,experiment,97,↓,down,↓,0.5834564999968279,True,30,1
158K23S1,723,experiment,107,→,right,→,0.5012213000154588,True,30,1
158K23S1,724,experiment,99,→,right,→,0.43313859999761917,True,30,1
158K23S1,725,experiment,89,↑,up,↑,0.4270618000009563,True,30,1
158K23S1,726,experiment,84,←,left,←,0.46169470000313595,True,30,1
158K23S1,727,experiment,65,←,no_key,no_letter,-1.0,False,30,1
158K23S1,728,experiment,68,←,right,→,0.5159502000024077,False,30,1
158K23S1,729,experiment,98,←,left,←,0.3922894000133965,True,30,1
158K23S1,730,experiment,70,↓,up,↑,0.9363909999956377,False,30,0
158K23S1,731,experiment,77,↑,up,↑,0.4269390999979805,True,30,1
158K23S1,732,experiment,105,←,left,←,0.3756118999735918,True,30,1
158K23S1,733,experiment,100,↑,up,↑,0.4002342000021599,True,30,0
158K23S1,734,training,67,→,right,→,0.449763200012967,True,30,0
158K23S1,735,training,86,←,left,←,0.47558299999218434,True,30,1
158K23S1,736,experiment,62,←,no_key,no_letter,-1.0,False,30,1
158K23S1,737,experiment,101,→,right,→,0.4953613999823574,True,30,1
158K23S1,738,experiment,83,←,left,←,0.4328333999728784,True,30,1
158K23S1,739,experiment,53,↑,down,↓,0.5983746999991126,False,30,1
158K23S1,740,experiment,68,↑,up,↑,0.4800552999950014,True,30,1
158K23S1,741,experiment,65,→,right,→,0.6475704000040423,True,30,1
158K23S1,742,experiment,100,→,right,→,0.46090219999314286,True,30,1
158K23S1,743,experiment,48,↑,up,↑,0.4196014999761246,True,30,1
158K23S1,744,experiment,103,↑,up,↑,0.42484479999984615,True,30,0
158K23S1,745,experiment,55,↑,up,↑,0.4004292000026908,True,30,1
158K23S1,746,experiment,79,→,right,→,0.4834344999981113,True,30,0
158K23S1,747,experiment,106,↑,up,↑,0.461442600004375,True,30,1
158K23S1,748,experiment,95,↓,down,↓,0.6200743000081275,True,30,1
158K23S1,749,experiment,81,↑,up,↑,0.5930179000133649,True,30,1
158K23S1,750,experiment,64,→,right,→,0.47681170000578277,True,30,1
158K23S1,751,experiment,73,←,left,←,0.4978240999917034,True,30,1
158K23S1,752,experiment,84,←,left,←,0.4347841000126209,True,30,1
158K23S1,753,experiment,60,↓,down,↓,0.5493981000036001,True,30,1
158K23S1,754,experiment,96,←,left,←,0.46395569999003783,True,30,1
158K23S1,755,experiment,49,→,right,→,0.46139499999117106,True,30,1
158K23S1,756,experiment,94,←,left,←,0.44449209998128936,True,30,1
158K23S1,757,experiment,51,↑,up,↑,0.5464429999992717,True,30,1
158K23S1,758,experiment,85,↓,down,↓,0.5765054000075907,True,30,1
158K23S1,759,experiment,104,↓,down,↓,0.5275740000070073,True,30,1
158K23S1,760,experiment,89,←,left,←,0.5015029000060167,True,30,1
158K23S1,761,experiment,76,→,right,→,0.44875490001868457,True,30,1
158K23S1,762,experiment,82,←,left,←,0.46794850000878796,True,30,1
158K23S1,763,experiment,86,←,left,←,0.6932992000074591,True,30,1
158K23S1,764,experiment,52,←,right,→,0.4255187999806367,False,30,1
158K23S1,765,experiment,75,↓,no_key,no_letter,-1.0,False,30,1
158K23S1,766,experiment,74,↑,up,↑,0.7550336999993306,True,30,1
158K23S1,767,experiment,67,↓,down,↓,0.5348065000143833,True,30,1
158K23S1,768,experiment,80,↑,up,↑,0.5194088999996893,True,30,1
158K23S1,769,experiment,69,↑,up,↑,0.4443242999841459,True,30,1
158K23S1,770,experiment,105,↓,down,↓,0.5443110000051092,True,30,1
158K23S1,771,experiment,107,→,right,→,0.5676181000017095,True,30,1
158K23S1,772,experiment,70,↑,up,↑,0.4344576000003144,True,30,1
158K23S1,773,experiment,78,↑,no_key,no_letter,-1.0,False,30,1
158K23S1,774,experiment,58,↑,up,↑,0.6324545000097714,True,30,1
158K23S1,775,experiment,66,↓,down,↓,0.7057294999831356,True,30,1
158K23S1,776,experiment,61,←,left,←,0.6176701999793295,True,30,1
158K23S1,777,experiment,71,→,right,→,0.4579865999985486,True,30,1
158K23S1,778,experiment,87,←,left,←,0.4912794000119902,True,30,1
158K23S1,779,experiment,77,↑,up,↑,0.5345285999937914,True,30,1
158K23S1,780,experiment,54,→,right,→,0.5996909999812488,True,30,1
158K23S1,781,experiment,63,↓,down,↓,0.5552495000010822,True,30,1
158K23S1,782,experiment,91,↓,up,↑,0.6792175000009593,False,30,1
158K23S1,783,experiment,93,↓,down,↓,0.550009400001727,True,30,1
158K23S1,784,experiment,99,→,right,→,0.5196129000105429,True,30,1
158K23S1,785,experiment,97,↑,up,↑,0.49127040000166744,True,30,1
158K23S1,786,experiment,56,↓,down,↓,0.5094332000007853,True,30,1
158K23S1,787,experiment,102,→,right,→,0.4877707000123337,True,30,1
158K23S1,788,experiment,50,←,left,←,0.5079598999873269,True,30,1
158K23S1,789,experiment,108,↑,up,↑,0.46822270000120625,True,30,1
158K23S1,790,experiment,92,↓,down,↓,0.5476097999780905,True,30,1
158K23S1,791,experiment,88,↓,down,↓,0.5688347000104841,True,30,1
158K23S1,792,experiment,59,↑,up,↑,0.5190912999969441,True,30,1
158K23S1,793,experiment,57,←,left,←,0.5599448999855667,True,30,1
158K23S1,794,experiment,72,↓,down,↓,0.5542152999842074,True,30,1
158K23S1,795,experiment,90,←,left,←,0.5025633000186644,True,30,1
158K23S1,796,experiment,98,←,left,←,0.4425667999894358,True,30,1
158K23S1,797,training,104,←,left,←,0.4840128000068944,True,29,0
158K23S1,798,training,85,←,left,←,0.4527490000182297,True,29,1
158K23S1,799,experiment,81,↓,down,↓,0.5443664999911562,True,29,1
158K23S1,800,experiment,74,→,right,→,0.6666102000162937,True,29,1
158K23S1,801,experiment,82,↑,up,↑,0.437303000013344,True,29,1
158K23S1,802,experiment,98,→,right,→,0.45953069999814034,True,29,1
158K23S1,803,experiment,60,→,right,→,0.48575620001065545,True,29,1
158K23S1,804,experiment,75,←,left,←,0.48203530002501793,True,29,1
158K23S1,805,experiment,92,↑,up,↑,0.42488949999096803,True,29,1
158K23S1,806,experiment,99,→,right,→,0.5912185999914072,True,29,1
158K23S1,807,experiment,48,↑,up,↑,0.43240910000167787,True,29,1
158K23S1,808,experiment,104,→,right,→,0.524766600021394,True,29,1
158K23S1,809,experiment,69,↓,down,↓,0.6978159999998752,True,29,1
158K23S1,810,experiment,97,→,right,→,0.4378471999953035,True,29,1
158K23S1,811,experiment,105,↓,down,↓,0.5456779999949504,True,29,1
158K23S1,812,experiment,101,←,left,←,0.47467679998953827,True,29,1
158K23S1,813,experiment,49,←,left,←,0.47993219998897985,True,29,1
158K23S1,814,experiment,85,→,right,→,0.5688784000230953,True,29,1
158K23S1,815,experiment,53,↓,down,↓,0.5612124000035692,True,29,1
158K23S1,816,experiment,93,↑,up,↑,0.6842180999810807,True,29,1
158K23S1,817,experiment,88,→,right,→,0.548324400006095,True,29,1
158K23S1,818,experiment,89,↑,up,↑,0.47323110001161695,True,29,1
158K23S1,819,experiment,91,↓,down,↓,0.5765751000144519,True,29,1
158K23S1,820,experiment,76,↓,down,↓,0.5609528000059072,True,29,1
158K23S1,821,experiment,72,↓,down,↓,0.6271144000056665,True,29,1
158K23S1,822,experiment,108,↑,up,↑,0.49484189998474903,True,29,1
158K23S1,823,experiment,87,↓,down,↓,0.527226599981077,True,29,1
158K23S1,824,experiment,56,↓,down,↓,0.695674799993867,True,29,1
158K23S1,825,experiment,61,→,right,→,0.4799766000069212,True,29,1
158K23S1,826,experiment,102,↑,up,↑,0.5392872999946121,True,29,1
158K23S1,827,experiment,57,→,right,→,0.45117310000932775,True,29,1
158K23S1,828,experiment,73,↓,down,↓,0.5373512000078335,True,29,1
158K23S1,829,experiment,64,↑,up,↑,0.4709079999884125,True,29,1
158K23S1,830,experiment,70,←,left,←,0.44518810001318343,True,29,1
158K23S1,831,experiment,107,↑,up,↑,0.42449089998262934,True,29,1
158K23S1,832,experiment,80,←,left,←,0.47711840001284145,True,29,1
158K23S1,833,experiment,77,↑,up,↑,0.4649071999883745,True,29,1
158K23S1,834,experiment,84,↓,down,↓,0.6189480000175536,True,29,1
158K23S1,835,experiment,66,←,left,←,0.46901070000603795,True,29,1
158K23S1,836,experiment,94,↑,up,↑,0.48346139999921434,True,29,1
158K23S1,837,experiment,90,←,left,←,0.4667256999819074,True,29,1
158K23S1,838,experiment,67,↑,up,↑,0.4582839999930002,True,29,1
158K23S1,839,experiment,83,→,left,←,0.4212703999946825,False,29,1
158K23S1,840,experiment,79,→,right,→,0.4741257000132464,True,29,1
158K23S1,841,experiment,78,←,left,←,0.46163249999517575,True,29,1
158K23S1,842,experiment,68,↑,up,↑,0.4452635000052396,True,29,1
158K23S1,843,experiment,71,→,right,→,0.46003570000175387,True,29,1
158K23S1,844,experiment,54,↓,down,↓,0.5602650000073481,True,29,1
158K23S1,845,experiment,58,↑,up,↑,0.5671693999902345,True,29,1
158K23S1,846,experiment,55,↑,up,↑,0.4867346999817528,True,29,1
158K23S1,847,experiment,63,→,right,→,0.43895229999907315,True,29,1
158K23S1,848,experiment,59,↓,down,↓,0.7621241000015289,True,29,1
158K23S1,849,experiment,52,→,right,→,0.6190386999805924,True,29,1
158K23S1,850,experiment,86,→,right,→,0.4226924999966286,True,29,1
158K23S1,851,experiment,50,↑,up,↑,0.7731872999866027,True,29,1
158K23S1,852,experiment,103,↓,down,↓,0.5966662000282668,True,29,1
158K23S1,853,experiment,62,→,right,→,0.5046640000073239,True,29,1
158K23S1,854,experiment,96,↓,down,↓,0.6367616000061389,True,29,1
158K23S1,855,experiment,51,←,left,←,0.5630407000135165,True,29,1
158K23S1,856,experiment,65,↑,up,↑,0.5513642000150867,True,29,1
158K23S1,857,experiment,100,→,right,→,0.6486518000019714,True,29,1
158K23S1,858,experiment,95,←,left,←,0.46355129999574274,True,29,1
158K23S1,859,experiment,106,↑,up,↑,0.5224455000134185,True,29,1
158K23S1,860,training,53,←,left,←,0.5316789000062272,True,28,0
158K23S1,861,training,77,↑,up,↑,0.42923579999478534,True,28,1
158K23S1,862,experiment,51,←,left,←,0.5153701000090223,True,28,1
158K23S1,863,experiment,75,↑,up,↑,0.44616389999282546,True,28,1
158K23S1,864,experiment,107,↑,up,↑,0.41012650000629947,True,28,1
158K23S1,865,experiment,103,↑,up,↑,0.3764835000038147,True,28,1
158K23S1,866,experiment,60,↑,no_key,no_letter,-1.0,False,28,0
158K23S1,867,experiment,48,→,right,→,0.4655745000054594,True,28,1
158K23S1,868,experiment,66,↓,down,↓,0.5932608000002801,True,28,1
158K23S1,869,experiment,53,↑,up,↑,0.42457200001808815,True,28,1
158K23S1,870,experiment,90,↓,down,↓,0.5381579000095371,True,28,1
158K23S1,871,experiment,98,↓,down,↓,0.5086607999983244,True,28,1
158K23S1,872,experiment,79,↑,up,↑,0.542795199988177,True,28,1
158K23S1,873,experiment,81,↑,up,↑,0.4545599000121001,True,28,1
158K23S1,874,experiment,62,→,right,→,0.4642534999875352,True,28,1
158K23S1,875,experiment,105,←,left,←,0.4990615999849979,True,28,1
158K23S1,876,experiment,104,→,right,→,0.45372589997714385,True,28,1
158K23S1,877,experiment,96,↓,down,↓,0.5876432999793906,True,28,1
158K23S1,878,experiment,95,↑,up,↑,0.5170914999907836,True,28,1
158K23S1,879,experiment,56,←,left,←,0.5182206999743357,True,28,1
158K23S1,880,experiment,69,↑,up,↑,0.41163229997619055,True,28,1
158K23S1,881,experiment,89,↓,down,↓,0.5333842000109144,True,28,1
158K23S1,882,experiment,93,↓,down,↓,0.513676000002306,True,28,1
158K23S1,883,experiment,68,↓,down,↓,0.5109107999887783,True,28,1
158K23S1,884,experiment,99,↑,up,↑,0.5223509999923408,True,28,1
158K23S1,885,experiment,83,←,left,←,0.48244019999401644,True,28,1
158K23S1,886,experiment,74,→,right,→,0.5827593999856617,True,28,1
158K23S1,887,experiment,57,↑,up,↑,0.42902219999814406,True,28,1
158K23S1,888,experiment,64,↓,down,↓,0.542831800004933,True,28,1
158K23S1,889,experiment,97,←,left,←,0.4494418000103906,True,28,1
158K23S1,890,experiment,52,→,right,→,0.4386320000048727,True,28,1
158K23S1,891,experiment,59,↑,up,↑,0.4575967999990098,True,28,1
158K23S1,892,experiment,87,↓,down,↓,0.5152331999852322,True,28,1
158K23S1,893,experiment,102,←,right,→,0.5252108999993652,False,28,1
158K23S1,894,experiment,63,↑,up,↑,0.6196611000050325,True,28,1
158K23S1,895,experiment,82,←,left,←,0.4643150999909267,True,28,1
158K23S1,896,experiment,71,←,left,←,0.4865531999967061,True,28,1
158K23S1,897,experiment,61,←,left,←,0.4315980999963358,True,28,1
158K23S1,898,experiment,65,→,right,→,0.6009828000096604,True,28,1
158K23S1,899,experiment,76,←,right,→,0.4164935000007972,False,28,1
158K23S1,900,experiment,86,←,right,→,0.4756508999853395,False,28,1
158K23S1,901,experiment,100,→,left,←,1.023980500001926,False,28,1
158K23S1,902,experiment,78,↓,down,↓,0.5895611000014469,True,28,1
158K23S1,903,experiment,70,↓,down,↓,0.47915119997924194,True,28,1
158K23S1,904,experiment,77,↑,up,↑,0.5549335000105202,True,28,1
158K23S1,905,experiment,91,↑,up,↑,0.6151430999743752,True,28,1
158K23S1,906,experiment,49,←,left,←,0.4707197000097949,True,28,1
158K23S1,907,experiment,101,→,left,←,0.6585607999877539,False,28,1
158K23S1,908,experiment,108,→,right,→,0.46893380000256,True,28,1
158K23S1,909,experiment,84,↓,down,↓,0.5988913000037428,True,28,1
158K23S1,910,experiment,85,↓,down,↓,0.5392395999806467,True,28,1
158K23S1,911,experiment,72,↓,down,↓,0.5181303999852389,True,28,1
158K23S1,912,experiment,54,←,left,←,0.47999580000760034,True,28,1
158K23S1,913,experiment,55,←,left,←,0.37557179998839274,True,28,1
158K23S1,914,experiment,88,↑,up,↑,0.5188114000193309,True,28,0
158K23S1,915,experiment,58,←,left,←,0.42348349999519996,True,28,1
158K23S1,916,experiment,106,↓,down,↓,0.6836076000181492,True,28,1
158K23S1,917,experiment,94,↓,down,↓,0.5216251999954693,True,28,1
158K23S1,918,experiment,73,←,left,←,0.4689250999945216,True,28,1
158K23S1,919,experiment,50,↑,up,↑,0.45804779999889433,True,28,1
158K23S1,920,experiment,92,→,right,→,0.4575732999946922,True,28,1
158K23S1,921,experiment,67,→,left,←,0.44164240002282895,False,28,1
158K23S1,922,experiment,80,↓,down,↓,0.5097470000036992,True,28,1
158K23S1,923,training,101,↑,down,↓,0.8852508999989368,False,28,0
158K23S1,924,training,75,←,left,←,0.5215213999908883,True,28,1
158K23S1,925,experiment,80,→,right,→,0.4187345999816898,True,28,1
158K23S1,926,experiment,98,→,left,←,0.4102892999944743,False,28,1
158K23S1,927,experiment,63,↑,down,↓,0.8764282999909483,False,28,1
158K23S1,928,experiment,65,←,left,←,0.4369918000011239,True,28,1
158K23S1,929,experiment,102,←,left,←,0.46572599999490194,True,28,1
158K23S1,930,experiment,70,↓,down,↓,0.6243360000080429,True,28,1
158K23S1,931,experiment,104,→,right,→,0.4533032000181265,True,28,1
158K23S1,932,experiment,78,←,left,←,0.4739695999887772,True,28,1
158K23S1,933,experiment,62,↓,down,↓,0.41901020001387224,True,28,1
158K23S1,934,experiment,108,→,right,→,0.4305776999972295,True,28,1
158K23S1,935,experiment,51,→,right,→,0.508613999991212,True,28,1
158K23S1,936,experiment,74,→,right,→,0.42437050002627075,True,28,1
158K23S1,937,experiment,58,↑,up,↑,0.8203630000061821,True,28,1
158K23S1,938,experiment,69,↓,down,↓,0.46101259998977184,True,28,1
158K23S1,939,experiment,105,↓,down,↓,0.4484000999946147,True,28,1
158K23S1,940,experiment,76,↑,up,↑,0.5017358999757562,True,28,1
158K23S1,941,experiment,90,↑,up,↑,0.49235699998098426,True,28,1
158K23S1,942,experiment,99,↑,up,↑,0.5921376000042073,True,28,1
158K23S1,943,experiment,86,↓,down,↓,0.5645023999968544,True,28,1
158K23S1,944,experiment,95,↑,up,↑,0.6548165999993216,True,28,1
158K23S1,945,experiment,89,→,right,→,0.4955688999907579,True,28,1
158K23S1,946,experiment,52,↓,down,↓,0.5389201999932993,True,28,1
158K23S1,947,experiment,73,↓,down,↓,0.5332637999963481,True,28,1
158K23S1,948,experiment,79,↑,up,↑,0.5261910000117496,True,28,1
158K23S1,949,experiment,67,←,left,←,0.4514453999872785,True,28,1
158K23S1,950,experiment,87,→,right,→,0.4291137000254821,True,28,1
158K23S1,951,experiment,96,↓,down,↓,0.4683274000126403,True,28,1
158K23S1,952,experiment,77,→,right,→,0.48055350000504404,True,28,1
158K23S1,953,experiment,59,↓,down,↓,0.49015749999671243,True,28,1
158K23S1,954,experiment,53,→,right,→,0.42965710000135005,True,28,1
158K23S1,955,experiment,103,↓,down,↓,0.4582566999888513,True,28,1
158K23S1,956,experiment,93,←,left,←,0.5455755000002682,True,28,1
158K23S1,957,experiment,75,↓,down,↓,0.48314830000163056,True,28,1
158K23S1,958,experiment,100,↑,up,↑,0.5271639999991748,True,28,1
158K23S1,959,experiment,83,↑,up,↑,0.4713851999840699,True,28,1
158K23S1,960,experiment,91,→,right,→,0.49455579998902977,True,28,1
158K23S1,961,experiment,72,→,right,→,0.4353373000049032,True,28,1
158K23S1,962,experiment,48,↓,down,↓,0.4904238000162877,True,28,1
158K23S1,963,experiment,88,→,right,→,0.5140454999927897,True,28,1
158K23S1,964,experiment,55,↓,down,↓,0.4835519000189379,True,28,1
158K23S1,965,experiment,54,←,left,←,0.5026902999961749,True,28,1
158K23S1,966,experiment,57,←,left,←,0.44029389999923296,True,28,1
158K23S1,967,experiment,49,→,right,→,0.5587382999947295,True,28,1
158K23S1,968,experiment,94,↑,left,←,0.7617255999939516,False,28,1
158K23S1,969,experiment,66,←,left,←,0.6140424000041094,True,28,1
158K23S1,970,experiment,107,←,left,←,0.4824407000269275,True,28,1
158K23S1,971,experiment,71,↓,down,↓,0.48000140002113767,True,28,1
158K23S1,972,experiment,106,←,left,←,0.4580054999969434,True,28,1
158K23S1,973,experiment,56,↑,up,↑,0.7174708000093233,True,28,1
158K23S1,974,experiment,64,→,right,→,0.5721443000074942,True,28,1
158K23S1,975,experiment,81,↓,down,↓,0.4826998000207823,True,28,1
158K23S1,976,experiment,97,→,right,→,0.43183180000050925,True,28,1
158K23S1,977,experiment,60,↓,down,↓,0.490745799994329,True,28,1
158K23S1,978,experiment,84,→,right,→,0.4126940999994986,True,28,1
158K23S1,979,experiment,50,←,left,←,0.4909841000044253,True,28,1
158K23S1,980,experiment,85,→,right,→,0.41996069997549057,True,28,1
158K23S1,981,experiment,68,→,right,→,0.42117259997758083,True,28,1
158K23S1,982,experiment,101,→,right,→,0.45879839998087846,True,28,1
158K23S1,983,experiment,92,→,right,→,0.5705378999991808,True,28,1
158K23S1,984,experiment,82,↑,up,↑,0.5687023000209592,True,28,1
158K23S1,985,experiment,61,←,left,←,0.40681720001157373,True,28,1
158K23S1,986,training,91,↓,no_key,no_letter,-1.0,False,28,0
158K23S1,987,training,55,→,left,←,0.3169618000101764,False,28,1
158K23S1,988,experiment,73,↑,right,→,0.2671603999915533,False,28,0
158K23S1,989,experiment,108,↓,down,↓,0.31699169997591525,True,28,0
158K23S1,990,experiment,100,↓,left,←,0.43739850001293235,False,28,0
158K23S1,991,experiment,50,↓,down,↓,0.49216100000194274,True,28,1
158K23S1,992,experiment,65,↓,no_key,no_letter,-1.0,False,28,1
158K23S1,993,experiment,79,↑,up,↑,0.5017856000049505,True,28,1
158K23S1,994,experiment,60,→,right,→,0.4224967999907676,True,28,1
158K23S1,995,experiment,103,↑,up,↑,0.4756729999789968,True,28,1
158K23S1,996,experiment,93,↓,down,↓,0.5703166000021156,True,28,1
158K23S1,997,experiment,57,←,left,←,0.4412015000125393,True,28,1
158K23S1,998,experiment,84,↓,down,↓,0.5161620000144467,True,28,1
158K23S1,999,experiment,89,↓,down,↓,0.5465122000023257,True,28,1
158K23S1,1000,experiment,55,↑,up,↑,0.5385629999800585,True,28,1
158K23S1,1001,experiment,54,→,right,→,0.5634960999886971,True,28,1
158K23S1,1002,experiment,81,→,right,→,0.45837680000113323,True,28,1
158K23S1,1003,experiment,51,→,right,→,0.5195944999868516,True,28,1
158K23S1,1004,experiment,105,↓,down,↓,0.5925740999809932,True,28,1
158K23S1,1005,experiment,75,→,left,←,1.2325870999775361,False,28,1
158K23S1,1006,experiment,63,↓,down,↓,0.5949489999911748,True,28,1
158K23S1,1007,experiment,95,↓,down,↓,0.4363526999950409,True,28,1
158K23S1,1008,experiment,92,→,right,→,0.48485660000005737,True,28,1
158K23S1,1009,experiment,76,↓,down,↓,0.5128807000000961,True,28,1
158K23S1,1010,experiment,53,↓,no_key,no_letter,-1.0,False,28,1
158K23S1,1011,experiment,98,↑,up,↑,0.5598219000094105,True,28,1
158K23S1,1012,experiment,85,←,left,←,0.4218690999841783,True,28,1
158K23S1,1013,experiment,48,↑,up,↑,0.42922099999850616,True,28,1
158K23S1,1014,experiment,69,←,left,←,0.5254397999960929,True,28,1
158K23S1,1015,experiment,62,↓,down,↓,0.5484778999816626,True,28,1
158K23S1,1016,experiment,94,←,left,←,0.5436442000209354,True,28,1
158K23S1,1017,experiment,72,↑,up,↑,0.46657740001683123,True,28,1
158K23S1,1018,experiment,61,↓,down,↓,0.5322342000145,True,28,1
158K23S1,1019,experiment,70,←,left,←,0.42438229999970645,True,28,1
158K23S1,1020,experiment,99,↓,down,↓,0.4227320000063628,True,28,1
158K23S1,1021,experiment,106,↑,no_key,no_letter,-1.0,False,28,1
158K23S1,1022,experiment,82,→,right,→,0.7887515999900643,True,28,1
158K23S1,1023,experiment,90,↓,down,↓,0.471753699996043,True,28,1
158K23S1,1024,experiment,88,→,right,→,0.4559964000072796,True,28,1
158K23S1,1025,experiment,64,↑,down,↓,0.6169693999981973,False,28,1
158K23S1,1026,experiment,77,→,right,→,0.4632951999956276,True,28,1
158K23S1,1027,experiment,78,↑,down,↓,0.4590811000089161,False,28,1
158K23S1,1028,experiment,91,↓,down,↓,0.4510825999896042,True,28,1
158K23S1,1029,experiment,71,←,left,←,0.45794110000133514,True,28,1
158K23S1,1030,experiment,87,←,left,←,0.41152739999233745,True,28,1
158K23S1,1031,experiment,49,→,left,←,0.8106986999919172,False,28,1
158K23S1,1032,experiment,67,←,left,←,0.49277089998940937,True,28,1
158K23S1,1033,experiment,68,↑,up,↑,0.8108647000044584,True,28,1
158K23S1,1034,experiment,96,↓,down,↓,0.48322840000037104,True,28,1
158K23S1,1035,experiment,59,→,right,→,0.6528327000269201,True,28,1
158K23S1,1036,experiment,86,↑,up,↑,0.49482849999913014,True,28,1
158K23S1,1037,experiment,56,↑,up,↑,0.4970869999960996,True,28,1
158K23S1,1038,experiment,83,←,left,←,0.45803810001234524,True,28,1
158K23S1,1039,experiment,66,↑,up,↑,0.4741994999931194,True,28,1
158K23S1,1040,experiment,74,←,left,←,0.431315399997402,True,28,1
158K23S1,1041,experiment,107,←,left,←,0.45865990000311285,True,28,1
158K23S1,1042,experiment,104,→,right,→,0.4543833999778144,True,28,1
158K23S1,1043,experiment,97,→,right,→,0.4209234000009019,True,28,1
158K23S1,1044,experiment,80,→,right,→,0.4739975999982562,True,28,1
158K23S1,1045,experiment,52,←,left,←,0.422488499985775,True,28,1
158K23S1,1046,experiment,101,↑,up,↑,0.5160199000092689,True,28,1
158K23S1,1047,experiment,58,↓,down,↓,0.7645784000051208,True,28,1
158K23S1,1048,experiment,102,↓,left,←,0.5407203999930061,False,28,1
158K23S1,1049,training,89,→,right,→,0.4174866999965161,True,28,0
158K23S1,1050,training,85,←,left,←,0.4767227999982424,True,28,1
158K23S1,1051,experiment,94,→,right,→,0.4113730000099167,True,28,1
158K23S1,1052,experiment,79,←,left,←,0.4245748000103049,True,28,1
158K23S1,1053,experiment,70,↑,up,↑,0.4890280999825336,True,28,1
158K23S1,1054,experiment,73,→,right,→,0.48561699999845587,True,28,1
158K23S1,1055,experiment,87,←,left,←,0.4619321000063792,True,28,1
158K23S1,1056,experiment,76,←,left,←,0.367182199988747,True,28,1
158K23S1,1057,experiment,95,↓,down,↓,0.5564125000091735,True,28,0
158K23S1,1058,experiment,71,↑,up,↑,0.5190135999873746,True,28,1
158K23S1,1059,experiment,67,→,right,→,0.5966353999974672,True,28,1
158K23S1,1060,experiment,57,↑,up,↑,0.5222414000018034,True,28,1
158K23S1,1061,experiment,58,↓,down,↓,0.5143297999748029,True,28,1
158K23S1,1062,experiment,69,↑,up,↑,0.6152218999923207,True,28,1
158K23S1,1063,experiment,60,↓,down,↓,0.507246799999848,True,28,1
158K23S1,1064,experiment,102,↓,up,↑,0.6296425999898929,False,28,1
158K23S1,1065,experiment,65,←,right,→,0.5990524000080768,False,28,1
158K23S1,1066,experiment,91,↑,up,↑,0.4178838999941945,True,28,1
158K23S1,1067,experiment,107,↓,down,↓,0.5333260000043083,True,28,1
158K23S1,1068,experiment,55,↓,down,↓,0.5741841999988537,True,28,1
158K23S1,1069,experiment,48,→,right,→,1.119762999995146,True,28,1
158K23S1,1070,experiment,59,→,left,←,0.5042388000001665,False,28,1
158K23S1,1071,experiment,56,↓,down,↓,0.47388939998927526,True,28,1
158K23S1,1072,experiment,81,↑,up,↑,0.5005651000246871,True,28,1
158K23S1,1073,experiment,50,↑,up,↑,0.4321283999888692,True,28,1
158K23S1,1074,experiment,99,↓,right,→,0.41480160001083277,False,28,1
158K23S1,1075,experiment,108,↑,up,↑,0.4584190000023227,True,28,1
158K23S1,1076,experiment,64,←,left,←,0.4912627000012435,True,28,1
158K23S1,1077,experiment,93,↑,up,↑,0.4413343999767676,True,28,1
158K23S1,1078,experiment,75,→,right,→,0.45514420000836253,True,28,1
158K23S1,1079,experiment,106,↑,up,↑,0.43424630002118647,True,28,1
158K23S1,1080,experiment,97,→,right,→,0.449062400002731,True,28,1
158K23S1,1081,experiment,92,↑,up,↑,0.40957230000640266,True,28,1
158K23S1,1082,experiment,62,←,left,←,0.5401830000046175,True,28,1
158K23S1,1083,experiment,89,↑,up,↑,0.42563520002295263,True,28,1
158K23S1,1084,experiment,82,↑,no_key,no_letter,-1.0,False,28,1
158K23S1,1085,experiment,83,↑,no_key,no_letter,-1.0,False,28,1
158K23S1,1086,experiment,90,↑,down,↓,0.5985118999960832,False,28,1
158K23S1,1087,experiment,54,↓,down,↓,0.5808033999928739,True,28,1
158K23S1,1088,experiment,68,←,left,←,0.4080612000252586,True,28,1
158K23S1,1089,experiment,104,↑,up,↑,0.4767678000207525,True,28,1
158K23S1,1090,experiment,103,↑,up,↑,0.6160265000071377,True,28,1
158K23S1,1091,experiment,101,←,left,←,0.5104369999899063,True,28,1
158K23S1,1092,experiment,66,↓,down,↓,0.5166404999908991,True,28,1
158K23S1,1093,experiment,49,↓,right,→,1.3281629999983124,False,28,1
158K23S1,1094,experiment,53,↑,up,↑,0.4904386999842245,True,28,1
158K23S1,1095,experiment,96,↑,up,↑,0.4312474000034854,True,28,1
158K23S1,1096,experiment,85,↑,up,↑,0.4982120000058785,True,28,1
158K23S1,1097,experiment,74,↑,no_key,no_letter,-1.0,False,28,1
158K23S1,1098,experiment,72,↓,down,↓,0.49122180000995286,True,28,1
158K23S1,1099,experiment,100,←,left,←,0.4547565999964718,True,28,1
158K23S1,1100,experiment,88,←,left,←,0.4163084999890998,True,28,1
158K23S1,1101,experiment,98,↑,up,↑,0.5353214000060689,True,28,1
158K23S1,1102,experiment,105,↓,down,↓,0.5116539000009652,True,28,1
158K23S1,1103,experiment,77,↑,up,↑,0.41841199999907985,True,28,1
158K23S1,1104,experiment,51,↓,down,↓,0.5288042000029236,True,28,1
158K23S1,1105,experiment,52,↑,up,↑,0.4985639000078663,True,28,1
158K23S1,1106,experiment,80,←,left,←,0.4685324000020046,True,28,1
158K23S1,1107,experiment,84,←,left,←,0.40692269999999553,True,28,1
158K23S1,1108,experiment,63,←,left,←,0.3838240999903064,True,28,0
158K23S1,1109,experiment,86,↓,up,↑,0.6218713999842294,False,28,0
158K23S1,1110,experiment,78,↓,down,↓,0.47552880001603626,True,28,1
158K23S1,1111,experiment,61,↑,up,↑,0.4133455000119284,True,28,1
158K23S1,1112,training,61,←,left,←,0.42777229999774136,True,28,0
158K23S1,1113,training,73,←,left,←,0.35047520001535304,True,28,1
158K23S1,1114,experiment,58,↓,down,↓,0.5536977000010666,True,28,0
158K23S1,1115,experiment,51,→,left,←,0.35055929998634383,False,28,1
158K23S1,1116,experiment,84,↓,down,↓,0.4255614999856334,True,28,0
158K23S1,1117,experiment,88,→,right,→,0.44374630000675097,True,28,1
158K23S1,1118,experiment,80,→,no_key,no_letter,-1.0,False,28,1
158K23S1,1119,experiment,87,↓,down,↓,0.4403290000045672,True,28,1
158K23S1,1120,experiment,79,→,right,→,0.4366306000156328,True,28,1
158K23S1,1121,experiment,91,←,no_key,no_letter,-1.0,False,28,1
158K23S1,1122,experiment,90,↑,down,↓,0.5806267999869306,False,28,1
158K23S1,1123,experiment,50,↓,down,↓,0.46883089997572824,True,28,1
158K23S1,1124,experiment,63,↑,up,↑,0.6137796000111848,True,28,1
158K23S1,1125,experiment,59,↓,down,↓,0.5219863000093028,True,28,1
158K23S1,1126,experiment,108,←,no_key,no_letter,-1.0,False,28,1
158K23S1,1127,experiment,72,↓,down,↓,0.5907279000093695,True,28,1
158K23S1,1128,experiment,69,←,left,←,0.45657979999668896,True,28,1
158K23S1,1129,experiment,73,↓,down,↓,0.47059920002357103,True,28,1
158K23S1,1130,experiment,89,↑,right,→,0.7907457000110298,False,28,1
158K23S1,1131,experiment,62,↑,up,↑,0.6908055000239983,True,28,1
158K23S1,1132,experiment,93,↓,down,↓,0.4728713000076823,True,28,1
158K23S1,1133,experiment,52,←,left,←,0.43697319997590967,True,28,1
158K23S1,1134,experiment,98,↓,down,↓,0.49160969999502413,True,28,1
158K23S1,1135,experiment,92,↑,up,↑,0.5219058000075165,True,28,1
158K23S1,1136,experiment,53,←,left,←,0.467960599984508,True,28,1
158K23S1,1137,experiment,102,→,left,←,0.42385160000412725,False,28,1
158K23S1,1138,experiment,82,←,left,←,0.47599359997548163,True,28,1
158K23S1,1139,experiment,106,←,left,←,0.5023617999977432,True,28,1
158K23S1,1140,experiment,74,↓,down,↓,0.5222880000073928,True,28,1
158K23S1,1141,experiment,56,↓,down,↓,0.4431707999901846,True,28,1
158K23S1,1142,experiment,67,↓,down,↓,0.6355487999971956,True,28,1
158K23S1,1143,experiment,70,→,right,→,0.49159309998503886,True,28,1
158K23S1,1144,experiment,57,→,right,→,0.4138155000109691,True,28,1
158K23S1,1145,experiment,49,↑,up,↑,0.5969389000092633,True,28,1
158K23S1,1146,experiment,65,↓,down,↓,0.4239213000109885,True,28,1
158K23S1,1147,experiment,81,↑,up,↑,0.5564194000035059,True,28,1
158K23S1,1148,experiment,107,→,right,→,0.42726649998803623,True,28,1
158K23S1,1149,experiment,76,↓,down,↓,0.505329299980076,True,28,1
158K23S1,1150,experiment,64,←,left,←,0.7682287999778055,True,28,1
158K23S1,1151,experiment,78,↓,down,↓,0.456156700005522,True,28,1
158K23S1,1152,experiment,85,↑,up,↑,0.6419977000041399,True,28,1
158K23S1,1153,experiment,61,←,left,←,0.35859739998704754,True,28,1
158K23S1,1154,experiment,60,↑,up,↑,0.43463999999221414,True,28,0
158K23S1,1155,experiment,94,↑,up,↑,0.4424859000137076,True,28,1
158K23S1,1156,experiment,99,←,left,←,0.4325756999896839,True,28,1
158K23S1,1157,experiment,71,→,right,→,1.0320611000061035,True,28,1
158K23S1,1158,experiment,55,↑,up,↑,0.4530965999874752,True,28,1
158K23S1,1159,experiment,103,↓,down,↓,0.5374618000059854,True,28,1
158K23S1,1160,experiment,97,→,left,←,0.4600485000119079,False,28,1
158K23S1,1161,experiment,95,↓,down,↓,0.41890029999194667,True,28,1
158K23S1,1162,experiment,68,↓,down,↓,0.3839494999847375,True,28,1
158K23S1,1163,experiment,66,↑,down,↓,0.3504924000008032,False,28,0
158K23S1,1164,experiment,54,↓,up,↑,0.7748560999752954,False,28,0
158K23S1,1165,experiment,104,←,left,←,0.7259714999818243,True,28,1
158K23S1,1166,experiment,101,←,right,→,0.4320847000053618,False,28,1
158K23S1,1167,experiment,96,→,no_key,no_letter,-1.0,False,28,1
158K23S1,1168,experiment,105,←,left,←,0.48976090000360273,True,28,1
158K23S1,1169,experiment,100,→,no_key,no_letter,-1.0,False,28,1
158K23S1,1170,experiment,86,↑,up,↑,0.4775810000137426,True,28,1
158K23S1,1171,experiment,48,↓,down,↓,0.5392673999886028,True,28,1
158K23S1,1172,experiment,77,↓,down,↓,0.4602672999899369,True,28,1
158K23S1,1173,experiment,83,→,right,→,0.4629033000092022,True,28,1
158K23S1,1174,experiment,75,↑,up,↑,0.4519268000149168,True,28,1
158K23S1,1175,training,56,↑,up,↑,0.4767856999824289,True,28,0
158K23S1,1176,training,98,→,right,→,0.4414919999835547,True,28,1
158K23S1,1177,experiment,95,→,right,→,0.4412407999916468,True,28,1
158K23S1,1178,experiment,96,→,right,→,0.41604790001292713,True,28,1
158K23S1,1179,experiment,72,→,right,→,0.3671875,True,28,1
158K23S1,1180,experiment,53,←,left,←,0.487378699996043,True,28,0
158K23S1,1181,experiment,89,↑,up,↑,0.454686999990372,True,28,1
158K23S1,1182,experiment,107,↓,down,↓,0.5056219999969471,True,28,1
158K23S1,1183,experiment,67,↓,down,↓,0.4471743000030983,True,28,1
158K23S1,1184,experiment,60,←,left,←,0.4417558999848552,True,28,1
158K23S1,1185,experiment,68,→,right,→,0.49000850002630614,True,28,1
158K23S1,1186,experiment,87,→,right,→,0.4182950000104029,True,28,1
158K23S1,1187,experiment,101,→,right,→,0.43216349999420345,True,28,1
158K23S1,1188,experiment,86,←,left,←,0.6988400000263937,True,28,1
158K23S1,1189,experiment,69,↑,up,↑,0.49648130001151003,True,28,1
158K23S1,1190,experiment,103,↑,up,↑,0.5227230000018608,True,28,1
158K23S1,1191,experiment,50,↓,down,↓,0.4696555999980774,True,28,1
158K23S1,1192,experiment,52,←,left,←,0.4902293000195641,True,28,1
158K23S1,1193,experiment,77,←,right,→,0.49337380001088604,False,28,1
158K23S1,1194,experiment,58,↑,down,↓,0.5509479000174906,False,28,1
158K23S1,1195,experiment,71,↓,down,↓,0.4820114000176545,True,28,1
158K23S1,1196,experiment,108,↓,down,↓,0.5311477000068408,True,28,1
158K23S1,1197,experiment,49,↓,down,↓,0.5180491000064649,True,28,1
158K23S1,1198,experiment,57,↑,up,↑,0.4788614000135567,True,28,1
158K23S1,1199,experiment,97,↓,down,↓,0.5239028999931179,True,28,1
158K23S1,1200,experiment,74,←,left,←,0.4467577000032179,True,28,1
158K23S1,1201,experiment,76,←,left,←,0.4760073000215925,True,28,1
158K23S1,1202,experiment,54,↑,up,↑,0.41580139999859966,True,28,1
158K23S1,1203,experiment,75,←,left,←,0.43060150000383146,True,28,1
158K23S1,1204,experiment,94,←,left,←,0.41480470000533387,True,28,1
158K23S1,1205,experiment,84,→,left,←,0.4029378999839537,False,28,1
158K23S1,1206,experiment,64,→,no_key,no_letter,-1.0,False,28,0
158K23S1,1207,experiment,90,→,right,→,0.4602211999881547,True,28,1
158K23S1,1208,experiment,78,→,right,→,0.5126653999905102,True,28,1
158K23S1,1209,experiment,61,←,left,←,0.46411830000579357,True,28,1
158K23S1,1210,experiment,100,←,left,←,0.4208715000131633,True,28,1
158K23S1,1211,experiment,106,←,left,←,0.4809339999919757,True,28,1
158K23S1,1212,experiment,80,←,left,←,0.4275212999782525,True,28,1
158K23S1,1213,experiment,85,←,left,←,0.3756060999876354,True,28,1
158K23S1,1214,experiment,102,↓,down,↓,0.5341090000001714,True,28,0
158K23S1,1215,experiment,91,↑,up,↑,0.5390359000011813,True,28,1
158K23S1,1216,experiment,51,←,left,←,0.43697089998750016,True,28,1
158K23S1,1217,experiment,99,↑,up,↑,0.4509657000016887,True,28,1
158K23S1,1218,experiment,81,→,right,→,0.4226809000247158,True,28,1
158K23S1,1219,experiment,88,↑,up,↑,0.4166904000157956,True,28,1
158K23S1,1220,experiment,83,←,right,→,0.6769523000111803,False,28,1
158K23S1,1221,experiment,92,→,right,→,0.42020059999777004,True,28,1
158K23S1,1222,experiment,82,→,right,→,0.4326246000127867,True,28,1
158K23S1,1223,experiment,65,↑,up,↑,0.5141762999992352,True,28,1
158K23S1,1224,experiment,73,↓,down,↓,0.5017128999752458,True,28,1
158K23S1,1225,experiment,63,←,left,←,0.4372395999962464,True,28,1
158K23S1,1226,experiment,98,←,left,←,0.44381319999229163,True,28,1
158K23S1,1227,experiment,104,→,right,→,0.4481526000017766,True,28,1
158K23S1,1228,experiment,70,↓,down,↓,0.49541890001273714,True,28,1
158K23S1,1229,experiment,55,↓,down,↓,0.5058335000067018,True,28,1
158K23S1,1230,experiment,56,↓,down,↓,0.4754611999960616,True,28,1
158K23S1,1231,experiment,93,↑,up,↑,0.5860300000058487,True,28,1
158K23S1,1232,experiment,66,↓,down,↓,0.5492784999951255,True,28,1
158K23S1,1233,experiment,105,←,left,←,0.5090245000028517,True,28,1
158K23S1,1234,experiment,48,↓,down,↓,0.5053544999973383,True,28,1
158K23S1,1235,experiment,79,↑,left,←,0.4594404000090435,False,28,1
158K23S1,1236,experiment,59,→,right,→,0.4535029999969993,True,28,1
158K23S1,1237,experiment,62,↑,down,↓,0.5594207000103779,False,28,1
158K23S1,1238,training,61,←,left,←,0.5428755999892019,True,28,0
158K23S1,1239,training,64,→,right,→,0.4204162000096403,True,28,1
158K23S1,1240,experiment,67,→,right,→,0.42978500001481734,True,28,1
158K23S1,1241,experiment,78,↑,up,↑,0.4589265999966301,True,28,1
158K23S1,1242,experiment,60,←,left,←,0.4136521000182256,True,28,1
158K23S1,1243,experiment,106,→,right,→,0.48994940001284704,True,28,1
158K23S1,1244,experiment,83,←,left,←,0.41936050000367686,True,28,1
158K23S1,1245,experiment,69,←,left,←,0.4125665999890771,True,28,1
158K23S1,1246,experiment,87,↑,up,↑,0.4230301000061445,True,28,1
158K23S1,1247,experiment,91,←,down,↓,1.344126399984816,False,28,1
158K23S1,1248,experiment,50,↑,up,↑,0.41139499997370876,True,28,1
158K23S1,1249,experiment,100,↑,up,↑,0.40977790000033565,True,28,1
158K23S1,1250,experiment,59,→,right,→,0.5096289000066463,True,28,1
158K23S1,1251,experiment,86,←,right,→,0.3005796000070404,False,28,1
158K23S1,1252,experiment,75,←,left,←,0.4087180999922566,True,28,0
158K23S1,1253,experiment,85,→,no_key,no_letter,-1.0,False,28,1
158K23S1,1254,experiment,76,↑,up,↑,0.4159319000027608,True,28,1
158K23S1,1255,experiment,80,←,left,←,0.4287494999880437,True,28,1
158K23S1,1256,experiment,95,↑,up,↑,0.4763512999925297,True,28,1
158K23S1,1257,experiment,66,↓,down,↓,0.5960133000044152,True,28,1
158K23S1,1258,experiment,58,↓,down,↓,0.5057394999894314,True,28,1
158K23S1,1259,experiment,84,↓,down,↓,0.5218312999932095,True,28,1
158K23S1,1260,experiment,107,↑,up,↑,0.49780599999940023,True,28,1
158K23S1,1261,experiment,97,↓,down,↓,0.4941874999785796,True,28,1
158K23S1,1262,experiment,79,↑,down,↓,0.7206318999815267,False,28,1
158K23S1,1263,experiment,88,↑,up,↑,0.42343500000424683,True,28,1
158K23S1,1264,experiment,56,↑,up,↑,0.6922596000076737,True,28,1
158K23S1,1265,experiment,57,↓,down,↓,0.4701525999989826,True,28,1
158K23S1,1266,experiment,101,↑,up,↑,0.4265566999965813,True,28,1
158K23S1,1267,experiment,99,→,right,→,0.5370932999940123,True,28,1
158K23S1,1268,experiment,77,↓,down,↓,0.4903718000277877,True,28,1
158K23S1,1269,experiment,54,→,right,→,0.6291511000017636,True,28,1
158K23S1,1270,experiment,81,↓,up,↑,0.8655674000037834,False,28,1
158K23S1,1271,experiment,64,↓,down,↓,0.4263331000111066,True,28,1
158K23S1,1272,experiment,51,↑,down,↓,1.1768757000099868,False,28,1
158K23S1,1273,experiment,62,→,right,→,0.47768060001544654,True,28,1
158K23S1,1274,experiment,70,↑,up,↑,0.5639559999981429,True,28,1
158K23S1,1275,experiment,68,←,left,←,0.4392414999892935,True,28,1
158K23S1,1276,experiment,49,→,right,→,0.6537030999897979,True,28,1
158K23S1,1277,experiment,72,←,right,→,0.42846100000315346,False,28,1
158K23S1,1278,experiment,90,↑,no_key,no_letter,-1.0,False,28,1
158K23S1,1279,experiment,55,→,right,→,0.4883233000000473,True,28,1
158K23S1,1280,experiment,93,←,right,→,0.4544234999921173,False,28,1
158K23S1,1281,experiment,89,→,right,→,0.4628591999935452,True,28,1
158K23S1,1282,experiment,102,←,left,←,0.3505577999749221,True,28,1
158K23S1,1283,experiment,48,↓,right,→,0.5328444999759085,False,28,0
158K23S1,1284,experiment,63,↓,down,↓,0.6191632999980357,True,28,1
158K23S1,1285,experiment,71,↓,down,↓,0.5154921000066679,True,28,1
158K23S1,1286,experiment,103,←,left,←,0.45304039999609813,True,28,1
158K23S1,1287,experiment,74,↓,down,↓,0.6430767999845557,True,28,1
158K23S1,1288,experiment,105,→,right,→,0.4790877999912482,True,28,1
158K23S1,1289,experiment,98,←,right,→,0.4759630999760702,False,28,1
158K23S1,1290,experiment,92,↓,down,↓,0.5466508000099566,True,28,1
158K23S1,1291,experiment,104,←,left,←,0.5626469999842811,True,28,1
158K23S1,1292,experiment,61,↓,down,↓,0.5042675000149757,True,28,1
158K23S1,1293,experiment,53,↑,down,↓,0.4989944999979343,False,28,1
158K23S1,1294,experiment,108,↑,up,↑,0.587391100008972,True,28,1
158K23S1,1295,experiment,52,↓,down,↓,0.5149664000200573,True,28,1
158K23S1,1296,experiment,96,↓,down,↓,0.5589765000040643,True,28,1
158K23S1,1297,experiment,94,→,right,→,0.5219359000038821,True,28,1
158K23S1,1298,experiment,73,→,right,→,0.47725970001192763,True,28,1
158K23S1,1299,experiment,65,↓,down,↓,0.501075000007404,True,28,1
158K23S1,1300,experiment,82,←,left,←,0.5583800000022165,True,28,1
158K23S1,1301,training,49,→,right,→,0.5870900000154506,True,28,0
158K23S1,1302,training,86,↓,down,↓,0.5514471000060439,True,28,1
158K23S1,1303,experiment,107,↓,down,↓,0.462345899984939,True,28,1
158K23S1,1304,experiment,102,←,left,←,0.498351400019601,True,28,1
158K23S1,1305,experiment,48,↓,down,↓,0.4631917000224348,True,28,1
158K23S1,1306,experiment,71,↓,down,↓,0.4698877999908291,True,28,1
158K23S1,1307,experiment,73,↓,down,↓,0.42702050000661984,True,28,1
158K23S1,1308,experiment,104,→,right,→,0.47185820000595413,True,28,1
158K23S1,1309,experiment,61,→,left,←,0.6011589999834541,False,28,1
158K23S1,1310,experiment,91,↑,up,↑,0.46742830000584945,True,28,1
158K23S1,1311,experiment,105,↑,up,↑,0.40640730000450276,True,28,1
158K23S1,1312,experiment,72,→,right,→,0.4626096999854781,True,28,0
158K23S1,1313,experiment,82,←,left,←,0.481200699985493,True,28,1
158K23S1,1314,experiment,106,←,left,←,0.435281699988991,True,28,1
158K23S1,1315,experiment,52,↑,up,↑,0.44902459997683764,True,28,1
158K23S1,1316,experiment,60,↓,down,↓,0.507588400010718,True,28,1
158K23S1,1317,experiment,85,←,left,←,0.49966120001045056,True,28,1
158K23S1,1318,experiment,62,→,right,→,0.4434204999997746,True,28,1
158K23S1,1319,experiment,89,↑,up,↑,0.41298019999521784,True,28,1
158K23S1,1320,experiment,53,↓,down,↓,0.5147437000123318,True,28,1
158K23S1,1321,experiment,80,↑,up,↑,0.4125551000179257,True,28,1
158K23S1,1322,experiment,100,↑,up,↑,0.4033153000054881,True,28,1
158K23S1,1323,experiment,79,↑,up,↑,0.4646153000066988,True,28,0
158K23S1,1324,experiment,58,↑,up,↑,0.4193288999958895,True,28,1
158K23S1,1325,experiment,56,↑,up,↑,0.38402580001275055,True,28,1
158K23S1,1326,experiment,57,↑,up,↑,0.3774571999965701,True,28,0
158K23S1,1327,experiment,54,←,left,←,0.46927979998872615,True,28,0
158K23S1,1328,experiment,84,↑,up,↑,0.42338540000491776,True,28,1
158K23S1,1329,experiment,96,↓,right,→,0.9747460999933537,False,28,1
158K23S1,1330,experiment,65,↑,up,↑,0.4271872000244912,True,28,1
158K23S1,1331,experiment,59,←,no_key,no_letter,-1.0,False,28,1
158K23S1,1332,experiment,108,→,left,←,0.3756394000083674,False,28,1
158K23S1,1333,experiment,75,↓,down,↓,0.44800709999981336,True,28,0
158K23S1,1334,experiment,68,↑,no_key,no_letter,-1.0,False,28,1
158K23S1,1335,experiment,77,↑,left,←,0.6273721999896225,False,28,1
158K23S1,1336,experiment,95,↑,up,↑,0.539649999991525,True,28,1
158K23S1,1337,experiment,63,←,right,→,0.6414927000005264,False,28,1
158K23S1,1338,experiment,67,↓,down,↓,0.5539157999737654,True,28,1
158K23S1,1339,experiment,101,→,right,→,0.5065383000182919,True,28,1
158K23S1,1340,experiment,93,←,no_key,no_letter,-1.0,False,28,1
158K23S1,1341,experiment,66,↓,down,↓,0.5109033000189811,True,28,1
158K23S1,1342,experiment,99,→,left,←,0.4581490999844391,False,28,1
158K23S1,1343,experiment,90,→,up,↑,0.6027555000036955,False,28,1
158K23S1,1344,experiment,92,↑,left,←,0.8684504999837372,False,28,1
158K23S1,1345,experiment,70,→,up,↑,0.6190995000069961,False,28,1
158K23S1,1346,experiment,78,←,right,→,0.4570456999936141,False,28,1
158K23S1,1347,experiment,49,→,right,→,0.4388127000129316,True,28,1
158K23S1,1348,experiment,94,↑,up,↑,0.5826105000160169,True,28,1
158K23S1,1349,experiment,69,←,right,→,0.4488178000028711,False,28,1
158K23S1,1350,experiment,98,↓,down,↓,0.6310128000041004,True,28,1
158K23S1,1351,experiment,88,→,right,→,0.5366998999961652,True,28,1
158K23S1,1352,experiment,97,↑,up,↑,0.5477064000151586,True,28,1
158K23S1,1353,experiment,76,←,left,←,0.4852037999953609,True,28,1
158K23S1,1354,experiment,87,↓,down,↓,0.4852723999938462,True,28,1
158K23S1,1355,experiment,81,↓,down,↓,0.5275342999957502,True,28,1
158K23S1,1356,experiment,50,→,left,←,0.5303831000055652,False,28,1
158K23S1,1357,experiment,86,←,right,→,0.552992799988715,False,28,1
158K23S1,1358,experiment,74,→,right,→,0.6109067999932449,True,28,1
158K23S1,1359,experiment,83,←,left,←,0.47162440000101924,True,28,1
158K23S1,1360,experiment,51,→,down,↓,0.5961332999868318,False,28,1
158K23S1,1361,experiment,55,↑,up,↑,0.6662735000136308,True,28,1
158K23S1,1362,experiment,103,↑,up,↑,0.46206879999954253,True,28,1
158K23S1,1363,experiment,64,↑,up,↑,0.4309619000123348,True,28,1
