PART_ID,Trial_no,Trial_type,CSI,Stim_letter,Key_pressed,letter_choose,Rt,Corr,Stimulus Time,nDropped
159K21S2,1,training,120,↑,no_key,no_letter,-1.0,False,60,0
159K21S2,2,training,120,←,left,←,0.5172841000021435,True,60,0
159K21S2,3,training,120,↑,up,↑,0.3937455000123009,True,60,0
159K21S2,4,training,120,→,right,→,0.3770766999805346,True,60,0
159K21S2,5,training,120,→,left,←,0.3268313000444323,False,60,0
159K21S2,6,training,120,↑,left,←,0.3268652999540791,False,60,0
159K21S2,7,training,120,←,left,←,0.5011046000290662,True,60,0
159K21S2,8,training,120,↓,down,↓,0.7791282999678515,True,60,0
159K21S2,9,training,120,→,right,→,0.6173329000012018,True,60,0
159K21S2,10,training,120,←,left,←,0.5178085999796167,True,60,0
159K21S2,11,training,120,←,right,→,0.5089098000316881,False,60,0
159K21S2,12,training,120,←,left,←,0.4770805999869481,True,60,0
159K21S2,13,training,120,↓,left,←,0.38516649999655783,False,60,0
159K21S2,14,training,120,→,right,→,0.5171985999913886,True,60,0
159K21S2,15,training,120,→,right,→,0.410360700043384,True,60,0
159K21S2,16,training,120,→,left,←,0.4103414000128396,False,60,0
159K21S2,17,training,120,→,right,→,0.36845000000903383,True,60,0
159K21S2,18,training,120,→,right,→,0.7516127999988385,True,60,0
159K21S2,19,training,120,↑,up,↑,0.5340475999983028,True,60,0
159K21S2,20,training,120,↓,down,↓,0.5258409000234678,True,60,0
159K21S2,21,no_adaptation,120,←,no_key,no_letter,-1.0,False,36,0
159K21S2,22,no_adaptation,120,←,right,→,0.5090972000034526,False,36,0
159K21S2,23,no_adaptation,120,↓,down,↓,0.5435381999704987,True,36,0
159K21S2,24,no_adaptation,120,→,right,→,0.4424074999988079,True,36,0
159K21S2,25,no_adaptation,120,→,right,→,0.3843254999956116,True,36,0
159K21S2,26,no_adaptation,120,←,no_key,no_letter,-1.0,False,36,0
159K21S2,27,no_adaptation,120,↑,up,↑,0.5099008000106551,True,36,0
159K21S2,28,no_adaptation,120,←,left,←,0.5927721000043675,True,36,0
159K21S2,29,no_adaptation,120,↑,down,↓,0.6402264999924228,False,36,0
159K21S2,30,no_adaptation,120,→,no_key,no_letter,-1.0,False,36,0
159K21S2,31,no_adaptation,120,←,left,←,0.8059728000080213,True,36,0
159K21S2,32,no_adaptation,120,↑,down,↓,0.5887624000315554,False,36,0
159K21S2,33,no_adaptation,120,→,right,→,0.6206169999786653,True,36,0
159K21S2,34,no_adaptation,120,←,left,←,0.38404140004422516,True,36,0
159K21S2,35,no_adaptation,120,↑,no_key,no_letter,-1.0,False,36,0
159K21S2,36,no_adaptation,120,↑,up,↑,0.578475599992089,True,36,0
159K21S2,37,no_adaptation,120,←,left,←,0.4434198000235483,True,36,0
159K21S2,38,no_adaptation,120,↓,down,↓,0.543225999979768,True,36,0
159K21S2,39,no_adaptation,120,←,left,←,0.6167175000300631,True,36,0
159K21S2,40,no_adaptation,120,←,left,←,0.3514994999859482,True,36,0
159K21S2,41,training,82,→,right,→,0.531431799987331,True,36,0
159K21S2,42,training,70,←,left,←,0.3843557999935001,True,36,1
159K21S2,43,experiment,54,↓,down,↓,0.508614300051704,True,36,0
159K21S2,44,experiment,68,↑,up,↑,0.6653993000509217,True,36,1
159K21S2,45,experiment,73,↑,up,↑,0.5580253999796696,True,36,1
159K21S2,46,experiment,81,←,left,←,0.572511599981226,True,36,1
159K21S2,47,experiment,97,↓,no_key,no_letter,-1.0,False,36,1
159K21S2,48,experiment,92,↓,no_key,no_letter,-1.0,False,36,1
159K21S2,49,experiment,96,→,left,←,0.43371040001511574,False,36,1
159K21S2,50,experiment,52,←,right,→,0.5327489000046626,False,36,0
159K21S2,51,experiment,89,↓,down,↓,0.5293843999970704,True,36,1
159K21S2,52,experiment,67,↑,up,↑,0.40902630001073703,True,36,1
159K21S2,53,experiment,98,↑,down,↓,0.565127800044138,False,36,0
159K21S2,54,experiment,83,↑,up,↑,0.6571541000157595,True,36,1
159K21S2,55,experiment,62,↓,down,↓,0.4009568999754265,True,36,1
159K21S2,56,experiment,107,←,left,←,0.44219540001358837,True,36,0
159K21S2,57,experiment,59,↓,down,↓,0.4424453999963589,True,36,0
159K21S2,58,experiment,104,←,left,←,0.603017799963709,True,36,0
159K21S2,59,experiment,80,→,right,→,0.5198768999543972,True,36,1
159K21S2,60,experiment,51,→,right,→,0.4268710999749601,True,36,1
159K21S2,61,experiment,75,↓,no_key,no_letter,-1.0,False,36,0
159K21S2,62,experiment,101,→,right,→,0.41723219997948036,True,36,1
159K21S2,63,experiment,53,←,left,←,0.45077759999549016,True,36,0
159K21S2,64,experiment,66,→,right,→,0.33405410003615543,True,36,0
159K21S2,65,experiment,50,→,left,←,0.37582560000009835,False,36,0
159K21S2,66,experiment,90,←,left,←,0.742895400035195,True,36,0
159K21S2,67,experiment,91,←,left,←,0.43422739999368787,True,36,1
159K21S2,68,experiment,72,↑,up,↑,0.5124048000434414,True,36,0
159K21S2,69,experiment,79,←,left,←,0.43421149998903275,True,36,1
159K21S2,70,experiment,94,→,right,→,0.4339670000481419,True,36,0
159K21S2,71,experiment,85,↑,up,↑,0.5215525000239722,True,36,0
159K21S2,72,experiment,82,↑,up,↑,0.42645540001103655,True,36,1
159K21S2,73,experiment,61,↓,down,↓,0.5152550000348128,True,36,0
159K21S2,74,experiment,84,↓,down,↓,0.5462748000281863,True,36,1
159K21S2,75,experiment,60,→,right,→,0.40943549998337403,True,36,1
159K21S2,76,experiment,106,→,right,→,0.3840607999591157,True,36,0
159K21S2,77,experiment,55,←,left,←,0.40841930004535243,True,36,0
159K21S2,78,experiment,86,←,no_key,no_letter,-1.0,False,36,0
159K21S2,79,experiment,65,↓,up,↑,0.4257250999798998,False,36,1
159K21S2,80,experiment,93,↓,down,↓,0.392065099964384,True,36,0
159K21S2,81,experiment,99,→,left,←,0.3340689999749884,False,36,0
159K21S2,82,experiment,105,←,left,←,0.4423985999892466,True,36,0
159K21S2,83,experiment,95,↓,down,↓,0.4257359000039287,True,36,0
159K21S2,84,experiment,74,→,left,←,0.4010866999742575,False,36,0
159K21S2,85,experiment,56,←,left,←,0.6128208999871276,True,36,0
159K21S2,86,experiment,76,→,right,→,0.4906698999693617,True,36,1
159K21S2,87,experiment,57,↑,up,↑,0.38406109996140003,True,36,1
159K21S2,88,experiment,108,→,right,→,0.5197216999949887,True,36,0
159K21S2,89,experiment,58,←,left,←,0.43299399997340515,True,36,1
159K21S2,90,experiment,87,↑,up,↑,0.5126963999937288,True,36,0
159K21S2,91,experiment,71,↑,down,↓,0.5083286999724805,False,36,1
159K21S2,92,experiment,102,→,left,←,0.48584300000220537,False,36,1
159K21S2,93,experiment,63,↑,up,↑,0.4340945000294596,True,36,1
159K21S2,94,experiment,69,↑,up,↑,0.5478210999863222,True,36,0
159K21S2,95,experiment,100,↓,down,↓,0.6441940999939106,True,36,1
159K21S2,96,experiment,103,→,no_key,no_letter,-1.0,False,36,1
159K21S2,97,experiment,49,↓,down,↓,0.5364931999938563,True,36,1
159K21S2,98,experiment,78,→,left,←,0.409848699986469,False,36,1
159K21S2,99,experiment,48,←,left,←,0.39239650004310533,True,36,0
159K21S2,100,experiment,64,↑,up,↑,0.49012600001879036,True,36,0
159K21S2,101,experiment,70,↓,down,↓,0.5908762000035495,True,36,1
159K21S2,102,experiment,77,←,no_key,no_letter,-1.0,False,36,1
159K21S2,103,experiment,88,→,right,→,0.6167709999717772,True,36,1
159K21S2,104,training,101,→,right,→,0.44238149997545406,True,36,0
159K21S2,105,training,50,→,left,←,0.4016908000339754,False,36,0
159K21S2,106,experiment,52,↓,down,↓,0.5664535000105388,True,36,0
159K21S2,107,experiment,108,↓,down,↓,0.4519698999938555,True,36,1
159K21S2,108,experiment,77,→,no_key,no_letter,-1.0,False,36,0
159K21S2,109,experiment,62,→,right,→,0.6432662999723107,True,36,1
159K21S2,110,experiment,98,←,left,←,0.5126787999761291,True,36,1
159K21S2,111,experiment,94,←,no_key,no_letter,-1.0,False,36,1
159K21S2,112,experiment,60,↑,up,↑,0.42642729997169226,True,36,1
159K21S2,113,experiment,104,←,left,←,0.33424539997940883,True,36,0
159K21S2,114,experiment,79,↓,down,↓,0.4773096999851987,True,36,0
159K21S2,115,experiment,89,←,right,→,0.51545329997316,False,36,1
159K21S2,116,experiment,73,←,left,←,0.3007674999535084,True,36,1
159K21S2,117,experiment,56,←,left,←,0.3342119000153616,True,36,0
159K21S2,118,experiment,88,→,right,→,0.523700000019744,True,36,0
159K21S2,119,experiment,91,↓,down,↓,0.5041678000125103,True,36,1
159K21S2,120,experiment,93,↑,no_key,no_letter,-1.0,False,36,1
159K21S2,121,experiment,83,→,left,←,0.8017894999939017,False,36,1
159K21S2,122,experiment,61,↑,up,↑,0.6210839999839664,True,36,1
159K21S2,123,experiment,57,←,left,←,0.6808589000138454,True,36,1
159K21S2,124,experiment,96,←,left,←,0.5012427000328898,True,36,1
159K21S2,125,experiment,65,→,left,←,0.5152559999842197,False,36,1
159K21S2,126,experiment,66,←,left,←,0.7682337000151165,True,36,1
159K21S2,127,experiment,78,←,left,←,0.5913598000188358,True,36,1
159K21S2,128,experiment,81,↑,no_key,no_letter,-1.0,False,36,1
159K21S2,129,experiment,99,↓,down,↓,0.492346599989105,True,36,1
159K21S2,130,experiment,58,←,left,←,0.38400310004362836,True,36,1
159K21S2,131,experiment,105,↓,down,↓,0.5699656000360847,True,36,0
159K21S2,132,experiment,75,↑,up,↑,0.50634279998485,True,36,1
159K21S2,133,experiment,48,→,right,→,0.47019570000702515,True,36,1
159K21S2,134,experiment,90,←,left,←,0.45068870001705363,True,36,1
159K21S2,135,experiment,87,↑,down,↓,0.580765699967742,False,36,0
159K21S2,136,experiment,100,←,left,←,0.3757401999901049,True,36,1
159K21S2,137,experiment,53,→,left,←,0.4174164999858476,False,36,0
159K21S2,138,experiment,59,←,left,←,0.37553930003196,True,36,0
159K21S2,139,experiment,76,→,right,→,0.39220569998724386,True,36,0
159K21S2,140,experiment,70,→,right,→,0.37526950001483783,True,36,0
159K21S2,141,experiment,71,←,left,←,0.6380490000010468,True,36,0
159K21S2,142,experiment,101,↑,up,↑,0.4339958999771625,True,36,1
159K21S2,143,experiment,84,↓,down,↓,0.5006392999785021,True,36,0
159K21S2,144,experiment,69,↓,down,↓,0.5852023000479676,True,36,1
159K21S2,145,experiment,97,↑,up,↑,0.641085299954284,True,36,1
159K21S2,146,experiment,107,→,no_key,no_letter,-1.0,False,36,1
159K21S2,147,experiment,50,→,right,→,0.6757147000171244,True,36,1
159K21S2,148,experiment,95,→,left,←,0.5928592000273056,False,36,1
159K21S2,149,experiment,86,→,right,→,0.6441879000049084,True,36,1
159K21S2,150,experiment,68,←,left,←,0.4014313999796286,True,36,1
159K21S2,151,experiment,55,←,left,←,0.3420948999701068,True,36,0
159K21S2,152,experiment,92,↓,down,↓,0.6038103000028059,True,36,0
159K21S2,153,experiment,63,→,right,→,0.43418199999723583,True,36,1
159K21S2,154,experiment,82,↑,up,↑,0.5214333000476472,True,36,0
159K21S2,155,experiment,80,↑,up,↑,0.4508367000380531,True,36,1
159K21S2,156,experiment,106,→,right,→,0.5477360999793746,True,36,0
159K21S2,157,experiment,67,←,no_key,no_letter,-1.0,False,36,1
159K21S2,158,experiment,74,↑,up,↑,0.43400349997682497,True,36,1
159K21S2,159,experiment,103,←,left,←,0.6510491999797523,True,36,0
159K21S2,160,experiment,64,←,left,←,0.476034699997399,True,36,1
159K21S2,161,experiment,51,→,right,→,0.4948469999944791,True,36,1
159K21S2,162,experiment,102,↑,up,↑,0.4424045999767259,True,36,1
159K21S2,163,experiment,72,↑,up,↑,0.5823496999801137,True,36,0
159K21S2,164,experiment,85,→,left,←,0.4904312000144273,False,36,1
159K21S2,165,experiment,49,↓,down,↓,0.7824708999833092,True,36,1
159K21S2,166,experiment,54,↓,down,↓,0.48451880004722625,True,36,1
159K21S2,167,training,90,↓,down,↓,0.5766848000348546,True,36,0
159K21S2,168,training,100,←,left,←,0.3674324000021443,True,36,1
159K21S2,169,experiment,58,↑,up,↑,0.6295302999787964,True,36,0
159K21S2,170,experiment,95,→,right,→,0.6922630000044592,True,36,1
159K21S2,171,experiment,57,←,left,←,0.6692127999849617,True,36,1
159K21S2,172,experiment,61,↓,down,↓,0.6703222999931313,True,36,1
159K21S2,173,experiment,70,←,left,←,0.3505567999673076,True,36,1
159K21S2,174,experiment,60,→,right,→,0.43401869997614995,True,36,0
159K21S2,175,experiment,64,←,left,←,0.4007682000519708,True,36,0
159K21S2,176,experiment,94,→,right,→,0.5060991999926046,True,36,0
159K21S2,177,experiment,105,↑,no_key,no_letter,-1.0,False,36,1
159K21S2,178,experiment,63,→,right,→,0.47908839996671304,True,36,1
159K21S2,179,experiment,104,↓,down,↓,0.5043625999824144,True,36,1
159K21S2,180,experiment,56,↑,up,↑,0.5047749999794178,True,36,1
159K21S2,181,experiment,82,↓,down,↓,0.6168845999636687,True,36,1
159K21S2,182,experiment,59,↓,down,↓,0.4846885000006296,True,36,1
159K21S2,183,experiment,50,↓,down,↓,0.4420568000059575,True,36,1
159K21S2,184,experiment,107,↑,up,↑,0.3423827000078745,True,36,0
159K21S2,185,experiment,83,→,right,→,0.6325685000047088,True,36,0
159K21S2,186,experiment,84,↓,down,↓,0.5706751000252552,True,36,1
159K21S2,187,experiment,75,↑,up,↑,0.5226170999812894,True,36,1
159K21S2,188,experiment,66,↑,up,↑,0.42545760003849864,True,36,1
159K21S2,189,experiment,106,←,left,←,0.5944995999452658,True,36,0
159K21S2,190,experiment,49,↑,up,↑,0.3504247000091709,True,36,1
159K21S2,191,experiment,85,→,up,↑,0.3091477999696508,False,36,0
159K21S2,192,experiment,79,↓,down,↓,0.5280615999945439,True,36,0
159K21S2,193,experiment,99,→,right,→,0.6178214999963529,True,36,1
159K21S2,194,experiment,102,←,left,←,0.5508285999530926,True,36,1
159K21S2,195,experiment,69,↓,down,↓,0.5935581999947317,True,36,1
159K21S2,196,experiment,51,↑,up,↑,0.38398680003592744,True,36,1
159K21S2,197,experiment,52,←,left,←,0.5194685000460595,True,36,0
159K21S2,198,experiment,73,→,right,→,0.5701585999922827,True,36,1
159K21S2,199,experiment,71,←,left,←,0.6195121000055224,True,36,1
159K21S2,200,experiment,81,↓,down,↓,0.5356383000034839,True,36,1
159K21S2,201,experiment,98,↑,up,↑,0.42636129999300465,True,36,1
159K21S2,202,experiment,91,↓,down,↓,0.6494014000054449,True,36,0
159K21S2,203,experiment,76,←,left,←,0.5654527000151575,True,36,1
159K21S2,204,experiment,53,↓,no_key,no_letter,-1.0,False,36,1
159K21S2,205,experiment,92,↑,no_key,no_letter,-1.0,False,36,1
159K21S2,206,experiment,78,←,left,←,0.37554169999202713,True,36,1
159K21S2,207,experiment,65,↑,down,↓,0.5605941000394523,False,36,0
159K21S2,208,experiment,80,←,left,←,0.5594137000152841,True,36,1
159K21S2,209,experiment,88,→,right,→,0.6195977999595925,True,36,1
159K21S2,210,experiment,74,→,right,→,0.39253670000471175,True,36,1
159K21S2,211,experiment,54,←,no_key,no_letter,-1.0,False,36,0
159K21S2,212,experiment,90,↓,down,↓,0.6347715999581851,True,36,1
159K21S2,213,experiment,97,↓,down,↓,0.44228399998974055,True,36,1
159K21S2,214,experiment,87,↓,left,←,0.36747649998869747,False,36,0
159K21S2,215,experiment,96,→,right,→,0.5219236999982968,True,36,0
159K21S2,216,experiment,72,←,left,←,0.5808639999595471,True,36,1
159K21S2,217,experiment,86,↓,down,↓,0.5365192000172101,True,36,1
159K21S2,218,experiment,48,↑,up,↑,0.5071662000264041,True,36,1
159K21S2,219,experiment,89,↓,down,↓,0.528784399968572,True,36,1
159K21S2,220,experiment,108,↓,down,↓,0.6073443000204861,True,36,1
159K21S2,221,experiment,77,↓,down,↓,0.4503658000030555,True,36,1
159K21S2,222,experiment,103,→,left,←,0.48049170000012964,False,36,0
159K21S2,223,experiment,93,→,right,→,0.7175000000279397,True,36,1
159K21S2,224,experiment,100,←,left,←,0.4000907000154257,True,36,1
159K21S2,225,experiment,68,↓,down,↓,0.5920799999730662,True,36,0
159K21S2,226,experiment,55,→,right,→,0.5657028999994509,True,36,1
159K21S2,227,experiment,101,←,left,←,0.417460500029847,True,36,1
159K21S2,228,experiment,62,↑,up,↑,0.4425277999835089,True,36,0
159K21S2,229,experiment,67,←,left,←,0.6306028999970295,True,36,0
159K21S2,230,training,71,←,left,←,0.4948289000312798,True,36,0
159K21S2,231,training,56,→,right,→,0.4961490999558009,True,36,1
159K21S2,232,experiment,53,←,left,←,0.3428385999868624,True,36,1
159K21S2,233,experiment,50,←,left,←,0.3508125999942422,True,36,0
159K21S2,234,experiment,93,↓,down,↓,0.6378985999617726,True,36,0
159K21S2,235,experiment,81,→,no_key,no_letter,-1.0,False,36,1
159K21S2,236,experiment,73,↓,no_key,no_letter,-1.0,False,36,1
159K21S2,237,experiment,74,↓,down,↓,0.31004930002382025,True,36,1
159K21S2,238,experiment,107,←,left,←,0.5210430999868549,True,36,0
159K21S2,239,experiment,62,←,left,←,0.5596001000376418,True,36,1
159K21S2,240,experiment,92,↑,up,↑,0.5941719000111334,True,36,1
159K21S2,241,experiment,76,←,left,←,0.4334008999867365,True,36,1
159K21S2,242,experiment,105,↑,up,↑,0.35898709995672107,True,36,0
159K21S2,243,experiment,102,↓,down,↓,0.5711071999976411,True,36,0
159K21S2,244,experiment,64,→,right,→,0.7024558000266552,True,36,1
159K21S2,245,experiment,82,↑,up,↑,0.5028325999737717,True,36,1
159K21S2,246,experiment,49,←,left,←,0.546539600007236,True,36,1
159K21S2,247,experiment,99,←,left,←,0.49940590001642704,True,36,1
159K21S2,248,experiment,58,→,right,→,0.6036346000037156,True,36,1
159K21S2,249,experiment,84,↓,down,↓,0.495533500041347,True,36,1
159K21S2,250,experiment,65,↓,down,↓,0.5900216999580152,True,36,1
159K21S2,251,experiment,89,↑,up,↑,0.7843155000009574,True,36,1
159K21S2,252,experiment,54,↑,up,↑,0.4257379000191577,True,36,1
159K21S2,253,experiment,95,↑,up,↑,0.6453591999597847,True,36,0
159K21S2,254,experiment,72,←,left,←,0.40083530003903434,True,36,1
159K21S2,255,experiment,52,←,left,←,0.3674572999589145,True,36,0
159K21S2,256,experiment,59,←,left,←,0.34264210000401363,True,36,0
159K21S2,257,experiment,60,↓,down,↓,0.524463499954436,True,36,0
159K21S2,258,experiment,101,→,no_key,no_letter,-1.0,False,36,1
159K21S2,259,experiment,86,→,right,→,0.5057772000436671,True,36,1
159K21S2,260,experiment,69,←,left,←,0.3597398000420071,True,36,1
159K21S2,261,experiment,57,→,right,→,0.40074640000239015,True,36,0
159K21S2,262,experiment,67,↑,up,↑,0.541560500045307,True,36,0
159K21S2,263,experiment,90,←,left,←,0.3673873000079766,True,36,1
159K21S2,264,experiment,75,↑,up,↑,0.6012177999946289,True,36,0
159K21S2,265,experiment,108,←,left,←,0.4774212999618612,True,36,1
159K21S2,266,experiment,80,↑,up,↑,0.47921199997654185,True,36,1
159K21S2,267,experiment,103,↑,up,↑,0.39248800004133955,True,36,1
159K21S2,268,experiment,97,←,left,←,0.4506311999866739,True,36,0
159K21S2,269,experiment,106,→,right,→,0.39241740002762526,True,36,0
159K21S2,270,experiment,96,↑,up,↑,0.48168840003199875,True,36,0
159K21S2,271,experiment,100,→,left,←,0.40903789998264983,False,36,1
159K21S2,272,experiment,48,←,left,←,0.4174801000044681,True,36,0
159K21S2,273,experiment,70,↓,down,↓,0.47591519996058196,True,36,0
159K21S2,274,experiment,88,←,left,←,0.4257023999816738,True,36,1
159K21S2,275,experiment,55,→,right,→,0.5107797000091523,True,36,0
159K21S2,276,experiment,68,↑,up,↑,0.4837712000007741,True,36,1
159K21S2,277,experiment,83,→,right,→,0.5001389000099152,True,36,1
159K21S2,278,experiment,104,↓,down,↓,0.6451342000509612,True,36,1
159K21S2,279,experiment,51,↓,down,↓,0.5062579000368714,True,36,1
159K21S2,280,experiment,94,↑,no_key,no_letter,-1.0,False,36,1
159K21S2,281,experiment,56,↓,down,↓,0.4421144000370987,True,36,1
159K21S2,282,experiment,79,←,left,←,0.4804066000506282,True,36,0
159K21S2,283,experiment,77,↓,left,←,0.5626053999876603,False,36,1
159K21S2,284,experiment,98,↑,no_key,no_letter,-1.0,False,36,1
159K21S2,285,experiment,61,↓,no_key,no_letter,-1.0,False,36,1
159K21S2,286,experiment,71,←,left,←,0.49682450003456324,True,36,1
159K21S2,287,experiment,66,↑,up,↑,0.47103910002624616,True,36,1
159K21S2,288,experiment,78,↑,up,↑,0.44262759998673573,True,36,0
159K21S2,289,experiment,87,←,left,←,0.4007395000080578,True,36,0
159K21S2,290,experiment,91,→,left,←,0.39238090004073456,False,36,0
159K21S2,291,experiment,85,↓,down,↓,0.5904819999705069,True,36,0
159K21S2,292,experiment,63,←,left,←,0.6098082999815233,True,36,1
159K21S2,293,training,68,←,left,←,0.34258880000561476,True,36,0
159K21S2,294,training,76,←,left,←,0.3922223999979906,True,36,0
159K21S2,295,experiment,63,↑,up,↑,0.6213060999871232,True,36,0
159K21S2,296,experiment,49,↓,up,↑,0.4840865000151098,False,36,1
159K21S2,297,experiment,96,→,right,→,0.5117033999995328,True,36,1
159K21S2,298,experiment,74,→,right,→,0.43401049997191876,True,36,1
159K21S2,299,experiment,106,←,left,←,0.6378372000181116,True,36,0
159K21S2,300,experiment,54,↑,no_key,no_letter,-1.0,False,36,1
159K21S2,301,experiment,58,↑,up,↑,0.44228379998821765,True,36,1
159K21S2,302,experiment,59,←,left,←,0.4265754999942146,True,36,0
159K21S2,303,experiment,95,←,left,←,0.5598084999946877,True,36,0
159K21S2,304,experiment,107,↑,no_key,no_letter,-1.0,False,36,1
159K21S2,305,experiment,55,↓,left,←,0.3756236999761313,False,36,1
159K21S2,306,experiment,61,↑,no_key,no_letter,-1.0,False,36,0
159K21S2,307,experiment,100,↑,up,↑,0.5678117999923415,True,36,1
159K21S2,308,experiment,53,←,left,←,0.3841688000247814,True,36,1
159K21S2,309,experiment,105,←,left,←,0.30902540002716705,True,36,0
159K21S2,310,experiment,65,↑,up,↑,0.3840778999729082,True,36,0
159K21S2,311,experiment,69,↑,up,↑,0.5787236000178382,True,36,0
159K21S2,312,experiment,50,←,left,←,0.4831634999718517,True,36,1
159K21S2,313,experiment,70,↓,up,↑,0.45067789999302477,False,36,1
159K21S2,314,experiment,101,←,left,←,0.42579860001569614,True,36,0
159K21S2,315,experiment,56,→,left,←,0.39240949996747077,False,36,0
159K21S2,316,experiment,51,↓,down,↓,0.47929900005692616,True,36,0
159K21S2,317,experiment,48,↓,down,↓,0.746479699970223,True,36,1
159K21S2,318,experiment,87,←,no_key,no_letter,-1.0,False,36,1
159K21S2,319,experiment,104,←,left,←,0.40919039997970685,True,36,1
159K21S2,320,experiment,68,→,right,→,0.7260394999757409,True,36,0
159K21S2,321,experiment,94,←,left,←,0.35091710003325716,True,36,1
159K21S2,322,experiment,98,←,right,→,0.350683199998457,False,36,0
159K21S2,323,experiment,80,→,right,→,0.5368448999943212,True,36,0
159K21S2,324,experiment,88,↓,down,↓,0.4938181999605149,True,36,1
159K21S2,325,experiment,89,←,left,←,0.40085669996915385,True,36,1
159K21S2,326,experiment,84,←,left,←,0.48758730001281947,True,36,0
159K21S2,327,experiment,78,→,right,→,0.5296178000280634,True,36,1
159K21S2,328,experiment,52,←,left,←,0.5146910999901593,True,36,1
159K21S2,329,experiment,60,↑,up,↑,0.6897799000144005,True,36,1
159K21S2,330,experiment,93,↓,down,↓,0.6467952000093646,True,36,1
159K21S2,331,experiment,72,←,left,←,0.40906710003037006,True,36,1
159K21S2,332,experiment,77,↓,down,↓,0.49040980002610013,True,36,0
159K21S2,333,experiment,86,→,right,→,0.49752859998261556,True,36,1
159K21S2,334,experiment,92,↑,left,←,0.34342210000613704,False,36,1
159K21S2,335,experiment,99,↑,up,↑,0.4710554000339471,True,36,0
159K21S2,336,experiment,73,→,right,→,0.4678511999663897,True,36,0
159K21S2,337,experiment,57,←,left,←,0.4424237000057474,True,36,0
159K21S2,338,experiment,97,↓,down,↓,0.6503967000171542,True,36,0
159K21S2,339,experiment,90,→,right,→,0.7700263999868184,True,36,1
159K21S2,340,experiment,103,↑,up,↑,0.4259485999937169,True,36,1
159K21S2,341,experiment,75,↓,left,←,0.33311539998976514,False,36,0
159K21S2,342,experiment,71,↓,down,↓,0.5926275000092573,True,36,0
159K21S2,343,experiment,83,→,no_key,no_letter,-1.0,False,36,1
159K21S2,344,experiment,67,→,no_key,no_letter,-1.0,False,36,1
159K21S2,345,experiment,79,↑,up,↑,0.7260704000364058,True,36,1
159K21S2,346,experiment,108,←,left,←,0.5327243999927305,True,36,1
159K21S2,347,experiment,76,→,right,→,0.7421451000263914,True,36,1
159K21S2,348,experiment,102,↓,down,↓,0.6538234999752603,True,36,1
159K21S2,349,experiment,91,↓,no_key,no_letter,-1.0,False,36,1
159K21S2,350,experiment,81,→,right,→,0.5790721999946982,True,36,1
159K21S2,351,experiment,62,↑,up,↑,0.5192340000066906,True,36,1
159K21S2,352,experiment,85,↓,down,↓,0.5818449999787845,True,36,1
159K21S2,353,experiment,64,←,left,←,0.40201899997191504,True,36,1
159K21S2,354,experiment,66,↓,down,↓,0.47454329999163747,True,36,0
159K21S2,355,experiment,82,↑,up,↑,0.5631430000066757,True,36,1
159K21S2,356,training,108,←,right,→,0.49203510000370443,False,36,0
159K21S2,357,training,48,←,left,←,0.3340846999781206,True,36,1
159K21S2,358,experiment,67,↑,up,↑,0.4091560000088066,True,36,0
159K21S2,359,experiment,52,↓,no_key,no_letter,-1.0,False,36,0
159K21S2,360,experiment,50,→,right,→,0.5456146999495104,True,36,1
159K21S2,361,experiment,61,→,left,←,0.36811400001170114,False,36,1
159K21S2,362,experiment,101,↓,down,↓,0.5179868999985047,True,36,0
159K21S2,363,experiment,102,↑,up,↑,0.615150999976322,True,36,1
159K21S2,364,experiment,75,→,right,→,0.4781113999779336,True,36,1
159K21S2,365,experiment,104,↑,up,↑,0.5267935000010766,True,36,1
159K21S2,366,experiment,69,↑,up,↑,0.36672180000459775,True,36,1
159K21S2,367,experiment,51,←,left,←,0.3838724000379443,True,36,0
159K21S2,368,experiment,60,→,left,←,0.40037069999380037,False,36,0
159K21S2,369,experiment,97,→,right,→,0.661577099992428,True,36,0
159K21S2,370,experiment,54,→,right,→,0.3840413999860175,True,36,1
159K21S2,371,experiment,89,↑,up,↑,0.47597979998681694,True,36,0
159K21S2,372,experiment,58,→,right,→,0.6686874000006355,True,36,1
159K21S2,373,experiment,108,↑,up,↑,0.5254220000351779,True,36,1
159K21S2,374,experiment,63,→,right,→,0.7472115000127815,True,36,1
159K21S2,375,experiment,106,↑,up,↑,0.38409990002401173,True,36,1
159K21S2,376,experiment,78,↑,up,↑,0.38465520000318065,True,36,0
159K21S2,377,experiment,55,↑,up,↑,0.4340708000236191,True,36,0
159K21S2,378,experiment,82,←,left,←,0.42585120000876486,True,36,0
159K21S2,379,experiment,71,↑,up,↑,0.49472369998693466,True,36,0
159K21S2,380,experiment,87,→,right,→,0.4933106999960728,True,36,1
159K21S2,381,experiment,48,←,left,←,0.5854810000164434,True,36,1
159K21S2,382,experiment,76,↓,down,↓,0.6165649000322446,True,36,1
159K21S2,383,experiment,62,←,left,←,0.4755435000406578,True,36,1
159K21S2,384,experiment,91,↓,down,↓,0.4890980999916792,True,36,1
159K21S2,385,experiment,94,→,right,→,0.7658484999556094,True,36,1
159K21S2,386,experiment,59,→,right,→,0.4922351000132039,True,36,1
159K21S2,387,experiment,98,←,left,←,0.5104703999822959,True,36,1
159K21S2,388,experiment,100,↑,up,↑,0.4342274999944493,True,36,1
159K21S2,389,experiment,65,←,right,→,0.5609203000203706,False,36,0
159K21S2,390,experiment,53,←,left,←,0.5847265999764204,True,36,1
159K21S2,391,experiment,96,↓,no_key,no_letter,-1.0,False,36,1
159K21S2,392,experiment,84,→,right,→,0.4864742999779992,True,36,1
159K21S2,393,experiment,66,←,left,←,0.43408769997768104,True,36,1
159K21S2,394,experiment,79,←,left,←,0.40078470000298694,True,36,0
159K21S2,395,experiment,95,←,right,→,0.3681222999584861,False,36,0
159K21S2,396,experiment,49,↓,down,↓,0.472250199993141,True,36,0
159K21S2,397,experiment,103,←,no_key,no_letter,-1.0,False,36,1
159K21S2,398,experiment,83,←,left,←,0.3840626999735832,True,36,1
159K21S2,399,experiment,90,↓,down,↓,0.48130119999404997,True,36,0
159K21S2,400,experiment,56,←,left,←,0.38399380003102124,True,36,1
159K21S2,401,experiment,93,→,right,→,0.6201969000394456,True,36,0
159K21S2,402,experiment,80,←,left,←,0.5125317999627441,True,36,1
159K21S2,403,experiment,57,↑,down,↓,0.5526420999667607,False,36,1
159K21S2,404,experiment,86,↑,up,↑,0.5419070999487303,True,36,1
159K21S2,405,experiment,92,↓,down,↓,0.6171290999627672,True,36,1
159K21S2,406,experiment,105,→,right,→,0.5092312000342645,True,36,1
159K21S2,407,experiment,81,←,left,←,0.5094380000373349,True,36,1
159K21S2,408,experiment,77,↑,up,↑,0.4010623999638483,True,36,1
159K21S2,409,experiment,88,↑,up,↑,0.4266100999666378,True,36,0
159K21S2,410,experiment,72,↓,down,↓,0.47203199996147305,True,36,0
159K21S2,411,experiment,99,→,right,→,0.5472365999594331,True,36,1
159K21S2,412,experiment,85,↑,up,↑,0.5125036000390537,True,36,1
159K21S2,413,experiment,73,←,left,←,0.3255005999817513,True,36,1
159K21S2,414,experiment,74,→,right,→,0.3494879000354558,True,36,0
159K21S2,415,experiment,107,←,left,←,0.4003639000002295,True,36,0
159K21S2,416,experiment,68,↑,up,↑,0.6994233999866992,True,36,0
159K21S2,417,experiment,64,←,left,←,0.5218253000057302,True,36,1
159K21S2,418,experiment,70,↓,down,↓,0.4340642999741249,True,36,1
159K21S2,419,training,54,←,left,←,0.5526973999803886,True,36,0
159K21S2,420,training,60,→,right,→,0.4171059000073001,True,36,1
159K21S2,421,experiment,74,→,left,←,0.4424804999725893,False,36,0
159K21S2,422,experiment,108,↑,up,↑,0.6221341000054963,True,36,0
159K21S2,423,experiment,64,↑,up,↑,0.3764748999965377,True,36,1
159K21S2,424,experiment,70,↓,down,↓,0.4886801000102423,True,36,0
159K21S2,425,experiment,84,→,left,←,0.3257480000029318,False,36,1
159K21S2,426,experiment,58,←,left,←,0.49573789996793494,True,36,0
159K21S2,427,experiment,94,↓,down,↓,0.6119793999823742,True,36,1
159K21S2,428,experiment,78,↓,down,↓,0.5372905000112951,True,36,1
159K21S2,429,experiment,60,↑,up,↑,0.5996989000122994,True,36,1
159K21S2,430,experiment,99,←,left,←,0.41753620002418756,True,36,1
159K21S2,431,experiment,50,↑,up,↑,0.4006559000117704,True,36,0
159K21S2,432,experiment,57,↑,left,←,0.3673763999831863,False,36,0
159K21S2,433,experiment,104,↑,up,↑,0.3600567999528721,True,36,0
159K21S2,434,experiment,80,→,left,←,0.39244540000800043,False,36,0
159K21S2,435,experiment,48,↓,down,↓,0.6931790999951772,True,36,0
159K21S2,436,experiment,54,↑,no_key,no_letter,-1.0,False,36,1
159K21S2,437,experiment,82,←,left,←,0.33406630001263693,True,36,1
159K21S2,438,experiment,73,→,right,→,0.5263484999886714,True,36,0
159K21S2,439,experiment,92,←,left,←,0.4002633999916725,True,36,1
159K21S2,440,experiment,62,→,right,→,0.6132061000098474,True,36,0
159K21S2,441,experiment,97,↑,up,↑,0.4683643999742344,True,36,1
159K21S2,442,experiment,61,↑,up,↑,0.40904820000287145,True,36,0
159K21S2,443,experiment,53,↓,no_key,no_letter,-1.0,False,36,0
159K21S2,444,experiment,79,←,no_key,no_letter,-1.0,False,36,1
159K21S2,445,experiment,93,→,right,→,0.45100230001844466,True,36,1
159K21S2,446,experiment,68,↑,up,↑,0.6651288000284694,True,36,0
159K21S2,447,experiment,91,→,right,→,0.5595339999999851,True,36,1
159K21S2,448,experiment,81,↑,up,↑,0.333391800057143,True,36,1
159K21S2,449,experiment,96,↓,right,→,0.33413620002102107,False,36,0
159K21S2,450,experiment,90,↓,down,↓,0.4509563999599777,True,36,0
159K21S2,451,experiment,106,↑,up,↑,0.37581449997378513,True,36,0
159K21S2,452,experiment,51,↓,down,↓,0.5576420999714173,True,36,0
159K21S2,453,experiment,72,←,left,←,0.5830091999960132,True,36,1
159K21S2,454,experiment,63,↑,up,↑,0.4088177000521682,True,36,1
159K21S2,455,experiment,87,↓,up,↑,0.3505159000051208,False,36,0
159K21S2,456,experiment,101,↓,down,↓,0.40904200001386926,True,36,0
159K21S2,457,experiment,89,←,left,←,0.5255859000026248,True,36,0
159K21S2,458,experiment,98,↑,up,↑,0.4093423999729566,True,36,1
159K21S2,459,experiment,71,←,left,←,0.42569640005240217,True,36,0
159K21S2,460,experiment,59,←,left,←,0.4506943999440409,True,36,0
159K21S2,461,experiment,69,←,left,←,0.4011901000048965,True,36,0
159K21S2,462,experiment,83,←,left,←,0.34240339999087155,True,36,0
159K21S2,463,experiment,56,↓,left,←,0.31711830000858754,False,36,0
159K21S2,464,experiment,107,→,right,→,0.505922999989707,True,36,0
159K21S2,465,experiment,95,→,left,←,0.3754534000181593,False,36,1
159K21S2,466,experiment,76,↑,no_key,no_letter,-1.0,False,36,0
159K21S2,467,experiment,77,↓,down,↓,0.49201570003060624,True,36,1
159K21S2,468,experiment,103,↓,down,↓,0.6455824000295252,True,36,1
159K21S2,469,experiment,100,↑,up,↑,0.4175371000310406,True,36,1
159K21S2,470,experiment,52,↑,up,↑,0.3672050000168383,True,36,0
159K21S2,471,experiment,105,←,no_key,no_letter,-1.0,False,36,0
159K21S2,472,experiment,86,←,left,←,0.43386199994711205,True,36,1
159K21S2,473,experiment,65,↑,no_key,no_letter,-1.0,False,36,0
159K21S2,474,experiment,102,↓,down,↓,0.6872254000045359,True,36,1
159K21S2,475,experiment,85,↑,up,↑,0.5272629999672063,True,36,1
159K21S2,476,experiment,66,↑,up,↑,0.4007642000215128,True,36,1
159K21S2,477,experiment,75,↓,up,↑,0.3925457000150345,False,36,0
159K21S2,478,experiment,55,←,left,←,0.4420741000212729,True,36,0
159K21S2,479,experiment,49,→,right,→,0.6053884000284597,True,36,0
159K21S2,480,experiment,88,←,left,←,0.4089956999523565,True,36,1
159K21S2,481,experiment,67,→,no_key,no_letter,-1.0,False,36,0
159K21S2,482,training,78,↓,down,↓,0.5854434000211768,True,36,0
159K21S2,483,training,68,→,left,←,0.34240239998325706,False,36,1
159K21S2,484,experiment,87,←,left,←,0.39306490001035854,True,36,0
159K21S2,485,experiment,94,→,right,→,0.4256065000081435,True,36,0
159K21S2,486,experiment,105,→,right,→,0.3590326000121422,True,36,0
159K21S2,487,experiment,58,↑,no_key,no_letter,-1.0,False,36,0
159K21S2,488,experiment,70,↑,up,↑,0.4669735999777913,True,36,1
159K21S2,489,experiment,52,→,right,→,0.4941712000290863,True,36,0
159K21S2,490,experiment,74,↓,down,↓,0.7054539000382647,True,36,1
159K21S2,491,experiment,86,↑,down,↓,0.6242394000291824,False,36,1
159K21S2,492,experiment,107,→,right,→,0.5472234999760985,True,36,1
159K21S2,493,experiment,97,↓,down,↓,0.5246016000164673,True,36,1
159K21S2,494,experiment,83,→,left,←,0.3924158000154421,False,36,1
159K21S2,495,experiment,93,←,right,→,0.4847530000261031,False,36,0
159K21S2,496,experiment,49,↑,up,↑,0.3840568999876268,True,36,1
159K21S2,497,experiment,62,→,right,→,0.4840124999755062,True,36,0
159K21S2,498,experiment,56,←,left,←,0.4509344000252895,True,36,1
159K21S2,499,experiment,88,→,right,→,0.5494489999837242,True,36,0
159K21S2,500,experiment,78,←,left,←,0.39180149999447167,True,36,1
159K21S2,501,experiment,85,←,left,←,0.4100027999957092,True,36,0
159K21S2,502,experiment,81,↑,up,↑,0.5963629000470974,True,36,0
159K21S2,503,experiment,82,←,left,←,0.47336199996061623,True,36,1
159K21S2,504,experiment,65,←,right,→,0.511882400023751,False,36,0
159K21S2,505,experiment,108,→,right,→,0.5832546000019647,True,36,1
159K21S2,506,experiment,68,↓,down,↓,0.6009436000022106,True,36,1
159K21S2,507,experiment,103,↑,up,↑,0.3921509999781847,True,36,1
159K21S2,508,experiment,100,→,right,→,0.4340879999799654,True,36,0
159K21S2,509,experiment,90,←,left,←,0.38407719996757805,True,36,0
159K21S2,510,experiment,72,→,right,→,0.5328836999833584,True,36,0
159K21S2,511,experiment,55,↑,up,↑,0.48509659996489063,True,36,1
159K21S2,512,experiment,71,→,right,→,0.697717500035651,True,36,1
159K21S2,513,experiment,67,←,left,←,0.4172887000022456,True,36,1
159K21S2,514,experiment,73,←,left,←,0.4173604999668896,True,36,0
159K21S2,515,experiment,54,↓,down,↓,0.6262975999852642,True,36,0
159K21S2,516,experiment,92,←,left,←,0.3918472999939695,True,36,1
159K21S2,517,experiment,59,↑,up,↑,0.4866799999726936,True,36,0
159K21S2,518,experiment,98,↓,down,↓,0.49002039997139946,True,36,1
159K21S2,519,experiment,50,←,left,←,0.5013205000432208,True,36,1
159K21S2,520,experiment,99,↑,up,↑,0.5119772999896668,True,36,1
159K21S2,521,experiment,64,→,right,→,0.6140792000223882,True,36,1
159K21S2,522,experiment,84,↑,up,↑,0.5131235999870114,True,36,1
159K21S2,523,experiment,101,←,left,←,0.6185042000142857,True,36,1
159K21S2,524,experiment,91,↓,down,↓,0.5716150000225753,True,36,1
159K21S2,525,experiment,89,↓,down,↓,0.7426884999731556,True,36,1
159K21S2,526,experiment,104,↓,down,↓,0.6623649999964982,True,36,1
159K21S2,527,experiment,95,→,right,→,0.5956532999989577,True,36,1
159K21S2,528,experiment,51,↓,down,↓,0.5146912999916822,True,36,1
159K21S2,529,experiment,57,↑,up,↑,0.45071780000580475,True,36,1
159K21S2,530,experiment,60,↓,down,↓,0.39237700001103804,True,36,0
159K21S2,531,experiment,77,→,left,←,0.3590097999549471,False,36,0
159K21S2,532,experiment,48,↑,up,↑,0.40910409996286035,True,36,0
159K21S2,533,experiment,106,→,right,→,0.47165269998367876,True,36,0
159K21S2,534,experiment,79,→,right,→,0.5056258999975398,True,36,0
159K21S2,535,experiment,66,↑,up,↑,0.3926791999838315,True,36,1
159K21S2,536,experiment,61,↓,down,↓,0.42525460000615567,True,36,0
159K21S2,537,experiment,63,←,left,←,0.42569199996069074,True,36,0
159K21S2,538,experiment,80,↑,up,↑,0.5517258999752812,True,36,0
159K21S2,539,experiment,69,↑,up,↑,0.4007331999600865,True,36,1
159K21S2,540,experiment,76,→,right,→,0.4808411000412889,True,36,0
159K21S2,541,experiment,53,←,left,←,0.41809200000716373,True,36,1
159K21S2,542,experiment,96,←,left,←,0.42598800000268966,True,36,0
159K21S2,543,experiment,75,→,right,→,0.35067770001478493,True,36,0
159K21S2,544,experiment,102,↑,up,↑,0.3507435999927111,True,36,0
159K21S2,545,training,108,↑,left,←,0.3505110999685712,False,35,0
159K21S2,546,training,88,→,right,→,0.637144599983003,True,35,0
159K21S2,547,experiment,104,↓,down,↓,0.681085099990014,True,35,1
159K21S2,548,experiment,94,→,right,→,0.42577789997449145,True,35,1
159K21S2,549,experiment,67,←,no_key,no_letter,-1.0,False,35,0
159K21S2,550,experiment,53,↑,no_key,no_letter,-1.0,False,35,1
159K21S2,551,experiment,85,←,no_key,no_letter,-1.0,False,35,1
159K21S2,552,experiment,66,↑,up,↑,0.5016154000186361,True,35,1
159K21S2,553,experiment,87,←,left,←,0.4009566999739036,True,35,1
159K21S2,554,experiment,56,→,right,→,0.5051121999858879,True,35,0
159K21S2,555,experiment,72,↑,up,↑,0.40069260000018403,True,35,1
159K21S2,556,experiment,103,←,no_key,no_letter,-1.0,False,35,0
159K21S2,557,experiment,65,→,right,→,0.6611166999791749,True,35,1
159K21S2,558,experiment,101,↓,down,↓,0.5610600999789312,True,35,1
159K21S2,559,experiment,88,↓,down,↓,0.5967951000202447,True,35,1
159K21S2,560,experiment,84,↑,up,↑,0.43413589999545366,True,35,1
159K21S2,561,experiment,90,↑,up,↑,0.7286549999844283,True,35,0
159K21S2,562,experiment,74,↑,up,↑,0.6266619999660179,True,35,1
159K21S2,563,experiment,97,↓,down,↓,0.6491482999990694,True,35,1
159K21S2,564,experiment,70,↑,left,←,0.376474299991969,False,35,1
159K21S2,565,experiment,83,←,left,←,0.5080992999719456,True,35,0
159K21S2,566,experiment,75,←,left,←,0.40026409999700263,True,35,1
159K21S2,567,experiment,48,←,left,←,0.4260424000094645,True,35,0
159K21S2,568,experiment,52,↑,up,↑,0.3589973999769427,True,35,0
159K21S2,569,experiment,106,←,left,←,0.4093936000135727,True,35,0
159K21S2,570,experiment,69,↓,down,↓,0.6247036000131629,True,35,0
159K21S2,571,experiment,54,←,left,←,0.6373817000421695,True,35,1
159K21S2,572,experiment,68,↓,left,←,0.35898249997990206,False,35,1
159K21S2,573,experiment,71,←,left,←,0.46329000004334375,True,35,0
159K21S2,574,experiment,102,←,left,←,0.4091136999777518,True,35,0
159K21S2,575,experiment,95,→,right,→,0.43450540001504123,True,35,0
159K21S2,576,experiment,50,→,left,←,0.4341584999929182,False,35,0
159K21S2,577,experiment,60,↓,down,↓,0.600640399963595,True,35,0
159K21S2,578,experiment,100,↑,up,↑,0.6789721000241116,True,35,1
159K21S2,579,experiment,63,→,right,→,0.46328329999232665,True,35,1
159K21S2,580,experiment,64,↑,up,↑,0.5026004000101238,True,35,1
159K21S2,581,experiment,99,↑,up,↑,0.4976090000127442,True,35,1
159K21S2,582,experiment,57,↑,up,↑,0.4007612999994308,True,35,1
159K21S2,583,experiment,77,↑,up,↑,0.47991560003720224,True,35,0
159K21S2,584,experiment,79,↓,down,↓,0.6417981999693438,True,35,1
159K21S2,585,experiment,49,↓,down,↓,0.6235165999969468,True,35,1
159K21S2,586,experiment,59,↓,no_key,no_letter,-1.0,False,35,1
159K21S2,587,experiment,51,↑,up,↑,0.48286950000328943,True,35,1
159K21S2,588,experiment,98,↑,up,↑,0.3340498000034131,True,35,1
159K21S2,589,experiment,81,→,right,→,0.501666700001806,True,35,0
159K21S2,590,experiment,105,←,left,←,0.4628293000278063,True,35,1
159K21S2,591,experiment,76,←,left,←,0.35071210004389286,True,35,0
159K21S2,592,experiment,58,↓,down,↓,0.48034710000501946,True,35,0
159K21S2,593,experiment,55,←,left,←,0.5303711000015028,True,35,1
159K21S2,594,experiment,107,↑,up,↑,0.3590731000294909,True,35,1
159K21S2,595,experiment,96,→,left,←,0.42574650002643466,False,35,0
159K21S2,596,experiment,78,→,right,→,0.47859120002249256,True,35,0
159K21S2,597,experiment,73,→,right,→,0.3587575000128709,True,35,1
159K21S2,598,experiment,92,→,left,←,0.34195519995409995,False,35,0
159K21S2,599,experiment,61,→,right,→,0.6187870999565348,True,35,0
159K21S2,600,experiment,82,←,left,←,0.5024612999986857,True,35,1
159K21S2,601,experiment,89,↓,down,↓,0.556539100012742,True,35,1
159K21S2,602,experiment,80,→,right,→,0.3840686999610625,True,35,1
159K21S2,603,experiment,62,←,left,←,0.42571829998632893,True,35,0
159K21S2,604,experiment,108,↑,up,↑,0.689270899980329,True,35,0
159K21S2,605,experiment,86,←,left,←,0.6084438000107184,True,35,1
159K21S2,606,experiment,91,←,right,→,0.5055015000398271,False,35,1
159K21S2,607,experiment,93,↓,down,↓,0.5498883999534883,True,35,1
159K21S2,608,training,48,↑,up,↑,0.6298999999999069,True,35,0
159K21S2,609,training,58,↑,up,↑,0.42648969998117536,True,35,1
159K21S2,610,experiment,52,→,no_key,no_letter,-1.0,False,35,0
159K21S2,611,experiment,100,↓,down,↓,0.46231239999178797,True,35,1
159K21S2,612,experiment,92,←,left,←,0.40907350002089515,True,35,1
159K21S2,613,experiment,87,↓,down,↓,0.4863759999861941,True,35,0
159K21S2,614,experiment,57,←,left,←,0.367482400033623,True,35,1
159K21S2,615,experiment,106,↑,up,↑,0.4929221000056714,True,35,0
159K21S2,616,experiment,102,→,right,→,0.5667905999580398,True,35,1
159K21S2,617,experiment,107,←,no_key,no_letter,-1.0,False,35,1
159K21S2,618,experiment,56,→,right,→,0.6508241000119597,True,35,1
159K21S2,619,experiment,69,←,left,←,0.47401090001221746,True,35,1
159K21S2,620,experiment,85,→,left,←,0.40065349999349564,False,35,1
159K21S2,621,experiment,64,←,right,→,0.548120099992957,False,35,0
159K21S2,622,experiment,49,→,right,→,0.469591400003992,True,35,1
159K21S2,623,experiment,72,→,right,→,0.425726100045722,True,35,1
159K21S2,624,experiment,108,↓,down,↓,0.5172111999709159,True,35,0
159K21S2,625,experiment,48,↑,up,↑,0.5280972000327893,True,35,1
159K21S2,626,experiment,104,←,left,←,0.5119928999920376,True,35,1
159K21S2,627,experiment,75,↑,up,↑,0.49079740000888705,True,35,1
159K21S2,628,experiment,98,↓,down,↓,0.4779984999913722,True,35,1
159K21S2,629,experiment,55,↑,up,↑,0.616010700003244,True,35,1
159K21S2,630,experiment,50,→,right,→,0.48720810003578663,True,35,1
159K21S2,631,experiment,88,↓,down,↓,0.6851120999781415,True,35,1
159K21S2,632,experiment,70,↑,up,↑,0.37570159998722374,True,35,1
159K21S2,633,experiment,73,→,right,→,0.5463333000079729,True,35,0
159K21S2,634,experiment,65,↑,up,↑,0.40039629995590076,True,35,1
159K21S2,635,experiment,78,↑,up,↑,0.417410199996084,True,35,0
159K21S2,636,experiment,76,↑,up,↑,0.3602938000112772,True,35,0
159K21S2,637,experiment,53,→,right,→,0.4017611999879591,True,35,0
159K21S2,638,experiment,97,→,left,←,0.3503132999758236,False,35,0
159K21S2,639,experiment,54,→,right,→,0.6628690999932587,True,35,0
159K21S2,640,experiment,74,←,left,←,0.4007805999717675,True,35,1
159K21S2,641,experiment,84,↑,up,↑,0.646670299989637,True,35,0
159K21S2,642,experiment,68,↑,up,↑,0.40072249999502674,True,35,1
159K21S2,643,experiment,59,←,up,↑,0.39242589997593313,False,35,0
159K21S2,644,experiment,66,→,right,→,0.5472461000317708,True,35,0
159K21S2,645,experiment,83,↓,down,↓,0.6093147000065073,True,35,1
159K21S2,646,experiment,62,→,right,→,0.46859579998999834,True,35,1
159K21S2,647,experiment,67,↓,down,↓,0.6105031999759376,True,35,1
159K21S2,648,experiment,61,↑,up,↑,0.3664695000043139,True,35,1
159K21S2,649,experiment,81,→,no_key,no_letter,-1.0,False,35,0
159K21S2,650,experiment,63,↑,up,↑,0.5196406999602914,True,35,1
159K21S2,651,experiment,58,←,left,←,0.366742099984549,True,35,1
159K21S2,652,experiment,51,→,right,→,0.6634828999522142,True,35,0
159K21S2,653,experiment,82,→,left,←,0.4657257999642752,False,35,1
159K21S2,654,experiment,80,↑,up,↑,0.4912356000277214,True,35,1
159K21S2,655,experiment,95,↑,up,↑,0.4955397000303492,True,35,1
159K21S2,656,experiment,103,←,left,←,0.5531024999800138,True,35,1
159K21S2,657,experiment,90,↑,up,↑,0.4926815000362694,True,35,1
159K21S2,658,experiment,71,←,left,←,0.5690348999924026,True,35,1
159K21S2,659,experiment,93,↓,down,↓,0.5316346000181511,True,35,1
159K21S2,660,experiment,99,↓,down,↓,0.5645133000216447,True,35,1
159K21S2,661,experiment,91,↓,down,↓,0.5432496999856085,True,35,1
159K21S2,662,experiment,79,↑,up,↑,0.3837047999841161,True,35,1
159K21S2,663,experiment,96,↓,down,↓,0.5270585999824107,True,35,0
159K21S2,664,experiment,89,↑,up,↑,0.46869280003011227,True,35,1
159K21S2,665,experiment,86,↓,down,↓,0.5404134000418708,True,35,1
159K21S2,666,experiment,60,→,right,→,0.4982068999670446,True,35,1
159K21S2,667,experiment,77,↓,down,↓,0.6283503000158817,True,35,1
159K21S2,668,experiment,105,↓,down,↓,0.5759889999753796,True,35,1
159K21S2,669,experiment,94,↑,up,↑,0.4090303999837488,True,35,1
159K21S2,670,experiment,101,→,right,→,0.6868646999937482,True,35,0
159K21S2,671,training,62,→,right,→,0.816760300018359,True,35,0
159K21S2,672,training,98,↓,down,↓,0.5029605999588966,True,35,1
159K21S2,673,experiment,71,←,left,←,0.4340469000162557,True,35,1
159K21S2,674,experiment,101,↑,up,↑,0.3764617000124417,True,35,0
159K21S2,675,experiment,83,↓,down,↓,0.6598163999733515,True,35,0
159K21S2,676,experiment,63,↑,up,↑,0.4924048000248149,True,35,1
159K21S2,677,experiment,96,↓,down,↓,0.4727614999865182,True,35,1
159K21S2,678,experiment,49,↓,down,↓,0.7008919999934733,True,35,1
159K21S2,679,experiment,85,→,no_key,no_letter,-1.0,False,35,1
159K21S2,680,experiment,69,↑,right,→,0.3758549999911338,False,35,1
159K21S2,681,experiment,55,↓,down,↓,0.46906739997211844,True,35,0
159K21S2,682,experiment,108,←,left,←,0.46231020003324375,True,35,1
159K21S2,683,experiment,64,↑,up,↑,0.6530579999671318,True,35,1
159K21S2,684,experiment,67,↓,down,↓,0.6044784000259824,True,35,1
159K21S2,685,experiment,80,↑,up,↑,0.5532430000021122,True,35,1
159K21S2,686,experiment,59,←,left,←,0.41708320000907406,True,35,1
159K21S2,687,experiment,92,↑,no_key,no_letter,-1.0,False,35,0
159K21S2,688,experiment,90,←,left,←,0.409072499955073,True,35,1
159K21S2,689,experiment,99,↓,down,↓,0.47284409997519106,True,35,0
159K21S2,690,experiment,53,↑,no_key,no_letter,-1.0,False,35,1
159K21S2,691,experiment,62,↓,down,↓,0.5281088999472558,True,35,1
159K21S2,692,experiment,81,←,right,→,0.4093346000299789,False,35,1
159K21S2,693,experiment,100,←,left,←,0.47013370000058785,True,35,0
159K21S2,694,experiment,61,←,left,←,0.4090331000043079,True,35,1
159K21S2,695,experiment,68,←,left,←,0.325742699962575,True,35,0
159K21S2,696,experiment,79,↓,down,↓,0.6545239000115544,True,35,0
159K21S2,697,experiment,58,↑,up,↑,0.4424641999648884,True,35,1
159K21S2,698,experiment,102,↓,down,↓,0.5644706999883056,True,35,0
159K21S2,699,experiment,65,↓,down,↓,0.5197515000472777,True,35,1
159K21S2,700,experiment,94,←,left,←,0.4680962000275031,True,35,1
159K21S2,701,experiment,106,←,left,←,0.5251584000070579,True,35,1
159K21S2,702,experiment,93,→,left,←,0.3340308000333607,False,35,1
159K21S2,703,experiment,77,→,left,←,0.481404600024689,False,35,0
159K21S2,704,experiment,103,→,right,→,0.3674386999919079,True,35,1
159K21S2,705,experiment,98,↑,up,↑,0.4174041000078432,True,35,0
159K21S2,706,experiment,88,→,no_key,no_letter,-1.0,False,35,0
159K21S2,707,experiment,56,←,left,←,0.43448549997992814,True,35,1
159K21S2,708,experiment,57,↓,down,↓,0.638527899980545,True,35,0
159K21S2,709,experiment,74,←,left,←,0.48398650001036003,True,35,1
159K21S2,710,experiment,76,↑,up,↑,0.4171591000049375,True,35,1
159K21S2,711,experiment,52,→,right,→,0.42574070004047826,True,35,0
159K21S2,712,experiment,84,→,left,←,0.471604100021068,False,35,0
159K21S2,713,experiment,72,←,left,←,0.6038517999695614,True,35,1
159K21S2,714,experiment,95,↑,up,↑,0.4084104000357911,True,35,1
159K21S2,715,experiment,89,→,right,→,0.5970379000063986,True,35,0
159K21S2,716,experiment,70,↑,up,↑,0.417753099987749,True,35,1
159K21S2,717,experiment,86,↑,up,↑,0.35907829995267093,True,35,0
159K21S2,718,experiment,66,←,left,←,0.5545781999826431,True,35,0
159K21S2,719,experiment,107,↓,down,↓,0.4884242999833077,True,35,1
159K21S2,720,experiment,54,↑,up,↑,0.6423800999764353,True,35,1
159K21S2,721,experiment,104,←,left,←,0.44238649995531887,True,35,1
159K21S2,722,experiment,50,←,no_key,no_letter,-1.0,False,35,0
159K21S2,723,experiment,51,←,left,←,0.39259310002671555,True,35,1
159K21S2,724,experiment,87,→,left,←,0.43414029997074977,False,35,0
159K21S2,725,experiment,75,→,right,→,0.3674267999595031,True,35,0
159K21S2,726,experiment,60,→,right,→,0.35069699998712167,True,35,0
159K21S2,727,experiment,91,→,right,→,0.342280600045342,True,35,0
159K21S2,728,experiment,48,←,left,←,0.4766088000033051,True,35,0
159K21S2,729,experiment,73,↓,down,↓,0.6014816000242718,True,35,1
159K21S2,730,experiment,78,↑,up,↑,0.4947723000077531,True,35,1
159K21S2,731,experiment,97,→,no_key,no_letter,-1.0,False,35,1
159K21S2,732,experiment,105,↓,down,↓,0.48070649994770065,True,35,1
159K21S2,733,experiment,82,↑,up,↑,0.35066239995649084,True,35,1
159K21S2,734,training,64,→,right,→,0.5760300999972969,True,35,0
159K21S2,735,training,105,↑,up,↑,0.31830350001109764,True,35,1
159K21S2,736,experiment,90,↑,up,↑,0.35070759995142,True,35,0
159K21S2,737,experiment,59,↓,down,↓,0.6959402000065893,True,35,0
159K21S2,738,experiment,75,↑,up,↑,0.5465711000142619,True,35,1
159K21S2,739,experiment,60,→,right,→,0.4420862999977544,True,35,1
159K21S2,740,experiment,95,←,left,←,0.4173746999586001,True,35,0
159K21S2,741,experiment,53,↑,up,↑,0.3506819999893196,True,35,0
159K21S2,742,experiment,78,←,left,←,0.4594761000480503,True,35,0
159K21S2,743,experiment,72,→,right,→,0.6320308999856934,True,35,0
159K21S2,744,experiment,100,↑,no_key,no_letter,-1.0,False,35,1
159K21S2,745,experiment,82,↑,up,↑,0.5628579999902286,True,35,1
159K21S2,746,experiment,102,↓,down,↓,0.5058777999947779,True,35,1
159K21S2,747,experiment,98,←,left,←,0.47716119996039197,True,35,1
159K21S2,748,experiment,50,↑,up,↑,0.5925581000046805,True,35,1
159K21S2,749,experiment,108,←,left,←,0.6125262000132352,True,35,1
159K21S2,750,experiment,101,↑,up,↑,0.35904130002018064,True,35,1
159K21S2,751,experiment,51,→,no_key,no_letter,-1.0,False,35,0
159K21S2,752,experiment,103,↑,up,↑,0.4888341000187211,True,35,1
159K21S2,753,experiment,74,→,right,→,0.5882018999545835,True,35,1
159K21S2,754,experiment,96,←,left,←,0.43334569997387007,True,35,1
159K21S2,755,experiment,73,→,left,←,0.4265703000128269,False,35,0
159K21S2,756,experiment,65,→,right,→,0.39233640005113557,True,35,0
159K21S2,757,experiment,56,↑,up,↑,0.49549699999624863,True,35,0
159K21S2,758,experiment,94,←,left,←,0.5722130000358447,True,35,1
159K21S2,759,experiment,85,↑,up,↑,0.5126377000124194,True,35,1
159K21S2,760,experiment,63,↑,up,↑,0.48719850002089515,True,35,1
159K21S2,761,experiment,92,→,right,→,0.4423738999757916,True,35,1
159K21S2,762,experiment,76,↑,up,↑,0.34242850000737235,True,35,0
159K21S2,763,experiment,71,↑,up,↑,0.3258574999636039,True,35,0
159K21S2,764,experiment,105,←,left,←,0.5303444000310265,True,35,0
159K21S2,765,experiment,49,↑,no_key,no_letter,-1.0,False,35,1
159K21S2,766,experiment,66,←,left,←,0.5677239000215195,True,35,1
159K21S2,767,experiment,80,→,right,→,0.5027130999951623,True,35,1
159K21S2,768,experiment,104,→,no_key,no_letter,-1.0,False,35,1
159K21S2,769,experiment,89,←,left,←,0.4007014000089839,True,35,1
159K21S2,770,experiment,58,↓,down,↓,0.5827442999579944,True,35,0
159K21S2,771,experiment,61,→,right,→,0.482827800035011,True,35,1
159K21S2,772,experiment,55,↓,down,↓,0.6768236999632791,True,35,1
159K21S2,773,experiment,54,↑,up,↑,0.401166399999056,True,35,1
159K21S2,774,experiment,83,→,right,→,0.6276059999945574,True,35,0
159K21S2,775,experiment,77,←,left,←,0.5923811999964528,True,35,1
159K21S2,776,experiment,68,→,right,→,0.4663674000184983,True,35,1
159K21S2,777,experiment,97,↓,down,↓,0.6383280999725685,True,35,1
159K21S2,778,experiment,99,↑,up,↑,0.5392941000172868,True,35,1
159K21S2,779,experiment,64,↑,up,↑,0.41773250000551343,True,35,1
159K21S2,780,experiment,91,←,left,←,0.5044615000369959,True,35,0
159K21S2,781,experiment,93,↑,up,↑,0.5648934000055306,True,35,1
159K21S2,782,experiment,79,←,left,←,0.5955535999964923,True,35,1
159K21S2,783,experiment,67,↑,up,↑,0.42572429997380823,True,35,1
159K21S2,784,experiment,87,↓,down,↓,0.5186938000260852,True,35,0
159K21S2,785,experiment,52,←,left,←,0.43416209996212274,True,35,1
159K21S2,786,experiment,106,←,right,→,0.5231802999624051,False,35,0
159K21S2,787,experiment,69,↑,up,↑,0.5431752000004053,True,35,1
159K21S2,788,experiment,70,←,left,←,0.6255671000108123,True,35,1
159K21S2,789,experiment,62,↑,up,↑,0.4340811999863945,True,35,1
159K21S2,790,experiment,86,←,left,←,0.4852303999941796,True,35,0
159K21S2,791,experiment,57,↑,up,↑,0.3749678000458516,True,35,1
159K21S2,792,experiment,48,→,right,→,0.42567520000739023,True,35,0
159K21S2,793,experiment,107,←,left,←,0.4257367000100203,True,35,0
159K21S2,794,experiment,84,↓,down,↓,0.5241856999928132,True,35,0
159K21S2,795,experiment,88,↓,down,↓,0.5455828999984078,True,35,1
159K21S2,796,experiment,81,←,left,←,0.3921991999959573,True,35,1
159K21S2,797,training,66,→,no_key,no_letter,-1.0,False,34,0
159K21S2,798,training,57,→,right,→,0.35040259995730594,True,34,1
159K21S2,799,experiment,97,←,left,←,0.36748969997279346,True,34,0
159K21S2,800,experiment,93,↓,down,↓,0.5147071999963373,True,34,0
159K21S2,801,experiment,59,↓,down,↓,0.6020089999656193,True,34,1
159K21S2,802,experiment,72,←,left,←,0.46574880002299324,True,34,1
159K21S2,803,experiment,57,↓,no_key,no_letter,-1.0,False,34,1
159K21S2,804,experiment,65,→,left,←,0.43417850002879277,False,34,1
159K21S2,805,experiment,78,←,left,←,0.6038639000034891,True,34,0
159K21S2,806,experiment,101,←,left,←,0.3091586999944411,True,34,1
159K21S2,807,experiment,63,←,left,←,0.3425300999660976,True,34,0
159K21S2,808,experiment,73,←,left,←,0.34236730000702664,True,34,0
159K21S2,809,experiment,106,→,right,→,0.5121638000127859,True,34,0
159K21S2,810,experiment,70,↑,up,↑,0.4839351999689825,True,34,1
159K21S2,811,experiment,94,↓,no_key,no_letter,-1.0,False,34,1
159K21S2,812,experiment,53,↓,down,↓,0.6411219000001438,True,34,1
159K21S2,813,experiment,68,←,left,←,0.40141639998182654,True,34,1
159K21S2,814,experiment,75,→,no_key,no_letter,-1.0,False,34,0
159K21S2,815,experiment,87,↑,up,↑,0.45951950002927333,True,34,1
159K21S2,816,experiment,108,→,right,→,0.3757072000298649,True,34,1
159K21S2,817,experiment,51,←,left,←,0.4173523000208661,True,34,0
159K21S2,818,experiment,104,→,no_key,no_letter,-1.0,False,34,0
159K21S2,819,experiment,84,↑,up,↑,0.5571281999582425,True,34,1
159K21S2,820,experiment,66,↓,down,↓,0.6883397999918088,True,34,1
159K21S2,821,experiment,74,→,right,→,0.5237312000244856,True,34,1
159K21S2,822,experiment,48,←,left,←,0.5663811000413261,True,34,1
159K21S2,823,experiment,98,←,left,←,0.6469643000164069,True,34,1
159K21S2,824,experiment,50,↑,up,↑,0.39191959996242076,True,34,1
159K21S2,825,experiment,80,↓,down,↓,0.4810526999644935,True,34,0
159K21S2,826,experiment,62,↑,up,↑,0.37568880000617355,True,34,1
159K21S2,827,experiment,85,↑,up,↑,0.6528624999918975,True,34,0
159K21S2,828,experiment,82,↓,down,↓,0.4795354999951087,True,34,1
159K21S2,829,experiment,83,→,no_key,no_letter,-1.0,False,34,1
159K21S2,830,experiment,92,↓,down,↓,0.6908648999524303,True,34,1
159K21S2,831,experiment,100,→,right,→,0.5175698999664746,True,34,1
159K21S2,832,experiment,81,↑,up,↑,0.4092532999929972,True,34,1
159K21S2,833,experiment,64,↓,no_key,no_letter,-1.0,False,34,0
159K21S2,834,experiment,71,↓,down,↓,0.5931242000078782,True,34,1
159K21S2,835,experiment,49,↓,down,↓,0.5370568999787793,True,34,1
159K21S2,836,experiment,69,↓,down,↓,0.3340786999906413,True,34,1
159K21S2,837,experiment,60,→,right,→,0.4257021999801509,True,34,0
159K21S2,838,experiment,105,→,right,→,0.32567550003295764,True,34,0
159K21S2,839,experiment,91,←,left,←,0.4005897999741137,True,34,0
159K21S2,840,experiment,90,←,left,←,0.4258286000113003,True,34,0
159K21S2,841,experiment,103,↓,no_key,no_letter,-1.0,False,34,0
159K21S2,842,experiment,61,→,right,→,0.4532587999710813,True,34,1
159K21S2,843,experiment,95,↑,up,↑,0.4255068000056781,True,34,1
159K21S2,844,experiment,86,←,left,←,0.49207730003399774,True,34,0
159K21S2,845,experiment,67,←,left,←,0.5298954999889247,True,34,1
159K21S2,846,experiment,52,↑,down,↓,0.5232424000278115,False,34,1
159K21S2,847,experiment,76,↓,down,↓,0.9323251000023447,True,34,1
159K21S2,848,experiment,99,→,right,→,0.6215444999979809,True,34,1
159K21S2,849,experiment,107,↑,up,↑,0.4166975000407547,True,34,1
159K21S2,850,experiment,88,↑,up,↑,0.5781102000037208,True,34,0
159K21S2,851,experiment,96,↓,down,↓,0.6508958999766037,True,34,1
159K21S2,852,experiment,54,↑,up,↑,0.3597771000349894,True,34,1
159K21S2,853,experiment,77,←,left,←,0.40902010002173483,True,34,0
159K21S2,854,experiment,79,←,left,←,0.5783184000174515,True,34,0
159K21S2,855,experiment,56,→,right,→,0.6805941999773495,True,34,1
159K21S2,856,experiment,55,→,right,→,0.45908980001695454,True,34,1
159K21S2,857,experiment,58,→,right,→,0.48489510000217706,True,34,1
159K21S2,858,experiment,89,↑,up,↑,0.907499699969776,True,34,1
159K21S2,859,experiment,102,↑,up,↑,0.3673677999759093,True,34,1
159K21S2,860,training,68,←,left,←,0.49967540003126487,True,34,0
159K21S2,861,training,52,→,right,→,0.6377994000213221,True,34,1
159K21S2,862,experiment,86,←,left,←,0.5671757999807596,True,34,1
159K21S2,863,experiment,89,↑,up,↑,0.45092619996285066,True,34,1
159K21S2,864,experiment,51,→,no_key,no_letter,-1.0,False,34,0
159K21S2,865,experiment,59,↓,down,↓,0.5091573999961838,True,34,1
159K21S2,866,experiment,77,←,left,←,0.45524160005152225,True,34,1
159K21S2,867,experiment,65,→,right,→,0.4257552999770269,True,34,1
159K21S2,868,experiment,99,↓,down,↓,0.45211919996654615,True,34,0
159K21S2,869,experiment,71,↑,up,↑,0.641829600033816,True,34,0
159K21S2,870,experiment,97,↓,down,↓,0.434133299975656,True,34,1
159K21S2,871,experiment,62,↓,down,↓,0.48068929999135435,True,34,0
159K21S2,872,experiment,53,→,right,→,0.6033991000149399,True,34,1
159K21S2,873,experiment,104,→,no_key,no_letter,-1.0,False,34,1
159K21S2,874,experiment,68,←,right,→,0.3089722999720834,False,34,1
159K21S2,875,experiment,94,↑,up,↑,0.49505109997699037,True,34,0
159K21S2,876,experiment,81,→,right,→,0.528263500018511,True,34,1
159K21S2,877,experiment,75,↑,up,↑,0.6338806000421755,True,34,1
159K21S2,878,experiment,56,↓,down,↓,0.5096746000344865,True,34,1
159K21S2,879,experiment,58,↓,down,↓,0.6137365999747999,True,34,1
159K21S2,880,experiment,108,←,left,←,0.5288153000292368,True,34,1
159K21S2,881,experiment,48,←,left,←,0.409011899959296,True,34,1
159K21S2,882,experiment,98,←,left,←,0.5298289000056684,True,34,0
159K21S2,883,experiment,101,←,left,←,0.3920610999921337,True,34,1
159K21S2,884,experiment,103,↓,down,↓,0.5443708999664523,True,34,0
159K21S2,885,experiment,49,←,left,←,0.642263500019908,True,34,1
159K21S2,886,experiment,60,↑,up,↑,0.5482125999988057,True,34,1
159K21S2,887,experiment,63,↑,up,↑,0.48097460001008585,True,34,1
159K21S2,888,experiment,72,→,right,→,0.4352745999931358,True,34,1
159K21S2,889,experiment,61,↑,up,↑,0.49512509995838627,True,34,0
159K21S2,890,experiment,102,↑,up,↑,0.529173000017181,True,34,1
159K21S2,891,experiment,92,↑,no_key,no_letter,-1.0,False,34,1
159K21S2,892,experiment,76,→,left,←,0.5013956000329927,False,34,1
159K21S2,893,experiment,82,↑,up,↑,0.5019074999727309,True,34,1
159K21S2,894,experiment,52,←,left,←,0.41735940001672134,True,34,1
159K21S2,895,experiment,69,↑,up,↑,0.4801195000181906,True,34,0
159K21S2,896,experiment,96,↓,down,↓,0.46897679998073727,True,34,1
159K21S2,897,experiment,57,→,no_key,no_letter,-1.0,False,34,1
159K21S2,898,experiment,54,↑,up,↑,0.37548320001224056,True,34,1
159K21S2,899,experiment,107,↓,down,↓,0.602463599992916,True,34,0
159K21S2,900,experiment,80,↑,up,↑,0.6077526999870315,True,34,1
159K21S2,901,experiment,55,↑,up,↑,0.409039499994833,True,34,1
159K21S2,902,experiment,100,↓,down,↓,0.5943682999932207,True,34,0
159K21S2,903,experiment,67,←,left,←,0.3756789999897592,True,34,1
159K21S2,904,experiment,64,→,right,→,0.5672281999723054,True,34,0
159K21S2,905,experiment,74,←,left,←,0.36871039995457977,True,34,1
159K21S2,906,experiment,79,←,left,←,0.4700033999979496,True,34,0
159K21S2,907,experiment,84,←,left,←,0.5828953000018373,True,34,1
159K21S2,908,experiment,106,↓,down,↓,0.4997713000047952,True,34,1
159K21S2,909,experiment,95,↑,up,↑,0.5998483000439592,True,34,1
159K21S2,910,experiment,83,→,right,→,0.41708549996837974,True,34,1
159K21S2,911,experiment,50,→,right,→,0.40075359999900684,True,34,0
159K21S2,912,experiment,66,→,right,→,0.4520543999969959,True,34,0
159K21S2,913,experiment,105,↓,right,→,0.350891700014472,False,34,0
159K21S2,914,experiment,73,←,left,←,0.6792054999968968,True,34,0
159K21S2,915,experiment,93,←,left,←,0.4849184000049718,True,34,1
159K21S2,916,experiment,91,↑,up,↑,0.43384680000599474,True,34,1
159K21S2,917,experiment,70,→,right,→,0.41746269998839125,True,34,0
159K21S2,918,experiment,90,→,right,→,0.36689289996866137,True,34,0
159K21S2,919,experiment,85,←,no_key,no_letter,-1.0,False,34,0
159K21S2,920,experiment,87,↑,up,↑,0.45161700004246086,True,34,1
159K21S2,921,experiment,78,→,right,→,0.4089564000023529,True,34,0
159K21S2,922,experiment,88,→,left,←,0.40149650000967085,False,34,0
159K21S2,923,training,63,←,left,←,0.47040310001466423,True,34,0
159K21S2,924,training,107,↑,up,↑,0.4870259999879636,True,34,1
159K21S2,925,experiment,70,↓,no_key,no_letter,-1.0,False,34,1
159K21S2,926,experiment,86,↓,down,↓,0.4181686000083573,True,34,1
159K21S2,927,experiment,80,↑,up,↑,0.5167369999689981,True,34,0
159K21S2,928,experiment,79,↑,up,↑,0.5975117000052705,True,34,1
159K21S2,929,experiment,68,↓,down,↓,0.6705638999701478,True,34,1
159K21S2,930,experiment,78,↓,down,↓,0.729628800007049,True,34,1
159K21S2,931,experiment,102,←,up,↑,0.32568540005013347,False,34,1
159K21S2,932,experiment,52,↓,down,↓,0.6190055999904871,True,34,0
159K21S2,933,experiment,108,↓,down,↓,0.4860359000158496,True,34,1
159K21S2,934,experiment,51,↑,up,↑,0.5935159000218846,True,34,1
159K21S2,935,experiment,61,←,left,←,0.40913619997445494,True,34,1
159K21S2,936,experiment,73,↓,down,↓,0.48420080001233146,True,34,0
159K21S2,937,experiment,64,↑,up,↑,0.37573949998477474,True,34,1
159K21S2,938,experiment,74,↑,up,↑,0.4007038999698125,True,34,0
159K21S2,939,experiment,84,↑,up,↑,0.3500639999983832,True,34,0
159K21S2,940,experiment,59,↑,up,↑,0.5081409999984317,True,34,0
159K21S2,941,experiment,76,→,right,→,0.5421469999710098,True,34,1
159K21S2,942,experiment,72,←,left,←,0.40145389997633174,True,34,1
159K21S2,943,experiment,50,→,no_key,no_letter,-1.0,False,34,0
159K21S2,944,experiment,90,↑,up,↑,0.6182607000228018,True,34,1
159K21S2,945,experiment,96,↑,up,↑,0.5134596999851055,True,34,1
159K21S2,946,experiment,93,↑,up,↑,0.5096812000265345,True,34,1
159K21S2,947,experiment,63,↓,down,↓,0.4681692000012845,True,34,1
159K21S2,948,experiment,82,↑,up,↑,0.5177987999632023,True,34,1
159K21S2,949,experiment,92,→,right,→,0.5941789000062272,True,34,1
159K21S2,950,experiment,106,↑,up,↑,0.5114011000259779,True,34,1
159K21S2,951,experiment,100,←,left,←,0.3757774000405334,True,34,1
159K21S2,952,experiment,89,←,left,←,0.3840427999966778,True,34,0
159K21S2,953,experiment,81,↓,down,↓,0.4887159999925643,True,34,0
159K21S2,954,experiment,85,↑,up,↑,0.4014796999981627,True,34,1
159K21S2,955,experiment,101,↓,down,↓,0.6139461999991909,True,34,0
159K21S2,956,experiment,48,↑,up,↑,0.35891770001035184,True,34,1
159K21S2,957,experiment,65,←,left,←,0.6724066000315361,True,34,0
159K21S2,958,experiment,99,↑,up,↑,0.5242217999766581,True,34,1
159K21S2,959,experiment,98,←,left,←,0.42568019998725504,True,34,1
159K21S2,960,experiment,49,↑,up,↑,0.4256743000005372,True,34,0
159K21S2,961,experiment,66,↓,up,↑,0.4847406999906525,False,34,0
159K21S2,962,experiment,54,←,left,←,0.4870897000073455,True,34,1
159K21S2,963,experiment,94,↓,no_key,no_letter,-1.0,False,34,1
159K21S2,964,experiment,69,←,left,←,0.40072020003572106,True,34,1
159K21S2,965,experiment,53,→,right,→,0.4530785999959335,True,34,0
159K21S2,966,experiment,62,←,left,←,0.8454873000155203,True,34,1
159K21S2,967,experiment,88,←,left,←,0.6699230000376701,True,34,1
159K21S2,968,experiment,107,↓,down,↓,0.47144590003881603,True,34,1
159K21S2,969,experiment,58,←,left,←,0.37582060002023354,True,34,1
159K21S2,970,experiment,75,←,left,←,0.3341150999767706,True,34,0
159K21S2,971,experiment,95,→,right,→,0.4256889999960549,True,34,0
159K21S2,972,experiment,105,→,right,→,0.3591981999925338,True,34,0
159K21S2,973,experiment,87,↓,down,↓,0.7382880999939516,True,34,0
159K21S2,974,experiment,103,←,left,←,0.4737612000317313,True,34,1
159K21S2,975,experiment,104,↓,down,↓,0.46029859996633604,True,34,1
159K21S2,976,experiment,77,↓,down,↓,0.5435539000318386,True,34,1
159K21S2,977,experiment,60,→,right,→,0.453860400011763,True,34,1
159K21S2,978,experiment,91,↑,down,↓,0.6052281000302173,False,34,0
159K21S2,979,experiment,56,←,left,←,0.4342772000236437,True,34,1
159K21S2,980,experiment,83,↑,up,↑,0.4257130000041798,True,34,0
159K21S2,981,experiment,97,→,right,→,0.4268729999894276,True,34,0
159K21S2,982,experiment,71,↓,down,↓,0.5842134999693371,True,34,0
159K21S2,983,experiment,57,↓,down,↓,0.8460464999661781,True,34,1
159K21S2,984,experiment,67,←,left,←,0.6054629000136629,True,34,1
159K21S2,985,experiment,55,←,left,←,0.4745637999731116,True,34,1
159K21S2,986,training,48,←,left,←,0.7509412999497727,True,33,0
159K21S2,987,training,84,→,right,→,0.374988800031133,True,33,1
159K21S2,988,experiment,83,↓,down,↓,0.4501432999968529,True,33,0
159K21S2,989,experiment,71,←,left,←,0.5590820999932475,True,33,1
159K21S2,990,experiment,93,→,no_key,no_letter,-1.0,False,33,1
159K21S2,991,experiment,67,↑,up,↑,0.5412855000467971,True,33,1
159K21S2,992,experiment,99,↓,down,↓,0.46217000001342967,True,33,1
159K21S2,993,experiment,59,←,no_key,no_letter,-1.0,False,33,1
159K21S2,994,experiment,56,←,left,←,0.359182599990163,True,33,1
159K21S2,995,experiment,52,→,left,←,0.4003981000278145,False,33,0
159K21S2,996,experiment,89,←,left,←,0.608940200007055,True,33,0
159K21S2,997,experiment,88,→,no_key,no_letter,-1.0,False,33,1
159K21S2,998,experiment,105,←,left,←,0.3756123000057414,True,33,1
159K21S2,999,experiment,53,↑,up,↑,0.44851089996518567,True,33,0
159K21S2,1000,experiment,95,→,right,→,0.4540555999847129,True,33,1
159K21S2,1001,experiment,85,←,left,←,0.3759561000042595,True,33,1
159K21S2,1002,experiment,66,←,left,←,0.44997380004497245,True,33,0
159K21S2,1003,experiment,50,↑,up,↑,0.5343447999912314,True,33,1
159K21S2,1004,experiment,70,↓,down,↓,0.48935240000719205,True,33,1
159K21S2,1005,experiment,101,↑,up,↑,0.7637625000206754,True,33,1
159K21S2,1006,experiment,78,↓,down,↓,0.6669284999952652,True,33,1
159K21S2,1007,experiment,69,↑,up,↑,0.40181659994414076,True,33,1
159K21S2,1008,experiment,86,↓,down,↓,0.4991711999755353,True,33,0
159K21S2,1009,experiment,82,↓,up,↑,0.45987979997880757,False,33,1
159K21S2,1010,experiment,51,↑,down,↓,0.47214660001918674,False,33,1
159K21S2,1011,experiment,77,→,right,→,0.48309059999883175,True,33,1
159K21S2,1012,experiment,108,↑,no_key,no_letter,-1.0,False,33,1
159K21S2,1013,experiment,64,←,left,←,0.4800886000157334,True,33,1
159K21S2,1014,experiment,100,↑,up,↑,0.49944399995729327,True,33,1
159K21S2,1015,experiment,97,↓,down,↓,0.6065118999686092,True,33,1
159K21S2,1016,experiment,87,→,no_key,no_letter,-1.0,False,33,1
159K21S2,1017,experiment,73,→,right,→,0.48241920000873506,True,33,1
159K21S2,1018,experiment,79,→,up,↑,0.3497930000303313,False,33,1
159K21S2,1019,experiment,103,↓,down,↓,0.515519000007771,True,33,0
159K21S2,1020,experiment,80,↑,up,↑,0.4444818000192754,True,33,1
159K21S2,1021,experiment,96,↑,up,↑,0.4896650000009686,True,33,0
159K21S2,1022,experiment,63,↑,up,↑,0.6487491999869235,True,33,1
159K21S2,1023,experiment,49,←,left,←,0.3921224999940023,True,33,1
159K21S2,1024,experiment,48,↑,up,↑,0.4860295000253245,True,33,0
159K21S2,1025,experiment,104,←,left,←,0.5519556000363082,True,33,1
159K21S2,1026,experiment,54,→,left,←,0.38448319997405633,False,33,1
159K21S2,1027,experiment,98,←,left,←,0.46293929999228567,True,33,0
159K21S2,1028,experiment,65,←,left,←,0.534290699986741,True,33,1
159K21S2,1029,experiment,61,↓,down,↓,0.6122390000382438,True,33,1
159K21S2,1030,experiment,55,→,right,→,0.4655934000038542,True,33,1
159K21S2,1031,experiment,62,←,left,←,0.48205979994963855,True,33,1
159K21S2,1032,experiment,90,↑,up,↑,0.4488388999598101,True,33,1
159K21S2,1033,experiment,81,←,left,←,0.41783059999579564,True,33,1
159K21S2,1034,experiment,60,←,left,←,0.4256864999770187,True,33,0
159K21S2,1035,experiment,72,→,left,←,0.6201918000006117,False,33,0
159K21S2,1036,experiment,102,↑,up,↑,0.5372803999925964,True,33,1
159K21S2,1037,experiment,68,←,left,←,0.5648760999902152,True,33,1
159K21S2,1038,experiment,75,←,left,←,0.5090443000080995,True,33,1
159K21S2,1039,experiment,74,←,left,←,0.3768553999834694,True,33,1
159K21S2,1040,experiment,58,←,left,←,0.46072440000716597,True,33,0
159K21S2,1041,experiment,84,↑,up,↑,0.5018043000018224,True,33,1
159K21S2,1042,experiment,107,↑,up,↑,0.3998113000416197,True,33,1
159K21S2,1043,experiment,91,→,left,←,0.40051070001209155,False,33,0
159K21S2,1044,experiment,94,→,right,→,0.35068040003534406,True,33,0
159K21S2,1045,experiment,76,←,left,←,0.3841821000096388,True,33,0
159K21S2,1046,experiment,106,↓,up,↑,0.6516318999929354,False,33,0
159K21S2,1047,experiment,57,↑,up,↑,0.5344580999808386,True,33,1
159K21S2,1048,experiment,92,↓,up,↑,0.41768129996489733,False,33,1
159K21S2,1049,training,97,↑,up,↑,0.32572660001460463,True,33,0
159K21S2,1050,training,98,←,left,←,0.5107677000341937,True,33,0
159K21S2,1051,experiment,95,→,right,→,0.5144231999875046,True,33,1
159K21S2,1052,experiment,56,→,right,→,0.6588526000268757,True,33,1
159K21S2,1053,experiment,66,←,left,←,0.474263499956578,True,33,1
159K21S2,1054,experiment,88,↓,down,↓,0.5858949999674223,True,33,1
159K21S2,1055,experiment,52,→,right,→,0.5207794000161812,True,33,1
159K21S2,1056,experiment,82,↑,no_key,no_letter,-1.0,False,33,1
159K21S2,1057,experiment,77,↓,down,↓,0.5287434000056237,True,33,1
159K21S2,1058,experiment,75,←,left,←,0.38384229998337105,True,33,1
159K21S2,1059,experiment,93,→,right,→,0.5232910999911837,True,33,0
159K21S2,1060,experiment,83,←,left,←,0.4171667000046,True,33,1
159K21S2,1061,experiment,106,→,right,→,0.46195289999013767,True,33,0
159K21S2,1062,experiment,100,↓,down,↓,0.6413734999950975,True,33,1
159K21S2,1063,experiment,58,←,left,←,0.35901390004437417,True,33,1
159K21S2,1064,experiment,53,↓,down,↓,0.835529200034216,True,33,0
159K21S2,1065,experiment,90,↑,up,↑,0.4447111000190489,True,33,1
159K21S2,1066,experiment,96,↑,no_key,no_letter,-1.0,False,33,0
159K21S2,1067,experiment,50,↓,down,↓,1.3467976999818347,True,33,1
159K21S2,1068,experiment,91,↓,down,↓,0.5184094000142068,True,33,1
159K21S2,1069,experiment,84,↓,down,↓,0.5977404000004753,True,33,1
159K21S2,1070,experiment,105,↑,up,↑,0.4427107999799773,True,33,1
159K21S2,1071,experiment,55,→,right,→,0.5097403000108898,True,33,0
159K21S2,1072,experiment,94,↑,up,↑,0.585722399991937,True,33,1
159K21S2,1073,experiment,102,→,right,→,0.4488763999543153,True,33,1
159K21S2,1074,experiment,72,→,right,→,0.765997700043954,True,33,0
159K21S2,1075,experiment,80,←,left,←,0.4921226999722421,True,33,1
159K21S2,1076,experiment,57,←,left,←,0.4257767000235617,True,33,1
159K21S2,1077,experiment,49,→,right,→,0.4518804000108503,True,33,0
159K21S2,1078,experiment,99,↑,up,↑,0.4090973000274971,True,33,1
159K21S2,1079,experiment,68,←,left,←,0.3931184000102803,True,33,0
159K21S2,1080,experiment,87,↓,down,↓,0.6666033000219613,True,33,0
159K21S2,1081,experiment,61,←,left,←,0.5154472999856807,True,33,1
159K21S2,1082,experiment,103,↓,up,↑,1.0602245000191033,False,33,1
159K21S2,1083,experiment,71,←,left,←,0.40086440002778545,True,33,1
159K21S2,1084,experiment,67,→,right,→,0.4517377999727614,True,33,0
159K21S2,1085,experiment,54,→,right,→,0.8307770999963395,True,33,1
159K21S2,1086,experiment,74,↑,up,↑,0.5244680999894626,True,33,1
159K21S2,1087,experiment,76,→,right,→,0.42573939997237176,True,33,1
159K21S2,1088,experiment,86,↑,up,↑,0.37641759996768087,True,33,0
159K21S2,1089,experiment,101,↑,up,↑,0.37547869997797534,True,33,0
159K21S2,1090,experiment,98,↑,up,↑,0.5495624999748543,True,33,0
159K21S2,1091,experiment,104,↓,down,↓,0.6366562999901362,True,33,1
159K21S2,1092,experiment,78,←,no_key,no_letter,-1.0,False,33,1
159K21S2,1093,experiment,97,→,right,→,0.40074539999477565,True,33,1
159K21S2,1094,experiment,65,↓,down,↓,0.5802377000218257,True,33,0
159K21S2,1095,experiment,64,→,right,→,0.5513490000157617,True,33,1
159K21S2,1096,experiment,63,↑,up,↑,0.39237660000799224,True,33,1
159K21S2,1097,experiment,70,↓,down,↓,0.6048760000267066,True,33,0
159K21S2,1098,experiment,81,←,right,→,0.46526069997344166,False,33,1
159K21S2,1099,experiment,108,↓,down,↓,0.5859275999828242,True,33,1
159K21S2,1100,experiment,73,↑,up,↑,0.6580366000416689,True,33,1
159K21S2,1101,experiment,62,→,right,→,0.6988149000098929,True,33,1
159K21S2,1102,experiment,107,→,no_key,no_letter,-1.0,False,33,1
159K21S2,1103,experiment,59,↓,down,↓,0.464941100042779,True,33,1
159K21S2,1104,experiment,69,↓,down,↓,0.47111019998556003,True,33,1
159K21S2,1105,experiment,92,↑,up,↑,0.6131210000021383,True,33,1
159K21S2,1106,experiment,85,↓,down,↓,0.6319202000158839,True,33,1
159K21S2,1107,experiment,60,→,right,→,0.45861999999033287,True,33,1
159K21S2,1108,experiment,51,↓,down,↓,0.5748592999880202,True,33,1
159K21S2,1109,experiment,48,↑,up,↑,0.5914743999601342,True,33,1
159K21S2,1110,experiment,79,→,right,→,0.6051792999496683,True,33,1
159K21S2,1111,experiment,89,↑,up,↑,0.41752449999330565,True,33,1
159K21S2,1112,training,86,→,no_key,no_letter,-1.0,False,32,0
159K21S2,1113,training,104,←,no_key,no_letter,-1.0,False,32,1
159K21S2,1114,experiment,89,↑,no_key,no_letter,-1.0,False,32,1
159K21S2,1115,experiment,58,↓,down,↓,0.6655036000302061,True,32,1
159K21S2,1116,experiment,67,←,left,←,0.5441695000045002,True,32,1
159K21S2,1117,experiment,80,←,left,←,0.6235731999622658,True,32,1
159K21S2,1118,experiment,105,↑,up,↑,0.5952366999699734,True,32,1
159K21S2,1119,experiment,68,↓,down,↓,0.48487099999329075,True,32,1
159K21S2,1120,experiment,53,→,left,←,0.5433955999906175,False,32,1
159K21S2,1121,experiment,88,→,left,←,0.5400453000329435,False,32,1
159K21S2,1122,experiment,54,←,left,←,0.5484269000007771,True,32,1
159K21S2,1123,experiment,71,↑,up,↑,0.590273600013461,True,32,1
159K21S2,1124,experiment,85,→,right,→,0.45039910002378747,True,32,1
159K21S2,1125,experiment,70,→,left,←,0.4565406999900006,False,32,1
159K21S2,1126,experiment,52,←,left,←,0.5805311999865808,True,32,1
159K21S2,1127,experiment,73,↑,up,↑,0.39174990000901744,True,32,1
159K21S2,1128,experiment,55,↑,up,↑,0.3591444999910891,True,32,0
159K21S2,1129,experiment,59,→,right,→,0.5436898000189103,True,32,0
159K21S2,1130,experiment,106,→,no_key,no_letter,-1.0,False,32,1
159K21S2,1131,experiment,64,↓,down,↓,0.4750580000109039,True,32,1
159K21S2,1132,experiment,75,↑,no_key,no_letter,-1.0,False,32,1
159K21S2,1133,experiment,81,→,right,→,0.4780280000413768,True,32,1
159K21S2,1134,experiment,56,↑,no_key,no_letter,-1.0,False,32,1
159K21S2,1135,experiment,78,↓,down,↓,0.5923658999963664,True,32,1
159K21S2,1136,experiment,86,←,left,←,0.3780630999826826,True,32,1
159K21S2,1137,experiment,103,→,right,→,0.4578217000234872,True,32,0
159K21S2,1138,experiment,91,↓,down,↓,0.4809615000267513,True,32,1
159K21S2,1139,experiment,66,↓,down,↓,0.5032367000239901,True,32,1
159K21S2,1140,experiment,99,↓,no_key,no_letter,-1.0,False,32,1
159K21S2,1141,experiment,98,←,left,←,0.4675669999560341,True,32,1
159K21S2,1142,experiment,72,←,left,←,0.5765220999601297,True,32,1
159K21S2,1143,experiment,95,↑,up,↑,0.5775565000367351,True,32,1
159K21S2,1144,experiment,61,←,up,↑,0.6143104000366293,False,32,1
159K21S2,1145,experiment,69,↑,up,↑,0.392121400043834,True,32,1
159K21S2,1146,experiment,84,←,left,←,0.450078499969095,True,32,0
159K21S2,1147,experiment,83,←,no_key,no_letter,-1.0,False,32,1
159K21S2,1148,experiment,79,↑,up,↑,0.40850429999409243,True,32,1
159K21S2,1149,experiment,60,←,left,←,0.37569299997994676,True,32,0
159K21S2,1150,experiment,87,→,right,→,0.4502249999786727,True,32,0
159K21S2,1151,experiment,49,↑,up,↑,0.39302220003446564,True,32,1
159K21S2,1152,experiment,92,→,right,→,0.36736129998462275,True,32,0
159K21S2,1153,experiment,51,↓,left,←,0.6885734000243247,False,32,0
159K21S2,1154,experiment,94,↓,down,↓,0.4853245000122115,True,32,1
159K21S2,1155,experiment,96,↓,down,↓,0.4576740000047721,True,32,1
159K21S2,1156,experiment,76,↑,up,↑,0.6536952000460587,True,32,1
159K21S2,1157,experiment,50,→,right,→,0.6508251000195742,True,32,1
159K21S2,1158,experiment,108,↓,down,↓,0.4605485000065528,True,32,1
159K21S2,1159,experiment,63,↑,up,↑,0.37507789995288476,True,32,1
159K21S2,1160,experiment,102,←,left,←,0.3677170999580994,True,32,0
159K21S2,1161,experiment,74,→,left,←,0.4518318999907933,False,32,0
159K21S2,1162,experiment,77,→,right,→,0.6155117999878712,True,32,1
159K21S2,1163,experiment,93,→,right,→,0.7435216999729164,True,32,1
159K21S2,1164,experiment,97,↑,up,↑,0.5613369999919087,True,32,1
159K21S2,1165,experiment,90,←,left,←,0.4007315000053495,True,32,1
159K21S2,1166,experiment,104,←,left,←,0.4497059999848716,True,32,0
159K21S2,1167,experiment,100,→,right,→,0.47764689999166876,True,32,1
159K21S2,1168,experiment,82,↓,down,↓,0.47905669995816424,True,32,1
159K21S2,1169,experiment,48,←,left,←,0.4174223000300117,True,32,1
159K21S2,1170,experiment,107,↑,up,↑,0.37577490002149716,True,32,0
159K21S2,1171,experiment,62,←,left,←,0.6027705000014976,True,32,0
159K21S2,1172,experiment,57,↑,up,↑,0.5594603000208735,True,32,1
159K21S2,1173,experiment,101,→,no_key,no_letter,-1.0,False,32,1
159K21S2,1174,experiment,65,↓,down,↓,0.459843400050886,True,32,1
159K21S2,1175,training,107,←,left,←,0.38664959999732673,True,32,0
159K21S2,1176,training,84,→,right,→,0.5796703000087291,True,32,0
159K21S2,1177,experiment,52,←,left,←,0.34237089997623116,True,32,1
159K21S2,1178,experiment,65,←,left,←,0.6867915000184439,True,32,0
159K21S2,1179,experiment,71,←,right,→,0.4442331999889575,False,32,1
159K21S2,1180,experiment,79,↑,up,↑,0.48681089997990057,True,32,1
159K21S2,1181,experiment,67,→,right,→,0.43748979998053983,True,32,1
159K21S2,1182,experiment,99,↓,down,↓,0.633957999991253,True,32,0
159K21S2,1183,experiment,82,↑,up,↑,0.49297149997437373,True,32,1
159K21S2,1184,experiment,95,←,left,←,0.442002700001467,True,32,1
159K21S2,1185,experiment,84,↑,up,↑,0.5071624999982305,True,32,1
159K21S2,1186,experiment,89,↓,down,↓,0.5451523000374436,True,32,1
159K21S2,1187,experiment,74,↑,up,↑,0.4902240000083111,True,32,1
159K21S2,1188,experiment,93,→,right,→,0.3764110999763943,True,32,1
159K21S2,1189,experiment,80,→,left,←,0.4453718999866396,False,32,0
159K21S2,1190,experiment,85,↑,up,↑,0.4198178000515327,True,32,1
159K21S2,1191,experiment,103,↓,down,↓,0.5784880999708548,True,32,0
159K21S2,1192,experiment,90,↓,down,↓,0.49339279998093843,True,32,1
159K21S2,1193,experiment,63,←,left,←,0.44478939997497946,True,32,1
159K21S2,1194,experiment,70,↓,down,↓,0.6667654999764636,True,32,1
159K21S2,1195,experiment,87,↑,up,↑,0.5949498999980278,True,32,1
159K21S2,1196,experiment,105,↓,down,↓,0.456018699973356,True,32,1
159K21S2,1197,experiment,56,↓,down,↓,0.5386921999743208,True,32,1
159K21S2,1198,experiment,91,↓,down,↓,0.5903530000359751,True,32,1
159K21S2,1199,experiment,102,↓,down,↓,0.5563742999802344,True,32,1
159K21S2,1200,experiment,60,↑,no_key,no_letter,-1.0,False,32,1
159K21S2,1201,experiment,68,→,right,→,0.46966830000746995,True,32,1
159K21S2,1202,experiment,108,→,left,←,0.41732629999751225,False,32,1
159K21S2,1203,experiment,106,←,left,←,0.6256571999983862,True,32,0
159K21S2,1204,experiment,107,←,left,←,0.3675412000156939,True,32,1
159K21S2,1205,experiment,50,↑,up,↑,0.4929425999871455,True,32,0
159K21S2,1206,experiment,61,↑,up,↑,0.492664200020954,True,32,1
159K21S2,1207,experiment,75,↑,up,↑,0.35074289998738095,True,32,1
159K21S2,1208,experiment,101,←,left,←,0.4715028000064194,True,32,0
159K21S2,1209,experiment,81,←,left,←,0.35901680000824854,True,32,1
159K21S2,1210,experiment,49,↓,down,↓,0.6183652000036091,True,32,0
159K21S2,1211,experiment,54,↑,up,↑,0.5274800999904983,True,32,1
159K21S2,1212,experiment,59,↓,down,↓,0.5985782999778166,True,32,1
159K21S2,1213,experiment,72,←,left,←,0.39206370001193136,True,32,1
159K21S2,1214,experiment,96,↓,down,↓,0.5581567999906838,True,32,0
159K21S2,1215,experiment,77,←,left,←,0.36713590001454577,True,32,1
159K21S2,1216,experiment,73,→,right,→,0.5901969000115059,True,32,0
159K21S2,1217,experiment,66,↓,down,↓,0.4721971999970265,True,32,1
159K21S2,1218,experiment,88,←,left,←,0.6238831000518985,True,32,1
159K21S2,1219,experiment,48,↑,up,↑,0.6303157000220381,True,32,1
159K21S2,1220,experiment,53,←,left,←,0.3759359999676235,True,32,1
159K21S2,1221,experiment,104,→,right,→,0.6730200999882072,True,32,0
159K21S2,1222,experiment,76,↓,down,↓,0.4682433999842033,True,32,1
159K21S2,1223,experiment,83,→,left,←,0.6056752000004053,False,32,1
159K21S2,1224,experiment,51,↓,down,↓,0.6281271999469027,True,32,1
159K21S2,1225,experiment,86,↓,down,↓,0.48610789998201653,True,32,1
159K21S2,1226,experiment,92,←,left,←,0.4443580000079237,True,32,1
159K21S2,1227,experiment,78,→,right,→,0.350982700008899,True,32,1
159K21S2,1228,experiment,100,←,left,←,0.4638439000118524,True,32,0
159K21S2,1229,experiment,55,→,right,→,0.4585397999617271,True,32,1
159K21S2,1230,experiment,58,←,left,←,0.416840499965474,True,32,1
159K21S2,1231,experiment,98,→,right,→,0.40915010002208874,True,32,0
159K21S2,1232,experiment,97,↓,left,←,0.384081199998036,False,32,0
159K21S2,1233,experiment,94,↓,down,↓,0.45823329995619133,True,32,0
159K21S2,1234,experiment,69,→,right,→,0.576472399989143,True,32,1
159K21S2,1235,experiment,62,←,left,←,0.40094180003507063,True,32,1
159K21S2,1236,experiment,64,→,right,→,0.3841751999570988,True,32,0
159K21S2,1237,experiment,57,↑,down,↓,0.6118217000039294,False,32,0
159K21S2,1238,training,86,→,right,→,0.5730695999809541,True,32,0
159K21S2,1239,training,68,↓,down,↓,0.5031000999733806,True,32,1
159K21S2,1240,experiment,104,←,left,←,0.3841315000317991,True,32,1
159K21S2,1241,experiment,102,←,left,←,0.38372360001085326,True,32,0
159K21S2,1242,experiment,59,→,right,→,0.5065369000076316,True,32,0
159K21S2,1243,experiment,103,↑,up,↑,0.3841025999863632,True,32,1
159K21S2,1244,experiment,74,↑,up,↑,0.4750622999854386,True,32,0
159K21S2,1245,experiment,98,↑,up,↑,0.49515759997302666,True,32,1
159K21S2,1246,experiment,92,↓,down,↓,0.516442799998913,True,32,1
159K21S2,1247,experiment,63,↓,down,↓,0.5307715000235476,True,32,1
159K21S2,1248,experiment,83,↑,up,↑,0.3923802000354044,True,32,1
159K21S2,1249,experiment,96,←,left,←,0.38408059999346733,True,32,0
159K21S2,1250,experiment,78,↓,down,↓,0.5271875999751501,True,32,0
159K21S2,1251,experiment,99,↑,up,↑,0.4017734000226483,True,32,1
159K21S2,1252,experiment,91,→,no_key,no_letter,-1.0,False,32,0
159K21S2,1253,experiment,49,←,left,←,0.37542639998719096,True,32,1
159K21S2,1254,experiment,82,↑,up,↑,0.8648635999998078,True,32,0
159K21S2,1255,experiment,86,↓,down,↓,0.7052475000382401,True,32,1
159K21S2,1256,experiment,64,←,left,←,0.3843623999855481,True,32,1
159K21S2,1257,experiment,101,←,left,←,0.4934263999457471,True,32,0
159K21S2,1258,experiment,94,↑,up,↑,1.1383394000004046,True,32,1
159K21S2,1259,experiment,88,↓,down,↓,0.5667742000077851,True,32,1
159K21S2,1260,experiment,69,↓,no_key,no_letter,-1.0,False,32,1
159K21S2,1261,experiment,55,→,left,←,0.36759280000114813,False,32,1
159K21S2,1262,experiment,73,↓,down,↓,0.5290961000137031,True,32,0
159K21S2,1263,experiment,56,↓,down,↓,0.4653586999629624,True,32,1
159K21S2,1264,experiment,97,→,right,→,0.3350285000051372,True,32,1
159K21S2,1265,experiment,70,←,left,←,0.37569600000279024,True,32,0
159K21S2,1266,experiment,62,↓,right,→,0.5082886000163853,False,32,0
159K21S2,1267,experiment,65,↓,down,↓,0.4580847999895923,True,32,1
159K21S2,1268,experiment,58,←,left,←,0.4761248999857344,True,32,1
159K21S2,1269,experiment,108,↓,down,↓,0.5647830999805592,True,32,1
159K21S2,1270,experiment,48,←,left,←,0.4007722000242211,True,32,1
159K21S2,1271,experiment,76,↓,down,↓,0.39178020000690594,True,32,0
159K21S2,1272,experiment,95,↓,left,←,0.4007092000101693,False,32,0
159K21S2,1273,experiment,85,↓,down,↓,0.3258128999732435,True,32,0
159K21S2,1274,experiment,80,←,left,←,0.35169360000872985,True,32,0
159K21S2,1275,experiment,90,←,left,←,0.8018872999818996,True,32,0
159K21S2,1276,experiment,81,→,right,→,0.4472189999651164,True,32,1
159K21S2,1277,experiment,71,←,left,←,0.5167329999967478,True,32,1
159K21S2,1278,experiment,61,←,left,←,0.36749920004513115,True,32,1
159K21S2,1279,experiment,68,↑,up,↑,0.597594199993182,True,32,0
159K21S2,1280,experiment,57,←,left,←,0.36712040001293644,True,32,1
159K21S2,1281,experiment,106,↓,left,←,0.342593899986241,False,32,0
159K21S2,1282,experiment,52,↑,right,→,0.6481916999910027,False,32,0
159K21S2,1283,experiment,89,↓,no_key,no_letter,-1.0,False,32,1
159K21S2,1284,experiment,72,↓,down,↓,0.45084829995175824,True,32,1
159K21S2,1285,experiment,93,↑,up,↑,0.4974353000288829,True,32,1
159K21S2,1286,experiment,87,↑,up,↑,0.39313169999513775,True,32,1
159K21S2,1287,experiment,67,↓,up,↑,0.35126039996976033,False,32,0
159K21S2,1288,experiment,84,↓,no_key,no_letter,-1.0,False,32,0
159K21S2,1289,experiment,50,←,left,←,0.393042300012894,True,32,1
159K21S2,1290,experiment,51,↓,down,↓,0.5105124000110663,True,32,0
159K21S2,1291,experiment,60,↑,up,↑,0.3754065000102855,True,32,1
159K21S2,1292,experiment,79,←,right,→,0.5162837000098079,False,32,0
159K21S2,1293,experiment,105,←,left,←,0.3593358999933116,True,32,1
159K21S2,1294,experiment,75,←,left,←,0.6680463000084274,True,32,0
159K21S2,1295,experiment,77,↑,up,↑,0.43997430003946647,True,32,1
159K21S2,1296,experiment,66,↓,left,←,0.367433000006713,False,32,1
159K21S2,1297,experiment,54,←,left,←,0.6304185999906622,True,32,0
159K21S2,1298,experiment,100,↑,up,↑,0.611487100017257,True,32,1
159K21S2,1299,experiment,53,↑,up,↑,0.6331330999964848,True,32,1
159K21S2,1300,experiment,107,↑,up,↑,0.40057629998773336,True,32,1
159K21S2,1301,training,48,↓,up,↑,0.5484810000052676,False,32,0
159K21S2,1302,training,84,←,no_key,no_letter,-1.0,False,32,1
159K21S2,1303,experiment,100,→,right,→,0.5632287999615073,True,32,1
159K21S2,1304,experiment,57,←,left,←,0.40161390003049746,True,32,1
159K21S2,1305,experiment,103,→,right,→,0.5817199999582954,True,32,0
159K21S2,1306,experiment,89,↑,up,↑,0.4725997000350617,True,32,1
159K21S2,1307,experiment,104,→,right,→,0.4174466000404209,True,32,1
159K21S2,1308,experiment,107,↓,up,↑,0.6139144999906421,False,32,0
159K21S2,1309,experiment,53,←,left,←,0.4006562000140548,True,32,1
159K21S2,1310,experiment,72,→,left,←,0.7304753999924287,False,32,0
159K21S2,1311,experiment,62,↑,up,↑,0.5444369999459013,True,32,1
159K21S2,1312,experiment,97,←,left,←,0.5621353999595158,True,32,1
159K21S2,1313,experiment,86,↑,no_key,no_letter,-1.0,False,32,1
159K21S2,1314,experiment,77,↓,down,↓,0.4873133000219241,True,32,1
159K21S2,1315,experiment,67,←,left,←,0.4377163000172004,True,32,1
159K21S2,1316,experiment,83,↓,down,↓,0.5596580000128597,True,32,1
159K21S2,1317,experiment,101,↑,up,↑,0.6954461000277661,True,32,1
159K21S2,1318,experiment,74,↓,down,↓,0.47471939999377355,True,32,1
159K21S2,1319,experiment,58,↑,down,↓,0.5241773999878205,False,32,1
159K21S2,1320,experiment,52,←,left,←,0.4865443999879062,True,32,1
159K21S2,1321,experiment,95,←,left,←,0.6262853999505751,True,32,1
159K21S2,1322,experiment,93,←,left,←,0.37618130003102124,True,32,1
159K21S2,1323,experiment,54,↓,down,↓,0.5364783999975771,True,32,0
159K21S2,1324,experiment,71,→,left,←,0.6432601000415161,False,32,1
159K21S2,1325,experiment,63,←,left,←,0.4606122000259347,True,32,1
159K21S2,1326,experiment,88,↓,down,↓,0.5003533000126481,True,32,1
159K21S2,1327,experiment,61,↓,left,←,0.4601913000224158,False,32,1
159K21S2,1328,experiment,85,→,right,→,0.46885430003749207,True,32,1
159K21S2,1329,experiment,96,↓,down,↓,0.617901699966751,True,32,1
159K21S2,1330,experiment,75,↑,up,↑,0.43993110000155866,True,32,1
159K21S2,1331,experiment,91,→,left,←,0.440414700016845,False,32,0
159K21S2,1332,experiment,84,↓,down,↓,0.5697035000193864,True,32,1
159K21S2,1333,experiment,80,←,left,←,0.4090443000313826,True,32,1
159K21S2,1334,experiment,55,→,right,→,0.46180990000721067,True,32,0
159K21S2,1335,experiment,90,←,left,←,0.4173672999604605,True,32,1
159K21S2,1336,experiment,60,→,no_key,no_letter,-1.0,False,32,0
159K21S2,1337,experiment,66,↑,up,↑,0.5312781000393443,True,32,1
159K21S2,1338,experiment,99,→,right,→,0.37547269999049604,True,32,1
159K21S2,1339,experiment,65,←,left,←,0.43974569998681545,True,32,0
159K21S2,1340,experiment,68,→,right,→,0.7906081000110134,True,32,1
159K21S2,1341,experiment,81,↑,up,↑,0.6597806999925524,True,32,1
159K21S2,1342,experiment,76,←,left,←,0.5356559000210837,True,32,1
159K21S2,1343,experiment,79,←,left,←,0.3847715000156313,True,32,1
159K21S2,1344,experiment,92,→,right,→,0.64080880000256,True,32,0
159K21S2,1345,experiment,94,↓,down,↓,0.5114753000088967,True,32,1
159K21S2,1346,experiment,108,←,left,←,0.5829154000384733,True,32,1
159K21S2,1347,experiment,56,←,left,←,0.39236619998700917,True,32,1
159K21S2,1348,experiment,49,→,right,→,0.5320648999768309,True,32,0
159K21S2,1349,experiment,59,←,left,←,0.4433498000144027,True,32,1
159K21S2,1350,experiment,102,↑,up,↑,0.5668635999900289,True,32,1
159K21S2,1351,experiment,50,←,left,←,0.40077110001584515,True,32,1
159K21S2,1352,experiment,78,↑,up,↑,0.6286715000169352,True,32,0
159K21S2,1353,experiment,82,↑,up,↑,0.3673605000367388,True,32,1
159K21S2,1354,experiment,87,↑,up,↑,0.6675339000066742,True,32,0
159K21S2,1355,experiment,98,←,left,←,0.5118791999993846,True,32,1
159K21S2,1356,experiment,106,↓,down,↓,0.4795966999954544,True,32,1
159K21S2,1357,experiment,73,↑,up,↑,0.6597857000306249,True,32,1
159K21S2,1358,experiment,69,→,no_key,no_letter,-1.0,False,32,1
159K21S2,1359,experiment,51,↓,down,↓,0.5073751999880187,True,32,1
159K21S2,1360,experiment,48,←,left,←,0.5987531999708153,True,32,1
159K21S2,1361,experiment,64,←,left,←,0.3757037000032142,True,32,1
159K21S2,1362,experiment,70,↑,up,↑,0.417352500022389,True,32,0
159K21S2,1363,experiment,105,↑,up,↑,0.3755487000453286,True,32,0
