PART_ID,Trial_no,Trial_type,CSI,Stim_letter,Key_pressed,letter_choose,Rt,Corr,Stimulus Time,nDropped
159K21S1,1,training,120,↑,no_key,no_letter,-1.0,False,60,0
159K21S1,2,training,120,→,no_key,no_letter,-1.0,False,60,0
159K21S1,3,training,120,←,no_key,no_letter,-1.0,False,60,0
159K21S1,4,training,120,↓,no_key,no_letter,-1.0,False,60,0
159K21S1,5,training,120,←,right,→,0.6425345000170637,False,60,0
159K21S1,6,training,120,↓,left,←,0.2851530000043567,False,60,0
159K21S1,7,training,120,←,no_key,no_letter,-1.0,False,60,0
159K21S1,8,training,120,←,right,→,0.5923953000165056,False,60,0
159K21S1,9,training,120,←,left,←,0.3518196000077296,True,60,0
159K21S1,10,training,120,↑,right,→,0.4924542999942787,False,60,0
159K21S1,11,training,120,←,right,→,0.41035929997451603,False,60,0
159K21S1,12,training,120,→,right,→,0.5591214000014588,True,60,0
159K21S1,13,training,120,←,left,←,0.6922661999997217,True,60,0
159K21S1,14,training,120,←,left,←,0.3436226999911014,True,60,0
159K21S1,15,training,120,↑,up,↑,0.4519566999806557,True,60,0
159K21S1,16,training,120,↓,left,←,0.34201150000444613,False,60,0
159K21S1,17,training,120,↓,left,←,0.8729809999931604,False,60,0
159K21S1,18,training,120,↑,up,↑,0.5589719999989029,True,60,0
159K21S1,19,training,120,↑,up,↑,0.7496628999942914,True,60,0
159K21S1,20,training,120,↑,up,↑,0.48534189999918453,True,60,0
159K21S1,21,no_adaptation,120,←,no_key,no_letter,-1.0,False,36,0
159K21S1,22,no_adaptation,120,→,left,←,0.4174388999817893,False,36,0
159K21S1,23,no_adaptation,120,→,right,→,0.48185889999149367,True,36,0
159K21S1,24,no_adaptation,120,→,right,→,0.5334563000069465,True,36,0
159K21S1,25,no_adaptation,120,↓,left,←,0.7432514000101946,False,36,0
159K21S1,26,no_adaptation,120,↓,down,↓,0.8969548000022769,True,36,0
159K21S1,27,no_adaptation,120,↓,up,↑,0.5399572000023909,False,36,0
159K21S1,28,no_adaptation,120,↑,up,↑,0.5894846000010148,True,36,0
159K21S1,29,no_adaptation,120,↑,up,↑,0.4173607999982778,True,36,0
159K21S1,30,no_adaptation,120,↓,down,↓,0.48366019999957643,True,36,0
159K21S1,31,no_adaptation,120,↑,up,↑,0.5586922999937087,True,36,0
159K21S1,32,no_adaptation,120,→,right,→,0.4956401999806985,True,36,0
159K21S1,33,no_adaptation,120,↓,up,↑,0.5867839000129607,False,36,0
159K21S1,34,no_adaptation,120,←,no_key,no_letter,-1.0,False,36,0
159K21S1,35,no_adaptation,120,↑,up,↑,0.5706803000066429,True,36,0
159K21S1,36,no_adaptation,120,→,right,→,0.4920226999965962,True,36,0
159K21S1,37,no_adaptation,120,→,left,←,0.646355400007451,False,36,0
159K21S1,38,no_adaptation,120,←,left,←,0.7075648000172805,True,36,0
159K21S1,39,no_adaptation,120,←,left,←,0.5903883000137284,True,36,0
159K21S1,40,no_adaptation,120,↓,up,↑,0.509927000006428,False,36,0
159K21S1,41,training,61,→,no_key,no_letter,-1.0,False,36,0
159K21S1,42,training,68,↓,down,↓,0.7154679000086617,True,36,1
159K21S1,43,experiment,71,→,left,←,0.9505482999957167,False,36,1
159K21S1,44,experiment,64,↑,up,↑,0.6908700999920256,True,36,1
159K21S1,45,experiment,102,←,left,←,0.43410949999815784,True,36,1
159K21S1,46,experiment,103,←,right,→,0.42582340000080876,False,36,0
159K21S1,47,experiment,48,↓,down,↓,0.759323799982667,True,36,0
159K21S1,48,experiment,58,↑,up,↑,0.6691466000047512,True,36,1
159K21S1,49,experiment,55,↓,down,↓,0.6559270000143442,True,36,1
159K21S1,50,experiment,105,↑,up,↑,0.6022596000111662,True,36,1
159K21S1,51,experiment,54,↑,up,↑,0.5527977999881841,True,36,1
159K21S1,52,experiment,82,↓,down,↓,0.6224230999941938,True,36,1
159K21S1,53,experiment,90,←,left,←,0.6711718000005931,True,36,1
159K21S1,54,experiment,89,↑,no_key,no_letter,-1.0,False,36,1
159K21S1,55,experiment,98,↓,up,↑,0.5743620000139344,False,36,1
159K21S1,56,experiment,95,↓,down,↓,0.48777479998534545,True,36,1
159K21S1,57,experiment,50,↓,down,↓,0.5311551000049803,True,36,1
159K21S1,58,experiment,78,↓,up,↑,0.5075666000193451,False,36,1
159K21S1,59,experiment,61,↓,down,↓,0.5146196999994572,True,36,1
159K21S1,60,experiment,96,→,left,←,0.3416920999879949,False,36,1
159K21S1,61,experiment,93,↑,up,↑,0.5444181000057142,True,36,0
159K21S1,62,experiment,59,→,right,→,0.47967199998674914,True,36,1
159K21S1,63,experiment,66,→,right,→,0.6132132000057027,True,36,1
159K21S1,64,experiment,88,→,right,→,0.34253540000645444,True,36,1
159K21S1,65,experiment,57,↓,down,↓,0.5741706000117119,True,36,0
159K21S1,66,experiment,56,←,no_key,no_letter,-1.0,False,36,1
159K21S1,67,experiment,97,→,left,←,0.4849794000037946,False,36,1
159K21S1,68,experiment,92,↓,down,↓,0.6986572000023443,True,36,1
159K21S1,69,experiment,99,↑,down,↓,0.6930829999910202,False,36,1
159K21S1,70,experiment,106,←,down,↓,0.6537623000040185,False,36,1
159K21S1,71,experiment,73,↑,up,↑,0.47587960000964813,True,36,1
159K21S1,72,experiment,107,→,right,→,0.5400954999786336,True,36,1
159K21S1,73,experiment,75,↓,down,↓,0.6850010000052862,True,36,1
159K21S1,74,experiment,79,↑,up,↑,0.5029999000253156,True,36,1
159K21S1,75,experiment,70,→,right,→,0.4423621000023559,True,36,1
159K21S1,76,experiment,91,↓,left,←,0.3175694000092335,False,36,0
159K21S1,77,experiment,51,→,right,→,0.5886250000039581,True,36,0
159K21S1,78,experiment,63,↑,up,↑,0.6477635000192095,True,36,1
159K21S1,79,experiment,68,↑,up,↑,0.4948782000283245,True,36,1
159K21S1,80,experiment,49,→,up,↑,0.5304675000079442,False,36,1
159K21S1,81,experiment,77,→,left,←,0.4004381000122521,False,36,1
159K21S1,82,experiment,86,↑,up,↑,0.6057498999871314,True,36,0
159K21S1,83,experiment,83,←,left,←,0.49755989998811856,True,36,1
159K21S1,84,experiment,52,→,left,←,0.4507136000029277,False,36,1
159K21S1,85,experiment,108,↑,up,↑,0.5653403000032995,True,36,0
159K21S1,86,experiment,81,←,no_key,no_letter,-1.0,False,36,1
159K21S1,87,experiment,76,→,right,→,0.42558279997319914,True,36,1
159K21S1,88,experiment,65,→,up,↑,0.5796664000081364,False,36,0
159K21S1,89,experiment,87,↓,down,↓,0.7988916999893263,True,36,1
159K21S1,90,experiment,72,↑,down,↓,0.7026117999921553,False,36,1
159K21S1,91,experiment,101,←,left,←,0.5686024000169709,True,36,1
159K21S1,92,experiment,74,↑,up,↑,0.5210725000069942,True,36,1
159K21S1,93,experiment,69,↓,down,↓,0.7248956999974325,True,36,1
159K21S1,94,experiment,80,↑,up,↑,0.32574050000403076,True,36,1
159K21S1,95,experiment,94,←,left,←,0.9039363999909256,True,36,0
159K21S1,96,experiment,84,→,left,←,0.5515911999973468,False,36,1
159K21S1,97,experiment,104,←,left,←,0.7986623000178952,True,36,1
159K21S1,98,experiment,53,↑,no_key,no_letter,-1.0,False,36,1
159K21S1,99,experiment,60,↑,up,↑,0.7138108999934047,True,36,1
159K21S1,100,experiment,100,↓,down,↓,0.5472561000206042,True,36,1
159K21S1,101,experiment,62,↑,up,↑,0.5363211999938358,True,36,1
159K21S1,102,experiment,85,↑,up,↑,0.8305254000006244,True,36,1
159K21S1,103,experiment,67,↓,down,↓,0.7664120999979787,True,36,1
159K21S1,104,training,73,↑,no_key,no_letter,-1.0,False,36,0
159K21S1,105,training,77,→,no_key,no_letter,-1.0,False,36,1
159K21S1,106,experiment,90,→,right,→,0.48318869998911396,True,36,1
159K21S1,107,experiment,80,←,left,←,0.5884392999869306,True,36,1
159K21S1,108,experiment,86,→,right,→,0.4801271000178531,True,36,1
159K21S1,109,experiment,76,→,left,←,0.5789439999789465,False,36,1
159K21S1,110,experiment,78,→,right,→,0.41734549999819137,True,36,1
159K21S1,111,experiment,98,↑,left,←,0.42541629998595454,False,36,0
159K21S1,112,experiment,94,←,left,←,0.48690849999547936,True,36,0
159K21S1,113,experiment,65,→,no_key,no_letter,-1.0,False,36,1
159K21S1,114,experiment,55,←,no_key,no_letter,-1.0,False,36,1
159K21S1,115,experiment,99,↑,up,↑,0.6115719000226818,True,36,1
159K21S1,116,experiment,107,↓,down,↓,0.7352325999818277,True,36,1
159K21S1,117,experiment,82,↓,down,↓,0.8783741999941412,True,36,1
159K21S1,118,experiment,69,↑,no_key,no_letter,-1.0,False,36,1
159K21S1,119,experiment,62,←,left,←,0.45096960000228137,True,36,1
159K21S1,120,experiment,100,←,left,←,0.38402769999811426,True,36,0
159K21S1,121,experiment,106,↑,up,↑,0.4813504000194371,True,36,0
159K21S1,122,experiment,85,↑,no_key,no_letter,-1.0,False,36,1
159K21S1,123,experiment,75,←,left,←,0.4097485999809578,True,36,1
159K21S1,124,experiment,70,↑,up,↑,0.6163300999905914,True,36,0
159K21S1,125,experiment,60,↓,down,↓,0.5152928000024986,True,36,1
159K21S1,126,experiment,92,→,right,→,0.49576530000194907,True,36,1
159K21S1,127,experiment,87,↓,down,↓,0.4794248999969568,True,36,1
159K21S1,128,experiment,50,→,right,→,0.4751111000077799,True,36,1
159K21S1,129,experiment,48,↓,no_key,no_letter,-1.0,False,36,1
159K21S1,130,experiment,84,↑,no_key,no_letter,-1.0,False,36,1
159K21S1,131,experiment,91,→,right,→,0.43415980000281706,True,36,1
159K21S1,132,experiment,77,↑,up,↑,0.5468551999947522,True,36,0
159K21S1,133,experiment,79,↑,no_key,no_letter,-1.0,False,36,1
159K21S1,134,experiment,56,↑,right,→,0.5604458000161685,False,36,1
159K21S1,135,experiment,95,↓,down,↓,0.6101377000159118,True,36,1
159K21S1,136,experiment,96,↑,up,↑,0.681493899988709,True,36,1
159K21S1,137,experiment,104,↓,no_key,no_letter,-1.0,False,36,1
159K21S1,138,experiment,66,↑,up,↑,0.5341573000187054,True,36,1
159K21S1,139,experiment,93,←,left,←,0.4423856000066735,True,36,1
159K21S1,140,experiment,73,→,right,→,1.0310176000057254,True,36,0
159K21S1,141,experiment,97,↑,up,↑,0.5168123999901582,True,36,1
159K21S1,142,experiment,61,←,right,→,0.4918357999995351,False,36,1
159K21S1,143,experiment,103,↓,down,↓,0.7653153999999631,True,36,1
159K21S1,144,experiment,57,↑,up,↑,0.6513927000050899,True,36,1
159K21S1,145,experiment,52,→,right,→,0.4880080000148155,True,36,1
159K21S1,146,experiment,59,↑,up,↑,0.43383160000666976,True,36,1
159K21S1,147,experiment,68,↓,down,↓,0.7035924000083469,True,36,0
159K21S1,148,experiment,72,↓,no_key,no_letter,-1.0,False,36,1
159K21S1,149,experiment,64,←,left,←,0.4087155999732204,True,36,1
159K21S1,150,experiment,74,↓,up,↑,0.6534583999891765,False,36,0
159K21S1,151,experiment,51,↑,no_key,no_letter,-1.0,False,36,1
159K21S1,152,experiment,88,→,left,←,0.4702699999907054,False,36,1
159K21S1,153,experiment,58,↑,up,↑,0.4951072999974713,True,36,0
159K21S1,154,experiment,108,↑,left,←,0.36001639999449253,False,36,1
159K21S1,155,experiment,53,↓,up,↑,0.41736190000665374,False,36,0
159K21S1,156,experiment,105,←,left,←,0.4823043999786023,True,36,0
159K21S1,157,experiment,81,→,left,←,0.5153129999816883,False,36,1
159K21S1,158,experiment,63,↑,up,↑,0.5214098999858834,True,36,1
159K21S1,159,experiment,83,↓,down,↓,0.5925197000033222,True,36,1
159K21S1,160,experiment,71,→,no_key,no_letter,-1.0,False,36,1
159K21S1,161,experiment,102,→,right,→,0.5197166999860201,True,36,1
159K21S1,162,experiment,67,↓,down,↓,0.5484705999842845,True,36,1
159K21S1,163,experiment,54,↓,down,↓,0.8121533000085037,True,36,1
159K21S1,164,experiment,49,→,right,→,0.4993345999973826,True,36,1
159K21S1,165,experiment,89,↓,down,↓,0.4894323000044096,True,36,1
159K21S1,166,experiment,101,←,left,←,0.4425686000031419,True,36,1
159K21S1,167,training,73,↑,no_key,no_letter,-1.0,False,36,0
159K21S1,168,training,99,↑,up,↑,0.5431927000172436,True,36,1
159K21S1,169,experiment,51,↓,no_key,no_letter,-1.0,False,36,1
159K21S1,170,experiment,92,→,right,→,0.4750791999977082,True,36,1
159K21S1,171,experiment,56,↓,down,↓,0.5642627999768592,True,36,1
159K21S1,172,experiment,106,←,left,←,0.42694229999324307,True,36,1
159K21S1,173,experiment,69,→,right,→,0.7770765000022948,True,36,0
159K21S1,174,experiment,60,↑,no_key,no_letter,-1.0,False,36,1
159K21S1,175,experiment,80,↓,up,↑,0.819961000001058,False,36,1
159K21S1,176,experiment,94,↓,down,↓,0.49967190000461414,True,36,1
159K21S1,177,experiment,57,←,left,←,0.49245660001179203,True,36,1
159K21S1,178,experiment,72,↑,up,↑,0.5524748000025284,True,36,1
159K21S1,179,experiment,74,↓,down,↓,0.5455405999964569,True,36,1
159K21S1,180,experiment,75,→,right,→,0.48318729997845367,True,36,1
159K21S1,181,experiment,108,←,left,←,0.4340628999925684,True,36,1
159K21S1,182,experiment,83,↑,up,↑,0.7099714000069071,True,36,0
159K21S1,183,experiment,66,←,left,←,0.8347841000068001,True,36,1
159K21S1,184,experiment,90,←,left,←,0.3258349999960046,True,36,1
159K21S1,185,experiment,73,↑,no_key,no_letter,-1.0,False,36,0
159K21S1,186,experiment,98,→,left,←,0.4257660000002943,False,36,1
159K21S1,187,experiment,70,↑,up,↑,0.4506907000031788,True,36,0
159K21S1,188,experiment,52,↓,down,↓,0.5126090999983717,True,36,0
159K21S1,189,experiment,81,↑,up,↑,0.5928887999907602,True,36,1
159K21S1,190,experiment,62,↑,no_key,no_letter,-1.0,False,36,1
159K21S1,191,experiment,67,←,left,←,0.37599840000621043,True,36,1
159K21S1,192,experiment,79,↑,up,↑,0.6367065000231378,True,36,0
159K21S1,193,experiment,58,←,left,←,0.4879152000066824,True,36,1
159K21S1,194,experiment,96,↓,down,↓,0.7800659000058658,True,36,1
159K21S1,195,experiment,48,↓,left,←,0.4425426000088919,False,36,1
159K21S1,196,experiment,55,→,right,→,0.48817520000739023,True,36,0
159K21S1,197,experiment,87,↓,no_key,no_letter,-1.0,False,36,1
159K21S1,198,experiment,54,→,right,→,0.3748880999919493,True,36,1
159K21S1,199,experiment,88,→,right,→,0.4974428999994416,True,36,0
159K21S1,200,experiment,61,↓,left,←,0.3931276999937836,False,36,1
159K21S1,201,experiment,85,←,no_key,no_letter,-1.0,False,36,0
159K21S1,202,experiment,78,→,right,→,0.5385276000015438,True,36,1
159K21S1,203,experiment,53,←,no_key,no_letter,-1.0,False,36,1
159K21S1,204,experiment,63,↑,up,↑,0.8386811000236776,True,36,1
159K21S1,205,experiment,105,→,right,→,0.5617621999990661,True,36,1
159K21S1,206,experiment,77,↑,up,↑,0.5934520000009798,True,36,1
159K21S1,207,experiment,68,←,no_key,no_letter,-1.0,False,36,1
159K21S1,208,experiment,102,→,right,→,0.49771930000861175,True,36,1
159K21S1,209,experiment,104,↑,up,↑,0.5146865999849979,True,36,1
159K21S1,210,experiment,76,↑,up,↑,0.48471459999564104,True,36,1
159K21S1,211,experiment,84,↑,no_key,no_letter,-1.0,False,36,1
159K21S1,212,experiment,91,←,left,←,0.9514450999849942,True,36,1
159K21S1,213,experiment,100,↓,no_key,no_letter,-1.0,False,36,1
159K21S1,214,experiment,95,↑,left,←,0.4259299999976065,False,36,1
159K21S1,215,experiment,59,←,left,←,0.5076375000062399,True,36,0
159K21S1,216,experiment,49,←,left,←,0.36768499997560866,True,36,1
159K21S1,217,experiment,103,↑,up,↑,0.597153899987461,True,36,0
159K21S1,218,experiment,65,↓,no_key,no_letter,-1.0,False,36,1
159K21S1,219,experiment,89,↑,up,↑,0.5624152000236791,True,36,1
159K21S1,220,experiment,107,↑,up,↑,0.5200480000057723,True,36,1
159K21S1,221,experiment,50,↓,down,↓,0.5384904999809805,True,36,1
159K21S1,222,experiment,64,→,right,→,0.4953398999932688,True,36,1
159K21S1,223,experiment,86,→,right,→,0.49481370000285096,True,36,1
159K21S1,224,experiment,97,↓,no_key,no_letter,-1.0,False,36,1
159K21S1,225,experiment,93,←,left,←,0.42581800001789816,True,36,1
159K21S1,226,experiment,99,←,left,←,0.5774016999930609,True,36,0
159K21S1,227,experiment,71,↑,up,↑,0.6824143000121694,True,36,1
159K21S1,228,experiment,82,←,left,←,0.6353918999957386,True,36,1
159K21S1,229,experiment,101,↑,up,↑,0.4807837999833282,True,36,1
159K21S1,230,training,51,↓,down,↓,0.5074051000119653,True,36,0
159K21S1,231,training,67,↑,up,↑,0.3922108999977354,True,36,1
159K21S1,232,experiment,84,↑,up,↑,0.468682099977741,True,36,0
159K21S1,233,experiment,77,→,right,→,0.4340482000261545,True,36,0
159K21S1,234,experiment,76,←,left,←,0.5801665999752004,True,36,0
159K21S1,235,experiment,97,←,left,←,0.4090284999983851,True,36,1
159K21S1,236,experiment,99,↓,no_key,no_letter,-1.0,False,36,0
159K21S1,237,experiment,90,↓,no_key,no_letter,-1.0,False,36,1
159K21S1,238,experiment,91,←,left,←,0.7035834999987856,True,36,1
159K21S1,239,experiment,85,↑,up,↑,0.5509407999925315,True,36,1
159K21S1,240,experiment,107,←,left,←,0.5008575999818277,True,36,1
159K21S1,241,experiment,74,→,right,→,0.49616330000571907,True,36,1
159K21S1,242,experiment,66,←,left,←,0.6218049000017345,True,36,1
159K21S1,243,experiment,102,↑,up,↑,0.8263676000060514,True,36,1
159K21S1,244,experiment,72,←,left,←,0.4425764000043273,True,36,1
159K21S1,245,experiment,75,↑,up,↑,0.5738055999972858,True,36,0
159K21S1,246,experiment,82,→,left,←,0.35902589999022894,False,36,1
159K21S1,247,experiment,103,→,right,→,0.40077259999816306,True,36,0
159K21S1,248,experiment,53,→,left,←,0.48033120000036433,False,36,0
159K21S1,249,experiment,93,↓,down,↓,1.093167800019728,True,36,1
159K21S1,250,experiment,54,←,left,←,0.37602640001568943,True,36,1
159K21S1,251,experiment,96,↓,down,↓,0.6075348999875132,True,36,0
159K21S1,252,experiment,56,←,left,←,0.359018199989805,True,36,1
159K21S1,253,experiment,108,→,right,→,0.5293622000026517,True,36,0
159K21S1,254,experiment,78,→,right,→,0.49029060002067126,True,36,1
159K21S1,255,experiment,63,↓,down,↓,0.9291424000111874,True,36,1
159K21S1,256,experiment,87,↓,no_key,no_letter,-1.0,False,36,1
159K21S1,257,experiment,60,↓,down,↓,0.8837860000203364,True,36,1
159K21S1,258,experiment,88,↑,left,←,0.4005157999927178,False,36,1
159K21S1,259,experiment,79,←,left,←,0.6078604999929667,True,36,0
159K21S1,260,experiment,48,↑,up,↑,0.4340301000047475,True,36,1
159K21S1,261,experiment,71,→,no_key,no_letter,-1.0,False,36,0
159K21S1,262,experiment,61,←,left,←,0.490608100022655,True,36,1
159K21S1,263,experiment,69,←,left,←,0.6074060999962967,True,36,1
159K21S1,264,experiment,58,↑,up,↑,0.46795570000540465,True,36,1
159K21S1,265,experiment,64,→,right,→,0.4507018000003882,True,36,0
159K21S1,266,experiment,80,↓,left,←,0.5096357000002172,False,36,0
159K21S1,267,experiment,86,↓,down,↓,0.7803915000113193,True,36,1
159K21S1,268,experiment,106,↓,down,↓,0.473755799990613,True,36,1
159K21S1,269,experiment,68,↑,up,↑,0.5912791000155266,True,36,1
159K21S1,270,experiment,89,→,left,←,0.5454444999922998,False,36,1
159K21S1,271,experiment,101,→,no_key,no_letter,-1.0,False,36,1
159K21S1,272,experiment,95,↑,left,←,0.3924643000063952,False,36,1
159K21S1,273,experiment,57,↑,up,↑,0.575768299982883,True,36,0
159K21S1,274,experiment,98,↓,down,↓,0.5757619999931194,True,36,1
159K21S1,275,experiment,73,↓,down,↓,0.5121876000193879,True,36,1
159K21S1,276,experiment,94,←,left,←,0.4767083000042476,True,36,1
159K21S1,277,experiment,70,→,left,←,0.5453564000199549,False,36,1
159K21S1,278,experiment,83,↓,down,↓,0.6318805000046268,True,36,1
159K21S1,279,experiment,59,↑,no_key,no_letter,-1.0,False,36,1
159K21S1,280,experiment,65,←,left,←,0.701766400015913,True,36,1
159K21S1,281,experiment,52,←,no_key,no_letter,-1.0,False,36,1
159K21S1,282,experiment,55,→,no_key,no_letter,-1.0,False,36,1
159K21S1,283,experiment,62,→,no_key,no_letter,-1.0,False,36,1
159K21S1,284,experiment,105,↑,no_key,no_letter,-1.0,False,36,1
159K21S1,285,experiment,51,→,no_key,no_letter,-1.0,False,36,1
159K21S1,286,experiment,50,→,no_key,no_letter,-1.0,False,36,1
159K21S1,287,experiment,100,←,left,←,0.7123317000223324,True,36,1
159K21S1,288,experiment,67,→,left,←,0.3921598000160884,False,36,1
159K21S1,289,experiment,104,↑,up,↑,0.6503614000102971,True,36,0
159K21S1,290,experiment,49,↓,down,↓,0.7919068000046536,True,36,1
159K21S1,291,experiment,92,→,left,←,0.42561099998420104,False,36,1
159K21S1,292,experiment,81,↓,down,↓,0.548386800015578,True,36,0
159K21S1,293,training,84,←,left,←,0.5331211999873631,True,36,0
159K21S1,294,training,106,←,left,←,0.32568429998354986,True,36,1
159K21S1,295,experiment,75,→,right,→,0.6215461000101641,True,36,0
159K21S1,296,experiment,102,←,left,←,0.39251610002247617,True,36,1
159K21S1,297,experiment,86,↑,up,↑,0.5172166999836918,True,36,0
159K21S1,298,experiment,105,↑,up,↑,0.7495340000023134,True,36,1
159K21S1,299,experiment,81,→,left,←,0.6440119000035338,False,36,1
159K21S1,300,experiment,60,←,left,←,0.5341303999884985,True,36,1
159K21S1,301,experiment,62,←,left,←,0.8440395000216085,True,36,1
159K21S1,302,experiment,90,↓,down,↓,0.4841821999871172,True,36,1
159K21S1,303,experiment,58,→,right,→,0.42549700001836754,True,36,1
159K21S1,304,experiment,85,←,left,←,0.40879499999573454,True,36,0
159K21S1,305,experiment,82,←,left,←,0.4340531999769155,True,36,0
159K21S1,306,experiment,108,↑,up,↑,0.5567554000008386,True,36,0
159K21S1,307,experiment,67,←,left,←,0.40921400001388974,True,36,1
159K21S1,308,experiment,103,↑,up,↑,0.4008198000083212,True,36,0
159K21S1,309,experiment,76,↓,no_key,no_letter,-1.0,False,36,0
159K21S1,310,experiment,99,→,left,←,0.5465747999842279,False,36,1
159K21S1,311,experiment,104,↑,up,↑,0.6175444000109565,True,36,1
159K21S1,312,experiment,74,↓,down,↓,0.7847897000028752,True,36,1
159K21S1,313,experiment,48,→,no_key,no_letter,-1.0,False,36,1
159K21S1,314,experiment,88,→,right,→,0.5320110000029672,True,36,1
159K21S1,315,experiment,94,←,left,←,0.44238650001352653,True,36,1
159K21S1,316,experiment,100,↑,up,↑,0.4340858999930788,True,36,0
159K21S1,317,experiment,54,→,right,→,0.42547109999577515,True,36,0
159K21S1,318,experiment,57,→,right,→,0.5308365000237245,True,36,0
159K21S1,319,experiment,107,↑,up,↑,0.4182291000033729,True,36,1
159K21S1,320,experiment,64,↓,left,←,0.31732120001106523,False,36,0
159K21S1,321,experiment,52,↑,no_key,no_letter,-1.0,False,36,0
159K21S1,322,experiment,98,↑,no_key,no_letter,-1.0,False,36,1
159K21S1,323,experiment,59,→,right,→,0.41740599999320693,True,36,1
159K21S1,324,experiment,80,↑,up,↑,0.4341845999879297,True,36,0
159K21S1,325,experiment,49,↓,no_key,no_letter,-1.0,False,36,0
159K21S1,326,experiment,71,↓,no_key,no_letter,-1.0,False,36,1
159K21S1,327,experiment,68,↓,no_key,no_letter,-1.0,False,36,1
159K21S1,328,experiment,78,↓,down,↓,0.8698582999932114,True,36,1
159K21S1,329,experiment,89,→,left,←,0.5009312000183854,False,36,1
159K21S1,330,experiment,73,→,right,→,0.43402549999882467,True,36,1
159K21S1,331,experiment,91,→,no_key,no_letter,-1.0,False,36,0
159K21S1,332,experiment,55,←,left,←,0.36806009997962974,True,36,1
159K21S1,333,experiment,83,←,right,→,0.5076715000031982,False,36,0
159K21S1,334,experiment,69,↓,no_key,no_letter,-1.0,False,36,1
159K21S1,335,experiment,92,→,no_key,no_letter,-1.0,False,36,1
159K21S1,336,experiment,65,↑,no_key,no_letter,-1.0,False,36,1
159K21S1,337,experiment,101,↑,no_key,no_letter,-1.0,False,36,1
159K21S1,338,experiment,93,→,right,→,0.4338197000033688,True,36,1
159K21S1,339,experiment,61,↑,no_key,no_letter,-1.0,False,36,0
159K21S1,340,experiment,50,←,left,←,0.4254176000249572,True,36,1
159K21S1,341,experiment,96,↓,down,↓,0.8068693000241183,True,36,0
159K21S1,342,experiment,70,↑,up,↑,0.7265988999861293,True,36,1
159K21S1,343,experiment,56,←,left,←,0.40876679998473264,True,36,1
159K21S1,344,experiment,53,↑,up,↑,0.45081779998145066,True,36,0
159K21S1,345,experiment,77,←,left,←,0.42550219999975525,True,36,0
159K21S1,346,experiment,87,→,no_key,no_letter,-1.0,False,36,0
159K21S1,347,experiment,66,←,left,←,0.6844227999972645,True,36,1
159K21S1,348,experiment,51,↑,no_key,no_letter,-1.0,False,36,1
159K21S1,349,experiment,95,↑,up,↑,0.504728999978397,True,36,1
159K21S1,350,experiment,97,←,left,←,0.6917897000093944,True,36,1
159K21S1,351,experiment,106,←,left,←,0.8364555000152905,True,36,1
159K21S1,352,experiment,63,↑,up,↑,0.7658519000106025,True,36,1
159K21S1,353,experiment,72,↓,down,↓,0.5110890999785624,True,36,1
159K21S1,354,experiment,79,→,up,↑,0.3588082999922335,False,36,1
159K21S1,355,experiment,84,↑,up,↑,0.39237310001044534,True,36,0
159K21S1,356,training,92,↑,up,↑,0.5001682000001892,True,36,0
159K21S1,357,training,108,↓,no_key,no_letter,-1.0,False,36,1
159K21S1,358,experiment,74,→,left,←,0.6443380999844521,False,36,1
159K21S1,359,experiment,65,→,no_key,no_letter,-1.0,False,36,1
159K21S1,360,experiment,59,→,left,←,0.4348780000000261,False,36,1
159K21S1,361,experiment,96,→,no_key,no_letter,-1.0,False,36,0
159K21S1,362,experiment,88,↓,up,↑,0.7950044000172056,False,36,1
159K21S1,363,experiment,92,↑,up,↑,0.540275900013512,True,36,1
159K21S1,364,experiment,60,↑,up,↑,0.367391099978704,True,36,1
159K21S1,365,experiment,103,↓,left,←,0.35910130001138896,False,36,0
159K21S1,366,experiment,73,↓,down,↓,0.4342585999984294,True,36,0
159K21S1,367,experiment,94,→,no_key,no_letter,-1.0,False,36,0
159K21S1,368,experiment,102,←,left,←,0.47105540000484325,True,36,1
159K21S1,369,experiment,53,↑,up,↑,0.6822804999828804,True,36,0
159K21S1,370,experiment,83,→,left,←,0.5228103999979794,False,36,1
159K21S1,371,experiment,68,↑,up,↑,0.36823350001941435,True,36,1
159K21S1,372,experiment,57,↓,down,↓,0.7644827000040095,True,36,0
159K21S1,373,experiment,85,←,left,←,0.5930579999985639,True,36,1
159K21S1,374,experiment,81,↑,up,↑,0.726417500001844,True,36,1
159K21S1,375,experiment,108,→,right,→,0.48543420000351034,True,36,1
159K21S1,376,experiment,48,↑,left,←,0.3923161000129767,False,36,1
159K21S1,377,experiment,49,→,no_key,no_letter,-1.0,False,36,0
159K21S1,378,experiment,101,↑,up,↑,0.3765127999940887,True,36,1
159K21S1,379,experiment,91,↑,up,↑,0.4348216000071261,True,36,0
159K21S1,380,experiment,69,→,left,←,0.8244296000048053,False,36,0
159K21S1,381,experiment,61,←,left,←,0.36747210001340136,True,36,1
159K21S1,382,experiment,90,←,left,←,0.36719629997969605,True,36,0
159K21S1,383,experiment,52,↑,up,↑,0.6689258000114933,True,36,0
159K21S1,384,experiment,66,→,right,→,0.4007648999977391,True,36,1
159K21S1,385,experiment,55,↑,up,↑,0.3924348000145983,True,36,0
159K21S1,386,experiment,104,↓,left,←,0.34342769999057055,False,36,0
159K21S1,387,experiment,107,←,no_key,no_letter,-1.0,False,36,0
159K21S1,388,experiment,77,←,left,←,0.5311254999833182,True,36,1
159K21S1,389,experiment,79,←,left,←,0.731186399993021,True,36,1
159K21S1,390,experiment,72,↑,up,↑,0.6375556999992114,True,36,1
159K21S1,391,experiment,82,↓,down,↓,0.5042848000011873,True,36,1
159K21S1,392,experiment,64,↓,down,↓,0.5746413999877404,True,36,1
159K21S1,393,experiment,80,↓,down,↓,0.5329972000035923,True,36,1
159K21S1,394,experiment,95,←,left,←,0.5834557000198402,True,36,1
159K21S1,395,experiment,63,↑,up,↑,0.46787329998915084,True,36,1
159K21S1,396,experiment,99,↑,up,↑,0.7506044999754522,True,36,0
159K21S1,397,experiment,62,↓,no_key,no_letter,-1.0,False,36,1
159K21S1,398,experiment,56,→,left,←,0.40908240000135265,False,36,1
159K21S1,399,experiment,105,↑,up,↑,0.4009905999992043,True,36,0
159K21S1,400,experiment,70,↑,no_key,no_letter,-1.0,False,36,0
159K21S1,401,experiment,71,↓,up,↑,0.6154303000075743,False,36,1
159K21S1,402,experiment,87,←,left,←,0.49738230000366457,True,36,1
159K21S1,403,experiment,98,↑,up,↑,0.6283241999917664,True,36,1
159K21S1,404,experiment,54,→,left,←,0.8971231000032276,False,36,1
159K21S1,405,experiment,51,←,left,←,0.40005219998420216,True,36,1
159K21S1,406,experiment,97,→,no_key,no_letter,-1.0,False,36,0
159K21S1,407,experiment,89,↓,down,↓,0.8700689999968745,True,36,1
159K21S1,408,experiment,84,↑,no_key,no_letter,-1.0,False,36,1
159K21S1,409,experiment,50,↓,down,↓,0.5912922999996226,True,36,1
159K21S1,410,experiment,76,→,left,←,0.4862378000107128,False,36,1
159K21S1,411,experiment,75,↑,up,↑,0.7531863999902271,True,36,1
159K21S1,412,experiment,58,↑,left,←,0.43401490000542253,False,36,1
159K21S1,413,experiment,67,↑,up,↑,0.4798062000190839,True,36,0
159K21S1,414,experiment,93,→,right,→,0.4774096000182908,True,36,1
159K21S1,415,experiment,78,↓,down,↓,0.7110044000146445,True,36,1
159K21S1,416,experiment,100,↑,up,↑,0.375136399990879,True,36,1
159K21S1,417,experiment,86,→,right,→,0.44245580001734197,True,36,0
159K21S1,418,experiment,106,↓,down,↓,0.6312254999938887,True,36,0
159K21S1,419,training,67,→,right,→,0.4339447999955155,True,36,0
159K21S1,420,training,64,→,right,→,0.39253859999007545,True,36,0
159K21S1,421,experiment,87,→,right,→,0.3340275000082329,True,36,0
159K21S1,422,experiment,94,↑,up,↑,0.5731698999879882,True,36,0
159K21S1,423,experiment,100,↓,down,↓,0.6284404000034556,True,36,1
159K21S1,424,experiment,55,→,left,←,0.6168519000057131,False,36,1
159K21S1,425,experiment,83,→,right,→,0.636243499990087,True,36,1
159K21S1,426,experiment,72,→,right,→,0.4989050000149291,True,36,1
159K21S1,427,experiment,85,→,left,←,0.42655120001290925,False,36,1
159K21S1,428,experiment,53,←,no_key,no_letter,-1.0,False,36,0
159K21S1,429,experiment,102,↓,down,↓,0.733387499989476,True,36,1
159K21S1,430,experiment,86,↑,up,↑,0.5790189999970607,True,36,1
159K21S1,431,experiment,51,←,left,←,0.6504694000177551,True,36,1
159K21S1,432,experiment,91,→,left,←,0.4743226999999024,False,36,1
159K21S1,433,experiment,54,→,left,←,0.5567345999879763,False,36,0
159K21S1,434,experiment,69,→,left,←,0.8709815999900457,False,36,1
159K21S1,435,experiment,71,→,left,←,0.5243412000127137,False,36,1
159K21S1,436,experiment,59,↑,up,↑,0.4916058999951929,True,36,1
159K21S1,437,experiment,68,→,right,→,0.4424838999984786,True,36,1
159K21S1,438,experiment,96,→,left,←,0.8785844999947585,False,36,0
159K21S1,439,experiment,50,↓,down,↓,0.5866709000256378,True,36,1
159K21S1,440,experiment,57,←,left,←,0.7043485999747645,True,36,1
159K21S1,441,experiment,52,→,no_key,no_letter,-1.0,False,36,1
159K21S1,442,experiment,77,↓,down,↓,0.6979239000065718,True,36,1
159K21S1,443,experiment,48,↑,up,↑,0.8134230000141542,True,36,1
159K21S1,444,experiment,103,←,left,←,0.7783518999931403,True,36,1
159K21S1,445,experiment,95,↑,up,↑,0.7150936000107322,True,36,1
159K21S1,446,experiment,73,←,left,←,0.40068040002370253,True,36,1
159K21S1,447,experiment,92,→,no_key,no_letter,-1.0,False,36,0
159K21S1,448,experiment,99,↑,up,↑,0.7025056999991648,True,36,1
159K21S1,449,experiment,90,←,left,←,0.3257148000120651,True,36,1
159K21S1,450,experiment,63,←,left,←,0.7055599000013899,True,36,0
159K21S1,451,experiment,104,↓,up,↑,0.8503698999993503,False,36,1
159K21S1,452,experiment,82,↓,no_key,no_letter,-1.0,False,36,1
159K21S1,453,experiment,64,↑,up,↑,0.4421020000008866,True,36,1
159K21S1,454,experiment,89,↑,up,↑,0.4421493000118062,True,36,0
159K21S1,455,experiment,75,↓,no_key,no_letter,-1.0,False,36,0
159K21S1,456,experiment,101,↑,up,↑,0.588155800011009,True,36,1
159K21S1,457,experiment,67,↑,up,↑,0.35900550000951625,True,36,1
159K21S1,458,experiment,93,←,left,←,0.8002004000009038,True,36,0
159K21S1,459,experiment,88,←,left,←,0.3841588000068441,True,36,1
159K21S1,460,experiment,74,←,right,→,0.4747170000046026,False,36,0
159K21S1,461,experiment,108,↓,left,←,0.3590223000210244,False,36,0
159K21S1,462,experiment,70,↑,no_key,no_letter,-1.0,False,36,0
159K21S1,463,experiment,78,→,right,→,0.5074368000205141,True,36,1
159K21S1,464,experiment,105,↑,up,↑,0.6037534000060987,True,36,1
159K21S1,465,experiment,98,←,left,←,0.5307473999855574,True,36,1
159K21S1,466,experiment,97,←,left,←,0.4007708000135608,True,36,1
159K21S1,467,experiment,58,→,no_key,no_letter,-1.0,False,36,0
159K21S1,468,experiment,107,→,left,←,0.502139599993825,False,36,1
159K21S1,469,experiment,106,↓,down,↓,0.9825209999980871,True,36,1
159K21S1,470,experiment,65,↓,down,↓,0.7371965000056662,True,36,1
159K21S1,471,experiment,56,→,right,→,0.6391445000190288,True,36,1
159K21S1,472,experiment,61,→,right,→,0.49709969997638837,True,36,1
159K21S1,473,experiment,60,↓,down,↓,0.5526771000004373,True,36,1
159K21S1,474,experiment,79,←,left,←,0.417631899996195,True,36,1
159K21S1,475,experiment,66,↓,down,↓,0.528795899997931,True,36,0
159K21S1,476,experiment,76,→,right,→,0.47475170000689104,True,36,1
159K21S1,477,experiment,84,↓,down,↓,0.618683599983342,True,36,1
159K21S1,478,experiment,62,↑,up,↑,0.43404379999265075,True,36,1
159K21S1,479,experiment,80,←,left,←,0.6005077000008896,True,36,0
159K21S1,480,experiment,49,→,right,→,0.6478880000067875,True,36,1
159K21S1,481,experiment,81,↓,down,↓,0.6985780000104569,True,36,1
159K21S1,482,training,64,←,left,←,0.6562086000049021,True,36,0
159K21S1,483,training,89,→,left,←,0.3924210999975912,False,36,1
159K21S1,484,experiment,57,←,left,←,0.6204990000114776,True,36,0
159K21S1,485,experiment,75,↓,down,↓,0.5865419000037946,True,36,1
159K21S1,486,experiment,81,→,no_key,no_letter,-1.0,False,36,1
159K21S1,487,experiment,50,→,left,←,0.6081848999892827,False,36,1
159K21S1,488,experiment,80,↑,no_key,no_letter,-1.0,False,36,1
159K21S1,489,experiment,60,→,no_key,no_letter,-1.0,False,36,1
159K21S1,490,experiment,48,↑,up,↑,0.4831127000215929,True,36,1
159K21S1,491,experiment,95,↓,left,←,0.49562559998594224,False,36,1
159K21S1,492,experiment,107,←,left,←,0.42569799997727387,True,36,1
159K21S1,493,experiment,63,→,right,→,0.4258904000162147,True,36,0
159K21S1,494,experiment,98,←,left,←,0.442346700001508,True,36,0
159K21S1,495,experiment,78,↓,down,↓,0.7144081000005826,True,36,0
159K21S1,496,experiment,72,←,left,←,0.5653223999834154,True,36,1
159K21S1,497,experiment,106,→,right,→,0.4173756999953184,True,36,1
159K21S1,498,experiment,71,→,right,→,0.43508229998406023,True,36,0
159K21S1,499,experiment,89,↑,left,←,0.3757620000105817,False,36,0
159K21S1,500,experiment,103,→,right,→,0.5201371999864932,True,36,0
159K21S1,501,experiment,100,↑,up,↑,0.5459678999905009,True,36,1
159K21S1,502,experiment,105,↓,down,↓,0.7126126000075601,True,36,1
159K21S1,503,experiment,87,↑,up,↑,0.38417149998713285,True,36,1
159K21S1,504,experiment,97,←,left,←,0.5263867999892682,True,36,0
159K21S1,505,experiment,73,↑,up,↑,0.4258082000014838,True,36,1
159K21S1,506,experiment,104,←,left,←,0.564619800017681,True,36,0
159K21S1,507,experiment,76,←,left,←,0.4767758999951184,True,36,1
159K21S1,508,experiment,49,←,left,←,0.40988749999087304,True,36,1
159K21S1,509,experiment,59,↓,down,↓,0.755898100003833,True,36,0
159K21S1,510,experiment,94,↑,up,↑,0.5259059999953024,True,36,1
159K21S1,511,experiment,82,↓,down,↓,0.6613241999875754,True,36,1
159K21S1,512,experiment,61,↓,down,↓,0.48651620000600815,True,36,1
159K21S1,513,experiment,79,↓,down,↓,0.6644513999926858,True,36,1
159K21S1,514,experiment,90,↓,down,↓,0.5514191999973264,True,36,1
159K21S1,515,experiment,68,↓,down,↓,0.6905748000135645,True,36,1
159K21S1,516,experiment,99,↓,down,↓,0.7575146000017412,True,36,1
159K21S1,517,experiment,56,←,left,←,0.5483813000028022,True,36,1
159K21S1,518,experiment,77,→,left,←,0.5002830000012182,False,36,1
159K21S1,519,experiment,74,←,left,←,0.6234370000020135,True,36,1
159K21S1,520,experiment,84,↓,down,↓,0.5941139000060502,True,36,1
159K21S1,521,experiment,96,←,left,←,0.6021360000013374,True,36,1
159K21S1,522,experiment,102,←,left,←,0.41751319999457337,True,36,1
159K21S1,523,experiment,58,↑,up,↑,0.7393073000130244,True,36,0
159K21S1,524,experiment,51,→,left,←,0.5083572999865282,False,36,1
159K21S1,525,experiment,85,↓,down,↓,0.5794146999833174,True,36,1
159K21S1,526,experiment,53,↓,down,↓,0.5385288999823388,True,36,1
159K21S1,527,experiment,62,→,no_key,no_letter,-1.0,False,36,1
159K21S1,528,experiment,66,↓,down,↓,0.594842399994377,True,36,1
159K21S1,529,experiment,52,→,no_key,no_letter,-1.0,False,36,1
159K21S1,530,experiment,88,→,right,→,0.51734440002474,True,36,1
159K21S1,531,experiment,86,↓,down,↓,0.5157327000051737,True,36,1
159K21S1,532,experiment,92,↓,down,↓,0.5279110999836121,True,36,1
159K21S1,533,experiment,65,←,left,←,0.3588267999875825,True,36,1
159K21S1,534,experiment,55,↓,down,↓,0.6037443999957759,True,36,0
159K21S1,535,experiment,64,→,right,→,0.5581786000111606,True,36,1
159K21S1,536,experiment,91,→,right,→,0.5211091999954078,True,36,1
159K21S1,537,experiment,70,←,left,←,0.7088465999986511,True,36,1
159K21S1,538,experiment,67,←,left,←,1.4178190000238828,True,36,1
159K21S1,539,experiment,54,↓,down,↓,0.5266662000212818,True,36,1
159K21S1,540,experiment,93,↓,down,↓,0.4904573999810964,True,36,1
159K21S1,541,experiment,101,→,right,→,0.7006916000100318,True,36,1
159K21S1,542,experiment,69,←,left,←,0.41736699998728,True,36,1
159K21S1,543,experiment,83,→,right,→,0.7005669999925885,True,36,0
159K21S1,544,experiment,108,→,right,→,0.7082146000175271,True,36,1
159K21S1,545,training,53,↑,up,↑,0.5454388999787625,True,36,0
159K21S1,546,training,102,↑,up,↑,0.5453434999799356,True,36,1
159K21S1,547,experiment,105,→,right,→,0.45047310000518337,True,36,1
159K21S1,548,experiment,57,↑,no_key,no_letter,-1.0,False,36,0
159K21S1,549,experiment,64,↓,down,↓,0.5105287999904249,True,36,1
159K21S1,550,experiment,60,↑,up,↑,0.7099928999959957,True,36,1
159K21S1,551,experiment,59,↑,up,↑,0.49361380000482313,True,36,1
159K21S1,552,experiment,66,→,right,→,0.4507123999937903,True,36,1
159K21S1,553,experiment,68,↓,down,↓,0.6344089000194799,True,36,0
159K21S1,554,experiment,102,←,left,←,0.4507185000111349,True,36,1
159K21S1,555,experiment,73,←,right,→,0.5318606999935582,False,36,0
159K21S1,556,experiment,95,↓,down,↓,0.7904883000010159,True,36,1
159K21S1,557,experiment,56,↑,up,↑,0.4764386000169907,True,36,1
159K21S1,558,experiment,89,→,no_key,no_letter,-1.0,False,36,1
159K21S1,559,experiment,108,↑,up,↑,0.7035768000059761,True,36,1
159K21S1,560,experiment,86,→,right,→,0.4787332999985665,True,36,1
159K21S1,561,experiment,80,→,right,→,0.65664800000377,True,36,1
159K21S1,562,experiment,106,↑,up,↑,0.5626440999913029,True,36,1
159K21S1,563,experiment,100,→,right,→,0.4250490000122227,True,36,1
159K21S1,564,experiment,91,↓,left,←,0.5863737000036053,False,36,0
159K21S1,565,experiment,77,→,right,→,0.7691544000117574,True,36,1
159K21S1,566,experiment,96,→,right,→,0.5381261000002269,True,36,1
159K21S1,567,experiment,48,↑,up,↑,0.41739610000513494,True,36,1
159K21S1,568,experiment,107,↑,up,↑,0.4341734999907203,True,36,0
159K21S1,569,experiment,79,↓,no_key,no_letter,-1.0,False,36,0
159K21S1,570,experiment,71,←,left,←,0.44262020001769997,True,36,1
159K21S1,571,experiment,63,↑,up,↑,0.5492260000028182,True,36,0
159K21S1,572,experiment,78,↑,up,↑,0.3424077999952715,True,36,1
159K21S1,573,experiment,76,↑,up,↑,0.5571517999924254,True,36,0
159K21S1,574,experiment,53,←,left,←,0.5729282999818679,True,36,1
159K21S1,575,experiment,58,↑,up,↑,0.4827093000058085,True,36,1
159K21S1,576,experiment,97,↑,up,↑,0.4790054000040982,True,36,1
159K21S1,577,experiment,51,↑,up,↑,0.3256991999805905,True,36,1
159K21S1,578,experiment,75,←,left,←,0.5154511999862734,True,36,0
159K21S1,579,experiment,90,↓,down,↓,0.5283118000079412,True,36,1
159K21S1,580,experiment,62,↑,up,↑,0.7906571000057738,True,36,1
159K21S1,581,experiment,70,↓,down,↓,0.6951608999806922,True,36,1
159K21S1,582,experiment,83,↓,down,↓,0.4877623000065796,True,36,1
159K21S1,583,experiment,84,←,left,←,0.43421370000578463,True,36,1
159K21S1,584,experiment,103,↓,down,↓,0.515329899993958,True,36,0
159K21S1,585,experiment,92,↑,up,↑,0.42543629999272525,True,36,1
159K21S1,586,experiment,85,↓,down,↓,0.6738295999821275,True,36,0
159K21S1,587,experiment,74,↑,no_key,no_letter,-1.0,False,36,1
159K21S1,588,experiment,72,←,left,←,0.40890690000378527,True,36,1
159K21S1,589,experiment,65,↓,down,↓,0.6001633999985643,True,36,0
159K21S1,590,experiment,101,→,right,→,0.4706545999797527,True,36,1
159K21S1,591,experiment,49,→,left,←,0.49095580002176575,False,36,0
159K21S1,592,experiment,88,↑,up,↑,0.4514371999830473,True,36,1
159K21S1,593,experiment,54,←,left,←,0.41723930000443943,True,36,0
159K21S1,594,experiment,93,→,left,←,0.42577660002280027,False,36,0
159K21S1,595,experiment,94,↓,down,↓,0.5155082999845035,True,36,0
159K21S1,596,experiment,67,←,left,←,0.5043423000024632,True,36,1
159K21S1,597,experiment,61,←,left,←,0.35910810000495985,True,36,1
159K21S1,598,experiment,50,↓,down,↓,0.6242568000161555,True,36,0
159K21S1,599,experiment,69,↓,down,↓,0.60791479999898,True,36,1
159K21S1,600,experiment,82,↓,down,↓,0.6360899999854155,True,36,1
159K21S1,601,experiment,81,←,left,←,0.4416419999906793,True,36,1
159K21S1,602,experiment,87,→,right,→,0.3931375999818556,True,36,0
159K21S1,603,experiment,104,↑,no_key,no_letter,-1.0,False,36,0
159K21S1,604,experiment,52,↓,down,↓,0.4925392000004649,True,36,1
159K21S1,605,experiment,55,↓,down,↓,0.5581480000109877,True,36,1
159K21S1,606,experiment,99,→,no_key,no_letter,-1.0,False,36,1
159K21S1,607,experiment,98,←,right,→,0.42545210002572276,False,36,1
159K21S1,608,training,73,↑,up,↑,0.418359999981476,True,36,0
159K21S1,609,training,50,↑,up,↑,0.38352150001446716,True,36,0
159K21S1,610,experiment,71,↓,up,↑,0.6317423000000417,False,36,0
159K21S1,611,experiment,64,→,right,→,0.6968112000031397,True,36,1
159K21S1,612,experiment,63,↓,down,↓,0.5035725999914575,True,36,1
159K21S1,613,experiment,101,←,left,←,0.4264979000145104,True,36,1
159K21S1,614,experiment,75,↓,down,↓,0.6063914000114892,True,36,0
159K21S1,615,experiment,79,→,right,→,0.7634418999950867,True,36,1
159K21S1,616,experiment,55,↓,down,↓,0.49813670001458377,True,36,1
159K21S1,617,experiment,66,↓,down,↓,0.6798643000074662,True,36,1
159K21S1,618,experiment,48,↓,down,↓,0.5245309000019915,True,36,1
159K21S1,619,experiment,61,←,left,←,0.4174195000086911,True,36,1
159K21S1,620,experiment,91,↑,up,↑,0.4173747999884654,True,36,0
159K21S1,621,experiment,52,→,right,→,0.504976100026397,True,36,0
159K21S1,622,experiment,78,↓,down,↓,0.4826068000111263,True,36,1
159K21S1,623,experiment,72,↓,down,↓,0.4507119999907445,True,36,1
159K21S1,624,experiment,81,↓,down,↓,0.4732596999965608,True,36,0
159K21S1,625,experiment,80,↓,down,↓,0.6512225999904331,True,36,0
159K21S1,626,experiment,96,↓,down,↓,0.47334630001569167,True,36,1
159K21S1,627,experiment,86,→,right,→,0.4422322000027634,True,36,1
159K21S1,628,experiment,88,→,right,→,0.3592046000121627,True,36,0
159K21S1,629,experiment,99,↑,up,↑,0.6733441000105813,True,36,0
159K21S1,630,experiment,103,←,left,←,0.6274535999982618,True,36,1
159K21S1,631,experiment,106,↑,up,↑,0.8628281000128482,True,36,1
159K21S1,632,experiment,73,←,left,←,0.5715618000249378,True,36,1
159K21S1,633,experiment,77,←,left,←,0.5629749000072479,True,36,1
159K21S1,634,experiment,57,↑,up,↑,0.5370210999972187,True,36,1
159K21S1,635,experiment,67,←,left,←,0.5411559999920428,True,36,1
159K21S1,636,experiment,76,↑,left,←,0.48602190002566203,False,36,1
159K21S1,637,experiment,60,→,right,→,0.40083319999394007,True,36,1
159K21S1,638,experiment,69,←,up,↑,0.3590961000008974,False,36,0
159K21S1,639,experiment,104,↓,down,↓,0.604709900013404,True,36,0
159K21S1,640,experiment,68,←,left,←,0.5414403000031598,True,36,1
159K21S1,641,experiment,108,→,right,→,0.49145589998806827,True,36,1
159K21S1,642,experiment,65,←,left,←,0.400799700000789,True,36,1
159K21S1,643,experiment,97,↓,down,↓,0.4972864000010304,True,36,0
159K21S1,644,experiment,105,→,left,←,0.450797400000738,False,36,1
159K21S1,645,experiment,95,←,left,←,0.49555289998534136,True,36,0
159K21S1,646,experiment,92,↓,down,↓,0.6204254000040237,True,36,1
159K21S1,647,experiment,59,←,left,←,0.3848615000024438,True,36,1
159K21S1,648,experiment,87,↓,right,→,0.392803399998229,False,36,0
159K21S1,649,experiment,84,↑,up,↑,0.5264220000244677,True,36,0
159K21S1,650,experiment,58,→,right,→,0.5738735000195447,True,36,1
159K21S1,651,experiment,89,←,left,←,0.5208248000126332,True,36,1
159K21S1,652,experiment,90,↑,up,↑,0.44242239999584854,True,36,1
159K21S1,653,experiment,51,↓,down,↓,0.5703393000003416,True,36,0
159K21S1,654,experiment,62,↓,down,↓,0.5669407999957912,True,36,1
159K21S1,655,experiment,50,↑,down,↓,0.663197100016987,False,36,1
159K21S1,656,experiment,85,←,left,←,0.5040142999787349,True,36,1
159K21S1,657,experiment,53,→,right,→,0.41737390001071617,True,36,1
159K21S1,658,experiment,94,↑,up,↑,0.40902389999246225,True,36,0
159K21S1,659,experiment,49,→,no_key,no_letter,-1.0,False,36,0
159K21S1,660,experiment,54,←,left,←,0.4173741999838967,True,36,1
159K21S1,661,experiment,74,→,right,→,0.4007331999891903,True,36,0
159K21S1,662,experiment,102,↓,left,←,0.40072909998707473,False,36,0
159K21S1,663,experiment,93,→,right,→,0.482992600009311,True,36,0
159K21S1,664,experiment,98,↑,down,↓,0.518341999995755,False,36,1
159K21S1,665,experiment,70,↑,no_key,no_letter,-1.0,False,36,1
159K21S1,666,experiment,100,→,right,→,0.3507567999768071,True,36,1
159K21S1,667,experiment,107,↑,up,↑,0.4007761999964714,True,36,0
159K21S1,668,experiment,82,→,right,→,0.45069820000207983,True,36,0
159K21S1,669,experiment,56,←,left,←,0.41750389998196624,True,36,0
159K21S1,670,experiment,83,↑,up,↑,0.5052967999945395,True,36,0
159K21S1,671,training,74,↑,up,↑,0.30919810000341386,True,36,0
159K21S1,672,training,67,↓,left,←,0.3593492000072729,False,36,0
159K21S1,673,experiment,59,→,right,→,0.40037560000200756,True,36,0
159K21S1,674,experiment,80,↓,down,↓,0.515298599988455,True,36,0
159K21S1,675,experiment,56,↑,up,↑,0.5077923999924678,True,36,1
159K21S1,676,experiment,65,→,right,→,0.42648409999674186,True,36,1
159K21S1,677,experiment,58,↓,up,↑,0.5404119000013452,False,36,0
159K21S1,678,experiment,70,→,right,→,0.32575920000090264,True,36,1
159K21S1,679,experiment,106,→,left,←,0.4176067999796942,False,36,0
159K21S1,680,experiment,76,↓,down,↓,0.9796381000196561,True,36,0
159K21S1,681,experiment,86,↓,right,→,0.28525479999370873,False,36,1
159K21S1,682,experiment,55,↑,no_key,no_letter,-1.0,False,36,0
159K21S1,683,experiment,93,↑,up,↑,0.6029462000005879,True,36,1
159K21S1,684,experiment,85,←,left,←,0.6142199999885634,True,36,1
159K21S1,685,experiment,67,→,no_key,no_letter,-1.0,False,36,1
159K21S1,686,experiment,68,→,right,→,0.681257700023707,True,36,1
159K21S1,687,experiment,101,←,no_key,no_letter,-1.0,False,36,1
159K21S1,688,experiment,51,↓,right,→,0.4507387999910861,False,36,1
159K21S1,689,experiment,72,↑,no_key,no_letter,-1.0,False,36,0
159K21S1,690,experiment,97,↓,down,↓,0.7137392000004184,True,36,1
159K21S1,691,experiment,82,↑,up,↑,0.6894465999794193,True,36,1
159K21S1,692,experiment,102,↑,no_key,no_letter,-1.0,False,36,1
159K21S1,693,experiment,64,↓,left,←,0.38449659998877905,False,36,1
159K21S1,694,experiment,81,↓,no_key,no_letter,-1.0,False,36,0
159K21S1,695,experiment,94,←,left,←,0.48576939999475144,True,36,1
159K21S1,696,experiment,57,→,right,→,0.44241339998552576,True,36,1
159K21S1,697,experiment,108,←,left,←,0.3170906000013929,True,36,0
159K21S1,698,experiment,69,↑,up,↑,0.7804988000134472,True,36,0
159K21S1,699,experiment,90,→,down,↓,0.7587667999905534,False,36,1
159K21S1,700,experiment,78,↓,down,↓,0.7981624999956694,True,36,1
159K21S1,701,experiment,77,←,left,←,0.5483108999906108,True,36,1
159K21S1,702,experiment,105,→,right,→,0.5549382999888621,True,36,1
159K21S1,703,experiment,66,↓,down,↓,0.6702443000103813,True,36,1
159K21S1,704,experiment,87,→,left,←,0.4943347999942489,False,36,1
159K21S1,705,experiment,98,←,left,←,0.4265470000100322,True,36,1
159K21S1,706,experiment,52,↓,down,↓,0.6228875999804586,True,36,0
159K21S1,707,experiment,92,↓,down,↓,0.5985706000064965,True,36,1
159K21S1,708,experiment,63,↑,up,↑,0.4101768999826163,True,36,1
159K21S1,709,experiment,84,↑,up,↑,0.5800958999898285,True,36,0
159K21S1,710,experiment,100,↑,up,↑,0.45077100000344217,True,36,1
159K21S1,711,experiment,89,→,right,→,0.7308383999916259,True,36,0
159K21S1,712,experiment,50,←,left,←,0.6766087999858428,True,36,1
159K21S1,713,experiment,71,→,right,→,0.4007645999954548,True,36,1
159K21S1,714,experiment,96,↑,up,↑,0.4505758000013884,True,36,0
159K21S1,715,experiment,99,↑,up,↑,0.4427092999976594,True,36,0
159K21S1,716,experiment,73,↑,up,↑,0.5469237999932375,True,36,0
159K21S1,717,experiment,75,↑,up,↑,0.555500899994513,True,36,1
159K21S1,718,experiment,103,←,left,←,0.42586560000199825,True,36,1
159K21S1,719,experiment,107,↑,up,↑,0.6933360999973956,True,36,0
159K21S1,720,experiment,49,↓,down,↓,0.6410345000040252,True,36,1
159K21S1,721,experiment,60,↑,up,↑,0.3673601000045892,True,36,1
159K21S1,722,experiment,91,→,right,→,0.6855690999946091,True,36,0
159K21S1,723,experiment,62,←,left,←,0.442401999986032,True,36,1
159K21S1,724,experiment,83,↑,up,↑,0.8232656000182033,True,36,0
159K21S1,725,experiment,79,↓,down,↓,0.5800273999921046,True,36,1
159K21S1,726,experiment,54,↓,down,↓,0.6024279999837745,True,36,1
159K21S1,727,experiment,61,→,right,→,0.7340110999939498,True,36,1
159K21S1,728,experiment,53,←,left,←,0.4254450000007637,True,36,1
159K21S1,729,experiment,104,←,left,←,0.4173577000037767,True,36,0
159K21S1,730,experiment,95,↑,up,↑,0.434234699991066,True,36,0
159K21S1,731,experiment,48,↑,down,↓,0.7675194000185002,False,36,0
159K21S1,732,experiment,88,↑,up,↑,0.7151741000125185,True,36,1
159K21S1,733,experiment,74,→,right,→,0.557549100019969,True,36,1
159K21S1,734,training,92,↑,no_key,no_letter,-1.0,False,36,0
159K21S1,735,training,49,↑,up,↑,0.3673404000001028,True,36,1
159K21S1,736,experiment,76,↓,down,↓,0.5791234000062104,True,36,0
159K21S1,737,experiment,62,↑,up,↑,0.33487809999496676,True,36,1
159K21S1,738,experiment,66,→,left,←,0.49925930000608787,False,36,0
159K21S1,739,experiment,50,↑,up,↑,0.3920941000105813,True,36,1
159K21S1,740,experiment,96,↓,up,↑,0.34320770000340417,False,36,0
159K21S1,741,experiment,82,↓,down,↓,0.32575240000733174,True,36,0
159K21S1,742,experiment,104,←,left,←,0.44174239999847487,True,36,0
159K21S1,743,experiment,69,↑,up,↑,0.4257862000085879,True,36,0
159K21S1,744,experiment,80,↓,down,↓,0.6864482999953907,True,36,0
159K21S1,745,experiment,87,←,left,←,0.41738620001706295,True,36,1
159K21S1,746,experiment,79,↑,up,↑,0.4258527999918442,True,36,0
159K21S1,747,experiment,61,→,no_key,no_letter,-1.0,False,36,0
159K21S1,748,experiment,53,↓,no_key,no_letter,-1.0,False,36,1
159K21S1,749,experiment,105,↑,up,↑,0.5454393000109121,True,36,1
159K21S1,750,experiment,51,←,left,←,0.6504442000004929,True,36,1
159K21S1,751,experiment,98,→,right,→,0.6954350000014529,True,36,1
159K21S1,752,experiment,60,←,left,←,0.5032183000002988,True,36,1
159K21S1,753,experiment,78,→,right,→,0.3591314999794122,True,36,1
159K21S1,754,experiment,72,↓,down,↓,0.4823720999993384,True,36,0
159K21S1,755,experiment,106,↑,left,←,0.39244649998727255,False,36,1
159K21S1,756,experiment,73,↑,up,↑,0.3588253000052646,True,36,0
159K21S1,757,experiment,57,→,left,←,0.9765730999934021,False,36,0
159K21S1,758,experiment,68,↓,no_key,no_letter,-1.0,False,36,1
159K21S1,759,experiment,75,→,right,→,0.44247780001023784,True,36,1
159K21S1,760,experiment,102,→,left,←,0.6061371999967378,False,36,0
159K21S1,761,experiment,81,↓,down,↓,0.7225512999866623,True,36,1
159K21S1,762,experiment,89,←,left,←,0.37504270000499673,True,36,1
159K21S1,763,experiment,88,↓,down,↓,0.5467233999806922,True,36,0
159K21S1,764,experiment,86,↓,down,↓,0.49584540000068955,True,36,1
159K21S1,765,experiment,52,→,right,→,0.49820719999843277,True,36,1
159K21S1,766,experiment,91,←,left,←,0.3835800999950152,True,36,1
159K21S1,767,experiment,99,→,right,→,0.47074080002494156,True,36,0
159K21S1,768,experiment,74,←,up,↑,0.3591289999894798,False,36,1
159K21S1,769,experiment,65,→,right,→,0.7819752999930643,True,36,0
159K21S1,770,experiment,84,→,right,→,0.40084280000883155,True,36,1
159K21S1,771,experiment,108,→,left,←,0.6375274999882095,False,36,0
159K21S1,772,experiment,71,↓,down,↓,0.747991699987324,True,36,1
159K21S1,773,experiment,103,↓,down,↓,0.6673271000036038,True,36,1
159K21S1,774,experiment,54,←,left,←,0.4260196999821346,True,36,1
159K21S1,775,experiment,93,↓,down,↓,0.6617982999887317,True,36,0
159K21S1,776,experiment,55,←,left,←,0.3424306000233628,True,36,1
159K21S1,777,experiment,48,→,right,→,0.43421459998353384,True,36,0
159K21S1,778,experiment,107,↑,no_key,no_letter,-1.0,False,36,0
159K21S1,779,experiment,63,←,left,←,0.40054390000295825,True,36,1
159K21S1,780,experiment,94,↑,up,↑,0.7530023999861442,True,36,0
159K21S1,781,experiment,97,→,right,→,0.4257154999941122,True,36,1
159K21S1,782,experiment,58,→,no_key,no_letter,-1.0,False,36,0
159K21S1,783,experiment,59,←,left,←,0.5146928000031039,True,36,1
159K21S1,784,experiment,90,↓,down,↓,0.6557038999744691,True,36,1
159K21S1,785,experiment,95,→,right,→,0.3922954000008758,True,36,1
159K21S1,786,experiment,67,→,right,→,0.44241709998459555,True,36,0
159K21S1,787,experiment,70,↓,left,←,0.4932039999985136,False,36,0
159K21S1,788,experiment,92,↑,up,↑,0.4987260000198148,True,36,1
159K21S1,789,experiment,56,←,left,←,0.6198368000041228,True,36,1
159K21S1,790,experiment,85,↓,down,↓,0.534445199999027,True,36,1
159K21S1,791,experiment,49,↑,up,↑,0.6966925000015181,True,36,1
159K21S1,792,experiment,64,←,left,←,0.5749652000085916,True,36,1
159K21S1,793,experiment,77,→,right,→,0.5020610999781638,True,36,1
159K21S1,794,experiment,101,←,left,←,0.48819030000595376,True,36,1
159K21S1,795,experiment,100,→,right,→,0.38388199999462813,True,36,1
159K21S1,796,experiment,83,←,left,←,0.3681508000008762,True,36,0
159K21S1,797,training,104,↓,down,↓,0.7247406000096817,True,36,0
159K21S1,798,training,85,↓,left,←,0.35902119998354465,False,36,1
159K21S1,799,experiment,70,↓,down,↓,0.44238630001200363,True,36,0
159K21S1,800,experiment,60,→,right,→,0.44213500001933426,True,36,0
159K21S1,801,experiment,85,→,left,←,0.37583939998876303,False,36,0
159K21S1,802,experiment,57,↓,down,↓,0.5735559000167996,True,36,0
159K21S1,803,experiment,104,↑,up,↑,0.6595423000107985,True,36,1
159K21S1,804,experiment,83,→,right,→,0.7332352999947034,True,36,1
159K21S1,805,experiment,86,→,no_key,no_letter,-1.0,False,36,1
159K21S1,806,experiment,108,↑,down,↓,0.6638801000081003,False,36,1
159K21S1,807,experiment,77,←,left,←,0.4992053999740165,True,36,1
159K21S1,808,experiment,72,↑,up,↑,0.425685499998508,True,36,1
159K21S1,809,experiment,58,→,right,→,0.5300667999836151,True,36,0
159K21S1,810,experiment,61,←,left,←,0.3930869000032544,True,36,1
159K21S1,811,experiment,62,↓,down,↓,0.5389703999971971,True,36,0
159K21S1,812,experiment,54,↑,up,↑,0.5309565000061411,True,36,1
159K21S1,813,experiment,78,→,right,→,0.5715969000011683,True,36,1
159K21S1,814,experiment,65,↓,down,↓,0.5104801999987103,True,36,1
159K21S1,815,experiment,93,↑,no_key,no_letter,-1.0,False,36,1
159K21S1,816,experiment,68,↓,down,↓,0.589121700002579,True,36,1
159K21S1,817,experiment,67,←,left,←,0.4005546999978833,True,36,1
159K21S1,818,experiment,49,←,left,←,0.37545809999573976,True,36,0
159K21S1,819,experiment,98,↓,down,↓,0.47816330002387986,True,36,0
159K21S1,820,experiment,102,←,left,←,0.5440777000039816,True,36,1
159K21S1,821,experiment,64,→,left,←,0.5887382000219077,False,36,1
159K21S1,822,experiment,76,↑,no_key,no_letter,-1.0,False,36,1
159K21S1,823,experiment,75,↑,up,↑,0.39239090000046417,True,36,1
159K21S1,824,experiment,52,→,right,→,0.4090487000066787,True,36,0
159K21S1,825,experiment,69,↓,down,↓,0.5218083999934606,True,36,0
159K21S1,826,experiment,90,↑,up,↑,0.38410490000387654,True,36,1
159K21S1,827,experiment,73,→,right,→,0.48662250000052154,True,36,0
159K21S1,828,experiment,89,↑,left,←,0.4176131999993231,False,36,1
159K21S1,829,experiment,74,↑,up,↑,0.45056019999901764,True,36,0
159K21S1,830,experiment,106,↑,up,↑,0.44248520000837743,True,36,0
159K21S1,831,experiment,51,↓,down,↓,0.5297460999863688,True,36,0
159K21S1,832,experiment,101,→,right,→,0.3507143000024371,True,36,1
159K21S1,833,experiment,50,↑,up,↑,0.4007075999979861,True,36,0
159K21S1,834,experiment,79,↑,no_key,no_letter,-1.0,False,36,0
159K21S1,835,experiment,94,←,up,↑,0.5858445000194479,False,36,1
159K21S1,836,experiment,59,↓,no_key,no_letter,-1.0,False,36,1
159K21S1,837,experiment,103,→,left,←,0.4424066000210587,False,36,1
159K21S1,838,experiment,48,←,no_key,no_letter,-1.0,False,36,0
159K21S1,839,experiment,63,→,right,→,0.8147812999959569,True,36,1
159K21S1,840,experiment,105,↑,up,↑,0.7227223000081722,True,36,1
159K21S1,841,experiment,55,→,right,→,0.44238140000379644,True,36,1
159K21S1,842,experiment,96,←,left,←,0.4342125999974087,True,36,0
159K21S1,843,experiment,87,→,right,→,0.3508062000037171,True,36,0
159K21S1,844,experiment,56,←,right,→,0.36715870001353323,False,36,0
159K21S1,845,experiment,80,↓,down,↓,0.5187688000150956,True,36,0
159K21S1,846,experiment,84,→,right,→,0.7098414000065532,True,36,1
159K21S1,847,experiment,100,→,right,→,0.6718669000256341,True,36,1
159K21S1,848,experiment,97,→,right,→,0.45045809997827746,True,36,1
159K21S1,849,experiment,82,↑,up,↑,0.4709662000241224,True,36,0
159K21S1,850,experiment,81,↑,up,↑,0.44205799998599105,True,36,0
159K21S1,851,experiment,95,→,right,→,0.43407300001126714,True,36,0
159K21S1,852,experiment,66,←,left,←,0.4090655999898445,True,36,0
159K21S1,853,experiment,88,↑,no_key,no_letter,-1.0,False,36,0
159K21S1,854,experiment,91,↓,down,↓,0.6904957000224385,True,36,1
159K21S1,855,experiment,53,↓,no_key,no_letter,-1.0,False,36,1
159K21S1,856,experiment,71,↑,up,↑,0.6624088000098709,True,36,1
159K21S1,857,experiment,107,→,no_key,no_letter,-1.0,False,36,1
159K21S1,858,experiment,92,↑,left,←,0.3922434999840334,False,36,1
159K21S1,859,experiment,99,→,right,→,0.6405529000039678,True,36,0
159K21S1,860,training,108,↓,down,↓,0.6351291000028141,True,36,0
159K21S1,861,training,72,←,left,←,0.6974789000232704,True,36,1
159K21S1,862,experiment,49,←,left,←,0.37498920000507496,True,36,1
159K21S1,863,experiment,103,↓,down,↓,0.4990641000040341,True,36,0
159K21S1,864,experiment,55,←,left,←,0.409084700018866,True,36,1
159K21S1,865,experiment,96,←,left,←,0.45083859999431297,True,36,0
159K21S1,866,experiment,104,←,right,→,0.45281359998625703,False,36,0
159K21S1,867,experiment,87,←,left,←,0.4003917999798432,True,36,0
159K21S1,868,experiment,76,→,left,←,0.500710699998308,False,36,0
159K21S1,869,experiment,59,→,no_key,no_letter,-1.0,False,36,1
159K21S1,870,experiment,92,←,left,←,0.3681135000078939,True,36,1
159K21S1,871,experiment,78,↑,up,↑,0.41745629999786615,True,36,0
159K21S1,872,experiment,94,←,left,←,0.3674431999970693,True,36,0
159K21S1,873,experiment,95,↑,up,↑,0.4424216000188608,True,36,0
159K21S1,874,experiment,50,→,right,→,0.4676766000047792,True,36,0
159K21S1,875,experiment,66,↑,up,↑,0.38409480001428165,True,36,0
159K21S1,876,experiment,102,→,no_key,no_letter,-1.0,False,36,0
159K21S1,877,experiment,101,←,left,←,0.3600166999967769,True,36,1
159K21S1,878,experiment,51,→,right,→,0.44253920001210645,True,36,0
159K21S1,879,experiment,70,↑,left,←,0.33415969999623485,False,36,0
159K21S1,880,experiment,91,←,left,←,0.44216969999251887,True,36,0
159K21S1,881,experiment,99,↓,down,↓,0.5576145999948494,True,36,0
159K21S1,882,experiment,81,←,left,←,0.384079900017241,True,36,1
159K21S1,883,experiment,65,→,right,→,0.47882960000424646,True,36,0
159K21S1,884,experiment,72,↓,down,↓,0.6268746000132523,True,36,1
159K21S1,885,experiment,84,←,left,←,0.4173910000245087,True,36,1
159K21S1,886,experiment,88,↓,down,↓,0.6309481000062078,True,36,0
159K21S1,887,experiment,83,→,right,→,0.42655780000495724,True,36,1
159K21S1,888,experiment,64,←,no_key,no_letter,-1.0,False,36,0
159K21S1,889,experiment,62,←,left,←,0.4172546999761835,True,36,1
159K21S1,890,experiment,71,↑,up,↑,0.5657285000197589,True,36,0
159K21S1,891,experiment,57,↓,down,↓,0.7477943999983836,True,36,1
159K21S1,892,experiment,90,→,left,←,0.4007986999931745,False,36,1
159K21S1,893,experiment,79,←,left,←,0.5805880000116304,True,36,0
159K21S1,894,experiment,105,↑,up,↑,0.6579121999966446,True,36,1
159K21S1,895,experiment,108,↑,up,↑,0.6753095999883953,True,36,1
159K21S1,896,experiment,97,←,left,←,0.5119244999950752,True,36,1
159K21S1,897,experiment,69,→,no_key,no_letter,-1.0,False,36,1
159K21S1,898,experiment,93,↓,down,↓,0.5020499999809545,True,36,1
159K21S1,899,experiment,107,↓,down,↓,0.7019326000008732,True,36,1
159K21S1,900,experiment,106,↓,down,↓,0.6302757999801543,True,36,1
159K21S1,901,experiment,60,↓,down,↓,0.5367334000184201,True,36,1
159K21S1,902,experiment,75,←,left,←,0.4824207000201568,True,36,1
159K21S1,903,experiment,73,→,right,→,0.4339960999786854,True,36,1
159K21S1,904,experiment,98,←,left,←,0.5635537000198383,True,36,0
159K21S1,905,experiment,82,→,left,←,0.48934749999898486,False,36,1
159K21S1,906,experiment,54,↑,up,↑,0.44240550001268275,True,36,1
159K21S1,907,experiment,48,→,left,←,0.44156619999557734,False,36,0
159K21S1,908,experiment,77,↑,up,↑,0.5652578000153881,True,36,0
159K21S1,909,experiment,100,→,right,→,0.5169401000021026,True,36,1
159K21S1,910,experiment,74,↓,down,↓,0.4954381999850739,True,36,1
159K21S1,911,experiment,80,→,right,→,0.40993030002573505,True,36,1
159K21S1,912,experiment,68,↓,down,↓,0.5287900000112131,True,36,0
159K21S1,913,experiment,53,↓,down,↓,0.737639400002081,True,36,1
159K21S1,914,experiment,89,↑,up,↑,0.6380411999998614,True,36,1
159K21S1,915,experiment,86,→,right,→,0.4340277999872342,True,36,1
159K21S1,916,experiment,52,↑,right,→,0.3505318999814335,False,36,0
159K21S1,917,experiment,63,↑,up,↑,0.36742120000417344,True,36,0
159K21S1,918,experiment,67,→,right,→,0.4991587999975309,True,36,0
159K21S1,919,experiment,61,→,right,→,0.4749862999888137,True,36,1
159K21S1,920,experiment,58,←,no_key,no_letter,-1.0,False,36,1
159K21S1,921,experiment,56,↑,up,↑,0.44288180000148714,True,36,1
159K21S1,922,experiment,85,↓,down,↓,0.5712725999765098,True,36,0
159K21S1,923,training,65,←,left,←,0.4808811999973841,True,36,0
159K21S1,924,training,104,↓,right,→,0.4350120000017341,False,36,1
159K21S1,925,experiment,58,↓,down,↓,0.43410519999451935,True,36,0
159K21S1,926,experiment,90,↑,no_key,no_letter,-1.0,False,36,0
159K21S1,927,experiment,56,←,left,←,0.4676808000076562,True,36,1
159K21S1,928,experiment,98,←,left,←,0.35910529998363927,True,36,0
159K21S1,929,experiment,50,←,left,←,0.3590301999938674,True,36,0
159K21S1,930,experiment,65,→,right,→,0.63490649999585,True,36,0
159K21S1,931,experiment,96,→,right,→,0.4817926000105217,True,36,1
159K21S1,932,experiment,97,↓,down,↓,0.4779263000236824,True,36,1
159K21S1,933,experiment,102,↑,up,↑,0.40082120001898147,True,36,1
159K21S1,934,experiment,79,↓,down,↓,0.7490009000175633,True,36,0
159K21S1,935,experiment,55,→,right,→,0.36738100001821294,True,36,1
159K21S1,936,experiment,80,↑,up,↑,0.41738419997273013,True,36,0
159K21S1,937,experiment,48,↓,down,↓,0.6570129999890924,True,36,0
159K21S1,938,experiment,59,←,left,←,0.38338450001901947,True,36,1
159K21S1,939,experiment,64,→,right,→,0.4006960999977309,True,36,0
159K21S1,940,experiment,106,↑,up,↑,0.35071009999956004,True,36,0
159K21S1,941,experiment,62,↓,no_key,no_letter,-1.0,False,36,0
159K21S1,942,experiment,69,←,left,←,0.4421594000014011,True,36,1
159K21S1,943,experiment,92,↓,down,↓,0.4425430000119377,True,36,0
159K21S1,944,experiment,72,↓,left,←,0.40907230001175776,False,36,0
159K21S1,945,experiment,71,←,left,←,0.4506829000019934,True,36,0
159K21S1,946,experiment,49,←,left,←,0.5456743000249844,True,36,0
159K21S1,947,experiment,68,↑,up,↑,0.6367253999924287,True,36,1
159K21S1,948,experiment,76,→,right,→,0.8104668999731075,True,36,1
159K21S1,949,experiment,91,↑,up,↑,0.4510537999740336,True,36,1
159K21S1,950,experiment,85,↑,left,←,0.4507240999955684,False,36,0
159K21S1,951,experiment,89,←,left,←,0.6275852999824565,True,36,0
159K21S1,952,experiment,87,←,left,←,0.6054669999866746,True,36,1
159K21S1,953,experiment,53,→,right,→,0.5229884999862406,True,36,1
159K21S1,954,experiment,74,↑,up,↑,0.5332223000004888,True,36,1
159K21S1,955,experiment,51,↓,up,↑,0.5425875000073574,False,36,1
159K21S1,956,experiment,104,↑,up,↑,0.6220986999978777,True,36,1
159K21S1,957,experiment,94,→,right,→,0.47800060000736266,True,36,1
159K21S1,958,experiment,78,↓,down,↓,0.5437640000018291,True,36,1
159K21S1,959,experiment,82,↓,down,↓,0.5265496999782044,True,36,1
159K21S1,960,experiment,81,↑,up,↑,0.5502113999973517,True,36,1
159K21S1,961,experiment,101,↓,no_key,no_letter,-1.0,False,36,1
159K21S1,962,experiment,63,←,left,←,0.44308370002545416,True,36,1
159K21S1,963,experiment,107,←,left,←,0.31738510000286624,True,36,0
159K21S1,964,experiment,61,↓,no_key,no_letter,-1.0,False,36,0
159K21S1,965,experiment,54,←,left,←,0.5291948999802116,True,36,1
159K21S1,966,experiment,83,←,left,←,0.3841404999839142,True,36,1
159K21S1,967,experiment,108,←,left,←,0.45070819999091327,True,36,0
159K21S1,968,experiment,103,→,right,→,0.4342354999971576,True,36,0
159K21S1,969,experiment,93,←,left,←,0.4793534000054933,True,36,0
159K21S1,970,experiment,86,←,left,←,0.3837496000051033,True,36,1
159K21S1,971,experiment,84,↑,up,↑,0.690264400007436,True,36,0
159K21S1,972,experiment,73,→,right,→,0.5259540999832097,True,36,1
159K21S1,973,experiment,99,↓,down,↓,0.6795889999775682,True,36,1
159K21S1,974,experiment,52,←,left,←,0.3757651000050828,True,36,1
159K21S1,975,experiment,95,↓,up,↑,0.36759549999260344,False,36,0
159K21S1,976,experiment,57,→,no_key,no_letter,-1.0,False,36,0
159K21S1,977,experiment,60,←,left,←,0.3515158999944106,True,36,1
159K21S1,978,experiment,100,↓,down,↓,0.47807000001193956,True,36,0
159K21S1,979,experiment,75,↓,down,↓,0.5457819000002928,True,36,1
159K21S1,980,experiment,66,↑,no_key,no_letter,-1.0,False,36,1
159K21S1,981,experiment,67,→,left,←,0.38511819997802377,False,36,1
159K21S1,982,experiment,70,→,left,←,0.9766359999775887,False,36,0
159K21S1,983,experiment,105,←,left,←,0.7025621999928262,True,36,1
159K21S1,984,experiment,77,↑,up,↑,0.4176129999978002,True,36,1
159K21S1,985,experiment,88,←,left,←,0.6417012000165414,True,36,0
159K21S1,986,training,99,↑,up,↑,0.39238509998540394,True,36,0
159K21S1,987,training,97,→,right,→,0.4254254999978002,True,36,0
159K21S1,988,experiment,51,→,right,→,0.4170324000006076,True,36,0
159K21S1,989,experiment,68,←,left,←,0.47791260000667535,True,36,0
159K21S1,990,experiment,65,→,right,→,0.556434400001308,True,36,1
159K21S1,991,experiment,58,↑,up,↑,0.39170029998058453,True,36,1
159K21S1,992,experiment,50,↑,up,↑,0.5932299999985844,True,36,0
159K21S1,993,experiment,100,→,no_key,no_letter,-1.0,False,36,1
159K21S1,994,experiment,77,↓,no_key,no_letter,-1.0,False,36,1
159K21S1,995,experiment,55,←,left,←,0.5179596999951173,True,36,1
159K21S1,996,experiment,76,↑,up,↑,0.4423391999735031,True,36,1
159K21S1,997,experiment,98,←,left,←,0.44251320001785643,True,36,0
159K21S1,998,experiment,97,↓,down,↓,0.5379704000079073,True,36,0
159K21S1,999,experiment,60,↑,up,↑,0.5919553000130691,True,36,1
159K21S1,1000,experiment,92,↓,down,↓,0.48137510000378825,True,36,1
159K21S1,1001,experiment,105,→,right,→,0.39244210001197644,True,36,1
159K21S1,1002,experiment,52,↑,up,↑,0.5131194000132382,True,36,0
159K21S1,1003,experiment,63,→,left,←,0.4797674999863375,False,36,1
159K21S1,1004,experiment,64,↓,down,↓,0.6223452000122052,True,36,1
159K21S1,1005,experiment,49,↓,down,↓,0.40905170000041835,True,36,1
159K21S1,1006,experiment,69,→,up,↑,0.6529651000164449,False,36,0
159K21S1,1007,experiment,56,←,left,←,1.1681097999971826,True,36,1
159K21S1,1008,experiment,78,↓,down,↓,0.8309184999961872,True,36,1
159K21S1,1009,experiment,83,↓,down,↓,0.6256978000164963,True,36,1
159K21S1,1010,experiment,66,↓,down,↓,0.40919409997877665,True,36,1
159K21S1,1011,experiment,99,↑,up,↑,0.8163978999946266,True,36,0
159K21S1,1012,experiment,108,→,right,→,0.39240409998456016,True,36,1
159K21S1,1013,experiment,90,↓,down,↓,0.5412490000016987,True,36,0
159K21S1,1014,experiment,72,↓,down,↓,0.5434988999913912,True,36,1
159K21S1,1015,experiment,102,←,left,←,0.3926653999951668,True,36,1
159K21S1,1016,experiment,62,→,right,→,0.7063544999982696,True,36,0
159K21S1,1017,experiment,84,←,left,←,0.43462080002063885,True,36,1
159K21S1,1018,experiment,103,↓,down,↓,0.5651138999965042,True,36,0
159K21S1,1019,experiment,59,←,right,→,0.4907089000043925,False,36,1
159K21S1,1020,experiment,53,↓,down,↓,0.9011148999852594,True,36,1
159K21S1,1021,experiment,61,↓,down,↓,0.5243144999840297,True,36,1
159K21S1,1022,experiment,93,←,left,←,0.4728872000123374,True,36,1
159K21S1,1023,experiment,71,↓,down,↓,0.7091626999899745,True,36,1
159K21S1,1024,experiment,89,←,left,←,0.40930710002430715,True,36,1
159K21S1,1025,experiment,70,↓,down,↓,0.5785165000124834,True,36,0
159K21S1,1026,experiment,82,↑,up,↑,0.4727689000137616,True,36,1
159K21S1,1027,experiment,88,←,no_key,no_letter,-1.0,False,36,1
159K21S1,1028,experiment,106,→,left,←,0.46943200001260266,False,36,1
159K21S1,1029,experiment,91,↓,down,↓,0.5715710999793373,True,36,1
159K21S1,1030,experiment,57,↑,down,↓,0.5609889000188559,False,36,1
159K21S1,1031,experiment,87,↓,down,↓,0.5254302999819629,True,36,1
159K21S1,1032,experiment,48,→,right,→,0.7121663999860175,True,36,1
159K21S1,1033,experiment,104,↑,up,↑,0.8248893000127282,True,36,1
159K21S1,1034,experiment,85,↑,up,↑,0.5553542999841738,True,36,1
159K21S1,1035,experiment,80,↓,down,↓,0.6420335999864619,True,36,1
159K21S1,1036,experiment,107,←,left,←,0.40903149999212474,True,36,1
159K21S1,1037,experiment,67,↓,down,↓,0.6051041000173427,True,36,0
159K21S1,1038,experiment,96,→,right,→,0.49247399999876507,True,36,1
159K21S1,1039,experiment,79,→,right,→,0.44242839998332784,True,36,1
159K21S1,1040,experiment,94,↑,up,↑,0.7725535999925341,True,36,0
159K21S1,1041,experiment,101,↓,down,↓,0.4506151000095997,True,36,1
159K21S1,1042,experiment,86,↑,up,↑,0.5643986000213772,True,36,0
159K21S1,1043,experiment,73,←,left,←,0.45030250001582317,True,36,1
159K21S1,1044,experiment,74,←,left,←,0.39236800000071526,True,36,0
159K21S1,1045,experiment,54,←,left,←,0.3506915000034496,True,36,0
159K21S1,1046,experiment,75,↑,up,↑,0.47264049999648705,True,36,0
159K21S1,1047,experiment,95,←,left,←,0.38403819999075495,True,36,1
159K21S1,1048,experiment,81,↑,up,↑,0.6661930000118446,True,36,0
159K21S1,1049,training,72,↓,down,↓,0.6835725999844726,True,36,0
159K21S1,1050,training,86,→,left,←,0.48332769999979064,False,36,1
159K21S1,1051,experiment,56,↑,up,↑,0.442441899998812,True,36,1
159K21S1,1052,experiment,54,←,no_key,no_letter,-1.0,False,36,0
159K21S1,1053,experiment,102,↑,up,↑,0.34223690000362694,True,36,1
159K21S1,1054,experiment,82,↑,up,↑,0.5978737999976147,True,36,0
159K21S1,1055,experiment,72,→,right,→,0.7017690999782644,True,36,1
159K21S1,1056,experiment,107,↑,up,↑,0.5017135000089183,True,36,1
159K21S1,1057,experiment,65,←,left,←,0.3759835999808274,True,36,1
159K21S1,1058,experiment,85,↑,up,↑,0.5277665999892633,True,36,0
159K21S1,1059,experiment,90,↑,up,↑,0.49251450001611374,True,36,1
159K21S1,1060,experiment,84,↑,up,↑,0.6204938999726437,True,36,1
159K21S1,1061,experiment,108,←,left,←,0.43438849999802187,True,36,1
159K21S1,1062,experiment,60,↑,up,↑,0.5296945000009146,True,36,0
159K21S1,1063,experiment,73,↓,down,↓,0.5156499000149779,True,36,1
159K21S1,1064,experiment,52,↑,up,↑,0.39233899998362176,True,36,1
159K21S1,1065,experiment,67,→,right,→,0.702938800008269,True,36,0
159K21S1,1066,experiment,76,↑,up,↑,0.4739590999961365,True,36,1
159K21S1,1067,experiment,66,←,left,←,0.4254120000114199,True,36,1
159K21S1,1068,experiment,57,↑,up,↑,0.40879089999361895,True,36,0
159K21S1,1069,experiment,93,↑,up,↑,0.48336209999979474,True,36,0
159K21S1,1070,experiment,83,↑,no_key,no_letter,-1.0,False,36,1
159K21S1,1071,experiment,64,↑,no_key,no_letter,-1.0,False,36,1
159K21S1,1072,experiment,50,↑,up,↑,0.38477820000844076,True,36,1
159K21S1,1073,experiment,49,→,right,→,0.631233100022655,True,36,0
159K21S1,1074,experiment,53,↑,up,↑,0.6760184000013396,True,36,1
159K21S1,1075,experiment,97,↑,up,↑,0.4338596999878064,True,36,1
159K21S1,1076,experiment,63,←,no_key,no_letter,-1.0,False,36,0
159K21S1,1077,experiment,55,↓,down,↓,0.6560672000050545,True,36,1
159K21S1,1078,experiment,79,↓,down,↓,0.5550415000179783,True,36,1
159K21S1,1079,experiment,69,↑,up,↑,0.5494128999998793,True,36,1
159K21S1,1080,experiment,94,→,no_key,no_letter,-1.0,False,36,1
159K21S1,1081,experiment,48,↑,up,↑,0.4423882999981288,True,36,1
159K21S1,1082,experiment,104,↓,no_key,no_letter,-1.0,False,36,0
159K21S1,1083,experiment,101,↓,down,↓,0.4757159999862779,True,36,1
159K21S1,1084,experiment,74,↑,up,↑,0.942646599985892,True,36,1
159K21S1,1085,experiment,96,↑,up,↑,0.39240280000376515,True,36,1
159K21S1,1086,experiment,51,↑,up,↑,0.5594101999886334,True,36,0
159K21S1,1087,experiment,78,→,right,→,0.550799199991161,True,36,1
159K21S1,1088,experiment,75,→,right,→,0.41718729998683557,True,36,1
159K21S1,1089,experiment,91,→,no_key,no_letter,-1.0,False,36,0
159K21S1,1090,experiment,59,↑,right,→,0.4341353999916464,False,36,1
159K21S1,1091,experiment,88,→,no_key,no_letter,-1.0,False,36,0
159K21S1,1092,experiment,103,↓,down,↓,0.7163690000015777,True,36,1
159K21S1,1093,experiment,105,→,right,→,0.38403159999870695,True,36,1
159K21S1,1094,experiment,87,↓,down,↓,0.5518220000085421,True,36,0
159K21S1,1095,experiment,80,↓,down,↓,0.6145739000057802,True,36,1
159K21S1,1096,experiment,71,↓,down,↓,0.6299237000057474,True,36,1
159K21S1,1097,experiment,100,→,no_key,no_letter,-1.0,False,36,1
159K21S1,1098,experiment,86,→,right,→,0.41718170000240207,True,36,1
159K21S1,1099,experiment,58,↑,up,↑,0.4423815000045579,True,36,0
159K21S1,1100,experiment,89,→,right,→,0.7388166000018828,True,36,0
159K21S1,1101,experiment,61,→,right,→,0.5124568000028376,True,36,1
159K21S1,1102,experiment,81,↑,up,↑,0.8884529999922961,True,36,1
159K21S1,1103,experiment,106,↑,up,↑,0.4736517000128515,True,36,1
159K21S1,1104,experiment,99,↑,up,↑,0.644847599993227,True,36,0
159K21S1,1105,experiment,70,↓,up,↑,0.507665499986615,False,36,1
159K21S1,1106,experiment,92,↑,up,↑,0.49624939999193884,True,36,1
159K21S1,1107,experiment,62,→,right,→,0.4424035999982152,True,36,1
159K21S1,1108,experiment,77,→,right,→,0.4004658999911044,True,36,0
159K21S1,1109,experiment,95,↓,down,↓,0.49920699998619966,True,36,0
159K21S1,1110,experiment,68,↓,down,↓,0.5923147999856155,True,36,1
159K21S1,1111,experiment,98,↑,up,↑,0.5516014999884646,True,36,1
159K21S1,1112,training,94,→,right,→,0.5577428999822587,True,36,0
159K21S1,1113,training,72,←,left,←,0.34217119999811985,True,36,1
159K21S1,1114,experiment,95,←,no_key,no_letter,-1.0,False,36,0
159K21S1,1115,experiment,86,←,left,←,0.6373104000231251,True,36,1
159K21S1,1116,experiment,105,→,left,←,0.43393810000270605,False,36,1
159K21S1,1117,experiment,96,→,left,←,0.8707906000199728,False,36,0
159K21S1,1118,experiment,62,→,right,→,0.647004400001606,True,36,1
159K21S1,1119,experiment,106,↑,up,↑,0.4421264000120573,True,36,1
159K21S1,1120,experiment,100,↓,down,↓,0.7337765000120271,True,36,0
159K21S1,1121,experiment,82,←,left,←,0.5888282999803778,True,36,1
159K21S1,1122,experiment,81,←,left,←,0.5537608000158798,True,36,1
159K21S1,1123,experiment,80,↓,down,↓,0.5529422999825329,True,36,1
159K21S1,1124,experiment,99,↑,up,↑,0.4184153999958653,True,36,1
159K21S1,1125,experiment,87,↑,up,↑,0.49906360000022687,True,36,0
159K21S1,1126,experiment,66,↓,down,↓,0.45041439999477006,True,36,1
159K21S1,1127,experiment,98,←,right,→,0.5255233999923803,False,36,0
159K21S1,1128,experiment,56,→,no_key,no_letter,-1.0,False,36,1
159K21S1,1129,experiment,52,←,right,→,0.5013329999928828,False,36,1
159K21S1,1130,experiment,92,→,right,→,0.5382256000011694,True,36,1
159K21S1,1131,experiment,79,→,right,→,0.8179445000132546,True,36,1
159K21S1,1132,experiment,107,←,left,←,0.4425679999985732,True,36,1
159K21S1,1133,experiment,75,←,right,→,0.7859920999908354,False,36,0
159K21S1,1134,experiment,65,↓,down,↓,0.5247507000167388,True,36,1
159K21S1,1135,experiment,61,↓,down,↓,0.5391879999951925,True,36,1
159K21S1,1136,experiment,108,↑,up,↑,0.40083460000460036,True,36,1
159K21S1,1137,experiment,48,→,right,→,0.7206998000037856,True,36,0
159K21S1,1138,experiment,76,↑,up,↑,0.4745392999902833,True,36,1
159K21S1,1139,experiment,69,↓,down,↓,0.6637992000032682,True,36,1
159K21S1,1140,experiment,101,↓,down,↓,0.5952085000171792,True,36,1
159K21S1,1141,experiment,57,↓,down,↓,0.552323299983982,True,36,1
159K21S1,1142,experiment,97,↓,down,↓,0.6736681999755092,True,36,1
159K21S1,1143,experiment,71,←,right,→,0.6228002000134438,False,36,1
159K21S1,1144,experiment,54,→,right,→,0.4835399999865331,True,36,1
159K21S1,1145,experiment,102,↓,down,↓,0.5660949000157416,True,36,1
159K21S1,1146,experiment,93,↑,up,↑,0.5038567000010516,True,36,1
159K21S1,1147,experiment,91,→,no_key,no_letter,-1.0,False,36,1
159K21S1,1148,experiment,59,↑,up,↑,0.4824507999874186,True,36,1
159K21S1,1149,experiment,70,←,left,←,0.5833081000018865,True,36,1
159K21S1,1150,experiment,55,↑,up,↑,0.5653796000115108,True,36,1
159K21S1,1151,experiment,77,←,right,→,0.5327384000120219,False,36,1
159K21S1,1152,experiment,83,→,right,→,0.43407719998504035,True,36,1
159K21S1,1153,experiment,85,←,left,←,0.4258558999863453,True,36,0
159K21S1,1154,experiment,88,→,right,→,0.5263310000009369,True,36,0
159K21S1,1155,experiment,74,↑,up,↑,0.5683663999952842,True,36,1
159K21S1,1156,experiment,103,↓,down,↓,0.6869629000138957,True,36,1
159K21S1,1157,experiment,68,↓,down,↓,0.532750299986219,True,36,1
159K21S1,1158,experiment,60,→,right,→,0.6831854000047315,True,36,1
159K21S1,1159,experiment,63,→,right,→,0.5625345999724232,True,36,1
159K21S1,1160,experiment,73,↓,down,↓,0.699383700004546,True,36,1
159K21S1,1161,experiment,90,→,right,→,0.5370000000111759,True,36,1
159K21S1,1162,experiment,104,↓,down,↓,0.6327534000156447,True,36,1
159K21S1,1163,experiment,51,↑,up,↑,0.7341125999810174,True,36,1
159K21S1,1164,experiment,49,←,right,→,0.5522952000028454,False,36,1
159K21S1,1165,experiment,58,↓,down,↓,0.5106853999895975,True,36,1
159K21S1,1166,experiment,64,→,right,→,0.4424674999900162,True,36,1
159K21S1,1167,experiment,72,↑,up,↑,0.7304868999926839,True,36,0
159K21S1,1168,experiment,67,→,right,→,0.47108119999757037,True,36,1
159K21S1,1169,experiment,94,↑,no_key,no_letter,-1.0,False,36,1
159K21S1,1170,experiment,84,↓,down,↓,0.5128153999976348,True,36,1
159K21S1,1171,experiment,50,↑,no_key,no_letter,-1.0,False,36,1
159K21S1,1172,experiment,78,↓,down,↓,0.7628139999869745,True,36,1
159K21S1,1173,experiment,89,→,left,←,0.5097375999903306,False,36,1
159K21S1,1174,experiment,53,←,right,→,0.44235110000590794,False,36,1
159K21S1,1175,training,65,↓,down,↓,0.629304999980377,True,36,0
159K21S1,1176,training,48,←,left,←,0.41739529999904335,True,36,1
159K21S1,1177,experiment,61,↓,down,↓,0.6939661999931559,True,36,0
159K21S1,1178,experiment,64,↓,down,↓,0.4088501000078395,True,36,1
159K21S1,1179,experiment,96,↑,up,↑,0.7078520000213757,True,36,0
159K21S1,1180,experiment,83,↓,no_key,no_letter,-1.0,False,36,1
159K21S1,1181,experiment,104,←,no_key,no_letter,-1.0,False,36,1
159K21S1,1182,experiment,77,→,left,←,0.4342789999791421,False,36,1
159K21S1,1183,experiment,93,←,left,←,0.4337429000006523,True,36,0
159K21S1,1184,experiment,62,↑,up,↑,0.45046560000628233,True,36,0
159K21S1,1185,experiment,70,→,right,→,0.8234389999997802,True,36,0
159K21S1,1186,experiment,98,←,left,←,0.3840775999997277,True,36,1
159K21S1,1187,experiment,71,←,left,←,0.3433026999991853,True,36,0
159K21S1,1188,experiment,108,←,left,←,0.40077340000425465,True,36,0
159K21S1,1189,experiment,88,←,left,←,0.4173817999835592,True,36,0
159K21S1,1190,experiment,91,→,right,→,0.48589130002073944,True,36,0
159K21S1,1191,experiment,87,↑,up,↑,0.5567631000012625,True,36,1
159K21S1,1192,experiment,107,↑,up,↑,0.3840808999957517,True,36,1
159K21S1,1193,experiment,66,←,left,←,0.5085717999900226,True,36,0
159K21S1,1194,experiment,53,↑,up,↑,0.40043059998424724,True,36,1
159K21S1,1195,experiment,84,→,right,→,0.4091426000231877,True,36,0
159K21S1,1196,experiment,75,↓,down,↓,0.9038356000091881,True,36,0
159K21S1,1197,experiment,76,↑,up,↑,0.3924512999947183,True,36,1
159K21S1,1198,experiment,72,↑,up,↑,0.5300220999924932,True,36,0
159K21S1,1199,experiment,56,←,left,←,0.5056990000011865,True,36,1
159K21S1,1200,experiment,67,→,right,→,0.47917039997992106,True,36,1
159K21S1,1201,experiment,80,→,right,→,0.5125513999955729,True,36,1
159K21S1,1202,experiment,95,←,left,←,0.46852059999946505,True,36,1
159K21S1,1203,experiment,49,→,left,←,0.4504523999930825,False,36,0
159K21S1,1204,experiment,79,↑,up,↑,0.5634263999818359,True,36,0
159K21S1,1205,experiment,105,→,right,→,0.49754519999260083,True,36,1
159K21S1,1206,experiment,85,↑,up,↑,0.5688758000032976,True,36,1
159K21S1,1207,experiment,101,→,right,→,0.43400070001371205,True,36,1
159K21S1,1208,experiment,74,←,left,←,0.4341260999790393,True,36,0
159K21S1,1209,experiment,55,→,left,←,0.8017441999982111,False,36,0
159K21S1,1210,experiment,102,↓,down,↓,0.4952237000106834,True,36,1
159K21S1,1211,experiment,54,→,left,←,0.47381190001033247,False,36,1
159K21S1,1212,experiment,94,↓,down,↓,0.5027125000196975,True,36,1
159K21S1,1213,experiment,60,↑,up,↑,0.7504392999981064,True,36,1
159K21S1,1214,experiment,99,↓,down,↓,0.7110633999982383,True,36,1
159K21S1,1215,experiment,63,↑,up,↑,0.41743480000877753,True,36,1
159K21S1,1216,experiment,97,↑,up,↑,0.5399142999958713,True,36,0
159K21S1,1217,experiment,68,↑,up,↑,0.5992227000242565,True,36,1
159K21S1,1218,experiment,92,↓,no_key,no_letter,-1.0,False,36,1
159K21S1,1219,experiment,50,←,left,←,0.5045247999951243,True,36,1
159K21S1,1220,experiment,58,←,left,←,0.5049848999769893,True,36,1
159K21S1,1221,experiment,65,→,right,→,0.49480239997501485,True,36,1
159K21S1,1222,experiment,51,←,left,←,0.4090623000229243,True,36,1
159K21S1,1223,experiment,100,↓,down,↓,0.6315376000129618,True,36,0
159K21S1,1224,experiment,82,→,right,→,0.7306091999926139,True,36,1
159K21S1,1225,experiment,73,↓,down,↓,0.5887062000110745,True,36,1
159K21S1,1226,experiment,90,→,right,→,0.6386735000123736,True,36,1
159K21S1,1227,experiment,52,←,left,←,0.37579719998757355,True,36,1
159K21S1,1228,experiment,103,←,left,←,0.5774764999805484,True,36,0
159K21S1,1229,experiment,48,↑,up,↑,0.425666099996306,True,36,1
159K21S1,1230,experiment,78,↑,up,↑,0.39221739998902194,True,36,0
159K21S1,1231,experiment,89,→,right,→,0.4176236999919638,True,36,0
159K21S1,1232,experiment,106,↑,up,↑,0.7321851999731734,True,36,0
159K21S1,1233,experiment,86,→,right,→,0.6738398000015877,True,36,1
159K21S1,1234,experiment,81,←,left,←,0.4256533999869134,True,36,1
159K21S1,1235,experiment,57,↓,down,↓,0.7029847000085283,True,36,0
159K21S1,1236,experiment,59,↓,down,↓,0.6390393000037875,True,36,1
159K21S1,1237,experiment,69,↑,up,↑,0.542193600005703,True,36,1
159K21S1,1238,training,83,→,right,→,0.5714116999879479,True,36,0
159K21S1,1239,training,85,→,right,→,0.6800428999995347,True,36,1
159K21S1,1240,experiment,55,↑,up,↑,0.3840247000043746,True,36,1
159K21S1,1241,experiment,94,↑,up,↑,0.3592701999878045,True,36,0
159K21S1,1242,experiment,50,↑,right,→,0.8352736000088044,False,36,0
159K21S1,1243,experiment,69,←,left,←,0.44364880002103746,True,36,1
159K21S1,1244,experiment,63,→,right,→,0.43378799999482,True,36,0
159K21S1,1245,experiment,76,←,left,←,0.6878122000198346,True,36,0
159K21S1,1246,experiment,97,↓,down,↓,0.7475143000192475,True,36,1
159K21S1,1247,experiment,108,←,left,←,0.4260090999887325,True,36,1
159K21S1,1248,experiment,79,→,right,→,0.4933718999964185,True,36,0
159K21S1,1249,experiment,73,→,right,→,0.7049640000041109,True,36,1
159K21S1,1250,experiment,107,↑,up,↑,0.4732246000203304,True,36,1
159K21S1,1251,experiment,99,→,left,←,0.43407690001185983,False,36,1
159K21S1,1252,experiment,85,←,no_key,no_letter,-1.0,False,36,0
159K21S1,1253,experiment,57,↓,down,↓,0.6040130000037607,True,36,1
159K21S1,1254,experiment,83,↓,down,↓,0.520017300004838,True,36,1
159K21S1,1255,experiment,82,→,left,←,0.41725910000968724,False,36,1
159K21S1,1256,experiment,77,←,left,←,0.42577060000621714,True,36,0
159K21S1,1257,experiment,71,←,left,←,0.5397346999961883,True,36,0
159K21S1,1258,experiment,90,←,left,←,0.3853182000166271,True,36,1
159K21S1,1259,experiment,100,↑,up,↑,0.4090456999838352,True,36,0
159K21S1,1260,experiment,61,←,left,←,0.38405839999904856,True,36,0
159K21S1,1261,experiment,52,↑,up,↑,0.5757314000220504,True,36,0
159K21S1,1262,experiment,89,↑,up,↑,0.36735679997946136,True,36,1
159K21S1,1263,experiment,75,↓,up,↑,0.6664497000165284,False,36,0
159K21S1,1264,experiment,74,←,left,←,0.5911785000062082,True,36,1
159K21S1,1265,experiment,84,→,right,→,0.3339628999819979,True,36,1
159K21S1,1266,experiment,105,↑,up,↑,0.35049609999987297,True,36,0
159K21S1,1267,experiment,54,←,left,←,0.4264584000047762,True,36,0
159K21S1,1268,experiment,59,↑,up,↑,0.6358971000008751,True,36,0
159K21S1,1269,experiment,49,↑,up,↑,0.34238400001777336,True,36,1
159K21S1,1270,experiment,65,←,left,←,0.47866809999686666,True,36,0
159K21S1,1271,experiment,56,↓,down,↓,0.711891699989792,True,36,1
159K21S1,1272,experiment,95,→,left,←,0.3254167000122834,False,36,1
159K21S1,1273,experiment,88,↑,up,↑,0.6253780999977607,True,36,0
159K21S1,1274,experiment,68,↓,down,↓,0.5126133000012487,True,36,1
159K21S1,1275,experiment,96,→,right,→,0.42562270001508296,True,36,1
159K21S1,1276,experiment,87,↓,down,↓,0.6054996000020765,True,36,0
159K21S1,1277,experiment,93,↑,up,↑,0.6614912000077311,True,36,1
159K21S1,1278,experiment,103,→,right,→,0.6328616999962833,True,36,1
159K21S1,1279,experiment,86,←,left,←,0.6662419000058435,True,36,1
159K21S1,1280,experiment,106,←,left,←,0.4007256999902893,True,36,1
159K21S1,1281,experiment,62,↓,down,↓,0.6147338000009768,True,36,0
159K21S1,1282,experiment,64,←,left,←,0.39349839999340475,True,36,1
159K21S1,1283,experiment,91,→,right,→,0.585492099984549,True,36,0
159K21S1,1284,experiment,58,←,left,←,0.534569300012663,True,36,1
159K21S1,1285,experiment,60,←,left,←,0.5010207000013907,True,36,1
159K21S1,1286,experiment,70,↑,up,↑,0.585430399980396,True,36,1
159K21S1,1287,experiment,67,→,right,→,0.42575979998218827,True,36,1
159K21S1,1288,experiment,66,→,left,←,0.49207920001936145,False,36,0
159K21S1,1289,experiment,102,↑,up,↑,0.5742119000060484,True,36,1
159K21S1,1290,experiment,98,←,right,→,0.5819914000167046,False,36,1
159K21S1,1291,experiment,101,←,left,←,0.5087540000095032,True,36,1
159K21S1,1292,experiment,104,↑,up,↑,0.4699108000204433,True,36,1
159K21S1,1293,experiment,48,←,left,←,0.41758529999060556,True,36,0
159K21S1,1294,experiment,92,→,right,→,0.39242529997136444,True,36,0
159K21S1,1295,experiment,53,↓,down,↓,0.568430300016189,True,36,0
159K21S1,1296,experiment,51,↑,up,↑,0.42571670000324957,True,36,1
159K21S1,1297,experiment,78,↓,down,↓,0.4773478000133764,True,36,0
159K21S1,1298,experiment,80,←,no_key,no_letter,-1.0,False,36,1
159K21S1,1299,experiment,81,↑,up,↑,0.5889319000125397,True,36,1
159K21S1,1300,experiment,72,→,up,↑,0.3341536000079941,False,36,1
159K21S1,1301,training,101,↑,up,↑,0.4867898999946192,True,36,0
159K21S1,1302,training,96,↑,left,←,0.3671098999911919,False,36,1
159K21S1,1303,experiment,71,→,right,→,0.6362226000055671,True,36,0
159K21S1,1304,experiment,82,↓,down,↓,0.7191614999901503,True,36,1
159K21S1,1305,experiment,48,←,up,↑,0.7382876000192482,False,36,1
159K21S1,1306,experiment,61,↑,up,↑,0.5520626000070479,True,36,1
159K21S1,1307,experiment,81,↑,up,↑,0.47129609997500665,True,36,1
159K21S1,1308,experiment,64,↓,no_key,no_letter,-1.0,False,36,1
159K21S1,1309,experiment,104,↑,up,↑,0.49244679999537766,True,36,1
159K21S1,1310,experiment,50,↑,up,↑,0.4008066999958828,True,36,1
159K21S1,1311,experiment,79,→,right,→,0.652934899990214,True,36,0
159K21S1,1312,experiment,51,↓,down,↓,0.6655933000147343,True,36,1
159K21S1,1313,experiment,105,←,left,←,0.6036513000144623,True,36,1
159K21S1,1314,experiment,69,←,left,←,0.3925040999893099,True,36,1
159K21S1,1315,experiment,101,↑,up,↑,0.5944320000126027,True,36,0
159K21S1,1316,experiment,55,↑,up,↑,0.3507034000067506,True,36,1
159K21S1,1317,experiment,80,↓,down,↓,0.334047999989707,True,36,0
159K21S1,1318,experiment,106,↓,down,↓,0.5415649999922607,True,36,0
159K21S1,1319,experiment,86,←,left,←,0.3506696000113152,True,36,1
159K21S1,1320,experiment,78,→,right,→,0.33400539998547174,True,36,0
159K21S1,1321,experiment,92,↓,up,↑,0.3430928000016138,False,36,0
159K21S1,1322,experiment,53,←,left,←,0.6697219999914523,True,36,0
159K21S1,1323,experiment,66,↓,down,↓,0.5647762999869883,True,36,1
159K21S1,1324,experiment,83,←,left,←,0.6101980999810621,True,36,1
159K21S1,1325,experiment,94,↓,down,↓,0.6502217999950517,True,36,1
159K21S1,1326,experiment,65,↓,down,↓,0.5302280000178143,True,36,1
159K21S1,1327,experiment,98,←,left,←,0.44247149999137037,True,36,1
159K21S1,1328,experiment,57,↑,up,↑,0.6867715000116732,True,36,0
159K21S1,1329,experiment,103,→,right,→,0.6727325999818277,True,36,1
159K21S1,1330,experiment,96,↓,down,↓,0.5494084000238217,True,36,1
159K21S1,1331,experiment,54,→,left,←,0.5091441000113264,False,36,1
159K21S1,1332,experiment,60,←,left,←,0.4340467000147328,True,36,1
159K21S1,1333,experiment,58,→,right,→,0.5675378000014462,True,36,0
159K21S1,1334,experiment,90,→,right,→,0.37575809998088516,True,36,1
159K21S1,1335,experiment,108,→,right,→,0.7113016000075731,True,36,0
159K21S1,1336,experiment,76,↓,down,↓,0.5049129000108223,True,36,1
159K21S1,1337,experiment,74,→,right,→,0.5636216000129934,True,36,1
159K21S1,1338,experiment,95,↑,up,↑,0.4088351000100374,True,36,1
159K21S1,1339,experiment,97,←,left,←,0.4173875000269618,True,36,0
159K21S1,1340,experiment,73,←,left,←,0.6822124000173062,True,36,0
159K21S1,1341,experiment,70,←,left,←,0.37594989998615347,True,36,1
159K21S1,1342,experiment,77,←,left,←,0.6060217999911401,True,36,0
159K21S1,1343,experiment,56,←,left,←,0.417385100008687,True,36,1
159K21S1,1344,experiment,63,←,left,←,0.6604949999891687,True,36,0
159K21S1,1345,experiment,100,↓,down,↓,0.7046346999995876,True,36,1
159K21S1,1346,experiment,93,→,right,→,0.8689193000027444,True,36,1
159K21S1,1347,experiment,72,↑,up,↑,0.4258108999929391,True,36,1
159K21S1,1348,experiment,68,←,left,←,0.4743000000016764,True,36,0
159K21S1,1349,experiment,85,→,right,→,0.5937188999960199,True,36,1
159K21S1,1350,experiment,99,↑,up,↑,0.4422832000127528,True,36,1
159K21S1,1351,experiment,88,↑,up,↑,0.5613714999926742,True,36,0
159K21S1,1352,experiment,75,↓,up,↑,0.42724630000884645,False,36,1
159K21S1,1353,experiment,84,↑,up,↑,0.5235708999971393,True,36,0
159K21S1,1354,experiment,59,↑,no_key,no_letter,-1.0,False,36,1
159K21S1,1355,experiment,89,↑,up,↑,0.4860826000222005,True,36,1
159K21S1,1356,experiment,107,→,right,→,0.5506816999986768,True,36,1
159K21S1,1357,experiment,67,←,left,←,0.6738628000020981,True,36,1
159K21S1,1358,experiment,62,↑,up,↑,1.0739332000084687,True,36,1
159K21S1,1359,experiment,52,←,left,←,0.46969060000265017,True,36,1
159K21S1,1360,experiment,91,→,right,→,0.6115590000117663,True,36,0
159K21S1,1361,experiment,49,→,right,→,0.44216800000867806,True,36,1
159K21S1,1362,experiment,102,↑,up,↑,0.6943517999898177,True,36,0
159K21S1,1363,experiment,87,↓,up,↑,0.4934988000022713,False,36,1
