PART_ID,Trial_no,Trial_type,CSI,Stim_letter,Key_pressed,letter_choose,Rt,Corr,Stimulus Time,nDropped
160K25S3,1,training,120,↓,down,↓,0.6425393000245094,True,60,0
160K25S3,2,training,120,↓,down,↓,0.5928345997817814,True,60,0
160K25S3,3,training,120,→,right,→,0.5589859001338482,True,60,0
160K25S3,4,training,120,←,left,←,0.5341235999949276,True,60,0
160K25S3,5,training,120,→,right,→,0.38582690013572574,True,60,0
160K25S3,6,training,120,→,right,→,0.47694330010563135,True,60,0
160K25S3,7,training,120,↓,down,↓,0.5181251000612974,True,60,0
160K25S3,8,training,120,→,right,→,0.584211400244385,True,60,0
160K25S3,9,training,120,←,left,←,0.5426632002927363,True,60,0
160K25S3,10,training,120,↓,down,↓,0.5508419000543654,True,60,0
160K25S3,11,training,120,↑,up,↑,0.5931989997625351,True,60,0
160K25S3,12,training,120,→,right,→,0.4435107000172138,True,60,0
160K25S3,13,training,120,↓,down,↓,0.42714540008455515,True,60,0
160K25S3,14,training,120,↑,right,→,0.5435322001576424,False,60,0
160K25S3,15,training,120,→,right,→,0.5593424998223782,True,60,0
160K25S3,16,training,120,→,right,→,0.44367010006681085,True,60,0
160K25S3,17,training,120,↑,up,↑,0.7462271000258625,True,60,0
160K25S3,18,training,120,→,right,→,0.47687500016763806,True,60,0
160K25S3,19,training,120,↑,up,↑,0.4267482003197074,True,60,0
160K25S3,20,training,120,→,right,→,0.492558800149709,True,60,0
160K25S3,21,no_adaptation,120,←,left,←,0.4007040001451969,True,36,0
160K25S3,22,no_adaptation,120,↓,down,↓,0.435319900047034,True,36,0
160K25S3,23,no_adaptation,120,↑,up,↑,0.400486399885267,True,36,0
160K25S3,24,no_adaptation,120,↓,down,↓,1.3018445000052452,True,36,0
160K25S3,25,no_adaptation,120,↑,up,↑,0.5610240995883942,True,36,0
160K25S3,26,no_adaptation,120,↑,up,↑,0.48224039981141686,True,36,0
160K25S3,27,no_adaptation,120,↑,up,↑,0.49323240015655756,True,36,0
160K25S3,28,no_adaptation,120,←,left,←,0.3932830998674035,True,36,0
160K25S3,29,no_adaptation,120,↑,up,↑,0.44234409974887967,True,36,0
160K25S3,30,no_adaptation,120,→,right,→,0.5566988997161388,True,36,0
160K25S3,31,no_adaptation,120,↑,up,↑,0.6133506000041962,True,36,0
160K25S3,32,no_adaptation,120,↓,down,↓,0.5158840003423393,True,36,0
160K25S3,33,no_adaptation,120,←,left,←,0.42586159985512495,True,36,0
160K25S3,34,no_adaptation,120,↑,up,↑,0.5402544001117349,True,36,0
160K25S3,35,no_adaptation,120,←,left,←,0.5337903001345694,True,36,0
160K25S3,36,no_adaptation,120,←,left,←,0.43389489967375994,True,36,0
160K25S3,37,no_adaptation,120,←,left,←,0.4933339999988675,True,36,0
160K25S3,38,no_adaptation,120,↑,up,↑,0.47297490015625954,True,36,0
160K25S3,39,no_adaptation,120,↑,up,↑,0.5162504999898374,True,36,0
160K25S3,40,no_adaptation,120,→,right,→,0.42575509985908866,True,36,0
160K25S3,41,training,48,↓,down,↓,0.48754840018227696,True,36,0
160K25S3,42,training,76,←,left,←,0.5702137998305261,True,36,1
160K25S3,43,experiment,55,←,left,←,0.4180165003053844,True,36,1
160K25S3,44,experiment,108,←,left,←,0.46800309978425503,True,36,0
160K25S3,45,experiment,50,→,right,→,0.42539090011268854,True,36,0
160K25S3,46,experiment,69,↓,down,↓,0.6228396999649704,True,36,0
160K25S3,47,experiment,76,→,right,→,0.5003003999590874,True,36,1
160K25S3,48,experiment,96,→,right,→,0.41640029987320304,True,36,1
160K25S3,49,experiment,52,↑,up,↑,0.4854666003957391,True,36,0
160K25S3,50,experiment,57,→,right,→,0.4257951998151839,True,36,1
160K25S3,51,experiment,104,→,left,←,0.4257612000219524,False,36,0
160K25S3,52,experiment,92,←,left,←,0.5859106997959316,True,36,0
160K25S3,53,experiment,94,↓,down,↓,0.5229258001782,True,36,1
160K25S3,54,experiment,84,→,right,→,0.50572540005669,True,36,1
160K25S3,55,experiment,93,↓,down,↓,0.4705225001089275,True,36,1
160K25S3,56,experiment,53,→,right,→,0.49718300020322204,True,36,1
160K25S3,57,experiment,74,→,right,→,0.7003569002263248,True,36,1
160K25S3,58,experiment,87,↓,down,↓,0.4756705998443067,True,36,1
160K25S3,59,experiment,91,↓,down,↓,0.6174312001094222,True,36,1
160K25S3,60,experiment,58,←,left,←,0.44951439974829555,True,36,1
160K25S3,61,experiment,105,↓,down,↓,0.583487800322473,True,36,0
160K25S3,62,experiment,89,↓,down,↓,1.4581196000799537,True,36,1
160K25S3,63,experiment,88,↓,down,↓,0.5302110002376139,True,36,1
160K25S3,64,experiment,102,↓,down,↓,1.4504189998842776,True,36,1
160K25S3,65,experiment,68,↓,down,↓,0.41847540019080043,True,36,1
160K25S3,66,experiment,71,→,right,→,0.6161912004463375,True,36,0
160K25S3,67,experiment,73,→,right,→,0.5669415001757443,True,36,1
160K25S3,68,experiment,101,↓,down,↓,0.4412819999270141,True,36,1
160K25S3,69,experiment,95,←,left,←,0.7083332003094256,True,36,0
160K25S3,70,experiment,59,↑,up,↑,1.1560014002025127,True,36,1
160K25S3,71,experiment,54,→,right,→,0.3924212995916605,True,36,1
160K25S3,72,experiment,67,↓,down,↓,0.6209582998417318,True,36,0
160K25S3,73,experiment,103,↓,down,↓,0.4266480999067426,True,36,1
160K25S3,74,experiment,51,↓,down,↓,0.4508061995729804,True,36,0
160K25S3,75,experiment,83,↑,up,↑,1.1206575999967754,True,36,0
160K25S3,76,experiment,49,↓,down,↓,0.6515703997574747,True,36,1
160K25S3,77,experiment,63,←,left,←,0.4919937001541257,True,36,1
160K25S3,78,experiment,70,←,left,←,0.560676600318402,True,36,1
160K25S3,79,experiment,78,←,left,←,0.40923970006406307,True,36,1
160K25S3,80,experiment,66,↓,down,↓,0.5209780000150204,True,36,0
160K25S3,81,experiment,81,→,right,→,0.648853300139308,True,36,1
160K25S3,82,experiment,97,→,right,→,0.47871859977021813,True,36,1
160K25S3,83,experiment,80,→,right,→,0.5999626996926963,True,36,1
160K25S3,84,experiment,61,→,right,→,1.2832485996186733,True,36,1
160K25S3,85,experiment,48,←,left,←,0.6716777002438903,True,36,1
160K25S3,86,experiment,86,→,right,→,0.5596269001252949,True,36,1
160K25S3,87,experiment,60,↑,up,↑,0.533143799751997,True,36,1
160K25S3,88,experiment,79,→,right,→,0.6211733999662101,True,36,1
160K25S3,89,experiment,77,←,left,←,0.6023101997561753,True,36,1
160K25S3,90,experiment,64,→,right,→,0.4261179999448359,True,36,1
160K25S3,91,experiment,99,→,right,→,0.49820089992135763,True,36,0
160K25S3,92,experiment,75,↑,up,↑,0.7567594000138342,True,36,1
160K25S3,93,experiment,82,↓,down,↓,0.45084800012409687,True,36,1
160K25S3,94,experiment,107,←,left,←,0.5805600001476705,True,36,0
160K25S3,95,experiment,106,←,left,←,0.5377113996073604,True,36,1
160K25S3,96,experiment,62,←,left,←,0.527494499925524,True,36,1
160K25S3,97,experiment,90,→,right,→,0.5881222002208233,True,36,1
160K25S3,98,experiment,56,→,right,→,0.5137212998233736,True,36,1
160K25S3,99,experiment,98,→,right,→,0.5161786000244319,True,36,1
160K25S3,100,experiment,85,↓,down,↓,0.5228388998657465,True,36,1
160K25S3,101,experiment,100,←,left,←,0.836264899931848,True,36,1
160K25S3,102,experiment,72,→,right,→,0.47511779982596636,True,36,1
160K25S3,103,experiment,65,→,right,→,1.2417028998024762,True,36,1
160K25S3,104,training,88,←,left,←,0.5602628001943231,True,35,0
160K25S3,105,training,101,←,left,←,0.5439158002845943,True,35,1
160K25S3,106,experiment,57,←,left,←,0.4792022998444736,True,35,1
160K25S3,107,experiment,61,↓,down,↓,0.6150774001143873,True,35,1
160K25S3,108,experiment,72,←,left,←,0.42569229984655976,True,35,1
160K25S3,109,experiment,103,→,right,→,1.2182467998936772,True,35,0
160K25S3,110,experiment,48,←,left,←,0.40905300015583634,True,35,1
160K25S3,111,experiment,99,←,left,←,0.3682451997883618,True,35,0
160K25S3,112,experiment,97,↑,up,↑,0.7993215001188219,True,35,0
160K25S3,113,experiment,67,↓,down,↓,0.46522870007902384,True,35,1
160K25S3,114,experiment,100,→,right,→,0.6522324997931719,True,35,1
160K25S3,115,experiment,96,←,left,←,0.4349131998606026,True,35,1
160K25S3,116,experiment,91,→,right,→,0.4185005999170244,True,35,0
160K25S3,117,experiment,52,←,left,←,0.4257674999535084,True,35,0
160K25S3,118,experiment,81,↓,down,↓,0.5377889000810683,True,35,0
160K25S3,119,experiment,58,↓,down,↓,0.6170295998454094,True,35,1
160K25S3,120,experiment,92,→,right,→,0.43388820020481944,True,35,1
160K25S3,121,experiment,80,↑,up,↑,0.8845481998287141,True,35,0
160K25S3,122,experiment,101,→,right,→,0.4423505999147892,True,35,1
160K25S3,123,experiment,85,↓,down,↓,0.5846945997327566,True,35,0
160K25S3,124,experiment,64,→,right,→,0.5077041001059115,True,35,1
160K25S3,125,experiment,93,←,left,←,0.49616750003769994,True,35,1
160K25S3,126,experiment,79,↑,up,↑,0.769758699927479,True,35,1
160K25S3,127,experiment,82,↓,down,↓,0.5992972999811172,True,35,1
160K25S3,128,experiment,106,←,left,←,0.6996157998219132,True,35,1
160K25S3,129,experiment,76,↑,up,↑,0.5420121997594833,True,35,1
160K25S3,130,experiment,51,↓,down,↓,0.6071197004057467,True,35,1
160K25S3,131,experiment,71,↓,down,↓,1.5586769999936223,True,35,1
160K25S3,132,experiment,70,←,left,←,0.4809555998072028,True,35,1
160K25S3,133,experiment,86,→,right,→,0.5287546999752522,True,35,1
160K25S3,134,experiment,78,↑,up,↑,0.7293187002651393,True,35,1
160K25S3,135,experiment,104,↓,down,↓,0.6809496995992959,True,35,1
160K25S3,136,experiment,73,↓,down,↓,0.6609887001104653,True,35,1
160K25S3,137,experiment,50,←,left,←,0.5056464998051524,True,35,1
160K25S3,138,experiment,55,←,left,←,0.7067482997663319,True,35,1
160K25S3,139,experiment,54,→,right,→,0.7241710000671446,True,35,1
160K25S3,140,experiment,62,↓,down,↓,0.4340615998953581,True,35,1
160K25S3,141,experiment,56,↑,up,↑,0.653750800061971,True,35,0
160K25S3,142,experiment,105,↓,down,↓,0.43386279977858067,True,35,1
160K25S3,143,experiment,107,↓,down,↓,0.4750161003321409,True,35,0
160K25S3,144,experiment,102,↓,down,↓,0.4700115998275578,True,35,1
160K25S3,145,experiment,94,→,right,→,0.7309619002044201,True,35,1
160K25S3,146,experiment,75,↓,down,↓,1.4282120000571012,True,35,1
160K25S3,147,experiment,68,←,left,←,0.5804258999414742,True,35,1
160K25S3,148,experiment,65,→,right,→,0.4088175003416836,True,35,1
160K25S3,149,experiment,49,↓,down,↓,0.6378481998108327,True,35,0
160K25S3,150,experiment,88,↑,up,↑,0.6704056998714805,True,35,1
160K25S3,151,experiment,84,↑,right,→,0.4880381999537349,False,35,1
160K25S3,152,experiment,53,←,left,←,0.474303400143981,True,35,1
160K25S3,153,experiment,95,←,left,←,1.1108437003567815,True,35,1
160K25S3,154,experiment,63,→,right,→,1.3811424002051353,True,35,1
160K25S3,155,experiment,66,←,left,←,1.5115400003269315,True,35,1
160K25S3,156,experiment,60,↓,down,↓,0.9349535000510514,True,35,1
160K25S3,157,experiment,59,↑,up,↑,0.7656433000229299,True,35,1
160K25S3,158,experiment,77,←,left,←,0.4007083000615239,True,35,1
160K25S3,159,experiment,89,↑,up,↑,0.5426660003140569,True,35,0
160K25S3,160,experiment,108,→,right,→,0.417363999877125,True,35,1
160K25S3,161,experiment,83,←,left,←,0.4088196000084281,True,35,0
160K25S3,162,experiment,74,↓,down,↓,0.48639799980446696,True,35,0
160K25S3,163,experiment,98,↓,down,↓,0.8418732001446187,True,35,1
160K25S3,164,experiment,69,↓,down,↓,1.200898999813944,True,35,1
160K25S3,165,experiment,90,↓,down,↓,0.5545868999324739,True,35,1
160K25S3,166,experiment,87,→,right,→,0.4087618999183178,True,35,1
160K25S3,167,training,59,←,left,←,0.47665240010246634,True,34,0
160K25S3,168,training,63,↑,up,↑,0.5402428000234067,True,34,1
160K25S3,169,experiment,48,↓,down,↓,0.710302600171417,True,34,1
160K25S3,170,experiment,54,←,left,←,0.5756795001216233,True,34,1
160K25S3,171,experiment,88,←,left,←,0.3757287999615073,True,34,1
160K25S3,172,experiment,91,←,left,←,0.3504591998644173,True,34,0
160K25S3,173,experiment,57,→,right,→,0.4257187000475824,True,34,0
160K25S3,174,experiment,66,→,right,→,0.45265559991821647,True,34,0
160K25S3,175,experiment,73,→,right,→,0.42512149969115853,True,34,0
160K25S3,176,experiment,58,→,right,→,0.5963234999217093,True,34,0
160K25S3,177,experiment,81,→,right,→,0.6414277995936573,True,34,1
160K25S3,178,experiment,62,↑,up,↑,0.7547075999900699,True,34,1
160K25S3,179,experiment,74,↓,down,↓,0.571662800386548,True,34,1
160K25S3,180,experiment,65,←,right,→,0.654786900151521,False,34,1
160K25S3,181,experiment,85,↑,up,↑,0.6955363000743091,True,34,1
160K25S3,182,experiment,56,→,right,→,0.6329421000555158,True,34,1
160K25S3,183,experiment,94,↓,down,↓,0.6400819001719356,True,34,1
160K25S3,184,experiment,80,↑,up,↑,0.483468399848789,True,34,1
160K25S3,185,experiment,50,→,right,→,0.46368700033053756,True,34,1
160K25S3,186,experiment,55,↑,up,↑,0.769885300192982,True,34,1
160K25S3,187,experiment,68,↓,down,↓,0.4922885000705719,True,34,1
160K25S3,188,experiment,70,→,right,→,0.4341294998303056,True,34,1
160K25S3,189,experiment,89,→,right,→,1.089424700010568,True,34,0
160K25S3,190,experiment,105,←,left,←,0.7943764002993703,True,34,1
160K25S3,191,experiment,104,↑,up,↑,0.5357881998643279,True,34,1
160K25S3,192,experiment,99,↓,down,↓,0.5534383999183774,True,34,1
160K25S3,193,experiment,63,←,left,←,0.5819815997965634,True,34,1
160K25S3,194,experiment,87,↑,up,↑,0.46567519987002015,True,34,1
160K25S3,195,experiment,98,↓,down,↓,0.5576830999925733,True,34,1
160K25S3,196,experiment,97,↑,up,↑,0.6546372002921999,True,34,1
160K25S3,197,experiment,75,→,right,→,0.6671382999047637,True,34,1
160K25S3,198,experiment,79,↑,up,↑,0.5578009001910686,True,34,1
160K25S3,199,experiment,96,→,right,→,0.47133770026266575,True,34,1
160K25S3,200,experiment,78,↓,down,↓,0.6019402998499572,True,34,1
160K25S3,201,experiment,77,←,left,←,0.4959086999297142,True,34,1
160K25S3,202,experiment,53,↑,up,↑,0.5620817998424172,True,34,1
160K25S3,203,experiment,60,→,right,→,0.43417060002684593,True,34,1
160K25S3,204,experiment,95,←,left,←,0.56593899987638,True,34,0
160K25S3,205,experiment,59,↑,up,↑,0.9632929000072181,True,34,1
160K25S3,206,experiment,86,←,left,←,0.527666199952364,True,34,1
160K25S3,207,experiment,107,→,right,→,1.1026118998415768,True,34,1
160K25S3,208,experiment,106,↑,up,↑,0.7749712998047471,True,34,1
160K25S3,209,experiment,108,↑,up,↑,0.6115990998223424,True,34,1
160K25S3,210,experiment,93,←,left,←,0.5480162999592721,True,34,1
160K25S3,211,experiment,67,↓,down,↓,0.6793610001914203,True,34,1
160K25S3,212,experiment,52,←,left,←,1.1704611000604928,True,34,1
160K25S3,213,experiment,83,←,left,←,0.4253949001431465,True,34,1
160K25S3,214,experiment,49,↑,up,↑,0.6619087997823954,True,34,0
160K25S3,215,experiment,92,↓,down,↓,0.6126065002754331,True,34,1
160K25S3,216,experiment,84,↑,up,↑,0.8876550002023578,True,34,1
160K25S3,217,experiment,72,↓,down,↓,0.5636686999350786,True,34,1
160K25S3,218,experiment,61,←,left,←,0.6964469002559781,True,34,1
160K25S3,219,experiment,90,→,right,→,0.408812599722296,True,34,1
160K25S3,220,experiment,51,↓,down,↓,0.6125936000607908,True,34,0
160K25S3,221,experiment,103,→,right,→,0.4342721998691559,True,34,1
160K25S3,222,experiment,100,↓,down,↓,0.478076099883765,True,34,0
160K25S3,223,experiment,69,↓,down,↓,0.5558258001692593,True,34,1
160K25S3,224,experiment,101,↑,up,↑,0.7714021001011133,True,34,1
160K25S3,225,experiment,102,↓,down,↓,0.618183400016278,True,34,1
160K25S3,226,experiment,71,→,right,→,0.6815610998310149,True,34,1
160K25S3,227,experiment,76,↑,up,↑,0.6847371999174356,True,34,1
160K25S3,228,experiment,82,←,left,←,0.4257416999898851,True,34,1
160K25S3,229,experiment,64,↑,up,↑,0.8706916999071836,True,34,0
160K25S3,230,training,73,↓,down,↓,0.6165118999779224,True,33,0
160K25S3,231,training,80,↓,down,↓,0.46126599982380867,True,33,1
160K25S3,232,experiment,91,←,left,←,0.5075934999622405,True,33,1
160K25S3,233,experiment,95,←,left,←,0.6313541000708938,True,33,1
160K25S3,234,experiment,75,→,right,→,0.548711699899286,True,33,1
160K25S3,235,experiment,102,→,right,→,0.6126697999425232,True,33,1
160K25S3,236,experiment,90,↑,up,↑,0.6139072002843022,True,33,1
160K25S3,237,experiment,79,→,right,→,0.5872824001125991,True,33,1
160K25S3,238,experiment,81,↑,up,↑,0.7280378001742065,True,33,1
160K25S3,239,experiment,73,↑,up,↑,0.6262835003435612,True,33,1
160K25S3,240,experiment,62,↑,up,↑,0.7167075998149812,True,33,1
160K25S3,241,experiment,56,→,right,→,0.6686907997354865,True,33,1
160K25S3,242,experiment,70,↓,down,↓,0.6105507998727262,True,33,1
160K25S3,243,experiment,63,↓,down,↓,0.732861100230366,True,33,1
160K25S3,244,experiment,105,↓,down,↓,0.4922230998054147,True,33,1
160K25S3,245,experiment,77,←,left,←,0.638618300203234,True,33,1
160K25S3,246,experiment,78,↓,down,↓,0.5228679999709129,True,33,1
160K25S3,247,experiment,84,→,right,→,0.7294456004165113,True,33,1
160K25S3,248,experiment,71,←,left,←,0.8521838998422027,True,33,1
160K25S3,249,experiment,104,↓,down,↓,0.5591253000311553,True,33,1
160K25S3,250,experiment,107,↑,up,↑,0.8369045001454651,True,33,1
160K25S3,251,experiment,97,↓,down,↓,0.5869128997437656,True,33,1
160K25S3,252,experiment,64,→,right,→,0.42571090022102,True,33,1
160K25S3,253,experiment,67,←,left,←,0.6940725999884307,True,33,0
160K25S3,254,experiment,106,↓,down,↓,0.5347183998674154,True,33,1
160K25S3,255,experiment,60,↑,up,↑,0.4691868000663817,True,33,1
160K25S3,256,experiment,48,↓,down,↓,0.6262234998866916,True,33,1
160K25S3,257,experiment,100,←,left,←,0.5195869999006391,True,33,1
160K25S3,258,experiment,80,←,left,←,0.703974099829793,True,33,1
160K25S3,259,experiment,50,←,left,←,0.4673872999846935,True,33,1
160K25S3,260,experiment,87,→,right,→,0.4752346999011934,True,33,1
160K25S3,261,experiment,83,↓,down,↓,0.588298199698329,True,33,1
160K25S3,262,experiment,69,↑,up,↑,0.48537469981238246,True,33,1
160K25S3,263,experiment,54,→,right,→,0.7278236001729965,True,33,1
160K25S3,264,experiment,65,↓,down,↓,0.8848065999336541,True,33,1
160K25S3,265,experiment,86,↑,up,↑,0.7887544999830425,True,33,1
160K25S3,266,experiment,99,→,right,→,0.5475494000129402,True,33,1
160K25S3,267,experiment,76,↑,up,↑,0.8998847999610007,True,33,1
160K25S3,268,experiment,94,→,right,→,1.1600696998648345,True,33,1
160K25S3,269,experiment,92,↓,down,↓,1.2186956000514328,True,33,1
160K25S3,270,experiment,61,←,left,←,0.3592357998713851,True,33,1
160K25S3,271,experiment,58,↓,down,↓,0.4672395000234246,True,33,0
160K25S3,272,experiment,59,↑,up,↑,0.4610681999474764,True,33,1
160K25S3,273,experiment,101,↓,down,↓,1.0640347003936768,True,33,1
160K25S3,274,experiment,98,↑,up,↑,0.8124771998263896,True,33,1
160K25S3,275,experiment,74,→,right,→,0.5227915998548269,True,33,1
160K25S3,276,experiment,52,↑,up,↑,0.8201620997861028,True,33,1
160K25S3,277,experiment,51,←,left,←,0.49832250038161874,True,33,1
160K25S3,278,experiment,108,↑,up,↑,0.7059324998408556,True,33,1
160K25S3,279,experiment,89,↓,down,↓,0.47162469988688827,True,33,1
160K25S3,280,experiment,93,↑,up,↑,0.5893892999738455,True,33,1
160K25S3,281,experiment,68,←,left,←,0.966856500133872,True,33,1
160K25S3,282,experiment,66,↑,up,↑,0.6739972997456789,True,33,1
160K25S3,283,experiment,49,↑,up,↑,0.6702763997018337,True,33,1
160K25S3,284,experiment,82,→,right,→,0.44834750005975366,True,33,1
160K25S3,285,experiment,72,←,left,←,0.36730150040239096,True,33,1
160K25S3,286,experiment,96,→,right,→,0.4007278997451067,True,33,0
160K25S3,287,experiment,57,←,left,←,0.44343720003962517,True,33,0
160K25S3,288,experiment,103,↓,down,↓,0.6782736000604928,True,33,0
160K25S3,289,experiment,53,→,right,→,1.1132555999793112,True,33,1
160K25S3,290,experiment,55,→,right,→,0.5224427999928594,True,33,1
160K25S3,291,experiment,85,↓,down,↓,0.47272020019590855,True,33,1
160K25S3,292,experiment,88,→,right,→,0.6241274997591972,True,33,1
160K25S3,293,training,61,→,right,→,0.5072119999676943,True,32,0
160K25S3,294,training,82,←,left,←,0.4357509999535978,True,32,1
160K25S3,295,experiment,87,←,left,←,0.5883156000636518,True,32,0
160K25S3,296,experiment,67,↑,up,↑,0.702176199760288,True,32,1
160K25S3,297,experiment,52,←,left,←,0.6563949999399483,True,32,1
160K25S3,298,experiment,103,↑,up,↑,0.6033616000786424,True,32,1
160K25S3,299,experiment,84,↑,up,↑,0.5591071997769177,True,32,1
160K25S3,300,experiment,107,→,right,→,0.5888812998309731,True,32,1
160K25S3,301,experiment,54,→,right,→,0.498959899879992,True,32,1
160K25S3,302,experiment,59,→,right,→,0.41736509976908565,True,32,1
160K25S3,303,experiment,72,→,right,→,0.7136771003715694,True,32,0
160K25S3,304,experiment,71,↓,down,↓,0.5652155000716448,True,32,1
160K25S3,305,experiment,49,↓,down,↓,0.7340420000255108,True,32,1
160K25S3,306,experiment,63,↓,down,↓,0.7555248998105526,True,32,1
160K25S3,307,experiment,81,↓,down,↓,1.105638099834323,True,32,1
160K25S3,308,experiment,101,↓,down,↓,0.45174310030415654,True,32,1
160K25S3,309,experiment,98,→,right,→,0.6803974001668394,True,32,1
160K25S3,310,experiment,88,↑,up,↑,0.7993362001143396,True,32,1
160K25S3,311,experiment,65,→,right,→,0.5534872999414802,True,32,1
160K25S3,312,experiment,50,↑,up,↑,0.7865690998733044,True,32,1
160K25S3,313,experiment,83,↓,down,↓,0.735224699601531,True,32,1
160K25S3,314,experiment,74,↓,down,↓,0.49696150003001094,True,32,1
160K25S3,315,experiment,99,↓,down,↓,0.4996762997470796,True,32,1
160K25S3,316,experiment,86,↓,down,↓,0.5867888000793755,True,32,1
160K25S3,317,experiment,53,←,left,←,0.6015236000530422,True,32,1
160K25S3,318,experiment,85,↓,down,↓,0.5570509997196496,True,32,1
160K25S3,319,experiment,91,↓,down,↓,0.6159755000844598,True,32,1
160K25S3,320,experiment,75,↓,down,↓,0.43865490006282926,True,32,1
160K25S3,321,experiment,51,↓,down,↓,0.49097639974206686,True,32,0
160K25S3,322,experiment,77,←,left,←,0.4854867998510599,True,32,1
160K25S3,323,experiment,82,→,right,→,0.44732349971309304,True,32,1
160K25S3,324,experiment,97,→,right,→,0.4761024001054466,True,32,1
160K25S3,325,experiment,58,←,left,←,0.5575325000099838,True,32,1
160K25S3,326,experiment,73,←,left,←,0.5265465001575649,True,32,1
160K25S3,327,experiment,69,↑,up,↑,0.7462915000505745,True,32,1
160K25S3,328,experiment,66,→,right,→,0.5659515997394919,True,32,1
160K25S3,329,experiment,94,→,right,→,0.7116749999113381,True,32,1
160K25S3,330,experiment,96,→,right,→,0.5149033996276557,True,32,1
160K25S3,331,experiment,78,↑,up,↑,0.6520798001438379,True,32,1
160K25S3,332,experiment,79,←,left,←,0.519486699718982,True,32,1
160K25S3,333,experiment,102,↑,up,↑,0.6324837999418378,True,32,1
160K25S3,334,experiment,95,→,right,→,0.49553929967805743,True,32,1
160K25S3,335,experiment,105,→,right,→,0.7124568000435829,True,32,1
160K25S3,336,experiment,93,↓,down,↓,0.7885957001708448,True,32,1
160K25S3,337,experiment,68,←,left,←,0.4385795001871884,True,32,1
160K25S3,338,experiment,62,↓,down,↓,0.45562459994107485,True,32,1
160K25S3,339,experiment,60,↓,down,↓,0.6168752000667155,True,32,1
160K25S3,340,experiment,89,↓,down,↓,0.5782743999734521,True,32,1
160K25S3,341,experiment,48,←,left,←,0.46697659976780415,True,32,1
160K25S3,342,experiment,106,←,left,←,0.6607390004210174,True,32,1
160K25S3,343,experiment,61,←,left,←,0.4619042999111116,True,32,1
160K25S3,344,experiment,90,←,left,←,0.5178594999015331,True,32,1
160K25S3,345,experiment,70,→,right,→,0.7128874999471009,True,32,1
160K25S3,346,experiment,55,←,left,←,0.44224309967830777,True,32,1
160K25S3,347,experiment,100,↑,up,↑,0.46208969969302416,True,32,1
160K25S3,348,experiment,76,↓,down,↓,0.5777374003082514,True,32,1
160K25S3,349,experiment,56,←,left,←,0.39267460023984313,True,32,1
160K25S3,350,experiment,80,→,right,→,0.4610568000935018,True,32,0
160K25S3,351,experiment,92,↓,down,↓,0.4997290000319481,True,32,1
160K25S3,352,experiment,64,↓,down,↓,0.658060499932617,True,32,1
160K25S3,353,experiment,108,↑,up,↑,0.8114589001052082,True,32,1
160K25S3,354,experiment,57,↑,up,↑,0.4958881000056863,True,32,1
160K25S3,355,experiment,104,↓,down,↓,0.584804099984467,True,32,1
160K25S3,356,training,65,→,right,→,0.6303341998718679,True,31,0
160K25S3,357,training,67,←,left,←,0.7180464002303779,True,31,1
160K25S3,358,experiment,107,←,left,←,0.43799380026757717,True,31,1
160K25S3,359,experiment,70,→,right,→,0.5721646999008954,True,31,1
160K25S3,360,experiment,82,←,left,←,0.4975785999558866,True,31,1
160K25S3,361,experiment,76,↑,up,↑,0.8118842002004385,True,31,1
160K25S3,362,experiment,102,→,right,→,0.561302799731493,True,31,1
160K25S3,363,experiment,58,↓,down,↓,0.5193334999494255,True,31,1
160K25S3,364,experiment,103,↑,up,↑,0.5680446000769734,True,31,1
160K25S3,365,experiment,51,↑,up,↑,0.5120526999235153,True,31,1
160K25S3,366,experiment,67,→,right,→,0.5651897001080215,True,31,1
160K25S3,367,experiment,69,↑,up,↑,0.6713371002115309,True,31,1
160K25S3,368,experiment,53,←,left,←,0.5863552000373602,True,31,1
160K25S3,369,experiment,87,←,left,←,0.6217497996985912,True,31,1
160K25S3,370,experiment,88,→,right,→,0.43171720020473003,True,31,1
160K25S3,371,experiment,59,←,left,←,0.6899635000154376,True,31,1
160K25S3,372,experiment,73,←,left,←,0.5016371998935938,True,31,1
160K25S3,373,experiment,81,←,left,←,0.5263728001154959,True,31,1
160K25S3,374,experiment,104,↑,up,↑,0.5184855996631086,True,31,1
160K25S3,375,experiment,55,←,left,←,0.5431440998800099,True,31,1
160K25S3,376,experiment,78,↓,down,↓,0.5593268000520766,True,31,1
160K25S3,377,experiment,71,↓,down,↓,0.6889529000036418,True,31,1
160K25S3,378,experiment,90,↓,down,↓,0.5273445001803339,True,31,1
160K25S3,379,experiment,105,→,right,→,0.47875159978866577,True,31,1
160K25S3,380,experiment,49,↓,down,↓,0.6832618997432292,True,31,1
160K25S3,381,experiment,72,→,right,→,0.5437934999354184,True,31,1
160K25S3,382,experiment,66,←,left,←,0.5156358000822365,True,31,1
160K25S3,383,experiment,95,→,right,→,0.43955859960988164,True,31,1
160K25S3,384,experiment,99,↓,down,↓,0.6200359999202192,True,31,1
160K25S3,385,experiment,62,↓,down,↓,0.6384991002269089,True,31,1
160K25S3,386,experiment,80,←,left,←,0.6817406001500785,True,31,1
160K25S3,387,experiment,64,↑,up,↑,0.5051084998995066,True,31,1
160K25S3,388,experiment,83,↑,up,↑,0.5689805997535586,True,31,1
160K25S3,389,experiment,74,←,left,←,0.4736782996915281,True,31,1
160K25S3,390,experiment,94,→,right,→,0.44711790001019835,True,31,1
160K25S3,391,experiment,68,←,left,←,0.5819856002926826,True,31,1
160K25S3,392,experiment,97,←,left,←,0.7098918999545276,True,31,1
160K25S3,393,experiment,61,→,right,→,0.45306090032681823,True,31,1
160K25S3,394,experiment,93,→,right,→,0.4516606000252068,True,31,1
160K25S3,395,experiment,77,←,left,←,1.3196783997118473,True,31,1
160K25S3,396,experiment,50,→,right,→,0.5701930001378059,True,31,1
160K25S3,397,experiment,79,↑,up,↑,0.7768608001060784,True,31,1
160K25S3,398,experiment,63,←,left,←,0.7325953003019094,True,31,1
160K25S3,399,experiment,86,→,right,→,0.5703174001537263,True,31,1
160K25S3,400,experiment,48,←,left,←,0.49937079986557364,True,31,1
160K25S3,401,experiment,91,←,left,←,0.4967494998127222,True,31,1
160K25S3,402,experiment,96,↑,up,↑,0.7164796995930374,True,31,1
160K25S3,403,experiment,89,←,left,←,0.5218887999653816,True,31,1
160K25S3,404,experiment,106,→,right,→,0.5451996996998787,True,31,1
160K25S3,405,experiment,98,↑,up,↑,0.6267133001238108,True,31,1
160K25S3,406,experiment,54,→,right,→,0.551316199824214,True,31,1
160K25S3,407,experiment,57,↑,up,↑,0.7741628000512719,True,31,1
160K25S3,408,experiment,65,↓,down,↓,0.545163500122726,True,31,1
160K25S3,409,experiment,92,←,left,←,0.5086755002848804,True,31,1
160K25S3,410,experiment,56,←,left,←,0.5252427998930216,True,31,1
160K25S3,411,experiment,75,↓,down,↓,0.7270488999783993,True,31,1
160K25S3,412,experiment,84,→,right,→,0.6937708999030292,True,31,1
160K25S3,413,experiment,52,↓,down,↓,0.6805336000397801,True,31,1
160K25S3,414,experiment,108,↓,down,↓,0.856935900170356,True,31,1
160K25S3,415,experiment,101,→,right,→,0.444747899658978,True,31,1
160K25S3,416,experiment,100,↑,up,↑,0.6168665001168847,True,31,1
160K25S3,417,experiment,60,←,left,←,0.4520817999728024,True,31,1
160K25S3,418,experiment,85,←,left,←,0.5334334000945091,True,31,1
160K25S3,419,training,104,↓,down,↓,0.6569113000296056,True,30,0
160K25S3,420,training,64,↑,up,↑,0.48879289999604225,True,30,1
160K25S3,421,experiment,95,↑,up,↑,0.5410037999972701,True,30,1
160K25S3,422,experiment,57,→,right,→,0.5481785000301898,True,30,1
160K25S3,423,experiment,92,→,right,→,0.6392740998417139,True,30,1
160K25S3,424,experiment,53,↑,up,↑,0.5556034003384411,True,30,1
160K25S3,425,experiment,83,↑,up,↑,0.6573383999057114,True,30,1
160K25S3,426,experiment,105,↑,up,↑,0.5402096998877823,True,30,1
160K25S3,427,experiment,81,↑,up,↑,0.4828602001070976,True,30,1
160K25S3,428,experiment,71,←,left,←,0.6075053997337818,True,30,1
160K25S3,429,experiment,96,→,right,→,0.6230059997178614,True,30,1
160K25S3,430,experiment,62,↓,down,↓,0.4971384000964463,True,30,1
160K25S3,431,experiment,77,←,left,←,0.5713549996726215,True,30,1
160K25S3,432,experiment,91,←,left,←,0.44578499998897314,True,30,1
160K25S3,433,experiment,48,→,right,→,0.4357992997393012,True,30,1
160K25S3,434,experiment,54,↑,up,↑,0.5997234000824392,True,30,1
160K25S3,435,experiment,65,↓,down,↓,0.6498591001145542,True,30,1
160K25S3,436,experiment,104,→,right,→,0.63680180022493,True,30,1
160K25S3,437,experiment,80,↑,up,↑,0.6085039000026882,True,30,1
160K25S3,438,experiment,58,→,right,→,0.7406158000230789,True,30,1
160K25S3,439,experiment,74,↓,down,↓,0.5659361002035439,True,30,1
160K25S3,440,experiment,108,↓,down,↓,0.49903299985453486,True,30,1
160K25S3,441,experiment,68,←,left,←,0.49611879978328943,True,30,1
160K25S3,442,experiment,93,→,right,→,0.46082610031589866,True,30,1
160K25S3,443,experiment,85,←,left,←,0.5418535000644624,True,30,1
160K25S3,444,experiment,73,↓,down,↓,0.5676166000775993,True,30,1
160K25S3,445,experiment,55,↓,down,↓,0.4384881998412311,True,30,1
160K25S3,446,experiment,102,↑,up,↑,0.5544559000991285,True,30,1
160K25S3,447,experiment,86,←,left,←,0.8712189998477697,True,30,1
160K25S3,448,experiment,94,↑,up,↑,0.604439599905163,True,30,1
160K25S3,449,experiment,107,→,right,→,0.5202234000898898,True,30,1
160K25S3,450,experiment,56,→,right,→,0.6486211996525526,True,30,1
160K25S3,451,experiment,67,↑,up,↑,0.6160627999342978,True,30,1
160K25S3,452,experiment,101,←,left,←,0.46132420003414154,True,30,1
160K25S3,453,experiment,89,←,left,←,0.5250973999500275,True,30,1
160K25S3,454,experiment,99,←,left,←,0.4390219999477267,True,30,1
160K25S3,455,experiment,98,←,left,←,0.43640049966052175,True,30,1
160K25S3,456,experiment,59,→,left,←,0.7506087003275752,False,30,1
160K25S3,457,experiment,49,←,left,←,1.3201204002834857,True,30,1
160K25S3,458,experiment,60,←,left,←,0.40060759987682104,True,30,1
160K25S3,459,experiment,70,↓,down,↓,0.6151960003189743,True,30,0
160K25S3,460,experiment,90,↓,down,↓,0.6322532999329269,True,30,1
160K25S3,461,experiment,88,↓,down,↓,0.6331720999442041,True,30,1
160K25S3,462,experiment,103,←,left,←,0.5012560999020934,True,30,1
160K25S3,463,experiment,69,←,left,←,0.6739504998549819,True,30,1
160K25S3,464,experiment,106,↑,up,↑,0.547314299736172,True,30,1
160K25S3,465,experiment,84,→,right,→,0.6972344000823796,True,30,1
160K25S3,466,experiment,52,↑,up,↑,0.6516463998705149,True,30,1
160K25S3,467,experiment,63,↓,down,↓,0.6921645998954773,True,30,1
160K25S3,468,experiment,75,→,right,→,0.5513198999688029,True,30,1
160K25S3,469,experiment,100,↑,up,↑,0.8956663999706507,True,30,1
160K25S3,470,experiment,50,→,right,→,0.4510850002989173,True,30,1
160K25S3,471,experiment,87,↓,down,↓,0.6437280997633934,True,30,1
160K25S3,472,experiment,97,↓,down,↓,0.6575768003240228,True,30,1
160K25S3,473,experiment,66,↓,down,↓,0.48886779975146055,True,30,1
160K25S3,474,experiment,76,↓,down,↓,0.643506099935621,True,30,1
160K25S3,475,experiment,79,→,right,→,0.5675435997545719,True,30,1
160K25S3,476,experiment,82,↑,up,↑,0.8210265999659896,True,30,1
160K25S3,477,experiment,51,↑,up,↑,0.5630047000013292,True,30,1
160K25S3,478,experiment,72,↑,up,↑,0.5885099996812642,True,30,1
160K25S3,479,experiment,64,↓,down,↓,0.5434297998435795,True,30,1
160K25S3,480,experiment,61,↓,down,↓,0.5969580998644233,True,30,1
160K25S3,481,experiment,78,↓,down,↓,0.6828113002702594,True,30,1
160K25S3,482,training,92,→,right,→,0.46156409988179803,True,29,0
160K25S3,483,training,92,↑,up,↑,0.6765128998085856,True,29,1
160K25S3,484,experiment,85,←,left,←,0.5487381997518241,True,29,1
160K25S3,485,experiment,61,↑,up,↑,0.530080100055784,True,29,1
160K25S3,486,experiment,66,→,right,→,0.47858669981360435,True,29,1
160K25S3,487,experiment,49,→,right,→,0.570975000038743,True,29,1
160K25S3,488,experiment,75,↑,up,↑,0.5228466000407934,True,29,1
160K25S3,489,experiment,78,↓,down,↓,0.4422261998988688,True,29,1
160K25S3,490,experiment,76,↓,down,↓,0.48718849988654256,True,29,1
160K25S3,491,experiment,65,↓,down,↓,0.4777331999503076,True,29,1
160K25S3,492,experiment,88,←,left,←,0.4531231001019478,True,29,1
160K25S3,493,experiment,80,↓,down,↓,0.5122031001374125,True,29,1
160K25S3,494,experiment,87,↑,up,↑,0.47053320007398725,True,29,1
160K25S3,495,experiment,51,←,left,←,0.6988293002359569,True,29,1
160K25S3,496,experiment,52,←,left,←,0.4610060998238623,True,29,1
160K25S3,497,experiment,84,→,right,→,0.6144514000043273,True,29,1
160K25S3,498,experiment,92,←,left,←,0.4548116000369191,True,29,1
160K25S3,499,experiment,77,←,left,←,0.6510835997760296,True,29,1
160K25S3,500,experiment,56,↓,down,↓,0.6059824000112712,True,29,1
160K25S3,501,experiment,70,↓,down,↓,0.7180078998208046,True,29,1
160K25S3,502,experiment,96,←,left,←,0.6411128998734057,True,29,1
160K25S3,503,experiment,90,←,left,←,0.4091191999614239,True,29,1
160K25S3,504,experiment,99,↓,down,↓,0.4711752999573946,True,29,0
160K25S3,505,experiment,108,↓,down,↓,0.5761793004348874,True,29,1
160K25S3,506,experiment,94,↓,down,↓,0.5216817003674805,True,29,1
160K25S3,507,experiment,55,↓,down,↓,0.4663375001400709,True,29,1
160K25S3,508,experiment,58,↑,up,↑,0.7961901999078691,True,29,1
160K25S3,509,experiment,82,↑,up,↑,0.4808105998672545,True,29,1
160K25S3,510,experiment,71,→,right,→,0.42968999966979027,True,29,1
160K25S3,511,experiment,69,↑,up,↑,0.7091894997283816,True,29,1
160K25S3,512,experiment,50,→,right,→,0.6637330004014075,True,29,1
160K25S3,513,experiment,86,↓,down,↓,0.4481493001803756,True,29,1
160K25S3,514,experiment,48,→,right,→,0.6459137997590005,True,29,1
160K25S3,515,experiment,63,↑,up,↑,0.7106994003988802,True,29,1
160K25S3,516,experiment,83,↓,down,↓,0.6063248002901673,True,29,1
160K25S3,517,experiment,97,←,left,←,0.5973632000386715,True,29,1
160K25S3,518,experiment,101,←,left,←,0.5074022002518177,True,29,1
160K25S3,519,experiment,105,←,left,←,0.6277752998284996,True,29,1
160K25S3,520,experiment,68,↓,down,↓,0.6598753002472222,True,29,1
160K25S3,521,experiment,95,↑,up,↑,0.6656248001381755,True,29,1
160K25S3,522,experiment,104,↓,down,↓,0.6199643998406827,True,29,1
160K25S3,523,experiment,107,→,right,→,0.7272466002032161,True,29,1
160K25S3,524,experiment,102,→,right,→,0.7039328999817371,True,29,1
160K25S3,525,experiment,53,↓,down,↓,0.577708300203085,True,29,1
160K25S3,526,experiment,100,→,right,→,0.6251251003704965,True,29,1
160K25S3,527,experiment,59,←,left,←,0.4681763998232782,True,29,1
160K25S3,528,experiment,67,→,right,→,0.6750770998187363,True,29,1
160K25S3,529,experiment,60,↓,down,↓,0.4756032000295818,True,29,1
160K25S3,530,experiment,106,↓,down,↓,0.45303319999948144,True,29,1
160K25S3,531,experiment,54,↓,down,↓,0.5927803996019065,True,29,1
160K25S3,532,experiment,79,←,left,←,0.45454559987410903,True,29,1
160K25S3,533,experiment,93,→,right,→,0.6769038997590542,True,29,1
160K25S3,534,experiment,81,→,left,←,0.758583199698478,False,29,1
160K25S3,535,experiment,72,↓,down,↓,0.43220340041443706,True,29,1
160K25S3,536,experiment,62,→,right,→,0.45796140003949404,True,29,1
160K25S3,537,experiment,73,→,right,→,0.47088739974424243,True,29,1
160K25S3,538,experiment,89,↑,up,↑,0.813871799968183,True,29,1
160K25S3,539,experiment,64,↑,up,↑,0.5836295001208782,True,29,1
160K25S3,540,experiment,98,↑,up,↑,0.5193179999478161,True,29,1
160K25S3,541,experiment,74,↓,down,↓,0.5137017001397908,True,29,1
160K25S3,542,experiment,103,↑,up,↑,0.5224558999761939,True,29,1
160K25S3,543,experiment,91,←,left,←,0.7028030999936163,True,29,1
160K25S3,544,experiment,57,↑,up,↑,0.8075484000146389,True,29,1
160K25S3,545,training,90,↑,up,↑,0.6896844999864697,True,28,0
160K25S3,546,training,92,→,right,→,0.4630577997304499,True,28,1
160K25S3,547,experiment,51,→,right,→,0.547412000130862,True,28,1
160K25S3,548,experiment,90,←,left,←,0.5833447002805769,True,28,1
160K25S3,549,experiment,65,→,right,→,0.5618631998077035,True,28,1
160K25S3,550,experiment,54,↑,up,↑,0.6253281999379396,True,28,1
160K25S3,551,experiment,91,↑,up,↑,0.601695999968797,True,28,1
160K25S3,552,experiment,66,←,left,←,0.6194712999276817,True,28,1
160K25S3,553,experiment,76,←,left,←,0.6012547998689115,True,28,1
160K25S3,554,experiment,52,←,left,←,0.4158958001062274,True,28,1
160K25S3,555,experiment,94,←,left,←,0.4793742001056671,True,28,1
160K25S3,556,experiment,49,↓,down,↓,0.5074180997908115,True,28,1
160K25S3,557,experiment,102,↓,down,↓,0.5008912002667785,True,28,1
160K25S3,558,experiment,100,↑,up,↑,0.6791509999893606,True,28,1
160K25S3,559,experiment,108,→,right,→,0.463935200124979,True,28,1
160K25S3,560,experiment,88,←,right,→,0.7917692000046372,False,28,1
160K25S3,561,experiment,104,↑,up,↑,0.589171000290662,True,28,1
160K25S3,562,experiment,59,←,left,←,0.47337849996984005,True,28,1
160K25S3,563,experiment,73,→,right,→,0.6860175998881459,True,28,1
160K25S3,564,experiment,82,→,right,→,0.6468058000318706,True,28,1
160K25S3,565,experiment,74,↑,up,↑,0.7398926001042128,True,28,1
160K25S3,566,experiment,89,→,right,→,0.536241399589926,True,28,1
160K25S3,567,experiment,106,←,left,←,0.5273222997784615,True,28,1
160K25S3,568,experiment,83,←,left,←,0.6383956000208855,True,28,1
160K25S3,569,experiment,86,↑,up,↑,0.5681020002812147,True,28,1
160K25S3,570,experiment,77,→,right,→,0.639193999581039,True,28,1
160K25S3,571,experiment,93,↑,up,↑,0.5902530001476407,True,28,1
160K25S3,572,experiment,87,↑,up,↑,0.7773444000631571,True,28,1
160K25S3,573,experiment,56,↓,down,↓,0.503220799844712,True,28,1
160K25S3,574,experiment,85,→,right,→,0.49474090011790395,True,28,1
160K25S3,575,experiment,105,←,left,←,0.4797899001277983,True,28,1
160K25S3,576,experiment,97,↓,down,↓,0.6597317000851035,True,28,1
160K25S3,577,experiment,70,→,right,→,0.5218008998781443,True,28,1
160K25S3,578,experiment,92,←,left,←,0.6058375001884997,True,28,1
160K25S3,579,experiment,78,←,left,←,0.5233291001059115,True,28,1
160K25S3,580,experiment,99,↓,down,↓,0.6609502001665533,True,28,1
160K25S3,581,experiment,62,→,right,→,0.629683599807322,True,28,1
160K25S3,582,experiment,67,↓,down,↓,0.6298093004152179,True,28,1
160K25S3,583,experiment,55,↑,up,↑,0.7618550001643598,True,28,1
160K25S3,584,experiment,84,↑,up,↑,0.6871977997943759,True,28,1
160K25S3,585,experiment,64,→,right,→,0.5741988997906446,True,28,1
160K25S3,586,experiment,75,→,right,→,0.6300439001061022,True,28,1
160K25S3,587,experiment,80,↓,down,↓,0.5058478000573814,True,28,1
160K25S3,588,experiment,96,←,left,←,0.5251141996122897,True,28,1
160K25S3,589,experiment,81,←,left,←,0.48486229963600636,True,28,1
160K25S3,590,experiment,98,→,right,→,0.47254469990730286,True,28,1
160K25S3,591,experiment,61,↓,down,↓,0.6970332004129887,True,28,1
160K25S3,592,experiment,60,↓,down,↓,0.6327384002506733,True,28,1
160K25S3,593,experiment,107,↓,down,↓,0.5794397997669876,True,28,1
160K25S3,594,experiment,58,↓,down,↓,0.48894819989800453,True,28,1
160K25S3,595,experiment,63,←,left,←,0.47204639995470643,True,28,1
160K25S3,596,experiment,68,←,left,←,0.6060500000603497,True,28,1
160K25S3,597,experiment,57,↑,up,↑,0.4743813001550734,True,28,1
160K25S3,598,experiment,103,→,right,→,0.5329407998360693,True,28,1
160K25S3,599,experiment,69,↑,up,↑,0.7282989998348057,True,28,1
160K25S3,600,experiment,53,↓,down,↓,0.7772653996944427,True,28,1
160K25S3,601,experiment,72,↑,up,↑,0.8261198000982404,True,28,1
160K25S3,602,experiment,95,→,right,→,0.6090556001290679,True,28,1
160K25S3,603,experiment,101,←,left,←,0.4947441001422703,True,28,1
160K25S3,604,experiment,71,→,right,→,0.6352483001537621,True,28,1
160K25S3,605,experiment,50,←,left,←,0.5528516001068056,True,28,1
160K25S3,606,experiment,48,↑,up,↑,0.6746235000900924,True,28,1
160K25S3,607,experiment,79,←,left,←,0.6450110003352165,True,28,1
160K25S3,608,training,92,↑,up,↑,0.6544031999073923,True,28,0
160K25S3,609,training,85,↓,down,↓,0.4553065998479724,True,28,1
160K25S3,610,experiment,63,↑,up,↑,0.6477795001119375,True,28,1
160K25S3,611,experiment,53,→,right,→,0.595830800011754,True,28,1
160K25S3,612,experiment,50,↑,up,↑,0.755050899926573,True,28,1
160K25S3,613,experiment,48,←,left,←,1.0842446996830404,True,28,1
160K25S3,614,experiment,95,←,left,←,0.64103680010885,True,28,1
160K25S3,615,experiment,52,←,left,←,0.5658654998987913,True,28,1
160K25S3,616,experiment,84,↓,down,↓,0.49879280012100935,True,28,1
160K25S3,617,experiment,101,→,right,→,0.5808817003853619,True,28,1
160K25S3,618,experiment,74,↓,down,↓,0.6926862001419067,True,28,1
160K25S3,619,experiment,107,←,left,←,0.5009130001999438,True,28,1
160K25S3,620,experiment,78,←,left,←,0.4706900999881327,True,28,1
160K25S3,621,experiment,56,↑,up,↑,0.7527660001069307,True,28,1
160K25S3,622,experiment,59,↑,up,↑,0.7588808997534215,True,28,1
160K25S3,623,experiment,67,→,right,→,0.6578823002055287,True,28,1
160K25S3,624,experiment,83,↓,down,↓,0.5075629996135831,True,28,1
160K25S3,625,experiment,100,→,right,→,0.46965690003708005,True,28,1
160K25S3,626,experiment,72,→,right,→,0.7547540999948978,True,28,1
160K25S3,627,experiment,98,↑,up,↑,0.6753751002252102,True,28,1
160K25S3,628,experiment,105,↑,down,↓,0.8370835003443062,False,28,1
160K25S3,629,experiment,85,↑,up,↑,0.6951422998681664,True,28,1
160K25S3,630,experiment,86,↓,down,↓,0.5425634998828173,True,28,1
160K25S3,631,experiment,62,↓,down,↓,0.7079603997990489,True,28,1
160K25S3,632,experiment,66,↓,down,↓,0.4733232003636658,True,28,1
160K25S3,633,experiment,70,←,left,←,0.6466839001514018,True,28,1
160K25S3,634,experiment,76,↓,down,↓,0.6437905002385378,True,28,1
160K25S3,635,experiment,71,↓,down,↓,0.48954680003225803,True,28,1
160K25S3,636,experiment,102,↓,down,↓,0.611563399899751,True,28,1
160K25S3,637,experiment,96,↓,down,↓,0.45084699988365173,True,28,1
160K25S3,638,experiment,58,→,right,→,0.7013964997604489,True,28,1
160K25S3,639,experiment,91,↑,up,↑,0.6994152003899217,True,28,1
160K25S3,640,experiment,68,→,right,→,0.671730799600482,True,28,1
160K25S3,641,experiment,89,←,left,←,0.43880430003628135,True,28,1
160K25S3,642,experiment,64,→,right,→,0.6315625999122858,True,28,1
160K25S3,643,experiment,88,←,right,→,0.6646668002940714,False,28,1
160K25S3,644,experiment,69,←,up,↑,0.7028290000744164,False,28,1
160K25S3,645,experiment,108,←,left,←,0.4383403002284467,True,28,1
160K25S3,646,experiment,104,←,left,←,0.6017019003629684,True,28,1
160K25S3,647,experiment,103,→,right,→,0.5430563003756106,True,28,1
160K25S3,648,experiment,94,→,right,→,0.41033839993178844,True,28,1
160K25S3,649,experiment,51,↑,up,↑,0.7758603002876043,True,28,1
160K25S3,650,experiment,57,→,right,→,0.4376513999886811,True,28,1
160K25S3,651,experiment,93,→,right,→,0.405615400057286,True,28,1
160K25S3,652,experiment,90,→,right,→,0.41442840034142137,True,28,0
160K25S3,653,experiment,49,←,left,←,0.589202499948442,True,28,1
160K25S3,654,experiment,75,↑,up,↑,0.804271399974823,True,28,1
160K25S3,655,experiment,54,↑,up,↑,0.7460505999624729,True,28,1
160K25S3,656,experiment,106,→,right,→,0.5683031999506056,True,28,1
160K25S3,657,experiment,65,↓,down,↓,0.7318555996753275,True,28,1
160K25S3,658,experiment,82,→,right,→,0.5950062000192702,True,28,1
160K25S3,659,experiment,73,↑,up,↑,0.6265747998841107,True,28,1
160K25S3,660,experiment,80,↓,down,↓,0.7266019997186959,True,28,1
160K25S3,661,experiment,77,←,left,←,0.495777599979192,True,28,1
160K25S3,662,experiment,97,→,right,→,0.45895260013639927,True,28,1
160K25S3,663,experiment,92,←,left,←,0.5937475999817252,True,28,1
160K25S3,664,experiment,87,↓,down,↓,0.5968046002089977,True,28,1
160K25S3,665,experiment,60,→,right,→,0.6085308999754488,True,28,1
160K25S3,666,experiment,55,→,right,→,0.6936026997864246,True,28,1
160K25S3,667,experiment,81,→,right,→,0.7266592998057604,True,28,1
160K25S3,668,experiment,79,→,right,→,0.5912768999114633,True,28,1
160K25S3,669,experiment,61,→,right,→,0.5307744997553527,True,28,1
160K25S3,670,experiment,99,↓,down,↓,0.516211099922657,True,28,1
160K25S3,671,training,77,↓,down,↓,0.6518627000041306,True,28,0
160K25S3,672,training,97,↑,up,↑,0.5292941997759044,True,28,1
160K25S3,673,experiment,84,↑,up,↑,0.7519224002026021,True,28,1
160K25S3,674,experiment,92,←,left,←,0.4829066996462643,True,28,1
160K25S3,675,experiment,70,←,left,←,0.6000005002133548,True,28,1
160K25S3,676,experiment,49,↑,up,↑,0.5594224999658763,True,28,1
160K25S3,677,experiment,95,↑,up,↑,0.4971863003447652,True,28,1
160K25S3,678,experiment,75,←,left,←,0.6519704000093043,True,28,1
160K25S3,679,experiment,93,←,left,←,0.5947963004000485,True,28,1
160K25S3,680,experiment,99,↓,down,↓,0.5456727999262512,True,28,1
160K25S3,681,experiment,63,→,right,→,0.46297070011496544,True,28,1
160K25S3,682,experiment,85,↓,down,↓,0.6394748999737203,True,28,1
160K25S3,683,experiment,55,←,left,←,0.4352635000832379,True,28,1
160K25S3,684,experiment,73,←,left,←,0.513345199637115,True,28,1
160K25S3,685,experiment,78,←,left,←,0.64264199975878,True,28,1
160K25S3,686,experiment,79,↑,up,↑,0.8140691998414695,True,28,1
160K25S3,687,experiment,104,↑,up,↑,0.7464145999401808,True,28,1
160K25S3,688,experiment,82,↓,down,↓,0.6887957998551428,True,28,1
160K25S3,689,experiment,74,←,left,←,0.41286120004951954,True,28,1
160K25S3,690,experiment,96,↑,up,↑,0.7472100001759827,True,28,1
160K25S3,691,experiment,76,↑,up,↑,0.6197783998213708,True,28,1
160K25S3,692,experiment,105,↑,up,↑,0.5196778001263738,True,28,1
160K25S3,693,experiment,86,↑,up,↑,0.614085300359875,True,28,1
160K25S3,694,experiment,94,←,left,←,0.5097055998630822,True,28,1
160K25S3,695,experiment,65,↓,down,↓,0.6594186001457274,True,28,1
160K25S3,696,experiment,54,←,left,←,0.6149479998275638,True,28,1
160K25S3,697,experiment,72,←,left,←,0.44597140001133084,True,28,1
160K25S3,698,experiment,80,←,left,←,0.6016036998480558,True,28,1
160K25S3,699,experiment,101,→,right,→,0.5194274000823498,True,28,1
160K25S3,700,experiment,66,→,right,→,0.4285733001306653,True,28,1
160K25S3,701,experiment,51,→,right,→,0.7062705000862479,True,28,1
160K25S3,702,experiment,107,→,right,→,0.993907299824059,True,28,1
160K25S3,703,experiment,98,↓,down,↓,0.6333182002417743,True,28,1
160K25S3,704,experiment,67,↓,down,↓,0.5932986000552773,True,28,1
160K25S3,705,experiment,108,←,left,←,0.6693108002655208,True,28,1
160K25S3,706,experiment,102,↑,up,↑,0.8324911003001034,True,28,1
160K25S3,707,experiment,87,→,right,→,0.4496611002832651,True,28,1
160K25S3,708,experiment,90,↑,up,↑,0.6501436000689864,True,28,1
160K25S3,709,experiment,103,←,left,←,0.5888263001106679,True,28,1
160K25S3,710,experiment,71,↓,up,↑,0.7971479999832809,False,28,1
160K25S3,711,experiment,64,↓,down,↓,0.5276517998427153,True,28,1
160K25S3,712,experiment,88,→,right,→,0.5089717996306717,True,28,1
160K25S3,713,experiment,60,→,right,→,0.7963843997567892,True,28,1
160K25S3,714,experiment,59,↑,up,↑,0.7524124002084136,True,28,1
160K25S3,715,experiment,52,↑,up,↑,0.712835700251162,True,28,1
160K25S3,716,experiment,57,↑,up,↑,0.5692221000790596,True,28,1
160K25S3,717,experiment,62,→,right,→,0.6136827999725938,True,28,1
160K25S3,718,experiment,56,→,right,→,0.6262715002521873,True,28,1
160K25S3,719,experiment,83,←,left,←,0.5172350998036563,True,28,1
160K25S3,720,experiment,61,→,right,→,0.46790269995108247,True,28,1
160K25S3,721,experiment,97,→,right,→,0.5926095000468194,True,28,1
160K25S3,722,experiment,50,←,left,←,0.504114099778235,True,28,1
160K25S3,723,experiment,81,→,right,→,0.6484044999815524,True,28,1
160K25S3,724,experiment,58,↓,down,↓,0.6508602001704276,True,28,1
160K25S3,725,experiment,106,←,left,←,0.42132649989798665,True,28,1
160K25S3,726,experiment,77,↑,up,↑,0.7862348998896778,True,28,1
160K25S3,727,experiment,69,←,left,←,0.6358402003534138,True,28,1
160K25S3,728,experiment,53,→,right,→,0.7363972999155521,True,28,1
160K25S3,729,experiment,89,→,right,→,0.5970784998498857,True,28,1
160K25S3,730,experiment,91,↓,down,↓,0.678467100020498,True,28,1
160K25S3,731,experiment,68,↑,up,↑,0.6205666000023484,True,28,1
160K25S3,732,experiment,48,→,right,→,0.5956552000716329,True,28,1
160K25S3,733,experiment,100,←,left,←,0.5783913000486791,True,28,1
160K25S3,734,training,83,→,right,→,0.4920624000951648,True,28,0
160K25S3,735,training,67,→,right,→,0.729736799839884,True,28,1
160K25S3,736,experiment,70,←,left,←,0.6528012999333441,True,28,1
160K25S3,737,experiment,56,→,right,→,0.4799285000190139,True,28,1
160K25S3,738,experiment,78,↓,down,↓,0.6182675999589264,True,28,1
160K25S3,739,experiment,60,→,right,→,1.029266799800098,True,28,1
160K25S3,740,experiment,107,→,right,→,0.7204427001997828,True,28,1
160K25S3,741,experiment,80,←,left,←,0.4729013000614941,True,28,1
160K25S3,742,experiment,50,→,right,→,0.6928742998279631,True,28,1
160K25S3,743,experiment,69,↑,up,↑,0.6818472002632916,True,28,1
160K25S3,744,experiment,77,↑,up,↑,0.4767320998944342,True,28,1
160K25S3,745,experiment,64,↓,down,↓,0.5241117998957634,True,28,1
160K25S3,746,experiment,48,↓,down,↓,0.4546737000346184,True,28,1
160K25S3,747,experiment,93,↑,up,↑,0.5650551998987794,True,28,1
160K25S3,748,experiment,87,↓,down,↓,0.505388599820435,True,28,1
160K25S3,749,experiment,96,↓,down,↓,0.4845734997652471,True,28,1
160K25S3,750,experiment,79,→,right,→,0.6706197001039982,True,28,1
160K25S3,751,experiment,82,↓,down,↓,0.44838970014825463,True,28,1
160K25S3,752,experiment,99,↑,up,↑,0.6530790999531746,True,28,1
160K25S3,753,experiment,62,↓,down,↓,0.6382825002074242,True,28,1
160K25S3,754,experiment,73,↓,down,↓,0.49987029982730746,True,28,1
160K25S3,755,experiment,84,←,left,←,0.6035985997878015,True,28,1
160K25S3,756,experiment,91,↑,up,↑,0.7410101001150906,True,28,1
160K25S3,757,experiment,106,↓,down,↓,0.47577490005642176,True,28,1
160K25S3,758,experiment,54,←,left,←,0.4149298002012074,True,28,1
160K25S3,759,experiment,72,→,right,→,0.46954500023275614,True,28,1
160K25S3,760,experiment,74,↑,up,↑,0.753936399705708,True,28,1
160K25S3,761,experiment,52,→,right,→,0.4980657999403775,True,28,1
160K25S3,762,experiment,88,←,left,←,0.41675980016589165,True,28,1
160K25S3,763,experiment,98,↓,down,↓,0.5909023000858724,True,28,1
160K25S3,764,experiment,55,↑,up,↑,0.5327003998681903,True,28,1
160K25S3,765,experiment,65,→,right,→,0.6492794998921454,True,28,1
160K25S3,766,experiment,59,↑,up,↑,0.531413100194186,True,28,1
160K25S3,767,experiment,85,↓,down,↓,0.5215126001276076,True,28,1
160K25S3,768,experiment,67,←,left,←,0.4778861002996564,True,28,1
160K25S3,769,experiment,92,↑,up,↑,0.5719203003682196,True,28,1
160K25S3,770,experiment,105,↑,up,↑,0.7296048002317548,True,28,1
160K25S3,771,experiment,75,↑,up,↑,0.7394933002069592,True,28,1
160K25S3,772,experiment,102,→,right,→,0.5393233997747302,True,28,1
160K25S3,773,experiment,66,↑,up,↑,0.49542880011722445,True,28,1
160K25S3,774,experiment,68,←,left,←,0.5409836997278035,True,28,1
160K25S3,775,experiment,108,→,right,→,0.6108788000419736,True,28,1
160K25S3,776,experiment,101,←,left,←,0.49654920026659966,True,28,1
160K25S3,777,experiment,58,↓,down,↓,0.48107209987938404,True,28,1
160K25S3,778,experiment,97,↓,down,↓,0.6690484997816384,True,28,1
160K25S3,779,experiment,83,↑,up,↑,0.6544261001981795,True,28,1
160K25S3,780,experiment,81,↑,up,↑,0.697191100101918,True,28,1
160K25S3,781,experiment,103,↓,down,↓,0.7465451001189649,True,28,1
160K25S3,782,experiment,94,↑,up,↑,0.5328921000473201,True,28,1
160K25S3,783,experiment,51,↑,up,↑,0.5582772996276617,True,28,1
160K25S3,784,experiment,57,↓,down,↓,0.5007386999204755,True,28,1
160K25S3,785,experiment,53,←,left,←,0.590836999937892,True,28,1
160K25S3,786,experiment,104,→,right,→,0.4922111998312175,True,28,1
160K25S3,787,experiment,71,←,left,←,0.4805816998705268,True,28,1
160K25S3,788,experiment,63,←,left,←,0.6320425998419523,True,28,1
160K25S3,789,experiment,89,→,right,→,0.48872030014172196,True,28,1
160K25S3,790,experiment,49,↑,up,↑,0.5725115002132952,True,28,1
160K25S3,791,experiment,90,←,left,←,0.5592938996851444,True,28,1
160K25S3,792,experiment,76,→,right,→,0.6393033000640571,True,28,1
160K25S3,793,experiment,95,→,right,→,0.4696563999168575,True,28,1
160K25S3,794,experiment,100,→,right,→,0.7133788000792265,True,28,1
160K25S3,795,experiment,86,↑,up,↑,0.7437283000908792,True,28,1
160K25S3,796,experiment,61,↑,up,↑,0.5654508001171052,True,28,1
160K25S3,797,training,73,←,left,←,0.41486490005627275,True,28,0
160K25S3,798,training,50,↓,down,↓,0.47720109997317195,True,28,1
160K25S3,799,experiment,52,↓,down,↓,0.4725648001767695,True,28,1
160K25S3,800,experiment,64,→,right,→,0.4799207001924515,True,28,1
160K25S3,801,experiment,99,←,left,←,0.6752960002049804,True,28,1
160K25S3,802,experiment,74,↑,up,↑,0.6712899999693036,True,28,1
160K25S3,803,experiment,101,↓,down,↓,0.6744098998606205,True,28,1
160K25S3,804,experiment,79,←,left,←,0.5647517000325024,True,28,1
160K25S3,805,experiment,108,→,right,→,0.625685800332576,True,28,1
160K25S3,806,experiment,77,↑,up,↑,0.6787651004269719,True,28,1
160K25S3,807,experiment,65,→,right,→,0.47803719993680716,True,28,1
160K25S3,808,experiment,103,↓,down,↓,0.5765010002069175,True,28,1
160K25S3,809,experiment,61,→,right,→,0.4928192999213934,True,28,1
160K25S3,810,experiment,54,→,right,→,0.47082530008628964,True,28,1
160K25S3,811,experiment,48,←,left,←,1.227809699717909,True,28,1
160K25S3,812,experiment,51,←,left,←,0.5375683000311255,True,28,1
160K25S3,813,experiment,56,↓,down,↓,0.6009285999462008,True,28,1
160K25S3,814,experiment,50,↑,up,↑,0.8160334001295269,True,28,1
160K25S3,815,experiment,55,←,left,←,0.4132189997471869,True,28,1
160K25S3,816,experiment,86,←,left,←,0.43923410028219223,True,28,1
160K25S3,817,experiment,73,↓,down,↓,0.7889262000098825,True,28,1
160K25S3,818,experiment,91,→,right,→,0.4626448000781238,True,28,1
160K25S3,819,experiment,106,←,left,←,0.592374200001359,True,28,1
160K25S3,820,experiment,107,←,left,←,0.4687331998720765,True,28,1
160K25S3,821,experiment,83,↑,up,↑,0.5420586001127958,True,28,1
160K25S3,822,experiment,49,→,right,→,0.6798852998763323,True,28,1
160K25S3,823,experiment,71,↑,down,↓,0.6766280001029372,False,28,1
160K25S3,824,experiment,98,↓,down,↓,0.6885736999101937,True,28,1
160K25S3,825,experiment,104,→,right,→,0.5459502995945513,True,28,1
160K25S3,826,experiment,53,↑,up,↑,0.7062093000859022,True,28,1
160K25S3,827,experiment,90,→,right,→,0.47145110042765737,True,28,1
160K25S3,828,experiment,75,→,right,→,0.5075485999695957,True,28,1
160K25S3,829,experiment,87,→,right,→,0.47393119987100363,True,28,1
160K25S3,830,experiment,97,←,left,←,0.5022840001620352,True,28,1
160K25S3,831,experiment,63,→,right,→,0.6770243002101779,True,28,1
160K25S3,832,experiment,82,←,left,←,0.6064887000247836,True,28,1
160K25S3,833,experiment,78,↓,down,↓,0.5158017002977431,True,28,1
160K25S3,834,experiment,96,←,left,←,0.45489579997956753,True,28,1
160K25S3,835,experiment,89,→,right,→,0.694505900144577,True,28,1
160K25S3,836,experiment,70,←,left,←,0.5793027998879552,True,28,1
160K25S3,837,experiment,60,→,right,→,0.43973789969459176,True,28,1
160K25S3,838,experiment,57,↓,down,↓,0.6108270003460348,True,28,1
160K25S3,839,experiment,59,←,left,←,0.5585065996274352,True,28,1
160K25S3,840,experiment,105,↑,up,↑,0.8049794998951256,True,28,1
160K25S3,841,experiment,92,↑,up,↑,0.6860413998365402,True,28,1
160K25S3,842,experiment,81,↑,up,↑,0.6712915999814868,True,28,1
160K25S3,843,experiment,102,↓,down,↓,0.5380116999149323,True,28,1
160K25S3,844,experiment,68,↓,down,↓,0.5017032003961504,True,28,1
160K25S3,845,experiment,67,↓,down,↓,0.7151274997740984,True,28,1
160K25S3,846,experiment,72,→,right,→,0.44620499992743134,True,28,1
160K25S3,847,experiment,93,←,left,←,0.49304379988461733,True,28,1
160K25S3,848,experiment,95,←,left,←,0.6333229998126626,True,28,1
160K25S3,849,experiment,88,↓,down,↓,0.4986767997033894,True,28,1
160K25S3,850,experiment,80,→,right,→,0.6756103001534939,True,28,1
160K25S3,851,experiment,58,←,left,←,0.4609129996970296,True,28,1
160K25S3,852,experiment,76,↓,down,↓,0.5848924000747502,True,28,1
160K25S3,853,experiment,66,←,left,←,0.5633197999559343,True,28,1
160K25S3,854,experiment,84,↑,up,↑,0.5603340999223292,True,28,1
160K25S3,855,experiment,100,↑,up,↑,0.7046210998669267,True,28,1
160K25S3,856,experiment,85,↓,down,↓,0.479513100348413,True,28,1
160K25S3,857,experiment,62,↑,up,↑,0.47924740007147193,True,28,1
160K25S3,858,experiment,69,↑,up,↑,0.7250723000615835,True,28,1
160K25S3,859,experiment,94,↓,down,↓,0.6243512001819909,True,28,1
160K25S3,860,training,107,→,right,→,0.5855910996906459,True,28,0
160K25S3,861,training,64,←,left,←,0.4130543996579945,True,28,1
160K25S3,862,experiment,55,↓,down,↓,0.5933040999807417,True,28,1
160K25S3,863,experiment,99,↓,down,↓,0.5123652997426689,True,28,1
160K25S3,864,experiment,106,←,left,←,0.47235829988494515,True,28,1
160K25S3,865,experiment,76,←,left,←,0.6037514000199735,True,28,1
160K25S3,866,experiment,61,↓,down,↓,0.5111994999460876,True,28,1
160K25S3,867,experiment,88,↑,up,↑,0.6772272000089288,True,28,1
160K25S3,868,experiment,78,↑,up,↑,0.504003900103271,True,28,1
160K25S3,869,experiment,96,↓,down,↓,0.4996271999552846,True,28,1
160K25S3,870,experiment,50,→,right,→,0.5747873997315764,True,28,1
160K25S3,871,experiment,98,↓,down,↓,0.7350445003248751,True,28,1
160K25S3,872,experiment,52,→,right,→,0.6319248001091182,True,28,1
160K25S3,873,experiment,60,↓,down,↓,0.5064691002480686,True,28,1
160K25S3,874,experiment,93,↑,up,↑,0.5666767000220716,True,28,1
160K25S3,875,experiment,56,←,left,←,0.7411304996348917,True,28,1
160K25S3,876,experiment,85,↑,up,↑,0.586815900169313,True,28,1
160K25S3,877,experiment,59,↑,up,↑,0.7835304997861385,True,28,1
160K25S3,878,experiment,101,↑,up,↑,0.5662299003452063,True,28,1
160K25S3,879,experiment,65,←,left,←,0.4576627998612821,True,28,1
160K25S3,880,experiment,57,←,left,←,0.5241649001836777,True,28,1
160K25S3,881,experiment,91,→,right,→,0.5124810999259353,True,28,1
160K25S3,882,experiment,81,←,left,←,0.4485879000276327,True,28,1
160K25S3,883,experiment,70,↓,down,↓,0.5270202998071909,True,28,1
160K25S3,884,experiment,105,↑,up,↑,0.5907954997383058,True,28,1
160K25S3,885,experiment,54,←,left,←,0.5326526998542249,True,28,1
160K25S3,886,experiment,63,↓,down,↓,0.7541387001983821,True,28,1
160K25S3,887,experiment,83,↑,up,↑,0.7199524999596179,True,28,1
160K25S3,888,experiment,53,↑,up,↑,0.5852739997208118,True,28,1
160K25S3,889,experiment,72,↑,up,↑,0.7377029000781476,True,28,1
160K25S3,890,experiment,66,←,left,←,0.5098036001436412,True,28,1
160K25S3,891,experiment,87,←,left,←,0.4124803002923727,True,28,1
160K25S3,892,experiment,103,←,left,←,0.6088427002541721,True,28,1
160K25S3,893,experiment,68,↑,up,↑,0.5536294998601079,True,28,1
160K25S3,894,experiment,62,→,right,→,0.7666905000805855,True,28,1
160K25S3,895,experiment,95,↑,up,↑,0.7520445003174245,True,28,1
160K25S3,896,experiment,74,↑,up,↑,0.4970455002039671,True,28,1
160K25S3,897,experiment,75,↓,down,↓,0.5477795000188053,True,28,1
160K25S3,898,experiment,79,←,left,←,0.6031971997581422,True,28,1
160K25S3,899,experiment,64,→,right,→,0.5417090002447367,True,28,1
160K25S3,900,experiment,89,↑,up,↑,0.7140135997906327,True,28,1
160K25S3,901,experiment,94,→,right,→,0.6136440997943282,True,28,1
160K25S3,902,experiment,80,↓,down,↓,0.5301455999724567,True,28,1
160K25S3,903,experiment,84,←,left,←,0.48845290020108223,True,28,1
160K25S3,904,experiment,108,←,left,←,0.5445294003002346,True,28,1
160K25S3,905,experiment,92,←,left,←,0.6598912002518773,True,28,1
160K25S3,906,experiment,73,↓,down,↓,0.520932300016284,True,28,1
160K25S3,907,experiment,102,↑,up,↑,0.8176984996534884,True,28,1
160K25S3,908,experiment,49,←,left,←,0.5204384997487068,True,28,1
160K25S3,909,experiment,97,↑,up,↑,0.8111698003485799,True,28,1
160K25S3,910,experiment,67,↑,up,↑,0.5161597998812795,True,28,1
160K25S3,911,experiment,90,←,left,←,0.4332500002346933,True,28,1
160K25S3,912,experiment,82,↓,down,↓,0.7082777000032365,True,28,1
160K25S3,913,experiment,77,→,right,→,0.7179807000793517,True,28,1
160K25S3,914,experiment,48,↑,up,↑,0.5771141001023352,True,28,1
160K25S3,915,experiment,86,↑,up,↑,0.5172561998479068,True,28,1
160K25S3,916,experiment,107,→,right,→,0.700734999962151,True,28,1
160K25S3,917,experiment,51,↑,up,↑,0.6553023001179099,True,28,1
160K25S3,918,experiment,71,←,left,←,0.4770235000178218,True,28,1
160K25S3,919,experiment,58,↓,down,↓,0.5184951000846922,True,28,1
160K25S3,920,experiment,69,↑,up,↑,0.7464884999208152,True,28,1
160K25S3,921,experiment,100,↓,down,↓,0.5947932000271976,True,28,1
160K25S3,922,experiment,104,→,right,→,0.4881742000579834,True,28,1
160K25S3,923,training,86,↓,down,↓,0.6365314000286162,True,28,0
160K25S3,924,training,59,→,right,→,0.48761870013549924,True,28,1
160K25S3,925,experiment,75,→,right,→,0.74666259996593,True,28,1
160K25S3,926,experiment,103,←,left,←,0.46598570002242923,True,28,1
160K25S3,927,experiment,52,↓,down,↓,0.6777959996834397,True,28,1
160K25S3,928,experiment,70,↑,up,↑,0.5792823997326195,True,28,1
160K25S3,929,experiment,102,↓,down,↓,0.6095320000313222,True,28,1
160K25S3,930,experiment,69,←,left,←,0.4579487997107208,True,28,1
160K25S3,931,experiment,107,↑,up,↑,0.8596159997396171,True,28,1
160K25S3,932,experiment,61,←,left,←,0.4367441004142165,True,28,1
160K25S3,933,experiment,97,→,right,→,0.44272010028362274,True,28,1
160K25S3,934,experiment,82,↑,up,↑,0.7014621999114752,True,28,1
160K25S3,935,experiment,77,→,right,→,0.6396082998253405,True,28,1
160K25S3,936,experiment,85,↑,up,↑,0.7212140997871757,True,28,1
160K25S3,937,experiment,68,←,left,←,0.501362799666822,True,28,1
160K25S3,938,experiment,73,→,right,→,0.44075240008533,True,28,1
160K25S3,939,experiment,67,←,left,←,0.6726802000775933,True,28,1
160K25S3,940,experiment,76,↓,down,↓,0.675808799918741,True,28,1
160K25S3,941,experiment,79,↓,down,↓,0.6462881001643836,True,28,1
160K25S3,942,experiment,108,↑,up,↑,0.5358717003837228,True,28,1
160K25S3,943,experiment,60,←,left,←,0.6783361998386681,True,28,1
160K25S3,944,experiment,80,↑,up,↑,0.7043750998564065,True,28,1
160K25S3,945,experiment,59,→,right,→,0.6080995998345315,True,28,1
160K25S3,946,experiment,88,↓,down,↓,0.6741506000980735,True,28,1
160K25S3,947,experiment,91,→,right,→,0.6085163000971079,True,28,1
160K25S3,948,experiment,98,←,right,→,0.6952422000467777,False,28,1
160K25S3,949,experiment,58,↑,down,↓,0.7279533999972045,False,28,1
160K25S3,950,experiment,92,↓,down,↓,0.6440055998973548,True,28,1
160K25S3,951,experiment,86,←,left,←,0.5493586002849042,True,28,1
160K25S3,952,experiment,62,→,right,→,0.6424723002128303,True,28,1
160K25S3,953,experiment,93,→,right,→,0.6414767000824213,True,28,1
160K25S3,954,experiment,63,↑,up,↑,0.6506078997626901,True,28,1
160K25S3,955,experiment,95,←,left,←,0.4485637000761926,True,28,1
160K25S3,956,experiment,56,↓,down,↓,0.6916785002686083,True,28,1
160K25S3,957,experiment,49,↑,up,↑,0.5755197997204959,True,28,1
160K25S3,958,experiment,66,↓,down,↓,0.6582420999184251,True,28,1
160K25S3,959,experiment,99,↑,up,↑,0.5987379997968674,True,28,1
160K25S3,960,experiment,106,→,right,→,0.4832000001333654,True,28,1
160K25S3,961,experiment,64,↓,down,↓,0.6819505002349615,True,28,1
160K25S3,962,experiment,105,↓,down,↓,0.7233858997933567,True,28,1
160K25S3,963,experiment,101,↓,down,↓,0.47642510011792183,True,28,1
160K25S3,964,experiment,65,←,left,←,0.4197395001538098,True,28,1
160K25S3,965,experiment,74,←,left,←,0.7059015999548137,True,28,1
160K25S3,966,experiment,71,←,left,←,0.4456420997157693,True,28,1
160K25S3,967,experiment,96,↓,down,↓,0.4995574001222849,True,28,1
160K25S3,968,experiment,72,↑,up,↑,0.5991656999103725,True,28,1
160K25S3,969,experiment,50,↑,up,↑,0.5502415001392365,True,28,1
160K25S3,970,experiment,51,→,right,→,0.48690570006147027,True,28,1
160K25S3,971,experiment,84,→,right,→,0.5913378996774554,True,28,1
160K25S3,972,experiment,81,↓,down,↓,0.6604355000890791,True,28,1
160K25S3,973,experiment,55,←,left,←,0.6235337997786701,True,28,1
160K25S3,974,experiment,48,→,right,→,0.4621784002520144,True,28,1
160K25S3,975,experiment,90,→,right,→,0.5656538996845484,True,28,1
160K25S3,976,experiment,89,↓,down,↓,0.6328702997416258,True,28,1
160K25S3,977,experiment,100,↓,down,↓,0.5100660002790391,True,28,1
160K25S3,978,experiment,83,→,right,→,0.6057579000480473,True,28,1
160K25S3,979,experiment,54,←,left,←,0.43522819969803095,True,28,1
160K25S3,980,experiment,78,↓,down,↓,0.5595788997597992,True,28,1
160K25S3,981,experiment,57,↑,up,↑,0.6940586999990046,True,28,1
160K25S3,982,experiment,87,↑,up,↑,0.541083600372076,True,28,1
160K25S3,983,experiment,53,←,left,←,0.5814996999688447,True,28,1
160K25S3,984,experiment,94,→,right,→,0.6145332003943622,True,28,1
160K25S3,985,experiment,104,↑,up,↑,0.771013599820435,True,28,1
160K25S3,986,training,97,↓,down,↓,0.5246210000477731,True,28,0
160K25S3,987,training,101,↓,down,↓,0.6536162002012134,True,28,1
160K25S3,988,experiment,59,←,left,←,0.5437619998119771,True,28,1
160K25S3,989,experiment,67,→,right,→,0.45947880018502474,True,28,1
160K25S3,990,experiment,99,↑,up,↑,0.5438852999359369,True,28,1
160K25S3,991,experiment,97,←,left,←,0.6336373002268374,True,28,1
160K25S3,992,experiment,60,→,right,→,0.6439983998425305,True,28,1
160K25S3,993,experiment,104,←,left,←,0.4635183997452259,True,28,1
160K25S3,994,experiment,76,→,right,→,0.5711079002358019,True,28,1
160K25S3,995,experiment,57,←,left,←,0.5288023999892175,True,28,1
160K25S3,996,experiment,72,←,left,←,0.5396255999803543,True,28,1
160K25S3,997,experiment,54,←,left,←,0.4677408002316952,True,28,1
160K25S3,998,experiment,89,→,right,→,0.7150665000081062,True,28,1
160K25S3,999,experiment,80,↓,down,↓,0.6834427998401225,True,28,1
160K25S3,1000,experiment,96,↓,down,↓,0.6878988998942077,True,28,1
160K25S3,1001,experiment,102,↑,up,↑,0.6338335000909865,True,28,1
160K25S3,1002,experiment,98,→,right,→,0.4796613999642432,True,28,1
160K25S3,1003,experiment,62,→,right,→,0.6317112999968231,True,28,1
160K25S3,1004,experiment,82,↑,up,↑,0.5546782999299467,True,28,1
160K25S3,1005,experiment,66,→,right,→,0.5580724002793431,True,28,1
160K25S3,1006,experiment,61,←,left,←,0.4751818999648094,True,28,1
160K25S3,1007,experiment,103,→,right,→,0.429629800375551,True,28,1
160K25S3,1008,experiment,107,→,right,→,0.6802443997003138,True,28,1
160K25S3,1009,experiment,108,↓,down,↓,0.6565680997446179,True,28,1
160K25S3,1010,experiment,51,→,right,→,0.5089469002559781,True,28,1
160K25S3,1011,experiment,74,→,right,→,0.5757653000764549,True,28,1
160K25S3,1012,experiment,63,↑,up,↑,0.4994910000823438,True,28,1
160K25S3,1013,experiment,100,→,right,→,0.605916699860245,True,28,1
160K25S3,1014,experiment,95,←,left,←,0.6535646999254823,True,28,1
160K25S3,1015,experiment,69,↑,up,↑,0.6523067997768521,True,28,1
160K25S3,1016,experiment,88,↓,down,↓,0.6687576002441347,True,28,1
160K25S3,1017,experiment,92,↓,down,↓,0.6030616001226008,True,28,1
160K25S3,1018,experiment,90,↓,down,↓,0.48474449990317225,True,28,1
160K25S3,1019,experiment,77,↑,down,↓,0.8075234997086227,False,28,1
160K25S3,1020,experiment,48,→,right,→,0.670968399848789,True,28,1
160K25S3,1021,experiment,94,↓,down,↓,0.6363773001357913,True,28,1
160K25S3,1022,experiment,79,←,left,←,0.488402200397104,True,28,1
160K25S3,1023,experiment,65,→,right,→,0.5989263998344541,True,28,1
160K25S3,1024,experiment,87,↓,down,↓,0.6016497001983225,True,28,1
160K25S3,1025,experiment,106,↓,down,↓,0.5338902999646962,True,28,1
160K25S3,1026,experiment,71,→,right,→,0.4806261002086103,True,28,1
160K25S3,1027,experiment,68,↓,down,↓,0.5024359999224544,True,28,1
160K25S3,1028,experiment,64,↓,up,↑,0.8527589002624154,False,28,1
160K25S3,1029,experiment,91,←,left,←,0.4683722001500428,True,28,1
160K25S3,1030,experiment,84,↓,down,↓,0.6133555001579225,True,28,1
160K25S3,1031,experiment,93,↓,down,↓,0.4935208996757865,True,28,1
160K25S3,1032,experiment,73,↓,down,↓,0.6093991999514401,True,28,1
160K25S3,1033,experiment,75,→,right,→,0.6956651001237333,True,28,1
160K25S3,1034,experiment,81,↑,up,↑,0.7046930999495089,True,28,1
160K25S3,1035,experiment,58,↓,down,↓,0.561016199644655,True,28,1
160K25S3,1036,experiment,56,→,right,→,0.5595765998587012,True,28,1
160K25S3,1037,experiment,70,→,right,→,0.5056306999176741,True,28,1
160K25S3,1038,experiment,105,→,right,→,0.6019745003432035,True,28,1
160K25S3,1039,experiment,53,→,right,→,0.49620170006528497,True,28,1
160K25S3,1040,experiment,101,→,right,→,0.4904944999143481,True,28,1
160K25S3,1041,experiment,86,↓,down,↓,0.6660268995910883,True,28,1
160K25S3,1042,experiment,49,→,right,→,0.702579100150615,True,28,1
160K25S3,1043,experiment,85,→,right,→,0.6539415996521711,True,28,1
160K25S3,1044,experiment,78,←,left,←,0.6977121997624636,True,28,1
160K25S3,1045,experiment,83,↑,up,↑,0.6817107000388205,True,28,1
160K25S3,1046,experiment,50,↑,up,↑,0.7575350999832153,True,28,1
160K25S3,1047,experiment,55,↑,up,↑,0.5805365997366607,True,28,1
160K25S3,1048,experiment,52,↑,up,↑,0.5796547001227736,True,28,1
160K25S3,1049,training,57,↑,up,↑,0.6521360999904573,True,28,0
160K25S3,1050,training,55,→,right,→,0.6555858999490738,True,28,1
160K25S3,1051,experiment,79,↑,up,↑,0.5705881998874247,True,28,1
160K25S3,1052,experiment,59,→,right,→,0.5916880001313984,True,28,1
160K25S3,1053,experiment,86,↓,down,↓,0.8112850999459624,True,28,1
160K25S3,1054,experiment,89,↑,up,↑,0.4607967999763787,True,28,1
160K25S3,1055,experiment,96,↓,down,↓,0.7302144998684525,True,28,1
160K25S3,1056,experiment,98,→,right,→,0.6518099997192621,True,28,1
160K25S3,1057,experiment,57,↓,down,↓,0.4706028001382947,True,28,1
160K25S3,1058,experiment,85,↑,up,↑,0.5110292001627386,True,28,1
160K25S3,1059,experiment,103,↑,up,↑,0.5679790996946394,True,28,1
160K25S3,1060,experiment,76,→,right,→,0.42390110017731786,True,28,1
160K25S3,1061,experiment,99,←,left,←,0.5414812001399696,True,28,1
160K25S3,1062,experiment,94,→,right,→,0.608160300180316,True,28,1
160K25S3,1063,experiment,50,↓,down,↓,0.5268791997805238,True,28,1
160K25S3,1064,experiment,83,↓,down,↓,0.5340728997252882,True,28,1
160K25S3,1065,experiment,54,←,left,←,0.438455400057137,True,28,1
160K25S3,1066,experiment,100,←,left,←,0.891266199760139,True,28,1
160K25S3,1067,experiment,107,→,right,→,0.5554666998796165,True,28,1
160K25S3,1068,experiment,71,→,right,→,1.269049699883908,True,28,1
160K25S3,1069,experiment,97,→,right,→,0.5863004000857472,True,28,1
160K25S3,1070,experiment,82,↑,up,↑,0.7668034001253545,True,28,1
160K25S3,1071,experiment,65,↑,up,↑,0.5542346998117864,True,28,1
160K25S3,1072,experiment,62,←,left,←,0.4154209000989795,True,28,1
160K25S3,1073,experiment,106,→,right,→,0.4586522001773119,True,28,1
160K25S3,1074,experiment,74,→,right,→,0.6874927999451756,True,28,1
160K25S3,1075,experiment,90,→,right,→,1.109815699979663,True,28,1
160K25S3,1076,experiment,84,↓,down,↓,0.5331093999557197,True,28,1
160K25S3,1077,experiment,81,↓,down,↓,0.6765143997035921,True,28,1
160K25S3,1078,experiment,73,↑,up,↑,0.5449601002037525,True,28,1
160K25S3,1079,experiment,63,←,left,←,0.6061289999634027,True,28,1
160K25S3,1080,experiment,68,↑,up,↑,0.7347170999273658,True,28,1
160K25S3,1081,experiment,77,↑,up,↑,0.5915073999203742,True,28,1
160K25S3,1082,experiment,93,↓,up,↑,0.7444412996992469,False,28,1
160K25S3,1083,experiment,80,→,right,→,0.5519069996662438,True,28,1
160K25S3,1084,experiment,102,↑,up,↑,0.7515573999844491,True,28,1
160K25S3,1085,experiment,72,↑,up,↑,0.5454385001212358,True,28,1
160K25S3,1086,experiment,67,↑,up,↑,0.621104700025171,True,28,1
160K25S3,1087,experiment,55,↑,up,↑,0.6099806004203856,True,28,1
160K25S3,1088,experiment,101,←,left,←,0.4394195000641048,True,28,1
160K25S3,1089,experiment,69,←,left,←,0.4226299999281764,True,28,1
160K25S3,1090,experiment,53,→,left,←,0.7316753002814949,False,28,1
160K25S3,1091,experiment,56,↑,up,↑,0.6433729999698699,True,28,1
160K25S3,1092,experiment,108,←,left,←,0.4376368001103401,True,28,1
160K25S3,1093,experiment,49,←,left,←,0.43562440015375614,True,28,1
160K25S3,1094,experiment,105,←,left,←,0.5428653997369111,True,28,1
160K25S3,1095,experiment,64,↑,up,↑,0.5156926000490785,True,28,1
160K25S3,1096,experiment,52,←,left,←,0.4295561998151243,True,28,1
160K25S3,1097,experiment,91,↑,up,↑,0.7497662999667227,True,28,1
160K25S3,1098,experiment,88,←,left,←,0.4417952001094818,True,28,1
160K25S3,1099,experiment,61,→,right,→,0.44373370008543134,True,28,1
160K25S3,1100,experiment,60,↑,up,↑,0.6059339996427298,True,28,1
160K25S3,1101,experiment,95,→,right,→,0.6215145997703075,True,28,1
160K25S3,1102,experiment,104,←,left,←,0.4414890999905765,True,28,1
160K25S3,1103,experiment,92,↑,up,↑,0.8168342998251319,True,28,1
160K25S3,1104,experiment,75,↑,up,↑,0.8309156000614166,True,28,1
160K25S3,1105,experiment,78,←,left,←,0.6992883998900652,True,28,1
160K25S3,1106,experiment,87,↓,down,↓,0.5619373000226915,True,28,1
160K25S3,1107,experiment,58,↑,up,↑,0.7760487999767065,True,28,1
160K25S3,1108,experiment,51,←,left,←,0.5118484999984503,True,28,1
160K25S3,1109,experiment,70,→,right,→,0.44388070004060864,True,28,1
160K25S3,1110,experiment,66,↓,down,↓,0.5320689999498427,True,28,1
160K25S3,1111,experiment,48,↑,up,↑,0.7586397002451122,True,28,1
160K25S3,1112,training,68,↑,up,↑,0.6814479995518923,True,28,0
160K25S3,1113,training,90,→,right,→,0.42377869971096516,True,28,1
160K25S3,1114,experiment,92,↓,down,↓,0.7198728998191655,True,28,1
160K25S3,1115,experiment,81,←,left,←,0.5597557001747191,True,28,1
160K25S3,1116,experiment,64,←,left,←,0.5638470002450049,True,28,1
160K25S3,1117,experiment,53,←,left,←,0.46736139990389347,True,28,1
160K25S3,1118,experiment,50,→,right,→,0.4717076001688838,True,28,1
160K25S3,1119,experiment,49,↓,down,↓,0.5161818000487983,True,28,1
160K25S3,1120,experiment,60,↓,down,↓,0.5559956999495625,True,28,1
160K25S3,1121,experiment,106,↓,down,↓,0.5293576000258327,True,28,1
160K25S3,1122,experiment,67,↑,up,↑,0.6614035000093281,True,28,1
160K25S3,1123,experiment,75,→,right,→,0.5376627999357879,True,28,1
160K25S3,1124,experiment,48,↓,down,↓,0.6120486999861896,True,28,1
160K25S3,1125,experiment,102,↓,down,↓,0.5532337999902666,True,28,1
160K25S3,1126,experiment,66,↑,up,↑,0.9250767999328673,True,28,1
160K25S3,1127,experiment,52,→,right,→,0.5503962002694607,True,28,1
160K25S3,1128,experiment,88,←,left,←,0.5947917997837067,True,28,1
160K25S3,1129,experiment,79,↑,up,↑,0.5524924001656473,True,28,1
160K25S3,1130,experiment,83,→,right,→,0.43058260018005967,True,28,1
160K25S3,1131,experiment,55,↓,down,↓,0.50671900017187,True,28,1
160K25S3,1132,experiment,93,→,right,→,0.43181579979136586,True,28,1
160K25S3,1133,experiment,91,→,left,←,0.7990950997918844,False,28,1
160K25S3,1134,experiment,63,↑,up,↑,0.6818045997060835,True,28,1
160K25S3,1135,experiment,95,←,left,←,0.4704959997907281,True,28,1
160K25S3,1136,experiment,97,←,left,←,0.38409609999507666,True,28,1
160K25S3,1137,experiment,73,↓,down,↓,0.6670458000153303,True,28,0
160K25S3,1138,experiment,70,↑,up,↑,0.8327191998250782,True,28,1
160K25S3,1139,experiment,69,→,right,→,0.4164615999907255,True,28,1
160K25S3,1140,experiment,54,↓,down,↓,0.5172743001021445,True,28,1
160K25S3,1141,experiment,57,→,right,→,0.46159600000828505,True,28,1
160K25S3,1142,experiment,104,→,right,→,0.44807719998061657,True,28,1
160K25S3,1143,experiment,89,↑,up,↑,0.6160516999661922,True,28,1
160K25S3,1144,experiment,99,→,right,→,0.6461092997342348,True,28,1
160K25S3,1145,experiment,58,→,right,→,0.6728431996889412,True,28,1
160K25S3,1146,experiment,78,↓,down,↓,0.5076156998984516,True,28,1
160K25S3,1147,experiment,68,↓,down,↓,0.6803369000554085,True,28,1
160K25S3,1148,experiment,105,↑,up,↑,0.8497700002044439,True,28,1
160K25S3,1149,experiment,72,→,right,→,0.49543990008533,True,28,1
160K25S3,1150,experiment,98,↓,down,↓,0.7147473003715277,True,28,1
160K25S3,1151,experiment,80,→,right,→,0.5633058999665082,True,28,1
160K25S3,1152,experiment,103,→,right,→,0.5701846997253597,True,28,1
160K25S3,1153,experiment,61,↑,up,↑,0.8068992998450994,True,28,1
160K25S3,1154,experiment,76,↓,down,↓,0.500938500277698,True,28,1
160K25S3,1155,experiment,90,→,right,→,0.41116470005363226,True,28,1
160K25S3,1156,experiment,82,←,left,←,0.45439499989151955,True,28,1
160K25S3,1157,experiment,56,↓,down,↓,0.5211998000741005,True,28,1
160K25S3,1158,experiment,94,→,right,→,0.43653109995648265,True,28,1
160K25S3,1159,experiment,65,↑,up,↑,0.7493096999824047,True,28,1
160K25S3,1160,experiment,51,→,right,→,0.6540430001914501,True,28,1
160K25S3,1161,experiment,62,→,right,→,0.47914090007543564,True,28,1
160K25S3,1162,experiment,96,↑,up,↑,0.8756118998862803,True,28,1
160K25S3,1163,experiment,85,←,left,←,0.5958587997592986,True,28,1
160K25S3,1164,experiment,86,↑,up,↑,0.6952482000924647,True,28,1
160K25S3,1165,experiment,59,↓,down,↓,0.5197339998558164,True,28,1
160K25S3,1166,experiment,71,←,right,→,0.6591691002249718,False,28,1
160K25S3,1167,experiment,74,↑,up,↑,0.7597793000750244,True,28,1
160K25S3,1168,experiment,100,→,right,→,0.6557816001586616,True,28,1
160K25S3,1169,experiment,101,↑,up,↑,0.5801725997589529,True,28,1
160K25S3,1170,experiment,107,→,right,→,0.4243978997692466,True,28,1
160K25S3,1171,experiment,108,→,right,→,0.7068484001792967,True,28,1
160K25S3,1172,experiment,84,↓,down,↓,0.7141640996560454,True,28,1
160K25S3,1173,experiment,87,→,right,→,0.6562749999575317,True,28,1
160K25S3,1174,experiment,77,←,left,←,0.5080093001015484,True,28,1
160K25S3,1175,training,93,↓,down,↓,0.5765259000472724,True,28,0
160K25S3,1176,training,101,↓,down,↓,0.4476071000099182,True,28,1
160K25S3,1177,experiment,51,↓,down,↓,0.6283464999869466,True,28,1
160K25S3,1178,experiment,70,←,left,←,0.6839708001352847,True,28,1
160K25S3,1179,experiment,74,↑,up,↑,0.7834326000884175,True,28,1
160K25S3,1180,experiment,79,↓,down,↓,0.589455499779433,True,28,1
160K25S3,1181,experiment,55,→,right,→,0.43523909989744425,True,28,1
160K25S3,1182,experiment,91,↑,up,↑,0.595335999969393,True,28,1
160K25S3,1183,experiment,59,↓,down,↓,0.4958150000311434,True,28,1
160K25S3,1184,experiment,82,←,left,←,0.5520772999152541,True,28,1
160K25S3,1185,experiment,65,↑,up,↑,0.5642849998548627,True,28,1
160K25S3,1186,experiment,104,↓,down,↓,0.49053800012916327,True,28,1
160K25S3,1187,experiment,97,↓,down,↓,0.49424559995532036,True,28,1
160K25S3,1188,experiment,61,↓,down,↓,0.5019760001450777,True,28,1
160K25S3,1189,experiment,87,→,right,→,0.42893029982224107,True,28,1
160K25S3,1190,experiment,72,←,left,←,0.49920970015227795,True,28,1
160K25S3,1191,experiment,105,↓,down,↓,0.5158649003133178,True,28,1
160K25S3,1192,experiment,93,↑,up,↑,0.8079003002494574,True,28,1
160K25S3,1193,experiment,86,↓,down,↓,0.4907531999051571,True,28,1
160K25S3,1194,experiment,84,←,left,←,0.6107255001552403,True,28,1
160K25S3,1195,experiment,99,↑,up,↑,0.6170405000448227,True,28,1
160K25S3,1196,experiment,80,↓,down,↓,0.6214920999482274,True,28,1
160K25S3,1197,experiment,83,↑,up,↑,0.5924920001998544,True,28,1
160K25S3,1198,experiment,63,↑,up,↑,0.5715425997041166,True,28,1
160K25S3,1199,experiment,62,↓,down,↓,0.6716777998954058,True,28,1
160K25S3,1200,experiment,85,↑,up,↑,0.7439934997819364,True,28,1
160K25S3,1201,experiment,77,↓,down,↓,0.7604566002264619,True,28,1
160K25S3,1202,experiment,73,←,down,↓,0.8174281995743513,False,28,1
160K25S3,1203,experiment,75,→,right,→,0.4641923001036048,True,28,1
160K25S3,1204,experiment,88,↓,down,↓,0.5113005000166595,True,28,1
160K25S3,1205,experiment,67,↓,down,↓,0.6846215999685228,True,28,1
160K25S3,1206,experiment,89,→,right,→,0.43510650005191565,True,28,1
160K25S3,1207,experiment,53,↓,down,↓,0.48777270037680864,True,28,1
160K25S3,1208,experiment,101,↑,up,↑,0.594229799695313,True,28,1
160K25S3,1209,experiment,60,→,right,→,0.6462781000882387,True,28,1
160K25S3,1210,experiment,90,↑,up,↑,0.8700028997845948,True,28,1
160K25S3,1211,experiment,54,↓,down,↓,0.5290093999356031,True,28,1
160K25S3,1212,experiment,49,↓,down,↓,0.6194352000020444,True,28,1
160K25S3,1213,experiment,66,←,left,←,0.5725496998056769,True,28,1
160K25S3,1214,experiment,58,↑,up,↑,0.6181581998243928,True,28,1
160K25S3,1215,experiment,107,←,left,←,0.45345519995316863,True,28,1
160K25S3,1216,experiment,100,↑,up,↑,0.7461009998805821,True,28,1
160K25S3,1217,experiment,69,↑,up,↑,0.6047008000314236,True,28,1
160K25S3,1218,experiment,108,→,right,→,0.4880832997150719,True,28,1
160K25S3,1219,experiment,103,↓,down,↓,0.586160299833864,True,28,1
160K25S3,1220,experiment,94,↓,down,↓,0.6587186004035175,True,28,1
160K25S3,1221,experiment,52,←,left,←,0.5989306000992656,True,28,1
160K25S3,1222,experiment,96,→,right,→,0.44660629983991385,True,28,1
160K25S3,1223,experiment,56,↑,down,↓,0.7618011999875307,False,28,1
160K25S3,1224,experiment,92,↓,down,↓,0.5564586999826133,True,28,1
160K25S3,1225,experiment,71,↓,down,↓,0.5022056996822357,True,28,1
160K25S3,1226,experiment,81,↓,down,↓,0.710874100215733,True,28,1
160K25S3,1227,experiment,98,←,left,←,0.6496460000053048,True,28,1
160K25S3,1228,experiment,68,←,left,←,0.4406117000617087,True,28,1
160K25S3,1229,experiment,57,↑,up,↑,0.8676682999357581,True,28,1
160K25S3,1230,experiment,106,→,right,→,0.4694746998138726,True,28,1
160K25S3,1231,experiment,48,↓,up,↑,0.8104838998988271,False,28,1
160K25S3,1232,experiment,76,↑,up,↑,0.7927386998198926,True,28,1
160K25S3,1233,experiment,102,←,left,←,0.47037170035764575,True,28,1
160K25S3,1234,experiment,50,↑,left,←,0.9069245001301169,False,28,1
160K25S3,1235,experiment,64,↓,down,↓,0.536973999813199,True,28,1
160K25S3,1236,experiment,95,↓,down,↓,0.7237700000405312,True,28,1
160K25S3,1237,experiment,78,→,right,→,0.42063009971752763,True,28,1
160K25S3,1238,training,94,↓,down,↓,0.5793342003598809,True,28,0
160K25S3,1239,training,53,↓,down,↓,0.6583316000178456,True,28,1
160K25S3,1240,experiment,56,↓,down,↓,0.5571623998694122,True,28,1
160K25S3,1241,experiment,83,↓,down,↓,0.562952300067991,True,28,1
160K25S3,1242,experiment,97,↑,up,↑,0.6835050000809133,True,28,1
160K25S3,1243,experiment,78,→,right,→,0.5419577001594007,True,28,1
160K25S3,1244,experiment,79,→,right,→,0.5896372999995947,True,28,1
160K25S3,1245,experiment,49,←,left,←,0.4293746002949774,True,28,1
160K25S3,1246,experiment,73,→,right,→,0.6514427997171879,True,28,1
160K25S3,1247,experiment,102,↑,up,↑,0.8151761996559799,True,28,1
160K25S3,1248,experiment,74,→,right,→,0.5174809000454843,True,28,1
160K25S3,1249,experiment,99,↓,down,↓,0.5756711000576615,True,28,1
160K25S3,1250,experiment,108,→,right,→,0.5402171998284757,True,28,1
160K25S3,1251,experiment,85,↑,up,↑,0.5939311999827623,True,28,1
160K25S3,1252,experiment,60,↓,down,↓,0.49413569970056415,True,28,1
160K25S3,1253,experiment,76,↓,down,↓,0.6168823000043631,True,28,1
160K25S3,1254,experiment,84,↑,up,↑,0.7000655997544527,True,28,1
160K25S3,1255,experiment,68,←,left,←,0.5529209999367595,True,28,1
160K25S3,1256,experiment,72,←,left,←,0.4190947003662586,True,28,1
160K25S3,1257,experiment,70,↑,up,↑,0.7140562999993563,True,28,1
160K25S3,1258,experiment,48,↓,down,↓,0.6852057999931276,True,28,1
160K25S3,1259,experiment,63,→,right,→,0.46856540022417903,True,28,1
160K25S3,1260,experiment,104,↑,up,↑,0.8309516999870539,True,28,1
160K25S3,1261,experiment,96,←,left,←,0.5334302997216582,True,28,1
160K25S3,1262,experiment,103,←,left,←,0.5895331003703177,True,28,1
160K25S3,1263,experiment,51,←,left,←,0.41301489993929863,True,28,1
160K25S3,1264,experiment,90,↓,down,↓,0.5014572003856301,True,28,1
160K25S3,1265,experiment,75,↑,up,↑,0.8482932997867465,True,28,1
160K25S3,1266,experiment,66,↑,up,↑,0.663994699716568,True,28,1
160K25S3,1267,experiment,107,←,left,←,1.1211617002263665,True,28,1
160K25S3,1268,experiment,54,→,right,→,0.5619878997094929,True,28,1
160K25S3,1269,experiment,93,←,left,←,0.6285604001022875,True,28,1
160K25S3,1270,experiment,86,←,left,←,0.6383517002686858,True,28,1
160K25S3,1271,experiment,106,↑,up,↑,0.8010213999077678,True,28,1
160K25S3,1272,experiment,89,←,left,←,0.6110572000034153,True,28,1
160K25S3,1273,experiment,80,←,left,←,0.4083925001323223,True,28,1
160K25S3,1274,experiment,92,↓,down,↓,0.6561969998292625,True,28,1
160K25S3,1275,experiment,55,→,right,→,0.5873533999547362,True,28,1
160K25S3,1276,experiment,91,↑,up,↑,0.8533499999903142,True,28,1
160K25S3,1277,experiment,88,↓,down,↓,0.5177329001016915,True,28,1
160K25S3,1278,experiment,67,↑,up,↑,0.6183931999839842,True,28,1
160K25S3,1279,experiment,59,←,left,←,0.6460879999212921,True,28,1
160K25S3,1280,experiment,58,↑,up,↑,0.7283362001180649,True,28,1
160K25S3,1281,experiment,64,↑,up,↑,0.7735953996889293,True,28,1
160K25S3,1282,experiment,101,→,right,→,0.4130680998787284,True,28,1
160K25S3,1283,experiment,61,→,right,→,0.751375799998641,True,28,1
160K25S3,1284,experiment,87,↓,down,↓,0.7000580998137593,True,28,1
160K25S3,1285,experiment,81,→,right,→,0.48485289979726076,True,28,1
160K25S3,1286,experiment,53,↓,down,↓,0.47962170001119375,True,28,1
160K25S3,1287,experiment,62,↓,down,↓,0.7676222999580204,True,28,1
160K25S3,1288,experiment,65,↓,down,↓,0.5630777003243566,True,28,1
160K25S3,1289,experiment,95,↓,down,↓,0.6848828000947833,True,28,1
160K25S3,1290,experiment,98,→,left,←,0.6167018003761768,False,28,1
160K25S3,1291,experiment,52,→,right,→,0.6542694000527263,True,28,1
160K25S3,1292,experiment,94,←,left,←,0.5242898999713361,True,28,1
160K25S3,1293,experiment,100,→,right,→,0.48561810003593564,True,28,1
160K25S3,1294,experiment,77,←,left,←,0.7044257000088692,True,28,1
160K25S3,1295,experiment,69,→,right,→,0.4848219999112189,True,28,1
160K25S3,1296,experiment,105,→,right,→,0.4785740999504924,True,28,1
160K25S3,1297,experiment,57,→,right,→,0.7838354003615677,True,28,1
160K25S3,1298,experiment,50,→,left,←,0.8476101998239756,False,28,1
160K25S3,1299,experiment,82,←,left,←,0.45798039995133877,True,28,1
160K25S3,1300,experiment,71,→,right,→,0.6477064997889102,True,28,1
160K25S3,1301,training,103,↑,up,↑,0.7914566001854837,True,28,0
160K25S3,1302,training,82,↑,up,↑,0.5399237996898592,True,28,1
160K25S3,1303,experiment,63,↑,up,↑,0.6889233002439141,True,28,1
160K25S3,1304,experiment,102,↓,down,↓,0.8589949999004602,True,28,1
160K25S3,1305,experiment,71,↓,down,↓,0.6646819999441504,True,28,1
160K25S3,1306,experiment,100,↑,up,↑,0.5803511003032327,True,28,1
160K25S3,1307,experiment,56,↑,up,↑,0.7302186000160873,True,28,1
160K25S3,1308,experiment,93,↓,down,↓,0.6134334998205304,True,28,1
160K25S3,1309,experiment,91,→,right,→,0.7342451000586152,True,28,1
160K25S3,1310,experiment,52,↓,down,↓,0.5592934000305831,True,28,1
160K25S3,1311,experiment,57,→,right,→,0.6456857998855412,True,28,1
160K25S3,1312,experiment,60,→,right,→,0.7358210003003478,True,28,1
160K25S3,1313,experiment,69,→,right,→,0.5392653997987509,True,28,1
160K25S3,1314,experiment,61,↑,up,↑,0.9529856001026928,True,28,1
160K25S3,1315,experiment,79,←,left,←,0.6082259998656809,True,28,1
160K25S3,1316,experiment,53,←,left,←,0.6381425000727177,True,28,1
160K25S3,1317,experiment,86,↑,up,↑,0.7753520999103785,True,28,1
160K25S3,1318,experiment,72,↓,up,↑,0.8082926999777555,False,28,1
160K25S3,1319,experiment,77,←,left,←,0.5337628996931016,True,28,1
160K25S3,1320,experiment,62,→,left,←,0.6835412997752428,False,28,1
160K25S3,1321,experiment,105,→,right,→,0.6208968996070325,True,28,1
160K25S3,1322,experiment,48,←,right,→,0.6836744998581707,False,28,1
160K25S3,1323,experiment,81,←,left,←,0.7569916001521051,True,28,1
160K25S3,1324,experiment,96,↓,down,↓,0.566334499977529,True,28,1
160K25S3,1325,experiment,49,↑,up,↑,0.7673375001177192,True,28,1
160K25S3,1326,experiment,54,→,right,→,0.6462559998035431,True,28,1
160K25S3,1327,experiment,107,←,left,←,0.472174399998039,True,28,1
160K25S3,1328,experiment,70,↑,up,↑,0.7896424001082778,True,28,1
160K25S3,1329,experiment,85,↓,down,↓,0.6893247002735734,True,28,1
160K25S3,1330,experiment,95,←,left,←,0.5738329002633691,True,28,1
160K25S3,1331,experiment,75,→,right,→,0.8854278000071645,True,28,1
160K25S3,1332,experiment,65,↑,right,→,0.884162399917841,False,28,1
160K25S3,1333,experiment,66,↑,up,↑,0.7945956001058221,True,28,1
160K25S3,1334,experiment,83,↑,up,↑,0.7511187996715307,True,28,1
160K25S3,1335,experiment,67,→,right,→,0.6664216001518071,True,28,1
160K25S3,1336,experiment,78,↓,down,↓,0.7493483000434935,True,28,1
160K25S3,1337,experiment,101,↓,down,↓,0.5973962000571191,True,28,1
160K25S3,1338,experiment,98,←,left,←,0.5483749001286924,True,28,1
160K25S3,1339,experiment,58,↑,up,↑,0.5628718002699316,True,28,1
160K25S3,1340,experiment,87,←,left,←,0.7428509998135269,True,28,1
160K25S3,1341,experiment,80,←,left,←,0.4541194001212716,True,28,1
160K25S3,1342,experiment,108,→,right,→,0.4715126999653876,True,28,1
160K25S3,1343,experiment,64,→,right,→,0.5673571997322142,True,28,1
160K25S3,1344,experiment,92,←,left,←,0.4816747000440955,True,28,1
160K25S3,1345,experiment,51,←,left,←,1.0451519000343978,True,28,1
160K25S3,1346,experiment,99,→,right,→,0.6101623000577092,True,28,1
160K25S3,1347,experiment,84,↓,down,↓,0.589480500202626,True,28,1
160K25S3,1348,experiment,90,↑,down,↓,0.9195441999472678,False,28,1
160K25S3,1349,experiment,103,↑,up,↑,0.6322478000074625,True,28,1
160K25S3,1350,experiment,88,↑,up,↑,0.7211488001048565,True,28,1
160K25S3,1351,experiment,104,↑,up,↑,0.6656050998717546,True,28,1
160K25S3,1352,experiment,97,↑,up,↑,0.7425052998587489,True,28,1
160K25S3,1353,experiment,94,↑,up,↑,0.7529098000377417,True,28,1
160K25S3,1354,experiment,59,←,left,←,0.4870229000225663,True,28,1
160K25S3,1355,experiment,89,→,right,→,0.6857489999383688,True,28,1
160K25S3,1356,experiment,82,←,left,←,0.5587490000762045,True,28,1
160K25S3,1357,experiment,76,→,right,→,0.47903480008244514,True,28,1
160K25S3,1358,experiment,74,↓,left,←,1.0109548000618815,False,28,1
160K25S3,1359,experiment,106,↑,up,↑,0.7429514997638762,True,28,1
160K25S3,1360,experiment,68,→,right,→,0.5062719001434743,True,28,1
160K25S3,1361,experiment,55,↓,down,↓,0.6832189001142979,True,28,1
160K25S3,1362,experiment,50,→,right,→,0.5031262999400496,True,28,1
160K25S3,1363,experiment,73,←,left,←,0.5952102998271585,True,28,1
160K25S3,1364,training,88,←,left,←,0.42286659963428974,True,28,0
160K25S3,1365,training,76,↑,up,↑,0.7560858000069857,True,28,1
160K25S3,1366,experiment,76,←,left,←,0.5484640998765826,True,28,1
160K25S3,1367,experiment,68,←,left,←,0.42330219969153404,True,28,1
160K25S3,1368,experiment,60,→,right,→,0.6745678000152111,True,28,1
160K25S3,1369,experiment,97,←,left,←,0.5342739997431636,True,28,1
160K25S3,1370,experiment,100,↑,up,↑,0.711707899812609,True,28,1
160K25S3,1371,experiment,108,↑,up,↑,0.6947134002111852,True,28,1
160K25S3,1372,experiment,102,↓,down,↓,0.5688055003993213,True,28,1
160K25S3,1373,experiment,53,→,right,→,0.5045757000334561,True,28,1
160K25S3,1374,experiment,65,↓,down,↓,0.5901938998140395,True,28,1
160K25S3,1375,experiment,80,↓,down,↓,0.4833504999987781,True,28,1
160K25S3,1376,experiment,91,←,left,←,0.5294381999410689,True,28,1
160K25S3,1377,experiment,52,↑,up,↑,0.8186050998046994,True,28,1
160K25S3,1378,experiment,49,↓,down,↓,0.6092440001666546,True,28,1
160K25S3,1379,experiment,82,←,left,←,0.4533429997973144,True,28,1
160K25S3,1380,experiment,79,→,right,→,0.4887747000902891,True,28,1
160K25S3,1381,experiment,96,←,left,←,0.4689361001364887,True,28,1
160K25S3,1382,experiment,84,↓,down,↓,0.49382290011271834,True,28,1
160K25S3,1383,experiment,106,←,left,←,0.4306441000662744,True,28,1
160K25S3,1384,experiment,62,↑,up,↑,0.5601947996765375,True,28,1
160K25S3,1385,experiment,90,←,left,←,0.6757141002453864,True,28,1
160K25S3,1386,experiment,57,↓,down,↓,0.5014084000140429,True,28,1
160K25S3,1387,experiment,87,↓,down,↓,0.4842314999550581,True,28,1
160K25S3,1388,experiment,77,←,left,←,0.4549843999557197,True,28,1
160K25S3,1389,experiment,83,←,left,←,0.6169286998920143,True,28,1
160K25S3,1390,experiment,64,→,right,→,0.6507418998517096,True,28,1
160K25S3,1391,experiment,88,↑,up,↑,0.6033962001092732,True,28,1
160K25S3,1392,experiment,93,↑,up,↑,0.8117466000840068,True,28,1
160K25S3,1393,experiment,71,↑,up,↑,0.5317516000941396,True,28,1
160K25S3,1394,experiment,70,←,left,←,0.4866205998696387,True,28,1
160K25S3,1395,experiment,50,→,left,←,0.7862863996997476,False,28,1
160K25S3,1396,experiment,104,←,left,←,0.632006200030446,True,28,1
160K25S3,1397,experiment,56,↓,down,↓,0.6677951999008656,True,28,1
160K25S3,1398,experiment,63,↑,up,↑,0.9158632000908256,True,28,1
160K25S3,1399,experiment,48,←,left,←,0.4948800001293421,True,28,1
160K25S3,1400,experiment,105,→,right,→,0.6240835003554821,True,28,1
160K25S3,1401,experiment,99,←,left,←,0.6055793999694288,True,28,1
160K25S3,1402,experiment,98,→,right,→,0.6522828997112811,True,28,1
160K25S3,1403,experiment,92,↓,down,↓,0.5795932998880744,True,28,1
160K25S3,1404,experiment,103,→,right,→,0.5375867001712322,True,28,1
160K25S3,1405,experiment,94,←,left,←,0.47615080000832677,True,28,1
160K25S3,1406,experiment,69,↓,down,↓,0.529882799834013,True,28,1
160K25S3,1407,experiment,107,↓,down,↓,0.5369014996103942,True,28,1
160K25S3,1408,experiment,59,←,left,←,0.5117523996159434,True,28,1
160K25S3,1409,experiment,85,→,right,→,0.6787271997891366,True,28,1
160K25S3,1410,experiment,78,↑,up,↑,0.8337590997107327,True,28,1
160K25S3,1411,experiment,54,←,left,←,0.41441330034285784,True,28,1
160K25S3,1412,experiment,51,→,right,→,0.45188200008124113,True,28,1
160K25S3,1413,experiment,75,↑,up,↑,0.6647510998882353,True,28,1
160K25S3,1414,experiment,61,↓,down,↓,0.6334266001358628,True,28,1
160K25S3,1415,experiment,72,↑,up,↑,0.5042786002159119,True,28,1
160K25S3,1416,experiment,55,↓,down,↓,0.5772298998199403,True,28,1
160K25S3,1417,experiment,89,←,left,←,0.468331600073725,True,28,1
160K25S3,1418,experiment,95,↑,up,↑,0.5137125998735428,True,28,1
160K25S3,1419,experiment,58,→,right,→,0.6416813000105321,True,28,1
160K25S3,1420,experiment,74,↑,up,↑,0.5508376001380384,True,28,1
160K25S3,1421,experiment,66,→,right,→,0.4586034999229014,True,28,1
160K25S3,1422,experiment,101,↓,down,↓,0.5104713002219796,True,28,1
160K25S3,1423,experiment,81,↓,down,↓,0.5507208998315036,True,28,1
160K25S3,1424,experiment,67,↑,up,↑,0.5381853999570012,True,28,1
160K25S3,1425,experiment,73,←,left,←,0.49198769964277744,True,28,1
160K25S3,1426,experiment,86,↓,down,↓,0.68323739990592,True,28,1
160K25S3,1427,training,84,↓,down,↓,0.48123280005529523,True,28,0
160K25S3,1428,training,53,←,left,←,0.6597877000458539,True,28,1
160K25S3,1429,experiment,66,←,left,←,0.5631837998516858,True,28,1
160K25S3,1430,experiment,65,→,right,→,0.5986025999300182,True,28,1
160K25S3,1431,experiment,73,←,left,←,0.4861610000953078,True,28,1
160K25S3,1432,experiment,94,←,left,←,0.4517373996786773,True,28,1
160K25S3,1433,experiment,55,↑,up,↑,0.5664822002872825,True,28,1
160K25S3,1434,experiment,60,→,right,→,0.4675874998793006,True,28,1
160K25S3,1435,experiment,50,←,left,←,0.6399834998883307,True,28,1
160K25S3,1436,experiment,78,←,left,←,0.6281162002123892,True,28,1
160K25S3,1437,experiment,97,←,left,←,0.5543637997470796,True,28,1
160K25S3,1438,experiment,91,↑,left,←,0.5014983997680247,False,28,1
160K25S3,1439,experiment,103,↓,down,↓,0.6868559001013637,True,28,1
160K25S3,1440,experiment,72,↑,up,↑,0.7951949001289904,True,28,1
160K25S3,1441,experiment,83,←,left,←,0.4236524002626538,True,28,1
160K25S3,1442,experiment,104,←,left,←,0.5396274998784065,True,28,1
160K25S3,1443,experiment,58,←,left,←,0.4984186999499798,True,28,1
160K25S3,1444,experiment,96,←,left,←,1.6140167000703514,True,28,1
160K25S3,1445,experiment,87,↓,down,↓,0.6640629000030458,True,28,1
160K25S3,1446,experiment,85,↓,down,↓,0.5368398004211485,True,28,1
160K25S3,1447,experiment,59,↑,up,↑,0.751458799932152,True,28,1
160K25S3,1448,experiment,53,←,left,←,0.5355368996970356,True,28,1
160K25S3,1449,experiment,77,←,left,←,0.4482736997306347,True,28,1
160K25S3,1450,experiment,75,→,left,←,0.6369970999658108,False,28,1
160K25S3,1451,experiment,64,←,left,←,1.1259364001452923,True,28,1
160K25S3,1452,experiment,63,←,left,←,0.4997522998601198,True,28,1
160K25S3,1453,experiment,92,↑,up,↑,0.7528609000146389,True,28,1
160K25S3,1454,experiment,79,↓,down,↓,0.5521430997177958,True,28,1
160K25S3,1455,experiment,90,←,left,←,0.41193850012496114,True,28,1
160K25S3,1456,experiment,56,↓,up,↑,0.8003636999055743,False,28,1
160K25S3,1457,experiment,68,←,left,←,0.5614069998264313,True,28,1
160K25S3,1458,experiment,69,↓,down,↓,0.6118764001876116,True,28,1
160K25S3,1459,experiment,51,←,left,←,0.6021982003003359,True,28,1
160K25S3,1460,experiment,62,→,right,→,0.5972950998693705,True,28,1
160K25S3,1461,experiment,98,↑,up,↑,0.7484820000827312,True,28,1
160K25S3,1462,experiment,100,↓,down,↓,0.5807717000134289,True,28,1
160K25S3,1463,experiment,107,↑,up,↑,0.8733527003787458,True,28,1
160K25S3,1464,experiment,80,↓,down,↓,0.691332200076431,True,28,1
160K25S3,1465,experiment,52,↑,up,↑,0.8620927999727428,True,28,1
160K25S3,1466,experiment,74,→,right,→,0.5955610000528395,True,28,1
160K25S3,1467,experiment,102,↑,up,↑,0.6808653003536165,True,28,1
160K25S3,1468,experiment,86,→,right,→,0.4405501000583172,True,28,1
160K25S3,1469,experiment,84,→,right,→,0.49864300014451146,True,28,1
160K25S3,1470,experiment,61,←,left,←,0.4342868998646736,True,28,1
160K25S3,1471,experiment,108,↓,down,↓,0.6765232002362609,True,28,1
160K25S3,1472,experiment,67,←,left,←,0.5230243001133204,True,28,1
160K25S3,1473,experiment,89,↓,down,↓,0.4958509998396039,True,28,1
160K25S3,1474,experiment,93,←,left,←,0.6285628001205623,True,28,1
160K25S3,1475,experiment,99,←,left,←,0.5303356000222266,True,28,1
160K25S3,1476,experiment,49,→,right,→,0.8043411998078227,True,28,1
160K25S3,1477,experiment,81,↓,down,↓,0.5207640002481639,True,28,1
160K25S3,1478,experiment,54,↑,up,↑,0.7616122998297215,True,28,1
160K25S3,1479,experiment,76,↑,up,↑,0.6655973996967077,True,28,1
160K25S3,1480,experiment,88,↑,up,↑,0.6094320002011955,True,28,1
160K25S3,1481,experiment,101,↑,up,↑,0.830953000113368,True,28,1
160K25S3,1482,experiment,82,→,right,→,0.6179546997882426,True,28,1
160K25S3,1483,experiment,95,↓,down,↓,0.4973909999243915,True,28,1
160K25S3,1484,experiment,71,↑,up,↑,0.7895029000937939,True,28,1
160K25S3,1485,experiment,57,←,left,←,0.4345317999832332,True,28,1
160K25S3,1486,experiment,48,↑,up,↑,0.6490180999971926,True,28,1
