PART_ID,Trial_no,Trial_type,CSI,Stim_letter,Key_pressed,letter_choose,Rt,Corr,Stimulus Time,nDropped
160K25S4,1,training,120,→,right,→,0.3850711998529732,True,60,0
160K25S4,2,training,120,↑,up,↑,0.5519885001704097,True,60,0
160K25S4,3,training,120,←,left,←,0.4434807002544403,True,60,0
160K25S4,4,training,120,→,right,→,0.4601973998360336,True,60,0
160K25S4,5,training,120,←,left,←,0.36024439986795187,True,60,0
160K25S4,6,training,120,↓,down,↓,0.5837479997426271,True,60,0
160K25S4,7,training,120,→,right,→,0.5851481002755463,True,60,0
160K25S4,8,training,120,↑,up,↑,0.4101490997709334,True,60,0
160K25S4,9,training,120,↓,down,↓,0.4436169001273811,True,60,0
160K25S4,10,training,120,↑,up,↑,0.41018460039049387,True,60,0
160K25S4,11,training,120,↓,down,↓,0.49238619999960065,True,60,0
160K25S4,12,training,120,↑,up,↑,0.42691020015627146,True,60,0
160K25S4,13,training,120,→,right,→,0.4265438001602888,True,60,0
160K25S4,14,training,120,←,left,←,0.43525739992037416,True,60,0
160K25S4,15,training,120,←,left,←,0.5007696999236941,True,60,0
160K25S4,16,training,120,↑,up,↑,0.47683929977938533,True,60,0
160K25S4,17,training,120,→,right,→,0.5501096001826227,True,60,0
160K25S4,18,training,120,↑,up,↑,0.5924676996655762,True,60,0
160K25S4,19,training,120,↓,down,↓,0.5171966003254056,True,60,0
160K25S4,20,training,120,→,right,→,0.4352225000038743,True,60,0
160K25S4,21,no_adaptation,120,↑,up,↑,0.6465708999894559,True,36,0
160K25S4,22,no_adaptation,120,↑,up,↑,0.5797258000820875,True,36,0
160K25S4,23,no_adaptation,120,←,left,←,0.627934199757874,True,36,0
160K25S4,24,no_adaptation,120,→,right,→,0.35910889972001314,True,36,0
160K25S4,25,no_adaptation,120,→,right,→,0.5619251998141408,True,36,0
160K25S4,26,no_adaptation,120,↓,down,↓,0.4828166998922825,True,36,0
160K25S4,27,no_adaptation,120,→,right,→,0.3756742002442479,True,36,0
160K25S4,28,no_adaptation,120,↓,down,↓,0.6222649998962879,True,36,0
160K25S4,29,no_adaptation,120,↑,up,↑,0.7641165000386536,True,36,0
160K25S4,30,no_adaptation,120,→,right,→,0.38409109972417355,True,36,0
160K25S4,31,no_adaptation,120,→,right,→,0.3758120001293719,True,36,0
160K25S4,32,no_adaptation,120,↓,down,↓,0.6679891999810934,True,36,0
160K25S4,33,no_adaptation,120,→,right,→,0.47314060013741255,True,36,0
160K25S4,34,no_adaptation,120,←,left,←,0.3590926001779735,True,36,0
160K25S4,35,no_adaptation,120,↑,up,↑,0.813035300001502,True,36,0
160K25S4,36,no_adaptation,120,↑,up,↑,0.6275402996689081,True,36,0
160K25S4,37,no_adaptation,120,←,left,←,0.47383589996024966,True,36,0
160K25S4,38,no_adaptation,120,↑,up,↑,0.8852423001080751,True,36,0
160K25S4,39,no_adaptation,120,↓,down,↓,0.6329998001456261,True,36,0
160K25S4,40,no_adaptation,120,↓,down,↓,0.7508813999593258,True,36,0
160K25S4,41,training,80,↓,down,↓,0.4506545001640916,True,36,0
160K25S4,42,training,108,↑,up,↑,0.5008906000293791,True,36,0
160K25S4,43,experiment,92,←,left,←,0.5778916999697685,True,36,1
160K25S4,44,experiment,67,←,left,←,0.5242647002451122,True,36,1
160K25S4,45,experiment,76,→,right,→,0.45067449985072017,True,36,1
160K25S4,46,experiment,56,←,left,←,0.6085748998448253,True,36,0
160K25S4,47,experiment,52,↑,up,↑,0.550607499666512,True,36,1
160K25S4,48,experiment,54,←,left,←,0.4709612000733614,True,36,1
160K25S4,49,experiment,96,↓,down,↓,0.4990929998457432,True,36,0
160K25S4,50,experiment,78,→,right,→,0.6448142998851836,True,36,1
160K25S4,51,experiment,69,↑,up,↑,0.5878837001509964,True,36,1
160K25S4,52,experiment,51,→,right,→,0.4507921999320388,True,36,1
160K25S4,53,experiment,73,↓,down,↓,0.48044689977541566,True,36,0
160K25S4,54,experiment,62,→,right,→,0.5597744998522103,True,36,1
160K25S4,55,experiment,72,↓,down,↓,0.6413064999505877,True,36,1
160K25S4,56,experiment,104,←,left,←,0.39215700002387166,True,36,1
160K25S4,57,experiment,90,→,right,→,0.450772600248456,True,36,0
160K25S4,58,experiment,95,→,right,→,0.5400391002185643,True,36,0
160K25S4,59,experiment,98,↑,up,↑,0.957406900357455,True,36,1
160K25S4,60,experiment,49,←,left,←,0.40913339983671904,True,36,1
160K25S4,61,experiment,82,↑,up,↑,0.7222360000014305,True,36,0
160K25S4,62,experiment,107,←,left,←,0.4088667999021709,True,36,1
160K25S4,63,experiment,101,↑,up,↑,0.6705622998997569,True,36,0
160K25S4,64,experiment,87,↑,up,↑,0.6387014999054372,True,36,1
160K25S4,65,experiment,77,↑,up,↑,0.5229968000203371,True,36,1
160K25S4,66,experiment,79,←,left,←,0.6274666003882885,True,36,1
160K25S4,67,experiment,50,←,left,←,0.4174373997375369,True,36,1
160K25S4,68,experiment,83,←,left,←,0.5326163000427186,True,36,0
160K25S4,69,experiment,60,←,left,←,0.3922792002558708,True,36,1
160K25S4,70,experiment,81,↓,down,↓,0.7278680000454187,True,36,0
160K25S4,71,experiment,97,↓,down,↓,0.6341808000579476,True,36,1
160K25S4,72,experiment,59,→,right,→,0.6288866000249982,True,36,1
160K25S4,73,experiment,88,↓,down,↓,0.47051419969648123,True,36,1
160K25S4,74,experiment,48,←,left,←,0.6666661999188364,True,36,0
160K25S4,75,experiment,84,←,left,←,0.6037102001719177,True,36,1
160K25S4,76,experiment,80,←,left,←,0.42584370030090213,True,36,1
160K25S4,77,experiment,70,↓,down,↓,0.49596149986609817,True,36,0
160K25S4,78,experiment,53,↑,up,↑,0.6180420001037419,True,36,1
160K25S4,79,experiment,89,↑,up,↑,0.6513315001502633,True,36,1
160K25S4,80,experiment,74,→,right,→,0.4729293999262154,True,36,1
160K25S4,81,experiment,102,↑,up,↑,0.6113228001631796,True,36,1
160K25S4,82,experiment,75,↓,down,↓,0.4741349001415074,True,36,1
160K25S4,83,experiment,103,→,right,→,0.6201733001507819,True,36,1
160K25S4,84,experiment,63,↑,up,↑,0.7656163000501692,True,36,1
160K25S4,85,experiment,61,↑,up,↑,0.7304173000156879,True,36,1
160K25S4,86,experiment,99,↑,up,↑,0.7076098998077214,True,36,1
160K25S4,87,experiment,55,↑,up,↑,0.6769103002734482,True,36,1
160K25S4,88,experiment,91,↑,up,↑,0.8913963995873928,True,36,1
160K25S4,89,experiment,85,↓,down,↓,0.49091590009629726,True,36,1
160K25S4,90,experiment,65,←,left,←,0.5772706000134349,True,36,1
160K25S4,91,experiment,64,↓,down,↓,0.6847214000299573,True,36,1
160K25S4,92,experiment,94,←,left,←,0.4509485997259617,True,36,1
160K25S4,93,experiment,66,↑,up,↑,0.6172313997521996,True,36,0
160K25S4,94,experiment,58,↓,down,↓,0.5008876998908818,True,36,1
160K25S4,95,experiment,57,↓,down,↓,0.5177446999587119,True,36,1
160K25S4,96,experiment,100,←,left,←,0.47979989973828197,True,36,1
160K25S4,97,experiment,105,←,left,←,0.3840763997286558,True,36,1
160K25S4,98,experiment,68,↑,up,↑,0.8341558999381959,True,36,0
160K25S4,99,experiment,71,↑,up,↑,0.7688878001645207,True,36,1
160K25S4,100,experiment,108,→,right,→,0.470460900105536,True,36,1
160K25S4,101,experiment,106,↑,up,↑,0.6632333998568356,True,36,0
160K25S4,102,experiment,93,→,right,→,0.5091577996499836,True,36,1
160K25S4,103,experiment,86,↓,down,↓,0.6999829998239875,True,36,1
160K25S4,104,training,73,↓,down,↓,0.6108045000582933,True,35,0
160K25S4,105,training,90,↓,down,↓,1.3239233996719122,True,35,1
160K25S4,106,experiment,87,↓,down,↓,0.48964899964630604,True,35,1
160K25S4,107,experiment,67,↑,up,↑,0.5673858998343349,True,35,1
160K25S4,108,experiment,51,←,left,←,1.0555552998557687,True,35,1
160K25S4,109,experiment,88,↑,up,↑,0.6235392997041345,True,35,1
160K25S4,110,experiment,98,→,right,→,0.7014724998734891,True,35,1
160K25S4,111,experiment,54,↓,down,↓,0.6394604998640716,True,35,1
160K25S4,112,experiment,65,←,left,←,0.6076401001773775,True,35,1
160K25S4,113,experiment,107,↑,up,↑,0.7713880999945104,True,35,1
160K25S4,114,experiment,108,↑,up,↑,0.6324018002487719,True,35,1
160K25S4,115,experiment,80,↑,up,↑,0.6760110999457538,True,35,1
160K25S4,116,experiment,89,↑,up,↑,0.715064899995923,True,35,1
160K25S4,117,experiment,97,←,left,←,0.5740201999433339,True,35,1
160K25S4,118,experiment,82,↑,up,↑,0.8831318002194166,True,35,1
160K25S4,119,experiment,92,↓,down,↓,0.4968976001255214,True,35,1
160K25S4,120,experiment,55,↑,up,↑,0.6502419002354145,True,35,1
160K25S4,121,experiment,94,↓,down,↓,0.4809333998709917,True,35,1
160K25S4,122,experiment,52,→,right,→,0.7397853997536004,True,35,1
160K25S4,123,experiment,83,→,right,→,0.5302375997416675,True,35,1
160K25S4,124,experiment,86,→,right,→,0.6158349998295307,True,35,1
160K25S4,125,experiment,90,→,right,→,0.5929040000773966,True,35,1
160K25S4,126,experiment,74,↑,up,↑,0.776312000118196,True,35,1
160K25S4,127,experiment,69,→,right,→,0.561967299785465,True,35,1
160K25S4,128,experiment,95,↑,up,↑,0.8436313001438975,True,35,1
160K25S4,129,experiment,73,←,left,←,0.6334514999762177,True,35,1
160K25S4,130,experiment,105,→,right,→,0.6527336998842657,True,35,1
160K25S4,131,experiment,56,←,left,←,0.583876000251621,True,35,1
160K25S4,132,experiment,101,↑,up,↑,0.6944940001703799,True,35,1
160K25S4,133,experiment,104,←,left,←,0.5600256999023259,True,35,1
160K25S4,134,experiment,77,←,left,←,1.159436000045389,True,35,1
160K25S4,135,experiment,57,↓,down,↓,0.5019868998788297,True,35,1
160K25S4,136,experiment,48,→,right,→,0.4977167001925409,True,35,1
160K25S4,137,experiment,81,←,left,←,0.4826649003662169,True,35,1
160K25S4,138,experiment,58,→,right,→,0.5475642997771502,True,35,1
160K25S4,139,experiment,75,↓,down,↓,0.6922865002416074,True,35,1
160K25S4,140,experiment,70,↓,down,↓,0.6330360001884401,True,35,1
160K25S4,141,experiment,96,←,left,←,0.575365399941802,True,35,1
160K25S4,142,experiment,59,→,right,→,0.6604160997085273,True,35,1
160K25S4,143,experiment,103,←,left,←,0.5514905001036823,True,35,1
160K25S4,144,experiment,79,←,left,←,0.5588406999595463,True,35,1
160K25S4,145,experiment,76,↓,down,↓,0.471422600094229,True,35,1
160K25S4,146,experiment,91,→,right,→,0.5653281002305448,True,35,1
160K25S4,147,experiment,62,←,left,←,0.5458307997323573,True,35,1
160K25S4,148,experiment,85,↓,down,↓,0.7031251997686923,True,35,1
160K25S4,149,experiment,93,↑,up,↑,0.6997849000617862,True,35,1
160K25S4,150,experiment,106,↓,down,↓,0.5161494999192655,True,35,1
160K25S4,151,experiment,68,←,left,←,0.5125975999981165,True,35,1
160K25S4,152,experiment,78,↓,down,↓,0.585782699752599,True,35,1
160K25S4,153,experiment,49,←,left,←,0.5697933998890221,True,35,1
160K25S4,154,experiment,66,←,left,←,0.5087776998989284,True,35,1
160K25S4,155,experiment,60,↓,down,↓,0.5005105002783239,True,35,1
160K25S4,156,experiment,102,↑,up,↑,0.8140354002825916,True,35,1
160K25S4,157,experiment,71,←,left,←,0.6453685001470149,True,35,1
160K25S4,158,experiment,53,→,right,→,0.6018185000866652,True,35,1
160K25S4,159,experiment,61,↑,up,↑,0.6451783999800682,True,35,1
160K25S4,160,experiment,63,↑,up,↑,0.8302178997546434,True,35,1
160K25S4,161,experiment,84,↓,down,↓,0.5125939999707043,True,35,1
160K25S4,162,experiment,64,←,left,←,0.5983624001964927,True,35,1
160K25S4,163,experiment,50,↓,down,↓,0.47010000003501773,True,35,1
160K25S4,164,experiment,100,←,left,←,0.5448323003947735,True,35,1
160K25S4,165,experiment,99,↓,down,↓,0.6338889002799988,True,35,1
160K25S4,166,experiment,72,→,right,→,0.6482410999014974,True,35,1
160K25S4,167,training,87,←,left,←,0.4644867000170052,True,34,0
160K25S4,168,training,61,↓,down,↓,0.5848113996908069,True,34,1
160K25S4,169,experiment,88,↓,down,↓,0.619822199922055,True,34,1
160K25S4,170,experiment,57,↑,up,↑,0.6238533002324402,True,34,1
160K25S4,171,experiment,83,→,right,→,0.45946509996429086,True,34,1
160K25S4,172,experiment,65,→,right,→,0.4751164000481367,True,34,1
160K25S4,173,experiment,60,↑,up,↑,0.619667099788785,True,34,1
160K25S4,174,experiment,51,←,left,←,0.4658551001921296,True,34,1
160K25S4,175,experiment,84,↑,up,↑,0.6347981002181768,True,34,1
160K25S4,176,experiment,82,←,left,←,0.6376963998191059,True,34,1
160K25S4,177,experiment,56,↓,down,↓,0.5451512997969985,True,34,1
160K25S4,178,experiment,69,↓,down,↓,0.6282198000699282,True,34,1
160K25S4,179,experiment,90,←,left,←,0.45351359993219376,True,34,1
160K25S4,180,experiment,105,←,left,←,0.5672809001989663,True,34,0
160K25S4,181,experiment,76,↑,up,↑,0.6550801997072995,True,34,1
160K25S4,182,experiment,52,↑,up,↑,0.8190470999106765,True,34,1
160K25S4,183,experiment,96,→,right,→,0.6340771000832319,True,34,1
160K25S4,184,experiment,67,→,right,→,0.5462146000936627,True,34,1
160K25S4,185,experiment,68,→,right,→,0.5337331998161972,True,34,1
160K25S4,186,experiment,95,↑,up,↑,0.8163211001083255,True,34,1
160K25S4,187,experiment,99,←,left,←,0.6385470000095665,True,34,1
160K25S4,188,experiment,72,→,right,→,0.6045403000898659,True,34,1
160K25S4,189,experiment,79,←,left,←,0.569442099891603,True,34,1
160K25S4,190,experiment,50,↑,up,↑,0.7140290001407266,True,34,1
160K25S4,191,experiment,77,→,right,→,1.2111370996572077,True,34,1
160K25S4,192,experiment,103,↓,down,↓,0.4721623999066651,True,34,1
160K25S4,193,experiment,101,→,right,→,0.5313013000413775,True,34,1
160K25S4,194,experiment,85,←,left,←,0.6252793003804982,True,34,1
160K25S4,195,experiment,97,→,right,→,0.41729569993913174,True,34,1
160K25S4,196,experiment,54,↑,up,↑,0.6604491001926363,True,34,0
160K25S4,197,experiment,98,↑,up,↑,0.8091597999446094,True,34,1
160K25S4,198,experiment,78,←,left,←,0.478596200235188,True,34,1
160K25S4,199,experiment,48,→,right,→,0.46713569993153214,True,34,1
160K25S4,200,experiment,92,←,left,←,0.46577180037274957,True,34,1
160K25S4,201,experiment,61,↑,up,↑,0.7060656999237835,True,34,1
160K25S4,202,experiment,71,↓,down,↓,0.5738693000748754,True,34,1
160K25S4,203,experiment,86,→,right,→,0.48191859992221,True,34,1
160K25S4,204,experiment,70,→,right,→,0.6870702002197504,True,34,1
160K25S4,205,experiment,106,←,left,←,0.5759533997625113,True,34,1
160K25S4,206,experiment,104,↑,up,↑,0.6781540000811219,True,34,1
160K25S4,207,experiment,74,→,right,→,1.0499108000658453,True,34,1
160K25S4,208,experiment,64,↓,down,↓,0.6824651998467743,True,34,1
160K25S4,209,experiment,100,↑,up,↑,0.8134065000340343,True,34,1
160K25S4,210,experiment,102,↑,up,↑,0.7783925998955965,True,34,1
160K25S4,211,experiment,94,↑,up,↑,0.6358237997628748,True,34,1
160K25S4,212,experiment,73,↑,up,↑,0.8337866999208927,True,34,1
160K25S4,213,experiment,63,↓,down,↓,0.7151486002840102,True,34,1
160K25S4,214,experiment,87,←,left,←,0.5212038001045585,True,34,1
160K25S4,215,experiment,55,←,left,←,0.5621730000711977,True,34,1
160K25S4,216,experiment,58,↓,down,↓,0.6161275999620557,True,34,1
160K25S4,217,experiment,80,↓,down,↓,0.6205299999564886,True,34,1
160K25S4,218,experiment,59,←,left,←,0.735890899784863,True,34,1
160K25S4,219,experiment,89,↓,down,↓,0.5726088001392782,True,34,1
160K25S4,220,experiment,108,↓,down,↓,0.5612449003383517,True,34,1
160K25S4,221,experiment,62,↓,down,↓,0.4780343002639711,True,34,1
160K25S4,222,experiment,81,↑,up,↑,0.8877110998146236,True,34,1
160K25S4,223,experiment,49,→,right,→,0.6355046001262963,True,34,1
160K25S4,224,experiment,93,↓,down,↓,0.48281130008399487,True,34,1
160K25S4,225,experiment,75,↓,down,↓,0.5102697000838816,True,34,1
160K25S4,226,experiment,66,→,right,→,0.6281795999966562,True,34,1
160K25S4,227,experiment,91,↓,down,↓,0.5161417997442186,True,34,1
160K25S4,228,experiment,107,→,right,→,0.5394060998223722,True,34,1
160K25S4,229,experiment,53,↑,up,↑,0.6119634001515806,True,34,1
160K25S4,230,training,48,↓,down,↓,0.5729936002753675,True,33,0
160K25S4,231,training,100,↓,down,↓,1.1482759998179972,True,33,1
160K25S4,232,experiment,107,→,right,→,0.4743915996514261,True,33,1
160K25S4,233,experiment,97,←,left,←,0.4550179000943899,True,33,1
160K25S4,234,experiment,54,→,right,→,1.010047999676317,True,33,1
160K25S4,235,experiment,77,←,left,←,0.5758472001180053,True,33,1
160K25S4,236,experiment,102,↑,up,↑,0.798541400115937,True,33,1
160K25S4,237,experiment,50,→,right,→,0.46186829963698983,True,33,1
160K25S4,238,experiment,62,←,left,←,0.49406890012323856,True,33,1
160K25S4,239,experiment,52,←,left,←,0.7529603000730276,True,33,1
160K25S4,240,experiment,84,↓,down,↓,0.6464087003841996,True,33,1
160K25S4,241,experiment,83,↑,up,↑,0.728439100086689,True,33,1
160K25S4,242,experiment,60,←,left,←,0.5352235999889672,True,33,1
160K25S4,243,experiment,90,→,right,→,0.5716389999724925,True,33,1
160K25S4,244,experiment,89,↓,down,↓,0.6386388000100851,True,33,1
160K25S4,245,experiment,59,←,left,←,0.48115089954808354,True,33,1
160K25S4,246,experiment,88,↑,up,↑,0.848307800013572,True,33,1
160K25S4,247,experiment,56,↓,down,↓,0.46727100014686584,True,33,1
160K25S4,248,experiment,71,←,left,←,0.46467959973961115,True,33,1
160K25S4,249,experiment,53,↓,down,↓,0.6520138001069427,True,33,1
160K25S4,250,experiment,99,↓,down,↓,0.4727965001948178,True,33,1
160K25S4,251,experiment,85,↑,up,↑,0.737183699849993,True,33,1
160K25S4,252,experiment,106,←,left,←,0.38513970002532005,True,33,1
160K25S4,253,experiment,98,←,left,←,0.7111854003742337,True,33,0
160K25S4,254,experiment,75,↑,up,↑,0.721550399903208,True,33,1
160K25S4,255,experiment,104,→,right,→,0.7215919001027942,True,33,1
160K25S4,256,experiment,79,→,right,→,1.0982531998306513,True,33,1
160K25S4,257,experiment,92,→,right,→,0.4556192997843027,True,33,1
160K25S4,258,experiment,57,→,right,→,0.40903350012376904,True,33,1
160K25S4,259,experiment,101,↑,up,↑,0.6471255999058485,True,33,0
160K25S4,260,experiment,81,←,left,←,0.5698214001022279,True,33,1
160K25S4,261,experiment,86,←,left,←,0.5022022998891771,True,33,1
160K25S4,262,experiment,91,→,right,→,0.5715769999660552,True,33,1
160K25S4,263,experiment,65,→,right,→,0.6066500996239483,True,33,1
160K25S4,264,experiment,63,↓,down,↓,0.4730273997411132,True,33,1
160K25S4,265,experiment,61,←,left,←,0.6015270003117621,True,33,1
160K25S4,266,experiment,94,→,right,→,0.6578501001931727,True,33,1
160K25S4,267,experiment,76,↓,down,↓,0.5019505997188389,True,33,1
160K25S4,268,experiment,105,←,left,←,0.6386359999887645,True,33,1
160K25S4,269,experiment,74,↑,up,↑,0.8680902998894453,True,33,1
160K25S4,270,experiment,93,↑,up,↑,0.8259315001778305,True,33,1
160K25S4,271,experiment,100,→,right,→,0.703501199837774,True,33,1
160K25S4,272,experiment,95,←,left,←,0.7953745000995696,True,33,1
160K25S4,273,experiment,66,↓,down,↓,0.5093908002600074,True,33,1
160K25S4,274,experiment,49,←,left,←,0.512665799818933,True,33,1
160K25S4,275,experiment,58,←,left,←,0.6885748999193311,True,33,1
160K25S4,276,experiment,48,↓,down,↓,0.6127786999568343,True,33,1
160K25S4,277,experiment,82,→,right,→,0.8805060000158846,True,33,1
160K25S4,278,experiment,70,↓,down,↓,0.6217422001063824,True,33,1
160K25S4,279,experiment,51,↓,down,↓,0.66722820000723,True,33,1
160K25S4,280,experiment,55,→,right,→,0.5500258998945355,True,33,1
160K25S4,281,experiment,67,→,right,→,0.44989460008218884,True,33,1
160K25S4,282,experiment,73,↑,up,↑,0.5584245999343693,True,33,1
160K25S4,283,experiment,108,↓,down,↓,0.4524106001481414,True,33,1
160K25S4,284,experiment,103,←,left,←,0.9827820002101362,True,33,1
160K25S4,285,experiment,87,→,right,→,0.6901652002707124,True,33,1
160K25S4,286,experiment,64,→,right,→,0.7368593998253345,True,33,1
160K25S4,287,experiment,69,↑,up,↑,0.6203465000726283,True,33,1
160K25S4,288,experiment,72,→,right,→,0.48338190000504255,True,33,1
160K25S4,289,experiment,78,↓,down,↓,0.4778303001075983,True,33,1
160K25S4,290,experiment,68,↑,up,↑,0.7480856999754906,True,33,1
160K25S4,291,experiment,96,↑,up,↑,0.6295129000209272,True,33,1
160K25S4,292,experiment,80,↑,up,↑,0.7056354996748269,True,33,1
160K25S4,293,training,75,↑,up,↑,0.70197459962219,True,32,0
160K25S4,294,training,98,↓,down,↓,0.49704180005937815,True,32,1
160K25S4,295,experiment,62,←,left,←,0.9439906999468803,True,32,1
160K25S4,296,experiment,80,→,right,→,0.4556044000200927,True,32,1
160K25S4,297,experiment,55,↓,down,↓,0.6746581001207232,True,32,1
160K25S4,298,experiment,101,←,left,←,0.4855485996231437,True,32,1
160K25S4,299,experiment,91,↓,down,↓,0.49162180023267865,True,32,1
160K25S4,300,experiment,96,↓,down,↓,0.7036742996424437,True,32,1
160K25S4,301,experiment,66,↓,down,↓,0.6213721996173263,True,32,1
160K25S4,302,experiment,90,↑,up,↑,0.6702519999817014,True,32,1
160K25S4,303,experiment,60,↑,up,↑,0.8152659996412694,True,32,1
160K25S4,304,experiment,104,→,right,→,0.6834970000199974,True,32,1
160K25S4,305,experiment,70,→,right,→,0.4806288997642696,True,32,1
160K25S4,306,experiment,54,↑,up,↑,0.8190907002426684,True,32,1
160K25S4,307,experiment,79,→,right,→,0.7596688000485301,True,32,1
160K25S4,308,experiment,73,→,right,→,0.4807489002123475,True,32,1
160K25S4,309,experiment,69,↑,up,↑,0.7022184999659657,True,32,1
160K25S4,310,experiment,106,↑,up,↑,0.6065010000020266,True,32,1
160K25S4,311,experiment,51,→,right,→,0.46095750015228987,True,32,1
160K25S4,312,experiment,84,↓,down,↓,0.7264328999444842,True,32,1
160K25S4,313,experiment,105,↓,down,↓,0.47801350010558963,True,32,1
160K25S4,314,experiment,93,↑,up,↑,0.6757344999350607,True,32,1
160K25S4,315,experiment,61,→,right,→,0.6281154998578131,True,32,1
160K25S4,316,experiment,89,↓,down,↓,0.45333700021728873,True,32,1
160K25S4,317,experiment,63,←,left,←,0.9655804997310042,True,32,1
160K25S4,318,experiment,50,↓,down,↓,0.6299622002989054,True,32,1
160K25S4,319,experiment,56,←,left,←,0.6898018000647426,True,32,1
160K25S4,320,experiment,59,→,right,→,0.7701412001624703,True,32,1
160K25S4,321,experiment,68,←,left,←,0.4925138996914029,True,32,1
160K25S4,322,experiment,92,↑,up,↑,0.8260936997830868,True,32,1
160K25S4,323,experiment,83,→,right,→,0.5329449996352196,True,32,1
160K25S4,324,experiment,53,↑,up,↑,0.7736577000468969,True,32,1
160K25S4,325,experiment,74,←,left,←,0.4617865001782775,True,32,1
160K25S4,326,experiment,88,←,left,←,0.5578602999448776,True,32,1
160K25S4,327,experiment,72,↑,up,↑,0.7994005996733904,True,32,1
160K25S4,328,experiment,81,→,right,→,0.9799715001136065,True,32,1
160K25S4,329,experiment,100,↓,down,↓,0.49092529993504286,True,32,1
160K25S4,330,experiment,58,↑,up,↑,0.7235925002023578,True,32,1
160K25S4,331,experiment,103,←,left,←,0.5001877998001873,True,32,1
160K25S4,332,experiment,48,←,left,←,0.3589230002835393,True,32,1
160K25S4,333,experiment,87,↑,up,↑,0.787805899977684,True,32,0
160K25S4,334,experiment,108,←,left,←,0.7438527997583151,True,32,1
160K25S4,335,experiment,67,↑,up,↑,0.7637388003058732,True,32,1
160K25S4,336,experiment,97,↓,down,↓,0.6922760000452399,True,32,1
160K25S4,337,experiment,65,↓,down,↓,0.6585939996875823,True,32,1
160K25S4,338,experiment,107,→,right,→,0.4174218000844121,True,32,1
160K25S4,339,experiment,75,↑,up,↑,0.7382100000977516,True,32,0
160K25S4,340,experiment,78,→,right,→,0.9380347998812795,True,32,1
160K25S4,341,experiment,85,→,right,→,0.7520976001396775,True,32,1
160K25S4,342,experiment,98,↓,down,↓,0.489098499994725,True,32,1
160K25S4,343,experiment,76,→,right,→,0.8039933000691235,True,32,1
160K25S4,344,experiment,99,↑,up,↑,0.8985695000737906,True,32,1
160K25S4,345,experiment,77,→,right,→,0.7405213001184165,True,32,1
160K25S4,346,experiment,64,→,right,→,0.7452166001312435,True,32,1
160K25S4,347,experiment,82,↑,up,↑,0.8639872996136546,True,32,1
160K25S4,348,experiment,86,↓,down,↓,0.7442815001122653,True,32,1
160K25S4,349,experiment,71,←,left,←,0.47490990022197366,True,32,1
160K25S4,350,experiment,94,←,left,←,0.48872629972174764,True,32,1
160K25S4,351,experiment,57,↑,up,↑,0.9371717995963991,True,32,1
160K25S4,352,experiment,49,→,right,→,0.8193985000252724,True,32,1
160K25S4,353,experiment,52,↑,up,↑,0.8089491999708116,True,32,1
160K25S4,354,experiment,102,↓,down,↓,0.7743166000582278,True,32,1
160K25S4,355,experiment,95,↑,up,↑,0.6073440997861326,True,32,1
160K25S4,356,training,68,↑,up,↑,0.4352096002548933,True,31,0
160K25S4,357,training,77,←,left,←,0.6555841998197138,True,31,1
160K25S4,358,experiment,77,↑,up,↑,0.7151717999950051,True,31,1
160K25S4,359,experiment,75,↓,down,↓,0.49317430006340146,True,31,1
160K25S4,360,experiment,58,↓,down,↓,0.646164100151509,True,31,1
160K25S4,361,experiment,108,←,left,←,0.495686300098896,True,31,1
160K25S4,362,experiment,87,←,left,←,0.7506752000190318,True,31,1
160K25S4,363,experiment,71,↓,down,↓,0.5127075999043882,True,31,1
160K25S4,364,experiment,53,→,right,→,0.4982929998077452,True,31,1
160K25S4,365,experiment,73,←,left,←,0.7096191998571157,True,31,1
160K25S4,366,experiment,78,←,left,←,0.7189730000682175,True,31,1
160K25S4,367,experiment,104,←,left,←,1.071242599748075,True,31,1
160K25S4,368,experiment,76,↑,up,↑,0.7706575002521276,True,31,1
160K25S4,369,experiment,86,↑,up,↑,0.5910227000713348,True,31,1
160K25S4,370,experiment,98,↑,up,↑,0.6063561998307705,True,31,1
160K25S4,371,experiment,60,↓,down,↓,0.7058792999014258,True,31,1
160K25S4,372,experiment,66,←,left,←,0.7113622999750078,True,31,1
160K25S4,373,experiment,94,↑,up,↑,0.7633160999976099,True,31,1
160K25S4,374,experiment,81,→,right,→,0.8172134002670646,True,31,1
160K25S4,375,experiment,103,↑,up,↑,0.614026500377804,True,31,1
160K25S4,376,experiment,101,↑,up,↑,0.8833117000758648,True,31,1
160K25S4,377,experiment,68,←,left,←,1.2089265999384224,True,31,1
160K25S4,378,experiment,83,↓,down,↓,0.5965575999580324,True,31,1
160K25S4,379,experiment,69,↓,down,↓,0.7096636998467147,True,31,1
160K25S4,380,experiment,64,↓,down,↓,0.5477784001268446,True,31,1
160K25S4,381,experiment,95,↓,down,↓,0.5416916999965906,True,31,1
160K25S4,382,experiment,56,↓,down,↓,0.5331723997369409,True,31,1
160K25S4,383,experiment,100,→,right,→,0.5182527997530997,True,31,1
160K25S4,384,experiment,96,←,left,←,0.49729249998927116,True,31,1
160K25S4,385,experiment,52,↓,down,↓,0.5077355001121759,True,31,1
160K25S4,386,experiment,62,→,right,→,0.5065248999744654,True,31,1
160K25S4,387,experiment,59,↑,up,↑,0.7942375000566244,True,31,1
160K25S4,388,experiment,85,←,left,←,0.7419198001734912,True,31,1
160K25S4,389,experiment,90,↑,up,↑,0.6899243001826108,True,31,1
160K25S4,390,experiment,54,←,left,←,0.7960375002585351,True,31,1
160K25S4,391,experiment,106,←,left,←,0.7371266996487975,True,31,1
160K25S4,392,experiment,79,↓,down,↓,0.6806303998455405,True,31,1
160K25S4,393,experiment,88,↓,down,↓,0.7037239000201225,True,31,1
160K25S4,394,experiment,93,←,left,←,0.7484154999256134,True,31,1
160K25S4,395,experiment,63,←,left,←,0.4492426998913288,True,31,1
160K25S4,396,experiment,67,↑,up,↑,0.7927184998989105,True,31,1
160K25S4,397,experiment,74,↑,up,↑,0.6479691001586616,True,31,1
160K25S4,398,experiment,61,↓,down,↓,0.6333554997108877,True,31,1
160K25S4,399,experiment,72,←,left,←,0.45576140005141497,True,31,1
160K25S4,400,experiment,84,↓,down,↓,0.6651512999087572,True,31,1
160K25S4,401,experiment,105,↑,up,↑,0.5872418996877968,True,31,1
160K25S4,402,experiment,48,→,right,→,0.45925650000572205,True,31,1
160K25S4,403,experiment,80,←,left,←,0.7741367002017796,True,31,1
160K25S4,404,experiment,92,↓,down,↓,0.6081158998422325,True,31,1
160K25S4,405,experiment,57,→,right,→,0.5085223000496626,True,31,1
160K25S4,406,experiment,50,→,right,→,0.7831969000399113,True,31,1
160K25S4,407,experiment,51,↓,down,↓,0.5026660999283195,True,31,1
160K25S4,408,experiment,91,↑,up,↑,0.8200159999541938,True,31,1
160K25S4,409,experiment,99,↓,down,↓,0.6259858002886176,True,31,1
160K25S4,410,experiment,107,↓,down,↓,0.7009955998510122,True,31,1
160K25S4,411,experiment,97,↓,down,↓,0.5604628999717534,True,31,1
160K25S4,412,experiment,70,←,left,←,0.7064569001086056,True,31,1
160K25S4,413,experiment,102,←,left,←,0.7558530997484922,True,31,1
160K25S4,414,experiment,49,↑,up,↑,0.7888928996399045,True,31,1
160K25S4,415,experiment,65,↓,down,↓,0.599408000241965,True,31,1
160K25S4,416,experiment,82,↓,down,↓,0.7318535000085831,True,31,1
160K25S4,417,experiment,89,←,left,←,0.7604094003327191,True,31,1
160K25S4,418,experiment,55,↓,down,↓,0.687391399871558,True,31,1
160K25S4,419,training,71,↓,down,↓,0.6115052998065948,True,30,0
160K25S4,420,training,79,→,right,→,0.7926061996258795,True,30,1
160K25S4,421,experiment,74,↑,up,↑,0.7199921999126673,True,30,1
160K25S4,422,experiment,84,→,right,→,0.7350085000507534,True,30,1
160K25S4,423,experiment,85,↓,down,↓,0.5328981000930071,True,30,1
160K25S4,424,experiment,80,→,right,→,0.7486978000961244,True,30,1
160K25S4,425,experiment,86,→,right,→,0.7858051997609437,True,30,1
160K25S4,426,experiment,96,→,right,→,0.730127100367099,True,30,1
160K25S4,427,experiment,103,↑,up,↑,0.8581149000674486,True,30,1
160K25S4,428,experiment,99,→,right,→,0.45446950010955334,True,30,1
160K25S4,429,experiment,83,←,left,←,0.5921202003955841,True,30,1
160K25S4,430,experiment,82,↓,down,↓,0.5649455999955535,True,30,1
160K25S4,431,experiment,76,→,right,→,0.6445601996965706,True,30,1
160K25S4,432,experiment,69,→,right,→,0.7636345997452736,True,30,1
160K25S4,433,experiment,79,↓,down,↓,0.5543545000255108,True,30,1
160K25S4,434,experiment,108,→,right,→,0.7357747000642121,True,30,1
160K25S4,435,experiment,97,↑,up,↑,0.897851999849081,True,30,1
160K25S4,436,experiment,89,←,left,←,0.5517313000746071,True,30,1
160K25S4,437,experiment,48,←,left,←,0.6655072001740336,True,30,1
160K25S4,438,experiment,49,←,left,←,0.44626040011644363,True,30,1
160K25S4,439,experiment,55,↓,down,↓,0.5539894001558423,True,30,1
160K25S4,440,experiment,81,←,left,←,0.5764303999021649,True,30,1
160K25S4,441,experiment,67,↓,down,↓,0.6508313999511302,True,30,1
160K25S4,442,experiment,91,→,right,→,0.47426139982417226,True,30,1
160K25S4,443,experiment,64,↑,up,↑,0.7536540003493428,True,30,1
160K25S4,444,experiment,62,↑,up,↑,0.6867476999759674,True,30,1
160K25S4,445,experiment,60,↑,up,↑,0.8151337997987866,True,30,1
160K25S4,446,experiment,52,←,no_key,no_letter,-1.0,False,30,1
160K25S4,447,experiment,68,→,right,→,0.481228900142014,True,30,1
160K25S4,448,experiment,53,→,right,→,0.7238586000166833,True,30,1
160K25S4,449,experiment,95,→,right,→,0.4548194999806583,True,30,1
160K25S4,450,experiment,65,←,left,←,0.6386722000315785,True,30,1
160K25S4,451,experiment,101,↑,up,↑,0.762984300032258,True,30,1
160K25S4,452,experiment,88,→,right,→,0.9665828999131918,True,30,1
160K25S4,453,experiment,92,←,left,←,0.6729399999603629,True,30,1
160K25S4,454,experiment,100,←,left,←,0.46032589999958873,True,30,1
160K25S4,455,experiment,63,↑,up,↑,0.6207171999849379,True,30,1
160K25S4,456,experiment,58,↑,up,↑,0.6412758999504149,True,30,1
160K25S4,457,experiment,56,→,right,→,0.5240323003381491,True,30,1
160K25S4,458,experiment,102,←,left,←,0.572571599856019,True,30,1
160K25S4,459,experiment,66,↓,down,↓,0.567412200383842,True,30,1
160K25S4,460,experiment,90,↓,down,↓,0.6904198001138866,True,30,1
160K25S4,461,experiment,106,→,right,→,0.667156099807471,True,30,1
160K25S4,462,experiment,51,→,right,→,0.7992374999448657,True,30,1
160K25S4,463,experiment,57,←,left,←,0.7078996999189258,True,30,1
160K25S4,464,experiment,87,↑,up,↑,0.8102270998060703,True,30,1
160K25S4,465,experiment,72,→,right,→,0.8336296998895705,True,30,1
160K25S4,466,experiment,75,↓,down,↓,0.5751113998703659,True,30,1
160K25S4,467,experiment,61,→,right,→,0.7314245998859406,True,30,1
160K25S4,468,experiment,98,↑,up,↑,0.6452524000778794,True,30,1
160K25S4,469,experiment,71,↓,down,↓,0.7234600000083447,True,30,1
160K25S4,470,experiment,77,←,left,←,0.6205723001621664,True,30,1
160K25S4,471,experiment,59,↓,down,↓,0.751882900018245,True,30,1
160K25S4,472,experiment,70,↑,down,↓,1.0582455000840127,False,30,1
160K25S4,473,experiment,73,←,left,←,0.5832856995984912,True,30,1
160K25S4,474,experiment,78,←,left,←,0.5978288003243506,True,30,1
160K25S4,475,experiment,50,↑,up,↑,0.884839799720794,True,30,1
160K25S4,476,experiment,94,←,left,←,0.6324963998049498,True,30,1
160K25S4,477,experiment,104,↑,up,↑,0.7161315996199846,True,30,1
160K25S4,478,experiment,54,←,left,←,0.47732830001041293,True,30,1
160K25S4,479,experiment,107,↓,down,↓,0.5742758000269532,True,30,1
160K25S4,480,experiment,93,↓,down,↓,0.5680064000189304,True,30,1
160K25S4,481,experiment,105,↑,up,↑,0.6460792999714613,True,30,1
160K25S4,482,training,84,→,right,→,0.4564613001421094,True,29,0
160K25S4,483,training,92,↑,up,↑,0.7591557996347547,True,29,1
160K25S4,484,experiment,95,↓,down,↓,0.7128190998919308,True,29,1
160K25S4,485,experiment,82,↓,down,↓,0.704905700404197,True,29,1
160K25S4,486,experiment,52,↑,up,↑,0.7228964995592833,True,29,1
160K25S4,487,experiment,105,↑,up,↑,0.7625776999630034,True,29,1
160K25S4,488,experiment,85,←,left,←,0.7834025998599827,True,29,1
160K25S4,489,experiment,63,↑,up,↑,0.6907838000915945,True,29,1
160K25S4,490,experiment,48,→,right,→,0.7908672001212835,True,29,1
160K25S4,491,experiment,91,→,right,→,0.5604548002593219,True,29,1
160K25S4,492,experiment,73,↓,down,↓,0.5376123003661633,True,29,1
160K25S4,493,experiment,84,→,right,→,0.831595900002867,True,29,1
160K25S4,494,experiment,107,↑,up,↑,0.7542806998826563,True,29,1
160K25S4,495,experiment,96,↓,down,↓,0.5075354999862611,True,29,1
160K25S4,496,experiment,98,→,right,→,0.8302360000088811,True,29,1
160K25S4,497,experiment,108,↑,up,↑,0.8245652001351118,True,29,1
160K25S4,498,experiment,75,↓,down,↓,0.7262552999891341,True,29,1
160K25S4,499,experiment,101,↓,down,↓,0.7593614999204874,True,29,1
160K25S4,500,experiment,67,↑,up,↑,0.666374699678272,True,29,1
160K25S4,501,experiment,71,←,left,←,0.7277425997890532,True,29,1
160K25S4,502,experiment,106,↓,down,↓,0.7430680003017187,True,29,1
160K25S4,503,experiment,103,↓,down,↓,0.6147511000744998,True,29,1
160K25S4,504,experiment,61,↑,up,↑,0.7935128998942673,True,29,1
160K25S4,505,experiment,88,↑,up,↑,0.6523412000387907,True,29,1
160K25S4,506,experiment,90,↑,up,↑,0.7798825004138052,True,29,1
160K25S4,507,experiment,60,↑,left,←,1.2246638000942767,False,29,1
160K25S4,508,experiment,49,↓,down,↓,0.734939499758184,True,29,1
160K25S4,509,experiment,50,←,left,←,0.7447283999063075,True,29,1
160K25S4,510,experiment,81,↑,up,↑,0.775605299975723,True,29,1
160K25S4,511,experiment,93,↑,up,↑,0.9214248000644147,True,29,1
160K25S4,512,experiment,104,↑,up,↑,0.4339009001851082,True,29,1
160K25S4,513,experiment,76,↓,down,↓,0.4787854002788663,True,29,1
160K25S4,514,experiment,99,↓,down,↓,0.48258710000663996,True,29,1
160K25S4,515,experiment,78,←,left,←,1.0128562999889255,True,29,1
160K25S4,516,experiment,100,↑,down,↓,0.9225663999095559,False,29,1
160K25S4,517,experiment,56,↑,up,↑,0.4584916001185775,True,29,1
160K25S4,518,experiment,66,←,left,←,0.5061595998704433,True,29,1
160K25S4,519,experiment,58,←,left,←,0.4421668001450598,True,29,1
160K25S4,520,experiment,97,↑,down,↓,1.0958527000620961,False,29,1
160K25S4,521,experiment,72,←,left,←,0.4123770999722183,True,29,1
160K25S4,522,experiment,57,→,right,→,0.8319957000203431,True,29,1
160K25S4,523,experiment,53,←,left,←,0.46071889996528625,True,29,1
160K25S4,524,experiment,51,→,right,→,0.7213413999415934,True,29,1
160K25S4,525,experiment,55,↑,up,↑,0.7374473996460438,True,29,1
160K25S4,526,experiment,59,→,right,→,0.7198856002651155,True,29,1
160K25S4,527,experiment,62,→,right,→,0.4543192000128329,True,29,1
160K25S4,528,experiment,86,↓,down,↓,0.6549701001495123,True,29,1
160K25S4,529,experiment,94,↓,down,↓,0.453071600291878,True,29,1
160K25S4,530,experiment,69,←,left,←,0.49985430017113686,True,29,1
160K25S4,531,experiment,74,→,right,→,0.47897500032559037,True,29,1
160K25S4,532,experiment,80,←,left,←,0.4489608998410404,True,29,1
160K25S4,533,experiment,65,↓,down,↓,0.6410290999338031,True,29,1
160K25S4,534,experiment,68,↑,up,↑,0.7444763998501003,True,29,1
160K25S4,535,experiment,102,←,left,←,0.776562999933958,True,29,1
160K25S4,536,experiment,77,←,left,←,0.7275662999600172,True,29,1
160K25S4,537,experiment,87,→,right,→,0.7252119998447597,True,29,1
160K25S4,538,experiment,92,→,right,→,0.9531253003515303,True,29,1
160K25S4,539,experiment,79,←,left,←,0.6168881999328732,True,29,1
160K25S4,540,experiment,70,↑,up,↑,0.504490400198847,True,29,1
160K25S4,541,experiment,89,↑,up,↑,0.7424131999723613,True,29,1
160K25S4,542,experiment,83,↑,up,↑,0.7487169997766614,True,29,1
160K25S4,543,experiment,64,→,right,→,0.4332269001752138,True,29,1
160K25S4,544,experiment,54,↑,up,↑,0.5816636001691222,True,29,1
160K25S4,545,training,102,→,right,→,0.5946343000978231,True,28,0
160K25S4,546,training,53,→,right,→,0.4096385999582708,True,28,1
160K25S4,547,experiment,104,→,right,→,0.5017706998623908,True,28,1
160K25S4,548,experiment,98,←,left,←,0.7767162998206913,True,28,1
160K25S4,549,experiment,93,→,right,→,0.7144185998477042,True,28,1
160K25S4,550,experiment,88,→,right,→,0.6561169000342488,True,28,1
160K25S4,551,experiment,62,↑,up,↑,0.5929513000883162,True,28,1
160K25S4,552,experiment,103,→,right,→,0.5345839001238346,True,28,1
160K25S4,553,experiment,85,→,right,→,0.4766385997645557,True,28,1
160K25S4,554,experiment,100,←,left,←,0.4800442000851035,True,28,1
160K25S4,555,experiment,71,↑,up,↑,0.7409248002804816,True,28,1
160K25S4,556,experiment,50,←,left,←,0.7022341000847518,True,28,1
160K25S4,557,experiment,79,↓,down,↓,0.5035796002484858,True,28,1
160K25S4,558,experiment,90,↓,down,↓,0.7412502001971006,True,28,1
160K25S4,559,experiment,89,→,right,→,0.4816939998418093,True,28,1
160K25S4,560,experiment,51,←,left,←,0.5250840997323394,True,28,1
160K25S4,561,experiment,78,←,left,←,0.7417791998013854,True,28,1
160K25S4,562,experiment,48,↑,up,↑,0.7678641001693904,True,28,1
160K25S4,563,experiment,73,→,right,→,0.4487420003861189,True,28,1
160K25S4,564,experiment,77,↑,up,↑,0.7326348000206053,True,28,1
160K25S4,565,experiment,66,→,right,→,0.4174406002275646,True,28,1
160K25S4,566,experiment,59,↑,up,↑,0.6365354000590742,True,28,1
160K25S4,567,experiment,60,↓,right,→,0.7109047998674214,False,28,1
160K25S4,568,experiment,95,↓,down,↓,0.4986268002539873,True,28,1
160K25S4,569,experiment,81,→,right,→,0.45132699981331825,True,28,1
160K25S4,570,experiment,108,←,left,←,0.4136006999760866,True,28,1
160K25S4,571,experiment,63,←,left,←,0.6391353998333216,True,28,1
160K25S4,572,experiment,74,↑,up,↑,0.6685946001671255,True,28,1
160K25S4,573,experiment,106,←,left,←,0.3838291000574827,True,28,1
160K25S4,574,experiment,70,→,right,→,0.4470893000252545,True,28,0
160K25S4,575,experiment,55,↓,down,↓,0.6023999000899494,True,28,1
160K25S4,576,experiment,107,→,right,→,0.4224119000136852,True,28,1
160K25S4,577,experiment,86,→,right,→,0.6805340000428259,True,28,1
160K25S4,578,experiment,76,←,left,←,0.384136900305748,True,28,1
160K25S4,579,experiment,105,←,left,←,0.5847104997374117,True,28,0
160K25S4,580,experiment,84,↓,down,↓,0.4690464995801449,True,28,1
160K25S4,581,experiment,56,→,right,→,0.7754378002136946,True,28,1
160K25S4,582,experiment,64,→,right,→,0.4829203998669982,True,28,1
160K25S4,583,experiment,102,↓,down,↓,0.6292584999464452,True,28,1
160K25S4,584,experiment,67,↓,down,↓,0.6376257999800146,True,28,1
160K25S4,585,experiment,57,→,right,→,0.47269649989902973,True,28,1
160K25S4,586,experiment,54,↑,up,↑,0.7554731997661293,True,28,1
160K25S4,587,experiment,69,↓,down,↓,0.501955300103873,True,28,1
160K25S4,588,experiment,101,↓,down,↓,0.6319309999234974,True,28,1
160K25S4,589,experiment,91,→,right,→,0.6241258000954986,True,28,1
160K25S4,590,experiment,52,←,right,→,0.7013487000949681,False,28,1
160K25S4,591,experiment,92,↓,down,↓,0.4745950996875763,True,28,1
160K25S4,592,experiment,61,↑,up,↑,0.7148808999918401,True,28,1
160K25S4,593,experiment,83,↑,up,↑,0.7463898002170026,True,28,1
160K25S4,594,experiment,58,↑,up,↑,0.5769187998957932,True,28,1
160K25S4,595,experiment,96,↓,down,↓,0.6256236000917852,True,28,1
160K25S4,596,experiment,94,→,right,→,0.49694280000403523,True,28,1
160K25S4,597,experiment,68,→,right,→,0.5180325000546873,True,28,1
160K25S4,598,experiment,75,↓,down,↓,0.44815639965236187,True,28,1
160K25S4,599,experiment,72,↓,down,↓,0.453910700045526,True,28,1
160K25S4,600,experiment,99,←,left,←,0.43465990014374256,True,28,1
160K25S4,601,experiment,80,↑,up,↑,0.5824488000944257,True,28,1
160K25S4,602,experiment,82,↑,up,↑,0.7875478002242744,True,28,1
160K25S4,603,experiment,97,→,right,→,0.6271407003514469,True,28,1
160K25S4,604,experiment,87,↓,down,↓,0.6769997999072075,True,28,1
160K25S4,605,experiment,53,↓,down,↓,0.6478297999128699,True,28,1
160K25S4,606,experiment,65,↓,down,↓,0.6321401000022888,True,28,1
160K25S4,607,experiment,49,←,left,←,0.45408610021695495,True,28,1
160K25S4,608,training,94,↑,up,↑,0.6068818001076579,True,28,0
160K25S4,609,training,98,→,right,→,0.6296079996973276,True,28,1
160K25S4,610,experiment,75,←,left,←,0.5070208995603025,True,28,1
160K25S4,611,experiment,80,→,right,→,0.6917221997864544,True,28,1
160K25S4,612,experiment,105,↓,down,↓,0.6609458001330495,True,28,1
160K25S4,613,experiment,73,←,left,←,0.43379619996994734,True,28,1
160K25S4,614,experiment,59,→,right,→,0.6365434001199901,True,28,1
160K25S4,615,experiment,74,↑,up,↑,0.7942263004370034,True,28,1
160K25S4,616,experiment,100,↑,up,↑,0.5929332999512553,True,28,1
160K25S4,617,experiment,102,←,left,←,0.7589787999168038,True,28,1
160K25S4,618,experiment,84,←,left,←,0.6042770999483764,True,28,1
160K25S4,619,experiment,82,→,right,→,0.7363970000296831,True,28,1
160K25S4,620,experiment,76,↓,down,↓,0.46608859999105334,True,28,1
160K25S4,621,experiment,61,→,right,→,0.6582571002654731,True,28,1
160K25S4,622,experiment,49,↑,up,↑,0.727267500013113,True,28,1
160K25S4,623,experiment,70,↓,down,↓,0.650883300229907,True,28,1
160K25S4,624,experiment,62,→,right,→,0.7317846999503672,True,28,1
160K25S4,625,experiment,106,←,left,←,0.506712599657476,True,28,1
160K25S4,626,experiment,72,↓,down,↓,0.6143646999262273,True,28,1
160K25S4,627,experiment,66,↑,up,↑,0.6872416003607213,True,28,1
160K25S4,628,experiment,101,↓,down,↓,0.5140716000460088,True,28,1
160K25S4,629,experiment,55,↓,down,↓,0.6186279002577066,True,28,1
160K25S4,630,experiment,99,←,left,←,0.5207293997518718,True,28,1
160K25S4,631,experiment,79,←,left,←,0.6895242999307811,True,28,1
160K25S4,632,experiment,65,↓,down,↓,0.4318545996211469,True,28,1
160K25S4,633,experiment,48,→,right,→,0.4622611999511719,True,28,1
160K25S4,634,experiment,77,↑,up,↑,0.6740330001339316,True,28,1
160K25S4,635,experiment,104,←,left,←,0.5722986999899149,True,28,1
160K25S4,636,experiment,86,→,right,→,0.5442015998996794,True,28,1
160K25S4,637,experiment,90,→,right,→,0.5882669002749026,True,28,1
160K25S4,638,experiment,93,→,right,→,0.5491726002655923,True,28,1
160K25S4,639,experiment,69,↓,down,↓,0.6239914000034332,True,28,1
160K25S4,640,experiment,54,→,right,→,0.6447924999520183,True,28,1
160K25S4,641,experiment,81,←,left,←,0.6636997000314295,True,28,1
160K25S4,642,experiment,87,→,right,→,0.49574590008705854,True,28,1
160K25S4,643,experiment,94,→,right,→,0.6525353998877108,True,28,1
160K25S4,644,experiment,60,↑,up,↑,0.6702429000288248,True,28,1
160K25S4,645,experiment,108,←,left,←,0.7514367001131177,True,28,1
160K25S4,646,experiment,67,←,left,←,0.7146323998458683,True,28,1
160K25S4,647,experiment,107,↓,down,↓,0.7300652000121772,True,28,1
160K25S4,648,experiment,98,→,left,←,0.7556254998780787,False,28,1
160K25S4,649,experiment,63,↑,up,↑,0.7520643002353609,True,28,1
160K25S4,650,experiment,57,↓,down,↓,0.5427403999492526,True,28,1
160K25S4,651,experiment,96,↓,down,↓,0.6408270997926593,True,28,1
160K25S4,652,experiment,89,←,left,←,0.6012428998947144,True,28,1
160K25S4,653,experiment,92,←,left,←,0.7382760001346469,True,28,1
160K25S4,654,experiment,64,↓,down,↓,0.5110240997746587,True,28,1
160K25S4,655,experiment,95,→,right,→,0.6587408999912441,True,28,1
160K25S4,656,experiment,52,←,left,←,0.6147970003075898,True,28,1
160K25S4,657,experiment,53,→,right,→,0.7561005000025034,True,28,1
160K25S4,658,experiment,83,↓,down,↓,0.6019240003079176,True,28,1
160K25S4,659,experiment,97,↓,down,↓,0.449203799944371,True,28,1
160K25S4,660,experiment,50,↑,up,↑,0.5504295001737773,True,28,1
160K25S4,661,experiment,68,←,left,←,0.6413954999297857,True,28,1
160K25S4,662,experiment,85,↓,down,↓,0.4831878999248147,True,28,1
160K25S4,663,experiment,58,←,left,←,0.7482074000872672,True,28,1
160K25S4,664,experiment,78,↓,down,↓,0.4999493998475373,True,28,1
160K25S4,665,experiment,71,←,left,←,0.7360431998968124,True,28,1
160K25S4,666,experiment,103,↓,down,↓,0.6320189000107348,True,28,1
160K25S4,667,experiment,56,↑,up,↑,0.6197532000951469,True,28,1
160K25S4,668,experiment,51,↓,down,↓,0.5301252002827823,True,28,1
160K25S4,669,experiment,91,↓,down,↓,0.6779650999233127,True,28,1
160K25S4,670,experiment,88,→,right,→,0.7254685997031629,True,28,1
160K25S4,671,training,67,←,left,←,0.4420268000103533,True,28,0
160K25S4,672,training,85,↓,down,↓,0.4758750000037253,True,28,1
160K25S4,673,experiment,75,←,left,←,0.5754006998613477,True,28,1
160K25S4,674,experiment,92,→,right,→,0.457481499761343,True,28,1
160K25S4,675,experiment,104,↓,down,↓,0.6202532998286188,True,28,1
160K25S4,676,experiment,89,→,right,→,0.5176401003263891,True,28,1
160K25S4,677,experiment,52,←,left,←,0.5353970001451671,True,28,1
160K25S4,678,experiment,77,→,right,→,0.5041614999063313,True,28,1
160K25S4,679,experiment,83,←,left,←,0.47192230029031634,True,28,1
160K25S4,680,experiment,91,↓,down,↓,0.6222684001550078,True,28,1
160K25S4,681,experiment,59,→,right,→,0.7052767998538911,True,28,1
160K25S4,682,experiment,71,↑,up,↑,0.7810220001265407,True,28,1
160K25S4,683,experiment,50,↑,up,↑,0.6848496999591589,True,28,1
160K25S4,684,experiment,53,↑,up,↑,0.655505099799484,True,28,1
160K25S4,685,experiment,64,→,right,→,0.607608400285244,True,28,1
160K25S4,686,experiment,103,↓,down,↓,0.4926618002355099,True,28,1
160K25S4,687,experiment,94,←,left,←,0.53734300006181,True,28,1
160K25S4,688,experiment,51,↑,up,↑,0.6269900999031961,True,28,1
160K25S4,689,experiment,72,←,left,←,0.6094658998772502,True,28,1
160K25S4,690,experiment,61,↑,up,↑,0.7247148999013007,True,28,1
160K25S4,691,experiment,107,←,left,←,0.7716041998937726,True,28,1
160K25S4,692,experiment,85,↑,up,↑,0.6960447998717427,True,28,1
160K25S4,693,experiment,105,↓,down,↓,0.7926171999424696,True,28,1
160K25S4,694,experiment,96,←,left,←,1.1285822000354528,True,28,1
160K25S4,695,experiment,95,→,right,→,0.6756075997836888,True,28,1
160K25S4,696,experiment,81,↓,down,↓,0.5893247001804411,True,28,1
160K25S4,697,experiment,78,←,left,←,0.47641140036284924,True,28,1
160K25S4,698,experiment,58,↓,down,↓,0.5007637003436685,True,28,1
160K25S4,699,experiment,99,↓,down,↓,0.4795654001645744,True,28,1
160K25S4,700,experiment,63,↓,down,↓,0.6153414999134839,True,28,1
160K25S4,701,experiment,73,→,right,→,0.7581168999895453,True,28,1
160K25S4,702,experiment,108,→,right,→,0.627337799873203,True,28,1
160K25S4,703,experiment,55,↑,up,↑,0.7837638999335468,True,28,1
160K25S4,704,experiment,86,↑,up,↑,0.7794093997217715,True,28,1
160K25S4,705,experiment,84,↑,up,↑,0.768134799785912,True,28,1
160K25S4,706,experiment,69,↑,up,↑,0.60214430000633,True,28,1
160K25S4,707,experiment,76,↓,down,↓,0.6806308003142476,True,28,1
160K25S4,708,experiment,66,→,right,→,0.6311321998946369,True,28,1
160K25S4,709,experiment,98,↓,down,↓,0.4766334998421371,True,28,1
160K25S4,710,experiment,57,↑,up,↑,0.7983846999704838,True,28,1
160K25S4,711,experiment,82,↓,down,↓,0.5229297997429967,True,28,1
160K25S4,712,experiment,65,←,left,←,0.6958622001111507,True,28,1
160K25S4,713,experiment,87,→,right,→,0.5904617998749018,True,28,1
160K25S4,714,experiment,93,→,right,→,0.567563799675554,True,28,1
160K25S4,715,experiment,74,↑,up,↑,0.6320170001126826,True,28,1
160K25S4,716,experiment,49,↑,up,↑,0.7421285999007523,True,28,1
160K25S4,717,experiment,56,↓,down,↓,0.5175562999211252,True,28,1
160K25S4,718,experiment,48,←,left,←,0.712616799864918,True,28,1
160K25S4,719,experiment,101,→,right,→,0.7222831998951733,True,28,1
160K25S4,720,experiment,97,↑,up,↑,0.7644287999719381,True,28,1
160K25S4,721,experiment,102,↓,down,↓,0.5154109001159668,True,28,1
160K25S4,722,experiment,79,←,left,←,0.6920754001475871,True,28,1
160K25S4,723,experiment,54,→,right,→,0.5821135002188385,True,28,1
160K25S4,724,experiment,88,→,right,→,0.5211702999658883,True,28,1
160K25S4,725,experiment,67,↑,up,↑,0.7575941998511553,True,28,1
160K25S4,726,experiment,80,↓,down,↓,0.5323131000623107,True,28,1
160K25S4,727,experiment,60,←,left,←,0.506767500191927,True,28,1
160K25S4,728,experiment,68,→,right,→,0.519594400189817,True,28,1
160K25S4,729,experiment,62,←,left,←,0.566064600367099,True,28,1
160K25S4,730,experiment,100,←,left,←,0.5176149001345038,True,28,1
160K25S4,731,experiment,106,↓,down,↓,0.5415032999590039,True,28,1
160K25S4,732,experiment,90,→,right,→,0.4893955001607537,True,28,1
160K25S4,733,experiment,70,←,left,←,0.7422857000492513,True,28,1
160K25S4,734,training,54,→,right,→,0.69278210029006,True,28,0
160K25S4,735,training,68,←,left,←,0.442121600266546,True,28,1
160K25S4,736,experiment,66,→,right,→,0.4822358996607363,True,28,1
160K25S4,737,experiment,56,↑,up,↑,0.6439541997388005,True,28,1
160K25S4,738,experiment,91,↓,down,↓,0.523613499943167,True,28,1
160K25S4,739,experiment,108,←,left,←,0.5226424001157284,True,28,1
160K25S4,740,experiment,76,→,right,→,0.7557272999547422,True,28,1
160K25S4,741,experiment,51,↓,down,↓,0.508109699934721,True,28,1
160K25S4,742,experiment,106,←,left,←,0.6121736997738481,True,28,1
160K25S4,743,experiment,67,↓,down,↓,0.6773303998634219,True,28,1
160K25S4,744,experiment,85,→,right,→,0.6375946998596191,True,28,1
160K25S4,745,experiment,98,←,left,←,0.5549722001887858,True,28,1
160K25S4,746,experiment,83,←,left,←,0.6086701997555792,True,28,1
160K25S4,747,experiment,107,←,left,←,0.7646224000491202,True,28,1
160K25S4,748,experiment,62,→,right,→,0.5527625000104308,True,28,1
160K25S4,749,experiment,63,←,left,←,0.6615440002642572,True,28,1
160K25S4,750,experiment,81,←,left,←,0.8080242997966707,True,28,1
160K25S4,751,experiment,89,↓,down,↓,0.5456660003401339,True,28,1
160K25S4,752,experiment,103,←,left,←,0.7614278001710773,True,28,1
160K25S4,753,experiment,58,↓,down,↓,0.6873586000874639,True,28,1
160K25S4,754,experiment,96,↓,down,↓,0.747709000017494,True,28,1
160K25S4,755,experiment,100,→,right,→,0.7079736003652215,True,28,1
160K25S4,756,experiment,73,↓,down,↓,0.5110456002876163,True,28,1
160K25S4,757,experiment,55,↑,up,↑,0.6242035003378987,True,28,1
160K25S4,758,experiment,87,→,right,→,0.7218566997908056,True,28,1
160K25S4,759,experiment,82,→,right,→,0.5533846002072096,True,28,1
160K25S4,760,experiment,61,←,left,←,0.7507146997377276,True,28,1
160K25S4,761,experiment,95,↓,down,↓,0.6568157998844981,True,28,1
160K25S4,762,experiment,50,↑,up,↑,0.6614335998892784,True,28,1
160K25S4,763,experiment,54,←,left,←,0.6968980003148317,True,28,1
160K25S4,764,experiment,90,←,left,←,0.734568199608475,True,28,1
160K25S4,765,experiment,105,↓,down,↓,0.6778706000186503,True,28,1
160K25S4,766,experiment,49,←,left,←,0.714355300180614,True,28,1
160K25S4,767,experiment,77,←,left,←,0.7876871000044048,True,28,1
160K25S4,768,experiment,97,↑,up,↑,0.772144400049001,True,28,1
160K25S4,769,experiment,104,↑,up,↑,0.5937149999663234,True,28,1
160K25S4,770,experiment,74,↑,up,↑,0.6892837001942098,True,28,1
160K25S4,771,experiment,69,←,left,←,0.7266715001314878,True,28,1
160K25S4,772,experiment,84,↑,up,↑,0.7249312996864319,True,28,1
160K25S4,773,experiment,70,↓,down,↓,0.7122151996009052,True,28,1
160K25S4,774,experiment,65,↓,down,↓,0.5259805000387132,True,28,1
160K25S4,775,experiment,52,→,right,→,0.6315710004419088,True,28,1
160K25S4,776,experiment,99,←,left,←,0.7088393000885844,True,28,1
160K25S4,777,experiment,101,→,right,→,0.4624355002306402,True,28,1
160K25S4,778,experiment,71,↑,up,↑,0.7401191000826657,True,28,1
160K25S4,779,experiment,59,←,left,←,0.4823723998852074,True,28,1
160K25S4,780,experiment,53,←,left,←,0.7970925001427531,True,28,1
160K25S4,781,experiment,93,→,right,→,0.6778331999666989,True,28,1
160K25S4,782,experiment,48,↑,up,↑,0.738474200014025,True,28,1
160K25S4,783,experiment,92,→,right,→,0.6937958998605609,True,28,1
160K25S4,784,experiment,102,←,left,←,0.4478668998926878,True,28,1
160K25S4,785,experiment,80,↑,up,↑,0.6190593000501394,True,28,1
160K25S4,786,experiment,68,←,left,←,0.7153254998847842,True,28,1
160K25S4,787,experiment,64,↑,up,↑,0.64101090002805,True,28,1
160K25S4,788,experiment,57,→,right,→,0.53211780032143,True,28,1
160K25S4,789,experiment,86,→,right,→,0.554056900087744,True,28,1
160K25S4,790,experiment,72,←,left,←,0.5076586003415287,True,28,1
160K25S4,791,experiment,78,→,right,→,0.4850254999473691,True,28,1
160K25S4,792,experiment,60,→,right,→,0.7174248998053372,True,28,1
160K25S4,793,experiment,94,↑,up,↑,0.7051023999229074,True,28,1
160K25S4,794,experiment,75,←,left,←,0.6834863000549376,True,28,1
160K25S4,795,experiment,88,→,right,→,0.5305356001481414,True,28,1
160K25S4,796,experiment,79,→,right,→,0.5786556000821292,True,28,1
160K25S4,797,training,71,→,right,→,0.40752159990370274,True,28,0
160K25S4,798,training,89,→,right,→,0.5686650001443923,True,28,0
160K25S4,799,experiment,93,→,right,→,1.010531600099057,True,28,1
160K25S4,800,experiment,67,↑,up,↑,0.5716566001065075,True,28,1
160K25S4,801,experiment,69,↓,down,↓,0.6854345998726785,True,28,1
160K25S4,802,experiment,77,↑,up,↑,0.4888768997043371,True,28,1
160K25S4,803,experiment,104,←,left,←,0.6654221001081169,True,28,1
160K25S4,804,experiment,103,↓,down,↓,0.5161572000943124,True,28,1
160K25S4,805,experiment,86,↑,up,↑,0.7305576000362635,True,28,1
160K25S4,806,experiment,83,↓,down,↓,0.6732890997081995,True,28,1
160K25S4,807,experiment,62,←,left,←,0.6578110000118613,True,28,1
160K25S4,808,experiment,63,→,right,→,0.5217676996253431,True,28,1
160K25S4,809,experiment,52,↑,up,↑,0.7392361997626722,True,28,1
160K25S4,810,experiment,50,↑,up,↑,0.6125627001747489,True,28,1
160K25S4,811,experiment,49,→,right,→,0.5393376001156867,True,28,1
160K25S4,812,experiment,61,↓,down,↓,0.5770467999391258,True,28,1
160K25S4,813,experiment,91,→,right,→,0.6835942999459803,True,28,1
160K25S4,814,experiment,70,↑,up,↑,0.5606426000595093,True,28,1
160K25S4,815,experiment,98,↑,up,↑,0.5772604998201132,True,28,1
160K25S4,816,experiment,96,↓,up,↑,0.7219817000441253,False,28,1
160K25S4,817,experiment,85,↑,up,↑,0.5284248003736138,True,28,1
160K25S4,818,experiment,65,→,right,→,0.7176634999923408,True,28,1
160K25S4,819,experiment,108,↓,down,↓,0.5001789997331798,True,28,1
160K25S4,820,experiment,90,←,left,←,0.7461375999264419,True,28,1
160K25S4,821,experiment,80,↓,down,↓,0.4891039999201894,True,28,1
160K25S4,822,experiment,78,→,right,→,0.675175600219518,True,28,1
160K25S4,823,experiment,82,←,left,←,0.49255160009488463,True,28,1
160K25S4,824,experiment,84,←,left,←,0.6606503999792039,True,28,1
160K25S4,825,experiment,71,↑,up,↑,0.6503559001721442,True,28,1
160K25S4,826,experiment,66,↓,down,↓,0.6499955002218485,True,28,1
160K25S4,827,experiment,100,←,left,←,0.6064141001552343,True,28,1
160K25S4,828,experiment,58,↓,down,↓,0.47485100012272596,True,28,1
160K25S4,829,experiment,64,←,left,←,0.6580011998303235,True,28,1
160K25S4,830,experiment,51,→,right,→,0.6143462001346052,True,28,1
160K25S4,831,experiment,106,←,left,←,0.46610140008851886,True,28,1
160K25S4,832,experiment,81,↓,down,↓,0.5161465001292527,True,28,1
160K25S4,833,experiment,89,←,left,←,0.48961459985002875,True,28,1
160K25S4,834,experiment,55,↓,down,↓,0.49935040017589927,True,28,1
160K25S4,835,experiment,94,←,left,←,0.6716746999882162,True,28,1
160K25S4,836,experiment,87,↑,up,↑,0.759419500362128,True,28,1
160K25S4,837,experiment,92,→,right,→,0.44211919978260994,True,28,1
160K25S4,838,experiment,75,↑,up,↑,0.5513997999951243,True,28,1
160K25S4,839,experiment,105,↓,down,↓,0.5100158997811377,True,28,1
160K25S4,840,experiment,59,←,left,←,0.7176582999527454,True,28,1
160K25S4,841,experiment,56,↓,down,↓,0.43808589968830347,True,28,1
160K25S4,842,experiment,99,↑,up,↑,0.6032412997446954,True,28,1
160K25S4,843,experiment,74,↑,up,↑,0.6261305999942124,True,28,1
160K25S4,844,experiment,68,→,right,→,0.4742503999732435,True,28,1
160K25S4,845,experiment,60,↓,down,↓,0.5069494000636041,True,28,1
160K25S4,846,experiment,48,↓,up,↑,0.758434500079602,False,28,1
160K25S4,847,experiment,57,↑,up,↑,0.5488164001144469,True,28,1
160K25S4,848,experiment,76,←,left,←,0.6934526995755732,True,28,1
160K25S4,849,experiment,97,←,left,←,0.4249605997465551,True,28,1
160K25S4,850,experiment,101,←,left,←,0.5979423001408577,True,28,1
160K25S4,851,experiment,79,→,right,→,0.4672875003889203,True,28,1
160K25S4,852,experiment,107,↑,up,↑,0.7327407002449036,True,28,1
160K25S4,853,experiment,73,←,left,←,0.6308138002641499,True,28,1
160K25S4,854,experiment,88,→,right,→,0.6318123997189105,True,28,1
160K25S4,855,experiment,54,↑,up,↑,0.7242799000814557,True,28,1
160K25S4,856,experiment,53,←,left,←,0.6133651998825371,True,28,1
160K25S4,857,experiment,72,←,left,←,0.7003828999586403,True,28,1
160K25S4,858,experiment,102,←,left,←,0.6700892001390457,True,28,1
160K25S4,859,experiment,95,↑,up,↑,0.7315994002856314,True,28,1
160K25S4,860,training,63,←,left,←,0.5246202000416815,True,28,0
160K25S4,861,training,68,←,left,←,0.912521000020206,True,28,1
160K25S4,862,experiment,94,↓,down,↓,0.48444899963214993,True,28,1
160K25S4,863,experiment,76,↑,up,↑,0.5913565000519156,True,28,1
160K25S4,864,experiment,80,↓,down,↓,0.5007096002809703,True,28,1
160K25S4,865,experiment,50,→,right,→,0.6638337001204491,True,28,1
160K25S4,866,experiment,81,←,left,←,0.6739865001291037,True,28,1
160K25S4,867,experiment,54,↑,up,↑,0.6846233000978827,True,28,1
160K25S4,868,experiment,107,↓,down,↓,0.6613095998764038,True,28,1
160K25S4,869,experiment,48,↓,down,↓,0.45071509992703795,True,28,1
160K25S4,870,experiment,99,↓,down,↓,0.6475407998077571,True,28,1
160K25S4,871,experiment,78,←,left,←,0.41972560016438365,True,28,1
160K25S4,872,experiment,57,↓,down,↓,0.6788979000411928,True,28,1
160K25S4,873,experiment,77,↓,down,↓,0.46599500020965934,True,28,1
160K25S4,874,experiment,66,←,left,←,0.7291776002384722,True,28,1
160K25S4,875,experiment,105,→,right,→,0.6410159999504685,True,28,1
160K25S4,876,experiment,95,↑,up,↑,0.4871160998009145,True,28,1
160K25S4,877,experiment,60,→,right,→,0.6555607998743653,True,28,1
160K25S4,878,experiment,52,←,left,←,0.4436706998385489,True,28,1
160K25S4,879,experiment,56,↓,down,↓,0.6311086998321116,True,28,1
160K25S4,880,experiment,104,↓,down,↓,0.6427325000986457,True,28,1
160K25S4,881,experiment,88,←,left,←,0.7075022999197245,True,28,1
160K25S4,882,experiment,91,↑,up,↑,0.6724538002163172,True,28,1
160K25S4,883,experiment,86,↓,down,↓,0.608523900154978,True,28,1
160K25S4,884,experiment,65,→,right,→,0.6503718001767993,True,28,1
160K25S4,885,experiment,108,←,left,←,0.4198872996494174,True,28,1
160K25S4,886,experiment,51,↑,up,↑,0.6900764000602067,True,28,1
160K25S4,887,experiment,85,↑,up,↑,0.7379566999152303,True,28,1
160K25S4,888,experiment,97,↓,down,↓,0.6754315001890063,True,28,1
160K25S4,889,experiment,96,↓,down,↓,0.688281400129199,True,28,1
160K25S4,890,experiment,82,←,left,←,0.49703000020235777,True,28,1
160K25S4,891,experiment,58,→,right,→,0.4572104997932911,True,28,1
160K25S4,892,experiment,103,↓,down,↓,0.6285157003439963,True,28,1
160K25S4,893,experiment,87,→,right,→,0.7018804000690579,True,28,1
160K25S4,894,experiment,72,←,left,←,0.689939399715513,True,28,1
160K25S4,895,experiment,71,←,left,←,0.4223531000316143,True,28,1
160K25S4,896,experiment,59,→,right,→,0.5460047000087798,True,28,1
160K25S4,897,experiment,73,↓,down,↓,0.49913279991596937,True,28,1
160K25S4,898,experiment,53,←,left,←,0.645229599904269,True,28,1
160K25S4,899,experiment,61,←,left,←,0.6949334000237286,True,28,1
160K25S4,900,experiment,70,→,right,→,0.5396727002225816,True,28,1
160K25S4,901,experiment,106,↓,down,↓,0.6422647000290453,True,28,1
160K25S4,902,experiment,69,←,left,←,0.7213155999779701,True,28,1
160K25S4,903,experiment,83,↑,up,↑,0.52836690004915,True,28,1
160K25S4,904,experiment,89,→,right,→,0.5095265000127256,True,28,1
160K25S4,905,experiment,55,→,right,→,0.42255100002512336,True,28,1
160K25S4,906,experiment,98,↑,up,↑,0.74883469985798,True,28,1
160K25S4,907,experiment,63,↓,down,↓,0.6333469999954104,True,28,1
160K25S4,908,experiment,90,↑,up,↑,0.5857334001921117,True,28,1
160K25S4,909,experiment,62,↑,up,↑,0.5734453997574747,True,28,1
160K25S4,910,experiment,49,←,left,←,0.6780832000076771,True,28,1
160K25S4,911,experiment,75,→,right,→,0.5216816999018192,True,28,1
160K25S4,912,experiment,93,←,left,←,0.5332737001590431,True,28,1
160K25S4,913,experiment,102,→,right,→,0.6536950999870896,True,28,1
160K25S4,914,experiment,100,←,left,←,0.4183927997946739,True,28,1
160K25S4,915,experiment,79,↑,up,↑,0.7024678001180291,True,28,1
160K25S4,916,experiment,84,←,left,←,0.5421259999275208,True,28,1
160K25S4,917,experiment,64,→,right,→,0.7076042001135647,True,28,1
160K25S4,918,experiment,92,↑,up,↑,0.7276830999180675,True,28,1
160K25S4,919,experiment,67,↑,up,↑,0.5560468002222478,True,28,1
160K25S4,920,experiment,101,↑,up,↑,0.6196706001646817,True,28,1
160K25S4,921,experiment,74,→,right,→,0.5301796002313495,True,28,1
160K25S4,922,experiment,68,↑,up,↑,0.5018847002647817,True,28,1
160K25S4,923,training,64,←,left,←,0.42775100003927946,True,28,0
160K25S4,924,training,85,→,right,→,0.4064356000162661,True,28,1
160K25S4,925,experiment,84,↓,down,↓,0.7054273001849651,True,28,1
160K25S4,926,experiment,48,↑,up,↑,0.5336382002569735,True,28,1
160K25S4,927,experiment,73,←,left,←,0.4073704001493752,True,28,1
160K25S4,928,experiment,94,↑,up,↑,0.5025989999994636,True,28,1
160K25S4,929,experiment,68,→,right,→,0.5157503997907043,True,28,1
160K25S4,930,experiment,58,←,left,←,0.4674565000459552,True,28,1
160K25S4,931,experiment,97,↓,down,↓,0.5281643001362681,True,28,1
160K25S4,932,experiment,95,←,left,←,0.4434511000290513,True,28,1
160K25S4,933,experiment,51,←,left,←,0.6562840999104083,True,28,1
160K25S4,934,experiment,67,↑,up,↑,0.7433670000173151,True,28,1
160K25S4,935,experiment,76,←,left,←,0.5041187996976078,True,28,1
160K25S4,936,experiment,103,←,left,←,0.6015546000562608,True,28,1
160K25S4,937,experiment,59,←,left,←,0.7175596999004483,True,28,1
160K25S4,938,experiment,101,←,left,←,0.5591800003312528,True,28,1
160K25S4,939,experiment,105,↑,up,↑,0.5812209998257458,True,28,1
160K25S4,940,experiment,56,←,left,←,0.7632973999716341,True,28,1
160K25S4,941,experiment,78,→,right,→,0.466079399921,True,28,1
160K25S4,942,experiment,55,↑,up,↑,0.5807922999374568,True,28,1
160K25S4,943,experiment,69,←,left,←,0.6945003001019359,True,28,1
160K25S4,944,experiment,66,↑,up,↑,0.67629440035671,True,28,1
160K25S4,945,experiment,65,↑,up,↑,0.5394096998497844,True,28,1
160K25S4,946,experiment,91,→,right,→,0.7670694002881646,True,28,1
160K25S4,947,experiment,63,↑,up,↑,0.6351067000068724,True,28,1
160K25S4,948,experiment,77,↑,up,↑,0.6958063999190927,True,28,1
160K25S4,949,experiment,90,←,left,←,0.5015398003160954,True,28,1
160K25S4,950,experiment,99,↑,up,↑,0.7043719999492168,True,28,1
160K25S4,951,experiment,96,↓,down,↓,0.5236720000393689,True,28,1
160K25S4,952,experiment,87,→,right,→,0.6493580997921526,True,28,1
160K25S4,953,experiment,71,←,left,←,0.7514404999092221,True,28,1
160K25S4,954,experiment,79,→,right,→,0.7347432998940349,True,28,1
160K25S4,955,experiment,81,→,right,→,0.46213560039177537,True,28,1
160K25S4,956,experiment,54,←,left,←,0.7376029998995364,True,28,1
160K25S4,957,experiment,53,↓,down,↓,0.697960099671036,True,28,1
160K25S4,958,experiment,62,→,right,→,0.6810416001826525,True,28,1
160K25S4,959,experiment,93,↑,up,↑,0.7105190996080637,True,28,1
160K25S4,960,experiment,82,→,right,→,0.446395100094378,True,28,1
160K25S4,961,experiment,92,↑,up,↑,0.5494906003586948,True,28,1
160K25S4,962,experiment,75,↑,up,↑,0.6143306996673346,True,28,1
160K25S4,963,experiment,98,→,right,→,0.46061279997229576,True,28,1
160K25S4,964,experiment,50,↑,up,↑,0.7054404001682997,True,28,1
160K25S4,965,experiment,88,↓,down,↓,0.6635038000531495,True,28,1
160K25S4,966,experiment,72,↓,down,↓,0.7165323002263904,True,28,1
160K25S4,967,experiment,83,↑,up,↑,0.5558144003152847,True,28,1
160K25S4,968,experiment,57,↑,up,↑,0.5702940998598933,True,28,1
160K25S4,969,experiment,60,↓,down,↓,0.519588700029999,True,28,1
160K25S4,970,experiment,70,↑,up,↑,0.5871879998594522,True,28,1
160K25S4,971,experiment,100,←,left,←,0.6741883000358939,True,28,1
160K25S4,972,experiment,61,→,right,→,0.48275279998779297,True,28,1
160K25S4,973,experiment,85,→,right,→,0.4666008003987372,True,28,1
160K25S4,974,experiment,52,→,right,→,0.7104481002315879,True,28,1
160K25S4,975,experiment,89,→,right,→,0.6601134999655187,True,28,1
160K25S4,976,experiment,74,↑,up,↑,0.4968429999426007,True,28,1
160K25S4,977,experiment,104,←,left,←,0.5698580997996032,True,28,1
160K25S4,978,experiment,86,↓,down,↓,0.5022041001357138,True,28,1
160K25S4,979,experiment,102,←,left,←,0.7279141996987164,True,28,1
160K25S4,980,experiment,108,↓,down,↓,0.5347919999621809,True,28,1
160K25S4,981,experiment,106,↓,down,↓,0.5176574997603893,True,28,1
160K25S4,982,experiment,107,↓,down,↓,0.7089778999798,True,28,1
160K25S4,983,experiment,80,←,left,←,0.6778846001252532,True,28,1
160K25S4,984,experiment,49,↑,up,↑,0.8181396001018584,True,28,1
160K25S4,985,experiment,64,←,left,←,0.42790000000968575,True,28,1
160K25S4,986,training,51,←,left,←,0.7693289997987449,True,28,0
160K25S4,987,training,70,↑,up,↑,0.6030079000629485,True,28,1
160K25S4,988,experiment,93,↓,down,↓,0.5558162000961602,True,28,1
160K25S4,989,experiment,77,↓,down,↓,0.4513841001316905,True,28,1
160K25S4,990,experiment,95,←,left,←,0.4335532998666167,True,28,1
160K25S4,991,experiment,108,↓,down,↓,0.49993119994178414,True,28,1
160K25S4,992,experiment,103,←,left,←,0.4372999002225697,True,28,1
160K25S4,993,experiment,72,↑,up,↑,0.539355400018394,True,28,1
160K25S4,994,experiment,58,←,left,←,0.7063537002541125,True,28,1
160K25S4,995,experiment,82,←,left,←,0.6822746000252664,True,28,1
160K25S4,996,experiment,52,→,right,→,0.64521440025419,True,28,1
160K25S4,997,experiment,63,↓,down,↓,0.6222982998006046,True,28,1
160K25S4,998,experiment,60,→,right,→,0.5691561000421643,True,28,1
160K25S4,999,experiment,94,→,right,→,0.5069985003210604,True,28,1
160K25S4,1000,experiment,76,←,left,←,0.4210696001537144,True,28,1
160K25S4,1001,experiment,90,↑,up,↑,0.4856108999811113,True,28,1
160K25S4,1002,experiment,57,→,right,→,0.4390223999507725,True,28,1
160K25S4,1003,experiment,83,↓,down,↓,0.6414886000566185,True,28,1
160K25S4,1004,experiment,66,↓,down,↓,0.6336799999698997,True,28,1
160K25S4,1005,experiment,49,↓,down,↓,0.5035910001024604,True,28,1
160K25S4,1006,experiment,96,↑,up,↑,0.772008900064975,True,28,1
160K25S4,1007,experiment,106,→,right,→,0.4486226001754403,True,28,1
160K25S4,1008,experiment,67,→,right,→,0.6880272999405861,True,28,1
160K25S4,1009,experiment,104,↑,up,↑,0.7295128996483982,True,28,1
160K25S4,1010,experiment,99,→,right,→,0.7147618001326919,True,28,1
160K25S4,1011,experiment,48,↓,down,↓,0.501813099719584,True,28,1
160K25S4,1012,experiment,85,←,left,←,0.5412721000611782,True,28,1
160K25S4,1013,experiment,79,↓,down,↓,0.524912899825722,True,28,1
160K25S4,1014,experiment,101,→,right,→,0.5020051999017596,True,28,1
160K25S4,1015,experiment,97,←,left,←,0.6493695001117885,True,28,1
160K25S4,1016,experiment,64,↑,up,↑,0.7698198002763093,True,28,1
160K25S4,1017,experiment,59,↓,down,↓,0.6872871001251042,True,28,1
160K25S4,1018,experiment,69,↑,up,↑,0.6367788999341428,True,28,1
160K25S4,1019,experiment,91,↓,down,↓,0.660803799983114,True,28,1
160K25S4,1020,experiment,98,←,left,←,0.6493398998863995,True,28,1
160K25S4,1021,experiment,89,←,left,←,0.7613403000868857,True,28,1
160K25S4,1022,experiment,74,←,left,←,0.7060213997028768,True,28,1
160K25S4,1023,experiment,88,→,right,→,0.5120890997350216,True,28,1
160K25S4,1024,experiment,54,→,right,→,0.5455295001156628,True,28,1
160K25S4,1025,experiment,53,↓,down,↓,0.505897699855268,True,28,1
160K25S4,1026,experiment,105,←,left,←,0.45049360021948814,True,28,1
160K25S4,1027,experiment,80,↑,up,↑,0.6613596002571285,True,28,1
160K25S4,1028,experiment,70,←,left,←,0.4355329000391066,True,28,1
160K25S4,1029,experiment,61,→,right,→,0.5015397001989186,True,28,1
160K25S4,1030,experiment,71,←,left,←,0.6498325001448393,True,28,1
160K25S4,1031,experiment,56,→,right,→,0.46868709987029433,True,28,1
160K25S4,1032,experiment,75,→,right,→,0.712818400003016,True,28,1
160K25S4,1033,experiment,87,←,left,←,0.606787099968642,True,28,1
160K25S4,1034,experiment,102,→,right,→,0.6121502998284996,True,28,1
160K25S4,1035,experiment,50,→,right,→,0.6429631002247334,True,28,1
160K25S4,1036,experiment,81,↑,up,↑,0.5021298001520336,True,28,1
160K25S4,1037,experiment,92,←,left,←,0.4753160998225212,True,28,1
160K25S4,1038,experiment,78,←,left,←,0.725798700004816,True,28,1
160K25S4,1039,experiment,68,←,left,←,0.7539781001396477,True,28,1
160K25S4,1040,experiment,107,←,left,←,0.7998701999895275,True,28,1
160K25S4,1041,experiment,86,↑,up,↑,0.5788691998459399,True,28,1
160K25S4,1042,experiment,65,↓,down,↓,0.5500238998793066,True,28,1
160K25S4,1043,experiment,55,→,right,→,0.6534386002458632,True,28,1
160K25S4,1044,experiment,84,↓,down,↓,0.527114000171423,True,28,1
160K25S4,1045,experiment,51,→,right,→,0.545182699803263,True,28,1
160K25S4,1046,experiment,62,←,left,←,0.5422709002159536,True,28,1
160K25S4,1047,experiment,100,→,right,→,0.47901530005037785,True,28,1
160K25S4,1048,experiment,73,←,left,←,0.6830516001209617,True,28,1
160K25S4,1049,training,107,↑,up,↑,0.7011454999446869,True,28,0
160K25S4,1050,training,73,↑,up,↑,0.4645920996554196,True,28,1
160K25S4,1051,experiment,57,→,right,→,0.5946364998817444,True,28,1
160K25S4,1052,experiment,84,↑,up,↑,0.7346124001778662,True,28,1
160K25S4,1053,experiment,91,↓,down,↓,0.6666492000222206,True,28,1
160K25S4,1054,experiment,76,→,right,→,0.47842729976400733,True,28,1
160K25S4,1055,experiment,107,↑,up,↑,0.46344610024243593,True,28,1
160K25S4,1056,experiment,72,←,left,←,0.4765389999374747,True,28,1
160K25S4,1057,experiment,82,←,left,←,0.9499085997231305,True,28,1
160K25S4,1058,experiment,96,→,right,→,0.6315494999289513,True,28,1
160K25S4,1059,experiment,104,→,right,→,0.5632381998002529,True,28,1
160K25S4,1060,experiment,69,→,right,→,0.42956059984862804,True,28,1
160K25S4,1061,experiment,74,→,right,→,0.7714605997316539,True,28,1
160K25S4,1062,experiment,88,←,left,←,0.5987483002245426,True,28,1
160K25S4,1063,experiment,93,←,left,←,0.43950899969786406,True,28,1
160K25S4,1064,experiment,95,←,left,←,0.7018674998544157,True,28,1
160K25S4,1065,experiment,67,←,left,←,0.7153484998270869,True,28,1
160K25S4,1066,experiment,77,←,left,←,0.41307409992441535,True,28,1
160K25S4,1067,experiment,63,→,right,→,0.7428724002093077,True,28,1
160K25S4,1068,experiment,94,↑,up,↑,0.5694142999127507,True,28,1
160K25S4,1069,experiment,71,←,left,←,0.4270335999317467,True,28,1
160K25S4,1070,experiment,108,↑,up,↑,0.5976526997983456,True,28,1
160K25S4,1071,experiment,58,←,left,←,0.6019751997664571,True,28,1
160K25S4,1072,experiment,75,←,left,←,0.7208298002369702,True,28,1
160K25S4,1073,experiment,87,→,right,→,0.6864032000303268,True,28,1
160K25S4,1074,experiment,92,↓,down,↓,0.6921498998999596,True,28,1
160K25S4,1075,experiment,70,←,left,←,0.7048562997952104,True,28,1
160K25S4,1076,experiment,103,↓,down,↓,0.5860599996522069,True,28,1
160K25S4,1077,experiment,56,↓,down,↓,0.4796376000158489,True,28,1
160K25S4,1078,experiment,100,←,left,←,0.48269600002095103,True,28,1
160K25S4,1079,experiment,61,→,right,→,0.4988063001073897,True,28,1
160K25S4,1080,experiment,97,←,left,←,0.7742457999847829,True,28,1
160K25S4,1081,experiment,86,↑,up,↑,0.7222268995828927,True,28,1
160K25S4,1082,experiment,50,↑,up,↑,0.7002068003639579,True,28,1
160K25S4,1083,experiment,78,↓,down,↓,0.6299032000824809,True,28,1
160K25S4,1084,experiment,73,↓,down,↓,0.6761018000543118,True,28,1
160K25S4,1085,experiment,79,←,left,←,0.5111108999699354,True,28,1
160K25S4,1086,experiment,89,↑,up,↑,0.5480773998424411,True,28,1
160K25S4,1087,experiment,62,↓,down,↓,0.4731935001909733,True,28,1
160K25S4,1088,experiment,51,↓,down,↓,0.46105860034003854,True,28,1
160K25S4,1089,experiment,49,←,left,←,0.4105862998403609,True,28,1
160K25S4,1090,experiment,60,↑,up,↑,0.7011841996572912,True,28,1
160K25S4,1091,experiment,54,←,left,←,0.4312844998203218,True,28,1
160K25S4,1092,experiment,106,↓,up,↑,0.753939799964428,False,28,1
160K25S4,1093,experiment,53,←,left,←,0.5460710003972054,True,28,1
160K25S4,1094,experiment,81,←,left,←,0.37592440005391836,True,28,1
160K25S4,1095,experiment,55,↑,up,↑,0.5514237997122109,True,28,0
160K25S4,1096,experiment,48,←,left,←,0.44891260005533695,True,28,1
160K25S4,1097,experiment,68,←,left,←,0.7201234996318817,True,28,1
160K25S4,1098,experiment,52,↑,up,↑,0.5058416998945177,True,28,1
160K25S4,1099,experiment,102,↓,down,↓,0.6193134002387524,True,28,1
160K25S4,1100,experiment,98,→,right,→,0.7135526998899877,True,28,1
160K25S4,1101,experiment,105,→,right,→,0.6975377001799643,True,28,1
160K25S4,1102,experiment,83,↓,down,↓,0.4735938999801874,True,28,1
160K25S4,1103,experiment,99,→,right,→,0.43740699999034405,True,28,1
160K25S4,1104,experiment,59,→,right,→,0.4561064001172781,True,28,1
160K25S4,1105,experiment,65,↓,down,↓,0.49590619979426265,True,28,1
160K25S4,1106,experiment,66,↑,up,↑,0.7096532001160085,True,28,1
160K25S4,1107,experiment,80,←,left,←,0.6383655001409352,True,28,1
160K25S4,1108,experiment,90,↑,up,↑,0.7103347000665963,True,28,1
160K25S4,1109,experiment,64,↑,up,↑,0.7244870997965336,True,28,1
160K25S4,1110,experiment,101,↑,up,↑,0.765558899845928,True,28,1
160K25S4,1111,experiment,85,←,left,←,0.6742136999964714,True,28,1
160K25S4,1112,training,56,↑,up,↑,0.5452958000823855,True,28,0
160K25S4,1113,training,88,↓,down,↓,0.5100090997293591,True,28,1
160K25S4,1114,experiment,88,←,left,←,0.6361083001829684,True,28,1
160K25S4,1115,experiment,72,←,left,←,0.45857630018144846,True,28,1
160K25S4,1116,experiment,71,←,left,←,0.4324211999773979,True,28,1
160K25S4,1117,experiment,90,↑,up,↑,0.5128366001881659,True,28,1
160K25S4,1118,experiment,69,↑,up,↑,0.5249857003800571,True,28,1
160K25S4,1119,experiment,92,↓,down,↓,0.52104949997738,True,28,1
160K25S4,1120,experiment,60,↓,down,↓,0.5121877999044955,True,28,1
160K25S4,1121,experiment,101,→,right,→,0.41802839981392026,True,28,1
160K25S4,1122,experiment,50,←,left,←,0.42444990016520023,True,28,1
160K25S4,1123,experiment,86,↓,down,↓,0.6424418003298342,True,28,1
160K25S4,1124,experiment,64,↓,down,↓,0.4431781996972859,True,28,1
160K25S4,1125,experiment,93,↑,up,↑,0.5461897999048233,True,28,1
160K25S4,1126,experiment,62,↑,up,↑,0.6236119996756315,True,28,1
160K25S4,1127,experiment,63,←,left,←,0.6813404001295567,True,28,1
160K25S4,1128,experiment,65,←,left,←,0.6640960997901857,True,28,1
160K25S4,1129,experiment,105,↓,down,↓,0.49026590026915073,True,28,1
160K25S4,1130,experiment,87,↑,up,↑,0.6013744999654591,True,28,1
160K25S4,1131,experiment,61,↑,up,↑,0.7886206000111997,True,28,1
160K25S4,1132,experiment,59,↓,down,↓,0.5050390996038914,True,28,1
160K25S4,1133,experiment,78,↑,up,↑,0.5143613000400364,True,28,1
160K25S4,1134,experiment,96,→,right,→,0.6774192000739276,True,28,1
160K25S4,1135,experiment,83,←,left,←,0.4625033000484109,True,28,1
160K25S4,1136,experiment,107,↓,down,↓,0.5200257999822497,True,28,1
160K25S4,1137,experiment,74,←,left,←,0.6903621996752918,True,28,1
160K25S4,1138,experiment,55,←,left,←,0.9638981996104121,True,28,1
160K25S4,1139,experiment,104,→,right,→,0.47424269979819655,True,28,1
160K25S4,1140,experiment,51,←,left,←,0.41460550017654896,True,28,1
160K25S4,1141,experiment,95,↑,up,↑,0.7575280996970832,True,28,1
160K25S4,1142,experiment,91,←,left,←,0.4090189002454281,True,28,1
160K25S4,1143,experiment,99,→,right,→,0.6386052998714149,True,28,1
160K25S4,1144,experiment,67,←,left,←,0.4463279996998608,True,28,1
160K25S4,1145,experiment,54,→,right,→,0.450044899713248,True,28,1
160K25S4,1146,experiment,53,↓,down,↓,0.49426010018214583,True,28,1
160K25S4,1147,experiment,52,↑,up,↑,0.5929406001232564,True,28,1
160K25S4,1148,experiment,102,→,right,→,0.5989957000128925,True,28,1
160K25S4,1149,experiment,58,←,left,←,0.707479199860245,True,28,1
160K25S4,1150,experiment,73,↑,up,↑,0.598522299900651,True,28,1
160K25S4,1151,experiment,81,↓,down,↓,0.6671974002383649,True,28,1
160K25S4,1152,experiment,82,→,right,→,0.4368775999173522,True,28,1
160K25S4,1153,experiment,66,→,right,→,0.46926380041986704,True,28,1
160K25S4,1154,experiment,68,→,right,→,0.6677259998396039,True,28,1
160K25S4,1155,experiment,57,↑,up,↑,0.6779199996963143,True,28,1
160K25S4,1156,experiment,94,↑,up,↑,0.49104889994487166,True,28,1
160K25S4,1157,experiment,56,←,left,←,0.4131471998989582,True,28,1
160K25S4,1158,experiment,97,↓,down,↓,0.5073775998316705,True,28,1
160K25S4,1159,experiment,100,↓,down,↓,0.4933641003444791,True,28,1
160K25S4,1160,experiment,103,→,right,→,0.591127899941057,True,28,1
160K25S4,1161,experiment,48,↓,down,↓,0.6632015998475254,True,28,1
160K25S4,1162,experiment,80,→,right,→,0.4338310998864472,True,28,1
160K25S4,1163,experiment,76,←,left,←,0.6227293000556529,True,28,1
160K25S4,1164,experiment,70,↑,up,↑,0.7420581998303533,True,28,1
160K25S4,1165,experiment,79,→,right,→,0.5899039003998041,True,28,1
160K25S4,1166,experiment,89,→,right,→,0.6481507997959852,True,28,1
160K25S4,1167,experiment,106,↓,down,↓,0.4825217998586595,True,28,1
160K25S4,1168,experiment,75,→,right,→,0.5739154000766575,True,28,1
160K25S4,1169,experiment,84,↑,up,↑,0.4666214999742806,True,28,1
160K25S4,1170,experiment,49,←,left,←,0.7275870000012219,True,28,1
160K25S4,1171,experiment,98,↑,up,↑,0.633475299924612,True,28,1
160K25S4,1172,experiment,108,↓,down,↓,0.643813299946487,True,28,1
160K25S4,1173,experiment,77,→,right,→,0.4081788999028504,True,28,1
160K25S4,1174,experiment,85,←,left,←,0.5552803003229201,True,28,0
160K25S4,1175,training,89,↑,up,↑,0.4406701000407338,True,28,0
160K25S4,1176,training,80,↓,down,↓,0.6600921996869147,True,28,1
160K25S4,1177,experiment,73,↑,up,↑,0.42518449993804097,True,28,1
160K25S4,1178,experiment,98,→,right,→,0.5912294997833669,True,28,1
160K25S4,1179,experiment,103,→,right,→,1.01283790031448,True,28,1
160K25S4,1180,experiment,102,→,right,→,0.8900210000574589,True,28,1
160K25S4,1181,experiment,71,←,left,←,0.6465296000242233,True,28,1
160K25S4,1182,experiment,60,↑,up,↑,0.432330799754709,True,28,1
160K25S4,1183,experiment,96,↓,down,↓,0.45474170008674264,True,28,1
160K25S4,1184,experiment,83,↑,up,↑,0.41665600007399917,True,28,1
160K25S4,1185,experiment,65,←,left,←,0.4419049001298845,True,28,1
160K25S4,1186,experiment,49,→,right,→,0.4478891002945602,True,28,1
160K25S4,1187,experiment,79,↑,up,↑,0.6350557003170252,True,28,1
160K25S4,1188,experiment,48,↑,up,↑,0.5617372002452612,True,28,1
160K25S4,1189,experiment,82,↑,up,↑,0.6874850001186132,True,28,1
160K25S4,1190,experiment,62,←,left,←,0.870783600024879,True,28,1
160K25S4,1191,experiment,67,↓,down,↓,0.4616652000695467,True,28,1
160K25S4,1192,experiment,86,→,right,→,0.6940705999732018,True,28,1
160K25S4,1193,experiment,57,←,left,←,0.6711984002031386,True,28,1
160K25S4,1194,experiment,81,→,right,→,0.704776399768889,True,28,1
160K25S4,1195,experiment,61,→,right,→,0.4402482998557389,True,28,1
160K25S4,1196,experiment,56,↑,up,↑,0.7237980999052525,True,28,1
160K25S4,1197,experiment,55,↑,up,↑,0.5720553998835385,True,28,1
160K25S4,1198,experiment,85,→,right,→,0.44044099980965257,True,28,1
160K25S4,1199,experiment,93,←,left,←,0.463489199988544,True,28,1
160K25S4,1200,experiment,80,↓,down,↓,0.6822097999975085,True,28,1
160K25S4,1201,experiment,84,↑,up,↑,0.7382569001056254,True,28,1
160K25S4,1202,experiment,70,←,left,←,0.4530143002048135,True,28,1
160K25S4,1203,experiment,63,↑,up,↑,0.7177341999486089,True,28,1
160K25S4,1204,experiment,105,→,right,→,0.4697771002538502,True,28,1
160K25S4,1205,experiment,92,←,left,←,0.7322050998918712,True,28,1
160K25S4,1206,experiment,78,←,left,←,0.5885422001592815,True,28,1
160K25S4,1207,experiment,90,↓,down,↓,0.5426007001660764,True,28,1
160K25S4,1208,experiment,104,→,right,→,0.4459914998151362,True,28,1
160K25S4,1209,experiment,69,↓,down,↓,0.6528524998575449,True,28,1
160K25S4,1210,experiment,51,↓,down,↓,0.5054788999259472,True,28,1
160K25S4,1211,experiment,91,←,left,←,0.47061940003186464,True,28,1
160K25S4,1212,experiment,53,↑,up,↑,0.713984000030905,True,28,1
160K25S4,1213,experiment,88,→,right,→,0.927509400062263,True,28,1
160K25S4,1214,experiment,107,←,left,←,0.4228171999566257,True,28,1
160K25S4,1215,experiment,74,→,right,→,0.7168176998384297,True,28,1
160K25S4,1216,experiment,97,→,right,→,0.7754942001774907,True,28,1
160K25S4,1217,experiment,87,↓,down,↓,0.48338230000808835,True,28,1
160K25S4,1218,experiment,101,→,right,→,0.7418444002978504,True,28,1
160K25S4,1219,experiment,66,↓,down,↓,0.49832129990682006,True,28,1
160K25S4,1220,experiment,64,↑,up,↑,0.7682696999981999,True,28,1
160K25S4,1221,experiment,76,↓,down,↓,0.5119830998592079,True,28,1
160K25S4,1222,experiment,52,→,right,→,0.6820868002250791,True,28,1
160K25S4,1223,experiment,108,↑,up,↑,0.6985443998128176,True,28,1
160K25S4,1224,experiment,99,←,left,←,0.41352529963478446,True,28,1
160K25S4,1225,experiment,77,↑,up,↑,0.6832522000186145,True,28,1
160K25S4,1226,experiment,100,↑,up,↑,0.6776589998044074,True,28,1
160K25S4,1227,experiment,95,↑,up,↑,0.7227067998610437,True,28,1
160K25S4,1228,experiment,50,←,left,←,0.42090610042214394,True,28,1
160K25S4,1229,experiment,54,→,right,→,0.45746490033343434,True,28,1
160K25S4,1230,experiment,94,↓,down,↓,0.6395053998567164,True,28,1
160K25S4,1231,experiment,59,→,right,→,0.6259558000601828,True,28,1
160K25S4,1232,experiment,58,↓,down,↓,0.5013303002342582,True,28,1
160K25S4,1233,experiment,75,↑,up,↑,0.49609770020470023,True,28,1
160K25S4,1234,experiment,106,↓,down,↓,0.4644180000759661,True,28,1
160K25S4,1235,experiment,68,↑,up,↑,0.6791123999282718,True,28,1
160K25S4,1236,experiment,72,↑,up,↑,0.6755488999187946,True,28,1
160K25S4,1237,experiment,89,↑,up,↑,0.41112580010667443,True,28,1
160K25S4,1238,training,70,←,left,←,0.4317524000070989,True,28,0
160K25S4,1239,training,48,↓,down,↓,0.7100474000908434,True,28,1
160K25S4,1240,experiment,69,↑,up,↑,0.48240180034190416,True,28,1
160K25S4,1241,experiment,68,↑,up,↑,0.4480779003351927,True,28,1
160K25S4,1242,experiment,73,←,left,←,0.7420196998864412,True,28,1
160K25S4,1243,experiment,107,↑,up,↑,0.44405469996854663,True,28,1
160K25S4,1244,experiment,75,↑,up,↑,0.7289260998368263,True,28,1
160K25S4,1245,experiment,97,↑,up,↑,0.4274393003433943,True,28,1
160K25S4,1246,experiment,87,←,left,←,0.4526784997433424,True,28,1
160K25S4,1247,experiment,82,↑,up,↑,0.49512580037117004,True,28,1
160K25S4,1248,experiment,65,←,left,←,0.44546240009367466,True,28,1
160K25S4,1249,experiment,57,↑,up,↑,0.44825869984924793,True,28,1
160K25S4,1250,experiment,80,→,right,→,0.4353773999027908,True,28,1
160K25S4,1251,experiment,51,←,left,←,1.0329299997538328,True,28,1
160K25S4,1252,experiment,52,←,left,←,0.7738507003523409,True,28,1
160K25S4,1253,experiment,59,→,right,→,0.7229102002456784,True,28,1
160K25S4,1254,experiment,88,→,right,→,0.7363165002316236,True,28,1
160K25S4,1255,experiment,98,↓,down,↓,0.7139594000764191,True,28,1
160K25S4,1256,experiment,67,←,left,←,0.86251650005579,True,28,1
160K25S4,1257,experiment,62,↑,up,↑,0.7353576002642512,True,28,1
160K25S4,1258,experiment,90,←,left,←,0.4516821997240186,True,28,1
160K25S4,1259,experiment,72,↑,up,↑,0.6334664998576045,True,28,1
160K25S4,1260,experiment,60,↓,down,↓,0.5479490999132395,True,28,1
160K25S4,1261,experiment,91,→,right,→,0.45560229988768697,True,28,1
160K25S4,1262,experiment,96,→,right,→,0.7246477003209293,True,28,1
160K25S4,1263,experiment,84,→,right,→,0.4195404998026788,True,28,1
160K25S4,1264,experiment,92,→,right,→,0.7077709003351629,True,28,1
160K25S4,1265,experiment,94,↓,down,↓,0.5117424000054598,True,28,1
160K25S4,1266,experiment,66,↓,down,↓,0.685115700121969,True,28,1
160K25S4,1267,experiment,58,↓,down,↓,0.5183719000779092,True,28,1
160K25S4,1268,experiment,106,↑,up,↑,0.7179719996638596,True,28,1
160K25S4,1269,experiment,70,→,right,→,0.6977681997232139,True,28,1
160K25S4,1270,experiment,63,↑,up,↑,0.7685052999295294,True,28,1
160K25S4,1271,experiment,99,↓,down,↓,0.6965131000615656,True,28,1
160K25S4,1272,experiment,104,←,left,←,0.4573601000010967,True,28,1
160K25S4,1273,experiment,89,→,right,→,0.6893644998781383,True,28,1
160K25S4,1274,experiment,53,→,right,→,0.6676540998741984,True,28,1
160K25S4,1275,experiment,101,→,right,→,0.638937100302428,True,28,1
160K25S4,1276,experiment,54,↑,up,↑,0.6189886000938714,True,28,1
160K25S4,1277,experiment,86,←,left,←,0.5896490998566151,True,28,1
160K25S4,1278,experiment,50,↓,down,↓,0.5009176000021398,True,28,1
160K25S4,1279,experiment,102,↑,up,↑,0.6625983999110758,True,28,1
160K25S4,1280,experiment,61,←,left,←,0.431396699976176,True,28,1
160K25S4,1281,experiment,95,↑,up,↑,0.4380121002905071,True,28,1
160K25S4,1282,experiment,78,←,left,←,0.7301282999105752,True,28,1
160K25S4,1283,experiment,56,→,right,→,0.41033180011436343,True,28,1
160K25S4,1284,experiment,103,←,left,←,0.37605310045182705,True,28,1
160K25S4,1285,experiment,93,←,left,←,0.4479503002949059,True,28,0
160K25S4,1286,experiment,71,↑,up,↑,0.4620570996776223,True,28,1
160K25S4,1287,experiment,64,↑,up,↑,0.6781999999657273,True,28,1
160K25S4,1288,experiment,74,↓,down,↓,0.7702377997338772,True,28,1
160K25S4,1289,experiment,108,↓,down,↓,0.5352469002828002,True,28,1
160K25S4,1290,experiment,48,→,right,→,0.41796759981662035,True,28,1
160K25S4,1291,experiment,76,→,right,→,0.6794028002768755,True,28,1
160K25S4,1292,experiment,105,↑,up,↑,0.7207339997403324,True,28,1
160K25S4,1293,experiment,79,↓,down,↓,0.6971048000268638,True,28,1
160K25S4,1294,experiment,55,↑,up,↑,0.7064950997009873,True,28,1
160K25S4,1295,experiment,49,↑,up,↑,0.678016200195998,True,28,1
160K25S4,1296,experiment,100,↓,down,↓,0.6492885001935065,True,28,1
160K25S4,1297,experiment,83,↑,up,↑,0.6990946000441909,True,28,1
160K25S4,1298,experiment,81,→,right,→,0.42781849997118115,True,28,1
160K25S4,1299,experiment,85,←,left,←,0.7421017000451684,True,28,1
160K25S4,1300,experiment,77,→,right,→,0.7184906001202762,True,28,1
160K25S4,1301,training,97,←,left,←,0.5587005997076631,True,28,0
160K25S4,1302,training,55,←,left,←,0.4214155999943614,True,28,1
160K25S4,1303,experiment,69,↑,up,↑,0.5333551000803709,True,28,1
160K25S4,1304,experiment,102,→,right,→,0.42168990010395646,True,28,1
160K25S4,1305,experiment,49,↓,down,↓,0.5560496002435684,True,28,1
160K25S4,1306,experiment,75,↑,up,↑,0.5886670998297632,True,28,1
160K25S4,1307,experiment,80,↓,down,↓,0.6658936999738216,True,28,1
160K25S4,1308,experiment,98,←,left,←,0.7101969998329878,True,28,1
160K25S4,1309,experiment,72,→,right,→,0.41775349993258715,True,28,1
160K25S4,1310,experiment,87,→,right,→,0.49165739957243204,True,28,1
160K25S4,1311,experiment,85,←,left,←,0.4275019997730851,True,28,1
160K25S4,1312,experiment,78,↓,down,↓,0.6481532999314368,True,28,1
160K25S4,1313,experiment,108,←,left,←,0.7778227003291249,True,28,1
160K25S4,1314,experiment,79,↑,up,↑,0.4562082998454571,True,28,1
160K25S4,1315,experiment,90,→,right,→,0.49568889988586307,True,28,1
160K25S4,1316,experiment,83,↓,down,↓,0.5437206998467445,True,28,1
160K25S4,1317,experiment,66,↑,up,↑,0.5957655003294349,True,28,1
160K25S4,1318,experiment,57,←,left,←,0.5688453000038862,True,28,1
160K25S4,1319,experiment,89,↑,up,↑,0.5804389999248087,True,28,1
160K25S4,1320,experiment,84,→,right,→,0.4326529996469617,True,28,1
160K25S4,1321,experiment,92,←,left,←,0.472395199816674,True,28,1
160K25S4,1322,experiment,55,↑,up,↑,0.7547642001882195,True,28,1
160K25S4,1323,experiment,74,↑,up,↑,0.4279334000311792,True,28,1
160K25S4,1324,experiment,88,→,right,→,0.4290627003647387,True,28,1
160K25S4,1325,experiment,86,↓,down,↓,0.510614300146699,True,28,1
160K25S4,1326,experiment,65,↓,down,↓,0.6843584002926946,True,28,1
160K25S4,1327,experiment,76,↑,up,↑,0.599461100064218,True,28,1
160K25S4,1328,experiment,93,↑,up,↑,0.6082778996787965,True,28,1
160K25S4,1329,experiment,96,↑,up,↑,0.47150700027123094,True,28,1
160K25S4,1330,experiment,99,←,left,←,0.7312599001452327,True,28,1
160K25S4,1331,experiment,106,←,left,←,0.7701713000424206,True,28,1
160K25S4,1332,experiment,59,↓,down,↓,0.6795646999962628,True,28,1
160K25S4,1333,experiment,77,←,left,←,0.4825373003259301,True,28,1
160K25S4,1334,experiment,70,↑,up,↑,0.7114157998003066,True,28,1
160K25S4,1335,experiment,68,↑,up,↑,0.7241821996867657,True,28,1
160K25S4,1336,experiment,67,→,right,→,0.632543200161308,True,28,1
160K25S4,1337,experiment,107,↓,down,↓,0.7071818001568317,True,28,1
160K25S4,1338,experiment,94,→,right,→,0.4313419000245631,True,28,1
160K25S4,1339,experiment,56,↓,down,↓,0.5389793999493122,True,28,1
160K25S4,1340,experiment,58,←,left,←,0.4259034995920956,True,28,1
160K25S4,1341,experiment,71,↓,down,↓,0.5368506000377238,True,28,1
160K25S4,1342,experiment,61,↓,down,↓,0.710931200068444,True,28,1
160K25S4,1343,experiment,103,←,left,←,0.6879594000056386,True,28,1
160K25S4,1344,experiment,73,→,right,→,0.42782829981297255,True,28,1
160K25S4,1345,experiment,91,↓,down,↓,0.5957163996063173,True,28,1
160K25S4,1346,experiment,104,↑,up,↑,0.7692076000384986,True,28,1
160K25S4,1347,experiment,62,↑,up,↑,0.6855518999509513,True,28,1
160K25S4,1348,experiment,82,↓,down,↓,0.6945989998057485,True,28,1
160K25S4,1349,experiment,97,←,left,←,0.37572159990668297,True,28,1
160K25S4,1350,experiment,51,←,left,←,0.7456657001748681,True,28,0
160K25S4,1351,experiment,60,↓,down,↓,0.7274056999012828,True,28,1
160K25S4,1352,experiment,48,↓,down,↓,0.6341035002842546,True,28,1
160K25S4,1353,experiment,50,↓,down,↓,0.5039494000375271,True,28,1
160K25S4,1354,experiment,64,↑,up,↑,0.7421240997500718,True,28,1
160K25S4,1355,experiment,95,↓,down,↓,0.480343499686569,True,28,1
160K25S4,1356,experiment,100,→,right,→,0.4040414998307824,True,28,1
160K25S4,1357,experiment,81,↓,down,↓,0.5126518001779914,True,28,1
160K25S4,1358,experiment,101,←,left,←,0.497689800336957,True,28,1
160K25S4,1359,experiment,52,→,right,→,0.7486204002052546,True,28,1
160K25S4,1360,experiment,54,←,left,←,0.7076845997944474,True,28,1
160K25S4,1361,experiment,63,↑,up,↑,0.7301411996595562,True,28,1
160K25S4,1362,experiment,53,←,left,←,0.7068698997609317,True,28,1
160K25S4,1363,experiment,105,↓,down,↓,0.667250799946487,True,28,1
160K25S4,1364,training,98,↓,down,↓,0.7452512001618743,True,28,0
160K25S4,1365,training,100,←,left,←,0.6494227000512183,True,28,1
160K25S4,1366,experiment,107,←,right,→,0.7395308003760874,False,28,1
160K25S4,1367,experiment,77,→,right,→,0.6438501998782158,True,28,1
160K25S4,1368,experiment,108,↑,up,↑,0.6941108000464737,True,28,1
160K25S4,1369,experiment,103,←,left,←,0.5355362999252975,True,28,1
160K25S4,1370,experiment,88,→,right,→,0.44461729982867837,True,28,1
160K25S4,1371,experiment,90,→,right,→,0.42098280042409897,True,28,1
160K25S4,1372,experiment,82,←,left,←,0.6241975999437273,True,28,1
160K25S4,1373,experiment,52,→,right,→,1.0374775999225676,True,28,1
160K25S4,1374,experiment,64,←,left,←,0.5662146001122892,True,28,1
160K25S4,1375,experiment,48,↓,down,↓,0.7520647998899221,True,28,1
160K25S4,1376,experiment,85,↓,down,↓,0.6606558999046683,True,28,1
160K25S4,1377,experiment,53,→,right,→,0.6564632002264261,True,28,1
160K25S4,1378,experiment,81,↓,down,↓,0.6267880001105368,True,28,1
160K25S4,1379,experiment,75,→,right,→,0.4010534002445638,True,28,1
160K25S4,1380,experiment,63,↑,up,↑,0.7149990000762045,True,28,0
160K25S4,1381,experiment,104,→,right,→,0.931205099914223,True,28,1
160K25S4,1382,experiment,59,↑,up,↑,0.7299420000053942,True,28,1
160K25S4,1383,experiment,55,→,right,→,0.706113999709487,True,28,1
160K25S4,1384,experiment,97,←,left,←,0.72518640011549,True,28,1
160K25S4,1385,experiment,99,↓,down,↓,0.6637410996481776,True,28,1
160K25S4,1386,experiment,57,←,left,←,0.7528589996509254,True,28,1
160K25S4,1387,experiment,95,↓,down,↓,0.6908577000722289,True,28,1
160K25S4,1388,experiment,60,→,right,→,0.6989389001391828,True,28,1
160K25S4,1389,experiment,92,↑,up,↑,0.7599201998673379,True,28,1
160K25S4,1390,experiment,83,←,left,←,0.375600999686867,True,28,1
160K25S4,1391,experiment,67,←,left,←,0.6236235997639596,True,28,0
160K25S4,1392,experiment,101,↑,up,↑,0.7568417000584304,True,28,1
160K25S4,1393,experiment,89,→,right,→,0.42449270002543926,True,28,1
160K25S4,1394,experiment,73,→,right,→,0.4708638000302017,True,28,1
160K25S4,1395,experiment,98,↑,up,↑,0.8109195996075869,True,28,1
160K25S4,1396,experiment,87,↑,up,↑,0.5652537001296878,True,28,1
160K25S4,1397,experiment,96,↓,down,↓,0.7103995000943542,True,28,1
160K25S4,1398,experiment,102,↓,down,↓,0.6077179000712931,True,28,1
160K25S4,1399,experiment,78,↑,up,↑,0.6211202000267804,True,28,1
160K25S4,1400,experiment,105,↑,up,↑,0.4331716001033783,True,28,1
160K25S4,1401,experiment,94,←,left,←,0.7601895998232067,True,28,1
160K25S4,1402,experiment,106,↓,down,↓,0.5422551999799907,True,28,1
160K25S4,1403,experiment,51,→,right,→,0.6953517999500036,True,28,1
160K25S4,1404,experiment,91,↑,up,↑,0.7649195999838412,True,28,1
160K25S4,1405,experiment,54,→,right,→,0.6279806001111865,True,28,1
160K25S4,1406,experiment,49,↑,up,↑,0.6988398004323244,True,28,1
160K25S4,1407,experiment,76,←,left,←,0.42900529969483614,True,28,1
160K25S4,1408,experiment,68,↓,down,↓,0.5246037002652884,True,28,1
160K25S4,1409,experiment,84,→,right,→,0.49928219988942146,True,28,1
160K25S4,1410,experiment,79,←,left,←,0.6446984000504017,True,28,1
160K25S4,1411,experiment,69,→,right,→,0.7077557002194226,True,28,1
160K25S4,1412,experiment,65,↑,up,↑,0.6414296003058553,True,28,1
160K25S4,1413,experiment,74,←,left,←,0.6628298996947706,True,28,1
160K25S4,1414,experiment,100,↓,down,↓,0.6586250001564622,True,28,1
160K25S4,1415,experiment,80,→,right,→,0.4531975998543203,True,28,1
160K25S4,1416,experiment,56,↓,down,↓,0.4964220002293587,True,28,1
160K25S4,1417,experiment,93,↑,up,↑,0.637150099966675,True,28,1
160K25S4,1418,experiment,70,→,right,→,0.7641956997103989,True,28,1
160K25S4,1419,experiment,86,←,left,←,0.6885500000789762,True,28,1
160K25S4,1420,experiment,72,↓,down,↓,0.692506100051105,True,28,1
160K25S4,1421,experiment,61,←,left,←,0.7483566999435425,True,28,1
160K25S4,1422,experiment,58,↑,up,↑,0.7387203997932374,True,28,1
160K25S4,1423,experiment,62,↑,up,↑,0.7280378001742065,True,28,1
160K25S4,1424,experiment,66,→,right,→,0.6208436000160873,True,28,1
160K25S4,1425,experiment,50,↑,up,↑,0.714905200060457,True,28,1
160K25S4,1426,experiment,71,←,left,←,0.4863112000748515,True,28,1
160K25S4,1427,training,108,←,left,←,0.7214438002556562,True,28,0
160K25S4,1428,training,71,↓,down,↓,0.7485635001212358,True,28,1
160K25S4,1429,experiment,66,↓,up,↑,0.7680728998966515,False,28,1
160K25S4,1430,experiment,106,→,right,→,0.6696758000180125,True,28,1
160K25S4,1431,experiment,74,↓,down,↓,0.4341910998336971,True,28,1
160K25S4,1432,experiment,92,↑,up,↑,0.7617360004223883,True,28,1
160K25S4,1433,experiment,71,→,right,→,0.6194778997451067,True,28,1
160K25S4,1434,experiment,85,←,left,←,0.6622488000430167,True,28,1
160K25S4,1435,experiment,94,←,left,←,0.5963853001594543,True,28,1
160K25S4,1436,experiment,76,←,left,←,0.7789397002197802,True,28,1
160K25S4,1437,experiment,77,↑,up,↑,0.5936256996355951,True,28,1
160K25S4,1438,experiment,102,→,right,→,0.6636369000189006,True,28,1
160K25S4,1439,experiment,63,↑,up,↑,0.6237483997829258,True,28,1
160K25S4,1440,experiment,60,↓,down,↓,0.49046709993854165,True,28,1
160K25S4,1441,experiment,69,→,right,→,0.5357504999265075,True,28,1
160K25S4,1442,experiment,100,↑,up,↑,0.6006167000159621,True,28,1
160K25S4,1443,experiment,57,→,right,→,0.7094153999350965,True,28,1
160K25S4,1444,experiment,108,↑,up,↑,0.5650571999140084,True,28,1
160K25S4,1445,experiment,56,→,right,→,0.7391892001032829,True,28,1
160K25S4,1446,experiment,107,→,right,→,0.4414622997865081,True,28,1
160K25S4,1447,experiment,91,←,left,←,0.4651828999631107,True,28,1
160K25S4,1448,experiment,103,↑,up,↑,0.7079356000758708,True,28,1
160K25S4,1449,experiment,72,←,left,←,0.423424799926579,True,28,1
160K25S4,1450,experiment,88,↓,down,↓,0.7129003000445664,True,28,1
160K25S4,1451,experiment,99,←,left,←,0.7306781997904181,True,28,1
160K25S4,1452,experiment,80,←,left,←,0.7784822001121938,True,28,1
160K25S4,1453,experiment,96,→,right,→,0.45903999963775277,True,28,1
160K25S4,1454,experiment,81,↑,up,↑,0.6935175000689924,True,28,1
160K25S4,1455,experiment,49,↓,down,↓,0.521429699845612,True,28,1
160K25S4,1456,experiment,95,→,right,→,0.6203609998337924,True,28,1
160K25S4,1457,experiment,84,←,left,←,0.6473551001399755,True,28,1
160K25S4,1458,experiment,59,↑,up,↑,0.7294596000574529,True,28,1
160K25S4,1459,experiment,54,↑,up,↑,0.618159499950707,True,28,1
160K25S4,1460,experiment,78,↓,down,↓,0.679199599660933,True,28,1
160K25S4,1461,experiment,101,←,left,←,0.42595720011740923,True,28,1
160K25S4,1462,experiment,79,↓,down,↓,0.5263457000255585,True,28,1
160K25S4,1463,experiment,68,↑,up,↑,0.7144308998249471,True,28,1
160K25S4,1464,experiment,70,↓,down,↓,0.5179415000602603,True,28,1
160K25S4,1465,experiment,98,↑,up,↑,0.48864350002259016,True,28,1
160K25S4,1466,experiment,62,→,right,→,0.4639162998646498,True,28,1
160K25S4,1467,experiment,55,↑,up,↑,0.6107504996471107,True,28,1
160K25S4,1468,experiment,53,↓,down,↓,0.49649350019171834,True,28,1
160K25S4,1469,experiment,82,↑,up,↑,0.46492960024625063,True,28,1
160K25S4,1470,experiment,90,↓,down,↓,0.6640917998738587,True,28,1
160K25S4,1471,experiment,48,→,right,→,0.9811368999071419,True,28,1
160K25S4,1472,experiment,73,↓,down,↓,0.43708919966593385,True,28,1
160K25S4,1473,experiment,50,→,right,→,0.5784743996337056,True,28,1
160K25S4,1474,experiment,64,↑,up,↑,0.7578970999456942,True,28,1
160K25S4,1475,experiment,65,↓,down,↓,0.5136656002141535,True,28,1
160K25S4,1476,experiment,58,↑,up,↑,0.6573041998781264,True,28,1
160K25S4,1477,experiment,75,←,left,←,0.581869900226593,True,28,1
160K25S4,1478,experiment,67,↓,down,↓,0.6559727997519076,True,28,1
160K25S4,1479,experiment,93,↑,up,↑,0.4701706999912858,True,28,1
160K25S4,1480,experiment,104,→,right,→,0.7846385999582708,True,28,1
160K25S4,1481,experiment,97,↓,down,↓,0.6326032001525164,True,28,1
160K25S4,1482,experiment,83,→,right,→,0.7553019998595119,True,28,1
160K25S4,1483,experiment,86,→,right,→,0.743953499943018,True,28,1
160K25S4,1484,experiment,89,↓,down,↓,0.6443189000710845,True,28,1
160K25S4,1485,experiment,61,↓,down,↓,0.4620802002027631,True,28,1
160K25S4,1486,experiment,105,←,left,←,0.7284252000972629,True,28,1
160K25S4,1487,experiment,52,↑,up,↑,0.5379516002722085,True,28,1
160K25S4,1488,experiment,51,↓,down,↓,0.554948200006038,True,28,1
