PART_ID,Trial_no,Trial_type,CSI,Stim_letter,Key_pressed,letter_choose,Rt,Corr,Stimulus Time,nDropped
160M25S2,1,training,120,→,right,→,0.6917739000055008,True,60,0
160M25S2,2,training,120,←,left,←,0.37543290003668517,True,60,0
160M25S2,3,training,120,↓,down,↓,0.4270214999560267,True,60,0
160M25S2,4,training,120,↑,up,↑,0.4684941000305116,True,60,0
160M25S2,5,training,120,←,left,←,0.5591567999799736,True,60,0
160M25S2,6,training,120,↓,down,↓,0.38520070002414286,True,60,0
160M25S2,7,training,120,↑,up,↑,1.5465376999927685,True,60,0
160M25S2,8,training,120,↑,up,↑,0.4923568000085652,True,60,0
160M25S2,9,training,120,↑,up,↑,0.7107985999900848,True,60,0
160M25S2,10,training,120,←,left,←,0.5340291999746114,True,60,0
160M25S2,11,training,120,→,right,→,0.5676715999725275,True,60,0
160M25S2,12,training,120,←,left,←,0.5917729000211693,True,60,0
160M25S2,13,training,120,←,left,←,0.43439589999616146,True,60,0
160M25S2,14,training,120,↑,up,↑,0.6848687999881804,True,60,0
160M25S2,15,training,120,←,left,←,0.4259334999951534,True,60,0
160M25S2,16,training,120,←,left,←,0.458693900029175,True,60,0
160M25S2,17,training,120,→,right,→,0.7498880000202917,True,60,0
160M25S2,18,training,120,↓,down,↓,0.46863940003095195,True,60,0
160M25S2,19,training,120,→,right,→,0.37571379996370524,True,60,0
160M25S2,20,training,120,→,right,→,0.41842859995085746,True,60,0
160M25S2,21,no_adaptation,120,↓,down,↓,0.5730245999875478,True,36,0
160M25S2,22,no_adaptation,120,→,right,→,0.36719640000956133,True,36,0
160M25S2,23,no_adaptation,120,→,right,→,0.3669794999877922,True,36,0
160M25S2,24,no_adaptation,120,↓,down,↓,0.5091711999848485,True,36,0
160M25S2,25,no_adaptation,120,↓,down,↓,0.4425154999480583,True,36,0
160M25S2,26,no_adaptation,120,←,left,←,0.5884975999942981,True,36,0
160M25S2,27,no_adaptation,120,↓,down,↓,0.47700700000859797,True,36,0
160M25S2,28,no_adaptation,120,↑,up,↑,0.6481258000130765,True,36,0
160M25S2,29,no_adaptation,120,←,left,←,0.6451740000047721,True,36,0
160M25S2,30,no_adaptation,120,→,right,→,0.47456840000813827,True,36,0
160M25S2,31,no_adaptation,120,↓,down,↓,0.5179287000210024,True,36,0
160M25S2,32,no_adaptation,120,↑,up,↑,0.4729135000379756,True,36,0
160M25S2,33,no_adaptation,120,↓,down,↓,0.42547600000398234,True,36,0
160M25S2,34,no_adaptation,120,↓,down,↓,0.5618015000363812,True,36,0
160M25S2,35,no_adaptation,120,↓,down,↓,0.5140328999841586,True,36,0
160M25S2,36,no_adaptation,120,↓,down,↓,0.4001560000469908,True,36,0
160M25S2,37,no_adaptation,120,→,right,→,0.6115323000121862,True,36,0
160M25S2,38,no_adaptation,120,←,left,←,0.40047460002824664,True,36,0
160M25S2,39,no_adaptation,120,←,left,←,0.45011569996131584,True,36,0
160M25S2,40,no_adaptation,120,←,right,→,0.45074550004210323,False,36,0
160M25S2,41,training,67,↓,down,↓,0.5662792000221089,True,36,0
160M25S2,42,training,76,←,left,←,0.5819721999578178,True,36,1
160M25S2,43,experiment,94,↑,up,↑,0.7590914000174962,True,36,1
160M25S2,44,experiment,78,↑,up,↑,0.4869342000456527,True,36,1
160M25S2,45,experiment,79,←,left,←,0.42598780000116676,True,36,1
160M25S2,46,experiment,71,↑,up,↑,0.6549729999969713,True,36,0
160M25S2,47,experiment,104,↑,up,↑,0.6657669999985956,True,36,1
160M25S2,48,experiment,96,↑,up,↑,0.5907151999999769,True,36,1
160M25S2,49,experiment,88,↓,down,↓,0.4742485999595374,True,36,1
160M25S2,50,experiment,74,↑,up,↑,0.5891363000264391,True,36,1
160M25S2,51,experiment,60,→,right,→,0.45045100001152605,True,36,1
160M25S2,52,experiment,72,←,left,←,0.41684110002825037,True,36,0
160M25S2,53,experiment,92,←,left,←,0.5747520000441,True,36,0
160M25S2,54,experiment,77,↑,up,↑,0.6857540000346489,True,36,1
160M25S2,55,experiment,85,↓,down,↓,0.6220107999979518,True,36,1
160M25S2,56,experiment,58,←,left,←,0.6093514999956824,True,36,1
160M25S2,57,experiment,82,↓,down,↓,0.46935289999237284,True,36,1
160M25S2,58,experiment,51,→,right,→,0.7049842000124045,True,36,0
160M25S2,59,experiment,62,←,left,←,0.543744400027208,True,36,1
160M25S2,60,experiment,56,←,left,←,0.3763670999906026,True,36,1
160M25S2,61,experiment,108,↑,up,↑,0.7236279000062495,True,36,0
160M25S2,62,experiment,87,↓,down,↓,0.561236799985636,True,36,1
160M25S2,63,experiment,57,←,left,←,0.40852140000788495,True,36,1
160M25S2,64,experiment,101,→,right,→,0.40949150000233203,True,36,0
160M25S2,65,experiment,63,←,left,←,0.5277202000143006,True,36,1
160M25S2,66,experiment,76,↑,up,↑,1.6648770000319928,True,36,1
160M25S2,67,experiment,67,→,right,→,0.4090022000018507,True,36,1
160M25S2,68,experiment,68,→,right,→,0.6795678999624215,True,36,0
160M25S2,69,experiment,102,↓,down,↓,0.5299162999726832,True,36,1
160M25S2,70,experiment,59,↓,down,↓,0.6010774000314996,True,36,1
160M25S2,71,experiment,83,↓,down,↓,0.46913510002195835,True,36,1
160M25S2,72,experiment,99,↓,down,↓,0.6887659000349231,True,36,0
160M25S2,73,experiment,69,→,right,→,0.6458008999470621,True,36,1
160M25S2,74,experiment,106,←,left,←,0.6647914999630302,True,36,1
160M25S2,75,experiment,75,→,right,→,0.5487416999530979,True,36,1
160M25S2,76,experiment,70,↓,down,↓,0.5433443000074476,True,36,1
160M25S2,77,experiment,91,↓,down,↓,1.7304891000385396,True,36,1
160M25S2,78,experiment,100,↓,down,↓,0.5792568000033498,True,36,1
160M25S2,79,experiment,49,→,right,→,0.5073272999725305,True,36,1
160M25S2,80,experiment,90,↑,up,↑,0.5289991999743506,True,36,1
160M25S2,81,experiment,54,↓,down,↓,0.5453667000401765,True,36,1
160M25S2,82,experiment,103,→,right,→,0.640987699967809,True,36,1
160M25S2,83,experiment,84,↓,down,↓,0.530930700013414,True,36,1
160M25S2,84,experiment,48,→,right,→,0.6774390999926254,True,36,1
160M25S2,85,experiment,86,←,left,←,0.8053292999975383,True,36,1
160M25S2,86,experiment,64,←,left,←,0.48766949999844655,True,36,1
160M25S2,87,experiment,66,↓,down,↓,0.5334616000181995,True,36,1
160M25S2,88,experiment,52,→,right,→,0.7345541000249796,True,36,1
160M25S2,89,experiment,53,→,right,→,0.6394612999865785,True,36,1
160M25S2,90,experiment,80,←,left,←,1.6590287999715656,True,36,1
160M25S2,91,experiment,50,↑,up,↑,0.6714126000297256,True,36,1
160M25S2,92,experiment,98,↓,down,↓,0.8513958000112325,True,36,1
160M25S2,93,experiment,95,↓,down,↓,0.6814097000169568,True,36,1
160M25S2,94,experiment,81,←,left,←,0.47562620003009215,True,36,1
160M25S2,95,experiment,105,→,right,→,0.5245106000220403,True,36,1
160M25S2,96,experiment,65,↑,up,↑,0.9136177999898791,True,36,1
160M25S2,97,experiment,107,↑,up,↑,0.6332653000135906,True,36,1
160M25S2,98,experiment,55,←,left,←,0.5490846000029705,True,36,1
160M25S2,99,experiment,61,←,left,←,0.42506340000545606,True,36,1
160M25S2,100,experiment,97,←,left,←,0.5924135000095703,True,36,0
160M25S2,101,experiment,73,←,left,←,0.39349859999492764,True,36,1
160M25S2,102,experiment,89,→,right,→,0.4979548000264913,True,36,0
160M25S2,103,experiment,93,↑,up,↑,0.6386816999875009,True,36,1
160M25S2,104,training,77,↓,down,↓,0.4918531000148505,True,35,0
160M25S2,105,training,103,↑,up,↑,0.6132953999913298,True,35,1
160M25S2,106,experiment,61,←,left,←,0.4879392000148073,True,35,1
160M25S2,107,experiment,97,↓,down,↓,0.5235929999616928,True,35,1
160M25S2,108,experiment,106,↓,down,↓,0.5869059000397101,True,35,1
160M25S2,109,experiment,62,↑,up,↑,0.5269443999859504,True,35,1
160M25S2,110,experiment,74,→,right,→,0.5689601000049151,True,35,1
160M25S2,111,experiment,69,↓,down,↓,0.5790181999909692,True,35,1
160M25S2,112,experiment,100,↑,up,↑,1.4498398000141606,True,35,1
160M25S2,113,experiment,93,→,right,→,0.5606902000145055,True,35,1
160M25S2,114,experiment,89,→,right,→,0.4844802999868989,True,35,1
160M25S2,115,experiment,96,→,right,→,0.5045619999873452,True,35,1
160M25S2,116,experiment,73,↑,up,↑,0.627654799958691,True,35,1
160M25S2,117,experiment,84,↑,up,↑,0.49437830003444105,True,35,1
160M25S2,118,experiment,82,↓,down,↓,0.6150734000257216,True,35,1
160M25S2,119,experiment,60,→,right,→,1.810180299973581,True,35,1
160M25S2,120,experiment,63,→,right,→,0.676477300003171,True,35,1
160M25S2,121,experiment,49,←,left,←,0.7055211999686435,True,35,1
160M25S2,122,experiment,80,←,left,←,1.553787300013937,True,35,1
160M25S2,123,experiment,101,→,right,→,1.6578676999779418,True,35,1
160M25S2,124,experiment,75,→,right,→,0.702146099996753,True,35,1
160M25S2,125,experiment,83,←,left,←,0.4942509999964386,True,35,1
160M25S2,126,experiment,86,→,right,→,0.4343023000401445,True,35,1
160M25S2,127,experiment,64,↓,down,↓,0.6622168000321835,True,35,1
160M25S2,128,experiment,58,←,left,←,0.5359000000171363,True,35,1
160M25S2,129,experiment,95,↑,up,↑,0.6028751999838278,True,35,1
160M25S2,130,experiment,67,↑,up,↑,0.5083000999875367,True,35,1
160M25S2,131,experiment,68,→,right,→,0.6734369000187144,True,35,1
160M25S2,132,experiment,87,↓,down,↓,0.7444637999869883,True,35,1
160M25S2,133,experiment,107,↑,up,↑,0.47947710001608357,True,35,1
160M25S2,134,experiment,77,→,right,→,0.4739558000001125,True,35,1
160M25S2,135,experiment,104,↓,down,↓,0.6519992999965325,True,35,1
160M25S2,136,experiment,78,←,left,←,0.44201100000645965,True,35,1
160M25S2,137,experiment,79,→,right,→,0.7948744999594055,True,35,0
160M25S2,138,experiment,85,←,left,←,0.5744772999896668,True,35,1
160M25S2,139,experiment,51,←,left,←,0.6782462000264786,True,35,1
160M25S2,140,experiment,94,←,left,←,0.6034030999871902,True,35,1
160M25S2,141,experiment,90,↑,up,↑,0.6692886999808252,True,35,1
160M25S2,142,experiment,103,→,right,→,0.6879623000277206,True,35,1
160M25S2,143,experiment,98,↓,down,↓,0.5232776999473572,True,35,1
160M25S2,144,experiment,81,→,right,→,0.46786199999041855,True,35,1
160M25S2,145,experiment,66,↑,up,↑,0.8178081000223756,True,35,1
160M25S2,146,experiment,99,↑,up,↑,0.8402384999790229,True,35,1
160M25S2,147,experiment,65,→,right,→,1.8322168000158854,True,35,1
160M25S2,148,experiment,92,→,right,→,0.5676807999843732,True,35,1
160M25S2,149,experiment,71,←,left,←,0.4255511999945156,True,35,1
160M25S2,150,experiment,59,←,left,←,0.3760667000315152,True,35,0
160M25S2,151,experiment,70,↑,up,↑,0.7726713999873027,True,35,0
160M25S2,152,experiment,88,→,right,→,1.4961403000052087,True,35,1
160M25S2,153,experiment,105,↓,down,↓,0.7046120000304654,True,35,1
160M25S2,154,experiment,53,←,left,←,0.5462581999599934,True,35,1
160M25S2,155,experiment,108,→,right,→,0.4729253000114113,True,35,1
160M25S2,156,experiment,72,↑,up,↑,0.4847540999762714,True,35,1
160M25S2,157,experiment,91,↑,up,↑,0.4748167000361718,True,35,1
160M25S2,158,experiment,76,←,left,←,0.5184350999770686,True,35,1
160M25S2,159,experiment,50,←,left,←,0.5288792999926955,True,35,1
160M25S2,160,experiment,102,←,left,←,0.5534329999936745,True,35,1
160M25S2,161,experiment,55,←,left,←,0.44165330001851544,True,35,1
160M25S2,162,experiment,48,↑,up,↑,0.5425740999635309,True,35,0
160M25S2,163,experiment,56,←,left,←,0.5820374999893829,True,35,1
160M25S2,164,experiment,57,↓,down,↓,0.46793910005362704,True,35,1
160M25S2,165,experiment,54,→,right,→,0.46229009999660775,True,35,1
160M25S2,166,experiment,52,↓,down,↓,0.6260189000167884,True,35,0
160M25S2,167,training,56,↓,down,↓,0.4935922999866307,True,34,0
160M25S2,168,training,102,→,right,→,0.4332282000104897,True,34,1
160M25S2,169,experiment,78,→,right,→,0.5955384999979287,True,34,0
160M25S2,170,experiment,105,↑,up,↑,0.6006086999550462,True,34,1
160M25S2,171,experiment,59,←,left,←,0.5725955999805592,True,34,1
160M25S2,172,experiment,83,↓,down,↓,0.5853707999922335,True,34,1
160M25S2,173,experiment,106,→,right,→,0.5907637000200339,True,34,1
160M25S2,174,experiment,76,↓,down,↓,0.5733177000074647,True,34,1
160M25S2,175,experiment,54,↓,down,↓,0.6840808000415564,True,34,1
160M25S2,176,experiment,104,↓,down,↓,0.5175214000046253,True,34,1
160M25S2,177,experiment,51,↑,up,↑,0.5758575000218116,True,34,1
160M25S2,178,experiment,80,↓,down,↓,0.5657543999841437,True,34,1
160M25S2,179,experiment,58,←,left,←,0.57173279998824,True,34,1
160M25S2,180,experiment,95,↑,up,↑,1.6847973000258207,True,34,1
160M25S2,181,experiment,81,↑,up,↑,0.6619516999926418,True,34,1
160M25S2,182,experiment,49,←,left,←,0.4748398999799974,True,34,1
160M25S2,183,experiment,82,←,left,←,0.492498199979309,True,34,1
160M25S2,184,experiment,77,←,left,←,0.39986249996582046,True,34,1
160M25S2,185,experiment,56,←,left,←,0.3924144000047818,True,34,0
160M25S2,186,experiment,108,→,right,→,0.455247399979271,True,34,0
160M25S2,187,experiment,94,←,left,←,0.5732162999920547,True,34,0
160M25S2,188,experiment,89,←,left,←,0.40915329998824745,True,34,1
160M25S2,189,experiment,53,←,left,←,0.5899161000270396,True,34,0
160M25S2,190,experiment,66,↓,down,↓,0.6480531000415795,True,34,1
160M25S2,191,experiment,85,↑,up,↑,0.7772543999599293,True,34,1
160M25S2,192,experiment,99,↑,up,↑,0.46516979997977614,True,34,1
160M25S2,193,experiment,75,←,left,←,0.37565529998391867,True,34,1
160M25S2,194,experiment,65,↑,up,↑,0.6717981999972835,True,34,1
160M25S2,195,experiment,57,↓,down,↓,0.7694616999942809,True,34,1
160M25S2,196,experiment,73,↑,up,↑,0.5221179999643937,True,34,1
160M25S2,197,experiment,67,→,right,→,1.5265837000333704,True,34,1
160M25S2,198,experiment,72,↓,down,↓,0.4652957000071183,True,34,1
160M25S2,199,experiment,90,↓,down,↓,1.496235099970363,True,34,1
160M25S2,200,experiment,87,↓,down,↓,0.5032702999887988,True,34,1
160M25S2,201,experiment,98,↓,down,↓,0.6903093000291847,True,34,1
160M25S2,202,experiment,60,↓,up,↑,0.7385392999858595,False,34,1
160M25S2,203,experiment,74,→,right,→,0.7556695999810472,True,34,1
160M25S2,204,experiment,101,↑,up,↑,0.547716400003992,True,34,1
160M25S2,205,experiment,62,←,left,←,0.6644108000327833,True,34,1
160M25S2,206,experiment,50,↑,up,↑,0.6528353000176139,True,34,1
160M25S2,207,experiment,79,→,right,→,0.5044000999769196,True,34,1
160M25S2,208,experiment,52,↑,up,↑,0.5703396000317298,True,34,1
160M25S2,209,experiment,48,↓,up,↑,0.8274236000142992,False,34,1
160M25S2,210,experiment,69,↓,down,↓,0.6271868999465369,True,34,1
160M25S2,211,experiment,71,↓,down,↓,0.842332600033842,True,34,1
160M25S2,212,experiment,64,→,right,→,0.6269432999542914,True,34,1
160M25S2,213,experiment,100,↑,up,↑,0.6245204000151716,True,34,1
160M25S2,214,experiment,93,←,left,←,0.4572541000088677,True,34,1
160M25S2,215,experiment,55,↓,down,↓,0.53076269995654,True,34,1
160M25S2,216,experiment,68,↓,down,↓,0.48653080000076443,True,34,1
160M25S2,217,experiment,86,←,left,←,0.45450769999297336,True,34,1
160M25S2,218,experiment,63,↓,down,↓,0.4865762999979779,True,34,0
160M25S2,219,experiment,102,↓,down,↓,0.46519529999932274,True,34,1
160M25S2,220,experiment,91,↓,down,↓,0.4715889999642968,True,34,1
160M25S2,221,experiment,107,↓,down,↓,0.5204121000133455,True,34,1
160M25S2,222,experiment,97,←,left,←,0.6990562999853864,True,34,1
160M25S2,223,experiment,61,↓,down,↓,0.4982457999722101,True,34,1
160M25S2,224,experiment,88,↓,down,↓,0.6166089000180364,True,34,1
160M25S2,225,experiment,84,↓,down,↓,0.6997130999807268,True,34,1
160M25S2,226,experiment,92,↑,up,↑,0.5126674000057392,True,34,1
160M25S2,227,experiment,70,→,right,→,0.4768410000251606,True,34,1
160M25S2,228,experiment,96,→,right,→,0.6258797000045888,True,34,1
160M25S2,229,experiment,103,↑,up,↑,0.4341322000254877,True,34,1
160M25S2,230,training,98,←,left,←,0.5183701000059955,True,33,0
160M25S2,231,training,72,↑,up,↑,0.5693543000379577,True,33,1
160M25S2,232,experiment,57,←,left,←,0.7273624999797903,True,33,1
160M25S2,233,experiment,56,↑,up,↑,0.5352565000066534,True,33,1
160M25S2,234,experiment,53,→,right,→,0.46473669999977574,True,33,1
160M25S2,235,experiment,97,↑,up,↑,0.5487995999865234,True,33,1
160M25S2,236,experiment,51,↑,up,↑,0.42568679997930303,True,33,1
160M25S2,237,experiment,69,←,left,←,0.5651860000216402,True,33,1
160M25S2,238,experiment,82,↑,up,↑,0.45123000000603497,True,33,1
160M25S2,239,experiment,84,←,left,←,0.3754017000319436,True,33,1
160M25S2,240,experiment,50,↓,down,↓,0.7559045999660157,True,33,0
160M25S2,241,experiment,98,←,left,←,0.5087981999968179,True,33,1
160M25S2,242,experiment,80,→,right,→,0.44584060000488535,True,33,1
160M25S2,243,experiment,81,↓,down,↓,0.67240739997942,True,33,1
160M25S2,244,experiment,91,→,right,→,0.40020549995824695,True,33,1
160M25S2,245,experiment,64,↑,up,↑,0.4569253000081517,True,33,0
160M25S2,246,experiment,86,↑,up,↑,0.5212416999856941,True,33,1
160M25S2,247,experiment,76,↑,up,↑,0.5714369000052102,True,33,1
160M25S2,248,experiment,58,↓,down,↓,0.4884173999889754,True,33,1
160M25S2,249,experiment,89,↓,down,↓,0.4632708999561146,True,33,1
160M25S2,250,experiment,85,←,left,←,0.5679044999997132,True,33,1
160M25S2,251,experiment,90,↓,down,↓,0.6350109000341035,True,33,1
160M25S2,252,experiment,105,↓,down,↓,1.5185802999767475,True,33,1
160M25S2,253,experiment,102,→,right,→,0.6712592999683693,True,33,1
160M25S2,254,experiment,108,↓,down,↓,0.4638532000244595,True,33,1
160M25S2,255,experiment,93,→,right,→,0.5741400999831967,True,33,1
160M25S2,256,experiment,70,→,right,→,0.519411500019487,True,33,1
160M25S2,257,experiment,55,←,left,←,0.5367619000026025,True,33,1
160M25S2,258,experiment,60,↓,down,↓,0.4785618000314571,True,33,1
160M25S2,259,experiment,73,←,left,←,0.4745968999923207,True,33,1
160M25S2,260,experiment,77,→,right,→,0.4698649000492878,True,33,1
160M25S2,261,experiment,59,↓,down,↓,0.6468370000366122,True,33,1
160M25S2,262,experiment,74,→,right,→,0.42580730002373457,True,33,1
160M25S2,263,experiment,100,→,right,→,0.6408811999717727,True,33,0
160M25S2,264,experiment,54,←,left,←,0.5330800999654457,True,33,1
160M25S2,265,experiment,94,→,right,→,0.4480701999855228,True,33,1
160M25S2,266,experiment,66,↑,up,↑,0.47177170001668856,True,33,0
160M25S2,267,experiment,87,↑,up,↑,0.4090794999501668,True,33,1
160M25S2,268,experiment,72,→,right,→,0.42541319999145344,True,33,0
160M25S2,269,experiment,61,↓,down,↓,0.6170508000068367,True,33,0
160M25S2,270,experiment,79,→,right,→,0.4007666000397876,True,33,1
160M25S2,271,experiment,104,→,right,→,0.49044510000385344,True,33,0
160M25S2,272,experiment,63,←,left,←,0.6894661000114866,True,33,1
160M25S2,273,experiment,95,↓,down,↓,0.46998930000700057,True,33,1
160M25S2,274,experiment,83,→,right,→,0.5106807999545708,True,33,1
160M25S2,275,experiment,49,→,right,→,0.6178919000085443,True,33,1
160M25S2,276,experiment,92,↓,down,↓,0.5623813000274822,True,33,1
160M25S2,277,experiment,71,←,left,←,0.5556531999609433,True,33,1
160M25S2,278,experiment,67,→,right,→,1.374999799998477,True,33,1
160M25S2,279,experiment,96,←,left,←,0.4478432000032626,True,33,1
160M25S2,280,experiment,106,←,left,←,0.40089950000401586,True,33,0
160M25S2,281,experiment,65,←,left,←,0.6033838000148535,True,33,0
160M25S2,282,experiment,107,←,left,←,0.3674744000309147,True,33,1
160M25S2,283,experiment,88,→,right,→,1.2508106000022963,True,33,1
160M25S2,284,experiment,68,→,right,→,0.618189100001473,True,33,1
160M25S2,285,experiment,52,↓,down,↓,0.623714999994263,True,33,1
160M25S2,286,experiment,62,←,left,←,0.593624200031627,True,33,1
160M25S2,287,experiment,48,←,left,←,0.5056631999905221,True,33,1
160M25S2,288,experiment,99,↑,up,↑,0.8841503000003286,True,33,1
160M25S2,289,experiment,103,←,left,←,0.5664000000106171,True,33,1
160M25S2,290,experiment,78,↑,up,↑,0.741235300025437,True,33,1
160M25S2,291,experiment,75,→,right,→,0.4705347999697551,True,33,1
160M25S2,292,experiment,101,→,right,→,0.6259780999971554,True,33,1
160M25S2,293,training,89,→,right,→,0.502980999997817,True,32,0
160M25S2,294,training,99,←,left,←,1.3218284000176936,True,32,1
160M25S2,295,experiment,89,→,right,→,0.5506794999819249,True,32,1
160M25S2,296,experiment,60,←,left,←,0.49213550001149997,True,32,1
160M25S2,297,experiment,53,↓,down,↓,0.4789594999747351,True,32,1
160M25S2,298,experiment,49,←,left,←,1.226903700036928,True,32,1
160M25S2,299,experiment,88,→,right,→,0.33372990001225844,True,32,1
160M25S2,300,experiment,84,↓,down,↓,0.482004199991934,True,32,0
160M25S2,301,experiment,76,↓,down,↓,0.4612968000001274,True,32,1
160M25S2,302,experiment,81,↓,down,↓,0.43997659999877214,True,32,1
160M25S2,303,experiment,48,↑,up,↑,0.4694909999961965,True,32,1
160M25S2,304,experiment,94,↑,up,↑,0.6354697000351734,True,32,1
160M25S2,305,experiment,85,↑,up,↑,0.58118929999182,True,32,1
160M25S2,306,experiment,66,↓,down,↓,0.4399591000401415,True,32,1
160M25S2,307,experiment,77,→,right,→,0.5001119999797083,True,32,0
160M25S2,308,experiment,73,↓,down,↓,0.5834374999976717,True,32,1
160M25S2,309,experiment,100,←,left,←,0.5424207999603823,True,32,1
160M25S2,310,experiment,65,↑,up,↑,0.5948804999934509,True,32,1
160M25S2,311,experiment,61,↓,down,↓,0.49454309995053336,True,32,1
160M25S2,312,experiment,95,→,right,→,0.45921780000207946,True,32,1
160M25S2,313,experiment,79,←,left,←,0.4175445000291802,True,32,1
160M25S2,314,experiment,63,↑,up,↑,0.5442698000115342,True,32,0
160M25S2,315,experiment,54,↓,down,↓,0.5599305999930948,True,32,1
160M25S2,316,experiment,103,←,left,←,0.39249659999040887,True,32,1
160M25S2,317,experiment,87,←,left,←,0.4580119000165723,True,32,0
160M25S2,318,experiment,104,↓,down,↓,0.5646040000137873,True,32,1
160M25S2,319,experiment,62,↓,down,↓,0.4648809999926016,True,32,1
160M25S2,320,experiment,98,→,right,→,0.4851466999971308,True,32,1
160M25S2,321,experiment,74,→,right,→,0.5929100999492221,True,32,1
160M25S2,322,experiment,102,↓,down,↓,0.4875070999842137,True,32,1
160M25S2,323,experiment,82,←,left,←,0.560005099978298,True,32,1
160M25S2,324,experiment,91,↓,down,↓,0.6030954999732785,True,32,1
160M25S2,325,experiment,72,↑,up,↑,0.587063999962993,True,32,1
160M25S2,326,experiment,75,↑,up,↑,0.4177598999813199,True,32,1
160M25S2,327,experiment,50,↓,down,↓,0.5123085999512114,True,32,1
160M25S2,328,experiment,101,→,right,→,0.40003310004249215,True,32,1
160M25S2,329,experiment,67,↓,down,↓,0.7072250999626704,True,32,0
160M25S2,330,experiment,99,←,left,←,0.493122800020501,True,32,1
160M25S2,331,experiment,80,←,no_key,no_letter,-1.0,False,32,1
160M25S2,332,experiment,108,←,left,←,0.5729489999939688,True,32,1
160M25S2,333,experiment,105,↑,up,↑,0.5224444000050426,True,32,1
160M25S2,334,experiment,71,↑,up,↑,0.5254672999726608,True,32,1
160M25S2,335,experiment,86,↑,up,↑,0.7555498000001535,True,32,1
160M25S2,336,experiment,58,→,right,→,0.521460699965246,True,32,1
160M25S2,337,experiment,106,←,left,←,0.521208599966485,True,32,1
160M25S2,338,experiment,78,↑,up,↑,0.5856157999951392,True,32,1
160M25S2,339,experiment,93,→,right,→,0.6910948000149801,True,32,1
160M25S2,340,experiment,59,↓,down,↓,0.5078753000125289,True,32,1
160M25S2,341,experiment,92,↑,up,↑,0.6482982999878004,True,32,1
160M25S2,342,experiment,96,←,right,→,0.8139738999889232,False,32,1
160M25S2,343,experiment,56,←,left,←,0.4428387999651022,True,32,1
160M25S2,344,experiment,97,↑,up,↑,0.4878340999712236,True,32,1
160M25S2,345,experiment,107,↑,up,↑,0.40977200004272163,True,32,1
160M25S2,346,experiment,64,↓,down,↓,0.490089800034184,True,32,0
160M25S2,347,experiment,69,←,left,←,0.4394564999965951,True,32,1
160M25S2,348,experiment,51,→,right,→,1.2842290000407957,True,32,0
160M25S2,349,experiment,70,↑,up,↑,0.4415523000061512,True,32,1
160M25S2,350,experiment,83,↓,down,↓,0.47503749997122213,True,32,1
160M25S2,351,experiment,57,↑,up,↑,0.6850994999986142,True,32,1
160M25S2,352,experiment,55,→,right,→,0.8149855000083335,True,32,1
160M25S2,353,experiment,68,←,left,←,0.37537290004547685,True,32,1
160M25S2,354,experiment,90,↓,down,↓,0.4975460999994539,True,32,0
160M25S2,355,experiment,52,↓,down,↓,0.6841980999452062,True,32,1
160M25S2,356,training,96,→,right,→,0.4934654999524355,True,31,0
160M25S2,357,training,93,↓,down,↓,0.5625195999746211,True,31,1
160M25S2,358,experiment,50,↑,up,↑,0.5631343999993987,True,31,1
160M25S2,359,experiment,68,↓,down,↓,0.4379810999962501,True,31,1
160M25S2,360,experiment,91,←,left,←,0.6134390000370331,True,31,1
160M25S2,361,experiment,60,↓,down,↓,0.6085246999864466,True,31,1
160M25S2,362,experiment,54,→,right,→,0.7095731000299565,True,31,1
160M25S2,363,experiment,87,↑,up,↑,0.4287413999554701,True,31,1
160M25S2,364,experiment,90,←,left,←,0.4449136999901384,True,31,0
160M25S2,365,experiment,84,←,left,←,0.6466288999654353,True,31,1
160M25S2,366,experiment,75,↑,up,↑,0.6756448000087403,True,31,1
160M25S2,367,experiment,102,←,left,←,1.2297707999823615,True,31,1
160M25S2,368,experiment,103,↓,down,↓,0.48965389997465536,True,31,1
160M25S2,369,experiment,97,↓,down,↓,0.5096610999898985,True,31,1
160M25S2,370,experiment,51,←,left,←,0.7678687000297941,True,31,1
160M25S2,371,experiment,77,←,left,←,0.39959149999776855,True,31,1
160M25S2,372,experiment,88,↑,up,↑,0.6173321999958716,True,31,0
160M25S2,373,experiment,101,↓,down,↓,0.4786720999982208,True,31,1
160M25S2,374,experiment,96,→,right,→,0.45940709998831153,True,31,1
160M25S2,375,experiment,106,←,left,←,0.5010767999920063,True,31,1
160M25S2,376,experiment,85,←,left,←,0.6125992999877781,True,31,1
160M25S2,377,experiment,100,↓,down,↓,0.5144251000019722,True,31,1
160M25S2,378,experiment,82,↑,up,↑,0.6899957000277936,True,31,1
160M25S2,379,experiment,74,→,right,→,0.45346680004149675,True,31,1
160M25S2,380,experiment,49,→,right,→,0.45079299999633804,True,31,1
160M25S2,381,experiment,73,←,left,←,0.4406672000186518,True,31,1
160M25S2,382,experiment,79,→,right,→,0.5559814000152983,True,31,1
160M25S2,383,experiment,78,→,right,→,1.4913847999996506,True,31,1
160M25S2,384,experiment,81,↓,down,↓,0.48422949999803677,True,31,1
160M25S2,385,experiment,89,→,right,→,0.43561449996195734,True,31,1
160M25S2,386,experiment,67,←,up,↑,0.8107993999728933,False,31,1
160M25S2,387,experiment,99,↓,down,↓,0.45710400003008544,True,31,1
160M25S2,388,experiment,64,↓,down,↓,0.48189759999513626,True,31,1
160M25S2,389,experiment,59,←,left,←,0.5379605000489391,True,31,1
160M25S2,390,experiment,94,→,right,→,0.46073859999887645,True,31,1
160M25S2,391,experiment,83,←,left,←,0.6305378999677487,True,31,1
160M25S2,392,experiment,80,↓,down,↓,0.45852299995021895,True,31,1
160M25S2,393,experiment,104,→,right,→,1.1812440999783576,True,31,1
160M25S2,394,experiment,107,←,left,←,0.3928885000059381,True,31,1
160M25S2,395,experiment,61,↑,up,↑,0.677177399978973,True,31,1
160M25S2,396,experiment,65,←,left,←,0.4442202000063844,True,31,1
160M25S2,397,experiment,105,←,left,←,0.4081319000106305,True,31,1
160M25S2,398,experiment,63,→,right,→,0.44117839995305985,True,31,0
160M25S2,399,experiment,76,→,right,→,0.5420672000036575,True,31,1
160M25S2,400,experiment,56,↑,up,↑,0.6454145000316203,True,31,1
160M25S2,401,experiment,57,↓,down,↓,0.6161271000164561,True,31,1
160M25S2,402,experiment,55,↓,down,↓,0.6688330000033602,True,31,1
160M25S2,403,experiment,93,←,left,←,0.5148151000030339,True,31,1
160M25S2,404,experiment,69,↑,up,↑,0.8395780000137165,True,31,1
160M25S2,405,experiment,98,←,left,←,0.5004492999869399,True,31,1
160M25S2,406,experiment,72,→,right,→,1.3119512000121176,True,31,1
160M25S2,407,experiment,48,↓,down,↓,0.5633853999897838,True,31,1
160M25S2,408,experiment,95,←,left,←,0.5087295999983326,True,31,1
160M25S2,409,experiment,86,↑,down,↓,0.6674447999685071,False,31,1
160M25S2,410,experiment,58,→,right,→,0.46917820000089705,True,31,1
160M25S2,411,experiment,108,↓,down,↓,0.502192499989178,True,31,1
160M25S2,412,experiment,70,←,left,←,0.49877060001017526,True,31,1
160M25S2,413,experiment,52,→,right,→,0.4690670999698341,True,31,1
160M25S2,414,experiment,62,↑,up,↑,0.8455713999574073,True,31,1
160M25S2,415,experiment,66,↑,up,↑,0.4698329000384547,True,31,1
160M25S2,416,experiment,92,←,left,←,0.40889289998449385,True,31,1
160M25S2,417,experiment,53,←,left,←,1.2412940999493003,True,31,0
160M25S2,418,experiment,71,↑,up,↑,0.5118918999796733,True,31,1
160M25S2,419,training,67,↓,down,↓,0.6825748999835923,True,30,0
160M25S2,420,training,86,↓,down,↓,0.4745149000082165,True,30,1
160M25S2,421,experiment,51,→,right,→,0.4383539000409655,True,30,1
160M25S2,422,experiment,84,→,right,→,0.4327628000173718,True,30,1
160M25S2,423,experiment,66,↑,up,↑,0.5929158999933861,True,30,1
160M25S2,424,experiment,96,←,left,←,1.329146399977617,True,30,1
160M25S2,425,experiment,103,↑,left,←,0.5691790000419132,False,30,1
160M25S2,426,experiment,81,←,left,←,0.503710399963893,True,30,1
160M25S2,427,experiment,62,↓,down,↓,0.44567149999784306,True,30,1
160M25S2,428,experiment,95,↑,up,↑,0.76372430002084,True,30,1
160M25S2,429,experiment,55,↓,down,↓,0.5304771999944933,True,30,1
160M25S2,430,experiment,105,←,left,←,0.6100978999747895,True,30,1
160M25S2,431,experiment,86,←,left,←,0.4289790000184439,True,30,1
160M25S2,432,experiment,60,↓,down,↓,0.47126329998718575,True,30,1
160M25S2,433,experiment,72,↓,down,↓,0.45210019999649376,True,30,1
160M25S2,434,experiment,53,→,right,→,0.648094299947843,True,30,1
160M25S2,435,experiment,100,←,left,←,0.6208025999949314,True,30,1
160M25S2,436,experiment,70,←,left,←,0.5406091999611817,True,30,1
160M25S2,437,experiment,50,→,right,→,0.4696476999670267,True,30,1
160M25S2,438,experiment,91,→,right,→,0.4924987999838777,True,30,1
160M25S2,439,experiment,78,→,right,→,0.7265093000023626,True,30,1
160M25S2,440,experiment,67,↓,down,↓,0.46686079999199137,True,30,1
160M25S2,441,experiment,87,→,right,→,0.626967100019101,True,30,1
160M25S2,442,experiment,89,→,right,→,0.6683704000315629,True,30,1
160M25S2,443,experiment,58,←,right,→,0.6137375999824144,False,30,1
160M25S2,444,experiment,49,↑,down,↓,0.620500799966976,False,30,1
160M25S2,445,experiment,73,↓,down,↓,0.6110837999731302,True,30,1
160M25S2,446,experiment,56,→,right,→,0.5678233000217006,True,30,1
160M25S2,447,experiment,65,→,right,→,0.4278151999460533,True,30,1
160M25S2,448,experiment,77,←,left,←,0.45612819999223575,True,30,1
160M25S2,449,experiment,74,↓,down,↓,0.5725455000065267,True,30,1
160M25S2,450,experiment,92,→,right,→,0.4230315000168048,True,30,1
160M25S2,451,experiment,102,←,left,←,0.6108980999561027,True,30,1
160M25S2,452,experiment,104,↑,up,↑,0.45572620001621544,True,30,1
160M25S2,453,experiment,90,↑,up,↑,0.6791846000123769,True,30,1
160M25S2,454,experiment,94,↑,up,↑,0.452704299998004,True,30,1
160M25S2,455,experiment,85,←,left,←,0.5422169999801554,True,30,1
160M25S2,456,experiment,68,↓,down,↓,0.5931906999903731,True,30,1
160M25S2,457,experiment,69,→,right,→,0.45826069999020547,True,30,1
160M25S2,458,experiment,93,↑,up,↑,0.4646014000172727,True,30,1
160M25S2,459,experiment,101,↑,up,↑,0.6921573000145145,True,30,1
160M25S2,460,experiment,98,←,left,←,0.3838523000013083,True,30,1
160M25S2,461,experiment,107,↓,down,↓,0.7478092000237666,True,30,0
160M25S2,462,experiment,79,→,right,→,0.5793845999869518,True,30,1
160M25S2,463,experiment,83,→,right,→,0.6486073000123724,True,30,1
160M25S2,464,experiment,82,↓,down,↓,0.5068100999924354,True,30,1
160M25S2,465,experiment,71,↑,up,↑,0.5344331000233069,True,30,1
160M25S2,466,experiment,63,↑,up,↑,0.48377590003656223,True,30,1
160M25S2,467,experiment,57,↓,down,↓,0.48528210003860295,True,30,1
160M25S2,468,experiment,75,→,right,→,0.5366364000365138,True,30,1
160M25S2,469,experiment,80,↑,up,↑,0.4723050000029616,True,30,1
160M25S2,470,experiment,64,←,left,←,0.39256460004253313,True,30,1
160M25S2,471,experiment,99,←,left,←,0.430586599977687,True,30,0
160M25S2,472,experiment,48,↑,up,↑,0.6130443000001833,True,30,1
160M25S2,473,experiment,54,↑,up,↑,0.43436769995605573,True,30,1
160M25S2,474,experiment,108,↑,up,↑,0.6128401000169106,True,30,1
160M25S2,475,experiment,97,→,right,→,0.4436166000086814,True,30,1
160M25S2,476,experiment,52,↑,up,↑,0.5925495999981649,True,30,1
160M25S2,477,experiment,76,↓,down,↓,0.4869236999657005,True,30,1
160M25S2,478,experiment,106,→,right,→,0.44019190000835806,True,30,1
160M25S2,479,experiment,59,→,right,→,0.5784297999925911,True,30,1
160M25S2,480,experiment,61,→,right,→,0.5751169999712147,True,30,1
160M25S2,481,experiment,88,→,right,→,0.5463304999866523,True,30,1
160M25S2,482,training,48,←,right,→,0.7027210000087507,False,29,0
160M25S2,483,training,60,←,left,←,0.39209120004670694,True,29,1
160M25S2,484,experiment,66,→,right,→,0.5602013999596238,True,29,0
160M25S2,485,experiment,86,→,right,→,0.47709200001554564,True,29,1
160M25S2,486,experiment,84,←,left,←,0.42983239999739453,True,29,1
160M25S2,487,experiment,78,↓,down,↓,0.6104243000154383,True,29,1
160M25S2,488,experiment,49,↓,down,↓,0.4812079999828711,True,29,1
160M25S2,489,experiment,100,↑,up,↑,0.4525950000388548,True,29,1
160M25S2,490,experiment,96,←,left,←,0.5142100999946706,True,29,1
160M25S2,491,experiment,55,→,right,→,0.41921990003902465,True,29,1
160M25S2,492,experiment,91,←,left,←,0.4350626999512315,True,29,1
160M25S2,493,experiment,50,←,left,←,0.521241899987217,True,29,1
160M25S2,494,experiment,56,↓,down,↓,0.633370700001251,True,29,1
160M25S2,495,experiment,99,→,right,→,0.4702534999814816,True,29,1
160M25S2,496,experiment,48,→,right,→,0.4193449000013061,True,29,1
160M25S2,497,experiment,107,↓,down,↓,0.5587983999866992,True,29,1
160M25S2,498,experiment,62,↓,down,↓,0.7157732999767177,True,29,1
160M25S2,499,experiment,93,↓,down,↓,0.5997014999738894,True,29,1
160M25S2,500,experiment,81,→,right,→,0.6207702999818139,True,29,1
160M25S2,501,experiment,95,→,right,→,0.5877824000199325,True,29,1
160M25S2,502,experiment,87,↑,up,↑,0.5827609000261873,True,29,1
160M25S2,503,experiment,54,↑,up,↑,0.7654908999684267,True,29,1
160M25S2,504,experiment,61,→,right,→,0.6742834000033326,True,29,1
160M25S2,505,experiment,67,↑,up,↑,0.4643146999878809,True,29,1
160M25S2,506,experiment,69,→,right,→,0.5347649999894202,True,29,1
160M25S2,507,experiment,58,↓,down,↓,0.6375421999837272,True,29,1
160M25S2,508,experiment,68,→,right,→,0.500777899986133,True,29,1
160M25S2,509,experiment,73,←,left,←,0.6963373000035062,True,29,1
160M25S2,510,experiment,65,→,right,→,0.4384457000414841,True,29,1
160M25S2,511,experiment,52,↓,down,↓,0.4751064999727532,True,29,1
160M25S2,512,experiment,102,←,left,←,0.4618222000426613,True,29,1
160M25S2,513,experiment,104,↓,down,↓,0.6331523999688216,True,29,1
160M25S2,514,experiment,76,↓,down,↓,0.4539237000280991,True,29,1
160M25S2,515,experiment,79,←,left,←,0.5767322999890894,True,29,1
160M25S2,516,experiment,106,→,right,→,0.46204169996781275,True,29,1
160M25S2,517,experiment,75,↓,down,↓,0.4744459000066854,True,29,1
160M25S2,518,experiment,101,↓,down,↓,0.6055372000555508,True,29,1
160M25S2,519,experiment,53,→,right,→,0.6917550000362098,True,29,1
160M25S2,520,experiment,94,↓,down,↓,0.5521066999644972,True,29,1
160M25S2,521,experiment,85,↓,down,↓,0.5254863000009209,True,29,1
160M25S2,522,experiment,90,←,left,←,0.585980300034862,True,29,1
160M25S2,523,experiment,72,→,right,→,0.6665006999974139,True,29,1
160M25S2,524,experiment,108,→,right,→,0.5634752999758348,True,29,1
160M25S2,525,experiment,98,→,right,→,0.515846700000111,True,29,1
160M25S2,526,experiment,103,←,left,←,0.45244819996878505,True,29,1
160M25S2,527,experiment,60,↓,down,↓,0.48663980001583695,True,29,1
160M25S2,528,experiment,51,↓,down,↓,0.4817419999744743,True,29,1
160M25S2,529,experiment,74,→,right,→,0.5257035000249743,True,29,1
160M25S2,530,experiment,63,↓,down,↓,0.5074577999766916,True,29,1
160M25S2,531,experiment,59,→,right,→,0.5472803000011481,True,29,1
160M25S2,532,experiment,64,↓,down,↓,0.47167759999865666,True,29,1
160M25S2,533,experiment,105,←,down,↓,0.641281699994579,False,29,1
160M25S2,534,experiment,83,→,right,→,0.4515669000102207,True,29,1
160M25S2,535,experiment,80,→,right,→,0.45456789998570457,True,29,1
160M25S2,536,experiment,71,↓,down,↓,0.4444040000089444,True,29,1
160M25S2,537,experiment,57,→,right,→,0.4312174000078812,True,29,1
160M25S2,538,experiment,88,←,left,←,0.48855579999508336,True,29,1
160M25S2,539,experiment,82,↑,up,↑,0.472955200006254,True,29,1
160M25S2,540,experiment,89,↓,down,↓,0.6240435999934562,True,29,1
160M25S2,541,experiment,77,↓,down,↓,0.4690648000105284,True,29,1
160M25S2,542,experiment,92,←,left,←,0.44356769998557866,True,29,1
160M25S2,543,experiment,70,←,left,←,0.6662367999670096,True,29,1
160M25S2,544,experiment,97,→,right,→,0.5909547000192106,True,29,1
160M25S2,545,training,106,→,right,→,0.4710310999653302,True,28,0
160M25S2,546,training,77,→,right,→,0.5222680000006221,True,28,1
160M25S2,547,experiment,100,→,right,→,0.49193419999210164,True,28,1
160M25S2,548,experiment,76,↓,down,↓,0.470288599957712,True,28,1
160M25S2,549,experiment,108,→,right,→,0.6076805000193417,True,28,1
160M25S2,550,experiment,91,↓,down,↓,0.4644033999647945,True,28,1
160M25S2,551,experiment,99,↑,up,↑,0.596817999961786,True,28,1
160M25S2,552,experiment,56,↑,up,↑,0.5779357999563217,True,28,1
160M25S2,553,experiment,48,↓,down,↓,0.4749874999979511,True,28,1
160M25S2,554,experiment,86,↓,down,↓,0.4429575999965891,True,28,1
160M25S2,555,experiment,61,↓,down,↓,0.4206349999876693,True,28,1
160M25S2,556,experiment,64,→,right,→,0.4063736999523826,True,28,1
160M25S2,557,experiment,90,↓,down,↓,0.5994112999760546,True,28,1
160M25S2,558,experiment,54,→,right,→,0.43700119998538867,True,28,1
160M25S2,559,experiment,83,↑,up,↑,0.41554210003232583,True,28,1
160M25S2,560,experiment,50,→,right,→,0.445549999945797,True,28,1
160M25S2,561,experiment,58,↓,down,↓,0.45640039996942505,True,28,1
160M25S2,562,experiment,63,↓,down,↓,0.44050079997396097,True,28,1
160M25S2,563,experiment,75,↓,down,↓,0.46178680000593886,True,28,1
160M25S2,564,experiment,60,←,left,←,0.6554081999929622,True,28,1
160M25S2,565,experiment,94,→,right,→,1.5812471999670379,True,28,1
160M25S2,566,experiment,53,←,left,←,0.40435580001212656,True,28,1
160M25S2,567,experiment,78,↓,down,↓,0.5610398999997415,True,28,1
160M25S2,568,experiment,102,→,right,→,0.41698639997048303,True,28,1
160M25S2,569,experiment,79,←,left,←,0.436887200048659,True,28,1
160M25S2,570,experiment,85,↑,up,↑,0.4625350999995135,True,28,1
160M25S2,571,experiment,70,↓,down,↓,0.48435759998392314,True,28,1
160M25S2,572,experiment,73,←,left,←,0.640467599965632,True,28,1
160M25S2,573,experiment,71,↓,down,↓,0.45483130001230165,True,28,1
160M25S2,574,experiment,107,↓,down,↓,0.4488930000225082,True,28,1
160M25S2,575,experiment,72,→,right,→,0.638978099974338,True,28,1
160M25S2,576,experiment,84,→,right,→,0.6487251999787986,True,28,1
160M25S2,577,experiment,52,→,right,→,0.7412974999751896,True,28,1
160M25S2,578,experiment,103,←,left,←,0.48475290002534166,True,28,1
160M25S2,579,experiment,51,↑,up,↑,0.4802074999897741,True,28,1
160M25S2,580,experiment,49,↑,up,↑,0.48460640001576394,True,28,1
160M25S2,581,experiment,67,↓,down,↓,0.7632279000245035,True,28,1
160M25S2,582,experiment,74,↓,down,↓,0.6435307000065222,True,28,1
160M25S2,583,experiment,106,↑,up,↑,0.4944607999641448,True,28,1
160M25S2,584,experiment,55,↓,down,↓,0.6479695999878459,True,28,1
160M25S2,585,experiment,97,↓,down,↓,0.6452542999759316,True,28,1
160M25S2,586,experiment,59,←,left,←,0.6793542000232264,True,28,1
160M25S2,587,experiment,96,↓,down,↓,0.5477246000082232,True,28,1
160M25S2,588,experiment,66,↑,up,↑,0.5034559000050649,True,28,1
160M25S2,589,experiment,104,←,left,←,0.6968980000237934,True,28,1
160M25S2,590,experiment,98,←,left,←,0.4998965000268072,True,28,1
160M25S2,591,experiment,93,→,right,→,0.5687108999700285,True,28,1
160M25S2,592,experiment,89,→,right,→,0.48387880000518635,True,28,1
160M25S2,593,experiment,92,↓,down,↓,0.6262277999776416,True,28,1
160M25S2,594,experiment,77,↑,up,↑,0.4390562000335194,True,28,1
160M25S2,595,experiment,87,↑,up,↑,0.5758629000047222,True,28,1
160M25S2,596,experiment,105,↓,down,↓,0.7414425000315532,True,28,1
160M25S2,597,experiment,65,←,left,←,0.6898842000518925,True,28,1
160M25S2,598,experiment,81,←,left,←,0.5629270999925211,True,28,1
160M25S2,599,experiment,101,→,right,→,0.5224794000387192,True,28,1
160M25S2,600,experiment,88,→,right,→,0.4396977000287734,True,28,1
160M25S2,601,experiment,80,→,right,→,0.4996551999938674,True,28,1
160M25S2,602,experiment,62,↓,down,↓,0.6661969000124373,True,28,1
160M25S2,603,experiment,95,↑,up,↑,0.6475064000114799,True,28,1
160M25S2,604,experiment,69,↑,up,↑,0.6866581999929622,True,28,1
160M25S2,605,experiment,57,→,right,→,0.47967859997879714,True,28,1
160M25S2,606,experiment,68,←,left,←,0.5255223999847658,True,28,1
160M25S2,607,experiment,82,←,left,←,0.4450303000048734,True,28,1
160M25S2,608,training,82,↑,up,↑,0.6423385000089183,True,28,0
160M25S2,609,training,76,↓,down,↓,0.4953656999859959,True,28,1
160M25S2,610,experiment,82,↓,down,↓,0.6478188000037335,True,28,1
160M25S2,611,experiment,48,↑,up,↑,0.4617237000493333,True,28,1
160M25S2,612,experiment,68,↓,down,↓,0.5326070999726653,True,28,1
160M25S2,613,experiment,108,↓,down,↓,0.48288129997672513,True,28,1
160M25S2,614,experiment,76,←,left,←,0.6297332000103779,True,28,1
160M25S2,615,experiment,63,→,left,←,0.6232011999818496,False,28,1
160M25S2,616,experiment,86,↑,up,↑,0.5692376000224613,True,28,1
160M25S2,617,experiment,74,←,left,←,0.9616292000282556,True,28,1
160M25S2,618,experiment,64,↓,down,↓,0.493604899966158,True,28,1
160M25S2,619,experiment,72,→,right,→,0.5700436000479385,True,28,1
160M25S2,620,experiment,58,←,left,←,0.6875819999841042,True,28,1
160M25S2,621,experiment,54,↑,left,←,0.8016397000174038,False,28,1
160M25S2,622,experiment,81,→,right,→,0.5902566000004299,True,28,1
160M25S2,623,experiment,100,↑,up,↑,0.4929232000140473,True,28,1
160M25S2,624,experiment,105,←,left,←,0.782292400021106,True,28,1
160M25S2,625,experiment,80,↑,up,↑,0.5077487999806181,True,28,1
160M25S2,626,experiment,50,→,right,→,0.7023995000054128,True,28,1
160M25S2,627,experiment,65,↓,down,↓,0.5084612999926321,True,28,1
160M25S2,628,experiment,87,→,right,→,0.5788743000011891,True,28,1
160M25S2,629,experiment,96,↓,down,↓,0.7311716999975033,True,28,1
160M25S2,630,experiment,77,→,right,→,0.49992470000870526,True,28,1
160M25S2,631,experiment,103,↑,up,↑,0.7416860000230372,True,28,1
160M25S2,632,experiment,107,←,left,←,0.47586030000820756,True,28,1
160M25S2,633,experiment,99,→,right,→,0.43145200004801154,True,28,1
160M25S2,634,experiment,70,→,right,→,0.7424748999765143,True,28,1
160M25S2,635,experiment,101,←,left,←,0.5428417999646626,True,28,1
160M25S2,636,experiment,59,↑,up,↑,0.645716099999845,True,28,1
160M25S2,637,experiment,85,→,right,→,0.5106131999637,True,28,1
160M25S2,638,experiment,73,←,left,←,0.48205789999337867,True,28,1
160M25S2,639,experiment,55,↓,down,↓,0.7080641000065953,True,28,1
160M25S2,640,experiment,95,←,left,←,0.5838953999918886,True,28,1
160M25S2,641,experiment,79,←,left,←,0.7255062999902293,True,28,1
160M25S2,642,experiment,94,←,left,←,0.561007599986624,True,28,1
160M25S2,643,experiment,66,←,left,←,0.46832200000062585,True,28,1
160M25S2,644,experiment,83,↓,down,↓,0.48567790002562106,True,28,1
160M25S2,645,experiment,56,←,left,←,0.5595314999809489,True,28,1
160M25S2,646,experiment,104,←,left,←,0.4385273000225425,True,28,1
160M25S2,647,experiment,89,←,left,←,0.6386743999901228,True,28,1
160M25S2,648,experiment,52,↑,up,↑,0.7156361000379547,True,28,1
160M25S2,649,experiment,88,→,right,→,0.45742569997673854,True,28,1
160M25S2,650,experiment,49,→,right,→,0.5261291000060737,True,28,1
160M25S2,651,experiment,78,↑,up,↑,0.4796112999902107,True,28,1
160M25S2,652,experiment,53,←,left,←,0.5936961000552401,True,28,1
160M25S2,653,experiment,106,←,left,←,0.4223503000102937,True,28,1
160M25S2,654,experiment,97,→,right,→,0.6529810000211,True,28,1
160M25S2,655,experiment,84,→,left,←,0.6865170000237413,False,28,1
160M25S2,656,experiment,75,↓,down,↓,0.6738116000196896,True,28,1
160M25S2,657,experiment,102,→,right,→,0.5085721999639645,True,28,1
160M25S2,658,experiment,67,←,left,←,0.5378655000240542,True,28,1
160M25S2,659,experiment,71,→,right,→,0.4681948999641463,True,28,1
160M25S2,660,experiment,61,←,left,←,0.6051433999673463,True,28,1
160M25S2,661,experiment,51,→,right,→,0.4914285000413656,True,28,1
160M25S2,662,experiment,90,→,right,→,0.4575104999821633,True,28,1
160M25S2,663,experiment,93,↓,down,↓,0.4796331000397913,True,28,1
160M25S2,664,experiment,92,↑,up,↑,0.5737632000236772,True,28,1
160M25S2,665,experiment,62,→,right,→,0.42552160000195727,True,28,1
160M25S2,666,experiment,98,→,right,→,0.6635417999932542,True,28,1
160M25S2,667,experiment,57,↑,up,↑,0.5056008999818005,True,28,1
160M25S2,668,experiment,60,↑,up,↑,0.5210843999520876,True,28,1
160M25S2,669,experiment,69,←,left,←,0.7087158999638632,True,28,1
160M25S2,670,experiment,91,←,left,←,0.4180564000271261,True,28,1
160M25S2,671,training,75,←,left,←,0.4437991000013426,True,28,0
160M25S2,672,training,92,←,left,←,0.35902710002847016,True,28,1
160M25S2,673,experiment,53,↑,up,↑,0.5386832000222057,True,28,1
160M25S2,674,experiment,80,↓,down,↓,0.46596410003257915,True,28,1
160M25S2,675,experiment,84,↑,up,↑,0.6912092000129633,True,28,1
160M25S2,676,experiment,61,→,up,↑,0.8109016999951564,False,28,1
160M25S2,677,experiment,89,←,left,←,0.5966093000024557,True,28,1
160M25S2,678,experiment,88,←,left,←,0.6794686999637634,True,28,1
160M25S2,679,experiment,91,↓,down,↓,0.4935952000087127,True,28,1
160M25S2,680,experiment,50,↓,up,↑,0.7367797999759205,False,28,1
160M25S2,681,experiment,68,→,right,→,0.7321039999951608,True,28,1
160M25S2,682,experiment,75,↓,down,↓,0.6219546999782324,True,28,1
160M25S2,683,experiment,102,↓,down,↓,0.6104201999842189,True,28,1
160M25S2,684,experiment,101,←,left,←,0.4641064000315964,True,28,1
160M25S2,685,experiment,72,↑,up,↑,0.6850948999635875,True,28,1
160M25S2,686,experiment,77,↓,down,↓,0.4559089999529533,True,28,1
160M25S2,687,experiment,59,→,right,→,0.6574102999875322,True,28,1
160M25S2,688,experiment,65,←,left,←,0.4412504999781959,True,28,1
160M25S2,689,experiment,55,↓,down,↓,0.6771696000359952,True,28,1
160M25S2,690,experiment,56,↑,up,↑,0.6230805999948643,True,28,1
160M25S2,691,experiment,99,↑,up,↑,0.7327827999833971,True,28,1
160M25S2,692,experiment,76,↑,up,↑,0.46214779996080324,True,28,1
160M25S2,693,experiment,67,↑,up,↑,0.5975518000195734,True,28,1
160M25S2,694,experiment,73,←,left,←,0.40498970000771806,True,28,1
160M25S2,695,experiment,100,←,left,←,0.6743062000023201,True,28,0
160M25S2,696,experiment,92,↓,down,↓,0.608403000049293,True,28,1
160M25S2,697,experiment,106,↑,up,↑,0.476700599945616,True,28,1
160M25S2,698,experiment,97,→,right,→,0.6329995000269264,True,28,1
160M25S2,699,experiment,82,↓,down,↓,0.6680247000185773,True,28,1
160M25S2,700,experiment,74,↑,up,↑,0.6642379999975674,True,28,1
160M25S2,701,experiment,96,→,right,→,0.4135773000307381,True,28,1
160M25S2,702,experiment,54,→,right,→,0.6584052999969572,True,28,1
160M25S2,703,experiment,63,←,left,←,0.43502000003354624,True,28,1
160M25S2,704,experiment,49,↑,up,↑,0.46483080001780763,True,28,1
160M25S2,705,experiment,104,↑,up,↑,0.4596023000194691,True,28,1
160M25S2,706,experiment,71,↓,down,↓,0.6411261000321247,True,28,1
160M25S2,707,experiment,79,↑,up,↑,0.43717029999243096,True,28,1
160M25S2,708,experiment,95,→,right,→,0.5470764000201598,True,28,1
160M25S2,709,experiment,93,→,right,→,0.502065800013952,True,28,1
160M25S2,710,experiment,69,↑,up,↑,0.738530799979344,True,28,1
160M25S2,711,experiment,66,←,left,←,0.48680750001221895,True,28,1
160M25S2,712,experiment,81,←,left,←,0.6479332000017166,True,28,1
160M25S2,713,experiment,90,←,left,←,0.6961312999483198,True,28,1
160M25S2,714,experiment,107,↑,up,↑,0.5039140000008047,True,28,1
160M25S2,715,experiment,60,↑,up,↑,0.49569919996429235,True,28,1
160M25S2,716,experiment,83,→,right,→,0.5838993000215851,True,28,1
160M25S2,717,experiment,85,↓,down,↓,0.7559498999617063,True,28,1
160M25S2,718,experiment,51,→,left,←,0.6523628999711946,False,28,1
160M25S2,719,experiment,64,↓,down,↓,0.6529940000036731,True,28,1
160M25S2,720,experiment,78,→,right,→,0.6486767000169493,True,28,1
160M25S2,721,experiment,87,↓,down,↓,0.6095026999828406,True,28,1
160M25S2,722,experiment,70,↑,up,↑,0.6016803999664262,True,28,1
160M25S2,723,experiment,103,↓,down,↓,0.5907495999708772,True,28,1
160M25S2,724,experiment,98,→,right,→,0.4380337999900803,True,28,1
160M25S2,725,experiment,62,↑,up,↑,0.46356940001714975,True,28,1
160M25S2,726,experiment,108,↓,down,↓,0.5768850999884307,True,28,1
160M25S2,727,experiment,94,→,right,→,0.4021402999642305,True,28,1
160M25S2,728,experiment,58,→,right,→,0.5739983000094071,True,28,0
160M25S2,729,experiment,48,↓,down,↓,0.502686999971047,True,28,1
160M25S2,730,experiment,52,←,left,←,0.6015622999984771,True,28,1
160M25S2,731,experiment,105,←,left,←,0.6061675999662839,True,28,1
160M25S2,732,experiment,57,→,right,→,0.610258899978362,True,28,1
160M25S2,733,experiment,86,↓,down,↓,0.5969822999904864,True,28,1
160M25S2,734,training,98,↑,up,↑,0.6255250999820419,True,28,0
160M25S2,735,training,51,↑,up,↑,0.6315012000268325,True,28,1
160M25S2,736,experiment,92,↓,up,↑,0.7429419999825768,False,28,1
160M25S2,737,experiment,66,←,left,←,0.45097869995515794,True,28,1
160M25S2,738,experiment,71,↑,up,↑,0.6091708000167273,True,28,1
160M25S2,739,experiment,65,↓,down,↓,0.5148768000071868,True,28,1
160M25S2,740,experiment,55,↓,down,↓,0.6921715999487787,True,28,1
160M25S2,741,experiment,67,→,right,→,0.5292128999717534,True,28,1
160M25S2,742,experiment,70,→,right,→,0.4767145999940112,True,28,1
160M25S2,743,experiment,73,↑,up,↑,0.4734224999556318,True,28,1
160M25S2,744,experiment,63,←,left,←,0.44891109998570755,True,28,1
160M25S2,745,experiment,81,↓,down,↓,0.4836836999747902,True,28,1
160M25S2,746,experiment,91,→,left,←,0.6017656000331044,False,28,1
160M25S2,747,experiment,94,↑,up,↑,0.4582721999613568,True,28,1
160M25S2,748,experiment,83,↑,up,↑,0.7077819000114687,True,28,1
160M25S2,749,experiment,90,→,right,→,0.6493998999940231,True,28,1
160M25S2,750,experiment,76,↓,down,↓,0.6135429000132717,True,28,1
160M25S2,751,experiment,57,↓,down,↓,0.5056380000314675,True,28,1
160M25S2,752,experiment,93,↑,up,↑,0.4783678000094369,True,28,1
160M25S2,753,experiment,52,↓,down,↓,0.48949519998859614,True,28,1
160M25S2,754,experiment,88,↑,up,↑,0.4882267000502907,True,28,1
160M25S2,755,experiment,84,↓,down,↓,0.5763202999951318,True,28,1
160M25S2,756,experiment,80,←,left,←,0.5343872000230476,True,28,1
160M25S2,757,experiment,102,↓,down,↓,0.4707600999972783,True,28,1
160M25S2,758,experiment,53,←,left,←,0.5378173000062816,True,28,1
160M25S2,759,experiment,77,↑,up,↑,0.770195999997668,True,28,1
160M25S2,760,experiment,51,↓,down,↓,0.49056609999388456,True,28,1
160M25S2,761,experiment,72,→,right,→,0.43833319999976084,True,28,1
160M25S2,762,experiment,48,↓,down,↓,0.5885228999541141,True,28,1
160M25S2,763,experiment,108,←,left,←,0.6648051999509335,True,28,1
160M25S2,764,experiment,82,↑,up,↑,0.46618290001060814,True,28,1
160M25S2,765,experiment,95,←,left,←,0.46366899996064603,True,28,1
160M25S2,766,experiment,107,↑,up,↑,0.6249922999995761,True,28,1
160M25S2,767,experiment,74,→,right,→,0.5993893999839202,True,28,1
160M25S2,768,experiment,49,↑,up,↑,0.6785220000310801,True,28,1
160M25S2,769,experiment,86,↑,up,↑,0.47051070001907647,True,28,1
160M25S2,770,experiment,97,↑,up,↑,0.6673276000074111,True,28,1
160M25S2,771,experiment,58,←,up,↑,0.7570197999593802,False,28,1
160M25S2,772,experiment,106,→,right,→,0.6432683999883011,True,28,1
160M25S2,773,experiment,61,↑,up,↑,0.500706100021489,True,28,1
160M25S2,774,experiment,98,↑,up,↑,0.6004132000380196,True,28,1
160M25S2,775,experiment,105,←,left,←,0.4683817000477575,True,28,1
160M25S2,776,experiment,79,←,left,←,0.43126719997962937,True,28,1
160M25S2,777,experiment,104,→,right,→,0.4511711000232026,True,28,1
160M25S2,778,experiment,69,→,right,→,0.5859308000071906,True,28,1
160M25S2,779,experiment,103,←,left,←,0.6957649000105448,True,28,1
160M25S2,780,experiment,54,↓,down,↓,0.49808789999224246,True,28,1
160M25S2,781,experiment,59,↓,down,↓,0.6258829000289552,True,28,1
160M25S2,782,experiment,99,→,right,→,0.43174359999829903,True,28,1
160M25S2,783,experiment,50,↑,up,↑,0.6691327000153251,True,28,1
160M25S2,784,experiment,60,↑,up,↑,0.6221266000065953,True,28,1
160M25S2,785,experiment,85,↓,down,↓,0.600778799969703,True,28,1
160M25S2,786,experiment,64,↓,down,↓,0.4830904999980703,True,28,1
160M25S2,787,experiment,96,←,left,←,0.4711933999788016,True,28,1
160M25S2,788,experiment,78,↑,up,↑,0.49821390002034605,True,28,1
160M25S2,789,experiment,101,→,right,→,0.43605530000058934,True,28,1
160M25S2,790,experiment,87,→,right,→,0.4535106000257656,True,28,1
160M25S2,791,experiment,62,↓,up,↑,0.7422102999989875,False,28,1
160M25S2,792,experiment,56,↑,up,↑,0.6059405999840237,True,28,1
160M25S2,793,experiment,89,↑,up,↑,0.5434293000143953,True,28,1
160M25S2,794,experiment,100,↑,up,↑,0.4560341000324115,True,28,1
160M25S2,795,experiment,75,↑,up,↑,0.49243640003260225,True,28,1
160M25S2,796,experiment,68,←,left,←,0.4581542999949306,True,28,1
160M25S2,797,training,65,←,left,←,0.4265886999783106,True,28,0
160M25S2,798,training,73,←,left,←,0.5210602000006475,True,28,1
160M25S2,799,experiment,105,↓,down,↓,0.6011357000097632,True,28,1
160M25S2,800,experiment,61,↓,down,↓,0.5641257000388578,True,28,1
160M25S2,801,experiment,100,←,left,←,0.40413430001353845,True,28,1
160M25S2,802,experiment,52,↓,down,↓,0.47398900002008304,True,28,0
160M25S2,803,experiment,50,→,right,→,0.7102035999996588,True,28,1
160M25S2,804,experiment,87,→,right,→,0.5644016999867745,True,28,1
160M25S2,805,experiment,55,↓,down,↓,0.5954663999727927,True,28,1
160M25S2,806,experiment,82,↑,up,↑,0.43986929999664426,True,28,1
160M25S2,807,experiment,66,↑,up,↑,0.5923155000200495,True,28,1
160M25S2,808,experiment,77,←,left,←,0.4623839000123553,True,28,1
160M25S2,809,experiment,97,←,left,←,0.43554020003648475,True,28,1
160M25S2,810,experiment,96,←,left,←,0.40212139999493957,True,28,1
160M25S2,811,experiment,76,↓,down,↓,0.7279546000063419,True,28,0
160M25S2,812,experiment,88,↑,up,↑,0.4694688000017777,True,28,1
160M25S2,813,experiment,72,←,left,←,0.6426121999975294,True,28,1
160M25S2,814,experiment,85,←,left,←,0.5880209999741055,True,28,1
160M25S2,815,experiment,49,↓,down,↓,0.5560374999768101,True,28,1
160M25S2,816,experiment,54,↓,down,↓,0.5636549000046216,True,28,1
160M25S2,817,experiment,57,↓,down,↓,0.6013556999969296,True,28,1
160M25S2,818,experiment,102,↓,down,↓,0.5033093999954872,True,28,1
160M25S2,819,experiment,89,←,left,←,0.6931940000504255,True,28,1
160M25S2,820,experiment,92,←,left,←,0.5385456000221893,True,28,1
160M25S2,821,experiment,107,→,right,→,0.48074730002554134,True,28,1
160M25S2,822,experiment,53,↑,up,↑,0.6997115999693051,True,28,1
160M25S2,823,experiment,75,←,left,←,0.6062806000118144,True,28,1
160M25S2,824,experiment,62,→,right,→,0.47314979997463524,True,28,1
160M25S2,825,experiment,67,↑,up,↑,0.5998963000020012,True,28,1
160M25S2,826,experiment,63,↓,down,↓,0.6342352000065148,True,28,1
160M25S2,827,experiment,104,←,left,←,0.6219073999673128,True,28,1
160M25S2,828,experiment,64,→,right,→,0.5435798999969848,True,28,1
160M25S2,829,experiment,69,→,right,→,0.4587836000137031,True,28,1
160M25S2,830,experiment,79,←,left,←,0.4694672000478022,True,28,1
160M25S2,831,experiment,51,↑,up,↑,0.6497726999805309,True,28,1
160M25S2,832,experiment,106,↑,up,↑,0.5959571999846958,True,28,1
160M25S2,833,experiment,84,→,right,→,0.4396955000120215,True,28,1
160M25S2,834,experiment,93,→,right,→,0.4626546999788843,True,28,1
160M25S2,835,experiment,95,←,no_key,no_letter,-1.0,False,28,1
160M25S2,836,experiment,65,↑,up,↑,0.5541914999485016,True,28,1
160M25S2,837,experiment,73,←,left,←,0.44304009998450056,True,28,1
160M25S2,838,experiment,86,↓,down,↓,0.48444760002894327,True,28,1
160M25S2,839,experiment,58,↓,down,↓,0.49357499997131526,True,28,1
160M25S2,840,experiment,71,→,right,→,0.6580454999930225,True,28,1
160M25S2,841,experiment,78,↑,up,↑,0.44573710003169253,True,28,1
160M25S2,842,experiment,83,↓,down,↓,0.6476881999988109,True,28,1
160M25S2,843,experiment,108,↓,down,↓,0.5373989000217989,True,28,1
160M25S2,844,experiment,74,→,right,→,0.618809700012207,True,28,1
160M25S2,845,experiment,60,↓,up,↑,0.6536004000226967,False,28,1
160M25S2,846,experiment,99,↑,up,↑,0.4744772000121884,True,28,1
160M25S2,847,experiment,48,→,right,→,0.7191815999685787,True,28,1
160M25S2,848,experiment,81,←,left,←,0.5991601999849081,True,28,1
160M25S2,849,experiment,56,←,left,←,0.6123075000359677,True,28,1
160M25S2,850,experiment,80,↓,down,↓,0.4806269999826327,True,28,1
160M25S2,851,experiment,91,→,right,→,0.47864689998095855,True,28,1
160M25S2,852,experiment,59,←,left,←,0.5036883000284433,True,28,1
160M25S2,853,experiment,101,↓,down,↓,0.5134994999971241,True,28,1
160M25S2,854,experiment,68,↓,down,↓,0.5018924999749288,True,28,1
160M25S2,855,experiment,94,↑,down,↓,0.6742662999895401,False,28,1
160M25S2,856,experiment,98,↑,up,↑,0.7265861000050791,True,28,1
160M25S2,857,experiment,70,←,left,←,0.4656637999578379,True,28,1
160M25S2,858,experiment,103,↑,left,←,1.0285681000095792,False,28,1
160M25S2,859,experiment,90,→,right,→,0.6450268999906257,True,28,1
160M25S2,860,training,62,↑,right,→,1.0033255000016652,False,28,0
160M25S2,861,training,91,→,right,→,0.5165543999755755,True,28,1
160M25S2,862,experiment,92,↓,down,↓,0.46514689998002723,True,28,1
160M25S2,863,experiment,106,←,left,←,0.4991364000015892,True,28,1
160M25S2,864,experiment,105,→,right,→,0.595484999998007,True,28,1
160M25S2,865,experiment,97,↓,down,↓,0.4747719999868423,True,28,1
160M25S2,866,experiment,56,→,right,→,0.6849241000018083,True,28,1
160M25S2,867,experiment,75,←,left,←,0.5926502999500372,True,28,1
160M25S2,868,experiment,62,↓,down,↓,0.4599154999596067,True,28,1
160M25S2,869,experiment,102,↓,down,↓,0.45517390000168234,True,28,1
160M25S2,870,experiment,73,←,left,←,0.49232399999164045,True,28,1
160M25S2,871,experiment,108,↑,up,↑,0.5002234000130557,True,28,1
160M25S2,872,experiment,61,←,left,←,0.6676698999945074,True,28,1
160M25S2,873,experiment,88,←,left,←,0.43566229997668415,True,28,1
160M25S2,874,experiment,76,↓,down,↓,0.5365055000293069,True,28,1
160M25S2,875,experiment,65,←,left,←,0.5894701999495737,True,28,1
160M25S2,876,experiment,95,→,right,→,0.5096157999942079,True,28,1
160M25S2,877,experiment,82,→,right,→,0.5977106000063941,True,28,1
160M25S2,878,experiment,89,←,left,←,0.43960649997461587,True,28,1
160M25S2,879,experiment,103,←,left,←,0.7553539000218734,True,28,1
160M25S2,880,experiment,104,↓,down,↓,0.6261620000004768,True,28,1
160M25S2,881,experiment,90,↑,up,↑,0.4907740000053309,True,28,1
160M25S2,882,experiment,53,←,left,←,0.5894198999740183,True,28,1
160M25S2,883,experiment,68,→,left,←,0.6709206999512389,False,28,1
160M25S2,884,experiment,94,←,left,←,0.595961700018961,True,28,1
160M25S2,885,experiment,64,→,right,→,0.4623482000315562,True,28,1
160M25S2,886,experiment,52,←,left,←,0.6580808999715373,True,28,1
160M25S2,887,experiment,85,←,left,←,0.5310744000016712,True,28,1
160M25S2,888,experiment,91,↓,down,↓,0.6316866000415757,True,28,1
160M25S2,889,experiment,57,←,left,←,0.5548221999779344,True,28,1
160M25S2,890,experiment,96,↑,up,↑,0.6682110999827273,True,28,1
160M25S2,891,experiment,84,→,right,→,0.46098849998088554,True,28,1
160M25S2,892,experiment,55,↑,up,↑,0.4562720999820158,True,28,1
160M25S2,893,experiment,77,←,left,←,0.41190669999923557,True,28,1
160M25S2,894,experiment,70,↓,down,↓,0.6760934999911115,True,28,1
160M25S2,895,experiment,93,←,left,←,0.4973937000031583,True,28,1
160M25S2,896,experiment,67,→,right,→,0.4471956000197679,True,28,1
160M25S2,897,experiment,50,←,left,←,0.42797930003143847,True,28,1
160M25S2,898,experiment,81,↑,up,↑,0.44743910001125187,True,28,1
160M25S2,899,experiment,51,←,right,→,0.8361882999888621,False,28,1
160M25S2,900,experiment,58,↓,down,↓,0.47116430004825816,True,28,1
160M25S2,901,experiment,107,→,right,→,0.5521645999979228,True,28,1
160M25S2,902,experiment,59,→,right,→,0.41444500000216067,True,28,1
160M25S2,903,experiment,78,←,left,←,0.4121125999954529,True,28,1
160M25S2,904,experiment,74,←,left,←,0.4102013999945484,True,28,1
160M25S2,905,experiment,71,↓,down,↓,0.4895598999573849,True,28,1
160M25S2,906,experiment,101,↑,up,↑,0.45980559999588877,True,28,1
160M25S2,907,experiment,60,↓,down,↓,0.4772669000085443,True,28,1
160M25S2,908,experiment,63,←,left,←,0.42892070004018024,True,28,1
160M25S2,909,experiment,86,→,no_key,no_letter,-1.0,False,28,1
160M25S2,910,experiment,79,↓,down,↓,0.6397585999802686,True,28,1
160M25S2,911,experiment,49,↑,up,↑,0.4295202000066638,True,28,1
160M25S2,912,experiment,98,↑,up,↑,0.5877740000141785,True,28,1
160M25S2,913,experiment,83,↑,up,↑,0.47273520001908764,True,28,1
160M25S2,914,experiment,72,→,right,→,0.7332459000172094,True,28,1
160M25S2,915,experiment,100,←,left,←,0.6060673000174575,True,28,1
160M25S2,916,experiment,69,←,left,←,0.5824480000301264,True,28,1
160M25S2,917,experiment,80,↓,down,↓,0.46812259999569505,True,28,1
160M25S2,918,experiment,87,↑,up,↑,0.5882414999650791,True,28,1
160M25S2,919,experiment,54,↑,up,↑,0.4508909999858588,True,28,1
160M25S2,920,experiment,66,←,left,←,0.45056780002778396,True,28,1
160M25S2,921,experiment,99,←,left,←,0.45512779999990016,True,28,1
160M25S2,922,experiment,48,←,left,←,0.83695029997034,True,28,1
160M25S2,923,training,86,←,left,←,0.6305160999763757,True,28,0
160M25S2,924,training,59,↑,up,↑,0.617506799986586,True,28,1
160M25S2,925,experiment,48,←,left,←,0.6004832999897189,True,28,1
160M25S2,926,experiment,102,→,right,→,0.5742698999820277,True,28,1
160M25S2,927,experiment,80,↑,up,↑,0.6760728000081144,True,28,1
160M25S2,928,experiment,73,↓,down,↓,0.49640340002952144,True,28,1
160M25S2,929,experiment,49,↓,down,↓,0.6841752000036649,True,28,1
160M25S2,930,experiment,78,←,left,←,0.4625413999892771,True,28,1
160M25S2,931,experiment,99,←,left,←,0.515413900022395,True,28,1
160M25S2,932,experiment,67,→,right,→,0.5837446000077762,True,28,1
160M25S2,933,experiment,60,↑,up,↑,0.46844399999827147,True,28,1
160M25S2,934,experiment,63,↓,down,↓,0.5965791000053287,True,28,1
160M25S2,935,experiment,108,↑,up,↑,0.5922027000342496,True,28,1
160M25S2,936,experiment,56,→,right,→,0.44534709997242317,True,28,1
160M25S2,937,experiment,54,→,right,→,0.4495069000404328,True,28,1
160M25S2,938,experiment,53,↓,down,↓,0.5019726000027731,True,28,1
160M25S2,939,experiment,52,→,right,→,0.6400767000159249,True,28,1
160M25S2,940,experiment,68,↑,up,↑,0.5676840000087395,True,28,1
160M25S2,941,experiment,50,←,left,←,0.6318426999496296,True,28,1
160M25S2,942,experiment,76,→,right,→,0.6928940999787301,True,28,1
160M25S2,943,experiment,107,↑,up,↑,0.5332670999923721,True,28,1
160M25S2,944,experiment,64,←,left,←,0.6425573999877088,True,28,1
160M25S2,945,experiment,106,→,right,→,0.7410893000196666,True,28,1
160M25S2,946,experiment,89,→,right,→,0.48131479998119175,True,28,1
160M25S2,947,experiment,58,↑,up,↑,0.4744337000302039,True,28,1
160M25S2,948,experiment,74,←,left,←,0.5828244999866001,True,28,1
160M25S2,949,experiment,90,↑,up,↑,0.5371104000369087,True,28,1
160M25S2,950,experiment,103,←,left,←,0.4889393000048585,True,28,1
160M25S2,951,experiment,86,↓,down,↓,0.48843000002671033,True,28,1
160M25S2,952,experiment,82,↑,up,↑,0.4411277000326663,True,28,1
160M25S2,953,experiment,88,←,left,←,0.4338067999924533,True,28,1
160M25S2,954,experiment,91,→,right,→,0.5619038000004366,True,28,1
160M25S2,955,experiment,61,→,right,→,0.5110006999457255,True,28,1
160M25S2,956,experiment,66,↑,up,↑,0.620476600015536,True,28,1
160M25S2,957,experiment,104,→,right,→,0.6086448000278324,True,28,1
160M25S2,958,experiment,55,↑,up,↑,0.5895956000313163,True,28,1
160M25S2,959,experiment,98,←,left,←,0.6532274999772198,True,28,1
160M25S2,960,experiment,100,←,left,←,0.5612864000140689,True,28,1
160M25S2,961,experiment,81,←,left,←,0.5676798999775201,True,28,1
160M25S2,962,experiment,101,→,right,→,0.6230890000006184,True,28,1
160M25S2,963,experiment,72,↓,down,↓,0.5019907999667339,True,28,1
160M25S2,964,experiment,84,→,right,→,0.6297614999930374,True,28,1
160M25S2,965,experiment,83,↓,down,↓,0.520196900004521,True,28,1
160M25S2,966,experiment,94,↓,down,↓,0.5159103000187315,True,28,1
160M25S2,967,experiment,95,↑,up,↑,0.7113066000165418,True,28,1
160M25S2,968,experiment,69,↓,down,↓,0.4676169999875128,True,28,1
160M25S2,969,experiment,79,→,right,→,0.5023852000012994,True,28,1
160M25S2,970,experiment,70,→,left,←,0.8190977999474853,False,28,1
160M25S2,971,experiment,62,↑,up,↑,0.8452409000019543,True,28,1
160M25S2,972,experiment,96,→,right,→,0.4589144000201486,True,28,1
160M25S2,973,experiment,75,→,right,→,0.5434863999835216,True,28,1
160M25S2,974,experiment,105,→,right,→,0.69470029999502,True,28,1
160M25S2,975,experiment,71,↑,up,↑,0.7310270000016317,True,28,1
160M25S2,976,experiment,92,↑,up,↑,0.6467155000427738,True,28,1
160M25S2,977,experiment,65,↑,up,↑,0.7024949999758974,True,28,1
160M25S2,978,experiment,57,↑,up,↑,0.4951874000253156,True,28,1
160M25S2,979,experiment,87,↓,down,↓,0.7102114000008442,True,28,1
160M25S2,980,experiment,97,←,left,←,0.6172826000256464,True,28,1
160M25S2,981,experiment,77,↑,up,↑,0.6386906999978237,True,28,1
160M25S2,982,experiment,59,←,left,←,0.7050858000293374,True,28,1
160M25S2,983,experiment,85,→,right,→,0.480445499997586,True,28,1
160M25S2,984,experiment,51,←,left,←,0.588042100018356,True,28,1
160M25S2,985,experiment,93,↓,down,↓,0.7966896999860182,True,28,1
160M25S2,986,training,91,↑,up,↑,0.5645024999976158,True,28,0
160M25S2,987,training,69,←,left,←,0.45455030002631247,True,28,1
160M25S2,988,experiment,60,←,left,←,0.44019479997223243,True,28,1
160M25S2,989,experiment,67,←,left,←,0.5438857999979518,True,28,1
160M25S2,990,experiment,69,↑,up,↑,0.5629155000206083,True,28,1
160M25S2,991,experiment,80,→,right,→,0.45729560003383085,True,28,1
160M25S2,992,experiment,70,←,left,←,0.5519905000110157,True,28,1
160M25S2,993,experiment,66,→,right,→,0.5872870999737643,True,28,1
160M25S2,994,experiment,51,↓,down,↓,0.5145029000123031,True,28,1
160M25S2,995,experiment,72,↑,up,↑,0.5094283000216819,True,28,1
160M25S2,996,experiment,102,↓,down,↓,0.5107644000090659,True,28,1
160M25S2,997,experiment,75,→,right,→,0.6974923999514431,True,28,1
160M25S2,998,experiment,77,↑,up,↑,0.4672079000156373,True,28,1
160M25S2,999,experiment,108,→,right,→,0.42864159995224327,True,28,1
160M25S2,1000,experiment,97,↑,up,↑,0.4742813999764621,True,28,1
160M25S2,1001,experiment,99,→,right,→,0.43806290003703907,True,28,1
160M25S2,1002,experiment,76,↓,down,↓,0.706816699996125,True,28,1
160M25S2,1003,experiment,79,←,left,←,0.6437663999968208,True,28,1
160M25S2,1004,experiment,91,←,left,←,0.45984579995274544,True,28,1
160M25S2,1005,experiment,106,→,right,→,0.6459598999936134,True,28,1
160M25S2,1006,experiment,93,↑,up,↑,0.6206097000394948,True,28,1
160M25S2,1007,experiment,85,→,right,→,0.4387548000086099,True,28,1
160M25S2,1008,experiment,68,→,right,→,0.43815649999305606,True,28,1
160M25S2,1009,experiment,100,↓,down,↓,0.6270049000158906,True,28,1
160M25S2,1010,experiment,86,↓,down,↓,0.5248250000295229,True,28,1
160M25S2,1011,experiment,55,↑,up,↑,0.49324639997212216,True,28,1
160M25S2,1012,experiment,104,↑,up,↑,0.6390151000232436,True,28,1
160M25S2,1013,experiment,81,→,right,→,0.4257676000124775,True,28,1
160M25S2,1014,experiment,88,←,left,←,0.6835041000158526,True,28,1
160M25S2,1015,experiment,84,←,left,←,0.6194499999983236,True,28,1
160M25S2,1016,experiment,73,↑,up,↑,0.4822872999939136,True,28,1
160M25S2,1017,experiment,87,↑,up,↑,0.5536167999962345,True,28,1
160M25S2,1018,experiment,74,←,left,←,0.6827152000041679,True,28,1
160M25S2,1019,experiment,54,↑,up,↑,0.5571829999680631,True,28,1
160M25S2,1020,experiment,90,↓,down,↓,0.6485130999935791,True,28,1
160M25S2,1021,experiment,50,↓,down,↓,0.4855447000009008,True,28,1
160M25S2,1022,experiment,62,→,right,→,0.6694042999879457,True,28,1
160M25S2,1023,experiment,92,↑,right,→,0.7476705000153743,False,28,1
160M25S2,1024,experiment,101,→,right,→,0.6597296000109054,True,28,1
160M25S2,1025,experiment,57,←,left,←,0.47810710000339895,True,28,1
160M25S2,1026,experiment,82,↓,down,↓,0.4875088999979198,True,28,1
160M25S2,1027,experiment,63,←,left,←,0.662618400005158,True,28,1
160M25S2,1028,experiment,49,→,right,→,0.46770660002948716,True,28,1
160M25S2,1029,experiment,96,→,right,→,0.45676969998748973,True,28,1
160M25S2,1030,experiment,61,↑,up,↑,0.673514099966269,True,28,1
160M25S2,1031,experiment,48,→,right,→,0.5023317000013776,True,28,1
160M25S2,1032,experiment,98,←,left,←,0.657323700026609,True,28,1
160M25S2,1033,experiment,52,↑,up,↑,0.6861491000163369,True,28,1
160M25S2,1034,experiment,95,←,left,←,0.6424236999591812,True,28,1
160M25S2,1035,experiment,105,↑,up,↑,0.7172917000134476,True,28,1
160M25S2,1036,experiment,59,↑,up,↑,0.660884500015527,True,28,1
160M25S2,1037,experiment,53,↑,up,↑,0.4642885000212118,True,28,1
160M25S2,1038,experiment,103,↓,down,↓,0.6030268999747932,True,28,1
160M25S2,1039,experiment,78,→,right,→,0.6966971999499947,True,28,1
160M25S2,1040,experiment,64,←,left,←,0.5671625999966636,True,28,1
160M25S2,1041,experiment,83,→,right,→,0.4447550000040792,True,28,1
160M25S2,1042,experiment,89,←,left,←,0.4608904999913648,True,28,1
160M25S2,1043,experiment,58,↓,down,↓,0.799073199974373,True,28,1
160M25S2,1044,experiment,94,→,right,→,0.5513275000266731,True,28,1
160M25S2,1045,experiment,71,←,left,←,0.4416194999939762,True,28,1
160M25S2,1046,experiment,65,↓,down,↓,0.6418761999811977,True,28,1
160M25S2,1047,experiment,56,←,left,←,0.4293815999990329,True,28,1
160M25S2,1048,experiment,107,→,right,→,0.6322746999794617,True,28,1
160M25S2,1049,training,49,↑,up,↑,0.6339268999872729,True,28,0
160M25S2,1050,training,57,→,right,→,0.5652746999985538,True,28,1
160M25S2,1051,experiment,56,→,right,→,0.5476740999729373,True,28,1
160M25S2,1052,experiment,66,→,right,→,0.42363530001603067,True,28,1
160M25S2,1053,experiment,58,↓,down,↓,0.4910717000020668,True,28,1
160M25S2,1054,experiment,106,←,left,←,0.5719450999749824,True,28,1
160M25S2,1055,experiment,64,↑,up,↑,0.4316419999813661,True,28,1
160M25S2,1056,experiment,98,↑,up,↑,0.6689349999651313,True,28,1
160M25S2,1057,experiment,53,←,left,←,0.5925815000082366,True,28,1
160M25S2,1058,experiment,88,←,left,←,0.4191594999865629,True,28,1
160M25S2,1059,experiment,67,←,left,←,0.6356902000261471,True,28,1
160M25S2,1060,experiment,90,→,right,→,0.5640437999973074,True,28,1
160M25S2,1061,experiment,52,↓,down,↓,0.6677933000028133,True,28,1
160M25S2,1062,experiment,108,↓,down,↓,0.604826700000558,True,28,1
160M25S2,1063,experiment,101,↓,down,↓,0.48275859997374937,True,28,1
160M25S2,1064,experiment,63,←,left,←,0.6102308999979869,True,28,1
160M25S2,1065,experiment,85,→,right,→,0.6052821999765001,True,28,1
160M25S2,1066,experiment,51,→,right,→,0.42781649995595217,True,28,1
160M25S2,1067,experiment,84,←,left,←,0.654380600026343,True,28,1
160M25S2,1068,experiment,76,↑,up,↑,0.6742076000082307,True,28,1
160M25S2,1069,experiment,102,↓,down,↓,0.597272899991367,True,28,1
160M25S2,1070,experiment,61,↓,down,↓,0.47227259998908266,True,28,1
160M25S2,1071,experiment,79,←,left,←,0.5066891000024043,True,28,1
160M25S2,1072,experiment,48,→,right,→,0.6861660000286065,True,28,1
160M25S2,1073,experiment,80,→,right,→,0.4481472999905236,True,28,1
160M25S2,1074,experiment,104,↑,up,↑,0.48278969997772947,True,28,1
160M25S2,1075,experiment,60,↑,up,↑,0.45934639999177307,True,28,1
160M25S2,1076,experiment,91,↑,up,↑,0.690372200042475,True,28,1
160M25S2,1077,experiment,95,↓,down,↓,0.48676489997887984,True,28,1
160M25S2,1078,experiment,81,→,right,→,0.6641433000331745,True,28,1
160M25S2,1079,experiment,72,←,left,←,0.5896034000325017,True,28,1
160M25S2,1080,experiment,105,←,left,←,0.46626869996543974,True,28,1
160M25S2,1081,experiment,82,←,left,←,0.4679536000476219,True,28,1
160M25S2,1082,experiment,103,←,left,←,0.678795000014361,True,28,1
160M25S2,1083,experiment,99,←,left,←,0.5383359999977984,True,28,1
160M25S2,1084,experiment,94,←,left,←,0.4374262999626808,True,28,1
160M25S2,1085,experiment,70,↓,down,↓,0.6922588999732397,True,28,1
160M25S2,1086,experiment,54,↑,up,↑,0.6783093999838457,True,28,1
160M25S2,1087,experiment,73,→,left,←,0.826656199991703,False,28,1
160M25S2,1088,experiment,107,←,left,←,0.5978076999890618,True,28,1
160M25S2,1089,experiment,93,←,left,←,0.4464453000109643,True,28,1
160M25S2,1090,experiment,74,→,right,→,0.6597689999616705,True,28,1
160M25S2,1091,experiment,83,→,right,→,0.5731499000103213,True,28,1
160M25S2,1092,experiment,68,→,right,→,0.6711930999881588,True,28,1
160M25S2,1093,experiment,55,↑,up,↑,0.633906000002753,True,28,1
160M25S2,1094,experiment,50,←,left,←,0.6554146000416949,True,28,1
160M25S2,1095,experiment,86,↑,up,↑,0.48826830001780763,True,28,1
160M25S2,1096,experiment,69,←,left,←,0.4852874000207521,True,28,1
160M25S2,1097,experiment,92,→,right,→,0.6989854999701492,True,28,1
160M25S2,1098,experiment,97,↓,down,↓,0.5107000999851152,True,28,1
160M25S2,1099,experiment,65,↑,up,↑,0.6200682999915443,True,28,1
160M25S2,1100,experiment,59,↑,up,↑,0.5037121999775991,True,28,1
160M25S2,1101,experiment,62,↓,down,↓,0.6705072000040673,True,28,1
160M25S2,1102,experiment,49,↑,up,↑,0.5071077999891713,True,28,1
160M25S2,1103,experiment,89,↑,up,↑,0.5126359999994747,True,28,1
160M25S2,1104,experiment,96,←,left,←,0.6841395000228658,True,28,1
160M25S2,1105,experiment,87,↑,up,↑,0.52312189998338,True,28,1
160M25S2,1106,experiment,100,→,right,→,0.612407400039956,True,28,1
160M25S2,1107,experiment,78,←,left,←,0.5135608999989927,True,28,1
160M25S2,1108,experiment,75,↑,up,↑,0.48377230000915006,True,28,1
160M25S2,1109,experiment,77,←,left,←,0.6143187999841757,True,28,1
160M25S2,1110,experiment,71,↓,down,↓,0.5099205000442453,True,28,1
160M25S2,1111,experiment,57,→,right,→,0.5822582999826409,True,28,1
160M25S2,1112,training,90,→,right,→,0.441405100049451,True,28,0
160M25S2,1113,training,107,←,left,←,0.4516911000246182,True,28,1
160M25S2,1114,experiment,57,←,left,←,0.758554500003811,True,28,1
160M25S2,1115,experiment,55,↑,up,↑,0.46159540000371635,True,28,1
160M25S2,1116,experiment,97,↑,up,↑,0.4666252000024542,True,28,1
160M25S2,1117,experiment,64,→,right,→,0.41884350002510473,True,28,1
160M25S2,1118,experiment,88,→,right,→,0.48443569999653846,True,28,1
160M25S2,1119,experiment,84,↓,down,↓,0.4925080999964848,True,28,1
160M25S2,1120,experiment,102,↓,down,↓,0.49489239999093115,True,28,1
160M25S2,1121,experiment,105,→,right,→,0.5676958999829367,True,28,1
160M25S2,1122,experiment,92,↓,down,↓,0.4741706000058912,True,28,1
160M25S2,1123,experiment,85,→,right,→,0.5544748000102118,True,28,1
160M25S2,1124,experiment,82,←,left,←,0.48045360000105575,True,28,1
160M25S2,1125,experiment,104,←,left,←,0.6823705999995582,True,28,1
160M25S2,1126,experiment,93,↑,up,↑,0.5357517000520602,True,28,1
160M25S2,1127,experiment,101,→,right,→,0.633187800005544,True,28,1
160M25S2,1128,experiment,96,→,right,→,0.7189203000161797,True,28,1
160M25S2,1129,experiment,73,↓,down,↓,0.7373446000274271,True,28,1
160M25S2,1130,experiment,106,←,left,←,0.5843735000235029,True,28,1
160M25S2,1131,experiment,60,←,left,←,0.4923831000342034,True,28,1
160M25S2,1132,experiment,75,→,right,→,0.7755245000007562,True,28,1
160M25S2,1133,experiment,68,→,right,→,0.681424199952744,True,28,1
160M25S2,1134,experiment,108,↓,down,↓,0.4740491000120528,True,28,1
160M25S2,1135,experiment,83,→,right,→,0.4509657000307925,True,28,1
160M25S2,1136,experiment,86,↑,up,↑,0.692078499996569,True,28,1
160M25S2,1137,experiment,65,→,right,→,0.6103789000189863,True,28,1
160M25S2,1138,experiment,95,↓,down,↓,0.5301461999770254,True,28,1
160M25S2,1139,experiment,63,→,right,→,0.4955208000028506,True,28,1
160M25S2,1140,experiment,66,↑,up,↑,0.5093631999916397,True,28,1
160M25S2,1141,experiment,94,↑,up,↑,0.481264200003352,True,28,1
160M25S2,1142,experiment,79,↓,down,↓,0.659499200002756,True,28,1
160M25S2,1143,experiment,89,↓,down,↓,0.6035222999635153,True,28,1
160M25S2,1144,experiment,52,←,left,←,0.5295532000018284,True,28,1
160M25S2,1145,experiment,53,↓,down,↓,0.5947143000084907,True,28,1
160M25S2,1146,experiment,107,←,left,←,0.45464369998080656,True,28,1
160M25S2,1147,experiment,48,←,left,←,0.4843893999932334,True,28,1
160M25S2,1148,experiment,80,←,left,←,0.6545248000184074,True,28,1
160M25S2,1149,experiment,91,↑,up,↑,0.6132976000080816,True,28,1
160M25S2,1150,experiment,76,←,left,←,0.675583700009156,True,28,1
160M25S2,1151,experiment,50,↓,down,↓,0.76702180004213,True,28,1
160M25S2,1152,experiment,58,↓,down,↓,0.6610449000145309,True,28,1
160M25S2,1153,experiment,98,↑,up,↑,0.6734954999992624,True,28,1
160M25S2,1154,experiment,56,↑,up,↑,0.6515797000029124,True,28,1
160M25S2,1155,experiment,81,↑,up,↑,0.7184382000123151,True,28,1
160M25S2,1156,experiment,72,↓,down,↓,0.47352800000226125,True,28,1
160M25S2,1157,experiment,59,←,left,←,0.5063871999736875,True,28,1
160M25S2,1158,experiment,67,↑,up,↑,0.6715971999801695,True,28,1
160M25S2,1159,experiment,77,↑,up,↑,0.47449110000161454,True,28,1
160M25S2,1160,experiment,71,↑,up,↑,0.6478116000071168,True,28,1
160M25S2,1161,experiment,99,→,right,→,0.6364283000002615,True,28,1
160M25S2,1162,experiment,90,↑,up,↑,0.5090567999868654,True,28,1
160M25S2,1163,experiment,70,↓,down,↓,0.5206432999693789,True,28,1
160M25S2,1164,experiment,49,↑,up,↑,0.5152599000139162,True,28,1
160M25S2,1165,experiment,87,←,left,←,0.6975261000334285,True,28,1
160M25S2,1166,experiment,74,←,left,←,0.5245658999774605,True,28,1
160M25S2,1167,experiment,100,→,right,→,0.6059949999907985,True,28,1
160M25S2,1168,experiment,69,↑,up,↑,0.6381031000055373,True,28,1
160M25S2,1169,experiment,78,↑,up,↑,0.4666960000176914,True,28,1
160M25S2,1170,experiment,62,↓,down,↓,0.5071069999830797,True,28,1
160M25S2,1171,experiment,103,↓,down,↓,0.48393460002262145,True,28,1
160M25S2,1172,experiment,51,↑,up,↑,0.7433113000006415,True,28,1
160M25S2,1173,experiment,61,→,right,→,0.6052063999813981,True,28,1
160M25S2,1174,experiment,54,↓,down,↓,0.48276440001791343,True,28,1
160M25S2,1175,training,78,↑,up,↑,0.5229106999468058,True,28,0
160M25S2,1176,training,67,↑,up,↑,0.4794304000097327,True,28,1
160M25S2,1177,experiment,57,↓,down,↓,0.48088680004002526,True,28,1
160M25S2,1178,experiment,101,↓,down,↓,0.6355941999936476,True,28,1
160M25S2,1179,experiment,54,←,left,←,0.44004100002348423,True,28,1
160M25S2,1180,experiment,98,→,right,→,0.6696579999988899,True,28,1
160M25S2,1181,experiment,61,←,left,←,0.4378976000007242,True,28,1
160M25S2,1182,experiment,105,↑,up,↑,0.4729901000391692,True,28,1
160M25S2,1183,experiment,104,←,left,←,0.41940559999784455,True,28,1
160M25S2,1184,experiment,73,→,right,→,0.6015764999901876,True,28,1
160M25S2,1185,experiment,63,↓,down,↓,0.4842286999919452,True,28,1
160M25S2,1186,experiment,80,↑,up,↑,0.6222232000436634,True,28,1
160M25S2,1187,experiment,76,→,right,→,0.45136809995165095,True,28,1
160M25S2,1188,experiment,94,↑,up,↑,0.4660960999899544,True,28,1
160M25S2,1189,experiment,74,→,right,→,0.46218299999600276,True,28,1
160M25S2,1190,experiment,88,→,right,→,0.40699659998063,True,28,1
160M25S2,1191,experiment,91,→,right,→,0.6393090000492521,True,28,0
160M25S2,1192,experiment,62,→,right,→,0.41704490000847727,True,28,1
160M25S2,1193,experiment,95,→,right,→,0.4402725000400096,True,28,1
160M25S2,1194,experiment,70,↑,up,↑,0.5271787000237964,True,28,1
160M25S2,1195,experiment,85,→,right,→,0.4294606000185013,True,28,1
160M25S2,1196,experiment,66,←,left,←,0.5182203999720514,True,28,1
160M25S2,1197,experiment,106,↓,down,↓,0.6934706000029109,True,28,1
160M25S2,1198,experiment,99,↓,down,↓,0.6084350000019185,True,28,1
160M25S2,1199,experiment,84,↑,up,↑,0.6919122000108473,True,28,1
160M25S2,1200,experiment,86,←,left,←,0.491234099958092,True,28,1
160M25S2,1201,experiment,108,←,left,←,0.6033534000162035,True,28,1
160M25S2,1202,experiment,93,↑,up,↑,0.492000000027474,True,28,1
160M25S2,1203,experiment,49,→,right,→,0.7837654000031762,True,28,1
160M25S2,1204,experiment,68,←,left,←,0.4735412999871187,True,28,1
160M25S2,1205,experiment,90,←,left,←,0.4004259000066668,True,28,1
160M25S2,1206,experiment,75,←,left,←,0.5108060000347905,True,28,0
160M25S2,1207,experiment,79,↓,down,↓,0.6479326999979094,True,28,1
160M25S2,1208,experiment,87,→,right,→,0.47231270000338554,True,28,1
160M25S2,1209,experiment,81,←,left,←,0.44216750003397465,True,28,1
160M25S2,1210,experiment,69,↑,up,↑,0.6735942999948747,True,28,1
160M25S2,1211,experiment,83,←,left,←,0.47419420001097023,True,28,1
160M25S2,1212,experiment,89,↓,down,↓,0.48919589997967705,True,28,1
160M25S2,1213,experiment,100,→,right,→,0.49193259997991845,True,28,1
160M25S2,1214,experiment,65,↑,up,↑,0.5063745999941602,True,28,1
160M25S2,1215,experiment,78,←,left,←,0.4757529000053182,True,28,1
160M25S2,1216,experiment,50,↓,down,↓,0.5600864000152797,True,28,1
160M25S2,1217,experiment,71,←,left,←,0.769749499973841,True,28,1
160M25S2,1218,experiment,53,↓,down,↓,0.5930740999756381,True,28,1
160M25S2,1219,experiment,72,→,right,→,0.5455124999862164,True,28,1
160M25S2,1220,experiment,58,↓,down,↓,0.5282631000154652,True,28,1
160M25S2,1221,experiment,59,↓,down,↓,0.647023800003808,True,28,1
160M25S2,1222,experiment,96,←,left,←,0.5727083999663591,True,28,1
160M25S2,1223,experiment,103,↑,up,↑,0.6830626999726519,True,28,1
160M25S2,1224,experiment,48,→,right,→,0.49544690002221614,True,28,1
160M25S2,1225,experiment,97,←,left,←,0.49087599996710196,True,28,1
160M25S2,1226,experiment,107,↑,up,↑,0.715271599998232,True,28,1
160M25S2,1227,experiment,64,←,left,←,0.664981700014323,True,28,1
160M25S2,1228,experiment,51,↑,up,↑,0.6130947000347078,True,28,1
160M25S2,1229,experiment,102,↑,up,↑,0.4582867000135593,True,28,1
160M25S2,1230,experiment,52,→,right,→,0.7502292999997735,True,28,1
160M25S2,1231,experiment,55,→,right,→,0.4376722000306472,True,28,1
160M25S2,1232,experiment,56,↓,down,↓,0.5289971000165679,True,28,1
160M25S2,1233,experiment,92,↑,up,↑,0.613110999984201,True,28,1
160M25S2,1234,experiment,60,↑,up,↑,0.6641426999703981,True,28,1
160M25S2,1235,experiment,82,→,right,→,0.6342004000325687,True,28,1
160M25S2,1236,experiment,77,←,left,←,0.4467176999896765,True,28,1
160M25S2,1237,experiment,67,↓,down,↓,0.5021483000018634,True,28,1
160M25S2,1238,training,101,↓,down,↓,0.6090929000056349,True,28,0
160M25S2,1239,training,71,↓,down,↓,0.47287820000201464,True,28,1
160M25S2,1240,experiment,61,↑,up,↑,0.49749809998320416,True,28,1
160M25S2,1241,experiment,105,→,right,→,0.4578313000383787,True,28,1
160M25S2,1242,experiment,60,→,left,←,0.6836098000057973,False,28,1
160M25S2,1243,experiment,82,→,right,→,0.4205482000252232,True,28,1
160M25S2,1244,experiment,101,→,right,→,0.46581520000472665,True,28,1
160M25S2,1245,experiment,83,↑,up,↑,0.6434054999845102,True,28,1
160M25S2,1246,experiment,90,↓,down,↓,0.6515050000161864,True,28,1
160M25S2,1247,experiment,76,←,left,←,0.447831200028304,True,28,1
160M25S2,1248,experiment,97,→,right,→,0.5330106999608688,True,28,1
160M25S2,1249,experiment,98,↑,up,↑,0.4708651999826543,True,28,1
160M25S2,1250,experiment,69,↓,down,↓,0.5564339999691583,True,28,1
160M25S2,1251,experiment,92,↑,up,↑,0.4470763999852352,True,28,1
160M25S2,1252,experiment,63,↓,left,←,0.8159918999881484,False,28,1
160M25S2,1253,experiment,108,↓,down,↓,0.4829535000026226,True,28,1
160M25S2,1254,experiment,88,→,right,→,0.4659152000094764,True,28,1
160M25S2,1255,experiment,87,↑,up,↑,0.46632780000800267,True,28,1
160M25S2,1256,experiment,107,←,left,←,0.6195200000074692,True,28,1
160M25S2,1257,experiment,96,←,left,←,0.5865788999944925,True,28,1
160M25S2,1258,experiment,50,←,left,←,0.5541591999935918,True,28,1
160M25S2,1259,experiment,72,→,right,→,0.7479501000489108,True,28,1
160M25S2,1260,experiment,99,←,left,←,0.4201990999863483,True,28,1
160M25S2,1261,experiment,103,→,right,→,0.6810009999899194,True,28,1
160M25S2,1262,experiment,65,→,right,→,0.5758692999952473,True,28,1
160M25S2,1263,experiment,64,←,left,←,0.4671387999551371,True,28,1
160M25S2,1264,experiment,71,↑,up,↑,0.616755299968645,True,28,1
160M25S2,1265,experiment,66,↑,up,↑,0.5063347999821417,True,28,1
160M25S2,1266,experiment,57,→,up,↑,0.6581363000441343,False,28,1
160M25S2,1267,experiment,106,↓,down,↓,0.4841869999654591,True,28,1
160M25S2,1268,experiment,79,↑,up,↑,0.5021063999738544,True,28,1
160M25S2,1269,experiment,59,←,left,←,0.6226525999954902,True,28,1
160M25S2,1270,experiment,80,↑,up,↑,0.5546774999820627,True,28,1
160M25S2,1271,experiment,49,↓,down,↓,0.5153525000205263,True,28,1
160M25S2,1272,experiment,81,←,left,←,0.5634982000337914,True,28,1
160M25S2,1273,experiment,73,←,left,←,0.4684230000129901,True,28,1
160M25S2,1274,experiment,51,↑,up,↑,0.4883119000005536,True,28,1
160M25S2,1275,experiment,67,→,right,→,0.46204780001426116,True,28,1
160M25S2,1276,experiment,95,↑,up,↑,0.5875250999815762,True,28,1
160M25S2,1277,experiment,102,↓,down,↓,0.9375077000004239,True,28,1
160M25S2,1278,experiment,77,↓,down,↓,0.5944990999996662,True,28,1
160M25S2,1279,experiment,52,↓,down,↓,0.4729430999723263,True,28,1
160M25S2,1280,experiment,75,↑,up,↑,0.6207774000358768,True,28,1
160M25S2,1281,experiment,55,←,left,←,0.44909270002972335,True,28,1
160M25S2,1282,experiment,93,→,right,→,0.47982690000208095,True,28,1
160M25S2,1283,experiment,56,←,left,←,0.46566560002975166,True,28,1
160M25S2,1284,experiment,53,↓,down,↓,0.6531184999621473,True,28,1
160M25S2,1285,experiment,78,↓,down,↓,0.47276350000174716,True,28,1
160M25S2,1286,experiment,94,←,left,←,0.6621842999593355,True,28,1
160M25S2,1287,experiment,58,↓,down,↓,0.5678853000281379,True,28,1
160M25S2,1288,experiment,104,←,left,←,0.6144056000048295,True,28,1
160M25S2,1289,experiment,85,←,left,←,0.4732615000102669,True,28,1
160M25S2,1290,experiment,54,←,left,←,0.4124587000114843,True,28,1
160M25S2,1291,experiment,70,→,right,→,0.6273431000299752,True,28,1
160M25S2,1292,experiment,74,↓,down,↓,0.6252335999743082,True,28,1
160M25S2,1293,experiment,89,↑,up,↑,0.47426490002544597,True,28,1
160M25S2,1294,experiment,100,←,left,←,0.613946900004521,True,28,1
160M25S2,1295,experiment,48,→,right,→,0.4847622000379488,True,28,1
160M25S2,1296,experiment,84,→,right,→,0.661273000005167,True,28,1
160M25S2,1297,experiment,91,→,right,→,0.45247530000051484,True,28,1
160M25S2,1298,experiment,68,←,left,←,0.5873522999463603,True,28,1
160M25S2,1299,experiment,62,←,left,←,0.4399621000047773,True,28,1
160M25S2,1300,experiment,86,↓,down,↓,0.5044551999890245,True,28,1
160M25S2,1301,training,88,←,left,←,0.41271790000610054,True,28,0
160M25S2,1302,training,70,↑,up,↑,0.4759040999924764,True,28,1
160M25S2,1303,experiment,102,→,right,→,0.4228344000293873,True,28,1
160M25S2,1304,experiment,61,→,right,→,0.5852395999827422,True,28,1
160M25S2,1305,experiment,98,←,left,←,0.5771552000078373,True,28,1
160M25S2,1306,experiment,70,→,right,→,0.5785005000070669,True,28,1
160M25S2,1307,experiment,81,↓,down,↓,0.49599709996255115,True,28,1
160M25S2,1308,experiment,66,←,left,←,0.6217813999974169,True,28,1
160M25S2,1309,experiment,49,→,right,→,0.45215129997814074,True,28,1
160M25S2,1310,experiment,108,↓,down,↓,0.6301678000018001,True,28,1
160M25S2,1311,experiment,67,↓,down,↓,0.4785690000280738,True,28,1
160M25S2,1312,experiment,65,←,left,←,0.6697322000400163,True,28,1
160M25S2,1313,experiment,80,↑,up,↑,0.47210050001740456,True,28,1
160M25S2,1314,experiment,106,↑,up,↑,0.7458319999859668,True,28,1
160M25S2,1315,experiment,71,↓,down,↓,0.5638749999925494,True,28,1
160M25S2,1316,experiment,105,↓,down,↓,0.4899953000131063,True,28,1
160M25S2,1317,experiment,52,↓,down,↓,0.5322971999994479,True,28,1
160M25S2,1318,experiment,89,→,right,→,0.6571440999978222,True,28,1
160M25S2,1319,experiment,90,→,right,→,0.46470319997752085,True,28,1
160M25S2,1320,experiment,56,↑,up,↑,0.6268640999915078,True,28,1
160M25S2,1321,experiment,99,←,left,←,0.6566260999534279,True,28,1
160M25S2,1322,experiment,50,←,left,←,0.45339889999013394,True,28,1
160M25S2,1323,experiment,104,↓,down,↓,0.5524211000301875,True,28,1
160M25S2,1324,experiment,57,→,right,→,0.6712246999959461,True,28,1
160M25S2,1325,experiment,74,←,left,←,0.4353621000191197,True,28,1
160M25S2,1326,experiment,97,←,left,←,0.4252268999698572,True,28,1
160M25S2,1327,experiment,64,→,right,→,0.7066562999971211,True,28,1
160M25S2,1328,experiment,77,↑,up,↑,0.6287276999792084,True,28,1
160M25S2,1329,experiment,62,→,right,→,0.6066034999676049,True,28,1
160M25S2,1330,experiment,76,→,right,→,0.6045025000348687,True,28,1
160M25S2,1331,experiment,100,←,left,←,0.4427375000086613,True,28,1
160M25S2,1332,experiment,88,→,right,→,0.43534500000532717,True,28,1
160M25S2,1333,experiment,75,→,right,→,0.5847568000317551,True,28,1
160M25S2,1334,experiment,51,↓,down,↓,0.5121265000198036,True,28,1
160M25S2,1335,experiment,54,↑,up,↑,0.4731991000007838,True,28,1
160M25S2,1336,experiment,94,↓,down,↓,0.622623500006739,True,28,1
160M25S2,1337,experiment,73,→,right,→,0.4770192999858409,True,28,1
160M25S2,1338,experiment,53,↓,down,↓,0.5041145999566652,True,28,1
160M25S2,1339,experiment,69,↓,down,↓,0.5971493000397459,True,28,1
160M25S2,1340,experiment,48,←,left,←,0.6292776999762282,True,28,1
160M25S2,1341,experiment,93,↑,up,↑,0.6520091000129469,True,28,1
160M25S2,1342,experiment,68,↓,down,↓,0.47521090001100674,True,28,1
160M25S2,1343,experiment,91,←,left,←,0.48167309997370467,True,28,1
160M25S2,1344,experiment,82,↓,down,↓,0.5145635000080802,True,28,1
160M25S2,1345,experiment,55,↓,down,↓,0.5155852999887429,True,28,1
160M25S2,1346,experiment,72,↓,down,↓,0.5988160999841057,True,28,1
160M25S2,1347,experiment,86,→,right,→,0.5618261999916285,True,28,1
160M25S2,1348,experiment,79,→,right,→,0.5685691999970004,True,28,1
160M25S2,1349,experiment,58,↓,down,↓,0.502546000003349,True,28,1
160M25S2,1350,experiment,92,→,right,→,0.6353822000091895,True,28,1
160M25S2,1351,experiment,101,↓,down,↓,0.4961100000073202,True,28,1
160M25S2,1352,experiment,60,←,left,←,0.5038246999611147,True,28,1
160M25S2,1353,experiment,87,→,right,→,0.5102560999803245,True,28,1
160M25S2,1354,experiment,107,→,left,←,0.8059282000176609,False,28,1
160M25S2,1355,experiment,83,←,left,←,0.46546310000121593,True,28,1
160M25S2,1356,experiment,84,↓,down,↓,0.7068325000000186,True,28,1
160M25S2,1357,experiment,85,↓,down,↓,0.6425395999685861,True,28,1
160M25S2,1358,experiment,63,↑,up,↑,0.507084799988661,True,28,1
160M25S2,1359,experiment,59,→,right,→,0.6503135000239126,True,28,1
160M25S2,1360,experiment,95,→,right,→,0.48904370004311204,True,28,1
160M25S2,1361,experiment,96,→,right,→,0.6129695999552496,True,28,1
160M25S2,1362,experiment,103,↓,down,↓,0.5455852000159211,True,28,1
160M25S2,1363,experiment,78,→,right,→,0.585566799971275,True,28,1
