PART_ID,Trial_no,Trial_type,CSI,Stim_letter,Key_pressed,letter_choose,Rt,Corr,Stimulus Time,nDropped
161M19S2,1,training,120,↑,up,↑,0.8938118999940343,True,60,1
161M19S2,2,training,120,→,right,→,0.8732143999659456,True,60,0
161M19S2,3,training,120,←,left,←,0.965132099983748,True,60,0
161M19S2,4,training,120,→,right,→,1.0215408999938518,True,60,0
161M19S2,5,training,120,↓,down,↓,0.8276590000023134,True,60,0
161M19S2,6,training,120,←,left,←,0.9215344000258483,True,60,0
161M19S2,7,training,120,→,right,→,0.9076329999952577,True,60,0
161M19S2,8,training,120,↑,up,↑,0.9423801000230014,True,60,0
161M19S2,9,training,120,→,right,→,1.0558996999752708,True,60,0
161M19S2,10,training,120,↓,down,↓,0.980803000042215,True,60,0
161M19S2,11,training,120,↓,down,↓,1.0607632999890484,True,60,0
161M19S2,12,training,120,↓,down,↓,1.0170789000112563,True,60,0
161M19S2,13,training,120,↓,down,↓,0.8633235999732278,True,60,0
161M19S2,14,training,120,←,left,←,0.8679460999555886,True,60,0
161M19S2,15,training,120,←,left,←,0.9520837999880314,True,60,0
161M19S2,16,training,120,↑,up,↑,0.9368934000376612,True,60,0
161M19S2,17,training,120,↑,up,↑,0.9383615999831818,True,60,0
161M19S2,18,training,120,→,right,→,0.8677508999826387,True,60,0
161M19S2,19,training,120,←,left,←,0.9125630999915302,True,60,0
161M19S2,20,training,120,↓,down,↓,0.9467381999711506,True,60,0
161M19S2,21,no_adaptation,120,↑,up,↑,0.7075927000259981,True,36,0
161M19S2,22,no_adaptation,120,↓,down,↓,0.6464599000173621,True,36,0
161M19S2,23,no_adaptation,120,→,right,→,0.7718514000298455,True,36,0
161M19S2,24,no_adaptation,120,→,right,→,0.7318670999957249,True,36,0
161M19S2,25,no_adaptation,120,→,right,→,0.6696946999873035,True,36,0
161M19S2,26,no_adaptation,120,↑,up,↑,0.7696524999919347,True,36,0
161M19S2,27,no_adaptation,120,↑,up,↑,0.7459657000144944,True,36,0
161M19S2,28,no_adaptation,120,←,left,←,0.691420899995137,True,36,0
161M19S2,29,no_adaptation,120,↑,up,↑,0.6710228000301868,True,36,0
161M19S2,30,no_adaptation,120,↓,down,↓,0.6348151999991387,True,36,0
161M19S2,31,no_adaptation,120,←,left,←,0.6408382000518031,True,36,0
161M19S2,32,no_adaptation,120,↑,up,↑,0.7181029999628663,True,36,0
161M19S2,33,no_adaptation,120,↑,up,↑,1.0803833999671042,True,36,0
161M19S2,34,no_adaptation,120,←,left,←,0.6201623000088148,True,36,0
161M19S2,35,no_adaptation,120,→,right,→,0.6824241000576876,True,36,0
161M19S2,36,no_adaptation,120,↑,up,↑,0.7422537000384182,True,36,0
161M19S2,37,no_adaptation,120,→,right,→,0.7357034999877214,True,36,0
161M19S2,38,no_adaptation,120,→,right,→,0.7451343999709934,True,36,0
161M19S2,39,no_adaptation,120,→,right,→,0.610585699963849,True,36,0
161M19S2,40,no_adaptation,120,←,left,←,0.6411545000155456,True,36,0
161M19S2,41,training,82,↑,up,↑,0.6970696999924257,True,36,0
161M19S2,42,training,108,←,left,←,0.5604542999644764,True,36,1
161M19S2,43,experiment,95,←,left,←,0.6502467999816872,True,36,1
161M19S2,44,experiment,78,←,left,←,0.6941732999985106,True,36,1
161M19S2,45,experiment,48,↑,up,↑,0.6982760000391863,True,36,1
161M19S2,46,experiment,98,↑,up,↑,0.6210782999987714,True,36,1
161M19S2,47,experiment,68,→,right,→,0.6613382000359707,True,36,1
161M19S2,48,experiment,107,↑,up,↑,0.6631340000312775,True,36,1
161M19S2,49,experiment,87,→,right,→,0.6468014999991283,True,36,1
161M19S2,50,experiment,60,↓,down,↓,0.7046143999905325,True,36,1
161M19S2,51,experiment,81,↓,down,↓,0.6572764000156894,True,36,1
161M19S2,52,experiment,80,↑,up,↑,0.7080522999749519,True,36,1
161M19S2,53,experiment,72,↑,up,↑,0.671690099989064,True,36,1
161M19S2,54,experiment,83,↑,up,↑,0.5926826999639161,True,36,1
161M19S2,55,experiment,105,↓,down,↓,0.5981498999753967,True,36,1
161M19S2,56,experiment,100,←,left,←,0.5484731000033207,True,36,1
161M19S2,57,experiment,75,←,left,←,0.6450437000021338,True,36,1
161M19S2,58,experiment,90,↑,up,↑,0.6129608999472111,True,36,1
161M19S2,59,experiment,94,↓,down,↓,0.6128086000098847,True,36,1
161M19S2,60,experiment,103,↓,down,↓,0.49756170000182465,True,36,1
161M19S2,61,experiment,84,←,left,←,0.5772743999841623,True,36,1
161M19S2,62,experiment,97,←,left,←,0.5297041000449099,True,36,1
161M19S2,63,experiment,63,→,right,→,0.5592788999783807,True,36,1
161M19S2,64,experiment,56,↓,down,↓,0.6382684999844059,True,36,1
161M19S2,65,experiment,77,→,right,→,0.5782763999886811,True,36,1
161M19S2,66,experiment,108,↑,up,↑,0.7110111000365578,True,36,1
161M19S2,67,experiment,50,↑,up,↑,0.8417503999662586,True,36,1
161M19S2,68,experiment,55,↓,down,↓,0.6774470999953337,True,36,1
161M19S2,69,experiment,101,→,right,→,0.9607669999822974,True,36,1
161M19S2,70,experiment,62,↓,down,↓,0.6371613999945112,True,36,1
161M19S2,71,experiment,65,←,left,←,0.5497941999929026,True,36,1
161M19S2,72,experiment,74,↑,up,↑,0.7346976999542676,True,36,1
161M19S2,73,experiment,91,↓,down,↓,0.5866960000130348,True,36,1
161M19S2,74,experiment,70,↓,down,↓,0.6999626000178978,True,36,1
161M19S2,75,experiment,86,↑,up,↑,0.7627257999847643,True,36,1
161M19S2,76,experiment,64,↑,up,↑,0.8709687000373378,True,36,1
161M19S2,77,experiment,61,→,right,→,0.6633716999785975,True,36,1
161M19S2,78,experiment,58,↑,up,↑,0.6809701999882236,True,36,1
161M19S2,79,experiment,82,←,left,←,0.7540128000546247,True,36,1
161M19S2,80,experiment,67,→,right,→,0.773083999985829,True,36,1
161M19S2,81,experiment,93,→,right,→,0.6711882000090554,True,36,1
161M19S2,82,experiment,99,↑,up,↑,0.8584205999504775,True,36,1
161M19S2,83,experiment,53,←,left,←,0.7180919999955222,True,36,1
161M19S2,84,experiment,54,↓,down,↓,0.6552264000056311,True,36,1
161M19S2,85,experiment,69,→,left,←,0.7975168999982998,False,36,1
161M19S2,86,experiment,73,←,left,←,0.6853002000134438,True,36,1
161M19S2,87,experiment,102,→,right,→,0.7353460000013001,True,36,1
161M19S2,88,experiment,85,↓,down,↓,0.6372598999878392,True,36,1
161M19S2,89,experiment,104,↓,down,↓,0.664981700014323,True,36,1
161M19S2,90,experiment,51,↓,down,↓,0.6534405000275001,True,36,1
161M19S2,91,experiment,57,↓,down,↓,0.6158930999808945,True,36,1
161M19S2,92,experiment,96,←,left,←,0.7432412999914959,True,36,1
161M19S2,93,experiment,89,↓,down,↓,0.6272724999580532,True,36,1
161M19S2,94,experiment,76,←,left,←,0.6889575999812223,True,36,1
161M19S2,95,experiment,52,↑,up,↑,0.7473607999854721,True,36,1
161M19S2,96,experiment,59,→,right,→,0.6736697999876924,True,36,1
161M19S2,97,experiment,106,↓,down,↓,0.6268005999736488,True,36,1
161M19S2,98,experiment,49,←,left,←,0.7452631999622099,True,36,1
161M19S2,99,experiment,66,↑,up,↑,0.6772307000355795,True,36,1
161M19S2,100,experiment,92,→,right,→,0.5872398000210524,True,36,1
161M19S2,101,experiment,71,↓,down,↓,0.5075839999481104,True,36,1
161M19S2,102,experiment,79,←,left,←,0.7808042000397108,True,36,1
161M19S2,103,experiment,88,→,right,→,0.7357637000386603,True,36,1
161M19S2,104,training,77,→,right,→,0.6769108999869786,True,35,0
161M19S2,105,training,72,→,right,→,0.56195810000645,True,35,1
161M19S2,106,experiment,106,↓,down,↓,0.6476178000448272,True,35,1
161M19S2,107,experiment,89,→,right,→,0.6234662000206299,True,35,1
161M19S2,108,experiment,67,→,right,→,0.5357403000234626,True,35,1
161M19S2,109,experiment,79,→,right,→,0.647973200015258,True,35,1
161M19S2,110,experiment,72,→,right,→,0.5176108000450768,True,35,1
161M19S2,111,experiment,55,↓,down,↓,0.6944557999959216,True,35,1
161M19S2,112,experiment,48,↓,down,↓,0.522456000035163,True,35,1
161M19S2,113,experiment,58,↓,down,↓,0.5938855999847874,True,35,1
161M19S2,114,experiment,52,↓,down,↓,0.5206260000122711,True,35,1
161M19S2,115,experiment,90,↓,down,↓,0.5337154999724589,True,35,1
161M19S2,116,experiment,49,↑,up,↑,0.6400709999725223,True,35,1
161M19S2,117,experiment,68,←,left,←,0.5913797999965027,True,35,1
161M19S2,118,experiment,99,↓,down,↓,0.790125600004103,True,35,1
161M19S2,119,experiment,56,↑,up,↑,0.6677002999931574,True,35,1
161M19S2,120,experiment,78,↑,up,↑,0.6867592000053264,True,35,1
161M19S2,121,experiment,98,↓,down,↓,0.7464222999988124,True,35,1
161M19S2,122,experiment,76,↓,down,↓,0.5150660999934189,True,35,1
161M19S2,123,experiment,64,←,left,←,0.5928083999897353,True,35,1
161M19S2,124,experiment,107,↑,up,↑,0.6774696999927983,True,35,1
161M19S2,125,experiment,83,←,left,←,0.6782613000250421,True,35,1
161M19S2,126,experiment,74,→,right,→,0.6262512000394054,True,35,1
161M19S2,127,experiment,96,↓,down,↓,0.6570053999894299,True,35,1
161M19S2,128,experiment,97,↓,down,↓,0.5820089000044391,True,35,1
161M19S2,129,experiment,54,←,left,←,0.6524657999980263,True,35,1
161M19S2,130,experiment,73,↑,up,↑,0.5542648999835365,True,35,1
161M19S2,131,experiment,69,←,left,←,0.6284430000232533,True,35,1
161M19S2,132,experiment,91,→,right,→,0.5086832999950275,True,35,1
161M19S2,133,experiment,88,→,right,→,0.6586703000357375,True,35,1
161M19S2,134,experiment,77,←,left,←,0.5263600000180304,True,35,1
161M19S2,135,experiment,65,→,right,→,0.6434601999935694,True,35,1
161M19S2,136,experiment,80,↑,up,↑,0.6708055000053719,True,35,1
161M19S2,137,experiment,50,→,right,→,0.7553448000107892,True,35,1
161M19S2,138,experiment,75,↓,down,↓,0.7473521999781951,True,35,1
161M19S2,139,experiment,94,→,right,→,0.693644699989818,True,35,1
161M19S2,140,experiment,105,↑,up,↑,0.6866584000526927,True,35,1
161M19S2,141,experiment,82,↓,down,↓,1.279695100034587,True,35,1
161M19S2,142,experiment,70,←,left,←,0.6050620999885723,True,35,1
161M19S2,143,experiment,60,→,right,→,0.6641800999641418,True,35,1
161M19S2,144,experiment,51,↓,down,↓,0.7322855000384152,True,35,1
161M19S2,145,experiment,104,↑,up,↑,0.8199570999713615,True,35,1
161M19S2,146,experiment,57,↓,down,↓,0.6559016000246629,True,35,1
161M19S2,147,experiment,71,→,right,→,0.6537178999860771,True,35,1
161M19S2,148,experiment,93,↑,up,↑,0.643990800017491,True,35,1
161M19S2,149,experiment,61,↑,up,↑,0.653715199965518,True,35,1
161M19S2,150,experiment,53,↑,up,↑,0.5699861999601126,True,35,1
161M19S2,151,experiment,81,↓,down,↓,0.6318874999997206,True,35,1
161M19S2,152,experiment,108,↓,down,↓,0.7063584999996237,True,35,1
161M19S2,153,experiment,95,←,left,←,0.7659323000116274,True,35,1
161M19S2,154,experiment,101,↓,down,↓,0.61323529999936,True,35,1
161M19S2,155,experiment,86,→,right,→,0.9037026999867521,True,35,1
161M19S2,156,experiment,92,←,left,←,0.6842871999833733,True,35,1
161M19S2,157,experiment,87,↓,down,↓,0.6517156999907456,True,35,1
161M19S2,158,experiment,84,↓,down,↓,0.5173837000038475,True,35,1
161M19S2,159,experiment,63,→,right,→,0.6680567000294104,True,35,1
161M19S2,160,experiment,66,↑,up,↑,0.6344952000072226,True,35,1
161M19S2,161,experiment,62,↑,up,↑,0.6922544999979436,True,35,1
161M19S2,162,experiment,59,→,right,→,0.6446451999945566,True,35,1
161M19S2,163,experiment,100,↑,up,↑,0.7297124000033364,True,35,1
161M19S2,164,experiment,85,→,right,→,0.6316272999974899,True,35,1
161M19S2,165,experiment,102,←,left,←,0.6680969999870285,True,35,1
161M19S2,166,experiment,103,↓,down,↓,0.8227296999539249,True,35,1
161M19S2,167,training,51,↑,up,↑,0.6459996000048704,True,34,0
161M19S2,168,training,48,↓,down,↓,0.6443947000079788,True,34,1
161M19S2,169,experiment,96,↑,up,↑,0.6017424000310712,True,34,1
161M19S2,170,experiment,51,↓,down,↓,0.5845055999816395,True,34,1
161M19S2,171,experiment,71,↓,down,↓,0.5855341999558732,True,34,1
161M19S2,172,experiment,90,↓,down,↓,0.5238076000241563,True,34,1
161M19S2,173,experiment,100,←,left,←,0.5409863000386395,True,34,1
161M19S2,174,experiment,49,→,right,→,0.5747070999932475,True,34,1
161M19S2,175,experiment,101,↓,down,↓,0.5819269999628887,True,34,1
161M19S2,176,experiment,105,→,right,→,0.6033690999611281,True,34,1
161M19S2,177,experiment,75,↑,up,↑,0.6581723999697715,True,34,1
161M19S2,178,experiment,76,←,left,←,0.5901675000204705,True,34,1
161M19S2,179,experiment,91,←,left,←,0.783684300025925,True,34,1
161M19S2,180,experiment,77,←,left,←,0.6303178999805823,True,34,1
161M19S2,181,experiment,92,←,left,←,0.6221895000198856,True,34,1
161M19S2,182,experiment,61,↓,down,↓,0.6485898999962956,True,34,1
161M19S2,183,experiment,58,↑,up,↑,0.690930999990087,True,34,1
161M19S2,184,experiment,107,↑,up,↑,0.5551732999738306,True,34,1
161M19S2,185,experiment,104,→,right,→,0.6178574000368826,True,34,1
161M19S2,186,experiment,56,↓,down,↓,0.6543652999680489,True,34,1
161M19S2,187,experiment,108,→,right,→,0.4799384000361897,True,34,1
161M19S2,188,experiment,52,↓,down,↓,0.5546725000021979,True,34,1
161M19S2,189,experiment,55,→,right,→,0.8978764999774285,True,34,1
161M19S2,190,experiment,48,↓,down,↓,0.4780678999959491,True,34,1
161M19S2,191,experiment,54,→,right,→,0.5680282000103034,True,34,1
161M19S2,192,experiment,62,↓,down,↓,0.5804662000155076,True,34,1
161M19S2,193,experiment,73,↓,down,↓,0.676845800015144,True,34,1
161M19S2,194,experiment,97,→,right,→,0.47301730001345277,True,34,1
161M19S2,195,experiment,87,→,right,→,0.48892129998421296,True,34,1
161M19S2,196,experiment,72,↑,up,↑,0.604931999987457,True,34,1
161M19S2,197,experiment,57,←,left,←,0.6492024000035599,True,34,1
161M19S2,198,experiment,95,→,right,→,0.5752713000401855,True,34,1
161M19S2,199,experiment,59,↓,down,↓,0.644723899953533,True,34,1
161M19S2,200,experiment,81,←,left,←,0.6634529000148177,True,34,1
161M19S2,201,experiment,67,↓,down,↓,0.526173899997957,True,34,1
161M19S2,202,experiment,50,↑,up,↑,0.7204781000036746,True,34,1
161M19S2,203,experiment,60,↓,down,↓,0.7190564000047743,True,34,1
161M19S2,204,experiment,64,↓,down,↓,0.7889902999741025,True,34,1
161M19S2,205,experiment,82,↓,down,↓,0.8176489000325091,True,34,1
161M19S2,206,experiment,103,↓,down,↓,0.7582772999885492,True,34,1
161M19S2,207,experiment,86,↓,down,↓,0.5868729000212625,True,34,1
161M19S2,208,experiment,93,↓,down,↓,0.8042260999791324,True,34,1
161M19S2,209,experiment,98,←,left,←,0.5870015000109561,True,34,1
161M19S2,210,experiment,70,←,left,←,0.7245314999599941,True,34,1
161M19S2,211,experiment,63,→,right,→,0.5381072000018321,True,34,1
161M19S2,212,experiment,84,↓,down,↓,0.6237917999969795,True,34,1
161M19S2,213,experiment,88,↓,down,↓,0.7211540999705903,True,34,1
161M19S2,214,experiment,78,↑,up,↑,0.7380272999871522,True,34,1
161M19S2,215,experiment,106,←,left,←,0.6088776999968104,True,34,1
161M19S2,216,experiment,69,→,right,→,0.873170199978631,True,34,1
161M19S2,217,experiment,66,↓,down,↓,0.7917068999959156,True,34,1
161M19S2,218,experiment,85,→,right,→,0.5156949000083841,True,34,1
161M19S2,219,experiment,89,↓,down,↓,0.5768612999818288,True,34,1
161M19S2,220,experiment,83,↓,down,↓,0.6139671999844722,True,34,1
161M19S2,221,experiment,94,↓,down,↓,0.5817179000005126,True,34,1
161M19S2,222,experiment,53,↑,up,↑,0.8364711999893188,True,34,1
161M19S2,223,experiment,80,↓,down,↓,0.6159666000166908,True,34,1
161M19S2,224,experiment,102,→,right,→,0.597284099960234,True,34,1
161M19S2,225,experiment,74,←,left,←,0.5640112000401132,True,34,1
161M19S2,226,experiment,79,↓,down,↓,0.6347922999993898,True,34,1
161M19S2,227,experiment,99,←,left,←,0.6724887000164017,True,34,1
161M19S2,228,experiment,65,→,right,→,0.6551824000198394,True,34,1
161M19S2,229,experiment,68,↑,up,↑,0.6298599999863654,True,34,1
161M19S2,230,training,94,→,right,→,0.5711900999885984,True,33,0
161M19S2,231,training,79,→,right,→,0.6180820999434218,True,33,1
161M19S2,232,experiment,80,←,left,←,0.7103056000196375,True,33,1
161M19S2,233,experiment,76,→,right,→,0.5445939000346698,True,33,1
161M19S2,234,experiment,98,←,left,←,0.63382529997034,True,33,1
161M19S2,235,experiment,48,↓,down,↓,0.640532199991867,True,33,1
161M19S2,236,experiment,63,→,right,→,0.5852260999963619,True,33,1
161M19S2,237,experiment,82,→,right,→,0.6305785000440665,True,33,1
161M19S2,238,experiment,92,↓,down,↓,0.5501341000199318,True,33,1
161M19S2,239,experiment,67,←,left,←,0.6898542999988422,True,33,1
161M19S2,240,experiment,62,→,right,→,0.5930775000015274,True,33,1
161M19S2,241,experiment,68,↓,down,↓,0.6586163999745622,True,33,1
161M19S2,242,experiment,71,←,left,←,0.7199663000064902,True,33,1
161M19S2,243,experiment,78,→,right,→,0.512988000002224,True,33,1
161M19S2,244,experiment,106,↑,up,↑,0.648866800009273,True,33,1
161M19S2,245,experiment,87,↑,up,↑,0.6013500000117347,True,33,1
161M19S2,246,experiment,72,←,left,←,0.7134087000158615,True,33,1
161M19S2,247,experiment,74,↑,up,↑,0.6994803000125103,True,33,1
161M19S2,248,experiment,95,→,right,→,0.61576720001176,True,33,1
161M19S2,249,experiment,57,↑,up,↑,0.6275396999553777,True,33,1
161M19S2,250,experiment,91,↑,up,↑,0.6440000000293367,True,33,1
161M19S2,251,experiment,97,↓,down,↓,0.5940126000205055,True,33,1
161M19S2,252,experiment,50,↑,up,↑,0.7770349999773316,True,33,1
161M19S2,253,experiment,96,←,left,←,0.7220496999798343,True,33,1
161M19S2,254,experiment,104,→,right,→,0.562005500018131,True,33,1
161M19S2,255,experiment,88,↓,down,↓,0.5897227000095882,True,33,1
161M19S2,256,experiment,64,↑,up,↑,0.6164668999845162,True,33,1
161M19S2,257,experiment,61,↓,down,↓,0.5389769000466913,True,33,1
161M19S2,258,experiment,99,←,left,←,0.5000408999621868,True,33,1
161M19S2,259,experiment,89,↓,down,↓,0.4500453000073321,True,33,1
161M19S2,260,experiment,51,←,left,←,0.7269249000237323,True,33,1
161M19S2,261,experiment,102,↑,up,↑,0.7116068000323139,True,33,1
161M19S2,262,experiment,101,←,left,←,0.633356400008779,True,33,1
161M19S2,263,experiment,52,→,right,→,0.5264859999879263,True,33,1
161M19S2,264,experiment,103,→,right,→,0.5107991999830119,True,33,1
161M19S2,265,experiment,84,←,right,→,0.5741330999881029,False,33,1
161M19S2,266,experiment,100,→,right,→,0.5174331000307575,True,33,1
161M19S2,267,experiment,73,↓,down,↓,0.6002216000342742,True,33,1
161M19S2,268,experiment,66,→,right,→,0.6347281000344083,True,33,1
161M19S2,269,experiment,75,←,left,←,0.5272981000016443,True,33,1
161M19S2,270,experiment,83,↓,down,↓,0.5024294999893755,True,33,1
161M19S2,271,experiment,86,↑,up,↑,0.5894835999934003,True,33,1
161M19S2,272,experiment,85,←,left,←,0.5775267999852076,True,33,1
161M19S2,273,experiment,55,↑,up,↑,0.5756305000395514,True,33,1
161M19S2,274,experiment,107,↑,up,↑,0.6286691999994218,True,33,1
161M19S2,275,experiment,58,←,left,←,0.5997572999913245,True,33,1
161M19S2,276,experiment,79,↑,up,↑,0.5093080999795347,True,33,1
161M19S2,277,experiment,54,→,right,→,0.5588313000043854,True,33,1
161M19S2,278,experiment,60,←,left,←,0.6600572999450378,True,33,1
161M19S2,279,experiment,69,↑,up,↑,0.6663751999731176,True,33,1
161M19S2,280,experiment,90,↓,down,↓,0.7533675000304356,True,33,1
161M19S2,281,experiment,77,→,right,→,0.5136300000012852,True,33,1
161M19S2,282,experiment,56,↑,up,↑,0.7458258999977261,True,33,1
161M19S2,283,experiment,93,←,left,←,0.46902069996576756,True,33,1
161M19S2,284,experiment,108,→,left,←,0.7415962999803014,False,33,1
161M19S2,285,experiment,70,↑,up,↑,0.9602203000104055,True,33,1
161M19S2,286,experiment,53,←,left,←,0.6877061999985017,True,33,1
161M19S2,287,experiment,94,↓,down,↓,0.5086659999797121,True,33,1
161M19S2,288,experiment,59,↓,down,↓,0.660447700007353,True,33,1
161M19S2,289,experiment,49,↑,up,↑,0.5933118000393733,True,33,1
161M19S2,290,experiment,65,↑,up,↑,0.5555937999743037,True,33,1
161M19S2,291,experiment,105,↑,up,↑,0.49800199997844175,True,33,1
161M19S2,292,experiment,81,←,left,←,0.48274700000183657,True,33,1
161M19S2,293,training,59,↑,up,↑,0.6034609000198543,True,32,0
161M19S2,294,training,57,↓,down,↓,0.6411613000091165,True,32,1
161M19S2,295,experiment,96,↓,down,↓,0.590215900039766,True,32,1
161M19S2,296,experiment,102,→,right,→,0.49221789999864995,True,32,1
161M19S2,297,experiment,95,←,left,←,0.5286152999615297,True,32,1
161M19S2,298,experiment,83,↑,up,↑,0.6877512000501156,True,32,1
161M19S2,299,experiment,104,↑,up,↑,0.5695941000012681,True,32,1
161M19S2,300,experiment,82,←,left,←,0.5511032000067644,True,32,1
161M19S2,301,experiment,51,↓,down,↓,0.5118798000039533,True,32,1
161M19S2,302,experiment,93,→,right,→,0.604274399986025,True,32,1
161M19S2,303,experiment,85,↑,up,↑,0.4713262000004761,True,32,1
161M19S2,304,experiment,103,↑,up,↑,0.5542121999897063,True,32,1
161M19S2,305,experiment,60,←,left,←,0.5275082000298426,True,32,1
161M19S2,306,experiment,105,↓,down,↓,0.6950859999633394,True,32,1
161M19S2,307,experiment,88,↓,down,↓,0.7498239999986254,True,32,1
161M19S2,308,experiment,76,↓,down,↓,0.46256429998902604,True,32,1
161M19S2,309,experiment,97,→,right,→,0.5709750999812968,True,32,1
161M19S2,310,experiment,52,↓,down,↓,0.498588899965398,True,32,1
161M19S2,311,experiment,77,↓,down,↓,0.3839711000327952,True,32,1
161M19S2,312,experiment,64,↑,up,↑,0.5913129999535158,True,32,0
161M19S2,313,experiment,99,↓,down,↓,0.6222348000155762,True,32,1
161M19S2,314,experiment,48,→,right,→,0.6290717999800108,True,32,1
161M19S2,315,experiment,69,↑,up,↑,0.6684206000063568,True,32,1
161M19S2,316,experiment,57,←,left,←,0.6305177999893203,True,32,1
161M19S2,317,experiment,55,←,left,←,0.674867500027176,True,32,1
161M19S2,318,experiment,58,↓,down,↓,0.675887799996417,True,32,1
161M19S2,319,experiment,106,↓,down,↓,0.5416359000373632,True,32,1
161M19S2,320,experiment,78,←,left,←,0.6376993000158109,True,32,1
161M19S2,321,experiment,87,→,right,→,0.6228111999807879,True,32,1
161M19S2,322,experiment,54,←,left,←,0.7311058000195771,True,32,1
161M19S2,323,experiment,53,←,left,←,0.6442552999942563,True,32,1
161M19S2,324,experiment,68,→,right,→,0.45189340005163103,True,32,1
161M19S2,325,experiment,67,↓,down,↓,0.6666829999885522,True,32,1
161M19S2,326,experiment,49,↓,down,↓,0.5671359999687411,True,32,1
161M19S2,327,experiment,50,↑,up,↑,0.6314632000285201,True,32,1
161M19S2,328,experiment,108,↑,up,↑,0.6421832999913022,True,32,1
161M19S2,329,experiment,79,↓,down,↓,0.5735710000153631,True,32,1
161M19S2,330,experiment,98,↓,down,↓,0.5176613999647088,True,32,1
161M19S2,331,experiment,92,←,left,←,0.5301071999710985,True,32,1
161M19S2,332,experiment,86,→,right,→,0.7520049000158906,True,32,1
161M19S2,333,experiment,73,→,down,↓,1.4492040000041015,False,32,1
161M19S2,334,experiment,89,→,right,→,0.5531625000294298,True,32,1
161M19S2,335,experiment,75,→,right,→,0.4502978000091389,True,32,1
161M19S2,336,experiment,70,←,left,←,0.5523555999970995,True,32,1
161M19S2,337,experiment,63,→,right,→,0.4772495999932289,True,32,1
161M19S2,338,experiment,71,→,right,→,0.4343675000127405,True,32,1
161M19S2,339,experiment,81,←,left,←,0.509154999977909,True,32,0
161M19S2,340,experiment,101,→,right,→,0.5269283000379801,True,32,1
161M19S2,341,experiment,74,↑,up,↑,0.7690553999855183,True,32,1
161M19S2,342,experiment,107,←,left,←,0.542377799982205,True,32,1
161M19S2,343,experiment,56,→,right,→,0.41677310003433377,True,32,1
161M19S2,344,experiment,91,↑,right,→,1.254343499953393,False,32,0
161M19S2,345,experiment,84,←,left,←,0.6480997999897227,True,32,1
161M19S2,346,experiment,66,↓,down,↓,0.5834476999589242,True,32,1
161M19S2,347,experiment,90,←,left,←,0.6655255000223406,True,32,1
161M19S2,348,experiment,80,→,right,→,0.35060649999650195,True,32,1
161M19S2,349,experiment,72,←,left,←,0.6616502000251785,True,32,0
161M19S2,350,experiment,61,←,left,←,0.4867746999952942,True,32,1
161M19S2,351,experiment,94,↓,down,↓,0.5716889000032097,True,32,1
161M19S2,352,experiment,65,→,right,→,0.5427216999814846,True,32,1
161M19S2,353,experiment,62,↑,up,↑,0.5562056000344455,True,32,1
161M19S2,354,experiment,100,→,right,→,0.6520798000274226,True,32,1
161M19S2,355,experiment,59,←,left,←,0.4781895999913104,True,32,1
161M19S2,356,training,69,↓,down,↓,0.5419130999944173,True,31,0
161M19S2,357,training,59,↓,down,↓,0.5567962999921292,True,31,1
161M19S2,358,experiment,101,↓,down,↓,0.4600296000135131,True,31,1
161M19S2,359,experiment,58,↓,down,↓,0.5261156000196934,True,31,1
161M19S2,360,experiment,102,↑,up,↑,0.6231643999926746,True,31,1
161M19S2,361,experiment,106,↓,down,↓,0.6743087999639101,True,31,1
161M19S2,362,experiment,87,←,left,←,0.5699930000118911,True,31,1
161M19S2,363,experiment,54,←,left,←,0.5613405999611132,True,31,1
161M19S2,364,experiment,57,→,right,→,0.5593769000261091,True,31,1
161M19S2,365,experiment,66,→,right,→,0.658889000013005,True,31,1
161M19S2,366,experiment,103,↑,up,↑,0.7580939999897964,True,31,1
161M19S2,367,experiment,85,←,left,←,0.5068455000291578,True,31,1
161M19S2,368,experiment,79,→,right,→,1.2359718999941833,True,31,1
161M19S2,369,experiment,48,↓,down,↓,0.6583104000310414,True,31,1
161M19S2,370,experiment,74,↑,up,↑,0.7510032000136562,True,31,1
161M19S2,371,experiment,95,←,left,←,0.5210247000213712,True,31,1
161M19S2,372,experiment,75,←,left,←,0.6511162000242621,True,31,1
161M19S2,373,experiment,70,→,right,→,0.5694285999634303,True,31,1
161M19S2,374,experiment,65,←,left,←,0.8852151000173762,True,31,1
161M19S2,375,experiment,104,↑,up,↑,0.6386272000381723,True,31,1
161M19S2,376,experiment,83,←,left,←,0.7210176999797113,True,31,1
161M19S2,377,experiment,50,↓,down,↓,0.7710486000287347,True,31,1
161M19S2,378,experiment,61,←,left,←,0.6394102000049315,True,31,1
161M19S2,379,experiment,105,↑,up,↑,0.6191225000075065,True,31,1
161M19S2,380,experiment,53,←,left,←,0.848191199998837,True,31,1
161M19S2,381,experiment,100,↑,up,↑,0.6602545999921858,True,31,1
161M19S2,382,experiment,51,↓,down,↓,0.5285729999886826,True,31,1
161M19S2,383,experiment,81,↑,up,↑,0.5363125000149012,True,31,1
161M19S2,384,experiment,88,→,right,→,0.7973672000225633,True,31,1
161M19S2,385,experiment,90,↓,down,↓,0.5353692999924533,True,31,1
161M19S2,386,experiment,63,←,left,←,0.6924739999813028,True,31,1
161M19S2,387,experiment,96,→,right,→,0.5767472999868914,True,31,1
161M19S2,388,experiment,64,↓,down,↓,0.5882528999936767,True,31,1
161M19S2,389,experiment,77,↓,down,↓,0.5789803999941796,True,31,1
161M19S2,390,experiment,107,→,right,→,0.6559985000058077,True,31,1
161M19S2,391,experiment,72,←,left,←,0.6214233000064269,True,31,1
161M19S2,392,experiment,68,↑,up,↑,0.605387499963399,True,31,1
161M19S2,393,experiment,76,↑,up,↑,0.851224199985154,True,31,1
161M19S2,394,experiment,78,↓,down,↓,0.6468770999927074,True,31,1
161M19S2,395,experiment,73,↓,down,↓,0.6526965000084601,True,31,1
161M19S2,396,experiment,92,↑,down,↓,0.7632905000355095,False,31,1
161M19S2,397,experiment,94,→,right,→,0.6531121000298299,True,31,1
161M19S2,398,experiment,56,→,right,→,0.7041201000101864,True,31,1
161M19S2,399,experiment,91,→,right,→,0.5902306000352837,True,31,1
161M19S2,400,experiment,82,→,right,→,0.6422157000051811,True,31,1
161M19S2,401,experiment,67,↓,down,↓,0.6339518000022508,True,31,1
161M19S2,402,experiment,62,↑,up,↑,0.8197276999708265,True,31,1
161M19S2,403,experiment,93,→,right,→,0.6596228000125848,True,31,1
161M19S2,404,experiment,97,→,right,→,0.5848268000409007,True,31,1
161M19S2,405,experiment,55,→,right,→,0.5987634000484832,True,31,1
161M19S2,406,experiment,89,→,right,→,0.6968525999691337,True,31,1
161M19S2,407,experiment,99,←,left,←,0.5316332000074908,True,31,1
161M19S2,408,experiment,49,→,right,→,0.7098669999977574,True,31,1
161M19S2,409,experiment,69,←,left,←,0.7220265000360087,True,31,1
161M19S2,410,experiment,108,→,right,→,0.5286002999637276,True,31,1
161M19S2,411,experiment,80,↑,up,↑,0.6810932999942452,True,31,1
161M19S2,412,experiment,52,←,left,←,0.628069200029131,True,31,1
161M19S2,413,experiment,71,→,right,→,0.7068180000060238,True,31,1
161M19S2,414,experiment,60,→,right,→,0.6183270000037737,True,31,1
161M19S2,415,experiment,84,↑,up,↑,0.6454749000258744,True,31,1
161M19S2,416,experiment,59,↑,up,↑,0.5917195999645628,True,31,1
161M19S2,417,experiment,86,←,left,←,0.45109860005322844,True,31,1
161M19S2,418,experiment,98,→,right,→,0.5203685999731533,True,31,1
161M19S2,419,training,61,←,left,←,0.593486700032372,True,30,0
161M19S2,420,training,92,→,right,→,0.4508357999729924,True,30,1
161M19S2,421,experiment,56,←,left,←,0.5581627999781631,True,30,1
161M19S2,422,experiment,69,↓,down,↓,0.5602967999875546,True,30,1
161M19S2,423,experiment,52,←,left,←,0.4645916000008583,True,30,1
161M19S2,424,experiment,85,↑,up,↑,0.5052044999902137,True,30,1
161M19S2,425,experiment,61,↑,up,↑,0.4801861000014469,True,30,1
161M19S2,426,experiment,50,←,left,←,0.5080310999765061,True,30,1
161M19S2,427,experiment,79,←,left,←,0.5090702999732457,True,30,1
161M19S2,428,experiment,68,↑,up,↑,0.8581048999913037,True,30,1
161M19S2,429,experiment,87,→,right,→,0.5704676000168547,True,30,1
161M19S2,430,experiment,101,→,right,→,0.5055966000072658,True,30,1
161M19S2,431,experiment,71,←,left,←,0.4452844000188634,True,30,1
161M19S2,432,experiment,93,↑,up,↑,0.6207049999502487,True,30,1
161M19S2,433,experiment,59,←,left,←,0.4719854000140913,True,30,1
161M19S2,434,experiment,95,↑,up,↑,0.8128759000101127,True,30,1
161M19S2,435,experiment,97,←,left,←,0.5803117000032216,True,30,1
161M19S2,436,experiment,55,↓,down,↓,0.5537707000039518,True,30,1
161M19S2,437,experiment,64,←,left,←,0.5337933000409976,True,30,1
161M19S2,438,experiment,82,→,right,→,0.40001260000281036,True,30,1
161M19S2,439,experiment,99,↑,up,↑,0.5231095000053756,True,30,0
161M19S2,440,experiment,72,←,left,←,0.4622751999995671,True,30,1
161M19S2,441,experiment,70,↑,up,↑,0.7476689000031911,True,30,1
161M19S2,442,experiment,78,↓,down,↓,0.7234063000069,True,30,1
161M19S2,443,experiment,96,→,right,→,0.8782107000006363,True,30,1
161M19S2,444,experiment,91,↑,up,↑,0.5566559999715537,True,30,1
161M19S2,445,experiment,108,→,right,→,0.6178411999717355,True,30,1
161M19S2,446,experiment,67,→,right,→,0.35907109995605424,True,30,1
161M19S2,447,experiment,105,→,right,→,0.5290460999822244,True,30,0
161M19S2,448,experiment,76,→,right,→,0.7700629999744706,True,30,1
161M19S2,449,experiment,58,←,left,←,0.6556877999682911,True,30,1
161M19S2,450,experiment,54,↓,down,↓,0.7150708999834023,True,30,1
161M19S2,451,experiment,89,←,left,←,0.5364060000283644,True,30,1
161M19S2,452,experiment,88,←,left,←,0.5254653999581933,True,30,1
161M19S2,453,experiment,49,←,left,←,0.7841202999697998,True,30,1
161M19S2,454,experiment,80,↑,up,↑,0.7177047000150196,True,30,1
161M19S2,455,experiment,86,↑,up,↑,0.6759979999624193,True,30,1
161M19S2,456,experiment,94,→,right,→,0.7693463999894448,True,30,1
161M19S2,457,experiment,83,↑,up,↑,0.7026946000405587,True,30,1
161M19S2,458,experiment,106,→,right,→,0.5911667000036687,True,30,1
161M19S2,459,experiment,90,←,left,←,0.6010815000045113,True,30,1
161M19S2,460,experiment,63,↑,up,↑,0.5398026999901049,True,30,1
161M19S2,461,experiment,75,←,left,←,0.54922050004825,True,30,1
161M19S2,462,experiment,74,↑,up,↑,0.7101727000554092,True,30,1
161M19S2,463,experiment,103,←,left,←,0.7030311999842525,True,30,1
161M19S2,464,experiment,77,↓,down,↓,0.7290237999986857,True,30,1
161M19S2,465,experiment,53,→,right,→,0.7699957999866456,True,30,1
161M19S2,466,experiment,81,→,right,→,0.9358537999796681,True,30,1
161M19S2,467,experiment,73,↑,up,↑,0.9378880999865942,True,30,1
161M19S2,468,experiment,92,→,right,→,0.5970667999936268,True,30,1
161M19S2,469,experiment,104,↑,up,↑,0.5705617999774404,True,30,1
161M19S2,470,experiment,84,→,right,→,0.9349892999744043,True,30,1
161M19S2,471,experiment,100,←,left,←,0.5279263000120409,True,30,1
161M19S2,472,experiment,107,→,right,→,0.559137300006114,True,30,1
161M19S2,473,experiment,62,↑,up,↑,0.8038187000202015,True,30,1
161M19S2,474,experiment,60,→,right,→,0.7030642000027001,True,30,1
161M19S2,475,experiment,65,←,left,←,0.5732470999937505,True,30,1
161M19S2,476,experiment,57,←,left,←,0.5228466000407934,True,30,1
161M19S2,477,experiment,102,→,right,→,0.4677856999915093,True,30,1
161M19S2,478,experiment,51,←,right,→,0.599936600017827,False,30,1
161M19S2,479,experiment,48,←,left,←,0.5995470000198111,True,30,1
161M19S2,480,experiment,98,↓,down,↓,0.670548299967777,True,30,1
161M19S2,481,experiment,66,→,right,→,0.6292441000114195,True,30,1
161M19S2,482,training,99,↑,up,↑,0.5081991000333801,True,29,0
161M19S2,483,training,60,→,right,→,0.5795994999934919,True,29,1
161M19S2,484,experiment,70,→,right,→,0.5169189000152983,True,29,1
161M19S2,485,experiment,67,←,left,←,0.4418938999879174,True,29,1
161M19S2,486,experiment,48,↑,up,↑,0.42408000002615154,True,29,1
161M19S2,487,experiment,56,←,left,←,0.42786970001179725,True,29,1
161M19S2,488,experiment,49,→,right,→,0.522402599977795,True,29,1
161M19S2,489,experiment,69,↑,up,↑,0.5661388000007719,True,29,1
161M19S2,490,experiment,87,↓,down,↓,0.6107028999831527,True,29,1
161M19S2,491,experiment,59,→,right,→,0.42243059998145327,True,29,1
161M19S2,492,experiment,96,↑,up,↑,0.5965894000255503,True,29,1
161M19S2,493,experiment,81,↓,down,↓,0.48928540002088994,True,29,1
161M19S2,494,experiment,91,↓,down,↓,0.6154238999588415,True,29,1
161M19S2,495,experiment,74,↑,up,↑,0.7335846000351012,True,29,1
161M19S2,496,experiment,54,←,left,←,0.6299420000286773,True,29,1
161M19S2,497,experiment,98,↑,up,↑,0.6275952999712899,True,29,1
161M19S2,498,experiment,107,↓,down,↓,0.5106828999705613,True,29,1
161M19S2,499,experiment,105,←,left,←,0.5110966000356711,True,29,1
161M19S2,500,experiment,57,←,left,←,0.5914103999966756,True,29,1
161M19S2,501,experiment,77,↓,down,↓,0.5501951000187546,True,29,1
161M19S2,502,experiment,50,↓,down,↓,0.6711340000038035,True,29,1
161M19S2,503,experiment,95,↓,down,↓,0.6689200999680907,True,29,1
161M19S2,504,experiment,66,↑,up,↑,0.4434074999880977,True,29,1
161M19S2,505,experiment,92,→,right,→,0.6107601999538019,True,29,1
161M19S2,506,experiment,99,→,right,→,0.5371926000225358,True,29,1
161M19S2,507,experiment,80,→,right,→,0.648840999987442,True,29,1
161M19S2,508,experiment,51,↑,up,↑,0.7975377999828197,True,29,1
161M19S2,509,experiment,58,→,right,→,0.5460016999859363,True,29,1
161M19S2,510,experiment,76,↑,up,↑,0.7943227000068873,True,29,1
161M19S2,511,experiment,73,↑,up,↑,0.5781778999953531,True,29,1
161M19S2,512,experiment,52,↑,up,↑,0.7055367999710143,True,29,1
161M19S2,513,experiment,103,→,right,→,0.762883800023701,True,29,1
161M19S2,514,experiment,97,↓,down,↓,0.5714304000139236,True,29,1
161M19S2,515,experiment,71,←,left,←,0.5562856000033207,True,29,1
161M19S2,516,experiment,102,←,right,→,0.723709299985785,False,29,1
161M19S2,517,experiment,100,↓,down,↓,0.5574096000054851,True,29,1
161M19S2,518,experiment,60,↓,down,↓,0.7143915999913588,True,29,1
161M19S2,519,experiment,53,↑,up,↑,0.5078489999868907,True,29,1
161M19S2,520,experiment,86,↑,up,↑,0.8586667000199668,True,29,1
161M19S2,521,experiment,83,←,left,←,0.5725214999984019,True,29,1
161M19S2,522,experiment,101,↑,up,↑,0.6192659999942407,True,29,1
161M19S2,523,experiment,82,↑,up,↑,0.7910164999775589,True,29,1
161M19S2,524,experiment,62,←,left,←,0.5305719000170939,True,29,1
161M19S2,525,experiment,106,↓,down,↓,0.6333755000378005,True,29,1
161M19S2,526,experiment,104,→,right,→,0.6133650000556372,True,29,1
161M19S2,527,experiment,84,→,right,→,0.5925099999876693,True,29,1
161M19S2,528,experiment,61,←,left,←,0.636198099993635,True,29,1
161M19S2,529,experiment,108,→,right,→,0.7028851000359282,True,29,1
161M19S2,530,experiment,93,↓,down,↓,0.7792418000171892,True,29,1
161M19S2,531,experiment,94,←,left,←,0.5962570999981835,True,29,1
161M19S2,532,experiment,63,↑,up,↑,0.8153687999583781,True,29,1
161M19S2,533,experiment,72,←,left,←,0.6460063000558876,True,29,1
161M19S2,534,experiment,78,→,right,→,0.5698076999979094,True,29,1
161M19S2,535,experiment,68,→,right,→,0.732458799961023,True,29,1
161M19S2,536,experiment,75,↑,up,↑,1.1576371000264771,True,29,1
161M19S2,537,experiment,88,↓,down,↓,0.7614790999796242,True,29,1
161M19S2,538,experiment,90,→,right,→,0.4528684000251815,True,29,1
161M19S2,539,experiment,85,←,left,←,0.422867999994196,True,29,1
161M19S2,540,experiment,79,←,left,←,0.6270619999850169,True,29,1
161M19S2,541,experiment,64,↑,up,↑,0.6681425999850035,True,29,1
161M19S2,542,experiment,55,→,right,→,0.5988943999982439,True,29,1
161M19S2,543,experiment,89,↑,up,↑,0.7129063999745995,True,29,1
161M19S2,544,experiment,65,↓,down,↓,0.6142593999975361,True,29,1
161M19S2,545,training,59,→,right,→,0.520594900008291,True,28,0
161M19S2,546,training,90,→,right,→,0.4856710999738425,True,28,1
161M19S2,547,experiment,71,↑,up,↑,0.5224475999712013,True,28,1
161M19S2,548,experiment,92,↑,up,↑,0.46247550001135096,True,28,1
161M19S2,549,experiment,53,←,left,←,0.43394670000998303,True,28,1
161M19S2,550,experiment,100,↓,down,↓,0.6629975999821909,True,28,1
161M19S2,551,experiment,74,←,left,←,0.723800299980212,True,28,1
161M19S2,552,experiment,98,↑,up,↑,0.5093541000387631,True,28,1
161M19S2,553,experiment,67,→,right,→,0.5867797000100836,True,28,1
161M19S2,554,experiment,49,←,left,←,0.49057670001639053,True,28,1
161M19S2,555,experiment,104,↑,up,↑,0.5003389000194147,True,28,1
161M19S2,556,experiment,69,←,left,←,0.5370479000266641,True,28,1
161M19S2,557,experiment,55,←,left,←,0.5529907000018284,True,28,1
161M19S2,558,experiment,76,↑,up,↑,0.561256900022272,True,28,1
161M19S2,559,experiment,50,↓,down,↓,0.6342633999884129,True,28,1
161M19S2,560,experiment,80,→,right,→,0.5897622999618761,True,28,1
161M19S2,561,experiment,103,←,left,←,0.5157572000171058,True,28,1
161M19S2,562,experiment,94,↑,up,↑,0.5350313999806531,True,28,1
161M19S2,563,experiment,83,↓,down,↓,0.5898435999988578,True,28,1
161M19S2,564,experiment,81,↓,down,↓,0.5388496000086889,True,28,1
161M19S2,565,experiment,95,↓,down,↓,0.5572531999787316,True,28,1
161M19S2,566,experiment,62,↓,down,↓,0.49801270000170916,True,28,1
161M19S2,567,experiment,88,→,down,↓,0.7446780999889597,False,28,1
161M19S2,568,experiment,79,←,left,←,0.6321075999876484,True,28,1
161M19S2,569,experiment,102,↓,down,↓,0.6047728000557981,True,28,1
161M19S2,570,experiment,48,←,left,←,0.692092000041157,True,28,1
161M19S2,571,experiment,89,→,right,→,0.6907862999942154,True,28,1
161M19S2,572,experiment,70,↓,down,↓,0.5672872000141069,True,28,1
161M19S2,573,experiment,60,↓,down,↓,0.7560985999880359,True,28,1
161M19S2,574,experiment,108,←,left,←,0.6413779999711551,True,28,1
161M19S2,575,experiment,93,←,left,←,0.6964334000367671,True,28,1
161M19S2,576,experiment,78,→,right,→,0.5781228000414558,True,28,1
161M19S2,577,experiment,57,↑,down,↓,1.3038891999749467,False,28,1
161M19S2,578,experiment,107,↓,down,↓,0.5114553000312299,True,28,1
161M19S2,579,experiment,85,→,right,→,0.5426148999831639,True,28,1
161M19S2,580,experiment,73,←,left,←,0.6324558000196703,True,28,1
161M19S2,581,experiment,84,↓,down,↓,0.546946200018283,True,28,1
161M19S2,582,experiment,54,↓,down,↓,0.7306713999714702,True,28,1
161M19S2,583,experiment,59,↓,down,↓,0.7452203000430018,True,28,1
161M19S2,584,experiment,96,→,right,→,0.5390286999754608,True,28,1
161M19S2,585,experiment,56,←,left,←,0.7545740000205114,True,28,1
161M19S2,586,experiment,87,↓,down,↓,0.5586330999503843,True,28,1
161M19S2,587,experiment,105,↑,up,↑,0.8850858000223525,True,28,1
161M19S2,588,experiment,99,→,right,→,0.5202820000122301,True,28,1
161M19S2,589,experiment,63,←,left,←,0.5341268999618478,True,28,1
161M19S2,590,experiment,106,↓,down,↓,0.7657168000005186,True,28,1
161M19S2,591,experiment,68,→,right,→,0.6639567000092939,True,28,1
161M19S2,592,experiment,82,←,left,←,0.633214500034228,True,28,1
161M19S2,593,experiment,97,←,left,←,0.6874563000164926,True,28,1
161M19S2,594,experiment,101,←,left,←,0.633812999993097,True,28,1
161M19S2,595,experiment,75,↓,down,↓,0.6392967000138015,True,28,1
161M19S2,596,experiment,91,←,left,←,0.7510951000149362,True,28,1
161M19S2,597,experiment,90,↑,up,↑,0.618672099953983,True,28,1
161M19S2,598,experiment,51,←,left,←,0.8808070000377484,True,28,1
161M19S2,599,experiment,52,↑,up,↑,0.6118739999947138,True,28,1
161M19S2,600,experiment,65,→,right,→,0.5495764999650419,True,28,1
161M19S2,601,experiment,66,↓,down,↓,0.8255027999985032,True,28,1
161M19S2,602,experiment,64,→,right,→,0.5146741999778897,True,28,1
161M19S2,603,experiment,61,←,left,←,0.7694484000094235,True,28,1
161M19S2,604,experiment,72,→,right,→,0.667042399989441,True,28,1
161M19S2,605,experiment,86,↑,up,↑,1.6188531999941915,True,28,1
161M19S2,606,experiment,58,←,left,←,0.5744792000041343,True,28,1
161M19S2,607,experiment,77,→,right,→,0.6138013000017963,True,28,1
161M19S2,608,training,60,↓,down,↓,0.5988295000279322,True,28,0
161M19S2,609,training,58,↓,down,↓,0.5792438000207767,True,28,1
161M19S2,610,experiment,106,↓,down,↓,0.7602939999778755,True,28,1
161M19S2,611,experiment,100,←,left,←,0.46423699997831136,True,28,1
161M19S2,612,experiment,62,→,right,→,0.5366950000170618,True,28,1
161M19S2,613,experiment,84,→,right,→,0.7191350000211969,True,28,1
161M19S2,614,experiment,73,↓,down,↓,0.5941510999691673,True,28,1
161M19S2,615,experiment,63,↓,down,↓,0.49286019999999553,True,28,1
161M19S2,616,experiment,57,↑,up,↑,0.5741287000128068,True,28,1
161M19S2,617,experiment,58,→,right,→,0.4834872999927029,True,28,1
161M19S2,618,experiment,51,→,right,→,0.470814700005576,True,28,1
161M19S2,619,experiment,92,↑,up,↑,0.5171906999894418,True,28,1
161M19S2,620,experiment,104,→,right,→,0.4216864000190981,True,28,1
161M19S2,621,experiment,105,→,right,→,0.4569719000137411,True,28,1
161M19S2,622,experiment,89,↑,up,↑,0.6168950000428595,True,28,1
161M19S2,623,experiment,66,↑,up,↑,0.5697789999539964,True,28,1
161M19S2,624,experiment,97,↑,up,↑,0.4586831000051461,True,28,1
161M19S2,625,experiment,56,↑,up,↑,0.50938360003056,True,28,1
161M19S2,626,experiment,72,→,right,→,1.1289130999939516,True,28,1
161M19S2,627,experiment,98,↑,up,↑,0.8828761000186205,True,28,1
161M19S2,628,experiment,83,←,left,←,0.8833794000092894,True,28,1
161M19S2,629,experiment,86,→,right,→,0.707018600020092,True,28,1
161M19S2,630,experiment,87,←,left,←,0.5296022000256926,True,28,1
161M19S2,631,experiment,85,→,right,→,0.47960770002100617,True,28,1
161M19S2,632,experiment,53,←,left,←,0.9221112999948673,True,28,1
161M19S2,633,experiment,49,↑,up,↑,0.6288426999817602,True,28,1
161M19S2,634,experiment,93,↑,up,↑,0.4682415000279434,True,28,1
161M19S2,635,experiment,48,↓,down,↓,0.7213665000163019,True,28,1
161M19S2,636,experiment,69,↓,down,↓,0.565479899989441,True,28,1
161M19S2,637,experiment,76,←,left,←,0.6374119000392966,True,28,1
161M19S2,638,experiment,52,↓,down,↓,0.6740754999918863,True,28,1
161M19S2,639,experiment,101,↑,right,→,1.1250333999632858,False,28,1
161M19S2,640,experiment,71,←,left,←,0.6640195999643765,True,28,1
161M19S2,641,experiment,60,↓,left,←,0.8170518000260927,False,28,1
161M19S2,642,experiment,70,↓,down,↓,0.4887427000212483,True,28,1
161M19S2,643,experiment,75,↑,up,↑,0.7718889000243507,True,28,1
161M19S2,644,experiment,79,↑,up,↑,0.6904555999790318,True,28,1
161M19S2,645,experiment,96,→,right,→,0.606251000019256,True,28,1
161M19S2,646,experiment,65,→,right,→,0.5521527999662794,True,28,1
161M19S2,647,experiment,107,↑,up,↑,0.6781700000283308,True,28,1
161M19S2,648,experiment,91,↑,up,↑,0.7085112000349909,True,28,1
161M19S2,649,experiment,94,→,right,→,0.4169128999928944,True,28,1
161M19S2,650,experiment,77,←,left,←,0.48535039997659624,True,28,1
161M19S2,651,experiment,55,↓,down,↓,0.5834895999869332,True,28,1
161M19S2,652,experiment,68,↓,down,↓,0.6892536000232212,True,28,1
161M19S2,653,experiment,74,→,right,→,1.2529779999749735,True,28,1
161M19S2,654,experiment,81,→,right,→,0.6632882000412792,True,28,1
161M19S2,655,experiment,67,←,left,←,0.462181499984581,True,28,1
161M19S2,656,experiment,64,↑,down,↓,1.0701323000248522,False,28,1
161M19S2,657,experiment,82,↓,down,↓,0.9919253999833018,True,28,1
161M19S2,658,experiment,108,↑,up,↑,1.7637632000260055,True,28,1
161M19S2,659,experiment,54,←,left,←,0.6986795000266284,True,28,1
161M19S2,660,experiment,61,←,left,←,0.6580218999879435,True,28,1
161M19S2,661,experiment,78,↑,up,↑,0.6613393000443466,True,28,1
161M19S2,662,experiment,95,↓,down,↓,0.7793990999925882,True,28,1
161M19S2,663,experiment,99,↓,down,↓,0.5870633000158705,True,28,1
161M19S2,664,experiment,88,→,right,→,0.46148059994447976,True,28,1
161M19S2,665,experiment,80,←,left,←,0.6644441999960691,True,28,1
161M19S2,666,experiment,102,←,left,←,0.49967629997991025,True,28,1
161M19S2,667,experiment,103,←,left,←,0.5166344000026584,True,28,1
161M19S2,668,experiment,50,↓,down,↓,1.6151366000412963,True,28,1
161M19S2,669,experiment,90,→,right,→,0.9999909999896772,True,28,1
161M19S2,670,experiment,59,↑,up,↑,0.6760847000405192,True,28,1
161M19S2,671,training,68,↓,down,↓,0.5700115999788977,True,28,0
161M19S2,672,training,78,→,right,→,0.4329868999775499,True,28,1
161M19S2,673,experiment,80,→,right,→,0.5407365999999456,True,28,1
161M19S2,674,experiment,99,↓,down,↓,0.48595620004925877,True,28,1
161M19S2,675,experiment,96,←,left,←,0.5464992000488564,True,28,1
161M19S2,676,experiment,86,↑,up,↑,0.5515742999850772,True,28,1
161M19S2,677,experiment,48,→,right,→,0.7130813999683596,True,28,1
161M19S2,678,experiment,66,↑,up,↑,0.5184258999652229,True,28,1
161M19S2,679,experiment,51,←,left,←,0.6002360999700613,True,28,1
161M19S2,680,experiment,71,→,right,→,0.4964357999851927,True,28,1
161M19S2,681,experiment,78,↑,up,↑,0.45017760002519935,True,28,1
161M19S2,682,experiment,108,←,left,←,0.5159257999621332,True,28,1
161M19S2,683,experiment,77,↓,down,↓,0.6852536000078544,True,28,1
161M19S2,684,experiment,94,↑,up,↑,0.5860918000107631,True,28,1
161M19S2,685,experiment,89,↓,down,↓,0.6608179000322707,True,28,1
161M19S2,686,experiment,75,↓,down,↓,0.5698781000101008,True,28,1
161M19S2,687,experiment,106,→,right,→,0.5432488999795169,True,28,1
161M19S2,688,experiment,85,↑,right,→,0.884604999970179,False,28,1
161M19S2,689,experiment,64,←,left,←,0.5796632000128739,True,28,1
161M19S2,690,experiment,59,↑,up,↑,0.5205560000031255,True,28,1
161M19S2,691,experiment,100,↑,up,↑,0.6582909999997355,True,28,1
161M19S2,692,experiment,69,↓,down,↓,0.7685389000107534,True,28,1
161M19S2,693,experiment,55,↑,down,↓,1.6875346999731846,False,28,1
161M19S2,694,experiment,63,→,right,→,0.5425071000354365,True,28,1
161M19S2,695,experiment,103,↓,down,↓,0.6542835000436753,True,28,1
161M19S2,696,experiment,62,←,left,←,0.6466434000176378,True,28,1
161M19S2,697,experiment,84,↓,down,↓,0.424335699994117,True,28,1
161M19S2,698,experiment,81,→,right,→,0.7643645000061952,True,28,1
161M19S2,699,experiment,90,↓,down,↓,0.5353126999689266,True,28,1
161M19S2,700,experiment,107,↓,down,↓,0.4937546000001021,True,28,1
161M19S2,701,experiment,57,↑,up,↑,0.6949614000041038,True,28,1
161M19S2,702,experiment,74,→,right,→,0.5539186000241898,True,28,1
161M19S2,703,experiment,88,→,right,→,0.6624074000283144,True,28,1
161M19S2,704,experiment,72,←,left,←,0.6595140999997966,True,28,1
161M19S2,705,experiment,49,↓,down,↓,0.6965420999913476,True,28,1
161M19S2,706,experiment,102,←,right,→,1.1541858999989927,False,28,1
161M19S2,707,experiment,67,↓,down,↓,0.5892098000040278,True,28,1
161M19S2,708,experiment,73,↑,up,↑,0.8131216000183485,True,28,1
161M19S2,709,experiment,60,↑,up,↑,0.6405119999544695,True,28,1
161M19S2,710,experiment,65,←,left,←,0.6330101999919862,True,28,1
161M19S2,711,experiment,104,←,left,←,0.49227990000508726,True,28,1
161M19S2,712,experiment,70,→,right,→,0.48934879997977987,True,28,1
161M19S2,713,experiment,54,→,right,→,0.6512851000297815,True,28,1
161M19S2,714,experiment,56,←,left,←,0.6062686999794096,True,28,1
161M19S2,715,experiment,52,↑,up,↑,0.6527231000363827,True,28,1
161M19S2,716,experiment,97,↑,up,↑,0.497900300018955,True,28,1
161M19S2,717,experiment,93,←,left,←,0.6144977000076324,True,28,1
161M19S2,718,experiment,58,↓,down,↓,0.7781858999514952,True,28,1
161M19S2,719,experiment,50,→,right,→,0.6102875999640673,True,28,1
161M19S2,720,experiment,61,↑,up,↑,0.8134608000400476,True,28,1
161M19S2,721,experiment,82,→,right,→,0.6650841999799013,True,28,1
161M19S2,722,experiment,92,←,left,←,0.8237615999532863,True,28,1
161M19S2,723,experiment,76,←,left,←,0.7727074000285938,True,28,1
161M19S2,724,experiment,79,↑,up,↑,1.1550911999656819,True,28,1
161M19S2,725,experiment,83,↓,down,↓,0.7287548000458628,True,28,1
161M19S2,726,experiment,68,↓,down,↓,0.7727114000008442,True,28,1
161M19S2,727,experiment,53,↓,down,↓,0.4761545999790542,True,28,1
161M19S2,728,experiment,105,↓,down,↓,0.5817766000400297,True,28,1
161M19S2,729,experiment,101,←,left,←,0.5646277000196278,True,28,1
161M19S2,730,experiment,95,↑,up,↑,0.7016548999818042,True,28,1
161M19S2,731,experiment,87,↑,up,↑,0.8527256000088528,True,28,1
161M19S2,732,experiment,98,↑,up,↑,0.7133868000237271,True,28,1
161M19S2,733,experiment,91,↓,down,↓,0.6140003000036813,True,28,1
161M19S2,734,training,105,→,right,→,0.4850393999950029,True,28,0
161M19S2,735,training,73,↓,down,↓,0.5370841000112705,True,28,1
161M19S2,736,experiment,72,←,left,←,0.5078827000106685,True,28,1
161M19S2,737,experiment,100,←,left,←,0.5494561000377871,True,28,1
161M19S2,738,experiment,88,↓,down,↓,0.6016271999687888,True,28,1
161M19S2,739,experiment,89,→,right,→,0.5236386000178754,True,28,1
161M19S2,740,experiment,58,←,left,←,0.6271107000065967,True,28,1
161M19S2,741,experiment,95,←,left,←,0.5306866999599151,True,28,1
161M19S2,742,experiment,90,↑,up,↑,0.5666886999970302,True,28,1
161M19S2,743,experiment,81,↓,down,↓,0.5246349000371993,True,28,1
161M19S2,744,experiment,70,↓,down,↓,0.43231080000987276,True,28,1
161M19S2,745,experiment,68,↑,up,↑,0.6719614999601617,True,28,1
161M19S2,746,experiment,65,↑,up,↑,0.455007599957753,True,28,1
161M19S2,747,experiment,82,↓,down,↓,0.5688670000527054,True,28,1
161M19S2,748,experiment,83,←,left,←,0.4782435999950394,True,28,1
161M19S2,749,experiment,48,→,right,→,0.723377900023479,True,28,1
161M19S2,750,experiment,69,↑,up,↑,0.7588057999964803,True,28,1
161M19S2,751,experiment,87,↓,down,↓,0.4911320999963209,True,28,1
161M19S2,752,experiment,84,↓,down,↓,0.7072924000094645,True,28,1
161M19S2,753,experiment,107,←,left,←,0.46686859999317676,True,28,1
161M19S2,754,experiment,76,↓,down,↓,0.4706321000121534,True,28,1
161M19S2,755,experiment,71,↑,up,↑,0.5881230999948457,True,28,1
161M19S2,756,experiment,80,→,right,→,0.6972356999758631,True,28,1
161M19S2,757,experiment,98,↑,up,↑,0.6522049999912269,True,28,1
161M19S2,758,experiment,57,→,right,→,0.5428436000365764,True,28,1
161M19S2,759,experiment,85,→,right,→,0.5245706000132486,True,28,1
161M19S2,760,experiment,93,↓,down,↓,0.6965774999698624,True,28,1
161M19S2,761,experiment,64,↑,up,↑,0.662747299997136,True,28,1
161M19S2,762,experiment,54,→,right,→,0.6337654000381008,True,28,1
161M19S2,763,experiment,108,←,right,→,1.4201417000149377,False,28,1
161M19S2,764,experiment,51,↑,up,↑,0.5857970000361092,True,28,1
161M19S2,765,experiment,106,↑,up,↑,0.5426955000148155,True,28,1
161M19S2,766,experiment,97,→,right,→,0.6251283000456169,True,28,1
161M19S2,767,experiment,75,←,left,←,0.7746100000222214,True,28,1
161M19S2,768,experiment,67,←,left,←,1.5046036000130698,True,28,1
161M19S2,769,experiment,91,↑,up,↑,0.6938925000140443,True,28,1
161M19S2,770,experiment,53,←,left,←,0.5920373999979347,True,28,1
161M19S2,771,experiment,50,→,right,→,0.6473786000278778,True,28,1
161M19S2,772,experiment,55,←,left,←,0.7071193000301719,True,28,1
161M19S2,773,experiment,61,→,right,→,0.97836179996375,True,28,1
161M19S2,774,experiment,74,→,right,→,0.5538580999709666,True,28,1
161M19S2,775,experiment,99,←,left,←,1.5468009000178427,True,28,1
161M19S2,776,experiment,77,↑,up,↑,0.610163300007116,True,28,1
161M19S2,777,experiment,79,→,right,→,0.7752328999922611,True,28,1
161M19S2,778,experiment,104,↑,up,↑,1.4212758999783546,True,28,1
161M19S2,779,experiment,96,↓,down,↓,0.5638015000149608,True,28,1
161M19S2,780,experiment,102,↑,up,↑,0.6027642999542877,True,28,1
161M19S2,781,experiment,59,←,left,←,0.6148779999930412,True,28,1
161M19S2,782,experiment,94,↑,up,↑,0.5186545000178739,True,28,1
161M19S2,783,experiment,49,→,right,→,0.8173168000066653,True,28,1
161M19S2,784,experiment,86,↓,right,→,0.8440111000090837,False,28,1
161M19S2,785,experiment,73,←,left,←,0.60173679998843,True,28,1
161M19S2,786,experiment,60,←,left,←,1.2211884999996983,True,28,1
161M19S2,787,experiment,56,↑,up,↑,0.8332290000398643,True,28,1
161M19S2,788,experiment,101,↓,down,↓,0.6458361999830231,True,28,1
161M19S2,789,experiment,92,→,right,→,0.5409141999552958,True,28,1
161M19S2,790,experiment,103,←,left,←,0.7249721999978647,True,28,1
161M19S2,791,experiment,66,↑,up,↑,0.6573377000167966,True,28,1
161M19S2,792,experiment,52,↑,up,↑,0.7333092999760993,True,28,1
161M19S2,793,experiment,105,←,left,←,0.5807055000332184,True,28,1
161M19S2,794,experiment,62,↓,down,↓,0.5764456000179052,True,28,1
161M19S2,795,experiment,63,→,right,→,0.9242045999853872,True,28,1
161M19S2,796,experiment,78,→,right,→,0.5008107000030577,True,28,1
161M19S2,797,training,52,↑,up,↑,0.6156990000163205,True,28,0
161M19S2,798,training,100,↓,down,↓,0.5895266000297852,True,28,1
161M19S2,799,experiment,95,←,left,←,0.565501100034453,True,28,1
161M19S2,800,experiment,53,↑,up,↑,0.6769319000304677,True,28,1
161M19S2,801,experiment,91,→,right,→,0.507461000001058,True,28,1
161M19S2,802,experiment,103,↓,down,↓,0.5804175999946892,True,28,1
161M19S2,803,experiment,68,←,left,←,0.606508600001689,True,28,1
161M19S2,804,experiment,71,↓,down,↓,0.5898544999654405,True,28,1
161M19S2,805,experiment,70,→,right,→,0.47861240000929683,True,28,1
161M19S2,806,experiment,52,↓,down,↓,0.5781365999719128,True,28,1
161M19S2,807,experiment,55,↑,up,↑,0.4967281000572257,True,28,1
161M19S2,808,experiment,102,↑,up,↑,0.46614179998869076,True,28,1
161M19S2,809,experiment,96,←,left,←,0.5752283000038005,True,28,1
161M19S2,810,experiment,57,↓,down,↓,0.7891605999902822,True,28,1
161M19S2,811,experiment,63,←,left,←,0.6080915000056848,True,28,1
161M19S2,812,experiment,76,→,right,→,0.6065205999766476,True,28,1
161M19S2,813,experiment,98,→,right,→,0.588792700029444,True,28,1
161M19S2,814,experiment,67,↑,up,↑,0.5988799000042491,True,28,1
161M19S2,815,experiment,54,↓,down,↓,0.6604833999881521,True,28,1
161M19S2,816,experiment,81,←,left,←,0.590748300019186,True,28,1
161M19S2,817,experiment,59,↓,down,↓,0.539095800020732,True,28,1
161M19S2,818,experiment,83,←,left,←,0.634178799984511,True,28,1
161M19S2,819,experiment,69,↓,down,↓,0.41692729998612776,True,28,1
161M19S2,820,experiment,65,←,left,←,0.6665506000281312,True,28,1
161M19S2,821,experiment,60,↑,up,↑,0.659367399988696,True,28,1
161M19S2,822,experiment,101,↓,down,↓,0.7352478000102565,True,28,1
161M19S2,823,experiment,74,↓,down,↓,0.4730102000175975,True,28,1
161M19S2,824,experiment,92,←,down,↓,0.7909239000291564,False,28,1
161M19S2,825,experiment,58,→,right,→,0.6116107999696396,True,28,1
161M19S2,826,experiment,94,←,left,←,0.7236814000061713,True,28,1
161M19S2,827,experiment,104,↓,down,↓,0.44362750003347173,True,28,1
161M19S2,828,experiment,97,→,right,→,0.44169120001606643,True,28,1
161M19S2,829,experiment,89,←,left,←,0.6576900000218302,True,28,1
161M19S2,830,experiment,80,←,left,←,0.7407040999969468,True,28,1
161M19S2,831,experiment,51,→,right,→,0.5495896000065841,True,28,1
161M19S2,832,experiment,100,↑,up,↑,0.7180444999830797,True,28,1
161M19S2,833,experiment,106,→,right,→,1.109646699973382,True,28,1
161M19S2,834,experiment,107,→,right,→,0.8210758999921381,True,28,1
161M19S2,835,experiment,108,↓,down,↓,0.615833499992732,True,28,1
161M19S2,836,experiment,84,→,right,→,0.4749619999784045,True,28,1
161M19S2,837,experiment,88,↑,up,↑,0.6022688000230119,True,28,1
161M19S2,838,experiment,73,↑,up,↑,0.9217074000043795,True,28,1
161M19S2,839,experiment,62,←,left,←,0.45563450001645833,True,28,1
161M19S2,840,experiment,61,↓,down,↓,0.640816500002984,True,28,1
161M19S2,841,experiment,50,←,left,←,0.6304973000078462,True,28,1
161M19S2,842,experiment,87,←,left,←,0.40811369998846203,True,28,1
161M19S2,843,experiment,82,→,right,→,0.7872713999822736,True,28,1
161M19S2,844,experiment,75,→,right,→,0.7146098999655806,True,28,1
161M19S2,845,experiment,99,↑,up,↑,0.5487410000059754,True,28,1
161M19S2,846,experiment,48,→,right,→,0.7108788000186905,True,28,1
161M19S2,847,experiment,79,←,left,←,0.4634908000007272,True,28,1
161M19S2,848,experiment,77,←,left,←,0.4593694999930449,True,28,1
161M19S2,849,experiment,93,↓,down,↓,0.6896941000013612,True,28,1
161M19S2,850,experiment,56,←,left,←,0.46672440000111237,True,28,1
161M19S2,851,experiment,66,→,right,→,0.4417877999949269,True,28,1
161M19S2,852,experiment,105,↓,down,↓,0.49288660002639517,True,28,1
161M19S2,853,experiment,85,↑,down,↓,1.3246411999571137,False,28,1
161M19S2,854,experiment,86,↑,up,↑,1.650593200000003,True,28,1
161M19S2,855,experiment,90,↓,down,↓,0.506070599949453,True,28,1
161M19S2,856,experiment,78,↓,down,↓,0.5955010000034235,True,28,1
161M19S2,857,experiment,64,←,down,↓,1.2060967000434175,False,28,1
161M19S2,858,experiment,49,↓,down,↓,0.6133014999795705,True,28,1
161M19S2,859,experiment,72,←,left,←,0.49197640002239496,True,28,1
161M19S2,860,training,96,←,left,←,0.6593001000001095,True,28,0
161M19S2,861,training,95,↓,down,↓,0.4968877999926917,True,28,1
161M19S2,862,experiment,71,←,left,←,0.9729131999774836,True,28,1
161M19S2,863,experiment,51,→,right,→,0.5804766999790445,True,28,1
161M19S2,864,experiment,98,↑,up,↑,0.6921579000190832,True,28,1
161M19S2,865,experiment,102,→,right,→,0.6226084000081755,True,28,1
161M19S2,866,experiment,68,←,left,←,0.4702857999945991,True,28,1
161M19S2,867,experiment,73,→,right,→,1.0029184999875724,True,28,1
161M19S2,868,experiment,60,←,left,←,0.5103763000224717,True,28,1
161M19S2,869,experiment,48,→,right,→,0.7457691000308841,True,28,1
161M19S2,870,experiment,96,←,left,←,0.6277177999727428,True,28,1
161M19S2,871,experiment,88,←,left,←,0.4848012999864295,True,28,1
161M19S2,872,experiment,91,↓,down,↓,0.7308155000209808,True,28,1
161M19S2,873,experiment,56,→,right,→,0.4988374999957159,True,28,1
161M19S2,874,experiment,67,↑,up,↑,0.6400105999782681,True,28,1
161M19S2,875,experiment,86,↓,down,↓,0.7613779000239447,True,28,1
161M19S2,876,experiment,83,←,left,←,0.7112584999995306,True,28,1
161M19S2,877,experiment,72,↓,down,↓,0.7465232000104152,True,28,1
161M19S2,878,experiment,85,↓,down,↓,0.8002349000307731,True,28,1
161M19S2,879,experiment,99,↓,down,↓,0.6229196999920532,True,28,1
161M19S2,880,experiment,54,↓,down,↓,0.6203560999711044,True,28,1
161M19S2,881,experiment,65,↓,down,↓,0.5091358000063337,True,28,1
161M19S2,882,experiment,95,→,down,↓,1.2487414999632165,False,28,1
161M19S2,883,experiment,108,↑,up,↑,0.9224015999934636,True,28,1
161M19S2,884,experiment,78,←,left,←,0.4991976000019349,True,28,1
161M19S2,885,experiment,97,→,right,→,0.7503781000268646,True,28,1
161M19S2,886,experiment,106,↑,up,↑,0.588951499958057,True,28,1
161M19S2,887,experiment,76,↑,up,↑,0.6514652000041679,True,28,1
161M19S2,888,experiment,70,↓,down,↓,0.9538608999573626,True,28,1
161M19S2,889,experiment,92,↑,up,↑,0.5725978999980725,True,28,1
161M19S2,890,experiment,55,↑,up,↑,0.5069543999852613,True,28,1
161M19S2,891,experiment,100,↑,up,↑,0.5815165000385605,True,28,1
161M19S2,892,experiment,53,→,right,→,0.8997476000222377,True,28,1
161M19S2,893,experiment,50,→,right,→,0.686804500001017,True,28,1
161M19S2,894,experiment,64,↑,right,→,1.373965099977795,False,28,1
161M19S2,895,experiment,89,←,left,←,0.5528057000483386,True,28,1
161M19S2,896,experiment,62,↓,down,↓,0.7980205999920145,True,28,1
161M19S2,897,experiment,69,←,left,←,0.6626562000019476,True,28,1
161M19S2,898,experiment,49,↓,down,↓,0.5553278000443242,True,28,1
161M19S2,899,experiment,104,↑,down,↓,1.6180413999827579,False,28,1
161M19S2,900,experiment,94,↑,up,↑,0.44159269996453077,True,28,1
161M19S2,901,experiment,81,→,right,→,0.8691104999743402,True,28,1
161M19S2,902,experiment,74,→,right,→,0.4810947999940254,True,28,1
161M19S2,903,experiment,63,↓,down,↓,0.7365301999961957,True,28,1
161M19S2,904,experiment,79,↑,up,↑,0.7845603000023402,True,28,1
161M19S2,905,experiment,58,→,up,↑,1.2136218000086956,False,28,1
161M19S2,906,experiment,82,←,left,←,0.721555600001011,True,28,1
161M19S2,907,experiment,101,→,right,→,0.6742238000151701,True,28,1
161M19S2,908,experiment,52,←,left,←,0.7016083000344224,True,28,1
161M19S2,909,experiment,107,←,left,←,0.6619590999907814,True,28,1
161M19S2,910,experiment,77,→,right,→,0.7216450000414625,True,28,1
161M19S2,911,experiment,105,↑,up,↑,0.7131749999825843,True,28,1
161M19S2,912,experiment,103,←,left,←,0.7696507999789901,True,28,1
161M19S2,913,experiment,80,↓,down,↓,0.6080240000155754,True,28,1
161M19S2,914,experiment,75,→,right,→,0.7185109999845736,True,28,1
161M19S2,915,experiment,57,→,right,→,0.7427508999826387,True,28,1
161M19S2,916,experiment,93,↑,up,↑,0.497871000028681,True,28,1
161M19S2,917,experiment,61,↓,down,↓,0.9290186000289395,True,28,1
161M19S2,918,experiment,66,↑,left,←,0.9175536999828182,False,28,1
161M19S2,919,experiment,87,→,right,→,0.6913481000228785,True,28,1
161M19S2,920,experiment,90,↑,up,↑,0.7213780999882147,True,28,1
161M19S2,921,experiment,59,→,right,→,0.880409499979578,True,28,1
161M19S2,922,experiment,84,↓,right,→,1.1606906999950297,False,28,1
161M19S2,923,training,87,↑,up,↑,0.5489697000011802,True,28,0
161M19S2,924,training,106,→,right,→,0.6510663999943063,True,28,1
161M19S2,925,experiment,89,↑,up,↑,0.44302910001715645,True,28,1
161M19S2,926,experiment,75,←,left,←,0.456101999967359,True,28,1
161M19S2,927,experiment,82,↓,down,↓,0.4501524000079371,True,28,1
161M19S2,928,experiment,68,↓,down,↓,0.5696031000115909,True,28,1
161M19S2,929,experiment,53,←,left,←,0.488565799954813,True,28,1
161M19S2,930,experiment,105,→,right,→,0.5699731000349857,True,28,1
161M19S2,931,experiment,65,→,right,→,0.429572900000494,True,28,1
161M19S2,932,experiment,103,→,right,→,0.5939100999967195,True,28,1
161M19S2,933,experiment,59,→,right,→,0.6941841000225395,True,28,1
161M19S2,934,experiment,71,←,left,←,0.43448799999896437,True,28,1
161M19S2,935,experiment,49,→,right,→,0.6004798999638297,True,28,1
161M19S2,936,experiment,70,↓,down,↓,0.417411100002937,True,28,1
161M19S2,937,experiment,99,↑,up,↑,0.4946071000304073,True,28,1
161M19S2,938,experiment,79,↑,up,↑,0.5683954000123776,True,28,1
161M19S2,939,experiment,60,←,left,←,0.7815226000384428,True,28,1
161M19S2,940,experiment,86,↓,down,↓,0.6170679000206292,True,28,1
161M19S2,941,experiment,72,↑,up,↑,0.632286700012628,True,28,1
161M19S2,942,experiment,106,←,left,←,0.6595481000258587,True,28,1
161M19S2,943,experiment,84,↑,up,↑,0.6606144999968819,True,28,1
161M19S2,944,experiment,108,↓,down,↓,0.5983137000002898,True,28,1
161M19S2,945,experiment,74,→,right,→,0.5330598000437021,True,28,1
161M19S2,946,experiment,51,↑,up,↑,0.5104015999822877,True,28,1
161M19S2,947,experiment,76,↓,down,↓,0.44849319994682446,True,28,1
161M19S2,948,experiment,98,↑,up,↑,0.7097407000255771,True,28,1
161M19S2,949,experiment,48,↑,up,↑,1.6090287000406533,True,28,1
161M19S2,950,experiment,58,→,right,→,0.7329540999489836,True,28,1
161M19S2,951,experiment,62,↑,up,↑,0.5626405999646522,True,28,1
161M19S2,952,experiment,91,↑,up,↑,0.7897306999657303,True,28,1
161M19S2,953,experiment,101,↓,down,↓,0.4840130999800749,True,28,1
161M19S2,954,experiment,61,→,right,→,0.7966182999662124,True,28,1
161M19S2,955,experiment,50,↓,down,↓,0.611316499998793,True,28,1
161M19S2,956,experiment,90,→,right,→,1.18851970002288,True,28,1
161M19S2,957,experiment,77,↓,down,↓,0.5948396999738179,True,28,1
161M19S2,958,experiment,93,↓,down,↓,0.5478648000280373,True,28,1
161M19S2,959,experiment,52,←,right,→,0.8288321000291035,False,28,1
161M19S2,960,experiment,81,↑,up,↑,0.728115500009153,True,28,1
161M19S2,961,experiment,80,↑,up,↑,0.5361105999909341,True,28,1
161M19S2,962,experiment,94,→,right,→,0.5551719999639317,True,28,1
161M19S2,963,experiment,92,↑,up,↑,0.5338725000037812,True,28,1
161M19S2,964,experiment,54,↓,down,↓,0.8142949999892153,True,28,1
161M19S2,965,experiment,67,→,right,→,0.4791401000111364,True,28,1
161M19S2,966,experiment,55,↓,down,↓,0.5054245999781415,True,28,1
161M19S2,967,experiment,69,←,left,←,0.8694153999676928,True,28,1
161M19S2,968,experiment,83,→,right,→,0.6788985999883153,True,28,1
161M19S2,969,experiment,96,↓,down,↓,0.915504599979613,True,28,1
161M19S2,970,experiment,87,←,left,←,0.46524399996269494,True,28,1
161M19S2,971,experiment,97,↑,up,↑,0.6860533999861218,True,28,1
161M19S2,972,experiment,78,→,up,↑,0.7764568999991752,False,28,1
161M19S2,973,experiment,66,↑,up,↑,0.659390400047414,True,28,1
161M19S2,974,experiment,100,←,left,←,0.7030265999492258,True,28,1
161M19S2,975,experiment,63,↑,up,↑,0.765883699990809,True,28,1
161M19S2,976,experiment,88,↑,up,↑,0.7454217000049539,True,28,1
161M19S2,977,experiment,57,↑,up,↑,0.7368259999784641,True,28,1
161M19S2,978,experiment,102,→,right,→,0.6088197000208311,True,28,1
161M19S2,979,experiment,95,↑,up,↑,0.5768500000122003,True,28,1
161M19S2,980,experiment,56,↓,down,↓,0.8068433000007644,True,28,1
161M19S2,981,experiment,64,↓,down,↓,0.6086255999980494,True,28,1
161M19S2,982,experiment,85,↑,up,↑,0.5077217999496497,True,28,1
161M19S2,983,experiment,73,↑,up,↑,0.6070476000313647,True,28,1
161M19S2,984,experiment,104,←,left,←,0.4674756999593228,True,28,1
161M19S2,985,experiment,107,↓,down,↓,0.6210786000010557,True,28,1
161M19S2,986,training,58,→,right,→,0.43868229998042807,True,28,0
161M19S2,987,training,53,↓,down,↓,0.587331400020048,True,28,1
161M19S2,988,experiment,90,→,right,→,0.5654362000059336,True,28,1
161M19S2,989,experiment,89,↑,up,↑,0.6408919999958016,True,28,1
161M19S2,990,experiment,51,↑,up,↑,0.4455722999991849,True,28,1
161M19S2,991,experiment,96,←,left,←,0.4832676000078209,True,28,1
161M19S2,992,experiment,108,→,right,→,0.4841485000215471,True,28,1
161M19S2,993,experiment,64,↓,down,↓,0.571019500028342,True,28,1
161M19S2,994,experiment,62,↓,down,↓,0.5114696999662556,True,28,1
161M19S2,995,experiment,77,↓,down,↓,0.48893150000367314,True,28,1
161M19S2,996,experiment,80,→,right,→,0.498320699960459,True,28,1
161M19S2,997,experiment,106,↓,down,↓,0.5387047999538481,True,28,1
161M19S2,998,experiment,56,↓,down,↓,0.6904158999677747,True,28,1
161M19S2,999,experiment,84,↓,left,←,1.0742665999568999,False,28,1
161M19S2,1000,experiment,76,→,right,→,0.581550300004892,True,28,1
161M19S2,1001,experiment,79,↑,up,↑,0.7396476000430994,True,28,1
161M19S2,1002,experiment,57,→,right,→,0.6907152999774553,True,28,1
161M19S2,1003,experiment,87,←,left,←,0.5856813999707811,True,28,1
161M19S2,1004,experiment,48,←,right,→,0.9306816000025719,False,28,1
161M19S2,1005,experiment,49,→,right,→,0.7804613999905996,True,28,1
161M19S2,1006,experiment,59,←,left,←,0.5692395999794826,True,28,1
161M19S2,1007,experiment,63,↑,up,↑,0.5969948999700136,True,28,1
161M19S2,1008,experiment,104,←,right,→,1.4660827000043355,False,28,1
161M19S2,1009,experiment,61,↓,down,↓,0.4346546999877319,True,28,1
161M19S2,1010,experiment,67,←,left,←,0.4673973000026308,True,28,1
161M19S2,1011,experiment,97,↓,down,↓,0.6079645999707282,True,28,1
161M19S2,1012,experiment,98,←,left,←,0.7584778000018559,True,28,1
161M19S2,1013,experiment,103,→,right,→,0.5890266000060365,True,28,1
161M19S2,1014,experiment,81,→,right,→,0.8263871999806724,True,28,1
161M19S2,1015,experiment,65,←,left,←,0.6352184000425041,True,28,1
161M19S2,1016,experiment,71,↓,down,↓,0.4980397999752313,True,28,1
161M19S2,1017,experiment,66,↓,down,↓,0.8077196999802254,True,28,1
161M19S2,1018,experiment,92,←,left,←,0.4966491999803111,True,28,1
161M19S2,1019,experiment,60,←,left,←,0.632502700027544,True,28,1
161M19S2,1020,experiment,72,→,no_key,no_letter,-1.0,False,28,1
161M19S2,1021,experiment,86,←,left,←,0.8059491000021808,True,28,1
161M19S2,1022,experiment,99,↑,up,↑,0.6922954000183381,True,28,1
161M19S2,1023,experiment,100,↑,up,↑,0.5270745999878272,True,28,1
161M19S2,1024,experiment,75,↓,down,↓,0.5366161999991164,True,28,1
161M19S2,1025,experiment,70,→,right,→,0.7317926000105217,True,28,1
161M19S2,1026,experiment,68,↑,up,↑,0.527324199967552,True,28,1
161M19S2,1027,experiment,85,→,right,→,0.7017383000347763,True,28,1
161M19S2,1028,experiment,52,→,right,→,0.672132000036072,True,28,1
161M19S2,1029,experiment,50,↑,up,↑,0.8843945999979042,True,28,1
161M19S2,1030,experiment,94,→,right,→,0.4651190000004135,True,28,1
161M19S2,1031,experiment,102,←,left,←,0.8843723000027239,True,28,1
161M19S2,1032,experiment,69,→,right,→,0.5856921999948099,True,28,1
161M19S2,1033,experiment,74,↑,up,↑,0.7533024000003934,True,28,1
161M19S2,1034,experiment,78,→,right,→,0.6250103000202216,True,28,1
161M19S2,1035,experiment,53,↓,up,↑,1.3901282000006177,False,28,1
161M19S2,1036,experiment,58,↓,down,↓,0.6669599000015296,True,28,1
161M19S2,1037,experiment,95,↓,right,→,1.680100500001572,False,28,1
161M19S2,1038,experiment,91,←,left,←,0.5261833000113256,True,28,1
161M19S2,1039,experiment,82,↑,up,↑,0.5654458000208251,True,28,1
161M19S2,1040,experiment,101,↓,down,↓,0.8135132000315934,True,28,1
161M19S2,1041,experiment,83,↑,up,↑,0.6561134000075981,True,28,1
161M19S2,1042,experiment,55,←,right,→,1.3396286999923177,False,28,1
161M19S2,1043,experiment,73,↑,up,↑,0.805134599970188,True,28,1
161M19S2,1044,experiment,88,↓,right,→,1.4628305000369437,False,28,1
161M19S2,1045,experiment,105,↑,up,↑,0.7131630000076257,True,28,1
161M19S2,1046,experiment,54,↓,down,↓,0.657896900025662,True,28,1
161M19S2,1047,experiment,93,↑,up,↑,0.5124140999978408,True,28,1
161M19S2,1048,experiment,107,←,left,←,0.4797676000162028,True,28,1
161M19S2,1049,training,63,↑,up,↑,0.5963286000187509,True,28,0
161M19S2,1050,training,70,↑,up,↑,0.5413145999773405,True,28,1
161M19S2,1051,experiment,48,→,right,→,0.6633638999774121,True,28,1
161M19S2,1052,experiment,73,↓,down,↓,0.5558158999774605,True,28,1
161M19S2,1053,experiment,62,↑,up,↑,0.6006687000044622,True,28,1
161M19S2,1054,experiment,70,→,right,→,0.5052866999758407,True,28,1
161M19S2,1055,experiment,94,←,left,←,0.6530358999734744,True,28,1
161M19S2,1056,experiment,82,←,left,←,0.5993415000266396,True,28,1
161M19S2,1057,experiment,106,→,right,→,0.6121233000303619,True,28,1
161M19S2,1058,experiment,107,↑,up,↑,0.5438135000295006,True,28,1
161M19S2,1059,experiment,99,←,right,→,1.2484666999662295,False,28,1
161M19S2,1060,experiment,72,←,left,←,0.45419640000909567,True,28,1
161M19S2,1061,experiment,89,↓,down,↓,0.6701128999702632,True,28,1
161M19S2,1062,experiment,105,←,left,←,0.5919042999739759,True,28,1
161M19S2,1063,experiment,108,↑,up,↑,0.6439365000114776,True,28,1
161M19S2,1064,experiment,66,→,right,→,0.4360673999763094,True,28,1
161M19S2,1065,experiment,53,↑,up,↑,0.8089781999588013,True,28,1
161M19S2,1066,experiment,60,↓,down,↓,0.6362109000328928,True,28,1
161M19S2,1067,experiment,50,↑,up,↑,0.7939325000043027,True,28,1
161M19S2,1068,experiment,90,↓,down,↓,0.6281577000045218,True,28,1
161M19S2,1069,experiment,77,↑,up,↑,0.6969216999714263,True,28,1
161M19S2,1070,experiment,54,↑,up,↑,0.8026506000314839,True,28,1
161M19S2,1071,experiment,57,↓,no_key,no_letter,-1.0,False,28,1
161M19S2,1072,experiment,96,→,right,→,0.4669774000067264,True,28,1
161M19S2,1073,experiment,102,↑,up,↑,0.502007799979765,True,28,1
161M19S2,1074,experiment,65,→,right,→,0.4680445999838412,True,28,1
161M19S2,1075,experiment,58,↓,down,↓,0.6778336999705061,True,28,1
161M19S2,1076,experiment,100,→,right,→,0.5054204000043683,True,28,1
161M19S2,1077,experiment,88,↑,up,↑,0.8155039000557736,True,28,1
161M19S2,1078,experiment,52,↑,up,↑,0.653350800042972,True,28,1
161M19S2,1079,experiment,76,→,right,→,0.641419899999164,True,28,1
161M19S2,1080,experiment,71,↓,down,↓,0.6960139999864623,True,28,1
161M19S2,1081,experiment,87,→,right,→,1.3745617999811657,True,28,1
161M19S2,1082,experiment,75,↑,right,→,1.374105700000655,False,28,1
161M19S2,1083,experiment,68,↓,down,↓,0.696105599985458,True,28,1
161M19S2,1084,experiment,101,↑,up,↑,0.474073400022462,True,28,1
161M19S2,1085,experiment,79,↑,up,↑,0.6524647999904118,True,28,1
161M19S2,1086,experiment,91,→,right,→,0.45184340002015233,True,28,1
161M19S2,1087,experiment,64,→,right,→,0.5403275000280701,True,28,1
161M19S2,1088,experiment,85,→,right,→,0.76999420003267,True,28,1
161M19S2,1089,experiment,97,↓,down,↓,0.6666551000089385,True,28,1
161M19S2,1090,experiment,80,→,right,→,0.4609937000204809,True,28,1
161M19S2,1091,experiment,103,↑,up,↑,0.6328247000346892,True,28,1
161M19S2,1092,experiment,84,→,right,→,0.6906535999733023,True,28,1
161M19S2,1093,experiment,55,→,right,→,0.5401636000024155,True,28,1
161M19S2,1094,experiment,98,→,right,→,0.6218696000287309,True,28,1
161M19S2,1095,experiment,61,←,left,←,0.6640726999612525,True,28,1
161M19S2,1096,experiment,49,↓,down,↓,0.5887956999940798,True,28,1
161M19S2,1097,experiment,83,→,right,→,0.5691707999794744,True,28,1
161M19S2,1098,experiment,78,↓,down,↓,0.48821979999775067,True,28,1
161M19S2,1099,experiment,95,→,right,→,0.5969578000367619,True,28,1
161M19S2,1100,experiment,67,←,left,←,0.5020590999629349,True,28,1
161M19S2,1101,experiment,59,←,left,←,0.45409930002642795,True,28,1
161M19S2,1102,experiment,69,↑,up,↑,0.5405405999626964,True,28,1
161M19S2,1103,experiment,93,↑,up,↑,0.9115520000341348,True,28,1
161M19S2,1104,experiment,104,↑,up,↑,0.7362665999680758,True,28,1
161M19S2,1105,experiment,56,↓,down,↓,0.4239765000529587,True,28,1
161M19S2,1106,experiment,81,↑,up,↑,0.8839070000103675,True,28,1
161M19S2,1107,experiment,63,←,left,←,0.4031381999957375,True,28,1
161M19S2,1108,experiment,86,↓,down,↓,0.6300401999615133,True,28,0
161M19S2,1109,experiment,51,→,right,→,0.6433418999658898,True,28,1
161M19S2,1110,experiment,92,←,left,←,0.9705849000019953,True,28,1
161M19S2,1111,experiment,74,→,right,→,0.6270455999765545,True,28,1
161M19S2,1112,training,62,↑,up,↑,0.6413742000004277,True,28,0
161M19S2,1113,training,57,↑,up,↑,0.5244551000068896,True,28,1
161M19S2,1114,experiment,74,→,right,→,0.5104929999797605,True,28,1
161M19S2,1115,experiment,81,↓,down,↓,0.46283809997839853,True,28,1
161M19S2,1116,experiment,95,↑,up,↑,0.4610274999868125,True,28,1
161M19S2,1117,experiment,90,→,right,→,0.42021130002103746,True,28,1
161M19S2,1118,experiment,60,→,right,→,0.4068305999971926,True,28,1
161M19S2,1119,experiment,68,→,right,→,0.847761899989564,True,28,0
161M19S2,1120,experiment,73,←,left,←,0.5572764000389725,True,28,1
161M19S2,1121,experiment,75,←,left,←,0.4453693000250496,True,28,1
161M19S2,1122,experiment,62,↑,up,↑,0.8546083000255749,True,28,1
161M19S2,1123,experiment,98,↑,right,→,1.2515030999784358,False,28,1
161M19S2,1124,experiment,100,←,left,←,0.7118799000163563,True,28,1
161M19S2,1125,experiment,76,←,left,←,0.7537938000168651,True,28,1
161M19S2,1126,experiment,102,↑,right,→,0.8412778999772854,False,28,1
161M19S2,1127,experiment,61,→,right,→,0.6348640999640338,True,28,1
161M19S2,1128,experiment,65,←,left,←,0.7874343000003137,True,28,1
161M19S2,1129,experiment,108,↑,right,→,0.7037449000054039,False,28,1
161M19S2,1130,experiment,105,↑,up,↑,0.6563423000043258,True,28,1
161M19S2,1131,experiment,106,↑,right,→,1.3862809999845922,False,28,1
161M19S2,1132,experiment,96,↓,up,↑,0.8744527999660932,False,28,1
161M19S2,1133,experiment,67,↓,down,↓,0.7291361000388861,True,28,1
161M19S2,1134,experiment,84,→,right,→,0.5752332999836653,True,28,1
161M19S2,1135,experiment,53,←,right,→,1.430244000046514,False,28,1
161M19S2,1136,experiment,89,→,right,→,0.510917600011453,True,28,1
161M19S2,1137,experiment,107,↑,up,↑,0.4467501000035554,True,28,1
161M19S2,1138,experiment,99,↑,up,↑,0.5475825000321493,True,28,1
161M19S2,1139,experiment,54,→,right,→,0.6997072999947704,True,28,1
161M19S2,1140,experiment,79,↓,down,↓,0.5488023000070825,True,28,1
161M19S2,1141,experiment,80,↓,down,↓,0.6598288999521174,True,28,1
161M19S2,1142,experiment,72,↓,down,↓,0.62563379999483,True,28,1
161M19S2,1143,experiment,101,→,right,→,1.2945177999790758,True,28,1
161M19S2,1144,experiment,70,↓,down,↓,0.4748581000021659,True,28,1
161M19S2,1145,experiment,64,↓,down,↓,0.46658209996530786,True,28,1
161M19S2,1146,experiment,59,←,left,←,1.0598356000264175,True,28,1
161M19S2,1147,experiment,71,←,left,←,0.49788550002267584,True,28,1
161M19S2,1148,experiment,57,→,right,→,0.5143387000425719,True,28,1
161M19S2,1149,experiment,92,←,left,←,0.4464719999814406,True,28,1
161M19S2,1150,experiment,82,↑,up,↑,0.7689746999531053,True,28,1
161M19S2,1151,experiment,50,↓,down,↓,0.6257433000137098,True,28,1
161M19S2,1152,experiment,91,↓,down,↓,0.8900738999946043,True,28,1
161M19S2,1153,experiment,49,→,right,→,1.0294682999956422,True,28,1
161M19S2,1154,experiment,77,→,right,→,0.7066321999882348,True,28,1
161M19S2,1155,experiment,52,→,right,→,0.5405740999849513,True,28,1
161M19S2,1156,experiment,58,←,left,←,0.9472466000006534,True,28,1
161M19S2,1157,experiment,51,→,right,→,0.588210399961099,True,28,1
161M19S2,1158,experiment,55,↑,down,↓,0.9696745999972336,False,28,1
161M19S2,1159,experiment,66,↓,right,→,1.0210960999829695,False,28,1
161M19S2,1160,experiment,85,↓,down,↓,0.647390500002075,True,28,1
161M19S2,1161,experiment,56,→,right,→,0.49042410001857206,True,28,1
161M19S2,1162,experiment,86,↑,right,→,0.8179196999990381,False,28,1
161M19S2,1163,experiment,48,←,left,←,1.0410981999593787,True,28,1
161M19S2,1164,experiment,103,↑,up,↑,0.7805762000498362,True,28,1
161M19S2,1165,experiment,88,←,left,←,0.5359424000489525,True,28,1
161M19S2,1166,experiment,83,←,left,←,0.5103993999655358,True,28,1
161M19S2,1167,experiment,87,↓,down,↓,0.7326534999883734,True,28,1
161M19S2,1168,experiment,69,↑,up,↑,0.5120266000158153,True,28,1
161M19S2,1169,experiment,97,↑,up,↑,0.8275228000129573,True,28,1
161M19S2,1170,experiment,78,→,right,→,0.5999174999888055,True,28,1
161M19S2,1171,experiment,93,←,left,←,1.3768664000090212,True,28,1
161M19S2,1172,experiment,104,←,left,←,1.21442069998011,True,28,1
161M19S2,1173,experiment,94,↑,up,↑,0.6624848999781534,True,28,1
161M19S2,1174,experiment,63,←,right,→,1.0461987999733537,False,28,1
161M19S2,1175,training,102,←,left,←,0.6229002000181936,True,28,0
161M19S2,1176,training,79,↓,down,↓,0.6670903000049293,True,28,1
161M19S2,1177,experiment,64,↑,up,↑,0.6590895999688655,True,28,1
161M19S2,1178,experiment,66,→,left,←,0.6906616000342183,False,28,1
161M19S2,1179,experiment,106,←,left,←,0.6031190999783576,True,28,1
161M19S2,1180,experiment,75,←,left,←,0.6495431000366807,True,28,1
161M19S2,1181,experiment,58,←,left,←,0.5802443000138737,True,28,1
161M19S2,1182,experiment,52,↓,down,↓,0.6110868999967352,True,28,1
161M19S2,1183,experiment,96,↓,down,↓,0.5467031999723986,True,28,1
161M19S2,1184,experiment,108,↓,right,→,1.2644484000047669,False,28,1
161M19S2,1185,experiment,85,→,right,→,0.5532794999890029,True,28,1
161M19S2,1186,experiment,102,↑,up,↑,0.7367692000116222,True,28,1
161M19S2,1187,experiment,100,↑,up,↑,0.5938217000220902,True,28,1
161M19S2,1188,experiment,50,←,left,←,0.6011787000461482,True,28,1
161M19S2,1189,experiment,53,→,right,→,0.4475908000022173,True,28,1
161M19S2,1190,experiment,107,↓,down,↓,1.2895946000353433,True,28,1
161M19S2,1191,experiment,69,↓,down,↓,0.6465969999553636,True,28,1
161M19S2,1192,experiment,92,↓,right,→,1.0137568000354804,False,28,1
161M19S2,1193,experiment,49,↓,down,↓,0.9884277999517508,True,28,1
161M19S2,1194,experiment,97,←,left,←,0.6522035999805667,True,28,1
161M19S2,1195,experiment,70,↑,up,↑,0.6667981999926269,True,28,1
161M19S2,1196,experiment,48,↑,up,↑,0.5597303999820724,True,28,1
161M19S2,1197,experiment,95,↓,down,↓,0.6653995999949984,True,28,1
161M19S2,1198,experiment,77,↑,up,↑,0.6846605000318959,True,28,1
161M19S2,1199,experiment,71,→,right,→,0.6893189999973401,True,28,1
161M19S2,1200,experiment,89,↓,down,↓,0.6957085000467487,True,28,1
161M19S2,1201,experiment,94,←,left,←,0.7000928000197746,True,28,1
161M19S2,1202,experiment,90,→,right,→,0.4897184000001289,True,28,1
161M19S2,1203,experiment,88,↑,up,↑,0.8164633000269532,True,28,1
161M19S2,1204,experiment,54,↓,down,↓,0.9575570999877527,True,28,1
161M19S2,1205,experiment,81,→,right,→,0.46007620001910254,True,28,1
161M19S2,1206,experiment,104,←,left,←,0.6865913000074215,True,28,1
161M19S2,1207,experiment,79,↓,down,↓,0.8647043000091799,True,28,1
161M19S2,1208,experiment,93,↑,up,↑,0.6226354000391439,True,28,1
161M19S2,1209,experiment,87,↓,down,↓,0.6244523000204936,True,28,1
161M19S2,1210,experiment,103,↓,down,↓,0.4926800000248477,True,28,1
161M19S2,1211,experiment,65,↑,down,↓,1.251514400006272,False,28,1
161M19S2,1212,experiment,61,↓,down,↓,0.8044346999959089,True,28,1
161M19S2,1213,experiment,62,↑,up,↑,0.6791842000093311,True,28,1
161M19S2,1214,experiment,86,→,right,→,0.5748281999840401,True,28,1
161M19S2,1215,experiment,84,←,left,←,0.4916236000135541,True,28,1
161M19S2,1216,experiment,55,↑,up,↑,0.8933488000184298,True,28,1
161M19S2,1217,experiment,72,↑,up,↑,0.7376915999921039,True,28,1
161M19S2,1218,experiment,59,→,right,→,0.583811099990271,True,28,1
161M19S2,1219,experiment,99,↑,up,↑,0.5111044999794103,True,28,1
161M19S2,1220,experiment,83,→,right,→,0.7188328999909572,True,28,1
161M19S2,1221,experiment,82,↑,up,↑,0.5185588000458665,True,28,1
161M19S2,1222,experiment,73,↓,down,↓,0.5133194000227377,True,28,1
161M19S2,1223,experiment,63,←,left,←,0.551406999991741,True,28,1
161M19S2,1224,experiment,105,↓,left,←,1.0142810000106692,False,28,1
161M19S2,1225,experiment,57,←,left,←,0.4586241000215523,True,28,1
161M19S2,1226,experiment,67,↓,down,↓,0.47357120004016906,True,28,1
161M19S2,1227,experiment,78,←,right,→,0.9641952999518253,False,28,1
161M19S2,1228,experiment,74,←,left,←,0.7324731000117026,True,28,1
161M19S2,1229,experiment,68,↑,up,↑,0.7123217000043951,True,28,1
161M19S2,1230,experiment,60,→,right,→,0.6471208000439219,True,28,1
161M19S2,1231,experiment,56,→,right,→,0.47418880002805963,True,28,1
161M19S2,1232,experiment,91,↓,down,↓,0.7612494999775663,True,28,1
161M19S2,1233,experiment,101,↓,down,↓,0.4244346000486985,True,28,1
161M19S2,1234,experiment,76,←,right,→,1.1976546999649145,False,28,1
161M19S2,1235,experiment,98,←,left,←,0.47655189997749403,True,28,1
161M19S2,1236,experiment,80,↓,right,→,0.774685500015039,False,28,1
161M19S2,1237,experiment,51,←,left,←,0.510441999998875,True,28,1
161M19S2,1238,training,64,↓,down,↓,0.5388369999709539,True,28,0
161M19S2,1239,training,108,→,right,→,0.5208494000253268,True,28,1
161M19S2,1240,experiment,81,←,left,←,0.5445698999683373,True,28,1
161M19S2,1241,experiment,104,→,right,→,0.5201709999819286,True,28,1
161M19S2,1242,experiment,77,↑,up,↑,0.569632799946703,True,28,1
161M19S2,1243,experiment,84,←,left,←,0.7024008000153117,True,28,1
161M19S2,1244,experiment,107,↓,down,↓,0.7346006000298075,True,28,1
161M19S2,1245,experiment,102,↑,up,↑,0.6067678999970667,True,28,1
161M19S2,1246,experiment,55,←,right,→,1.0438043999602087,False,28,1
161M19S2,1247,experiment,79,→,right,→,0.6399214999983087,True,28,1
161M19S2,1248,experiment,57,←,left,←,0.8985693999566138,True,28,1
161M19S2,1249,experiment,53,→,right,→,0.7486747000366449,True,28,1
161M19S2,1250,experiment,83,↓,down,↓,0.8186572000267915,True,28,1
161M19S2,1251,experiment,69,→,right,→,1.0111123999813572,True,28,1
161M19S2,1252,experiment,49,↓,right,→,1.3937459000153467,False,28,1
161M19S2,1253,experiment,80,↓,down,↓,0.46341570001095533,True,28,1
161M19S2,1254,experiment,63,↑,up,↑,0.4391539000207558,True,28,1
161M19S2,1255,experiment,93,←,right,→,0.9344235999742523,False,28,1
161M19S2,1256,experiment,108,←,left,←,0.613201999978628,True,28,1
161M19S2,1257,experiment,51,←,left,←,0.6189398000133224,True,28,1
161M19S2,1258,experiment,60,←,left,←,1.00615019997349,True,28,1
161M19S2,1259,experiment,62,↓,down,↓,0.5849422999890521,True,28,1
161M19S2,1260,experiment,76,←,left,←,0.7916966999764554,True,28,1
161M19S2,1261,experiment,56,→,right,→,1.1573697999701835,True,28,1
161M19S2,1262,experiment,89,↑,up,↑,0.5930741000338458,True,28,1
161M19S2,1263,experiment,50,→,right,→,0.5365003000479192,True,28,1
161M19S2,1264,experiment,86,↓,right,→,0.974135100026615,False,28,1
161M19S2,1265,experiment,91,↑,right,→,1.5282918000011705,False,28,1
161M19S2,1266,experiment,88,↑,up,↑,0.7335037000011653,True,28,1
161M19S2,1267,experiment,98,↓,down,↓,0.6472011000150815,True,28,1
161M19S2,1268,experiment,73,→,right,→,1.27656329999445,True,28,1
161M19S2,1269,experiment,64,→,right,→,0.5318712000153027,True,28,1
161M19S2,1270,experiment,85,←,left,←,0.6423128000460565,True,28,1
161M19S2,1271,experiment,48,←,left,←,0.5840743000153452,True,28,1
161M19S2,1272,experiment,103,↑,up,↑,0.9744112999760546,True,28,1
161M19S2,1273,experiment,96,→,right,→,0.7512755999923684,True,28,1
161M19S2,1274,experiment,52,←,left,←,0.7912642000010237,True,28,1
161M19S2,1275,experiment,74,←,left,←,0.5023643999593332,True,28,1
161M19S2,1276,experiment,92,↓,down,↓,0.6834281999617815,True,28,1
161M19S2,1277,experiment,70,↑,up,↑,0.5925630999845453,True,28,1
161M19S2,1278,experiment,100,←,up,↑,0.9834550000377931,False,28,1
161M19S2,1279,experiment,72,↑,up,↑,0.49562619999051094,True,28,1
161M19S2,1280,experiment,106,→,right,→,0.5600653999717906,True,28,1
161M19S2,1281,experiment,95,↓,down,↓,0.9696587999933399,True,28,1
161M19S2,1282,experiment,87,→,right,→,0.5096892999717966,True,28,1
161M19S2,1283,experiment,61,←,left,←,0.8852213000063784,True,28,1
161M19S2,1284,experiment,101,→,right,→,0.5113876999821514,True,28,1
161M19S2,1285,experiment,59,↓,down,↓,0.6952459000167437,True,28,1
161M19S2,1286,experiment,58,→,right,→,0.47190830000909045,True,28,1
161M19S2,1287,experiment,68,→,right,→,0.7980873999767937,True,28,1
161M19S2,1288,experiment,99,→,right,→,0.47699070000089705,True,28,1
161M19S2,1289,experiment,90,←,left,←,0.3840273999958299,True,28,1
161M19S2,1290,experiment,71,↓,down,↓,0.5399160000379197,True,28,0
161M19S2,1291,experiment,54,↓,down,↓,1.3160005999961868,True,28,1
161M19S2,1292,experiment,105,↑,up,↑,0.7081115000182763,True,28,1
161M19S2,1293,experiment,67,↑,up,↑,0.47284230001969263,True,28,1
161M19S2,1294,experiment,75,↓,down,↓,1.0928322999970987,True,28,1
161M19S2,1295,experiment,78,→,right,→,1.2948215000214987,True,28,1
161M19S2,1296,experiment,97,↓,down,↓,0.7865772999939509,True,28,1
161M19S2,1297,experiment,94,→,right,→,0.5633106000022963,True,28,1
161M19S2,1298,experiment,82,↑,up,↑,0.849375499994494,True,28,1
161M19S2,1299,experiment,66,↓,down,↓,0.9447681999881752,True,28,1
161M19S2,1300,experiment,65,↑,up,↑,0.5331377999973483,True,28,1
161M19S2,1301,training,71,↑,up,↑,0.49442699999781325,True,28,0
161M19S2,1302,training,62,↑,up,↑,0.5498114000074565,True,28,1
161M19S2,1303,experiment,68,↓,down,↓,0.6493181999539956,True,28,1
161M19S2,1304,experiment,59,←,left,←,0.5390636000083759,True,28,1
161M19S2,1305,experiment,80,↑,up,↑,0.738618899951689,True,28,1
161M19S2,1306,experiment,93,↑,up,↑,0.8302298000198789,True,28,1
161M19S2,1307,experiment,57,↓,down,↓,0.7614702000282705,True,28,1
161M19S2,1308,experiment,61,→,right,→,0.694312900013756,True,28,1
161M19S2,1309,experiment,104,←,left,←,1.2236501000006683,True,28,1
161M19S2,1310,experiment,107,↓,down,↓,0.5786951999762096,True,28,1
161M19S2,1311,experiment,103,←,left,←,0.881093800009694,True,28,1
161M19S2,1312,experiment,56,←,left,←,0.7787563999881968,True,28,1
161M19S2,1313,experiment,83,→,right,→,0.9595089999493212,True,28,1
161M19S2,1314,experiment,52,↑,up,↑,0.8633485999889672,True,28,1
161M19S2,1315,experiment,108,→,right,→,0.8324589999974705,True,28,1
161M19S2,1316,experiment,102,↑,up,↑,0.7408461999730207,True,28,1
161M19S2,1317,experiment,96,↓,down,↓,1.1746914999675937,True,28,1
161M19S2,1318,experiment,106,↓,down,↓,0.4762919999775477,True,28,1
161M19S2,1319,experiment,48,→,right,→,0.6086367000243627,True,28,1
161M19S2,1320,experiment,74,→,right,→,0.7834869000362232,True,28,1
161M19S2,1321,experiment,71,←,left,←,1.056499400001485,True,28,1
161M19S2,1322,experiment,82,←,left,←,1.1861343999626115,True,28,1
161M19S2,1323,experiment,51,↑,up,↑,0.9296924999798648,True,28,1
161M19S2,1324,experiment,67,←,left,←,0.4856891999952495,True,28,1
161M19S2,1325,experiment,62,→,right,→,0.6372856000089087,True,28,1
161M19S2,1326,experiment,88,→,right,→,0.7583139999769628,True,28,1
161M19S2,1327,experiment,97,↑,up,↑,0.7355360999936238,True,28,1
161M19S2,1328,experiment,49,↑,up,↑,1.0976590999634936,True,28,1
161M19S2,1329,experiment,78,↑,up,↑,0.747284600045532,True,28,1
161M19S2,1330,experiment,86,↑,up,↑,0.5520895000081509,True,28,1
161M19S2,1331,experiment,50,←,left,←,0.6891117000486702,True,28,1
161M19S2,1332,experiment,75,→,left,←,0.7962491000071168,False,28,1
161M19S2,1333,experiment,55,→,right,→,0.5699616000056267,True,28,1
161M19S2,1334,experiment,89,→,right,→,0.5333075999515131,True,28,1
161M19S2,1335,experiment,94,↓,down,↓,0.7524041999713518,True,28,1
161M19S2,1336,experiment,54,←,left,←,0.5361790000461042,True,28,1
161M19S2,1337,experiment,58,←,left,←,0.599196299968753,True,28,1
161M19S2,1338,experiment,100,↓,down,↓,0.645674700033851,True,28,1
161M19S2,1339,experiment,95,↑,down,↓,0.7475972999818623,False,28,1
161M19S2,1340,experiment,53,→,right,→,0.6116836000001058,True,28,1
161M19S2,1341,experiment,105,→,right,→,0.7760803000419401,True,28,1
161M19S2,1342,experiment,76,↑,up,↑,1.3758104000007734,True,28,1
161M19S2,1343,experiment,84,←,left,←,0.5399906000238843,True,28,1
161M19S2,1344,experiment,69,←,left,←,0.5510937999933958,True,28,1
161M19S2,1345,experiment,85,→,right,→,0.6523878999869339,True,28,1
161M19S2,1346,experiment,66,↓,down,↓,0.6606394000118598,True,28,1
161M19S2,1347,experiment,79,←,left,←,1.10320650000358,True,28,1
161M19S2,1348,experiment,81,←,left,←,0.6718913000077009,True,28,1
161M19S2,1349,experiment,60,→,right,→,0.576854299986735,True,28,1
161M19S2,1350,experiment,87,→,right,→,0.8043889999971725,True,28,1
161M19S2,1351,experiment,99,←,left,←,1.2590787000372075,True,28,1
161M19S2,1352,experiment,70,→,right,→,0.44865949999075383,True,28,1
161M19S2,1353,experiment,64,←,right,→,0.7054670000215992,False,28,1
161M19S2,1354,experiment,90,→,right,→,0.7584384999936447,True,28,1
161M19S2,1355,experiment,65,←,left,←,0.46612050000112504,True,28,1
161M19S2,1356,experiment,73,←,left,←,0.5592091999715194,True,28,1
161M19S2,1357,experiment,72,↓,right,→,0.7124239000258967,False,28,1
161M19S2,1358,experiment,101,←,left,←,0.7456967000034638,True,28,1
161M19S2,1359,experiment,92,↑,up,↑,0.676723700016737,True,28,1
161M19S2,1360,experiment,77,↓,down,↓,1.1601505000144243,True,28,1
161M19S2,1361,experiment,63,→,right,→,0.62010790000204,True,28,1
161M19S2,1362,experiment,91,←,left,←,0.573027300008107,True,28,1
161M19S2,1363,experiment,98,→,left,←,0.7889095999998972,False,28,1
