PART_ID,Trial_no,Trial_type,CSI,Stim_letter,Key_pressed,letter_choose,Rt,Corr,Stimulus Time,nDropped
161M19S3,1,training,120,↓,down,↓,1.3712129998020828,True,60,0
161M19S3,2,training,120,↑,up,↑,0.9792372998781502,True,60,0
161M19S3,3,training,120,↑,up,↑,1.3952608001418412,True,60,0
161M19S3,4,training,120,←,left,←,0.8263705000281334,True,60,0
161M19S3,5,training,120,→,right,→,0.7842652001418173,True,60,0
161M19S3,6,training,120,→,right,→,0.9287443999201059,True,60,0
161M19S3,7,training,120,↓,down,↓,1.0099023999646306,True,60,0
161M19S3,8,training,120,←,left,←,0.8967271000146866,True,60,0
161M19S3,9,training,120,←,left,←,0.8039434999227524,True,60,0
161M19S3,10,training,120,←,left,←,1.202880899887532,True,60,0
161M19S3,11,training,120,↓,down,↓,0.7376311998814344,True,60,0
161M19S3,12,training,120,↑,up,↑,0.9235036997124553,True,60,0
161M19S3,13,training,120,→,right,→,0.8050287999212742,True,60,0
161M19S3,14,training,120,↑,up,↑,0.8839270998723805,True,60,0
161M19S3,15,training,120,←,left,←,0.9278718000277877,True,60,0
161M19S3,16,training,120,→,right,→,0.7696619997732341,True,60,0
161M19S3,17,training,120,←,left,←,0.8258437998592854,True,60,0
161M19S3,18,training,120,↓,down,↓,0.767877200152725,True,60,0
161M19S3,19,training,120,←,left,←,0.8405920998193324,True,60,0
161M19S3,20,training,120,↓,right,→,1.085831199772656,False,60,0
161M19S3,21,no_adaptation,120,←,left,←,0.6485831001773477,True,36,0
161M19S3,22,no_adaptation,120,↑,up,↑,0.5976399998180568,True,36,0
161M19S3,23,no_adaptation,120,↑,up,↑,0.7248029997572303,True,36,0
161M19S3,24,no_adaptation,120,→,right,→,0.679003800265491,True,36,0
161M19S3,25,no_adaptation,120,↓,down,↓,0.7230394999496639,True,36,0
161M19S3,26,no_adaptation,120,→,right,→,0.6690381001681089,True,36,0
161M19S3,27,no_adaptation,120,←,left,←,0.7052686000242829,True,36,0
161M19S3,28,no_adaptation,120,←,left,←,0.6680471999570727,True,36,0
161M19S3,29,no_adaptation,120,→,right,→,0.6567572997882962,True,36,0
161M19S3,30,no_adaptation,120,→,right,→,0.605421899817884,True,36,0
161M19S3,31,no_adaptation,120,→,right,→,0.6125038000755012,True,36,0
161M19S3,32,no_adaptation,120,↑,up,↑,0.7787878001108766,True,36,0
161M19S3,33,no_adaptation,120,←,left,←,0.6427315999753773,True,36,0
161M19S3,34,no_adaptation,120,←,left,←,0.7363347001373768,True,36,0
161M19S3,35,no_adaptation,120,↑,up,↑,0.6175536997616291,True,36,0
161M19S3,36,no_adaptation,120,↓,down,↓,0.8804867998696864,True,36,0
161M19S3,37,no_adaptation,120,→,right,→,0.716002400033176,True,36,0
161M19S3,38,no_adaptation,120,↑,up,↑,0.6867367001250386,True,36,0
161M19S3,39,no_adaptation,120,↓,down,↓,0.9222307000309229,True,36,0
161M19S3,40,no_adaptation,120,↑,up,↑,0.8041950999759138,True,36,0
161M19S3,41,training,55,→,right,→,0.6451723002828658,True,36,0
161M19S3,42,training,66,←,left,←,0.5411698003299534,True,36,1
161M19S3,43,experiment,92,↓,down,↓,0.6644904003478587,True,36,1
161M19S3,44,experiment,105,←,left,←,0.6108192000538111,True,36,1
161M19S3,45,experiment,53,↓,down,↓,0.6643052999861538,True,36,1
161M19S3,46,experiment,60,←,left,←,0.5933606000617146,True,36,1
161M19S3,47,experiment,70,↓,down,↓,0.6579573000781238,True,36,1
161M19S3,48,experiment,87,←,left,←,0.6186559000052512,True,36,1
161M19S3,49,experiment,83,→,right,→,0.6538676000200212,True,36,1
161M19S3,50,experiment,102,←,left,←,0.5695326998829842,True,36,1
161M19S3,51,experiment,52,↓,down,↓,0.6092995996586978,True,36,1
161M19S3,52,experiment,68,↑,up,↑,0.8179693999700248,True,36,1
161M19S3,53,experiment,101,→,right,→,0.6952569000422955,True,36,1
161M19S3,54,experiment,97,↑,up,↑,0.5391898001544178,True,36,1
161M19S3,55,experiment,58,→,right,→,0.5938673000782728,True,36,1
161M19S3,56,experiment,50,←,left,←,0.6333100004121661,True,36,1
161M19S3,57,experiment,100,←,left,←,0.6142699997872114,True,36,1
161M19S3,58,experiment,93,→,right,→,0.5903615998104215,True,36,1
161M19S3,59,experiment,104,↓,down,↓,0.6356378998607397,True,36,1
161M19S3,60,experiment,94,→,right,→,0.6186485001817346,True,36,1
161M19S3,61,experiment,74,→,right,→,0.5851108999922872,True,36,1
161M19S3,62,experiment,106,←,left,←,0.5901162996888161,True,36,1
161M19S3,63,experiment,78,←,left,←,0.6444409997202456,True,36,1
161M19S3,64,experiment,56,→,right,→,0.7116772998124361,True,36,1
161M19S3,65,experiment,63,↑,up,↑,0.7419320000335574,True,36,1
161M19S3,66,experiment,71,↑,up,↑,0.680647499859333,True,36,1
161M19S3,67,experiment,107,→,right,→,0.5690695000812411,True,36,1
161M19S3,68,experiment,84,↑,up,↑,0.7500591999851167,True,36,1
161M19S3,69,experiment,48,←,left,←,0.5838616997934878,True,36,1
161M19S3,70,experiment,82,↑,up,↑,0.6049034004099667,True,36,1
161M19S3,71,experiment,54,↓,down,↓,0.5785738998092711,True,36,1
161M19S3,72,experiment,64,←,left,←,0.5977837000973523,True,36,1
161M19S3,73,experiment,85,↑,up,↑,0.5372514999471605,True,36,1
161M19S3,74,experiment,75,←,left,←,0.6985317999497056,True,36,1
161M19S3,75,experiment,76,←,left,←,0.6929097999818623,True,36,1
161M19S3,76,experiment,69,↑,up,↑,0.641930699814111,True,36,1
161M19S3,77,experiment,59,↓,up,↑,1.1084069996140897,False,36,1
161M19S3,78,experiment,65,↓,down,↓,0.6980138001963496,True,36,1
161M19S3,79,experiment,77,↓,down,↓,0.6600827998481691,True,36,1
161M19S3,80,experiment,99,→,right,→,0.6803957000374794,True,36,1
161M19S3,81,experiment,91,←,left,←,0.574401100166142,True,36,1
161M19S3,82,experiment,51,→,right,→,0.5742456000298262,True,36,1
161M19S3,83,experiment,73,↓,down,↓,0.566584900021553,True,36,1
161M19S3,84,experiment,55,↑,up,↑,0.7653930997475982,True,36,1
161M19S3,85,experiment,81,↑,up,↑,0.7474744999781251,True,36,1
161M19S3,86,experiment,108,→,right,→,0.5690480000339448,True,36,1
161M19S3,87,experiment,61,↓,down,↓,0.5897920001298189,True,36,1
161M19S3,88,experiment,62,→,right,→,0.529276099987328,True,36,1
161M19S3,89,experiment,95,↓,down,↓,0.5159586002118886,True,36,1
161M19S3,90,experiment,86,←,left,←,0.6744029000401497,True,36,1
161M19S3,91,experiment,57,↓,down,↓,0.5961072999052703,True,36,1
161M19S3,92,experiment,88,↑,up,↑,0.6384978001005948,True,36,1
161M19S3,93,experiment,67,←,left,←,0.574161000084132,True,36,1
161M19S3,94,experiment,80,↑,up,↑,0.5962300999090075,True,36,1
161M19S3,95,experiment,66,↓,down,↓,0.7741013998165727,True,36,1
161M19S3,96,experiment,49,↓,down,↓,0.7586759002879262,True,36,1
161M19S3,97,experiment,90,→,right,→,0.5457135997712612,True,36,1
161M19S3,98,experiment,79,↓,down,↓,0.7291748002171516,True,36,1
161M19S3,99,experiment,89,←,left,←,0.5818068003281951,True,36,1
161M19S3,100,experiment,98,←,left,←,0.557808700017631,True,36,1
161M19S3,101,experiment,103,↓,down,↓,0.6845212997868657,True,36,1
161M19S3,102,experiment,96,↓,down,↓,0.880942499730736,True,36,1
161M19S3,103,experiment,72,←,left,←,0.5895585999824107,True,36,1
161M19S3,104,training,51,→,right,→,0.6680650999769568,True,35,0
161M19S3,105,training,92,↓,down,↓,0.5625674002803862,True,35,1
161M19S3,106,experiment,95,→,right,→,0.532160900067538,True,35,1
161M19S3,107,experiment,98,↑,up,↑,0.7178940996527672,True,35,1
161M19S3,108,experiment,68,←,left,←,0.6742314002476633,True,35,1
161M19S3,109,experiment,79,←,left,←,0.5646625999361277,True,35,1
161M19S3,110,experiment,55,↑,up,↑,0.7474258001893759,True,35,1
161M19S3,111,experiment,88,↓,down,↓,0.655746600124985,True,35,1
161M19S3,112,experiment,51,↓,down,↓,0.620146700181067,True,35,1
161M19S3,113,experiment,96,↑,up,↑,0.8111939998343587,True,35,1
161M19S3,114,experiment,94,↓,down,↓,0.6671568001620471,True,35,1
161M19S3,115,experiment,90,→,right,→,0.7142626000568271,True,35,1
161M19S3,116,experiment,101,→,right,→,1.6915408000349998,True,35,1
161M19S3,117,experiment,97,↑,up,↑,0.7351838001050055,True,35,1
161M19S3,118,experiment,59,←,left,←,0.6218421002849936,True,35,1
161M19S3,119,experiment,77,↑,up,↑,0.5548965996131301,True,35,1
161M19S3,120,experiment,74,→,right,→,0.5236722999252379,True,35,1
161M19S3,121,experiment,67,→,right,→,0.5521200997754931,True,35,1
161M19S3,122,experiment,60,↓,down,↓,0.5180160999298096,True,35,1
161M19S3,123,experiment,63,→,right,→,0.5479807001538575,True,35,1
161M19S3,124,experiment,91,→,right,→,0.6313213999383152,True,35,1
161M19S3,125,experiment,76,←,left,←,0.4421969996765256,True,35,1
161M19S3,126,experiment,71,↓,down,↓,0.5784416999667883,True,35,0
161M19S3,127,experiment,78,↓,down,↓,0.4658122002147138,True,35,1
161M19S3,128,experiment,50,←,left,←,0.6292744004167616,True,35,1
161M19S3,129,experiment,58,↑,up,↑,0.4807203998789191,True,35,1
161M19S3,130,experiment,56,→,right,→,0.5940988999791443,True,35,1
161M19S3,131,experiment,70,→,right,→,0.5548709998838603,True,35,1
161M19S3,132,experiment,61,←,left,←,0.5839148000814021,True,35,1
161M19S3,133,experiment,57,←,left,←,0.701466599944979,True,35,1
161M19S3,134,experiment,84,↓,down,↓,0.5650554997846484,True,35,1
161M19S3,135,experiment,52,↓,down,↓,0.7088663000613451,True,35,1
161M19S3,136,experiment,87,↑,up,↑,0.6111727003008127,True,35,1
161M19S3,137,experiment,100,←,left,←,0.585283299908042,True,35,1
161M19S3,138,experiment,73,↑,up,↑,0.6652636001817882,True,35,1
161M19S3,139,experiment,104,↑,up,↑,0.6196261998265982,True,35,1
161M19S3,140,experiment,83,←,left,←,0.671048799995333,True,35,1
161M19S3,141,experiment,48,←,left,←,1.236090900376439,True,35,1
161M19S3,142,experiment,66,←,left,←,0.6203634003177285,True,35,1
161M19S3,143,experiment,81,←,left,←,0.5365415997803211,True,35,1
161M19S3,144,experiment,92,↑,up,↑,0.6601379001513124,True,35,1
161M19S3,145,experiment,72,←,left,←,0.48178539983928204,True,35,1
161M19S3,146,experiment,53,←,left,←,0.6363467001356184,True,35,1
161M19S3,147,experiment,69,↓,down,↓,0.6437498996965587,True,35,1
161M19S3,148,experiment,64,←,left,←,0.5884787999093533,True,35,1
161M19S3,149,experiment,89,↓,down,↓,0.486929299775511,True,35,1
161M19S3,150,experiment,54,↓,down,↓,0.4814992998726666,True,35,1
161M19S3,151,experiment,103,→,right,→,0.7313360003754497,True,35,1
161M19S3,152,experiment,65,→,right,→,0.7121414998546243,True,35,1
161M19S3,153,experiment,49,↓,down,↓,0.6508702002465725,True,35,1
161M19S3,154,experiment,107,←,left,←,0.6128634000197053,True,35,1
161M19S3,155,experiment,108,↑,up,↑,0.6958359000273049,True,35,1
161M19S3,156,experiment,86,→,right,→,0.6628454001620412,True,35,1
161M19S3,157,experiment,106,↓,down,↓,0.49663460021838546,True,35,1
161M19S3,158,experiment,105,↑,up,↑,0.6892848000861704,True,35,1
161M19S3,159,experiment,62,←,left,←,0.6246385998092592,True,35,1
161M19S3,160,experiment,102,←,left,←,0.565374200232327,True,35,1
161M19S3,161,experiment,85,↑,up,↑,0.5861555999144912,True,35,1
161M19S3,162,experiment,75,↓,down,↓,0.4738092999905348,True,35,1
161M19S3,163,experiment,93,←,left,←,0.6151788998395205,True,35,1
161M19S3,164,experiment,99,↑,up,↑,0.6211868999525905,True,35,1
161M19S3,165,experiment,80,→,right,→,0.6493279999122024,True,35,1
161M19S3,166,experiment,82,←,left,←,0.6037061000242829,True,35,1
161M19S3,167,training,96,→,right,→,0.5658594002015889,True,34,0
161M19S3,168,training,88,↑,up,↑,0.6015418996103108,True,34,1
161M19S3,169,experiment,103,→,right,→,0.9109193002805114,True,34,1
161M19S3,170,experiment,88,←,left,←,0.749001800082624,True,34,1
161M19S3,171,experiment,82,↑,up,↑,0.6752171004191041,True,34,1
161M19S3,172,experiment,93,↓,down,↓,0.5609535002149642,True,34,1
161M19S3,173,experiment,94,←,left,←,0.6109394999220967,True,34,1
161M19S3,174,experiment,55,→,right,→,0.6801133998669684,True,34,1
161M19S3,175,experiment,52,↓,down,↓,0.4599180002696812,True,34,1
161M19S3,176,experiment,57,→,right,→,0.5253125000745058,True,34,1
161M19S3,177,experiment,51,↑,up,↑,0.45496470015496016,True,34,1
161M19S3,178,experiment,79,←,left,←,0.43421579990535975,True,34,0
161M19S3,179,experiment,74,←,left,←,0.6156553998589516,True,34,0
161M19S3,180,experiment,97,←,left,←,0.5262120002880692,True,34,1
161M19S3,181,experiment,67,↑,up,↑,0.5946162003092468,True,34,1
161M19S3,182,experiment,99,↓,down,↓,0.4896990000270307,True,34,1
161M19S3,183,experiment,54,↑,up,↑,0.5959038999862969,True,34,1
161M19S3,184,experiment,81,↑,up,↑,0.4341548001393676,True,34,1
161M19S3,185,experiment,78,↓,up,↑,1.053116099908948,False,34,0
161M19S3,186,experiment,90,↑,up,↑,0.5565033000893891,True,34,1
161M19S3,187,experiment,61,↑,up,↑,0.7776612001471221,True,34,1
161M19S3,188,experiment,56,↑,up,↑,0.5837093000300229,True,34,1
161M19S3,189,experiment,100,→,right,→,0.7347332998178899,True,34,1
161M19S3,190,experiment,92,←,left,←,0.5948828002437949,True,34,1
161M19S3,191,experiment,95,→,right,→,0.6028543999418616,True,34,1
161M19S3,192,experiment,102,↑,up,↑,0.5924778999760747,True,34,1
161M19S3,193,experiment,59,↑,up,↑,0.7009113999083638,True,34,1
161M19S3,194,experiment,58,→,right,→,0.8132791998796165,True,34,1
161M19S3,195,experiment,106,←,left,←,0.6170017002150416,True,34,1
161M19S3,196,experiment,66,↓,down,↓,0.7620785003527999,True,34,1
161M19S3,197,experiment,101,↓,down,↓,0.6738296002149582,True,34,1
161M19S3,198,experiment,62,↑,up,↑,0.825908400118351,True,34,1
161M19S3,199,experiment,53,→,right,→,0.7749017998576164,True,34,1
161M19S3,200,experiment,73,→,right,→,0.7112790001556277,True,34,1
161M19S3,201,experiment,72,↑,up,↑,0.6586036002263427,True,34,1
161M19S3,202,experiment,77,←,left,←,0.678383800201118,True,34,1
161M19S3,203,experiment,69,→,right,→,0.6841298998333514,True,34,1
161M19S3,204,experiment,68,↓,down,↓,0.6257308996282518,True,34,1
161M19S3,205,experiment,89,↓,down,↓,0.5388217000290751,True,34,1
161M19S3,206,experiment,75,←,left,←,0.6839482001960278,True,34,1
161M19S3,207,experiment,80,↑,up,↑,0.7338674999773502,True,34,1
161M19S3,208,experiment,64,←,left,←,1.170606799889356,True,34,1
161M19S3,209,experiment,84,←,left,←,0.7436207002028823,True,34,1
161M19S3,210,experiment,87,←,left,←,0.5086412001401186,True,34,1
161M19S3,211,experiment,70,←,left,←,0.6487638000398874,True,34,1
161M19S3,212,experiment,49,↓,down,↓,0.7821638998575509,True,34,1
161M19S3,213,experiment,105,→,right,→,0.6355394003912807,True,34,1
161M19S3,214,experiment,65,←,left,←,0.7243346995674074,True,34,1
161M19S3,215,experiment,76,←,left,←,0.8058666996657848,True,34,1
161M19S3,216,experiment,104,↑,up,↑,0.8022977998480201,True,34,1
161M19S3,217,experiment,98,←,left,←,0.8173879003152251,True,34,1
161M19S3,218,experiment,107,↑,up,↑,0.6846424001269042,True,34,1
161M19S3,219,experiment,63,↑,up,↑,0.5640565999783576,True,34,1
161M19S3,220,experiment,91,←,left,←,0.583375099580735,True,34,1
161M19S3,221,experiment,108,→,right,→,0.5870890002697706,True,34,1
161M19S3,222,experiment,60,↑,up,↑,1.0156463999301195,True,34,1
161M19S3,223,experiment,50,←,left,←,0.6858752002008259,True,34,1
161M19S3,224,experiment,96,↑,up,↑,0.5462425998412073,True,34,1
161M19S3,225,experiment,86,→,right,→,0.7191963000223041,True,34,1
161M19S3,226,experiment,48,↓,up,↑,1.4582932000048459,False,34,1
161M19S3,227,experiment,85,↓,down,↓,0.6593381003476679,True,34,1
161M19S3,228,experiment,83,→,right,→,0.6449126000516117,True,34,1
161M19S3,229,experiment,71,→,right,→,0.5873165996745229,True,34,1
161M19S3,230,training,50,→,right,→,0.6198056000284851,True,33,0
161M19S3,231,training,84,↓,up,↑,0.7348111001774669,False,33,1
161M19S3,232,experiment,55,↑,up,↑,0.9748525000177324,True,33,1
161M19S3,233,experiment,79,←,left,←,0.6611604001373053,True,33,1
161M19S3,234,experiment,76,↓,down,↓,0.5052999001927674,True,33,1
161M19S3,235,experiment,58,↓,down,↓,0.569357399828732,True,33,1
161M19S3,236,experiment,67,↓,down,↓,0.5000614002346992,True,33,1
161M19S3,237,experiment,93,↑,up,↑,0.6488077002577484,True,33,1
161M19S3,238,experiment,69,→,right,→,0.6797038000077009,True,33,1
161M19S3,239,experiment,72,←,left,←,0.5879510003142059,True,33,1
161M19S3,240,experiment,85,↑,up,↑,0.6236585001461208,True,33,1
161M19S3,241,experiment,73,→,right,→,0.582001999951899,True,33,1
161M19S3,242,experiment,89,→,right,→,0.6727823000401258,True,33,1
161M19S3,243,experiment,103,→,right,→,0.587483299896121,True,33,1
161M19S3,244,experiment,77,←,left,←,0.6818118002265692,True,33,1
161M19S3,245,experiment,102,↑,up,↑,0.5481724999845028,True,33,1
161M19S3,246,experiment,54,↓,down,↓,0.6599442004226148,True,33,1
161M19S3,247,experiment,82,↓,down,↓,0.7339634001255035,True,33,1
161M19S3,248,experiment,60,↑,up,↑,0.7322745998390019,True,33,1
161M19S3,249,experiment,98,↓,down,↓,0.7259988002479076,True,33,1
161M19S3,250,experiment,74,←,left,←,0.6640615998767316,True,33,1
161M19S3,251,experiment,105,←,left,←,0.5941881998442113,True,33,1
161M19S3,252,experiment,108,↓,down,↓,0.7581791002303362,True,33,1
161M19S3,253,experiment,51,→,right,→,0.702581100165844,True,33,1
161M19S3,254,experiment,50,→,right,→,0.7056791000068188,True,33,1
161M19S3,255,experiment,59,↑,up,↑,0.5933456998318434,True,33,1
161M19S3,256,experiment,48,↓,down,↓,0.6575158000923693,True,33,1
161M19S3,257,experiment,100,←,left,←,0.5494949999265373,True,33,1
161M19S3,258,experiment,70,↑,up,↑,0.863965299911797,True,33,1
161M19S3,259,experiment,88,→,right,→,0.5838085999712348,True,33,1
161M19S3,260,experiment,97,←,left,←,0.5915873004123569,True,33,1
161M19S3,261,experiment,107,↓,down,↓,0.6439660997129977,True,33,1
161M19S3,262,experiment,63,↓,down,↓,0.8370610997080803,True,33,1
161M19S3,263,experiment,78,↓,down,↓,0.6814545998349786,True,33,1
161M19S3,264,experiment,87,↑,up,↑,0.7767399000003934,True,33,1
161M19S3,265,experiment,95,↓,down,↓,0.6097864001058042,True,33,1
161M19S3,266,experiment,101,→,right,→,0.6794807999394834,True,33,1
161M19S3,267,experiment,96,→,right,→,0.8361621997319162,True,33,1
161M19S3,268,experiment,99,←,left,←,0.6895344997756183,True,33,1
161M19S3,269,experiment,53,↑,up,↑,0.651965799741447,True,33,1
161M19S3,270,experiment,61,↑,up,↑,0.5093587003648281,True,33,1
161M19S3,271,experiment,91,→,right,→,0.5863536996766925,True,33,1
161M19S3,272,experiment,80,↑,up,↑,0.6081250002607703,True,33,1
161M19S3,273,experiment,64,↑,up,↑,0.7941060001030564,True,33,1
161M19S3,274,experiment,92,↑,up,↑,0.7634640000760555,True,33,1
161M19S3,275,experiment,106,←,left,←,0.6092676999978721,True,33,1
161M19S3,276,experiment,104,→,right,→,0.765841200016439,True,33,1
161M19S3,277,experiment,94,↓,down,↓,0.6955113997682929,True,33,1
161M19S3,278,experiment,66,↓,down,↓,0.7255742000415921,True,33,1
161M19S3,279,experiment,90,→,right,→,0.5463053998537362,True,33,1
161M19S3,280,experiment,57,←,left,←,0.753063099924475,True,33,1
161M19S3,281,experiment,71,→,right,→,0.867182900197804,True,33,1
161M19S3,282,experiment,84,←,left,←,0.6361086000688374,True,33,1
161M19S3,283,experiment,56,←,left,←,0.7358508999459445,True,33,1
161M19S3,284,experiment,81,↑,up,↑,0.5672838999889791,True,33,1
161M19S3,285,experiment,62,↓,down,↓,0.8441051002591848,True,33,1
161M19S3,286,experiment,52,↑,up,↑,0.8405956998467445,True,33,1
161M19S3,287,experiment,75,↑,up,↑,0.5494312001392245,True,33,1
161M19S3,288,experiment,65,↑,up,↑,0.6176025001332164,True,33,1
161M19S3,289,experiment,86,→,right,→,0.8520683003589511,True,33,1
161M19S3,290,experiment,49,↑,right,→,1.361275800038129,False,33,1
161M19S3,291,experiment,68,→,right,→,0.5722121000289917,True,33,1
161M19S3,292,experiment,83,→,right,→,0.5769617999903858,True,33,1
161M19S3,293,training,73,↓,down,↓,0.5612018997780979,True,32,0
161M19S3,294,training,75,→,right,→,0.5294584003277123,True,32,1
161M19S3,295,experiment,102,←,right,→,0.7219275999814272,False,32,1
161M19S3,296,experiment,48,↑,up,↑,0.5326471999287605,True,32,1
161M19S3,297,experiment,64,↓,down,↓,0.5537405996583402,True,32,1
161M19S3,298,experiment,87,↑,up,↑,0.5825120997615159,True,32,1
161M19S3,299,experiment,58,↑,up,↑,0.603560599964112,True,32,1
161M19S3,300,experiment,65,←,left,←,0.5415827999822795,True,32,1
161M19S3,301,experiment,85,→,left,←,0.7473369003273547,False,32,1
161M19S3,302,experiment,59,→,right,→,0.4656489002518356,True,32,1
161M19S3,303,experiment,80,↓,down,↓,0.6198282004334033,True,32,1
161M19S3,304,experiment,89,→,right,→,0.48512550024315715,True,32,1
161M19S3,305,experiment,76,←,no_key,no_letter,-1.0,False,32,1
161M19S3,306,experiment,56,↓,left,←,1.3598055997863412,False,32,1
161M19S3,307,experiment,71,→,right,→,0.6096045998856425,True,32,1
161M19S3,308,experiment,49,↑,up,↑,0.5445208000019193,True,32,1
161M19S3,309,experiment,97,↓,down,↓,0.6581755001097918,True,32,1
161M19S3,310,experiment,107,↑,up,↑,0.8839528001844883,True,32,1
161M19S3,311,experiment,55,↑,up,↑,0.8138794000260532,True,32,1
161M19S3,312,experiment,61,↑,up,↑,0.5926306997425854,True,32,1
161M19S3,313,experiment,51,↓,down,↓,0.7277572997845709,True,32,1
161M19S3,314,experiment,108,←,left,←,0.5583864999935031,True,32,1
161M19S3,315,experiment,66,→,right,→,0.6018539001233876,True,32,1
161M19S3,316,experiment,72,→,right,→,0.5455493000335991,True,32,1
161M19S3,317,experiment,53,←,left,←,0.5139313000254333,True,32,1
161M19S3,318,experiment,68,←,left,←,0.6785213002003729,True,32,1
161M19S3,319,experiment,52,↓,down,↓,0.48179470002651215,True,32,1
161M19S3,320,experiment,83,↑,up,↑,0.682583499699831,True,32,1
161M19S3,321,experiment,94,↑,up,↑,0.5275467997416854,True,32,1
161M19S3,322,experiment,54,↑,up,↑,0.8083410002291203,True,32,1
161M19S3,323,experiment,100,↓,down,↓,0.6943133999593556,True,32,1
161M19S3,324,experiment,82,←,left,←,0.6150254998356104,True,32,1
161M19S3,325,experiment,69,→,right,→,0.46320859994739294,True,32,1
161M19S3,326,experiment,63,→,right,→,0.7751567997038364,True,32,1
161M19S3,327,experiment,104,←,left,←,0.6692607002332807,True,32,1
161M19S3,328,experiment,57,↑,up,↑,0.7353027001954615,True,32,1
161M19S3,329,experiment,60,↓,down,↓,0.7336542000994086,True,32,1
161M19S3,330,experiment,92,←,left,←,0.7453776998445392,True,32,1
161M19S3,331,experiment,79,←,left,←,0.7130158999934793,True,32,1
161M19S3,332,experiment,88,↑,up,↑,0.6947385999374092,True,32,1
161M19S3,333,experiment,70,←,left,←,0.5234858999028802,True,32,1
161M19S3,334,experiment,75,↑,up,↑,0.613204900175333,True,32,1
161M19S3,335,experiment,106,↓,down,↓,0.6891026003286242,True,32,1
161M19S3,336,experiment,93,↑,up,↑,0.766011799685657,True,32,1
161M19S3,337,experiment,103,↓,down,↓,0.6525980997830629,True,32,1
161M19S3,338,experiment,95,←,left,←,0.6747389999218285,True,32,1
161M19S3,339,experiment,90,↑,up,↑,0.7613340001553297,True,32,1
161M19S3,340,experiment,81,→,right,→,0.8477908000349998,True,32,1
161M19S3,341,experiment,86,←,left,←,0.6807725997641683,True,32,1
161M19S3,342,experiment,50,↑,up,↑,0.7325276001356542,True,32,1
161M19S3,343,experiment,105,↓,down,↓,0.4678522003814578,True,32,1
161M19S3,344,experiment,96,↓,down,↓,0.6248837001621723,True,32,1
161M19S3,345,experiment,99,↓,down,↓,0.6625494002364576,True,32,1
161M19S3,346,experiment,98,→,right,→,0.4909131000749767,True,32,1
161M19S3,347,experiment,77,↑,up,↑,0.6533654001541436,True,32,1
161M19S3,348,experiment,62,←,left,←,0.5343494000844657,True,32,1
161M19S3,349,experiment,91,→,right,→,0.5784057998098433,True,32,1
161M19S3,350,experiment,101,↑,up,↑,0.5617964002303779,True,32,1
161M19S3,351,experiment,84,↑,up,↑,0.7508208001963794,True,32,1
161M19S3,352,experiment,73,→,right,→,0.6402943995781243,True,32,1
161M19S3,353,experiment,67,→,right,→,0.760005199816078,True,32,1
161M19S3,354,experiment,74,↓,down,↓,0.6647809999994934,True,32,1
161M19S3,355,experiment,78,→,right,→,0.7158281002193689,True,32,1
161M19S3,356,training,69,↑,up,↑,0.48643509997054935,True,31,0
161M19S3,357,training,93,→,right,→,0.4917321000248194,True,31,1
161M19S3,358,experiment,96,←,left,←,0.6077381996437907,True,31,1
161M19S3,359,experiment,106,↑,up,↑,0.5078815999440849,True,31,1
161M19S3,360,experiment,80,↓,down,↓,0.7325553996488452,True,31,1
161M19S3,361,experiment,77,↓,down,↓,0.5652468004263937,True,31,1
161M19S3,362,experiment,88,←,left,←,0.6329835001379251,True,31,1
161M19S3,363,experiment,81,←,left,←,0.7644099998287857,True,31,1
161M19S3,364,experiment,95,↓,down,↓,0.48571200016885996,True,31,1
161M19S3,365,experiment,104,←,left,←,0.7198137999512255,True,31,1
161M19S3,366,experiment,69,↑,up,↑,0.491595100145787,True,31,1
161M19S3,367,experiment,63,→,right,→,0.6026250002905726,True,31,1
161M19S3,368,experiment,54,↓,down,↓,0.4643671000376344,True,31,1
161M19S3,369,experiment,101,↑,up,↑,0.7079042000696063,True,31,1
161M19S3,370,experiment,91,↑,up,↑,0.5447636996395886,True,31,1
161M19S3,371,experiment,89,↑,up,↑,0.6212126999162138,True,31,1
161M19S3,372,experiment,107,↑,up,↑,0.5205707000568509,True,31,1
161M19S3,373,experiment,105,←,left,←,0.5284525998868048,True,31,1
161M19S3,374,experiment,93,→,right,→,0.7159025999717414,True,31,1
161M19S3,375,experiment,48,↑,up,↑,0.7669673999771476,True,31,1
161M19S3,376,experiment,86,→,right,→,0.49943129997700453,True,31,1
161M19S3,377,experiment,71,↓,down,↓,0.7913756002672017,True,31,1
161M19S3,378,experiment,64,←,left,←,0.5621099001727998,True,31,1
161M19S3,379,experiment,97,↑,up,↑,0.7234040000475943,True,31,1
161M19S3,380,experiment,51,←,left,←,0.7650016001425683,True,31,1
161M19S3,381,experiment,92,↑,up,↑,0.4632894000969827,True,31,1
161M19S3,382,experiment,98,→,right,→,0.7076489999890327,True,31,1
161M19S3,383,experiment,49,←,left,←,0.5587398000061512,True,31,1
161M19S3,384,experiment,52,→,right,→,0.4949161000549793,True,31,1
161M19S3,385,experiment,85,↑,up,↑,0.6707729999907315,True,31,1
161M19S3,386,experiment,94,↑,up,↑,0.6284624002873898,True,31,1
161M19S3,387,experiment,100,↓,down,↓,0.9216247997246683,True,31,1
161M19S3,388,experiment,75,←,left,←,0.5794009999372065,True,31,1
161M19S3,389,experiment,73,→,right,→,0.6033339002169669,True,31,1
161M19S3,390,experiment,102,↑,up,↑,0.50501610012725,True,31,1
161M19S3,391,experiment,84,↑,up,↑,0.5447771004401147,True,31,1
161M19S3,392,experiment,87,↓,down,↓,0.5818750001490116,True,31,1
161M19S3,393,experiment,103,↑,up,↑,0.5239699999801815,True,31,1
161M19S3,394,experiment,82,←,left,←,0.939145099837333,True,31,1
161M19S3,395,experiment,50,←,left,←,0.5648098001256585,True,31,1
161M19S3,396,experiment,55,↑,up,↑,0.4278612001799047,True,31,1
161M19S3,397,experiment,59,↓,down,↓,0.43861469998955727,True,31,0
161M19S3,398,experiment,79,←,left,←,0.47399629978463054,True,31,1
161M19S3,399,experiment,67,←,left,←,0.6723589999601245,True,31,1
161M19S3,400,experiment,66,←,left,←,0.5590917998924851,True,31,1
161M19S3,401,experiment,83,←,left,←,0.47670220024883747,True,31,1
161M19S3,402,experiment,68,↓,down,↓,0.5310237999074161,True,31,1
161M19S3,403,experiment,53,↓,down,↓,0.827624199911952,True,31,1
161M19S3,404,experiment,70,↓,down,↓,0.6990943001583219,True,31,1
161M19S3,405,experiment,99,←,left,←,0.6056595998816192,True,31,1
161M19S3,406,experiment,58,←,left,←,0.4420301001518965,True,31,1
161M19S3,407,experiment,57,↑,up,↑,0.6128787999041378,True,31,1
161M19S3,408,experiment,90,↓,down,↓,0.6539488998241723,True,31,1
161M19S3,409,experiment,76,↑,up,↑,0.682020999956876,True,31,1
161M19S3,410,experiment,62,↑,up,↑,0.5937601001933217,True,31,1
161M19S3,411,experiment,78,←,left,←,0.5518017997965217,True,31,1
161M19S3,412,experiment,60,↑,up,↑,0.5015611997805536,True,31,1
161M19S3,413,experiment,74,↑,up,↑,0.5366193996742368,True,31,1
161M19S3,414,experiment,56,→,right,→,0.5364963999018073,True,31,1
161M19S3,415,experiment,65,←,left,←,0.6211521998047829,True,31,1
161M19S3,416,experiment,72,→,right,→,0.899760500062257,True,31,1
161M19S3,417,experiment,61,←,left,←,0.47523320000618696,True,31,1
161M19S3,418,experiment,108,←,left,←,0.5880372999235988,True,31,1
161M19S3,419,training,89,↑,up,↑,0.5197850000113249,True,30,0
161M19S3,420,training,52,↓,up,↑,1.0175030999816954,False,30,1
161M19S3,421,experiment,99,↑,up,↑,0.5915171001106501,True,30,1
161M19S3,422,experiment,94,↑,up,↑,0.6401486997492611,True,30,1
161M19S3,423,experiment,53,→,right,→,0.6925527001731098,True,30,1
161M19S3,424,experiment,105,↑,up,↑,0.7095814002677798,True,30,1
161M19S3,425,experiment,91,↓,down,↓,0.602566400077194,True,30,1
161M19S3,426,experiment,90,→,right,→,0.6123430002480745,True,30,1
161M19S3,427,experiment,79,↓,down,↓,0.6893332996405661,True,30,1
161M19S3,428,experiment,80,→,right,→,0.6107919998466969,True,30,1
161M19S3,429,experiment,50,↑,right,→,0.8574854000471532,False,30,1
161M19S3,430,experiment,66,↑,up,↑,0.497078999876976,True,30,1
161M19S3,431,experiment,63,→,right,→,0.6236205999739468,True,30,1
161M19S3,432,experiment,102,↑,up,↑,1.0923329000361264,True,30,1
161M19S3,433,experiment,83,↑,up,↑,0.6926408996805549,True,30,1
161M19S3,434,experiment,54,←,left,←,0.8787068999372423,True,30,1
161M19S3,435,experiment,48,↑,up,↑,0.5875150999054313,True,30,1
161M19S3,436,experiment,107,←,left,←,0.7518128999508917,True,30,1
161M19S3,437,experiment,55,←,left,←,0.7912683002650738,True,30,1
161M19S3,438,experiment,67,→,right,→,0.6569185997359455,True,30,1
161M19S3,439,experiment,86,↑,up,↑,0.5936118001118302,True,30,1
161M19S3,440,experiment,56,↓,down,↓,0.8230606997385621,True,30,1
161M19S3,441,experiment,64,→,right,→,1.0804123999550939,True,30,1
161M19S3,442,experiment,71,←,left,←,0.6611357997171581,True,30,1
161M19S3,443,experiment,74,→,right,→,0.5778497997671366,True,30,1
161M19S3,444,experiment,78,↓,down,↓,0.6004762002266943,True,30,1
161M19S3,445,experiment,58,↑,up,↑,0.7489784997887909,True,30,1
161M19S3,446,experiment,81,←,left,←,0.6197504000738263,True,30,1
161M19S3,447,experiment,59,←,left,←,0.7351065999828279,True,30,1
161M19S3,448,experiment,103,→,right,→,0.5431421999819577,True,30,1
161M19S3,449,experiment,95,↓,down,↓,0.48967349994927645,True,30,1
161M19S3,450,experiment,93,↓,down,↓,0.742477800231427,True,30,1
161M19S3,451,experiment,89,←,left,←,1.034884300082922,True,30,1
161M19S3,452,experiment,72,←,left,←,0.7932114000432193,True,30,1
161M19S3,453,experiment,98,←,left,←,0.5768017000518739,True,30,1
161M19S3,454,experiment,60,↑,up,↑,0.6613412001170218,True,30,1
161M19S3,455,experiment,104,↑,up,↑,0.5280392002314329,True,30,1
161M19S3,456,experiment,76,↓,down,↓,0.5053811999969184,True,30,1
161M19S3,457,experiment,62,↓,down,↓,0.5681306002661586,True,30,1
161M19S3,458,experiment,106,→,right,→,0.6939214998856187,True,30,1
161M19S3,459,experiment,75,↓,down,↓,0.6328811999410391,True,30,1
161M19S3,460,experiment,65,←,left,←,0.5537159000523388,True,30,1
161M19S3,461,experiment,68,↑,up,↑,0.8367314003407955,True,30,1
161M19S3,462,experiment,77,←,left,←,0.5294588999822736,True,30,1
161M19S3,463,experiment,108,→,right,→,0.5678485999815166,True,30,1
161M19S3,464,experiment,57,→,right,→,0.5658948998898268,True,30,1
161M19S3,465,experiment,100,→,right,→,0.7574925003573298,True,30,1
161M19S3,466,experiment,49,→,right,→,0.5026660999283195,True,30,1
161M19S3,467,experiment,92,←,left,←,0.5875494000501931,True,30,1
161M19S3,468,experiment,88,↑,up,↑,0.5183610999956727,True,30,1
161M19S3,469,experiment,84,←,left,←,0.9496734999120235,True,30,1
161M19S3,470,experiment,82,↓,down,↓,0.6998000997118652,True,30,1
161M19S3,471,experiment,96,→,right,→,0.639512499794364,True,30,1
161M19S3,472,experiment,69,↓,down,↓,0.5813635000959039,True,30,1
161M19S3,473,experiment,97,←,left,←,0.5332545000128448,True,30,1
161M19S3,474,experiment,51,←,right,→,1.4626855002716184,False,30,1
161M19S3,475,experiment,52,↓,down,↓,0.5384265999309719,True,30,1
161M19S3,476,experiment,70,↓,down,↓,0.4452462997287512,True,30,1
161M19S3,477,experiment,101,→,right,→,0.5210990002378821,True,30,1
161M19S3,478,experiment,73,→,right,→,0.6679459000006318,True,30,1
161M19S3,479,experiment,87,↓,down,↓,0.6678475998342037,True,30,1
161M19S3,480,experiment,85,↓,down,↓,0.56460199970752,True,30,1
161M19S3,481,experiment,61,↓,down,↓,0.6735443999059498,True,30,1
161M19S3,482,training,61,↑,up,↑,0.6370842000469565,True,29,0
161M19S3,483,training,104,→,right,→,0.5924856001511216,True,29,1
161M19S3,484,experiment,69,↑,up,↑,0.505767600145191,True,29,1
161M19S3,485,experiment,77,→,right,→,0.5792645998299122,True,29,1
161M19S3,486,experiment,93,→,right,→,0.47706269985064864,True,29,1
161M19S3,487,experiment,98,→,right,→,0.41766150016337633,True,29,1
161M19S3,488,experiment,90,↓,down,↓,0.5697653000243008,True,29,1
161M19S3,489,experiment,78,→,right,→,0.5211223000660539,True,29,1
161M19S3,490,experiment,106,↑,up,↑,0.5442413999699056,True,29,1
161M19S3,491,experiment,53,→,right,→,0.44874410005286336,True,29,1
161M19S3,492,experiment,76,↓,down,↓,0.5733519000932574,True,29,1
161M19S3,493,experiment,72,↑,up,↑,0.4699039002880454,True,29,1
161M19S3,494,experiment,48,↑,up,↑,0.5709278001450002,True,29,1
161M19S3,495,experiment,80,↑,up,↑,0.5293824002146721,True,29,1
161M19S3,496,experiment,61,←,left,←,0.5036349999718368,True,29,1
161M19S3,497,experiment,107,↑,up,↑,0.5515311998315156,True,29,1
161M19S3,498,experiment,94,→,right,→,0.5779916997998953,True,29,1
161M19S3,499,experiment,58,↓,down,↓,0.5912326001562178,True,29,1
161M19S3,500,experiment,84,↑,up,↑,0.5554074002429843,True,29,1
161M19S3,501,experiment,62,↓,down,↓,0.4640588001348078,True,29,1
161M19S3,502,experiment,60,↑,up,↑,0.6011435999535024,True,29,1
161M19S3,503,experiment,96,←,left,←,0.5369227998889983,True,29,1
161M19S3,504,experiment,74,←,left,←,0.7386157996952534,True,29,1
161M19S3,505,experiment,71,→,right,→,0.5649761003442109,True,29,1
161M19S3,506,experiment,83,←,left,←,0.5544893997721374,True,29,1
161M19S3,507,experiment,105,→,right,→,0.8327357000671327,True,29,1
161M19S3,508,experiment,52,↓,down,↓,0.5339049999602139,True,29,1
161M19S3,509,experiment,91,→,right,→,0.4819036000408232,True,29,1
161M19S3,510,experiment,100,←,left,←,0.5648810002021492,True,29,1
161M19S3,511,experiment,59,→,right,→,0.7383163999766111,True,29,1
161M19S3,512,experiment,66,←,left,←,0.6304856999777257,True,29,1
161M19S3,513,experiment,104,→,right,→,0.4500766000710428,True,29,1
161M19S3,514,experiment,108,←,left,←,0.6358186998404562,True,29,1
161M19S3,515,experiment,85,↓,down,↓,0.6459242003038526,True,29,1
161M19S3,516,experiment,51,→,right,→,0.754810200072825,True,29,1
161M19S3,517,experiment,95,←,left,←,0.5641934000886977,True,29,1
161M19S3,518,experiment,103,→,right,→,0.6109424997121096,True,29,1
161M19S3,519,experiment,68,↑,up,↑,0.5558770997449756,True,29,1
161M19S3,520,experiment,99,→,right,→,0.6440677996724844,True,29,1
161M19S3,521,experiment,101,→,right,→,0.6003931001760066,True,29,1
161M19S3,522,experiment,89,↑,up,↑,0.6504873000085354,True,29,1
161M19S3,523,experiment,79,←,left,←,0.5819302001036704,True,29,1
161M19S3,524,experiment,102,↓,down,↓,0.6282878001220524,True,29,1
161M19S3,525,experiment,63,←,left,←,0.5820356998592615,True,29,1
161M19S3,526,experiment,64,←,left,←,0.5931529002264142,True,29,1
161M19S3,527,experiment,50,←,left,←,0.7125173001550138,True,29,1
161M19S3,528,experiment,81,←,left,←,0.5288430997170508,True,29,1
161M19S3,529,experiment,65,↑,up,↑,0.6939035002142191,True,29,1
161M19S3,530,experiment,88,↓,down,↓,0.5406798999756575,True,29,1
161M19S3,531,experiment,73,↑,up,↑,0.5424449997954071,True,29,1
161M19S3,532,experiment,97,↓,down,↓,0.6082210997119546,True,29,1
161M19S3,533,experiment,82,↓,down,↓,0.5161758000031114,True,29,1
161M19S3,534,experiment,56,←,left,←,0.47654740000143647,True,29,1
161M19S3,535,experiment,92,←,left,←,0.562720499932766,True,29,1
161M19S3,536,experiment,70,→,right,→,0.4444011002779007,True,29,1
161M19S3,537,experiment,57,→,right,→,0.6954629002138972,True,29,1
161M19S3,538,experiment,49,→,right,→,0.5631963000632823,True,29,1
161M19S3,539,experiment,86,↑,up,↑,0.6396733000874519,True,29,1
161M19S3,540,experiment,55,←,left,←,0.5793526996858418,True,29,1
161M19S3,541,experiment,87,←,left,←,0.6711335000582039,True,29,1
161M19S3,542,experiment,75,↑,right,→,0.7788154003210366,False,29,1
161M19S3,543,experiment,67,←,left,←,0.6130909998901188,True,29,1
161M19S3,544,experiment,54,→,right,→,0.5145382001064718,True,29,1
161M19S3,545,training,82,↑,up,↑,0.4885271997191012,True,28,0
161M19S3,546,training,101,→,right,→,0.6188505999743938,True,28,1
161M19S3,547,experiment,86,←,left,←,0.5012098997831345,True,28,1
161M19S3,548,experiment,61,→,right,→,0.48464620020240545,True,28,1
161M19S3,549,experiment,79,↓,down,↓,0.49482939997687936,True,28,1
161M19S3,550,experiment,83,↑,up,↑,0.6472522001713514,True,28,1
161M19S3,551,experiment,74,→,right,→,0.5481350999325514,True,28,1
161M19S3,552,experiment,105,↑,up,↑,0.6508654998615384,True,28,1
161M19S3,553,experiment,59,↓,down,↓,0.4370347997173667,True,28,1
161M19S3,554,experiment,64,↑,up,↑,0.6779785002581775,True,28,1
161M19S3,555,experiment,88,←,left,←,0.45331620005890727,True,28,1
161M19S3,556,experiment,53,↓,down,↓,0.5775405000895262,True,28,1
161M19S3,557,experiment,101,↓,down,↓,0.45654959976673126,True,28,1
161M19S3,558,experiment,60,←,left,←,0.43399660009890795,True,28,1
161M19S3,559,experiment,80,←,left,←,0.6457090000621974,True,28,1
161M19S3,560,experiment,106,↓,down,↓,0.5364333000034094,True,28,1
161M19S3,561,experiment,51,↓,down,↓,0.465831299778074,True,28,1
161M19S3,562,experiment,107,←,left,←,0.5472006998024881,True,28,1
161M19S3,563,experiment,55,↓,down,↓,0.46662830002605915,True,28,1
161M19S3,564,experiment,54,→,right,→,0.6057683997787535,True,28,1
161M19S3,565,experiment,65,↑,up,↑,0.7514455001801252,True,28,1
161M19S3,566,experiment,58,→,right,→,0.5427691000513732,True,28,1
161M19S3,567,experiment,52,←,left,←,0.6786438999697566,True,28,1
161M19S3,568,experiment,99,←,left,←,0.5144289997406304,True,28,1
161M19S3,569,experiment,91,←,left,←,0.5111309001222253,True,28,1
161M19S3,570,experiment,77,→,right,→,0.6408317000605166,True,28,1
161M19S3,571,experiment,49,←,left,←,0.44654460018500686,True,28,1
161M19S3,572,experiment,76,←,left,←,0.5313296997919679,True,28,1
161M19S3,573,experiment,73,↑,up,↑,0.6532755997031927,True,28,1
161M19S3,574,experiment,95,↓,down,↓,0.5154780000448227,True,28,1
161M19S3,575,experiment,62,←,left,←,0.8580427002161741,True,28,1
161M19S3,576,experiment,69,→,right,→,0.6243755999021232,True,28,1
161M19S3,577,experiment,48,↓,right,→,0.886935300193727,False,28,1
161M19S3,578,experiment,67,↑,up,↑,0.8451422997750342,True,28,1
161M19S3,579,experiment,57,→,right,→,0.7040814002975821,True,28,1
161M19S3,580,experiment,108,↓,down,↓,0.6964364997111261,True,28,1
161M19S3,581,experiment,104,↓,up,↑,1.033112599980086,False,28,1
161M19S3,582,experiment,94,↓,down,↓,0.5199531000107527,True,28,1
161M19S3,583,experiment,85,↑,up,↑,0.6787734003737569,True,28,1
161M19S3,584,experiment,81,→,right,→,0.6484265001490712,True,28,1
161M19S3,585,experiment,96,↑,up,↑,0.8381226998753846,True,28,1
161M19S3,586,experiment,97,→,right,→,0.5958241000771523,True,28,1
161M19S3,587,experiment,66,←,left,←,0.6856001997366548,True,28,1
161M19S3,588,experiment,50,→,right,→,0.6013295999728143,True,28,1
161M19S3,589,experiment,56,↓,down,↓,0.702419999986887,True,28,1
161M19S3,590,experiment,89,→,right,→,0.5964261000044644,True,28,1
161M19S3,591,experiment,75,↑,up,↑,0.5151821998879313,True,28,1
161M19S3,592,experiment,71,↑,up,↑,0.5265852999873459,True,28,1
161M19S3,593,experiment,72,↑,up,↑,0.5212806998752058,True,28,1
161M19S3,594,experiment,100,↑,up,↑,0.9390273997560143,True,28,1
161M19S3,595,experiment,63,↑,up,↑,1.6560814999975264,True,28,1
161M19S3,596,experiment,90,←,left,←,0.711523899808526,True,28,1
161M19S3,597,experiment,87,←,left,←,0.6456663999706507,True,28,1
161M19S3,598,experiment,92,→,right,→,0.7966560996137559,True,28,1
161M19S3,599,experiment,98,←,left,←,0.6918517998419702,True,28,1
161M19S3,600,experiment,103,←,left,←,0.5094562000595033,True,28,1
161M19S3,601,experiment,68,↑,up,↑,0.922136599663645,True,28,1
161M19S3,602,experiment,102,↓,down,↓,0.5707168001681566,True,28,1
161M19S3,603,experiment,93,→,right,→,0.6284822998568416,True,28,1
161M19S3,604,experiment,70,↓,down,↓,0.45997359976172447,True,28,1
161M19S3,605,experiment,84,↑,up,↑,0.7332508000545204,True,28,1
161M19S3,606,experiment,78,→,right,→,0.5335858999751508,True,28,1
161M19S3,607,experiment,82,→,right,→,0.444762600120157,True,28,1
161M19S3,608,training,49,←,left,←,0.7058602999895811,True,28,0
161M19S3,609,training,81,←,left,←,0.514194100163877,True,28,1
161M19S3,610,experiment,106,←,left,←,0.44189450005069375,True,28,1
161M19S3,611,experiment,53,→,right,→,0.7103292001411319,True,28,1
161M19S3,612,experiment,71,→,right,→,0.6020076000131667,True,28,1
161M19S3,613,experiment,97,↑,up,↑,0.7533698999322951,True,28,1
161M19S3,614,experiment,87,↑,up,↑,0.5020649000070989,True,28,1
161M19S3,615,experiment,100,←,left,←,0.6085648001171649,True,28,1
161M19S3,616,experiment,68,←,left,←,1.257149700075388,True,28,1
161M19S3,617,experiment,75,↓,down,↓,0.43745840014889836,True,28,1
161M19S3,618,experiment,78,←,left,←,0.5936246002092957,True,28,1
161M19S3,619,experiment,103,→,right,→,0.6633138000033796,True,28,1
161M19S3,620,experiment,72,←,left,←,0.5644442997872829,True,28,1
161M19S3,621,experiment,65,←,left,←,0.7918548998422921,True,28,1
161M19S3,622,experiment,70,↑,up,↑,0.768401799723506,True,28,1
161M19S3,623,experiment,98,←,left,←,0.6570840999484062,True,28,1
161M19S3,624,experiment,66,↑,up,↑,0.5361526999622583,True,28,1
161M19S3,625,experiment,82,←,left,←,0.6792684001848102,True,28,1
161M19S3,626,experiment,105,→,no_key,no_letter,-1.0,False,28,1
161M19S3,627,experiment,99,↓,down,↓,0.563147199805826,True,28,1
161M19S3,628,experiment,57,→,right,→,0.6971793002448976,True,28,1
161M19S3,629,experiment,96,←,left,←,0.48483299976214767,True,28,1
161M19S3,630,experiment,61,↓,down,↓,0.5009917002171278,True,28,1
161M19S3,631,experiment,94,←,left,←,1.257328700274229,True,28,1
161M19S3,632,experiment,107,←,left,←,1.2749805999919772,True,28,1
161M19S3,633,experiment,73,←,left,←,0.5035077999345958,True,28,1
161M19S3,634,experiment,108,↑,up,↑,0.9989554001949728,True,28,1
161M19S3,635,experiment,93,→,right,→,0.7276256000623107,True,28,1
161M19S3,636,experiment,54,↑,up,↑,0.8643277999944985,True,28,1
161M19S3,637,experiment,59,←,left,←,0.5617207996547222,True,28,1
161M19S3,638,experiment,104,←,left,←,0.800396699924022,True,28,1
161M19S3,639,experiment,58,↓,down,↓,0.5169154000468552,True,28,1
161M19S3,640,experiment,101,→,right,→,0.4781419998034835,True,28,1
161M19S3,641,experiment,49,→,right,→,0.9227339001372457,True,28,1
161M19S3,642,experiment,83,↑,up,↑,0.6657444001175463,True,28,1
161M19S3,643,experiment,69,↓,down,↓,0.5436614002101123,True,28,1
161M19S3,644,experiment,51,↑,up,↑,0.7207427001558244,True,28,1
161M19S3,645,experiment,95,↑,up,↑,0.6201471998356283,True,28,1
161M19S3,646,experiment,85,←,left,←,0.518875400070101,True,28,1
161M19S3,647,experiment,88,↑,up,↑,0.6845667003653944,True,28,1
161M19S3,648,experiment,92,↑,right,→,0.7303456999361515,False,28,1
161M19S3,649,experiment,102,←,left,←,0.6266089999116957,True,28,1
161M19S3,650,experiment,52,→,right,→,0.7920532003045082,True,28,1
161M19S3,651,experiment,67,←,left,←,0.7697487003169954,True,28,1
161M19S3,652,experiment,74,←,right,→,1.1621720995754004,False,28,1
161M19S3,653,experiment,86,↓,down,↓,0.5108095998875797,True,28,1
161M19S3,654,experiment,64,←,left,←,0.7489092000760138,True,28,1
161M19S3,655,experiment,60,↑,up,↑,0.48262930009514093,True,28,1
161M19S3,656,experiment,89,→,right,→,0.72137639997527,True,28,1
161M19S3,657,experiment,77,→,right,→,0.5467194998636842,True,28,1
161M19S3,658,experiment,91,←,left,←,0.5500690001063049,True,28,1
161M19S3,659,experiment,80,→,right,→,0.7410865998826921,True,28,1
161M19S3,660,experiment,56,→,right,→,0.7167207999154925,True,28,1
161M19S3,661,experiment,81,→,right,→,0.6525166002102196,True,28,1
161M19S3,662,experiment,90,↓,down,↓,0.5803500995971262,True,28,1
161M19S3,663,experiment,63,→,right,→,0.9042123998515308,True,28,1
161M19S3,664,experiment,50,→,right,→,0.5547273997217417,True,28,1
161M19S3,665,experiment,76,→,right,→,0.6351336999796331,True,28,1
161M19S3,666,experiment,48,↑,up,↑,0.529585899785161,True,28,1
161M19S3,667,experiment,55,←,left,←,0.5456399000249803,True,28,1
161M19S3,668,experiment,84,→,right,→,0.511767600197345,True,28,1
161M19S3,669,experiment,79,→,right,→,0.6488820998929441,True,28,1
161M19S3,670,experiment,62,←,left,←,0.5299124997109175,True,28,1
161M19S3,671,training,55,↑,up,↑,0.5242401999421418,True,28,0
161M19S3,672,training,96,←,left,←,0.6948012998327613,True,28,1
161M19S3,673,experiment,93,↓,down,↓,0.7559034000150859,True,28,1
161M19S3,674,experiment,60,→,right,→,0.7052247999235988,True,28,1
161M19S3,675,experiment,107,↓,down,↓,0.5448697996325791,True,28,1
161M19S3,676,experiment,51,→,right,→,0.5139840999618173,True,28,1
161M19S3,677,experiment,92,→,right,→,0.5503382999449968,True,28,1
161M19S3,678,experiment,71,←,left,←,0.552517700009048,True,28,1
161M19S3,679,experiment,98,←,right,→,0.6815149001777172,False,28,1
161M19S3,680,experiment,77,→,right,→,0.7562800999730825,True,28,1
161M19S3,681,experiment,94,↓,down,↓,0.622322500217706,True,28,1
161M19S3,682,experiment,80,↓,down,↓,0.7542723999358714,True,28,1
161M19S3,683,experiment,86,↑,up,↑,0.6709222998470068,True,28,1
161M19S3,684,experiment,53,↓,right,→,1.2907225000672042,False,28,1
161M19S3,685,experiment,82,→,right,→,0.5067100999876857,True,28,1
161M19S3,686,experiment,57,↑,up,↑,0.4992360998876393,True,28,1
161M19S3,687,experiment,89,→,right,→,0.6971901999786496,True,28,1
161M19S3,688,experiment,59,←,left,←,0.6812319997698069,True,28,1
161M19S3,689,experiment,65,↓,down,↓,0.5199718000367284,True,28,1
161M19S3,690,experiment,52,←,left,←,0.5539295999333262,True,28,1
161M19S3,691,experiment,81,↓,down,↓,0.5045599997974932,True,28,1
161M19S3,692,experiment,108,←,left,←,0.7037762999534607,True,28,1
161M19S3,693,experiment,70,↓,down,↓,0.4442261001095176,True,28,1
161M19S3,694,experiment,48,↓,down,↓,0.6183584001846611,True,28,1
161M19S3,695,experiment,87,↓,down,↓,0.7243685000576079,True,28,1
161M19S3,696,experiment,50,↓,down,↓,0.6144134001806378,True,28,1
161M19S3,697,experiment,72,→,right,→,0.7814830001443624,True,28,1
161M19S3,698,experiment,91,←,left,←,0.7675071000121534,True,28,1
161M19S3,699,experiment,101,↓,down,↓,0.5747990002855659,True,28,1
161M19S3,700,experiment,61,↓,down,↓,1.2352300002239645,True,28,1
161M19S3,701,experiment,75,↓,down,↓,0.6008183001540601,True,28,1
161M19S3,702,experiment,56,→,right,→,0.49373820004984736,True,28,1
161M19S3,703,experiment,102,↓,down,↓,1.1918242000974715,True,28,1
161M19S3,704,experiment,100,→,right,→,0.41485670022666454,True,28,1
161M19S3,705,experiment,69,←,left,←,0.6465023998171091,True,28,1
161M19S3,706,experiment,105,↓,down,↓,0.7451172000728548,True,28,1
161M19S3,707,experiment,66,→,right,→,0.6131230001337826,True,28,1
161M19S3,708,experiment,106,↓,down,↓,0.5288892998360097,True,28,1
161M19S3,709,experiment,85,→,right,→,0.5354224001057446,True,28,1
161M19S3,710,experiment,55,←,left,←,0.5113217001780868,True,28,1
161M19S3,711,experiment,49,→,right,→,0.6505300998687744,True,28,1
161M19S3,712,experiment,67,↓,down,↓,0.45792589988559484,True,28,1
161M19S3,713,experiment,63,↑,down,↓,1.1942770001478493,False,28,1
161M19S3,714,experiment,88,↓,down,↓,0.6769973002374172,True,28,1
161M19S3,715,experiment,68,←,left,←,0.6350047998130322,True,28,1
161M19S3,716,experiment,103,←,right,→,0.8068896001204848,False,28,1
161M19S3,717,experiment,97,→,right,→,0.4620476998388767,True,28,1
161M19S3,718,experiment,64,↓,down,↓,0.8540496998466551,True,28,1
161M19S3,719,experiment,99,→,right,→,0.6424908000044525,True,28,1
161M19S3,720,experiment,62,↑,up,↑,0.5798449004068971,True,28,1
161M19S3,721,experiment,76,↑,up,↑,0.5713822999969125,True,28,1
161M19S3,722,experiment,78,↓,down,↓,0.5220296001061797,True,28,1
161M19S3,723,experiment,96,↑,up,↑,0.5726104001514614,True,28,1
161M19S3,724,experiment,104,→,right,→,0.6027473998256028,True,28,1
161M19S3,725,experiment,73,↑,up,↑,0.5541370999999344,True,28,1
161M19S3,726,experiment,95,←,right,→,0.9798408001661301,False,28,1
161M19S3,727,experiment,58,↑,right,→,0.8089243997819722,False,28,1
161M19S3,728,experiment,90,←,left,←,0.7861267002299428,True,28,1
161M19S3,729,experiment,79,↑,up,↑,0.7361686998046935,True,28,1
161M19S3,730,experiment,74,→,right,→,0.8898840001784265,True,28,1
161M19S3,731,experiment,84,↑,right,→,0.8979822997935116,False,28,1
161M19S3,732,experiment,54,↑,right,→,1.3315921002067626,False,28,1
161M19S3,733,experiment,83,→,right,→,0.5064994003623724,True,28,1
161M19S3,734,training,54,→,right,→,0.6611846000887454,True,28,0
161M19S3,735,training,105,↑,up,↑,0.7194535997696221,True,28,1
161M19S3,736,experiment,80,→,right,→,0.5359622002579272,True,28,1
161M19S3,737,experiment,94,↑,up,↑,0.5869224001653492,True,28,1
161M19S3,738,experiment,52,←,left,←,0.7381897997111082,True,28,1
161M19S3,739,experiment,99,→,right,→,0.6189604001119733,True,28,1
161M19S3,740,experiment,49,↓,down,↓,0.6097605000250041,True,28,1
161M19S3,741,experiment,54,↑,up,↑,0.6792150000110269,True,28,1
161M19S3,742,experiment,104,→,right,→,0.4890141999348998,True,28,1
161M19S3,743,experiment,82,→,right,→,0.6655496000312269,True,28,1
161M19S3,744,experiment,51,→,right,→,0.965750299859792,True,28,1
161M19S3,745,experiment,59,↑,right,→,1.3310491000302136,False,28,1
161M19S3,746,experiment,68,→,right,→,0.6628991002216935,True,28,1
161M19S3,747,experiment,84,↑,right,→,0.911755200009793,False,28,1
161M19S3,748,experiment,97,→,right,→,1.458706199657172,True,28,1
161M19S3,749,experiment,83,←,left,←,0.8282682998105884,True,28,1
161M19S3,750,experiment,66,←,left,←,0.7730453000403941,True,28,1
161M19S3,751,experiment,65,→,right,→,0.5922585004009306,True,28,1
161M19S3,752,experiment,105,↑,up,↑,0.7010442996397614,True,28,1
161M19S3,753,experiment,96,↑,up,↑,0.6406884999014437,True,28,1
161M19S3,754,experiment,102,←,left,←,0.5087963002733886,True,28,1
161M19S3,755,experiment,88,↑,up,↑,0.7069366998039186,True,28,1
161M19S3,756,experiment,73,←,left,←,0.4142458997666836,True,28,1
161M19S3,757,experiment,81,←,left,←,0.42602189956232905,True,28,1
161M19S3,758,experiment,87,←,left,←,0.45971830002963543,True,28,1
161M19S3,759,experiment,70,↓,down,↓,0.649827899876982,True,28,1
161M19S3,760,experiment,90,←,left,←,0.6015030001290143,True,28,1
161M19S3,761,experiment,93,→,right,→,0.8502046000212431,True,28,1
161M19S3,762,experiment,67,↓,down,↓,0.6736507997848094,True,28,1
161M19S3,763,experiment,106,←,down,↓,1.082920000422746,False,28,1
161M19S3,764,experiment,64,↓,down,↓,0.498066000174731,True,28,1
161M19S3,765,experiment,100,←,left,←,0.7884802999906242,True,28,1
161M19S3,766,experiment,103,↓,down,↓,0.6741641000844538,True,28,1
161M19S3,767,experiment,69,←,left,←,0.5597235998138785,True,28,1
161M19S3,768,experiment,72,←,left,←,0.9611813998781145,True,28,1
161M19S3,769,experiment,63,↑,down,↓,0.8055566996335983,False,28,1
161M19S3,770,experiment,61,↓,down,↓,0.7525678998790681,True,28,1
161M19S3,771,experiment,55,↓,down,↓,0.49587930040434003,True,28,1
161M19S3,772,experiment,77,→,right,→,0.5620550001040101,True,28,1
161M19S3,773,experiment,91,→,right,→,0.6370377000421286,True,28,1
161M19S3,774,experiment,74,↑,down,↓,1.3228335999883711,False,28,1
161M19S3,775,experiment,75,→,right,→,0.5965499002486467,True,28,1
161M19S3,776,experiment,56,↑,up,↑,0.7054526996798813,True,28,1
161M19S3,777,experiment,86,↓,down,↓,0.5922102998010814,True,28,1
161M19S3,778,experiment,108,→,right,→,0.6123226000927389,True,28,1
161M19S3,779,experiment,95,←,left,←,0.5395436999388039,True,28,1
161M19S3,780,experiment,50,↑,up,↑,0.8450552001595497,True,28,1
161M19S3,781,experiment,101,↓,down,↓,0.7613973999395967,True,28,1
161M19S3,782,experiment,79,→,right,→,0.5523226000368595,True,28,1
161M19S3,783,experiment,62,↓,down,↓,0.6294448003172874,True,28,1
161M19S3,784,experiment,60,↑,up,↑,0.5919371000491083,True,28,1
161M19S3,785,experiment,78,→,right,→,0.6138875000178814,True,28,1
161M19S3,786,experiment,48,↓,down,↓,0.5090451003052294,True,28,1
161M19S3,787,experiment,58,↓,down,↓,0.5251728999428451,True,28,1
161M19S3,788,experiment,57,↓,down,↓,0.5889959996566176,True,28,1
161M19S3,789,experiment,76,→,right,→,0.5396285001188517,True,28,1
161M19S3,790,experiment,107,→,right,→,0.5139314001426101,True,28,1
161M19S3,791,experiment,98,↑,up,↑,0.5162947997450829,True,28,1
161M19S3,792,experiment,92,↓,down,↓,0.528744800016284,True,28,1
161M19S3,793,experiment,85,←,left,←,0.6310866000130773,True,28,1
161M19S3,794,experiment,71,↑,up,↑,0.5258593000471592,True,28,1
161M19S3,795,experiment,89,←,left,←,0.4829128999263048,True,28,1
161M19S3,796,experiment,53,↑,left,←,1.6297204000875354,False,28,1
161M19S3,797,training,97,→,right,→,0.6617664997465909,True,28,0
161M19S3,798,training,62,→,right,→,0.4543779999949038,True,28,1
161M19S3,799,experiment,86,↓,down,↓,0.6311834999360144,True,28,1
161M19S3,800,experiment,78,↓,down,↓,0.42760059982538223,True,28,1
161M19S3,801,experiment,48,↓,down,↓,0.6744166002608836,True,28,1
161M19S3,802,experiment,50,→,right,→,0.38425959972664714,True,28,1
161M19S3,803,experiment,80,→,right,→,0.45186019968241453,True,28,0
161M19S3,804,experiment,65,→,right,→,0.6438973001204431,True,28,1
161M19S3,805,experiment,71,←,left,←,0.4903171001933515,True,28,1
161M19S3,806,experiment,68,↓,down,↓,0.6077401996590197,True,28,1
161M19S3,807,experiment,97,→,right,→,0.44702980015426874,True,28,1
161M19S3,808,experiment,56,←,left,←,0.4497816003859043,True,28,1
161M19S3,809,experiment,63,←,left,←,0.426715400069952,True,28,1
161M19S3,810,experiment,83,↑,up,↑,0.4776720996014774,True,28,1
161M19S3,811,experiment,84,↑,up,↑,0.40687619987875223,True,28,1
161M19S3,812,experiment,93,↑,up,↑,0.7671276996843517,True,28,0
161M19S3,813,experiment,92,→,right,→,0.45716780005022883,True,28,1
161M19S3,814,experiment,105,↓,down,↓,0.41222909977659583,True,28,1
161M19S3,815,experiment,95,←,left,←,0.45095020020380616,True,28,1
161M19S3,816,experiment,96,←,left,←,0.4168601999990642,True,28,1
161M19S3,817,experiment,101,→,left,←,1.2541046999394894,False,28,1
161M19S3,818,experiment,58,↓,right,→,1.016386500094086,False,28,1
161M19S3,819,experiment,66,↑,right,→,0.7614166000857949,False,28,1
161M19S3,820,experiment,104,→,right,→,0.4321421002969146,True,28,1
161M19S3,821,experiment,72,←,left,←,0.48677639989182353,True,28,1
161M19S3,822,experiment,85,→,right,→,0.6945706000551581,True,28,1
161M19S3,823,experiment,87,←,left,←,0.7016842998564243,True,28,1
161M19S3,824,experiment,99,↑,up,↑,0.472354699857533,True,28,1
161M19S3,825,experiment,100,↓,down,↓,0.7557248002849519,True,28,1
161M19S3,826,experiment,67,→,right,→,0.49491290003061295,True,28,1
161M19S3,827,experiment,53,↓,down,↓,0.7212145999073982,True,28,1
161M19S3,828,experiment,49,↑,up,↑,0.6516126999631524,True,28,1
161M19S3,829,experiment,52,←,left,←,0.6800232003442943,True,28,1
161M19S3,830,experiment,51,→,right,→,0.803424600046128,True,28,1
161M19S3,831,experiment,61,↑,up,↑,0.5188652002252638,True,28,1
161M19S3,832,experiment,69,↓,down,↓,0.49098180001601577,True,28,1
161M19S3,833,experiment,108,→,right,→,0.42703660018742085,True,28,1
161M19S3,834,experiment,55,↓,down,↓,0.623361499980092,True,28,1
161M19S3,835,experiment,64,↑,up,↑,0.6967616998590529,True,28,1
161M19S3,836,experiment,106,↓,down,↓,0.4252881999127567,True,28,1
161M19S3,837,experiment,79,↓,down,↓,0.4455518997274339,True,28,1
161M19S3,838,experiment,59,↑,up,↑,0.46375029999762774,True,28,1
161M19S3,839,experiment,54,→,right,→,0.6428605001419783,True,28,1
161M19S3,840,experiment,91,←,left,←,0.4744858001358807,True,28,1
161M19S3,841,experiment,88,→,right,→,0.44982360024005175,True,28,1
161M19S3,842,experiment,73,←,left,←,0.6712946002371609,True,28,1
161M19S3,843,experiment,98,↓,down,↓,0.49935550009831786,True,28,1
161M19S3,844,experiment,75,→,right,→,0.6621119999326766,True,28,1
161M19S3,845,experiment,57,↓,down,↓,0.5604357002303004,True,28,1
161M19S3,846,experiment,107,→,right,→,0.7261355998925865,True,28,1
161M19S3,847,experiment,103,→,right,→,0.430579399690032,True,28,1
161M19S3,848,experiment,89,→,right,→,0.8232132000848651,True,28,1
161M19S3,849,experiment,90,↓,down,↓,0.4799217996187508,True,28,1
161M19S3,850,experiment,70,↑,up,↑,0.7570535000413656,True,28,1
161M19S3,851,experiment,62,→,right,→,0.6180223999544978,True,28,1
161M19S3,852,experiment,94,←,left,←,0.44930419977754354,True,28,1
161M19S3,853,experiment,102,→,right,→,0.4771451000124216,True,28,1
161M19S3,854,experiment,76,↑,up,↑,0.6325483000837266,True,28,1
161M19S3,855,experiment,77,←,left,←,0.6533043002709746,True,28,1
161M19S3,856,experiment,81,←,left,←,0.4400558997876942,True,28,1
161M19S3,857,experiment,82,↑,up,↑,0.48299380019307137,True,28,1
161M19S3,858,experiment,74,↑,right,→,0.8624744997359812,False,28,1
161M19S3,859,experiment,60,→,right,→,0.5995064000599086,True,28,1
161M19S3,860,training,102,←,left,←,0.6088326000608504,True,28,0
161M19S3,861,training,98,←,left,←,0.463478600140661,True,28,1
161M19S3,862,experiment,49,→,right,→,0.4524647002108395,True,28,1
161M19S3,863,experiment,67,↓,down,↓,0.595864400267601,True,28,1
161M19S3,864,experiment,61,→,right,→,0.5270059001632035,True,28,1
161M19S3,865,experiment,64,↓,down,↓,0.5885968999937177,True,28,1
161M19S3,866,experiment,53,↓,down,↓,0.4669160000048578,True,28,1
161M19S3,867,experiment,66,↓,down,↓,0.3840252999216318,True,28,1
161M19S3,868,experiment,62,←,left,←,0.4140289998613298,True,28,0
161M19S3,869,experiment,94,↓,down,↓,0.43720930023118854,True,28,1
161M19S3,870,experiment,106,↑,up,↑,0.9438426997512579,True,28,1
161M19S3,871,experiment,87,←,left,←,0.5088791996240616,True,28,1
161M19S3,872,experiment,68,↑,up,↑,0.6576388999819756,True,28,1
161M19S3,873,experiment,101,↑,up,↑,0.9012519000098109,True,28,1
161M19S3,874,experiment,84,←,left,←,0.6529520000331104,True,28,1
161M19S3,875,experiment,77,↑,up,↑,0.6570240999571979,True,28,1
161M19S3,876,experiment,51,↓,down,↓,0.9254614999517798,True,28,1
161M19S3,877,experiment,85,→,right,→,0.5397517001256347,True,28,1
161M19S3,878,experiment,73,↓,down,↓,0.4774933001026511,True,28,1
161M19S3,879,experiment,70,↓,down,↓,0.7468997002579272,True,28,1
161M19S3,880,experiment,83,↓,down,↓,0.44097919994965196,True,28,1
161M19S3,881,experiment,89,←,left,←,0.7214365997351706,True,28,1
161M19S3,882,experiment,65,←,left,←,0.6228054999373853,True,28,1
161M19S3,883,experiment,96,↑,up,↑,0.7174395001493394,True,28,1
161M19S3,884,experiment,108,←,left,←,0.5964893000200391,True,28,1
161M19S3,885,experiment,59,←,left,←,0.6168848001398146,True,28,1
161M19S3,886,experiment,98,→,right,→,0.4551962995901704,True,28,1
161M19S3,887,experiment,69,↑,up,↑,0.6456253998912871,True,28,1
161M19S3,888,experiment,93,→,right,→,0.5086976001039147,True,28,1
161M19S3,889,experiment,105,→,right,→,0.46070290030911565,True,28,1
161M19S3,890,experiment,52,→,right,→,0.47292760014533997,True,28,1
161M19S3,891,experiment,50,↑,up,↑,0.8689209003932774,True,28,1
161M19S3,892,experiment,99,→,right,→,0.5129525000229478,True,28,1
161M19S3,893,experiment,54,←,left,←,0.5940206996165216,True,28,1
161M19S3,894,experiment,82,←,left,←,0.6707109003327787,True,28,1
161M19S3,895,experiment,92,↓,down,↓,0.6291778003796935,True,28,1
161M19S3,896,experiment,100,↑,up,↑,0.48249620012938976,True,28,1
161M19S3,897,experiment,107,↓,down,↓,0.6032401998527348,True,28,1
161M19S3,898,experiment,63,↑,up,↑,1.173903999850154,True,28,1
161M19S3,899,experiment,74,↓,down,↓,0.6539298999123275,True,28,1
161M19S3,900,experiment,75,↑,up,↑,0.6663099001161754,True,28,1
161M19S3,901,experiment,55,←,left,←,0.6610443997196853,True,28,1
161M19S3,902,experiment,71,←,right,→,1.05895010009408,False,28,1
161M19S3,903,experiment,80,↑,up,↑,0.7094041998498142,True,28,1
161M19S3,904,experiment,95,←,left,←,0.5372478002682328,True,28,1
161M19S3,905,experiment,58,↑,up,↑,0.6562239998020232,True,28,1
161M19S3,906,experiment,57,←,left,←,0.9626954002305865,True,28,1
161M19S3,907,experiment,48,↑,up,↑,0.5717497998848557,True,28,1
161M19S3,908,experiment,104,↑,up,↑,0.7541020000353456,True,28,1
161M19S3,909,experiment,102,↑,up,↑,0.6896987999789417,True,28,1
161M19S3,910,experiment,79,→,right,→,0.6354208998382092,True,28,1
161M19S3,911,experiment,72,→,right,→,0.6182052996009588,True,28,1
161M19S3,912,experiment,86,↑,right,→,0.7642116001807153,False,28,1
161M19S3,913,experiment,60,→,right,→,0.7133035999722779,True,28,1
161M19S3,914,experiment,97,↓,down,↓,1.0444435998797417,True,28,1
161M19S3,915,experiment,88,↑,up,↑,0.6927278996445239,True,28,1
161M19S3,916,experiment,103,→,right,→,0.5982527998276055,True,28,1
161M19S3,917,experiment,56,↓,right,→,0.7554526999592781,False,28,1
161M19S3,918,experiment,76,→,right,→,0.5633665998466313,True,28,1
161M19S3,919,experiment,78,↑,up,↑,0.46643689973279834,True,28,1
161M19S3,920,experiment,90,↑,up,↑,0.48958020005375147,True,28,1
161M19S3,921,experiment,81,←,left,←,0.5705892001278698,True,28,1
161M19S3,922,experiment,91,↑,up,↑,0.46131209982559085,True,28,1
161M19S3,923,training,56,←,right,→,1.0795013001188636,False,28,0
161M19S3,924,training,59,↑,up,↑,0.5363070000894368,True,28,1
161M19S3,925,experiment,96,↓,down,↓,0.4667505999095738,True,28,1
161M19S3,926,experiment,80,↑,up,↑,0.492953899782151,True,28,1
161M19S3,927,experiment,69,←,left,←,0.8179858000949025,True,28,1
161M19S3,928,experiment,56,←,left,←,0.7423821999691427,True,28,1
161M19S3,929,experiment,51,↑,up,↑,0.5275261998176575,True,28,1
161M19S3,930,experiment,57,↓,down,↓,0.47921649971976876,True,28,1
161M19S3,931,experiment,66,→,right,→,0.973667100071907,True,28,1
161M19S3,932,experiment,81,↑,up,↑,0.4913499001413584,True,28,1
161M19S3,933,experiment,68,←,left,←,0.4728573998436332,True,28,1
161M19S3,934,experiment,62,↓,right,→,0.880927599966526,False,28,1
161M19S3,935,experiment,108,→,right,→,0.6252852003090084,True,28,1
161M19S3,936,experiment,53,↑,right,→,0.846314599737525,False,28,1
161M19S3,937,experiment,107,←,left,←,0.47221980011090636,True,28,1
161M19S3,938,experiment,98,→,right,→,0.6922634998336434,True,28,1
161M19S3,939,experiment,84,↓,down,↓,0.47650269977748394,True,28,1
161M19S3,940,experiment,49,→,right,→,0.7930691996589303,True,28,1
161M19S3,941,experiment,102,→,right,→,0.6307640001177788,True,28,1
161M19S3,942,experiment,82,←,left,←,0.5539173004217446,True,28,1
161M19S3,943,experiment,75,→,right,→,0.7302779997698963,True,28,1
161M19S3,944,experiment,91,→,right,→,0.622363300062716,True,28,1
161M19S3,945,experiment,54,↓,down,↓,0.619013600051403,True,28,1
161M19S3,946,experiment,94,→,right,→,0.6347827999852598,True,28,1
161M19S3,947,experiment,63,←,left,←,0.5401344001293182,True,28,1
161M19S3,948,experiment,58,↑,down,↓,0.9148917999118567,False,28,1
161M19S3,949,experiment,86,↑,up,↑,0.4332538000307977,True,28,1
161M19S3,950,experiment,52,←,right,→,0.7263230998069048,False,28,1
161M19S3,951,experiment,71,↓,down,↓,0.8814479997381568,True,28,1
161M19S3,952,experiment,87,↑,up,↑,1.0246931002475321,True,28,1
161M19S3,953,experiment,89,←,left,←,0.46592439990490675,True,28,1
161M19S3,954,experiment,64,→,right,→,0.5455428999848664,True,28,1
161M19S3,955,experiment,73,↓,down,↓,0.4428816996514797,True,28,1
161M19S3,956,experiment,95,→,right,→,0.4812949001789093,True,28,1
161M19S3,957,experiment,85,←,left,←,0.4412983995862305,True,28,1
161M19S3,958,experiment,48,←,right,→,1.6474837004207075,False,28,1
161M19S3,959,experiment,105,↑,up,↑,0.4343754998408258,True,28,1
161M19S3,960,experiment,79,↓,right,→,1.246056499890983,False,28,1
161M19S3,961,experiment,61,←,left,←,0.4314073002897203,True,28,1
161M19S3,962,experiment,99,↓,down,↓,0.4847782999277115,True,28,1
161M19S3,963,experiment,90,↓,down,↓,0.8432541000656784,True,28,1
161M19S3,964,experiment,83,→,right,→,0.8615033999085426,True,28,1
161M19S3,965,experiment,78,↑,up,↑,1.120867199730128,True,28,1
161M19S3,966,experiment,59,←,left,←,0.6238675001077354,True,28,1
161M19S3,967,experiment,55,↑,left,←,1.1563279000110924,False,28,1
161M19S3,968,experiment,77,↓,right,→,1.0359445000067353,False,28,1
161M19S3,969,experiment,97,→,right,→,0.5302293999120593,True,28,1
161M19S3,970,experiment,50,←,left,←,0.7398614999838173,True,28,1
161M19S3,971,experiment,100,←,left,←,0.4443574999459088,True,28,1
161M19S3,972,experiment,72,↓,down,↓,0.9145617000758648,True,28,1
161M19S3,973,experiment,74,↑,up,↑,0.8208147003315389,True,28,1
161M19S3,974,experiment,76,→,right,→,0.7545234002172947,True,28,1
161M19S3,975,experiment,70,→,right,→,0.5330795999616385,True,28,1
161M19S3,976,experiment,93,↓,down,↓,0.46438869973644614,True,28,1
161M19S3,977,experiment,101,↑,up,↑,0.5396767002530396,True,28,1
161M19S3,978,experiment,67,←,left,←,0.4233936001546681,True,28,1
161M19S3,979,experiment,104,→,right,→,1.0914306002669036,True,28,1
161M19S3,980,experiment,106,→,right,→,0.9564255997538567,True,28,1
161M19S3,981,experiment,60,←,left,←,1.0014021000824869,True,28,1
161M19S3,982,experiment,65,↑,up,↑,0.6599644999951124,True,28,1
161M19S3,983,experiment,88,↑,up,↑,0.4754970003850758,True,28,1
161M19S3,984,experiment,103,↑,up,↑,0.8059280999004841,True,28,1
161M19S3,985,experiment,92,→,right,→,0.5025752000510693,True,28,1
161M19S3,986,training,88,↓,down,↓,0.7693033004179597,True,28,0
161M19S3,987,training,105,↑,up,↑,0.4156730002723634,True,28,1
161M19S3,988,experiment,103,←,right,→,0.8280011001043022,False,28,1
161M19S3,989,experiment,49,→,right,→,0.9223405998200178,True,28,1
161M19S3,990,experiment,72,←,left,←,0.7731265998445451,True,28,1
161M19S3,991,experiment,88,↑,up,↑,0.46446389984339476,True,28,1
161M19S3,992,experiment,56,↑,up,↑,0.6028098999522626,True,28,1
161M19S3,993,experiment,59,→,right,→,0.5270241000689566,True,28,1
161M19S3,994,experiment,87,←,left,←,0.7246627998538315,True,28,1
161M19S3,995,experiment,63,↑,up,↑,0.706377699971199,True,28,1
161M19S3,996,experiment,91,←,left,←,0.5196628998965025,True,28,1
161M19S3,997,experiment,62,→,right,→,0.5898370002396405,True,28,1
161M19S3,998,experiment,70,↑,up,↑,0.5105724995955825,True,28,1
161M19S3,999,experiment,58,↑,up,↑,0.7506214999593794,True,28,1
161M19S3,1000,experiment,79,↑,up,↑,0.8780169999226928,True,28,1
161M19S3,1001,experiment,53,↓,down,↓,0.7053492004051805,True,28,1
161M19S3,1002,experiment,67,↓,down,↓,0.6701177000068128,True,28,1
161M19S3,1003,experiment,101,↓,down,↓,0.6575647997669876,True,28,1
161M19S3,1004,experiment,95,↑,up,↑,0.7272673002444208,True,28,1
161M19S3,1005,experiment,85,→,right,→,0.5816192999482155,True,28,1
161M19S3,1006,experiment,78,↓,down,↓,0.5480597000569105,True,28,1
161M19S3,1007,experiment,89,↓,down,↓,0.4800028996542096,True,28,1
161M19S3,1008,experiment,99,←,left,←,0.8114608000032604,True,28,1
161M19S3,1009,experiment,52,↑,up,↑,0.761446500197053,True,28,1
161M19S3,1010,experiment,94,←,left,←,0.5395855000242591,True,28,1
161M19S3,1011,experiment,102,→,right,→,0.5635110000148416,True,28,1
161M19S3,1012,experiment,97,→,right,→,0.932290299795568,True,28,1
161M19S3,1013,experiment,65,↓,down,↓,0.7369095999747515,True,28,1
161M19S3,1014,experiment,90,↓,down,↓,0.6532320999540389,True,28,1
161M19S3,1015,experiment,54,↑,up,↑,0.5929912999272346,True,28,1
161M19S3,1016,experiment,48,←,right,→,0.9530922998674214,False,28,1
161M19S3,1017,experiment,74,→,right,→,0.49010549997910857,True,28,1
161M19S3,1018,experiment,75,→,right,→,0.6372157000005245,True,28,1
161M19S3,1019,experiment,60,↓,down,↓,0.623660999815911,True,28,1
161M19S3,1020,experiment,106,↑,up,↑,0.715127999894321,True,28,1
161M19S3,1021,experiment,57,→,right,→,0.7950246003456414,True,28,1
161M19S3,1022,experiment,93,→,right,→,0.7320121000520885,True,28,1
161M19S3,1023,experiment,76,↑,up,↑,0.477108099963516,True,28,1
161M19S3,1024,experiment,84,←,left,←,0.6938199996948242,True,28,1
161M19S3,1025,experiment,98,←,left,←,1.0171481999568641,True,28,1
161M19S3,1026,experiment,66,↑,up,↑,0.4661797001026571,True,28,1
161M19S3,1027,experiment,71,→,right,→,0.7355498000979424,True,28,1
161M19S3,1028,experiment,81,→,right,→,0.7350149997510016,True,28,1
161M19S3,1029,experiment,83,→,right,→,0.4937346000224352,True,28,1
161M19S3,1030,experiment,96,←,left,←,0.7857408998534083,True,28,1
161M19S3,1031,experiment,55,→,left,←,0.8559119002893567,False,28,1
161M19S3,1032,experiment,64,←,left,←,0.5838846997357905,True,28,1
161M19S3,1033,experiment,108,↑,up,↑,0.4922246001660824,True,28,1
161M19S3,1034,experiment,86,←,left,←,0.45963979978114367,True,28,1
161M19S3,1035,experiment,107,↑,up,↑,0.6613234002143145,True,28,1
161M19S3,1036,experiment,105,↓,down,↓,0.4636876997537911,True,28,1
161M19S3,1037,experiment,80,↑,up,↑,0.6980429999530315,True,28,1
161M19S3,1038,experiment,104,↑,right,→,1.4190191999077797,False,28,1
161M19S3,1039,experiment,69,↓,down,↓,0.6591337998397648,True,28,1
161M19S3,1040,experiment,50,→,right,→,0.5037270998582244,True,28,1
161M19S3,1041,experiment,92,←,left,←,0.6208450002595782,True,28,1
161M19S3,1042,experiment,68,↓,down,↓,0.4213614002801478,True,28,1
161M19S3,1043,experiment,82,↑,up,↑,0.7206215998157859,True,28,1
161M19S3,1044,experiment,77,↑,up,↑,0.7139908000826836,True,28,1
161M19S3,1045,experiment,51,←,left,←,0.8680426999926567,True,28,1
161M19S3,1046,experiment,100,↑,up,↑,0.6797078000381589,True,28,1
161M19S3,1047,experiment,73,←,left,←,1.5318883997388184,True,28,1
161M19S3,1048,experiment,61,↑,up,↑,0.6818118998780847,True,28,1
161M19S3,1049,training,80,←,left,←,0.6826093001291156,True,28,0
161M19S3,1050,training,98,←,right,→,0.8221504003740847,False,28,1
161M19S3,1051,experiment,103,↓,down,↓,0.6106134997680783,True,28,1
161M19S3,1052,experiment,104,←,left,←,0.5832307999953628,True,28,1
161M19S3,1053,experiment,68,→,right,→,0.8489751000888646,True,28,1
161M19S3,1054,experiment,56,↑,up,↑,0.5720451003871858,True,28,1
161M19S3,1055,experiment,96,←,left,←,0.4847516003064811,True,28,1
161M19S3,1056,experiment,105,↑,up,↑,0.5740843997336924,True,28,1
161M19S3,1057,experiment,71,↑,up,↑,0.6793754999525845,True,28,1
161M19S3,1058,experiment,69,↑,right,→,0.7169611002318561,False,28,1
161M19S3,1059,experiment,83,→,right,→,0.5562619999982417,True,28,1
161M19S3,1060,experiment,81,←,left,←,0.8026418997906148,True,28,1
161M19S3,1061,experiment,51,→,right,→,0.5535461995750666,True,28,1
161M19S3,1062,experiment,60,↓,down,↓,0.5029666000045836,True,28,1
161M19S3,1063,experiment,80,↑,up,↑,0.7441618000157177,True,28,1
161M19S3,1064,experiment,73,↑,up,↑,0.49800470005720854,True,28,1
161M19S3,1065,experiment,58,↓,down,↓,0.5863421000540257,True,28,1
161M19S3,1066,experiment,85,↓,down,↓,0.9024048000574112,True,28,1
161M19S3,1067,experiment,72,←,left,←,0.6581978998146951,True,28,1
161M19S3,1068,experiment,77,↓,down,↓,0.8777971002273262,True,28,1
161M19S3,1069,experiment,49,↓,down,↓,0.5702487002126873,True,28,1
161M19S3,1070,experiment,87,←,left,←,0.6062341998331249,True,28,1
161M19S3,1071,experiment,74,↓,down,↓,0.453241900075227,True,28,1
161M19S3,1072,experiment,50,→,right,→,0.5141376997344196,True,28,1
161M19S3,1073,experiment,75,→,right,→,0.5641867998056114,True,28,1
161M19S3,1074,experiment,99,↓,down,↓,0.8681981000117958,True,28,1
161M19S3,1075,experiment,78,↓,down,↓,0.6072883000597358,True,28,1
161M19S3,1076,experiment,53,←,left,←,0.4609925001859665,True,28,1
161M19S3,1077,experiment,76,←,left,←,0.6091457000002265,True,28,1
161M19S3,1078,experiment,55,←,left,←,0.7262411997653544,True,28,1
161M19S3,1079,experiment,62,↓,down,↓,0.5801021000370383,True,28,1
161M19S3,1080,experiment,108,←,left,←,0.6726207998581231,True,28,1
161M19S3,1081,experiment,70,→,right,→,0.470117200165987,True,28,1
161M19S3,1082,experiment,89,←,left,←,0.6374666001647711,True,28,1
161M19S3,1083,experiment,63,→,right,→,0.6387106999754906,True,28,1
161M19S3,1084,experiment,95,←,left,←,0.5253092995844781,True,28,1
161M19S3,1085,experiment,98,→,right,→,0.6711883000098169,True,28,1
161M19S3,1086,experiment,97,↑,up,↑,0.5715264002792537,True,28,1
161M19S3,1087,experiment,48,↓,down,↓,0.5723008001223207,True,28,1
161M19S3,1088,experiment,102,←,left,←,0.43514789966866374,True,28,1
161M19S3,1089,experiment,65,↑,right,→,0.7398962001316249,False,28,1
161M19S3,1090,experiment,88,↓,down,↓,0.5445473003201187,True,28,1
161M19S3,1091,experiment,59,↑,up,↑,0.742922100238502,True,28,1
161M19S3,1092,experiment,93,↑,up,↑,0.6661235997453332,True,28,1
161M19S3,1093,experiment,67,↓,down,↓,0.8006249000318348,True,28,1
161M19S3,1094,experiment,54,←,left,←,0.6146281999535859,True,28,1
161M19S3,1095,experiment,52,↑,up,↑,0.516257899813354,True,28,1
161M19S3,1096,experiment,101,↑,up,↑,0.7254918999969959,True,28,1
161M19S3,1097,experiment,82,↑,up,↑,0.6849012998864055,True,28,1
161M19S3,1098,experiment,91,→,right,→,0.5229838998056948,True,28,1
161M19S3,1099,experiment,107,↑,up,↑,0.4739430001936853,True,28,1
161M19S3,1100,experiment,86,←,left,←,0.7619786001741886,True,28,1
161M19S3,1101,experiment,106,←,left,←,0.5280196997337043,True,28,1
161M19S3,1102,experiment,94,←,left,←,0.49947289982810616,True,28,1
161M19S3,1103,experiment,79,↑,up,↑,0.6368661001324654,True,28,1
161M19S3,1104,experiment,90,→,right,→,0.4851628001779318,True,28,1
161M19S3,1105,experiment,92,→,right,→,0.427021199837327,True,28,1
161M19S3,1106,experiment,100,↓,up,↑,0.8802465000189841,False,28,1
161M19S3,1107,experiment,64,←,left,←,0.5272861002013087,True,28,1
161M19S3,1108,experiment,66,←,left,←,0.4202888999134302,True,28,1
161M19S3,1109,experiment,84,→,right,→,0.5107942996546626,True,28,1
161M19S3,1110,experiment,57,↓,down,↓,0.5753564997576177,True,28,1
161M19S3,1111,experiment,61,↑,right,→,0.7797396001406014,False,28,1
161M19S3,1112,training,53,←,left,←,0.4733583997003734,True,28,0
161M19S3,1113,training,88,↓,down,↓,0.6329609998501837,True,28,1
161M19S3,1114,experiment,102,↑,up,↑,0.5810308996587992,True,28,1
161M19S3,1115,experiment,55,↑,up,↑,0.5230462001636624,True,28,1
161M19S3,1116,experiment,100,→,right,→,0.6925023999065161,True,28,1
161M19S3,1117,experiment,70,↓,down,↓,0.48940159985795617,True,28,1
161M19S3,1118,experiment,77,←,left,←,0.6758999996818602,True,28,1
161M19S3,1119,experiment,91,←,left,←,0.737932600080967,True,28,1
161M19S3,1120,experiment,78,←,left,←,0.5703242998570204,True,28,1
161M19S3,1121,experiment,96,↓,down,↓,0.851273899897933,True,28,1
161M19S3,1122,experiment,101,→,right,→,0.6234871000051498,True,28,1
161M19S3,1123,experiment,88,←,left,←,0.4169815997593105,True,28,1
161M19S3,1124,experiment,73,←,left,←,0.6796411997638643,True,28,1
161M19S3,1125,experiment,69,↑,up,↑,0.6050256998278201,True,28,1
161M19S3,1126,experiment,85,↓,down,↓,0.7520203003659844,True,28,1
161M19S3,1127,experiment,82,→,right,→,0.7662426996976137,True,28,1
161M19S3,1128,experiment,61,←,left,←,0.9230730999261141,True,28,1
161M19S3,1129,experiment,50,←,right,→,0.6370477001182735,False,28,1
161M19S3,1130,experiment,105,→,right,→,0.5044724000617862,True,28,1
161M19S3,1131,experiment,49,→,right,→,0.6918498002924025,True,28,1
161M19S3,1132,experiment,108,↓,right,→,0.6360185001976788,False,28,1
161M19S3,1133,experiment,56,↓,down,↓,0.7515773996710777,True,28,1
161M19S3,1134,experiment,66,→,right,→,0.643319200258702,True,28,1
161M19S3,1135,experiment,60,↑,up,↑,0.8294330998323858,True,28,1
161M19S3,1136,experiment,81,↓,down,↓,0.5768398996442556,True,28,1
161M19S3,1137,experiment,83,↓,down,↓,0.4538822998292744,True,28,1
161M19S3,1138,experiment,92,↓,down,↓,0.6129642999731004,True,28,1
161M19S3,1139,experiment,74,→,right,→,0.7073165001347661,True,28,1
161M19S3,1140,experiment,62,↓,down,↓,0.46601800015196204,True,28,1
161M19S3,1141,experiment,75,↑,up,↑,0.7583775999955833,True,28,1
161M19S3,1142,experiment,65,↓,down,↓,0.9857758996076882,True,28,1
161M19S3,1143,experiment,99,→,right,→,0.5931811998598278,True,28,1
161M19S3,1144,experiment,98,↑,up,↑,0.7125413999892771,True,28,1
161M19S3,1145,experiment,51,↑,up,↑,1.2989056003279984,True,28,1
161M19S3,1146,experiment,52,→,right,→,0.5332023999653757,True,28,1
161M19S3,1147,experiment,54,↓,down,↓,0.6295862998813391,True,28,1
161M19S3,1148,experiment,71,←,left,←,0.6363535998389125,True,28,1
161M19S3,1149,experiment,79,↑,left,←,1.4404696999117732,False,28,1
161M19S3,1150,experiment,86,→,right,→,0.5057836999185383,True,28,1
161M19S3,1151,experiment,104,↓,down,↓,0.6185813001357019,True,28,1
161M19S3,1152,experiment,89,↑,up,↑,0.851779599674046,True,28,1
161M19S3,1153,experiment,72,↓,down,↓,0.5934889996424317,True,28,1
161M19S3,1154,experiment,59,←,left,←,0.6298409001901746,True,28,1
161M19S3,1155,experiment,95,↑,up,↑,0.7645960999652743,True,28,1
161M19S3,1156,experiment,90,↑,up,↑,0.6156858000904322,True,28,1
161M19S3,1157,experiment,57,→,right,→,0.8117480003274977,True,28,1
161M19S3,1158,experiment,87,↑,up,↑,0.9180779997259378,True,28,1
161M19S3,1159,experiment,107,←,left,←,0.709464100189507,True,28,1
161M19S3,1160,experiment,68,←,right,→,0.9380316999740899,False,28,1
161M19S3,1161,experiment,48,↓,down,↓,0.828063199762255,True,28,1
161M19S3,1162,experiment,97,↓,down,↓,0.6504647000692785,True,28,1
161M19S3,1163,experiment,67,←,left,←,0.7618320998735726,True,28,1
161M19S3,1164,experiment,76,↑,up,↑,0.9458705997094512,True,28,1
161M19S3,1165,experiment,84,→,right,→,0.6475316998548806,True,28,1
161M19S3,1166,experiment,80,↓,down,↓,1.3385954000987113,True,28,1
161M19S3,1167,experiment,106,↓,right,→,1.001189799979329,False,28,1
161M19S3,1168,experiment,94,←,left,←,0.8575313002802432,True,28,1
161M19S3,1169,experiment,58,←,right,→,1.1715346002019942,False,28,1
161M19S3,1170,experiment,64,→,right,→,0.5111519997008145,True,28,1
161M19S3,1171,experiment,103,↑,up,↑,0.655908599961549,True,28,1
161M19S3,1172,experiment,53,↑,up,↑,0.7076568002812564,True,28,1
161M19S3,1173,experiment,93,→,right,→,0.5039882003329694,True,28,1
161M19S3,1174,experiment,63,↑,right,→,0.8147897999733686,False,28,1
161M19S3,1175,training,66,↑,up,↑,0.549861699808389,True,28,0
161M19S3,1176,training,58,→,right,→,0.6761392001062632,True,28,1
161M19S3,1177,experiment,79,↑,right,→,0.702375499997288,False,28,1
161M19S3,1178,experiment,60,→,right,→,1.0780791002325714,True,28,1
161M19S3,1179,experiment,97,↓,down,↓,0.4185831001959741,True,28,1
161M19S3,1180,experiment,72,↑,up,↑,0.8016103999689221,True,28,1
161M19S3,1181,experiment,96,↑,up,↑,0.6091669998131692,True,28,1
161M19S3,1182,experiment,56,←,left,←,0.46197120007127523,True,28,1
161M19S3,1183,experiment,89,↑,up,↑,0.5737823001109064,True,28,1
161M19S3,1184,experiment,91,↓,down,↓,0.4480373999103904,True,28,1
161M19S3,1185,experiment,76,←,left,←,0.44449140038341284,True,28,1
161M19S3,1186,experiment,100,←,left,←,0.5052375998347998,True,28,1
161M19S3,1187,experiment,101,→,right,→,0.45089889969676733,True,28,1
161M19S3,1188,experiment,57,↓,down,↓,0.46166109992191195,True,28,1
161M19S3,1189,experiment,84,←,left,←,0.36823939997702837,True,28,1
161M19S3,1190,experiment,93,↑,up,↑,0.424638899974525,True,28,0
161M19S3,1191,experiment,67,→,right,→,0.616935099940747,True,28,1
161M19S3,1192,experiment,49,↑,up,↑,0.7596905999816954,True,28,1
161M19S3,1193,experiment,94,↓,down,↓,0.4817266003228724,True,28,1
161M19S3,1194,experiment,54,↓,down,↓,0.6922721001319587,True,28,1
161M19S3,1195,experiment,80,↓,down,↓,0.5015891999937594,True,28,1
161M19S3,1196,experiment,108,→,right,→,0.637204600032419,True,28,1
161M19S3,1197,experiment,75,←,left,←,1.4906977000646293,True,28,1
161M19S3,1198,experiment,92,→,right,→,0.9598937002010643,True,28,1
161M19S3,1199,experiment,82,←,left,←,0.46185060031712055,True,28,1
161M19S3,1200,experiment,59,←,left,←,0.7997928000986576,True,28,1
161M19S3,1201,experiment,70,→,right,→,0.5840472998097539,True,28,1
161M19S3,1202,experiment,63,←,left,←,0.5553629999049008,True,28,1
161M19S3,1203,experiment,105,↓,right,→,0.721854199655354,False,28,1
161M19S3,1204,experiment,88,↑,right,→,0.9431365001946688,False,28,1
161M19S3,1205,experiment,73,↓,right,→,0.8568357001058757,False,28,1
161M19S3,1206,experiment,65,←,left,←,1.192605399992317,True,28,1
161M19S3,1207,experiment,85,↑,up,↑,0.5001958999782801,True,28,1
161M19S3,1208,experiment,87,↓,down,↓,0.7308748997747898,True,28,1
161M19S3,1209,experiment,99,→,right,→,0.7881970996968448,True,28,1
161M19S3,1210,experiment,104,→,right,→,0.5296037998050451,True,28,1
161M19S3,1211,experiment,95,→,right,→,0.6046357997693121,True,28,1
161M19S3,1212,experiment,86,←,left,←,0.9433542001061141,True,28,1
161M19S3,1213,experiment,53,↑,up,↑,0.5277107995934784,True,28,1
161M19S3,1214,experiment,51,→,right,→,0.9296281998977065,True,28,1
161M19S3,1215,experiment,50,↑,right,→,1.0111663998104632,False,28,1
161M19S3,1216,experiment,48,↑,up,↑,0.4825975997373462,True,28,1
161M19S3,1217,experiment,69,↑,right,→,0.880024699959904,False,28,1
161M19S3,1218,experiment,64,→,right,→,0.4630784001201391,True,28,1
161M19S3,1219,experiment,78,↓,right,→,1.122106899973005,False,28,1
161M19S3,1220,experiment,74,↑,right,→,1.1880566999316216,False,28,1
161M19S3,1221,experiment,77,↑,up,↑,0.43469189992174506,True,28,1
161M19S3,1222,experiment,106,→,right,→,0.789778399746865,True,28,1
161M19S3,1223,experiment,107,→,right,→,0.49015780026093125,True,28,1
161M19S3,1224,experiment,103,↑,up,↑,0.42794690001755953,True,28,1
161M19S3,1225,experiment,61,↑,up,↑,0.7022418999113142,True,28,1
161M19S3,1226,experiment,81,↓,right,→,0.839697299990803,False,28,1
161M19S3,1227,experiment,52,↑,right,→,0.9956621997989714,False,28,1
161M19S3,1228,experiment,58,←,right,→,0.7919604000635445,False,28,1
161M19S3,1229,experiment,98,↑,right,→,1.247325100004673,False,28,1
161M19S3,1230,experiment,83,→,right,→,0.4733576998114586,True,28,1
161M19S3,1231,experiment,102,→,right,→,0.4440629002638161,True,28,1
161M19S3,1232,experiment,55,←,left,←,1.159943699836731,True,28,1
161M19S3,1233,experiment,90,→,right,→,0.5474048997275531,True,28,1
161M19S3,1234,experiment,68,↑,up,↑,0.45431659976020455,True,28,1
161M19S3,1235,experiment,71,↓,down,↓,1.1880459999665618,True,28,1
161M19S3,1236,experiment,62,↓,right,→,1.1276043001562357,False,28,1
161M19S3,1237,experiment,66,→,right,→,0.6685739997774363,True,28,1
161M19S3,1238,training,67,↑,up,↑,0.49392039980739355,True,28,0
161M19S3,1239,training,67,↑,up,↑,0.483659400139004,True,28,1
161M19S3,1240,experiment,82,→,right,→,0.7087367000058293,True,28,1
161M19S3,1241,experiment,51,↑,down,↓,1.167020000051707,False,28,1
161M19S3,1242,experiment,65,→,right,→,0.8344164001755416,True,28,1
161M19S3,1243,experiment,104,→,down,↓,1.4300939999520779,False,28,1
161M19S3,1244,experiment,53,↑,up,↑,0.7947760000824928,True,28,1
161M19S3,1245,experiment,97,→,right,→,0.8663731999695301,True,28,1
161M19S3,1246,experiment,55,↓,down,↓,0.6850884999148548,True,28,1
161M19S3,1247,experiment,56,↓,down,↓,0.9508828003890812,True,28,1
161M19S3,1248,experiment,63,↑,up,↑,0.6354927998036146,True,28,1
161M19S3,1249,experiment,77,↑,right,→,0.9762554997578263,False,28,1
161M19S3,1250,experiment,105,↓,down,↓,1.1659383997321129,True,28,1
161M19S3,1251,experiment,85,↓,right,→,1.0505616003647447,False,28,1
161M19S3,1252,experiment,62,→,right,→,0.4675159999169409,True,28,1
161M19S3,1253,experiment,80,↑,up,↑,0.6138951000757515,True,28,1
161M19S3,1254,experiment,54,↓,down,↓,0.6590426000766456,True,28,1
161M19S3,1255,experiment,96,←,left,←,0.4644332998432219,True,28,1
161M19S3,1256,experiment,75,←,left,←,0.7084687002934515,True,28,1
161M19S3,1257,experiment,90,↑,up,↑,0.8178750001825392,True,28,1
161M19S3,1258,experiment,84,→,right,→,0.7968905000016093,True,28,1
161M19S3,1259,experiment,69,↓,down,↓,0.9096301002427936,True,28,1
161M19S3,1260,experiment,79,←,left,←,0.4625852000899613,True,28,1
161M19S3,1261,experiment,107,↓,down,↓,0.4399152002297342,True,28,1
161M19S3,1262,experiment,72,↓,down,↓,0.49410440027713776,True,28,1
161M19S3,1263,experiment,48,←,left,←,0.6021202001720667,True,28,1
161M19S3,1264,experiment,66,→,right,→,0.9799480000510812,True,28,1
161M19S3,1265,experiment,106,↑,up,↑,0.4890220002271235,True,28,1
161M19S3,1266,experiment,64,←,left,←,0.543720600195229,True,28,1
161M19S3,1267,experiment,71,↓,right,→,0.9220035998150706,False,28,1
161M19S3,1268,experiment,68,↓,down,↓,0.9261155999265611,True,28,1
161M19S3,1269,experiment,59,→,right,→,0.4691747003234923,True,28,1
161M19S3,1270,experiment,50,↓,down,↓,0.48153070034459233,True,28,1
161M19S3,1271,experiment,49,↓,down,↓,0.805850500240922,True,28,1
161M19S3,1272,experiment,74,→,right,→,0.8443231000564992,True,28,1
161M19S3,1273,experiment,60,↓,down,↓,0.6703723003156483,True,28,1
161M19S3,1274,experiment,103,←,left,←,0.6890539000742137,True,28,1
161M19S3,1275,experiment,70,↑,up,↑,0.6060403999872506,True,28,1
161M19S3,1276,experiment,100,↑,up,↑,0.4758792999200523,True,28,1
161M19S3,1277,experiment,73,←,left,←,0.4243600000627339,True,28,1
161M19S3,1278,experiment,98,→,right,→,0.4782960996963084,True,28,1
161M19S3,1279,experiment,78,↓,down,↓,1.0170243000611663,True,28,1
161M19S3,1280,experiment,93,↓,down,↓,0.5530731999315321,True,28,1
161M19S3,1281,experiment,67,↑,down,↓,0.7965700998902321,False,28,1
161M19S3,1282,experiment,89,↓,down,↓,0.48650179989635944,True,28,1
161M19S3,1283,experiment,95,↑,up,↑,1.3392308000475168,True,28,1
161M19S3,1284,experiment,61,↓,down,↓,0.8409207998774946,True,28,1
161M19S3,1285,experiment,108,←,left,←,0.49087029974907637,True,28,1
161M19S3,1286,experiment,92,↑,up,↑,0.7682445999234915,True,28,1
161M19S3,1287,experiment,52,→,right,→,0.7839995003305376,True,28,1
161M19S3,1288,experiment,94,↓,down,↓,0.6250256998464465,True,28,1
161M19S3,1289,experiment,86,→,right,→,0.675019099842757,True,28,1
161M19S3,1290,experiment,102,↓,down,↓,0.7336336001753807,True,28,1
161M19S3,1291,experiment,101,↓,down,↓,0.5024685999378562,True,28,1
161M19S3,1292,experiment,99,→,right,→,0.7850067000836134,True,28,1
161M19S3,1293,experiment,83,↓,down,↓,1.213806299958378,True,28,1
161M19S3,1294,experiment,57,→,right,→,0.9857401000335813,True,28,1
161M19S3,1295,experiment,87,→,right,→,0.48529390012845397,True,28,1
161M19S3,1296,experiment,91,↑,up,↑,0.41189780039712787,True,28,1
161M19S3,1297,experiment,81,↑,up,↑,0.7911779996939003,True,28,1
161M19S3,1298,experiment,76,↓,right,→,0.7738860002718866,False,28,1
161M19S3,1299,experiment,58,←,left,←,0.5073454999364913,True,28,1
161M19S3,1300,experiment,88,↑,up,↑,0.809342899825424,True,28,1
161M19S3,1301,training,75,↑,up,↑,0.48600809974595904,True,28,0
161M19S3,1302,training,92,↑,up,↑,0.4597172001376748,True,28,1
161M19S3,1303,experiment,107,→,right,→,0.42156950011849403,True,28,1
161M19S3,1304,experiment,88,↓,down,↓,0.40730049973353744,True,28,1
161M19S3,1305,experiment,75,←,right,→,0.5974351996555924,False,28,1
161M19S3,1306,experiment,93,→,left,←,0.6060485998168588,False,28,1
161M19S3,1307,experiment,96,→,right,→,0.6773324999958277,True,28,1
161M19S3,1308,experiment,102,←,left,←,0.5039854999631643,True,28,1
161M19S3,1309,experiment,87,→,right,→,0.6783932000398636,True,28,1
161M19S3,1310,experiment,79,↓,down,↓,0.401350200176239,True,28,1
161M19S3,1311,experiment,105,↓,down,↓,0.4056893000379205,True,28,0
161M19S3,1312,experiment,72,↓,down,↓,0.4131346996873617,True,28,0
161M19S3,1313,experiment,48,↑,down,↓,0.6596754998899996,False,28,1
161M19S3,1314,experiment,97,←,left,←,0.40121900010854006,True,28,1
161M19S3,1315,experiment,55,↓,down,↓,0.541879799682647,True,28,0
161M19S3,1316,experiment,104,↑,up,↑,0.5892608999274671,True,28,1
161M19S3,1317,experiment,67,→,right,→,0.5670326999388635,True,28,1
161M19S3,1318,experiment,78,↑,up,↑,0.46205840026959777,True,28,1
161M19S3,1319,experiment,101,←,left,←,0.6735104001127183,True,28,1
161M19S3,1320,experiment,100,←,right,→,0.9488062001764774,False,28,1
161M19S3,1321,experiment,52,→,right,→,0.5731350001879036,True,28,1
161M19S3,1322,experiment,94,↑,up,↑,0.8384813000448048,True,28,1
161M19S3,1323,experiment,50,↑,up,↑,0.7639301000162959,True,28,1
161M19S3,1324,experiment,53,↓,down,↓,0.6513763996772468,True,28,1
161M19S3,1325,experiment,98,←,left,←,0.5203126003034413,True,28,1
161M19S3,1326,experiment,62,↓,down,↓,0.6946966000832617,True,28,1
161M19S3,1327,experiment,83,↑,up,↑,0.6233994998037815,True,28,1
161M19S3,1328,experiment,54,↓,down,↓,0.883846000302583,True,28,1
161M19S3,1329,experiment,99,→,left,←,0.8632020996883512,False,28,1
161M19S3,1330,experiment,80,↓,down,↓,0.9375288998708129,True,28,1
161M19S3,1331,experiment,63,↓,down,↓,0.7508991998620331,True,28,1
161M19S3,1332,experiment,95,↑,up,↑,0.5849438002333045,True,28,1
161M19S3,1333,experiment,59,→,right,→,0.8616643999703228,True,28,1
161M19S3,1334,experiment,64,↑,up,↑,0.533770099747926,True,28,1
161M19S3,1335,experiment,106,←,left,←,0.9327031001448631,True,28,1
161M19S3,1336,experiment,69,→,right,→,0.7921019997447729,True,28,1
161M19S3,1337,experiment,103,↓,right,→,0.8857440003193915,False,28,1
161M19S3,1338,experiment,84,↑,up,↑,0.5260903998278081,True,28,1
161M19S3,1339,experiment,68,→,right,→,1.0821861997246742,True,28,1
161M19S3,1340,experiment,65,→,right,→,0.6008658003993332,True,28,1
161M19S3,1341,experiment,70,→,right,→,0.6493747001513839,True,28,1
161M19S3,1342,experiment,56,↑,right,→,0.8044061004184186,False,28,1
161M19S3,1343,experiment,66,↑,up,↑,0.590103100053966,True,28,1
161M19S3,1344,experiment,58,→,right,→,0.5388140003196895,True,28,1
161M19S3,1345,experiment,76,→,right,→,0.9075384996831417,True,28,1
161M19S3,1346,experiment,89,←,left,←,0.6012217001989484,True,28,1
161M19S3,1347,experiment,86,→,right,→,0.5321365999989212,True,28,1
161M19S3,1348,experiment,60,→,right,→,0.5947242002002895,True,28,1
161M19S3,1349,experiment,81,↓,right,→,0.7517042001709342,False,28,1
161M19S3,1350,experiment,108,→,right,→,0.741482499986887,True,28,1
161M19S3,1351,experiment,90,↑,up,↑,0.5854901000857353,True,28,1
161M19S3,1352,experiment,71,→,right,→,0.46625469997525215,True,28,1
161M19S3,1353,experiment,82,↑,up,↑,0.6362377000041306,True,28,1
161M19S3,1354,experiment,61,↓,down,↓,0.5660727000795305,True,28,1
161M19S3,1355,experiment,85,→,right,→,0.778885199688375,True,28,1
161M19S3,1356,experiment,51,←,right,→,0.9143628003075719,False,28,1
161M19S3,1357,experiment,57,→,right,→,0.5462267999537289,True,28,1
161M19S3,1358,experiment,74,→,right,→,0.47557409992441535,True,28,1
161M19S3,1359,experiment,92,→,right,→,0.37571069970726967,True,28,1
161M19S3,1360,experiment,91,←,left,←,0.6996716996654868,True,28,0
161M19S3,1361,experiment,73,←,left,←,0.45526390010491014,True,28,1
161M19S3,1362,experiment,77,←,right,→,0.9551266999915242,False,28,1
161M19S3,1363,experiment,49,↓,right,→,1.004271499812603,False,28,1
161M19S3,1364,training,50,←,left,←,0.7183838998898864,True,28,0
161M19S3,1365,training,72,←,left,←,0.7217227998189628,True,28,1
161M19S3,1366,experiment,83,↓,down,↓,0.7444674000144005,True,28,1
161M19S3,1367,experiment,97,→,right,→,0.5383576001040637,True,28,1
161M19S3,1368,experiment,84,←,left,←,0.4322365000844002,True,28,1
161M19S3,1369,experiment,50,↑,up,↑,0.5658728000707924,True,28,1
161M19S3,1370,experiment,80,←,left,←,0.4525669999420643,True,28,1
161M19S3,1371,experiment,64,↓,down,↓,0.6847656001336873,True,28,1
161M19S3,1372,experiment,70,←,left,←,0.6178350001573563,True,28,1
161M19S3,1373,experiment,76,↓,down,↓,0.6236846996471286,True,28,1
161M19S3,1374,experiment,108,←,left,←,0.41082319989800453,True,28,1
161M19S3,1375,experiment,96,→,right,→,0.7373493001796305,True,28,1
161M19S3,1376,experiment,85,→,right,→,0.5034624999389052,True,28,1
161M19S3,1377,experiment,87,↓,down,↓,0.4222738998942077,True,28,1
161M19S3,1378,experiment,48,↑,up,↑,0.5488527999259531,True,28,1
161M19S3,1379,experiment,78,↑,right,→,0.8767199004068971,False,28,1
161M19S3,1380,experiment,90,→,right,→,0.6673051998950541,True,28,1
161M19S3,1381,experiment,79,↓,down,↓,0.47007689997553825,True,28,1
161M19S3,1382,experiment,106,→,right,→,0.47178740007802844,True,28,1
161M19S3,1383,experiment,55,←,left,←,0.7861076002009213,True,28,1
161M19S3,1384,experiment,62,↓,down,↓,1.1897360999137163,True,28,1
161M19S3,1385,experiment,51,↓,down,↓,0.6128813996911049,True,28,1
161M19S3,1386,experiment,67,↑,up,↑,0.6375949000939727,True,28,1
161M19S3,1387,experiment,49,↓,right,→,0.7953228000551462,False,28,1
161M19S3,1388,experiment,65,←,left,←,0.629738399758935,True,28,1
161M19S3,1389,experiment,99,←,left,←,1.315369900316,True,28,1
161M19S3,1390,experiment,58,→,right,→,0.5470777996815741,True,28,1
161M19S3,1391,experiment,54,↓,down,↓,0.4751500003039837,True,28,1
161M19S3,1392,experiment,91,↑,up,↑,0.5213030003942549,True,28,1
161M19S3,1393,experiment,74,↓,up,↑,0.987334200181067,False,28,1
161M19S3,1394,experiment,94,↓,down,↓,0.9963099001906812,True,28,1
161M19S3,1395,experiment,52,→,right,→,0.594734899699688,True,28,1
161M19S3,1396,experiment,77,↑,up,↑,0.55303810024634,True,28,1
161M19S3,1397,experiment,95,→,right,→,0.6431166003458202,True,28,1
161M19S3,1398,experiment,53,↓,down,↓,0.6234385999850929,True,28,1
161M19S3,1399,experiment,73,↓,up,↑,1.5579611002467573,False,28,1
161M19S3,1400,experiment,101,↓,down,↓,0.9815487996675074,True,28,1
161M19S3,1401,experiment,81,↑,up,↑,0.7708116001449525,True,28,1
161M19S3,1402,experiment,100,←,left,←,0.9544559000059962,True,28,1
161M19S3,1403,experiment,92,→,right,→,0.4532528002746403,True,28,1
161M19S3,1404,experiment,63,←,down,↓,1.485839200206101,False,28,1
161M19S3,1405,experiment,105,↓,down,↓,0.42321869963780046,True,28,1
161M19S3,1406,experiment,93,←,left,←,0.4628737000748515,True,28,1
161M19S3,1407,experiment,86,↑,up,↑,0.6472919997759163,True,28,1
161M19S3,1408,experiment,102,↓,left,←,1.050963199697435,False,28,1
161M19S3,1409,experiment,59,←,right,→,0.8369101001881063,False,28,1
161M19S3,1410,experiment,71,↓,down,↓,0.5955950999632478,True,28,1
161M19S3,1411,experiment,98,↓,down,↓,0.5310521996580064,True,28,1
161M19S3,1412,experiment,69,↑,up,↑,0.7183841997757554,True,28,1
161M19S3,1413,experiment,60,→,right,→,0.7334551000967622,True,28,1
161M19S3,1414,experiment,56,←,left,←,1.1092105000279844,True,28,1
161M19S3,1415,experiment,82,↑,up,↑,0.6054386999458075,True,28,1
161M19S3,1416,experiment,107,↑,up,↑,0.5288839000277221,True,28,1
161M19S3,1417,experiment,72,→,right,→,0.795671499799937,True,28,1
161M19S3,1418,experiment,66,↓,down,↓,0.7336546997539699,True,28,1
161M19S3,1419,experiment,103,→,right,→,0.7096600998193026,True,28,1
161M19S3,1420,experiment,88,↑,right,→,0.8200781997293234,False,28,1
161M19S3,1421,experiment,68,←,left,←,0.5721436999738216,True,28,1
161M19S3,1422,experiment,104,←,left,←,1.2100815000012517,True,28,1
161M19S3,1423,experiment,75,←,left,←,0.9844506001099944,True,28,1
161M19S3,1424,experiment,61,↑,up,↑,0.5085028996691108,True,28,1
161M19S3,1425,experiment,89,↓,down,↓,0.4822589997202158,True,28,1
161M19S3,1426,experiment,57,↓,down,↓,0.4438118999823928,True,28,1
161M19S3,1427,training,63,←,left,←,0.5396508001722395,True,28,0
161M19S3,1428,training,106,→,right,→,0.6987338997423649,True,28,1
161M19S3,1429,experiment,65,↑,up,↑,0.44806989980861545,True,28,1
161M19S3,1430,experiment,104,→,right,→,0.7312465002760291,True,28,1
161M19S3,1431,experiment,89,←,left,←,0.8239024002104998,True,28,1
161M19S3,1432,experiment,69,←,right,→,0.7596692000515759,False,28,1
161M19S3,1433,experiment,85,↓,down,↓,0.7727212002500892,True,28,1
161M19S3,1434,experiment,57,↓,down,↓,0.8423755001276731,True,28,1
161M19S3,1435,experiment,72,→,right,→,0.6403618999756873,True,28,1
161M19S3,1436,experiment,50,→,right,→,0.6698264996521175,True,28,1
161M19S3,1437,experiment,87,↑,up,↑,0.43788470001891255,True,28,1
161M19S3,1438,experiment,100,↑,right,→,0.8588612996973097,False,28,1
161M19S3,1439,experiment,107,↓,down,↓,0.4766381997615099,True,28,1
161M19S3,1440,experiment,64,↑,right,→,0.7559837000444531,False,28,1
161M19S3,1441,experiment,103,←,left,←,0.6990811000578105,True,28,1
161M19S3,1442,experiment,98,↑,up,↑,0.8459924999624491,True,28,1
161M19S3,1443,experiment,80,↑,up,↑,0.809413599781692,True,28,1
161M19S3,1444,experiment,108,→,right,→,0.6926146000623703,True,28,1
161M19S3,1445,experiment,81,↑,up,↑,0.5097448998130858,True,28,1
161M19S3,1446,experiment,63,←,left,←,0.7161707999184728,True,28,1
161M19S3,1447,experiment,91,→,right,→,0.7608186001889408,True,28,1
161M19S3,1448,experiment,93,←,left,←,0.4272874998860061,True,28,1
161M19S3,1449,experiment,67,→,right,→,0.4516266998834908,True,28,1
161M19S3,1450,experiment,49,→,right,→,0.6651923996396363,True,28,1
161M19S3,1451,experiment,62,↑,right,→,0.6654958999715745,False,28,1
161M19S3,1452,experiment,101,↑,up,↑,0.4056007000617683,True,28,1
161M19S3,1453,experiment,106,→,right,→,0.5288919000886381,True,28,1
161M19S3,1454,experiment,96,←,right,→,0.6996021000668406,False,28,1
161M19S3,1455,experiment,60,←,left,←,0.65129469987005,True,28,1
161M19S3,1456,experiment,92,↑,up,↑,0.7223837999626994,True,28,1
161M19S3,1457,experiment,54,↑,up,↑,0.42733610002323985,True,28,1
161M19S3,1458,experiment,51,↓,down,↓,0.49698329996317625,True,28,1
161M19S3,1459,experiment,97,→,right,→,0.42836790019646287,True,28,1
161M19S3,1460,experiment,95,→,right,→,0.7073164000175893,True,28,1
161M19S3,1461,experiment,61,→,right,→,0.7064062003046274,True,28,1
161M19S3,1462,experiment,82,→,right,→,0.45036070002242923,True,28,1
161M19S3,1463,experiment,68,←,left,←,0.4737796001136303,True,28,1
161M19S3,1464,experiment,105,↑,right,→,0.6991948001086712,False,28,1
161M19S3,1465,experiment,74,↑,up,↑,0.4462671000510454,True,28,1
161M19S3,1466,experiment,71,←,right,→,0.8283939999528229,False,28,1
161M19S3,1467,experiment,79,↑,right,→,0.7207764997147024,False,28,1
161M19S3,1468,experiment,53,→,right,→,0.5059597999788821,True,28,1
161M19S3,1469,experiment,86,←,left,←,0.4247174998745322,True,28,1
161M19S3,1470,experiment,48,↑,right,→,0.6873205001465976,False,28,1
161M19S3,1471,experiment,90,→,right,→,0.6059254999272525,True,28,1
161M19S3,1472,experiment,102,←,left,←,0.9790155002847314,True,28,1
161M19S3,1473,experiment,75,↓,down,↓,0.5387785001657903,True,28,1
161M19S3,1474,experiment,83,→,right,→,0.7450716998428106,True,28,1
161M19S3,1475,experiment,84,↓,right,→,1.1512212003581226,False,28,1
161M19S3,1476,experiment,56,↑,down,↓,1.0781433996744454,False,28,1
161M19S3,1477,experiment,99,↑,up,↑,0.47383989999070764,True,28,1
161M19S3,1478,experiment,58,↓,down,↓,0.6032195002771914,True,28,1
161M19S3,1479,experiment,66,↑,up,↑,0.47702330024912953,True,28,1
161M19S3,1480,experiment,78,↓,down,↓,0.4877288001589477,True,28,1
161M19S3,1481,experiment,77,↑,up,↑,0.4821057999506593,True,28,1
161M19S3,1482,experiment,73,↓,down,↓,0.4621902001090348,True,28,1
161M19S3,1483,experiment,76,↑,up,↑,0.46637059981003404,True,28,1
161M19S3,1484,experiment,88,↓,down,↓,0.5140206003561616,True,28,1
161M19S3,1485,experiment,55,↓,down,↓,0.4988698000088334,True,28,1
