PART_ID,Trial_no,Trial_type,CSI,Stim_letter,Key_pressed,letter_choose,Rt,Corr,Stimulus Time,nDropped
161M19S1,1,training,120,↑,no_key,no_letter,-1.0,False,60,1
161M19S1,2,training,120,↑,up,↑,1.4688989999704063,True,60,0
161M19S1,3,training,120,↓,down,↓,1.5609021999989636,True,60,0
161M19S1,4,training,120,↓,down,↓,1.0093270000070333,True,60,0
161M19S1,5,training,120,←,left,←,1.4721127999946475,True,60,0
161M19S1,6,training,120,←,left,←,1.260363299981691,True,60,0
161M19S1,7,training,120,←,left,←,1.344812399998773,True,60,0
161M19S1,8,training,120,↑,up,↑,1.3140347999869846,True,60,0
161M19S1,9,training,120,↑,up,↑,1.2684464000049047,True,60,0
161M19S1,10,training,120,←,left,←,1.2412368000368588,True,60,0
161M19S1,11,training,120,↑,up,↑,1.1102333999588154,True,60,0
161M19S1,12,training,120,←,left,←,1.0170736000291072,True,60,0
161M19S1,13,training,120,↑,up,↑,0.9994442999595776,True,60,0
161M19S1,14,training,120,←,left,←,1.0466711000190116,True,60,0
161M19S1,15,training,120,↑,up,↑,1.043777900049463,True,60,0
161M19S1,16,training,120,↑,up,↑,1.0488527999841608,True,60,0
161M19S1,17,training,120,→,right,→,0.990079200011678,True,60,0
161M19S1,18,training,120,↓,down,↓,0.9817338999710046,True,60,0
161M19S1,19,training,120,→,right,→,0.9813241999945603,True,60,0
161M19S1,20,training,120,←,left,←,0.8691975999972783,True,60,0
161M19S1,21,no_adaptation,120,←,left,←,1.6394519999739714,True,36,0
161M19S1,22,no_adaptation,120,↓,down,↓,0.7645917999907397,True,36,0
161M19S1,23,no_adaptation,120,←,left,←,0.7489793000277132,True,36,0
161M19S1,24,no_adaptation,120,↓,down,↓,0.7821440999978222,True,36,0
161M19S1,25,no_adaptation,120,→,right,→,0.774056299997028,True,36,0
161M19S1,26,no_adaptation,120,↓,down,↓,0.7742213999736123,True,36,0
161M19S1,27,no_adaptation,120,←,left,←,0.8543188999756239,True,36,0
161M19S1,28,no_adaptation,120,←,left,←,0.8432355999830179,True,36,0
161M19S1,29,no_adaptation,120,↑,up,↑,0.8326917000231333,True,36,0
161M19S1,30,no_adaptation,120,↓,down,↓,0.8705267999903299,True,36,0
161M19S1,31,no_adaptation,120,←,left,←,0.7386080999858677,True,36,0
161M19S1,32,no_adaptation,120,↓,down,↓,0.6042710000183433,True,36,0
161M19S1,33,no_adaptation,120,→,right,→,0.8269412000081502,True,36,0
161M19S1,34,no_adaptation,120,←,left,←,0.8167840000241995,True,36,0
161M19S1,35,no_adaptation,120,←,right,→,0.9273061999701895,False,36,0
161M19S1,36,no_adaptation,120,→,right,→,0.7371320000384003,True,36,0
161M19S1,37,no_adaptation,120,←,left,←,0.9867125000455417,True,36,0
161M19S1,38,no_adaptation,120,←,left,←,1.3542777000111528,True,36,0
161M19S1,39,no_adaptation,120,←,left,←,0.9708281000494026,True,36,0
161M19S1,40,no_adaptation,120,→,left,←,0.8589725999627262,False,36,0
161M19S1,41,training,92,↓,down,↓,0.7455641999840736,True,36,0
161M19S1,42,training,94,↓,down,↓,0.8042766000144184,True,36,1
161M19S1,43,experiment,108,→,right,→,0.839545700000599,True,36,1
161M19S1,44,experiment,61,←,left,←,0.9452554000308737,True,36,1
161M19S1,45,experiment,89,↓,down,↓,0.7175876999972388,True,36,1
161M19S1,46,experiment,48,↑,down,↓,0.8648752000299282,False,36,1
161M19S1,47,experiment,102,←,left,←,0.7556419000029564,True,36,1
161M19S1,48,experiment,53,←,left,←,0.787424199981615,True,36,1
161M19S1,49,experiment,59,→,right,→,0.8558100000373088,True,36,1
161M19S1,50,experiment,96,↑,up,↑,0.7330952000338584,True,36,1
161M19S1,51,experiment,91,→,right,→,0.7131005999981426,True,36,1
161M19S1,52,experiment,65,↑,up,↑,0.7905073000001721,True,36,1
161M19S1,53,experiment,87,↑,up,↑,1.161533700011205,True,36,1
161M19S1,54,experiment,63,→,right,→,0.8217735000071116,True,36,1
161M19S1,55,experiment,82,→,right,→,0.7535635000094771,True,36,1
161M19S1,56,experiment,73,↑,up,↑,0.7629630999872461,True,36,1
161M19S1,57,experiment,85,→,right,→,0.6796388999791816,True,36,1
161M19S1,58,experiment,83,←,left,←,0.6243718999903649,True,36,1
161M19S1,59,experiment,100,→,right,→,0.6137219999800436,True,36,1
161M19S1,60,experiment,94,↑,up,↑,0.7493891000049189,True,36,1
161M19S1,61,experiment,95,↑,up,↑,0.6874900999828242,True,36,1
161M19S1,62,experiment,105,←,left,←,0.7044405000051484,True,36,1
161M19S1,63,experiment,93,→,right,→,1.372833300032653,True,36,1
161M19S1,64,experiment,66,→,right,→,0.6953999000252225,True,36,1
161M19S1,65,experiment,70,←,left,←,0.7321345999953337,True,36,1
161M19S1,66,experiment,68,↑,up,↑,0.5440326000098139,True,36,1
161M19S1,67,experiment,52,←,left,←,0.7045378999901004,True,36,1
161M19S1,68,experiment,99,←,left,←,0.8912774999625981,True,36,1
161M19S1,69,experiment,78,↑,up,↑,0.837307800014969,True,36,1
161M19S1,70,experiment,88,↓,down,↓,1.326386899978388,True,36,1
161M19S1,71,experiment,107,↓,down,↓,0.9252520000445656,True,36,1
161M19S1,72,experiment,72,↓,down,↓,1.2879203999764286,True,36,1
161M19S1,73,experiment,55,→,right,→,0.8335552999633364,True,36,1
161M19S1,74,experiment,76,↓,down,↓,0.9186143000260927,True,36,1
161M19S1,75,experiment,80,↓,down,↓,0.8069787999847904,True,36,1
161M19S1,76,experiment,69,↓,down,↓,1.0153582000057213,True,36,1
161M19S1,77,experiment,97,←,left,←,1.3340192000032403,True,36,1
161M19S1,78,experiment,74,←,left,←,1.1515762999770232,True,36,1
161M19S1,79,experiment,51,↓,down,↓,0.7283107999828644,True,36,1
161M19S1,80,experiment,49,↓,down,↓,0.8907132999738678,True,36,1
161M19S1,81,experiment,103,↑,up,↑,1.004306800023187,True,36,1
161M19S1,82,experiment,101,↑,up,↑,0.9222761999699287,True,36,1
161M19S1,83,experiment,90,↓,no_key,no_letter,-1.0,False,36,1
161M19S1,84,experiment,86,↓,down,↓,0.7232245999621227,True,36,1
161M19S1,85,experiment,62,←,left,←,0.9051649000030011,True,36,1
161M19S1,86,experiment,60,→,right,→,0.6165695000090636,True,36,1
161M19S1,87,experiment,81,↓,down,↓,0.7249618000350893,True,36,1
161M19S1,88,experiment,77,↑,down,↓,1.0456146000069566,False,36,1
161M19S1,89,experiment,84,↑,up,↑,0.7918932000175118,True,36,1
161M19S1,90,experiment,71,↑,up,↑,1.3839778000256047,True,36,1
161M19S1,91,experiment,79,↑,up,↑,1.2300132000236772,True,36,1
161M19S1,92,experiment,64,→,no_key,no_letter,-1.0,False,36,1
161M19S1,93,experiment,106,←,up,↑,1.2204585000290535,False,36,1
161M19S1,94,experiment,98,↑,up,↑,0.8827586999977939,True,36,1
161M19S1,95,experiment,104,→,right,→,0.9643726999638602,True,36,1
161M19S1,96,experiment,54,↓,down,↓,1.1874228999949992,True,36,1
161M19S1,97,experiment,75,→,right,→,0.9544733000220731,True,36,1
161M19S1,98,experiment,56,→,right,→,0.8813627999625169,True,36,1
161M19S1,99,experiment,57,↓,right,→,1.2187937999842688,False,36,1
161M19S1,100,experiment,92,→,right,→,0.8270379999885336,True,36,1
161M19S1,101,experiment,50,↓,up,↑,1.569071299978532,False,36,1
161M19S1,102,experiment,58,→,right,→,0.7187109999940731,True,36,1
161M19S1,103,experiment,67,←,left,←,0.8593422999838367,True,36,1
161M19S1,104,training,87,→,right,→,0.8360143000027165,True,36,0
161M19S1,105,training,53,↑,up,↑,0.8086505000246689,True,36,1
161M19S1,106,experiment,98,↓,down,↓,0.799460900016129,True,36,1
161M19S1,107,experiment,76,→,right,→,0.7335482000489719,True,36,1
161M19S1,108,experiment,56,→,right,→,0.7493038999964483,True,36,1
161M19S1,109,experiment,82,→,right,→,0.7397931999876164,True,36,1
161M19S1,110,experiment,66,→,right,→,0.7358022999833338,True,36,1
161M19S1,111,experiment,61,←,left,←,0.7578466999693774,True,36,1
161M19S1,112,experiment,97,↑,up,↑,0.7828717000083998,True,36,1
161M19S1,113,experiment,90,↑,up,↑,0.761353500012774,True,36,1
161M19S1,114,experiment,106,←,left,←,0.7112753999535926,True,36,1
161M19S1,115,experiment,70,→,right,→,0.8592872999724932,True,36,1
161M19S1,116,experiment,95,↑,up,↑,0.8089337999699637,True,36,1
161M19S1,117,experiment,65,←,left,←,0.7227558000013232,True,36,1
161M19S1,118,experiment,96,←,left,←,0.6934492000145838,True,36,1
161M19S1,119,experiment,77,↑,up,↑,0.783878399990499,True,36,1
161M19S1,120,experiment,59,←,left,←,0.8445269999792799,True,36,1
161M19S1,121,experiment,51,↑,up,↑,0.8815897000022233,True,36,1
161M19S1,122,experiment,55,↓,up,↑,1.1235783000010997,False,36,1
161M19S1,123,experiment,69,→,right,→,0.7194126999820583,True,36,1
161M19S1,124,experiment,53,↓,down,↓,0.792648900009226,True,36,1
161M19S1,125,experiment,73,←,left,←,0.6645123000489548,True,36,1
161M19S1,126,experiment,86,↑,up,↑,0.8085717999492772,True,36,1
161M19S1,127,experiment,88,↓,down,↓,1.442621499998495,True,36,1
161M19S1,128,experiment,89,→,right,→,0.6991141000180505,True,36,1
161M19S1,129,experiment,79,←,left,←,0.6283267000108026,True,36,1
161M19S1,130,experiment,64,↓,down,↓,0.8777323000249453,True,36,1
161M19S1,131,experiment,102,←,left,←,0.8243275000131689,True,36,1
161M19S1,132,experiment,85,→,right,→,0.7867405000142753,True,36,1
161M19S1,133,experiment,75,↓,down,↓,0.6581160000059754,True,36,1
161M19S1,134,experiment,103,←,left,←,0.5892973999725655,True,36,1
161M19S1,135,experiment,71,↓,down,↓,0.6615928999963216,True,36,1
161M19S1,136,experiment,92,↓,down,↓,0.81224330002442,True,36,1
161M19S1,137,experiment,72,→,left,←,1.5636393000022508,False,36,1
161M19S1,138,experiment,62,←,left,←,0.9041850999929011,True,36,1
161M19S1,139,experiment,80,↑,up,↑,0.7768781000049785,True,36,1
161M19S1,140,experiment,67,←,left,←,0.7872692000237294,True,36,1
161M19S1,141,experiment,81,←,left,←,0.8406740999780595,True,36,1
161M19S1,142,experiment,99,←,left,←,0.8295854000025429,True,36,1
161M19S1,143,experiment,68,←,left,←,0.6538245999836363,True,36,1
161M19S1,144,experiment,57,→,left,←,1.0803870999952778,False,36,1
161M19S1,145,experiment,49,←,left,←,0.7407183000468649,True,36,1
161M19S1,146,experiment,74,↑,up,↑,0.9098250999813899,True,36,1
161M19S1,147,experiment,101,↑,up,↑,0.7754402999999002,True,36,1
161M19S1,148,experiment,91,↑,up,↑,0.7297984000178985,True,36,1
161M19S1,149,experiment,100,→,right,→,0.7148017999716103,True,36,1
161M19S1,150,experiment,107,↑,up,↑,0.8261286999913864,True,36,1
161M19S1,151,experiment,105,↑,up,↑,0.6538359999540262,True,36,1
161M19S1,152,experiment,94,↑,up,↑,0.6524353999993764,True,36,1
161M19S1,153,experiment,83,↑,up,↑,0.790215699991677,True,36,1
161M19S1,154,experiment,60,←,left,←,0.778378100018017,True,36,1
161M19S1,155,experiment,52,←,left,←,1.921635199978482,True,36,1
161M19S1,156,experiment,54,←,left,←,0.8185200999723747,True,36,1
161M19S1,157,experiment,48,↓,down,↓,0.5299791999859735,True,36,1
161M19S1,158,experiment,50,↓,down,↓,0.49180279998108745,True,36,1
161M19S1,159,experiment,104,←,left,←,0.7730050000245683,True,36,1
161M19S1,160,experiment,84,←,left,←,0.6498117999872193,True,36,1
161M19S1,161,experiment,63,↑,up,↑,0.8345190000254661,True,36,1
161M19S1,162,experiment,93,→,right,→,0.6418646000092849,True,36,1
161M19S1,163,experiment,58,↑,right,→,0.9806275999872014,False,36,1
161M19S1,164,experiment,108,↑,up,↑,0.8011773999896832,True,36,1
161M19S1,165,experiment,78,↑,up,↑,0.7905955000314862,True,36,1
161M19S1,166,experiment,87,←,left,←,0.7376266999635845,True,36,1
161M19S1,167,training,69,↓,down,↓,0.7213694999809377,True,35,0
161M19S1,168,training,88,↓,down,↓,0.7030509000178427,True,35,1
161M19S1,169,experiment,102,←,left,←,0.5607054000138305,True,35,1
161M19S1,170,experiment,52,↑,up,↑,1.8567611000034958,True,35,1
161M19S1,171,experiment,73,↓,down,↓,0.7497131999698468,True,35,1
161M19S1,172,experiment,85,←,left,←,0.7951380999875255,True,35,1
161M19S1,173,experiment,97,←,left,←,0.6747812000103295,True,35,1
161M19S1,174,experiment,100,↓,down,↓,0.678094599978067,True,35,1
161M19S1,175,experiment,104,↑,up,↑,0.6800578000256792,True,35,1
161M19S1,176,experiment,99,↓,down,↓,0.7074469000217505,True,35,1
161M19S1,177,experiment,103,→,right,→,0.7004101000493392,True,35,1
161M19S1,178,experiment,82,↓,down,↓,0.6691584000363946,True,35,1
161M19S1,179,experiment,84,↑,up,↑,0.7898156000301242,True,35,1
161M19S1,180,experiment,48,↓,down,↓,1.2219046999816783,True,35,1
161M19S1,181,experiment,90,↓,down,↓,0.7904792000190355,True,35,1
161M19S1,182,experiment,81,←,left,←,0.46809869998833165,True,35,1
161M19S1,183,experiment,66,→,right,→,1.6423430999857374,True,35,1
161M19S1,184,experiment,95,←,left,←,0.5365172000019811,True,35,1
161M19S1,185,experiment,60,↑,up,↑,0.8950447000097483,True,35,1
161M19S1,186,experiment,89,↑,up,↑,0.8292416000040248,True,35,1
161M19S1,187,experiment,105,→,right,→,0.8571540999691933,True,35,1
161M19S1,188,experiment,88,↓,down,↓,0.6569394000107422,True,35,1
161M19S1,189,experiment,58,→,right,→,0.7870618000160903,True,35,1
161M19S1,190,experiment,78,←,left,←,0.6814071000553668,True,35,1
161M19S1,191,experiment,107,←,left,←,0.6500680999597535,True,35,1
161M19S1,192,experiment,83,→,right,→,0.5803678000229411,True,35,1
161M19S1,193,experiment,72,←,left,←,0.7006855000508949,True,35,1
161M19S1,194,experiment,57,←,left,←,0.7332797999843024,True,35,1
161M19S1,195,experiment,86,↓,down,↓,0.6510354999918491,True,35,1
161M19S1,196,experiment,61,←,left,←,0.8682906000176445,True,35,1
161M19S1,197,experiment,108,↑,up,↑,0.6133876999956556,True,35,1
161M19S1,198,experiment,54,↑,up,↑,0.8743751999572851,True,35,1
161M19S1,199,experiment,92,←,left,←,0.560547899978701,True,35,1
161M19S1,200,experiment,74,↓,down,↓,0.625138999952469,True,35,1
161M19S1,201,experiment,79,↓,down,↓,1.1335433999774978,True,35,1
161M19S1,202,experiment,106,↓,down,↓,0.7566839999635704,True,35,1
161M19S1,203,experiment,67,↓,down,↓,0.8079890999943018,True,35,1
161M19S1,204,experiment,63,←,left,←,0.8179395000333898,True,35,1
161M19S1,205,experiment,96,↑,down,↓,1.0089689000160433,False,35,1
161M19S1,206,experiment,87,→,right,→,0.6676153999869712,True,35,1
161M19S1,207,experiment,91,←,left,←,0.7540101999766193,True,35,1
161M19S1,208,experiment,50,→,right,→,0.7549281000392511,True,35,1
161M19S1,209,experiment,94,↓,down,↓,0.7967471000156365,True,35,1
161M19S1,210,experiment,68,←,left,←,0.806029400031548,True,35,1
161M19S1,211,experiment,80,↓,down,↓,0.82648099999642,True,35,1
161M19S1,212,experiment,75,↑,up,↑,0.7841911999857984,True,35,1
161M19S1,213,experiment,62,→,right,→,0.6439312000293285,True,35,1
161M19S1,214,experiment,101,→,left,←,0.7604682000237517,False,35,1
161M19S1,215,experiment,56,↑,up,↑,0.9988546000095084,True,35,1
161M19S1,216,experiment,49,↓,down,↓,0.8066496000392362,True,35,1
161M19S1,217,experiment,65,→,right,→,0.7840050000231713,True,35,1
161M19S1,218,experiment,77,←,left,←,0.822872799995821,True,35,1
161M19S1,219,experiment,70,←,left,←,0.7020725999609567,True,35,1
161M19S1,220,experiment,53,↓,down,↓,0.7360880000051111,True,35,1
161M19S1,221,experiment,64,→,left,←,0.8291507999529131,False,35,1
161M19S1,222,experiment,51,←,left,←,0.6907398999901488,True,35,1
161M19S1,223,experiment,93,→,right,→,0.9356453000218607,True,35,1
161M19S1,224,experiment,98,↑,up,↑,0.8415737000177614,True,35,1
161M19S1,225,experiment,71,←,left,←,0.7916876000235789,True,35,1
161M19S1,226,experiment,55,↓,down,↓,0.6853915000101551,True,35,1
161M19S1,227,experiment,69,↑,up,↑,0.8269958000164479,True,35,1
161M19S1,228,experiment,76,↓,down,↓,0.47262939997017384,True,35,1
161M19S1,229,experiment,59,←,left,←,0.7453551999642514,True,35,1
161M19S1,230,training,75,↓,down,↓,0.7266970999771729,True,34,0
161M19S1,231,training,70,↓,down,↓,0.7299965000129305,True,34,1
161M19S1,232,experiment,103,↑,up,↑,1.5140853999764659,True,34,1
161M19S1,233,experiment,51,↓,down,↓,0.636001100006979,True,34,1
161M19S1,234,experiment,69,↑,up,↑,1.1076556999469176,True,34,1
161M19S1,235,experiment,77,→,right,→,0.9090198000194505,True,34,1
161M19S1,236,experiment,85,↑,up,↑,0.8365077000344172,True,34,1
161M19S1,237,experiment,96,→,right,→,0.7626381000154652,True,34,1
161M19S1,238,experiment,83,→,right,→,0.7680906999739818,True,34,1
161M19S1,239,experiment,70,↓,right,→,0.985891200019978,False,34,1
161M19S1,240,experiment,59,→,right,→,0.7904779000091366,True,34,1
161M19S1,241,experiment,102,→,right,→,0.8285517999902368,True,34,1
161M19S1,242,experiment,87,↑,up,↑,0.9021626999601722,True,34,1
161M19S1,243,experiment,98,←,left,←,0.7779119999613613,True,34,1
161M19S1,244,experiment,58,→,right,→,0.8546013000304811,True,34,1
161M19S1,245,experiment,52,↓,down,↓,0.9145908000064082,True,34,1
161M19S1,246,experiment,84,↓,down,↓,0.8736124999704771,True,34,1
161M19S1,247,experiment,86,↑,up,↑,0.8976062999572605,True,34,1
161M19S1,248,experiment,53,↓,down,↓,0.9236524000298232,True,34,1
161M19S1,249,experiment,48,↓,down,↓,0.8545795000391081,True,34,1
161M19S1,250,experiment,63,↑,up,↑,0.6390586000052281,True,34,1
161M19S1,251,experiment,108,↑,up,↑,0.9128748000366613,True,34,1
161M19S1,252,experiment,91,↓,down,↓,0.5974460000288673,True,34,1
161M19S1,253,experiment,95,→,right,→,0.8294487000093795,True,34,1
161M19S1,254,experiment,93,↓,down,↓,0.6448253000271507,True,34,1
161M19S1,255,experiment,66,↓,down,↓,0.7249558999901637,True,34,1
161M19S1,256,experiment,104,←,left,←,0.6929403999820352,True,34,1
161M19S1,257,experiment,64,↑,up,↑,1.0355964999762364,True,34,1
161M19S1,258,experiment,79,↑,up,↑,0.8798097999533638,True,34,1
161M19S1,259,experiment,106,←,left,←,0.8325894000008702,True,34,1
161M19S1,260,experiment,105,↑,up,↑,0.6439217000151984,True,34,1
161M19S1,261,experiment,74,←,left,←,1.0892838000436313,True,34,1
161M19S1,262,experiment,89,→,right,→,0.7837256000493653,True,34,1
161M19S1,263,experiment,49,↓,down,↓,1.0797662999830209,True,34,1
161M19S1,264,experiment,80,←,left,←,0.9292970999958925,True,34,1
161M19S1,265,experiment,65,↑,no_key,no_letter,-1.0,False,34,1
161M19S1,266,experiment,92,→,right,→,0.8969033000175841,True,34,1
161M19S1,267,experiment,76,←,left,←,0.7872016000328586,True,34,1
161M19S1,268,experiment,67,↑,up,↑,0.7812360000098124,True,34,1
161M19S1,269,experiment,82,↓,down,↓,0.6743327000294812,True,34,1
161M19S1,270,experiment,99,←,left,←,0.7579682000214234,True,34,1
161M19S1,271,experiment,75,←,left,←,0.8303594999597408,True,34,1
161M19S1,272,experiment,78,←,left,←,0.7868090000119992,True,34,1
161M19S1,273,experiment,68,↓,down,↓,0.8845372999785468,True,34,1
161M19S1,274,experiment,73,←,left,←,0.7444846999715082,True,34,1
161M19S1,275,experiment,100,↓,down,↓,0.6650901000248268,True,34,1
161M19S1,276,experiment,94,↑,up,↑,0.7427998000057414,True,34,1
161M19S1,277,experiment,62,←,left,←,0.9562633000314236,True,34,1
161M19S1,278,experiment,56,→,right,→,0.9389565999736078,True,34,1
161M19S1,279,experiment,81,↓,down,↓,0.8340085999807343,True,34,1
161M19S1,280,experiment,54,↑,up,↑,0.8382879000273533,True,34,1
161M19S1,281,experiment,88,↑,up,↑,0.7749654000508599,True,34,1
161M19S1,282,experiment,97,↓,down,↓,0.695351300004404,True,34,1
161M19S1,283,experiment,50,↑,up,↑,0.7547590000322089,True,34,1
161M19S1,284,experiment,101,→,left,←,0.7309184999903664,False,34,1
161M19S1,285,experiment,107,→,left,←,0.6495541000040248,False,34,1
161M19S1,286,experiment,57,↓,left,←,1.2918010999565013,False,34,1
161M19S1,287,experiment,90,←,left,←,0.5137841000105254,True,34,1
161M19S1,288,experiment,71,↑,up,↑,0.4531908000353724,True,34,1
161M19S1,289,experiment,55,↓,left,←,1.1922598999808542,False,34,0
161M19S1,290,experiment,60,←,left,←,0.6042857999564148,True,34,1
161M19S1,291,experiment,61,←,left,←,0.5840240999823436,True,34,1
161M19S1,292,experiment,72,←,right,→,1.4642555000027642,False,34,1
161M19S1,293,training,78,↑,up,↑,0.6652489000116475,True,34,0
161M19S1,294,training,107,↓,down,↓,0.7465703000198118,True,34,1
161M19S1,295,experiment,99,→,right,→,0.7632077999878675,True,34,1
161M19S1,296,experiment,67,↓,down,↓,0.630220899998676,True,34,1
161M19S1,297,experiment,88,←,left,←,0.6470391000038944,True,34,1
161M19S1,298,experiment,64,↓,down,↓,0.6713833000394516,True,34,1
161M19S1,299,experiment,69,↓,down,↓,0.6374044999829493,True,34,1
161M19S1,300,experiment,93,↓,down,↓,0.7648282999871299,True,34,1
161M19S1,301,experiment,49,↓,down,↓,0.877606800000649,True,34,1
161M19S1,302,experiment,70,↓,down,↓,0.6908918999833986,True,34,1
161M19S1,303,experiment,54,→,right,→,0.6371853000018746,True,34,1
161M19S1,304,experiment,90,←,left,←,0.677417200000491,True,34,1
161M19S1,305,experiment,57,↓,down,↓,0.5590997000108473,True,34,1
161M19S1,306,experiment,48,↓,down,↓,0.9605624999967404,True,34,1
161M19S1,307,experiment,82,↑,up,↑,0.9265159000060521,True,34,1
161M19S1,308,experiment,63,→,right,→,0.7007922999910079,True,34,1
161M19S1,309,experiment,78,←,left,←,0.7019525999785401,True,34,1
161M19S1,310,experiment,103,→,right,→,0.559284699964337,True,34,1
161M19S1,311,experiment,108,←,left,←,0.716622699983418,True,34,1
161M19S1,312,experiment,62,←,left,←,0.5470124999992549,True,34,1
161M19S1,313,experiment,84,↓,down,↓,0.7127703999867663,True,34,1
161M19S1,314,experiment,95,←,left,←,0.5721948999562301,True,34,1
161M19S1,315,experiment,92,→,right,→,0.6380567000014707,True,34,1
161M19S1,316,experiment,56,↑,up,↑,0.6175832999870181,True,34,1
161M19S1,317,experiment,81,↓,down,↓,0.7022231000009924,True,34,1
161M19S1,318,experiment,65,→,right,→,0.5076888999901712,True,34,1
161M19S1,319,experiment,91,↓,up,↑,0.9847311000339687,False,34,1
161M19S1,320,experiment,105,↑,up,↑,0.7180386999971233,True,34,1
161M19S1,321,experiment,71,←,left,←,0.8494007000117563,True,34,1
161M19S1,322,experiment,80,↓,down,↓,0.6845241000410169,True,34,1
161M19S1,323,experiment,50,↓,down,↓,0.6561175999813713,True,34,1
161M19S1,324,experiment,66,↑,up,↑,1.0718124999548309,True,34,1
161M19S1,325,experiment,102,←,left,←,0.5701529000070877,True,34,1
161M19S1,326,experiment,76,↑,up,↑,0.7379132999922149,True,34,1
161M19S1,327,experiment,53,↑,up,↑,0.5706656000111252,True,34,1
161M19S1,328,experiment,87,→,left,←,0.7584621999994852,False,34,1
161M19S1,329,experiment,73,↓,down,↓,0.8794805000070482,True,34,1
161M19S1,330,experiment,106,↑,up,↑,0.7763980000163428,True,34,1
161M19S1,331,experiment,52,→,right,→,0.6877794000320137,True,34,1
161M19S1,332,experiment,60,↓,down,↓,0.7199775000335649,True,34,1
161M19S1,333,experiment,74,↓,down,↓,0.8422847999609075,True,34,1
161M19S1,334,experiment,51,↓,down,↓,1.2953158000018448,True,34,1
161M19S1,335,experiment,94,→,right,→,0.7399433999671601,True,34,1
161M19S1,336,experiment,68,→,right,→,0.5272986000054516,True,34,1
161M19S1,337,experiment,86,↓,down,↓,0.7333640999859199,True,34,1
161M19S1,338,experiment,85,→,right,→,0.7475091000087559,True,34,1
161M19S1,339,experiment,107,↓,down,↓,0.6897863000049256,True,34,1
161M19S1,340,experiment,100,←,left,←,0.5883455000002868,True,34,1
161M19S1,341,experiment,101,↑,up,↑,0.6504753999761306,True,34,1
161M19S1,342,experiment,89,↑,up,↑,0.8984729000367224,True,34,1
161M19S1,343,experiment,104,↓,down,↓,0.6674841999774799,True,34,1
161M19S1,344,experiment,72,↑,down,↓,0.8486189999966882,False,34,1
161M19S1,345,experiment,83,←,left,←,0.7385482000536285,True,34,1
161M19S1,346,experiment,77,→,right,→,0.8589204999734648,True,34,1
161M19S1,347,experiment,79,↑,up,↑,1.2219670999911614,True,34,1
161M19S1,348,experiment,61,→,right,→,0.6325291999964975,True,34,1
161M19S1,349,experiment,58,→,right,→,1.0913241000380367,True,34,1
161M19S1,350,experiment,55,↓,down,↓,0.724978500045836,True,34,1
161M19S1,351,experiment,96,↑,up,↑,0.7357187999878079,True,34,1
161M19S1,352,experiment,75,↑,up,↑,0.7291931000072509,True,34,1
161M19S1,353,experiment,59,→,right,→,0.583796099992469,True,34,1
161M19S1,354,experiment,97,↓,down,↓,0.6639585000229999,True,34,1
161M19S1,355,experiment,98,↓,down,↓,0.5964669000240974,True,34,1
161M19S1,356,training,68,↑,up,↑,1.2546172000002116,True,33,0
161M19S1,357,training,100,↓,down,↓,0.7623876999714412,True,33,1
161M19S1,358,experiment,74,↓,down,↓,0.5710991999949329,True,33,1
161M19S1,359,experiment,78,←,left,←,0.6977070000139065,True,33,1
161M19S1,360,experiment,72,↑,up,↑,0.6214529999997467,True,33,1
161M19S1,361,experiment,79,↑,up,↑,0.8101154000032693,True,33,1
161M19S1,362,experiment,82,↓,down,↓,0.7661270999815315,True,33,1
161M19S1,363,experiment,97,→,right,→,0.7508789999992587,True,33,1
161M19S1,364,experiment,76,→,right,→,0.7752570000011474,True,33,1
161M19S1,365,experiment,98,→,right,→,0.735295100021176,True,33,1
161M19S1,366,experiment,80,↑,up,↑,0.8713638000190258,True,33,1
161M19S1,367,experiment,67,↑,up,↑,0.6219360000104643,True,33,1
161M19S1,368,experiment,62,↑,up,↑,0.655766100040637,True,33,1
161M19S1,369,experiment,101,↑,up,↑,0.8194231999805197,True,33,1
161M19S1,370,experiment,52,↓,up,↑,0.8572191999992356,False,33,1
161M19S1,371,experiment,93,→,right,→,0.6954698000336066,True,33,1
161M19S1,372,experiment,107,↓,down,↓,0.6958315999945626,True,33,1
161M19S1,373,experiment,90,↓,up,↑,1.1898667000350542,False,33,1
161M19S1,374,experiment,92,→,right,→,0.7116902000270784,True,33,1
161M19S1,375,experiment,48,←,right,→,0.8185698000015691,False,33,1
161M19S1,376,experiment,108,←,left,←,0.67008969996823,True,33,1
161M19S1,377,experiment,66,↑,up,↑,0.7886523000197485,True,33,1
161M19S1,378,experiment,91,←,left,←,0.6063493000110611,True,33,1
161M19S1,379,experiment,51,→,right,→,0.6286611999967135,True,33,1
161M19S1,380,experiment,104,↓,down,↓,0.7206491999677382,True,33,1
161M19S1,381,experiment,50,→,right,→,0.7231745999888517,True,33,1
161M19S1,382,experiment,85,←,left,←,0.6815867000259459,True,33,1
161M19S1,383,experiment,77,↑,up,↑,0.8122316000517458,True,33,1
161M19S1,384,experiment,71,→,right,→,0.77993369998876,True,33,1
161M19S1,385,experiment,95,↑,up,↑,0.8367027000058442,True,33,1
161M19S1,386,experiment,100,→,right,→,0.7855873000225984,True,33,1
161M19S1,387,experiment,103,←,left,←,0.7039254999835975,True,33,1
161M19S1,388,experiment,56,←,left,←,1.2647741999826394,True,33,1
161M19S1,389,experiment,60,↑,up,↑,0.7699852000223473,True,33,1
161M19S1,390,experiment,63,→,right,→,0.7658130999770947,True,33,1
161M19S1,391,experiment,54,↓,down,↓,0.9327625000150874,True,33,1
161M19S1,392,experiment,96,→,right,→,0.7511761999921873,True,33,1
161M19S1,393,experiment,83,↓,down,↓,0.7011738999863155,True,33,1
161M19S1,394,experiment,102,↓,up,↑,0.9188475999981165,False,33,1
161M19S1,395,experiment,105,↑,up,↑,1.1667785000172444,True,33,1
161M19S1,396,experiment,106,↑,up,↑,0.7804142000386491,True,33,1
161M19S1,397,experiment,75,↑,up,↑,0.5957571000326425,True,33,1
161M19S1,398,experiment,81,←,left,←,0.7048577999812551,True,33,1
161M19S1,399,experiment,59,↑,up,↑,1.0007641999982297,True,33,1
161M19S1,400,experiment,73,↑,up,↑,0.9039515000185929,True,33,1
161M19S1,401,experiment,89,↓,down,↓,0.6780593000003137,True,33,1
161M19S1,402,experiment,69,←,left,←,0.6116521999938414,True,33,1
161M19S1,403,experiment,86,↓,down,↓,0.5184093999559991,True,33,1
161M19S1,404,experiment,87,→,right,→,0.5805177000002004,True,33,1
161M19S1,405,experiment,65,←,left,←,0.759139999980107,True,33,1
161M19S1,406,experiment,68,↑,up,↑,0.5939174999948591,True,33,1
161M19S1,407,experiment,94,→,right,→,0.7306105999741703,True,33,1
161M19S1,408,experiment,88,→,right,→,0.5916179000050761,True,33,1
161M19S1,409,experiment,84,↑,up,↑,0.8436739999451675,True,33,1
161M19S1,410,experiment,61,→,right,→,0.7013086999650113,True,33,1
161M19S1,411,experiment,57,→,right,→,0.6221228000358678,True,33,1
161M19S1,412,experiment,70,↑,up,↑,0.8054883000440896,True,33,1
161M19S1,413,experiment,64,←,left,←,0.5997246999759227,True,33,1
161M19S1,414,experiment,58,↑,up,↑,0.5882786000147462,True,33,1
161M19S1,415,experiment,53,→,right,→,0.5223972999956459,True,33,1
161M19S1,416,experiment,99,↑,right,→,1.3001896999776363,False,33,1
161M19S1,417,experiment,55,↑,up,↑,0.6935701000038534,True,33,1
161M19S1,418,experiment,49,→,left,←,1.3132516999612562,False,33,1
161M19S1,419,training,76,←,left,←,0.5689493999816477,True,32,0
161M19S1,420,training,53,←,left,←,0.7763986999634653,True,32,1
161M19S1,421,experiment,96,↓,down,↓,0.649356399953831,True,32,1
161M19S1,422,experiment,69,↓,down,↓,0.7517028999864124,True,32,1
161M19S1,423,experiment,70,↓,down,↓,0.6742073000059463,True,32,1
161M19S1,424,experiment,61,←,left,←,0.6745753999566659,True,32,1
161M19S1,425,experiment,86,↑,up,↑,0.7068677999777719,True,32,1
161M19S1,426,experiment,73,←,left,←,0.9096002000151202,True,32,1
161M19S1,427,experiment,57,←,left,←,0.7099775000242516,True,32,1
161M19S1,428,experiment,74,→,right,→,1.2408006000332534,True,32,1
161M19S1,429,experiment,101,↓,down,↓,0.6449758000089787,True,32,1
161M19S1,430,experiment,108,←,left,←,0.6949169000145048,True,32,1
161M19S1,431,experiment,68,↑,up,↑,0.9003747000242583,True,32,1
161M19S1,432,experiment,64,↓,down,↓,0.7547550000017509,True,32,1
161M19S1,433,experiment,50,←,left,←,0.6994812000193633,True,32,1
161M19S1,434,experiment,99,←,left,←,0.6702663999749348,True,32,1
161M19S1,435,experiment,92,↓,down,↓,0.7325613999855705,True,32,1
161M19S1,436,experiment,97,↑,up,↑,0.6545325000188313,True,32,1
161M19S1,437,experiment,100,→,right,→,0.5947330000344664,True,32,1
161M19S1,438,experiment,65,←,left,←,0.6849069999880157,True,32,1
161M19S1,439,experiment,104,←,left,←,0.5187096000299789,True,32,1
161M19S1,440,experiment,59,→,right,→,0.5666174000361934,True,32,1
161M19S1,441,experiment,95,←,left,←,0.7034561000182293,True,32,1
161M19S1,442,experiment,72,←,right,→,0.7711808000458404,False,32,1
161M19S1,443,experiment,105,←,left,←,0.6731574999867007,True,32,1
161M19S1,444,experiment,53,↓,down,↓,0.66012930002762,True,32,1
161M19S1,445,experiment,82,←,left,←,0.6542000999907032,True,32,1
161M19S1,446,experiment,49,←,left,←,0.6680507999844849,True,32,1
161M19S1,447,experiment,56,↑,up,↑,0.6941211000084877,True,32,1
161M19S1,448,experiment,79,↓,down,↓,0.6557559000211768,True,32,1
161M19S1,449,experiment,88,↑,up,↑,0.6238454999984242,True,32,1
161M19S1,450,experiment,80,↓,down,↓,0.787989699980244,True,32,1
161M19S1,451,experiment,71,→,right,→,0.7007827999768779,True,32,1
161M19S1,452,experiment,87,→,right,→,0.6829031000379473,True,32,1
161M19S1,453,experiment,94,↓,down,↓,0.8004558999673463,True,32,1
161M19S1,454,experiment,48,→,left,←,0.9278361999895424,False,32,1
161M19S1,455,experiment,98,←,left,←,0.7057464999961667,True,32,1
161M19S1,456,experiment,89,↓,down,↓,0.8874736999860033,True,32,1
161M19S1,457,experiment,66,↑,up,↑,1.0455528000020422,True,32,1
161M19S1,458,experiment,102,↑,up,↑,0.8974941999767907,True,32,1
161M19S1,459,experiment,62,↑,up,↑,0.9129994999966584,True,32,1
161M19S1,460,experiment,91,↑,up,↑,0.8454575999639928,True,32,1
161M19S1,461,experiment,83,→,up,↑,1.3678157000103965,False,32,1
161M19S1,462,experiment,90,←,left,←,0.7068417000118643,True,32,1
161M19S1,463,experiment,60,↑,up,↑,0.7701700000325218,True,32,1
161M19S1,464,experiment,58,↑,up,↑,0.8318516000290401,True,32,1
161M19S1,465,experiment,84,↓,down,↓,1.4102730000158772,True,32,1
161M19S1,466,experiment,67,←,left,←,0.7472723000100814,True,32,1
161M19S1,467,experiment,52,→,right,→,0.7475415999651887,True,32,1
161M19S1,468,experiment,76,↑,up,↑,0.6839390000095591,True,32,1
161M19S1,469,experiment,106,←,left,←,0.5810865000239573,True,32,1
161M19S1,470,experiment,63,→,right,→,0.7283553999732248,True,32,1
161M19S1,471,experiment,51,←,left,←,0.7544149999739602,True,32,1
161M19S1,472,experiment,77,←,left,←,0.6661310999770649,True,32,1
161M19S1,473,experiment,107,↓,down,↓,0.5634046000195667,True,32,1
161M19S1,474,experiment,54,→,left,←,1.0985428999993019,False,32,1
161M19S1,475,experiment,78,↑,up,↑,0.8122123000212014,True,32,1
161M19S1,476,experiment,75,←,left,←,0.6026147999800742,True,32,1
161M19S1,477,experiment,85,←,left,←,0.8139856000198051,True,32,1
161M19S1,478,experiment,55,←,left,←,0.6987136999960057,True,32,1
161M19S1,479,experiment,93,←,left,←,0.7114117000019178,True,32,1
161M19S1,480,experiment,81,→,right,→,0.7837720999959856,True,32,1
161M19S1,481,experiment,103,↑,up,↑,0.5658359000226483,True,32,1
161M19S1,482,training,53,←,left,←,0.6686343000037596,True,31,0
161M19S1,483,training,73,←,left,←,0.7772779000224546,True,31,1
161M19S1,484,experiment,58,↓,down,↓,0.765263200039044,True,31,1
161M19S1,485,experiment,105,↓,down,↓,0.643019600014668,True,31,1
161M19S1,486,experiment,89,←,left,←,0.6753174000186846,True,31,1
161M19S1,487,experiment,56,↑,down,↓,0.7574419999727979,False,31,1
161M19S1,488,experiment,80,↑,up,↑,0.5800804999889806,True,31,1
161M19S1,489,experiment,66,→,right,→,0.6225828999886289,True,31,1
161M19S1,490,experiment,96,↓,down,↓,0.5652441999991424,True,31,1
161M19S1,491,experiment,50,↑,down,↓,0.9736169000389054,False,31,1
161M19S1,492,experiment,57,↓,down,↓,0.947421699995175,True,31,1
161M19S1,493,experiment,69,↓,down,↓,0.5739416000433266,True,31,1
161M19S1,494,experiment,101,←,left,←,0.7010979999904521,True,31,1
161M19S1,495,experiment,81,←,left,←,0.5658870000042953,True,31,1
161M19S1,496,experiment,72,↓,down,↓,0.6308893000241369,True,31,1
161M19S1,497,experiment,97,←,left,←,0.6851193999755196,True,31,1
161M19S1,498,experiment,75,→,right,→,0.8962899000034668,True,31,1
161M19S1,499,experiment,51,↓,down,↓,0.6916483999812044,True,31,1
161M19S1,500,experiment,104,↓,down,↓,0.7563495999784209,True,31,1
161M19S1,501,experiment,82,→,right,→,0.6583734999876469,True,31,1
161M19S1,502,experiment,93,←,left,←,0.7846878999844193,True,31,1
161M19S1,503,experiment,90,←,left,←,0.9391017000307329,True,31,1
161M19S1,504,experiment,64,→,left,←,0.9037141000153497,False,31,1
161M19S1,505,experiment,107,↓,down,↓,0.5357529000029899,True,31,1
161M19S1,506,experiment,79,←,left,←,0.8398502999916673,True,31,1
161M19S1,507,experiment,67,↓,down,↓,0.7675596000044607,True,31,1
161M19S1,508,experiment,63,←,left,←,0.7795726000331342,True,31,1
161M19S1,509,experiment,54,↓,down,↓,0.6742462999536656,True,31,1
161M19S1,510,experiment,98,→,right,→,0.6142480999697,True,31,1
161M19S1,511,experiment,52,↑,up,↑,0.763755299965851,True,31,1
161M19S1,512,experiment,85,↓,down,↓,0.8644779000314884,True,31,1
161M19S1,513,experiment,61,←,right,→,1.5293022999539971,False,31,1
161M19S1,514,experiment,94,↑,up,↑,0.6040327999508008,True,31,1
161M19S1,515,experiment,59,←,left,←,0.912057499983348,True,31,1
161M19S1,516,experiment,62,←,left,←,0.6307320999912918,True,31,1
161M19S1,517,experiment,55,↓,down,↓,0.7388715000124648,True,31,1
161M19S1,518,experiment,91,↓,down,↓,0.6945246999966912,True,31,1
161M19S1,519,experiment,83,→,right,→,0.847061800013762,True,31,1
161M19S1,520,experiment,92,↑,up,↑,0.5738981000031345,True,31,1
161M19S1,521,experiment,88,↓,down,↓,0.47325109998928383,True,31,1
161M19S1,522,experiment,78,→,left,←,0.6761346000130288,False,31,1
161M19S1,523,experiment,108,↓,down,↓,0.5487470999942161,True,31,1
161M19S1,524,experiment,100,←,left,←,0.5571658999542706,True,31,1
161M19S1,525,experiment,103,→,right,→,0.7804389999946579,True,31,1
161M19S1,526,experiment,76,↓,down,↓,0.5153094999841414,True,31,1
161M19S1,527,experiment,84,←,left,←,0.5382560000289232,True,31,1
161M19S1,528,experiment,65,↓,down,↓,0.574670200003311,True,31,1
161M19S1,529,experiment,53,↑,up,↑,0.5099252000218257,True,31,1
161M19S1,530,experiment,73,↓,down,↓,0.7048936000210233,True,31,1
161M19S1,531,experiment,74,↓,down,↓,0.44409810000797734,True,31,1
161M19S1,532,experiment,87,↓,down,↓,0.7250649999477901,True,31,1
161M19S1,533,experiment,99,↑,up,↑,0.7106558000086807,True,31,1
161M19S1,534,experiment,49,←,left,←,0.5378451999858953,True,31,1
161M19S1,535,experiment,77,↓,down,↓,0.43503559997770935,True,31,1
161M19S1,536,experiment,86,↑,up,↑,1.2034346999716945,True,31,1
161M19S1,537,experiment,68,←,left,←,0.7724961999920197,True,31,1
161M19S1,538,experiment,70,↓,down,↓,0.7979418999748304,True,31,1
161M19S1,539,experiment,102,↓,down,↓,0.5958456000080332,True,31,1
161M19S1,540,experiment,95,→,right,→,0.7238434000173584,True,31,1
161M19S1,541,experiment,48,→,right,→,0.5185667999903671,True,31,1
161M19S1,542,experiment,60,→,right,→,0.8377923000371084,True,31,1
161M19S1,543,experiment,106,←,left,←,0.7284148000180721,True,31,1
161M19S1,544,experiment,71,↑,up,↑,0.7554106999887154,True,31,1
161M19S1,545,training,70,↓,down,↓,0.5795434000319801,True,30,0
161M19S1,546,training,82,↓,down,↓,0.7770875999704003,True,30,1
161M19S1,547,experiment,89,↑,left,←,1.5880438999738544,False,30,1
161M19S1,548,experiment,93,←,left,←,0.780804900045041,True,30,1
161M19S1,549,experiment,56,→,right,→,0.8424710999825038,True,30,1
161M19S1,550,experiment,97,←,left,←,0.7121646000305191,True,30,1
161M19S1,551,experiment,82,↑,up,↑,0.5361777999787591,True,30,1
161M19S1,552,experiment,49,↓,down,↓,0.7543014000402763,True,30,1
161M19S1,553,experiment,85,→,right,→,0.5753972999518737,True,30,1
161M19S1,554,experiment,54,↓,down,↓,0.5983674000017345,True,30,1
161M19S1,555,experiment,88,↓,down,↓,0.7764788999920711,True,30,1
161M19S1,556,experiment,52,↑,up,↑,0.6479146999772638,True,30,1
161M19S1,557,experiment,61,←,left,←,0.6814542000065558,True,30,1
161M19S1,558,experiment,81,↑,up,↑,0.6426314999698661,True,30,1
161M19S1,559,experiment,72,↑,up,↑,0.5207305999938399,True,30,1
161M19S1,560,experiment,91,←,left,←,0.8130887000006624,True,30,1
161M19S1,561,experiment,84,↓,down,↓,0.8001371999853291,True,30,1
161M19S1,562,experiment,99,→,right,→,0.5428355999756604,True,30,1
161M19S1,563,experiment,59,←,left,←,0.6773255000007339,True,30,1
161M19S1,564,experiment,83,←,left,←,0.7902988999849185,True,30,1
161M19S1,565,experiment,66,←,left,←,0.6882878000033088,True,30,1
161M19S1,566,experiment,75,←,left,←,0.7559582000249065,True,30,1
161M19S1,567,experiment,101,→,right,→,0.555480599985458,True,30,1
161M19S1,568,experiment,95,↑,left,←,1.117030799970962,False,30,1
161M19S1,569,experiment,86,↑,up,↑,0.6115493000252172,True,30,1
161M19S1,570,experiment,106,→,right,→,0.7113567999913357,True,30,1
161M19S1,571,experiment,48,←,left,←,0.6589663000195287,True,30,1
161M19S1,572,experiment,103,→,left,←,0.9338770000031218,False,30,1
161M19S1,573,experiment,92,←,left,←,0.6494165000040084,True,30,1
161M19S1,574,experiment,62,↓,down,↓,0.7545555999968201,True,30,1
161M19S1,575,experiment,90,←,left,←,0.5979587999754585,True,30,1
161M19S1,576,experiment,78,↑,up,↑,0.7075487000402063,True,30,1
161M19S1,577,experiment,77,←,left,←,0.4854393000132404,True,30,1
161M19S1,578,experiment,58,↑,up,↑,0.5744605999789201,True,30,1
161M19S1,579,experiment,94,←,right,→,1.543834500014782,False,30,1
161M19S1,580,experiment,53,↑,up,↑,1.8964598000166006,True,30,1
161M19S1,581,experiment,64,↓,down,↓,0.9826162999961525,True,30,1
161M19S1,582,experiment,68,←,left,←,0.8561230000341311,True,30,1
161M19S1,583,experiment,96,←,no_key,no_letter,-1.0,False,30,1
161M19S1,584,experiment,65,↑,up,↑,0.714660300000105,True,30,1
161M19S1,585,experiment,73,↓,down,↓,0.6055918000056408,True,30,1
161M19S1,586,experiment,69,↑,up,↑,0.6376376999542117,True,30,1
161M19S1,587,experiment,71,↓,down,↓,0.7643177999998443,True,30,1
161M19S1,588,experiment,105,→,right,→,0.7548213999834843,True,30,1
161M19S1,589,experiment,51,→,right,→,0.7791890999651514,True,30,1
161M19S1,590,experiment,67,↑,up,↑,0.5892889000242576,True,30,1
161M19S1,591,experiment,76,↑,up,↑,0.595989900000859,True,30,1
161M19S1,592,experiment,100,→,right,→,0.5062403000192717,True,30,1
161M19S1,593,experiment,55,↑,up,↑,0.5075335999717936,True,30,1
161M19S1,594,experiment,70,→,right,→,0.4555841999826953,True,30,1
161M19S1,595,experiment,79,↑,up,↑,1.3704989000107162,True,30,1
161M19S1,596,experiment,60,→,right,→,0.7517578999977559,True,30,1
161M19S1,597,experiment,104,↑,up,↑,0.7905157000059262,True,30,1
161M19S1,598,experiment,98,↑,up,↑,0.7422828000271693,True,30,1
161M19S1,599,experiment,63,←,right,→,0.7550491999718361,False,30,1
161M19S1,600,experiment,107,↓,down,↓,0.704617400013376,True,30,1
161M19S1,601,experiment,50,→,right,→,0.8196353999665007,True,30,1
161M19S1,602,experiment,102,←,left,←,0.7683366000419483,True,30,1
161M19S1,603,experiment,108,→,right,→,0.6373523999936879,True,30,1
161M19S1,604,experiment,74,↑,up,↑,0.6911394000053406,True,30,1
161M19S1,605,experiment,87,↓,down,↓,0.7381093000294641,True,30,1
161M19S1,606,experiment,57,←,left,←,0.7373535999795422,True,30,1
161M19S1,607,experiment,80,→,left,←,1.4328777000191621,False,30,1
161M19S1,608,training,84,↓,down,↓,0.6675461999839172,True,30,0
161M19S1,609,training,66,↓,down,↓,0.5463696999941021,True,30,1
161M19S1,610,experiment,88,↓,down,↓,0.655059100012295,True,30,1
161M19S1,611,experiment,68,←,left,←,0.5178183999960311,True,30,1
161M19S1,612,experiment,76,↓,down,↓,0.6155144000076689,True,30,1
161M19S1,613,experiment,105,↑,up,↑,0.5875156999682076,True,30,1
161M19S1,614,experiment,100,←,left,←,0.6187008999986574,True,30,1
161M19S1,615,experiment,94,↑,up,↑,0.48235969996312633,True,30,1
161M19S1,616,experiment,66,←,left,←,0.5370037999819033,True,30,1
161M19S1,617,experiment,97,↑,up,↑,0.5868473000009544,True,30,1
161M19S1,618,experiment,70,↑,up,↑,0.6598218000144698,True,30,1
161M19S1,619,experiment,78,←,left,←,0.6152533999993466,True,30,1
161M19S1,620,experiment,79,←,left,←,0.4919478999800049,True,30,1
161M19S1,621,experiment,95,→,right,→,0.8563181000063196,True,30,1
161M19S1,622,experiment,107,↓,down,↓,0.698043999960646,True,30,1
161M19S1,623,experiment,104,→,right,→,0.6590046000201255,True,30,1
161M19S1,624,experiment,63,↓,down,↓,0.7075125999981537,True,30,1
161M19S1,625,experiment,55,↓,down,↓,0.7484745000256225,True,30,1
161M19S1,626,experiment,67,←,left,←,0.6239727000356652,True,30,1
161M19S1,627,experiment,98,↑,up,↑,0.6299728999729268,True,30,1
161M19S1,628,experiment,48,→,right,→,0.43661340000107884,True,30,1
161M19S1,629,experiment,89,↑,up,↑,0.5167058000224642,True,30,1
161M19S1,630,experiment,57,→,right,→,0.6291712999809533,True,30,1
161M19S1,631,experiment,75,←,left,←,0.5547502000117674,True,30,1
161M19S1,632,experiment,72,↑,right,→,1.1799297999823466,False,30,1
161M19S1,633,experiment,90,↓,down,↓,0.6383275000262074,True,30,1
161M19S1,634,experiment,103,←,left,←,0.5699857999570668,True,30,1
161M19S1,635,experiment,92,→,right,→,0.4009072000044398,True,30,1
161M19S1,636,experiment,93,→,left,←,0.5407199999899603,False,30,0
161M19S1,637,experiment,71,↑,right,→,1.5750527000054717,False,30,1
161M19S1,638,experiment,86,→,right,→,0.6190991000039503,True,30,1
161M19S1,639,experiment,83,→,right,→,0.6064024000079371,True,30,1
161M19S1,640,experiment,61,↓,left,←,0.905485299997963,False,30,1
161M19S1,641,experiment,82,→,right,→,0.6814608999993652,True,30,1
161M19S1,642,experiment,87,↑,up,↑,0.7048489999724552,True,30,1
161M19S1,643,experiment,56,↓,down,↓,0.6496710000210442,True,30,1
161M19S1,644,experiment,102,←,left,←,0.613506400026381,True,30,1
161M19S1,645,experiment,108,↓,down,↓,0.6003287999774329,True,30,1
161M19S1,646,experiment,101,←,down,↓,1.7106306999921799,False,30,1
161M19S1,647,experiment,85,↓,down,↓,0.5252714000525884,True,30,1
161M19S1,648,experiment,64,←,right,→,0.8108524000272155,False,30,1
161M19S1,649,experiment,69,←,left,←,0.6990569999907166,True,30,1
161M19S1,650,experiment,106,→,right,→,0.547350800014101,True,30,1
161M19S1,651,experiment,54,←,down,↓,1.4350405000150204,False,30,1
161M19S1,652,experiment,65,↑,left,←,1.2597128999768756,False,30,1
161M19S1,653,experiment,74,→,right,→,0.6083067000145093,True,30,1
161M19S1,654,experiment,81,←,left,←,0.7969264999846928,True,30,1
161M19S1,655,experiment,59,←,right,→,1.0175885000498965,False,30,1
161M19S1,656,experiment,50,←,left,←,0.9115441999747418,True,30,1
161M19S1,657,experiment,51,↓,down,↓,1.1138668999774382,True,30,1
161M19S1,658,experiment,52,←,left,←,0.6595598999992944,True,30,1
161M19S1,659,experiment,99,↑,up,↑,0.759747999953106,True,30,1
161M19S1,660,experiment,96,↓,down,↓,0.6009290000074543,True,30,1
161M19S1,661,experiment,49,↓,down,↓,0.7365947000216693,True,30,1
161M19S1,662,experiment,73,→,right,→,0.7470526999677531,True,30,1
161M19S1,663,experiment,77,↓,down,↓,0.5704547999775968,True,30,1
161M19S1,664,experiment,58,↓,down,↓,0.8482160000130534,True,30,1
161M19S1,665,experiment,84,→,right,→,0.6979789999895729,True,30,1
161M19S1,666,experiment,62,↓,down,↓,0.5448422000044957,True,30,1
161M19S1,667,experiment,60,→,left,←,0.7911141999647953,False,30,1
161M19S1,668,experiment,53,↑,up,↑,0.6615204000263475,True,30,1
161M19S1,669,experiment,91,↓,down,↓,0.6124804000137374,True,30,1
161M19S1,670,experiment,80,↑,up,↑,0.6888583000400104,True,30,1
161M19S1,671,training,70,←,left,←,0.5120516999741085,True,30,0
161M19S1,672,training,62,↓,down,↓,0.5187368000042625,True,30,1
161M19S1,673,experiment,81,↑,up,↑,0.4627994999755174,True,30,1
161M19S1,674,experiment,92,←,left,←,0.6772405000519939,True,30,1
161M19S1,675,experiment,74,→,right,→,0.6172521999687888,True,30,1
161M19S1,676,experiment,83,↓,left,←,0.7246126999962144,False,30,1
161M19S1,677,experiment,57,←,left,←,0.492468899989035,True,30,1
161M19S1,678,experiment,99,↑,up,↑,0.4635914000100456,True,30,1
161M19S1,679,experiment,100,→,right,→,0.5311609000200406,True,30,1
161M19S1,680,experiment,67,↓,down,↓,0.7511952000204474,True,30,1
161M19S1,681,experiment,90,↓,down,↓,0.5468944000313058,True,30,1
161M19S1,682,experiment,51,↓,down,↓,0.7717083999887109,True,30,1
161M19S1,683,experiment,104,↓,down,↓,0.569664099952206,True,30,1
161M19S1,684,experiment,89,→,right,→,0.6451453000190668,True,30,1
161M19S1,685,experiment,68,←,right,→,0.6845602000248618,False,30,1
161M19S1,686,experiment,64,↑,up,↑,0.5474953000084497,True,30,1
161M19S1,687,experiment,69,←,left,←,0.4387290999875404,True,30,1
161M19S1,688,experiment,60,←,left,←,0.6483988999971189,True,30,1
161M19S1,689,experiment,53,↓,down,↓,0.5005908000166528,True,30,1
161M19S1,690,experiment,105,←,left,←,0.573120899964124,True,30,1
161M19S1,691,experiment,54,←,left,←,0.6279347999952734,True,30,1
161M19S1,692,experiment,101,→,right,→,0.856991000007838,True,30,1
161M19S1,693,experiment,71,←,left,←,0.46258880000095814,True,30,1
161M19S1,694,experiment,61,←,left,←,0.9447809000266716,True,30,1
161M19S1,695,experiment,96,→,right,→,0.6418337000068277,True,30,1
161M19S1,696,experiment,62,→,right,→,0.6351289000012912,True,30,1
161M19S1,697,experiment,75,←,left,←,0.5765145000186749,True,30,1
161M19S1,698,experiment,77,↓,down,↓,0.6795978000154719,True,30,1
161M19S1,699,experiment,49,↑,up,↑,0.7956868999754079,True,30,1
161M19S1,700,experiment,107,←,left,←,0.6880048000020906,True,30,1
161M19S1,701,experiment,84,↑,up,↑,0.7440528000006452,True,30,1
161M19S1,702,experiment,85,↓,down,↓,0.854068799992092,True,30,1
161M19S1,703,experiment,103,↑,up,↑,0.5052842000150122,True,30,1
161M19S1,704,experiment,106,↑,up,↑,0.7371045000036247,True,30,1
161M19S1,705,experiment,72,↓,down,↓,0.6437006999622099,True,30,1
161M19S1,706,experiment,93,↑,up,↑,0.5621426000143401,True,30,1
161M19S1,707,experiment,50,↓,down,↓,0.8269665000261739,True,30,1
161M19S1,708,experiment,98,↓,down,↓,0.5850985999568366,True,30,1
161M19S1,709,experiment,66,→,right,→,0.7393481000326574,True,30,1
161M19S1,710,experiment,79,↓,down,↓,0.571029799990356,True,30,1
161M19S1,711,experiment,52,→,right,→,0.5545035999966785,True,30,1
161M19S1,712,experiment,108,←,left,←,0.816106500045862,True,30,1
161M19S1,713,experiment,70,→,left,←,1.4236483999993652,False,30,1
161M19S1,714,experiment,102,→,right,→,0.5962335999938659,True,30,1
161M19S1,715,experiment,80,↑,up,↑,0.6891508999979123,True,30,1
161M19S1,716,experiment,59,→,right,→,0.8666462000110187,True,30,1
161M19S1,717,experiment,48,←,left,←,0.6225383999990299,True,30,1
161M19S1,718,experiment,88,→,right,→,0.46399050002219155,True,30,1
161M19S1,719,experiment,63,↑,up,↑,0.6643200000398792,True,30,1
161M19S1,720,experiment,86,→,right,→,0.5288362999563105,True,30,1
161M19S1,721,experiment,95,←,left,←,0.6915163000230677,True,30,1
161M19S1,722,experiment,82,←,left,←,0.6842729999916628,True,30,1
161M19S1,723,experiment,76,→,right,→,0.4712819000124,True,30,1
161M19S1,724,experiment,97,←,left,←,0.6757275999989361,True,30,1
161M19S1,725,experiment,73,←,left,←,0.8000602999818511,True,30,1
161M19S1,726,experiment,55,←,left,←,0.629430599976331,True,30,1
161M19S1,727,experiment,87,→,right,→,0.5429184000240639,True,30,1
161M19S1,728,experiment,91,↓,left,←,0.7785172999720089,False,30,1
161M19S1,729,experiment,78,→,right,→,0.5052575000445358,True,30,1
161M19S1,730,experiment,94,→,right,→,0.7096661999821663,True,30,1
161M19S1,731,experiment,58,←,left,←,0.5336830000160262,True,30,1
161M19S1,732,experiment,56,↓,down,↓,0.6131699000252411,True,30,1
161M19S1,733,experiment,65,→,left,←,0.8465086999931373,False,30,1
161M19S1,734,training,106,←,left,←,0.47484320000512525,True,29,0
161M19S1,735,training,62,↑,up,↑,0.7309513999498449,True,29,1
161M19S1,736,experiment,85,↓,down,↓,0.6650340000051074,True,29,1
161M19S1,737,experiment,59,←,left,←,0.6582484999671578,True,29,1
161M19S1,738,experiment,81,→,right,→,0.5646162999910302,True,29,1
161M19S1,739,experiment,98,←,left,←,0.46902869996847585,True,29,1
161M19S1,740,experiment,52,→,left,←,1.0008216999704018,False,29,1
161M19S1,741,experiment,83,↑,up,↑,0.6290965999942273,True,29,1
161M19S1,742,experiment,48,←,left,←,0.6271951000089757,True,29,1
161M19S1,743,experiment,69,↑,up,↑,0.5312689000274986,True,29,1
161M19S1,744,experiment,68,←,left,←,0.4865715999621898,True,29,1
161M19S1,745,experiment,76,↓,up,↑,0.7697410999680869,False,29,1
161M19S1,746,experiment,62,↑,up,↑,0.7901897999690846,True,29,1
161M19S1,747,experiment,49,↓,down,↓,1.7098497000406496,True,29,1
161M19S1,748,experiment,80,←,left,←,0.5424063000245951,True,29,1
161M19S1,749,experiment,63,↑,up,↑,0.4915294999955222,True,29,1
161M19S1,750,experiment,66,←,left,←,0.46554160001687706,True,29,1
161M19S1,751,experiment,53,→,right,→,0.701023300003726,True,29,1
161M19S1,752,experiment,104,→,right,→,0.9259573000017554,True,29,1
161M19S1,753,experiment,67,→,right,→,0.9304004000150599,True,29,1
161M19S1,754,experiment,87,↑,up,↑,0.8157173999934457,True,29,1
161M19S1,755,experiment,58,↓,down,↓,0.6994584000203758,True,29,1
161M19S1,756,experiment,78,→,right,→,0.5251761999679729,True,29,1
161M19S1,757,experiment,100,↓,down,↓,0.8227513000019826,True,29,1
161M19S1,758,experiment,91,↑,up,↑,0.7268874000292271,True,29,1
161M19S1,759,experiment,71,↓,up,↑,0.7220792000298388,False,29,1
161M19S1,760,experiment,93,←,left,←,0.6856082999729551,True,29,1
161M19S1,761,experiment,57,→,right,→,0.8391371999750845,True,29,1
161M19S1,762,experiment,107,←,left,←,0.6820934000425041,True,29,1
161M19S1,763,experiment,54,←,left,←,0.715739700011909,True,29,1
161M19S1,764,experiment,92,←,left,←,0.7281278999871574,True,29,1
161M19S1,765,experiment,84,←,left,←,0.6788768999977037,True,29,1
161M19S1,766,experiment,74,↑,up,↑,0.7471192000084557,True,29,1
161M19S1,767,experiment,101,↓,down,↓,0.938904199982062,True,29,1
161M19S1,768,experiment,86,↑,up,↑,0.9201569000142626,True,29,1
161M19S1,769,experiment,106,↑,up,↑,0.7759820999926887,True,29,1
161M19S1,770,experiment,99,←,left,←,0.5197566999704577,True,29,1
161M19S1,771,experiment,55,↓,down,↓,0.672359400021378,True,29,1
161M19S1,772,experiment,72,→,right,→,0.9330309000215493,True,29,1
161M19S1,773,experiment,56,←,left,←,0.8206158000393771,True,29,1
161M19S1,774,experiment,61,←,left,←,0.7435692999861203,True,29,1
161M19S1,775,experiment,103,↓,down,↓,0.831141100032255,True,29,1
161M19S1,776,experiment,70,←,left,←,0.5661584000336006,True,29,1
161M19S1,777,experiment,77,→,right,→,0.6376105000381358,True,29,1
161M19S1,778,experiment,89,→,right,→,0.6303650999907404,True,29,1
161M19S1,779,experiment,75,↓,down,↓,0.683941799972672,True,29,1
161M19S1,780,experiment,51,↓,down,↓,0.7670749999815598,True,29,1
161M19S1,781,experiment,60,↑,up,↑,0.6602791000041179,True,29,1
161M19S1,782,experiment,73,→,right,→,0.7934497999958694,True,29,1
161M19S1,783,experiment,50,↑,right,→,1.1365857999771833,False,29,1
161M19S1,784,experiment,102,↑,up,↑,0.7128458999795839,True,29,1
161M19S1,785,experiment,79,→,up,↑,1.0496056000120007,False,29,1
161M19S1,786,experiment,108,↑,up,↑,0.5872373000020161,True,29,1
161M19S1,787,experiment,105,↑,up,↑,0.7526510000461712,True,29,1
161M19S1,788,experiment,88,←,left,←,0.5009139000321738,True,29,1
161M19S1,789,experiment,95,↑,up,↑,0.6089042999665253,True,29,1
161M19S1,790,experiment,96,↓,up,↑,1.536448400001973,False,29,1
161M19S1,791,experiment,65,→,right,→,0.6449799999827519,True,29,1
161M19S1,792,experiment,90,↑,left,←,0.9171792999841273,False,29,1
161M19S1,793,experiment,97,↓,down,↓,0.5756506000179797,True,29,1
161M19S1,794,experiment,82,←,left,←,0.7011245000176132,True,29,1
161M19S1,795,experiment,64,↓,up,↑,0.7474718000157736,False,29,1
161M19S1,796,experiment,94,↓,up,↑,0.7898623000364751,False,29,1
161M19S1,797,training,99,→,right,→,0.7033164000022225,True,29,0
161M19S1,798,training,94,↓,down,↓,0.5236145999515429,True,29,1
161M19S1,799,experiment,105,↑,up,↑,0.5153330999892205,True,29,1
161M19S1,800,experiment,89,↑,up,↑,0.8567100999644026,True,29,1
161M19S1,801,experiment,59,↓,down,↓,0.5223865999723785,True,29,1
161M19S1,802,experiment,101,↑,up,↑,0.49958490004064515,True,29,1
161M19S1,803,experiment,76,↓,up,↑,0.7501720000291243,False,29,1
161M19S1,804,experiment,75,↓,down,↓,0.49459190003108233,True,29,1
161M19S1,805,experiment,92,←,left,←,1.5800116999889724,True,29,1
161M19S1,806,experiment,94,→,right,→,0.5009009999921545,True,29,1
161M19S1,807,experiment,103,→,right,→,0.4227764999959618,True,29,1
161M19S1,808,experiment,77,←,left,←,0.7473957000183873,True,29,1
161M19S1,809,experiment,79,↓,up,↑,1.1307143999729306,False,29,1
161M19S1,810,experiment,82,↓,down,↓,0.433748800016474,True,29,1
161M19S1,811,experiment,86,↑,up,↑,0.6595109000336379,True,29,1
161M19S1,812,experiment,100,↓,up,↑,0.8954214000259526,False,29,1
161M19S1,813,experiment,108,↓,down,↓,0.479463699972257,True,29,1
161M19S1,814,experiment,102,↓,down,↓,0.5702108999830671,True,29,1
161M19S1,815,experiment,97,↑,up,↑,0.6430087999906391,True,29,1
161M19S1,816,experiment,56,↑,left,←,1.1342549999826588,False,29,1
161M19S1,817,experiment,87,←,up,↑,0.7635741999838501,False,29,1
161M19S1,818,experiment,99,→,right,→,0.731533500016667,True,29,1
161M19S1,819,experiment,53,→,right,→,0.9322721000062302,True,29,1
161M19S1,820,experiment,51,←,left,←,1.0696536000468768,True,29,1
161M19S1,821,experiment,62,↑,up,↑,0.613959199981764,True,29,1
161M19S1,822,experiment,78,↑,up,↑,0.7393075000145473,True,29,1
161M19S1,823,experiment,57,←,left,←,0.7142819000291638,True,29,1
161M19S1,824,experiment,93,←,left,←,0.8462338999961503,True,29,1
161M19S1,825,experiment,63,→,right,→,0.5268799000186846,True,29,1
161M19S1,826,experiment,81,↑,up,↑,0.8705547000281513,True,29,1
161M19S1,827,experiment,52,→,right,→,0.5144122999627143,True,29,1
161M19S1,828,experiment,49,→,left,←,1.045108300051652,False,29,1
161M19S1,829,experiment,85,↓,left,←,0.9589774000342004,False,29,1
161M19S1,830,experiment,60,→,right,→,0.7643950000056066,True,29,1
161M19S1,831,experiment,66,↑,left,←,1.1751959000248462,False,29,1
161M19S1,832,experiment,69,←,left,←,0.801097400020808,True,29,1
161M19S1,833,experiment,64,↓,down,↓,0.8271812000311911,True,29,1
161M19S1,834,experiment,70,↑,up,↑,0.5785605999990366,True,29,1
161M19S1,835,experiment,50,→,right,→,0.5706946999998763,True,29,1
161M19S1,836,experiment,84,↑,up,↑,0.5034267000155523,True,29,1
161M19S1,837,experiment,68,↓,right,→,0.9644547000061721,False,29,1
161M19S1,838,experiment,71,←,right,→,0.8057827000156976,False,29,1
161M19S1,839,experiment,61,→,left,←,1.4408484000014141,False,29,1
161M19S1,840,experiment,73,←,left,←,0.5347185999853536,True,29,1
161M19S1,841,experiment,80,←,left,←,1.7022903999895789,True,29,1
161M19S1,842,experiment,65,→,right,→,0.5401357000228018,True,29,1
161M19S1,843,experiment,95,→,left,←,1.1985824999865144,False,29,1
161M19S1,844,experiment,67,↑,up,↑,0.5678924000239931,True,29,1
161M19S1,845,experiment,98,↓,left,←,1.256227999983821,False,29,1
161M19S1,846,experiment,107,↓,down,↓,0.618244799959939,True,29,1
161M19S1,847,experiment,55,→,right,→,0.6304955999949016,True,29,1
161M19S1,848,experiment,104,↓,down,↓,0.514241500000935,True,29,1
161M19S1,849,experiment,74,↓,down,↓,0.7486675000400282,True,29,1
161M19S1,850,experiment,91,↓,down,↓,0.5522045000107028,True,29,1
161M19S1,851,experiment,58,←,left,←,0.6943902000202797,True,29,1
161M19S1,852,experiment,88,←,left,←,0.853290900005959,True,29,1
161M19S1,853,experiment,106,←,left,←,1.4714549999916926,True,29,1
161M19S1,854,experiment,90,↓,down,↓,0.5100513999932446,True,29,1
161M19S1,855,experiment,96,↑,up,↑,0.5774672999978065,True,29,1
161M19S1,856,experiment,72,←,left,←,0.4901473000063561,True,29,1
161M19S1,857,experiment,48,→,left,←,1.16621729999315,False,29,1
161M19S1,858,experiment,54,↑,up,↑,0.7491956999874674,True,29,1
161M19S1,859,experiment,83,↓,down,↓,0.41924509999807924,True,29,1
161M19S1,860,training,102,→,right,→,0.642569400020875,True,29,0
161M19S1,861,training,62,↓,left,←,0.7881447999970987,False,29,1
161M19S1,862,experiment,93,←,right,→,0.7329235000070184,False,29,1
161M19S1,863,experiment,62,→,right,→,0.5384373000124469,True,29,1
161M19S1,864,experiment,104,←,left,←,0.5780829999712296,True,29,1
161M19S1,865,experiment,102,→,right,→,0.6806165000307374,True,29,1
161M19S1,866,experiment,58,→,right,→,0.474091199983377,True,29,1
161M19S1,867,experiment,90,↓,right,→,0.8806501000071876,False,29,1
161M19S1,868,experiment,50,←,left,←,0.6601586999604478,True,29,1
161M19S1,869,experiment,67,↓,down,↓,0.5952031000051647,True,29,1
161M19S1,870,experiment,100,↑,up,↑,0.5780989999766462,True,29,1
161M19S1,871,experiment,79,→,right,→,0.6563518000184558,True,29,1
161M19S1,872,experiment,61,↓,left,←,1.2414283000398427,False,29,1
161M19S1,873,experiment,88,↓,down,↓,0.506037599989213,True,29,1
161M19S1,874,experiment,97,←,left,←,0.7571108000120148,True,29,1
161M19S1,875,experiment,83,↓,down,↓,0.7787416999926791,True,29,1
161M19S1,876,experiment,84,→,right,→,0.6075985000352375,True,29,1
161M19S1,877,experiment,51,←,left,←,0.6138922999962233,True,29,1
161M19S1,878,experiment,54,↓,down,↓,0.6269177999929525,True,29,1
161M19S1,879,experiment,80,↑,up,↑,0.5110529999947175,True,29,1
161M19S1,880,experiment,69,→,right,→,0.8434315999620594,True,29,1
161M19S1,881,experiment,55,↑,up,↑,0.63922370004002,True,29,1
161M19S1,882,experiment,66,→,right,→,0.6791909000021406,True,29,1
161M19S1,883,experiment,70,↓,down,↓,0.476294299995061,True,29,1
161M19S1,884,experiment,76,↓,down,↓,0.6397860000142828,True,29,1
161M19S1,885,experiment,65,→,right,→,0.600089100014884,True,29,1
161M19S1,886,experiment,75,→,right,→,0.6148049999610521,True,29,1
161M19S1,887,experiment,87,↓,down,↓,0.6488425999996252,True,29,1
161M19S1,888,experiment,57,↑,down,↓,0.6837867999565788,False,29,1
161M19S1,889,experiment,82,↑,up,↑,0.6366468000342138,True,29,1
161M19S1,890,experiment,78,→,right,→,1.0096218000398949,True,29,1
161M19S1,891,experiment,107,→,right,→,0.5647104000090621,True,29,1
161M19S1,892,experiment,85,→,right,→,0.5854000999825075,True,29,1
161M19S1,893,experiment,91,↓,down,↓,0.675425199966412,True,29,1
161M19S1,894,experiment,77,→,right,→,0.6304777000332251,True,29,1
161M19S1,895,experiment,52,←,left,←,0.4998354999697767,True,29,1
161M19S1,896,experiment,96,←,left,←,0.3840684999595396,True,29,1
161M19S1,897,experiment,92,↓,right,→,0.9926597999874502,False,29,0
161M19S1,898,experiment,64,→,right,→,0.5478762999991886,True,29,1
161M19S1,899,experiment,105,↓,down,↓,0.7300766999833286,True,29,1
161M19S1,900,experiment,103,←,left,←,0.5142983000259846,True,29,1
161M19S1,901,experiment,73,↓,right,→,0.8368276000255719,False,29,1
161M19S1,902,experiment,48,→,right,→,0.6031985000008717,True,29,1
161M19S1,903,experiment,81,←,left,←,0.568004899949301,True,29,1
161M19S1,904,experiment,72,↓,down,↓,0.7451701000100002,True,29,1
161M19S1,905,experiment,86,→,right,→,0.5904177000047639,True,29,1
161M19S1,906,experiment,60,←,left,←,0.6584417000412941,True,29,1
161M19S1,907,experiment,106,→,right,→,0.7324357000179589,True,29,1
161M19S1,908,experiment,53,←,right,→,1.3331828999798745,False,29,1
161M19S1,909,experiment,71,→,right,→,0.6400643999804743,True,29,1
161M19S1,910,experiment,63,→,left,←,0.9050515999551862,False,29,1
161M19S1,911,experiment,56,←,left,←,0.785801200021524,True,29,1
161M19S1,912,experiment,74,↑,up,↑,0.5773803000338376,True,29,1
161M19S1,913,experiment,94,↑,right,→,0.9629705999977887,False,29,1
161M19S1,914,experiment,68,↓,down,↓,0.5571524000260979,True,29,1
161M19S1,915,experiment,49,↓,down,↓,1.1421286000404507,True,29,1
161M19S1,916,experiment,101,→,right,→,0.6384873000206426,True,29,1
161M19S1,917,experiment,98,↑,right,→,0.9318307999637909,False,29,1
161M19S1,918,experiment,99,↓,down,↓,0.8133087000460364,True,29,1
161M19S1,919,experiment,89,↑,up,↑,0.6306831000256352,True,29,1
161M19S1,920,experiment,108,↓,down,↓,0.6890505999908783,True,29,1
161M19S1,921,experiment,95,←,left,←,0.5094611999811605,True,29,1
161M19S1,922,experiment,59,↑,up,↑,1.317024299991317,True,29,1
161M19S1,923,training,99,→,right,→,0.5267502999631688,True,29,0
161M19S1,924,training,96,←,left,←,0.5215004999772646,True,29,1
161M19S1,925,experiment,87,↑,left,←,0.8312355999951251,False,29,1
161M19S1,926,experiment,60,↓,down,↓,0.6815376000013202,True,29,1
161M19S1,927,experiment,94,→,right,→,0.6706725999829359,True,29,1
161M19S1,928,experiment,65,←,left,←,0.6459507999825291,True,29,1
161M19S1,929,experiment,90,→,right,→,0.6618166000116616,True,29,1
161M19S1,930,experiment,99,→,right,→,0.6660593000124209,True,29,1
161M19S1,931,experiment,102,→,right,→,0.4770729999872856,True,29,1
161M19S1,932,experiment,103,←,left,←,1.0154304000316188,True,29,1
161M19S1,933,experiment,105,←,left,←,0.6595379000063986,True,29,1
161M19S1,934,experiment,74,→,right,→,0.6961356000392698,True,29,1
161M19S1,935,experiment,67,↑,up,↑,0.685510300041642,True,29,1
161M19S1,936,experiment,66,→,right,→,0.6839168000151403,True,29,1
161M19S1,937,experiment,96,→,right,→,0.5042816000059247,True,29,1
161M19S1,938,experiment,82,↑,up,↑,0.8563220000360161,True,29,1
161M19S1,939,experiment,88,→,right,→,0.6084168000379577,True,29,1
161M19S1,940,experiment,104,↑,right,→,0.9410733000258915,False,29,1
161M19S1,941,experiment,68,↑,up,↑,0.6086413000011817,True,29,1
161M19S1,942,experiment,107,↑,up,↑,0.5560513000236824,True,29,1
161M19S1,943,experiment,76,←,left,←,0.5480899000540376,True,29,1
161M19S1,944,experiment,55,→,right,→,0.6035459999693558,True,29,1
161M19S1,945,experiment,61,↓,down,↓,0.8070928999804892,True,29,1
161M19S1,946,experiment,89,←,left,←,0.5046753999777138,True,29,1
161M19S1,947,experiment,63,→,right,→,0.47906079998938367,True,29,1
161M19S1,948,experiment,48,←,left,←,0.9479328999877907,True,29,1
161M19S1,949,experiment,49,↑,up,↑,0.6612990000285208,True,29,1
161M19S1,950,experiment,100,↓,down,↓,0.5459708999842405,True,29,1
161M19S1,951,experiment,72,←,left,←,0.6833782000467181,True,29,1
161M19S1,952,experiment,64,→,right,→,0.5944291000487283,True,29,1
161M19S1,953,experiment,85,↓,down,↓,0.6222412000061013,True,29,1
161M19S1,954,experiment,86,←,left,←,0.44818730000406504,True,29,1
161M19S1,955,experiment,73,→,right,→,0.7576445000013337,True,29,1
161M19S1,956,experiment,57,→,right,→,0.5320084000122733,True,29,1
161M19S1,957,experiment,52,←,left,←,0.6850562000181526,True,29,1
161M19S1,958,experiment,80,↓,down,↓,0.46278300002450123,True,29,1
161M19S1,959,experiment,70,→,right,→,0.5805608000373468,True,29,1
161M19S1,960,experiment,106,→,right,→,0.6177364999894053,True,29,1
161M19S1,961,experiment,75,↑,up,↑,0.6480650000157766,True,29,1
161M19S1,962,experiment,56,↑,up,↑,0.6427699000341818,True,29,1
161M19S1,963,experiment,62,↓,down,↓,0.6128757999977097,True,29,1
161M19S1,964,experiment,84,←,left,←,0.5756378999794833,True,29,1
161M19S1,965,experiment,95,↓,down,↓,0.5925742000108585,True,29,1
161M19S1,966,experiment,79,→,right,→,0.65425740001956,True,29,1
161M19S1,967,experiment,51,↓,down,↓,0.4668009000015445,True,29,1
161M19S1,968,experiment,97,↑,up,↑,0.7595963999629021,True,29,1
161M19S1,969,experiment,92,↑,up,↑,0.7621997999958694,True,29,1
161M19S1,970,experiment,69,←,right,→,0.6845849999808706,False,29,1
161M19S1,971,experiment,101,↓,down,↓,0.5831605999846943,True,29,1
161M19S1,972,experiment,91,→,right,→,0.6012063999660313,True,29,1
161M19S1,973,experiment,58,↑,up,↑,0.6779269999824464,True,29,1
161M19S1,974,experiment,108,→,right,→,0.6142982000019401,True,29,1
161M19S1,975,experiment,59,←,left,←,0.6097297000233084,True,29,1
161M19S1,976,experiment,81,↓,down,↓,0.6143262999830768,True,29,1
161M19S1,977,experiment,54,↑,up,↑,0.9554155999794602,True,29,1
161M19S1,978,experiment,53,↓,down,↓,0.6909772999933921,True,29,1
161M19S1,979,experiment,50,↓,down,↓,0.7183443000540137,True,29,1
161M19S1,980,experiment,71,↑,up,↑,0.6416693000355735,True,29,1
161M19S1,981,experiment,78,←,left,←,0.6857598999631591,True,29,1
161M19S1,982,experiment,77,→,right,→,0.6085281000123359,True,29,1
161M19S1,983,experiment,83,↑,left,←,0.8121706999954768,False,29,1
161M19S1,984,experiment,93,→,right,→,0.6612317000399344,True,29,1
161M19S1,985,experiment,98,→,right,→,0.6572467999649234,True,29,1
161M19S1,986,training,96,←,left,←,0.6176529000513256,True,28,0
161M19S1,987,training,108,↓,down,↓,0.49266699998406693,True,28,1
161M19S1,988,experiment,75,←,left,←,0.6956035000039265,True,28,1
161M19S1,989,experiment,69,←,left,←,0.5488485000096262,True,28,1
161M19S1,990,experiment,92,→,right,→,0.4722601000103168,True,28,1
161M19S1,991,experiment,85,←,left,←,0.5442159000085667,True,28,1
161M19S1,992,experiment,105,↓,down,↓,0.5432971999980509,True,28,1
161M19S1,993,experiment,87,↑,up,↑,0.5005302000208758,True,28,1
161M19S1,994,experiment,72,↓,down,↓,0.5442816999857314,True,28,1
161M19S1,995,experiment,78,↓,left,←,0.800119299965445,False,28,1
161M19S1,996,experiment,62,↑,up,↑,0.7311451000277884,True,28,1
161M19S1,997,experiment,61,↓,down,↓,0.5212807999923825,True,28,1
161M19S1,998,experiment,67,→,right,→,0.4937130999751389,True,28,1
161M19S1,999,experiment,99,→,right,→,0.504679000005126,True,28,1
161M19S1,1000,experiment,88,←,left,←,0.6467742000240833,True,28,1
161M19S1,1001,experiment,50,↓,down,↓,0.6278078000177629,True,28,1
161M19S1,1002,experiment,57,↑,up,↑,0.5196912999963388,True,28,1
161M19S1,1003,experiment,55,↑,up,↑,0.5122518999851309,True,28,1
161M19S1,1004,experiment,106,↓,left,←,0.6645312000182457,False,28,1
161M19S1,1005,experiment,80,↓,down,↓,0.6588017999893054,True,28,1
161M19S1,1006,experiment,94,→,right,→,0.4809755000169389,True,28,1
161M19S1,1007,experiment,76,←,left,←,0.5957644000300206,True,28,1
161M19S1,1008,experiment,73,↑,down,↓,0.867354299989529,False,28,1
161M19S1,1009,experiment,53,↓,down,↓,0.6068716999725439,True,28,1
161M19S1,1010,experiment,54,↑,up,↑,0.5000713000190444,True,28,1
161M19S1,1011,experiment,108,↓,down,↓,0.827821800019592,True,28,1
161M19S1,1012,experiment,66,↓,down,↓,0.7407233999692835,True,28,1
161M19S1,1013,experiment,77,↓,left,←,0.6848795000114478,False,28,1
161M19S1,1014,experiment,70,↑,up,↑,0.5700221000006422,True,28,1
161M19S1,1015,experiment,52,→,right,→,0.4657720000250265,True,28,1
161M19S1,1016,experiment,49,↑,up,↑,0.6864621000131592,True,28,1
161M19S1,1017,experiment,82,→,right,→,0.9995114000048488,True,28,1
161M19S1,1018,experiment,107,↑,up,↑,0.6274438999826089,True,28,1
161M19S1,1019,experiment,96,↑,up,↑,0.6981651000096463,True,28,1
161M19S1,1020,experiment,63,↑,right,→,1.4808523000101559,False,28,1
161M19S1,1021,experiment,93,↑,up,↑,0.5821245999541134,True,28,1
161M19S1,1022,experiment,58,↓,down,↓,0.6832055999548174,True,28,1
161M19S1,1023,experiment,100,→,right,→,0.6622441999497823,True,28,1
161M19S1,1024,experiment,51,↑,up,↑,0.5227121000061743,True,28,1
161M19S1,1025,experiment,104,↑,up,↑,0.6426874999888241,True,28,1
161M19S1,1026,experiment,90,←,left,←,0.5708150999853387,True,28,1
161M19S1,1027,experiment,68,←,left,←,0.7090494000003673,True,28,1
161M19S1,1028,experiment,98,↓,down,↓,0.5277748000225984,True,28,1
161M19S1,1029,experiment,74,↓,down,↓,0.8019223000155762,True,28,1
161M19S1,1030,experiment,79,↑,up,↑,0.5194332000100985,True,28,1
161M19S1,1031,experiment,83,↓,left,←,0.8786625000066124,False,28,1
161M19S1,1032,experiment,91,→,right,→,0.5249792999820784,True,28,1
161M19S1,1033,experiment,84,←,left,←,0.5556454000179656,True,28,1
161M19S1,1034,experiment,102,↑,up,↑,0.7233497999841347,True,28,1
161M19S1,1035,experiment,97,→,right,→,0.5818748999736272,True,28,1
161M19S1,1036,experiment,71,↑,up,↑,0.510173799993936,True,28,1
161M19S1,1037,experiment,56,↑,up,↑,0.5350123000098392,True,28,1
161M19S1,1038,experiment,64,←,left,←,0.42805050004972145,True,28,1
161M19S1,1039,experiment,65,↓,down,↓,0.5408435999997891,True,28,1
161M19S1,1040,experiment,81,↑,up,↑,0.45187900000019,True,28,1
161M19S1,1041,experiment,101,↑,up,↑,0.5359221000107937,True,28,1
161M19S1,1042,experiment,103,↑,up,↑,0.49594019999494776,True,28,1
161M19S1,1043,experiment,95,→,left,←,0.900158200005535,False,28,1
161M19S1,1044,experiment,59,↓,down,↓,0.788029599993024,True,28,1
161M19S1,1045,experiment,89,↑,up,↑,0.9508342000190169,True,28,1
161M19S1,1046,experiment,48,↑,left,←,0.9603971000178717,False,28,1
161M19S1,1047,experiment,86,→,right,→,0.6927424999885261,True,28,1
161M19S1,1048,experiment,60,↓,right,→,0.6774613999878056,False,28,1
161M19S1,1049,training,89,↓,down,↓,0.6464627000386827,True,28,0
161M19S1,1050,training,58,↓,down,↓,0.4891497000353411,True,28,1
161M19S1,1051,experiment,93,↓,down,↓,0.5182616999954917,True,28,1
161M19S1,1052,experiment,73,←,left,←,0.5129754000226967,True,28,1
161M19S1,1053,experiment,59,→,right,→,0.49637270002858713,True,28,1
161M19S1,1054,experiment,69,→,right,→,0.4375524999923073,True,28,1
161M19S1,1055,experiment,96,→,right,→,0.4519828999764286,True,28,1
161M19S1,1056,experiment,98,↑,down,↓,0.6891089000273496,False,28,1
161M19S1,1057,experiment,100,→,right,→,0.4436408000183292,True,28,1
161M19S1,1058,experiment,104,↓,left,←,1.1029735999763943,False,28,1
161M19S1,1059,experiment,71,←,left,←,0.8029237000155263,True,28,1
161M19S1,1060,experiment,52,←,left,←,0.8014770000008866,True,28,1
161M19S1,1061,experiment,48,↑,up,↑,0.5451290000346489,True,28,1
161M19S1,1062,experiment,77,↓,right,→,0.8335368999978527,False,28,1
161M19S1,1063,experiment,60,↓,left,←,0.8918346000136808,False,28,1
161M19S1,1064,experiment,56,↓,down,↓,0.5412841999786906,True,28,1
161M19S1,1065,experiment,105,↑,right,→,0.8123920999933034,False,28,1
161M19S1,1066,experiment,54,↓,left,←,0.7533693999866955,False,28,1
161M19S1,1067,experiment,99,↑,up,↑,0.5300847999751568,True,28,1
161M19S1,1068,experiment,106,↓,down,↓,0.43316100002266467,True,28,1
161M19S1,1069,experiment,68,↑,up,↑,0.4568895000265911,True,28,1
161M19S1,1070,experiment,103,↓,left,←,0.7078018999891356,False,28,1
161M19S1,1071,experiment,80,→,left,←,0.7086637000320479,False,28,1
161M19S1,1072,experiment,95,→,right,→,0.8483852000208572,True,28,1
161M19S1,1073,experiment,85,←,left,←,0.5940500000142492,True,28,1
161M19S1,1074,experiment,65,↓,right,→,0.9880471999640577,False,28,1
161M19S1,1075,experiment,102,→,right,→,0.6661807999480516,True,28,1
161M19S1,1076,experiment,74,↑,up,↑,0.49445439997361973,True,28,1
161M19S1,1077,experiment,81,←,left,←,0.7834406000329182,True,28,1
161M19S1,1078,experiment,58,←,left,←,1.1725274000200443,True,28,1
161M19S1,1079,experiment,101,↓,right,→,1.1474333999794908,False,28,1
161M19S1,1080,experiment,79,↑,right,→,0.7708948000217788,False,28,1
161M19S1,1081,experiment,87,→,right,→,0.646641900006216,True,28,1
161M19S1,1082,experiment,94,↓,left,←,0.9808961999951862,False,28,1
161M19S1,1083,experiment,50,←,left,←,1.5165267999982461,True,28,1
161M19S1,1084,experiment,76,↓,down,↓,0.5501624000025913,True,28,1
161M19S1,1085,experiment,108,←,left,←,0.7078170999884605,True,28,1
161M19S1,1086,experiment,91,↓,right,→,1.2649001000099815,False,28,1
161M19S1,1087,experiment,88,←,left,←,0.6724963000160642,True,28,1
161M19S1,1088,experiment,82,↑,down,↓,1.3057641999912448,False,28,1
161M19S1,1089,experiment,62,←,left,←,0.6407429000246339,True,28,1
161M19S1,1090,experiment,53,←,left,←,0.8053340999758802,True,28,1
161M19S1,1091,experiment,78,↓,down,↓,1.0422748000128195,True,28,1
161M19S1,1092,experiment,89,→,right,→,0.818822100001853,True,28,1
161M19S1,1093,experiment,70,↑,up,↑,0.5542735999915749,True,28,1
161M19S1,1094,experiment,63,←,left,←,0.4227848000009544,True,28,1
161M19S1,1095,experiment,49,↑,up,↑,0.5091839999658987,True,28,1
161M19S1,1096,experiment,90,↓,left,←,1.0026098000234924,False,28,1
161M19S1,1097,experiment,51,→,right,→,0.6252198999864049,True,28,1
161M19S1,1098,experiment,83,→,right,→,0.4923741000238806,True,28,1
161M19S1,1099,experiment,75,↑,left,←,0.7834932999685407,False,28,1
161M19S1,1100,experiment,57,→,left,←,0.9807956999866292,False,28,1
161M19S1,1101,experiment,107,↓,down,↓,0.5774357999907807,True,28,1
161M19S1,1102,experiment,97,→,left,←,1.289735300000757,False,28,1
161M19S1,1103,experiment,66,↓,down,↓,0.5678375999559648,True,28,1
161M19S1,1104,experiment,72,↓,down,↓,0.49681619997136295,True,28,1
161M19S1,1105,experiment,84,→,right,→,0.4727623999933712,True,28,1
161M19S1,1106,experiment,92,↓,down,↓,0.470606199989561,True,28,1
161M19S1,1107,experiment,86,↑,down,↓,0.8466803999617696,False,28,1
161M19S1,1108,experiment,55,→,right,→,0.5940509000211023,True,28,1
161M19S1,1109,experiment,67,←,left,←,0.6998831999953836,True,28,1
161M19S1,1110,experiment,61,←,right,→,1.5631686000269838,False,28,1
161M19S1,1111,experiment,64,←,left,←,0.7032451000413857,True,28,1
161M19S1,1112,training,105,↑,left,←,0.8991997999837622,False,28,0
161M19S1,1113,training,51,↓,down,↓,0.6618145999964327,True,28,1
161M19S1,1114,experiment,55,↑,right,→,0.8568720000330359,False,28,1
161M19S1,1115,experiment,50,←,left,←,0.7496802000096068,True,28,1
161M19S1,1116,experiment,91,←,left,←,0.5129200000083074,True,28,1
161M19S1,1117,experiment,81,→,left,←,0.7529658999992535,False,28,1
161M19S1,1118,experiment,57,←,left,←,0.7917323000147007,True,28,1
161M19S1,1119,experiment,101,↑,up,↑,0.7183135999948718,True,28,1
161M19S1,1120,experiment,62,→,right,→,0.756477500020992,True,28,1
161M19S1,1121,experiment,65,↓,down,↓,0.7682024000096135,True,28,1
161M19S1,1122,experiment,61,↑,up,↑,0.5009082999895327,True,28,1
161M19S1,1123,experiment,79,↓,down,↓,0.5024004000006244,True,28,1
161M19S1,1124,experiment,89,↓,down,↓,0.44460059999255463,True,28,1
161M19S1,1125,experiment,68,→,right,→,0.404405300039798,True,28,1
161M19S1,1126,experiment,86,↑,up,↑,1.4626337999943644,True,28,1
161M19S1,1127,experiment,97,↓,down,↓,0.6594042999786325,True,28,1
161M19S1,1128,experiment,104,↓,down,↓,0.4859071000246331,True,28,1
161M19S1,1129,experiment,69,↓,down,↓,0.47530180000467226,True,28,1
161M19S1,1130,experiment,87,↓,down,↓,0.8110100000048988,True,28,1
161M19S1,1131,experiment,53,↓,down,↓,0.5526831999886781,True,28,1
161M19S1,1132,experiment,52,←,left,←,0.9132028000312857,True,28,1
161M19S1,1133,experiment,64,↓,left,←,1.0308173999655992,False,28,1
161M19S1,1134,experiment,59,←,left,←,0.49757740000495687,True,28,1
161M19S1,1135,experiment,83,↓,down,↓,0.665738700015936,True,28,1
161M19S1,1136,experiment,99,→,right,→,0.9735045999987051,True,28,1
161M19S1,1137,experiment,92,←,left,←,0.6395701000001281,True,28,1
161M19S1,1138,experiment,103,↓,down,↓,0.5233260999666527,True,28,1
161M19S1,1139,experiment,82,→,right,→,0.8350333999842405,True,28,1
161M19S1,1140,experiment,71,↑,up,↑,0.553272899996955,True,28,1
161M19S1,1141,experiment,108,→,right,→,0.5511497000115924,True,28,1
161M19S1,1142,experiment,70,↑,up,↑,0.4414194000419229,True,28,1
161M19S1,1143,experiment,51,→,right,→,0.7346008000313304,True,28,1
161M19S1,1144,experiment,63,↑,up,↑,0.4759753000107594,True,28,1
161M19S1,1145,experiment,106,↑,up,↑,0.7254454000503756,True,28,1
161M19S1,1146,experiment,85,→,right,→,0.5636815999750979,True,28,1
161M19S1,1147,experiment,105,→,right,→,1.0897937000263482,True,28,1
161M19S1,1148,experiment,84,←,left,←,1.049713900021743,True,28,1
161M19S1,1149,experiment,56,←,left,←,0.652880500012543,True,28,1
161M19S1,1150,experiment,102,←,left,←,1.2645999999949709,True,28,1
161M19S1,1151,experiment,75,←,left,←,0.7645329000079073,True,28,1
161M19S1,1152,experiment,88,←,left,←,0.9361647000187077,True,28,1
161M19S1,1153,experiment,95,←,left,←,0.6990291000111029,True,28,1
161M19S1,1154,experiment,58,↓,down,↓,0.5551265000249259,True,28,1
161M19S1,1155,experiment,60,↑,down,↓,0.840663900016807,False,28,1
161M19S1,1156,experiment,66,←,left,←,0.5365740999695845,True,28,1
161M19S1,1157,experiment,78,←,left,←,0.4170503999921493,True,28,1
161M19S1,1158,experiment,77,↓,right,→,0.6384572999668308,False,28,1
161M19S1,1159,experiment,72,←,left,←,0.5165818000095896,True,28,1
161M19S1,1160,experiment,93,↓,down,↓,0.7285440000123344,True,28,1
161M19S1,1161,experiment,76,↑,up,↑,0.5939041000092402,True,28,1
161M19S1,1162,experiment,80,←,left,←,0.5756917999824509,True,28,1
161M19S1,1163,experiment,49,←,left,←,0.6158190999994986,True,28,1
161M19S1,1164,experiment,54,↑,up,↑,0.5808288999833167,True,28,1
161M19S1,1165,experiment,74,↑,up,↑,0.7725690000224859,True,28,1
161M19S1,1166,experiment,94,↓,down,↓,0.5661921999999322,True,28,1
161M19S1,1167,experiment,90,→,right,→,0.5851400999817997,True,28,1
161M19S1,1168,experiment,98,→,right,→,0.6886649999651127,True,28,1
161M19S1,1169,experiment,48,←,left,←,0.4527329999837093,True,28,1
161M19S1,1170,experiment,67,→,right,→,0.5322088999673724,True,28,1
161M19S1,1171,experiment,107,↑,up,↑,0.6348645999678411,True,28,1
161M19S1,1172,experiment,100,←,left,←,0.5918431999743916,True,28,1
161M19S1,1173,experiment,96,←,left,←,0.4719303000019863,True,28,1
161M19S1,1174,experiment,73,↓,down,↓,0.5884045999846421,True,28,1
161M19S1,1175,training,85,→,right,→,0.608995899965521,True,28,0
161M19S1,1176,training,101,→,right,→,0.43061799998395145,True,28,1
161M19S1,1177,experiment,73,↑,up,↑,0.4766783000086434,True,28,1
161M19S1,1178,experiment,99,↑,up,↑,0.7125147000188008,True,28,1
161M19S1,1179,experiment,88,↓,down,↓,0.5184852000093088,True,28,1
161M19S1,1180,experiment,106,←,left,←,0.406907600001432,True,28,1
161M19S1,1181,experiment,64,←,left,←,0.7922453000210226,True,28,0
161M19S1,1182,experiment,66,↓,down,↓,0.4742423999705352,True,28,1
161M19S1,1183,experiment,56,←,left,←,0.5402198000228964,True,28,1
161M19S1,1184,experiment,93,↑,up,↑,0.7194479000172578,True,28,1
161M19S1,1185,experiment,54,↑,up,↑,0.7844693000079133,True,28,1
161M19S1,1186,experiment,101,→,right,→,0.6791779000195675,True,28,1
161M19S1,1187,experiment,105,↓,down,↓,0.7528485000366345,True,28,1
161M19S1,1188,experiment,50,←,left,←,0.7699049999937415,True,28,1
161M19S1,1189,experiment,85,↓,down,↓,0.5027423999854364,True,28,1
161M19S1,1190,experiment,57,↓,down,↓,0.7353638999629766,True,28,1
161M19S1,1191,experiment,48,←,down,↓,1.8257969999685884,False,28,1
161M19S1,1192,experiment,86,↑,down,↓,0.6837467000004835,False,28,1
161M19S1,1193,experiment,70,←,left,←,0.7128602000302635,True,28,1
161M19S1,1194,experiment,90,↓,down,↓,0.6456494000158273,True,28,1
161M19S1,1195,experiment,62,→,right,→,0.8791604000143707,True,28,1
161M19S1,1196,experiment,87,↑,up,↑,0.8161397000076249,True,28,1
161M19S1,1197,experiment,76,←,left,←,0.5165382000268437,True,28,1
161M19S1,1198,experiment,55,↑,up,↑,0.5092156000318937,True,28,1
161M19S1,1199,experiment,83,→,left,←,0.8049871000112034,False,28,1
161M19S1,1200,experiment,98,→,right,→,0.6997847000020556,True,28,1
161M19S1,1201,experiment,79,↓,up,↑,0.7411241999943741,False,28,1
161M19S1,1202,experiment,49,←,left,←,0.44733009999617934,True,28,1
161M19S1,1203,experiment,61,→,right,→,0.6322242000023834,True,28,1
161M19S1,1204,experiment,72,←,left,←,1.214590399991721,True,28,1
161M19S1,1205,experiment,63,←,right,→,0.672626500017941,False,28,1
161M19S1,1206,experiment,96,↑,up,↑,0.6375958000426181,True,28,1
161M19S1,1207,experiment,91,←,left,←,0.8931769999908283,True,28,1
161M19S1,1208,experiment,97,↓,down,↓,0.5927174999960698,True,28,1
161M19S1,1209,experiment,95,↑,up,↑,0.5771516000386328,True,28,1
161M19S1,1210,experiment,94,↓,down,↓,0.5544672999531031,True,28,1
161M19S1,1211,experiment,69,←,left,←,0.5967961000278592,True,28,1
161M19S1,1212,experiment,102,↓,down,↓,0.5145164999994449,True,28,1
161M19S1,1213,experiment,78,↓,left,←,0.8599766999832354,False,28,1
161M19S1,1214,experiment,80,→,right,→,0.48626890004379675,True,28,1
161M19S1,1215,experiment,89,←,left,←,0.7810472000273876,True,28,1
161M19S1,1216,experiment,51,↓,down,↓,0.6284174000029452,True,28,1
161M19S1,1217,experiment,103,↓,left,←,0.7128613000386395,False,28,1
161M19S1,1218,experiment,53,→,right,→,0.6261802000226453,True,28,1
161M19S1,1219,experiment,81,↓,down,↓,0.5418353999848478,True,28,1
161M19S1,1220,experiment,82,↑,up,↑,0.5808972999802791,True,28,1
161M19S1,1221,experiment,92,←,left,←,0.6463011000305414,True,28,1
161M19S1,1222,experiment,77,↑,up,↑,0.8428816000232473,True,28,1
161M19S1,1223,experiment,68,→,right,→,0.5217475999961607,True,28,1
161M19S1,1224,experiment,59,↑,left,←,0.8248370999936014,False,28,1
161M19S1,1225,experiment,65,←,left,←,0.6339007999631576,True,28,1
161M19S1,1226,experiment,108,↓,down,↓,0.6841423999867402,True,28,1
161M19S1,1227,experiment,75,↓,down,↓,0.6076024000067264,True,28,1
161M19S1,1228,experiment,107,→,right,→,0.627351799979806,True,28,1
161M19S1,1229,experiment,60,↑,up,↑,0.7740253999945708,True,28,1
161M19S1,1230,experiment,100,→,right,→,0.5334498999873176,True,28,1
161M19S1,1231,experiment,67,↑,up,↑,0.7055328999995254,True,28,1
161M19S1,1232,experiment,58,←,left,←,0.6816019000252709,True,28,1
161M19S1,1233,experiment,74,↑,up,↑,0.7095877000247128,True,28,1
161M19S1,1234,experiment,84,↓,down,↓,0.6130603000055999,True,28,1
161M19S1,1235,experiment,71,←,left,←,0.6520158000057563,True,28,1
161M19S1,1236,experiment,104,←,left,←,0.6073543999809772,True,28,1
161M19S1,1237,experiment,52,↓,down,↓,0.5891838000388816,True,28,1
161M19S1,1238,training,78,←,left,←,0.7269319999613799,True,28,0
161M19S1,1239,training,74,←,left,←,0.4650468000327237,True,28,1
161M19S1,1240,experiment,106,↑,up,↑,0.7225823999615386,True,28,1
161M19S1,1241,experiment,101,←,left,←,0.5076721999794245,True,28,1
161M19S1,1242,experiment,102,↑,up,↑,0.6531268999679014,True,28,1
161M19S1,1243,experiment,83,←,left,←,0.4550054999999702,True,28,1
161M19S1,1244,experiment,51,→,right,→,0.7474767999956384,True,28,1
161M19S1,1245,experiment,93,→,left,←,0.7342101999674924,False,28,1
161M19S1,1246,experiment,63,↑,up,↑,0.755779099999927,True,28,1
161M19S1,1247,experiment,78,↓,up,↑,1.8269790000049397,False,28,1
161M19S1,1248,experiment,50,↑,right,→,0.8408848000108264,False,28,1
161M19S1,1249,experiment,52,→,left,←,0.7894486999721266,False,28,1
161M19S1,1250,experiment,74,↓,down,↓,0.7489723000326194,True,28,1
161M19S1,1251,experiment,69,↑,up,↑,0.6476453000213951,True,28,1
161M19S1,1252,experiment,67,↑,up,↑,0.5029917000210844,True,28,1
161M19S1,1253,experiment,66,←,left,←,0.5807713000103831,True,28,1
161M19S1,1254,experiment,82,↑,up,↑,0.617874399991706,True,28,1
161M19S1,1255,experiment,73,←,left,←,0.8165352999931201,True,28,1
161M19S1,1256,experiment,71,↓,down,↓,0.5999482999905013,True,28,1
161M19S1,1257,experiment,94,→,right,→,0.5042393000330776,True,28,1
161M19S1,1258,experiment,96,↓,down,↓,0.6757217000122182,True,28,1
161M19S1,1259,experiment,97,↓,down,↓,0.7280905999941751,True,28,1
161M19S1,1260,experiment,76,→,right,→,0.4335635000024922,True,28,1
161M19S1,1261,experiment,90,↓,down,↓,0.681859300006181,True,28,1
161M19S1,1262,experiment,81,→,right,→,0.6753135999897495,True,28,1
161M19S1,1263,experiment,62,↓,down,↓,0.4912713000085205,True,28,1
161M19S1,1264,experiment,57,←,left,←,0.5723998000030406,True,28,1
161M19S1,1265,experiment,65,→,right,→,0.47944560000905767,True,28,1
161M19S1,1266,experiment,99,→,right,→,0.6994034000090323,True,28,1
161M19S1,1267,experiment,86,→,right,→,0.7381736999959685,True,28,1
161M19S1,1268,experiment,58,↓,down,↓,0.5769009999930859,True,28,1
161M19S1,1269,experiment,91,←,right,→,0.8833153999876231,False,28,1
161M19S1,1270,experiment,84,↑,up,↑,0.4916988000040874,True,28,1
161M19S1,1271,experiment,60,↑,up,↑,0.5245029999641702,True,28,1
161M19S1,1272,experiment,88,↑,up,↑,0.47325200005434453,True,28,1
161M19S1,1273,experiment,89,←,right,→,0.7521413000067696,False,28,1
161M19S1,1274,experiment,49,→,right,→,0.833587700035423,True,28,1
161M19S1,1275,experiment,54,←,right,→,0.7660252999630757,False,28,1
161M19S1,1276,experiment,53,↓,down,↓,0.46138549997704104,True,28,1
161M19S1,1277,experiment,107,←,left,←,0.479015699995216,True,28,1
161M19S1,1278,experiment,85,↑,up,↑,0.5515751999919303,True,28,1
161M19S1,1279,experiment,56,↓,right,→,1.1586258999886923,False,28,1
161M19S1,1280,experiment,64,←,left,←,0.7786506999982521,True,28,1
161M19S1,1281,experiment,70,↑,left,←,0.8279603000264615,False,28,1
161M19S1,1282,experiment,100,←,right,→,0.8254989000270143,False,28,1
161M19S1,1283,experiment,103,←,left,←,0.5498386999825016,True,28,1
161M19S1,1284,experiment,75,→,right,→,0.6863713000202551,True,28,1
161M19S1,1285,experiment,59,↓,down,↓,0.6231284000095911,True,28,1
161M19S1,1286,experiment,80,↑,up,↑,0.70730090001598,True,28,1
161M19S1,1287,experiment,61,↓,down,↓,0.5702174999751151,True,28,1
161M19S1,1288,experiment,95,←,left,←,0.45163049997063354,True,28,1
161M19S1,1289,experiment,92,↑,up,↑,0.4907905999571085,True,28,1
161M19S1,1290,experiment,55,←,left,←,0.668610799999442,True,28,1
161M19S1,1291,experiment,104,↓,down,↓,0.6551380000310019,True,28,1
161M19S1,1292,experiment,108,←,left,←,0.5762079000123776,True,28,1
161M19S1,1293,experiment,77,←,left,←,0.6314677000045776,True,28,1
161M19S1,1294,experiment,79,↓,up,↑,0.7552690000156872,False,28,1
161M19S1,1295,experiment,72,↓,down,↓,0.5885741999954917,True,28,1
161M19S1,1296,experiment,87,→,left,←,0.6637541999807581,False,28,1
161M19S1,1297,experiment,105,→,right,→,0.6256675000186078,True,28,1
161M19S1,1298,experiment,68,↑,up,↑,0.6737557000014931,True,28,1
161M19S1,1299,experiment,98,↓,down,↓,0.565851500025019,True,28,1
161M19S1,1300,experiment,48,↑,up,↑,0.5831993999890983,True,28,1
161M19S1,1301,training,50,←,up,↑,1.5183106000185944,False,28,0
161M19S1,1302,training,84,→,right,→,0.6287923000054434,True,28,1
161M19S1,1303,experiment,92,↓,down,↓,0.5805905999732204,True,28,1
161M19S1,1304,experiment,82,↑,up,↑,0.5295806000358425,True,28,1
161M19S1,1305,experiment,98,→,up,↑,0.7152216000249609,False,28,1
161M19S1,1306,experiment,101,↓,down,↓,0.7006492000073195,True,28,1
161M19S1,1307,experiment,48,←,left,←,0.4647194999852218,True,28,1
161M19S1,1308,experiment,85,→,right,→,0.5851454000221565,True,28,1
161M19S1,1309,experiment,77,↑,up,↑,0.5679112000507303,True,28,1
161M19S1,1310,experiment,58,↓,down,↓,0.6938828999991529,True,28,1
161M19S1,1311,experiment,84,→,right,→,0.5176491999882273,True,28,1
161M19S1,1312,experiment,90,←,left,←,0.5067482000449672,True,28,1
161M19S1,1313,experiment,75,↓,down,↓,0.48511720000533387,True,28,1
161M19S1,1314,experiment,89,→,right,→,0.6679941000184044,True,28,1
161M19S1,1315,experiment,66,←,left,←,1.027245299948845,True,28,1
161M19S1,1316,experiment,81,→,right,→,0.7026046999963,True,28,1
161M19S1,1317,experiment,63,↑,up,↑,0.5893021000083536,True,28,1
161M19S1,1318,experiment,83,←,left,←,0.6338137999991886,True,28,1
161M19S1,1319,experiment,49,←,left,←,0.5518889999948442,True,28,1
161M19S1,1320,experiment,56,←,left,←,0.5911490999860689,True,28,1
161M19S1,1321,experiment,51,→,right,→,0.6300101999659091,True,28,1
161M19S1,1322,experiment,60,↑,up,↑,0.7924498000065796,True,28,1
161M19S1,1323,experiment,107,→,right,→,0.6448653999832459,True,28,1
161M19S1,1324,experiment,96,↑,up,↑,0.4991958999889903,True,28,1
161M19S1,1325,experiment,86,←,left,←,0.6500468000303954,True,28,1
161M19S1,1326,experiment,53,↑,up,↑,0.5179663999588229,True,28,1
161M19S1,1327,experiment,57,↑,up,↑,0.6059957999968901,True,28,1
161M19S1,1328,experiment,102,↓,down,↓,0.5313713999930769,True,28,1
161M19S1,1329,experiment,76,→,right,→,0.6764032000210136,True,28,1
161M19S1,1330,experiment,87,←,left,←,0.8123086999985389,True,28,1
161M19S1,1331,experiment,88,→,right,→,0.8701498999726027,True,28,1
161M19S1,1332,experiment,105,↑,left,←,0.920157799962908,False,28,1
161M19S1,1333,experiment,74,↓,down,↓,0.8984888000413775,True,28,1
161M19S1,1334,experiment,73,↑,up,↑,0.5578336999751627,True,28,1
161M19S1,1335,experiment,80,↓,up,↑,0.7565726999891922,False,28,1
161M19S1,1336,experiment,72,←,left,←,0.5899360000039451,True,28,1
161M19S1,1337,experiment,99,↑,up,↑,0.741000099980738,True,28,1
161M19S1,1338,experiment,106,↓,down,↓,0.8357730000279844,True,28,1
161M19S1,1339,experiment,100,↑,up,↑,0.5605477999779396,True,28,1
161M19S1,1340,experiment,103,←,left,←,0.7117100000032224,True,28,1
161M19S1,1341,experiment,104,→,right,→,0.5203487999970093,True,28,1
161M19S1,1342,experiment,93,↓,down,↓,0.6523944000364281,True,28,1
161M19S1,1343,experiment,59,↑,down,↓,0.6864599999971688,False,28,1
161M19S1,1344,experiment,69,←,left,←,0.5638638000236824,True,28,1
161M19S1,1345,experiment,95,↑,up,↑,0.597216899972409,True,28,1
161M19S1,1346,experiment,70,←,left,←,0.493645699985791,True,28,1
161M19S1,1347,experiment,91,←,left,←,0.4196832999587059,True,28,1
161M19S1,1348,experiment,68,←,left,←,0.4758919000159949,True,28,1
161M19S1,1349,experiment,79,→,right,→,0.6542192999622785,True,28,1
161M19S1,1350,experiment,67,↓,down,↓,0.44527070003096014,True,28,1
161M19S1,1351,experiment,97,↓,down,↓,0.4830913000041619,True,28,1
161M19S1,1352,experiment,78,←,left,←,0.6694018999696709,True,28,1
161M19S1,1353,experiment,50,←,left,←,0.5938664000132121,True,28,1
161M19S1,1354,experiment,108,→,right,→,0.5738493999815546,True,28,1
161M19S1,1355,experiment,94,←,right,→,0.5353478000033647,False,28,1
161M19S1,1356,experiment,62,→,right,→,0.5729476999840699,True,28,1
161M19S1,1357,experiment,61,↑,left,←,1.3856466000434011,False,28,1
161M19S1,1358,experiment,52,↓,down,↓,0.5364387999870814,True,28,1
161M19S1,1359,experiment,71,↑,down,↓,0.7391282000462525,False,28,1
161M19S1,1360,experiment,65,↓,down,↓,0.5196112000267021,True,28,1
161M19S1,1361,experiment,54,→,right,→,1.0726465999614447,True,28,1
161M19S1,1362,experiment,55,↑,up,↑,1.330964100023266,True,28,1
161M19S1,1363,experiment,64,↑,right,→,0.7999181000050157,False,28,1
