PART_ID,Trial_no,Trial_type,CSI,Stim_letter,Key_pressed,letter_choose,Rt,Corr,Stimulus Time,nDropped
161M19S4,1,training,120,↓,down,↓,0.7597807003185153,True,60,0
161M19S4,2,training,120,←,left,←,0.7289788001216948,True,60,0
161M19S4,3,training,120,↓,down,↓,0.5923875998705626,True,60,0
161M19S4,4,training,120,→,right,→,0.8253592001274228,True,60,0
161M19S4,5,training,120,→,right,→,1.0241457000374794,True,60,0
161M19S4,6,training,120,→,right,→,0.9415724999271333,True,60,0
161M19S4,7,training,120,↑,up,↑,0.7990390998311341,True,60,0
161M19S4,8,training,120,→,right,→,0.7902820999734104,True,60,0
161M19S4,9,training,120,↑,up,↑,1.0057168998755515,True,60,0
161M19S4,10,training,120,→,right,→,0.7805164000019431,True,60,0
161M19S4,11,training,120,←,left,←,0.9403411000967026,True,60,0
161M19S4,12,training,120,→,right,→,0.8859188999049366,True,60,0
161M19S4,13,training,120,→,right,→,0.6976006999611855,True,60,0
161M19S4,14,training,120,←,left,←,0.8047416997142136,True,60,0
161M19S4,15,training,120,↓,down,↓,0.9392269998788834,True,60,0
161M19S4,16,training,120,←,left,←,0.868813400156796,True,60,0
161M19S4,17,training,120,→,right,→,0.8808371000923216,True,60,0
161M19S4,18,training,120,→,right,→,0.812675700057298,True,60,0
161M19S4,19,training,120,→,right,→,1.035194500349462,True,60,0
161M19S4,20,training,120,←,left,←,0.7690363000147045,True,60,0
161M19S4,21,no_adaptation,120,↑,up,↑,0.6865697000175714,True,36,0
161M19S4,22,no_adaptation,120,↓,down,↓,0.7539965999312699,True,36,0
161M19S4,23,no_adaptation,120,↑,up,↑,0.7308139000087976,True,36,0
161M19S4,24,no_adaptation,120,→,right,→,0.6047643003985286,True,36,0
161M19S4,25,no_adaptation,120,↓,down,↓,0.6115381000563502,True,36,0
161M19S4,26,no_adaptation,120,→,right,→,0.6583879999816418,True,36,0
161M19S4,27,no_adaptation,120,↑,up,↑,0.6388929998502135,True,36,0
161M19S4,28,no_adaptation,120,←,left,←,0.6524449000135064,True,36,0
161M19S4,29,no_adaptation,120,↑,up,↑,0.6498475996777415,True,36,0
161M19S4,30,no_adaptation,120,→,right,→,0.6304680001921952,True,36,0
161M19S4,31,no_adaptation,120,↓,down,↓,0.5802718997001648,True,36,0
161M19S4,32,no_adaptation,120,↓,down,↓,0.668203900102526,True,36,0
161M19S4,33,no_adaptation,120,←,left,←,0.6568836001679301,True,36,0
161M19S4,34,no_adaptation,120,↓,down,↓,0.7255024001933634,True,36,0
161M19S4,35,no_adaptation,120,→,right,→,0.7279223999939859,True,36,0
161M19S4,36,no_adaptation,120,←,left,←,0.7535590999759734,True,36,0
161M19S4,37,no_adaptation,120,↓,down,↓,0.6663705999962986,True,36,0
161M19S4,38,no_adaptation,120,↓,down,↓,0.6789079001173377,True,36,0
161M19S4,39,no_adaptation,120,↑,up,↑,0.762846099678427,True,36,0
161M19S4,40,no_adaptation,120,←,left,←,0.6273373998701572,True,36,0
161M19S4,41,training,77,↑,up,↑,0.5828843996860087,True,36,0
161M19S4,42,training,75,←,left,←,0.6465624999254942,True,36,1
161M19S4,43,experiment,62,←,left,←,0.6877623000182211,True,36,1
161M19S4,44,experiment,89,→,right,→,0.6620824001729488,True,36,1
161M19S4,45,experiment,94,↑,up,↑,0.684011799748987,True,36,1
161M19S4,46,experiment,59,↑,up,↑,0.6927908998914063,True,36,1
161M19S4,47,experiment,53,→,right,→,0.6155579998157918,True,36,1
161M19S4,48,experiment,83,↓,down,↓,0.6425904999487102,True,36,1
161M19S4,49,experiment,88,←,left,←,0.5633163996972144,True,36,1
161M19S4,50,experiment,103,↑,up,↑,0.6659764996729791,True,36,1
161M19S4,51,experiment,87,↑,up,↑,0.5061290999874473,True,36,1
161M19S4,52,experiment,72,↑,up,↑,0.6215685000643134,True,36,1
161M19S4,53,experiment,61,↑,up,↑,0.5921772997826338,True,36,1
161M19S4,54,experiment,80,→,right,→,0.7095662001520395,True,36,1
161M19S4,55,experiment,90,←,left,←,0.6189954001456499,True,36,1
161M19S4,56,experiment,81,←,left,←,0.6951804999262094,True,36,1
161M19S4,57,experiment,76,↑,up,↑,0.6497655999846756,True,36,1
161M19S4,58,experiment,65,←,left,←,0.6098413998261094,True,36,1
161M19S4,59,experiment,51,↓,down,↓,0.8161285002715886,True,36,1
161M19S4,60,experiment,93,↑,up,↑,0.5762773002497852,True,36,1
161M19S4,61,experiment,63,←,left,←,0.5479925000108778,True,36,1
161M19S4,62,experiment,85,←,left,←,0.6574658998288214,True,36,1
161M19S4,63,experiment,60,↑,up,↑,0.5868416000157595,True,36,1
161M19S4,64,experiment,68,←,left,←,0.5645027002319694,True,36,1
161M19S4,65,experiment,97,↑,up,↑,0.5812274999916553,True,36,1
161M19S4,66,experiment,92,←,left,←,0.6629439000971615,True,36,1
161M19S4,67,experiment,54,→,right,→,0.6980336997658014,True,36,1
161M19S4,68,experiment,78,←,left,←,0.6517665996216238,True,36,1
161M19S4,69,experiment,48,←,left,←,0.6893790001049638,True,36,1
161M19S4,70,experiment,74,↓,down,↓,0.6128707998432219,True,36,1
161M19S4,71,experiment,96,↓,down,↓,0.660137599799782,True,36,1
161M19S4,72,experiment,82,↑,up,↑,0.7663602996617556,True,36,1
161M19S4,73,experiment,58,↓,down,↓,0.7559505002573133,True,36,1
161M19S4,74,experiment,100,↓,down,↓,0.6199435000307858,True,36,1
161M19S4,75,experiment,106,↓,down,↓,0.615557000041008,True,36,1
161M19S4,76,experiment,71,→,right,→,0.607067400123924,True,36,1
161M19S4,77,experiment,66,→,right,→,0.6405178997665644,True,36,1
161M19S4,78,experiment,55,→,right,→,0.6202055001631379,True,36,1
161M19S4,79,experiment,50,→,right,→,0.5947143002413213,True,36,1
161M19S4,80,experiment,102,↓,down,↓,0.6887261997908354,True,36,1
161M19S4,81,experiment,67,↑,up,↑,0.6784716998226941,True,36,1
161M19S4,82,experiment,75,←,left,←,0.7382632000371814,True,36,1
161M19S4,83,experiment,105,←,left,←,0.5534866000525653,True,36,1
161M19S4,84,experiment,77,←,left,←,0.6818723999895155,True,36,1
161M19S4,85,experiment,56,→,right,→,0.6752782999537885,True,36,1
161M19S4,86,experiment,99,↓,down,↓,0.5433120001107454,True,36,1
161M19S4,87,experiment,84,→,right,→,0.676978699862957,True,36,1
161M19S4,88,experiment,49,↑,up,↑,0.6574858999811113,True,36,1
161M19S4,89,experiment,57,↑,up,↑,0.627806999720633,True,36,1
161M19S4,90,experiment,70,→,right,→,0.6912756003439426,True,36,1
161M19S4,91,experiment,86,↓,down,↓,0.5786577998660505,True,36,1
161M19S4,92,experiment,104,↑,up,↑,0.688714399933815,True,36,1
161M19S4,93,experiment,73,↑,up,↑,0.5724288998171687,True,36,1
161M19S4,94,experiment,69,←,left,←,0.6147432001307607,True,36,1
161M19S4,95,experiment,91,←,left,←,0.558804000262171,True,36,1
161M19S4,96,experiment,95,↓,down,↓,0.7365135001018643,True,36,1
161M19S4,97,experiment,98,→,right,→,0.5703757000155747,True,36,1
161M19S4,98,experiment,79,↓,down,↓,0.6089647999033332,True,36,1
161M19S4,99,experiment,52,→,right,→,0.5510332002304494,True,36,1
161M19S4,100,experiment,101,↓,down,↓,0.5431113000959158,True,36,1
161M19S4,101,experiment,107,→,right,→,0.5334477997384965,True,36,1
161M19S4,102,experiment,64,↑,up,↑,0.9944362998940051,True,36,1
161M19S4,103,experiment,108,←,left,←,0.5985111999325454,True,36,1
161M19S4,104,training,102,→,right,→,0.5766167999245226,True,35,0
161M19S4,105,training,58,←,left,←,0.6059346999973059,True,35,1
161M19S4,106,experiment,62,↓,down,↓,0.6966341999359429,True,35,1
161M19S4,107,experiment,48,←,left,←,0.6284361998550594,True,35,1
161M19S4,108,experiment,92,→,right,→,0.5566396000795066,True,35,1
161M19S4,109,experiment,80,→,right,→,0.5311942999251187,True,35,1
161M19S4,110,experiment,61,←,left,←,0.6174268000759184,True,35,1
161M19S4,111,experiment,79,→,right,→,0.5980130000971258,True,35,1
161M19S4,112,experiment,63,←,left,←,0.6167684001848102,True,35,1
161M19S4,113,experiment,105,↑,up,↑,0.5890548997558653,True,35,1
161M19S4,114,experiment,97,↑,up,↑,0.5885320999659598,True,35,1
161M19S4,115,experiment,69,↓,down,↓,0.6375723001547158,True,35,1
161M19S4,116,experiment,83,←,left,←,0.568157599773258,True,35,1
161M19S4,117,experiment,93,↑,up,↑,0.5459614000283182,True,35,1
161M19S4,118,experiment,65,→,right,→,0.630048600025475,True,35,1
161M19S4,119,experiment,96,→,right,→,0.604526299983263,True,35,1
161M19S4,120,experiment,49,←,left,←,0.6675896998494864,True,35,1
161M19S4,121,experiment,57,←,left,←,0.5336114000529051,True,35,1
161M19S4,122,experiment,107,→,right,→,0.6283297999761999,True,35,1
161M19S4,123,experiment,59,↓,down,↓,0.5514080999419093,True,35,1
161M19S4,124,experiment,67,→,right,→,0.5628692000173032,True,35,1
161M19S4,125,experiment,76,↑,up,↑,0.634580799844116,True,35,1
161M19S4,126,experiment,70,↑,up,↑,0.6256399000994861,True,35,1
161M19S4,127,experiment,101,↓,down,↓,0.614659100305289,True,35,1
161M19S4,128,experiment,86,→,right,→,0.5930095999501646,True,35,1
161M19S4,129,experiment,52,←,left,←,0.6638341001234949,True,35,1
161M19S4,130,experiment,64,←,left,←,0.5755445002578199,True,35,1
161M19S4,131,experiment,54,→,right,→,0.6382510000839829,True,35,1
161M19S4,132,experiment,78,↓,down,↓,0.682430500164628,True,35,1
161M19S4,133,experiment,100,↓,down,↓,0.5812605996616185,True,35,1
161M19S4,134,experiment,55,↑,up,↑,0.6035198997706175,True,35,1
161M19S4,135,experiment,56,→,right,→,0.6405454999767244,True,35,1
161M19S4,136,experiment,72,←,left,←,0.5585427000187337,True,35,1
161M19S4,137,experiment,53,↑,up,↑,0.5583258997648954,True,35,1
161M19S4,138,experiment,98,↑,up,↑,0.5270362002775073,True,35,1
161M19S4,139,experiment,88,↑,up,↑,0.5965046999044716,True,35,1
161M19S4,140,experiment,77,↓,down,↓,0.6667872001416981,True,35,1
161M19S4,141,experiment,51,↓,down,↓,0.7665595998987556,True,35,1
161M19S4,142,experiment,89,←,left,←,0.5540006002411246,True,35,1
161M19S4,143,experiment,50,↑,up,↑,0.6672108001075685,True,35,1
161M19S4,144,experiment,84,↓,down,↓,0.7080160998739302,True,35,1
161M19S4,145,experiment,68,↑,up,↑,0.5927754999138415,True,35,1
161M19S4,146,experiment,90,↓,down,↓,0.7148241000249982,True,35,1
161M19S4,147,experiment,73,↓,down,↓,0.6137863001786172,True,35,1
161M19S4,148,experiment,60,↑,up,↑,0.6326284999959171,True,35,1
161M19S4,149,experiment,74,←,left,←,0.6064546997658908,True,35,1
161M19S4,150,experiment,71,↓,down,↓,0.6700288001447916,True,35,1
161M19S4,151,experiment,91,←,left,←,0.5247673997655511,True,35,1
161M19S4,152,experiment,81,←,left,←,0.5404966999776661,True,35,1
161M19S4,153,experiment,75,↓,down,↓,0.5095492000691593,True,35,1
161M19S4,154,experiment,66,↓,down,↓,0.5470484001561999,True,35,1
161M19S4,155,experiment,58,←,left,←,0.6014300999231637,True,35,1
161M19S4,156,experiment,82,→,right,→,0.6858071000315249,True,35,1
161M19S4,157,experiment,104,↓,down,↓,0.4876504000276327,True,35,1
161M19S4,158,experiment,87,→,right,→,0.5346017996780574,True,35,1
161M19S4,159,experiment,94,↓,down,↓,0.6576604000292718,True,35,1
161M19S4,160,experiment,95,←,left,←,0.8712182999588549,True,35,1
161M19S4,161,experiment,106,↓,down,↓,0.6167641999199986,True,35,1
161M19S4,162,experiment,103,←,left,←,0.6933457995764911,True,35,1
161M19S4,163,experiment,85,↑,up,↑,0.9410518002696335,True,35,1
161M19S4,164,experiment,102,↑,up,↑,0.6610746998339891,True,35,1
161M19S4,165,experiment,99,↑,up,↑,0.6173355998471379,True,35,1
161M19S4,166,experiment,108,←,left,←,0.5563114997930825,True,35,1
161M19S4,167,training,90,↑,up,↑,0.5320778996683657,True,34,0
161M19S4,168,training,76,↑,up,↑,0.5091777998022735,True,34,1
161M19S4,169,experiment,90,→,right,→,0.7705824999138713,True,34,1
161M19S4,170,experiment,67,←,left,←,0.5812437003478408,True,34,1
161M19S4,171,experiment,59,↑,up,↑,0.5220047999173403,True,34,1
161M19S4,172,experiment,99,←,left,←,0.5559559999965131,True,34,1
161M19S4,173,experiment,88,→,right,→,0.6158100999891758,True,34,1
161M19S4,174,experiment,52,↑,up,↑,0.5335460999049246,True,34,1
161M19S4,175,experiment,84,↓,down,↓,0.5641171000897884,True,34,1
161M19S4,176,experiment,93,↓,down,↓,0.5580103998072445,True,34,1
161M19S4,177,experiment,69,↓,down,↓,0.5286003998480737,True,34,1
161M19S4,178,experiment,103,↓,down,↓,0.7207451001740992,True,34,1
161M19S4,179,experiment,55,→,right,→,0.6572019001469016,True,34,1
161M19S4,180,experiment,108,→,right,→,0.5865012002177536,True,34,1
161M19S4,181,experiment,85,↑,up,↑,0.5905389003455639,True,34,1
161M19S4,182,experiment,75,←,left,←,0.5896533001214266,True,34,1
161M19S4,183,experiment,66,↑,up,↑,0.5757895996794105,True,34,1
161M19S4,184,experiment,89,→,right,→,0.5546989999711514,True,34,1
161M19S4,185,experiment,78,→,right,→,0.5144624998793006,True,34,1
161M19S4,186,experiment,64,←,left,←,0.6322319000028074,True,34,1
161M19S4,187,experiment,70,←,left,←,0.6073963004164398,True,34,1
161M19S4,188,experiment,80,↓,down,↓,0.6279716002754867,True,34,1
161M19S4,189,experiment,83,↓,down,↓,0.5590167003683746,True,34,1
161M19S4,190,experiment,68,←,left,←,0.5698593002744019,True,34,1
161M19S4,191,experiment,76,→,right,→,0.4579727998934686,True,34,1
161M19S4,192,experiment,102,→,right,→,0.5169452000409365,True,34,1
161M19S4,193,experiment,58,←,left,←,0.6206987998448312,True,34,1
161M19S4,194,experiment,86,←,left,←,0.6071063997223973,True,34,1
161M19S4,195,experiment,104,→,right,→,0.5477956999093294,True,34,1
161M19S4,196,experiment,82,→,right,→,0.8021220997907221,True,34,1
161M19S4,197,experiment,91,↓,down,↓,0.4994895998388529,True,34,1
161M19S4,198,experiment,62,←,left,←,0.4905993998982012,True,34,1
161M19S4,199,experiment,50,←,left,←,0.6781129003502429,True,34,1
161M19S4,200,experiment,72,←,left,←,0.7947940002195537,True,34,1
161M19S4,201,experiment,94,→,right,→,0.5794525002129376,True,34,1
161M19S4,202,experiment,107,←,left,←,0.5682274997234344,True,34,1
161M19S4,203,experiment,106,↓,down,↓,0.557903400156647,True,34,1
161M19S4,204,experiment,53,←,left,←,0.8616857999004424,True,34,1
161M19S4,205,experiment,77,←,left,←,0.45786030031740665,True,34,1
161M19S4,206,experiment,92,↑,up,↑,0.6480147000402212,True,34,1
161M19S4,207,experiment,95,←,left,←,0.47815300012007356,True,34,1
161M19S4,208,experiment,105,→,right,→,0.6717214998789132,True,34,1
161M19S4,209,experiment,51,→,right,→,0.635497699957341,True,34,1
161M19S4,210,experiment,57,↓,down,↓,0.5508896997198462,True,34,1
161M19S4,211,experiment,96,←,left,←,1.1606052001006901,True,34,1
161M19S4,212,experiment,48,←,left,←,1.250147399958223,True,34,1
161M19S4,213,experiment,54,↑,up,↑,0.5336488001048565,True,34,1
161M19S4,214,experiment,87,←,left,←,0.5230256002396345,True,34,1
161M19S4,215,experiment,81,↓,down,↓,0.5787263000383973,True,34,1
161M19S4,216,experiment,56,↑,up,↑,0.6008638003841043,True,34,1
161M19S4,217,experiment,97,↓,down,↓,0.616372600197792,True,34,1
161M19S4,218,experiment,71,↑,up,↑,0.6636410998180509,True,34,1
161M19S4,219,experiment,79,→,right,→,0.5864923996850848,True,34,1
161M19S4,220,experiment,63,←,left,←,0.5817522997967899,True,34,1
161M19S4,221,experiment,74,←,left,←,0.5975590003654361,True,34,1
161M19S4,222,experiment,61,←,left,←,0.5929931001737714,True,34,1
161M19S4,223,experiment,100,→,right,→,0.552313799969852,True,34,1
161M19S4,224,experiment,101,↑,up,↑,0.5996460001915693,True,34,1
161M19S4,225,experiment,98,↑,up,↑,0.5346764996647835,True,34,1
161M19S4,226,experiment,60,→,right,→,0.709073499776423,True,34,1
161M19S4,227,experiment,49,←,left,←,0.6003573001362383,True,34,1
161M19S4,228,experiment,65,↑,up,↑,0.6261946000158787,True,34,1
161M19S4,229,experiment,73,←,left,←,0.5127094001509249,True,34,1
161M19S4,230,training,87,↓,down,↓,0.5903662000782788,True,33,0
161M19S4,231,training,68,→,right,→,0.44776879996061325,True,33,1
161M19S4,232,experiment,107,→,right,→,0.5297960001043975,True,33,0
161M19S4,233,experiment,97,←,left,←,1.0680312998592854,True,33,1
161M19S4,234,experiment,87,↑,up,↑,0.595877000130713,True,33,1
161M19S4,235,experiment,103,↓,down,↓,0.6332374000921845,True,33,1
161M19S4,236,experiment,78,↓,down,↓,0.5736231999471784,True,33,1
161M19S4,237,experiment,61,↓,down,↓,0.5859934999607503,True,33,1
161M19S4,238,experiment,64,↑,up,↑,0.6371515998616815,True,33,1
161M19S4,239,experiment,49,↓,down,↓,0.6592247998341918,True,33,1
161M19S4,240,experiment,91,↓,down,↓,0.5223463997244835,True,33,1
161M19S4,241,experiment,72,←,left,←,0.6211032997816801,True,33,1
161M19S4,242,experiment,98,←,left,←,0.5793703999370337,True,33,1
161M19S4,243,experiment,76,↓,down,↓,0.5623920001089573,True,33,1
161M19S4,244,experiment,63,→,right,→,0.5105647998861969,True,33,1
161M19S4,245,experiment,99,↑,up,↑,0.6330766999162734,True,33,1
161M19S4,246,experiment,57,↑,up,↑,0.548284700140357,True,33,1
161M19S4,247,experiment,69,←,left,←,0.5910698999650776,True,33,1
161M19S4,248,experiment,79,↑,up,↑,0.5487537002190948,True,33,1
161M19S4,249,experiment,56,↑,up,↑,0.555829600431025,True,33,1
161M19S4,250,experiment,53,↑,up,↑,0.5875754998996854,True,33,1
161M19S4,251,experiment,101,↓,down,↓,0.6259751999750733,True,33,1
161M19S4,252,experiment,108,↓,down,↓,0.6686493000015616,True,33,1
161M19S4,253,experiment,80,↓,down,↓,0.5350518999621272,True,33,1
161M19S4,254,experiment,50,←,left,←,0.5373117998242378,True,33,1
161M19S4,255,experiment,94,↓,down,↓,0.683884299825877,True,33,1
161M19S4,256,experiment,58,←,left,←,0.6049216999672353,True,33,1
161M19S4,257,experiment,92,↓,down,↓,0.5256783999502659,True,33,1
161M19S4,258,experiment,84,↑,up,↑,0.5963992001488805,True,33,1
161M19S4,259,experiment,102,→,right,→,0.5780474999919534,True,33,1
161M19S4,260,experiment,51,→,right,→,0.4897264000028372,True,33,1
161M19S4,261,experiment,95,→,right,→,0.4703079001046717,True,33,1
161M19S4,262,experiment,65,←,left,←,0.5495474999770522,True,33,1
161M19S4,263,experiment,86,↑,up,↑,0.594293599948287,True,33,1
161M19S4,264,experiment,52,→,right,→,0.5210430999286473,True,33,1
161M19S4,265,experiment,70,→,right,→,0.4257658999413252,True,33,1
161M19S4,266,experiment,83,→,right,→,0.5915490998886526,True,33,0
161M19S4,267,experiment,59,↑,up,↑,0.5959384003654122,True,33,1
161M19S4,268,experiment,90,↑,up,↑,0.6140721999108791,True,33,1
161M19S4,269,experiment,88,↓,down,↓,0.6557168001309037,True,33,1
161M19S4,270,experiment,54,→,right,→,0.5631610001437366,True,33,1
161M19S4,271,experiment,62,↑,up,↑,0.5515672001056373,True,33,1
161M19S4,272,experiment,73,↑,up,↑,0.4968746998347342,True,33,1
161M19S4,273,experiment,66,↑,up,↑,0.5507418001070619,True,33,1
161M19S4,274,experiment,106,→,right,→,0.485236800275743,True,33,1
161M19S4,275,experiment,77,←,left,←,0.5918091000057757,True,33,1
161M19S4,276,experiment,68,←,left,←,0.545350399799645,True,33,1
161M19S4,277,experiment,74,→,right,→,0.6186212003231049,True,33,1
161M19S4,278,experiment,67,←,left,←,0.4757256000302732,True,33,1
161M19S4,279,experiment,105,↑,up,↑,0.5092178001068532,True,33,1
161M19S4,280,experiment,89,↓,down,↓,0.6910814000293612,True,33,1
161M19S4,281,experiment,60,↑,up,↑,0.826779399998486,True,33,1
161M19S4,282,experiment,71,←,left,←,0.4503897000104189,True,33,1
161M19S4,283,experiment,96,↓,down,↓,0.6793133998289704,True,33,1
161M19S4,284,experiment,55,↓,down,↓,0.4816693002358079,True,33,1
161M19S4,285,experiment,81,→,right,→,0.4591354997828603,True,33,1
161M19S4,286,experiment,75,↓,down,↓,0.8954667998477817,True,33,1
161M19S4,287,experiment,93,↑,up,↑,0.5888411998748779,True,33,1
161M19S4,288,experiment,82,↓,down,↓,0.6092530996538699,True,33,1
161M19S4,289,experiment,48,→,right,→,0.5207336996681988,True,33,1
161M19S4,290,experiment,104,→,right,→,0.5451592998579144,True,33,1
161M19S4,291,experiment,85,↑,up,↑,0.5908050998114049,True,33,1
161M19S4,292,experiment,100,↓,down,↓,0.645582300145179,True,33,1
161M19S4,293,training,60,←,left,←,0.5909016998484731,True,32,0
161M19S4,294,training,84,→,right,→,0.5468778996728361,True,32,1
161M19S4,295,experiment,50,↓,down,↓,0.4365682997740805,True,32,1
161M19S4,296,experiment,72,→,right,→,0.4820280000567436,True,32,0
161M19S4,297,experiment,78,↑,up,↑,0.43710940005257726,True,32,1
161M19S4,298,experiment,67,←,left,←,0.4603963000699878,True,32,0
161M19S4,299,experiment,71,←,left,←,0.5700439000502229,True,32,1
161M19S4,300,experiment,95,↑,up,↑,0.5394937000237405,True,32,1
161M19S4,301,experiment,104,→,right,→,0.5310753001831472,True,32,1
161M19S4,302,experiment,87,←,left,←,0.7922479999251664,True,32,1
161M19S4,303,experiment,96,↑,up,↑,0.4881414999254048,True,32,1
161M19S4,304,experiment,76,→,right,→,0.5309413000941277,True,32,1
161M19S4,305,experiment,60,→,right,→,0.5453912997618318,True,32,1
161M19S4,306,experiment,99,←,left,←,0.5543442000634968,True,32,1
161M19S4,307,experiment,57,↓,down,↓,0.7047762000001967,True,32,1
161M19S4,308,experiment,83,↓,down,↓,0.4888671999797225,True,32,1
161M19S4,309,experiment,82,↑,up,↑,0.5215892000123858,True,32,1
161M19S4,310,experiment,79,←,left,←,0.569960200227797,True,32,1
161M19S4,311,experiment,105,↓,down,↓,0.5200143000110984,True,32,1
161M19S4,312,experiment,64,←,left,←,0.5417494997382164,True,32,1
161M19S4,313,experiment,89,↓,down,↓,0.5462238001637161,True,32,1
161M19S4,314,experiment,86,↓,down,↓,0.48756919987499714,True,32,1
161M19S4,315,experiment,98,←,left,←,0.562932699918747,True,32,1
161M19S4,316,experiment,51,↓,down,↓,0.5469983997754753,True,32,1
161M19S4,317,experiment,62,→,right,→,0.5360945998691022,True,32,1
161M19S4,318,experiment,49,↑,up,↑,0.6582847996614873,True,32,1
161M19S4,319,experiment,70,←,left,←,0.5043679997324944,True,32,1
161M19S4,320,experiment,52,→,right,→,0.6823722003027797,True,32,1
161M19S4,321,experiment,48,↑,up,↑,0.5587733997963369,True,32,1
161M19S4,322,experiment,58,←,left,←,0.4530333997681737,True,32,1
161M19S4,323,experiment,54,←,right,→,0.6327022002078593,False,32,1
161M19S4,324,experiment,108,←,left,←,0.48296239972114563,True,32,1
161M19S4,325,experiment,91,↓,down,↓,0.6010389002040029,True,32,1
161M19S4,326,experiment,100,↑,up,↑,0.6716630002483726,True,32,1
161M19S4,327,experiment,85,←,left,←,0.4092617002315819,True,32,1
161M19S4,328,experiment,56,↓,down,↓,0.6123009999282658,True,32,0
161M19S4,329,experiment,90,→,right,→,0.645651999861002,True,32,1
161M19S4,330,experiment,63,←,left,←,0.4866750002838671,True,32,1
161M19S4,331,experiment,81,←,left,←,0.4721792000345886,True,32,1
161M19S4,332,experiment,102,↑,up,↑,0.5227942001074553,True,32,1
161M19S4,333,experiment,65,→,right,→,0.48788650007918477,True,32,1
161M19S4,334,experiment,68,←,left,←,0.40902070002630353,True,32,1
161M19S4,335,experiment,84,→,right,→,0.6084246998652816,True,32,0
161M19S4,336,experiment,69,←,left,←,0.536871399730444,True,32,1
161M19S4,337,experiment,94,→,right,→,0.5158747001551092,True,32,1
161M19S4,338,experiment,93,↓,down,↓,0.5122171998955309,True,32,1
161M19S4,339,experiment,97,↑,up,↑,0.7308848001994193,True,32,1
161M19S4,340,experiment,74,→,right,→,0.46068819984793663,True,32,1
161M19S4,341,experiment,92,↑,up,↑,0.603317600209266,True,32,1
161M19S4,342,experiment,80,↑,up,↑,0.5126994997262955,True,32,1
161M19S4,343,experiment,101,←,left,←,0.4497287003323436,True,32,1
161M19S4,344,experiment,59,↓,down,↓,0.603959099855274,True,32,1
161M19S4,345,experiment,77,→,right,→,0.5376617000438273,True,32,1
161M19S4,346,experiment,106,↑,up,↑,0.7124633998610079,True,32,1
161M19S4,347,experiment,103,↑,up,↑,0.5693473001010716,True,32,1
161M19S4,348,experiment,66,→,right,→,0.5886325999163091,True,32,1
161M19S4,349,experiment,61,↑,up,↑,0.616199899930507,True,32,1
161M19S4,350,experiment,75,↓,down,↓,0.5662350002676249,True,32,1
161M19S4,351,experiment,53,→,right,→,0.5577066000550985,True,32,1
161M19S4,352,experiment,55,→,right,→,0.4928044998086989,True,32,1
161M19S4,353,experiment,73,↓,down,↓,0.5765268001705408,True,32,1
161M19S4,354,experiment,107,←,left,←,0.5816072002053261,True,32,1
161M19S4,355,experiment,88,→,right,→,0.520586600061506,True,32,1
161M19S4,356,training,62,←,left,←,0.4929507998749614,True,31,0
161M19S4,357,training,92,←,left,←,0.4824717999435961,True,31,1
161M19S4,358,experiment,49,↓,down,↓,0.5584276998415589,True,31,1
161M19S4,359,experiment,107,←,left,←,0.49226179998368025,True,31,1
161M19S4,360,experiment,64,←,left,←,0.5548764001578093,True,31,1
161M19S4,361,experiment,81,→,right,→,0.5372236999683082,True,31,1
161M19S4,362,experiment,75,↑,up,↑,0.5067527997307479,True,31,1
161M19S4,363,experiment,50,↑,up,↑,0.45369850005954504,True,31,1
161M19S4,364,experiment,106,↓,down,↓,0.5354371001012623,True,31,1
161M19S4,365,experiment,58,↑,up,↑,0.5425786999985576,True,31,1
161M19S4,366,experiment,69,↓,down,↓,0.6335975998081267,True,31,1
161M19S4,367,experiment,102,←,left,←,0.4306885004043579,True,31,1
161M19S4,368,experiment,96,↓,down,↓,0.5728507000021636,True,31,1
161M19S4,369,experiment,98,→,right,→,0.6443881997838616,True,31,1
161M19S4,370,experiment,85,←,left,←,0.5742099001072347,True,31,1
161M19S4,371,experiment,51,←,left,←,0.6859566001221538,True,31,1
161M19S4,372,experiment,72,←,left,←,0.5622774995863438,True,31,1
161M19S4,373,experiment,76,↑,up,↑,0.5701264999806881,True,31,1
161M19S4,374,experiment,71,↑,up,↑,0.5713734999299049,True,31,1
161M19S4,375,experiment,66,↓,down,↓,0.5743579999543726,True,31,1
161M19S4,376,experiment,77,↓,down,↓,0.5492138997651637,True,31,1
161M19S4,377,experiment,94,↓,down,↓,0.5199159001931548,True,31,1
161M19S4,378,experiment,82,↑,up,↑,0.5914987996220589,True,31,1
161M19S4,379,experiment,95,→,right,→,0.5677194003947079,True,31,1
161M19S4,380,experiment,101,←,left,←,0.4710369003005326,True,31,1
161M19S4,381,experiment,65,←,left,←,0.4705294999293983,True,31,1
161M19S4,382,experiment,90,←,left,←,0.5816132999025285,True,31,1
161M19S4,383,experiment,84,→,right,→,0.5059334998950362,True,31,1
161M19S4,384,experiment,86,↓,down,↓,0.8166996999643743,True,31,1
161M19S4,385,experiment,70,→,right,→,0.4803830999881029,True,31,1
161M19S4,386,experiment,61,←,left,←,0.6485139997676015,True,31,1
161M19S4,387,experiment,80,↓,down,↓,0.5395098999142647,True,31,1
161M19S4,388,experiment,57,←,left,←,0.6186253000050783,True,31,1
161M19S4,389,experiment,73,↓,down,↓,0.929302700329572,True,31,1
161M19S4,390,experiment,93,↑,up,↑,0.5967199001461267,True,31,1
161M19S4,391,experiment,67,↓,down,↓,0.6301858001388609,True,31,1
161M19S4,392,experiment,89,→,right,→,0.5827324003912508,True,31,1
161M19S4,393,experiment,53,↑,up,↑,0.5735367001034319,True,31,1
161M19S4,394,experiment,88,←,left,←,0.5289630996994674,True,31,1
161M19S4,395,experiment,99,↑,up,↑,0.49068470019847155,True,31,1
161M19S4,396,experiment,105,←,left,←,0.49967580009251833,True,31,1
161M19S4,397,experiment,97,←,left,←,0.5992487999610603,True,31,1
161M19S4,398,experiment,91,↓,down,↓,0.6164580998010933,True,31,1
161M19S4,399,experiment,108,←,left,←,0.6514289998449385,True,31,1
161M19S4,400,experiment,79,↓,down,↓,0.5189461000263691,True,31,1
161M19S4,401,experiment,55,→,right,→,0.7836389001458883,True,31,1
161M19S4,402,experiment,83,→,right,→,0.44428119994699955,True,31,1
161M19S4,403,experiment,74,↑,up,↑,0.569767499808222,True,31,1
161M19S4,404,experiment,59,←,left,←,0.6231356002390385,True,31,1
161M19S4,405,experiment,60,→,right,→,0.6899135997518897,True,31,1
161M19S4,406,experiment,63,→,right,→,0.4809473999775946,True,31,1
161M19S4,407,experiment,100,↓,down,↓,0.5079576000571251,True,31,1
161M19S4,408,experiment,104,→,right,→,0.524802700150758,True,31,1
161M19S4,409,experiment,56,↑,right,→,1.164790800306946,False,31,1
161M19S4,410,experiment,52,↓,down,↓,0.700816800352186,True,31,1
161M19S4,411,experiment,103,↑,up,↑,0.5022328998893499,True,31,1
161M19S4,412,experiment,68,↓,down,↓,0.46689540008082986,True,31,1
161M19S4,413,experiment,78,←,left,←,0.90211830008775,True,31,1
161M19S4,414,experiment,87,↑,up,↑,0.5726517997682095,True,31,1
161M19S4,415,experiment,62,↓,down,↓,0.5527503001503646,True,31,1
161M19S4,416,experiment,92,→,right,→,0.46781150018796325,True,31,1
161M19S4,417,experiment,54,↑,up,↑,0.6149898003786802,True,31,1
161M19S4,418,experiment,48,↓,down,↓,0.6620737998746336,True,31,1
161M19S4,419,training,91,↓,down,↓,0.5740447998978198,True,30,0
161M19S4,420,training,65,↓,down,↓,0.5133307999931276,True,30,1
161M19S4,421,experiment,76,←,left,←,0.5388569999486208,True,30,1
161M19S4,422,experiment,72,↑,up,↑,0.4848776999861002,True,30,1
161M19S4,423,experiment,85,↑,up,↑,0.5249988003633916,True,30,1
161M19S4,424,experiment,92,→,right,→,0.689178999979049,True,30,1
161M19S4,425,experiment,68,↑,up,↑,0.590612200088799,True,30,1
161M19S4,426,experiment,103,←,left,←,0.5241195997223258,True,30,1
161M19S4,427,experiment,79,↑,up,↑,0.45252380007877946,True,30,1
161M19S4,428,experiment,107,↑,up,↑,0.5508539997972548,True,30,1
161M19S4,429,experiment,48,←,left,←,0.6563145001418889,True,30,1
161M19S4,430,experiment,78,↓,down,↓,0.6036801002919674,True,30,1
161M19S4,431,experiment,101,→,right,→,0.40070419991388917,True,30,1
161M19S4,432,experiment,52,↓,down,↓,0.5519067998975515,True,30,0
161M19S4,433,experiment,80,←,left,←,0.8628751002252102,True,30,1
161M19S4,434,experiment,95,↑,up,↑,0.5642766002565622,True,30,2
161M19S4,435,experiment,89,↓,down,↓,0.6636517001315951,True,30,1
161M19S4,436,experiment,69,→,right,→,0.7257010997273028,True,30,1
161M19S4,437,experiment,49,↓,up,↑,0.9841384999454021,False,30,1
161M19S4,438,experiment,106,↑,up,↑,0.5970143000595272,True,30,1
161M19S4,439,experiment,74,↓,down,↓,0.6041236999444664,True,30,1
161M19S4,440,experiment,70,↑,up,↑,0.6521621998399496,True,30,1
161M19S4,441,experiment,87,→,right,→,0.6288709999062121,True,30,1
161M19S4,442,experiment,77,↓,down,↓,0.522055999841541,True,30,1
161M19S4,443,experiment,96,↓,down,↓,0.4368904000148177,True,30,1
161M19S4,444,experiment,57,←,down,↓,1.303829099982977,False,30,1
161M19S4,445,experiment,102,↑,up,↑,0.7373534999787807,True,30,1
161M19S4,446,experiment,61,↑,up,↑,0.59938699984923,True,30,1
161M19S4,447,experiment,73,↓,up,↑,0.8468160000629723,False,30,1
161M19S4,448,experiment,75,←,left,←,0.6115121999755502,True,30,1
161M19S4,449,experiment,104,→,right,→,0.4642138001509011,True,30,1
161M19S4,450,experiment,81,↓,down,↓,0.5863061002455652,True,30,1
161M19S4,451,experiment,91,↑,up,↑,0.8845571996644139,True,30,1
161M19S4,452,experiment,105,↑,up,↑,0.48577950010076165,True,30,1
161M19S4,453,experiment,82,↓,down,↓,0.8307014000602067,True,30,1
161M19S4,454,experiment,58,→,right,→,0.6897665997967124,True,30,1
161M19S4,455,experiment,56,↑,up,↑,0.6672610002569854,True,30,1
161M19S4,456,experiment,51,←,left,←,0.5194857995957136,True,30,1
161M19S4,457,experiment,94,↑,up,↑,0.5789841995574534,True,30,1
161M19S4,458,experiment,55,↑,up,↑,0.7533805002458394,True,30,1
161M19S4,459,experiment,60,↓,down,↓,0.7591086002066731,True,30,1
161M19S4,460,experiment,63,↓,down,↓,0.5243111001327634,True,30,1
161M19S4,461,experiment,93,↓,down,↓,0.5432207998819649,True,30,1
161M19S4,462,experiment,66,↓,down,↓,0.9393453001976013,True,30,1
161M19S4,463,experiment,67,↓,down,↓,0.5670014000497758,True,30,1
161M19S4,464,experiment,108,↓,down,↓,0.556064700242132,True,30,1
161M19S4,465,experiment,83,↑,up,↑,0.6257666000165045,True,30,1
161M19S4,466,experiment,50,↓,down,↓,0.6798769999295473,True,30,1
161M19S4,467,experiment,98,←,left,←,0.4595651999115944,True,30,1
161M19S4,468,experiment,88,←,left,←,0.6195896998979151,True,30,1
161M19S4,469,experiment,62,↑,up,↑,0.4940839000046253,True,30,1
161M19S4,470,experiment,64,↑,up,↑,0.6927330996841192,True,30,1
161M19S4,471,experiment,71,↓,down,↓,0.7851560995914042,True,30,1
161M19S4,472,experiment,90,↑,up,↑,0.6357776001095772,True,30,1
161M19S4,473,experiment,100,↓,down,↓,0.6165192001499236,True,30,1
161M19S4,474,experiment,86,↓,down,↓,0.4590218001976609,True,30,1
161M19S4,475,experiment,54,↓,down,↓,0.5506500001065433,True,30,1
161M19S4,476,experiment,65,↑,up,↑,0.5624028001911938,True,30,1
161M19S4,477,experiment,84,→,right,→,0.5759458001703024,True,30,1
161M19S4,478,experiment,97,↑,up,↑,0.9522290001623333,True,30,1
161M19S4,479,experiment,53,↑,up,↑,0.7682345998473465,True,30,1
161M19S4,480,experiment,99,←,left,←,0.4949747999198735,True,30,1
161M19S4,481,experiment,59,↑,up,↑,0.631436700001359,True,30,1
161M19S4,482,training,74,→,right,→,0.5045272000133991,True,29,0
161M19S4,483,training,82,→,right,→,0.48083070013672113,True,29,1
161M19S4,484,experiment,63,←,left,←,0.6321340003050864,True,29,1
161M19S4,485,experiment,65,←,left,←,0.5531244999729097,True,29,1
161M19S4,486,experiment,102,→,right,→,0.640618700068444,True,29,1
161M19S4,487,experiment,72,↓,down,↓,0.5586986998096108,True,29,1
161M19S4,488,experiment,49,→,right,→,0.527818700298667,True,29,1
161M19S4,489,experiment,105,↓,down,↓,0.35903949989005923,True,29,1
161M19S4,490,experiment,76,↑,up,↑,0.6552122002467513,True,29,0
161M19S4,491,experiment,82,↓,down,↓,0.953154900111258,True,29,1
161M19S4,492,experiment,97,↓,down,↓,0.5785984001122415,True,29,1
161M19S4,493,experiment,67,↑,up,↑,0.6369595997966826,True,29,1
161M19S4,494,experiment,66,→,right,→,0.6693491004407406,True,29,1
161M19S4,495,experiment,93,↓,down,↓,0.6114849001169205,True,29,1
161M19S4,496,experiment,51,→,right,→,0.5378240998834372,True,29,1
161M19S4,497,experiment,75,→,right,→,0.643293300177902,True,29,1
161M19S4,498,experiment,77,↓,down,↓,0.6796849998645484,True,29,1
161M19S4,499,experiment,73,→,right,→,0.5238550999201834,True,29,1
161M19S4,500,experiment,62,←,left,←,0.5860052001662552,True,29,1
161M19S4,501,experiment,98,↑,up,↑,0.49748479994013906,True,29,1
161M19S4,502,experiment,104,↑,up,↑,0.5144233000464737,True,29,1
161M19S4,503,experiment,54,↑,up,↑,0.7075735996477306,True,29,1
161M19S4,504,experiment,87,←,left,←,0.5779412002302706,True,29,1
161M19S4,505,experiment,108,↓,down,↓,0.6066801999695599,True,29,1
161M19S4,506,experiment,103,←,left,←,0.47580699995160103,True,29,1
161M19S4,507,experiment,50,→,right,→,0.5677797999233007,True,29,1
161M19S4,508,experiment,92,→,right,→,0.8101735999807715,True,29,1
161M19S4,509,experiment,107,→,right,→,0.6940028998069465,True,29,1
161M19S4,510,experiment,88,↓,down,↓,0.48474759981036186,True,29,1
161M19S4,511,experiment,55,→,right,→,0.4626795002259314,True,29,1
161M19S4,512,experiment,99,↓,down,↓,0.4827453000470996,True,29,1
161M19S4,513,experiment,78,→,right,→,0.44496869994327426,True,29,1
161M19S4,514,experiment,91,→,right,→,0.5808665999211371,True,29,1
161M19S4,515,experiment,58,←,left,←,0.5539458999410272,True,29,1
161M19S4,516,experiment,95,→,right,→,0.5160405999049544,True,29,1
161M19S4,517,experiment,52,→,right,→,0.5334193999879062,True,29,1
161M19S4,518,experiment,48,↑,up,↑,0.5839114999398589,True,29,1
161M19S4,519,experiment,106,→,right,→,0.4608319001272321,True,29,1
161M19S4,520,experiment,84,↓,down,↓,0.4149204003624618,True,29,1
161M19S4,521,experiment,68,←,left,←,0.46276709996163845,True,29,1
161M19S4,522,experiment,59,←,left,←,0.5045536998659372,True,29,1
161M19S4,523,experiment,80,↓,down,↓,0.5532243000343442,True,29,1
161M19S4,524,experiment,79,↓,down,↓,0.4173512998968363,True,29,1
161M19S4,525,experiment,69,→,right,→,0.4724677000194788,True,29,1
161M19S4,526,experiment,100,↓,down,↓,0.5724674998782575,True,29,1
161M19S4,527,experiment,71,↓,down,↓,0.5649537998251617,True,29,1
161M19S4,528,experiment,70,←,left,←,0.8066674000583589,True,29,1
161M19S4,529,experiment,61,↑,up,↑,0.5616262000985444,True,29,1
161M19S4,530,experiment,81,←,left,←,0.37674489989876747,True,29,1
161M19S4,531,experiment,64,←,left,←,0.45073260040953755,True,29,0
161M19S4,532,experiment,94,→,right,→,0.4733174000866711,True,29,1
161M19S4,533,experiment,96,←,left,←,0.49393679993227124,True,29,1
161M19S4,534,experiment,83,←,left,←,0.43836520006880164,True,29,1
161M19S4,535,experiment,56,↑,up,↑,0.5777615997940302,True,29,1
161M19S4,536,experiment,86,↑,up,↑,0.5578100001439452,True,29,1
161M19S4,537,experiment,90,←,left,←,0.5291828000918031,True,29,1
161M19S4,538,experiment,53,↓,down,↓,0.6019640997983515,True,29,1
161M19S4,539,experiment,60,→,right,→,0.8857539999298751,True,29,1
161M19S4,540,experiment,85,↑,up,↑,0.5578195997513831,True,29,1
161M19S4,541,experiment,74,←,left,←,0.518531299661845,True,29,1
161M19S4,542,experiment,101,↑,up,↑,0.5998713998124003,True,29,1
161M19S4,543,experiment,89,↑,up,↑,0.4899130002595484,True,29,1
161M19S4,544,experiment,57,↓,down,↓,0.6189780998975039,True,29,1
161M19S4,545,training,53,↑,up,↑,0.5100714000873268,True,28,0
161M19S4,546,training,89,←,left,←,0.8517112997360528,True,28,1
161M19S4,547,experiment,53,↓,down,↓,0.5117508000694215,True,28,1
161M19S4,548,experiment,62,↓,down,↓,0.5105781001038849,True,28,1
161M19S4,549,experiment,101,←,left,←,0.5283810002729297,True,28,1
161M19S4,550,experiment,79,→,right,→,0.44066260010004044,True,28,1
161M19S4,551,experiment,59,↓,down,↓,0.40352739999070764,True,28,1
161M19S4,552,experiment,78,↓,down,↓,0.40889550000429153,True,28,0
161M19S4,553,experiment,77,→,right,→,0.4619175996631384,True,28,1
161M19S4,554,experiment,83,→,right,→,0.3258253997191787,True,28,1
161M19S4,555,experiment,95,←,left,←,0.5544417998753488,True,28,0
161M19S4,556,experiment,91,↑,up,↑,0.5575040001422167,True,28,1
161M19S4,557,experiment,87,→,right,→,0.6899144998751581,True,28,1
161M19S4,558,experiment,56,↓,down,↓,0.5392477000132203,True,28,1
161M19S4,559,experiment,100,↓,down,↓,0.4759557000361383,True,28,1
161M19S4,560,experiment,108,→,right,→,0.5167374997399747,True,28,1
161M19S4,561,experiment,76,↓,down,↓,0.5584301999770105,True,28,1
161M19S4,562,experiment,51,←,left,←,0.7028830996714532,True,28,1
161M19S4,563,experiment,102,↑,up,↑,0.5766191999427974,True,28,1
161M19S4,564,experiment,103,↓,down,↓,0.5588587997481227,True,28,1
161M19S4,565,experiment,74,→,right,→,0.4397579999640584,True,28,1
161M19S4,566,experiment,86,→,right,→,0.5291005996987224,True,28,1
161M19S4,567,experiment,104,↓,down,↓,0.5447105998173356,True,28,1
161M19S4,568,experiment,66,→,right,→,0.8368489001877606,True,28,1
161M19S4,569,experiment,89,←,left,←,0.5174948000349104,True,28,1
161M19S4,570,experiment,65,↓,down,↓,0.5631725997664034,True,28,1
161M19S4,571,experiment,88,←,left,←,0.6226069000549614,True,28,1
161M19S4,572,experiment,48,→,right,→,0.6295905997976661,True,28,1
161M19S4,573,experiment,63,←,left,←,0.7348632998764515,True,28,1
161M19S4,574,experiment,93,↓,down,↓,0.4421763997524977,True,28,1
161M19S4,575,experiment,58,→,right,→,0.8288607001304626,True,28,1
161M19S4,576,experiment,75,↑,up,↑,0.6186333000659943,True,28,1
161M19S4,577,experiment,72,↓,up,↑,0.721652400214225,False,28,1
161M19S4,578,experiment,55,←,left,←,0.6022037002258003,True,28,1
161M19S4,579,experiment,69,←,left,←,0.5229463996365666,True,28,1
161M19S4,580,experiment,54,→,right,→,0.5876315999776125,True,28,1
161M19S4,581,experiment,50,←,left,←,0.5070011001080275,True,28,1
161M19S4,582,experiment,97,←,left,←,0.45400140015408397,True,28,1
161M19S4,583,experiment,85,↑,up,↑,0.5994191002100706,True,28,1
161M19S4,584,experiment,84,↓,down,↓,0.563207000028342,True,28,1
161M19S4,585,experiment,92,↑,up,↑,0.8702626000158489,True,28,1
161M19S4,586,experiment,99,↓,down,↓,0.5935927000828087,True,28,1
161M19S4,587,experiment,49,↑,up,↑,0.6893873997032642,True,28,1
161M19S4,588,experiment,107,←,left,←,0.4976600999943912,True,28,1
161M19S4,589,experiment,70,↑,up,↑,0.4940335997380316,True,28,1
161M19S4,590,experiment,80,←,left,←,0.44748219987377524,True,28,1
161M19S4,591,experiment,96,↑,up,↑,0.5092255002819002,True,28,1
161M19S4,592,experiment,98,↓,down,↓,0.6320515000261366,True,28,1
161M19S4,593,experiment,67,←,left,←,0.8560690996237099,True,28,1
161M19S4,594,experiment,60,↑,up,↑,0.6175007000565529,True,28,1
161M19S4,595,experiment,64,↑,up,↑,0.4831110001541674,True,28,1
161M19S4,596,experiment,68,→,right,→,0.520868799649179,True,28,1
161M19S4,597,experiment,57,↓,down,↓,0.6653985995799303,True,28,1
161M19S4,598,experiment,71,↑,up,↑,0.6624401998706162,True,28,1
161M19S4,599,experiment,82,↑,up,↑,0.5444387001916766,True,28,1
161M19S4,600,experiment,105,↓,down,↓,0.5036585000343621,True,28,1
161M19S4,601,experiment,94,↑,up,↑,0.5878252000547945,True,28,1
161M19S4,602,experiment,52,→,right,→,0.9385756002739072,True,28,1
161M19S4,603,experiment,73,↓,down,↓,0.6043129996396601,True,28,1
161M19S4,604,experiment,81,↑,up,↑,0.45663109980523586,True,28,1
161M19S4,605,experiment,106,↓,down,↓,0.6106639001518488,True,28,1
161M19S4,606,experiment,61,→,right,→,0.5978048997931182,True,28,1
161M19S4,607,experiment,90,→,right,→,0.5434849001467228,True,28,1
161M19S4,608,training,105,↑,up,↑,0.4761198000051081,True,28,0
161M19S4,609,training,48,←,left,←,0.5450106002390385,True,28,1
161M19S4,610,experiment,54,←,left,←,0.5930686998181045,True,28,1
161M19S4,611,experiment,65,←,left,←,0.5393897001631558,True,28,1
161M19S4,612,experiment,106,→,right,→,0.5221596998162568,True,28,1
161M19S4,613,experiment,101,↑,up,↑,0.4352774997241795,True,28,1
161M19S4,614,experiment,63,←,left,←,0.5886367000639439,True,28,1
161M19S4,615,experiment,59,→,right,→,0.48918280005455017,True,28,1
161M19S4,616,experiment,104,↑,up,↑,0.5944770998321474,True,28,1
161M19S4,617,experiment,82,↑,up,↑,0.5911635998636484,True,28,1
161M19S4,618,experiment,80,←,left,←,0.508663599845022,True,28,1
161M19S4,619,experiment,66,↓,down,↓,0.5379229998216033,True,28,1
161M19S4,620,experiment,69,↓,down,↓,0.4936429001390934,True,28,1
161M19S4,621,experiment,99,←,left,←,0.5044208997860551,True,28,1
161M19S4,622,experiment,89,→,right,→,0.5022033001296222,True,28,1
161M19S4,623,experiment,88,→,right,→,0.4765129000879824,True,28,1
161M19S4,624,experiment,51,↑,up,↑,0.5043961000628769,True,28,1
161M19S4,625,experiment,61,←,left,←,0.5514165000058711,True,28,1
161M19S4,626,experiment,67,↓,down,↓,0.7467672000639141,True,28,1
161M19S4,627,experiment,60,→,right,→,0.47259459970518947,True,28,1
161M19S4,628,experiment,75,↓,down,↓,0.5244201999157667,True,28,1
161M19S4,629,experiment,86,↑,up,↑,0.5064761000685394,True,28,1
161M19S4,630,experiment,102,↓,down,↓,0.6117278998717666,True,28,1
161M19S4,631,experiment,50,↑,up,↑,0.49051220016554,True,28,1
161M19S4,632,experiment,57,↓,down,↓,0.515648000407964,True,28,1
161M19S4,633,experiment,96,↓,down,↓,0.4626850001513958,True,28,1
161M19S4,634,experiment,64,↓,down,↓,0.5107236998155713,True,28,1
161M19S4,635,experiment,77,→,right,→,0.6005272003822029,True,28,1
161M19S4,636,experiment,85,→,right,→,0.49980759993195534,True,28,1
161M19S4,637,experiment,74,↑,right,→,0.8949633999727666,False,28,1
161M19S4,638,experiment,70,↓,down,↓,0.5796798998489976,True,28,1
161M19S4,639,experiment,107,←,left,←,0.42453570012003183,True,28,1
161M19S4,640,experiment,56,↓,down,↓,1.3084428999572992,True,28,1
161M19S4,641,experiment,55,↑,up,↑,0.5654481002129614,True,28,1
161M19S4,642,experiment,71,←,left,←,1.0946821998804808,True,28,1
161M19S4,643,experiment,103,→,right,→,0.4484202000312507,True,28,1
161M19S4,644,experiment,93,↑,up,↑,0.4233589000068605,True,28,1
161M19S4,645,experiment,68,↓,down,↓,0.647514299955219,True,28,1
161M19S4,646,experiment,72,↓,down,↓,0.5010508000850677,True,28,1
161M19S4,647,experiment,95,←,left,←,0.5770791000686586,True,28,1
161M19S4,648,experiment,108,→,right,→,0.5177168999798596,True,28,1
161M19S4,649,experiment,91,→,right,→,0.5384475998580456,True,28,1
161M19S4,650,experiment,78,↑,up,↑,0.47517949994653463,True,28,1
161M19S4,651,experiment,52,→,right,→,0.6381249995902181,True,28,1
161M19S4,652,experiment,98,↑,up,↑,0.6273260996676981,True,28,1
161M19S4,653,experiment,92,→,right,→,0.5240856995806098,True,28,1
161M19S4,654,experiment,87,←,left,←,0.7052869996987283,True,28,1
161M19S4,655,experiment,81,→,right,→,0.5534859001636505,True,28,1
161M19S4,656,experiment,100,↓,down,↓,0.6338235000148416,True,28,1
161M19S4,657,experiment,62,↓,down,↓,0.7156027997843921,True,28,1
161M19S4,658,experiment,94,↓,down,↓,0.9191554998978972,True,28,1
161M19S4,659,experiment,90,↓,down,↓,0.7482774998061359,True,28,1
161M19S4,660,experiment,58,←,left,←,0.5146304001100361,True,28,1
161M19S4,661,experiment,53,←,left,←,0.6600953997112811,True,28,1
161M19S4,662,experiment,97,←,left,←,0.7210830999538302,True,28,1
161M19S4,663,experiment,84,↓,down,↓,0.4718323000706732,True,28,1
161M19S4,664,experiment,49,→,right,→,0.6763080996461213,True,28,1
161M19S4,665,experiment,105,↓,down,↓,0.5498826000839472,True,28,1
161M19S4,666,experiment,76,↓,down,↓,0.5424071000888944,True,28,1
161M19S4,667,experiment,73,→,right,→,0.5361144999042153,True,28,1
161M19S4,668,experiment,83,→,right,→,0.6955593000166118,True,28,1
161M19S4,669,experiment,79,→,right,→,0.7845556996762753,True,28,1
161M19S4,670,experiment,48,←,left,←,0.832959400024265,True,28,1
161M19S4,671,training,89,↑,up,↑,0.5347123998217285,True,28,0
161M19S4,672,training,97,↑,up,↑,0.5124882999807596,True,28,1
161M19S4,673,experiment,92,↓,down,↓,0.48490749998018146,True,28,1
161M19S4,674,experiment,60,→,right,→,0.5253778002224863,True,28,1
161M19S4,675,experiment,97,←,left,←,0.46372599992901087,True,28,1
161M19S4,676,experiment,66,↑,up,↑,0.4628538996912539,True,28,1
161M19S4,677,experiment,101,↓,down,↓,0.6182535998523235,True,28,1
161M19S4,678,experiment,64,↓,down,↓,0.6198948998935521,True,28,1
161M19S4,679,experiment,70,↓,down,↓,0.443756400141865,True,28,1
161M19S4,680,experiment,49,↓,down,↓,0.7375013995915651,True,28,1
161M19S4,681,experiment,94,↑,up,↑,0.5402004001662135,True,28,1
161M19S4,682,experiment,106,←,left,←,0.5548708001151681,True,28,1
161M19S4,683,experiment,53,↓,down,↓,0.49072290025651455,True,28,1
161M19S4,684,experiment,65,↓,down,↓,0.5290258997119963,True,28,1
161M19S4,685,experiment,107,←,left,←,0.47208219999447465,True,28,1
161M19S4,686,experiment,91,←,left,←,0.518446400295943,True,28,1
161M19S4,687,experiment,57,↑,up,↑,0.5985745000652969,True,28,1
161M19S4,688,experiment,80,→,right,→,0.5556336999870837,True,28,1
161M19S4,689,experiment,52,←,left,←,0.5239071999676526,True,28,1
161M19S4,690,experiment,99,→,right,→,0.5414693001657724,True,28,1
161M19S4,691,experiment,84,→,right,→,0.5075151999481022,True,28,1
161M19S4,692,experiment,102,↓,down,↓,0.5169033999554813,True,28,1
161M19S4,693,experiment,74,↑,up,↑,0.5513039999641478,True,28,1
161M19S4,694,experiment,76,↑,up,↑,0.5516734998673201,True,28,1
161M19S4,695,experiment,79,←,left,←,0.5750437998212874,True,28,1
161M19S4,696,experiment,95,←,left,←,0.4481317000463605,True,28,1
161M19S4,697,experiment,78,↓,down,↓,0.5478974999859929,True,28,1
161M19S4,698,experiment,105,→,right,→,0.4666094002313912,True,28,1
161M19S4,699,experiment,62,↑,up,↑,0.6030005998909473,True,28,1
161M19S4,700,experiment,72,←,left,←,0.36740919994190335,True,28,1
161M19S4,701,experiment,63,←,left,←,0.7344925999641418,True,28,0
161M19S4,702,experiment,90,←,left,←,0.49088629987090826,True,28,1
161M19S4,703,experiment,71,↑,up,↑,0.45524050015956163,True,28,1
161M19S4,704,experiment,61,←,left,←,0.47238569986075163,True,28,1
161M19S4,705,experiment,82,←,left,←,0.4898311998695135,True,28,1
161M19S4,706,experiment,68,↑,up,↑,0.43130449997261167,True,28,1
161M19S4,707,experiment,89,↑,up,↑,0.5359797002747655,True,28,1
161M19S4,708,experiment,81,↑,up,↑,0.5353353000245988,True,28,1
161M19S4,709,experiment,77,→,right,→,0.5120585998520255,True,28,1
161M19S4,710,experiment,85,↑,up,↑,0.6391749996691942,True,28,1
161M19S4,711,experiment,88,→,right,→,0.4477733001112938,True,28,1
161M19S4,712,experiment,100,←,left,←,0.5163135002367198,True,28,1
161M19S4,713,experiment,98,←,left,←,0.4145515998825431,True,28,1
161M19S4,714,experiment,103,↓,down,↓,0.5714044002816081,True,28,1
161M19S4,715,experiment,55,→,right,→,0.6180305001325905,True,28,1
161M19S4,716,experiment,69,→,right,→,0.41805800003930926,True,28,1
161M19S4,717,experiment,56,↑,up,↑,0.5262868995778263,True,28,1
161M19S4,718,experiment,50,↓,down,↓,0.7204629997722805,True,28,1
161M19S4,719,experiment,59,↑,up,↑,0.5357523998245597,True,28,1
161M19S4,720,experiment,86,←,left,←,0.5015718000940979,True,28,1
161M19S4,721,experiment,96,←,left,←,0.410141299944371,True,28,1
161M19S4,722,experiment,73,↓,down,↓,0.5839429004117846,True,28,1
161M19S4,723,experiment,48,←,left,←,0.48845750000327826,True,28,1
161M19S4,724,experiment,87,←,left,←,0.5594775001518428,True,28,1
161M19S4,725,experiment,67,←,left,←,0.5066483998671174,True,28,1
161M19S4,726,experiment,108,↓,down,↓,0.5221054996363819,True,28,1
161M19S4,727,experiment,54,↑,up,↑,0.6027878001332283,True,28,1
161M19S4,728,experiment,83,→,right,→,0.5827701999805868,True,28,1
161M19S4,729,experiment,58,↓,down,↓,0.49180479999631643,True,28,1
161M19S4,730,experiment,93,↑,up,↑,0.7449746001511812,True,28,1
161M19S4,731,experiment,51,↑,up,↑,0.5859384997747838,True,28,1
161M19S4,732,experiment,75,↑,up,↑,0.5133968000300229,True,28,1
161M19S4,733,experiment,104,↑,up,↑,0.5300481002777815,True,28,1
161M19S4,734,training,87,←,left,←,0.5149300000630319,True,28,0
161M19S4,735,training,83,→,right,→,0.5223306999541819,True,28,1
161M19S4,736,experiment,108,→,right,→,0.4251474002376199,True,28,1
161M19S4,737,experiment,94,←,left,←,0.5683841998688877,True,28,1
161M19S4,738,experiment,95,→,right,→,0.9696998000144958,True,28,1
161M19S4,739,experiment,88,↓,down,↓,0.4454224999062717,True,28,1
161M19S4,740,experiment,99,←,left,←,0.5144517999142408,True,28,1
161M19S4,741,experiment,61,←,left,←,0.3756941999308765,True,28,1
161M19S4,742,experiment,102,←,left,←,0.8955902000889182,True,28,0
161M19S4,743,experiment,77,→,right,→,0.42615259997546673,True,28,1
161M19S4,744,experiment,68,→,right,→,0.49010479962453246,True,28,1
161M19S4,745,experiment,100,↓,down,↓,0.5408568000420928,True,28,1
161M19S4,746,experiment,52,→,right,→,0.4217428998090327,True,28,1
161M19S4,747,experiment,63,↓,down,↓,0.5033476003445685,True,28,1
161M19S4,748,experiment,86,↑,up,↑,0.43853519996628165,True,28,1
161M19S4,749,experiment,54,↓,down,↓,0.6025642999447882,True,28,1
161M19S4,750,experiment,57,←,left,←,0.41523699974641204,True,28,1
161M19S4,751,experiment,107,→,right,→,0.411353399977088,True,28,1
161M19S4,752,experiment,73,→,right,→,0.553456500172615,True,28,1
161M19S4,753,experiment,59,↓,down,↓,0.7755025001242757,True,28,1
161M19S4,754,experiment,64,→,right,→,0.554863799829036,True,28,1
161M19S4,755,experiment,80,↓,down,↓,0.48165509989485145,True,28,1
161M19S4,756,experiment,53,↓,down,↓,0.6123596001416445,True,28,1
161M19S4,757,experiment,55,←,left,←,0.561512399930507,True,28,1
161M19S4,758,experiment,106,→,right,→,0.8074568998999894,True,28,1
161M19S4,759,experiment,48,↑,down,↓,1.0229744999669492,False,28,1
161M19S4,760,experiment,60,↑,up,↑,0.44953770004212856,True,28,1
161M19S4,761,experiment,93,←,left,←,0.6403803001157939,True,28,1
161M19S4,762,experiment,96,←,left,←,0.42268949979916215,True,28,1
161M19S4,763,experiment,92,←,left,←,0.5023761000484228,True,28,1
161M19S4,764,experiment,81,→,right,→,0.4631690001115203,True,28,1
161M19S4,765,experiment,51,→,right,→,0.47563690040260553,True,28,1
161M19S4,766,experiment,84,↓,down,↓,0.4763311999849975,True,28,1
161M19S4,767,experiment,66,→,right,→,0.4830602998845279,True,28,1
161M19S4,768,experiment,78,↓,down,↓,0.4216714003123343,True,28,1
161M19S4,769,experiment,72,→,right,→,0.38405589992180467,True,28,1
161M19S4,770,experiment,79,↓,down,↓,0.5381157002411783,True,28,0
161M19S4,771,experiment,101,↑,up,↑,0.45835800003260374,True,28,1
161M19S4,772,experiment,83,↓,down,↓,0.5320874000899494,True,28,1
161M19S4,773,experiment,98,←,left,←,0.4778720000758767,True,28,1
161M19S4,774,experiment,85,↓,down,↓,0.510202500037849,True,28,1
161M19S4,775,experiment,71,→,right,→,0.5379463001154363,True,28,1
161M19S4,776,experiment,49,↑,up,↑,0.6597469998523593,True,28,1
161M19S4,777,experiment,75,↓,down,↓,0.4960841001011431,True,28,1
161M19S4,778,experiment,76,↑,up,↑,0.7545658000744879,True,28,1
161M19S4,779,experiment,105,↓,down,↓,0.6568200001493096,True,28,1
161M19S4,780,experiment,82,↓,down,↓,0.5309350998140872,True,28,1
161M19S4,781,experiment,87,↓,down,↓,0.42442760011181235,True,28,1
161M19S4,782,experiment,74,↑,up,↑,0.7184052998200059,True,28,1
161M19S4,783,experiment,50,→,right,→,0.49688500026240945,True,28,1
161M19S4,784,experiment,104,←,left,←,0.9138237000443041,True,28,1
161M19S4,785,experiment,91,↑,up,↑,0.4466610001400113,True,28,1
161M19S4,786,experiment,103,↓,down,↓,0.5218918002210557,True,28,1
161M19S4,787,experiment,67,→,right,→,0.6382971000857651,True,28,1
161M19S4,788,experiment,90,↓,down,↓,0.606371299829334,True,28,1
161M19S4,789,experiment,58,←,left,←,0.7944602998904884,True,28,1
161M19S4,790,experiment,69,↓,down,↓,0.4118645000271499,True,28,1
161M19S4,791,experiment,97,←,left,←,0.4664604999125004,True,28,1
161M19S4,792,experiment,65,↓,down,↓,0.6736956997774541,True,28,1
161M19S4,793,experiment,70,↑,up,↑,0.5829989002086222,True,28,1
161M19S4,794,experiment,89,↓,down,↓,0.4338310998864472,True,28,1
161M19S4,795,experiment,56,↑,up,↑,0.6856093998067081,True,28,1
161M19S4,796,experiment,62,↓,down,↓,0.4452508999966085,True,28,1
161M19S4,797,training,106,←,left,←,0.4974128999747336,True,28,0
161M19S4,798,training,78,↑,up,↑,0.4991493998095393,True,28,1
161M19S4,799,experiment,99,→,right,→,0.7497721998952329,True,28,1
161M19S4,800,experiment,104,←,left,←,0.5649822000414133,True,28,1
161M19S4,801,experiment,102,←,left,←,0.531857400201261,True,28,1
161M19S4,802,experiment,58,→,right,→,0.6509079001843929,True,28,1
161M19S4,803,experiment,86,↑,up,↑,0.4279954000376165,True,28,1
161M19S4,804,experiment,101,↓,down,↓,0.45722160022705793,True,28,1
161M19S4,805,experiment,60,↓,down,↓,0.6184607003815472,True,28,1
161M19S4,806,experiment,66,↓,down,↓,0.5797349000349641,True,28,1
161M19S4,807,experiment,50,↓,down,↓,0.6278639999218285,True,28,1
161M19S4,808,experiment,77,←,left,←,0.46467680018395185,True,28,1
161M19S4,809,experiment,65,←,left,←,0.4961083997040987,True,28,1
161M19S4,810,experiment,71,↑,up,↑,0.4203774998895824,True,28,1
161M19S4,811,experiment,54,→,right,→,0.6010806001722813,True,28,1
161M19S4,812,experiment,96,↓,down,↓,0.40913949999958277,True,28,1
161M19S4,813,experiment,89,←,left,←,0.8740608999505639,True,28,1
161M19S4,814,experiment,53,←,left,←,0.6451731002889574,True,28,1
161M19S4,815,experiment,107,→,right,→,0.43959400011226535,True,28,1
161M19S4,816,experiment,52,←,left,←,0.852284399792552,True,28,1
161M19S4,817,experiment,61,→,right,→,0.7976295002736151,True,28,1
161M19S4,818,experiment,87,→,right,→,0.4012640002183616,True,28,1
161M19S4,819,experiment,51,↓,down,↓,0.710763799957931,True,28,0
161M19S4,820,experiment,97,←,left,←,0.5458383997902274,True,28,1
161M19S4,821,experiment,98,↓,down,↓,0.4037826997227967,True,28,1
161M19S4,822,experiment,49,←,left,←,0.7622915003448725,True,28,1
161M19S4,823,experiment,88,↑,up,↑,0.6063824002631009,True,28,1
161M19S4,824,experiment,75,↓,down,↓,0.5727980998344719,True,28,1
161M19S4,825,experiment,81,→,right,→,0.5464815003797412,True,28,1
161M19S4,826,experiment,56,→,right,→,0.5938725001178682,True,28,1
161M19S4,827,experiment,100,↑,up,↑,0.5205452996306121,True,28,1
161M19S4,828,experiment,108,→,right,→,0.4635948999784887,True,28,1
161M19S4,829,experiment,70,→,right,→,0.4774244003929198,True,28,1
161M19S4,830,experiment,55,↓,down,↓,0.7198505997657776,True,28,1
161M19S4,831,experiment,84,→,right,→,0.4229409000836313,True,28,1
161M19S4,832,experiment,92,↑,up,↑,0.550971900112927,True,28,1
161M19S4,833,experiment,62,→,right,→,0.4439905001781881,True,28,1
161M19S4,834,experiment,94,←,left,←,0.5387730998918414,True,28,1
161M19S4,835,experiment,68,↓,down,↓,0.5423344001173973,True,28,1
161M19S4,836,experiment,91,→,right,→,1.0019499002955854,True,28,1
161M19S4,837,experiment,78,→,right,→,0.6235513999126852,True,28,1
161M19S4,838,experiment,59,↓,down,↓,0.6025263997726142,True,28,1
161M19S4,839,experiment,90,→,right,→,0.41291539976373315,True,28,1
161M19S4,840,experiment,73,→,right,→,0.9069980997592211,True,28,1
161M19S4,841,experiment,76,←,left,←,0.5331141999922693,True,28,1
161M19S4,842,experiment,103,↓,down,↓,0.6130991000682116,True,28,1
161M19S4,843,experiment,72,↑,up,↑,0.6682699001394212,True,28,1
161M19S4,844,experiment,69,→,right,→,0.4501616000197828,True,28,1
161M19S4,845,experiment,85,↑,up,↑,0.46770309982821345,True,28,1
161M19S4,846,experiment,79,↓,down,↓,0.6143547999672592,True,28,1
161M19S4,847,experiment,57,↑,up,↑,0.6105418996885419,True,28,1
161M19S4,848,experiment,95,↑,up,↑,0.5941673000343144,True,28,1
161M19S4,849,experiment,67,→,right,→,0.5478974999859929,True,28,1
161M19S4,850,experiment,64,←,left,←,0.7363642998971045,True,28,1
161M19S4,851,experiment,74,←,left,←,0.5700805000960827,True,28,1
161M19S4,852,experiment,83,↓,down,↓,0.5354822003282607,True,28,1
161M19S4,853,experiment,80,↑,up,↑,0.5111716999672353,True,28,1
161M19S4,854,experiment,82,→,right,→,0.5352933001704514,True,28,1
161M19S4,855,experiment,63,→,right,→,0.4446894000284374,True,28,1
161M19S4,856,experiment,48,↑,up,↑,0.6027254997752607,True,28,1
161M19S4,857,experiment,93,↑,up,↑,0.5075416998006403,True,28,1
161M19S4,858,experiment,106,→,right,→,0.4434943003579974,True,28,1
161M19S4,859,experiment,105,↑,up,↑,0.598598400130868,True,28,1
161M19S4,860,training,80,→,right,→,0.4663519999012351,True,28,0
161M19S4,861,training,97,←,left,←,0.49479509983211756,True,28,1
161M19S4,862,experiment,82,↑,up,↑,0.4715932998806238,True,28,1
161M19S4,863,experiment,59,←,left,←,0.5047014001756907,True,28,1
161M19S4,864,experiment,106,↑,up,↑,0.4166792999021709,True,28,1
161M19S4,865,experiment,68,↑,up,↑,0.4331633001565933,True,28,1
161M19S4,866,experiment,80,→,right,→,0.5408377000130713,True,28,1
161M19S4,867,experiment,108,↓,down,↓,0.4989423998631537,True,28,1
161M19S4,868,experiment,99,→,right,→,0.43765039974823594,True,28,1
161M19S4,869,experiment,94,←,left,←,0.3670970001257956,True,28,1
161M19S4,870,experiment,91,→,right,→,0.5428104000166059,True,28,0
161M19S4,871,experiment,81,←,left,←,0.5177928996272385,True,28,1
161M19S4,872,experiment,54,↑,up,↑,0.3756762999109924,True,28,1
161M19S4,873,experiment,58,↓,down,↓,0.5079430001787841,True,28,0
161M19S4,874,experiment,52,↑,up,↑,0.375768699683249,True,28,1
161M19S4,875,experiment,83,↓,left,←,0.4431574000045657,False,28,0
161M19S4,876,experiment,70,↓,down,↓,0.8415664001367986,True,28,1
161M19S4,877,experiment,63,←,left,←,0.5546762999147177,True,28,1
161M19S4,878,experiment,56,↑,up,↑,0.6014271997846663,True,28,1
161M19S4,879,experiment,102,↓,down,↓,0.47915690019726753,True,28,1
161M19S4,880,experiment,98,←,left,←,0.49086689995601773,True,28,1
161M19S4,881,experiment,100,↑,up,↑,0.43774439999833703,True,28,1
161M19S4,882,experiment,53,←,left,←,0.5380789004266262,True,28,1
161M19S4,883,experiment,87,↓,down,↓,0.4710540999658406,True,28,1
161M19S4,884,experiment,88,→,right,→,0.510438000317663,True,28,1
161M19S4,885,experiment,62,↓,down,↓,0.5012197000905871,True,28,1
161M19S4,886,experiment,86,↑,up,↑,0.5002631000243127,True,28,1
161M19S4,887,experiment,48,↓,down,↓,0.5120314001105726,True,28,1
161M19S4,888,experiment,72,←,left,←,0.491550600156188,True,28,1
161M19S4,889,experiment,95,→,right,→,0.6079394998960197,True,28,1
161M19S4,890,experiment,92,↑,up,↑,0.5126033001579344,True,28,1
161M19S4,891,experiment,60,↓,down,↓,0.6077474001795053,True,28,1
161M19S4,892,experiment,104,↓,down,↓,0.564473900012672,True,28,1
161M19S4,893,experiment,76,←,left,←,0.532195100095123,True,28,1
161M19S4,894,experiment,78,↓,down,↓,0.5085390000604093,True,28,1
161M19S4,895,experiment,57,↑,up,↑,0.5653249998576939,True,28,1
161M19S4,896,experiment,93,↑,up,↑,0.5189843000844121,True,28,1
161M19S4,897,experiment,79,↓,down,↓,0.4957620999775827,True,28,1
161M19S4,898,experiment,66,←,left,←,0.533789400011301,True,28,1
161M19S4,899,experiment,69,→,right,→,0.817234099842608,True,28,1
161M19S4,900,experiment,71,↓,down,↓,0.47256219992414117,True,28,1
161M19S4,901,experiment,77,↑,up,↑,0.5317094000056386,True,28,1
161M19S4,902,experiment,90,→,right,→,0.5122972000390291,True,28,1
161M19S4,903,experiment,49,←,right,→,0.8831235999241471,False,28,1
161M19S4,904,experiment,105,↑,up,↑,0.5404134001582861,True,28,1
161M19S4,905,experiment,97,↑,up,↑,0.5421793996356428,True,28,1
161M19S4,906,experiment,96,↓,down,↓,0.5521941999904811,True,28,1
161M19S4,907,experiment,67,↑,up,↑,0.5880166999995708,True,28,1
161M19S4,908,experiment,101,→,right,→,0.4105071001686156,True,28,1
161M19S4,909,experiment,85,↑,up,↑,0.5247758002951741,True,28,1
161M19S4,910,experiment,84,↑,up,↑,0.539468000177294,True,28,1
161M19S4,911,experiment,51,↓,down,↓,0.5565586001612246,True,28,1
161M19S4,912,experiment,64,↑,up,↑,0.5686487997882068,True,28,1
161M19S4,913,experiment,73,↓,down,↓,0.5933664999902248,True,28,1
161M19S4,914,experiment,75,→,right,→,0.4484853995963931,True,28,1
161M19S4,915,experiment,65,↑,up,↑,0.5446087000891566,True,28,1
161M19S4,916,experiment,55,→,right,→,0.504451900254935,True,28,1
161M19S4,917,experiment,61,↑,up,↑,0.43939389986917377,True,28,1
161M19S4,918,experiment,50,↑,up,↑,0.660844000056386,True,28,1
161M19S4,919,experiment,74,←,left,←,0.44155050022527575,True,28,1
161M19S4,920,experiment,107,→,right,→,0.5080165998078883,True,28,1
161M19S4,921,experiment,89,↑,up,↑,0.68168959999457,True,28,1
161M19S4,922,experiment,103,→,right,→,0.47569889994338155,True,28,1
161M19S4,923,training,86,↓,down,↓,0.5114910998381674,True,28,0
161M19S4,924,training,48,→,right,→,0.3841404002159834,True,28,1
161M19S4,925,experiment,100,↑,up,↑,0.5778355998918414,True,28,0
161M19S4,926,experiment,96,→,right,→,0.5144572001881897,True,28,1
161M19S4,927,experiment,102,↑,up,↑,0.4593901000916958,True,28,1
161M19S4,928,experiment,97,↑,up,↑,0.4804467000067234,True,28,1
161M19S4,929,experiment,107,↓,down,↓,0.46510619996115565,True,28,1
161M19S4,930,experiment,63,→,right,→,0.42532149981707335,True,28,1
161M19S4,931,experiment,55,↑,up,↑,0.5018798001110554,True,28,1
161M19S4,932,experiment,62,↑,up,↑,0.42091579968109727,True,28,1
161M19S4,933,experiment,86,↓,down,↓,0.48687390005216,True,28,1
161M19S4,934,experiment,70,←,left,←,0.4198954999446869,True,28,1
161M19S4,935,experiment,60,←,left,←,0.3839114001020789,True,28,1
161M19S4,936,experiment,80,↑,up,↑,0.47655169991776347,True,28,0
161M19S4,937,experiment,81,↓,down,↓,0.5341873001307249,True,28,1
161M19S4,938,experiment,99,↑,down,↓,0.5596117000095546,False,28,1
161M19S4,939,experiment,76,←,left,←,0.8395754997618496,True,28,1
161M19S4,940,experiment,92,→,right,→,0.431029399856925,True,28,1
161M19S4,941,experiment,49,→,right,→,0.4769961000420153,True,28,1
161M19S4,942,experiment,67,←,left,←,0.46758140018209815,True,28,1
161M19S4,943,experiment,104,↓,down,↓,0.4779146001674235,True,28,1
161M19S4,944,experiment,90,↑,up,↑,0.49262759974226356,True,28,1
161M19S4,945,experiment,72,→,right,→,0.5047327000647783,True,28,1
161M19S4,946,experiment,61,←,left,←,0.5598272001370788,True,28,1
161M19S4,947,experiment,57,→,right,→,0.5422113002277911,True,28,1
161M19S4,948,experiment,65,←,left,←,0.6187552995979786,True,28,1
161M19S4,949,experiment,85,←,left,←,0.7734877001494169,True,28,1
161M19S4,950,experiment,98,←,left,←,0.55748560000211,True,28,1
161M19S4,951,experiment,89,↑,up,↑,0.5130978003144264,True,28,1
161M19S4,952,experiment,95,→,right,→,0.47650020010769367,True,28,1
161M19S4,953,experiment,108,←,left,←,0.3755061998963356,True,28,1
161M19S4,954,experiment,66,↓,down,↓,0.5997012001462281,True,28,0
161M19S4,955,experiment,73,↑,up,↑,0.43977370020002127,True,28,1
161M19S4,956,experiment,64,←,left,←,0.9357431996613741,True,28,1
161M19S4,957,experiment,53,←,left,←,0.42470450000837445,True,28,1
161M19S4,958,experiment,75,→,right,→,0.45430410001426935,True,28,1
161M19S4,959,experiment,48,↑,up,↑,0.6597004001960158,True,28,1
161M19S4,960,experiment,79,←,left,←,0.5348469996824861,True,28,1
161M19S4,961,experiment,59,↑,up,↑,0.5416031000204384,True,28,1
161M19S4,962,experiment,106,←,left,←,0.4602091000415385,True,28,1
161M19S4,963,experiment,83,←,left,←,0.6382100996561348,True,28,1
161M19S4,964,experiment,78,→,right,→,0.45815359987318516,True,28,1
161M19S4,965,experiment,58,←,left,←,0.4121090001426637,True,28,1
161M19S4,966,experiment,93,→,right,→,0.42862460017204285,True,28,1
161M19S4,967,experiment,87,←,left,←,0.41439340030774474,True,28,1
161M19S4,968,experiment,52,↑,up,↑,0.44372279988601804,True,28,1
161M19S4,969,experiment,51,↓,up,↑,0.7207929003052413,False,28,1
161M19S4,970,experiment,91,←,left,←,0.7972662001848221,True,28,1
161M19S4,971,experiment,56,↑,up,↑,0.4582524001598358,True,28,1
161M19S4,972,experiment,105,↓,down,↓,0.4686513999477029,True,28,1
161M19S4,973,experiment,84,→,right,→,0.42188110016286373,True,28,1
161M19S4,974,experiment,88,↓,down,↓,0.6791121000424027,True,28,1
161M19S4,975,experiment,74,←,left,←,0.5388755998574197,True,28,1
161M19S4,976,experiment,77,←,left,←,0.4352770000696182,True,28,1
161M19S4,977,experiment,103,↓,down,↓,0.47931209998205304,True,28,1
161M19S4,978,experiment,101,←,left,←,0.5062492997385561,True,28,1
161M19S4,979,experiment,54,←,left,←,0.8194029997102916,True,28,1
161M19S4,980,experiment,71,→,right,→,0.45882860012352467,True,28,1
161M19S4,981,experiment,94,→,right,→,0.5290387002751231,True,28,1
161M19S4,982,experiment,50,↑,up,↑,0.5710466001182795,True,28,1
161M19S4,983,experiment,68,←,left,←,0.4371396997012198,True,28,1
161M19S4,984,experiment,69,↓,down,↓,0.5245272000320256,True,28,1
161M19S4,985,experiment,82,↑,up,↑,0.603838199749589,True,28,1
161M19S4,986,training,60,↑,up,↑,0.3673256002366543,True,28,0
161M19S4,987,training,48,↓,down,↓,0.5527147999964654,True,28,0
161M19S4,988,experiment,86,←,left,←,0.42970680026337504,True,28,1
161M19S4,989,experiment,93,←,left,←,0.5174869000911713,True,28,1
161M19S4,990,experiment,74,←,left,←,0.4559279000386596,True,28,1
161M19S4,991,experiment,94,↓,down,↓,0.40646040020510554,True,28,1
161M19S4,992,experiment,51,←,left,←,0.3842317000962794,True,28,1
161M19S4,993,experiment,97,↑,up,↑,0.3674204000271857,True,28,0
161M19S4,994,experiment,103,←,left,←,0.3840024000965059,True,28,0
161M19S4,995,experiment,95,←,left,←,0.4508042000234127,True,28,0
161M19S4,996,experiment,64,↑,up,↑,0.40397149976342916,True,28,1
161M19S4,997,experiment,61,↑,up,↑,0.46247729985043406,True,28,0
161M19S4,998,experiment,67,→,right,→,0.5012302999384701,True,28,1
161M19S4,999,experiment,85,↓,down,↓,0.5246824999339879,True,28,1
161M19S4,1000,experiment,89,→,right,→,0.47374900011345744,True,28,1
161M19S4,1001,experiment,106,←,left,←,0.47512640012428164,True,28,1
161M19S4,1002,experiment,71,→,right,→,0.4562459997832775,True,28,1
161M19S4,1003,experiment,50,→,right,→,0.500963700003922,True,28,1
161M19S4,1004,experiment,80,↑,up,↑,0.493939199950546,True,28,1
161M19S4,1005,experiment,76,↓,down,↓,0.3840041998773813,True,28,1
161M19S4,1006,experiment,83,→,right,→,0.4291679998859763,True,28,0
161M19S4,1007,experiment,78,↓,down,↓,0.481610500253737,True,28,1
161M19S4,1008,experiment,62,↓,down,↓,0.4491989999078214,True,28,1
161M19S4,1009,experiment,92,→,right,→,0.42447529966011643,True,28,1
161M19S4,1010,experiment,84,↑,up,↑,0.41161479987204075,True,28,1
161M19S4,1011,experiment,69,←,left,←,0.5312728001736104,True,28,1
161M19S4,1012,experiment,54,↓,down,↓,0.35068250028416514,True,28,1
161M19S4,1013,experiment,101,↑,up,↑,0.7793727000243962,True,28,0
161M19S4,1014,experiment,48,↓,down,↓,0.49978299997746944,True,28,1
161M19S4,1015,experiment,55,↑,up,↑,0.5971415000967681,True,28,1
161M19S4,1016,experiment,81,→,right,→,0.5940372999757528,True,28,1
161M19S4,1017,experiment,96,↓,down,↓,0.5380386998876929,True,28,1
161M19S4,1018,experiment,75,↑,up,↑,0.5390666997991502,True,28,1
161M19S4,1019,experiment,63,←,left,←,0.4322115001268685,True,28,1
161M19S4,1020,experiment,72,←,left,←,0.5505834999494255,True,28,1
161M19S4,1021,experiment,66,←,left,←,0.5863838996738195,True,28,1
161M19S4,1022,experiment,107,↑,up,↑,0.5590033000335097,True,28,1
161M19S4,1023,experiment,104,↓,down,↓,0.45366810029372573,True,28,1
161M19S4,1024,experiment,59,←,left,←,0.6237893998622894,True,28,1
161M19S4,1025,experiment,57,→,right,→,0.5157256997190416,True,28,1
161M19S4,1026,experiment,49,←,left,←,0.4224518998526037,True,28,1
161M19S4,1027,experiment,56,←,left,←,0.41873479960486293,True,28,1
161M19S4,1028,experiment,98,↑,up,↑,0.45670520002022386,True,28,1
161M19S4,1029,experiment,82,↓,down,↓,0.5705853998661041,True,28,1
161M19S4,1030,experiment,99,↓,down,↓,0.914529399946332,True,28,1
161M19S4,1031,experiment,102,→,right,→,0.427838500123471,True,28,1
161M19S4,1032,experiment,90,↓,down,↓,0.8443086999468505,True,28,1
161M19S4,1033,experiment,91,↑,up,↑,0.8280257000587881,True,28,1
161M19S4,1034,experiment,88,↓,down,↓,0.5493434998206794,True,28,1
161M19S4,1035,experiment,68,↓,down,↓,0.457279599737376,True,28,1
161M19S4,1036,experiment,79,↑,up,↑,0.49948770040646195,True,28,1
161M19S4,1037,experiment,87,↑,up,↑,0.4183276002295315,True,28,1
161M19S4,1038,experiment,70,→,right,→,0.4499583998695016,True,28,1
161M19S4,1039,experiment,53,←,left,←,0.46205729991197586,True,28,1
161M19S4,1040,experiment,52,↓,down,↓,0.5781744997948408,True,28,1
161M19S4,1041,experiment,58,↓,down,↓,0.6716362000443041,True,28,1
161M19S4,1042,experiment,108,↑,up,↑,0.5603972999379039,True,28,1
161M19S4,1043,experiment,105,↓,down,↓,0.4626798997633159,True,28,1
161M19S4,1044,experiment,73,←,left,←,0.5235052001662552,True,28,1
161M19S4,1045,experiment,65,↓,down,↓,0.5205220002681017,True,28,1
161M19S4,1046,experiment,77,←,left,←,1.0338973002508283,True,28,1
161M19S4,1047,experiment,100,→,right,→,0.40754149993881583,True,28,1
161M19S4,1048,experiment,60,→,right,→,0.36746490001678467,True,28,0
161M19S4,1049,training,83,↑,up,↑,0.42552969977259636,True,28,0
161M19S4,1050,training,60,↑,up,↑,0.428394400049001,True,28,1
161M19S4,1051,experiment,63,↓,down,↓,0.605630099773407,True,28,1
161M19S4,1052,experiment,89,→,right,→,0.4234174997545779,True,28,1
161M19S4,1053,experiment,83,←,left,←,0.5064771999605,True,28,1
161M19S4,1054,experiment,100,↑,up,↑,0.5004881997592747,True,28,1
161M19S4,1055,experiment,70,↓,down,↓,0.5049065998755395,True,28,1
161M19S4,1056,experiment,76,→,right,→,0.4114593002013862,True,28,1
161M19S4,1057,experiment,82,↓,down,↓,0.3758220998570323,True,28,1
161M19S4,1058,experiment,59,↑,up,↑,0.5477137002162635,True,28,0
161M19S4,1059,experiment,75,↓,down,↓,0.6442033001221716,True,28,1
161M19S4,1060,experiment,86,←,left,←,0.5817109998315573,True,28,1
161M19S4,1061,experiment,96,↑,up,↑,0.5340582998469472,True,28,1
161M19S4,1062,experiment,97,←,left,←,0.568085300270468,True,28,1
161M19S4,1063,experiment,69,↑,up,↑,0.36744249984622,True,28,1
161M19S4,1064,experiment,94,↓,down,↓,0.5634925998747349,True,28,0
161M19S4,1065,experiment,54,↓,down,↓,0.38401699997484684,True,28,1
161M19S4,1066,experiment,99,↓,down,↓,0.5542431003414094,True,28,0
161M19S4,1067,experiment,90,↓,down,↓,0.5253861001692712,True,28,1
161M19S4,1068,experiment,98,→,right,→,0.5753786000423133,True,28,1
161M19S4,1069,experiment,58,→,right,→,0.6768760001286864,True,28,1
161M19S4,1070,experiment,57,↓,down,↓,0.45449559995904565,True,28,1
161M19S4,1071,experiment,49,←,left,←,0.5077571999281645,True,28,1
161M19S4,1072,experiment,106,↓,down,↓,0.42792099993675947,True,28,1
161M19S4,1073,experiment,92,→,right,→,0.45142259960994124,True,28,1
161M19S4,1074,experiment,105,↓,down,↓,0.41473779967054725,True,28,1
161M19S4,1075,experiment,95,←,left,←,0.35923870000988245,True,28,1
161M19S4,1076,experiment,93,←,left,←,0.46390810003504157,True,28,0
161M19S4,1077,experiment,55,→,right,→,0.45031689992174506,True,28,1
161M19S4,1078,experiment,79,→,right,→,0.429857200011611,True,28,1
161M19S4,1079,experiment,65,→,right,→,0.846515899989754,True,28,1
161M19S4,1080,experiment,108,↓,down,↓,0.6643192996270955,True,28,1
161M19S4,1081,experiment,78,↓,down,↓,0.5792956999503076,True,28,1
161M19S4,1082,experiment,102,→,right,→,0.4178780000656843,True,28,1
161M19S4,1083,experiment,88,↑,up,↑,0.5473726000636816,True,28,1
161M19S4,1084,experiment,103,→,right,→,0.4348176000639796,True,28,1
161M19S4,1085,experiment,104,→,right,→,0.47855819994583726,True,28,1
161M19S4,1086,experiment,91,↓,down,↓,0.6449672998860478,True,28,1
161M19S4,1087,experiment,50,↑,up,↑,0.6582907000556588,True,28,1
161M19S4,1088,experiment,74,←,left,←,0.5030327001586556,True,28,1
161M19S4,1089,experiment,62,→,right,→,0.6220740000717342,True,28,1
161M19S4,1090,experiment,101,↓,down,↓,0.6111359000205994,True,28,1
161M19S4,1091,experiment,72,→,right,→,0.434500599745661,True,28,1
161M19S4,1092,experiment,68,↑,up,↑,0.7064780998043716,True,28,1
161M19S4,1093,experiment,77,←,down,↓,1.1080514998175204,False,28,1
161M19S4,1094,experiment,64,↑,up,↑,0.41073139989748597,True,28,1
161M19S4,1095,experiment,87,→,right,→,0.41265759989619255,True,28,1
161M19S4,1096,experiment,73,→,right,→,0.5708615998737514,True,28,1
161M19S4,1097,experiment,61,←,left,←,0.5113119999878109,True,28,1
161M19S4,1098,experiment,80,↑,up,↑,0.504131400026381,True,28,1
161M19S4,1099,experiment,48,←,left,←,0.8113802000880241,True,28,1
161M19S4,1100,experiment,85,→,right,→,0.5585159999318421,True,28,1
161M19S4,1101,experiment,84,↓,down,↓,0.5001957002095878,True,28,1
161M19S4,1102,experiment,67,→,right,→,0.5058770002797246,True,28,1
161M19S4,1103,experiment,53,←,left,←,0.5152234002016485,True,28,1
161M19S4,1104,experiment,66,→,right,→,0.528241999913007,True,28,1
161M19S4,1105,experiment,56,↓,down,↓,0.5443041999824345,True,28,1
161M19S4,1106,experiment,107,↑,up,↑,0.5586365000344813,True,28,1
161M19S4,1107,experiment,81,↑,up,↑,0.44493169989436865,True,28,1
161M19S4,1108,experiment,52,←,left,←,0.5297427996993065,True,28,1
161M19S4,1109,experiment,51,↓,down,↓,0.7632566001266241,True,28,1
161M19S4,1110,experiment,60,←,left,←,0.4962487001903355,True,28,1
161M19S4,1111,experiment,71,↓,down,↓,0.948418399784714,True,28,1
161M19S4,1112,training,99,↑,up,↑,0.552347700111568,True,28,0
161M19S4,1113,training,97,←,left,←,0.5217324001714587,True,28,1
161M19S4,1114,experiment,71,←,left,←,0.4054079996421933,True,28,1
161M19S4,1115,experiment,85,↓,down,↓,0.519936699885875,True,28,0
161M19S4,1116,experiment,58,↓,down,↓,0.3421189999207854,True,28,1
161M19S4,1117,experiment,107,→,right,→,0.48585679987445474,True,28,0
161M19S4,1118,experiment,105,↑,up,↑,0.43929870007559657,True,28,1
161M19S4,1119,experiment,56,→,right,→,0.46653510024771094,True,28,1
161M19S4,1120,experiment,66,←,left,←,0.5217617000453174,True,28,1
161M19S4,1121,experiment,90,↓,down,↓,0.7823161999695003,True,28,1
161M19S4,1122,experiment,54,↑,up,↑,0.5407430999912322,True,28,1
161M19S4,1123,experiment,86,→,right,→,0.4340384998358786,True,28,1
161M19S4,1124,experiment,63,←,left,←,0.5555202998220921,True,28,1
161M19S4,1125,experiment,75,←,left,←,0.3674543001689017,True,28,1
161M19S4,1126,experiment,67,↓,down,↓,0.5905322995968163,True,28,0
161M19S4,1127,experiment,74,↓,down,↓,0.42977039981633425,True,28,1
161M19S4,1128,experiment,72,↓,down,↓,0.42865570029243827,True,28,1
161M19S4,1129,experiment,104,←,left,←,0.5602091001346707,True,28,1
161M19S4,1130,experiment,93,↓,down,↓,0.4112265999428928,True,28,1
161M19S4,1131,experiment,50,↓,down,↓,0.64940349990502,True,28,1
161M19S4,1132,experiment,82,←,left,←,0.4437533002346754,True,28,1
161M19S4,1133,experiment,55,←,left,←,0.6154820001684129,True,28,1
161M19S4,1134,experiment,108,←,left,←,0.4346187999472022,True,28,1
161M19S4,1135,experiment,97,←,right,→,0.5766830998472869,False,28,1
161M19S4,1136,experiment,88,↓,down,↓,0.4280960001051426,True,28,1
161M19S4,1137,experiment,95,↑,up,↑,0.499084800016135,True,28,1
161M19S4,1138,experiment,77,↑,up,↑,0.5252116001211107,True,28,1
161M19S4,1139,experiment,101,←,left,←,0.40679659973829985,True,28,1
161M19S4,1140,experiment,102,↑,up,↑,0.41931680031120777,True,28,1
161M19S4,1141,experiment,100,→,right,→,0.6250720000825822,True,28,1
161M19S4,1142,experiment,62,↑,up,↑,0.5872035003267229,True,28,1
161M19S4,1143,experiment,80,↑,up,↑,0.5687540997751057,True,28,1
161M19S4,1144,experiment,92,→,right,→,0.451167399995029,True,28,1
161M19S4,1145,experiment,78,↑,up,↑,0.646907199639827,True,28,1
161M19S4,1146,experiment,68,↑,up,↑,0.4380993000231683,True,28,1
161M19S4,1147,experiment,81,→,right,→,0.57711820024997,True,28,1
161M19S4,1148,experiment,76,←,left,←,0.4089814000762999,True,28,1
161M19S4,1149,experiment,99,↓,down,↓,0.5185139998793602,True,28,1
161M19S4,1150,experiment,51,→,right,→,0.5526574999094009,True,28,1
161M19S4,1151,experiment,65,↑,up,↑,0.6688124998472631,True,28,1
161M19S4,1152,experiment,49,←,left,←,0.5214699003845453,True,28,1
161M19S4,1153,experiment,94,↓,down,↓,0.5809003002941608,True,28,1
161M19S4,1154,experiment,73,←,left,←,0.860816199798137,True,28,1
161M19S4,1155,experiment,87,→,right,→,0.4532266999594867,True,28,1
161M19S4,1156,experiment,98,↑,up,↑,0.706239600200206,True,28,1
161M19S4,1157,experiment,96,↑,up,↑,0.5736032002605498,True,28,1
161M19S4,1158,experiment,53,←,right,→,0.7888556998223066,False,28,1
161M19S4,1159,experiment,59,↑,up,↑,0.5694285999052227,True,28,1
161M19S4,1160,experiment,103,→,right,→,0.4878563000820577,True,28,1
161M19S4,1161,experiment,91,↑,up,↑,0.6217728997580707,True,28,1
161M19S4,1162,experiment,48,→,right,→,0.5644188998267055,True,28,1
161M19S4,1163,experiment,60,←,left,←,0.6256091999821365,True,28,1
161M19S4,1164,experiment,70,←,left,←,0.528898200020194,True,28,1
161M19S4,1165,experiment,79,↑,up,↑,0.6253597000613809,True,28,1
161M19S4,1166,experiment,106,←,left,←,0.5726677002385259,True,28,1
161M19S4,1167,experiment,84,↑,up,↑,0.4813089002855122,True,28,1
161M19S4,1168,experiment,83,→,right,→,0.6181230996735394,True,28,1
161M19S4,1169,experiment,52,↑,up,↑,0.671819900162518,True,28,1
161M19S4,1170,experiment,64,←,left,←,0.46321210032328963,True,28,1
161M19S4,1171,experiment,69,←,left,←,0.5736781000159681,True,28,1
161M19S4,1172,experiment,61,←,left,←,0.5059779998846352,True,28,1
161M19S4,1173,experiment,57,↓,down,↓,0.7384366001933813,True,28,1
161M19S4,1174,experiment,89,←,left,←,0.6068041999824345,True,28,1
161M19S4,1175,training,66,↑,up,↑,0.4868230000138283,True,28,0
161M19S4,1176,training,108,←,left,←,0.9030682998709381,True,28,1
161M19S4,1177,experiment,90,←,left,←,0.8288250002078712,True,28,1
161M19S4,1178,experiment,48,→,right,→,0.5076179001480341,True,28,1
161M19S4,1179,experiment,63,↓,down,↓,0.44196589989587665,True,28,1
161M19S4,1180,experiment,52,↓,down,↓,0.4230043003335595,True,28,1
161M19S4,1181,experiment,95,→,right,→,0.5018372000195086,True,28,1
161M19S4,1182,experiment,51,→,right,→,0.5207485998980701,True,28,1
161M19S4,1183,experiment,64,↑,up,↑,0.49442650005221367,True,28,1
161M19S4,1184,experiment,100,←,right,→,0.5210801996290684,False,28,1
161M19S4,1185,experiment,108,↓,down,↓,0.559863000176847,True,28,1
161M19S4,1186,experiment,74,↓,down,↓,0.42471269983798265,True,28,1
161M19S4,1187,experiment,79,↑,up,↑,0.46896230010315776,True,28,1
161M19S4,1188,experiment,88,→,right,→,0.548794399946928,True,28,1
161M19S4,1189,experiment,105,↓,down,↓,0.5633895001374185,True,28,1
161M19S4,1190,experiment,98,→,right,→,0.5398555002175272,True,28,1
161M19S4,1191,experiment,70,↑,up,↑,0.7105700997635722,True,28,1
161M19S4,1192,experiment,62,↓,down,↓,0.8212355002760887,True,28,1
161M19S4,1193,experiment,81,↑,up,↑,0.5289672999642789,True,28,1
161M19S4,1194,experiment,50,↓,down,↓,0.6030912003479898,True,28,1
161M19S4,1195,experiment,58,←,left,←,0.6315445001237094,True,28,1
161M19S4,1196,experiment,85,↑,up,↑,0.8254757998511195,True,28,1
161M19S4,1197,experiment,68,←,left,←,1.3854712997563183,True,28,1
161M19S4,1198,experiment,55,↓,down,↓,0.5035397000610828,True,28,1
161M19S4,1199,experiment,56,←,left,←,0.5845125000923872,True,28,1
161M19S4,1200,experiment,54,←,left,←,0.431107500102371,True,28,1
161M19S4,1201,experiment,89,↓,down,↓,0.48798830015584826,True,28,1
161M19S4,1202,experiment,102,→,right,→,0.5139728998765349,True,28,1
161M19S4,1203,experiment,93,→,right,→,0.46198979998007417,True,28,1
161M19S4,1204,experiment,69,→,right,→,0.5163312000222504,True,28,1
161M19S4,1205,experiment,67,↑,up,↑,0.5938087003305554,True,28,1
161M19S4,1206,experiment,91,→,right,→,0.5468719000928104,True,28,1
161M19S4,1207,experiment,96,←,left,←,0.4767379001714289,True,28,1
161M19S4,1208,experiment,84,→,right,→,0.4454952999949455,True,28,1
161M19S4,1209,experiment,61,↑,up,↑,0.9749293997883797,True,28,1
161M19S4,1210,experiment,76,↑,up,↑,0.4703458999283612,True,28,1
161M19S4,1211,experiment,49,↑,up,↑,0.6031365999951959,True,28,1
161M19S4,1212,experiment,75,←,left,←,0.45777680026367307,True,28,1
161M19S4,1213,experiment,57,←,left,←,0.5885792002081871,True,28,1
161M19S4,1214,experiment,86,↓,down,↓,0.543737499974668,True,28,1
161M19S4,1215,experiment,99,←,left,←,0.5126872002147138,True,28,1
161M19S4,1216,experiment,78,→,right,→,0.6258522998541594,True,28,1
161M19S4,1217,experiment,107,↑,up,↑,0.5727595998905599,True,28,1
161M19S4,1218,experiment,65,↑,up,↑,0.439883999992162,True,28,1
161M19S4,1219,experiment,92,←,left,←,0.35930849984288216,True,28,1
161M19S4,1220,experiment,71,↓,left,←,0.47269519977271557,False,28,0
161M19S4,1221,experiment,80,↓,up,↑,1.1467230999842286,False,28,1
161M19S4,1222,experiment,72,←,left,←,0.5566011997871101,True,28,1
161M19S4,1223,experiment,53,↑,up,↑,0.4283217997290194,True,28,1
161M19S4,1224,experiment,66,←,left,←,0.4525321996770799,True,28,1
161M19S4,1225,experiment,104,↓,down,↓,0.6556770000606775,True,28,1
161M19S4,1226,experiment,103,↓,down,↓,0.7387166996486485,True,28,1
161M19S4,1227,experiment,97,←,left,←,0.5003430000506341,True,28,1
161M19S4,1228,experiment,60,←,right,→,1.044149000197649,False,28,1
161M19S4,1229,experiment,106,↓,down,↓,0.8627062002196908,True,28,1
161M19S4,1230,experiment,101,↓,down,↓,0.5065287002362311,True,28,1
161M19S4,1231,experiment,59,←,left,←,0.5382554000243545,True,28,1
161M19S4,1232,experiment,77,↓,down,↓,0.47457299986854196,True,28,1
161M19S4,1233,experiment,87,→,right,→,0.48231530003249645,True,28,1
161M19S4,1234,experiment,83,→,right,→,0.7630511997267604,True,28,1
161M19S4,1235,experiment,94,→,right,→,0.5250393999740481,True,28,1
161M19S4,1236,experiment,82,←,left,←,0.8284133998677135,True,28,1
161M19S4,1237,experiment,73,→,right,→,0.4108452000655234,True,28,1
161M19S4,1238,training,48,↑,up,↑,0.48753869999200106,True,28,0
161M19S4,1239,training,83,↑,up,↑,0.831950600259006,True,28,1
161M19S4,1240,experiment,106,→,right,→,0.5069821998476982,True,28,1
161M19S4,1241,experiment,53,↓,down,↓,0.5408288999460638,True,28,1
161M19S4,1242,experiment,50,→,right,→,0.7422054000198841,True,28,1
161M19S4,1243,experiment,101,↓,down,↓,0.5426129996776581,True,28,1
161M19S4,1244,experiment,69,↑,up,↑,0.5776185998693109,True,28,1
161M19S4,1245,experiment,97,↑,up,↑,0.6020015003159642,True,28,1
161M19S4,1246,experiment,92,↓,down,↓,0.4430064996704459,True,28,1
161M19S4,1247,experiment,99,↑,up,↑,0.6641861000098288,True,28,1
161M19S4,1248,experiment,108,→,right,→,0.4333828999660909,True,28,1
161M19S4,1249,experiment,63,↑,up,↑,0.5145372999832034,True,28,1
161M19S4,1250,experiment,91,→,right,→,0.4554239003919065,True,28,1
161M19S4,1251,experiment,86,↓,down,↓,0.4881406999193132,True,28,1
161M19S4,1252,experiment,87,→,right,→,0.855132999829948,True,28,1
161M19S4,1253,experiment,105,←,left,←,0.5054333000443876,True,28,1
161M19S4,1254,experiment,64,↓,down,↓,0.7514654998667538,True,28,1
161M19S4,1255,experiment,82,←,left,←,0.5419271998107433,True,28,1
161M19S4,1256,experiment,76,↓,down,↓,0.5666579999960959,True,28,1
161M19S4,1257,experiment,85,←,left,←,0.4593408997170627,True,28,1
161M19S4,1258,experiment,81,→,right,→,0.4699412998743355,True,28,1
161M19S4,1259,experiment,49,↓,down,↓,0.5704951002262533,True,28,1
161M19S4,1260,experiment,100,←,left,←,0.5382106001488864,True,28,1
161M19S4,1261,experiment,84,→,right,→,0.6482910998165607,True,28,1
161M19S4,1262,experiment,77,→,right,→,0.628356299828738,True,28,1
161M19S4,1263,experiment,95,↓,down,↓,0.539404499810189,True,28,1
161M19S4,1264,experiment,94,↑,up,↑,0.6540469001047313,True,28,1
161M19S4,1265,experiment,78,↑,up,↑,0.6817475999705493,True,28,1
161M19S4,1266,experiment,60,→,right,→,0.5221870001405478,True,28,1
161M19S4,1267,experiment,80,←,left,←,0.85035299975425,True,28,1
161M19S4,1268,experiment,83,→,right,→,0.9882459999062121,True,28,1
161M19S4,1269,experiment,71,→,right,→,0.6129511003382504,True,28,1
161M19S4,1270,experiment,75,←,left,←,0.5150676998309791,True,28,1
161M19S4,1271,experiment,67,←,right,→,0.6558668999932706,False,28,1
161M19S4,1272,experiment,55,↑,up,↑,0.8508265004493296,True,28,1
161M19S4,1273,experiment,103,↑,up,↑,0.6782104000449181,True,28,1
161M19S4,1274,experiment,57,↑,up,↑,0.5839348002336919,True,28,1
161M19S4,1275,experiment,58,→,right,→,0.5170482997782528,True,28,1
161M19S4,1276,experiment,89,←,left,←,0.5384413003921509,True,28,1
161M19S4,1277,experiment,98,↑,up,↑,0.5557496999390423,True,28,1
161M19S4,1278,experiment,73,→,right,→,0.5727992998436093,True,28,1
161M19S4,1279,experiment,79,↑,up,↑,0.5632903999648988,True,28,1
161M19S4,1280,experiment,52,←,left,←,0.5949401003308594,True,28,1
161M19S4,1281,experiment,104,↑,up,↑,0.5121836001053452,True,28,1
161M19S4,1282,experiment,96,←,left,←,0.5877360999584198,True,28,1
161M19S4,1283,experiment,56,→,right,→,0.5692339995875955,True,28,1
161M19S4,1284,experiment,72,↑,up,↑,0.5465060998685658,True,28,1
161M19S4,1285,experiment,54,←,left,←,0.5939163998700678,True,28,1
161M19S4,1286,experiment,48,↓,up,↑,0.8902627001516521,False,28,1
161M19S4,1287,experiment,59,→,right,→,0.6743994997814298,True,28,1
161M19S4,1288,experiment,61,→,right,→,0.7628434998914599,True,28,1
161M19S4,1289,experiment,62,←,left,←,0.583266600035131,True,28,1
161M19S4,1290,experiment,93,↓,down,↓,0.7846802999265492,True,28,1
161M19S4,1291,experiment,65,↓,down,↓,0.6353910998441279,True,28,1
161M19S4,1292,experiment,74,→,right,→,0.609130600001663,True,28,1
161M19S4,1293,experiment,70,→,right,→,0.7531376001425087,True,28,1
161M19S4,1294,experiment,51,↑,up,↑,0.6178489001467824,True,28,1
161M19S4,1295,experiment,88,→,left,←,0.8756239996291697,False,28,1
161M19S4,1296,experiment,90,←,left,←,0.5702289999462664,True,28,1
161M19S4,1297,experiment,68,↑,up,↑,0.5966779999434948,True,28,1
161M19S4,1298,experiment,66,↓,down,↓,0.6066506998613477,True,28,1
161M19S4,1299,experiment,107,↑,up,↑,0.5300888000056148,True,28,1
161M19S4,1300,experiment,102,→,right,→,0.6584842000156641,True,28,1
161M19S4,1301,training,81,→,right,→,0.5648980000987649,True,28,0
161M19S4,1302,training,61,→,right,→,0.6095652999356389,True,28,1
161M19S4,1303,experiment,78,←,left,←,0.5111715001985431,True,28,1
161M19S4,1304,experiment,96,→,right,→,0.44234210019931197,True,28,1
161M19S4,1305,experiment,79,↓,down,↓,0.4223032998852432,True,28,1
161M19S4,1306,experiment,66,←,left,←,0.5108674000948668,True,28,1
161M19S4,1307,experiment,106,↓,down,↓,0.6468766001053154,True,28,1
161M19S4,1308,experiment,92,←,left,←,0.4780043000355363,True,28,1
161M19S4,1309,experiment,58,↓,down,↓,0.527397199999541,True,28,1
161M19S4,1310,experiment,64,↑,up,↑,0.7008334002457559,True,28,1
161M19S4,1311,experiment,102,↑,up,↑,0.6624580002389848,True,28,1
161M19S4,1312,experiment,56,←,left,←,0.7768013002350926,True,28,1
161M19S4,1313,experiment,86,↓,down,↓,0.45324019994586706,True,28,1
161M19S4,1314,experiment,105,↓,down,↓,0.6557315001264215,True,28,1
161M19S4,1315,experiment,75,→,right,→,0.5719554000534117,True,28,1
161M19S4,1316,experiment,104,↑,up,↑,0.5460525001399219,True,28,1
161M19S4,1317,experiment,62,→,right,→,0.6230473998002708,True,28,1
161M19S4,1318,experiment,50,↓,down,↓,0.5251988000236452,True,28,1
161M19S4,1319,experiment,87,→,right,→,0.5229612002149224,True,28,1
161M19S4,1320,experiment,97,↑,up,↑,0.4693138999864459,True,28,1
161M19S4,1321,experiment,93,↑,up,↑,0.4433575002476573,True,28,1
161M19S4,1322,experiment,51,↑,up,↑,0.8403333998285234,True,28,1
161M19S4,1323,experiment,55,↑,up,↑,0.6282432000152767,True,28,1
161M19S4,1324,experiment,54,←,right,→,0.7848861999809742,False,28,1
161M19S4,1325,experiment,80,→,right,→,0.4307241002097726,True,28,1
161M19S4,1326,experiment,84,↓,down,↓,0.5851112003438175,True,28,1
161M19S4,1327,experiment,76,→,right,→,0.504069599788636,True,28,1
161M19S4,1328,experiment,108,←,left,←,0.663440499920398,True,28,1
161M19S4,1329,experiment,70,↓,down,↓,0.6771283000707626,True,28,1
161M19S4,1330,experiment,85,←,right,→,0.8535851999185979,False,28,1
161M19S4,1331,experiment,83,←,left,←,0.8475611000321805,True,28,1
161M19S4,1332,experiment,82,→,right,→,0.7138960999436677,True,28,1
161M19S4,1333,experiment,65,→,right,→,0.5912600997835398,True,28,1
161M19S4,1334,experiment,101,←,left,←,0.50174540001899,True,28,1
161M19S4,1335,experiment,52,↓,down,↓,0.5041406000964344,True,28,1
161M19S4,1336,experiment,90,↓,down,↓,0.5338618000969291,True,28,1
161M19S4,1337,experiment,72,←,left,←,0.9122200002893806,True,28,1
161M19S4,1338,experiment,71,↑,up,↑,0.483943700324744,True,28,1
161M19S4,1339,experiment,73,→,right,→,0.4720574002712965,True,28,1
161M19S4,1340,experiment,61,→,right,→,0.6244032997637987,True,28,1
161M19S4,1341,experiment,95,→,right,→,0.42361459974199533,True,28,1
161M19S4,1342,experiment,68,↑,up,↑,0.6875583999790251,True,28,1
161M19S4,1343,experiment,53,→,right,→,0.6421145997010171,True,28,1
161M19S4,1344,experiment,63,←,left,←,0.731029300019145,True,28,1
161M19S4,1345,experiment,60,→,right,→,0.44961069989949465,True,28,1
161M19S4,1346,experiment,103,←,left,←,0.5328505001962185,True,28,1
161M19S4,1347,experiment,98,↓,down,↓,0.6467646001838148,True,28,1
161M19S4,1348,experiment,88,→,right,→,0.510969499591738,True,28,1
161M19S4,1349,experiment,81,↑,up,↑,0.6633739997632802,True,28,1
161M19S4,1350,experiment,59,↑,up,↑,0.6010689996182919,True,28,1
161M19S4,1351,experiment,77,←,left,←,0.48716520005837083,True,28,1
161M19S4,1352,experiment,89,↓,down,↓,0.6939765000715852,True,28,1
161M19S4,1353,experiment,94,↑,up,↑,0.6184791000559926,True,28,1
161M19S4,1354,experiment,100,↓,down,↓,0.736379399895668,True,28,1
161M19S4,1355,experiment,99,↓,down,↓,0.5536277000792325,True,28,1
161M19S4,1356,experiment,74,←,left,←,0.5307240998372436,True,28,1
161M19S4,1357,experiment,48,↑,up,↑,0.7012600000016391,True,28,1
161M19S4,1358,experiment,49,↑,up,↑,0.5525298002175987,True,28,1
161M19S4,1359,experiment,67,→,right,→,0.7399504003114998,True,28,1
161M19S4,1360,experiment,107,→,right,→,0.5463169999420643,True,28,1
161M19S4,1361,experiment,69,↓,down,↓,0.5172268003225327,True,28,1
161M19S4,1362,experiment,57,←,left,←,0.6611370001919568,True,28,1
161M19S4,1363,experiment,91,↑,up,↑,0.6361539997160435,True,28,1
161M19S4,1364,training,67,↓,down,↓,0.4670504997484386,True,28,0
161M19S4,1365,training,76,↓,down,↓,0.5829921001568437,True,28,1
161M19S4,1366,experiment,63,→,right,→,0.41041160002350807,True,28,1
161M19S4,1367,experiment,62,→,right,→,0.5165404002182186,True,28,1
161M19S4,1368,experiment,105,↓,down,↓,0.5326899001374841,True,28,1
161M19S4,1369,experiment,53,↑,up,↑,0.557483300101012,True,28,1
161M19S4,1370,experiment,100,←,left,←,0.40608879970386624,True,28,1
161M19S4,1371,experiment,89,←,left,←,0.41555429995059967,True,28,0
161M19S4,1372,experiment,69,↑,up,↑,0.5513675999827683,True,28,1
161M19S4,1373,experiment,57,↓,down,↓,0.48608959978446364,True,28,1
161M19S4,1374,experiment,56,↑,up,↑,0.6238520997576416,True,28,1
161M19S4,1375,experiment,68,↓,down,↓,0.48789640003815293,True,28,1
161M19S4,1376,experiment,70,→,right,→,0.4368222998455167,True,28,1
161M19S4,1377,experiment,84,↑,up,↑,0.5270926002413034,True,28,1
161M19S4,1378,experiment,80,→,right,→,0.5511007001623511,True,28,1
161M19S4,1379,experiment,59,↓,down,↓,0.6772332000546157,True,28,1
161M19S4,1380,experiment,101,↑,up,↑,0.40881270030513406,True,28,1
161M19S4,1381,experiment,88,←,left,←,0.5702651999890804,True,28,1
161M19S4,1382,experiment,60,←,left,←,0.5431238003075123,True,28,1
161M19S4,1383,experiment,96,←,left,←,0.5931135001592338,True,28,1
161M19S4,1384,experiment,73,→,right,→,0.6489287000149488,True,28,1
161M19S4,1385,experiment,76,↑,up,↑,0.6293876999989152,True,28,1
161M19S4,1386,experiment,78,↓,down,↓,0.7457710998132825,True,28,1
161M19S4,1387,experiment,99,→,right,→,0.6907746000215411,True,28,1
161M19S4,1388,experiment,97,→,right,→,0.454262999817729,True,28,1
161M19S4,1389,experiment,86,→,right,→,0.519632900133729,True,28,1
161M19S4,1390,experiment,103,→,right,→,0.4243263998068869,True,28,1
161M19S4,1391,experiment,50,↓,down,↓,0.6623048996552825,True,28,1
161M19S4,1392,experiment,106,↓,down,↓,0.6482453001663089,True,28,1
161M19S4,1393,experiment,75,↓,down,↓,0.5090198004618287,True,28,1
161M19S4,1394,experiment,81,↓,down,↓,0.509385499637574,True,28,1
161M19S4,1395,experiment,72,↓,down,↓,0.8888526000082493,True,28,1
161M19S4,1396,experiment,54,↑,up,↑,0.5948059000074863,True,28,1
161M19S4,1397,experiment,82,↓,down,↓,0.47949769999831915,True,28,1
161M19S4,1398,experiment,52,←,left,←,0.6509171999059618,True,28,1
161M19S4,1399,experiment,95,↓,down,↓,0.4887798000127077,True,28,1
161M19S4,1400,experiment,87,↑,up,↑,0.7359374002553523,True,28,1
161M19S4,1401,experiment,83,→,right,→,0.694429200142622,True,28,1
161M19S4,1402,experiment,51,↓,down,↓,0.5055174003355205,True,28,1
161M19S4,1403,experiment,108,↓,down,↓,0.5369025999680161,True,28,1
161M19S4,1404,experiment,77,←,left,←,0.6176734999753535,True,28,1
161M19S4,1405,experiment,91,↑,up,↑,0.498348499648273,True,28,1
161M19S4,1406,experiment,93,←,left,←,0.5673787998966873,True,28,1
161M19S4,1407,experiment,104,↑,up,↑,0.6614252999424934,True,28,1
161M19S4,1408,experiment,71,→,right,→,0.515215199906379,True,28,1
161M19S4,1409,experiment,94,→,right,→,1.046857099980116,True,28,1
161M19S4,1410,experiment,55,↑,up,↑,0.602296999655664,True,28,1
161M19S4,1411,experiment,67,←,left,←,0.571609300095588,True,28,1
161M19S4,1412,experiment,92,↓,down,↓,0.5736711001954973,True,28,1
161M19S4,1413,experiment,98,→,right,→,0.5977127002552152,True,28,1
161M19S4,1414,experiment,48,↓,down,↓,0.5495043001137674,True,28,1
161M19S4,1415,experiment,85,↓,down,↓,0.4988632001914084,True,28,1
161M19S4,1416,experiment,66,→,right,→,0.5446363999508321,True,28,1
161M19S4,1417,experiment,65,↓,down,↓,0.44511299999430776,True,28,1
161M19S4,1418,experiment,107,↓,down,↓,0.5354905002750456,True,28,1
161M19S4,1419,experiment,90,←,left,←,0.4361648000776768,True,28,1
161M19S4,1420,experiment,74,↓,down,↓,0.5055428999476135,True,28,1
161M19S4,1421,experiment,49,↓,down,↓,0.4846920999698341,True,28,1
161M19S4,1422,experiment,61,←,left,←,0.49283970007672906,True,28,1
161M19S4,1423,experiment,102,↓,down,↓,0.5028715003281832,True,28,1
161M19S4,1424,experiment,79,→,right,→,0.5122969998046756,True,28,1
161M19S4,1425,experiment,58,↑,right,→,1.1363315000198781,False,28,1
161M19S4,1426,experiment,64,↑,up,↑,0.5173778003081679,True,28,1
161M19S4,1427,training,74,→,right,→,0.5398540999740362,True,28,0
161M19S4,1428,training,92,→,right,→,0.40775710018351674,True,28,1
161M19S4,1429,experiment,70,←,left,←,0.3842071001417935,True,28,1
161M19S4,1430,experiment,68,↑,up,↑,0.4170966004021466,True,28,0
161M19S4,1431,experiment,103,↓,down,↓,0.6134893000125885,True,28,1
161M19S4,1432,experiment,106,←,left,←,0.38412029994651675,True,28,1
161M19S4,1433,experiment,96,↑,up,↑,0.40973619977012277,True,28,0
161M19S4,1434,experiment,83,←,left,←,0.5407410003244877,True,28,1
161M19S4,1435,experiment,88,←,left,←,0.37577469972893596,True,28,1
161M19S4,1436,experiment,72,↑,up,↑,0.4898496996611357,True,28,0
161M19S4,1437,experiment,49,←,left,←,0.40613860031589866,True,28,1
161M19S4,1438,experiment,53,←,left,←,0.9073167000897229,True,28,0
161M19S4,1439,experiment,91,→,right,→,0.448369599878788,True,28,1
161M19S4,1440,experiment,57,←,right,→,0.6991607001982629,False,28,1
161M19S4,1441,experiment,81,↑,up,↑,0.44381249975413084,True,28,1
161M19S4,1442,experiment,100,↑,up,↑,0.5925211999565363,True,28,1
161M19S4,1443,experiment,105,←,left,←,0.46961409971117973,True,28,1
161M19S4,1444,experiment,66,←,left,←,0.5327066001482308,True,28,1
161M19S4,1445,experiment,62,→,right,→,0.530419799964875,True,28,1
161M19S4,1446,experiment,98,↑,up,↑,0.5081038000062108,True,28,1
161M19S4,1447,experiment,101,→,right,→,0.5019217999652028,True,28,1
161M19S4,1448,experiment,85,→,right,→,0.48535129986703396,True,28,1
161M19S4,1449,experiment,74,←,left,←,0.48901489982381463,True,28,1
161M19S4,1450,experiment,87,↑,up,↑,0.5280348998494446,True,28,1
161M19S4,1451,experiment,48,→,right,→,0.5148219000548124,True,28,1
161M19S4,1452,experiment,55,→,right,→,0.4676055000163615,True,28,1
161M19S4,1453,experiment,75,↑,up,↑,0.5596802998334169,True,28,1
161M19S4,1454,experiment,99,↑,up,↑,0.48802979988977313,True,28,1
161M19S4,1455,experiment,90,↓,right,→,0.8141720001585782,False,28,1
161M19S4,1456,experiment,56,↑,up,↑,0.7144683999940753,True,28,1
161M19S4,1457,experiment,67,↓,down,↓,0.5992975002154708,True,28,1
161M19S4,1458,experiment,104,↑,down,↓,1.3162194001488388,False,28,1
161M19S4,1459,experiment,79,↓,right,→,0.8608556003309786,False,28,1
161M19S4,1460,experiment,54,↑,up,↑,0.5284500000998378,True,28,1
161M19S4,1461,experiment,86,↑,up,↑,0.4783123000524938,True,28,1
161M19S4,1462,experiment,65,→,right,→,0.6777288997545838,True,28,1
161M19S4,1463,experiment,59,↓,down,↓,0.6625158004462719,True,28,1
161M19S4,1464,experiment,92,↓,down,↓,0.4690958000719547,True,28,1
161M19S4,1465,experiment,51,←,right,→,0.8732686000876129,False,28,1
161M19S4,1466,experiment,102,↑,up,↑,0.6760685001499951,True,28,1
161M19S4,1467,experiment,84,→,right,→,0.6206600000150502,True,28,1
161M19S4,1468,experiment,108,→,right,→,0.40776260010898113,True,28,1
161M19S4,1469,experiment,52,↓,right,→,0.7258695000782609,False,28,1
161M19S4,1470,experiment,60,↓,down,↓,0.40511570032685995,True,28,1
161M19S4,1471,experiment,58,←,right,→,1.384665499906987,False,28,0
161M19S4,1472,experiment,94,→,right,→,0.4496303000487387,True,28,1
161M19S4,1473,experiment,93,←,left,←,0.8561978000216186,True,28,1
161M19S4,1474,experiment,97,←,left,←,0.6693195998668671,True,28,1
161M19S4,1475,experiment,63,↓,down,↓,0.573410099837929,True,28,1
161M19S4,1476,experiment,80,←,left,←,0.5713872998021543,True,28,1
161M19S4,1477,experiment,50,←,left,←,0.6598783996887505,True,28,1
161M19S4,1478,experiment,76,←,left,←,0.4800322996452451,True,28,1
161M19S4,1479,experiment,69,→,right,→,0.5333515997044742,True,28,1
161M19S4,1480,experiment,64,←,left,←,0.6263907998800278,True,28,1
161M19S4,1481,experiment,95,←,left,←,0.5534791997633874,True,28,1
161M19S4,1482,experiment,82,↓,down,↓,0.7917515998706222,True,28,1
161M19S4,1483,experiment,71,↓,down,↓,0.5281580998562276,True,28,1
161M19S4,1484,experiment,73,↓,down,↓,0.6027462999336421,True,28,1
161M19S4,1485,experiment,77,↑,up,↑,0.6486761001870036,True,28,1
161M19S4,1486,experiment,61,←,left,←,0.5620980001986027,True,28,1
161M19S4,1487,experiment,78,→,right,→,0.8094961000606418,True,28,1
