PART_ID,Trial_no,Trial_type,CSI,Stim_letter,Key_pressed,letter_choose,Rt,Corr,Stimulus Time,nDropped
162K27S4,1,training,120,↓,down,↓,0.6421799999661744,True,60,0
162K27S4,2,training,120,←,left,←,0.417720400262624,True,60,0
162K27S4,3,training,120,↑,up,↑,1.5229098000563681,True,60,0
162K27S4,4,training,120,↓,down,↓,0.5183969000354409,True,60,0
162K27S4,5,training,120,↑,up,↑,0.43521220004186034,True,60,0
162K27S4,6,training,120,↑,up,↑,0.45866600004956126,True,60,0
162K27S4,7,training,120,↑,up,↑,0.6777778998948634,True,60,0
162K27S4,8,training,120,↓,down,↓,0.7056840001605451,True,60,0
162K27S4,9,training,120,↑,up,↑,0.6091335997916758,True,60,0
162K27S4,10,training,120,←,left,←,0.6984296999871731,True,60,0
162K27S4,11,training,120,↑,up,↑,0.567181000020355,True,60,0
162K27S4,12,training,120,→,right,→,0.6703084004111588,True,60,0
162K27S4,13,training,120,←,left,←,0.6174749000929296,True,60,0
162K27S4,14,training,120,←,left,←,0.6254394999705255,True,60,0
162K27S4,15,training,120,←,left,←,0.5755241001024842,True,60,0
162K27S4,16,training,120,→,right,→,0.6008569002151489,True,60,0
162K27S4,17,training,120,↑,up,↑,0.6258086999878287,True,60,0
162K27S4,18,training,120,←,left,←,0.567442599684,True,60,0
162K27S4,19,training,120,↓,down,↓,0.7146772001869977,True,60,0
162K27S4,20,training,120,←,left,←,0.4184721000492573,True,60,0
162K27S4,21,no_adaptation,120,←,left,←,0.48450589971616864,True,36,0
162K27S4,22,no_adaptation,120,→,right,→,0.511935600079596,True,36,0
162K27S4,23,no_adaptation,120,←,left,←,0.6104159001260996,True,36,0
162K27S4,24,no_adaptation,120,↑,up,↑,0.4098775000311434,True,36,0
162K27S4,25,no_adaptation,120,←,left,←,0.49537270003929734,True,36,0
162K27S4,26,no_adaptation,120,←,left,←,0.3669577999971807,True,36,0
162K27S4,27,no_adaptation,120,↑,up,↑,0.5546023999340832,True,36,0
162K27S4,28,no_adaptation,120,↑,up,↑,0.38409569999203086,True,36,0
162K27S4,29,no_adaptation,120,↓,down,↓,0.5390198999084532,True,36,0
162K27S4,30,no_adaptation,120,←,left,←,0.548569300211966,True,36,0
162K27S4,31,no_adaptation,120,→,no_key,no_letter,-1.0,False,36,0
162K27S4,32,no_adaptation,120,↑,up,↑,0.6302421996369958,True,36,0
162K27S4,33,no_adaptation,120,↓,down,↓,0.7320257998071611,True,36,0
162K27S4,34,no_adaptation,120,←,left,←,0.6298915003426373,True,36,0
162K27S4,35,no_adaptation,120,←,left,←,0.5315924002788961,True,36,0
162K27S4,36,no_adaptation,120,↓,down,↓,0.493826599791646,True,36,0
162K27S4,37,no_adaptation,120,↓,down,↓,0.5766922999173403,True,36,0
162K27S4,38,no_adaptation,120,←,left,←,0.4099301998503506,True,36,0
162K27S4,39,no_adaptation,120,→,right,→,0.47138690017163754,True,36,0
162K27S4,40,no_adaptation,120,←,left,←,0.41755190026015043,True,36,0
162K27S4,41,training,59,→,right,→,0.4814824000932276,True,36,0
162K27S4,42,training,107,↑,up,↑,0.4259301000274718,True,36,1
162K27S4,43,experiment,96,→,right,→,0.6643770998343825,True,36,0
162K27S4,44,experiment,70,↑,up,↑,0.41736940015107393,True,36,1
162K27S4,45,experiment,73,↑,up,↑,0.4771712999790907,True,36,0
162K27S4,46,experiment,60,→,right,→,0.45051309978589416,True,36,1
162K27S4,47,experiment,87,↑,up,↑,0.3840113999322057,True,36,0
162K27S4,48,experiment,63,→,right,→,0.608326000161469,True,36,0
162K27S4,49,experiment,98,↑,up,↑,0.41706830030307174,True,36,1
162K27S4,50,experiment,49,←,left,←,0.4344780002720654,True,36,0
162K27S4,51,experiment,56,→,right,→,0.6410177000798285,True,36,0
162K27S4,52,experiment,80,↑,up,↑,0.3840287998318672,True,36,1
162K27S4,53,experiment,72,→,right,→,0.6364968996495008,True,36,0
162K27S4,54,experiment,74,→,right,→,0.4510880997404456,True,36,1
162K27S4,55,experiment,77,→,right,→,0.4940206999890506,True,36,0
162K27S4,56,experiment,84,←,left,←,0.6063238000497222,True,36,1
162K27S4,57,experiment,108,↓,down,↓,0.45082890009507537,True,36,1
162K27S4,58,experiment,66,←,no_key,no_letter,-1.0,False,36,0
162K27S4,59,experiment,89,↑,up,↑,0.41755180014297366,True,36,1
162K27S4,60,experiment,81,↑,up,↑,0.4173559998162091,True,36,0
162K27S4,61,experiment,68,↑,up,↑,0.50382319977507,True,36,0
162K27S4,62,experiment,100,←,left,←,0.4979327996261418,True,36,1
162K27S4,63,experiment,51,→,right,→,0.5085653001442552,True,36,1
162K27S4,64,experiment,83,↑,up,↑,0.3924134001135826,True,36,1
162K27S4,65,experiment,99,←,left,←,0.4007453001104295,True,36,0
162K27S4,66,experiment,67,↓,down,↓,0.4761804002337158,True,36,0
162K27S4,67,experiment,105,↓,left,←,0.42589319963008165,False,36,0
162K27S4,68,experiment,97,←,left,←,0.39247329998761415,True,36,0
162K27S4,69,experiment,64,↑,up,↑,0.38388159964233637,True,36,0
162K27S4,70,experiment,62,↓,down,↓,0.5138058997690678,True,36,0
162K27S4,71,experiment,55,→,right,→,0.4751916001550853,True,36,1
162K27S4,72,experiment,106,←,left,←,0.6120664002373815,True,36,1
162K27S4,73,experiment,58,↓,down,↓,0.44207279989495873,True,36,1
162K27S4,74,experiment,103,→,right,→,0.4424090003594756,True,36,0
162K27S4,75,experiment,78,↓,down,↓,0.6951962998136878,True,36,0
162K27S4,76,experiment,91,←,left,←,0.42570019979029894,True,36,1
162K27S4,77,experiment,59,↓,down,↓,0.7915861997753382,True,36,0
162K27S4,78,experiment,90,↓,no_key,no_letter,-1.0,False,36,1
162K27S4,79,experiment,85,↑,up,↑,0.4007076998241246,True,36,1
162K27S4,80,experiment,50,←,left,←,0.40877069998532534,True,36,0
162K27S4,81,experiment,88,↑,up,↑,0.4083793996833265,True,36,0
162K27S4,82,experiment,82,↓,down,↓,0.5071729999035597,True,36,0
162K27S4,83,experiment,53,↓,down,↓,0.7168652997352183,True,36,1
162K27S4,84,experiment,102,←,left,←,0.5179658001288772,True,36,1
162K27S4,85,experiment,71,→,left,←,0.49673449993133545,False,36,1
162K27S4,86,experiment,92,↓,down,↓,0.4507575002498925,True,36,1
162K27S4,87,experiment,107,↓,down,↓,0.5993845998309553,True,36,0
162K27S4,88,experiment,69,↓,down,↓,0.4337671999819577,True,36,1
162K27S4,89,experiment,75,→,right,→,0.45087770000100136,True,36,0
162K27S4,90,experiment,48,↑,up,↑,0.7547026998363435,True,36,0
162K27S4,91,experiment,93,←,left,←,0.4507987997494638,True,36,1
162K27S4,92,experiment,61,↓,down,↓,0.5902044996619225,True,36,0
162K27S4,93,experiment,52,←,left,←,0.5649862000718713,True,36,1
162K27S4,94,experiment,86,→,right,→,0.4341005999594927,True,36,1
162K27S4,95,experiment,104,←,left,←,0.3756858999840915,True,36,0
162K27S4,96,experiment,57,→,right,→,0.49829539982602,True,36,0
162K27S4,97,experiment,76,↑,up,↑,0.41620169999077916,True,36,1
162K27S4,98,experiment,101,↑,up,↑,0.6017839997075498,True,36,0
162K27S4,99,experiment,94,←,left,←,0.3007034999318421,True,36,1
162K27S4,100,experiment,79,→,right,→,0.43391280015930533,True,36,0
162K27S4,101,experiment,54,↓,no_key,no_letter,-1.0,False,36,0
162K27S4,102,experiment,95,↓,down,↓,0.5683720000088215,True,36,1
162K27S4,103,experiment,65,↑,no_key,no_letter,-1.0,False,36,1
162K27S4,104,training,101,↓,down,↓,0.5034912000410259,True,35,0
162K27S4,105,training,83,↑,up,↑,0.6395152001641691,True,35,1
162K27S4,106,experiment,51,↑,up,↑,0.516582699958235,True,35,1
162K27S4,107,experiment,52,↑,up,↑,0.4944643001072109,True,35,1
162K27S4,108,experiment,91,→,right,→,0.47641219990327954,True,35,1
162K27S4,109,experiment,96,↓,no_key,no_letter,-1.0,False,35,1
162K27S4,110,experiment,78,↓,down,↓,0.42540259985253215,True,35,1
162K27S4,111,experiment,81,→,right,→,0.6754928999580443,True,35,0
162K27S4,112,experiment,76,↑,up,↑,0.4087387998588383,True,35,1
162K27S4,113,experiment,98,↑,up,↑,0.4171035001054406,True,35,0
162K27S4,114,experiment,72,↑,up,↑,0.40912239998579025,True,35,0
162K27S4,115,experiment,73,→,right,→,0.6347730001434684,True,35,0
162K27S4,116,experiment,107,←,left,←,0.5975065999664366,True,35,1
162K27S4,117,experiment,48,→,right,→,0.6532946000806987,True,35,1
162K27S4,118,experiment,59,↑,up,↑,0.567329800222069,True,35,1
162K27S4,119,experiment,69,↓,down,↓,0.6333798998966813,True,35,1
162K27S4,120,experiment,62,↓,down,↓,0.563142899889499,True,35,1
162K27S4,121,experiment,70,↑,up,↑,0.4343173000961542,True,35,1
162K27S4,122,experiment,80,↑,up,↑,0.5922485999763012,True,35,0
162K27S4,123,experiment,50,→,right,→,0.4799339999444783,True,35,1
162K27S4,124,experiment,94,←,left,←,0.3840063000097871,True,35,1
162K27S4,125,experiment,92,←,left,←,0.7260682000778615,True,35,0
162K27S4,126,experiment,82,→,right,→,0.6377691002562642,True,35,1
162K27S4,127,experiment,103,→,right,→,0.5856149001047015,True,35,1
162K27S4,128,experiment,87,↓,down,↓,0.6050013001076877,True,35,1
162K27S4,129,experiment,77,↓,down,↓,0.6187468003481627,True,35,1
162K27S4,130,experiment,100,→,right,→,0.6803558003157377,True,35,1
162K27S4,131,experiment,63,↓,no_key,no_letter,-1.0,False,35,1
162K27S4,132,experiment,89,↓,down,↓,0.4174038995988667,True,35,1
162K27S4,133,experiment,97,←,left,←,0.6096851998008788,True,35,0
162K27S4,134,experiment,79,↓,down,↓,0.5747648002579808,True,35,1
162K27S4,135,experiment,53,→,no_key,no_letter,-1.0,False,35,1
162K27S4,136,experiment,84,↑,up,↑,0.5950454999692738,True,35,1
162K27S4,137,experiment,67,↓,down,↓,0.6447450001724064,True,35,1
162K27S4,138,experiment,65,→,right,→,0.4852714999578893,True,35,1
162K27S4,139,experiment,106,←,left,←,0.5341974999755621,True,35,1
162K27S4,140,experiment,93,←,left,←,0.5216906000860035,True,35,1
162K27S4,141,experiment,102,↓,down,↓,0.4347521997988224,True,35,1
162K27S4,142,experiment,55,←,no_key,no_letter,-1.0,False,35,0
162K27S4,143,experiment,64,↑,up,↑,0.41728710010647774,True,35,1
162K27S4,144,experiment,75,↓,down,↓,0.4716580999083817,True,35,0
162K27S4,145,experiment,83,→,right,→,0.5764216999523342,True,35,1
162K27S4,146,experiment,49,↓,down,↓,0.5848358999937773,True,35,1
162K27S4,147,experiment,85,←,left,←,0.35042240004986525,True,35,1
162K27S4,148,experiment,58,↓,down,↓,0.442382900044322,True,35,0
162K27S4,149,experiment,61,↑,up,↑,0.9566096998751163,True,35,0
162K27S4,150,experiment,105,↑,up,↑,0.5867367000319064,True,35,1
162K27S4,151,experiment,95,↓,down,↓,0.5794824999757111,True,35,1
162K27S4,152,experiment,57,←,left,←,0.6571558997966349,True,35,1
162K27S4,153,experiment,68,←,left,←,0.6076652999036014,True,35,1
162K27S4,154,experiment,56,↓,down,↓,0.7326274998486042,True,35,1
162K27S4,155,experiment,54,→,no_key,no_letter,-1.0,False,35,1
162K27S4,156,experiment,71,↓,down,↓,0.5503170001320541,True,35,1
162K27S4,157,experiment,74,↓,down,↓,0.49533829977735877,True,35,1
162K27S4,158,experiment,88,↑,up,↑,0.6218654001131654,True,35,1
162K27S4,159,experiment,104,←,left,←,0.5618070000782609,True,35,1
162K27S4,160,experiment,99,↓,down,↓,0.46678420016542077,True,35,1
162K27S4,161,experiment,90,↓,down,↓,0.5293005001731217,True,35,1
162K27S4,162,experiment,60,→,right,→,0.6077387998811901,True,35,1
162K27S4,163,experiment,101,↓,down,↓,0.4425576003268361,True,35,1
162K27S4,164,experiment,66,↑,up,↑,0.4691494000144303,True,35,0
162K27S4,165,experiment,108,←,left,←,0.4257845999673009,True,35,1
162K27S4,166,experiment,86,↓,down,↓,0.60789900040254,True,35,0
162K27S4,167,training,87,←,left,←,0.6328965001739562,True,34,0
162K27S4,168,training,75,→,right,→,0.5741913001984358,True,34,1
162K27S4,169,experiment,106,←,left,←,0.5714688003063202,True,34,1
162K27S4,170,experiment,63,↑,up,↑,0.5433101998642087,True,34,1
162K27S4,171,experiment,97,→,right,→,0.6410606997087598,True,34,1
162K27S4,172,experiment,59,↓,down,↓,0.5793503997847438,True,34,1
162K27S4,173,experiment,98,←,left,←,0.37572559993714094,True,34,1
162K27S4,174,experiment,62,→,right,→,0.6230084002017975,True,34,0
162K27S4,175,experiment,78,←,left,←,0.5315965004265308,True,34,1
162K27S4,176,experiment,90,↑,up,↑,0.3767435001209378,True,34,1
162K27S4,177,experiment,83,←,left,←,0.4257678999565542,True,34,0
162K27S4,178,experiment,92,→,right,→,0.5330372997559607,True,34,0
162K27S4,179,experiment,88,→,right,→,0.5130300000309944,True,34,1
162K27S4,180,experiment,93,←,left,←,0.6211113999597728,True,34,1
162K27S4,181,experiment,75,←,left,←,0.375813000369817,True,34,1
162K27S4,182,experiment,81,←,left,←,0.7205809997394681,True,34,0
162K27S4,183,experiment,52,→,right,→,0.626428599935025,True,34,1
162K27S4,184,experiment,89,→,right,→,0.5315093002282083,True,34,1
162K27S4,185,experiment,103,→,right,→,0.5074918000027537,True,34,1
162K27S4,186,experiment,71,→,right,→,0.583266899921,True,34,1
162K27S4,187,experiment,66,←,left,←,0.6416381001472473,True,34,1
162K27S4,188,experiment,68,→,right,→,0.6250909003429115,True,34,1
162K27S4,189,experiment,69,←,left,←,0.3675349000841379,True,34,1
162K27S4,190,experiment,73,↓,down,↓,0.601227399893105,True,34,0
162K27S4,191,experiment,65,↓,down,↓,0.5552801000885665,True,34,1
162K27S4,192,experiment,53,←,left,←,0.5071322997100651,True,34,1
162K27S4,193,experiment,61,↑,up,↑,0.4902306003496051,True,34,1
162K27S4,194,experiment,57,↓,down,↓,0.45977469999343157,True,34,1
162K27S4,195,experiment,101,←,left,←,0.4256973001174629,True,34,1
162K27S4,196,experiment,49,→,left,←,1.2848372999578714,False,34,0
162K27S4,197,experiment,48,←,left,←,0.513198200147599,True,34,1
162K27S4,198,experiment,74,→,right,→,0.46008760016411543,True,34,1
162K27S4,199,experiment,87,←,left,←,0.5876098000444472,True,34,1
162K27S4,200,experiment,96,↓,down,↓,0.43416820000857115,True,34,1
162K27S4,201,experiment,60,←,left,←,0.383946199901402,True,34,0
162K27S4,202,experiment,54,↑,up,↑,0.4758757003583014,True,34,0
162K27S4,203,experiment,99,←,left,←,0.4875376997515559,True,34,1
162K27S4,204,experiment,70,↓,down,↓,0.5324399000965059,True,34,1
162K27S4,205,experiment,51,→,right,→,0.4624552000313997,True,34,1
162K27S4,206,experiment,100,←,left,←,0.38403810001909733,True,34,1
162K27S4,207,experiment,67,←,left,←,0.5793722001835704,True,34,0
162K27S4,208,experiment,108,←,left,←,0.3423250000923872,True,34,1
162K27S4,209,experiment,86,←,left,←,0.7652631998062134,True,34,0
162K27S4,210,experiment,50,←,left,←,0.4173699002712965,True,34,1
162K27S4,211,experiment,91,→,right,→,0.6464571999385953,True,34,0
162K27S4,212,experiment,76,→,right,→,0.4985421998426318,True,34,1
162K27S4,213,experiment,105,→,right,→,0.5312838000245392,True,34,1
162K27S4,214,experiment,84,←,left,←,0.383780799806118,True,34,1
162K27S4,215,experiment,107,←,left,←,0.4258890002965927,True,34,0
162K27S4,216,experiment,80,↑,up,↑,0.45826780004426837,True,34,0
162K27S4,217,experiment,58,↓,down,↓,0.5716312997974455,True,34,1
162K27S4,218,experiment,79,←,left,←,0.6498722000978887,True,34,1
162K27S4,219,experiment,72,↑,up,↑,0.7518533002585173,True,34,1
162K27S4,220,experiment,82,↑,up,↑,0.5900154998525977,True,34,1
162K27S4,221,experiment,64,→,right,→,0.6088519999757409,True,34,1
162K27S4,222,experiment,77,↓,down,↓,0.5665008998475969,True,34,1
162K27S4,223,experiment,85,→,right,→,0.6672386000864208,True,34,1
162K27S4,224,experiment,95,←,left,←,0.35277510015293956,True,34,1
162K27S4,225,experiment,55,←,left,←,0.6157212001271546,True,34,0
162K27S4,226,experiment,94,→,right,→,0.5114486999809742,True,34,1
162K27S4,227,experiment,102,↑,up,↑,0.4258014000952244,True,34,1
162K27S4,228,experiment,104,→,right,→,0.6606033998541534,True,34,0
162K27S4,229,experiment,56,↑,no_key,no_letter,-1.0,False,34,1
162K27S4,230,training,101,↑,up,↑,0.5180846001021564,True,33,0
162K27S4,231,training,63,↓,no_key,no_letter,-1.0,False,33,1
162K27S4,232,experiment,73,←,left,←,0.565884499810636,True,33,1
162K27S4,233,experiment,105,←,left,←,0.44427259964868426,True,33,1
162K27S4,234,experiment,77,↑,up,↑,0.4174413997679949,True,33,0
162K27S4,235,experiment,69,↓,down,↓,0.5195635999552906,True,33,0
162K27S4,236,experiment,83,↓,down,↓,0.4476703000254929,True,33,1
162K27S4,237,experiment,80,↓,down,↓,0.7220840998925269,True,33,0
162K27S4,238,experiment,66,↑,up,↑,0.38423099974170327,True,33,1
162K27S4,239,experiment,81,↑,up,↑,0.491767100058496,True,33,0
162K27S4,240,experiment,108,←,left,←,0.5398677997291088,True,33,1
162K27S4,241,experiment,89,↓,down,↓,0.5602573999203742,True,33,1
162K27S4,242,experiment,49,→,right,→,0.6973919002339244,True,33,1
162K27S4,243,experiment,76,→,right,→,0.5077669001184404,True,33,1
162K27S4,244,experiment,84,→,right,→,0.46718170028179884,True,33,1
162K27S4,245,experiment,88,←,left,←,0.40912359999492764,True,33,1
162K27S4,246,experiment,72,→,right,→,0.5540029001422226,True,33,0
162K27S4,247,experiment,96,←,left,←,0.3924213000573218,True,33,1
162K27S4,248,experiment,85,→,right,→,0.5910805002786219,True,33,0
162K27S4,249,experiment,79,↑,up,↑,0.5567844999022782,True,33,1
162K27S4,250,experiment,91,↑,up,↑,0.5118668000213802,True,33,1
162K27S4,251,experiment,87,↓,down,↓,0.5983295999467373,True,33,1
162K27S4,252,experiment,58,←,left,←,0.35902029974386096,True,33,1
162K27S4,253,experiment,54,←,left,←,0.35073169972747564,True,33,0
162K27S4,254,experiment,98,↓,down,↓,0.4589232001453638,True,33,0
162K27S4,255,experiment,60,→,right,→,0.46021739998832345,True,33,1
162K27S4,256,experiment,97,→,right,→,0.5450637000612915,True,33,1
162K27S4,257,experiment,101,→,no_key,no_letter,-1.0,False,33,1
162K27S4,258,experiment,103,→,right,→,0.49685380002483726,True,33,1
162K27S4,259,experiment,74,↑,up,↑,0.36816109996289015,True,33,1
162K27S4,260,experiment,78,↓,down,↓,0.5867734998464584,True,33,0
162K27S4,261,experiment,52,→,right,→,0.5538264000788331,True,33,1
162K27S4,262,experiment,75,↓,down,↓,0.7066843002103269,True,33,1
162K27S4,263,experiment,57,→,right,→,0.6350107002072036,True,33,1
162K27S4,264,experiment,50,↓,down,↓,0.600785399787128,True,33,1
162K27S4,265,experiment,95,→,right,→,0.5369992000050843,True,33,1
162K27S4,266,experiment,86,←,left,←,0.5750436997041106,True,33,1
162K27S4,267,experiment,90,↓,down,↓,0.5212450996041298,True,33,1
162K27S4,268,experiment,102,→,right,→,0.5940394997596741,True,33,1
162K27S4,269,experiment,82,↑,up,↑,0.5506784999743104,True,33,1
162K27S4,270,experiment,63,←,left,←,0.5633894000202417,True,33,1
162K27S4,271,experiment,99,→,right,→,0.4007782000117004,True,33,1
162K27S4,272,experiment,62,←,left,←,0.36907829996198416,True,33,0
162K27S4,273,experiment,61,←,left,←,0.6026333998888731,True,33,0
162K27S4,274,experiment,68,←,left,←,0.32539690006524324,True,33,1
162K27S4,275,experiment,92,↑,up,↑,0.5114759998396039,True,33,0
162K27S4,276,experiment,51,↑,up,↑,0.681880499701947,True,33,1
162K27S4,277,experiment,53,↑,up,↑,0.5486467001028359,True,33,1
162K27S4,278,experiment,65,←,left,←,0.3507524998858571,True,33,1
162K27S4,279,experiment,94,→,right,→,0.5869347001425922,True,33,0
162K27S4,280,experiment,64,→,right,→,0.5018864003941417,True,33,1
162K27S4,281,experiment,70,→,left,←,0.3424181998707354,False,33,1
162K27S4,282,experiment,59,←,left,←,0.5924486997537315,True,33,0
162K27S4,283,experiment,56,←,left,←,0.5420156000182033,True,33,1
162K27S4,284,experiment,48,→,right,→,0.4007848999463022,True,33,1
162K27S4,285,experiment,67,↑,up,↑,0.6570803998038173,True,33,0
162K27S4,286,experiment,104,↑,up,↑,0.39245849987491965,True,33,1
162K27S4,287,experiment,93,↑,up,↑,0.4925532001070678,True,33,0
162K27S4,288,experiment,106,←,left,←,0.6371395997703075,True,33,1
162K27S4,289,experiment,55,↓,down,↓,0.49724460020661354,True,33,1
162K27S4,290,experiment,71,←,left,←,0.3588535999879241,True,33,1
162K27S4,291,experiment,100,→,right,→,0.48508429992944,True,33,0
162K27S4,292,experiment,107,↓,down,↓,0.6457847999408841,True,33,1
162K27S4,293,training,92,←,left,←,0.5614041001535952,True,32,0
162K27S4,294,training,54,↑,up,↑,0.3934133001603186,True,32,1
162K27S4,295,experiment,57,←,left,←,0.4849978000856936,True,32,0
162K27S4,296,experiment,79,↑,up,↑,0.5672359000891447,True,32,1
162K27S4,297,experiment,48,←,left,←,0.4485416002571583,True,32,1
162K27S4,298,experiment,85,↑,up,↑,0.5456497999839485,True,32,1
162K27S4,299,experiment,69,↑,up,↑,0.4000032995827496,True,32,1
162K27S4,300,experiment,77,→,right,→,0.48242830019444227,True,32,0
162K27S4,301,experiment,65,←,left,←,0.5771169001236558,True,32,1
162K27S4,302,experiment,58,↓,down,↓,0.7425742000341415,True,32,1
162K27S4,303,experiment,94,→,right,→,0.5294027999043465,True,32,1
162K27S4,304,experiment,104,→,right,→,0.5054458002559841,True,32,1
162K27S4,305,experiment,87,↑,up,↑,0.5518161999061704,True,32,1
162K27S4,306,experiment,100,↑,up,↑,0.4000299000181258,True,32,1
162K27S4,307,experiment,70,←,no_key,no_letter,-1.0,False,32,0
162K27S4,308,experiment,59,↓,down,↓,0.5748143000528216,True,32,1
162K27S4,309,experiment,51,↓,down,↓,0.4470836999826133,True,32,1
162K27S4,310,experiment,102,→,right,→,0.435022100340575,True,32,1
162K27S4,311,experiment,86,↑,up,↑,0.5716479001566768,True,32,0
162K27S4,312,experiment,81,→,right,→,0.46541630011051893,True,32,1
162K27S4,313,experiment,78,↑,up,↑,0.6044318997301161,True,32,1
162K27S4,314,experiment,90,←,left,←,0.46975320018827915,True,32,1
162K27S4,315,experiment,107,→,no_key,no_letter,-1.0,False,32,1
162K27S4,316,experiment,84,↓,down,↓,0.5817859997041523,True,32,1
162K27S4,317,experiment,71,↑,no_key,no_letter,-1.0,False,32,1
162K27S4,318,experiment,53,←,no_key,no_letter,-1.0,False,32,1
162K27S4,319,experiment,105,↓,no_key,no_letter,-1.0,False,32,1
162K27S4,320,experiment,97,↓,down,↓,0.44800479989498854,True,32,1
162K27S4,321,experiment,72,→,right,→,0.47739369980990887,True,32,1
162K27S4,322,experiment,67,↑,up,↑,0.6998675996437669,True,32,1
162K27S4,323,experiment,96,↓,up,↑,0.44787599984556437,False,32,1
162K27S4,324,experiment,61,←,left,←,0.4730814998038113,True,32,1
162K27S4,325,experiment,68,→,right,→,0.47900430019944906,True,32,1
162K27S4,326,experiment,50,↑,up,↑,0.6588944997638464,True,32,1
162K27S4,327,experiment,52,→,right,→,0.4549606000073254,True,32,1
162K27S4,328,experiment,92,←,left,←,0.5337395002134144,True,32,1
162K27S4,329,experiment,63,→,right,→,0.6430812999606133,True,32,1
162K27S4,330,experiment,103,→,right,→,0.5508059998974204,True,32,1
162K27S4,331,experiment,64,←,left,←,0.38392650010064244,True,32,1
162K27S4,332,experiment,74,↑,up,↑,0.4986791000701487,True,32,0
162K27S4,333,experiment,75,↑,up,↑,0.4534825999289751,True,32,1
162K27S4,334,experiment,98,↓,no_key,no_letter,-1.0,False,32,1
162K27S4,335,experiment,95,→,right,→,0.6366281998343766,True,32,1
162K27S4,336,experiment,76,↑,up,↑,0.473730499856174,True,32,1
162K27S4,337,experiment,88,←,left,←,0.31728830002248287,True,32,1
162K27S4,338,experiment,101,←,left,←,0.530159099958837,True,32,0
162K27S4,339,experiment,83,←,left,←,0.4808223000727594,True,32,1
162K27S4,340,experiment,106,→,right,→,0.5458889999426901,True,32,1
162K27S4,341,experiment,54,→,right,→,0.4821423999965191,True,32,1
162K27S4,342,experiment,93,↑,up,↑,0.4400415997952223,True,32,1
162K27S4,343,experiment,56,←,left,←,0.45884159998968244,True,32,1
162K27S4,344,experiment,49,↑,up,↑,0.49590770015493035,True,32,1
162K27S4,345,experiment,99,↓,down,↓,0.44340520026162267,True,32,1
162K27S4,346,experiment,60,→,no_key,no_letter,-1.0,False,32,1
162K27S4,347,experiment,108,↑,up,↑,0.5225252001546323,True,32,1
162K27S4,348,experiment,82,→,right,→,0.6900176997296512,True,32,1
162K27S4,349,experiment,66,←,left,←,0.647972000297159,True,32,1
162K27S4,350,experiment,73,↓,down,↓,0.6456658998504281,True,32,1
162K27S4,351,experiment,55,←,left,←,0.5052058999426663,True,32,1
162K27S4,352,experiment,89,↑,up,↑,0.5831988998688757,True,32,1
162K27S4,353,experiment,62,↓,down,↓,0.450997699983418,True,32,1
162K27S4,354,experiment,80,↓,down,↓,0.5579177001491189,True,32,1
162K27S4,355,experiment,91,↓,down,↓,0.4648596001788974,True,32,1
162K27S4,356,training,99,↑,no_key,no_letter,-1.0,False,32,0
162K27S4,357,training,99,↑,up,↑,0.5066251996904612,True,32,1
162K27S4,358,experiment,86,↑,up,↑,0.4099828000180423,True,32,1
162K27S4,359,experiment,76,↓,down,↓,0.47875519981607795,True,32,0
162K27S4,360,experiment,58,↓,down,↓,0.47228970006108284,True,32,1
162K27S4,361,experiment,82,↑,up,↑,0.6016653999686241,True,32,1
162K27S4,362,experiment,107,↑,up,↑,0.3423970998264849,True,32,1
162K27S4,363,experiment,49,→,right,→,0.5111722000874579,True,32,0
162K27S4,364,experiment,104,←,left,←,0.3513323999941349,True,32,1
162K27S4,365,experiment,102,↓,down,↓,0.631218200083822,True,32,0
162K27S4,366,experiment,64,↑,up,↑,0.342368199955672,True,32,1
162K27S4,367,experiment,71,←,left,←,0.47441889997571707,True,32,0
162K27S4,368,experiment,56,←,left,←,0.4007076998241246,True,32,1
162K27S4,369,experiment,50,↑,up,↑,0.35066880006343126,True,32,0
162K27S4,370,experiment,83,↓,down,↓,0.7290396997705102,True,32,0
162K27S4,371,experiment,52,↓,left,←,0.31732549984008074,False,32,1
162K27S4,372,experiment,101,←,left,←,0.5795287997461855,True,32,0
162K27S4,373,experiment,70,→,right,→,0.5405772002413869,True,32,1
162K27S4,374,experiment,88,↑,up,↑,0.41020029969513416,True,32,1
162K27S4,375,experiment,59,←,left,←,0.6204702998511493,True,32,0
162K27S4,376,experiment,93,↑,up,↑,0.44499720027670264,True,32,1
162K27S4,377,experiment,74,↓,down,↓,0.8415044001303613,True,32,1
162K27S4,378,experiment,94,↑,up,↑,0.6721848999150097,True,32,1
162K27S4,379,experiment,67,←,left,←,0.439311099704355,True,32,1
162K27S4,380,experiment,80,→,right,→,0.5860017999075353,True,32,1
162K27S4,381,experiment,57,→,right,→,0.4881531996652484,True,32,1
162K27S4,382,experiment,84,←,left,←,0.3924247003160417,True,32,1
162K27S4,383,experiment,97,↑,up,↑,0.534892600029707,True,32,0
162K27S4,384,experiment,81,↓,down,↓,0.3590739998035133,True,32,1
162K27S4,385,experiment,69,↓,down,↓,0.4487798996269703,True,32,0
162K27S4,386,experiment,90,→,right,→,0.5681277001276612,True,32,1
162K27S4,387,experiment,77,↓,down,↓,0.4558439999818802,True,32,1
162K27S4,388,experiment,60,↓,down,↓,0.3838708000257611,True,32,1
162K27S4,389,experiment,63,↓,down,↓,0.3840197999961674,True,32,0
162K27S4,390,experiment,62,←,left,←,0.3765498995780945,True,32,0
162K27S4,391,experiment,87,↓,down,↓,0.5945529998280108,True,32,0
162K27S4,392,experiment,108,→,left,←,0.6545867002569139,False,32,1
162K27S4,393,experiment,53,←,left,←,0.3757100999355316,True,32,1
162K27S4,394,experiment,89,←,left,←,0.39242140017449856,True,32,0
162K27S4,395,experiment,65,←,left,←,0.5676303002983332,True,32,0
162K27S4,396,experiment,92,↑,no_key,no_letter,-1.0,False,32,1
162K27S4,397,experiment,96,←,left,←,0.40073580015450716,True,32,1
162K27S4,398,experiment,61,→,right,→,0.6229113996960223,True,32,0
162K27S4,399,experiment,55,↑,up,↑,0.4106700997799635,True,32,1
162K27S4,400,experiment,73,↑,up,↑,0.522165700327605,True,32,0
162K27S4,401,experiment,95,↑,up,↑,0.4850496002472937,True,32,1
162K27S4,402,experiment,66,←,left,←,0.2923535001464188,True,32,1
162K27S4,403,experiment,75,↑,left,←,0.317393200006336,False,32,0
162K27S4,404,experiment,48,↑,up,↑,0.4971352000720799,True,32,0
162K27S4,405,experiment,54,→,right,→,0.4590312000364065,True,32,1
162K27S4,406,experiment,99,↑,up,↑,0.503487799782306,True,32,1
162K27S4,407,experiment,78,↑,up,↑,0.38414520025253296,True,32,1
162K27S4,408,experiment,106,↓,down,↓,0.6697128997184336,True,32,0
162K27S4,409,experiment,91,←,left,←,0.4844370000064373,True,32,1
162K27S4,410,experiment,103,←,left,←,0.4864821000955999,True,32,1
162K27S4,411,experiment,98,→,left,←,0.35078509990125895,False,32,1
162K27S4,412,experiment,79,→,right,→,0.6652831002138555,True,32,0
162K27S4,413,experiment,51,↓,down,↓,0.7174264001660049,True,32,1
162K27S4,414,experiment,72,↑,up,↑,0.44085839996114373,True,32,1
162K27S4,415,experiment,68,←,left,←,0.3509109001606703,True,32,1
162K27S4,416,experiment,100,↑,up,↑,0.5437046000733972,True,32,0
162K27S4,417,experiment,105,→,right,→,0.6226583002135158,True,32,1
162K27S4,418,experiment,85,→,left,←,0.4090509000234306,False,32,1
162K27S4,419,training,88,→,right,→,0.498796199914068,True,31,0
162K27S4,420,training,75,→,right,→,0.4692449998110533,True,31,1
162K27S4,421,experiment,55,←,left,←,0.5765196997672319,True,31,1
162K27S4,422,experiment,81,→,right,→,0.5736781000159681,True,31,1
162K27S4,423,experiment,90,↑,no_key,no_letter,-1.0,False,31,1
162K27S4,424,experiment,54,↑,no_key,no_letter,-1.0,False,31,1
162K27S4,425,experiment,70,↑,up,↑,0.392299999948591,True,31,1
162K27S4,426,experiment,56,←,left,←,0.5372978998348117,True,31,0
162K27S4,427,experiment,97,↑,up,↑,0.3840894000604749,True,31,1
162K27S4,428,experiment,96,←,left,←,0.6991535001434386,True,31,0
162K27S4,429,experiment,71,→,right,→,0.6150540998205543,True,31,1
162K27S4,430,experiment,51,↓,down,↓,0.6212193998508155,True,31,1
162K27S4,431,experiment,105,↓,down,↓,0.4812197000719607,True,31,1
162K27S4,432,experiment,80,←,left,←,0.5791170997545123,True,31,1
162K27S4,433,experiment,83,←,left,←,0.5120576000772417,True,31,1
162K27S4,434,experiment,66,↓,up,↑,0.5255148001015186,False,31,1
162K27S4,435,experiment,84,↓,down,↓,0.4288093000650406,True,31,1
162K27S4,436,experiment,104,↓,down,↓,0.5439654998481274,True,31,0
162K27S4,437,experiment,106,↑,up,↑,0.3838678998872638,True,31,1
162K27S4,438,experiment,60,→,right,→,0.45873009972274303,True,31,0
162K27S4,439,experiment,92,↓,down,↓,0.5454664002172649,True,31,1
162K27S4,440,experiment,87,←,left,←,0.3424158999696374,True,31,1
162K27S4,441,experiment,63,←,left,←,0.7793465000577271,True,31,0
162K27S4,442,experiment,98,←,left,←,0.7232366004027426,True,31,1
162K27S4,443,experiment,99,↓,down,↓,0.4609862002544105,True,31,1
162K27S4,444,experiment,94,→,right,→,0.4514172999188304,True,31,1
162K27S4,445,experiment,89,←,left,←,0.595291499979794,True,31,1
162K27S4,446,experiment,50,←,left,←,0.5305850002914667,True,31,1
162K27S4,447,experiment,53,→,right,→,0.5793109000660479,True,31,1
162K27S4,448,experiment,52,→,right,→,0.4430908001959324,True,31,1
162K27S4,449,experiment,85,↑,up,↑,0.45254319999367,True,31,1
162K27S4,450,experiment,48,↓,down,↓,0.48216169979423285,True,31,1
162K27S4,451,experiment,79,→,right,→,0.6364726000465453,True,31,1
162K27S4,452,experiment,103,↑,up,↑,0.4015568997710943,True,31,1
162K27S4,453,experiment,77,←,left,←,0.5497818998992443,True,31,0
162K27S4,454,experiment,62,↑,up,↑,0.45090419985353947,True,31,1
162K27S4,455,experiment,49,←,no_key,no_letter,-1.0,False,31,1
162K27S4,456,experiment,59,↓,down,↓,0.519463200122118,True,31,1
162K27S4,457,experiment,91,↓,down,↓,0.6038712998852134,True,31,1
162K27S4,458,experiment,102,→,right,→,0.42624059971421957,True,31,1
162K27S4,459,experiment,64,←,left,←,0.570707400329411,True,31,0
162K27S4,460,experiment,108,→,right,→,0.4397934000007808,True,31,1
162K27S4,461,experiment,82,→,right,→,0.5704970001243055,True,31,1
162K27S4,462,experiment,107,→,left,←,0.47981519997119904,False,31,1
162K27S4,463,experiment,93,←,no_key,no_letter,-1.0,False,31,1
162K27S4,464,experiment,78,↑,up,↑,0.6298462999984622,True,31,1
162K27S4,465,experiment,72,→,right,→,0.4761363002471626,True,31,1
162K27S4,466,experiment,68,←,left,←,0.48224240029230714,True,31,1
162K27S4,467,experiment,100,←,left,←,0.5892985002137721,True,31,1
162K27S4,468,experiment,61,↓,no_key,no_letter,-1.0,False,31,1
162K27S4,469,experiment,75,→,right,→,0.7465484999120235,True,31,1
162K27S4,470,experiment,88,→,right,→,0.43956700013950467,True,31,1
162K27S4,471,experiment,101,→,no_key,no_letter,-1.0,False,31,1
162K27S4,472,experiment,95,↓,down,↓,0.5345402001403272,True,31,1
162K27S4,473,experiment,74,↑,up,↑,0.43309500021860003,True,31,1
162K27S4,474,experiment,73,↑,up,↑,0.6622880999930203,True,31,0
162K27S4,475,experiment,65,→,left,←,0.4779301998205483,False,31,1
162K27S4,476,experiment,67,←,left,←,0.5160972001031041,True,31,1
162K27S4,477,experiment,86,←,left,←,0.6266189003363252,True,31,1
162K27S4,478,experiment,69,↓,down,↓,0.6342830001376569,True,31,1
162K27S4,479,experiment,57,←,left,←,0.9496722002513707,True,31,1
162K27S4,480,experiment,58,↑,up,↑,0.42818829976022243,True,31,1
162K27S4,481,experiment,76,↑,up,↑,0.5611739996820688,True,31,0
162K27S4,482,training,70,←,left,←,0.3925877003930509,True,31,0
162K27S4,483,training,59,↓,down,↓,0.4386379001662135,True,31,1
162K27S4,484,experiment,48,→,right,→,0.6360936001874506,True,31,1
162K27S4,485,experiment,95,↑,up,↑,0.5388699001632631,True,31,1
162K27S4,486,experiment,86,←,left,←,0.3932502996176481,True,31,1
162K27S4,487,experiment,60,←,left,←,0.8515662997961044,True,31,0
162K27S4,488,experiment,77,↑,up,↑,0.5676027000881732,True,31,1
162K27S4,489,experiment,89,↓,down,↓,0.5790186999365687,True,31,1
162K27S4,490,experiment,63,↓,down,↓,0.4707315000705421,True,31,1
162K27S4,491,experiment,74,↓,down,↓,0.43572310032323003,True,31,1
162K27S4,492,experiment,55,←,left,←,0.4710220000706613,True,31,1
162K27S4,493,experiment,108,↑,up,↑,0.5199270001612604,True,31,1
162K27S4,494,experiment,106,↑,up,↑,0.36742820031940937,True,31,1
162K27S4,495,experiment,104,←,left,←,0.557532100006938,True,31,0
162K27S4,496,experiment,68,←,left,←,0.47214270010590553,True,31,1
162K27S4,497,experiment,65,↓,down,↓,0.4475044999271631,True,31,1
162K27S4,498,experiment,58,↓,down,↓,0.4342447998933494,True,31,1
162K27S4,499,experiment,85,↑,up,↑,0.6114901998080313,True,31,1
162K27S4,500,experiment,97,←,left,←,0.5865792999975383,True,31,1
162K27S4,501,experiment,93,↑,up,↑,0.5878344001248479,True,31,1
162K27S4,502,experiment,59,→,right,→,0.47240620013326406,True,31,1
162K27S4,503,experiment,54,↑,up,↑,0.5470306999050081,True,31,1
162K27S4,504,experiment,56,↓,down,↓,0.4266566000878811,True,31,1
162K27S4,505,experiment,69,↑,up,↑,0.4090399001725018,True,31,0
162K27S4,506,experiment,99,↑,up,↑,0.5276035000570118,True,31,0
162K27S4,507,experiment,81,↑,up,↑,0.37652650009840727,True,31,1
162K27S4,508,experiment,75,←,no_key,no_letter,-1.0,False,31,0
162K27S4,509,experiment,72,↓,down,↓,0.6090696002356708,True,31,1
162K27S4,510,experiment,100,→,right,→,0.5829996997490525,True,31,1
162K27S4,511,experiment,83,↑,up,↑,0.40883769979700446,True,31,1
162K27S4,512,experiment,62,↓,down,↓,0.6064208997413516,True,31,0
162K27S4,513,experiment,49,←,left,←,0.375462899915874,True,31,1
162K27S4,514,experiment,53,→,right,→,0.4761172002181411,True,31,0
162K27S4,515,experiment,73,↓,down,↓,0.4329496002756059,True,31,1
162K27S4,516,experiment,90,↓,down,↓,0.5448394003324211,True,31,1
162K27S4,517,experiment,61,→,right,→,0.486723099835217,True,31,1
162K27S4,518,experiment,102,→,no_key,no_letter,-1.0,False,31,1
162K27S4,519,experiment,50,←,left,←,0.4091284996829927,True,31,1
162K27S4,520,experiment,105,→,right,→,0.3924981998279691,True,31,0
162K27S4,521,experiment,94,↑,up,↑,0.543313100002706,True,31,0
162K27S4,522,experiment,64,←,left,←,0.5080824000760913,True,31,1
162K27S4,523,experiment,79,←,left,←,0.40083760023117065,True,31,1
162K27S4,524,experiment,78,→,right,→,0.5945473001338542,True,31,0
162K27S4,525,experiment,107,→,left,←,0.35996909998357296,False,31,1
162K27S4,526,experiment,82,←,left,←,0.40904040029272437,True,31,0
162K27S4,527,experiment,96,←,left,←,0.5795032000169158,True,31,0
162K27S4,528,experiment,71,→,right,→,0.4367181998677552,True,31,1
162K27S4,529,experiment,76,→,right,→,0.4259170996956527,True,31,1
162K27S4,530,experiment,51,↓,down,↓,0.7908133999444544,True,31,0
162K27S4,531,experiment,67,↓,down,↓,0.5523495003581047,True,31,1
162K27S4,532,experiment,57,↑,up,↑,0.6551596000790596,True,31,1
162K27S4,533,experiment,91,→,right,→,0.49427369982004166,True,31,1
162K27S4,534,experiment,52,↓,down,↓,0.5529724000953138,True,31,1
162K27S4,535,experiment,66,→,right,→,0.5167310000397265,True,31,1
162K27S4,536,experiment,103,→,right,→,0.4934872998856008,True,31,1
162K27S4,537,experiment,70,↑,up,↑,0.6022759000770748,True,31,1
162K27S4,538,experiment,101,←,left,←,0.44056850019842386,True,31,1
162K27S4,539,experiment,84,←,left,←,0.6263854000717402,True,31,1
162K27S4,540,experiment,98,↑,up,↑,0.48036079993471503,True,31,1
162K27S4,541,experiment,92,←,no_key,no_letter,-1.0,False,31,1
162K27S4,542,experiment,87,←,left,←,0.4995480999350548,True,31,1
162K27S4,543,experiment,80,↑,no_key,no_letter,-1.0,False,31,1
162K27S4,544,experiment,88,↓,down,↓,0.7379292002879083,True,31,1
162K27S4,545,training,92,←,left,←,0.39238710002973676,True,30,0
162K27S4,546,training,49,←,left,←,0.5502133998088539,True,30,0
162K27S4,547,experiment,73,←,left,←,0.3675357000902295,True,30,1
162K27S4,548,experiment,67,→,right,→,0.47406959999352694,True,30,0
162K27S4,549,experiment,55,←,left,←,0.5482982997782528,True,30,1
162K27S4,550,experiment,102,↑,up,↑,0.43606500001624227,True,30,1
162K27S4,551,experiment,101,↓,down,↓,0.568724200129509,True,30,1
162K27S4,552,experiment,70,↑,up,↑,0.7146677998825908,True,30,1
162K27S4,553,experiment,52,↑,no_key,no_letter,-1.0,False,30,1
162K27S4,554,experiment,94,→,right,→,0.5837494004517794,True,30,1
162K27S4,555,experiment,48,↑,up,↑,0.5120835998095572,True,30,1
162K27S4,556,experiment,106,←,left,←,0.4242328000254929,True,30,1
162K27S4,557,experiment,51,↓,down,↓,0.4540071999654174,True,30,0
162K27S4,558,experiment,107,←,left,←,0.4637227999046445,True,30,1
162K27S4,559,experiment,80,↑,up,↑,0.5781236002221704,True,30,1
162K27S4,560,experiment,78,↓,down,↓,0.520804800093174,True,30,1
162K27S4,561,experiment,98,↓,no_key,no_letter,-1.0,False,30,1
162K27S4,562,experiment,90,↑,no_key,no_letter,-1.0,False,30,1
162K27S4,563,experiment,53,↓,down,↓,0.4415277000516653,True,30,1
162K27S4,564,experiment,85,↓,no_key,no_letter,-1.0,False,30,1
162K27S4,565,experiment,89,↓,down,↓,0.5203324998728931,True,30,1
162K27S4,566,experiment,57,↓,down,↓,0.504337599966675,True,30,1
162K27S4,567,experiment,95,↓,down,↓,0.42092710034921765,True,30,1
162K27S4,568,experiment,54,↓,down,↓,0.3838341999799013,True,30,0
162K27S4,569,experiment,77,→,right,→,0.4635964003391564,True,30,0
162K27S4,570,experiment,56,→,right,→,0.6502692000940442,True,30,1
162K27S4,571,experiment,86,↑,up,↑,0.435720999725163,True,30,1
162K27S4,572,experiment,60,←,left,←,0.47757630003616214,True,30,1
162K27S4,573,experiment,72,←,left,←,0.6581792999058962,True,30,1
162K27S4,574,experiment,59,↓,down,↓,0.6679289001040161,True,30,1
162K27S4,575,experiment,105,↑,up,↑,0.6220395998097956,True,30,1
162K27S4,576,experiment,79,→,right,→,0.6343728001229465,True,30,1
162K27S4,577,experiment,97,←,left,←,0.45642329985275865,True,30,1
162K27S4,578,experiment,84,↓,down,↓,0.6097950004041195,True,30,1
162K27S4,579,experiment,83,←,left,←,0.48562309984117746,True,30,1
162K27S4,580,experiment,75,↑,up,↑,0.41738699981942773,True,30,1
162K27S4,581,experiment,82,↑,up,↑,0.3759469003416598,True,30,0
162K27S4,582,experiment,81,→,right,→,0.5459839999675751,True,30,0
162K27S4,583,experiment,61,←,left,←,0.5991664002649486,True,30,1
162K27S4,584,experiment,71,←,left,←,0.5353185003623366,True,30,1
162K27S4,585,experiment,68,←,no_key,no_letter,-1.0,False,30,1
162K27S4,586,experiment,93,↓,down,↓,0.4469742998480797,True,30,1
162K27S4,587,experiment,76,→,right,→,0.5952738001942635,True,30,1
162K27S4,588,experiment,100,↑,no_key,no_letter,-1.0,False,30,1
162K27S4,589,experiment,91,→,right,→,0.5665573999285698,True,30,1
162K27S4,590,experiment,108,←,left,←,0.5555904000066221,True,30,1
162K27S4,591,experiment,99,←,left,←,0.40079519990831614,True,30,1
162K27S4,592,experiment,92,←,left,←,0.636616799980402,True,30,0
162K27S4,593,experiment,74,→,right,→,0.4423822001554072,True,30,1
162K27S4,594,experiment,58,←,left,←,0.5173574001528323,True,30,1
162K27S4,595,experiment,65,→,right,→,0.4832743997685611,True,30,1
162K27S4,596,experiment,62,←,left,←,0.35071100015193224,True,30,1
162K27S4,597,experiment,63,↑,up,↑,0.5667296000756323,True,30,0
162K27S4,598,experiment,103,↑,up,↑,0.4614246003329754,True,30,1
162K27S4,599,experiment,64,↓,down,↓,0.4375240998342633,True,30,1
162K27S4,600,experiment,49,→,left,←,0.41990929981693625,False,30,1
162K27S4,601,experiment,87,↑,no_key,no_letter,-1.0,False,30,1
162K27S4,602,experiment,88,↑,no_key,no_letter,-1.0,False,30,1
162K27S4,603,experiment,69,←,right,→,0.6464677997864783,False,30,1
162K27S4,604,experiment,104,→,left,←,0.4895164002664387,False,30,1
162K27S4,605,experiment,96,↓,down,↓,0.4695212999358773,True,30,1
162K27S4,606,experiment,66,↑,up,↑,0.4368487996980548,True,30,1
162K27S4,607,experiment,50,←,left,←,0.7062711003236473,True,30,1
162K27S4,608,training,107,↑,up,↑,0.5697498000226915,True,30,0
162K27S4,609,training,56,←,left,←,0.5760478000156581,True,30,1
162K27S4,610,experiment,55,↓,down,↓,0.543291799724102,True,30,1
162K27S4,611,experiment,96,→,right,→,0.4806678001768887,True,30,1
162K27S4,612,experiment,62,←,left,←,0.38401340041309595,True,30,1
162K27S4,613,experiment,77,←,left,←,0.5667326003313065,True,30,0
162K27S4,614,experiment,86,↓,down,↓,0.6510828998871148,True,30,1
162K27S4,615,experiment,48,←,left,←,0.6649096999317408,True,30,1
162K27S4,616,experiment,90,→,right,→,0.6719201998785138,True,30,1
162K27S4,617,experiment,102,←,left,←,0.5865850998088717,True,30,1
162K27S4,618,experiment,89,→,right,→,0.5574433002620935,True,30,1
162K27S4,619,experiment,106,↓,down,↓,0.45931760035455227,True,30,1
162K27S4,620,experiment,54,↓,down,↓,0.6147284000180662,True,30,1
162K27S4,621,experiment,56,←,left,←,0.45121670002117753,True,30,1
162K27S4,622,experiment,52,↓,down,↓,0.4004569002427161,True,30,1
162K27S4,623,experiment,82,→,right,→,0.43599680019542575,True,30,0
162K27S4,624,experiment,87,→,right,→,0.5331633002497256,True,30,1
162K27S4,625,experiment,83,→,right,→,0.6598370000720024,True,30,1
162K27S4,626,experiment,58,↑,up,↑,0.5258932001888752,True,30,1
162K27S4,627,experiment,94,←,left,←,0.36738079972565174,True,30,1
162K27S4,628,experiment,69,→,no_key,no_letter,-1.0,False,30,0
162K27S4,629,experiment,76,←,left,←,0.3756626001559198,True,30,1
162K27S4,630,experiment,108,↑,up,↑,0.4812243999913335,True,30,0
162K27S4,631,experiment,100,←,right,→,0.4520034999586642,False,30,1
162K27S4,632,experiment,49,←,left,←,0.47349040023982525,True,30,1
162K27S4,633,experiment,97,↑,up,↑,0.486011799890548,True,30,1
162K27S4,634,experiment,78,←,no_key,no_letter,-1.0,False,30,1
162K27S4,635,experiment,93,←,left,←,0.5168097000569105,True,30,1
162K27S4,636,experiment,88,→,right,→,0.4419782003387809,True,30,1
162K27S4,637,experiment,60,↓,down,↓,0.5319390003569424,True,30,1
162K27S4,638,experiment,59,←,left,←,0.5707153999246657,True,30,1
162K27S4,639,experiment,84,↑,up,↑,0.6159287998452783,True,30,1
162K27S4,640,experiment,91,↓,down,↓,0.5524642001837492,True,30,1
162K27S4,641,experiment,50,↓,down,↓,0.5615627001971006,True,30,1
162K27S4,642,experiment,66,↓,down,↓,0.47703110007569194,True,30,1
162K27S4,643,experiment,95,←,left,←,0.39242300018668175,True,30,1
162K27S4,644,experiment,80,←,left,←,0.5112036997452378,True,30,0
162K27S4,645,experiment,79,→,right,→,0.47219409979879856,True,30,1
162K27S4,646,experiment,103,→,right,→,0.45858879992738366,True,30,1
162K27S4,647,experiment,101,↑,down,↓,0.5262950998730958,False,30,1
162K27S4,648,experiment,74,↓,down,↓,0.6642817999236286,True,30,1
162K27S4,649,experiment,61,↑,up,↑,0.8250771001912653,True,30,1
162K27S4,650,experiment,92,↓,down,↓,0.433411399833858,True,30,1
162K27S4,651,experiment,73,↓,down,↓,0.40106149995699525,True,30,1
162K27S4,652,experiment,75,↓,down,↓,0.4221495999954641,True,30,0
162K27S4,653,experiment,85,←,down,↓,1.1280018002726138,False,30,1
162K27S4,654,experiment,53,↓,down,↓,0.5210929997265339,True,30,1
162K27S4,655,experiment,104,←,left,←,0.3833725997246802,True,30,1
162K27S4,656,experiment,71,↑,up,↑,0.4654695000499487,True,30,0
162K27S4,657,experiment,65,↓,down,↓,0.6250338000245392,True,30,1
162K27S4,658,experiment,107,→,right,→,0.44407769991084933,True,30,1
162K27S4,659,experiment,51,↑,up,↑,0.4333415003493428,True,30,1
162K27S4,660,experiment,72,→,right,→,0.4554606000892818,True,30,1
162K27S4,661,experiment,105,←,no_key,no_letter,-1.0,False,30,1
162K27S4,662,experiment,63,↓,down,↓,0.6478169001638889,True,30,1
162K27S4,663,experiment,99,↑,down,↓,0.4365803999826312,False,30,1
162K27S4,664,experiment,57,↓,up,↑,0.5035550002939999,False,30,1
162K27S4,665,experiment,68,↑,up,↑,0.6608818997628987,True,30,1
162K27S4,666,experiment,67,←,left,←,0.5157825001515448,True,30,1
162K27S4,667,experiment,98,←,left,←,0.38374600000679493,True,30,1
162K27S4,668,experiment,64,→,right,→,0.7048760000616312,True,30,0
162K27S4,669,experiment,70,↑,up,↑,0.3839679001830518,True,30,1
162K27S4,670,experiment,81,↓,down,↓,0.44215040002018213,True,30,0
162K27S4,671,training,81,←,no_key,no_letter,-1.0,False,30,0
162K27S4,672,training,57,↓,down,↓,0.6102972999215126,True,30,1
162K27S4,673,experiment,50,→,right,→,0.4809879995882511,True,30,1
162K27S4,674,experiment,57,↑,up,↑,0.4004143001511693,True,30,1
162K27S4,675,experiment,86,↓,down,↓,0.5251217000186443,True,30,0
162K27S4,676,experiment,74,↓,down,↓,0.7433060999028385,True,30,1
162K27S4,677,experiment,107,↓,down,↓,0.5974450996145606,True,30,1
162K27S4,678,experiment,93,→,right,→,0.47027159994468093,True,30,1
162K27S4,679,experiment,91,↑,up,↑,0.4452856997959316,True,30,1
162K27S4,680,experiment,69,↑,up,↑,0.66004170011729,True,30,1
162K27S4,681,experiment,82,←,no_key,no_letter,-1.0,False,30,1
162K27S4,682,experiment,52,↓,down,↓,0.5516828000545502,True,30,1
162K27S4,683,experiment,100,↑,up,↑,0.6639774995855987,True,30,1
162K27S4,684,experiment,78,→,right,→,0.5871414998546243,True,30,1
162K27S4,685,experiment,79,→,right,→,0.4732029000297189,True,30,1
162K27S4,686,experiment,71,←,left,←,0.5982149001210928,True,30,1
162K27S4,687,experiment,53,→,right,→,0.47650699969381094,True,30,1
162K27S4,688,experiment,66,←,left,←,0.49114529974758625,True,30,1
162K27S4,689,experiment,58,→,right,→,0.5159229999408126,True,30,1
162K27S4,690,experiment,101,←,left,←,0.4006579997949302,True,30,1
162K27S4,691,experiment,84,↓,down,↓,0.6086205001920462,True,30,0
162K27S4,692,experiment,64,↓,down,↓,0.41919919988140464,True,30,1
162K27S4,693,experiment,97,↓,down,↓,0.42555460007861257,True,30,0
162K27S4,694,experiment,95,→,right,→,0.6318180002272129,True,30,1
162K27S4,695,experiment,83,↓,down,↓,0.5865238001570106,True,30,1
162K27S4,696,experiment,68,↑,up,↑,0.476354599930346,True,30,1
162K27S4,697,experiment,77,↑,up,↑,0.48734419979155064,True,30,1
162K27S4,698,experiment,98,←,left,←,0.5070724999532104,True,30,1
162K27S4,699,experiment,88,↑,up,↑,0.4178019003011286,True,30,1
162K27S4,700,experiment,99,←,left,←,0.7028365996666253,True,30,0
162K27S4,701,experiment,89,↑,up,↑,0.5651100999675691,True,30,1
162K27S4,702,experiment,55,←,left,←,0.4996213000267744,True,30,1
162K27S4,703,experiment,70,←,left,←,0.3758127000182867,True,30,1
162K27S4,704,experiment,63,↑,up,↑,0.4200737001374364,True,30,0
162K27S4,705,experiment,73,←,left,←,0.5138444998301566,True,30,1
162K27S4,706,experiment,62,↑,up,↑,0.5763183999806643,True,30,1
162K27S4,707,experiment,90,↑,up,↑,0.4670298998244107,True,30,1
162K27S4,708,experiment,51,→,right,→,0.655203599948436,True,30,1
162K27S4,709,experiment,92,←,left,←,0.3675939003005624,True,30,1
162K27S4,710,experiment,87,↑,up,↑,0.5055758003145456,True,30,0
162K27S4,711,experiment,59,←,left,←,0.3507240996696055,True,30,1
162K27S4,712,experiment,85,←,left,←,0.44648460019379854,True,30,0
162K27S4,713,experiment,103,↑,up,↑,0.5859419996850193,True,30,1
162K27S4,714,experiment,54,←,left,←,0.5602290998212993,True,30,1
162K27S4,715,experiment,72,↑,up,↑,0.4497446999885142,True,30,1
162K27S4,716,experiment,49,↓,up,↑,0.5350775001570582,False,30,1
162K27S4,717,experiment,105,→,right,→,0.4386540995910764,True,30,1
162K27S4,718,experiment,80,↓,down,↓,0.40068680001422763,True,30,1
162K27S4,719,experiment,76,→,right,→,0.6080853999592364,True,30,0
162K27S4,720,experiment,67,↓,down,↓,0.4410840002819896,True,30,1
162K27S4,721,experiment,61,↓,down,↓,0.5708567001856863,True,30,1
162K27S4,722,experiment,96,↓,down,↓,0.42040419997647405,True,30,1
162K27S4,723,experiment,56,→,right,→,0.7047425000928342,True,30,1
162K27S4,724,experiment,104,→,right,→,0.5449564000591636,True,30,1
162K27S4,725,experiment,60,↓,left,←,0.46309110010042787,False,30,1
162K27S4,726,experiment,94,↓,down,↓,0.4932891000062227,True,30,1
162K27S4,727,experiment,102,←,left,←,0.38410030025988817,True,30,1
162K27S4,728,experiment,65,↓,down,↓,0.4255896997638047,True,30,0
162K27S4,729,experiment,81,→,right,→,0.5173848997801542,True,30,1
162K27S4,730,experiment,108,↑,up,↑,0.508423900231719,True,30,1
162K27S4,731,experiment,75,→,right,→,0.6148691000416875,True,30,1
162K27S4,732,experiment,48,↑,up,↑,0.39212779980152845,True,30,1
162K27S4,733,experiment,106,↑,up,↑,0.6183906998485327,True,30,0
162K27S4,734,training,62,↓,down,↓,0.710691699758172,True,29,0
162K27S4,735,training,93,↓,no_key,no_letter,-1.0,False,29,1
162K27S4,736,experiment,105,↑,up,↑,0.6032184003852308,True,29,1
162K27S4,737,experiment,88,←,left,←,0.3756539998576045,True,29,1
162K27S4,738,experiment,97,↑,up,↑,0.6297203996218741,True,29,0
162K27S4,739,experiment,68,↑,up,↑,0.501802499871701,True,29,1
162K27S4,740,experiment,94,↑,up,↑,0.5301292003132403,True,29,1
162K27S4,741,experiment,73,↑,up,↑,0.5482300999574363,True,29,1
162K27S4,742,experiment,96,↓,down,↓,0.717822500038892,True,29,1
162K27S4,743,experiment,58,↓,down,↓,0.69380549993366,True,29,1
162K27S4,744,experiment,49,↑,no_key,no_letter,-1.0,False,29,1
162K27S4,745,experiment,65,←,left,←,0.6549551002681255,True,29,1
162K27S4,746,experiment,100,←,left,←,0.4354143999516964,True,29,1
162K27S4,747,experiment,87,←,left,←,0.36730660032480955,True,29,1
162K27S4,748,experiment,74,→,right,→,0.660664000082761,True,29,0
162K27S4,749,experiment,101,→,right,→,0.6004158998839557,True,29,1
162K27S4,750,experiment,98,←,no_key,no_letter,-1.0,False,29,1
162K27S4,751,experiment,89,↓,down,↓,0.6610115999355912,True,29,1
162K27S4,752,experiment,69,→,right,→,0.5636982000432909,True,29,1
162K27S4,753,experiment,104,↑,left,←,0.6497444999404252,False,29,1
162K27S4,754,experiment,79,→,right,→,0.5331231001764536,True,29,1
162K27S4,755,experiment,91,←,left,←,0.39304700028151274,True,29,1
162K27S4,756,experiment,107,→,right,→,0.43730980018153787,True,29,0
162K27S4,757,experiment,59,↓,down,↓,0.45568890031427145,True,29,1
162K27S4,758,experiment,106,↑,up,↑,0.5458021997474134,True,29,1
162K27S4,759,experiment,80,↓,down,↓,0.4734281003475189,True,29,1
162K27S4,760,experiment,84,→,left,←,0.4658637000247836,False,29,1
162K27S4,761,experiment,83,↑,up,↑,0.5793957998976111,True,29,1
162K27S4,762,experiment,70,↓,down,↓,0.7084781001321971,True,29,1
162K27S4,763,experiment,99,→,right,→,0.5267540998756886,True,29,1
162K27S4,764,experiment,102,←,left,←,0.384771800134331,True,29,1
162K27S4,765,experiment,60,→,right,→,0.6112850001081824,True,29,0
162K27S4,766,experiment,66,↓,down,↓,0.516629499848932,True,29,1
162K27S4,767,experiment,95,→,right,→,0.5039722002111375,True,29,1
162K27S4,768,experiment,82,↓,down,↓,0.4246224001981318,True,29,1
162K27S4,769,experiment,103,↑,no_key,no_letter,-1.0,False,29,1
162K27S4,770,experiment,55,→,right,→,0.5897554997354746,True,29,1
162K27S4,771,experiment,51,↓,down,↓,0.6207230999134481,True,29,1
162K27S4,772,experiment,75,→,right,→,0.6348167997784913,True,29,1
162K27S4,773,experiment,77,→,right,→,0.5995992003008723,True,29,1
162K27S4,774,experiment,108,↑,up,↑,0.4591409000568092,True,29,1
162K27S4,775,experiment,78,←,left,←,0.5026270998641849,True,29,1
162K27S4,776,experiment,62,←,left,←,0.39235249999910593,True,29,1
162K27S4,777,experiment,71,↑,up,↑,0.4222837002016604,True,29,0
162K27S4,778,experiment,81,←,left,←,0.4816287998110056,True,29,1
162K27S4,779,experiment,63,→,right,→,0.4890320999547839,True,29,1
162K27S4,780,experiment,76,←,left,←,0.5318772001191974,True,29,1
162K27S4,781,experiment,53,→,right,→,0.4604235999286175,True,29,1
162K27S4,782,experiment,61,←,left,←,0.375628300011158,True,29,1
162K27S4,783,experiment,56,←,left,←,0.7154601998627186,True,29,0
162K27S4,784,experiment,52,←,left,←,0.4533909996971488,True,29,1
162K27S4,785,experiment,48,↓,left,←,0.5148219000548124,False,29,1
162K27S4,786,experiment,64,↑,up,↑,0.5529240001924336,True,29,1
162K27S4,787,experiment,67,↓,down,↓,0.5080857002176344,True,29,1
162K27S4,788,experiment,90,←,left,←,0.3505037999711931,True,29,1
162K27S4,789,experiment,72,↑,up,↑,0.6269466998055577,True,29,0
162K27S4,790,experiment,92,↑,up,↑,0.44320019986480474,True,29,1
162K27S4,791,experiment,93,←,left,←,0.6499381000176072,True,29,1
162K27S4,792,experiment,50,↓,down,↓,0.5431037000380456,True,29,1
162K27S4,793,experiment,54,→,down,↓,0.6151974000968039,False,29,1
162K27S4,794,experiment,57,←,right,→,0.6273515000939369,False,29,1
162K27S4,795,experiment,86,→,left,←,0.4693750999867916,False,29,1
162K27S4,796,experiment,85,↓,up,↑,0.6221544002182782,False,29,1
162K27S4,797,training,106,↑,up,↑,0.5779031999409199,True,29,0
162K27S4,798,training,101,↓,down,↓,0.41742319986224174,True,29,1
162K27S4,799,experiment,86,↓,no_key,no_letter,-1.0,False,29,1
162K27S4,800,experiment,87,↓,down,↓,0.465502199716866,True,29,1
162K27S4,801,experiment,99,←,left,←,0.39263590006157756,True,29,1
162K27S4,802,experiment,68,←,left,←,0.37570099998265505,True,29,0
162K27S4,803,experiment,72,←,left,←,0.3750597001053393,True,29,0
162K27S4,804,experiment,50,↓,down,↓,0.6788556003011763,True,29,0
162K27S4,805,experiment,102,↓,down,↓,0.5057040001265705,True,29,1
162K27S4,806,experiment,96,↑,up,↑,0.39234380004927516,True,29,1
162K27S4,807,experiment,106,→,right,→,0.43338629975914955,True,29,0
162K27S4,808,experiment,53,→,right,→,0.43032889999449253,True,29,1
162K27S4,809,experiment,81,→,left,←,0.5215852996334434,False,29,1
162K27S4,810,experiment,88,↑,up,↑,0.5989256999455392,True,29,1
162K27S4,811,experiment,67,↑,no_key,no_letter,-1.0,False,29,1
162K27S4,812,experiment,79,←,right,→,0.45723599987104535,False,29,1
162K27S4,813,experiment,58,→,right,→,0.5953144999220967,True,29,1
162K27S4,814,experiment,80,→,left,←,0.3924162997864187,False,29,1
162K27S4,815,experiment,105,↑,up,↑,0.3923643999733031,True,29,0
162K27S4,816,experiment,48,↓,up,↑,0.517174200154841,False,29,0
162K27S4,817,experiment,77,↑,up,↑,0.4466454000212252,True,29,1
162K27S4,818,experiment,93,↓,down,↓,0.5973917003720999,True,29,1
162K27S4,819,experiment,73,↑,down,↓,0.5408152998425066,False,29,1
162K27S4,820,experiment,59,←,left,←,0.4273873995989561,True,29,1
162K27S4,821,experiment,94,←,left,←,0.34234319999814034,True,29,1
162K27S4,822,experiment,63,↓,down,↓,0.6633526999503374,True,29,0
162K27S4,823,experiment,92,←,up,↑,0.3265896998345852,False,29,1
162K27S4,824,experiment,85,↑,up,↑,0.5634945002384484,True,29,0
162K27S4,825,experiment,76,←,left,←,0.39242839999496937,True,29,1
162K27S4,826,experiment,101,↓,down,↓,0.6655268003232777,True,29,0
162K27S4,827,experiment,56,←,left,←,0.3673462998121977,True,29,1
162K27S4,828,experiment,103,↓,down,↓,0.626092900056392,True,29,0
162K27S4,829,experiment,66,↑,no_key,no_letter,-1.0,False,29,1
162K27S4,830,experiment,98,↓,down,↓,0.46931839967146516,True,29,1
162K27S4,831,experiment,61,↓,down,↓,0.5100365998223424,True,29,1
162K27S4,832,experiment,82,↑,down,↓,0.47010149993002415,False,29,1
162K27S4,833,experiment,107,↑,up,↑,0.5278846002183855,True,29,1
162K27S4,834,experiment,57,↓,up,↑,0.5194258000701666,False,29,1
162K27S4,835,experiment,62,←,left,←,0.6857107998803258,True,29,1
162K27S4,836,experiment,54,←,right,→,0.43226979998871684,False,29,1
162K27S4,837,experiment,52,↑,left,←,0.7013042001053691,False,29,1
162K27S4,838,experiment,74,→,right,→,0.4403269002214074,True,29,1
162K27S4,839,experiment,75,←,left,←,0.509381600189954,True,29,1
162K27S4,840,experiment,104,←,left,←,0.5660362001508474,True,29,1
162K27S4,841,experiment,89,↓,down,↓,0.5375219997949898,True,29,1
162K27S4,842,experiment,78,→,right,→,0.5775832999497652,True,29,1
162K27S4,843,experiment,55,↑,down,↓,0.799964000005275,False,29,1
162K27S4,844,experiment,84,↓,down,↓,0.5162166003137827,True,29,1
162K27S4,845,experiment,60,↑,up,↑,0.9387232000008225,True,29,1
162K27S4,846,experiment,83,↑,up,↑,0.6650596000254154,True,29,1
162K27S4,847,experiment,49,←,left,←,0.5498778000473976,True,29,1
162K27S4,848,experiment,71,→,right,→,0.48790840012952685,True,29,1
162K27S4,849,experiment,95,→,right,→,0.5966211999766529,True,29,1
162K27S4,850,experiment,51,←,right,→,0.6356238001026213,False,29,1
162K27S4,851,experiment,70,↓,down,↓,0.4504603003151715,True,29,1
162K27S4,852,experiment,65,→,right,→,0.5468021002598107,True,29,1
162K27S4,853,experiment,69,↑,up,↑,0.4852418997325003,True,29,1
162K27S4,854,experiment,64,↓,left,←,0.5643704999238253,False,29,1
162K27S4,855,experiment,90,↑,up,↑,1.2394873001612723,True,29,1
162K27S4,856,experiment,91,↓,down,↓,0.6549319000914693,True,29,1
162K27S4,857,experiment,100,↓,down,↓,0.41988190030679107,True,29,1
162K27S4,858,experiment,97,→,right,→,0.46540729980915785,True,29,1
162K27S4,859,experiment,108,↑,up,↑,0.4346749000251293,True,29,1
162K27S4,860,training,62,↓,down,↓,0.6352338995784521,True,29,0
162K27S4,861,training,55,→,right,→,0.454887299798429,True,29,1
162K27S4,862,experiment,80,→,right,→,0.48216510005295277,True,29,1
162K27S4,863,experiment,68,↑,no_key,no_letter,-1.0,False,29,1
162K27S4,864,experiment,71,↓,down,↓,0.4514136998914182,True,29,1
162K27S4,865,experiment,63,→,right,→,0.4762431001290679,True,29,1
162K27S4,866,experiment,99,←,left,←,0.607806199695915,True,29,1
162K27S4,867,experiment,73,↑,down,↓,0.5588963995687664,False,29,1
162K27S4,868,experiment,93,↑,up,↑,0.4733370002359152,True,29,1
162K27S4,869,experiment,55,←,left,←,0.3840375002473593,True,29,1
162K27S4,870,experiment,58,→,right,→,0.43264300003647804,True,29,0
162K27S4,871,experiment,66,↑,up,↑,0.3924104003235698,True,29,1
162K27S4,872,experiment,104,↑,no_key,no_letter,-1.0,False,29,0
162K27S4,873,experiment,81,↓,up,↑,0.5341928997077048,False,29,1
162K27S4,874,experiment,50,↓,up,↑,0.5839396002702415,False,29,1
162K27S4,875,experiment,92,↑,up,↑,0.38405709993094206,True,29,1
162K27S4,876,experiment,60,↑,up,↑,0.5177489998750389,True,29,0
162K27S4,877,experiment,53,→,right,→,0.5752204000018537,True,29,1
162K27S4,878,experiment,75,←,left,←,0.3598000998608768,True,29,1
162K27S4,879,experiment,86,↑,up,↑,0.3756524999625981,True,29,0
162K27S4,880,experiment,97,↓,down,↓,0.4432088998146355,True,29,0
162K27S4,881,experiment,49,←,left,←,0.5289074000902474,True,29,1
162K27S4,882,experiment,100,←,right,→,0.5621609999798238,False,29,1
162K27S4,883,experiment,54,→,right,→,0.5217034001834691,True,29,1
162K27S4,884,experiment,88,↑,left,←,0.6230347999371588,False,29,1
162K27S4,885,experiment,67,↓,down,↓,0.5836722999811172,True,29,1
162K27S4,886,experiment,77,↓,no_key,no_letter,-1.0,False,29,1
162K27S4,887,experiment,57,→,right,→,0.5264888000674546,True,29,1
162K27S4,888,experiment,51,↑,up,↑,0.7843169998377562,True,29,1
162K27S4,889,experiment,65,→,right,→,0.4429144999012351,True,29,1
162K27S4,890,experiment,107,↑,up,↑,0.5652281995862722,True,29,1
162K27S4,891,experiment,103,↓,up,↑,0.5161338998004794,False,29,1
162K27S4,892,experiment,89,←,left,←,0.4101547999307513,True,29,1
162K27S4,893,experiment,106,→,right,→,0.47714579990133643,True,29,0
162K27S4,894,experiment,108,↑,up,↑,0.6778171001933515,True,29,1
162K27S4,895,experiment,76,↓,down,↓,0.44922469975426793,True,29,1
162K27S4,896,experiment,62,↑,up,↑,0.49825350008904934,True,29,1
162K27S4,897,experiment,98,→,right,→,0.6940731997601688,True,29,1
162K27S4,898,experiment,90,↓,down,↓,0.6273575997911394,True,29,1
162K27S4,899,experiment,82,←,no_key,no_letter,-1.0,False,29,1
162K27S4,900,experiment,83,↑,up,↑,0.5265776999294758,True,29,1
162K27S4,901,experiment,105,→,right,→,0.5579472999088466,True,29,1
162K27S4,902,experiment,94,↑,up,↑,0.5599694000557065,True,29,1
162K27S4,903,experiment,59,↑,no_key,no_letter,-1.0,False,29,1
162K27S4,904,experiment,61,↓,left,←,0.46866099955514073,False,29,1
162K27S4,905,experiment,56,←,left,←,0.43155759992077947,True,29,1
162K27S4,906,experiment,74,←,left,←,0.5090030999854207,True,29,1
162K27S4,907,experiment,101,↑,up,↑,0.46259169979020953,True,29,1
162K27S4,908,experiment,87,↓,down,↓,0.5427459003403783,True,29,1
162K27S4,909,experiment,70,→,right,→,0.6414367998950183,True,29,1
162K27S4,910,experiment,72,←,left,←,0.6474394001998007,True,29,1
162K27S4,911,experiment,64,↑,left,←,0.49586200015619397,False,29,1
162K27S4,912,experiment,95,→,right,→,0.5719106001779437,True,29,1
162K27S4,913,experiment,85,↑,no_key,no_letter,-1.0,False,29,1
162K27S4,914,experiment,69,←,left,←,0.4130790997296572,True,29,1
162K27S4,915,experiment,84,←,left,←,0.6875231000594795,True,29,0
162K27S4,916,experiment,52,↓,down,↓,0.42640559980645776,True,29,1
162K27S4,917,experiment,48,→,right,→,0.44104899978265166,True,29,1
162K27S4,918,experiment,102,→,right,→,0.4611146003007889,True,29,1
162K27S4,919,experiment,96,→,right,→,0.6985383997671306,True,29,1
162K27S4,920,experiment,91,↑,up,↑,0.384812300093472,True,29,1
162K27S4,921,experiment,79,→,right,→,0.565325400326401,True,29,0
162K27S4,922,experiment,78,←,left,←,0.4604746997356415,True,29,1
162K27S4,923,training,97,↑,up,↑,0.4898176002316177,True,29,0
162K27S4,924,training,86,↓,left,←,0.3590619000606239,False,29,1
162K27S4,925,experiment,95,↓,left,←,0.4662826000712812,False,29,0
162K27S4,926,experiment,104,↑,down,↓,0.4927322999574244,False,29,1
162K27S4,927,experiment,106,←,left,←,0.6854741000570357,True,29,1
162K27S4,928,experiment,81,↓,down,↓,0.5027745002880692,True,29,1
162K27S4,929,experiment,59,←,left,←,0.3757050996646285,True,29,1
162K27S4,930,experiment,54,←,left,←,0.5972651997581124,True,29,0
162K27S4,931,experiment,93,↑,down,↓,0.558077699970454,False,29,1
162K27S4,932,experiment,76,↑,no_key,no_letter,-1.0,False,29,1
162K27S4,933,experiment,102,↓,down,↓,0.447537699714303,True,29,1
162K27S4,934,experiment,60,↓,down,↓,0.45697659999132156,True,29,1
162K27S4,935,experiment,64,↑,up,↑,0.5612282999791205,True,29,1
162K27S4,936,experiment,66,↑,up,↑,0.39213789999485016,True,29,1
162K27S4,937,experiment,55,←,right,→,0.5623271996155381,False,29,0
162K27S4,938,experiment,82,↑,up,↑,0.41664939979091287,True,29,1
162K27S4,939,experiment,83,←,left,←,0.6273234998807311,True,29,1
162K27S4,940,experiment,69,←,no_key,no_letter,-1.0,False,29,1
162K27S4,941,experiment,91,↓,down,↓,0.37667790008708835,True,29,1
162K27S4,942,experiment,51,←,left,←,0.5748959998600185,True,29,0
162K27S4,943,experiment,62,↓,down,↓,0.5789992003701627,True,29,1
162K27S4,944,experiment,99,↑,down,↓,0.7223664000630379,False,29,1
162K27S4,945,experiment,84,↓,down,↓,0.5371566000394523,True,29,1
162K27S4,946,experiment,97,→,right,→,0.6830298001877964,True,29,1
162K27S4,947,experiment,67,↑,up,↑,0.425333300139755,True,29,1
162K27S4,948,experiment,73,↓,down,↓,0.5595671003684402,True,29,1
162K27S4,949,experiment,65,→,right,→,0.45132979983463883,True,29,1
162K27S4,950,experiment,49,←,left,←,0.47276319982483983,True,29,1
162K27S4,951,experiment,79,↑,up,↑,0.45116040017455816,True,29,1
162K27S4,952,experiment,70,↑,up,↑,0.545509799849242,True,29,1
162K27S4,953,experiment,56,↑,up,↑,0.36736130015924573,True,29,1
162K27S4,954,experiment,85,←,left,←,0.5494113001041114,True,29,0
162K27S4,955,experiment,74,→,right,→,0.4624248999170959,True,29,1
162K27S4,956,experiment,52,→,left,←,0.5866801999509335,False,29,1
162K27S4,957,experiment,63,←,right,→,0.5979810003191233,False,29,1
162K27S4,958,experiment,57,→,right,→,0.47478439984843135,True,29,1
162K27S4,959,experiment,88,↓,down,↓,0.5621403995901346,True,29,1
162K27S4,960,experiment,50,→,right,→,0.47501090029254556,True,29,1
162K27S4,961,experiment,86,→,right,→,0.443047400098294,True,29,1
162K27S4,962,experiment,48,↓,down,↓,0.505092500243336,True,29,1
162K27S4,963,experiment,89,↓,down,↓,0.4634103002026677,True,29,1
162K27S4,964,experiment,96,←,left,←,0.3840932999737561,True,29,1
162K27S4,965,experiment,105,←,right,→,0.5692420997656882,False,29,0
162K27S4,966,experiment,92,→,right,→,0.467584399972111,True,29,1
162K27S4,967,experiment,94,←,left,←,0.4416119996458292,True,29,1
162K27S4,968,experiment,80,→,left,←,0.5408131997101009,False,29,1
162K27S4,969,experiment,77,←,left,←,0.41350769996643066,True,29,1
162K27S4,970,experiment,101,↑,left,←,0.6346952999010682,False,29,0
162K27S4,971,experiment,71,↑,up,↑,0.4256710996851325,True,29,1
162K27S4,972,experiment,108,→,right,→,0.5960654001682997,True,29,1
162K27S4,973,experiment,61,↓,left,←,0.5674010002985597,False,29,1
162K27S4,974,experiment,72,↑,up,↑,0.43261680006980896,True,29,1
162K27S4,975,experiment,58,↓,down,↓,0.5715294000692666,True,29,1
162K27S4,976,experiment,53,↑,up,↑,0.6186707001179457,True,29,1
162K27S4,977,experiment,90,↓,down,↓,0.4516953998245299,True,29,1
162K27S4,978,experiment,87,→,right,→,0.5405411999672651,True,29,1
162K27S4,979,experiment,75,↓,down,↓,0.4219953999854624,True,29,1
162K27S4,980,experiment,68,←,left,←,0.5256878999061882,True,29,1
162K27S4,981,experiment,100,→,right,→,0.42340230010449886,True,29,1
162K27S4,982,experiment,103,↓,down,↓,0.483464099932462,True,29,1
162K27S4,983,experiment,78,←,left,←,0.5259970999322832,True,29,1
162K27S4,984,experiment,98,↓,down,↓,0.43197640031576157,True,29,1
162K27S4,985,experiment,107,←,left,←,0.384022600017488,True,29,1
162K27S4,986,training,102,→,right,→,0.6430732002481818,True,29,0
162K27S4,987,training,84,↓,down,↓,0.429549400229007,True,29,1
162K27S4,988,experiment,90,↓,down,↓,0.5818858998827636,True,29,1
162K27S4,989,experiment,97,←,left,←,0.46989749977365136,True,29,1
162K27S4,990,experiment,88,←,left,←,0.49359859991818666,True,29,1
162K27S4,991,experiment,54,←,no_key,no_letter,-1.0,False,29,1
162K27S4,992,experiment,87,↓,down,↓,0.509931500069797,True,29,1
162K27S4,993,experiment,101,↑,up,↑,0.6316321003250778,True,29,1
162K27S4,994,experiment,103,←,left,←,0.6115871998481452,True,29,1
162K27S4,995,experiment,51,↓,down,↓,0.44204979995265603,True,29,1
162K27S4,996,experiment,49,↑,up,↑,0.664041600190103,True,29,1
162K27S4,997,experiment,75,←,left,←,0.4280344001017511,True,29,1
162K27S4,998,experiment,95,→,right,→,0.47460150020197034,True,29,1
162K27S4,999,experiment,107,←,left,←,0.49971040012314916,True,29,1
162K27S4,1000,experiment,80,→,right,→,0.4847348998300731,True,29,1
162K27S4,1001,experiment,102,→,right,→,0.759574799798429,True,29,1
162K27S4,1002,experiment,62,→,right,→,0.47585990000516176,True,29,1
162K27S4,1003,experiment,48,↑,up,↑,0.4091759999282658,True,29,1
162K27S4,1004,experiment,78,←,left,←,0.6217793999239802,True,29,0
162K27S4,1005,experiment,89,↓,down,↓,0.46266459999606013,True,29,1
162K27S4,1006,experiment,106,→,right,→,0.6724375998601317,True,29,1
162K27S4,1007,experiment,63,←,left,←,0.46436959970742464,True,29,1
162K27S4,1008,experiment,56,↓,up,↑,0.6185971000231802,False,29,1
162K27S4,1009,experiment,73,↓,down,↓,0.4099536999128759,True,29,1
162K27S4,1010,experiment,94,↑,up,↑,0.6090295002795756,True,29,0
162K27S4,1011,experiment,86,↑,left,←,0.6121060000732541,False,29,1
162K27S4,1012,experiment,52,→,left,←,0.4339097002521157,False,29,1
162K27S4,1013,experiment,79,←,left,←,0.3921264000236988,True,29,1
162K27S4,1014,experiment,108,↓,down,↓,0.6581876999698579,True,29,0
162K27S4,1015,experiment,58,→,right,→,0.5158159998245537,True,29,1
162K27S4,1016,experiment,100,←,left,←,0.34241520008072257,True,29,1
162K27S4,1017,experiment,99,←,right,→,0.6062424997799098,False,29,0
162K27S4,1018,experiment,85,→,right,→,0.5132485996000469,True,29,1
162K27S4,1019,experiment,61,←,right,→,0.6640286999754608,False,29,1
162K27S4,1020,experiment,98,←,left,←,0.38412269996479154,True,29,1
162K27S4,1021,experiment,53,→,left,←,1.6188085000030696,False,29,0
162K27S4,1022,experiment,81,↓,down,↓,0.4627672000788152,True,29,1
162K27S4,1023,experiment,55,←,left,←,0.392650100402534,True,29,1
162K27S4,1024,experiment,60,→,right,→,0.4294280996546149,True,29,1
162K27S4,1025,experiment,65,↓,down,↓,0.43023329973220825,True,29,1
162K27S4,1026,experiment,83,↑,up,↑,0.5048488001339138,True,29,1
162K27S4,1027,experiment,91,←,left,←,0.38374279998242855,True,29,1
162K27S4,1028,experiment,84,↓,down,↓,0.4105011001229286,True,29,0
162K27S4,1029,experiment,104,↓,down,↓,0.4383368003182113,True,29,0
162K27S4,1030,experiment,50,↑,right,→,1.043982899747789,False,29,1
162K27S4,1031,experiment,96,↓,down,↓,0.44973819982260466,True,29,1
162K27S4,1032,experiment,82,↑,down,↓,0.8121009999886155,False,29,1
162K27S4,1033,experiment,77,←,left,←,0.4260519999079406,True,29,1
162K27S4,1034,experiment,59,↓,right,→,0.8849641997367144,False,29,1
162K27S4,1035,experiment,105,↓,down,↓,0.6143196001648903,True,29,1
162K27S4,1036,experiment,70,↓,down,↓,0.6300360998138785,True,29,1
162K27S4,1037,experiment,69,←,left,←,0.4533843002282083,True,29,1
162K27S4,1038,experiment,74,↑,up,↑,0.419083199929446,True,29,1
162K27S4,1039,experiment,93,↑,up,↑,0.602578999940306,True,29,1
162K27S4,1040,experiment,72,→,left,←,0.30897329980507493,False,29,1
162K27S4,1041,experiment,71,↓,down,↓,0.42988110007718205,True,29,0
162K27S4,1042,experiment,68,↓,down,↓,0.677810600027442,True,29,1
162K27S4,1043,experiment,66,↓,left,←,0.6042039999738336,False,29,1
162K27S4,1044,experiment,76,↓,down,↓,0.5466346000321209,True,29,1
162K27S4,1045,experiment,64,↓,down,↓,0.43978619994595647,True,29,1
162K27S4,1046,experiment,92,↑,up,↑,0.6547631998546422,True,29,1
162K27S4,1047,experiment,67,→,right,→,0.5898397997952998,True,29,1
162K27S4,1048,experiment,57,→,left,←,0.3756891000084579,False,29,1
162K27S4,1049,training,96,↑,up,↑,0.5329662999138236,True,29,0
162K27S4,1050,training,94,←,left,←,0.4720578999258578,True,29,1
162K27S4,1051,experiment,52,↓,down,↓,0.45134539995342493,True,29,1
162K27S4,1052,experiment,80,←,left,←,0.4704983998090029,True,29,1
162K27S4,1053,experiment,99,↑,up,↑,0.41108829993754625,True,29,1
162K27S4,1054,experiment,71,↓,down,↓,0.4108291999436915,True,29,0
162K27S4,1055,experiment,78,↑,up,↑,0.6629296997562051,True,29,0
162K27S4,1056,experiment,96,→,right,→,0.45202580001205206,True,29,1
162K27S4,1057,experiment,63,←,left,←,0.4608013997785747,True,29,1
162K27S4,1058,experiment,69,←,left,←,0.33395690005272627,True,29,1
162K27S4,1059,experiment,81,→,right,→,0.4983581998385489,True,29,0
162K27S4,1060,experiment,56,↓,down,↓,0.45139409974217415,True,29,1
162K27S4,1061,experiment,103,↓,down,↓,0.7028123997151852,True,29,1
162K27S4,1062,experiment,90,↓,down,↓,0.5726056997664273,True,29,1
162K27S4,1063,experiment,54,→,right,→,0.5632382999174297,True,29,1
162K27S4,1064,experiment,48,→,no_key,no_letter,-1.0,False,29,1
162K27S4,1065,experiment,60,←,no_key,no_letter,-1.0,False,29,1
162K27S4,1066,experiment,89,↓,down,↓,0.4655197998508811,True,29,1
162K27S4,1067,experiment,83,←,no_key,no_letter,-1.0,False,29,1
162K27S4,1068,experiment,97,→,right,→,0.41449239989742637,True,29,1
162K27S4,1069,experiment,64,→,right,→,0.42407349962741137,True,29,0
162K27S4,1070,experiment,79,→,right,→,0.6279262001626194,True,29,1
162K27S4,1071,experiment,55,↓,left,←,0.7603351003490388,False,29,1
162K27S4,1072,experiment,94,←,left,←,0.6264047999866307,True,29,1
162K27S4,1073,experiment,59,→,right,→,0.4455071999691427,True,29,1
162K27S4,1074,experiment,62,↓,no_key,no_letter,-1.0,False,29,1
162K27S4,1075,experiment,95,→,right,→,0.44217339996248484,True,29,1
162K27S4,1076,experiment,104,←,left,←,0.4694913998246193,True,29,1
162K27S4,1077,experiment,91,←,left,←,0.3757833996787667,True,29,1
162K27S4,1078,experiment,67,←,left,←,0.35903660021722317,True,29,0
162K27S4,1079,experiment,75,↓,down,↓,0.8942288001999259,True,29,0
162K27S4,1080,experiment,84,→,right,→,0.37598130013793707,True,29,1
162K27S4,1081,experiment,61,↓,down,↓,0.9224366997368634,True,29,0
162K27S4,1082,experiment,51,↑,left,←,0.5561461001634598,False,29,1
162K27S4,1083,experiment,74,→,right,→,0.44556540017947555,True,29,1
162K27S4,1084,experiment,49,←,right,→,0.6027726996690035,False,29,1
162K27S4,1085,experiment,58,→,right,→,0.43121649976819754,True,29,1
162K27S4,1086,experiment,100,↓,no_key,no_letter,-1.0,False,29,1
162K27S4,1087,experiment,106,←,left,←,0.5001074001193047,True,29,1
162K27S4,1088,experiment,93,↓,down,↓,0.49680819967761636,True,29,1
162K27S4,1089,experiment,108,↓,down,↓,0.3838357999920845,True,29,1
162K27S4,1090,experiment,70,→,right,→,0.593204100150615,True,29,0
162K27S4,1091,experiment,101,↑,up,↑,0.6317086000926793,True,29,1
162K27S4,1092,experiment,107,→,left,←,0.6101947999559343,False,29,1
162K27S4,1093,experiment,76,↓,up,↑,0.6323162000626326,False,29,1
162K27S4,1094,experiment,82,→,left,←,0.4835517001338303,False,29,1
162K27S4,1095,experiment,68,↓,down,↓,0.49710760032758117,True,29,1
162K27S4,1096,experiment,102,↓,right,→,0.818814099766314,False,29,1
162K27S4,1097,experiment,72,↓,up,↑,0.593977200333029,False,29,1
162K27S4,1098,experiment,65,→,left,←,0.5165511001832783,False,29,1
162K27S4,1099,experiment,92,←,left,←,0.6648081000894308,True,29,1
162K27S4,1100,experiment,87,→,right,→,0.49671850027516484,True,29,1
162K27S4,1101,experiment,86,←,left,←,0.5437428001314402,True,29,1
162K27S4,1102,experiment,77,↓,down,↓,0.5525922998785973,True,29,1
162K27S4,1103,experiment,98,↑,up,↑,0.5532141998410225,True,29,1
162K27S4,1104,experiment,50,→,left,←,0.594297599978745,False,29,1
162K27S4,1105,experiment,66,↑,left,←,0.7403779998421669,False,29,1
162K27S4,1106,experiment,57,↑,up,↑,0.43556550005450845,True,29,1
162K27S4,1107,experiment,88,←,left,←,0.3671496002934873,True,29,1
162K27S4,1108,experiment,53,←,left,←,0.8595968000590801,True,29,0
162K27S4,1109,experiment,85,↓,down,↓,0.5806085001677275,True,29,1
162K27S4,1110,experiment,105,←,down,↓,0.6342311999760568,False,29,1
162K27S4,1111,experiment,73,←,left,←,0.37581370025873184,True,29,1
162K27S4,1112,training,48,↑,up,↑,0.5744899003766477,True,29,0
162K27S4,1113,training,63,→,right,→,0.5139967002905905,True,29,1
162K27S4,1114,experiment,71,→,right,→,0.6933774999342859,True,29,1
162K27S4,1115,experiment,57,↓,up,↑,0.5344273997470737,False,29,1
162K27S4,1116,experiment,104,→,right,→,0.44620619993656874,True,29,1
162K27S4,1117,experiment,98,←,left,←,0.5315223997458816,True,29,1
162K27S4,1118,experiment,88,→,right,→,0.6802218998782337,True,29,1
162K27S4,1119,experiment,50,←,left,←,0.3923965999856591,True,29,1
162K27S4,1120,experiment,99,←,left,←,0.41082749981433153,True,29,0
162K27S4,1121,experiment,80,↓,no_key,no_letter,-1.0,False,29,0
162K27S4,1122,experiment,64,←,left,←,0.3587357997894287,True,29,1
162K27S4,1123,experiment,107,→,right,→,0.5384590998291969,True,29,0
162K27S4,1124,experiment,92,→,right,→,0.42251820024102926,True,29,1
162K27S4,1125,experiment,105,→,right,→,0.4499212000519037,True,29,1
162K27S4,1126,experiment,102,←,left,←,0.3594292998313904,True,29,1
162K27S4,1127,experiment,49,←,left,←,1.0383493998087943,True,29,0
162K27S4,1128,experiment,68,←,left,←,0.5180290997959673,True,29,1
162K27S4,1129,experiment,58,↓,down,↓,0.5815439997240901,True,29,1
162K27S4,1130,experiment,94,←,left,←,0.4625512999482453,True,29,1
162K27S4,1131,experiment,48,→,left,←,0.45967260003089905,False,29,1
162K27S4,1132,experiment,55,↑,up,↑,0.4308918002061546,True,29,1
162K27S4,1133,experiment,54,↓,down,↓,0.5153269995935261,True,29,1
162K27S4,1134,experiment,85,→,right,→,0.6020291997119784,True,29,1
162K27S4,1135,experiment,106,←,left,←,0.37566820019856095,True,29,1
162K27S4,1136,experiment,59,←,right,→,0.531165299937129,False,29,0
162K27S4,1137,experiment,95,←,left,←,0.3754991004243493,True,29,1
162K27S4,1138,experiment,78,↓,left,←,0.4442892000079155,False,29,0
162K27S4,1139,experiment,52,↓,up,↑,0.5449624001048505,False,29,1
162K27S4,1140,experiment,66,←,left,←,0.31884280033409595,True,29,1
162K27S4,1141,experiment,69,↑,up,↑,0.5685177999548614,True,29,0
162K27S4,1142,experiment,75,→,no_key,no_letter,-1.0,False,29,1
162K27S4,1143,experiment,101,↓,down,↓,0.4421570999547839,True,29,1
162K27S4,1144,experiment,73,→,right,→,0.6958348001353443,True,29,1
162K27S4,1145,experiment,86,↑,up,↑,0.4551911000162363,True,29,1
162K27S4,1146,experiment,91,→,right,→,0.5184025000780821,True,29,1
162K27S4,1147,experiment,97,↓,left,←,0.6649771998636425,False,29,1
162K27S4,1148,experiment,63,→,right,→,0.45707720005884767,True,29,1
162K27S4,1149,experiment,65,→,right,→,0.4248190000653267,True,29,1
162K27S4,1150,experiment,60,←,left,←,0.5716122998856008,True,29,1
162K27S4,1151,experiment,74,↓,left,←,0.37565810000523925,False,29,1
162K27S4,1152,experiment,82,↑,down,↓,0.5288689001463354,False,29,0
162K27S4,1153,experiment,89,↓,up,↑,0.2841829997487366,False,29,1
162K27S4,1154,experiment,61,↓,down,↓,0.541688600089401,True,29,0
162K27S4,1155,experiment,81,↓,down,↓,0.367335700429976,True,29,1
162K27S4,1156,experiment,53,←,right,→,0.5559100001119077,False,29,0
162K27S4,1157,experiment,77,→,left,←,0.2765007000416517,False,29,1
162K27S4,1158,experiment,103,→,right,→,0.6212667999789119,True,29,0
162K27S4,1159,experiment,84,←,left,←,0.3848138996399939,True,29,1
162K27S4,1160,experiment,108,↓,down,↓,0.5878082998096943,True,29,0
162K27S4,1161,experiment,90,→,right,→,0.7097903001122177,True,29,1
162K27S4,1162,experiment,76,↑,up,↑,0.4318651999346912,True,29,1
162K27S4,1163,experiment,56,↓,down,↓,0.49158480018377304,True,29,1
162K27S4,1164,experiment,67,←,left,←,0.5295803998596966,True,29,1
162K27S4,1165,experiment,79,←,no_key,no_letter,-1.0,False,29,1
162K27S4,1166,experiment,93,→,right,→,0.6779533000662923,True,29,1
162K27S4,1167,experiment,100,↓,down,↓,0.449263499584049,True,29,1
162K27S4,1168,experiment,70,←,left,←,0.5917716999538243,True,29,1
162K27S4,1169,experiment,51,→,left,←,0.5267917001619935,False,29,1
162K27S4,1170,experiment,83,→,right,→,0.5018527000211179,True,29,1
162K27S4,1171,experiment,96,↑,down,↓,0.6175551996566355,False,29,1
162K27S4,1172,experiment,62,↑,up,↑,0.46797499991953373,True,29,1
162K27S4,1173,experiment,87,→,right,→,0.468049299903214,True,29,1
162K27S4,1174,experiment,72,↑,up,↑,0.4571777996607125,True,29,1
162K27S4,1175,training,107,↑,no_key,no_letter,-1.0,False,29,0
162K27S4,1176,training,78,←,left,←,0.41534149972721934,True,29,1
162K27S4,1177,experiment,104,→,right,→,0.5151164000853896,True,29,1
162K27S4,1178,experiment,55,↓,down,↓,0.6600384004414082,True,29,1
162K27S4,1179,experiment,74,→,no_key,no_letter,-1.0,False,29,1
162K27S4,1180,experiment,73,↑,up,↑,0.3912903997115791,True,29,1
162K27S4,1181,experiment,92,→,right,→,0.38402869971469045,True,29,0
162K27S4,1182,experiment,83,↓,up,↑,0.5370140001177788,False,29,0
162K27S4,1183,experiment,105,↓,down,↓,0.4483847999945283,True,29,1
162K27S4,1184,experiment,61,↑,down,↓,0.5860747997649014,False,29,1
162K27S4,1185,experiment,102,↑,left,←,0.49603400006890297,False,29,1
162K27S4,1186,experiment,91,→,right,→,0.661532299593091,True,29,1
162K27S4,1187,experiment,49,←,left,←,0.450910700019449,True,29,1
162K27S4,1188,experiment,59,↓,left,←,0.5727099999785423,False,29,1
162K27S4,1189,experiment,86,→,right,→,0.5368468998931348,True,29,1
162K27S4,1190,experiment,50,←,left,←,0.48254939960315824,True,29,1
162K27S4,1191,experiment,71,↑,up,↑,0.5032575996592641,True,29,1
162K27S4,1192,experiment,76,→,right,→,0.45752190006896853,True,29,1
162K27S4,1193,experiment,108,→,right,→,0.48303249990567565,True,29,1
162K27S4,1194,experiment,82,→,left,←,0.49210270028561354,False,29,1
162K27S4,1195,experiment,95,→,right,→,0.5286095002666116,True,29,1
162K27S4,1196,experiment,75,↓,down,↓,0.4986599003896117,True,29,1
162K27S4,1197,experiment,85,↑,left,←,0.4816454998217523,False,29,1
162K27S4,1198,experiment,52,→,right,→,0.45278010005131364,True,29,1
162K27S4,1199,experiment,69,↓,up,↑,0.47554290015250444,False,29,1
162K27S4,1200,experiment,100,←,left,←,0.3756957999430597,True,29,1
162K27S4,1201,experiment,88,↓,down,↓,0.3924010000191629,True,29,0
162K27S4,1202,experiment,70,↑,up,↑,0.6826154999434948,True,29,0
162K27S4,1203,experiment,94,↑,right,→,0.7034414997324347,False,29,1
162K27S4,1204,experiment,53,←,left,←,0.5295654996298254,True,29,1
162K27S4,1205,experiment,48,←,left,←,0.5723284999839962,True,29,1
162K27S4,1206,experiment,68,→,right,→,0.5824398999102414,True,29,1
162K27S4,1207,experiment,107,↓,down,↓,0.42708689998835325,True,29,1
162K27S4,1208,experiment,103,↓,no_key,no_letter,-1.0,False,29,1
162K27S4,1209,experiment,72,↓,up,↑,0.5630626999773085,False,29,1
162K27S4,1210,experiment,51,→,right,→,0.6668839999474585,True,29,1
162K27S4,1211,experiment,56,↑,up,↑,0.565222299657762,True,29,1
162K27S4,1212,experiment,99,↑,up,↑,0.47708960017189384,True,29,1
162K27S4,1213,experiment,93,→,right,→,0.5949748000130057,True,29,1
162K27S4,1214,experiment,54,↓,down,↓,0.5931083997711539,True,29,1
162K27S4,1215,experiment,106,↑,up,↑,0.46979760006070137,True,29,1
162K27S4,1216,experiment,57,→,left,←,0.7358366004191339,False,29,1
162K27S4,1217,experiment,62,↑,up,↑,0.3754004002548754,True,29,1
162K27S4,1218,experiment,78,←,right,→,0.4280000999569893,False,29,0
162K27S4,1219,experiment,77,↓,down,↓,0.465022100135684,True,29,1
162K27S4,1220,experiment,90,→,left,←,0.44022819958627224,False,29,1
162K27S4,1221,experiment,96,↓,down,↓,0.6141101000830531,True,29,1
162K27S4,1222,experiment,66,←,left,←,0.4631838002242148,True,29,1
162K27S4,1223,experiment,65,↓,right,→,0.6946511999703944,False,29,1
162K27S4,1224,experiment,64,↑,up,↑,0.5173241999000311,True,29,1
162K27S4,1225,experiment,87,↑,up,↑,0.4754607998766005,True,29,1
162K27S4,1226,experiment,63,→,right,→,0.6032767002470791,True,29,1
162K27S4,1227,experiment,81,↑,up,↑,0.4479062999598682,True,29,1
162K27S4,1228,experiment,97,↑,up,↑,0.5333361001685262,True,29,1
162K27S4,1229,experiment,79,↑,up,↑,0.42149029998108745,True,29,1
162K27S4,1230,experiment,60,←,no_key,no_letter,-1.0,False,29,1
162K27S4,1231,experiment,80,→,no_key,no_letter,-1.0,False,29,1
162K27S4,1232,experiment,101,↓,down,↓,0.42664040019735694,True,29,1
162K27S4,1233,experiment,67,↑,up,↑,0.5786977000534534,True,29,1
162K27S4,1234,experiment,58,←,left,←,0.3673859997652471,True,29,1
162K27S4,1235,experiment,89,↓,down,↓,0.6111282999627292,True,29,0
162K27S4,1236,experiment,84,↓,down,↓,0.45452999975532293,True,29,1
162K27S4,1237,experiment,98,←,left,←,0.4353483999148011,True,29,1
162K27S4,1238,training,85,→,right,→,0.6861610999330878,True,29,0
162K27S4,1239,training,78,↑,up,↑,0.5685307998210192,True,29,1
162K27S4,1240,experiment,98,↓,down,↓,0.6968410001136363,True,29,1
162K27S4,1241,experiment,107,←,left,←,0.30900820018723607,True,29,1
162K27S4,1242,experiment,58,→,right,→,0.41711889998987317,True,29,0
162K27S4,1243,experiment,106,→,right,→,0.5884008998982608,True,29,1
162K27S4,1244,experiment,66,↓,down,↓,0.44652000023052096,True,29,1
162K27S4,1245,experiment,82,→,left,←,0.5769246001727879,False,29,1
162K27S4,1246,experiment,105,↑,up,↑,0.43085070000961423,True,29,1
162K27S4,1247,experiment,74,←,left,←,0.35899699991568923,True,29,1
162K27S4,1248,experiment,56,↑,up,↑,0.45070969965308905,True,29,0
162K27S4,1249,experiment,57,↑,up,↑,0.4775728997774422,True,29,1
162K27S4,1250,experiment,65,→,right,→,0.4131861999630928,True,29,1
162K27S4,1251,experiment,73,↓,down,↓,0.6593810999765992,True,29,0
162K27S4,1252,experiment,79,↓,down,↓,0.5024095997214317,True,29,1
162K27S4,1253,experiment,97,↑,up,↑,0.43397289980202913,True,29,1
162K27S4,1254,experiment,72,←,left,←,0.4803336998447776,True,29,1
162K27S4,1255,experiment,62,←,left,←,0.9039756003767252,True,29,1
162K27S4,1256,experiment,76,↓,up,↑,0.6104389000684023,False,29,1
162K27S4,1257,experiment,88,↑,up,↑,0.6363903000019491,True,29,1
162K27S4,1258,experiment,81,↑,no_key,no_letter,-1.0,False,29,1
162K27S4,1259,experiment,78,↑,no_key,no_letter,-1.0,False,29,1
162K27S4,1260,experiment,52,↓,down,↓,0.6349713001400232,True,29,1
162K27S4,1261,experiment,104,↓,down,↓,0.5907800998538733,True,29,1
162K27S4,1262,experiment,92,↑,up,↑,0.456050300039351,True,29,1
162K27S4,1263,experiment,75,↓,down,↓,0.45239949971437454,True,29,1
162K27S4,1264,experiment,86,←,left,←,0.5816616001538932,True,29,1
162K27S4,1265,experiment,69,→,left,←,0.48684570007026196,False,29,1
162K27S4,1266,experiment,83,→,right,→,0.4876566999591887,True,29,1
162K27S4,1267,experiment,108,→,right,→,0.5680305999703705,True,29,1
162K27S4,1268,experiment,49,↑,up,↑,0.40957910008728504,True,29,1
162K27S4,1269,experiment,60,↑,up,↑,0.45979940006509423,True,29,0
162K27S4,1270,experiment,100,↓,down,↓,0.5038834000006318,True,29,1
162K27S4,1271,experiment,96,→,right,→,0.49154830025509,True,29,1
162K27S4,1272,experiment,101,→,right,→,0.5020813001319766,True,29,1
162K27S4,1273,experiment,67,↑,up,↑,0.5876522003673017,True,29,1
162K27S4,1274,experiment,71,←,left,←,0.540228399913758,True,29,1
162K27S4,1275,experiment,61,→,right,→,0.5219533001072705,True,29,1
162K27S4,1276,experiment,50,←,left,←,0.4440231998451054,True,29,1
162K27S4,1277,experiment,84,↑,up,↑,0.4461134001612663,True,29,1
162K27S4,1278,experiment,89,↑,no_key,no_letter,-1.0,False,29,1
162K27S4,1279,experiment,55,→,right,→,0.43161190021783113,True,29,1
162K27S4,1280,experiment,77,↑,up,↑,0.36723130010068417,True,29,1
162K27S4,1281,experiment,64,→,right,→,0.4875432001426816,True,29,0
162K27S4,1282,experiment,68,↓,down,↓,0.5649542999453843,True,29,1
162K27S4,1283,experiment,51,→,left,←,1.2931427997536957,False,29,1
162K27S4,1284,experiment,102,↓,down,↓,0.4549938999116421,True,29,1
162K27S4,1285,experiment,85,←,left,←,0.6241243002004921,True,29,1
162K27S4,1286,experiment,91,↑,up,↑,0.6964726997539401,True,29,1
162K27S4,1287,experiment,93,↓,down,↓,0.5011027003638446,True,29,1
162K27S4,1288,experiment,59,↑,down,↓,0.5892004002816975,False,29,1
162K27S4,1289,experiment,53,→,right,→,0.539678500033915,True,29,1
162K27S4,1290,experiment,103,↑,up,↑,0.5313595999032259,True,29,1
162K27S4,1291,experiment,94,→,right,→,0.5024529001675546,True,29,1
162K27S4,1292,experiment,70,↑,no_key,no_letter,-1.0,False,29,1
162K27S4,1293,experiment,63,↑,left,←,0.6490809000097215,False,29,1
162K27S4,1294,experiment,90,←,left,←,0.44874220015481114,True,29,1
162K27S4,1295,experiment,87,←,left,←,0.5695472997613251,True,29,1
162K27S4,1296,experiment,54,↓,down,↓,0.4645237000659108,True,29,1
162K27S4,1297,experiment,48,↑,down,↓,0.7337627997621894,False,29,1
162K27S4,1298,experiment,99,↑,up,↑,0.4470440996810794,True,29,1
162K27S4,1299,experiment,95,↑,up,↑,0.5570976999588311,True,29,1
162K27S4,1300,experiment,80,↑,up,↑,0.619822499807924,True,29,1
162K27S4,1301,training,64,↓,down,↓,0.6593647003173828,True,29,0
162K27S4,1302,training,92,↑,down,↓,0.5460389000363648,False,29,1
162K27S4,1303,experiment,57,↓,down,↓,0.5288661001250148,True,29,1
162K27S4,1304,experiment,91,→,right,→,0.6292217001318932,True,29,1
162K27S4,1305,experiment,53,→,right,→,0.6183675997890532,True,29,1
162K27S4,1306,experiment,84,→,right,→,0.41400930006057024,True,29,1
162K27S4,1307,experiment,73,↑,up,↑,0.4126523002050817,True,29,1
162K27S4,1308,experiment,64,←,left,←,0.6138555002398789,True,29,1
162K27S4,1309,experiment,58,↓,left,←,0.5056352997198701,False,29,1
162K27S4,1310,experiment,54,↓,left,←,0.45896509988233447,False,29,1
162K27S4,1311,experiment,66,→,right,→,0.45866880007088184,True,29,1
162K27S4,1312,experiment,50,←,left,←,0.43132199998945,True,29,1
162K27S4,1313,experiment,94,↓,down,↓,0.4463447001762688,True,29,1
162K27S4,1314,experiment,106,→,right,→,0.5846599000506103,True,29,1
162K27S4,1315,experiment,78,→,right,→,0.47918069968000054,True,29,1
162K27S4,1316,experiment,79,→,right,→,0.5214825998991728,True,29,1
162K27S4,1317,experiment,96,↑,right,→,0.38414750015363097,False,29,1
162K27S4,1318,experiment,63,→,right,→,0.7433039001189172,True,29,0
162K27S4,1319,experiment,107,→,right,→,0.5176670998334885,True,29,1
162K27S4,1320,experiment,99,←,left,←,0.4236727999523282,True,29,1
162K27S4,1321,experiment,61,↑,up,↑,0.570199599955231,True,29,1
162K27S4,1322,experiment,67,↓,down,↓,0.4690779000520706,True,29,1
162K27S4,1323,experiment,51,↑,down,↓,0.537017600145191,False,29,1
162K27S4,1324,experiment,101,↑,left,←,0.4417508998885751,False,29,1
162K27S4,1325,experiment,87,→,right,→,0.5148780001327395,True,29,1
162K27S4,1326,experiment,74,↑,up,↑,0.5652712997980416,True,29,1
162K27S4,1327,experiment,65,←,left,←,0.3925596000626683,True,29,1
162K27S4,1328,experiment,60,→,right,→,0.46056869998574257,True,29,0
162K27S4,1329,experiment,95,→,left,←,0.4185644998215139,False,29,1
162K27S4,1330,experiment,52,↓,down,↓,0.5595466997474432,True,29,1
162K27S4,1331,experiment,100,↑,up,↑,0.6315517998300493,True,29,1
162K27S4,1332,experiment,92,→,right,→,0.38333480013534427,True,29,1
162K27S4,1333,experiment,98,↑,left,←,0.7187139997258782,False,29,0
162K27S4,1334,experiment,70,→,right,→,0.4743489003740251,True,29,1
162K27S4,1335,experiment,97,↓,up,↑,0.462726800236851,False,29,1
162K27S4,1336,experiment,82,↑,down,↓,0.47247539972886443,False,29,1
162K27S4,1337,experiment,69,←,left,←,0.4863587999716401,True,29,1
162K27S4,1338,experiment,90,←,left,←,0.4132349002175033,True,29,1
162K27S4,1339,experiment,56,↑,up,↑,0.6091482997871935,True,29,1
162K27S4,1340,experiment,88,↓,right,→,0.523156899958849,False,29,1
162K27S4,1341,experiment,83,↓,down,↓,0.46625109994784,True,29,1
162K27S4,1342,experiment,81,↑,up,↑,0.5482966997660697,True,29,1
162K27S4,1343,experiment,62,↓,down,↓,0.5454409997910261,True,29,1
162K27S4,1344,experiment,48,→,right,→,0.4917230000719428,True,29,1
162K27S4,1345,experiment,103,←,left,←,0.5251942998729646,True,29,1
162K27S4,1346,experiment,104,↑,up,↑,0.5652530998922884,True,29,1
162K27S4,1347,experiment,72,→,right,→,0.48630440002307296,True,29,1
162K27S4,1348,experiment,77,→,left,←,0.48908660002052784,False,29,1
162K27S4,1349,experiment,68,→,left,←,0.5825055995956063,False,29,1
162K27S4,1350,experiment,89,→,right,→,0.4811725001782179,True,29,1
162K27S4,1351,experiment,71,→,right,→,0.44595880014821887,True,29,1
162K27S4,1352,experiment,55,→,right,→,0.46588000003248453,True,29,1
162K27S4,1353,experiment,59,↓,down,↓,0.5552082997746766,True,29,1
162K27S4,1354,experiment,102,↑,up,↑,0.41901899967342615,True,29,1
162K27S4,1355,experiment,80,↓,down,↓,0.686629599891603,True,29,1
162K27S4,1356,experiment,85,↑,left,←,0.5346843996085227,False,29,1
162K27S4,1357,experiment,75,↑,up,↑,0.37663500010967255,True,29,1
162K27S4,1358,experiment,105,↑,up,↑,0.5811711000278592,True,29,0
162K27S4,1359,experiment,93,↓,up,↑,0.45446560019627213,False,29,1
162K27S4,1360,experiment,49,↑,up,↑,0.4436690001748502,True,29,1
162K27S4,1361,experiment,76,↓,down,↓,0.4483189997263253,True,29,1
162K27S4,1362,experiment,108,←,left,←,0.6100278999656439,True,29,1
162K27S4,1363,experiment,86,↑,up,↑,0.3923560003750026,True,29,1
162K27S4,1364,training,69,←,right,→,0.5788429002277553,False,29,0
162K27S4,1365,training,65,↓,down,↓,0.6779654999263585,True,29,1
162K27S4,1366,experiment,82,→,right,→,0.4874597997404635,True,29,1
162K27S4,1367,experiment,71,→,right,→,0.4359463001601398,True,29,1
162K27S4,1368,experiment,79,↑,up,↑,0.43223469983786345,True,29,1
162K27S4,1369,experiment,56,←,left,←,0.5399357997812331,True,29,1
162K27S4,1370,experiment,105,↓,down,↓,0.4113567001186311,True,29,1
162K27S4,1371,experiment,67,←,left,←,0.44371409993618727,True,29,1
162K27S4,1372,experiment,76,↓,down,↓,0.6405230998061597,True,29,1
162K27S4,1373,experiment,74,→,left,←,0.4299671002663672,False,29,1
162K27S4,1374,experiment,97,→,right,→,0.49189409986138344,True,29,1
162K27S4,1375,experiment,94,↑,no_key,no_letter,-1.0,False,29,1
162K27S4,1376,experiment,75,→,right,→,0.4908768003806472,True,29,1
162K27S4,1377,experiment,90,←,left,←,0.6168935997411609,True,29,1
162K27S4,1378,experiment,57,↑,down,↓,0.500970599707216,False,29,1
162K27S4,1379,experiment,53,→,right,→,0.47119379974901676,True,29,1
162K27S4,1380,experiment,95,↑,left,←,0.5881990999914706,False,29,1
162K27S4,1381,experiment,66,↑,up,↑,0.4228035998530686,True,29,1
162K27S4,1382,experiment,93,←,right,→,0.5664323000237346,False,29,1
162K27S4,1383,experiment,108,↑,up,↑,0.43530890019610524,True,29,1
162K27S4,1384,experiment,92,→,right,→,0.6352448998950422,True,29,1
162K27S4,1385,experiment,60,↓,down,↓,0.6933752000331879,True,29,1
162K27S4,1386,experiment,81,→,left,←,0.34241560008376837,False,29,1
162K27S4,1387,experiment,91,↓,down,↓,0.41830179980024695,True,29,0
162K27S4,1388,experiment,77,←,right,→,0.4869804000481963,False,29,1
162K27S4,1389,experiment,54,↓,down,↓,0.5776114999316633,True,29,1
162K27S4,1390,experiment,52,→,right,→,0.640794400125742,True,29,1
162K27S4,1391,experiment,55,←,left,←,0.5245512998662889,True,29,1
162K27S4,1392,experiment,88,←,left,←,0.4819673001766205,True,29,1
162K27S4,1393,experiment,84,←,left,←,0.546339999884367,True,29,1
162K27S4,1394,experiment,101,→,right,→,0.6984496996738017,True,29,1
162K27S4,1395,experiment,64,↑,up,↑,0.44880530005320907,True,29,1
162K27S4,1396,experiment,49,→,right,→,0.5022487998940051,True,29,1
162K27S4,1397,experiment,103,←,left,←,0.43162559997290373,True,29,1
162K27S4,1398,experiment,68,←,down,↓,0.8474943996407092,False,29,1
162K27S4,1399,experiment,70,↓,down,↓,0.4617245001718402,True,29,1
162K27S4,1400,experiment,85,←,left,←,0.3676184001378715,True,29,1
162K27S4,1401,experiment,104,↑,right,→,0.7329987999983132,False,29,0
162K27S4,1402,experiment,62,↑,up,↑,0.5866019004024565,True,29,1
162K27S4,1403,experiment,87,←,left,←,0.49396750004962087,True,29,1
162K27S4,1404,experiment,83,↓,down,↓,0.3758915001526475,True,29,1
162K27S4,1405,experiment,48,↓,down,↓,0.5828184997662902,True,29,0
162K27S4,1406,experiment,51,→,right,→,0.6382339000701904,True,29,1
162K27S4,1407,experiment,106,←,left,←,0.32576039992272854,True,29,1
162K27S4,1408,experiment,63,↑,up,↑,0.4148667003028095,True,29,0
162K27S4,1409,experiment,59,→,left,←,0.4898838000372052,False,29,1
162K27S4,1410,experiment,89,←,right,→,0.496229600161314,False,29,1
162K27S4,1411,experiment,73,↑,no_key,no_letter,-1.0,False,29,1
162K27S4,1412,experiment,100,↑,no_key,no_letter,-1.0,False,29,1
162K27S4,1413,experiment,50,↑,up,↑,0.48821330023929477,True,29,1
162K27S4,1414,experiment,80,↓,down,↓,0.5935347997583449,True,29,1
162K27S4,1415,experiment,102,↓,no_key,no_letter,-1.0,False,29,1
162K27S4,1416,experiment,72,↓,left,←,0.45080710016191006,False,29,1
162K27S4,1417,experiment,58,←,no_key,no_letter,-1.0,False,29,1
162K27S4,1418,experiment,98,→,right,→,0.5196282002143562,True,29,1
162K27S4,1419,experiment,65,←,left,←,0.34248550003394485,True,29,1
162K27S4,1420,experiment,96,→,right,→,0.3417060002684593,True,29,0
162K27S4,1421,experiment,99,↓,down,↓,0.5036018998362124,True,29,0
162K27S4,1422,experiment,69,↓,left,←,0.36731950007379055,False,29,1
162K27S4,1423,experiment,86,↓,down,↓,0.3587990002706647,True,29,0
162K27S4,1424,experiment,61,←,right,→,0.5331572000868618,False,29,0
162K27S4,1425,experiment,78,→,right,→,0.8775582001544535,True,29,1
162K27S4,1426,experiment,107,↓,no_key,no_letter,-1.0,False,29,1
162K27S4,1427,training,98,←,left,←,0.5661177998408675,True,29,0
162K27S4,1428,training,51,↑,up,↑,0.5342737999744713,True,29,1
162K27S4,1429,experiment,49,→,right,→,0.4483325998298824,True,29,1
162K27S4,1430,experiment,72,→,right,→,0.6540279998444021,True,29,1
162K27S4,1431,experiment,79,↑,up,↑,0.39235550025478005,True,29,1
162K27S4,1432,experiment,66,↑,up,↑,0.5152312000282109,True,29,0
162K27S4,1433,experiment,78,←,left,←,0.5082303998060524,True,29,1
162K27S4,1434,experiment,77,↑,up,↑,0.5980218998156488,True,29,1
162K27S4,1435,experiment,103,↓,down,↓,0.4120751000009477,True,29,1
162K27S4,1436,experiment,90,↓,no_key,no_letter,-1.0,False,29,0
162K27S4,1437,experiment,105,↑,up,↑,0.3925065998919308,True,29,1
162K27S4,1438,experiment,61,→,left,←,0.44809569977223873,False,29,0
162K27S4,1439,experiment,54,↑,up,↑,0.42043300019577146,True,29,1
162K27S4,1440,experiment,85,↓,down,↓,0.4303794000297785,True,29,1
162K27S4,1441,experiment,58,→,right,→,0.5693586999550462,True,29,1
162K27S4,1442,experiment,102,↑,down,↓,0.6163818002678454,False,29,1
162K27S4,1443,experiment,84,↑,up,↑,0.31714840000495315,True,29,1
162K27S4,1444,experiment,70,↑,no_key,no_letter,-1.0,False,29,0
162K27S4,1445,experiment,73,↑,no_key,no_letter,-1.0,False,29,1
162K27S4,1446,experiment,65,↑,down,↓,0.6233145999722183,False,29,1
162K27S4,1447,experiment,94,↓,down,↓,0.4626315999776125,True,29,1
162K27S4,1448,experiment,98,↓,up,↑,0.41194699984043837,False,29,1
162K27S4,1449,experiment,86,↑,up,↑,0.5498740999028087,True,29,0
162K27S4,1450,experiment,99,→,right,→,0.45450189989060163,True,29,1
162K27S4,1451,experiment,55,↑,up,↑,0.4416378000751138,True,29,1
162K27S4,1452,experiment,63,↓,down,↓,0.4427196001634002,True,29,1
162K27S4,1453,experiment,64,↓,left,←,0.6515279999002814,False,29,1
162K27S4,1454,experiment,91,↑,no_key,no_letter,-1.0,False,29,1
162K27S4,1455,experiment,52,←,left,←,0.46889339992776513,True,29,1
162K27S4,1456,experiment,106,↓,down,↓,0.4544486002996564,True,29,1
162K27S4,1457,experiment,92,→,right,→,0.485224099829793,True,29,1
162K27S4,1458,experiment,108,↑,up,↑,0.43766199983656406,True,29,1
162K27S4,1459,experiment,93,↑,no_key,no_letter,-1.0,False,29,1
162K27S4,1460,experiment,59,→,right,→,0.5325426999479532,True,29,1
162K27S4,1461,experiment,57,↑,left,←,0.6998928999528289,False,29,1
162K27S4,1462,experiment,56,↓,down,↓,0.6530581000261009,True,29,1
162K27S4,1463,experiment,68,←,left,←,0.5560433003120124,True,29,1
162K27S4,1464,experiment,88,←,left,←,0.5362279997207224,True,29,1
162K27S4,1465,experiment,95,→,right,→,0.48320910008624196,True,29,1
162K27S4,1466,experiment,76,↑,up,↑,0.35892069991678,True,29,1
162K27S4,1467,experiment,80,←,left,←,0.4682605001144111,True,29,0
162K27S4,1468,experiment,101,↑,up,↑,0.5517326002009213,True,29,1
162K27S4,1469,experiment,53,←,left,←,0.4318781001493335,True,29,1
162K27S4,1470,experiment,69,←,no_key,no_letter,-1.0,False,29,1
162K27S4,1471,experiment,51,↓,up,↑,0.5376087999902666,False,29,1
162K27S4,1472,experiment,104,↓,left,←,0.4652971001341939,False,29,1
162K27S4,1473,experiment,96,→,down,↓,0.4543492002412677,False,29,1
162K27S4,1474,experiment,67,←,left,←,0.6293409997597337,True,29,1
162K27S4,1475,experiment,82,↑,left,←,0.496374299749732,False,29,1
162K27S4,1476,experiment,97,↓,down,↓,0.45970530016347766,True,29,1
162K27S4,1477,experiment,75,↑,no_key,no_letter,-1.0,False,29,1
162K27S4,1478,experiment,48,↓,down,↓,0.4834640002809465,True,29,1
162K27S4,1479,experiment,89,↓,down,↓,0.39240390015766025,True,29,1
162K27S4,1480,experiment,81,↑,down,↓,0.6468802997842431,False,29,0
162K27S4,1481,experiment,107,↓,down,↓,0.4649741998873651,True,29,1
162K27S4,1482,experiment,71,→,right,→,0.6864636996760964,True,29,1
162K27S4,1483,experiment,83,↑,up,↑,0.4310769997537136,True,29,1
162K27S4,1484,experiment,62,→,right,→,0.48888260032981634,True,29,1
162K27S4,1485,experiment,87,↑,up,↑,0.3756944998167455,True,29,1
162K27S4,1486,experiment,60,↓,left,←,0.8443253999575973,False,29,0
