PART_ID,Trial_no,Trial_type,CSI,Stim_letter,Key_pressed,letter_choose,Rt,Corr,Stimulus Time,nDropped
162K27S3,1,training,120,→,right,→,0.5509898001328111,True,60,0
162K27S3,2,training,120,↑,up,↑,0.5508155003190041,True,60,0
162K27S3,3,training,120,→,left,←,0.5760066001676023,False,60,0
162K27S3,4,training,120,↓,down,↓,0.736682299990207,True,60,0
162K27S3,5,training,120,→,right,→,1.7540934002026916,True,60,0
162K27S3,6,training,120,←,left,←,0.6092244000174105,True,60,0
162K27S3,7,training,120,→,right,→,0.5424593002535403,True,60,0
162K27S3,8,training,120,→,right,→,0.7947078999131918,True,60,0
162K27S3,9,training,120,←,left,←,0.46852550003677607,True,60,0
162K27S3,10,training,120,↑,up,↑,0.63423109985888,True,60,0
162K27S3,11,training,120,←,left,←,0.477016500197351,True,60,0
162K27S3,12,training,120,↓,down,↓,0.6422833004035056,True,60,0
162K27S3,13,training,120,↓,down,↓,0.6988707999698818,True,60,0
162K27S3,14,training,120,↓,down,↓,0.5677780001424253,True,60,0
162K27S3,15,training,120,→,right,→,0.7501820996403694,True,60,0
162K27S3,16,training,120,→,right,→,0.5765543999150395,True,60,0
162K27S3,17,training,120,↓,down,↓,0.5600472996011376,True,60,0
162K27S3,18,training,120,↓,down,↓,0.5925382999703288,True,60,0
162K27S3,19,training,120,↓,down,↓,0.7745497999712825,True,60,0
162K27S3,20,training,120,↓,down,↓,0.5841072001494467,True,60,0
162K27S3,21,no_adaptation,120,→,right,→,0.5410298998467624,True,36,0
162K27S3,22,no_adaptation,120,↑,up,↑,0.518215499818325,True,36,0
162K27S3,23,no_adaptation,120,←,left,←,0.442089700140059,True,36,0
162K27S3,24,no_adaptation,120,↑,up,↑,0.5495282001793385,True,36,0
162K27S3,25,no_adaptation,120,←,left,←,0.4948819000273943,True,36,0
162K27S3,26,no_adaptation,120,←,left,←,0.6660190997645259,True,36,0
162K27S3,27,no_adaptation,120,←,right,→,0.6944732000119984,False,36,0
162K27S3,28,no_adaptation,120,→,right,→,0.6256821998395026,True,36,0
162K27S3,29,no_adaptation,120,↓,down,↓,0.551829899661243,True,36,0
162K27S3,30,no_adaptation,120,↓,down,↓,0.5206129001453519,True,36,0
162K27S3,31,no_adaptation,120,↑,up,↑,0.6268906998448074,True,36,0
162K27S3,32,no_adaptation,120,↑,up,↑,0.6013567000627518,True,36,0
162K27S3,33,no_adaptation,120,→,right,→,0.600257100071758,True,36,0
162K27S3,34,no_adaptation,120,↓,down,↓,0.5915044997818768,True,36,0
162K27S3,35,no_adaptation,120,↓,down,↓,0.5589453000575304,True,36,0
162K27S3,36,no_adaptation,120,←,left,←,0.639847599901259,True,36,0
162K27S3,37,no_adaptation,120,→,right,→,0.48613790003582835,True,36,0
162K27S3,38,no_adaptation,120,↓,down,↓,0.5771263996139169,True,36,0
162K27S3,39,no_adaptation,120,←,left,←,0.47325950022786856,True,36,0
162K27S3,40,no_adaptation,120,↓,down,↓,0.6367269000038505,True,36,0
162K27S3,41,training,96,→,right,→,0.5580279002897441,True,36,0
162K27S3,42,training,89,←,left,←,0.4738783002831042,True,36,1
162K27S3,43,experiment,76,↓,down,↓,0.540495099965483,True,36,1
162K27S3,44,experiment,75,→,right,→,0.7175704003311694,True,36,1
162K27S3,45,experiment,61,←,left,←,0.5884121996350586,True,36,1
162K27S3,46,experiment,49,→,right,→,0.5400339001789689,True,36,1
162K27S3,47,experiment,67,↑,no_key,no_letter,-1.0,False,36,1
162K27S3,48,experiment,87,←,left,←,0.5797925000078976,True,36,1
162K27S3,49,experiment,99,←,left,←,0.4424485000781715,True,36,1
162K27S3,50,experiment,57,↑,up,↑,0.47865850012749434,True,36,0
162K27S3,51,experiment,105,↓,down,↓,0.6954852999188006,True,36,1
162K27S3,52,experiment,107,↑,up,↑,0.6638899999670684,True,36,1
162K27S3,53,experiment,48,←,left,←,0.6769178998656571,True,36,1
162K27S3,54,experiment,91,→,right,→,0.4993893001228571,True,36,1
162K27S3,55,experiment,80,↑,up,↑,0.5404521999880672,True,36,1
162K27S3,56,experiment,72,←,left,←,0.4507522997446358,True,36,1
162K27S3,57,experiment,74,↓,down,↓,0.5474298000335693,True,36,0
162K27S3,58,experiment,101,←,left,←,0.6591980000957847,True,36,1
162K27S3,59,experiment,108,→,left,←,1.2205640003085136,False,36,1
162K27S3,60,experiment,79,←,left,←,0.442590500228107,True,36,1
162K27S3,61,experiment,55,↓,down,↓,0.7966446001082659,True,36,0
162K27S3,62,experiment,62,↓,down,↓,0.6880593001842499,True,36,1
162K27S3,63,experiment,86,↓,down,↓,0.6000573001801968,True,36,1
162K27S3,64,experiment,85,←,left,←,0.5153580000624061,True,36,1
162K27S3,65,experiment,65,↑,up,↑,0.6406120001338422,True,36,1
162K27S3,66,experiment,73,↑,up,↑,0.8783603003248572,True,36,1
162K27S3,67,experiment,82,↓,down,↓,0.5036324998363853,True,36,1
162K27S3,68,experiment,64,↓,down,↓,0.4862977000884712,True,36,1
162K27S3,69,experiment,59,↑,up,↑,0.44239169964566827,True,36,1
162K27S3,70,experiment,95,←,left,←,0.3671339997090399,True,36,0
162K27S3,71,experiment,54,→,right,→,0.4914575000293553,True,36,0
162K27S3,72,experiment,83,←,left,←,0.507750999648124,True,36,1
162K27S3,73,experiment,68,↑,up,↑,0.3921265001408756,True,36,1
162K27S3,74,experiment,60,←,left,←,0.5322329001501203,True,36,0
162K27S3,75,experiment,53,↑,up,↑,0.40907870000228286,True,36,1
162K27S3,76,experiment,93,→,right,→,0.44261790020391345,True,36,0
162K27S3,77,experiment,70,→,right,→,0.8674888000823557,True,36,0
162K27S3,78,experiment,50,↓,down,↓,0.4724213997833431,True,36,1
162K27S3,79,experiment,92,→,right,→,0.661968800239265,True,36,1
162K27S3,80,experiment,51,↓,down,↓,0.5060135000385344,True,36,1
162K27S3,81,experiment,96,→,right,→,0.5336111998185515,True,36,1
162K27S3,82,experiment,78,↓,down,↓,0.7979250000789762,True,36,1
162K27S3,83,experiment,88,→,right,→,0.512125900015235,True,36,1
162K27S3,84,experiment,103,→,right,→,0.537223800085485,True,36,1
162K27S3,85,experiment,102,→,right,→,0.4976312997750938,True,36,1
162K27S3,86,experiment,84,↑,up,↑,0.6654134998098016,True,36,1
162K27S3,87,experiment,81,←,left,←,0.4677883996628225,True,36,1
162K27S3,88,experiment,71,→,right,→,0.7371649001725018,True,36,0
162K27S3,89,experiment,106,↑,up,↑,0.5594144002534449,True,36,1
162K27S3,90,experiment,58,←,left,←,0.3925394001416862,True,36,1
162K27S3,91,experiment,69,↓,down,↓,0.6703217998147011,True,36,0
162K27S3,92,experiment,97,←,left,←,0.4507550997659564,True,36,1
162K27S3,93,experiment,52,↑,up,↑,0.6552369999699295,True,36,0
162K27S3,94,experiment,89,↑,up,↑,0.494862399995327,True,36,1
162K27S3,95,experiment,56,→,right,→,0.6322388001717627,True,36,1
162K27S3,96,experiment,100,→,right,→,0.5252935998141766,True,36,1
162K27S3,97,experiment,90,↑,up,↑,0.5860508000478148,True,36,1
162K27S3,98,experiment,104,↑,up,↑,0.4799819001927972,True,36,1
162K27S3,99,experiment,63,↑,up,↑,0.6233362001366913,True,36,1
162K27S3,100,experiment,94,↑,up,↑,0.4711262001655996,True,36,1
162K27S3,101,experiment,66,↓,down,↓,0.5172624001279473,True,36,1
162K27S3,102,experiment,98,↓,down,↓,0.7676645000465214,True,36,1
162K27S3,103,experiment,77,↓,down,↓,0.5430498002097011,True,36,1
162K27S3,104,training,96,↓,down,↓,0.5289464998058975,True,35,0
162K27S3,105,training,68,←,left,←,0.35882680024951696,True,35,1
162K27S3,106,experiment,63,←,left,←,0.40157620003446937,True,35,0
162K27S3,107,experiment,90,↓,down,↓,0.6737464000470936,True,35,0
162K27S3,108,experiment,57,→,right,→,0.47602139972150326,True,35,1
162K27S3,109,experiment,61,↓,down,↓,0.6519260001368821,True,35,1
162K27S3,110,experiment,93,←,left,←,0.5627044998109341,True,35,1
162K27S3,111,experiment,103,←,no_key,no_letter,-1.0,False,35,1
162K27S3,112,experiment,105,↓,down,↓,0.7678139000199735,True,35,1
162K27S3,113,experiment,51,←,left,←,0.5198766998946667,True,35,1
162K27S3,114,experiment,66,↓,down,↓,0.5330028999596834,True,35,1
162K27S3,115,experiment,60,→,left,←,0.8274934999644756,False,35,1
162K27S3,116,experiment,98,↓,down,↓,0.6413517999462783,True,35,1
162K27S3,117,experiment,70,↓,down,↓,0.6880990997888148,True,35,1
162K27S3,118,experiment,102,↓,down,↓,0.46707599982619286,True,35,1
162K27S3,119,experiment,56,↑,up,↑,0.49290379974991083,True,35,1
162K27S3,120,experiment,89,→,right,→,0.4672648999840021,True,35,1
162K27S3,121,experiment,58,↑,up,↑,0.6051688999868929,True,35,1
162K27S3,122,experiment,54,↓,down,↓,0.4985608998686075,True,35,1
162K27S3,123,experiment,65,↓,down,↓,0.6646332000382245,True,35,1
162K27S3,124,experiment,55,→,right,→,0.5233832998201251,True,35,1
162K27S3,125,experiment,78,→,right,→,0.516144999768585,True,35,1
162K27S3,126,experiment,53,↓,down,↓,0.749503799714148,True,35,1
162K27S3,127,experiment,94,→,right,→,0.7678525000810623,True,35,1
162K27S3,128,experiment,91,←,left,←,0.5785169000737369,True,35,1
162K27S3,129,experiment,92,→,right,→,0.4612420001067221,True,35,1
162K27S3,130,experiment,76,←,left,←,0.41762600000947714,True,35,1
162K27S3,131,experiment,73,↑,up,↑,0.6387539999559522,True,35,0
162K27S3,132,experiment,77,→,right,→,0.7072196998633444,True,35,1
162K27S3,133,experiment,100,↑,up,↑,0.8374638999812305,True,35,1
162K27S3,134,experiment,48,↑,down,↓,0.6675319001078606,False,35,1
162K27S3,135,experiment,96,←,left,←,0.6326419999822974,True,35,1
162K27S3,136,experiment,75,↓,down,↓,0.6780976001173258,True,35,1
162K27S3,137,experiment,107,↑,up,↑,0.49504309985786676,True,35,1
162K27S3,138,experiment,86,↓,down,↓,0.5024268003180623,True,35,1
162K27S3,139,experiment,62,↑,up,↑,0.7175639001652598,True,35,1
162K27S3,140,experiment,71,↑,up,↑,0.6334043997339904,True,35,1
162K27S3,141,experiment,83,↓,down,↓,0.7396492999978364,True,35,1
162K27S3,142,experiment,81,→,right,→,0.6747102001681924,True,35,1
162K27S3,143,experiment,95,→,right,→,0.7677159998565912,True,35,1
162K27S3,144,experiment,99,←,left,←,0.5758666000328958,True,35,1
162K27S3,145,experiment,64,→,right,→,0.5070833000354469,True,35,1
162K27S3,146,experiment,52,→,right,→,0.517155900131911,True,35,1
162K27S3,147,experiment,106,←,left,←,0.39245070004835725,True,35,1
162K27S3,148,experiment,82,↓,down,↓,0.4973434000276029,True,35,0
162K27S3,149,experiment,97,↓,down,↓,0.41667520022019744,True,35,1
162K27S3,150,experiment,49,←,left,←,0.5710650999099016,True,35,0
162K27S3,151,experiment,69,←,left,←,0.35882379999384284,True,35,1
162K27S3,152,experiment,67,↓,down,↓,0.5999467996880412,True,35,0
162K27S3,153,experiment,72,→,right,→,0.6157912001945078,True,35,1
162K27S3,154,experiment,88,↓,no_key,no_letter,-1.0,False,35,1
162K27S3,155,experiment,84,↑,up,↑,0.4946739999577403,True,35,1
162K27S3,156,experiment,50,→,right,→,0.7060108999721706,True,35,1
162K27S3,157,experiment,101,→,right,→,0.4090558001771569,True,35,1
162K27S3,158,experiment,80,→,right,→,0.6081926999613643,True,35,0
162K27S3,159,experiment,59,↓,down,↓,0.51589659973979,True,35,1
162K27S3,160,experiment,79,↓,down,↓,0.4691786002367735,True,35,1
162K27S3,161,experiment,74,↑,up,↑,0.5126653998158872,True,35,1
162K27S3,162,experiment,68,→,right,→,0.442452899646014,True,35,1
162K27S3,163,experiment,87,→,right,→,0.4624498998746276,True,35,0
162K27S3,164,experiment,85,←,left,←,0.41733809979632497,True,35,1
162K27S3,165,experiment,108,→,no_key,no_letter,-1.0,False,35,0
162K27S3,166,experiment,104,→,right,→,0.6398054002784193,True,35,1
162K27S3,167,training,82,←,left,←,0.5278819999657571,True,34,0
162K27S3,168,training,57,→,right,→,0.5515205999836326,True,34,1
162K27S3,169,experiment,108,↑,up,↑,0.46951729990541935,True,34,1
162K27S3,170,experiment,101,→,right,→,0.5921350000426173,True,34,1
162K27S3,171,experiment,66,←,left,←,0.6424119998700917,True,34,1
162K27S3,172,experiment,104,←,left,←,0.33504230016842484,True,34,1
162K27S3,173,experiment,88,←,left,←,0.4820843995548785,True,34,0
162K27S3,174,experiment,94,←,left,←,0.3510235999710858,True,34,1
162K27S3,175,experiment,102,↓,down,↓,0.6864534998312593,True,34,0
162K27S3,176,experiment,61,→,right,→,0.5107967997901142,True,34,1
162K27S3,177,experiment,106,↓,down,↓,0.4945932002738118,True,34,1
162K27S3,178,experiment,103,→,right,→,0.6963578001596034,True,34,1
162K27S3,179,experiment,80,←,left,←,0.47357979975640774,True,34,1
162K27S3,180,experiment,53,→,right,→,0.6124179000034928,True,34,1
162K27S3,181,experiment,100,↓,no_key,no_letter,-1.0,False,34,1
162K27S3,182,experiment,51,↑,up,↑,1.3390200003050268,True,34,1
162K27S3,183,experiment,90,→,right,→,0.631016599945724,True,34,1
162K27S3,184,experiment,89,↓,down,↓,0.5678153000771999,True,34,1
162K27S3,185,experiment,75,←,left,←,0.37447179993614554,True,34,1
162K27S3,186,experiment,67,←,left,←,0.40077920025214553,True,34,0
162K27S3,187,experiment,98,↑,down,↓,0.7765403999947011,False,34,0
162K27S3,188,experiment,57,→,right,→,0.6063109999522567,True,34,1
162K27S3,189,experiment,81,←,left,←,0.3507552999071777,True,34,1
162K27S3,190,experiment,107,↓,down,↓,0.46492790011689067,True,34,0
162K27S3,191,experiment,65,←,left,←,0.7998186997137964,True,34,1
162K27S3,192,experiment,48,→,right,→,0.46427319990471005,True,34,1
162K27S3,193,experiment,73,↑,up,↑,0.46890190010890365,True,34,1
162K27S3,194,experiment,97,↓,down,↓,0.48888689978048205,True,34,1
162K27S3,195,experiment,82,←,left,←,0.4734702999703586,True,34,1
162K27S3,196,experiment,105,←,no_key,no_letter,-1.0,False,34,1
162K27S3,197,experiment,84,←,left,←,0.4343278999440372,True,34,1
162K27S3,198,experiment,60,↑,up,↑,0.6747179999947548,True,34,0
162K27S3,199,experiment,59,↑,up,↑,0.5960613000206649,True,34,1
162K27S3,200,experiment,79,↓,down,↓,0.7132307002320886,True,34,1
162K27S3,201,experiment,68,←,left,←,0.7096631000749767,True,34,1
162K27S3,202,experiment,50,↑,up,↑,0.5844260999001563,True,34,1
162K27S3,203,experiment,63,↓,down,↓,0.492034999653697,True,34,1
162K27S3,204,experiment,99,→,right,→,0.4788915002718568,True,34,1
162K27S3,205,experiment,71,←,left,←,0.38397559989243746,True,34,1
162K27S3,206,experiment,77,←,left,←,0.4090933999978006,True,34,0
162K27S3,207,experiment,86,→,right,→,0.9804632999002934,True,34,0
162K27S3,208,experiment,69,↑,up,↑,0.7817840999923646,True,34,1
162K27S3,209,experiment,93,↑,up,↑,0.7590828998945653,True,34,1
162K27S3,210,experiment,49,←,left,←,0.39306489983573556,True,34,1
162K27S3,211,experiment,92,↓,down,↓,0.7129509998485446,True,34,0
162K27S3,212,experiment,64,→,right,→,0.5188933000899851,True,34,1
162K27S3,213,experiment,54,↓,down,↓,0.6158266998827457,True,34,1
162K27S3,214,experiment,56,↓,left,←,0.39231030037626624,False,34,1
162K27S3,215,experiment,52,→,right,→,0.4747716002166271,True,34,0
162K27S3,216,experiment,76,↑,up,↑,0.630125000141561,True,34,1
162K27S3,217,experiment,96,↑,up,↑,0.4844380998983979,True,34,1
162K27S3,218,experiment,85,→,right,→,0.636501899920404,True,34,1
162K27S3,219,experiment,91,↓,down,↓,0.5885063000023365,True,34,1
162K27S3,220,experiment,87,↑,up,↑,0.43418839992955327,True,34,1
162K27S3,221,experiment,78,↑,up,↑,0.5716333999298513,True,34,0
162K27S3,222,experiment,58,↓,down,↓,0.7371129998937249,True,34,1
162K27S3,223,experiment,95,↓,down,↓,0.5317429001443088,True,34,1
162K27S3,224,experiment,83,↑,no_key,no_letter,-1.0,False,34,1
162K27S3,225,experiment,62,→,left,←,0.5353949996642768,False,34,1
162K27S3,226,experiment,70,←,right,→,0.48248370038345456,False,34,1
162K27S3,227,experiment,55,←,left,←,0.4009446003474295,True,34,1
162K27S3,228,experiment,72,↓,down,↓,0.7639327999204397,True,34,0
162K27S3,229,experiment,74,←,left,←,0.6523167002014816,True,34,1
162K27S3,230,training,59,↓,down,↓,0.6406093002296984,True,34,0
162K27S3,231,training,52,→,right,→,0.8771816003136337,True,34,1
162K27S3,232,experiment,65,←,left,←,0.35096789989620447,True,34,1
162K27S3,233,experiment,99,←,left,←,0.5727075999602675,True,34,0
162K27S3,234,experiment,53,←,no_key,no_letter,-1.0,False,34,1
162K27S3,235,experiment,64,←,left,←,0.4176554000005126,True,34,1
162K27S3,236,experiment,76,←,left,←,0.3425567001104355,True,34,0
162K27S3,237,experiment,88,←,left,←,0.6256742998957634,True,34,0
162K27S3,238,experiment,54,↑,up,↑,0.598507100250572,True,34,1
162K27S3,239,experiment,84,↑,up,↑,0.6823006998747587,True,34,1
162K27S3,240,experiment,61,←,left,←,0.366730900015682,True,34,1
162K27S3,241,experiment,59,←,left,←,0.36829790007323027,True,34,0
162K27S3,242,experiment,95,↓,down,↓,0.7360283997841179,True,34,0
162K27S3,243,experiment,75,→,right,→,0.5374755999073386,True,34,1
162K27S3,244,experiment,107,←,left,←,0.4257463002577424,True,34,1
162K27S3,245,experiment,55,↓,down,↓,0.5159136997535825,True,34,0
162K27S3,246,experiment,66,↓,down,↓,0.6011050003580749,True,34,1
162K27S3,247,experiment,49,→,right,→,0.584528399631381,True,34,1
162K27S3,248,experiment,79,←,left,←,0.6145397997461259,True,34,1
162K27S3,249,experiment,80,↓,down,↓,0.49905220000073314,True,34,1
162K27S3,250,experiment,105,↓,down,↓,0.5316846002824605,True,34,1
162K27S3,251,experiment,102,→,right,→,0.6359697999432683,True,34,1
162K27S3,252,experiment,68,↓,down,↓,0.5238000000827014,True,34,1
162K27S3,253,experiment,101,←,left,←,0.6288280999287963,True,34,1
162K27S3,254,experiment,98,→,right,→,0.5148066999390721,True,34,1
162K27S3,255,experiment,74,←,left,←,0.5502424002625048,True,34,1
162K27S3,256,experiment,73,↑,up,↑,0.46300580026581883,True,34,1
162K27S3,257,experiment,97,↑,up,↑,0.7393530001863837,True,34,1
162K27S3,258,experiment,56,↑,left,←,0.4007057002745569,False,34,1
162K27S3,259,experiment,57,↓,down,↓,0.5593376001343131,True,34,0
162K27S3,260,experiment,86,↓,down,↓,0.6998831001110375,True,34,1
162K27S3,261,experiment,63,↓,no_key,no_letter,-1.0,False,34,1
162K27S3,262,experiment,104,←,left,←,0.7297406997531652,True,34,1
162K27S3,263,experiment,106,↓,down,↓,0.6484624999575317,True,34,1
162K27S3,264,experiment,48,↑,down,↓,0.5021812999621034,False,34,1
162K27S3,265,experiment,92,↓,down,↓,0.5873910002410412,True,34,1
162K27S3,266,experiment,83,←,left,←,0.46435659984126687,True,34,1
162K27S3,267,experiment,90,↑,up,↑,0.6230508997105062,True,34,1
162K27S3,268,experiment,108,←,left,←,0.513730900362134,True,34,1
162K27S3,269,experiment,82,←,no_key,no_letter,-1.0,False,34,1
162K27S3,270,experiment,96,↑,up,↑,0.6990041001699865,True,34,1
162K27S3,271,experiment,71,↓,down,↓,0.7110673999413848,True,34,1
162K27S3,272,experiment,62,→,right,→,0.6697440999560058,True,34,1
162K27S3,273,experiment,77,←,left,←,0.6092108003795147,True,34,1
162K27S3,274,experiment,85,←,left,←,0.5242111003026366,True,34,1
162K27S3,275,experiment,78,→,right,→,0.5249423999339342,True,34,1
162K27S3,276,experiment,69,↑,up,↑,0.45722460001707077,True,34,1
162K27S3,277,experiment,51,↓,down,↓,0.7568397000432014,True,34,1
162K27S3,278,experiment,100,↓,down,↓,0.6289792000316083,True,34,1
162K27S3,279,experiment,67,←,left,←,0.5251980000175536,True,34,1
162K27S3,280,experiment,58,←,no_key,no_letter,-1.0,False,34,1
162K27S3,281,experiment,72,↑,up,↑,0.4703289996832609,True,34,1
162K27S3,282,experiment,52,←,left,←,0.39244910003617406,True,34,1
162K27S3,283,experiment,60,→,right,→,0.5337669001892209,True,34,0
162K27S3,284,experiment,94,←,left,←,0.3590334001928568,True,34,1
162K27S3,285,experiment,103,←,left,←,0.6311796000227332,True,34,0
162K27S3,286,experiment,89,←,left,←,0.4091678997501731,True,34,1
162K27S3,287,experiment,50,→,right,→,0.4705252996645868,True,34,0
162K27S3,288,experiment,93,↓,down,↓,0.45265250001102686,True,34,1
162K27S3,289,experiment,70,←,left,←,0.5944163999520242,True,34,0
162K27S3,290,experiment,81,↑,up,↑,0.42582149989902973,True,34,1
162K27S3,291,experiment,91,←,left,←,0.3843974997289479,True,34,0
162K27S3,292,experiment,87,→,right,→,0.48228489980101585,True,34,0
162K27S3,293,training,79,↓,down,↓,0.4748960002325475,True,33,0
162K27S3,294,training,104,↑,up,↑,0.46894009970128536,True,33,1
162K27S3,295,experiment,62,←,left,←,0.6533467001281679,True,33,1
162K27S3,296,experiment,103,↓,down,↓,0.3934414000250399,True,33,1
162K27S3,297,experiment,92,↓,down,↓,0.7614317000843585,True,33,0
162K27S3,298,experiment,53,↓,down,↓,0.537139100022614,True,33,1
162K27S3,299,experiment,60,←,left,←,0.3923725001513958,True,33,1
162K27S3,300,experiment,99,→,right,→,0.6302507999353111,True,33,0
162K27S3,301,experiment,49,↓,down,↓,0.644369799643755,True,33,1
162K27S3,302,experiment,67,↑,up,↑,0.5804407997056842,True,33,1
162K27S3,303,experiment,93,↓,down,↓,0.4695123001001775,True,33,1
162K27S3,304,experiment,48,←,left,←,0.5706036002375185,True,33,1
162K27S3,305,experiment,96,←,left,←,0.3758578998968005,True,33,1
162K27S3,306,experiment,77,↓,down,↓,0.4587866999208927,True,33,0
162K27S3,307,experiment,76,→,right,→,0.6464575999416411,True,33,1
162K27S3,308,experiment,73,↑,up,↑,0.5319090001285076,True,33,1
162K27S3,309,experiment,63,→,right,→,0.7132886000908911,True,33,1
162K27S3,310,experiment,85,→,right,→,0.5207406999543309,True,33,1
162K27S3,311,experiment,58,↑,up,↑,0.6320747998543084,True,33,1
162K27S3,312,experiment,89,←,left,←,0.5769070996902883,True,33,1
162K27S3,313,experiment,102,←,no_key,no_letter,-1.0,False,33,1
162K27S3,314,experiment,50,←,left,←,0.6408353997394443,True,33,1
162K27S3,315,experiment,101,→,left,←,0.4930777996778488,False,33,1
162K27S3,316,experiment,56,→,right,→,0.6225171000696719,True,33,1
162K27S3,317,experiment,55,↑,up,↑,0.7228958997875452,True,33,1
162K27S3,318,experiment,52,←,left,←,0.3927553999237716,True,33,1
162K27S3,319,experiment,51,→,right,→,0.48311279993504286,True,33,0
162K27S3,320,experiment,70,→,right,→,0.4883083999156952,True,33,1
162K27S3,321,experiment,71,↑,up,↑,0.5725916996598244,True,33,1
162K27S3,322,experiment,88,←,left,←,0.3850677995942533,True,33,1
162K27S3,323,experiment,61,→,right,→,0.6354474001564085,True,33,0
162K27S3,324,experiment,81,→,right,→,0.4948655003681779,True,33,1
162K27S3,325,experiment,68,↓,down,↓,0.5722575997933745,True,33,1
162K27S3,326,experiment,84,→,right,→,0.6329664001241326,True,33,1
162K27S3,327,experiment,66,↑,up,↑,1.2575121996924281,True,33,1
162K27S3,328,experiment,72,↑,up,↑,0.5187082001939416,True,33,1
162K27S3,329,experiment,64,→,right,→,0.4254744998179376,True,33,1
162K27S3,330,experiment,94,←,left,←,0.6436016000807285,True,33,0
162K27S3,331,experiment,65,↓,down,↓,0.739850000012666,True,33,1
162K27S3,332,experiment,98,←,left,←,0.6852426002733409,True,33,1
162K27S3,333,experiment,87,←,no_key,no_letter,-1.0,False,33,1
162K27S3,334,experiment,57,←,left,←,0.45215180004015565,True,33,1
162K27S3,335,experiment,86,↑,up,↑,0.6523691997863352,True,33,1
162K27S3,336,experiment,75,→,no_key,no_letter,-1.0,False,33,1
162K27S3,337,experiment,59,→,right,→,0.4479714999906719,True,33,1
162K27S3,338,experiment,83,→,right,→,1.0333420000970364,True,33,0
162K27S3,339,experiment,78,↑,up,↑,0.5736774997785687,True,33,1
162K27S3,340,experiment,91,↓,down,↓,0.5280181998386979,True,33,1
162K27S3,341,experiment,97,↑,left,←,0.4904036996886134,False,33,1
162K27S3,342,experiment,74,←,left,←,0.41735929995775223,True,33,1
162K27S3,343,experiment,79,→,right,→,0.9382390002720058,True,33,0
162K27S3,344,experiment,108,↓,down,↓,0.5201763999648392,True,33,1
162K27S3,345,experiment,106,←,left,←,0.7198809999972582,True,33,1
162K27S3,346,experiment,90,↑,up,↑,0.46152230026200414,True,33,1
162K27S3,347,experiment,95,←,left,←,0.4822606001980603,True,33,1
162K27S3,348,experiment,105,↓,down,↓,0.7237487998791039,True,33,1
162K27S3,349,experiment,104,→,right,→,0.4600440999493003,True,33,1
162K27S3,350,experiment,54,←,left,←,0.5749796000309289,True,33,1
162K27S3,351,experiment,107,↑,up,↑,0.6279752999544144,True,33,1
162K27S3,352,experiment,100,↑,up,↑,0.6733429003506899,True,33,1
162K27S3,353,experiment,69,↓,down,↓,0.4951541000045836,True,33,1
162K27S3,354,experiment,80,→,right,→,0.4803430000320077,True,33,1
162K27S3,355,experiment,82,→,no_key,no_letter,-1.0,False,33,1
162K27S3,356,training,75,↓,down,↓,0.690287500154227,True,32,0
162K27S3,357,training,56,→,right,→,0.6194706000387669,True,32,1
162K27S3,358,experiment,53,→,right,→,0.6969522000290453,True,32,1
162K27S3,359,experiment,57,↓,down,↓,0.5136019000783563,True,32,1
162K27S3,360,experiment,69,↓,down,↓,0.6540328003466129,True,32,1
162K27S3,361,experiment,77,→,right,→,0.47409529983997345,True,32,1
162K27S3,362,experiment,100,→,no_key,no_letter,-1.0,False,32,1
162K27S3,363,experiment,68,↑,up,↑,0.47313479986041784,True,32,1
162K27S3,364,experiment,104,←,right,→,0.5150612001307309,False,32,1
162K27S3,365,experiment,93,↑,up,↑,0.5270508998073637,True,32,1
162K27S3,366,experiment,107,↓,down,↓,0.5501668998040259,True,32,1
162K27S3,367,experiment,84,↓,down,↓,0.5638998998329043,True,32,1
162K27S3,368,experiment,49,→,right,→,0.6687684999778867,True,32,1
162K27S3,369,experiment,85,←,no_key,no_letter,-1.0,False,32,1
162K27S3,370,experiment,51,↑,up,↑,0.5346157001331449,True,32,1
162K27S3,371,experiment,88,→,right,→,0.4596505998633802,True,32,1
162K27S3,372,experiment,82,↓,down,↓,0.48570570023730397,True,32,1
162K27S3,373,experiment,96,←,left,←,0.38404469983652234,True,32,1
162K27S3,374,experiment,90,↓,down,↓,0.7322724997065961,True,32,0
162K27S3,375,experiment,87,↑,down,↓,0.7216190998442471,False,32,1
162K27S3,376,experiment,89,↓,down,↓,0.5025281002745032,True,32,1
162K27S3,377,experiment,81,←,left,←,0.46339960023760796,True,32,1
162K27S3,378,experiment,66,←,right,→,0.5584505000151694,False,32,1
162K27S3,379,experiment,73,↑,up,↑,0.7194046000950038,True,32,1
162K27S3,380,experiment,105,→,right,→,0.49562689987942576,True,32,1
162K27S3,381,experiment,106,→,right,→,0.6641744999215007,True,32,1
162K27S3,382,experiment,63,→,right,→,0.8164110002107918,True,32,1
162K27S3,383,experiment,86,←,no_key,no_letter,-1.0,False,32,1
162K27S3,384,experiment,62,↑,up,↑,0.6881486000493169,True,32,1
162K27S3,385,experiment,54,→,right,→,0.4821872999891639,True,32,1
162K27S3,386,experiment,70,↑,up,↑,0.5592453996650875,True,32,1
162K27S3,387,experiment,74,↓,down,↓,0.687999099958688,True,32,1
162K27S3,388,experiment,99,↑,up,↑,0.6589906997978687,True,32,1
162K27S3,389,experiment,94,↓,down,↓,0.48903030017390847,True,32,1
162K27S3,390,experiment,67,←,left,←,0.6311347000300884,True,32,1
162K27S3,391,experiment,60,→,right,→,0.4098787996917963,True,32,1
162K27S3,392,experiment,98,←,left,←,0.6315349000506103,True,32,0
162K27S3,393,experiment,92,↓,down,↓,0.8149957996793091,True,32,1
162K27S3,394,experiment,75,←,left,←,0.4006865001283586,True,32,1
162K27S3,395,experiment,108,←,left,←,0.48844200000166893,True,32,0
162K27S3,396,experiment,91,↓,down,↓,0.6620924999006093,True,32,1
162K27S3,397,experiment,102,↑,up,↑,0.6734829000197351,True,32,1
162K27S3,398,experiment,101,↓,down,↓,0.6045778002589941,True,32,1
162K27S3,399,experiment,64,←,left,←,0.3922399999573827,True,32,1
162K27S3,400,experiment,56,↑,up,↑,0.6116630998440087,True,32,0
162K27S3,401,experiment,61,→,right,→,0.43924099998548627,True,32,1
162K27S3,402,experiment,76,→,right,→,0.6356061999686062,True,32,0
162K27S3,403,experiment,79,←,left,←,0.400859700050205,True,32,1
162K27S3,404,experiment,80,→,right,→,0.5884024002589285,True,32,0
162K27S3,405,experiment,72,↑,up,↑,0.5565077997744083,True,32,1
162K27S3,406,experiment,52,→,right,→,0.4844396999105811,True,32,1
162K27S3,407,experiment,71,↑,up,↑,0.5372819998301566,True,32,1
162K27S3,408,experiment,50,↑,up,↑,0.43560299975797534,True,32,1
162K27S3,409,experiment,103,↑,up,↑,0.44705899991095066,True,32,0
162K27S3,410,experiment,65,↑,up,↑,0.5668010003864765,True,32,1
162K27S3,411,experiment,59,←,left,←,0.5642005000263453,True,32,1
162K27S3,412,experiment,48,→,right,→,0.6614196998998523,True,32,1
162K27S3,413,experiment,78,↓,down,↓,0.744698400143534,True,32,1
162K27S3,414,experiment,58,→,right,→,0.7594209001399577,True,32,1
162K27S3,415,experiment,95,↓,no_key,no_letter,-1.0,False,32,1
162K27S3,416,experiment,83,←,left,←,0.41727189999073744,True,32,1
162K27S3,417,experiment,55,→,no_key,no_letter,-1.0,False,32,0
162K27S3,418,experiment,97,↑,up,↑,0.7020159000530839,True,32,1
162K27S3,419,training,71,←,left,←,0.3839827002957463,True,32,0
162K27S3,420,training,50,↑,up,↑,0.6268633999861777,True,32,0
162K27S3,421,experiment,69,←,left,←,0.39171719970181584,True,32,1
162K27S3,422,experiment,93,←,left,←,0.6112008998170495,True,32,0
162K27S3,423,experiment,51,↑,up,↑,0.5136277000419796,True,32,1
162K27S3,424,experiment,75,↑,down,↓,1.0677645998075604,False,32,1
162K27S3,425,experiment,89,↑,no_key,no_letter,-1.0,False,32,1
162K27S3,426,experiment,87,→,right,→,0.5283447001129389,True,32,1
162K27S3,427,experiment,95,→,right,→,0.7235230002552271,True,32,1
162K27S3,428,experiment,62,←,left,←,0.5373331001028419,True,32,1
162K27S3,429,experiment,64,→,right,→,0.5344596998766065,True,32,1
162K27S3,430,experiment,56,↓,down,↓,0.7502242997288704,True,32,1
162K27S3,431,experiment,86,→,right,→,0.6195149999111891,True,32,1
162K27S3,432,experiment,101,↑,up,↑,0.44106530025601387,True,32,1
162K27S3,433,experiment,77,←,left,←,0.5247321999631822,True,32,1
162K27S3,434,experiment,100,←,left,←,0.629971600137651,True,32,1
162K27S3,435,experiment,79,←,left,←,0.5303016998805106,True,32,1
162K27S3,436,experiment,102,←,left,←,0.5230795997194946,True,32,1
162K27S3,437,experiment,80,↑,up,↑,0.5230405000038445,True,32,1
162K27S3,438,experiment,63,←,left,←,0.4489104999229312,True,32,1
162K27S3,439,experiment,97,→,right,→,0.4465221003629267,True,32,1
162K27S3,440,experiment,71,↑,up,↑,0.41740370029583573,True,32,1
162K27S3,441,experiment,59,↓,down,↓,0.4554181997664273,True,32,0
162K27S3,442,experiment,73,↓,down,↓,0.8282685000449419,True,32,1
162K27S3,443,experiment,60,↓,down,↓,0.6389442002400756,True,32,1
162K27S3,444,experiment,53,→,right,→,0.587487899698317,True,32,1
162K27S3,445,experiment,54,←,left,←,0.47349399980157614,True,32,1
162K27S3,446,experiment,81,→,right,→,0.6032297001220286,True,32,1
162K27S3,447,experiment,48,↓,down,↓,0.6110507999546826,True,32,1
162K27S3,448,experiment,91,↑,up,↑,0.45234129996970296,True,32,1
162K27S3,449,experiment,94,←,left,←,0.41738339979201555,True,32,1
162K27S3,450,experiment,57,←,left,←,0.6218758001923561,True,32,0
162K27S3,451,experiment,67,↑,up,↑,0.40910790022462606,True,32,1
162K27S3,452,experiment,106,↓,down,↓,0.5223459997214377,True,32,0
162K27S3,453,experiment,58,←,left,←,0.39237040001899004,True,32,1
162K27S3,454,experiment,49,↑,no_key,no_letter,-1.0,False,32,0
162K27S3,455,experiment,107,↑,up,↑,0.41714229993522167,True,32,1
162K27S3,456,experiment,50,→,right,→,0.4091964000836015,True,32,0
162K27S3,457,experiment,85,↑,up,↑,0.8082983996719122,True,32,0
162K27S3,458,experiment,103,→,right,→,0.46928610000759363,True,32,1
162K27S3,459,experiment,82,↑,up,↑,0.49497770005837083,True,32,1
162K27S3,460,experiment,108,←,left,←,0.4553982997313142,True,32,1
162K27S3,461,experiment,96,↑,no_key,no_letter,-1.0,False,32,1
162K27S3,462,experiment,84,↓,down,↓,0.7146916999481618,True,32,1
162K27S3,463,experiment,65,←,left,←,0.4799931002780795,True,32,1
162K27S3,464,experiment,83,↑,up,↑,0.48072879994288087,True,32,1
162K27S3,465,experiment,70,←,left,←,0.6298301997594535,True,32,1
162K27S3,466,experiment,98,↑,up,↑,0.683485799934715,True,32,1
162K27S3,467,experiment,66,↑,up,↑,0.5941006997600198,True,32,1
162K27S3,468,experiment,104,←,left,←,0.4953474001958966,True,32,1
162K27S3,469,experiment,68,→,right,→,0.48474650038406253,True,32,1
162K27S3,470,experiment,76,→,right,→,0.5197870000265539,True,32,1
162K27S3,471,experiment,90,↓,down,↓,0.4768417999148369,True,32,1
162K27S3,472,experiment,78,←,left,←,0.40078079979866743,True,32,1
162K27S3,473,experiment,92,←,left,←,0.8724937997758389,True,32,0
162K27S3,474,experiment,105,↑,up,↑,0.6019603000022471,True,32,1
162K27S3,475,experiment,52,→,right,→,0.6164201996289194,True,32,1
162K27S3,476,experiment,74,↓,down,↓,0.5654772999696434,True,32,1
162K27S3,477,experiment,99,↓,down,↓,0.501564800273627,True,32,1
162K27S3,478,experiment,72,↓,down,↓,0.4732141997665167,True,32,1
162K27S3,479,experiment,55,↑,up,↑,0.7797337998636067,True,32,1
162K27S3,480,experiment,61,↓,down,↓,0.5598120000213385,True,32,1
162K27S3,481,experiment,88,↑,up,↑,0.49174779979512095,True,32,1
162K27S3,482,training,76,→,right,→,0.5004704999737442,True,31,0
162K27S3,483,training,66,←,left,←,0.3923932001926005,True,31,1
162K27S3,484,experiment,100,↓,down,↓,0.7765567000024021,True,31,0
162K27S3,485,experiment,54,↑,no_key,no_letter,-1.0,False,31,1
162K27S3,486,experiment,104,↓,down,↓,0.7432081000879407,True,31,1
162K27S3,487,experiment,58,→,right,→,0.5019438001327217,True,31,1
162K27S3,488,experiment,83,←,left,←,0.383737999945879,True,31,1
162K27S3,489,experiment,108,↑,up,↑,0.4580353000201285,True,31,0
162K27S3,490,experiment,64,↑,up,↑,0.5300062000751495,True,31,1
162K27S3,491,experiment,91,↑,up,↑,0.4465141003020108,True,31,1
162K27S3,492,experiment,95,↓,down,↓,0.6125817997381091,True,31,1
162K27S3,493,experiment,52,↓,down,↓,0.6026750998571515,True,31,1
162K27S3,494,experiment,73,↑,no_key,no_letter,-1.0,False,31,1
162K27S3,495,experiment,63,↑,up,↑,0.5195988998748362,True,31,1
162K27S3,496,experiment,80,↑,up,↑,0.38488780008628964,True,31,1
162K27S3,497,experiment,93,←,left,←,0.36746020009741187,True,31,0
162K27S3,498,experiment,105,↓,down,↓,0.7023765002377331,True,31,0
162K27S3,499,experiment,107,→,right,→,0.5104308002628386,True,31,1
162K27S3,500,experiment,56,↓,down,↓,0.7831903998740017,True,31,1
162K27S3,501,experiment,102,↑,up,↑,0.4379624999128282,True,31,1
162K27S3,502,experiment,72,←,left,←,0.6356668001972139,True,31,1
162K27S3,503,experiment,79,→,right,→,0.49573659989982843,True,31,1
162K27S3,504,experiment,69,←,no_key,no_letter,-1.0,False,31,1
162K27S3,505,experiment,74,←,left,←,0.44649709993973374,True,31,1
162K27S3,506,experiment,94,↓,down,↓,0.5246562999673188,True,31,1
162K27S3,507,experiment,71,↓,down,↓,0.6158489999361336,True,31,1
162K27S3,508,experiment,85,↑,up,↑,0.3756999000906944,True,31,1
162K27S3,509,experiment,78,→,right,→,0.4968922999687493,True,31,0
162K27S3,510,experiment,76,↑,up,↑,0.6993312002159655,True,31,1
162K27S3,511,experiment,49,→,right,→,0.806665699928999,True,31,1
162K27S3,512,experiment,51,→,right,→,0.5731315002776682,True,31,1
162K27S3,513,experiment,103,↑,up,↑,0.6435511996969581,True,31,1
162K27S3,514,experiment,86,↑,up,↑,0.5008204001933336,True,31,1
162K27S3,515,experiment,97,↑,up,↑,0.5042789997532964,True,31,1
162K27S3,516,experiment,70,↑,up,↑,0.4526987997815013,True,31,1
162K27S3,517,experiment,61,↓,down,↓,0.5660353000275791,True,31,1
162K27S3,518,experiment,88,←,left,←,0.5458591999486089,True,31,1
162K27S3,519,experiment,87,↓,down,↓,0.47851380007341504,True,31,1
162K27S3,520,experiment,50,↓,down,↓,0.5147278998047113,True,31,1
162K27S3,521,experiment,96,←,left,←,0.4007438998669386,True,31,1
162K27S3,522,experiment,77,→,right,→,0.6274537998251617,True,31,0
162K27S3,523,experiment,84,↓,down,↓,0.5822788001969457,True,31,1
162K27S3,524,experiment,106,↓,left,←,0.3923977999947965,False,31,1
162K27S3,525,experiment,75,←,left,←,0.409039500169456,True,31,0
162K27S3,526,experiment,57,↓,down,↓,0.5340128000825644,True,31,0
162K27S3,527,experiment,48,←,left,←,0.448517800308764,True,31,1
162K27S3,528,experiment,66,↓,down,↓,0.4884943999350071,True,31,1
162K27S3,529,experiment,53,↑,up,↑,0.4667022000066936,True,31,1
162K27S3,530,experiment,89,↑,down,↓,1.0580422999337316,False,31,1
162K27S3,531,experiment,62,↑,up,↑,0.4669759999960661,True,31,1
162K27S3,532,experiment,67,←,left,←,0.39996880013495684,True,31,1
162K27S3,533,experiment,99,→,right,→,0.4718956998549402,True,31,0
162K27S3,534,experiment,60,←,left,←,0.6726525998674333,True,31,1
162K27S3,535,experiment,92,↑,no_key,no_letter,-1.0,False,31,1
162K27S3,536,experiment,101,↓,down,↓,0.6636510998941958,True,31,1
162K27S3,537,experiment,65,←,left,←,0.39249749993905425,True,31,1
162K27S3,538,experiment,81,→,right,→,0.45174199994653463,True,31,0
162K27S3,539,experiment,59,↑,up,↑,0.5898474999703467,True,31,1
162K27S3,540,experiment,68,↑,up,↑,0.9352684998884797,True,31,1
162K27S3,541,experiment,82,↓,no_key,no_letter,-1.0,False,31,1
162K27S3,542,experiment,55,←,left,←,0.43104529986158013,True,31,1
162K27S3,543,experiment,90,←,left,←,0.3676219996996224,True,31,0
162K27S3,544,experiment,98,↓,down,↓,0.4710633996874094,True,31,0
162K27S3,545,training,77,↓,down,↓,0.5506179998628795,True,31,0
162K27S3,546,training,69,↓,down,↓,0.6892806999385357,True,31,1
162K27S3,547,experiment,85,↓,down,↓,0.5691653001122177,True,31,1
162K27S3,548,experiment,77,→,right,→,0.7283987998962402,True,31,1
162K27S3,549,experiment,69,↑,up,↑,0.6682037999853492,True,31,1
162K27S3,550,experiment,83,↓,down,↓,0.4935391000472009,True,31,1
162K27S3,551,experiment,103,↓,down,↓,0.7672915998846292,True,31,1
162K27S3,552,experiment,78,↓,down,↓,0.6224168003536761,True,31,1
162K27S3,553,experiment,95,→,right,→,0.6055013001896441,True,31,1
162K27S3,554,experiment,105,↑,up,↑,0.4657342997379601,True,31,1
162K27S3,555,experiment,99,→,right,→,0.5257081999443471,True,31,1
162K27S3,556,experiment,59,↓,down,↓,0.5088612004183233,True,31,1
162K27S3,557,experiment,58,↑,up,↑,0.6529234000481665,True,31,1
162K27S3,558,experiment,88,←,left,←,0.4008636996150017,True,31,1
162K27S3,559,experiment,97,↓,no_key,no_letter,-1.0,False,31,0
162K27S3,560,experiment,87,←,left,←,0.7539678001776338,True,31,1
162K27S3,561,experiment,79,→,right,→,0.5929191000759602,True,31,1
162K27S3,562,experiment,57,↑,up,↑,0.7099847998470068,True,31,1
162K27S3,563,experiment,63,↓,down,↓,0.49236010015010834,True,31,1
162K27S3,564,experiment,54,←,left,←,0.5904666003771126,True,31,1
162K27S3,565,experiment,56,→,right,→,0.5238812998868525,True,31,1
162K27S3,566,experiment,67,←,left,←,0.6243185000494123,True,31,1
162K27S3,567,experiment,50,↓,down,↓,0.6384783997200429,True,31,1
162K27S3,568,experiment,49,→,left,←,0.8121476001106203,False,31,1
162K27S3,569,experiment,101,↑,up,↑,0.45007939962670207,True,31,1
162K27S3,570,experiment,98,←,left,←,0.6229238999076188,True,31,1
162K27S3,571,experiment,102,↑,up,↑,0.6676278999075294,True,31,1
162K27S3,572,experiment,64,→,right,→,0.4434893000870943,True,31,1
162K27S3,573,experiment,104,↓,down,↓,0.4391948003321886,True,31,1
162K27S3,574,experiment,65,→,right,→,0.6951861004345119,True,31,1
162K27S3,575,experiment,61,←,left,←,0.6869196998886764,True,31,1
162K27S3,576,experiment,70,↑,up,↑,1.4119665999896824,True,31,1
162K27S3,577,experiment,96,↓,down,↓,0.5471534999087453,True,31,1
162K27S3,578,experiment,68,↓,down,↓,0.4863134999759495,True,31,1
162K27S3,579,experiment,72,↑,up,↑,0.5067468001507223,True,31,1
162K27S3,580,experiment,75,→,right,→,0.6610568002797663,True,31,1
162K27S3,581,experiment,80,→,right,→,0.48810099996626377,True,31,1
162K27S3,582,experiment,108,←,no_key,no_letter,-1.0,False,31,1
162K27S3,583,experiment,81,←,left,←,0.7273718998767436,True,31,1
162K27S3,584,experiment,48,↓,down,↓,0.522214500233531,True,31,1
162K27S3,585,experiment,106,↓,down,↓,0.8653584998100996,True,31,1
162K27S3,586,experiment,93,↑,up,↑,0.479479200206697,True,31,1
162K27S3,587,experiment,74,→,right,→,0.4091873997822404,True,31,1
162K27S3,588,experiment,66,→,right,→,0.5723124998621643,True,31,0
162K27S3,589,experiment,71,→,right,→,0.48530220007523894,True,31,1
162K27S3,590,experiment,82,←,left,←,0.48647869983687997,True,31,1
162K27S3,591,experiment,86,↑,up,↑,0.48617450008168817,True,31,1
162K27S3,592,experiment,94,↑,no_key,no_letter,-1.0,False,31,1
162K27S3,593,experiment,100,→,right,→,0.4372343001887202,True,31,1
162K27S3,594,experiment,89,↑,up,↑,0.6127467001788318,True,31,1
162K27S3,595,experiment,76,→,right,→,0.5385267999954522,True,31,1
162K27S3,596,experiment,92,↑,up,↑,0.6220454997383058,True,31,1
162K27S3,597,experiment,73,↓,down,↓,0.6203310000710189,True,31,1
162K27S3,598,experiment,107,↑,no_key,no_letter,-1.0,False,31,1
162K27S3,599,experiment,53,↓,down,↓,0.6966698998585343,True,31,1
162K27S3,600,experiment,62,→,right,→,0.43990630004554987,True,31,1
162K27S3,601,experiment,91,↑,up,↑,0.6473310999572277,True,31,1
162K27S3,602,experiment,84,↓,down,↓,0.6090241996571422,True,31,1
162K27S3,603,experiment,60,↑,down,↓,0.7164703998714685,False,31,1
162K27S3,604,experiment,55,↑,down,↓,0.8852406996302307,False,31,1
162K27S3,605,experiment,90,←,left,←,0.40075369970873,True,31,1
162K27S3,606,experiment,52,←,left,←,0.4262470998801291,True,31,0
162K27S3,607,experiment,51,←,left,←,0.48715349985286593,True,31,0
162K27S3,608,training,100,←,left,←,0.5635474999435246,True,31,0
162K27S3,609,training,84,↓,down,↓,0.6485812999308109,True,31,1
162K27S3,610,experiment,99,↓,down,↓,0.517300599720329,True,31,1
162K27S3,611,experiment,103,↑,up,↑,0.4700942002236843,True,31,1
162K27S3,612,experiment,50,↑,up,↑,0.43492549983784556,True,31,1
162K27S3,613,experiment,55,←,left,←,0.4008780997246504,True,31,1
162K27S3,614,experiment,98,↑,down,↓,0.6290044998750091,False,31,0
162K27S3,615,experiment,77,←,left,←,0.36739440029487014,True,31,1
162K27S3,616,experiment,71,←,left,←,0.3590264995582402,True,31,0
162K27S3,617,experiment,89,→,right,→,0.6386108999140561,True,31,0
162K27S3,618,experiment,70,↓,down,↓,0.7251973999664187,True,31,1
162K27S3,619,experiment,88,↑,up,↑,1.2426187000237405,True,31,1
162K27S3,620,experiment,58,↓,down,↓,0.48517460003495216,True,31,1
162K27S3,621,experiment,79,↑,up,↑,0.5035169003531337,True,31,1
162K27S3,622,experiment,75,→,right,→,0.6260899002663791,True,31,1
162K27S3,623,experiment,65,↓,down,↓,0.5711122001521289,True,31,1
162K27S3,624,experiment,100,↑,down,↓,0.6985201998613775,False,31,1
162K27S3,625,experiment,54,←,left,←,0.5882402998395264,True,31,1
162K27S3,626,experiment,68,←,left,←,0.44616449996829033,True,31,1
162K27S3,627,experiment,108,←,left,←,0.5280267000198364,True,31,1
162K27S3,628,experiment,93,↑,up,↑,0.42833640007302165,True,31,1
162K27S3,629,experiment,81,→,right,→,0.5991713996045291,True,31,0
162K27S3,630,experiment,73,↑,up,↑,0.5507191997021437,True,31,1
162K27S3,631,experiment,97,←,left,←,0.49586870009079576,True,31,1
162K27S3,632,experiment,95,↑,up,↑,0.5799182998016477,True,31,1
162K27S3,633,experiment,56,→,right,→,0.6497085001319647,True,31,1
162K27S3,634,experiment,84,→,right,→,0.46745590027421713,True,31,1
162K27S3,635,experiment,63,↓,down,↓,0.6995752998627722,True,31,1
162K27S3,636,experiment,104,↑,up,↑,0.5645722001791,True,31,1
162K27S3,637,experiment,106,↑,up,↑,0.6342577002942562,True,31,1
162K27S3,638,experiment,102,→,right,→,1.0946605000644922,True,31,1
162K27S3,639,experiment,90,↑,up,↑,0.6125591001473367,True,31,1
162K27S3,640,experiment,60,←,left,←,0.5676624001935124,True,31,1
162K27S3,641,experiment,101,←,left,←,0.7590482998639345,True,31,1
162K27S3,642,experiment,69,↓,down,↓,0.6655268999747932,True,31,1
162K27S3,643,experiment,82,→,right,→,0.49926039995625615,True,31,1
162K27S3,644,experiment,78,→,left,←,0.6207642997615039,False,31,1
162K27S3,645,experiment,85,→,right,→,0.479504999704659,True,31,1
162K27S3,646,experiment,83,←,left,←,0.3849368002265692,True,31,1
162K27S3,647,experiment,76,↑,up,↑,0.49501039972528815,True,31,0
162K27S3,648,experiment,96,→,right,→,0.44290609983727336,True,31,1
162K27S3,649,experiment,49,↑,up,↑,0.6005405001342297,True,31,1
162K27S3,650,experiment,107,←,left,←,0.5166094000451267,True,31,1
162K27S3,651,experiment,80,↑,down,↓,0.7091494002379477,False,31,1
162K27S3,652,experiment,64,→,right,→,0.4991548000834882,True,31,1
162K27S3,653,experiment,94,←,left,←,0.4091495000757277,True,31,1
162K27S3,654,experiment,48,↓,down,↓,0.49482670007273555,True,31,0
162K27S3,655,experiment,62,←,left,←,0.4939892003312707,True,31,1
162K27S3,656,experiment,74,→,right,→,0.6253870003856719,True,31,1
162K27S3,657,experiment,72,↑,up,↑,0.6082402998581529,True,31,1
162K27S3,658,experiment,87,↑,up,↑,0.47441829973831773,True,31,1
162K27S3,659,experiment,53,→,right,→,0.5256413999013603,True,31,1
162K27S3,660,experiment,61,→,right,→,0.6442019999958575,True,31,1
162K27S3,661,experiment,92,←,left,←,0.4515339997597039,True,31,1
162K27S3,662,experiment,86,↓,down,↓,0.660468699876219,True,31,1
162K27S3,663,experiment,57,↓,down,↓,0.6229150001890957,True,31,1
162K27S3,664,experiment,66,←,left,←,0.43996179988607764,True,31,1
162K27S3,665,experiment,51,↓,down,↓,0.49273280007764697,True,31,1
162K27S3,666,experiment,91,→,left,←,0.5945291998796165,False,31,1
162K27S3,667,experiment,59,→,right,→,0.46294640004634857,True,31,1
162K27S3,668,experiment,67,↑,up,↑,0.46170559991151094,True,31,1
162K27S3,669,experiment,52,↑,up,↑,0.45778229972347617,True,31,1
162K27S3,670,experiment,105,↓,left,←,1.0602633999660611,False,31,1
162K27S3,671,training,63,↓,down,↓,0.4717867001891136,True,30,0
162K27S3,672,training,73,↑,up,↑,0.668458899948746,True,30,1
162K27S3,673,experiment,55,→,right,→,0.5990539002232254,True,30,1
162K27S3,674,experiment,48,→,left,←,0.502662300132215,False,30,1
162K27S3,675,experiment,51,→,right,→,0.6415261002257466,True,30,1
162K27S3,676,experiment,65,↑,up,↑,0.45786029985174537,True,30,1
162K27S3,677,experiment,85,↑,no_key,no_letter,-1.0,False,30,1
162K27S3,678,experiment,90,↓,down,↓,0.5038703000172973,True,30,1
162K27S3,679,experiment,50,→,right,→,0.4509139000438154,True,30,1
162K27S3,680,experiment,74,←,left,←,0.5920123001560569,True,30,1
162K27S3,681,experiment,93,↑,up,↑,0.4491397002711892,True,30,1
162K27S3,682,experiment,49,←,left,←,0.47047240007668734,True,30,1
162K27S3,683,experiment,75,→,right,→,0.6186723997816443,True,30,1
162K27S3,684,experiment,92,→,right,→,0.4990183999761939,True,30,1
162K27S3,685,experiment,86,←,left,←,0.35925929993391037,True,30,1
162K27S3,686,experiment,96,←,left,←,0.3840981996618211,True,30,0
162K27S3,687,experiment,82,↓,down,↓,0.5280971000902355,True,30,0
162K27S3,688,experiment,99,↓,down,↓,0.7295365002937615,True,30,1
162K27S3,689,experiment,108,↓,down,↓,0.4722127001732588,True,30,1
162K27S3,690,experiment,72,↑,up,↑,0.6369934999383986,True,30,1
162K27S3,691,experiment,91,←,left,←,0.6609656000509858,True,30,1
162K27S3,692,experiment,104,→,right,→,0.5517180003225803,True,30,1
162K27S3,693,experiment,63,↑,up,↑,0.42098290007561445,True,30,1
162K27S3,694,experiment,79,→,right,→,0.4570166002959013,True,30,0
162K27S3,695,experiment,53,↓,down,↓,0.6606797999702394,True,30,1
162K27S3,696,experiment,69,→,right,→,0.4991244999691844,True,30,1
162K27S3,697,experiment,71,↓,down,↓,0.711189900059253,True,30,1
162K27S3,698,experiment,70,↑,down,↓,0.9152128002606332,False,30,1
162K27S3,699,experiment,68,→,right,→,0.5035825003869832,True,30,1
162K27S3,700,experiment,83,→,right,→,0.43981390027329326,True,30,1
162K27S3,701,experiment,100,↑,no_key,no_letter,-1.0,False,30,1
162K27S3,702,experiment,67,↑,up,↑,0.43317419989034534,True,30,1
162K27S3,703,experiment,94,→,no_key,no_letter,-1.0,False,30,1
162K27S3,704,experiment,101,→,right,→,0.497119199950248,True,30,1
162K27S3,705,experiment,59,←,left,←,0.473261599894613,True,30,1
162K27S3,706,experiment,77,↑,up,↑,0.6527510001324117,True,30,1
162K27S3,707,experiment,98,↑,down,↓,0.5532941999845207,False,30,1
162K27S3,708,experiment,81,→,right,→,0.44820869993418455,True,30,1
162K27S3,709,experiment,61,↑,up,↑,0.5534252999350429,True,30,1
162K27S3,710,experiment,73,↑,up,↑,0.5788159999065101,True,30,1
162K27S3,711,experiment,62,↓,down,↓,0.6949543999508023,True,30,1
162K27S3,712,experiment,80,←,left,←,0.6803065002895892,True,30,1
162K27S3,713,experiment,64,↑,up,↑,0.49542849976569414,True,30,1
162K27S3,714,experiment,88,↑,up,↑,0.3920674999244511,True,30,1
162K27S3,715,experiment,54,↑,up,↑,0.39260469982400537,True,30,0
162K27S3,716,experiment,105,↓,down,↓,0.5207003001123667,True,30,0
162K27S3,717,experiment,87,↓,down,↓,0.5107122999615967,True,30,1
162K27S3,718,experiment,97,→,right,→,0.4736898001283407,True,30,1
162K27S3,719,experiment,95,←,left,←,0.4389845998957753,True,30,1
162K27S3,720,experiment,78,↓,down,↓,0.7228442998602986,True,30,1
162K27S3,721,experiment,58,←,left,←,0.5863687000237405,True,30,1
162K27S3,722,experiment,107,↑,no_key,no_letter,-1.0,False,30,1
162K27S3,723,experiment,103,↓,down,↓,0.6314995996654034,True,30,1
162K27S3,724,experiment,56,↑,up,↑,0.4832951999269426,True,30,1
162K27S3,725,experiment,89,↓,down,↓,0.5059051001444459,True,30,1
162K27S3,726,experiment,57,↓,down,↓,0.9704328002408147,True,30,1
162K27S3,727,experiment,84,↓,down,↓,0.6793311000801623,True,30,1
162K27S3,728,experiment,52,←,left,←,0.714456900022924,True,30,1
162K27S3,729,experiment,66,←,left,←,0.5835183002054691,True,30,1
162K27S3,730,experiment,102,↓,down,↓,0.789941499941051,True,30,1
162K27S3,731,experiment,60,↓,left,←,0.8899432998150587,False,30,1
162K27S3,732,experiment,106,↑,up,↑,0.45049169985577464,True,30,1
162K27S3,733,experiment,76,↑,up,↑,0.43909360002726316,True,30,1
162K27S3,734,training,73,↑,up,↑,0.6323397997766733,True,30,0
162K27S3,735,training,58,←,left,←,0.6754418001510203,True,30,1
162K27S3,736,experiment,75,←,left,←,0.4791345000267029,True,30,1
162K27S3,737,experiment,77,↑,up,↑,0.38336290000006557,True,30,1
162K27S3,738,experiment,52,→,right,→,0.5606269999407232,True,30,0
162K27S3,739,experiment,74,↓,down,↓,0.5294067999348044,True,30,1
162K27S3,740,experiment,103,↑,up,↑,0.5293973996303976,True,30,1
162K27S3,741,experiment,49,↑,up,↑,0.5159999001771212,True,30,1
162K27S3,742,experiment,78,←,left,←,0.42956609977409244,True,30,1
162K27S3,743,experiment,62,↓,down,↓,0.6468074000440538,True,30,1
162K27S3,744,experiment,106,←,left,←,0.569089500233531,True,30,1
162K27S3,745,experiment,89,←,left,←,0.7644714000634849,True,30,1
162K27S3,746,experiment,60,←,right,→,0.5614637001417577,False,30,1
162K27S3,747,experiment,83,←,left,←,0.3340290002524853,True,30,1
162K27S3,748,experiment,55,←,left,←,0.5830078003928065,True,30,0
162K27S3,749,experiment,69,→,right,→,0.7044764002785087,True,30,1
162K27S3,750,experiment,102,←,left,←,0.5298573998734355,True,30,1
162K27S3,751,experiment,107,↑,up,↑,0.3847365998663008,True,30,1
162K27S3,752,experiment,96,→,right,→,0.5045189997181296,True,30,0
162K27S3,753,experiment,94,→,right,→,0.5091586001217365,True,30,1
162K27S3,754,experiment,80,↓,down,↓,0.6137065999209881,True,30,1
162K27S3,755,experiment,99,←,no_key,no_letter,-1.0,False,30,1
162K27S3,756,experiment,53,←,left,←,0.3755636001005769,True,30,1
162K27S3,757,experiment,71,↑,no_key,no_letter,-1.0,False,30,0
162K27S3,758,experiment,54,↑,up,↑,0.43883469980210066,True,30,1
162K27S3,759,experiment,86,↑,up,↑,0.775995200034231,True,30,1
162K27S3,760,experiment,64,↑,up,↑,0.400734799914062,True,30,1
162K27S3,761,experiment,63,←,no_key,no_letter,-1.0,False,30,0
162K27S3,762,experiment,56,→,right,→,0.5183961000293493,True,30,1
162K27S3,763,experiment,104,↓,down,↓,0.702365499921143,True,30,1
162K27S3,764,experiment,97,↑,no_key,no_letter,-1.0,False,30,1
162K27S3,765,experiment,100,→,right,→,0.6673674997873604,True,30,1
162K27S3,766,experiment,50,←,left,←,0.5596732003614306,True,30,1
162K27S3,767,experiment,92,←,left,←,0.5624190997332335,True,30,1
162K27S3,768,experiment,61,↑,no_key,no_letter,-1.0,False,30,1
162K27S3,769,experiment,68,↑,up,↑,0.4997379002161324,True,30,1
162K27S3,770,experiment,48,←,left,←,0.40072260005399585,True,30,1
162K27S3,771,experiment,105,←,left,←,0.6278335000388324,True,30,0
162K27S3,772,experiment,88,↑,up,↑,0.5332758002914488,True,30,1
162K27S3,773,experiment,98,←,left,←,0.5672504999674857,True,30,1
162K27S3,774,experiment,81,→,right,→,0.4851049999706447,True,30,1
162K27S3,775,experiment,76,→,right,→,0.7200984000228345,True,30,1
162K27S3,776,experiment,82,↓,down,↓,0.5276109999977052,True,30,1
162K27S3,777,experiment,85,↑,up,↑,0.5743774999864399,True,30,1
162K27S3,778,experiment,51,↑,up,↑,0.6139645003713667,True,30,1
162K27S3,779,experiment,101,↓,down,↓,0.6515726000070572,True,30,1
162K27S3,780,experiment,57,←,left,←,0.6300527001731098,True,30,1
162K27S3,781,experiment,87,↑,up,↑,0.4396730000153184,True,30,1
162K27S3,782,experiment,73,↑,up,↑,0.9011630997993052,True,30,1
162K27S3,783,experiment,95,↑,up,↑,0.4732113000936806,True,30,1
162K27S3,784,experiment,66,↑,up,↑,0.6079180999659002,True,30,1
162K27S3,785,experiment,70,→,right,→,0.7200680999085307,True,30,1
162K27S3,786,experiment,90,←,left,←,0.39254159992560744,True,30,1
162K27S3,787,experiment,79,←,left,←,0.3757238001562655,True,30,0
162K27S3,788,experiment,84,↓,down,↓,0.6308961003087461,True,30,0
162K27S3,789,experiment,65,→,right,→,0.495652100071311,True,30,1
162K27S3,790,experiment,59,→,right,→,0.4560362002812326,True,30,1
162K27S3,791,experiment,67,←,left,←,0.4471072996966541,True,30,1
162K27S3,792,experiment,72,→,right,→,0.5169027000665665,True,30,1
162K27S3,793,experiment,91,→,right,→,0.5696076001040637,True,30,1
162K27S3,794,experiment,93,↑,up,↑,0.5716333002783358,True,30,1
162K27S3,795,experiment,108,↑,up,↑,0.38380989991128445,True,30,1
162K27S3,796,experiment,58,←,left,←,0.4621990998275578,True,30,0
162K27S3,797,training,68,↑,up,↑,0.5946464999578893,True,29,0
162K27S3,798,training,99,→,right,→,0.5537580996751785,True,29,1
162K27S3,799,experiment,103,←,no_key,no_letter,-1.0,False,29,1
162K27S3,800,experiment,66,↑,up,↑,0.46227729972451925,True,29,1
162K27S3,801,experiment,51,↑,up,↑,0.44267679983749986,True,29,1
162K27S3,802,experiment,64,↑,left,←,0.3676976002752781,False,29,1
162K27S3,803,experiment,56,↓,down,↓,0.6816050000488758,True,29,0
162K27S3,804,experiment,77,↓,down,↓,0.4523489996790886,True,29,1
162K27S3,805,experiment,69,↓,down,↓,0.4197280998341739,True,29,1
162K27S3,806,experiment,94,↓,down,↓,0.72272829990834,True,29,1
162K27S3,807,experiment,84,←,left,←,0.5774565003812313,True,29,1
162K27S3,808,experiment,58,←,left,←,0.798878500238061,True,29,1
162K27S3,809,experiment,79,→,right,→,0.6362548000179231,True,29,1
162K27S3,810,experiment,90,→,right,→,0.4526149998418987,True,29,1
162K27S3,811,experiment,83,←,left,←,0.4309139000251889,True,29,1
162K27S3,812,experiment,63,↓,down,↓,0.47244329983368516,True,29,1
162K27S3,813,experiment,70,←,left,←,0.4221803001128137,True,29,1
162K27S3,814,experiment,93,↓,down,↓,0.42946769995614886,True,29,1
162K27S3,815,experiment,62,↓,down,↓,0.44709959998726845,True,29,1
162K27S3,816,experiment,100,←,left,←,0.4199925996363163,True,29,1
162K27S3,817,experiment,105,←,left,←,0.6554788001812994,True,29,1
162K27S3,818,experiment,106,↓,down,↓,0.44156269961968064,True,29,1
162K27S3,819,experiment,108,↓,down,↓,0.47550270007923245,True,29,1
162K27S3,820,experiment,59,↑,down,↓,0.6767503996379673,False,29,1
162K27S3,821,experiment,82,↑,up,↑,0.47032919991761446,True,29,1
162K27S3,822,experiment,60,←,left,←,0.5671494002453983,True,29,1
162K27S3,823,experiment,98,↑,up,↑,0.6475129001773894,True,29,1
162K27S3,824,experiment,92,→,right,→,0.566523099783808,True,29,1
162K27S3,825,experiment,97,→,right,→,0.48738559987396,True,29,1
162K27S3,826,experiment,99,↑,up,↑,0.5306847998872399,True,29,1
162K27S3,827,experiment,52,←,no_key,no_letter,-1.0,False,29,1
162K27S3,828,experiment,96,↑,up,↑,0.4710119999945164,True,29,1
162K27S3,829,experiment,104,↓,down,↓,0.5130809000693262,True,29,1
162K27S3,830,experiment,86,→,right,→,0.43145509995520115,True,29,1
162K27S3,831,experiment,81,→,right,→,0.48283390002325177,True,29,1
162K27S3,832,experiment,78,↑,up,↑,0.6051422003656626,True,29,1
162K27S3,833,experiment,102,←,left,←,0.3509089001454413,True,29,1
162K27S3,834,experiment,53,←,left,←,0.786337099969387,True,29,0
162K27S3,835,experiment,76,↓,down,↓,0.6174325998872519,True,29,1
162K27S3,836,experiment,54,←,left,←,0.6305967997759581,True,29,1
162K27S3,837,experiment,67,←,left,←,0.42302680015563965,True,29,1
162K27S3,838,experiment,95,→,right,→,0.5257978001609445,True,29,1
162K27S3,839,experiment,61,←,left,←,0.5080768000334501,True,29,1
162K27S3,840,experiment,74,↑,up,↑,0.5507986000739038,True,29,1
162K27S3,841,experiment,101,←,left,←,0.4788131997920573,True,29,1
162K27S3,842,experiment,48,↓,down,↓,0.6035131998360157,True,29,1
162K27S3,843,experiment,57,←,left,←,0.3839807999320328,True,29,1
162K27S3,844,experiment,50,↓,down,↓,0.6558211003430188,True,29,0
162K27S3,845,experiment,88,↑,up,↑,0.6879422999918461,True,29,1
162K27S3,846,experiment,85,↓,down,↓,0.5115058002993464,True,29,1
162K27S3,847,experiment,75,→,right,→,0.6739060003310442,True,29,1
162K27S3,848,experiment,65,←,right,→,0.7291422998532653,False,29,1
162K27S3,849,experiment,87,→,right,→,0.5664571998640895,True,29,1
162K27S3,850,experiment,68,↓,down,↓,0.7447661999613047,True,29,1
162K27S3,851,experiment,89,←,left,←,0.5491312998346984,True,29,1
162K27S3,852,experiment,55,↓,down,↓,0.6046392000280321,True,29,1
162K27S3,853,experiment,107,↑,down,↓,0.6883049998432398,False,29,1
162K27S3,854,experiment,80,←,left,←,0.6096709999255836,True,29,1
162K27S3,855,experiment,49,←,left,←,0.5047510000877082,True,29,1
162K27S3,856,experiment,73,↓,down,↓,0.6757858996279538,True,29,1
162K27S3,857,experiment,91,→,right,→,0.46621950017288327,True,29,1
162K27S3,858,experiment,72,→,right,→,0.7111679003573954,True,29,1
162K27S3,859,experiment,71,→,right,→,0.4990495997481048,True,29,1
162K27S3,860,training,58,→,right,→,0.625991000328213,True,28,0
162K27S3,861,training,92,←,left,←,0.38372449995949864,True,28,1
162K27S3,862,experiment,81,↑,up,↑,0.5670937998220325,True,28,0
162K27S3,863,experiment,86,→,left,←,0.40408070012927055,False,28,1
162K27S3,864,experiment,63,↓,down,↓,0.5020618997514248,True,28,0
162K27S3,865,experiment,70,←,left,←,0.4904228998348117,True,28,1
162K27S3,866,experiment,101,←,left,←,0.4847365999594331,True,28,1
162K27S3,867,experiment,56,←,right,→,0.49448779970407486,False,28,1
162K27S3,868,experiment,83,→,right,→,0.6390808997675776,True,28,1
162K27S3,869,experiment,99,→,right,→,0.48394740000367165,True,28,1
162K27S3,870,experiment,67,←,left,←,0.922029800247401,True,28,1
162K27S3,871,experiment,98,↑,up,↑,0.7160302000120282,True,28,1
162K27S3,872,experiment,95,←,left,←,0.6233284999616444,True,28,1
162K27S3,873,experiment,78,→,right,→,0.4520887997932732,True,28,1
162K27S3,874,experiment,80,↓,down,↓,0.48718310007825494,True,28,1
162K27S3,875,experiment,106,↑,down,↓,0.9283503000624478,False,28,1
162K27S3,876,experiment,64,↓,down,↓,0.5817738003097475,True,28,1
162K27S3,877,experiment,73,↑,up,↑,0.4062644997611642,True,28,1
162K27S3,878,experiment,91,→,right,→,0.6626343000680208,True,28,1
162K27S3,879,experiment,58,→,right,→,0.7367595001123846,True,28,1
162K27S3,880,experiment,59,←,left,←,0.6315929000265896,True,28,1
162K27S3,881,experiment,105,↓,down,↓,0.474847299978137,True,28,1
162K27S3,882,experiment,71,↑,up,↑,0.4085700996220112,True,28,1
162K27S3,883,experiment,85,↑,up,↑,0.5710312002338469,True,28,1
162K27S3,884,experiment,65,↑,up,↑,0.3760470999404788,True,28,1
162K27S3,885,experiment,55,↑,up,↑,0.3592775999568403,True,28,0
162K27S3,886,experiment,82,→,right,→,0.5782945002429187,True,28,0
162K27S3,887,experiment,79,↓,down,↓,0.5126713002100587,True,28,1
162K27S3,888,experiment,75,↓,down,↓,0.6910792998969555,True,28,1
162K27S3,889,experiment,97,←,left,←,0.38423920003697276,True,28,1
162K27S3,890,experiment,90,←,left,←,0.3674285002052784,True,28,0
162K27S3,891,experiment,92,→,right,→,0.8909505000337958,True,28,0
162K27S3,892,experiment,108,↑,up,↑,0.49100330006331205,True,28,1
162K27S3,893,experiment,66,←,left,←,0.48910490004345775,True,28,1
162K27S3,894,experiment,49,↑,up,↑,0.5807558000087738,True,28,1
162K27S3,895,experiment,96,←,left,←,0.46917610010132194,True,28,1
162K27S3,896,experiment,54,←,left,←,0.3757210997864604,True,28,1
162K27S3,897,experiment,76,→,right,→,0.5914410003460944,True,28,0
162K27S3,898,experiment,53,→,right,→,0.7338363998569548,True,28,1
162K27S3,899,experiment,93,↑,up,↑,0.6412247996777296,True,28,1
162K27S3,900,experiment,52,↓,down,↓,0.6138325002975762,True,28,1
162K27S3,901,experiment,84,→,left,←,0.504926800262183,False,28,1
162K27S3,902,experiment,69,←,left,←,0.709440799895674,True,28,1
162K27S3,903,experiment,107,→,right,→,0.637041799724102,True,28,1
162K27S3,904,experiment,50,↓,down,↓,0.49875300005078316,True,28,1
162K27S3,905,experiment,94,↓,down,↓,0.6712202001363039,True,28,1
162K27S3,906,experiment,68,←,no_key,no_letter,-1.0,False,28,1
162K27S3,907,experiment,87,←,left,←,0.42004079977050424,True,28,1
162K27S3,908,experiment,51,↑,down,↓,0.889532099943608,False,28,1
162K27S3,909,experiment,102,→,right,→,0.6436071996577084,True,28,1
162K27S3,910,experiment,89,↑,down,↓,0.6919603999704123,False,28,1
162K27S3,911,experiment,77,←,left,←,0.4224530002102256,True,28,1
162K27S3,912,experiment,72,↑,up,↑,0.7250397000461817,True,28,1
162K27S3,913,experiment,57,←,left,←,0.36740650003775954,True,28,1
162K27S3,914,experiment,60,↓,down,↓,0.6575783002190292,True,28,0
162K27S3,915,experiment,74,→,right,→,0.5662647001445293,True,28,1
162K27S3,916,experiment,48,←,left,←,0.41751049971207976,True,28,1
162K27S3,917,experiment,103,→,right,→,0.5005822996608913,True,28,1
162K27S3,918,experiment,88,←,left,←,0.49047260032966733,True,28,1
162K27S3,919,experiment,62,→,right,→,0.4820408998057246,True,28,1
162K27S3,920,experiment,104,→,left,←,0.4757018000818789,False,28,1
162K27S3,921,experiment,61,→,right,→,0.46809850027784705,True,28,1
162K27S3,922,experiment,100,→,right,→,0.4397681998088956,True,28,1
162K27S3,923,training,101,↓,down,↓,0.783514800015837,True,28,0
162K27S3,924,training,77,←,left,←,0.3589834002777934,True,28,1
162K27S3,925,experiment,82,→,no_key,no_letter,-1.0,False,28,0
162K27S3,926,experiment,58,→,left,←,0.3420239998959005,False,28,1
162K27S3,927,experiment,54,→,right,→,0.4840453998185694,True,28,0
162K27S3,928,experiment,98,↓,down,↓,0.44770590029656887,True,28,1
162K27S3,929,experiment,97,↑,up,↑,0.42120479978621006,True,28,1
162K27S3,930,experiment,68,↓,down,↓,0.47718479996547103,True,28,1
162K27S3,931,experiment,95,↓,down,↓,0.4581604995764792,True,28,1
162K27S3,932,experiment,51,→,right,→,0.49472290044650435,True,28,1
162K27S3,933,experiment,72,→,right,→,0.4987416001968086,True,28,1
162K27S3,934,experiment,64,←,left,←,0.3840315002016723,True,28,1
162K27S3,935,experiment,75,↑,up,↑,0.5522949998266995,True,28,0
162K27S3,936,experiment,85,↑,up,↑,0.709648999851197,True,28,1
162K27S3,937,experiment,49,↑,up,↑,0.36741810012608767,True,28,1
162K27S3,938,experiment,88,↑,up,↑,0.4203900001011789,True,28,0
162K27S3,939,experiment,62,←,left,←,0.7982981996610761,True,28,1
162K27S3,940,experiment,66,↓,down,↓,0.4559390000067651,True,28,1
162K27S3,941,experiment,92,→,right,→,0.4467612998560071,True,28,1
162K27S3,942,experiment,87,↑,up,↑,0.6154904998838902,True,28,1
162K27S3,943,experiment,89,←,left,←,0.4014750998467207,True,28,1
162K27S3,944,experiment,78,↓,down,↓,0.7263004998676479,True,28,0
162K27S3,945,experiment,104,↓,down,↓,0.462273099925369,True,28,1
162K27S3,946,experiment,86,→,right,→,0.6708875000476837,True,28,1
162K27S3,947,experiment,57,←,left,←,0.38408829970285296,True,28,1
162K27S3,948,experiment,56,←,right,→,0.5181557000614703,False,28,0
162K27S3,949,experiment,100,↑,up,↑,0.44793180003762245,True,28,1
162K27S3,950,experiment,106,↓,down,↓,0.6342454999685287,True,28,1
162K27S3,951,experiment,77,←,right,→,0.655251800082624,False,28,1
162K27S3,952,experiment,50,←,no_key,no_letter,-1.0,False,28,1
162K27S3,953,experiment,90,↓,down,↓,0.4412059998139739,True,28,1
162K27S3,954,experiment,80,←,left,←,0.5567959998734295,True,28,1
162K27S3,955,experiment,65,↑,down,↓,0.6002972000278533,False,28,1
162K27S3,956,experiment,71,↓,down,↓,0.4404945997521281,True,28,1
162K27S3,957,experiment,81,↓,down,↓,0.41968930000439286,True,28,1
162K27S3,958,experiment,74,↓,down,↓,0.4260860998183489,True,28,1
162K27S3,959,experiment,83,↑,up,↑,0.46914680022746325,True,28,1
162K27S3,960,experiment,61,→,right,→,0.661853099707514,True,28,1
162K27S3,961,experiment,73,→,right,→,0.5548495003022254,True,28,1
162K27S3,962,experiment,79,←,left,←,0.5139792002737522,True,28,1
162K27S3,963,experiment,55,↑,down,↓,0.5947372997179627,False,28,1
162K27S3,964,experiment,107,↑,up,↑,0.5910824998281896,True,28,1
162K27S3,965,experiment,94,→,right,→,0.48777779983356595,True,28,1
162K27S3,966,experiment,63,→,right,→,0.5111809996888041,True,28,1
162K27S3,967,experiment,105,↓,down,↓,0.7836587000638247,True,28,1
162K27S3,968,experiment,103,←,left,←,0.37550320010632277,True,28,1
162K27S3,969,experiment,91,↓,down,↓,0.46366319991648197,True,28,0
162K27S3,970,experiment,52,→,right,→,0.5314524001441896,True,28,1
162K27S3,971,experiment,70,←,left,←,0.558457899838686,True,28,1
162K27S3,972,experiment,108,↓,down,↓,0.5717839002609253,True,28,1
162K27S3,973,experiment,48,→,right,→,0.6607423997484148,True,28,1
162K27S3,974,experiment,93,→,left,←,0.4989539999514818,False,28,1
162K27S3,975,experiment,60,→,left,←,0.5467302999459207,False,28,1
162K27S3,976,experiment,96,↓,down,↓,0.4685261999256909,True,28,1
162K27S3,977,experiment,101,←,left,←,0.4958452000282705,True,28,1
162K27S3,978,experiment,69,←,left,←,0.8370877001434565,True,28,1
162K27S3,979,experiment,102,←,left,←,0.561303099617362,True,28,1
162K27S3,980,experiment,99,←,left,←,0.5217025000602007,True,28,1
162K27S3,981,experiment,59,→,right,→,0.5927168000489473,True,28,1
162K27S3,982,experiment,53,↑,up,↑,0.6472221002914011,True,28,1
162K27S3,983,experiment,67,↑,up,↑,0.6705827000550926,True,28,1
162K27S3,984,experiment,84,←,left,←,0.5275818998925388,True,28,1
162K27S3,985,experiment,76,→,left,←,0.5290192998945713,False,28,1
162K27S3,986,training,74,↓,down,↓,0.5230157002806664,True,28,0
162K27S3,987,training,105,↑,up,↑,0.44231840036809444,True,28,1
162K27S3,988,experiment,58,↓,down,↓,0.709020100068301,True,28,1
162K27S3,989,experiment,71,↓,down,↓,0.544732500333339,True,28,1
162K27S3,990,experiment,64,↓,down,↓,0.6136408001184464,True,28,1
162K27S3,991,experiment,108,↓,down,↓,0.48862099973484874,True,28,1
162K27S3,992,experiment,106,↑,up,↑,0.4413073998875916,True,28,1
162K27S3,993,experiment,103,↑,up,↑,0.4449280998669565,True,28,1
162K27S3,994,experiment,87,↑,up,↑,0.37568849977105856,True,28,1
162K27S3,995,experiment,86,↑,up,↑,0.6897658999077976,True,28,0
162K27S3,996,experiment,59,→,right,→,0.4902800000272691,True,28,1
162K27S3,997,experiment,92,↓,down,↓,0.6236059996299446,True,28,1
162K27S3,998,experiment,78,↓,down,↓,0.628203900065273,True,28,1
162K27S3,999,experiment,73,↑,down,↓,0.6109958998858929,False,28,1
162K27S3,1000,experiment,57,↑,up,↑,0.384217600338161,True,28,1
162K27S3,1001,experiment,107,←,left,←,0.42746679997071624,True,28,0
162K27S3,1002,experiment,53,↑,up,↑,0.5685810996219516,True,28,1
162K27S3,1003,experiment,70,→,right,→,0.6662111999467015,True,28,1
162K27S3,1004,experiment,91,→,right,→,0.48899840004742146,True,28,1
162K27S3,1005,experiment,48,←,left,←,0.6611727001145482,True,28,1
162K27S3,1006,experiment,83,←,left,←,0.4231115998700261,True,28,1
162K27S3,1007,experiment,49,←,left,←,0.42140260012820363,True,28,1
162K27S3,1008,experiment,52,→,right,→,0.5707899001426995,True,28,1
162K27S3,1009,experiment,63,↓,down,↓,0.5104528996162117,True,28,1
162K27S3,1010,experiment,102,→,left,←,0.8563063000328839,False,28,1
162K27S3,1011,experiment,82,↑,up,↑,0.42592709977179766,True,28,1
162K27S3,1012,experiment,80,→,right,→,0.4859747998416424,True,28,1
162K27S3,1013,experiment,60,↑,up,↑,0.43046729965135455,True,28,1
162K27S3,1014,experiment,74,←,right,→,0.6361789996735752,False,28,1
162K27S3,1015,experiment,96,←,left,←,0.6184785002842546,True,28,1
162K27S3,1016,experiment,65,→,right,→,0.4439503001049161,True,28,1
162K27S3,1017,experiment,89,↑,up,↑,0.684349499642849,True,28,1
162K27S3,1018,experiment,90,→,right,→,0.4987030001357198,True,28,1
162K27S3,1019,experiment,51,→,right,→,0.6454521999694407,True,28,1
162K27S3,1020,experiment,68,↑,up,↑,0.6608066000044346,True,28,1
162K27S3,1021,experiment,85,→,right,→,0.6458624000661075,True,28,1
162K27S3,1022,experiment,62,↓,up,↑,0.6230106996372342,False,28,1
162K27S3,1023,experiment,77,→,left,←,0.6520054996944964,False,28,1
162K27S3,1024,experiment,100,←,left,←,0.4324217000976205,True,28,1
162K27S3,1025,experiment,69,→,left,←,0.5598790002986789,False,28,1
162K27S3,1026,experiment,66,→,left,←,0.5872092000208795,False,28,1
162K27S3,1027,experiment,76,→,right,→,0.6184852002188563,True,28,1
162K27S3,1028,experiment,55,→,right,→,0.46313299983739853,True,28,1
162K27S3,1029,experiment,84,→,right,→,0.6324614998884499,True,28,1
162K27S3,1030,experiment,79,↑,up,↑,0.5084897000342607,True,28,1
162K27S3,1031,experiment,54,→,left,←,0.8141890000551939,False,28,1
162K27S3,1032,experiment,50,↑,up,↑,0.6363388998433948,True,28,1
162K27S3,1033,experiment,99,→,right,→,0.5617089001461864,True,28,1
162K27S3,1034,experiment,101,←,left,←,0.4334149998612702,True,28,1
162K27S3,1035,experiment,98,↑,up,↑,0.5751085001975298,True,28,1
162K27S3,1036,experiment,67,↑,up,↑,0.46555430022999644,True,28,1
162K27S3,1037,experiment,94,→,right,→,0.4312974000349641,True,28,1
162K27S3,1038,experiment,93,↓,down,↓,0.7106821998022497,True,28,1
162K27S3,1039,experiment,105,↑,up,↑,0.4469746998511255,True,28,1
162K27S3,1040,experiment,75,→,right,→,0.5398447001352906,True,28,1
162K27S3,1041,experiment,72,←,no_key,no_letter,-1.0,False,28,1
162K27S3,1042,experiment,56,↑,up,↑,0.5910104997456074,True,28,1
162K27S3,1043,experiment,97,→,left,←,0.5184609000571072,False,28,1
162K27S3,1044,experiment,95,↑,up,↑,0.5858088000677526,True,28,1
162K27S3,1045,experiment,61,←,left,←,0.44584699999541044,True,28,1
162K27S3,1046,experiment,81,→,right,→,0.6247654999606311,True,28,1
162K27S3,1047,experiment,88,↓,down,↓,0.4499353002756834,True,28,1
162K27S3,1048,experiment,104,↑,up,↑,0.4930181000381708,True,28,1
162K27S3,1049,training,61,→,right,→,0.5165679999627173,True,28,0
162K27S3,1050,training,102,→,right,→,0.5576581000350416,True,28,1
162K27S3,1051,experiment,61,→,right,→,0.45060240011662245,True,28,1
162K27S3,1052,experiment,48,→,right,→,0.4009857000783086,True,28,1
162K27S3,1053,experiment,64,↑,up,↑,0.5465889996849,True,28,0
162K27S3,1054,experiment,87,→,right,→,0.5112000000663102,True,28,1
162K27S3,1055,experiment,52,←,left,←,0.4099516998976469,True,28,1
162K27S3,1056,experiment,53,↑,up,↑,0.43092670012265444,True,28,1
162K27S3,1057,experiment,82,↓,down,↓,0.5860486999154091,True,28,1
162K27S3,1058,experiment,86,→,left,←,0.7735270000994205,False,28,1
162K27S3,1059,experiment,100,←,left,←,0.43690039962530136,True,28,1
162K27S3,1060,experiment,108,↑,up,↑,0.47931080032140017,True,28,1
162K27S3,1061,experiment,102,←,left,←,0.3424380999058485,True,28,1
162K27S3,1062,experiment,98,←,right,→,0.5788225997239351,False,28,0
162K27S3,1063,experiment,63,↓,down,↓,0.6945031001232564,True,28,1
162K27S3,1064,experiment,103,↓,down,↓,0.6321777999401093,True,28,1
162K27S3,1065,experiment,96,→,right,→,0.6390089001506567,True,28,1
162K27S3,1066,experiment,68,↑,up,↑,0.6782015999779105,True,28,1
162K27S3,1067,experiment,93,→,right,→,0.41192749980837107,True,28,1
162K27S3,1068,experiment,65,↓,down,↓,0.7100313999690115,True,28,1
162K27S3,1069,experiment,95,↓,down,↓,0.5053713996894658,True,28,1
162K27S3,1070,experiment,84,←,left,←,0.4012021003291011,True,28,1
162K27S3,1071,experiment,60,→,right,→,0.5881073996424675,True,28,0
162K27S3,1072,experiment,49,↑,down,↓,0.7877941001206636,False,28,1
162K27S3,1073,experiment,78,↑,down,↓,0.7060771002434194,False,28,1
162K27S3,1074,experiment,74,↑,down,↓,0.6208465998061001,False,28,1
162K27S3,1075,experiment,73,→,right,→,0.7632547998800874,True,28,1
162K27S3,1076,experiment,81,↓,down,↓,0.665309099946171,True,28,1
162K27S3,1077,experiment,75,↑,down,↓,0.6053281999193132,False,28,1
162K27S3,1078,experiment,72,→,down,↓,0.6046677003614604,False,28,1
162K27S3,1079,experiment,59,↑,up,↑,0.49645010009407997,True,28,1
162K27S3,1080,experiment,107,←,no_key,no_letter,-1.0,False,28,1
162K27S3,1081,experiment,69,↑,up,↑,0.4215286001563072,True,28,1
162K27S3,1082,experiment,85,↓,down,↓,0.5515220002271235,True,28,1
162K27S3,1083,experiment,83,←,left,←,0.4294620999135077,True,28,1
162K27S3,1084,experiment,57,→,right,→,0.42503099981695414,True,28,1
162K27S3,1085,experiment,79,→,left,←,0.5733496998436749,False,28,1
162K27S3,1086,experiment,58,↑,up,↑,0.4667475000023842,True,28,1
162K27S3,1087,experiment,56,↑,right,→,0.4530968996696174,False,28,1
162K27S3,1088,experiment,50,→,left,←,0.5623392001725733,False,28,1
162K27S3,1089,experiment,89,→,right,→,0.6143328999169171,True,28,1
162K27S3,1090,experiment,51,→,right,→,0.460130600258708,True,28,1
162K27S3,1091,experiment,62,←,left,←,0.4289449001662433,True,28,1
162K27S3,1092,experiment,54,→,right,→,0.5533226998522878,True,28,1
162K27S3,1093,experiment,76,→,right,→,0.4897492998279631,True,28,1
162K27S3,1094,experiment,104,↑,up,↑,0.739126100204885,True,28,1
162K27S3,1095,experiment,71,↑,up,↑,0.44539770018309355,True,28,1
162K27S3,1096,experiment,97,↑,up,↑,0.42725299997255206,True,28,1
162K27S3,1097,experiment,66,↓,down,↓,0.93999890005216,True,28,1
162K27S3,1098,experiment,92,↑,down,↓,0.5512784002348781,False,28,1
162K27S3,1099,experiment,77,↓,down,↓,0.5594812999479473,True,28,1
162K27S3,1100,experiment,101,↑,up,↑,0.7512127999216318,True,28,1
162K27S3,1101,experiment,90,←,left,←,0.6187673998065293,True,28,1
162K27S3,1102,experiment,55,↓,down,↓,0.559532199986279,True,28,1
162K27S3,1103,experiment,67,→,left,←,0.46662670001387596,False,28,1
162K27S3,1104,experiment,105,←,left,←,0.38401350006461143,True,28,1
162K27S3,1105,experiment,91,↓,down,↓,0.43046069983392954,True,28,0
162K27S3,1106,experiment,70,←,left,←,0.7894862997345626,True,28,1
162K27S3,1107,experiment,88,→,right,→,0.43206189991906285,True,28,1
162K27S3,1108,experiment,99,→,right,→,0.5496057998389006,True,28,1
162K27S3,1109,experiment,94,→,right,→,0.47998359985649586,True,28,1
162K27S3,1110,experiment,106,←,left,←,0.5609305002726614,True,28,1
162K27S3,1111,experiment,80,↓,down,↓,0.42377680027857423,True,28,1
162K27S3,1112,training,77,→,left,←,0.5613417997956276,False,28,0
162K27S3,1113,training,104,↓,down,↓,0.6800182000733912,True,28,1
162K27S3,1114,experiment,75,→,right,→,0.6513932002708316,True,28,1
162K27S3,1115,experiment,64,←,left,←,0.43590250005945563,True,28,1
162K27S3,1116,experiment,107,→,left,←,0.4544587996788323,False,28,1
162K27S3,1117,experiment,83,←,no_key,no_letter,-1.0,False,28,1
162K27S3,1118,experiment,66,↓,down,↓,0.6459035002626479,True,28,1
162K27S3,1119,experiment,92,←,left,←,0.5492418999783695,True,28,1
162K27S3,1120,experiment,70,↑,up,↑,0.5595307000912726,True,28,1
162K27S3,1121,experiment,103,←,left,←,0.34241760009899735,True,28,1
162K27S3,1122,experiment,84,←,left,←,0.35071769962087274,True,28,0
162K27S3,1123,experiment,93,←,left,←,0.590788799803704,True,28,0
162K27S3,1124,experiment,69,↑,up,↑,0.5278346003033221,True,28,1
162K27S3,1125,experiment,50,↑,up,↑,0.5299308001995087,True,28,1
162K27S3,1126,experiment,89,↑,up,↑,0.5349286999553442,True,28,1
162K27S3,1127,experiment,86,→,right,→,0.40532019967213273,True,28,1
162K27S3,1128,experiment,53,↓,down,↓,0.47459140000864863,True,28,1
162K27S3,1129,experiment,49,↑,up,↑,0.4390060002915561,True,28,1
162K27S3,1130,experiment,76,↑,left,←,0.5316818999126554,False,28,1
162K27S3,1131,experiment,65,→,right,→,0.6244260002858937,True,28,1
162K27S3,1132,experiment,104,←,left,←,0.596374399960041,True,28,1
162K27S3,1133,experiment,90,↑,up,↑,0.3351610996760428,True,28,1
162K27S3,1134,experiment,85,→,right,→,0.4756291997618973,True,28,0
162K27S3,1135,experiment,58,←,left,←,0.3662052000872791,True,28,1
162K27S3,1136,experiment,97,→,right,→,0.4694793997332454,True,28,0
162K27S3,1137,experiment,94,←,left,←,0.35907689994201064,True,28,1
162K27S3,1138,experiment,77,↑,up,↑,0.6185969999060035,True,28,0
162K27S3,1139,experiment,51,←,right,→,0.633515499997884,False,28,1
162K27S3,1140,experiment,48,→,right,→,0.5111735998652875,True,28,1
162K27S3,1141,experiment,91,↓,down,↓,0.6528357998467982,True,28,1
162K27S3,1142,experiment,98,←,left,←,0.5611902000382543,True,28,1
162K27S3,1143,experiment,81,↓,down,↓,0.44759440002962947,True,28,1
162K27S3,1144,experiment,52,↓,down,↓,0.5880467998795211,True,28,1
162K27S3,1145,experiment,88,↑,up,↑,0.4229742996394634,True,28,1
162K27S3,1146,experiment,73,←,no_key,no_letter,-1.0,False,28,1
162K27S3,1147,experiment,99,↑,up,↑,0.43172019999474287,True,28,1
162K27S3,1148,experiment,63,↑,up,↑,0.42525350023061037,True,28,1
162K27S3,1149,experiment,101,→,right,→,0.5103352996520698,True,28,1
162K27S3,1150,experiment,100,↓,down,↓,0.7202206999063492,True,28,1
162K27S3,1151,experiment,68,↓,down,↓,0.5246846997179091,True,28,1
162K27S3,1152,experiment,74,↑,down,↓,0.5586700001731515,False,28,1
162K27S3,1153,experiment,102,→,right,→,0.7184399999678135,True,28,1
162K27S3,1154,experiment,55,→,right,→,0.5107695003971457,True,28,1
162K27S3,1155,experiment,87,→,right,→,0.5971365999430418,True,28,1
162K27S3,1156,experiment,57,↑,no_key,no_letter,-1.0,False,28,1
162K27S3,1157,experiment,80,↑,up,↑,0.4668928999453783,True,28,1
162K27S3,1158,experiment,72,→,right,→,0.5678522000089288,True,28,1
162K27S3,1159,experiment,82,↑,up,↑,0.4856762997806072,True,28,1
162K27S3,1160,experiment,59,→,left,←,0.7023370997048914,False,28,1
162K27S3,1161,experiment,78,←,right,→,0.5121049000881612,False,28,1
162K27S3,1162,experiment,106,↓,down,↓,0.5601137997582555,True,28,1
162K27S3,1163,experiment,60,↑,up,↑,0.4142216998152435,True,28,1
162K27S3,1164,experiment,54,←,left,←,0.375715599860996,True,28,1
162K27S3,1165,experiment,79,←,left,←,0.536716100294143,True,28,0
162K27S3,1166,experiment,96,↑,up,↑,0.6752500999718904,True,28,1
162K27S3,1167,experiment,67,→,right,→,0.4655630998313427,True,28,1
162K27S3,1168,experiment,71,←,left,←,0.8309288001619279,True,28,1
162K27S3,1169,experiment,95,↓,down,↓,0.47783550014719367,True,28,1
162K27S3,1170,experiment,108,↑,up,↑,0.8622762002050877,True,28,1
162K27S3,1171,experiment,61,←,left,←,0.679307899903506,True,28,1
162K27S3,1172,experiment,62,→,right,→,0.6790436999872327,True,28,1
162K27S3,1173,experiment,56,→,right,→,0.5131358001381159,True,28,1
162K27S3,1174,experiment,105,↓,down,↓,0.6492114998400211,True,28,1
162K27S3,1175,training,102,→,right,→,0.4436007998883724,True,28,0
162K27S3,1176,training,80,→,right,→,0.6709726001136005,True,28,1
162K27S3,1177,experiment,74,↑,up,↑,0.6191777000203729,True,28,1
162K27S3,1178,experiment,96,↓,down,↓,0.4579981998540461,True,28,1
162K27S3,1179,experiment,95,↓,down,↓,0.5757757998071611,True,28,1
162K27S3,1180,experiment,85,←,left,←,0.588151200208813,True,28,1
162K27S3,1181,experiment,67,→,left,←,0.7098787999711931,False,28,1
162K27S3,1182,experiment,75,←,left,←,0.3591251000761986,True,28,1
162K27S3,1183,experiment,61,↑,down,↓,0.6610865001566708,False,28,0
162K27S3,1184,experiment,81,→,right,→,0.48745599994435906,True,28,1
162K27S3,1185,experiment,82,↓,down,↓,0.6561043998226523,True,28,1
162K27S3,1186,experiment,48,→,right,→,0.7015106999315321,True,28,1
162K27S3,1187,experiment,57,→,right,→,0.5342878997325897,True,28,1
162K27S3,1188,experiment,94,←,left,←,0.4974116999655962,True,28,1
162K27S3,1189,experiment,103,↓,down,↓,0.6347450003959239,True,28,1
162K27S3,1190,experiment,90,←,left,←,0.3840385000221431,True,28,1
162K27S3,1191,experiment,60,→,right,→,0.43922890024259686,True,28,0
162K27S3,1192,experiment,72,↑,up,↑,0.5013548000715673,True,28,1
162K27S3,1193,experiment,97,↓,left,←,0.6886776001192629,False,28,1
162K27S3,1194,experiment,54,↓,up,↑,0.6507550003007054,False,28,1
162K27S3,1195,experiment,101,↓,down,↓,0.42315790010616183,True,28,1
162K27S3,1196,experiment,106,↓,down,↓,0.7702269000001252,True,28,1
162K27S3,1197,experiment,68,↑,down,↓,0.556526199914515,False,28,1
162K27S3,1198,experiment,66,←,left,←,0.6079641003161669,True,28,1
162K27S3,1199,experiment,58,←,left,←,0.4760321998037398,True,28,1
162K27S3,1200,experiment,87,↓,down,↓,0.5317633002996445,True,28,1
162K27S3,1201,experiment,88,←,left,←,0.44087349995970726,True,28,1
162K27S3,1202,experiment,49,←,left,←,0.3841969002969563,True,28,1
162K27S3,1203,experiment,98,↑,up,↑,0.5499964999035001,True,28,0
162K27S3,1204,experiment,84,↓,down,↓,0.7077171998098493,True,28,1
162K27S3,1205,experiment,59,→,right,→,0.44352349964901805,True,28,1
162K27S3,1206,experiment,89,↓,down,↓,0.4678609003312886,True,28,1
162K27S3,1207,experiment,56,←,left,←,0.5023559997789562,True,28,1
162K27S3,1208,experiment,79,←,left,←,0.4717769999988377,True,28,1
162K27S3,1209,experiment,71,→,left,←,0.4528883001767099,False,28,1
162K27S3,1210,experiment,102,↓,down,↓,0.7605244000442326,True,28,1
162K27S3,1211,experiment,52,↑,up,↑,0.4326471001841128,True,28,1
162K27S3,1212,experiment,77,↓,down,↓,0.6615720996633172,True,28,1
162K27S3,1213,experiment,105,↑,left,←,0.34249560022726655,False,28,1
162K27S3,1214,experiment,70,↑,up,↑,0.3840398997999728,True,28,0
162K27S3,1215,experiment,69,←,left,←,0.3757476997561753,True,28,0
162K27S3,1216,experiment,50,↑,up,↑,0.586992199998349,True,28,0
162K27S3,1217,experiment,55,→,right,→,0.5298441997729242,True,28,1
162K27S3,1218,experiment,93,←,left,←,0.40520820021629333,True,28,1
162K27S3,1219,experiment,99,↑,left,←,0.9550875998102129,False,28,0
162K27S3,1220,experiment,62,↑,down,↓,0.8079137001186609,False,28,1
162K27S3,1221,experiment,80,↑,up,↑,0.6765896999277174,True,28,1
162K27S3,1222,experiment,86,←,left,←,0.46065140003338456,True,28,1
162K27S3,1223,experiment,64,↑,up,↑,0.492803200148046,True,28,1
162K27S3,1224,experiment,108,→,right,→,0.5008196998387575,True,28,1
162K27S3,1225,experiment,107,↑,down,↓,1.3488417998887599,False,28,1
162K27S3,1226,experiment,53,←,left,←,0.6928469999693334,True,28,1
162K27S3,1227,experiment,91,↓,down,↓,0.4266722002066672,True,28,1
162K27S3,1228,experiment,104,↓,down,↓,0.4465004000812769,True,28,1
162K27S3,1229,experiment,65,→,right,→,0.454670500010252,True,28,1
162K27S3,1230,experiment,63,←,left,←,0.503094700165093,True,28,1
162K27S3,1231,experiment,51,←,right,→,0.6819215998984873,False,28,1
162K27S3,1232,experiment,73,↑,down,↓,1.5979330004192889,False,28,1
162K27S3,1233,experiment,78,→,right,→,0.4755568001419306,True,28,1
162K27S3,1234,experiment,83,↑,up,↑,0.4207560997456312,True,28,1
162K27S3,1235,experiment,100,→,right,→,0.5382396001368761,True,28,1
162K27S3,1236,experiment,92,←,right,→,0.9652972002513707,False,28,1
162K27S3,1237,experiment,76,↑,up,↑,0.43702139984816313,True,28,1
162K27S3,1238,training,87,→,right,→,0.7317737997509539,True,28,0
162K27S3,1239,training,106,↑,up,↑,0.5466247000731528,True,28,1
162K27S3,1240,experiment,61,↓,down,↓,0.5443326001986861,True,28,1
162K27S3,1241,experiment,65,→,left,←,0.4686052999459207,False,28,1
162K27S3,1242,experiment,78,→,right,→,0.5515394997783005,True,28,1
162K27S3,1243,experiment,73,←,left,←,0.3674792000092566,True,28,1
162K27S3,1244,experiment,71,→,right,→,0.4742807000875473,True,28,0
162K27S3,1245,experiment,89,↓,down,↓,0.6091372002847493,True,28,1
162K27S3,1246,experiment,69,↑,down,↓,0.529500899836421,False,28,1
162K27S3,1247,experiment,81,↑,down,↓,0.7053595003671944,False,28,1
162K27S3,1248,experiment,68,→,right,→,0.4622054002247751,True,28,1
162K27S3,1249,experiment,86,←,left,←,0.6068329997360706,True,28,1
162K27S3,1250,experiment,83,↓,down,↓,0.5784579999744892,True,28,1
162K27S3,1251,experiment,70,↑,up,↑,0.3840764998458326,True,28,1
162K27S3,1252,experiment,52,↓,down,↓,0.7708020000718534,True,28,0
162K27S3,1253,experiment,84,←,left,←,0.5433287997730076,True,28,1
162K27S3,1254,experiment,103,↑,up,↑,0.5350387999787927,True,28,1
162K27S3,1255,experiment,56,↓,down,↓,0.5108178998343647,True,28,1
162K27S3,1256,experiment,102,↑,down,↓,0.6964541999623179,False,28,1
162K27S3,1257,experiment,54,→,right,→,0.4182313000783324,True,28,1
162K27S3,1258,experiment,85,↑,up,↑,0.46833299985155463,True,28,1
162K27S3,1259,experiment,97,↑,up,↑,0.40170529996976256,True,28,1
162K27S3,1260,experiment,92,↓,down,↓,0.45776599971577525,True,28,0
162K27S3,1261,experiment,101,→,right,→,0.8134838002733886,True,28,1
162K27S3,1262,experiment,67,↓,down,↓,0.4622327000834048,True,28,1
162K27S3,1263,experiment,96,→,right,→,0.48388269962742925,True,28,1
162K27S3,1264,experiment,93,↓,down,↓,0.585052200127393,True,28,1
162K27S3,1265,experiment,82,←,left,←,0.5660519003868103,True,28,1
162K27S3,1266,experiment,62,→,right,→,0.6347083002328873,True,28,1
162K27S3,1267,experiment,58,↓,down,↓,0.44560510013252497,True,28,1
162K27S3,1268,experiment,79,←,left,←,0.40158600034192204,True,28,1
162K27S3,1269,experiment,49,↑,up,↑,0.4722247999161482,True,28,0
162K27S3,1270,experiment,59,↓,down,↓,0.5211692000739276,True,28,1
162K27S3,1271,experiment,100,↓,down,↓,0.41911020036786795,True,28,1
162K27S3,1272,experiment,87,←,no_key,no_letter,-1.0,False,28,1
162K27S3,1273,experiment,108,→,right,→,0.5082032000645995,True,28,1
162K27S3,1274,experiment,75,↑,down,↓,0.7906924998387694,False,28,1
162K27S3,1275,experiment,77,↑,up,↑,0.4134720000438392,True,28,1
162K27S3,1276,experiment,66,←,left,←,0.6380360000766814,True,28,1
162K27S3,1277,experiment,95,↑,up,↑,0.452371200080961,True,28,1
162K27S3,1278,experiment,98,→,right,→,0.44935679994523525,True,28,1
162K27S3,1279,experiment,107,→,right,→,0.5315244998782873,True,28,1
162K27S3,1280,experiment,88,←,left,←,0.40907170018181205,True,28,1
162K27S3,1281,experiment,90,↑,up,↑,0.43369750026613474,True,28,1
162K27S3,1282,experiment,104,↑,up,↑,0.41394539969041944,True,28,1
162K27S3,1283,experiment,72,←,left,←,0.41294809989631176,True,28,1
162K27S3,1284,experiment,76,→,right,→,0.4664373998530209,True,28,1
162K27S3,1285,experiment,106,←,left,←,0.5559884002432227,True,28,1
162K27S3,1286,experiment,99,↓,down,↓,0.42824399983510375,True,28,1
162K27S3,1287,experiment,57,←,left,←,0.5277272001840174,True,28,1
162K27S3,1288,experiment,48,↓,down,↓,0.4666343997232616,True,28,1
162K27S3,1289,experiment,53,↑,up,↑,0.4538909997791052,True,28,1
162K27S3,1290,experiment,105,↓,down,↓,0.47259690007194877,True,28,1
162K27S3,1291,experiment,50,←,left,←,0.4053246998228133,True,28,1
162K27S3,1292,experiment,74,←,left,←,0.4197487002238631,True,28,0
162K27S3,1293,experiment,55,↓,down,↓,0.7759032999165356,True,28,1
162K27S3,1294,experiment,80,←,left,←,0.4459180999547243,True,28,1
162K27S3,1295,experiment,94,→,right,→,0.4443121999502182,True,28,1
162K27S3,1296,experiment,63,→,right,→,0.437502000015229,True,28,1
162K27S3,1297,experiment,91,↓,down,↓,0.4612997001968324,True,28,1
162K27S3,1298,experiment,64,→,left,←,0.5013573002070189,False,28,1
162K27S3,1299,experiment,51,←,left,←,0.3756301999092102,True,28,1
162K27S3,1300,experiment,60,↓,down,↓,0.49250010028481483,True,28,0
162K27S3,1301,training,71,↑,up,↑,0.42227339977398515,True,28,0
162K27S3,1302,training,101,←,no_key,no_letter,-1.0,False,28,1
162K27S3,1303,experiment,106,↑,up,↑,0.5474093002267182,True,28,1
162K27S3,1304,experiment,95,↑,up,↑,0.4292355999350548,True,28,1
162K27S3,1305,experiment,50,↓,left,←,0.5548749002628028,False,28,1
162K27S3,1306,experiment,88,←,left,←,0.3757839002646506,True,28,1
162K27S3,1307,experiment,85,↓,down,↓,0.9310663002543151,True,28,0
162K27S3,1308,experiment,51,→,right,→,0.5166370999068022,True,28,1
162K27S3,1309,experiment,77,→,right,→,0.5417977999895811,True,28,1
162K27S3,1310,experiment,83,↑,up,↑,0.342070400249213,True,28,1
162K27S3,1311,experiment,48,←,right,→,0.5819934997707605,False,28,0
162K27S3,1312,experiment,68,↓,down,↓,0.6797213000245392,True,28,1
162K27S3,1313,experiment,67,→,right,→,0.7097869999706745,True,28,1
162K27S3,1314,experiment,49,←,left,←,0.6409473996609449,True,28,1
162K27S3,1315,experiment,76,→,right,→,0.6456110998988152,True,28,1
162K27S3,1316,experiment,59,←,left,←,0.552010300103575,True,28,1
162K27S3,1317,experiment,98,→,right,→,0.5211155000142753,True,28,1
162K27S3,1318,experiment,75,←,left,←,0.4192273002117872,True,28,1
162K27S3,1319,experiment,96,↑,up,↑,0.6014689998701215,True,28,1
162K27S3,1320,experiment,94,→,right,→,0.41801470005884767,True,28,1
162K27S3,1321,experiment,81,←,left,←,0.5100793000310659,True,28,1
162K27S3,1322,experiment,62,→,right,→,0.5487917000427842,True,28,1
162K27S3,1323,experiment,89,←,left,←,0.35048240004107356,True,28,1
162K27S3,1324,experiment,74,→,right,→,0.4100305000320077,True,28,0
162K27S3,1325,experiment,80,←,left,←,0.5819911998696625,True,28,1
162K27S3,1326,experiment,70,↓,down,↓,0.3758443002589047,True,28,1
162K27S3,1327,experiment,52,←,left,←,0.6781414998695254,True,28,0
162K27S3,1328,experiment,64,←,left,←,0.4857375002466142,True,28,1
162K27S3,1329,experiment,71,←,right,→,0.506345999892801,False,28,1
162K27S3,1330,experiment,92,↓,left,←,0.342463499866426,False,28,1
162K27S3,1331,experiment,79,→,right,→,0.6864431998692453,True,28,0
162K27S3,1332,experiment,65,→,right,→,0.6212496999651194,True,28,1
162K27S3,1333,experiment,102,→,left,←,0.7782618999481201,False,28,1
162K27S3,1334,experiment,69,↑,down,↓,0.6442061997950077,False,28,1
162K27S3,1335,experiment,86,↓,down,↓,0.5896050999872386,True,28,1
162K27S3,1336,experiment,61,←,left,←,0.4570553000085056,True,28,1
162K27S3,1337,experiment,91,←,left,←,0.69618030032143,True,28,1
162K27S3,1338,experiment,103,↑,up,↑,0.5214654002338648,True,28,1
162K27S3,1339,experiment,107,←,left,←,0.31802470004186034,True,28,1
162K27S3,1340,experiment,57,←,right,→,0.6003407998941839,False,28,0
162K27S3,1341,experiment,72,↓,down,↓,0.5279822996817529,True,28,1
162K27S3,1342,experiment,60,←,left,←,0.6147571001201868,True,28,1
162K27S3,1343,experiment,84,←,left,←,0.31737340008839965,True,28,1
162K27S3,1344,experiment,90,→,right,→,0.48667379980906844,True,28,0
162K27S3,1345,experiment,100,→,right,→,0.665694999974221,True,28,1
162K27S3,1346,experiment,104,→,left,←,0.4280651002191007,False,28,1
162K27S3,1347,experiment,105,↓,down,↓,0.47937839990481734,True,28,1
162K27S3,1348,experiment,63,↓,down,↓,0.6633983999490738,True,28,1
162K27S3,1349,experiment,99,←,left,←,0.37570830015465617,True,28,1
162K27S3,1350,experiment,108,↑,down,↓,0.8796124001964927,False,28,0
162K27S3,1351,experiment,78,←,left,←,0.6419013002887368,True,28,1
162K27S3,1352,experiment,101,↓,down,↓,0.6062735002487898,True,28,1
162K27S3,1353,experiment,82,↓,down,↓,0.4663484999909997,True,28,1
162K27S3,1354,experiment,53,↓,down,↓,0.45383069990202785,True,28,1
162K27S3,1355,experiment,93,→,right,→,0.4766592998057604,True,28,1
162K27S3,1356,experiment,66,←,left,←,0.4272890998981893,True,28,1
162K27S3,1357,experiment,54,↑,down,↓,0.7680219998583198,False,28,1
162K27S3,1358,experiment,73,↓,down,↓,0.6166916000656784,True,28,1
162K27S3,1359,experiment,87,↑,up,↑,0.4826960996724665,True,28,1
162K27S3,1360,experiment,58,→,right,→,0.6599641996435821,True,28,1
162K27S3,1361,experiment,56,←,left,←,0.5745860999450088,True,28,1
162K27S3,1362,experiment,97,→,right,→,0.4869773001410067,True,28,1
162K27S3,1363,experiment,55,↑,down,↓,0.6811155001632869,False,28,1
162K27S3,1364,training,70,↓,down,↓,0.6659147003665566,True,28,0
162K27S3,1365,training,58,↑,up,↑,0.4514667997136712,True,28,1
162K27S3,1366,experiment,69,←,left,←,0.5705983000807464,True,28,1
162K27S3,1367,experiment,62,→,right,→,0.4706589002162218,True,28,1
162K27S3,1368,experiment,99,↓,down,↓,0.5143426996655762,True,28,1
162K27S3,1369,experiment,102,←,left,←,0.4118216997012496,True,28,1
162K27S3,1370,experiment,80,↓,down,↓,0.4719084999524057,True,28,1
162K27S3,1371,experiment,81,←,left,←,0.6255914997309446,True,28,1
162K27S3,1372,experiment,77,↓,down,↓,0.4307662001810968,True,28,1
162K27S3,1373,experiment,85,↓,down,↓,0.43273080000653863,True,28,1
162K27S3,1374,experiment,91,↑,up,↑,0.409468499943614,True,28,1
162K27S3,1375,experiment,75,↓,down,↓,0.6229749000631273,True,28,1
162K27S3,1376,experiment,64,→,right,→,0.568284799810499,True,28,1
162K27S3,1377,experiment,53,←,left,←,0.4396830000914633,True,28,1
162K27S3,1378,experiment,68,↑,up,↑,0.4077370003797114,True,28,1
162K27S3,1379,experiment,58,↑,no_key,no_letter,-1.0,False,28,0
162K27S3,1380,experiment,51,↑,up,↑,0.41436839988455176,True,28,1
162K27S3,1381,experiment,52,↓,down,↓,0.5397131000645459,True,28,1
162K27S3,1382,experiment,106,→,right,→,0.5782973999157548,True,28,1
162K27S3,1383,experiment,82,↑,down,↓,0.7836760999634862,False,28,1
162K27S3,1384,experiment,61,←,no_key,no_letter,-1.0,False,28,1
162K27S3,1385,experiment,78,→,right,→,0.453381999861449,True,28,1
162K27S3,1386,experiment,92,→,left,←,0.4765688003972173,False,28,1
162K27S3,1387,experiment,98,←,left,←,0.36737990006804466,True,28,1
162K27S3,1388,experiment,97,→,right,→,0.46479689981788397,True,28,0
162K27S3,1389,experiment,63,→,right,→,0.5611175000667572,True,28,1
162K27S3,1390,experiment,54,↓,down,↓,0.616310799960047,True,28,1
162K27S3,1391,experiment,76,↓,down,↓,0.5742424996569753,True,28,1
162K27S3,1392,experiment,107,→,right,→,0.6433326997794211,True,28,1
162K27S3,1393,experiment,96,←,left,←,0.4015768002718687,True,28,1
162K27S3,1394,experiment,100,↑,up,↑,0.5192778999917209,True,28,0
162K27S3,1395,experiment,90,↓,down,↓,0.5161890001036227,True,28,1
162K27S3,1396,experiment,67,↑,down,↓,0.5450393003411591,False,28,1
162K27S3,1397,experiment,71,↑,down,↓,0.5633979002013803,False,28,1
162K27S3,1398,experiment,50,↑,up,↑,0.4918045001104474,True,28,1
162K27S3,1399,experiment,65,→,right,→,0.6662289001978934,True,28,1
162K27S3,1400,experiment,79,↑,up,↑,0.5810774001292884,True,28,1
162K27S3,1401,experiment,105,↑,up,↑,0.5066462997347116,True,28,1
162K27S3,1402,experiment,88,→,right,→,0.5843442999757826,True,28,1
162K27S3,1403,experiment,59,↑,left,←,0.5173659999854863,False,28,1
162K27S3,1404,experiment,66,↑,up,↑,0.4422402000054717,True,28,1
162K27S3,1405,experiment,55,←,left,←,0.7740134000778198,True,28,1
162K27S3,1406,experiment,104,←,left,←,0.6120651001110673,True,28,1
162K27S3,1407,experiment,83,↓,down,↓,0.7438105996698141,True,28,1
162K27S3,1408,experiment,49,↑,down,↓,0.785542500205338,False,28,1
162K27S3,1409,experiment,70,↑,down,↓,0.6185385999269783,False,28,1
162K27S3,1410,experiment,95,↑,up,↑,0.6818410996347666,True,28,1
162K27S3,1411,experiment,94,→,right,→,0.5988766998052597,True,28,1
162K27S3,1412,experiment,60,↑,up,↑,0.43487480003386736,True,28,1
162K27S3,1413,experiment,57,→,left,←,0.5748544000089169,False,28,1
162K27S3,1414,experiment,93,→,right,→,0.5519074001349509,True,28,1
162K27S3,1415,experiment,48,↓,down,↓,0.46558169974014163,True,28,1
162K27S3,1416,experiment,101,↓,down,↓,0.4611450000666082,True,28,1
162K27S3,1417,experiment,87,↑,up,↑,0.4614381999708712,True,28,1
162K27S3,1418,experiment,56,←,right,→,0.6161965001374483,False,28,1
162K27S3,1419,experiment,89,↓,down,↓,0.6335708000697196,True,28,1
162K27S3,1420,experiment,84,←,left,←,0.3587938998825848,True,28,1
162K27S3,1421,experiment,103,↑,down,↓,0.5546413999982178,False,28,0
162K27S3,1422,experiment,108,→,right,→,0.46394449984654784,True,28,1
162K27S3,1423,experiment,72,↑,down,↓,0.6131463996134698,False,28,1
162K27S3,1424,experiment,86,↑,up,↑,0.9037826000712812,True,28,1
162K27S3,1425,experiment,74,↓,down,↓,0.5788318999111652,True,28,1
162K27S3,1426,experiment,73,→,left,←,0.4193413001485169,False,28,1
162K27S3,1427,training,82,→,right,→,0.44436659989878535,True,28,0
162K27S3,1428,training,59,→,right,→,0.5750517002306879,True,28,1
162K27S3,1429,experiment,99,↓,down,↓,0.6226186999119818,True,28,1
162K27S3,1430,experiment,64,←,left,←,0.43985059997066855,True,28,1
162K27S3,1431,experiment,90,↓,down,↓,0.6881158999167383,True,28,1
162K27S3,1432,experiment,101,↓,down,↓,0.5866656000725925,True,28,1
162K27S3,1433,experiment,87,→,left,←,0.7899915999732912,False,28,1
162K27S3,1434,experiment,100,↑,up,↑,0.6848675003275275,True,28,1
162K27S3,1435,experiment,48,↓,down,↓,0.6571507998742163,True,28,1
162K27S3,1436,experiment,72,→,right,→,0.46278550010174513,True,28,1
162K27S3,1437,experiment,56,←,left,←,0.4329645000398159,True,28,1
162K27S3,1438,experiment,67,→,right,→,0.5450287000276148,True,28,1
162K27S3,1439,experiment,108,↓,down,↓,0.7270547999069095,True,28,1
162K27S3,1440,experiment,98,↑,down,↓,0.7850739997811615,False,28,1
162K27S3,1441,experiment,54,→,right,→,0.5114396000280976,True,28,1
162K27S3,1442,experiment,84,→,left,←,0.7109029004350305,False,28,1
162K27S3,1443,experiment,59,↑,up,↑,0.4386536004021764,True,28,1
162K27S3,1444,experiment,61,↓,down,↓,0.5603628000244498,True,28,1
162K27S3,1445,experiment,103,←,left,←,0.903445300180465,True,28,1
162K27S3,1446,experiment,52,→,right,→,0.45770749961957335,True,28,1
162K27S3,1447,experiment,83,↑,no_key,no_letter,-1.0,False,28,1
162K27S3,1448,experiment,57,←,left,←,0.4203447001054883,True,28,1
162K27S3,1449,experiment,62,↓,down,↓,0.614512600004673,True,28,1
162K27S3,1450,experiment,92,→,left,←,0.5028544999659061,False,28,1
162K27S3,1451,experiment,51,←,left,←,0.609708100091666,True,28,1
162K27S3,1452,experiment,49,↑,down,↓,0.5927261998876929,False,28,1
162K27S3,1453,experiment,82,↑,down,↓,0.6454384997487068,False,28,1
162K27S3,1454,experiment,85,→,right,→,0.45509579963982105,True,28,1
162K27S3,1455,experiment,55,→,right,→,0.48273460008203983,True,28,1
162K27S3,1456,experiment,68,↑,up,↑,0.40888960007578135,True,28,1
162K27S3,1457,experiment,93,←,left,←,0.5444329995661974,True,28,1
162K27S3,1458,experiment,81,→,right,→,0.4235102999955416,True,28,1
162K27S3,1459,experiment,77,↑,up,↑,0.4525444000028074,True,28,1
162K27S3,1460,experiment,102,←,left,←,0.33427360001951456,True,28,1
162K27S3,1461,experiment,65,↓,no_key,no_letter,-1.0,False,28,0
162K27S3,1462,experiment,80,→,right,→,0.4458683002740145,True,28,1
162K27S3,1463,experiment,75,→,right,→,0.4587706997990608,True,28,1
162K27S3,1464,experiment,86,→,right,→,0.3841018001548946,True,28,1
162K27S3,1465,experiment,76,↑,no_key,no_letter,-1.0,False,28,0
162K27S3,1466,experiment,58,↑,up,↑,0.49849830009043217,True,28,1
162K27S3,1467,experiment,96,←,left,←,0.44632460037246346,True,28,1
162K27S3,1468,experiment,70,↓,down,↓,0.42865470005199313,True,28,1
162K27S3,1469,experiment,73,←,left,←,0.4347599996253848,True,28,1
162K27S3,1470,experiment,78,←,left,←,0.37607860006392,True,28,1
162K27S3,1471,experiment,88,↑,up,↑,0.4341687997803092,True,28,0
162K27S3,1472,experiment,53,↑,no_key,no_letter,-1.0,False,28,1
162K27S3,1473,experiment,94,→,right,→,0.46719140000641346,True,28,1
162K27S3,1474,experiment,50,→,no_key,no_letter,-1.0,False,28,1
162K27S3,1475,experiment,60,→,right,→,0.4871574002318084,True,28,1
162K27S3,1476,experiment,106,↓,down,↓,0.4557654997333884,True,28,1
162K27S3,1477,experiment,97,↑,up,↑,0.4608722999691963,True,28,1
162K27S3,1478,experiment,91,←,left,←,0.795925899874419,True,28,1
162K27S3,1479,experiment,71,↓,down,↓,0.6040362999774516,True,28,1
162K27S3,1480,experiment,66,↑,up,↑,0.4297846001572907,True,28,1
162K27S3,1481,experiment,95,↓,down,↓,0.9324566996656358,True,28,1
162K27S3,1482,experiment,79,↓,up,↑,0.6365018002688885,False,28,1
162K27S3,1483,experiment,89,↑,up,↑,0.7411629999987781,True,28,1
162K27S3,1484,experiment,69,→,left,←,0.5842780000530183,False,28,1
162K27S3,1485,experiment,104,→,right,→,0.7579900999553502,True,28,1
